subj,trial,block,date,stim,stim_order,response,rt,age,english,language,sex,param_index,segment,pitch,stretch
RIT,0,0,2024-06-27T06:57:09.625Z,english_607.wav,0,pill,12020,18,5,Japanese,f,0,0.0,46.6865757,1.30575186
RIT,0,0,2024-06-27T06:57:09.625Z,english_607.wav,0,pill,12020,18,5,Japanese,f,1,0.1,39.2269946,1.04660061
RIT,0,0,2024-06-27T06:57:09.625Z,english_607.wav,0,pill,12020,18,5,Japanese,f,2,0.2,9.54774619,0.88274406
RIT,0,0,2024-06-27T06:57:09.625Z,english_607.wav,0,pill,12020,18,5,Japanese,f,3,0.3,16.02187378,1.5824547
RIT,0,0,2024-06-27T06:57:09.625Z,english_607.wav,0,pill,12020,18,5,Japanese,f,4,0.32341667,75.62266759,0.67660632
RIT,1,0,2024-06-27T06:57:09.625Z,english_928.wav,0,pill,7828,18,5,Japanese,f,0,0.0,55.07207497,1.22706758
RIT,1,0,2024-06-27T06:57:09.625Z,english_928.wav,0,pill,7828,18,5,Japanese,f,1,0.1,83.71672672,0.97206042
RIT,1,0,2024-06-27T06:57:09.625Z,english_928.wav,0,pill,7828,18,5,Japanese,f,2,0.2,-43.28929986,0.16969859
RIT,1,0,2024-06-27T06:57:09.625Z,english_928.wav,0,pill,7828,18,5,Japanese,f,3,0.3,-17.1692271,0.90092586
RIT,1,0,2024-06-27T06:57:09.625Z,english_928.wav,0,pill,7828,18,5,Japanese,f,4,0.32341667,-36.644272,0.43024518
RIT,2,0,2024-06-27T06:57:09.625Z,english_340.wav,0,pill,4630,18,5,Japanese,f,0,0.0,42.62794877,1.44385011
RIT,2,0,2024-06-27T06:57:09.625Z,english_340.wav,0,pill,4630,18,5,Japanese,f,1,0.1,67.09042835,1.29329602
RIT,2,0,2024-06-27T06:57:09.625Z,english_340.wav,0,pill,4630,18,5,Japanese,f,2,0.2,-80.28719593,1.71068781
RIT,2,0,2024-06-27T06:57:09.625Z,english_340.wav,0,pill,4630,18,5,Japanese,f,3,0.3,-47.97556268,0.48872717
RIT,2,0,2024-06-27T06:57:09.625Z,english_340.wav,0,pill,4630,18,5,Japanese,f,4,0.32341667,32.7013797,1.09000269
RIT,3,0,2024-06-27T06:57:09.625Z,english_482.wav,0,pill,9100,18,5,Japanese,f,0,0.0,-75.58658814,1.00366747
RIT,3,0,2024-06-27T06:57:09.625Z,english_482.wav,0,pill,9100,18,5,Japanese,f,1,0.1,-97.88900999,1.47597923
RIT,3,0,2024-06-27T06:57:09.625Z,english_482.wav,0,pill,9100,18,5,Japanese,f,2,0.2,-4.46161317,1.10854794
RIT,3,0,2024-06-27T06:57:09.625Z,english_482.wav,0,pill,9100,18,5,Japanese,f,3,0.3,31.34799552,1.07348452
RIT,3,0,2024-06-27T06:57:09.625Z,english_482.wav,0,pill,9100,18,5,Japanese,f,4,0.32341667,-51.80510351,0.67390339
RIT,4,0,2024-06-27T06:57:09.625Z,english_488.wav,0,peel,1746,18,5,Japanese,f,0,0.0,7.19120882,0.55609806
RIT,4,0,2024-06-27T06:57:09.625Z,english_488.wav,0,peel,1746,18,5,Japanese,f,1,0.1,11.64873536,1.36121935
RIT,4,0,2024-06-27T06:57:09.625Z,english_488.wav,0,peel,1746,18,5,Japanese,f,2,0.2,59.26032861,0.93872915
RIT,4,0,2024-06-27T06:57:09.625Z,english_488.wav,0,peel,1746,18,5,Japanese,f,3,0.3,-31.0631162,1.52041262
RIT,4,0,2024-06-27T06:57:09.625Z,english_488.wav,0,peel,1746,18,5,Japanese,f,4,0.32341667,23.8619583,1.83140972
RIT,5,0,2024-06-27T06:57:09.625Z,english_955.wav,0,pill,1298,18,5,Japanese,f,0,0.0,-93.58498903,1.26703381
RIT,5,0,2024-06-27T06:57:09.625Z,english_955.wav,0,pill,1298,18,5,Japanese,f,1,0.1,-11.56731864,0.51967441
RIT,5,0,2024-06-27T06:57:09.625Z,english_955.wav,0,pill,1298,18,5,Japanese,f,2,0.2,60.37787928,1.0313906
RIT,5,0,2024-06-27T06:57:09.625Z,english_955.wav,0,pill,1298,18,5,Japanese,f,3,0.3,83.42366765,1.58878747
RIT,5,0,2024-06-27T06:57:09.625Z,english_955.wav,0,pill,1298,18,5,Japanese,f,4,0.32341667,-60.32056418,1.0025339
RIT,6,0,2024-06-27T06:57:09.625Z,english_311.wav,0,pill,3734,18,5,Japanese,f,0,0.0,-35.59355899,0.16094856
RIT,6,0,2024-06-27T06:57:09.625Z,english_311.wav,0,pill,3734,18,5,Japanese,f,1,0.1,-50.39310557,1.33895436
RIT,6,0,2024-06-27T06:57:09.625Z,english_311.wav,0,pill,3734,18,5,Japanese,f,2,0.2,-53.37222601,0.01028283
RIT,6,0,2024-06-27T06:57:09.625Z,english_311.wav,0,pill,3734,18,5,Japanese,f,3,0.3,72.25802658,0.48497386
RIT,6,0,2024-06-27T06:57:09.625Z,english_311.wav,0,pill,3734,18,5,Japanese,f,4,0.32341667,48.72421008,0.48591183
RIT,7,0,2024-06-27T06:57:09.625Z,english_131.wav,0,pill,6978,18,5,Japanese,f,0,0.0,-90.65248477,1.67513221
RIT,7,0,2024-06-27T06:57:09.625Z,english_131.wav,0,pill,6978,18,5,Japanese,f,1,0.1,7.0988446,1.62916956
RIT,7,0,2024-06-27T06:57:09.625Z,english_131.wav,0,pill,6978,18,5,Japanese,f,2,0.2,-30.94637352,1.4017665
RIT,7,0,2024-06-27T06:57:09.625Z,english_131.wav,0,pill,6978,18,5,Japanese,f,3,0.3,-31.86179524,1.07276153
RIT,7,0,2024-06-27T06:57:09.625Z,english_131.wav,0,pill,6978,18,5,Japanese,f,4,0.32341667,1.85809033,1.80109071
RIT,8,0,2024-06-27T06:57:09.625Z,english_505.wav,0,pill,8540,18,5,Japanese,f,0,0.0,-14.1569725,0.45361713
RIT,8,0,2024-06-27T06:57:09.625Z,english_505.wav,0,pill,8540,18,5,Japanese,f,1,0.1,55.52926248,0.94516805
RIT,8,0,2024-06-27T06:57:09.625Z,english_505.wav,0,pill,8540,18,5,Japanese,f,2,0.2,53.00334781,0.85342654
RIT,8,0,2024-06-27T06:57:09.625Z,english_505.wav,0,pill,8540,18,5,Japanese,f,3,0.3,75.03788466,1.32942474
RIT,8,0,2024-06-27T06:57:09.625Z,english_505.wav,0,pill,8540,18,5,Japanese,f,4,0.32341667,-7.91266729,0.93790665
RIT,9,0,2024-06-27T06:57:09.625Z,english_949.wav,0,peel,1222,18,5,Japanese,f,0,0.0,48.32946721,1.50413289
RIT,9,0,2024-06-27T06:57:09.625Z,english_949.wav,0,peel,1222,18,5,Japanese,f,1,0.1,73.83586198,1.55745414
RIT,9,0,2024-06-27T06:57:09.625Z,english_949.wav,0,peel,1222,18,5,Japanese,f,2,0.2,-30.27812065,1.00772566
RIT,9,0,2024-06-27T06:57:09.625Z,english_949.wav,0,peel,1222,18,5,Japanese,f,3,0.3,-32.50397555,0.86702054
RIT,9,0,2024-06-27T06:57:09.625Z,english_949.wav,0,peel,1222,18,5,Japanese,f,4,0.32341667,96.46984971,1.67836019
RIT,10,0,2024-06-27T06:57:09.625Z,english_392.wav,0,peel,5283,18,5,Japanese,f,0,0.0,-12.90562814,1.13144201
RIT,10,0,2024-06-27T06:57:09.625Z,english_392.wav,0,peel,5283,18,5,Japanese,f,1,0.1,-1.29416779,0.98893381
RIT,10,0,2024-06-27T06:57:09.625Z,english_392.wav,0,peel,5283,18,5,Japanese,f,2,0.2,-53.34155903,0.07204825
RIT,10,0,2024-06-27T06:57:09.625Z,english_392.wav,0,peel,5283,18,5,Japanese,f,3,0.3,-48.65153398,1.52779633
RIT,10,0,2024-06-27T06:57:09.625Z,english_392.wav,0,peel,5283,18,5,Japanese,f,4,0.32341667,-43.47653164,1.32355089
RIT,11,0,2024-06-27T06:57:09.625Z,english_280.wav,0,peel,3555,18,5,Japanese,f,0,0.0,88.60957906,0.0301642
RIT,11,0,2024-06-27T06:57:09.625Z,english_280.wav,0,peel,3555,18,5,Japanese,f,1,0.1,84.68226706,1.61205195
RIT,11,0,2024-06-27T06:57:09.625Z,english_280.wav,0,peel,3555,18,5,Japanese,f,2,0.2,-77.43679957,1.42137195
RIT,11,0,2024-06-27T06:57:09.625Z,english_280.wav,0,peel,3555,18,5,Japanese,f,3,0.3,45.11946934,1.73240953
RIT,11,0,2024-06-27T06:57:09.625Z,english_280.wav,0,peel,3555,18,5,Japanese,f,4,0.32341667,-36.96988582,0.09602122
RIT,12,0,2024-06-27T06:57:09.625Z,english_887.wav,0,pill,5340,18,5,Japanese,f,0,0.0,21.36154006,0.58574694
RIT,12,0,2024-06-27T06:57:09.625Z,english_887.wav,0,pill,5340,18,5,Japanese,f,1,0.1,-21.46213737,0.48413962
RIT,12,0,2024-06-27T06:57:09.625Z,english_887.wav,0,pill,5340,18,5,Japanese,f,2,0.2,-45.53850124,1.16923549
RIT,12,0,2024-06-27T06:57:09.625Z,english_887.wav,0,pill,5340,18,5,Japanese,f,3,0.3,-75.36110743,1.46190157
RIT,12,0,2024-06-27T06:57:09.625Z,english_887.wav,0,pill,5340,18,5,Japanese,f,4,0.32341667,-96.67184991,0.00789239
RIT,13,0,2024-06-27T06:57:09.625Z,english_47.wav,0,pill,5788,18,5,Japanese,f,0,0.0,70.62381491,1.36620222
RIT,13,0,2024-06-27T06:57:09.625Z,english_47.wav,0,pill,5788,18,5,Japanese,f,1,0.1,-43.60565268,0.47559644
RIT,13,0,2024-06-27T06:57:09.625Z,english_47.wav,0,pill,5788,18,5,Japanese,f,2,0.2,29.54670776,0.92078875
RIT,13,0,2024-06-27T06:57:09.625Z,english_47.wav,0,pill,5788,18,5,Japanese,f,3,0.3,95.208653,0.83015506
RIT,13,0,2024-06-27T06:57:09.625Z,english_47.wav,0,pill,5788,18,5,Japanese,f,4,0.32341667,-87.83630424,1.40747595
RIT,14,0,2024-06-27T06:57:09.625Z,english_979.wav,0,peel,4667,18,5,Japanese,f,0,0.0,-1.00654814,1.61411081
RIT,14,0,2024-06-27T06:57:09.625Z,english_979.wav,0,peel,4667,18,5,Japanese,f,1,0.1,18.39835707,1.30464512
RIT,14,0,2024-06-27T06:57:09.625Z,english_979.wav,0,peel,4667,18,5,Japanese,f,2,0.2,-42.91789413,0.93120215
RIT,14,0,2024-06-27T06:57:09.625Z,english_979.wav,0,peel,4667,18,5,Japanese,f,3,0.3,-58.29527223,0.87145212
RIT,14,0,2024-06-27T06:57:09.625Z,english_979.wav,0,peel,4667,18,5,Japanese,f,4,0.32341667,86.14740424,1.17332389
RIT,15,0,2024-06-27T06:57:09.625Z,english_323.wav,0,pill,3486,18,5,Japanese,f,0,0.0,92.33188111,1.59668922
RIT,15,0,2024-06-27T06:57:09.625Z,english_323.wav,0,pill,3486,18,5,Japanese,f,1,0.1,4.22577609,1.75306106
RIT,15,0,2024-06-27T06:57:09.625Z,english_323.wav,0,pill,3486,18,5,Japanese,f,2,0.2,-35.48560344,1.06071567
RIT,15,0,2024-06-27T06:57:09.625Z,english_323.wav,0,pill,3486,18,5,Japanese,f,3,0.3,7.73763769,1.9328625
RIT,15,0,2024-06-27T06:57:09.625Z,english_323.wav,0,pill,3486,18,5,Japanese,f,4,0.32341667,55.62458321,1.27347405
RIT,16,0,2024-06-27T06:57:09.625Z,english_856.wav,0,peel,3027,18,5,Japanese,f,0,0.0,-44.08940674,1.51880133
RIT,16,0,2024-06-27T06:57:09.625Z,english_856.wav,0,peel,3027,18,5,Japanese,f,1,0.1,-25.77644107,0.99524475
RIT,16,0,2024-06-27T06:57:09.625Z,english_856.wav,0,peel,3027,18,5,Japanese,f,2,0.2,6.39263247,1.11391415
RIT,16,0,2024-06-27T06:57:09.625Z,english_856.wav,0,peel,3027,18,5,Japanese,f,3,0.3,92.67536145,0.95575529
RIT,16,0,2024-06-27T06:57:09.625Z,english_856.wav,0,peel,3027,18,5,Japanese,f,4,0.32341667,45.15991817,1.02944292
RIT,17,0,2024-06-27T06:57:09.625Z,english_384.wav,0,pill,2069,18,5,Japanese,f,0,0.0,-38.96228733,0.34616893
RIT,17,0,2024-06-27T06:57:09.625Z,english_384.wav,0,pill,2069,18,5,Japanese,f,1,0.1,2.386347,0.04115024
RIT,17,0,2024-06-27T06:57:09.625Z,english_384.wav,0,pill,2069,18,5,Japanese,f,2,0.2,48.26486793,0.35900131
RIT,17,0,2024-06-27T06:57:09.625Z,english_384.wav,0,pill,2069,18,5,Japanese,f,3,0.3,-48.11903655,1.58519606
RIT,17,0,2024-06-27T06:57:09.625Z,english_384.wav,0,pill,2069,18,5,Japanese,f,4,0.32341667,19.29531145,0.95531857
RIT,18,0,2024-06-27T06:57:09.625Z,english_129.wav,0,peel,4543,18,5,Japanese,f,0,0.0,80.17800931,1.16690044
RIT,18,0,2024-06-27T06:57:09.625Z,english_129.wav,0,peel,4543,18,5,Japanese,f,1,0.1,6.7929614,1.89220933
RIT,18,0,2024-06-27T06:57:09.625Z,english_129.wav,0,peel,4543,18,5,Japanese,f,2,0.2,51.03188375,1.40122633
RIT,18,0,2024-06-27T06:57:09.625Z,english_129.wav,0,peel,4543,18,5,Japanese,f,3,0.3,-14.28174581,0.72131347
RIT,18,0,2024-06-27T06:57:09.625Z,english_129.wav,0,peel,4543,18,5,Japanese,f,4,0.32341667,32.60771632,1.30692003
RIT,19,0,2024-06-27T06:57:09.625Z,english_244.wav,0,peel,2190,18,5,Japanese,f,0,0.0,-70.20374383,1.65134166
RIT,19,0,2024-06-27T06:57:09.625Z,english_244.wav,0,peel,2190,18,5,Japanese,f,1,0.1,67.84882107,1.23738837
RIT,19,0,2024-06-27T06:57:09.625Z,english_244.wav,0,peel,2190,18,5,Japanese,f,2,0.2,0.61676271,0.90147553
RIT,19,0,2024-06-27T06:57:09.625Z,english_244.wav,0,peel,2190,18,5,Japanese,f,3,0.3,-96.58934439,1.79293216
RIT,19,0,2024-06-27T06:57:09.625Z,english_244.wav,0,peel,2190,18,5,Japanese,f,4,0.32341667,-77.46985837,1.15013727
RIT,20,0,2024-06-27T06:57:09.625Z,english_481.wav,0,pill,3046,18,5,Japanese,f,0,0.0,-1.07793215,1.34620279
RIT,20,0,2024-06-27T06:57:09.625Z,english_481.wav,0,pill,3046,18,5,Japanese,f,1,0.1,72.11929458,0.4682023
RIT,20,0,2024-06-27T06:57:09.625Z,english_481.wav,0,pill,3046,18,5,Japanese,f,2,0.2,-0.36002545,1.2575358
RIT,20,0,2024-06-27T06:57:09.625Z,english_481.wav,0,pill,3046,18,5,Japanese,f,3,0.3,11.70252104,1.51306824
RIT,20,0,2024-06-27T06:57:09.625Z,english_481.wav,0,pill,3046,18,5,Japanese,f,4,0.32341667,-16.16595736,1.86086011
RIT,21,0,2024-06-27T06:57:09.625Z,english_581.wav,0,pill,3026,18,5,Japanese,f,0,0.0,-4.1565262,0.01704603
RIT,21,0,2024-06-27T06:57:09.625Z,english_581.wav,0,pill,3026,18,5,Japanese,f,1,0.1,84.55344465,1.32903406
RIT,21,0,2024-06-27T06:57:09.625Z,english_581.wav,0,pill,3026,18,5,Japanese,f,2,0.2,-57.45750027,1.58046526
RIT,21,0,2024-06-27T06:57:09.625Z,english_581.wav,0,pill,3026,18,5,Japanese,f,3,0.3,-14.35569009,1.16633299
RIT,21,0,2024-06-27T06:57:09.625Z,english_581.wav,0,pill,3026,18,5,Japanese,f,4,0.32341667,-54.33758456,1.20758605
RIT,22,0,2024-06-27T06:57:09.625Z,english_516.wav,0,pill,1553,18,5,Japanese,f,0,0.0,-37.49134217,0.47483782
RIT,22,0,2024-06-27T06:57:09.625Z,english_516.wav,0,pill,1553,18,5,Japanese,f,1,0.1,56.61653956,1.0523806
RIT,22,0,2024-06-27T06:57:09.625Z,english_516.wav,0,pill,1553,18,5,Japanese,f,2,0.2,60.98574822,0.59798137
RIT,22,0,2024-06-27T06:57:09.625Z,english_516.wav,0,pill,1553,18,5,Japanese,f,3,0.3,-0.52682824,0.6957238
RIT,22,0,2024-06-27T06:57:09.625Z,english_516.wav,0,pill,1553,18,5,Japanese,f,4,0.32341667,-50.41932267,1.76373844
RIT,23,0,2024-06-27T06:57:09.625Z,english_470.wav,0,pill,4308,18,5,Japanese,f,0,0.0,-20.39789813,1.83124966
RIT,23,0,2024-06-27T06:57:09.625Z,english_470.wav,0,pill,4308,18,5,Japanese,f,1,0.1,20.62750989,0.41787925
RIT,23,0,2024-06-27T06:57:09.625Z,english_470.wav,0,pill,4308,18,5,Japanese,f,2,0.2,-59.78251605,1.85790598
RIT,23,0,2024-06-27T06:57:09.625Z,english_470.wav,0,pill,4308,18,5,Japanese,f,3,0.3,-88.74051682,0.99710793
RIT,23,0,2024-06-27T06:57:09.625Z,english_470.wav,0,pill,4308,18,5,Japanese,f,4,0.32341667,8.31634628,0.56985764
RIT,24,0,2024-06-27T06:57:09.625Z,english_126.wav,0,peel,3388,18,5,Japanese,f,0,0.0,-71.89060105,0.84485729
RIT,24,0,2024-06-27T06:57:09.625Z,english_126.wav,0,peel,3388,18,5,Japanese,f,1,0.1,-54.28004149,1.61340521
RIT,24,0,2024-06-27T06:57:09.625Z,english_126.wav,0,peel,3388,18,5,Japanese,f,2,0.2,67.0997098,1.10892805
RIT,24,0,2024-06-27T06:57:09.625Z,english_126.wav,0,peel,3388,18,5,Japanese,f,3,0.3,-96.31741745,1.20133652
RIT,24,0,2024-06-27T06:57:09.625Z,english_126.wav,0,peel,3388,18,5,Japanese,f,4,0.32341667,22.67293764,0.33470898
RIT,25,0,2024-06-27T06:57:09.625Z,english_610.wav,0,pill,1325,18,5,Japanese,f,0,0.0,-14.96432812,0.5672697
RIT,25,0,2024-06-27T06:57:09.625Z,english_610.wav,0,pill,1325,18,5,Japanese,f,1,0.1,48.51886955,0.75156182
RIT,25,0,2024-06-27T06:57:09.625Z,english_610.wav,0,pill,1325,18,5,Japanese,f,2,0.2,47.07358548,0.38846335
RIT,25,0,2024-06-27T06:57:09.625Z,english_610.wav,0,pill,1325,18,5,Japanese,f,3,0.3,17.30383174,1.52072292
RIT,25,0,2024-06-27T06:57:09.625Z,english_610.wav,0,pill,1325,18,5,Japanese,f,4,0.32341667,1.51764356,1.56024836
RIT,26,0,2024-06-27T06:57:09.625Z,english_670.wav,0,pill,3162,18,5,Japanese,f,0,0.0,64.75672565,1.5535903
RIT,26,0,2024-06-27T06:57:09.625Z,english_670.wav,0,pill,3162,18,5,Japanese,f,1,0.1,85.95156369,0.12522594
RIT,26,0,2024-06-27T06:57:09.625Z,english_670.wav,0,pill,3162,18,5,Japanese,f,2,0.2,-44.32949438,0.22842632
RIT,26,0,2024-06-27T06:57:09.625Z,english_670.wav,0,pill,3162,18,5,Japanese,f,3,0.3,22.57192219,0.17636502
RIT,26,0,2024-06-27T06:57:09.625Z,english_670.wav,0,pill,3162,18,5,Japanese,f,4,0.32341667,34.74005277,0.16208776
RIT,27,0,2024-06-27T06:57:09.625Z,english_357.wav,0,peel,5575,18,5,Japanese,f,0,0.0,76.35734026,1.14590216
RIT,27,0,2024-06-27T06:57:09.625Z,english_357.wav,0,peel,5575,18,5,Japanese,f,1,0.1,-86.84267031,0.53472093
RIT,27,0,2024-06-27T06:57:09.625Z,english_357.wav,0,peel,5575,18,5,Japanese,f,2,0.2,-64.6676431,0.54723503
RIT,27,0,2024-06-27T06:57:09.625Z,english_357.wav,0,peel,5575,18,5,Japanese,f,3,0.3,-69.9472318,1.29334783
RIT,27,0,2024-06-27T06:57:09.625Z,english_357.wav,0,peel,5575,18,5,Japanese,f,4,0.32341667,87.84988665,1.74725804
RIT,28,0,2024-06-27T06:57:09.625Z,english_981.wav,0,peel,1555,18,5,Japanese,f,0,0.0,-19.49446297,1.96452006
RIT,28,0,2024-06-27T06:57:09.625Z,english_981.wav,0,peel,1555,18,5,Japanese,f,1,0.1,-69.0386812,1.2006287
RIT,28,0,2024-06-27T06:57:09.625Z,english_981.wav,0,peel,1555,18,5,Japanese,f,2,0.2,-25.77088537,0.98600753
RIT,28,0,2024-06-27T06:57:09.625Z,english_981.wav,0,peel,1555,18,5,Japanese,f,3,0.3,65.67633712,0.21362544
RIT,28,0,2024-06-27T06:57:09.625Z,english_981.wav,0,peel,1555,18,5,Japanese,f,4,0.32341667,-6.1640169,0.33780549
RIT,29,0,2024-06-27T06:57:09.625Z,english_814.wav,0,peel,1265,18,5,Japanese,f,0,0.0,-63.32480856,1.93717082
RIT,29,0,2024-06-27T06:57:09.625Z,english_814.wav,0,peel,1265,18,5,Japanese,f,1,0.1,34.42157774,0.66627456
RIT,29,0,2024-06-27T06:57:09.625Z,english_814.wav,0,peel,1265,18,5,Japanese,f,2,0.2,-1.27362148,1.33718687
RIT,29,0,2024-06-27T06:57:09.625Z,english_814.wav,0,peel,1265,18,5,Japanese,f,3,0.3,11.18388565,1.12749716
RIT,29,0,2024-06-27T06:57:09.625Z,english_814.wav,0,peel,1265,18,5,Japanese,f,4,0.32341667,-9.56708644,0.66623879
RIT,30,0,2024-06-27T06:57:09.625Z,english_355.wav,0,pill,1083,18,5,Japanese,f,0,0.0,33.6784286,1.28512049
RIT,30,0,2024-06-27T06:57:09.625Z,english_355.wav,0,pill,1083,18,5,Japanese,f,1,0.1,30.74796889,1.04729355
RIT,30,0,2024-06-27T06:57:09.625Z,english_355.wav,0,pill,1083,18,5,Japanese,f,2,0.2,71.39310534,0.74339822
RIT,30,0,2024-06-27T06:57:09.625Z,english_355.wav,0,pill,1083,18,5,Japanese,f,3,0.3,38.16266559,0.86152361
RIT,30,0,2024-06-27T06:57:09.625Z,english_355.wav,0,pill,1083,18,5,Japanese,f,4,0.32341667,-39.8799084,1.83215587
RIT,31,0,2024-06-27T06:57:09.625Z,english_936.wav,0,peel,3371,18,5,Japanese,f,0,0.0,48.39129511,0.54114143
RIT,31,0,2024-06-27T06:57:09.625Z,english_936.wav,0,peel,3371,18,5,Japanese,f,1,0.1,-60.21618585,1.68728974
RIT,31,0,2024-06-27T06:57:09.625Z,english_936.wav,0,peel,3371,18,5,Japanese,f,2,0.2,21.92845445,1.39155326
RIT,31,0,2024-06-27T06:57:09.625Z,english_936.wav,0,peel,3371,18,5,Japanese,f,3,0.3,72.85258749,0.90488419
RIT,31,0,2024-06-27T06:57:09.625Z,english_936.wav,0,peel,3371,18,5,Japanese,f,4,0.32341667,60.11152814,1.20326098
RIT,32,0,2024-06-27T06:57:09.625Z,english_445.wav,0,peel,3605,18,5,Japanese,f,0,0.0,88.00598922,1.42174052
RIT,32,0,2024-06-27T06:57:09.625Z,english_445.wav,0,peel,3605,18,5,Japanese,f,1,0.1,96.51328737,1.49122509
RIT,32,0,2024-06-27T06:57:09.625Z,english_445.wav,0,peel,3605,18,5,Japanese,f,2,0.2,29.11093561,0.62095286
RIT,32,0,2024-06-27T06:57:09.625Z,english_445.wav,0,peel,3605,18,5,Japanese,f,3,0.3,69.6076589,1.14630865
RIT,32,0,2024-06-27T06:57:09.625Z,english_445.wav,0,peel,3605,18,5,Japanese,f,4,0.32341667,-59.73938179,1.38538671
RIT,33,0,2024-06-27T06:57:09.625Z,english_890.wav,0,pill,3513,18,5,Japanese,f,0,0.0,-68.21158685,0.82535308
RIT,33,0,2024-06-27T06:57:09.625Z,english_890.wav,0,pill,3513,18,5,Japanese,f,1,0.1,-83.19360642,1.79167423
RIT,33,0,2024-06-27T06:57:09.625Z,english_890.wav,0,pill,3513,18,5,Japanese,f,2,0.2,79.13343252,0.78297904
RIT,33,0,2024-06-27T06:57:09.625Z,english_890.wav,0,pill,3513,18,5,Japanese,f,3,0.3,80.54326003,0.23441015
RIT,33,0,2024-06-27T06:57:09.625Z,english_890.wav,0,pill,3513,18,5,Japanese,f,4,0.32341667,-30.48737523,1.41044901
RIT,34,0,2024-06-27T06:57:09.625Z,english_197.wav,0,peel,2059,18,5,Japanese,f,0,0.0,-60.72223742,1.8449777
RIT,34,0,2024-06-27T06:57:09.625Z,english_197.wav,0,peel,2059,18,5,Japanese,f,1,0.1,-88.93421142,1.74693134
RIT,34,0,2024-06-27T06:57:09.625Z,english_197.wav,0,peel,2059,18,5,Japanese,f,2,0.2,51.43827126,1.11057597
RIT,34,0,2024-06-27T06:57:09.625Z,english_197.wav,0,peel,2059,18,5,Japanese,f,3,0.3,7.80125839,1.67371275
RIT,34,0,2024-06-27T06:57:09.625Z,english_197.wav,0,peel,2059,18,5,Japanese,f,4,0.32341667,-53.06876459,1.16077516
RIT,35,0,2024-06-27T06:57:09.625Z,english_766.wav,0,pill,3374,18,5,Japanese,f,0,0.0,-86.57417509,1.21737292
RIT,35,0,2024-06-27T06:57:09.625Z,english_766.wav,0,pill,3374,18,5,Japanese,f,1,0.1,-67.75686223,1.61484435
RIT,35,0,2024-06-27T06:57:09.625Z,english_766.wav,0,pill,3374,18,5,Japanese,f,2,0.2,74.21258041,1.47872362
RIT,35,0,2024-06-27T06:57:09.625Z,english_766.wav,0,pill,3374,18,5,Japanese,f,3,0.3,65.20164426,1.81064247
RIT,35,0,2024-06-27T06:57:09.625Z,english_766.wav,0,pill,3374,18,5,Japanese,f,4,0.32341667,-26.41371036,1.37776493
RIT,36,0,2024-06-27T06:57:09.625Z,english_748.wav,0,peel,7629,18,5,Japanese,f,0,0.0,0.23647087,0.91094575
RIT,36,0,2024-06-27T06:57:09.625Z,english_748.wav,0,peel,7629,18,5,Japanese,f,1,0.1,45.60572596,1.68800655
RIT,36,0,2024-06-27T06:57:09.625Z,english_748.wav,0,peel,7629,18,5,Japanese,f,2,0.2,6.14588966,1.37684191
RIT,36,0,2024-06-27T06:57:09.625Z,english_748.wav,0,peel,7629,18,5,Japanese,f,3,0.3,-10.39850874,0.70556294
RIT,36,0,2024-06-27T06:57:09.625Z,english_748.wav,0,peel,7629,18,5,Japanese,f,4,0.32341667,-7.86503132,1.52987196
RIT,37,0,2024-06-27T06:57:09.625Z,english_90.wav,0,pill,1633,18,5,Japanese,f,0,0.0,82.68866707,0.54239523
RIT,37,0,2024-06-27T06:57:09.625Z,english_90.wav,0,pill,1633,18,5,Japanese,f,1,0.1,-81.25370946,1.03335699
RIT,37,0,2024-06-27T06:57:09.625Z,english_90.wav,0,pill,1633,18,5,Japanese,f,2,0.2,56.28719083,1.93576477
RIT,37,0,2024-06-27T06:57:09.625Z,english_90.wav,0,pill,1633,18,5,Japanese,f,3,0.3,-46.43338119,0.74570916
RIT,37,0,2024-06-27T06:57:09.625Z,english_90.wav,0,pill,1633,18,5,Japanese,f,4,0.32341667,-19.93520327,1.11115504
RIT,38,0,2024-06-27T06:57:09.625Z,english_5.wav,0,pill,1047,18,5,Japanese,f,0,0.0,-15.92383461,0.27445408
RIT,38,0,2024-06-27T06:57:09.625Z,english_5.wav,0,pill,1047,18,5,Japanese,f,1,0.1,-20.01914587,0.54328549
RIT,38,0,2024-06-27T06:57:09.625Z,english_5.wav,0,pill,1047,18,5,Japanese,f,2,0.2,40.70457056,0.32172142
RIT,38,0,2024-06-27T06:57:09.625Z,english_5.wav,0,pill,1047,18,5,Japanese,f,3,0.3,-94.67131236,1.15903644
RIT,38,0,2024-06-27T06:57:09.625Z,english_5.wav,0,pill,1047,18,5,Japanese,f,4,0.32341667,-88.33027294,0.94870148
RIT,39,0,2024-06-27T06:57:09.625Z,english_236.wav,0,peel,1813,18,5,Japanese,f,0,0.0,14.26564849,0.89253674
RIT,39,0,2024-06-27T06:57:09.625Z,english_236.wav,0,peel,1813,18,5,Japanese,f,1,0.1,60.97219358,0.38957934
RIT,39,0,2024-06-27T06:57:09.625Z,english_236.wav,0,peel,1813,18,5,Japanese,f,2,0.2,-12.39626346,1.55558051
RIT,39,0,2024-06-27T06:57:09.625Z,english_236.wav,0,peel,1813,18,5,Japanese,f,3,0.3,-62.87774076,0.2682718
RIT,39,0,2024-06-27T06:57:09.625Z,english_236.wav,0,peel,1813,18,5,Japanese,f,4,0.32341667,-75.97684705,1.92182597
RIT,40,0,2024-06-27T06:57:09.625Z,english_433.wav,0,pill,2767,18,5,Japanese,f,0,0.0,-74.58178472,0.69852952
RIT,40,0,2024-06-27T06:57:09.625Z,english_433.wav,0,pill,2767,18,5,Japanese,f,1,0.1,-50.00917691,1.92405883
RIT,40,0,2024-06-27T06:57:09.625Z,english_433.wav,0,pill,2767,18,5,Japanese,f,2,0.2,48.18572343,0.3905825
RIT,40,0,2024-06-27T06:57:09.625Z,english_433.wav,0,pill,2767,18,5,Japanese,f,3,0.3,-63.95387597,0.31453116
RIT,40,0,2024-06-27T06:57:09.625Z,english_433.wav,0,pill,2767,18,5,Japanese,f,4,0.32341667,-68.91859183,1.4953114
RIT,41,0,2024-06-27T06:57:09.625Z,english_737.wav,0,pill,852,18,5,Japanese,f,0,0.0,21.35751723,1.17499048
RIT,41,0,2024-06-27T06:57:09.625Z,english_737.wav,0,pill,852,18,5,Japanese,f,1,0.1,61.52152077,1.09581395
RIT,41,0,2024-06-27T06:57:09.625Z,english_737.wav,0,pill,852,18,5,Japanese,f,2,0.2,-29.75610596,0.62940412
RIT,41,0,2024-06-27T06:57:09.625Z,english_737.wav,0,pill,852,18,5,Japanese,f,3,0.3,-39.80249708,0.11793022
RIT,41,0,2024-06-27T06:57:09.625Z,english_737.wav,0,pill,852,18,5,Japanese,f,4,0.32341667,-14.64937497,0.62377861
RIT,42,0,2024-06-27T06:57:09.625Z,english_731.wav,0,pill,2495,18,5,Japanese,f,0,0.0,91.74609406,0.2840719
RIT,42,0,2024-06-27T06:57:09.625Z,english_731.wav,0,pill,2495,18,5,Japanese,f,1,0.1,96.5637085,1.75324284
RIT,42,0,2024-06-27T06:57:09.625Z,english_731.wav,0,pill,2495,18,5,Japanese,f,2,0.2,-58.02596537,1.43086201
RIT,42,0,2024-06-27T06:57:09.625Z,english_731.wav,0,pill,2495,18,5,Japanese,f,3,0.3,21.59328018,1.68336342
RIT,42,0,2024-06-27T06:57:09.625Z,english_731.wav,0,pill,2495,18,5,Japanese,f,4,0.32341667,13.26044458,0.60031718
RIT,43,0,2024-06-27T06:57:09.625Z,english_199.wav,0,pill,2742,18,5,Japanese,f,0,0.0,-24.89956817,0.07306367
RIT,43,0,2024-06-27T06:57:09.625Z,english_199.wav,0,pill,2742,18,5,Japanese,f,1,0.1,-48.49200931,0.10334581
RIT,43,0,2024-06-27T06:57:09.625Z,english_199.wav,0,pill,2742,18,5,Japanese,f,2,0.2,-89.66548778,1.49062114
RIT,43,0,2024-06-27T06:57:09.625Z,english_199.wav,0,pill,2742,18,5,Japanese,f,3,0.3,29.20785813,0.36717513
RIT,43,0,2024-06-27T06:57:09.625Z,english_199.wav,0,pill,2742,18,5,Japanese,f,4,0.32341667,-88.68286362,1.33179809
RIT,44,0,2024-06-27T06:57:09.625Z,english_687.wav,0,peel,1708,18,5,Japanese,f,0,0.0,86.90300909,0.475784
RIT,44,0,2024-06-27T06:57:09.625Z,english_687.wav,0,peel,1708,18,5,Japanese,f,1,0.1,79.71843279,0.40603367
RIT,44,0,2024-06-27T06:57:09.625Z,english_687.wav,0,peel,1708,18,5,Japanese,f,2,0.2,34.94433723,0.97706088
RIT,44,0,2024-06-27T06:57:09.625Z,english_687.wav,0,peel,1708,18,5,Japanese,f,3,0.3,-45.53952821,0.65075382
RIT,44,0,2024-06-27T06:57:09.625Z,english_687.wav,0,peel,1708,18,5,Japanese,f,4,0.32341667,63.0204093,0.93918167
RIT,45,0,2024-06-27T06:57:09.625Z,english_589.wav,0,peel,659,18,5,Japanese,f,0,0.0,58.55453646,1.98928345
RIT,45,0,2024-06-27T06:57:09.625Z,english_589.wav,0,peel,659,18,5,Japanese,f,1,0.1,30.45164265,1.49107718
RIT,45,0,2024-06-27T06:57:09.625Z,english_589.wav,0,peel,659,18,5,Japanese,f,2,0.2,-45.43400091,0.52639062
RIT,45,0,2024-06-27T06:57:09.625Z,english_589.wav,0,peel,659,18,5,Japanese,f,3,0.3,84.99084473,0.34590986
RIT,45,0,2024-06-27T06:57:09.625Z,english_589.wav,0,peel,659,18,5,Japanese,f,4,0.32341667,65.45411119,0.67022481
RIT,46,0,2024-06-27T06:57:09.625Z,english_457.wav,0,pill,489,18,5,Japanese,f,0,0.0,-73.30847947,0.35525387
RIT,46,0,2024-06-27T06:57:09.625Z,english_457.wav,0,pill,489,18,5,Japanese,f,1,0.1,-25.74413936,0.90483023
RIT,46,0,2024-06-27T06:57:09.625Z,english_457.wav,0,pill,489,18,5,Japanese,f,2,0.2,8.82772976,1.30004432
RIT,46,0,2024-06-27T06:57:09.625Z,english_457.wav,0,pill,489,18,5,Japanese,f,3,0.3,-2.30416086,0.93422762
RIT,46,0,2024-06-27T06:57:09.625Z,english_457.wav,0,pill,489,18,5,Japanese,f,4,0.32341667,-34.04493945,1.31504388
RIT,47,0,2024-06-27T06:57:09.625Z,english_563.wav,0,pill,979,18,5,Japanese,f,0,0.0,19.758909,0.0609285
RIT,47,0,2024-06-27T06:57:09.625Z,english_563.wav,0,pill,979,18,5,Japanese,f,1,0.1,33.70416131,1.63852294
RIT,47,0,2024-06-27T06:57:09.625Z,english_563.wav,0,pill,979,18,5,Japanese,f,2,0.2,-28.26228599,0.53834051
RIT,47,0,2024-06-27T06:57:09.625Z,english_563.wav,0,pill,979,18,5,Japanese,f,3,0.3,77.25360299,0.54558093
RIT,47,0,2024-06-27T06:57:09.625Z,english_563.wav,0,pill,979,18,5,Japanese,f,4,0.32341667,-40.65982077,0.29994173
RIT,48,0,2024-06-27T06:57:09.625Z,english_391.wav,0,pill,1189,18,5,Japanese,f,0,0.0,67.64906061,0.41951577
RIT,48,0,2024-06-27T06:57:09.625Z,english_391.wav,0,pill,1189,18,5,Japanese,f,1,0.1,79.28195584,0.03526883
RIT,48,0,2024-06-27T06:57:09.625Z,english_391.wav,0,pill,1189,18,5,Japanese,f,2,0.2,62.27299227,0.81828659
RIT,48,0,2024-06-27T06:57:09.625Z,english_391.wav,0,pill,1189,18,5,Japanese,f,3,0.3,-11.10764883,1.2900604
RIT,48,0,2024-06-27T06:57:09.625Z,english_391.wav,0,pill,1189,18,5,Japanese,f,4,0.32341667,57.41338752,1.95373865
RIT,49,0,2024-06-27T06:57:09.625Z,english_383.wav,0,pill,541,18,5,Japanese,f,0,0.0,-1.49759031,0.61403304
RIT,49,0,2024-06-27T06:57:09.625Z,english_383.wav,0,pill,541,18,5,Japanese,f,1,0.1,48.0809444,0.69225556
RIT,49,0,2024-06-27T06:57:09.625Z,english_383.wav,0,pill,541,18,5,Japanese,f,2,0.2,-84.09524499,0.33452268
RIT,49,0,2024-06-27T06:57:09.625Z,english_383.wav,0,pill,541,18,5,Japanese,f,3,0.3,95.23220486,1.06792504
RIT,49,0,2024-06-27T06:57:09.625Z,english_383.wav,0,pill,541,18,5,Japanese,f,4,0.32341667,64.91086902,0.58483827
RIT,50,1,2024-06-27T06:57:09.625Z,english_996.wav,0,pill,1212,18,5,Japanese,f,0,0.0,-71.70531914,1.36459419
RIT,50,1,2024-06-27T06:57:09.625Z,english_996.wav,0,pill,1212,18,5,Japanese,f,1,0.1,-47.61419544,0.5051745
RIT,50,1,2024-06-27T06:57:09.625Z,english_996.wav,0,pill,1212,18,5,Japanese,f,2,0.2,48.0330823,1.09957376
RIT,50,1,2024-06-27T06:57:09.625Z,english_996.wav,0,pill,1212,18,5,Japanese,f,3,0.3,34.27821317,0.27950682
RIT,50,1,2024-06-27T06:57:09.625Z,english_996.wav,0,pill,1212,18,5,Japanese,f,4,0.32341667,-72.4662587,0.22836241
RIT,51,1,2024-06-27T06:57:09.625Z,english_455.wav,0,pill,1412,18,5,Japanese,f,0,0.0,16.09493262,0.21208686
RIT,51,1,2024-06-27T06:57:09.625Z,english_455.wav,0,pill,1412,18,5,Japanese,f,1,0.1,24.58982,1.0305564
RIT,51,1,2024-06-27T06:57:09.625Z,english_455.wav,0,pill,1412,18,5,Japanese,f,2,0.2,-59.31201859,1.53057992
RIT,51,1,2024-06-27T06:57:09.625Z,english_455.wav,0,pill,1412,18,5,Japanese,f,3,0.3,40.79603426,0.62599766
RIT,51,1,2024-06-27T06:57:09.625Z,english_455.wav,0,pill,1412,18,5,Japanese,f,4,0.32341667,-39.30035714,1.43054244
RIT,52,1,2024-06-27T06:57:09.625Z,english_838.wav,0,peel,1643,18,5,Japanese,f,0,0.0,-46.43239877,0.57293762
RIT,52,1,2024-06-27T06:57:09.625Z,english_838.wav,0,peel,1643,18,5,Japanese,f,1,0.1,-0.77549132,1.65450135
RIT,52,1,2024-06-27T06:57:09.625Z,english_838.wav,0,peel,1643,18,5,Japanese,f,2,0.2,-47.56158581,0.30574951
RIT,52,1,2024-06-27T06:57:09.625Z,english_838.wav,0,peel,1643,18,5,Japanese,f,3,0.3,7.18116474,0.96315644
RIT,52,1,2024-06-27T06:57:09.625Z,english_838.wav,0,peel,1643,18,5,Japanese,f,4,0.32341667,-87.38880816,0.83017899
RIT,53,1,2024-06-27T06:57:09.625Z,english_723.wav,0,pill,2010,18,5,Japanese,f,0,0.0,-85.17156731,1.02541656
RIT,53,1,2024-06-27T06:57:09.625Z,english_723.wav,0,pill,2010,18,5,Japanese,f,1,0.1,92.93654667,0.92088513
RIT,53,1,2024-06-27T06:57:09.625Z,english_723.wav,0,pill,2010,18,5,Japanese,f,2,0.2,-28.89042756,0.78256854
RIT,53,1,2024-06-27T06:57:09.625Z,english_723.wav,0,pill,2010,18,5,Japanese,f,3,0.3,36.79914563,1.22887413
RIT,53,1,2024-06-27T06:57:09.625Z,english_723.wav,0,pill,2010,18,5,Japanese,f,4,0.32341667,6.86426773,1.77193963
RIT,54,1,2024-06-27T06:57:09.625Z,english_649.wav,0,pill,1366,18,5,Japanese,f,0,0.0,65.82222467,0.56154429
RIT,54,1,2024-06-27T06:57:09.625Z,english_649.wav,0,pill,1366,18,5,Japanese,f,1,0.1,-9.35575527,0.64767017
RIT,54,1,2024-06-27T06:57:09.625Z,english_649.wav,0,pill,1366,18,5,Japanese,f,2,0.2,-91.83315911,0.84538271
RIT,54,1,2024-06-27T06:57:09.625Z,english_649.wav,0,pill,1366,18,5,Japanese,f,3,0.3,79.30022345,0.4979411
RIT,54,1,2024-06-27T06:57:09.625Z,english_649.wav,0,pill,1366,18,5,Japanese,f,4,0.32341667,45.86180924,0.89353148
RIT,55,1,2024-06-27T06:57:09.625Z,english_75.wav,0,peel,721,18,5,Japanese,f,0,0.0,-9.18091647,0.92930856
RIT,55,1,2024-06-27T06:57:09.625Z,english_75.wav,0,peel,721,18,5,Japanese,f,1,0.1,-62.02164907,1.94000482
RIT,55,1,2024-06-27T06:57:09.625Z,english_75.wav,0,peel,721,18,5,Japanese,f,2,0.2,-12.90623207,1.2183621
RIT,55,1,2024-06-27T06:57:09.625Z,english_75.wav,0,peel,721,18,5,Japanese,f,3,0.3,15.17089036,0.47349695
RIT,55,1,2024-06-27T06:57:09.625Z,english_75.wav,0,peel,721,18,5,Japanese,f,4,0.32341667,10.89352922,1.02561006
RIT,56,1,2024-06-27T06:57:09.625Z,english_226.wav,0,peel,2903,18,5,Japanese,f,0,0.0,-56.53605181,0.51185795
RIT,56,1,2024-06-27T06:57:09.625Z,english_226.wav,0,peel,2903,18,5,Japanese,f,1,0.1,-5.93547338,0.73377568
RIT,56,1,2024-06-27T06:57:09.625Z,english_226.wav,0,peel,2903,18,5,Japanese,f,2,0.2,-81.0596442,1.62034912
RIT,56,1,2024-06-27T06:57:09.625Z,english_226.wav,0,peel,2903,18,5,Japanese,f,3,0.3,-12.14261426,0.19474782
RIT,56,1,2024-06-27T06:57:09.625Z,english_226.wav,0,peel,2903,18,5,Japanese,f,4,0.32341667,40.67667876,0.1395898
RIT,57,1,2024-06-27T06:57:09.625Z,english_59.wav,0,peel,3342,18,5,Japanese,f,0,0.0,30.26604033,1.5973148
RIT,57,1,2024-06-27T06:57:09.625Z,english_59.wav,0,peel,3342,18,5,Japanese,f,1,0.1,25.69112756,0.24758472
RIT,57,1,2024-06-27T06:57:09.625Z,english_59.wav,0,peel,3342,18,5,Japanese,f,2,0.2,-24.85549033,0.1547886
RIT,57,1,2024-06-27T06:57:09.625Z,english_59.wav,0,peel,3342,18,5,Japanese,f,3,0.3,-31.2790444,0.30754036
RIT,57,1,2024-06-27T06:57:09.625Z,english_59.wav,0,peel,3342,18,5,Japanese,f,4,0.32341667,86.30355152,0.40312024
RIT,58,1,2024-06-27T06:57:09.625Z,english_474.wav,0,pill,1422,18,5,Japanese,f,0,0.0,42.88606971,0.87351765
RIT,58,1,2024-06-27T06:57:09.625Z,english_474.wav,0,pill,1422,18,5,Japanese,f,1,0.1,6.82691085,1.08551449
RIT,58,1,2024-06-27T06:57:09.625Z,english_474.wav,0,pill,1422,18,5,Japanese,f,2,0.2,-33.80031927,1.99847166
RIT,58,1,2024-06-27T06:57:09.625Z,english_474.wav,0,pill,1422,18,5,Japanese,f,3,0.3,-97.18672796,0.27470298
RIT,58,1,2024-06-27T06:57:09.625Z,english_474.wav,0,pill,1422,18,5,Japanese,f,4,0.32341667,-4.7462475,0.02962094
RIT,59,1,2024-06-27T06:57:09.625Z,english_703.wav,0,pill,1742,18,5,Japanese,f,0,0.0,21.25560127,1.22587136
RIT,59,1,2024-06-27T06:57:09.625Z,english_703.wav,0,pill,1742,18,5,Japanese,f,1,0.1,-5.61566417,1.28752652
RIT,59,1,2024-06-27T06:57:09.625Z,english_703.wav,0,pill,1742,18,5,Japanese,f,2,0.2,-88.15973778,1.61643937
RIT,59,1,2024-06-27T06:57:09.625Z,english_703.wav,0,pill,1742,18,5,Japanese,f,3,0.3,39.86499493,1.32560109
RIT,59,1,2024-06-27T06:57:09.625Z,english_703.wav,0,pill,1742,18,5,Japanese,f,4,0.32341667,64.67338156,0.74206522
RIT,60,1,2024-06-27T06:57:09.625Z,english_745.wav,0,peel,1049,18,5,Japanese,f,0,0.0,-57.64472866,1.88925258
RIT,60,1,2024-06-27T06:57:09.625Z,english_745.wav,0,peel,1049,18,5,Japanese,f,1,0.1,-14.80975681,0.26333653
RIT,60,1,2024-06-27T06:57:09.625Z,english_745.wav,0,peel,1049,18,5,Japanese,f,2,0.2,44.46939178,1.01945351
RIT,60,1,2024-06-27T06:57:09.625Z,english_745.wav,0,peel,1049,18,5,Japanese,f,3,0.3,56.80280999,0.00901457
RIT,60,1,2024-06-27T06:57:09.625Z,english_745.wav,0,peel,1049,18,5,Japanese,f,4,0.32341667,-16.53068296,0.38778228
RIT,61,1,2024-06-27T06:57:09.625Z,english_858.wav,0,peel,658,18,5,Japanese,f,0,0.0,45.12570132,0.50395823
RIT,61,1,2024-06-27T06:57:09.625Z,english_858.wav,0,peel,658,18,5,Japanese,f,1,0.1,-46.71359417,1.50658612
RIT,61,1,2024-06-27T06:57:09.625Z,english_858.wav,0,peel,658,18,5,Japanese,f,2,0.2,-60.32464978,0.86887416
RIT,61,1,2024-06-27T06:57:09.625Z,english_858.wav,0,peel,658,18,5,Japanese,f,3,0.3,-70.46241098,0.20520469
RIT,61,1,2024-06-27T06:57:09.625Z,english_858.wav,0,peel,658,18,5,Japanese,f,4,0.32341667,76.51169453,1.05885662
RIT,62,1,2024-06-27T06:57:09.625Z,english_678.wav,0,pill,1240,18,5,Japanese,f,0,0.0,87.86222938,1.6760541
RIT,62,1,2024-06-27T06:57:09.625Z,english_678.wav,0,pill,1240,18,5,Japanese,f,1,0.1,-47.14792626,0.22369522
RIT,62,1,2024-06-27T06:57:09.625Z,english_678.wav,0,pill,1240,18,5,Japanese,f,2,0.2,-6.84659798,1.1260271
RIT,62,1,2024-06-27T06:57:09.625Z,english_678.wav,0,pill,1240,18,5,Japanese,f,3,0.3,87.67045201,1.53941447
RIT,62,1,2024-06-27T06:57:09.625Z,english_678.wav,0,pill,1240,18,5,Japanese,f,4,0.32341667,-51.71213936,1.37136581
RIT,63,1,2024-06-27T06:57:09.625Z,english_555.wav,0,peel,1120,18,5,Japanese,f,0,0.0,69.49762262,1.08530069
RIT,63,1,2024-06-27T06:57:09.625Z,english_555.wav,0,peel,1120,18,5,Japanese,f,1,0.1,42.72159746,0.99979939
RIT,63,1,2024-06-27T06:57:09.625Z,english_555.wav,0,peel,1120,18,5,Japanese,f,2,0.2,96.74773092,1.75882447
RIT,63,1,2024-06-27T06:57:09.625Z,english_555.wav,0,peel,1120,18,5,Japanese,f,3,0.3,-27.92411753,1.36775981
RIT,63,1,2024-06-27T06:57:09.625Z,english_555.wav,0,peel,1120,18,5,Japanese,f,4,0.32341667,33.93273626,0.90104071
RIT,64,1,2024-06-27T06:57:09.625Z,english_819.wav,0,peel,682,18,5,Japanese,f,0,0.0,56.56933068,1.61805944
RIT,64,1,2024-06-27T06:57:09.625Z,english_819.wav,0,peel,682,18,5,Japanese,f,1,0.1,16.98960986,1.69207785
RIT,64,1,2024-06-27T06:57:09.625Z,english_819.wav,0,peel,682,18,5,Japanese,f,2,0.2,-13.59600893,1.33633205
RIT,64,1,2024-06-27T06:57:09.625Z,english_819.wav,0,peel,682,18,5,Japanese,f,3,0.3,79.1710335,0.49452457
RIT,64,1,2024-06-27T06:57:09.625Z,english_819.wav,0,peel,682,18,5,Japanese,f,4,0.32341667,25.34620926,1.97134574
RIT,65,1,2024-06-27T06:57:09.625Z,english_509.wav,0,pill,3153,18,5,Japanese,f,0,0.0,58.37136146,0.93627824
RIT,65,1,2024-06-27T06:57:09.625Z,english_509.wav,0,pill,3153,18,5,Japanese,f,1,0.1,-30.59588084,1.268957
RIT,65,1,2024-06-27T06:57:09.625Z,english_509.wav,0,pill,3153,18,5,Japanese,f,2,0.2,-42.62400689,0.87018438
RIT,65,1,2024-06-27T06:57:09.625Z,english_509.wav,0,pill,3153,18,5,Japanese,f,3,0.3,58.46483968,1.67134466
RIT,65,1,2024-06-27T06:57:09.625Z,english_509.wav,0,pill,3153,18,5,Japanese,f,4,0.32341667,44.09610342,1.96584472
RIT,66,1,2024-06-27T06:57:09.625Z,english_169.wav,0,pill,487,18,5,Japanese,f,0,0.0,21.52556644,0.24747868
RIT,66,1,2024-06-27T06:57:09.625Z,english_169.wav,0,pill,487,18,5,Japanese,f,1,0.1,-62.21960884,0.51530303
RIT,66,1,2024-06-27T06:57:09.625Z,english_169.wav,0,pill,487,18,5,Japanese,f,2,0.2,-58.58818316,1.14352058
RIT,66,1,2024-06-27T06:57:09.625Z,english_169.wav,0,pill,487,18,5,Japanese,f,3,0.3,14.95103608,1.46694059
RIT,66,1,2024-06-27T06:57:09.625Z,english_169.wav,0,pill,487,18,5,Japanese,f,4,0.32341667,21.70814087,1.67980684
RIT,67,1,2024-06-27T06:57:09.625Z,english_823.wav,0,peel,689,18,5,Japanese,f,0,0.0,24.6891334,1.19409205
RIT,67,1,2024-06-27T06:57:09.625Z,english_823.wav,0,peel,689,18,5,Japanese,f,1,0.1,86.03794788,0.72053846
RIT,67,1,2024-06-27T06:57:09.625Z,english_823.wav,0,peel,689,18,5,Japanese,f,2,0.2,45.97308045,0.2138623
RIT,67,1,2024-06-27T06:57:09.625Z,english_823.wav,0,peel,689,18,5,Japanese,f,3,0.3,39.11596791,1.56743943
RIT,67,1,2024-06-27T06:57:09.625Z,english_823.wav,0,peel,689,18,5,Japanese,f,4,0.32341667,10.29734006,1.24065623
RIT,68,1,2024-06-27T06:57:09.625Z,english_218.wav,0,pill,389,18,5,Japanese,f,0,0.0,87.3373499,1.94084006
RIT,68,1,2024-06-27T06:57:09.625Z,english_218.wav,0,pill,389,18,5,Japanese,f,1,0.1,-14.87903436,0.13305972
RIT,68,1,2024-06-27T06:57:09.625Z,english_218.wav,0,pill,389,18,5,Japanese,f,2,0.2,-31.97943339,1.11441312
RIT,68,1,2024-06-27T06:57:09.625Z,english_218.wav,0,pill,389,18,5,Japanese,f,3,0.3,-60.49311609,1.83933377
RIT,68,1,2024-06-27T06:57:09.625Z,english_218.wav,0,pill,389,18,5,Japanese,f,4,0.32341667,-63.68242647,1.41053301
RIT,69,1,2024-06-27T06:57:09.625Z,english_986.wav,0,pill,585,18,5,Japanese,f,0,0.0,36.93997263,1.7539978
RIT,69,1,2024-06-27T06:57:09.625Z,english_986.wav,0,pill,585,18,5,Japanese,f,1,0.1,-76.80061303,1.40735445
RIT,69,1,2024-06-27T06:57:09.625Z,english_986.wav,0,pill,585,18,5,Japanese,f,2,0.2,60.8418497,0.62226098
RIT,69,1,2024-06-27T06:57:09.625Z,english_986.wav,0,pill,585,18,5,Japanese,f,3,0.3,-27.90828951,0.48175931
RIT,69,1,2024-06-27T06:57:09.625Z,english_986.wav,0,pill,585,18,5,Japanese,f,4,0.32341667,99.51838141,1.5918282
RIT,70,1,2024-06-27T06:57:09.625Z,english_96.wav,0,pill,799,18,5,Japanese,f,0,0.0,-2.60251168,1.33849038
RIT,70,1,2024-06-27T06:57:09.625Z,english_96.wav,0,pill,799,18,5,Japanese,f,1,0.1,3.1808695,1.03790095
RIT,70,1,2024-06-27T06:57:09.625Z,english_96.wav,0,pill,799,18,5,Japanese,f,2,0.2,-93.89625608,0.32730996
RIT,70,1,2024-06-27T06:57:09.625Z,english_96.wav,0,pill,799,18,5,Japanese,f,3,0.3,22.03695444,1.15118519
RIT,70,1,2024-06-27T06:57:09.625Z,english_96.wav,0,pill,799,18,5,Japanese,f,4,0.32341667,89.13776591,1.37996061
RIT,71,1,2024-06-27T06:57:09.625Z,english_983.wav,0,peel,606,18,5,Japanese,f,0,0.0,32.38711768,0.79408654
RIT,71,1,2024-06-27T06:57:09.625Z,english_983.wav,0,peel,606,18,5,Japanese,f,1,0.1,-65.51600844,1.57845546
RIT,71,1,2024-06-27T06:57:09.625Z,english_983.wav,0,peel,606,18,5,Japanese,f,2,0.2,12.03576385,1.23356187
RIT,71,1,2024-06-27T06:57:09.625Z,english_983.wav,0,peel,606,18,5,Japanese,f,3,0.3,-64.14785636,0.65581831
RIT,71,1,2024-06-27T06:57:09.625Z,english_983.wav,0,peel,606,18,5,Japanese,f,4,0.32341667,-72.48499617,0.27936162
RIT,72,1,2024-06-27T06:57:09.625Z,english_966.wav,0,pill,527,18,5,Japanese,f,0,0.0,23.00954068,1.02848684
RIT,72,1,2024-06-27T06:57:09.625Z,english_966.wav,0,pill,527,18,5,Japanese,f,1,0.1,-2.7733657,1.22612364
RIT,72,1,2024-06-27T06:57:09.625Z,english_966.wav,0,pill,527,18,5,Japanese,f,2,0.2,-6.00176123,0.03461529
RIT,72,1,2024-06-27T06:57:09.625Z,english_966.wav,0,pill,527,18,5,Japanese,f,3,0.3,-64.80320904,0.22357585
RIT,72,1,2024-06-27T06:57:09.625Z,english_966.wav,0,pill,527,18,5,Japanese,f,4,0.32341667,94.15296916,0.55383001
RIT,73,1,2024-06-27T06:57:09.625Z,english_686.wav,0,peel,655,18,5,Japanese,f,0,0.0,-30.40223154,0.36787347
RIT,73,1,2024-06-27T06:57:09.625Z,english_686.wav,0,peel,655,18,5,Japanese,f,1,0.1,40.30213926,1.54584144
RIT,73,1,2024-06-27T06:57:09.625Z,english_686.wav,0,peel,655,18,5,Japanese,f,2,0.2,68.68183252,1.54645212
RIT,73,1,2024-06-27T06:57:09.625Z,english_686.wav,0,peel,655,18,5,Japanese,f,3,0.3,82.36920372,1.04035585
RIT,73,1,2024-06-27T06:57:09.625Z,english_686.wav,0,peel,655,18,5,Japanese,f,4,0.32341667,5.8000707,1.51520661
RIT,74,1,2024-06-27T06:57:09.625Z,english_421.wav,0,pill,474,18,5,Japanese,f,0,0.0,25.39012861,1.47358925
RIT,74,1,2024-06-27T06:57:09.625Z,english_421.wav,0,pill,474,18,5,Japanese,f,1,0.1,49.11153532,1.20920516
RIT,74,1,2024-06-27T06:57:09.625Z,english_421.wav,0,pill,474,18,5,Japanese,f,2,0.2,38.93723883,0.72174872
RIT,74,1,2024-06-27T06:57:09.625Z,english_421.wav,0,pill,474,18,5,Japanese,f,3,0.3,-9.34286459,0.24556907
RIT,74,1,2024-06-27T06:57:09.625Z,english_421.wav,0,pill,474,18,5,Japanese,f,4,0.32341667,-9.28476392,0.87006143
RIT,75,1,2024-06-27T06:57:09.625Z,english_874.wav,0,peel,1840,18,5,Japanese,f,0,0.0,32.94582558,0.77720789
RIT,75,1,2024-06-27T06:57:09.625Z,english_874.wav,0,peel,1840,18,5,Japanese,f,1,0.1,73.76521909,1.44852608
RIT,75,1,2024-06-27T06:57:09.625Z,english_874.wav,0,peel,1840,18,5,Japanese,f,2,0.2,-83.94992572,1.18086928
RIT,75,1,2024-06-27T06:57:09.625Z,english_874.wav,0,peel,1840,18,5,Japanese,f,3,0.3,-61.86791133,0.75042975
RIT,75,1,2024-06-27T06:57:09.625Z,english_874.wav,0,peel,1840,18,5,Japanese,f,4,0.32341667,-94.71312943,1.11461748
RIT,76,1,2024-06-27T06:57:09.625Z,english_968.wav,0,pill,666,18,5,Japanese,f,0,0.0,-36.76350372,0.52322451
RIT,76,1,2024-06-27T06:57:09.625Z,english_968.wav,0,pill,666,18,5,Japanese,f,1,0.1,-99.8991193,0.66419732
RIT,76,1,2024-06-27T06:57:09.625Z,english_968.wav,0,pill,666,18,5,Japanese,f,2,0.2,27.503089,0.44232096
RIT,76,1,2024-06-27T06:57:09.625Z,english_968.wav,0,pill,666,18,5,Japanese,f,3,0.3,-34.85106147,1.90778707
RIT,76,1,2024-06-27T06:57:09.625Z,english_968.wav,0,pill,666,18,5,Japanese,f,4,0.32341667,68.2869663,0.59652698
RIT,77,1,2024-06-27T06:57:09.625Z,english_861.wav,0,pill,1521,18,5,Japanese,f,0,0.0,-30.19921015,0.56503536
RIT,77,1,2024-06-27T06:57:09.625Z,english_861.wav,0,pill,1521,18,5,Japanese,f,1,0.1,75.2433288,1.43622494
RIT,77,1,2024-06-27T06:57:09.625Z,english_861.wav,0,pill,1521,18,5,Japanese,f,2,0.2,-49.47813624,1.73497671
RIT,77,1,2024-06-27T06:57:09.625Z,english_861.wav,0,pill,1521,18,5,Japanese,f,3,0.3,86.59581665,0.70763908
RIT,77,1,2024-06-27T06:57:09.625Z,english_861.wav,0,pill,1521,18,5,Japanese,f,4,0.32341667,58.40562581,1.29518241
RIT,78,1,2024-06-27T06:57:09.625Z,english_227.wav,0,pill,657,18,5,Japanese,f,0,0.0,-56.39318384,1.7541365
RIT,78,1,2024-06-27T06:57:09.625Z,english_227.wav,0,pill,657,18,5,Japanese,f,1,0.1,90.87442764,0.66011804
RIT,78,1,2024-06-27T06:57:09.625Z,english_227.wav,0,pill,657,18,5,Japanese,f,2,0.2,-39.94082392,0.16454365
RIT,78,1,2024-06-27T06:57:09.625Z,english_227.wav,0,pill,657,18,5,Japanese,f,3,0.3,31.5093861,0.63744506
RIT,78,1,2024-06-27T06:57:09.625Z,english_227.wav,0,pill,657,18,5,Japanese,f,4,0.32341667,70.38847456,0.55874538
RIT,79,1,2024-06-27T06:57:09.625Z,english_160.wav,0,pill,680,18,5,Japanese,f,0,0.0,2.54964477,0.54357393
RIT,79,1,2024-06-27T06:57:09.625Z,english_160.wav,0,pill,680,18,5,Japanese,f,1,0.1,26.84692557,1.29343216
RIT,79,1,2024-06-27T06:57:09.625Z,english_160.wav,0,pill,680,18,5,Japanese,f,2,0.2,72.58457191,0.42070854
RIT,79,1,2024-06-27T06:57:09.625Z,english_160.wav,0,pill,680,18,5,Japanese,f,3,0.3,-6.94481249,1.04489529
RIT,79,1,2024-06-27T06:57:09.625Z,english_160.wav,0,pill,680,18,5,Japanese,f,4,0.32341667,35.80656171,0.26802137
RIT,80,1,2024-06-27T06:57:09.625Z,english_148.wav,0,pill,577,18,5,Japanese,f,0,0.0,-15.87588743,0.13468567
RIT,80,1,2024-06-27T06:57:09.625Z,english_148.wav,0,pill,577,18,5,Japanese,f,1,0.1,66.05332506,1.11017862
RIT,80,1,2024-06-27T06:57:09.625Z,english_148.wav,0,pill,577,18,5,Japanese,f,2,0.2,50.59551539,0.42983488
RIT,80,1,2024-06-27T06:57:09.625Z,english_148.wav,0,pill,577,18,5,Japanese,f,3,0.3,-59.45276716,0.2729575
RIT,80,1,2024-06-27T06:57:09.625Z,english_148.wav,0,pill,577,18,5,Japanese,f,4,0.32341667,58.4155276,0.65396017
RIT,81,1,2024-06-27T06:57:09.625Z,english_676.wav,0,pill,2874,18,5,Japanese,f,0,0.0,3.93099148,1.7716209
RIT,81,1,2024-06-27T06:57:09.625Z,english_676.wav,0,pill,2874,18,5,Japanese,f,1,0.1,73.76311644,1.97281878
RIT,81,1,2024-06-27T06:57:09.625Z,english_676.wav,0,pill,2874,18,5,Japanese,f,2,0.2,-26.92634129,1.42487848
RIT,81,1,2024-06-27T06:57:09.625Z,english_676.wav,0,pill,2874,18,5,Japanese,f,3,0.3,51.70874443,1.45099775
RIT,81,1,2024-06-27T06:57:09.625Z,english_676.wav,0,pill,2874,18,5,Japanese,f,4,0.32341667,-48.7675791,1.84822532
RIT,82,1,2024-06-27T06:57:09.625Z,english_367.wav,0,peel,427,18,5,Japanese,f,0,0.0,69.68935346,1.12532443
RIT,82,1,2024-06-27T06:57:09.625Z,english_367.wav,0,peel,427,18,5,Japanese,f,1,0.1,-21.84293244,1.15903886
RIT,82,1,2024-06-27T06:57:09.625Z,english_367.wav,0,peel,427,18,5,Japanese,f,2,0.2,-22.40126322,1.68834661
RIT,82,1,2024-06-27T06:57:09.625Z,english_367.wav,0,peel,427,18,5,Japanese,f,3,0.3,-77.83415675,1.78966274
RIT,82,1,2024-06-27T06:57:09.625Z,english_367.wav,0,peel,427,18,5,Japanese,f,4,0.32341667,18.42522507,1.57311162
RIT,83,1,2024-06-27T06:57:09.625Z,english_115.wav,0,pill,711,18,5,Japanese,f,0,0.0,-6.4126324,0.37361158
RIT,83,1,2024-06-27T06:57:09.625Z,english_115.wav,0,pill,711,18,5,Japanese,f,1,0.1,-78.70213007,1.5865766
RIT,83,1,2024-06-27T06:57:09.625Z,english_115.wav,0,pill,711,18,5,Japanese,f,2,0.2,-0.36204046,1.00360432
RIT,83,1,2024-06-27T06:57:09.625Z,english_115.wav,0,pill,711,18,5,Japanese,f,3,0.3,-47.97210547,1.3933449
RIT,83,1,2024-06-27T06:57:09.625Z,english_115.wav,0,pill,711,18,5,Japanese,f,4,0.32341667,3.06964689,1.1205092
RIT,84,1,2024-06-27T06:57:09.625Z,english_982.wav,0,pill,1141,18,5,Japanese,f,0,0.0,12.44046596,0.81508625
RIT,84,1,2024-06-27T06:57:09.625Z,english_982.wav,0,pill,1141,18,5,Japanese,f,1,0.1,-60.41666302,0.92712357
RIT,84,1,2024-06-27T06:57:09.625Z,english_982.wav,0,pill,1141,18,5,Japanese,f,2,0.2,-35.31499742,0.77678916
RIT,84,1,2024-06-27T06:57:09.625Z,english_982.wav,0,pill,1141,18,5,Japanese,f,3,0.3,-10.96739076,1.0294352
RIT,84,1,2024-06-27T06:57:09.625Z,english_982.wav,0,pill,1141,18,5,Japanese,f,4,0.32341667,44.50624474,1.1322674
RIT,85,1,2024-06-27T06:57:09.625Z,english_264.wav,0,peel,968,18,5,Japanese,f,0,0.0,16.10521774,1.02407609
RIT,85,1,2024-06-27T06:57:09.625Z,english_264.wav,0,peel,968,18,5,Japanese,f,1,0.1,-43.55481907,1.4393598
RIT,85,1,2024-06-27T06:57:09.625Z,english_264.wav,0,peel,968,18,5,Japanese,f,2,0.2,-16.87093852,1.31552174
RIT,85,1,2024-06-27T06:57:09.625Z,english_264.wav,0,peel,968,18,5,Japanese,f,3,0.3,-81.41755984,1.17516842
RIT,85,1,2024-06-27T06:57:09.625Z,english_264.wav,0,peel,968,18,5,Japanese,f,4,0.32341667,-76.00277997,0.613195
RIT,86,1,2024-06-27T06:57:09.625Z,english_601.wav,0,pill,783,18,5,Japanese,f,0,0.0,54.32401431,0.08668951
RIT,86,1,2024-06-27T06:57:09.625Z,english_601.wav,0,pill,783,18,5,Japanese,f,1,0.1,-6.72935942,1.16468766
RIT,86,1,2024-06-27T06:57:09.625Z,english_601.wav,0,pill,783,18,5,Japanese,f,2,0.2,39.12079493,1.8612572
RIT,86,1,2024-06-27T06:57:09.625Z,english_601.wav,0,pill,783,18,5,Japanese,f,3,0.3,39.92141387,0.92171433
RIT,86,1,2024-06-27T06:57:09.625Z,english_601.wav,0,pill,783,18,5,Japanese,f,4,0.32341667,-27.14681087,0.50419734
RIT,87,1,2024-06-27T06:57:09.625Z,english_476.wav,0,peel,751,18,5,Japanese,f,0,0.0,67.27413703,1.71507594
RIT,87,1,2024-06-27T06:57:09.625Z,english_476.wav,0,peel,751,18,5,Japanese,f,1,0.1,-35.99891676,1.5691203
RIT,87,1,2024-06-27T06:57:09.625Z,english_476.wav,0,peel,751,18,5,Japanese,f,2,0.2,53.1347651,0.1869461
RIT,87,1,2024-06-27T06:57:09.625Z,english_476.wav,0,peel,751,18,5,Japanese,f,3,0.3,-27.53585108,0.94822926
RIT,87,1,2024-06-27T06:57:09.625Z,english_476.wav,0,peel,751,18,5,Japanese,f,4,0.32341667,13.88563074,1.63186757
RIT,88,1,2024-06-27T06:57:09.625Z,english_283.wav,0,pill,547,18,5,Japanese,f,0,0.0,-27.01977409,1.23470843
RIT,88,1,2024-06-27T06:57:09.625Z,english_283.wav,0,pill,547,18,5,Japanese,f,1,0.1,-58.6063919,0.41737987
RIT,88,1,2024-06-27T06:57:09.625Z,english_283.wav,0,pill,547,18,5,Japanese,f,2,0.2,36.15867228,0.64455365
RIT,88,1,2024-06-27T06:57:09.625Z,english_283.wav,0,pill,547,18,5,Japanese,f,3,0.3,-77.91689069,1.80541824
RIT,88,1,2024-06-27T06:57:09.625Z,english_283.wav,0,pill,547,18,5,Japanese,f,4,0.32341667,-77.99680679,1.86024907
RIT,89,1,2024-06-27T06:57:09.625Z,english_634.wav,0,pill,1635,18,5,Japanese,f,0,0.0,-94.29539956,0.6011183
RIT,89,1,2024-06-27T06:57:09.625Z,english_634.wav,0,pill,1635,18,5,Japanese,f,1,0.1,28.41708136,1.15242669
RIT,89,1,2024-06-27T06:57:09.625Z,english_634.wav,0,pill,1635,18,5,Japanese,f,2,0.2,-99.13935281,0.68826906
RIT,89,1,2024-06-27T06:57:09.625Z,english_634.wav,0,pill,1635,18,5,Japanese,f,3,0.3,-78.11216949,1.44169335
RIT,89,1,2024-06-27T06:57:09.625Z,english_634.wav,0,pill,1635,18,5,Japanese,f,4,0.32341667,-54.5881907,0.90266094
RIT,90,1,2024-06-27T06:57:09.625Z,english_34.wav,0,pill,1998,18,5,Japanese,f,0,0.0,-48.07924103,1.44836266
RIT,90,1,2024-06-27T06:57:09.625Z,english_34.wav,0,pill,1998,18,5,Japanese,f,1,0.1,-64.84739183,1.89580324
RIT,90,1,2024-06-27T06:57:09.625Z,english_34.wav,0,pill,1998,18,5,Japanese,f,2,0.2,-20.81716265,0.64308549
RIT,90,1,2024-06-27T06:57:09.625Z,english_34.wav,0,pill,1998,18,5,Japanese,f,3,0.3,91.13652067,0.0848332
RIT,90,1,2024-06-27T06:57:09.625Z,english_34.wav,0,pill,1998,18,5,Japanese,f,4,0.32341667,-54.46543937,0.8036564
RIT,91,1,2024-06-27T06:57:09.625Z,english_378.wav,0,peel,3261,18,5,Japanese,f,0,0.0,13.37832971,0.65677047
RIT,91,1,2024-06-27T06:57:09.625Z,english_378.wav,0,peel,3261,18,5,Japanese,f,1,0.1,17.37931074,1.74134092
RIT,91,1,2024-06-27T06:57:09.625Z,english_378.wav,0,peel,3261,18,5,Japanese,f,2,0.2,10.9554113,0.67897054
RIT,91,1,2024-06-27T06:57:09.625Z,english_378.wav,0,peel,3261,18,5,Japanese,f,3,0.3,-24.86891171,1.20159635
RIT,91,1,2024-06-27T06:57:09.625Z,english_378.wav,0,peel,3261,18,5,Japanese,f,4,0.32341667,7.89965194,0.27053006
RIT,92,1,2024-06-27T06:57:09.625Z,english_282.wav,0,pill,849,18,5,Japanese,f,0,0.0,0.76940706,0.32837311
RIT,92,1,2024-06-27T06:57:09.625Z,english_282.wav,0,pill,849,18,5,Japanese,f,1,0.1,85.14494722,0.39977994
RIT,92,1,2024-06-27T06:57:09.625Z,english_282.wav,0,pill,849,18,5,Japanese,f,2,0.2,-92.43433596,0.62065738
RIT,92,1,2024-06-27T06:57:09.625Z,english_282.wav,0,pill,849,18,5,Japanese,f,3,0.3,-98.42888083,0.06200237
RIT,92,1,2024-06-27T06:57:09.625Z,english_282.wav,0,pill,849,18,5,Japanese,f,4,0.32341667,-32.58662549,1.4193679
RIT,93,1,2024-06-27T06:57:09.625Z,english_951.wav,0,pill,2352,18,5,Japanese,f,0,0.0,-0.1209724,0.19208806
RIT,93,1,2024-06-27T06:57:09.625Z,english_951.wav,0,pill,2352,18,5,Japanese,f,1,0.1,-14.6507611,1.44795721
RIT,93,1,2024-06-27T06:57:09.625Z,english_951.wav,0,pill,2352,18,5,Japanese,f,2,0.2,-2.36153686,0.88209985
RIT,93,1,2024-06-27T06:57:09.625Z,english_951.wav,0,pill,2352,18,5,Japanese,f,3,0.3,15.28547447,1.97099669
RIT,93,1,2024-06-27T06:57:09.625Z,english_951.wav,0,pill,2352,18,5,Japanese,f,4,0.32341667,-0.16445922,0.158195
RIT,94,1,2024-06-27T06:57:09.625Z,english_110.wav,0,pill,1459,18,5,Japanese,f,0,0.0,87.43016285,1.84693198
RIT,94,1,2024-06-27T06:57:09.625Z,english_110.wav,0,pill,1459,18,5,Japanese,f,1,0.1,-22.53798338,0.72868036
RIT,94,1,2024-06-27T06:57:09.625Z,english_110.wav,0,pill,1459,18,5,Japanese,f,2,0.2,60.38266123,1.6889543
RIT,94,1,2024-06-27T06:57:09.625Z,english_110.wav,0,pill,1459,18,5,Japanese,f,3,0.3,50.75224473,0.97311446
RIT,94,1,2024-06-27T06:57:09.625Z,english_110.wav,0,pill,1459,18,5,Japanese,f,4,0.32341667,87.78495288,0.46157718
RIT,95,1,2024-06-27T06:57:09.625Z,english_41.wav,0,pill,852,18,5,Japanese,f,0,0.0,42.21237724,0.98996482
RIT,95,1,2024-06-27T06:57:09.625Z,english_41.wav,0,pill,852,18,5,Japanese,f,1,0.1,33.8271633,0.77076848
RIT,95,1,2024-06-27T06:57:09.625Z,english_41.wav,0,pill,852,18,5,Japanese,f,2,0.2,20.96644351,0.37402384
RIT,95,1,2024-06-27T06:57:09.625Z,english_41.wav,0,pill,852,18,5,Japanese,f,3,0.3,-53.61985723,1.98545705
RIT,95,1,2024-06-27T06:57:09.625Z,english_41.wav,0,pill,852,18,5,Japanese,f,4,0.32341667,-55.68725705,1.53352273
RIT,96,1,2024-06-27T06:57:09.625Z,english_395.wav,0,pill,1416,18,5,Japanese,f,0,0.0,12.69072165,1.18485033
RIT,96,1,2024-06-27T06:57:09.625Z,english_395.wav,0,pill,1416,18,5,Japanese,f,1,0.1,16.88915645,0.64230571
RIT,96,1,2024-06-27T06:57:09.625Z,english_395.wav,0,pill,1416,18,5,Japanese,f,2,0.2,49.23789678,0.95454364
RIT,96,1,2024-06-27T06:57:09.625Z,english_395.wav,0,pill,1416,18,5,Japanese,f,3,0.3,39.87613746,0.75997929
RIT,96,1,2024-06-27T06:57:09.625Z,english_395.wav,0,pill,1416,18,5,Japanese,f,4,0.32341667,70.90138048,1.50770695
RIT,97,1,2024-06-27T06:57:09.625Z,english_93.wav,0,pill,838,18,5,Japanese,f,0,0.0,-63.58558414,0.84265136
RIT,97,1,2024-06-27T06:57:09.625Z,english_93.wav,0,pill,838,18,5,Japanese,f,1,0.1,47.93190562,0.45441634
RIT,97,1,2024-06-27T06:57:09.625Z,english_93.wav,0,pill,838,18,5,Japanese,f,2,0.2,74.1463043,1.33476805
RIT,97,1,2024-06-27T06:57:09.625Z,english_93.wav,0,pill,838,18,5,Japanese,f,3,0.3,46.42515129,0.61821532
RIT,97,1,2024-06-27T06:57:09.625Z,english_93.wav,0,pill,838,18,5,Japanese,f,4,0.32341667,-19.17332826,1.94889868
RIT,98,1,2024-06-27T06:57:09.625Z,english_163.wav,0,peel,653,18,5,Japanese,f,0,0.0,-28.85321754,1.43434597
RIT,98,1,2024-06-27T06:57:09.625Z,english_163.wav,0,peel,653,18,5,Japanese,f,1,0.1,9.37410395,1.75766865
RIT,98,1,2024-06-27T06:57:09.625Z,english_163.wav,0,peel,653,18,5,Japanese,f,2,0.2,-43.22266742,0.90391943
RIT,98,1,2024-06-27T06:57:09.625Z,english_163.wav,0,peel,653,18,5,Japanese,f,3,0.3,48.63715122,1.21743426
RIT,98,1,2024-06-27T06:57:09.625Z,english_163.wav,0,peel,653,18,5,Japanese,f,4,0.32341667,-94.22333204,1.8516503
RIT,99,1,2024-06-27T06:57:09.625Z,english_281.wav,0,pill,805,18,5,Japanese,f,0,0.0,-55.42099824,1.64310908
RIT,99,1,2024-06-27T06:57:09.625Z,english_281.wav,0,pill,805,18,5,Japanese,f,1,0.1,30.44020676,0.76997124
RIT,99,1,2024-06-27T06:57:09.625Z,english_281.wav,0,pill,805,18,5,Japanese,f,2,0.2,53.34739709,0.1940809
RIT,99,1,2024-06-27T06:57:09.625Z,english_281.wav,0,pill,805,18,5,Japanese,f,3,0.3,-32.26512488,0.25794937
RIT,99,1,2024-06-27T06:57:09.625Z,english_281.wav,0,pill,805,18,5,Japanese,f,4,0.32341667,-59.86883114,1.27043487
RIT,100,2,2024-06-27T06:57:09.625Z,english_704.wav,0,pill,1251,18,5,Japanese,f,0,0.0,-24.48288207,0.92043902
RIT,100,2,2024-06-27T06:57:09.625Z,english_704.wav,0,pill,1251,18,5,Japanese,f,1,0.1,-9.94163531,0.96595902
RIT,100,2,2024-06-27T06:57:09.625Z,english_704.wav,0,pill,1251,18,5,Japanese,f,2,0.2,74.85271107,1.40327859
RIT,100,2,2024-06-27T06:57:09.625Z,english_704.wav,0,pill,1251,18,5,Japanese,f,3,0.3,-38.44921803,1.07325586
RIT,100,2,2024-06-27T06:57:09.625Z,english_704.wav,0,pill,1251,18,5,Japanese,f,4,0.32341667,-21.20994959,1.87555588
RIT,101,2,2024-06-27T06:57:09.625Z,english_196.wav,0,pill,1143,18,5,Japanese,f,0,0.0,-86.38202104,1.63362226
RIT,101,2,2024-06-27T06:57:09.625Z,english_196.wav,0,pill,1143,18,5,Japanese,f,1,0.1,0.95731439,1.36148231
RIT,101,2,2024-06-27T06:57:09.625Z,english_196.wav,0,pill,1143,18,5,Japanese,f,2,0.2,-48.4797064,0.68683683
RIT,101,2,2024-06-27T06:57:09.625Z,english_196.wav,0,pill,1143,18,5,Japanese,f,3,0.3,50.57477866,1.59869277
RIT,101,2,2024-06-27T06:57:09.625Z,english_196.wav,0,pill,1143,18,5,Japanese,f,4,0.32341667,-52.07184875,0.40963154
RIT,102,2,2024-06-27T06:57:09.625Z,english_888.wav,0,pill,1978,18,5,Japanese,f,0,0.0,-75.11317729,0.15619421
RIT,102,2,2024-06-27T06:57:09.625Z,english_888.wav,0,pill,1978,18,5,Japanese,f,1,0.1,-15.41916561,1.45351631
RIT,102,2,2024-06-27T06:57:09.625Z,english_888.wav,0,pill,1978,18,5,Japanese,f,2,0.2,30.82770832,1.60154734
RIT,102,2,2024-06-27T06:57:09.625Z,english_888.wav,0,pill,1978,18,5,Japanese,f,3,0.3,69.72581111,1.09787436
RIT,102,2,2024-06-27T06:57:09.625Z,english_888.wav,0,pill,1978,18,5,Japanese,f,4,0.32341667,-21.6620698,1.3760261
RIT,103,2,2024-06-27T06:57:09.625Z,english_963.wav,0,pill,994,18,5,Japanese,f,0,0.0,-60.03327616,0.86711865
RIT,103,2,2024-06-27T06:57:09.625Z,english_963.wav,0,pill,994,18,5,Japanese,f,1,0.1,-15.51067414,1.69273621
RIT,103,2,2024-06-27T06:57:09.625Z,english_963.wav,0,pill,994,18,5,Japanese,f,2,0.2,59.36715957,0.74157302
RIT,103,2,2024-06-27T06:57:09.625Z,english_963.wav,0,pill,994,18,5,Japanese,f,3,0.3,-98.70464219,1.73078555
RIT,103,2,2024-06-27T06:57:09.625Z,english_963.wav,0,pill,994,18,5,Japanese,f,4,0.32341667,37.26723218,1.37482324
RIT,104,2,2024-06-27T06:57:09.625Z,english_993.wav,0,pill,898,18,5,Japanese,f,0,0.0,-66.15449332,1.17508471
RIT,104,2,2024-06-27T06:57:09.625Z,english_993.wav,0,pill,898,18,5,Japanese,f,1,0.1,33.08083728,0.94744004
RIT,104,2,2024-06-27T06:57:09.625Z,english_993.wav,0,pill,898,18,5,Japanese,f,2,0.2,51.46479562,0.74931244
RIT,104,2,2024-06-27T06:57:09.625Z,english_993.wav,0,pill,898,18,5,Japanese,f,3,0.3,-80.58676237,0.35628979
RIT,104,2,2024-06-27T06:57:09.625Z,english_993.wav,0,pill,898,18,5,Japanese,f,4,0.32341667,81.97884737,1.25416847
RIT,105,2,2024-06-27T06:57:09.625Z,english_56.wav,0,pill,1439,18,5,Japanese,f,0,0.0,47.39262259,1.7837475
RIT,105,2,2024-06-27T06:57:09.625Z,english_56.wav,0,pill,1439,18,5,Japanese,f,1,0.1,8.89686315,1.39740624
RIT,105,2,2024-06-27T06:57:09.625Z,english_56.wav,0,pill,1439,18,5,Japanese,f,2,0.2,-49.65570225,0.11209095
RIT,105,2,2024-06-27T06:57:09.625Z,english_56.wav,0,pill,1439,18,5,Japanese,f,3,0.3,44.77904805,1.4946119
RIT,105,2,2024-06-27T06:57:09.625Z,english_56.wav,0,pill,1439,18,5,Japanese,f,4,0.32341667,-94.65832844,1.03498606
RIT,106,2,2024-06-27T06:57:09.625Z,english_669.wav,0,pill,1064,18,5,Japanese,f,0,0.0,-58.38123624,0.53455866
RIT,106,2,2024-06-27T06:57:09.625Z,english_669.wav,0,pill,1064,18,5,Japanese,f,1,0.1,-80.20155876,0.64376179
RIT,106,2,2024-06-27T06:57:09.625Z,english_669.wav,0,pill,1064,18,5,Japanese,f,2,0.2,-25.59737246,0.76694756
RIT,106,2,2024-06-27T06:57:09.625Z,english_669.wav,0,pill,1064,18,5,Japanese,f,3,0.3,-30.25633946,1.36842807
RIT,106,2,2024-06-27T06:57:09.625Z,english_669.wav,0,pill,1064,18,5,Japanese,f,4,0.32341667,-70.78768349,0.06434218
RIT,107,2,2024-06-27T06:57:09.625Z,english_306.wav,0,peel,412,18,5,Japanese,f,0,0.0,-78.46406697,1.96625377
RIT,107,2,2024-06-27T06:57:09.625Z,english_306.wav,0,peel,412,18,5,Japanese,f,1,0.1,-60.64765069,1.9128761
RIT,107,2,2024-06-27T06:57:09.625Z,english_306.wav,0,peel,412,18,5,Japanese,f,2,0.2,41.654101,0.92284414
RIT,107,2,2024-06-27T06:57:09.625Z,english_306.wav,0,peel,412,18,5,Japanese,f,3,0.3,58.45609749,1.12546267
RIT,107,2,2024-06-27T06:57:09.625Z,english_306.wav,0,peel,412,18,5,Japanese,f,4,0.32341667,-89.32145871,0.77622038
RIT,108,2,2024-06-27T06:57:09.625Z,english_220.wav,0,peel,597,18,5,Japanese,f,0,0.0,-49.83323752,1.6244524
RIT,108,2,2024-06-27T06:57:09.625Z,english_220.wav,0,peel,597,18,5,Japanese,f,1,0.1,49.13629021,0.7812698
RIT,108,2,2024-06-27T06:57:09.625Z,english_220.wav,0,peel,597,18,5,Japanese,f,2,0.2,10.673463,1.29736816
RIT,108,2,2024-06-27T06:57:09.625Z,english_220.wav,0,peel,597,18,5,Japanese,f,3,0.3,-2.35218347,1.3419496
RIT,108,2,2024-06-27T06:57:09.625Z,english_220.wav,0,peel,597,18,5,Japanese,f,4,0.32341667,-2.61587219,1.06575232
RIT,109,2,2024-06-27T06:57:09.625Z,english_477.wav,0,pill,830,18,5,Japanese,f,0,0.0,9.7496965,0.26828956
RIT,109,2,2024-06-27T06:57:09.625Z,english_477.wav,0,pill,830,18,5,Japanese,f,1,0.1,70.56003184,0.51901368
RIT,109,2,2024-06-27T06:57:09.625Z,english_477.wav,0,pill,830,18,5,Japanese,f,2,0.2,34.49551211,0.35677294
RIT,109,2,2024-06-27T06:57:09.625Z,english_477.wav,0,pill,830,18,5,Japanese,f,3,0.3,-75.0597055,1.39462812
RIT,109,2,2024-06-27T06:57:09.625Z,english_477.wav,0,pill,830,18,5,Japanese,f,4,0.32341667,-82.15638008,0.55199483
RIT,110,2,2024-06-27T06:57:09.625Z,english_332.wav,0,peel,548,18,5,Japanese,f,0,0.0,-51.41680869,1.58782391
RIT,110,2,2024-06-27T06:57:09.625Z,english_332.wav,0,peel,548,18,5,Japanese,f,1,0.1,4.985172,0.72138411
RIT,110,2,2024-06-27T06:57:09.625Z,english_332.wav,0,peel,548,18,5,Japanese,f,2,0.2,88.20327684,1.12265768
RIT,110,2,2024-06-27T06:57:09.625Z,english_332.wav,0,peel,548,18,5,Japanese,f,3,0.3,-58.40734817,0.23569111
RIT,110,2,2024-06-27T06:57:09.625Z,english_332.wav,0,peel,548,18,5,Japanese,f,4,0.32341667,68.30800912,1.23583309
RIT,111,2,2024-06-27T06:57:09.625Z,english_337.wav,0,pill,831,18,5,Japanese,f,0,0.0,17.21863108,0.02346696
RIT,111,2,2024-06-27T06:57:09.625Z,english_337.wav,0,pill,831,18,5,Japanese,f,1,0.1,-16.30098312,1.2349353
RIT,111,2,2024-06-27T06:57:09.625Z,english_337.wav,0,pill,831,18,5,Japanese,f,2,0.2,70.17733319,1.07823504
RIT,111,2,2024-06-27T06:57:09.625Z,english_337.wav,0,pill,831,18,5,Japanese,f,3,0.3,-7.16478631,1.83339424
RIT,111,2,2024-06-27T06:57:09.625Z,english_337.wav,0,pill,831,18,5,Japanese,f,4,0.32341667,-84.96176299,1.87583376
RIT,112,2,2024-06-27T06:57:09.625Z,english_176.wav,0,pill,685,18,5,Japanese,f,0,0.0,-62.84257592,0.68193044
RIT,112,2,2024-06-27T06:57:09.625Z,english_176.wav,0,pill,685,18,5,Japanese,f,1,0.1,86.95506575,0.26950978
RIT,112,2,2024-06-27T06:57:09.625Z,english_176.wav,0,pill,685,18,5,Japanese,f,2,0.2,-28.0397163,0.45294908
RIT,112,2,2024-06-27T06:57:09.625Z,english_176.wav,0,pill,685,18,5,Japanese,f,3,0.3,-64.80124174,0.91353321
RIT,112,2,2024-06-27T06:57:09.625Z,english_176.wav,0,pill,685,18,5,Japanese,f,4,0.32341667,-98.66046935,1.10925614
RIT,113,2,2024-06-27T06:57:09.625Z,english_839.wav,0,pill,1017,18,5,Japanese,f,0,0.0,48.1700809,1.1821708
RIT,113,2,2024-06-27T06:57:09.625Z,english_839.wav,0,pill,1017,18,5,Japanese,f,1,0.1,-8.22030768,1.15480022
RIT,113,2,2024-06-27T06:57:09.625Z,english_839.wav,0,pill,1017,18,5,Japanese,f,2,0.2,53.56121636,1.57293091
RIT,113,2,2024-06-27T06:57:09.625Z,english_839.wav,0,pill,1017,18,5,Japanese,f,3,0.3,4.54416263,0.22310878
RIT,113,2,2024-06-27T06:57:09.625Z,english_839.wav,0,pill,1017,18,5,Japanese,f,4,0.32341667,-19.83463627,0.67140257
RIT,114,2,2024-06-27T06:57:09.625Z,english_760.wav,0,pill,804,18,5,Japanese,f,0,0.0,24.3902693,0.0,0.67210823
RIT,114,2,2024-06-27T06:57:09.625Z,english_760.wav,0,pill,804,18,5,Japanese,f,1,0.1,-0.0247174936,0.1,1.89588113
RIT,114,2,2024-06-27T06:57:09.625Z,english_760.wav,0,pill,804,18,5,Japanese,f,2,0.2,82.8662613,0.2,0.23432987
RIT,114,2,2024-06-27T06:57:09.625Z,english_760.wav,0,pill,804,18,5,Japanese,f,3,0.3,-7.97314524,0.3,1.20797246
RIT,114,2,2024-06-27T06:57:09.625Z,english_760.wav,0,pill,804,18,5,Japanese,f,4,0.323416667,-6.32438983,0.32341667,1.72866971
RIT,115,2,2024-06-27T06:57:09.625Z,english_190.wav,0,pill,1236,18,5,Japanese,f,0,0.0,81.66607819,0.0,0.126715216
RIT,115,2,2024-06-27T06:57:09.625Z,english_190.wav,0,pill,1236,18,5,Japanese,f,1,0.1,-14.16938067,0.1,0.000178349903
RIT,115,2,2024-06-27T06:57:09.625Z,english_190.wav,0,pill,1236,18,5,Japanese,f,2,0.2,15.7443745,0.2,1.35192229
RIT,115,2,2024-06-27T06:57:09.625Z,english_190.wav,0,pill,1236,18,5,Japanese,f,3,0.3,85.77694093,0.3,1.08905811
RIT,115,2,2024-06-27T06:57:09.625Z,english_190.wav,0,pill,1236,18,5,Japanese,f,4,0.32341667,33.21115004,0.323416667,1.75580408
RIT,116,2,2024-06-27T06:57:09.625Z,english_709.wav,0,peel,426,18,5,Japanese,f,0,0.0,-57.85840644,1.64294201
RIT,116,2,2024-06-27T06:57:09.625Z,english_709.wav,0,peel,426,18,5,Japanese,f,1,0.1,-9.03046344,1.39808038
RIT,116,2,2024-06-27T06:57:09.625Z,english_709.wav,0,peel,426,18,5,Japanese,f,2,0.2,-83.08592789,1.46645034
RIT,116,2,2024-06-27T06:57:09.625Z,english_709.wav,0,peel,426,18,5,Japanese,f,3,0.3,-30.28779026,1.11724372
RIT,116,2,2024-06-27T06:57:09.625Z,english_709.wav,0,peel,426,18,5,Japanese,f,4,0.32341667,-42.69418167,0.30195694
RIT,117,2,2024-06-27T06:57:09.625Z,english_258.wav,0,peel,447,18,5,Japanese,f,0,0.0,-7.1133109,1.89026761
RIT,117,2,2024-06-27T06:57:09.625Z,english_258.wav,0,peel,447,18,5,Japanese,f,1,0.1,44.58564752,1.79361992
RIT,117,2,2024-06-27T06:57:09.625Z,english_258.wav,0,peel,447,18,5,Japanese,f,2,0.2,45.36800295,0.43687845
RIT,117,2,2024-06-27T06:57:09.625Z,english_258.wav,0,peel,447,18,5,Japanese,f,3,0.3,25.81301737,0.04688612
RIT,117,2,2024-06-27T06:57:09.625Z,english_258.wav,0,peel,447,18,5,Japanese,f,4,0.32341667,-77.97513924,0.52567924
RIT,118,2,2024-06-27T06:57:09.625Z,english_850.wav,0,pill,486,18,5,Japanese,f,0,0.0,79.79173837,1.46721922
RIT,118,2,2024-06-27T06:57:09.625Z,english_850.wav,0,pill,486,18,5,Japanese,f,1,0.1,-44.24877139,0.57242606
RIT,118,2,2024-06-27T06:57:09.625Z,english_850.wav,0,pill,486,18,5,Japanese,f,2,0.2,74.77623955,0.15597525
RIT,118,2,2024-06-27T06:57:09.625Z,english_850.wav,0,pill,486,18,5,Japanese,f,3,0.3,-86.32612653,1.3358867
RIT,118,2,2024-06-27T06:57:09.625Z,english_850.wav,0,pill,486,18,5,Japanese,f,4,0.32341667,-11.10230867,1.14618682
RIT,119,2,2024-06-27T06:57:09.625Z,english_738.wav,0,peel,290,18,5,Japanese,f,0,0.0,-37.88087101,1.83397703
RIT,119,2,2024-06-27T06:57:09.625Z,english_738.wav,0,peel,290,18,5,Japanese,f,1,0.1,-16.85966727,1.52099356
RIT,119,2,2024-06-27T06:57:09.625Z,english_738.wav,0,peel,290,18,5,Japanese,f,2,0.2,-79.76891938,1.69283951
RIT,119,2,2024-06-27T06:57:09.625Z,english_738.wav,0,peel,290,18,5,Japanese,f,3,0.3,-82.30918252,1.81957343
RIT,119,2,2024-06-27T06:57:09.625Z,english_738.wav,0,peel,290,18,5,Japanese,f,4,0.32341667,59.65991076,0.75908376
RIT,120,2,2024-06-27T06:57:09.625Z,english_765.wav,0,pill,380,18,5,Japanese,f,0,0.0,-52.71695997,0.24697616
RIT,120,2,2024-06-27T06:57:09.625Z,english_765.wav,0,pill,380,18,5,Japanese,f,1,0.1,-0.72548599,1.34458244
RIT,120,2,2024-06-27T06:57:09.625Z,english_765.wav,0,pill,380,18,5,Japanese,f,2,0.2,-25.46106624,0.2833524
RIT,120,2,2024-06-27T06:57:09.625Z,english_765.wav,0,pill,380,18,5,Japanese,f,3,0.3,-15.36834083,0.99517128
RIT,120,2,2024-06-27T06:57:09.625Z,english_765.wav,0,pill,380,18,5,Japanese,f,4,0.32341667,-34.08212533,0.81265208
RIT,121,2,2024-06-27T06:57:09.625Z,english_940.wav,0,pill,642,18,5,Japanese,f,0,0.0,47.11462569,0.32214594
RIT,121,2,2024-06-27T06:57:09.625Z,english_940.wav,0,pill,642,18,5,Japanese,f,1,0.1,11.81885745,0.21999868
RIT,121,2,2024-06-27T06:57:09.625Z,english_940.wav,0,pill,642,18,5,Japanese,f,2,0.2,-1.49931669,0.34357292
RIT,121,2,2024-06-27T06:57:09.625Z,english_940.wav,0,pill,642,18,5,Japanese,f,3,0.3,45.92466934,1.61274527
RIT,121,2,2024-06-27T06:57:09.625Z,english_940.wav,0,pill,642,18,5,Japanese,f,4,0.32341667,-72.78738407,0.9185628
RIT,122,2,2024-06-27T06:57:09.625Z,english_663.wav,0,peel,553,18,5,Japanese,f,0,0.0,55.84438863,1.29444713
RIT,122,2,2024-06-27T06:57:09.625Z,english_663.wav,0,peel,553,18,5,Japanese,f,1,0.1,-89.02249371,0.90215198
RIT,122,2,2024-06-27T06:57:09.625Z,english_663.wav,0,peel,553,18,5,Japanese,f,2,0.2,-13.61345685,1.61104603
RIT,122,2,2024-06-27T06:57:09.625Z,english_663.wav,0,peel,553,18,5,Japanese,f,3,0.3,14.50375693,0.31375715
RIT,122,2,2024-06-27T06:57:09.625Z,english_663.wav,0,peel,553,18,5,Japanese,f,4,0.32341667,80.63633164,1.01784406
RIT,123,2,2024-06-27T06:57:09.625Z,english_204.wav,0,peel,1573,18,5,Japanese,f,0,0.0,67.46317025,1.58701212
RIT,123,2,2024-06-27T06:57:09.625Z,english_204.wav,0,peel,1573,18,5,Japanese,f,1,0.1,38.91463365,1.82178317
RIT,123,2,2024-06-27T06:57:09.625Z,english_204.wav,0,peel,1573,18,5,Japanese,f,2,0.2,-85.28377865,1.60361911
RIT,123,2,2024-06-27T06:57:09.625Z,english_204.wav,0,peel,1573,18,5,Japanese,f,3,0.3,55.65505401,0.21823774
RIT,123,2,2024-06-27T06:57:09.625Z,english_204.wav,0,peel,1573,18,5,Japanese,f,4,0.32341667,56.32983288,0.04661671
RIT,124,2,2024-06-27T06:57:09.625Z,english_401.wav,0,pill,369,18,5,Japanese,f,0,0.0,-70.37998858,1.11338134
RIT,124,2,2024-06-27T06:57:09.625Z,english_401.wav,0,pill,369,18,5,Japanese,f,1,0.1,49.27188779,1.59691292
RIT,124,2,2024-06-27T06:57:09.625Z,english_401.wav,0,pill,369,18,5,Japanese,f,2,0.2,5.09566389,0.88679935
RIT,124,2,2024-06-27T06:57:09.625Z,english_401.wav,0,pill,369,18,5,Japanese,f,3,0.3,58.42368176,1.89749174
RIT,124,2,2024-06-27T06:57:09.625Z,english_401.wav,0,pill,369,18,5,Japanese,f,4,0.32341667,-43.06407799,1.35831765
RIT,125,2,2024-06-27T06:57:09.625Z,english_614.wav,0,pill,812,18,5,Japanese,f,0,0.0,78.57791509,1.76663636
RIT,125,2,2024-06-27T06:57:09.625Z,english_614.wav,0,pill,812,18,5,Japanese,f,1,0.1,-6.15631212,0.7337869
RIT,125,2,2024-06-27T06:57:09.625Z,english_614.wav,0,pill,812,18,5,Japanese,f,2,0.2,-15.34092719,1.62880485
RIT,125,2,2024-06-27T06:57:09.625Z,english_614.wav,0,pill,812,18,5,Japanese,f,3,0.3,21.91351344,0.61213133
RIT,125,2,2024-06-27T06:57:09.625Z,english_614.wav,0,pill,812,18,5,Japanese,f,4,0.32341667,-10.50820757,0.41097232
RIT,126,2,2024-06-27T06:57:09.625Z,english_358.wav,0,pill,811,18,5,Japanese,f,0,0.0,-24.40280242,0.64702298
RIT,126,2,2024-06-27T06:57:09.625Z,english_358.wav,0,pill,811,18,5,Japanese,f,1,0.1,62.18566088,0.86836285
RIT,126,2,2024-06-27T06:57:09.625Z,english_358.wav,0,pill,811,18,5,Japanese,f,2,0.2,5.26675109,1.05826104
RIT,126,2,2024-06-27T06:57:09.625Z,english_358.wav,0,pill,811,18,5,Japanese,f,3,0.3,-31.91571391,1.98011631
RIT,126,2,2024-06-27T06:57:09.625Z,english_358.wav,0,pill,811,18,5,Japanese,f,4,0.32341667,27.35112364,0.35058307
RIT,127,2,2024-06-27T06:57:09.625Z,english_147.wav,0,pill,1037,18,5,Japanese,f,0,0.0,-14.37625717,1.08714974
RIT,127,2,2024-06-27T06:57:09.625Z,english_147.wav,0,pill,1037,18,5,Japanese,f,1,0.1,-48.99147792,1.05600262
RIT,127,2,2024-06-27T06:57:09.625Z,english_147.wav,0,pill,1037,18,5,Japanese,f,2,0.2,-76.025031,0.62193731
RIT,127,2,2024-06-27T06:57:09.625Z,english_147.wav,0,pill,1037,18,5,Japanese,f,3,0.3,-4.271985,1.23272935
RIT,127,2,2024-06-27T06:57:09.625Z,english_147.wav,0,pill,1037,18,5,Japanese,f,4,0.32341667,90.36670579,0.90867663
RIT,128,2,2024-06-27T06:57:09.625Z,english_677.wav,0,pill,2364,18,5,Japanese,f,0,0.0,74.92499355,0.4070184
RIT,128,2,2024-06-27T06:57:09.625Z,english_677.wav,0,pill,2364,18,5,Japanese,f,1,0.1,35.44886391,0.82737557
RIT,128,2,2024-06-27T06:57:09.625Z,english_677.wav,0,pill,2364,18,5,Japanese,f,2,0.2,3.82146975,0.46436239
RIT,128,2,2024-06-27T06:57:09.625Z,english_677.wav,0,pill,2364,18,5,Japanese,f,3,0.3,10.3543008,1.40426898
RIT,128,2,2024-06-27T06:57:09.625Z,english_677.wav,0,pill,2364,18,5,Japanese,f,4,0.32341667,-53.94170103,1.42138659
RIT,129,2,2024-06-27T06:57:09.625Z,english_186.wav,0,peel,413,18,5,Japanese,f,0,0.0,-54.7664391,1.87021502
RIT,129,2,2024-06-27T06:57:09.625Z,english_186.wav,0,peel,413,18,5,Japanese,f,1,0.1,-8.4263529,1.36390049
RIT,129,2,2024-06-27T06:57:09.625Z,english_186.wav,0,peel,413,18,5,Japanese,f,2,0.2,6.22451559,1.69942617
RIT,129,2,2024-06-27T06:57:09.625Z,english_186.wav,0,peel,413,18,5,Japanese,f,3,0.3,-12.35671223,1.8066537
RIT,129,2,2024-06-27T06:57:09.625Z,english_186.wav,0,peel,413,18,5,Japanese,f,4,0.32341667,86.21839615,1.2511354
RIT,130,2,2024-06-27T06:57:09.625Z,english_891.wav,0,pill,551,18,5,Japanese,f,0,0.0,21.29241244,0.7419472
RIT,130,2,2024-06-27T06:57:09.625Z,english_891.wav,0,pill,551,18,5,Japanese,f,1,0.1,-1.23713702,1.09270952
RIT,130,2,2024-06-27T06:57:09.625Z,english_891.wav,0,pill,551,18,5,Japanese,f,2,0.2,-74.86460599,0.8129571
RIT,130,2,2024-06-27T06:57:09.625Z,english_891.wav,0,pill,551,18,5,Japanese,f,3,0.3,18.81587233,0.16019775
RIT,130,2,2024-06-27T06:57:09.625Z,english_891.wav,0,pill,551,18,5,Japanese,f,4,0.32341667,35.3489582,1.17476401
RIT,131,2,2024-06-27T06:57:09.625Z,english_22.wav,0,pill,624,18,5,Japanese,f,0,0.0,78.11206964,1.48448967
RIT,131,2,2024-06-27T06:57:09.625Z,english_22.wav,0,pill,624,18,5,Japanese,f,1,0.1,30.08823316,0.28770474
RIT,131,2,2024-06-27T06:57:09.625Z,english_22.wav,0,pill,624,18,5,Japanese,f,2,0.2,62.70691674,1.03274311
RIT,131,2,2024-06-27T06:57:09.625Z,english_22.wav,0,pill,624,18,5,Japanese,f,3,0.3,-69.9857022,0.45071415
RIT,131,2,2024-06-27T06:57:09.625Z,english_22.wav,0,pill,624,18,5,Japanese,f,4,0.32341667,-1.96178027,0.30900593
RIT,132,2,2024-06-27T06:57:09.625Z,english_961.wav,0,peel,913,18,5,Japanese,f,0,0.0,20.81275789,1.87720953
RIT,132,2,2024-06-27T06:57:09.625Z,english_961.wav,0,peel,913,18,5,Japanese,f,1,0.1,46.48072234,1.43497285
RIT,132,2,2024-06-27T06:57:09.625Z,english_961.wav,0,peel,913,18,5,Japanese,f,2,0.2,79.36291712,1.9095844
RIT,132,2,2024-06-27T06:57:09.625Z,english_961.wav,0,peel,913,18,5,Japanese,f,3,0.3,7.86976501,0.20821065
RIT,132,2,2024-06-27T06:57:09.625Z,english_961.wav,0,peel,913,18,5,Japanese,f,4,0.32341667,-45.45751668,0.0640973
RIT,133,2,2024-06-27T06:57:09.625Z,english_915.wav,0,pill,647,18,5,Japanese,f,0,0.0,40.39704719,0.11203387
RIT,133,2,2024-06-27T06:57:09.625Z,english_915.wav,0,pill,647,18,5,Japanese,f,1,0.1,-77.86782689,0.449249
RIT,133,2,2024-06-27T06:57:09.625Z,english_915.wav,0,pill,647,18,5,Japanese,f,2,0.2,21.84672988,0.02407483
RIT,133,2,2024-06-27T06:57:09.625Z,english_915.wav,0,pill,647,18,5,Japanese,f,3,0.3,-56.0972156,1.6502756
RIT,133,2,2024-06-27T06:57:09.625Z,english_915.wav,0,pill,647,18,5,Japanese,f,4,0.32341667,65.00594456,0.65362707
RIT,134,2,2024-06-27T06:57:09.625Z,english_700.wav,0,pill,650,18,5,Japanese,f,0,0.0,-76.89056698,0.13963816
RIT,134,2,2024-06-27T06:57:09.625Z,english_700.wav,0,pill,650,18,5,Japanese,f,1,0.1,-93.17552037,0.76842729
RIT,134,2,2024-06-27T06:57:09.625Z,english_700.wav,0,pill,650,18,5,Japanese,f,2,0.2,51.24439156,0.49149542
RIT,134,2,2024-06-27T06:57:09.625Z,english_700.wav,0,pill,650,18,5,Japanese,f,3,0.3,89.4516499,1.08714417
RIT,134,2,2024-06-27T06:57:09.625Z,english_700.wav,0,pill,650,18,5,Japanese,f,4,0.32341667,-68.48659069,1.35188588
RIT,135,2,2024-06-27T06:57:09.625Z,english_215.wav,0,peel,2642,18,5,Japanese,f,0,0.0,-93.71362427,1.31176069
RIT,135,2,2024-06-27T06:57:09.625Z,english_215.wav,0,peel,2642,18,5,Japanese,f,1,0.1,20.4696733,1.25536714
RIT,135,2,2024-06-27T06:57:09.625Z,english_215.wav,0,peel,2642,18,5,Japanese,f,2,0.2,-66.57352715,1.5696385
RIT,135,2,2024-06-27T06:57:09.625Z,english_215.wav,0,peel,2642,18,5,Japanese,f,3,0.3,-0.6079782,0.03144419
RIT,135,2,2024-06-27T06:57:09.625Z,english_215.wav,0,peel,2642,18,5,Japanese,f,4,0.32341667,-5.73921948,0.79048669
RIT,136,2,2024-06-27T06:57:09.625Z,english_32.wav,0,pill,619,18,5,Japanese,f,0,0.0,89.50349963,1.73304916
RIT,136,2,2024-06-27T06:57:09.625Z,english_32.wav,0,pill,619,18,5,Japanese,f,1,0.1,51.51128255,0.02192789
RIT,136,2,2024-06-27T06:57:09.625Z,english_32.wav,0,pill,619,18,5,Japanese,f,2,0.2,-58.32910347,1.71493142
RIT,136,2,2024-06-27T06:57:09.625Z,english_32.wav,0,pill,619,18,5,Japanese,f,3,0.3,15.96172744,1.28451373
RIT,136,2,2024-06-27T06:57:09.625Z,english_32.wav,0,pill,619,18,5,Japanese,f,4,0.32341667,84.40449403,1.22971166
RIT,137,2,2024-06-27T06:57:09.625Z,english_587.wav,0,peel,1389,18,5,Japanese,f,0,0.0,-33.32102811,0.7972352
RIT,137,2,2024-06-27T06:57:09.625Z,english_587.wav,0,peel,1389,18,5,Japanese,f,1,0.1,46.1287001,1.97425238
RIT,137,2,2024-06-27T06:57:09.625Z,english_587.wav,0,peel,1389,18,5,Japanese,f,2,0.2,-62.23894368,0.99609006
RIT,137,2,2024-06-27T06:57:09.625Z,english_587.wav,0,peel,1389,18,5,Japanese,f,3,0.3,36.67711132,1.18577707
RIT,137,2,2024-06-27T06:57:09.625Z,english_587.wav,0,peel,1389,18,5,Japanese,f,4,0.32341667,-11.53320103,1.64089558
RIT,138,2,2024-06-27T06:57:09.625Z,english_414.wav,0,pill,668,18,5,Japanese,f,0,0.0,19.47839865,0.9434816
RIT,138,2,2024-06-27T06:57:09.625Z,english_414.wav,0,pill,668,18,5,Japanese,f,1,0.1,59.9490877,1.1146936
RIT,138,2,2024-06-27T06:57:09.625Z,english_414.wav,0,pill,668,18,5,Japanese,f,2,0.2,22.33981162,0.48476454
RIT,138,2,2024-06-27T06:57:09.625Z,english_414.wav,0,pill,668,18,5,Japanese,f,3,0.3,18.97426154,0.23554241
RIT,138,2,2024-06-27T06:57:09.625Z,english_414.wav,0,pill,668,18,5,Japanese,f,4,0.32341667,15.16306506,1.13007685
RIT,139,2,2024-06-27T06:57:09.625Z,english_518.wav,0,pill,728,18,5,Japanese,f,0,0.0,52.37511869,0.23824141
RIT,139,2,2024-06-27T06:57:09.625Z,english_518.wav,0,pill,728,18,5,Japanese,f,1,0.1,-33.3490586,0.80559068
RIT,139,2,2024-06-27T06:57:09.625Z,english_518.wav,0,pill,728,18,5,Japanese,f,2,0.2,-71.20035434,1.24725456
RIT,139,2,2024-06-27T06:57:09.625Z,english_518.wav,0,pill,728,18,5,Japanese,f,3,0.3,6.23243823,1.01334401
RIT,139,2,2024-06-27T06:57:09.625Z,english_518.wav,0,pill,728,18,5,Japanese,f,4,0.32341667,-29.48660546,1.51264586
RIT,140,2,2024-06-27T06:57:09.625Z,english_203.wav,0,pill,622,18,5,Japanese,f,0,0.0,-22.28277813,1.31475846
RIT,140,2,2024-06-27T06:57:09.625Z,english_203.wav,0,pill,622,18,5,Japanese,f,1,0.1,13.21695477,1.08922412
RIT,140,2,2024-06-27T06:57:09.625Z,english_203.wav,0,pill,622,18,5,Japanese,f,2,0.2,63.23651974,0.55450355
RIT,140,2,2024-06-27T06:57:09.625Z,english_203.wav,0,pill,622,18,5,Japanese,f,3,0.3,-20.14830746,1.72034007
RIT,140,2,2024-06-27T06:57:09.625Z,english_203.wav,0,pill,622,18,5,Japanese,f,4,0.32341667,-78.55276631,0.92481053
RIT,141,2,2024-06-27T06:57:09.625Z,english_80.wav,0,pill,685,18,5,Japanese,f,0,0.0,33.21374474,1.09809668
RIT,141,2,2024-06-27T06:57:09.625Z,english_80.wav,0,pill,685,18,5,Japanese,f,1,0.1,-72.2618742,1.73594877
RIT,141,2,2024-06-27T06:57:09.625Z,english_80.wav,0,pill,685,18,5,Japanese,f,2,0.2,-29.44860443,0.30037535
RIT,141,2,2024-06-27T06:57:09.625Z,english_80.wav,0,pill,685,18,5,Japanese,f,3,0.3,-33.36418129,0.36613598
RIT,141,2,2024-06-27T06:57:09.625Z,english_80.wav,0,pill,685,18,5,Japanese,f,4,0.32341667,-65.11319145,0.50687614
RIT,142,2,2024-06-27T06:57:09.625Z,english_415.wav,0,peel,666,18,5,Japanese,f,0,0.0,36.00223879,1.49199547
RIT,142,2,2024-06-27T06:57:09.625Z,english_415.wav,0,peel,666,18,5,Japanese,f,1,0.1,-82.63332374,1.79959711
RIT,142,2,2024-06-27T06:57:09.625Z,english_415.wav,0,peel,666,18,5,Japanese,f,2,0.2,57.55038703,0.64689267
RIT,142,2,2024-06-27T06:57:09.625Z,english_415.wav,0,peel,666,18,5,Japanese,f,3,0.3,-9.83064734,0.31881377
RIT,142,2,2024-06-27T06:57:09.625Z,english_415.wav,0,peel,666,18,5,Japanese,f,4,0.32341667,-29.78573939,0.18568486
RIT,143,2,2024-06-27T06:57:09.625Z,english_70.wav,0,pill,559,18,5,Japanese,f,0,0.0,-53.09237622,1.21678364
RIT,143,2,2024-06-27T06:57:09.625Z,english_70.wav,0,pill,559,18,5,Japanese,f,1,0.1,85.97526897,0.94111324
RIT,143,2,2024-06-27T06:57:09.625Z,english_70.wav,0,pill,559,18,5,Japanese,f,2,0.2,25.5645184,1.03926055
RIT,143,2,2024-06-27T06:57:09.625Z,english_70.wav,0,pill,559,18,5,Japanese,f,3,0.3,1.25172137,0.29519406
RIT,143,2,2024-06-27T06:57:09.625Z,english_70.wav,0,pill,559,18,5,Japanese,f,4,0.32341667,93.59431896,0.80175783
RIT,144,2,2024-06-27T06:57:09.625Z,english_795.wav,0,pill,846,18,5,Japanese,f,0,0.0,39.36518311,1.47453336
RIT,144,2,2024-06-27T06:57:09.625Z,english_795.wav,0,pill,846,18,5,Japanese,f,1,0.1,16.50141431,0.29075574
RIT,144,2,2024-06-27T06:57:09.625Z,english_795.wav,0,pill,846,18,5,Japanese,f,2,0.2,54.87860026,1.88174141
RIT,144,2,2024-06-27T06:57:09.625Z,english_795.wav,0,pill,846,18,5,Japanese,f,3,0.3,61.09971909,0.27471403
RIT,144,2,2024-06-27T06:57:09.625Z,english_795.wav,0,pill,846,18,5,Japanese,f,4,0.32341667,4.28490532,0.11399574
RIT,145,2,2024-06-27T06:57:09.625Z,english_156.wav,0,pill,872,18,5,Japanese,f,0,0.0,93.86570948,0.27803573
RIT,145,2,2024-06-27T06:57:09.625Z,english_156.wav,0,pill,872,18,5,Japanese,f,1,0.1,63.74639013,0.76121308
RIT,145,2,2024-06-27T06:57:09.625Z,english_156.wav,0,pill,872,18,5,Japanese,f,2,0.2,-97.10775444,0.98438609
RIT,145,2,2024-06-27T06:57:09.625Z,english_156.wav,0,pill,872,18,5,Japanese,f,3,0.3,99.76737427,0.34877861
RIT,145,2,2024-06-27T06:57:09.625Z,english_156.wav,0,pill,872,18,5,Japanese,f,4,0.32341667,11.29868277,0.58154428
RIT,146,2,2024-06-27T06:57:09.625Z,english_570.wav,0,peel,1002,18,5,Japanese,f,0,0.0,79.72420881,1.67561776
RIT,146,2,2024-06-27T06:57:09.625Z,english_570.wav,0,peel,1002,18,5,Japanese,f,1,0.1,-10.34227762,1.50139893
RIT,146,2,2024-06-27T06:57:09.625Z,english_570.wav,0,peel,1002,18,5,Japanese,f,2,0.2,18.32754659,1.41834695
RIT,146,2,2024-06-27T06:57:09.625Z,english_570.wav,0,peel,1002,18,5,Japanese,f,3,0.3,15.23919529,1.12876239
RIT,146,2,2024-06-27T06:57:09.625Z,english_570.wav,0,peel,1002,18,5,Japanese,f,4,0.32341667,-28.05357781,0.72546523
RIT,147,2,2024-06-27T06:57:09.625Z,english_263.wav,0,pill,1737,18,5,Japanese,f,0,0.0,4.78285782,1.6410762
RIT,147,2,2024-06-27T06:57:09.625Z,english_263.wav,0,pill,1737,18,5,Japanese,f,1,0.1,13.60270601,0.7602565
RIT,147,2,2024-06-27T06:57:09.625Z,english_263.wav,0,pill,1737,18,5,Japanese,f,2,0.2,39.50896912,0.2694778
RIT,147,2,2024-06-27T06:57:09.625Z,english_263.wav,0,pill,1737,18,5,Japanese,f,3,0.3,22.44107494,1.51649535
RIT,147,2,2024-06-27T06:57:09.625Z,english_263.wav,0,pill,1737,18,5,Japanese,f,4,0.32341667,-36.00172497,0.60574629
RIT,148,2,2024-06-27T06:57:09.625Z,english_666.wav,0,pill,985,18,5,Japanese,f,0,0.0,-6.63307831,0.44221414
RIT,148,2,2024-06-27T06:57:09.625Z,english_666.wav,0,pill,985,18,5,Japanese,f,1,0.1,-47.66524373,1.62559692
RIT,148,2,2024-06-27T06:57:09.625Z,english_666.wav,0,pill,985,18,5,Japanese,f,2,0.2,66.93817534,0.27313334
RIT,148,2,2024-06-27T06:57:09.625Z,english_666.wav,0,pill,985,18,5,Japanese,f,3,0.3,-1.338646,0.46846925
RIT,148,2,2024-06-27T06:57:09.625Z,english_666.wav,0,pill,985,18,5,Japanese,f,4,0.32341667,-14.31927765,1.08883823
RIT,149,2,2024-06-27T06:57:09.625Z,english_327.wav,0,pill,683,18,5,Japanese,f,0,0.0,-65.34261839,0.94624792
RIT,149,2,2024-06-27T06:57:09.625Z,english_327.wav,0,pill,683,18,5,Japanese,f,1,0.1,-88.88296173,0.88463276
RIT,149,2,2024-06-27T06:57:09.625Z,english_327.wav,0,pill,683,18,5,Japanese,f,2,0.2,-52.48624316,0.8064175
RIT,149,2,2024-06-27T06:57:09.625Z,english_327.wav,0,pill,683,18,5,Japanese,f,3,0.3,35.3894457,1.08656597
RIT,149,2,2024-06-27T06:57:09.625Z,english_327.wav,0,pill,683,18,5,Japanese,f,4,0.32341667,-31.26503482,0.95323019
RIT,150,3,2024-06-27T06:57:09.625Z,english_498.wav,0,pill,667,18,5,Japanese,f,0,0.0,2.49020902,0.78964515
RIT,150,3,2024-06-27T06:57:09.625Z,english_498.wav,0,pill,667,18,5,Japanese,f,1,0.1,-20.55300452,0.24391593
RIT,150,3,2024-06-27T06:57:09.625Z,english_498.wav,0,pill,667,18,5,Japanese,f,2,0.2,-34.14985779,0.11401041
RIT,150,3,2024-06-27T06:57:09.625Z,english_498.wav,0,pill,667,18,5,Japanese,f,3,0.3,79.54997135,1.52582154
RIT,150,3,2024-06-27T06:57:09.625Z,english_498.wav,0,pill,667,18,5,Japanese,f,4,0.32341667,20.54695207,0.62547878
RIT,151,3,2024-06-27T06:57:09.625Z,english_980.wav,0,pill,966,18,5,Japanese,f,0,0.0,-32.33629208,1.21290567
RIT,151,3,2024-06-27T06:57:09.625Z,english_980.wav,0,pill,966,18,5,Japanese,f,1,0.1,-4.4140807,0.22350007
RIT,151,3,2024-06-27T06:57:09.625Z,english_980.wav,0,pill,966,18,5,Japanese,f,2,0.2,76.81412515,1.68078519
RIT,151,3,2024-06-27T06:57:09.625Z,english_980.wav,0,pill,966,18,5,Japanese,f,3,0.3,-16.24877133,0.16816052
RIT,151,3,2024-06-27T06:57:09.625Z,english_980.wav,0,pill,966,18,5,Japanese,f,4,0.32341667,-26.44128118,1.48722631
RIT,152,3,2024-06-27T06:57:09.625Z,english_137.wav,0,peel,2509,18,5,Japanese,f,0,0.0,-81.54177422,0.16940048
RIT,152,3,2024-06-27T06:57:09.625Z,english_137.wav,0,peel,2509,18,5,Japanese,f,1,0.1,48.50229113,1.33204053
RIT,152,3,2024-06-27T06:57:09.625Z,english_137.wav,0,peel,2509,18,5,Japanese,f,2,0.2,-43.40912925,1.8593258
RIT,152,3,2024-06-27T06:57:09.625Z,english_137.wav,0,peel,2509,18,5,Japanese,f,3,0.3,54.89578869,1.77805515
RIT,152,3,2024-06-27T06:57:09.625Z,english_137.wav,0,peel,2509,18,5,Japanese,f,4,0.32341667,90.09778797,1.80981769
RIT,153,3,2024-06-27T06:57:09.625Z,english_699.wav,0,pill,587,18,5,Japanese,f,0,0.0,-21.84844695,0.55007596
RIT,153,3,2024-06-27T06:57:09.625Z,english_699.wav,0,pill,587,18,5,Japanese,f,1,0.1,-20.61050251,0.98595355
RIT,153,3,2024-06-27T06:57:09.625Z,english_699.wav,0,pill,587,18,5,Japanese,f,2,0.2,-7.57046677,1.16771202
RIT,153,3,2024-06-27T06:57:09.625Z,english_699.wav,0,pill,587,18,5,Japanese,f,3,0.3,-90.18255135,0.60930532
RIT,153,3,2024-06-27T06:57:09.625Z,english_699.wav,0,pill,587,18,5,Japanese,f,4,0.32341667,-39.12532958,1.39260434
RIT,154,3,2024-06-27T06:57:09.625Z,english_799.wav,0,peel,836,18,5,Japanese,f,0,0.0,-48.4958847,1.9233431
RIT,154,3,2024-06-27T06:57:09.625Z,english_799.wav,0,peel,836,18,5,Japanese,f,1,0.1,-9.52866418,1.11542891
RIT,154,3,2024-06-27T06:57:09.625Z,english_799.wav,0,peel,836,18,5,Japanese,f,2,0.2,1.94176449,0.95865462
RIT,154,3,2024-06-27T06:57:09.625Z,english_799.wav,0,peel,836,18,5,Japanese,f,3,0.3,5.71676827,0.6616034
RIT,154,3,2024-06-27T06:57:09.625Z,english_799.wav,0,peel,836,18,5,Japanese,f,4,0.32341667,30.27282792,1.91183458
RIT,155,3,2024-06-27T06:57:09.625Z,english_603.wav,0,pill,547,18,5,Japanese,f,0,0.0,-14.17444723,1.28295305
RIT,155,3,2024-06-27T06:57:09.625Z,english_603.wav,0,pill,547,18,5,Japanese,f,1,0.1,-4.64921339,0.35920956
RIT,155,3,2024-06-27T06:57:09.625Z,english_603.wav,0,pill,547,18,5,Japanese,f,2,0.2,-23.32469505,0.60281559
RIT,155,3,2024-06-27T06:57:09.625Z,english_603.wav,0,pill,547,18,5,Japanese,f,3,0.3,-59.01260874,0.58107079
RIT,155,3,2024-06-27T06:57:09.625Z,english_603.wav,0,pill,547,18,5,Japanese,f,4,0.32341667,88.53711532,1.19087365
RIT,156,3,2024-06-27T06:57:09.625Z,english_600.wav,0,pill,952,18,5,Japanese,f,0,0.0,37.30285492,1.23507691
RIT,156,3,2024-06-27T06:57:09.625Z,english_600.wav,0,pill,952,18,5,Japanese,f,1,0.1,57.58729363,0.65453179
RIT,156,3,2024-06-27T06:57:09.625Z,english_600.wav,0,pill,952,18,5,Japanese,f,2,0.2,-74.33256695,1.70226061
RIT,156,3,2024-06-27T06:57:09.625Z,english_600.wav,0,pill,952,18,5,Japanese,f,3,0.3,-35.711252,0.4723836
RIT,156,3,2024-06-27T06:57:09.625Z,english_600.wav,0,pill,952,18,5,Japanese,f,4,0.32341667,3.54782198,0.49080622
RIT,157,3,2024-06-27T06:57:09.625Z,english_83.wav,0,pill,632,18,5,Japanese,f,0,0.0,98.86804112,0.82381457
RIT,157,3,2024-06-27T06:57:09.625Z,english_83.wav,0,pill,632,18,5,Japanese,f,1,0.1,-37.42051535,1.26275754
RIT,157,3,2024-06-27T06:57:09.625Z,english_83.wav,0,pill,632,18,5,Japanese,f,2,0.2,23.85234946,0.74836396
RIT,157,3,2024-06-27T06:57:09.625Z,english_83.wav,0,pill,632,18,5,Japanese,f,3,0.3,28.05435803,0.41584898
RIT,157,3,2024-06-27T06:57:09.625Z,english_83.wav,0,pill,632,18,5,Japanese,f,4,0.32341667,2.44147447,1.88336536
RIT,158,3,2024-06-27T06:57:09.625Z,english_425.wav,0,pill,783,18,5,Japanese,f,0,0.0,52.16022051,1.95369626
RIT,158,3,2024-06-27T06:57:09.625Z,english_425.wav,0,pill,783,18,5,Japanese,f,1,0.1,-4.0342476,0.01224448
RIT,158,3,2024-06-27T06:57:09.625Z,english_425.wav,0,pill,783,18,5,Japanese,f,2,0.2,71.82190917,1.45838463
RIT,158,3,2024-06-27T06:57:09.625Z,english_425.wav,0,pill,783,18,5,Japanese,f,3,0.3,77.8432037,1.1656734
RIT,158,3,2024-06-27T06:57:09.625Z,english_425.wav,0,pill,783,18,5,Japanese,f,4,0.32341667,29.14791909,1.54078916
RIT,159,3,2024-06-27T06:57:09.625Z,english_743.wav,0,pill,1350,18,5,Japanese,f,0,0.0,-28.24983145,1.42102626
RIT,159,3,2024-06-27T06:57:09.625Z,english_743.wav,0,pill,1350,18,5,Japanese,f,1,0.1,71.30498545,0.84283155
RIT,159,3,2024-06-27T06:57:09.625Z,english_743.wav,0,pill,1350,18,5,Japanese,f,2,0.2,-89.00652632,0.82757129
RIT,159,3,2024-06-27T06:57:09.625Z,english_743.wav,0,pill,1350,18,5,Japanese,f,3,0.3,3.43441779,1.38808557
RIT,159,3,2024-06-27T06:57:09.625Z,english_743.wav,0,pill,1350,18,5,Japanese,f,4,0.32341667,-16.71659348,0.28501565
RIT,160,3,2024-06-27T06:57:09.625Z,english_18.wav,0,pill,958,18,5,Japanese,f,0,0.0,-61.9567004,0.0,0.45038722
RIT,160,3,2024-06-27T06:57:09.625Z,english_18.wav,0,pill,958,18,5,Japanese,f,1,0.1,39.2027204,0.1,1.56185221
RIT,160,3,2024-06-27T06:57:09.625Z,english_18.wav,0,pill,958,18,5,Japanese,f,2,0.2,-0.0626834214,0.2,0.80652275
RIT,160,3,2024-06-27T06:57:09.625Z,english_18.wav,0,pill,958,18,5,Japanese,f,3,0.3,-72.2820301,0.3,0.39505163
RIT,160,3,2024-06-27T06:57:09.625Z,english_18.wav,0,pill,958,18,5,Japanese,f,4,0.323416667,-52.9459242,0.32341667,0.50402069
RIT,161,3,2024-06-27T06:57:09.625Z,english_664.wav,0,pill,580,18,5,Japanese,f,0,0.0,-76.94516773,1.88823832
RIT,161,3,2024-06-27T06:57:09.625Z,english_664.wav,0,pill,580,18,5,Japanese,f,1,0.1,-6.4858311,1.41396893
RIT,161,3,2024-06-27T06:57:09.625Z,english_664.wav,0,pill,580,18,5,Japanese,f,2,0.2,46.60528691,0.11773869
RIT,161,3,2024-06-27T06:57:09.625Z,english_664.wav,0,pill,580,18,5,Japanese,f,3,0.3,9.48323043,1.80376032
RIT,161,3,2024-06-27T06:57:09.625Z,english_664.wav,0,pill,580,18,5,Japanese,f,4,0.32341667,89.85696022,1.43209877
RIT,162,3,2024-06-27T06:57:09.625Z,english_898.wav,0,pill,1040,18,5,Japanese,f,0,0.0,77.23607787,0.41308158
RIT,162,3,2024-06-27T06:57:09.625Z,english_898.wav,0,pill,1040,18,5,Japanese,f,1,0.1,-36.99854877,1.59324842
RIT,162,3,2024-06-27T06:57:09.625Z,english_898.wav,0,pill,1040,18,5,Japanese,f,2,0.2,16.09723403,1.42339693
RIT,162,3,2024-06-27T06:57:09.625Z,english_898.wav,0,pill,1040,18,5,Japanese,f,3,0.3,29.12208023,1.17478291
RIT,162,3,2024-06-27T06:57:09.625Z,english_898.wav,0,pill,1040,18,5,Japanese,f,4,0.32341667,-69.45423228,1.88393163
RIT,163,3,2024-06-27T06:57:09.625Z,english_7.wav,0,pill,690,18,5,Japanese,f,0,0.0,-21.06405819,1.08184232
RIT,163,3,2024-06-27T06:57:09.625Z,english_7.wav,0,pill,690,18,5,Japanese,f,1,0.1,52.71042782,0.36719269
RIT,163,3,2024-06-27T06:57:09.625Z,english_7.wav,0,pill,690,18,5,Japanese,f,2,0.2,-75.60464889,0.43185312
RIT,163,3,2024-06-27T06:57:09.625Z,english_7.wav,0,pill,690,18,5,Japanese,f,3,0.3,-40.56941306,0.01474265
RIT,163,3,2024-06-27T06:57:09.625Z,english_7.wav,0,pill,690,18,5,Japanese,f,4,0.32341667,63.70656894,0.90880476
RIT,164,3,2024-06-27T06:57:09.625Z,english_352.wav,0,pill,402,18,5,Japanese,f,0,0.0,71.64354449,0.18312459
RIT,164,3,2024-06-27T06:57:09.625Z,english_352.wav,0,pill,402,18,5,Japanese,f,1,0.1,53.2516906,1.19991438
RIT,164,3,2024-06-27T06:57:09.625Z,english_352.wav,0,pill,402,18,5,Japanese,f,2,0.2,28.90726554,1.21095973
RIT,164,3,2024-06-27T06:57:09.625Z,english_352.wav,0,pill,402,18,5,Japanese,f,3,0.3,-49.8940387,1.61067418
RIT,164,3,2024-06-27T06:57:09.625Z,english_352.wav,0,pill,402,18,5,Japanese,f,4,0.32341667,21.76832357,1.26376439
RIT,165,3,2024-06-27T06:57:09.625Z,english_124.wav,0,pill,1631,18,5,Japanese,f,0,0.0,-16.92140416,1.25482105
RIT,165,3,2024-06-27T06:57:09.625Z,english_124.wav,0,pill,1631,18,5,Japanese,f,1,0.1,97.41289205,1.97830042
RIT,165,3,2024-06-27T06:57:09.625Z,english_124.wav,0,pill,1631,18,5,Japanese,f,2,0.2,-78.49167412,1.09846955
RIT,165,3,2024-06-27T06:57:09.625Z,english_124.wav,0,pill,1631,18,5,Japanese,f,3,0.3,-3.48618202,0.36540564
RIT,165,3,2024-06-27T06:57:09.625Z,english_124.wav,0,pill,1631,18,5,Japanese,f,4,0.32341667,5.32047068,0.96325389
RIT,166,3,2024-06-27T06:57:09.625Z,english_20.wav,0,pill,1423,18,5,Japanese,f,0,0.0,-56.6830557,0.06363068
RIT,166,3,2024-06-27T06:57:09.625Z,english_20.wav,0,pill,1423,18,5,Japanese,f,1,0.1,50.66790367,1.80739158
RIT,166,3,2024-06-27T06:57:09.625Z,english_20.wav,0,pill,1423,18,5,Japanese,f,2,0.2,-18.96445326,1.41045117
RIT,166,3,2024-06-27T06:57:09.625Z,english_20.wav,0,pill,1423,18,5,Japanese,f,3,0.3,-25.44345058,0.2049667
RIT,166,3,2024-06-27T06:57:09.625Z,english_20.wav,0,pill,1423,18,5,Japanese,f,4,0.32341667,12.75548414,0.27136646
RIT,167,3,2024-06-27T06:57:09.625Z,english_538.wav,0,pill,486,18,5,Japanese,f,0,0.0,2.36208538,1.54356298
RIT,167,3,2024-06-27T06:57:09.625Z,english_538.wav,0,pill,486,18,5,Japanese,f,1,0.1,77.85923423,0.47597082
RIT,167,3,2024-06-27T06:57:09.625Z,english_538.wav,0,pill,486,18,5,Japanese,f,2,0.2,-89.1271409,1.27977799
RIT,167,3,2024-06-27T06:57:09.625Z,english_538.wav,0,pill,486,18,5,Japanese,f,3,0.3,-18.79772534,1.05516459
RIT,167,3,2024-06-27T06:57:09.625Z,english_538.wav,0,pill,486,18,5,Japanese,f,4,0.32341667,87.62276495,1.20284762
RIT,168,3,2024-06-27T06:57:09.625Z,english_932.wav,0,peel,791,18,5,Japanese,f,0,0.0,-3.8848098,1.00949787
RIT,168,3,2024-06-27T06:57:09.625Z,english_932.wav,0,peel,791,18,5,Japanese,f,1,0.1,-32.48916274,1.44703087
RIT,168,3,2024-06-27T06:57:09.625Z,english_932.wav,0,peel,791,18,5,Japanese,f,2,0.2,81.26251807,0.10808594
RIT,168,3,2024-06-27T06:57:09.625Z,english_932.wav,0,peel,791,18,5,Japanese,f,3,0.3,-18.23478105,0.03465182
RIT,168,3,2024-06-27T06:57:09.625Z,english_932.wav,0,peel,791,18,5,Japanese,f,4,0.32341667,7.90132089,0.79845554
RIT,169,3,2024-06-27T06:57:09.625Z,english_621.wav,0,peel,693,18,5,Japanese,f,0,0.0,-58.25251841,1.01186344
RIT,169,3,2024-06-27T06:57:09.625Z,english_621.wav,0,peel,693,18,5,Japanese,f,1,0.1,21.8974524,1.03560921
RIT,169,3,2024-06-27T06:57:09.625Z,english_621.wav,0,peel,693,18,5,Japanese,f,2,0.2,-22.03552483,0.97057504
RIT,169,3,2024-06-27T06:57:09.625Z,english_621.wav,0,peel,693,18,5,Japanese,f,3,0.3,-56.80446909,1.33131235
RIT,169,3,2024-06-27T06:57:09.625Z,english_621.wav,0,peel,693,18,5,Japanese,f,4,0.32341667,-23.41760562,0.49151525
RIT,170,3,2024-06-27T06:57:09.625Z,english_647.wav,0,peel,328,18,5,Japanese,f,0,0.0,-8.76796469,1.6238225
RIT,170,3,2024-06-27T06:57:09.625Z,english_647.wav,0,peel,328,18,5,Japanese,f,1,0.1,-49.13996982,1.56934089
RIT,170,3,2024-06-27T06:57:09.625Z,english_647.wav,0,peel,328,18,5,Japanese,f,2,0.2,43.79634461,0.78560304
RIT,170,3,2024-06-27T06:57:09.625Z,english_647.wav,0,peel,328,18,5,Japanese,f,3,0.3,5.5781311,0.61771672
RIT,170,3,2024-06-27T06:57:09.625Z,english_647.wav,0,peel,328,18,5,Japanese,f,4,0.32341667,17.41251701,1.2404866
RIT,171,3,2024-06-27T06:57:09.625Z,english_871.wav,0,pill,1208,18,5,Japanese,f,0,0.0,84.63625516,0.21643415
RIT,171,3,2024-06-27T06:57:09.625Z,english_871.wav,0,pill,1208,18,5,Japanese,f,1,0.1,-19.11058767,1.23538017
RIT,171,3,2024-06-27T06:57:09.625Z,english_871.wav,0,pill,1208,18,5,Japanese,f,2,0.2,49.1497137,1.26375285
RIT,171,3,2024-06-27T06:57:09.625Z,english_871.wav,0,pill,1208,18,5,Japanese,f,3,0.3,-83.07816512,0.03257235
RIT,171,3,2024-06-27T06:57:09.625Z,english_871.wav,0,pill,1208,18,5,Japanese,f,4,0.32341667,11.22002909,1.90703832
RIT,172,3,2024-06-27T06:57:09.625Z,english_166.wav,0,pill,921,18,5,Japanese,f,0,0.0,37.27670025,1.42766663
RIT,172,3,2024-06-27T06:57:09.625Z,english_166.wav,0,pill,921,18,5,Japanese,f,1,0.1,34.38847046,0.72731767
RIT,172,3,2024-06-27T06:57:09.625Z,english_166.wav,0,pill,921,18,5,Japanese,f,2,0.2,49.91842175,1.80608275
RIT,172,3,2024-06-27T06:57:09.625Z,english_166.wav,0,pill,921,18,5,Japanese,f,3,0.3,56.9541748,1.91598421
RIT,172,3,2024-06-27T06:57:09.625Z,english_166.wav,0,pill,921,18,5,Japanese,f,4,0.32341667,10.97290623,1.21084105
RIT,173,3,2024-06-27T06:57:09.625Z,english_507.wav,0,peel,505,18,5,Japanese,f,0,0.0,-61.1842488,1.97653192
RIT,173,3,2024-06-27T06:57:09.625Z,english_507.wav,0,peel,505,18,5,Japanese,f,1,0.1,-67.40048172,1.52355847
RIT,173,3,2024-06-27T06:57:09.625Z,english_507.wav,0,peel,505,18,5,Japanese,f,2,0.2,12.41471853,0.98006415
RIT,173,3,2024-06-27T06:57:09.625Z,english_507.wav,0,peel,505,18,5,Japanese,f,3,0.3,-23.82579329,0.44372312
RIT,173,3,2024-06-27T06:57:09.625Z,english_507.wav,0,peel,505,18,5,Japanese,f,4,0.32341667,9.53005369,0.65281453
RIT,174,3,2024-06-27T06:57:09.625Z,english_422.wav,0,peel,1371,18,5,Japanese,f,0,0.0,-79.81150205,1.34332733
RIT,174,3,2024-06-27T06:57:09.625Z,english_422.wav,0,peel,1371,18,5,Japanese,f,1,0.1,-2.02836706,0.77514932
RIT,174,3,2024-06-27T06:57:09.625Z,english_422.wav,0,peel,1371,18,5,Japanese,f,2,0.2,-11.18998235,0.33214039
RIT,174,3,2024-06-27T06:57:09.625Z,english_422.wav,0,peel,1371,18,5,Japanese,f,3,0.3,52.04958687,0.53493982
RIT,174,3,2024-06-27T06:57:09.625Z,english_422.wav,0,peel,1371,18,5,Japanese,f,4,0.32341667,-63.48776447,0.45685022
RIT,175,3,2024-06-27T06:57:09.625Z,english_730.wav,0,pill,861,18,5,Japanese,f,0,0.0,12.15035978,0.91227818
RIT,175,3,2024-06-27T06:57:09.625Z,english_730.wav,0,pill,861,18,5,Japanese,f,1,0.1,-56.22765555,1.17022701
RIT,175,3,2024-06-27T06:57:09.625Z,english_730.wav,0,pill,861,18,5,Japanese,f,2,0.2,-53.26534685,0.58034143
RIT,175,3,2024-06-27T06:57:09.625Z,english_730.wav,0,pill,861,18,5,Japanese,f,3,0.3,-25.75230742,1.9562998
RIT,175,3,2024-06-27T06:57:09.625Z,english_730.wav,0,pill,861,18,5,Japanese,f,4,0.32341667,-73.04726616,1.99538846
RIT,176,3,2024-06-27T06:57:09.625Z,english_88.wav,0,pill,4459,18,5,Japanese,f,0,0.0,26.55889683,1.3027014
RIT,176,3,2024-06-27T06:57:09.625Z,english_88.wav,0,pill,4459,18,5,Japanese,f,1,0.1,31.00356365,0.67122251
RIT,176,3,2024-06-27T06:57:09.625Z,english_88.wav,0,pill,4459,18,5,Japanese,f,2,0.2,-60.56468942,0.59704477
RIT,176,3,2024-06-27T06:57:09.625Z,english_88.wav,0,pill,4459,18,5,Japanese,f,3,0.3,-56.53017227,1.68194373
RIT,176,3,2024-06-27T06:57:09.625Z,english_88.wav,0,pill,4459,18,5,Japanese,f,4,0.32341667,-78.90279024,0.42277005
RIT,177,3,2024-06-27T06:57:09.625Z,english_718.wav,0,pill,689,18,5,Japanese,f,0,0.0,-62.54470118,0.40124114
RIT,177,3,2024-06-27T06:57:09.625Z,english_718.wav,0,pill,689,18,5,Japanese,f,1,0.1,-40.70811043,0.49945062
RIT,177,3,2024-06-27T06:57:09.625Z,english_718.wav,0,pill,689,18,5,Japanese,f,2,0.2,-11.25435391,1.54880463
RIT,177,3,2024-06-27T06:57:09.625Z,english_718.wav,0,pill,689,18,5,Japanese,f,3,0.3,-68.52161814,0.39118497
RIT,177,3,2024-06-27T06:57:09.625Z,english_718.wav,0,pill,689,18,5,Japanese,f,4,0.32341667,-77.89834334,0.07447668
RIT,178,3,2024-06-27T06:57:09.625Z,english_345.wav,0,pill,1547,18,5,Japanese,f,0,0.0,-46.00579497,1.58751342
RIT,178,3,2024-06-27T06:57:09.625Z,english_345.wav,0,pill,1547,18,5,Japanese,f,1,0.1,-45.5805492,1.0202646
RIT,178,3,2024-06-27T06:57:09.625Z,english_345.wav,0,pill,1547,18,5,Japanese,f,2,0.2,-14.04378539,0.61561299
RIT,178,3,2024-06-27T06:57:09.625Z,english_345.wav,0,pill,1547,18,5,Japanese,f,3,0.3,63.72413351,1.21547564
RIT,178,3,2024-06-27T06:57:09.625Z,english_345.wav,0,pill,1547,18,5,Japanese,f,4,0.32341667,18.03717792,1.47127253
RIT,179,3,2024-06-27T06:57:09.625Z,english_467.wav,0,pill,852,18,5,Japanese,f,0,0.0,-0.54983343,1.824027
RIT,179,3,2024-06-27T06:57:09.625Z,english_467.wav,0,pill,852,18,5,Japanese,f,1,0.1,-84.54516502,1.06295632
RIT,179,3,2024-06-27T06:57:09.625Z,english_467.wav,0,pill,852,18,5,Japanese,f,2,0.2,54.30123894,1.09976952
RIT,179,3,2024-06-27T06:57:09.625Z,english_467.wav,0,pill,852,18,5,Japanese,f,3,0.3,-82.00368026,1.11766566
RIT,179,3,2024-06-27T06:57:09.625Z,english_467.wav,0,pill,852,18,5,Japanese,f,4,0.32341667,-54.10816942,0.44824559
RIT,180,3,2024-06-27T06:57:09.625Z,english_403.wav,0,pill,643,18,5,Japanese,f,0,0.0,-92.65414009,1.93574734
RIT,180,3,2024-06-27T06:57:09.625Z,english_403.wav,0,pill,643,18,5,Japanese,f,1,0.1,75.99659731,0.36447309
RIT,180,3,2024-06-27T06:57:09.625Z,english_403.wav,0,pill,643,18,5,Japanese,f,2,0.2,-27.37801557,1.02888701
RIT,180,3,2024-06-27T06:57:09.625Z,english_403.wav,0,pill,643,18,5,Japanese,f,3,0.3,-80.04540334,0.02385722
RIT,180,3,2024-06-27T06:57:09.625Z,english_403.wav,0,pill,643,18,5,Japanese,f,4,0.32341667,30.50648557,1.40553938
RIT,181,3,2024-06-27T06:57:09.625Z,english_655.wav,0,pill,717,18,5,Japanese,f,0,0.0,84.9811401,1.09123398
RIT,181,3,2024-06-27T06:57:09.625Z,english_655.wav,0,pill,717,18,5,Japanese,f,1,0.1,70.1996811,0.51840547
RIT,181,3,2024-06-27T06:57:09.625Z,english_655.wav,0,pill,717,18,5,Japanese,f,2,0.2,-5.60681941,0.58569322
RIT,181,3,2024-06-27T06:57:09.625Z,english_655.wav,0,pill,717,18,5,Japanese,f,3,0.3,-33.00324328,1.11132849
RIT,181,3,2024-06-27T06:57:09.625Z,english_655.wav,0,pill,717,18,5,Japanese,f,4,0.32341667,24.65490624,0.28465301
RIT,182,3,2024-06-27T06:57:09.625Z,english_284.wav,0,pill,744,18,5,Japanese,f,0,0.0,-77.15161711,0.74585549
RIT,182,3,2024-06-27T06:57:09.625Z,english_284.wav,0,pill,744,18,5,Japanese,f,1,0.1,80.53955212,0.017077
RIT,182,3,2024-06-27T06:57:09.625Z,english_284.wav,0,pill,744,18,5,Japanese,f,2,0.2,-73.74967403,0.284322
RIT,182,3,2024-06-27T06:57:09.625Z,english_284.wav,0,pill,744,18,5,Japanese,f,3,0.3,-47.67008962,1.04459593
RIT,182,3,2024-06-27T06:57:09.625Z,english_284.wav,0,pill,744,18,5,Japanese,f,4,0.32341667,40.40758666,0.8536958
RIT,183,3,2024-06-27T06:57:09.625Z,english_157.wav,0,pill,303,18,5,Japanese,f,0,0.0,-74.01864956,1.10168906
RIT,183,3,2024-06-27T06:57:09.625Z,english_157.wav,0,pill,303,18,5,Japanese,f,1,0.1,1.44529667,1.71225259
RIT,183,3,2024-06-27T06:57:09.625Z,english_157.wav,0,pill,303,18,5,Japanese,f,2,0.2,-42.76251303,1.71884561
RIT,183,3,2024-06-27T06:57:09.625Z,english_157.wav,0,pill,303,18,5,Japanese,f,3,0.3,-49.01483239,1.47822148
RIT,183,3,2024-06-27T06:57:09.625Z,english_157.wav,0,pill,303,18,5,Japanese,f,4,0.32341667,-96.85595697,1.36273156
RIT,184,3,2024-06-27T06:57:09.625Z,english_725.wav,0,pill,634,18,5,Japanese,f,0,0.0,26.80600371,0.25466557
