subj,trial,block,date,stim,stim_order,response,rt,param_index,segment,pitch,stretch
RIY,0,0,2024-06-30T12:40:55.171Z,english_759.wav,0,pill,4607,0,0.0,22.56482953,0.32974928
RIY,0,0,2024-06-30T12:40:55.171Z,english_759.wav,0,pill,4607,1,0.1,-26.57515882,0.74944663
RIY,0,0,2024-06-30T12:40:55.171Z,english_759.wav,0,pill,4607,2,0.2,58.52096087,0.73148935
RIY,0,0,2024-06-30T12:40:55.171Z,english_759.wav,0,pill,4607,3,0.3,67.88336338,0.69769471
RIY,0,0,2024-06-30T12:40:55.171Z,english_759.wav,0,pill,4607,4,0.32341667,-98.7178367,1.46371733
RIY,1,0,2024-06-30T12:40:55.171Z,english_617.wav,0,pill,1541,0,0.0,-99.94195333,1.17597353
RIY,1,0,2024-06-30T12:40:55.171Z,english_617.wav,0,pill,1541,1,0.1,-27.54289523,0.72595777
RIY,1,0,2024-06-30T12:40:55.171Z,english_617.wav,0,pill,1541,2,0.2,-31.48016085,0.94648609
RIY,1,0,2024-06-30T12:40:55.171Z,english_617.wav,0,pill,1541,3,0.3,-72.28967102,1.67485207
RIY,1,0,2024-06-30T12:40:55.171Z,english_617.wav,0,pill,1541,4,0.32341667,-18.83127656,0.94146903
RIY,2,0,2024-06-30T12:40:55.171Z,english_911.wav,0,pill,3912,0,0.0,62.6913709,0.89860539
RIY,2,0,2024-06-30T12:40:55.171Z,english_911.wav,0,pill,3912,1,0.1,-28.7089255,0.06791792
RIY,2,0,2024-06-30T12:40:55.171Z,english_911.wav,0,pill,3912,2,0.2,-71.03383871,1.00076401
RIY,2,0,2024-06-30T12:40:55.171Z,english_911.wav,0,pill,3912,3,0.3,93.02773855,1.24961505
RIY,2,0,2024-06-30T12:40:55.171Z,english_911.wav,0,pill,3912,4,0.32341667,93.73973981,1.26639778
RIY,3,0,2024-06-30T12:40:55.171Z,english_416.wav,0,peel,5538,0,0.0,26.92040942,0.66708871
RIY,3,0,2024-06-30T12:40:55.171Z,english_416.wav,0,peel,5538,1,0.1,32.98463782,0.46140785
RIY,3,0,2024-06-30T12:40:55.171Z,english_416.wav,0,peel,5538,2,0.2,94.30298269,0.4311344
RIY,3,0,2024-06-30T12:40:55.171Z,english_416.wav,0,peel,5538,3,0.3,71.4008894,0.4522554
RIY,3,0,2024-06-30T12:40:55.171Z,english_416.wav,0,peel,5538,4,0.32341667,-13.61584313,0.23817019
RIY,4,0,2024-06-30T12:40:55.171Z,english_328.wav,0,peel,3831,0,0.0,-24.96515822,0.68772771
RIY,4,0,2024-06-30T12:40:55.171Z,english_328.wav,0,peel,3831,1,0.1,36.64267249,0.30369637
RIY,4,0,2024-06-30T12:40:55.171Z,english_328.wav,0,peel,3831,2,0.2,-93.60804347,1.16330199
RIY,4,0,2024-06-30T12:40:55.171Z,english_328.wav,0,peel,3831,3,0.3,9.86556644,0.69001341
RIY,4,0,2024-06-30T12:40:55.171Z,english_328.wav,0,peel,3831,4,0.32341667,-17.13685423,0.54642887
RIY,5,0,2024-06-30T12:40:55.171Z,english_752.wav,0,peel,629,0,0.0,-89.50526135,1.26833375
RIY,5,0,2024-06-30T12:40:55.171Z,english_752.wav,0,peel,629,1,0.1,16.42916277,1.25445964
RIY,5,0,2024-06-30T12:40:55.171Z,english_752.wav,0,peel,629,2,0.2,-62.11724863,1.84048801
RIY,5,0,2024-06-30T12:40:55.171Z,english_752.wav,0,peel,629,3,0.3,-22.7839786,0.96813738
RIY,5,0,2024-06-30T12:40:55.171Z,english_752.wav,0,peel,629,4,0.32341667,21.77934146,1.95604557
RIY,6,0,2024-06-30T12:40:55.171Z,english_870.wav,0,peel,1399,0,0.0,-85.66751388,1.70746054
RIY,6,0,2024-06-30T12:40:55.171Z,english_870.wav,0,peel,1399,1,0.1,30.55194498,0.68953906
RIY,6,0,2024-06-30T12:40:55.171Z,english_870.wav,0,peel,1399,2,0.2,-98.28008273,1.62274852
RIY,6,0,2024-06-30T12:40:55.171Z,english_870.wav,0,peel,1399,3,0.3,-58.1418371,0.74531017
RIY,6,0,2024-06-30T12:40:55.171Z,english_870.wav,0,peel,1399,4,0.32341667,81.20200135,1.06596266
RIY,7,0,2024-06-30T12:40:55.171Z,english_914.wav,0,peel,502,0,0.0,37.51857345,0.04486829
RIY,7,0,2024-06-30T12:40:55.171Z,english_914.wav,0,peel,502,1,0.1,-30.53068311,1.18486584
RIY,7,0,2024-06-30T12:40:55.171Z,english_914.wav,0,peel,502,2,0.2,-12.980452,1.58356311
RIY,7,0,2024-06-30T12:40:55.171Z,english_914.wav,0,peel,502,3,0.3,-99.09260462,1.35478251
RIY,7,0,2024-06-30T12:40:55.171Z,english_914.wav,0,peel,502,4,0.32341667,-34.91402533,1.16671671
RIY,8,0,2024-06-30T12:40:55.171Z,english_216.wav,0,peel,407,0,0.0,-62.2888105,1.07577895
RIY,8,0,2024-06-30T12:40:55.171Z,english_216.wav,0,peel,407,1,0.1,-52.19325919,1.07125686
RIY,8,0,2024-06-30T12:40:55.171Z,english_216.wav,0,peel,407,2,0.2,-77.81566322,1.51342084
RIY,8,0,2024-06-30T12:40:55.171Z,english_216.wav,0,peel,407,3,0.3,73.5246301,1.37714716
RIY,8,0,2024-06-30T12:40:55.171Z,english_216.wav,0,peel,407,4,0.32341667,73.4409389,1.55456291
RIY,9,0,2024-06-30T12:40:55.171Z,english_838.wav,0,peel,685,0,0.0,-46.43239877,0.57293762
RIY,9,0,2024-06-30T12:40:55.171Z,english_838.wav,0,peel,685,1,0.1,-0.77549132,1.65450135
RIY,9,0,2024-06-30T12:40:55.171Z,english_838.wav,0,peel,685,2,0.2,-47.56158581,0.30574951
RIY,9,0,2024-06-30T12:40:55.171Z,english_838.wav,0,peel,685,3,0.3,7.18116474,0.96315644
RIY,9,0,2024-06-30T12:40:55.171Z,english_838.wav,0,peel,685,4,0.32341667,-87.38880816,0.83017899
RIY,10,0,2024-06-30T12:40:55.171Z,english_376.wav,0,peel,990,0,0.0,-10.66231765,0.83936518
RIY,10,0,2024-06-30T12:40:55.171Z,english_376.wav,0,peel,990,1,0.1,-53.95799634,1.7265478
RIY,10,0,2024-06-30T12:40:55.171Z,english_376.wav,0,peel,990,2,0.2,-44.60014177,0.44309389
RIY,10,0,2024-06-30T12:40:55.171Z,english_376.wav,0,peel,990,3,0.3,-84.32777745,1.91772458
RIY,10,0,2024-06-30T12:40:55.171Z,english_376.wav,0,peel,990,4,0.32341667,-2.76179289,0.76255227
RIY,11,0,2024-06-30T12:40:55.171Z,english_256.wav,0,peel,2553,0,0.0,22.60769813,1.84037168
RIY,11,0,2024-06-30T12:40:55.171Z,english_256.wav,0,peel,2553,1,0.1,-95.01444593,0.47687766
RIY,11,0,2024-06-30T12:40:55.171Z,english_256.wav,0,peel,2553,2,0.2,-19.91310746,0.85339151
RIY,11,0,2024-06-30T12:40:55.171Z,english_256.wav,0,peel,2553,3,0.3,-6.39209363,0.75097161
RIY,11,0,2024-06-30T12:40:55.171Z,english_256.wav,0,peel,2553,4,0.32341667,24.02209282,1.98695073
RIY,12,0,2024-06-30T12:40:55.171Z,english_648.wav,0,peel,747,0,0.0,-36.17742204,0.57576188
RIY,12,0,2024-06-30T12:40:55.171Z,english_648.wav,0,peel,747,1,0.1,30.10697278,1.1310908
RIY,12,0,2024-06-30T12:40:55.171Z,english_648.wav,0,peel,747,2,0.2,-67.31320052,1.67112441
RIY,12,0,2024-06-30T12:40:55.171Z,english_648.wav,0,peel,747,3,0.3,-10.94597212,0.39641968
RIY,12,0,2024-06-30T12:40:55.171Z,english_648.wav,0,peel,747,4,0.32341667,72.59648235,1.93789316
RIY,13,0,2024-06-30T12:40:55.171Z,english_63.wav,0,peel,410,0,0.0,-99.27532027,1.55063038
RIY,13,0,2024-06-30T12:40:55.171Z,english_63.wav,0,peel,410,1,0.1,76.75365344,0.78453917
RIY,13,0,2024-06-30T12:40:55.171Z,english_63.wav,0,peel,410,2,0.2,-4.19867406,1.54061689
RIY,13,0,2024-06-30T12:40:55.171Z,english_63.wav,0,peel,410,3,0.3,58.21469339,0.9417581
RIY,13,0,2024-06-30T12:40:55.171Z,english_63.wav,0,peel,410,4,0.32341667,-76.25580242,1.07689855
RIY,14,0,2024-06-30T12:40:55.171Z,english_346.wav,0,peel,3651,0,0.0,29.51078372,1.24489428
RIY,14,0,2024-06-30T12:40:55.171Z,english_346.wav,0,peel,3651,1,0.1,86.25753287,1.77356048
RIY,14,0,2024-06-30T12:40:55.171Z,english_346.wav,0,peel,3651,2,0.2,95.6553577,1.30862901
RIY,14,0,2024-06-30T12:40:55.171Z,english_346.wav,0,peel,3651,3,0.3,-65.97707071,0.68318311
RIY,14,0,2024-06-30T12:40:55.171Z,english_346.wav,0,peel,3651,4,0.32341667,49.79896228,1.63073528
RIY,15,0,2024-06-30T12:40:55.171Z,english_954.wav,0,peel,1102,0,0.0,-31.7323473,1.78985335
RIY,15,0,2024-06-30T12:40:55.171Z,english_954.wav,0,peel,1102,1,0.1,26.42807939,1.38754521
RIY,15,0,2024-06-30T12:40:55.171Z,english_954.wav,0,peel,1102,2,0.2,22.25968883,1.54917493
RIY,15,0,2024-06-30T12:40:55.171Z,english_954.wav,0,peel,1102,3,0.3,-25.30270181,1.54718362
RIY,15,0,2024-06-30T12:40:55.171Z,english_954.wav,0,peel,1102,4,0.32341667,46.97185243,0.09638929
RIY,16,0,2024-06-30T12:40:55.171Z,english_94.wav,0,pill,4299,0,0.0,-78.50776969,1.58967719
RIY,16,0,2024-06-30T12:40:55.171Z,english_94.wav,0,pill,4299,1,0.1,21.81048112,0.88841047
RIY,16,0,2024-06-30T12:40:55.171Z,english_94.wav,0,pill,4299,2,0.2,76.78230264,1.12549424
RIY,16,0,2024-06-30T12:40:55.171Z,english_94.wav,0,pill,4299,3,0.3,-35.62145712,1.80621507
RIY,16,0,2024-06-30T12:40:55.171Z,english_94.wav,0,pill,4299,4,0.32341667,-71.39427505,1.00879957
RIY,17,0,2024-06-30T12:40:55.171Z,english_263.wav,0,pill,1071,0,0.0,4.78285782,1.6410762
RIY,17,0,2024-06-30T12:40:55.171Z,english_263.wav,0,pill,1071,1,0.1,13.60270601,0.7602565
RIY,17,0,2024-06-30T12:40:55.171Z,english_263.wav,0,pill,1071,2,0.2,39.50896912,0.2694778
RIY,17,0,2024-06-30T12:40:55.171Z,english_263.wav,0,pill,1071,3,0.3,22.44107494,1.51649535
RIY,17,0,2024-06-30T12:40:55.171Z,english_263.wav,0,pill,1071,4,0.32341667,-36.00172497,0.60574629
RIY,18,0,2024-06-30T12:40:55.171Z,english_293.wav,0,pill,1410,0,0.0,-22.15906653,1.76366583
RIY,18,0,2024-06-30T12:40:55.171Z,english_293.wav,0,pill,1410,1,0.1,-88.62057809,0.55660069
RIY,18,0,2024-06-30T12:40:55.171Z,english_293.wav,0,pill,1410,2,0.2,-18.47979893,1.17282558
RIY,18,0,2024-06-30T12:40:55.171Z,english_293.wav,0,pill,1410,3,0.3,-74.2852497,0.49477424
RIY,18,0,2024-06-30T12:40:55.171Z,english_293.wav,0,pill,1410,4,0.32341667,59.45323022,0.66659794
RIY,19,0,2024-06-30T12:40:55.171Z,english_58.wav,0,peel,404,0,0.0,20.12478601,1.19415515
RIY,19,0,2024-06-30T12:40:55.171Z,english_58.wav,0,peel,404,1,0.1,-22.60038942,0.26098942
RIY,19,0,2024-06-30T12:40:55.171Z,english_58.wav,0,peel,404,2,0.2,34.38627512,1.99195241
RIY,19,0,2024-06-30T12:40:55.171Z,english_58.wav,0,peel,404,3,0.3,30.90369434,0.42925074
RIY,19,0,2024-06-30T12:40:55.171Z,english_58.wav,0,peel,404,4,0.32341667,11.39971337,0.50368767
RIY,20,0,2024-06-30T12:40:55.171Z,english_96.wav,0,pill,1091,0,0.0,-2.60251168,1.33849038
RIY,20,0,2024-06-30T12:40:55.171Z,english_96.wav,0,pill,1091,1,0.1,3.1808695,1.03790095
RIY,20,0,2024-06-30T12:40:55.171Z,english_96.wav,0,pill,1091,2,0.2,-93.89625608,0.32730996
RIY,20,0,2024-06-30T12:40:55.171Z,english_96.wav,0,pill,1091,3,0.3,22.03695444,1.15118519
RIY,20,0,2024-06-30T12:40:55.171Z,english_96.wav,0,pill,1091,4,0.32341667,89.13776591,1.37996061
RIY,21,0,2024-06-30T12:40:55.171Z,english_6.wav,0,peel,356,0,0.0,-8.2116192,1.24832701
RIY,21,0,2024-06-30T12:40:55.171Z,english_6.wav,0,peel,356,1,0.1,-28.50933877,0.74984456
RIY,21,0,2024-06-30T12:40:55.171Z,english_6.wav,0,peel,356,2,0.2,-90.20174912,1.37568362
RIY,21,0,2024-06-30T12:40:55.171Z,english_6.wav,0,peel,356,3,0.3,-7.18062469,0.47637706
RIY,21,0,2024-06-30T12:40:55.171Z,english_6.wav,0,peel,356,4,0.32341667,-36.83558467,0.68255954
RIY,22,0,2024-06-30T12:40:55.171Z,english_637.wav,0,peel,314,0,0.0,-1.71458324,1.21739028
RIY,22,0,2024-06-30T12:40:55.171Z,english_637.wav,0,peel,314,1,0.1,-8.03758275,0.51882016
RIY,22,0,2024-06-30T12:40:55.171Z,english_637.wav,0,peel,314,2,0.2,-8.49550443,1.63519413
RIY,22,0,2024-06-30T12:40:55.171Z,english_637.wav,0,peel,314,3,0.3,-8.27727969,1.34863813
RIY,22,0,2024-06-30T12:40:55.171Z,english_637.wav,0,peel,314,4,0.32341667,64.42471467,1.93003029
RIY,23,0,2024-06-30T12:40:55.171Z,english_530.wav,0,peel,310,0,0.0,21.55057906,0.25130805
RIY,23,0,2024-06-30T12:40:55.171Z,english_530.wav,0,peel,310,1,0.1,-20.17265513,0.96020899
RIY,23,0,2024-06-30T12:40:55.171Z,english_530.wav,0,peel,310,2,0.2,-52.07974762,1.55252741
RIY,23,0,2024-06-30T12:40:55.171Z,english_530.wav,0,peel,310,3,0.3,87.36384387,1.19622655
RIY,23,0,2024-06-30T12:40:55.171Z,english_530.wav,0,peel,310,4,0.32341667,-72.92256984,0.75880724
RIY,24,0,2024-06-30T12:40:55.171Z,english_88.wav,0,peel,911,0,0.0,26.55889683,1.3027014
RIY,24,0,2024-06-30T12:40:55.171Z,english_88.wav,0,peel,911,1,0.1,31.00356365,0.67122251
RIY,24,0,2024-06-30T12:40:55.171Z,english_88.wav,0,peel,911,2,0.2,-60.56468942,0.59704477
RIY,24,0,2024-06-30T12:40:55.171Z,english_88.wav,0,peel,911,3,0.3,-56.53017227,1.68194373
RIY,24,0,2024-06-30T12:40:55.171Z,english_88.wav,0,peel,911,4,0.32341667,-78.90279024,0.42277005
RIY,25,0,2024-06-30T12:40:55.171Z,english_113.wav,0,peel,421,0,0.0,8.7952765,0.51001639
RIY,25,0,2024-06-30T12:40:55.171Z,english_113.wav,0,peel,421,1,0.1,91.94692023,1.45766025
RIY,25,0,2024-06-30T12:40:55.171Z,english_113.wav,0,peel,421,2,0.2,-6.68088057,1.25674442
RIY,25,0,2024-06-30T12:40:55.171Z,english_113.wav,0,peel,421,3,0.3,38.28142065,1.93213547
RIY,25,0,2024-06-30T12:40:55.171Z,english_113.wav,0,peel,421,4,0.32341667,-37.19939988,0.45590133
RIY,26,0,2024-06-30T12:40:55.171Z,english_921.wav,0,peel,354,0,0.0,60.93482672,0.06624465
RIY,26,0,2024-06-30T12:40:55.171Z,english_921.wav,0,peel,354,1,0.1,-71.63665921,1.88925143
RIY,26,0,2024-06-30T12:40:55.171Z,english_921.wav,0,peel,354,2,0.2,-30.77028929,0.40013084
RIY,26,0,2024-06-30T12:40:55.171Z,english_921.wav,0,peel,354,3,0.3,-44.68164597,1.26601564
RIY,26,0,2024-06-30T12:40:55.171Z,english_921.wav,0,peel,354,4,0.32341667,34.59415858,1.98956357
RIY,27,0,2024-06-30T12:40:55.171Z,english_556.wav,0,peel,186,0,0.0,35.62658416,1.88481821
RIY,27,0,2024-06-30T12:40:55.171Z,english_556.wav,0,peel,186,1,0.1,28.75181601,0.4023528
RIY,27,0,2024-06-30T12:40:55.171Z,english_556.wav,0,peel,186,2,0.2,-2.62389444,1.49364055
RIY,27,0,2024-06-30T12:40:55.171Z,english_556.wav,0,peel,186,3,0.3,64.03572584,1.54190039
RIY,27,0,2024-06-30T12:40:55.171Z,english_556.wav,0,peel,186,4,0.32341667,72.79696002,0.53435232
RIY,28,0,2024-06-30T12:40:55.171Z,english_338.wav,0,peel,225,0,0.0,-22.40965878,1.93572195
RIY,28,0,2024-06-30T12:40:55.171Z,english_338.wav,0,peel,225,1,0.1,-10.16153496,1.78994992
RIY,28,0,2024-06-30T12:40:55.171Z,english_338.wav,0,peel,225,2,0.2,-50.2449588,1.38134059
RIY,28,0,2024-06-30T12:40:55.171Z,english_338.wav,0,peel,225,3,0.3,14.05674122,1.78462007
RIY,28,0,2024-06-30T12:40:55.171Z,english_338.wav,0,peel,225,4,0.32341667,-78.35339858,1.2607094
RIY,29,0,2024-06-30T12:40:55.171Z,english_279.wav,0,peel,431,0,0.0,-20.90398108,0.60114424
RIY,29,0,2024-06-30T12:40:55.171Z,english_279.wav,0,peel,431,1,0.1,98.83098338,0.92336304
RIY,29,0,2024-06-30T12:40:55.171Z,english_279.wav,0,peel,431,2,0.2,-95.37608427,1.39045705
RIY,29,0,2024-06-30T12:40:55.171Z,english_279.wav,0,peel,431,3,0.3,-52.65380993,0.64938935
RIY,29,0,2024-06-30T12:40:55.171Z,english_279.wav,0,peel,431,4,0.32341667,47.72500112,1.57478054
RIY,30,0,2024-06-30T12:40:55.171Z,english_18.wav,0,peel,1474,0,0.0,-61.9567004,0.0,0.45038722
RIY,30,0,2024-06-30T12:40:55.171Z,english_18.wav,0,peel,1474,1,0.1,39.2027204,0.1,1.56185221
RIY,30,0,2024-06-30T12:40:55.171Z,english_18.wav,0,peel,1474,2,0.2,-0.0626834214,0.2,0.80652275
RIY,30,0,2024-06-30T12:40:55.171Z,english_18.wav,0,peel,1474,3,0.3,-72.2820301,0.3,0.39505163
RIY,30,0,2024-06-30T12:40:55.171Z,english_18.wav,0,peel,1474,4,0.323416667,-52.9459242,0.32341667,0.50402069
RIY,31,0,2024-06-30T12:40:55.171Z,english_853.wav,0,peel,2215,0,0.0,87.83319324,0.81037323
RIY,31,0,2024-06-30T12:40:55.171Z,english_853.wav,0,peel,2215,1,0.1,64.16710312,1.2495933
RIY,31,0,2024-06-30T12:40:55.171Z,english_853.wav,0,peel,2215,2,0.2,12.98667351,0.22916278
RIY,31,0,2024-06-30T12:40:55.171Z,english_853.wav,0,peel,2215,3,0.3,25.03434444,0.67764146
RIY,31,0,2024-06-30T12:40:55.171Z,english_853.wav,0,peel,2215,4,0.32341667,98.3458188,0.13807639
RIY,32,0,2024-06-30T12:40:55.171Z,english_997.wav,0,peel,1769,0,0.0,93.4252615,0.4603395
RIY,32,0,2024-06-30T12:40:55.171Z,english_997.wav,0,peel,1769,1,0.1,62.16088314,0.21654412
RIY,32,0,2024-06-30T12:40:55.171Z,english_997.wav,0,peel,1769,2,0.2,-26.38638022,1.36234896
RIY,32,0,2024-06-30T12:40:55.171Z,english_997.wav,0,peel,1769,3,0.3,89.15363163,1.07462804
RIY,32,0,2024-06-30T12:40:55.171Z,english_997.wav,0,peel,1769,4,0.32341667,-25.83137337,0.84007196
RIY,33,0,2024-06-30T12:40:55.171Z,english_664.wav,0,peel,3028,0,0.0,-76.94516773,1.88823832
RIY,33,0,2024-06-30T12:40:55.171Z,english_664.wav,0,peel,3028,1,0.1,-6.4858311,1.41396893
RIY,33,0,2024-06-30T12:40:55.171Z,english_664.wav,0,peel,3028,2,0.2,46.60528691,0.11773869
RIY,33,0,2024-06-30T12:40:55.171Z,english_664.wav,0,peel,3028,3,0.3,9.48323043,1.80376032
RIY,33,0,2024-06-30T12:40:55.171Z,english_664.wav,0,peel,3028,4,0.32341667,89.85696022,1.43209877
RIY,34,0,2024-06-30T12:40:55.171Z,english_175.wav,0,pill,2424,0,0.0,-88.83902874,0.00773228
RIY,34,0,2024-06-30T12:40:55.171Z,english_175.wav,0,pill,2424,1,0.1,8.60564456,1.6431495
RIY,34,0,2024-06-30T12:40:55.171Z,english_175.wav,0,pill,2424,2,0.2,7.189218,0.24882977
RIY,34,0,2024-06-30T12:40:55.171Z,english_175.wav,0,pill,2424,3,0.3,-2.31675389,1.20663028
RIY,34,0,2024-06-30T12:40:55.171Z,english_175.wav,0,pill,2424,4,0.32341667,-21.56803319,0.57172188
RIY,35,0,2024-06-30T12:40:55.171Z,english_573.wav,0,peel,383,0,0.0,-46.41950257,0.98293374
RIY,35,0,2024-06-30T12:40:55.171Z,english_573.wav,0,peel,383,1,0.1,-92.58424164,0.99885906
RIY,35,0,2024-06-30T12:40:55.171Z,english_573.wav,0,peel,383,2,0.2,21.8123883,0.65769494
RIY,35,0,2024-06-30T12:40:55.171Z,english_573.wav,0,peel,383,3,0.3,16.48756951,0.46238493
RIY,35,0,2024-06-30T12:40:55.171Z,english_573.wav,0,peel,383,4,0.32341667,-54.36863361,0.72259175
RIY,36,0,2024-06-30T12:40:55.171Z,english_970.wav,0,peel,770,0,0.0,37.22911191,0.60712849
RIY,36,0,2024-06-30T12:40:55.171Z,english_970.wav,0,peel,770,1,0.1,36.57191813,1.26781741
RIY,36,0,2024-06-30T12:40:55.171Z,english_970.wav,0,peel,770,2,0.2,20.2344678,1.29373459
RIY,36,0,2024-06-30T12:40:55.171Z,english_970.wav,0,peel,770,3,0.3,-86.31030026,0.18112256
RIY,36,0,2024-06-30T12:40:55.171Z,english_970.wav,0,peel,770,4,0.32341667,-83.96880691,1.07780169
RIY,37,0,2024-06-30T12:40:55.171Z,english_397.wav,0,pill,1183,0,0.0,89.67962381,0.42719638
RIY,37,0,2024-06-30T12:40:55.171Z,english_397.wav,0,pill,1183,1,0.1,-80.29722345,0.89466904
RIY,37,0,2024-06-30T12:40:55.171Z,english_397.wav,0,pill,1183,2,0.2,60.53564011,0.56174568
RIY,37,0,2024-06-30T12:40:55.171Z,english_397.wav,0,pill,1183,3,0.3,9.94565725,0.1553242
RIY,37,0,2024-06-30T12:40:55.171Z,english_397.wav,0,pill,1183,4,0.32341667,0.1319882,1.89079641
RIY,38,0,2024-06-30T12:40:55.171Z,english_675.wav,0,peel,450,0,0.0,-31.75128323,1.35198954
RIY,38,0,2024-06-30T12:40:55.171Z,english_675.wav,0,peel,450,1,0.1,60.52679753,1.32787853
RIY,38,0,2024-06-30T12:40:55.171Z,english_675.wav,0,peel,450,2,0.2,-22.8835824,1.57632911
RIY,38,0,2024-06-30T12:40:55.171Z,english_675.wav,0,peel,450,3,0.3,-6.32596177,0.80140737
RIY,38,0,2024-06-30T12:40:55.171Z,english_675.wav,0,peel,450,4,0.32341667,-61.06491024,0.99818917
RIY,39,0,2024-06-30T12:40:55.171Z,english_111.wav,0,pill,1252,0,0.0,43.12539807,1.84745579
RIY,39,0,2024-06-30T12:40:55.171Z,english_111.wav,0,pill,1252,1,0.1,63.99665526,0.92577031
RIY,39,0,2024-06-30T12:40:55.171Z,english_111.wav,0,pill,1252,2,0.2,86.04570556,0.31264784
RIY,39,0,2024-06-30T12:40:55.171Z,english_111.wav,0,pill,1252,3,0.3,-25.76798659,0.89352032
RIY,39,0,2024-06-30T12:40:55.171Z,english_111.wav,0,pill,1252,4,0.32341667,-36.14422463,0.32138535
RIY,40,0,2024-06-30T12:40:55.171Z,english_204.wav,0,peel,322,0,0.0,67.46317025,1.58701212
RIY,40,0,2024-06-30T12:40:55.171Z,english_204.wav,0,peel,322,1,0.1,38.91463365,1.82178317
RIY,40,0,2024-06-30T12:40:55.171Z,english_204.wav,0,peel,322,2,0.2,-85.28377865,1.60361911
RIY,40,0,2024-06-30T12:40:55.171Z,english_204.wav,0,peel,322,3,0.3,55.65505401,0.21823774
RIY,40,0,2024-06-30T12:40:55.171Z,english_204.wav,0,peel,322,4,0.32341667,56.32983288,0.04661671
RIY,41,0,2024-06-30T12:40:55.171Z,english_743.wav,0,pill,309,0,0.0,-28.24983145,1.42102626
RIY,41,0,2024-06-30T12:40:55.171Z,english_743.wav,0,pill,309,1,0.1,71.30498545,0.84283155
RIY,41,0,2024-06-30T12:40:55.171Z,english_743.wav,0,pill,309,2,0.2,-89.00652632,0.82757129
RIY,41,0,2024-06-30T12:40:55.171Z,english_743.wav,0,pill,309,3,0.3,3.43441779,1.38808557
RIY,41,0,2024-06-30T12:40:55.171Z,english_743.wav,0,pill,309,4,0.32341667,-16.71659348,0.28501565
RIY,42,0,2024-06-30T12:40:55.171Z,english_480.wav,0,pill,823,0,0.0,-9.10453384,0.61491247
RIY,42,0,2024-06-30T12:40:55.171Z,english_480.wav,0,pill,823,1,0.1,72.09708103,1.35502449
RIY,42,0,2024-06-30T12:40:55.171Z,english_480.wav,0,pill,823,2,0.2,-73.7181862,0.28674933
RIY,42,0,2024-06-30T12:40:55.171Z,english_480.wav,0,pill,823,3,0.3,18.73451671,0.14653082
RIY,42,0,2024-06-30T12:40:55.171Z,english_480.wav,0,pill,823,4,0.32341667,83.35837597,1.34653786
RIY,43,0,2024-06-30T12:40:55.171Z,english_347.wav,0,peel,220,0,0.0,34.89178431,1.32203506
RIY,43,0,2024-06-30T12:40:55.171Z,english_347.wav,0,peel,220,1,0.1,53.24978685,0.28714436
RIY,43,0,2024-06-30T12:40:55.171Z,english_347.wav,0,peel,220,2,0.2,4.11185022,1.66093526
RIY,43,0,2024-06-30T12:40:55.171Z,english_347.wav,0,peel,220,3,0.3,89.26663646,1.29826057
RIY,43,0,2024-06-30T12:40:55.171Z,english_347.wav,0,peel,220,4,0.32341667,-53.02646266,0.05504814
RIY,44,0,2024-06-30T12:40:55.171Z,english_947.wav,0,peel,268,0,0.0,73.13113362,0.1925557
RIY,44,0,2024-06-30T12:40:55.171Z,english_947.wav,0,peel,268,1,0.1,-55.13077299,1.89478059
RIY,44,0,2024-06-30T12:40:55.171Z,english_947.wav,0,peel,268,2,0.2,59.32217849,0.99662771
RIY,44,0,2024-06-30T12:40:55.171Z,english_947.wav,0,peel,268,3,0.3,-71.25946194,0.61263341
RIY,44,0,2024-06-30T12:40:55.171Z,english_947.wav,0,peel,268,4,0.32341667,39.2274254,0.46373334
RIY,45,0,2024-06-30T12:40:55.171Z,english_169.wav,0,peel,1453,0,0.0,21.52556644,0.24747868
RIY,45,0,2024-06-30T12:40:55.171Z,english_169.wav,0,peel,1453,1,0.1,-62.21960884,0.51530303
RIY,45,0,2024-06-30T12:40:55.171Z,english_169.wav,0,peel,1453,2,0.2,-58.58818316,1.14352058
RIY,45,0,2024-06-30T12:40:55.171Z,english_169.wav,0,peel,1453,3,0.3,14.95103608,1.46694059
RIY,45,0,2024-06-30T12:40:55.171Z,english_169.wav,0,peel,1453,4,0.32341667,21.70814087,1.67980684
RIY,46,0,2024-06-30T12:40:55.171Z,english_937.wav,0,peel,236,0,0.0,76.77394395,1.55370699
RIY,46,0,2024-06-30T12:40:55.171Z,english_937.wav,0,peel,236,1,0.1,49.33576264,1.82028848
RIY,46,0,2024-06-30T12:40:55.171Z,english_937.wav,0,peel,236,2,0.2,-87.39935237,1.42487505
RIY,46,0,2024-06-30T12:40:55.171Z,english_937.wav,0,peel,236,3,0.3,11.02170053,0.87896062
RIY,46,0,2024-06-30T12:40:55.171Z,english_937.wav,0,peel,236,4,0.32341667,91.99381322,0.96516852
RIY,47,0,2024-06-30T12:40:55.171Z,english_98.wav,0,pill,1600,0,0.0,-23.07451683,0.55932234
RIY,47,0,2024-06-30T12:40:55.171Z,english_98.wav,0,pill,1600,1,0.1,58.83766866,1.03192869
RIY,47,0,2024-06-30T12:40:55.171Z,english_98.wav,0,pill,1600,2,0.2,75.90401246,1.16154403
RIY,47,0,2024-06-30T12:40:55.171Z,english_98.wav,0,pill,1600,3,0.3,-86.31256295,0.50819795
RIY,47,0,2024-06-30T12:40:55.171Z,english_98.wav,0,pill,1600,4,0.32341667,26.17624316,1.94690859
RIY,48,0,2024-06-30T12:40:55.171Z,english_440.wav,0,peel,2394,0,0.0,44.70308901,0.0,1.51497438
RIY,48,0,2024-06-30T12:40:55.171Z,english_440.wav,0,peel,2394,1,0.1,-88.0257567,0.1,1.05972447
RIY,48,0,2024-06-30T12:40:55.171Z,english_440.wav,0,peel,2394,2,0.2,1.19893433,0.2,0.590820378
RIY,48,0,2024-06-30T12:40:55.171Z,english_440.wav,0,peel,2394,3,0.3,19.45485395,0.3,0.680586803
RIY,48,0,2024-06-30T12:40:55.171Z,english_440.wav,0,peel,2394,4,0.32341667,13.00088222,0.323416667,0.000618341324
RIY,49,0,2024-06-30T12:40:55.171Z,english_200.wav,0,peel,277,0,0.0,48.98677304,1.07797747
RIY,49,0,2024-06-30T12:40:55.171Z,english_200.wav,0,peel,277,1,0.1,13.54292536,1.23698451
RIY,49,0,2024-06-30T12:40:55.171Z,english_200.wav,0,peel,277,2,0.2,15.98335964,0.85343662
RIY,49,0,2024-06-30T12:40:55.171Z,english_200.wav,0,peel,277,3,0.3,-46.7743147,1.38707984
RIY,49,0,2024-06-30T12:40:55.171Z,english_200.wav,0,peel,277,4,0.32341667,-12.18386714,0.65409939
RIY,50,1,2024-06-30T12:46:13.551Z,english_622.wav,0,peel,1745,0,0.0,-46.49267806,1.425187
RIY,50,1,2024-06-30T12:46:13.551Z,english_622.wav,0,peel,1745,1,0.1,-80.07623079,0.61910367
RIY,50,1,2024-06-30T12:46:13.551Z,english_622.wav,0,peel,1745,2,0.2,-28.70131311,1.30297951
RIY,50,1,2024-06-30T12:46:13.551Z,english_622.wav,0,peel,1745,3,0.3,-26.89352847,1.73248838
RIY,50,1,2024-06-30T12:46:13.551Z,english_622.wav,0,peel,1745,4,0.32341667,-24.31243398,0.85523545
RIY,51,1,2024-06-30T12:46:13.551Z,english_74.wav,0,peel,1921,0,0.0,86.29588785,1.196208
RIY,51,1,2024-06-30T12:46:13.551Z,english_74.wav,0,peel,1921,1,0.1,-14.52381687,1.63208143
RIY,51,1,2024-06-30T12:46:13.551Z,english_74.wav,0,peel,1921,2,0.2,77.94321906,0.46125368
RIY,51,1,2024-06-30T12:46:13.551Z,english_74.wav,0,peel,1921,3,0.3,-32.33104188,1.38278461
RIY,51,1,2024-06-30T12:46:13.551Z,english_74.wav,0,peel,1921,4,0.32341667,9.46602754,0.83147108
RIY,52,1,2024-06-30T12:46:13.551Z,english_537.wav,0,peel,462,0,0.0,70.8709352,0.55947112
RIY,52,1,2024-06-30T12:46:13.551Z,english_537.wav,0,peel,462,1,0.1,32.34369018,1.10627241
RIY,52,1,2024-06-30T12:46:13.551Z,english_537.wav,0,peel,462,2,0.2,-92.9302278,1.10842043
RIY,52,1,2024-06-30T12:46:13.551Z,english_537.wav,0,peel,462,3,0.3,14.89115364,0.86800797
RIY,52,1,2024-06-30T12:46:13.551Z,english_537.wav,0,peel,462,4,0.32341667,-67.12260703,1.7659473
RIY,53,1,2024-06-30T12:46:13.551Z,english_938.wav,0,peel,1147,0,0.0,55.68553541,1.13527087
RIY,53,1,2024-06-30T12:46:13.551Z,english_938.wav,0,peel,1147,1,0.1,19.57508628,0.57526943
RIY,53,1,2024-06-30T12:46:13.551Z,english_938.wav,0,peel,1147,2,0.2,99.59707332,0.71873046
RIY,53,1,2024-06-30T12:46:13.551Z,english_938.wav,0,peel,1147,3,0.3,-43.3789335,0.88566698
RIY,53,1,2024-06-30T12:46:13.551Z,english_938.wav,0,peel,1147,4,0.32341667,90.00594125,0.39461425
RIY,54,1,2024-06-30T12:46:13.551Z,english_180.wav,0,pill,1014,0,0.0,-79.96502932,0.84610218
RIY,54,1,2024-06-30T12:46:13.551Z,english_180.wav,0,pill,1014,1,0.1,33.21752916,1.88919334
RIY,54,1,2024-06-30T12:46:13.551Z,english_180.wav,0,pill,1014,2,0.2,-97.52705813,0.18699196
RIY,54,1,2024-06-30T12:46:13.551Z,english_180.wav,0,pill,1014,3,0.3,42.51331828,0.0366283
RIY,54,1,2024-06-30T12:46:13.551Z,english_180.wav,0,pill,1014,4,0.32341667,-42.98571984,0.95813987
RIY,55,1,2024-06-30T12:46:13.551Z,english_800.wav,0,peel,366,0,0.0,-9.91001254,0.13142639
RIY,55,1,2024-06-30T12:46:13.551Z,english_800.wav,0,peel,366,1,0.1,-86.79409322,1.71040153
RIY,55,1,2024-06-30T12:46:13.551Z,english_800.wav,0,peel,366,2,0.2,-27.39997365,0.18637657
RIY,55,1,2024-06-30T12:46:13.551Z,english_800.wav,0,peel,366,3,0.3,13.46737707,1.09766523
RIY,55,1,2024-06-30T12:46:13.551Z,english_800.wav,0,peel,366,4,0.32341667,-32.56208711,1.57940615
RIY,56,1,2024-06-30T12:46:13.551Z,english_684.wav,0,peel,384,0,0.0,0.36394418,1.65924935
RIY,56,1,2024-06-30T12:46:13.551Z,english_684.wav,0,peel,384,1,0.1,28.47964645,1.32149406
RIY,56,1,2024-06-30T12:46:13.551Z,english_684.wav,0,peel,384,2,0.2,60.47995017,0.32417562
RIY,56,1,2024-06-30T12:46:13.551Z,english_684.wav,0,peel,384,3,0.3,-33.43266819,1.42108385
RIY,56,1,2024-06-30T12:46:13.551Z,english_684.wav,0,peel,384,4,0.32341667,-31.86672206,1.29243289
RIY,57,1,2024-06-30T12:46:13.551Z,english_535.wav,0,peel,491,0,0.0,-5.32882057,0.21055966
RIY,57,1,2024-06-30T12:46:13.551Z,english_535.wav,0,peel,491,1,0.1,-34.98045039,0.89683134
RIY,57,1,2024-06-30T12:46:13.551Z,english_535.wav,0,peel,491,2,0.2,30.10834221,1.11178172
RIY,57,1,2024-06-30T12:46:13.551Z,english_535.wav,0,peel,491,3,0.3,-70.22542568,0.20123235
RIY,57,1,2024-06-30T12:46:13.551Z,english_535.wav,0,peel,491,4,0.32341667,-73.0016054,0.99564794
RIY,58,1,2024-06-30T12:46:13.551Z,english_464.wav,0,peel,280,0,0.0,53.08614354,0.76512863
RIY,58,1,2024-06-30T12:46:13.551Z,english_464.wav,0,peel,280,1,0.1,30.21863436,1.75958979
RIY,58,1,2024-06-30T12:46:13.551Z,english_464.wav,0,peel,280,2,0.2,-72.79337117,0.91412587
RIY,58,1,2024-06-30T12:46:13.551Z,english_464.wav,0,peel,280,3,0.3,91.0452741,1.02089091
RIY,58,1,2024-06-30T12:46:13.551Z,english_464.wav,0,peel,280,4,0.32341667,-31.40181873,1.37846458
RIY,59,1,2024-06-30T12:46:13.551Z,english_895.wav,0,peel,342,0,0.0,-36.05432491,1.57991636
RIY,59,1,2024-06-30T12:46:13.551Z,english_895.wav,0,peel,342,1,0.1,0.27991529,1.29141926
RIY,59,1,2024-06-30T12:46:13.551Z,english_895.wav,0,peel,342,2,0.2,-68.50060493,0.78617821
RIY,59,1,2024-06-30T12:46:13.551Z,english_895.wav,0,peel,342,3,0.3,-65.34452755,0.53071912
RIY,59,1,2024-06-30T12:46:13.551Z,english_895.wav,0,peel,342,4,0.32341667,44.30205494,1.44568828
RIY,60,1,2024-06-30T12:46:13.551Z,english_21.wav,0,peel,399,0,0.0,-21.85116114,1.17417274
RIY,60,1,2024-06-30T12:46:13.551Z,english_21.wav,0,peel,399,1,0.1,-94.69976897,0.84289237
RIY,60,1,2024-06-30T12:46:13.551Z,english_21.wav,0,peel,399,2,0.2,59.00053046,1.58737119
RIY,60,1,2024-06-30T12:46:13.551Z,english_21.wav,0,peel,399,3,0.3,-81.44868512,0.70500889
RIY,60,1,2024-06-30T12:46:13.551Z,english_21.wav,0,peel,399,4,0.32341667,-68.72650823,1.41810016
RIY,61,1,2024-06-30T12:46:13.551Z,english_3.wav,0,peel,182,0,0.0,-57.66547148,1.73485112
RIY,61,1,2024-06-30T12:46:13.551Z,english_3.wav,0,peel,182,1,0.1,-70.60568286,1.4226462
RIY,61,1,2024-06-30T12:46:13.551Z,english_3.wav,0,peel,182,2,0.2,70.86912423,1.06235888
RIY,61,1,2024-06-30T12:46:13.551Z,english_3.wav,0,peel,182,3,0.3,-17.39285893,1.05619652
RIY,61,1,2024-06-30T12:46:13.551Z,english_3.wav,0,peel,182,4,0.32341667,-60.61780379,1.35606233
RIY,62,1,2024-06-30T12:46:13.551Z,english_694.wav,0,pill,641,0,0.0,-79.88370205,0.99496101
RIY,62,1,2024-06-30T12:46:13.551Z,english_694.wav,0,pill,641,1,0.1,-58.02841319,0.06406007
RIY,62,1,2024-06-30T12:46:13.551Z,english_694.wav,0,pill,641,2,0.2,-50.54988317,0.5055253
RIY,62,1,2024-06-30T12:46:13.551Z,english_694.wav,0,pill,641,3,0.3,-20.79864769,0.19498426
RIY,62,1,2024-06-30T12:46:13.551Z,english_694.wav,0,pill,641,4,0.32341667,-73.64916114,0.36410653
RIY,63,1,2024-06-30T12:46:13.551Z,english_330.wav,0,peel,139,0,0.0,-66.0623823,0.0,1.84658225
RIY,63,1,2024-06-30T12:46:13.551Z,english_330.wav,0,peel,139,1,0.1,-90.7862333,0.1,0.94726644
RIY,63,1,2024-06-30T12:46:13.551Z,english_330.wav,0,peel,139,2,0.2,-0.00810713819,0.2,1.52006519
RIY,63,1,2024-06-30T12:46:13.551Z,english_330.wav,0,peel,139,3,0.3,-61.2450651,0.3,1.63286843
RIY,63,1,2024-06-30T12:46:13.551Z,english_330.wav,0,peel,139,4,0.323416667,-0.344586516,0.32341667,1.74173618
RIY,64,1,2024-06-30T12:46:13.551Z,english_524.wav,0,pill,374,0,0.0,-67.97449296,0.75247726
RIY,64,1,2024-06-30T12:46:13.551Z,english_524.wav,0,pill,374,1,0.1,11.07328714,0.25589602
RIY,64,1,2024-06-30T12:46:13.551Z,english_524.wav,0,pill,374,2,0.2,-43.89657964,0.70559599
RIY,64,1,2024-06-30T12:46:13.551Z,english_524.wav,0,pill,374,3,0.3,-41.15015074,0.70218971
RIY,64,1,2024-06-30T12:46:13.551Z,english_524.wav,0,pill,374,4,0.32341667,-33.76804681,0.11352048
RIY,65,1,2024-06-30T12:46:13.551Z,english_466.wav,0,peel,142,0,0.0,59.64739432,1.91119383
RIY,65,1,2024-06-30T12:46:13.551Z,english_466.wav,0,peel,142,1,0.1,-20.63646321,1.29572765
RIY,65,1,2024-06-30T12:46:13.551Z,english_466.wav,0,peel,142,2,0.2,62.86141463,0.99944191
RIY,65,1,2024-06-30T12:46:13.551Z,english_466.wav,0,peel,142,3,0.3,-65.74461877,1.01221774
RIY,65,1,2024-06-30T12:46:13.551Z,english_466.wav,0,peel,142,4,0.32341667,44.70090984,0.89697717
RIY,66,1,2024-06-30T12:46:13.551Z,english_822.wav,0,peel,192,0,0.0,22.19463519,1.34957498
RIY,66,1,2024-06-30T12:46:13.551Z,english_822.wav,0,peel,192,1,0.1,46.02970585,1.18534363
RIY,66,1,2024-06-30T12:46:13.551Z,english_822.wav,0,peel,192,2,0.2,44.31281831,0.88966115
RIY,66,1,2024-06-30T12:46:13.551Z,english_822.wav,0,peel,192,3,0.3,27.24156044,1.22476657
RIY,66,1,2024-06-30T12:46:13.551Z,english_822.wav,0,peel,192,4,0.32341667,41.58842879,0.51847317
RIY,67,1,2024-06-30T12:46:13.551Z,english_287.wav,0,pill,3322,0,0.0,-5.71925808,1.04112926
RIY,67,1,2024-06-30T12:46:13.551Z,english_287.wav,0,pill,3322,1,0.1,-94.78041007,0.35149142
RIY,67,1,2024-06-30T12:46:13.551Z,english_287.wav,0,pill,3322,2,0.2,8.34641368,0.86781598
RIY,67,1,2024-06-30T12:46:13.551Z,english_287.wav,0,pill,3322,3,0.3,36.34893025,1.897904
RIY,67,1,2024-06-30T12:46:13.551Z,english_287.wav,0,pill,3322,4,0.32341667,-22.47689594,0.5607403
RIY,68,1,2024-06-30T12:46:13.551Z,english_533.wav,0,peel,164,0,0.0,-10.36570298,0.10013008
RIY,68,1,2024-06-30T12:46:13.551Z,english_533.wav,0,peel,164,1,0.1,-67.04420928,1.73583104
RIY,68,1,2024-06-30T12:46:13.551Z,english_533.wav,0,peel,164,2,0.2,-31.24691396,1.00550506
RIY,68,1,2024-06-30T12:46:13.551Z,english_533.wav,0,peel,164,3,0.3,-22.73912087,1.21009828
RIY,68,1,2024-06-30T12:46:13.551Z,english_533.wav,0,peel,164,4,0.32341667,-4.63915005,1.69946188
RIY,69,1,2024-06-30T12:46:13.551Z,english_542.wav,0,peel,88,0,0.0,-75.53633957,0.40538048
RIY,69,1,2024-06-30T12:46:13.551Z,english_542.wav,0,peel,88,1,0.1,-65.83593262,1.98560632
RIY,69,1,2024-06-30T12:46:13.551Z,english_542.wav,0,peel,88,2,0.2,-66.8010443,1.18970355
RIY,69,1,2024-06-30T12:46:13.551Z,english_542.wav,0,peel,88,3,0.3,89.94318033,1.00543009
RIY,69,1,2024-06-30T12:46:13.551Z,english_542.wav,0,peel,88,4,0.32341667,-28.80984484,1.15995836
RIY,70,1,2024-06-30T12:46:13.551Z,english_828.wav,0,peel,622,0,0.0,51.6479082,0.4417702
RIY,70,1,2024-06-30T12:46:13.551Z,english_828.wav,0,peel,622,1,0.1,37.62818293,1.22957458
RIY,70,1,2024-06-30T12:46:13.551Z,english_828.wav,0,peel,622,2,0.2,55.79615955,0.69909727
RIY,70,1,2024-06-30T12:46:13.551Z,english_828.wav,0,peel,622,3,0.3,31.91979646,1.572544
RIY,70,1,2024-06-30T12:46:13.551Z,english_828.wav,0,peel,622,4,0.32341667,-22.21091203,0.87669833
RIY,71,1,2024-06-30T12:46:13.551Z,english_352.wav,0,peel,363,0,0.0,71.64354449,0.18312459
RIY,71,1,2024-06-30T12:46:13.551Z,english_352.wav,0,peel,363,1,0.1,53.2516906,1.19991438
RIY,71,1,2024-06-30T12:46:13.551Z,english_352.wav,0,peel,363,2,0.2,28.90726554,1.21095973
RIY,71,1,2024-06-30T12:46:13.551Z,english_352.wav,0,peel,363,3,0.3,-49.8940387,1.61067418
RIY,71,1,2024-06-30T12:46:13.551Z,english_352.wav,0,peel,363,4,0.32341667,21.76832357,1.26376439
RIY,72,1,2024-06-30T12:46:13.551Z,english_323.wav,0,peel,259,0,0.0,92.33188111,1.59668922
RIY,72,1,2024-06-30T12:46:13.551Z,english_323.wav,0,peel,259,1,0.1,4.22577609,1.75306106
RIY,72,1,2024-06-30T12:46:13.551Z,english_323.wav,0,peel,259,2,0.2,-35.48560344,1.06071567
RIY,72,1,2024-06-30T12:46:13.551Z,english_323.wav,0,peel,259,3,0.3,7.73763769,1.9328625
RIY,72,1,2024-06-30T12:46:13.551Z,english_323.wav,0,peel,259,4,0.32341667,55.62458321,1.27347405
RIY,73,1,2024-06-30T12:46:13.551Z,english_691.wav,0,pill,310,0,0.0,28.79078449,1.07683297
RIY,73,1,2024-06-30T12:46:13.551Z,english_691.wav,0,pill,310,1,0.1,99.1184909,1.07376069
RIY,73,1,2024-06-30T12:46:13.551Z,english_691.wav,0,pill,310,2,0.2,-54.13985733,0.28522735
RIY,73,1,2024-06-30T12:46:13.551Z,english_691.wav,0,pill,310,3,0.3,-85.36319246,0.85701066
RIY,73,1,2024-06-30T12:46:13.551Z,english_691.wav,0,pill,310,4,0.32341667,-73.61621094,1.71165398
RIY,74,1,2024-06-30T12:46:13.551Z,english_693.wav,0,peel,88,0,0.0,-83.71635172,0.35753224
RIY,74,1,2024-06-30T12:46:13.551Z,english_693.wav,0,peel,88,1,0.1,32.46406691,1.09553371
RIY,74,1,2024-06-30T12:46:13.551Z,english_693.wav,0,peel,88,2,0.2,8.27548994,1.67166692
RIY,74,1,2024-06-30T12:46:13.551Z,english_693.wav,0,peel,88,3,0.3,15.80660539,1.61413862
RIY,74,1,2024-06-30T12:46:13.551Z,english_693.wav,0,peel,88,4,0.32341667,74.32681132,1.90943184
RIY,75,1,2024-06-30T12:46:13.551Z,english_557.wav,0,peel,211,0,0.0,43.94308994,0.38165316
RIY,75,1,2024-06-30T12:46:13.551Z,english_557.wav,0,peel,211,1,0.1,84.77773598,1.19567933
RIY,75,1,2024-06-30T12:46:13.551Z,english_557.wav,0,peel,211,2,0.2,-14.75143777,1.35103773
RIY,75,1,2024-06-30T12:46:13.551Z,english_557.wav,0,peel,211,3,0.3,-37.76141322,1.69174007
RIY,75,1,2024-06-30T12:46:13.551Z,english_557.wav,0,peel,211,4,0.32341667,-5.99076179,0.4334092
RIY,76,1,2024-06-30T12:46:13.551Z,english_62.wav,0,peel,211,0,0.0,17.28527913,1.12530616
RIY,76,1,2024-06-30T12:46:13.551Z,english_62.wav,0,peel,211,1,0.1,8.63936001,1.09357984
RIY,76,1,2024-06-30T12:46:13.551Z,english_62.wav,0,peel,211,2,0.2,-69.0074729,1.07648496
RIY,76,1,2024-06-30T12:46:13.551Z,english_62.wav,0,peel,211,3,0.3,-18.85502465,0.36768209
RIY,76,1,2024-06-30T12:46:13.551Z,english_62.wav,0,peel,211,4,0.32341667,59.46739627,0.39033463
RIY,77,1,2024-06-30T12:46:13.551Z,english_27.wav,0,peel,278,0,0.0,-6.18374659,1.89085405
RIY,77,1,2024-06-30T12:46:13.551Z,english_27.wav,0,peel,278,1,0.1,32.21095844,0.80138328
RIY,77,1,2024-06-30T12:46:13.551Z,english_27.wav,0,peel,278,2,0.2,21.02729748,1.01248602
RIY,77,1,2024-06-30T12:46:13.551Z,english_27.wav,0,peel,278,3,0.3,4.79829383,1.67412938
RIY,77,1,2024-06-30T12:46:13.551Z,english_27.wav,0,peel,278,4,0.32341667,-70.7577659,0.3387802
RIY,78,1,2024-06-30T12:46:13.551Z,english_269.wav,0,peel,11,0,0.0,61.09556447,1.11606818
RIY,78,1,2024-06-30T12:46:13.551Z,english_269.wav,0,peel,11,1,0.1,-3.97684721,1.55443041
RIY,78,1,2024-06-30T12:46:13.551Z,english_269.wav,0,peel,11,2,0.2,-87.59080112,1.78173809
RIY,78,1,2024-06-30T12:46:13.551Z,english_269.wav,0,peel,11,3,0.3,78.47165079,1.73012946
RIY,78,1,2024-06-30T12:46:13.551Z,english_269.wav,0,peel,11,4,0.32341667,-52.74135522,0.88090417
RIY,79,1,2024-06-30T12:46:13.551Z,english_891.wav,0,peel,694,0,0.0,21.29241244,0.7419472
RIY,79,1,2024-06-30T12:46:13.551Z,english_891.wav,0,peel,694,1,0.1,-1.23713702,1.09270952
RIY,79,1,2024-06-30T12:46:13.551Z,english_891.wav,0,peel,694,2,0.2,-74.86460599,0.8129571
RIY,79,1,2024-06-30T12:46:13.551Z,english_891.wav,0,peel,694,3,0.3,18.81587233,0.16019775
RIY,79,1,2024-06-30T12:46:13.551Z,english_891.wav,0,peel,694,4,0.32341667,35.3489582,1.17476401
RIY,80,1,2024-06-30T12:46:13.551Z,english_195.wav,0,peel,200,0,0.0,88.76446124,0.85936173
RIY,80,1,2024-06-30T12:46:13.551Z,english_195.wav,0,peel,200,1,0.1,56.50909504,1.06337161
RIY,80,1,2024-06-30T12:46:13.551Z,english_195.wav,0,peel,200,2,0.2,-5.11157055,1.01766647
RIY,80,1,2024-06-30T12:46:13.551Z,english_195.wav,0,peel,200,3,0.3,14.19517065,1.03928052
RIY,80,1,2024-06-30T12:46:13.551Z,english_195.wav,0,peel,200,4,0.32341667,67.19148892,1.18131313
RIY,81,1,2024-06-30T12:46:13.551Z,english_155.wav,0,peel,179,0,0.0,53.87474094,1.93436975
RIY,81,1,2024-06-30T12:46:13.551Z,english_155.wav,0,peel,179,1,0.1,74.81745726,0.64472983
RIY,81,1,2024-06-30T12:46:13.551Z,english_155.wav,0,peel,179,2,0.2,8.25192738,1.6098708
RIY,81,1,2024-06-30T12:46:13.551Z,english_155.wav,0,peel,179,3,0.3,-52.88121257,1.15705679
RIY,81,1,2024-06-30T12:46:13.551Z,english_155.wav,0,peel,179,4,0.32341667,48.31209788,0.66500292
RIY,82,1,2024-06-30T12:46:13.551Z,english_355.wav,0,peel,187,0,0.0,33.6784286,1.28512049
RIY,82,1,2024-06-30T12:46:13.551Z,english_355.wav,0,peel,187,1,0.1,30.74796889,1.04729355
RIY,82,1,2024-06-30T12:46:13.551Z,english_355.wav,0,peel,187,2,0.2,71.39310534,0.74339822
RIY,82,1,2024-06-30T12:46:13.551Z,english_355.wav,0,peel,187,3,0.3,38.16266559,0.86152361
RIY,82,1,2024-06-30T12:46:13.551Z,english_355.wav,0,peel,187,4,0.32341667,-39.8799084,1.83215587
RIY,83,1,2024-06-30T12:46:13.551Z,english_252.wav,0,peel,251,0,0.0,79.75601627,0.77799761
RIY,83,1,2024-06-30T12:46:13.551Z,english_252.wav,0,peel,251,1,0.1,17.00183399,1.07711339
RIY,83,1,2024-06-30T12:46:13.551Z,english_252.wav,0,peel,251,2,0.2,-25.42800597,0.7917181
RIY,83,1,2024-06-30T12:46:13.551Z,english_252.wav,0,peel,251,3,0.3,-47.65138194,1.47632881
RIY,83,1,2024-06-30T12:46:13.551Z,english_252.wav,0,peel,251,4,0.32341667,35.10652067,1.65919103
RIY,84,1,2024-06-30T12:46:13.551Z,english_172.wav,0,pill,332,0,0.0,8.59493981,0.93080222
RIY,84,1,2024-06-30T12:46:13.551Z,english_172.wav,0,pill,332,1,0.1,-56.34346079,0.53387901
RIY,84,1,2024-06-30T12:46:13.551Z,english_172.wav,0,pill,332,2,0.2,-95.76423912,0.34406097
RIY,84,1,2024-06-30T12:46:13.551Z,english_172.wav,0,pill,332,3,0.3,11.69646411,0.74935371
RIY,84,1,2024-06-30T12:46:13.551Z,english_172.wav,0,pill,332,4,0.32341667,-55.10661496,0.42041327
RIY,85,1,2024-06-30T12:46:13.551Z,english_865.wav,0,pill,451,0,0.0,57.45647421,1.64387024
RIY,85,1,2024-06-30T12:46:13.551Z,english_865.wav,0,pill,451,1,0.1,-62.30549211,0.05749027
RIY,85,1,2024-06-30T12:46:13.551Z,english_865.wav,0,pill,451,2,0.2,-35.85649312,0.09554773
RIY,85,1,2024-06-30T12:46:13.551Z,english_865.wav,0,pill,451,3,0.3,55.00701181,1.62598434
RIY,85,1,2024-06-30T12:46:13.551Z,english_865.wav,0,pill,451,4,0.32341667,-39.97662747,0.71232625
RIY,86,1,2024-06-30T12:46:13.551Z,english_170.wav,0,pill,342,0,0.0,6.45066022,1.58910722
RIY,86,1,2024-06-30T12:46:13.551Z,english_170.wav,0,pill,342,1,0.1,-4.11198278,0.3365331
RIY,86,1,2024-06-30T12:46:13.551Z,english_170.wav,0,pill,342,2,0.2,96.59136675,0.38643451
RIY,86,1,2024-06-30T12:46:13.551Z,english_170.wav,0,pill,342,3,0.3,21.57070742,1.58623933
RIY,86,1,2024-06-30T12:46:13.551Z,english_170.wav,0,pill,342,4,0.32341667,94.47980818,1.61968164
RIY,87,1,2024-06-30T12:46:13.551Z,english_784.wav,0,peel,278,0,0.0,8.33598236,1.26617784
RIY,87,1,2024-06-30T12:46:13.551Z,english_784.wav,0,peel,278,1,0.1,-95.44591543,0.3784594
RIY,87,1,2024-06-30T12:46:13.551Z,english_784.wav,0,peel,278,2,0.2,-36.57026964,1.54775832
RIY,87,1,2024-06-30T12:46:13.551Z,english_784.wav,0,peel,278,3,0.3,21.49915707,0.94378056
RIY,87,1,2024-06-30T12:46:13.551Z,english_784.wav,0,peel,278,4,0.32341667,14.63720491,0.98781772
RIY,88,1,2024-06-30T12:46:13.551Z,english_264.wav,0,peel,120,0,0.0,16.10521774,1.02407609
RIY,88,1,2024-06-30T12:46:13.551Z,english_264.wav,0,peel,120,1,0.1,-43.55481907,1.4393598
RIY,88,1,2024-06-30T12:46:13.551Z,english_264.wav,0,peel,120,2,0.2,-16.87093852,1.31552174
RIY,88,1,2024-06-30T12:46:13.551Z,english_264.wav,0,peel,120,3,0.3,-81.41755984,1.17516842
RIY,88,1,2024-06-30T12:46:13.551Z,english_264.wav,0,peel,120,4,0.32341667,-76.00277997,0.613195
RIY,89,1,2024-06-30T12:46:13.551Z,english_646.wav,0,peel,673,0,0.0,65.65927644,1.85038449
RIY,89,1,2024-06-30T12:46:13.551Z,english_646.wav,0,peel,673,1,0.1,-31.23211399,1.10748568
RIY,89,1,2024-06-30T12:46:13.551Z,english_646.wav,0,peel,673,2,0.2,62.59110385,1.14052106
RIY,89,1,2024-06-30T12:46:13.551Z,english_646.wav,0,peel,673,3,0.3,-86.43369357,1.38971404
RIY,89,1,2024-06-30T12:46:13.551Z,english_646.wav,0,peel,673,4,0.32341667,41.84315348,0.49971738
RIY,90,1,2024-06-30T12:46:13.551Z,english_497.wav,0,peel,193,0,0.0,3.92391523,0.25005623
RIY,90,1,2024-06-30T12:46:13.551Z,english_497.wav,0,peel,193,1,0.1,-39.44421726,1.18920756
RIY,90,1,2024-06-30T12:46:13.551Z,english_497.wav,0,peel,193,2,0.2,-70.21843081,1.75478959
RIY,90,1,2024-06-30T12:46:13.551Z,english_497.wav,0,peel,193,3,0.3,-95.13281119,0.47878412
RIY,90,1,2024-06-30T12:46:13.551Z,english_497.wav,0,peel,193,4,0.32341667,-23.7064256,0.88125504
RIY,91,1,2024-06-30T12:46:13.551Z,english_722.wav,0,peel,222,0,0.0,56.33358757,0.09194264
RIY,91,1,2024-06-30T12:46:13.551Z,english_722.wav,0,peel,222,1,0.1,-63.11389498,1.89550133
RIY,91,1,2024-06-30T12:46:13.551Z,english_722.wav,0,peel,222,2,0.2,65.64746862,0.18403216
RIY,91,1,2024-06-30T12:46:13.551Z,english_722.wav,0,peel,222,3,0.3,-93.10605514,1.23223326
RIY,91,1,2024-06-30T12:46:13.551Z,english_722.wav,0,peel,222,4,0.32341667,-45.92743551,0.28331892
RIY,92,1,2024-06-30T12:46:13.551Z,english_478.wav,0,peel,177,0,0.0,-70.9954821,0.91489342
RIY,92,1,2024-06-30T12:46:13.551Z,english_478.wav,0,peel,177,1,0.1,18.763036,1.0325944
RIY,92,1,2024-06-30T12:46:13.551Z,english_478.wav,0,peel,177,2,0.2,84.30682023,1.47139294
RIY,92,1,2024-06-30T12:46:13.551Z,english_478.wav,0,peel,177,3,0.3,96.70790152,0.31719256
RIY,92,1,2024-06-30T12:46:13.551Z,english_478.wav,0,peel,177,4,0.32341667,-65.75430749,1.1469235
RIY,93,1,2024-06-30T12:46:13.551Z,english_163.wav,0,peel,179,0,0.0,-28.85321754,1.43434597
RIY,93,1,2024-06-30T12:46:13.551Z,english_163.wav,0,peel,179,1,0.1,9.37410395,1.75766865
RIY,93,1,2024-06-30T12:46:13.551Z,english_163.wav,0,peel,179,2,0.2,-43.22266742,0.90391943
RIY,93,1,2024-06-30T12:46:13.551Z,english_163.wav,0,peel,179,3,0.3,48.63715122,1.21743426
RIY,93,1,2024-06-30T12:46:13.551Z,english_163.wav,0,peel,179,4,0.32341667,-94.22333204,1.8516503
RIY,94,1,2024-06-30T12:46:13.551Z,english_877.wav,0,pill,465,0,0.0,49.36401037,1.25510861
RIY,94,1,2024-06-30T12:46:13.551Z,english_877.wav,0,pill,465,1,0.1,15.17280231,0.84700305
RIY,94,1,2024-06-30T12:46:13.551Z,english_877.wav,0,pill,465,2,0.2,22.36436744,0.32703774
RIY,94,1,2024-06-30T12:46:13.551Z,english_877.wav,0,pill,465,3,0.3,-25.51979868,1.72637958
RIY,94,1,2024-06-30T12:46:13.551Z,english_877.wav,0,pill,465,4,0.32341667,-55.72443313,0.52117686
RIY,95,1,2024-06-30T12:46:13.551Z,english_402.wav,0,peel,106,0,0.0,-69.75327375,0.88104294
RIY,95,1,2024-06-30T12:46:13.551Z,english_402.wav,0,peel,106,1,0.1,-37.13247603,1.50830761
RIY,95,1,2024-06-30T12:46:13.551Z,english_402.wav,0,peel,106,2,0.2,95.06865819,0.86613458
RIY,95,1,2024-06-30T12:46:13.551Z,english_402.wav,0,peel,106,3,0.3,-83.65219271,1.46195184
RIY,95,1,2024-06-30T12:46:13.551Z,english_402.wav,0,peel,106,4,0.32341667,-39.65623645,1.78030697
RIY,96,1,2024-06-30T12:46:13.551Z,english_677.wav,0,pill,399,0,0.0,74.92499355,0.4070184
RIY,96,1,2024-06-30T12:46:13.551Z,english_677.wav,0,pill,399,1,0.1,35.44886391,0.82737557
RIY,96,1,2024-06-30T12:46:13.551Z,english_677.wav,0,pill,399,2,0.2,3.82146975,0.46436239
RIY,96,1,2024-06-30T12:46:13.551Z,english_677.wav,0,pill,399,3,0.3,10.3543008,1.40426898
RIY,96,1,2024-06-30T12:46:13.551Z,english_677.wav,0,pill,399,4,0.32341667,-53.94170103,1.42138659
RIY,97,1,2024-06-30T12:46:13.551Z,english_647.wav,0,peel,236,0,0.0,-8.76796469,1.6238225
RIY,97,1,2024-06-30T12:46:13.551Z,english_647.wav,0,peel,236,1,0.1,-49.13996982,1.56934089
RIY,97,1,2024-06-30T12:46:13.551Z,english_647.wav,0,peel,236,2,0.2,43.79634461,0.78560304
RIY,97,1,2024-06-30T12:46:13.551Z,english_647.wav,0,peel,236,3,0.3,5.5781311,0.61771672
RIY,97,1,2024-06-30T12:46:13.551Z,english_647.wav,0,peel,236,4,0.32341667,17.41251701,1.2404866
RIY,98,1,2024-06-30T12:46:13.551Z,english_300.wav,0,peel,374,0,0.0,-57.32903368,1.31106943
RIY,98,1,2024-06-30T12:46:13.551Z,english_300.wav,0,peel,374,1,0.1,-14.80176218,1.36432179
RIY,98,1,2024-06-30T12:46:13.551Z,english_300.wav,0,peel,374,2,0.2,17.32090115,1.9756976
RIY,98,1,2024-06-30T12:46:13.551Z,english_300.wav,0,peel,374,3,0.3,9.38584248,1.38621255
RIY,98,1,2024-06-30T12:46:13.551Z,english_300.wav,0,peel,374,4,0.32341667,-54.58865419,1.60203422
RIY,99,1,2024-06-30T12:46:13.551Z,english_246.wav,0,pill,550,0,0.0,-62.23082525,0.02615808
RIY,99,1,2024-06-30T12:46:13.551Z,english_246.wav,0,pill,550,1,0.1,59.67623932,1.52596932
RIY,99,1,2024-06-30T12:46:13.551Z,english_246.wav,0,pill,550,2,0.2,-63.30715513,1.87080553
RIY,99,1,2024-06-30T12:46:13.551Z,english_246.wav,0,pill,550,3,0.3,15.41118057,0.81226596
RIY,99,1,2024-06-30T12:46:13.551Z,english_246.wav,0,pill,550,4,0.32341667,90.60814582,0.64975072
RIY,100,2,2024-06-30T12:46:13.551Z,english_167.wav,0,pill,2227,0,0.0,57.26975159,0.44729063
RIY,100,2,2024-06-30T12:46:13.551Z,english_167.wav,0,pill,2227,1,0.1,54.31010869,1.623568
RIY,100,2,2024-06-30T12:46:13.551Z,english_167.wav,0,pill,2227,2,0.2,99.57020207,0.28743218
RIY,100,2,2024-06-30T12:46:13.551Z,english_167.wav,0,pill,2227,3,0.3,27.92735821,0.71837494
RIY,100,2,2024-06-30T12:46:13.551Z,english_167.wav,0,pill,2227,4,0.32341667,73.13424206,1.35815305
RIY,101,2,2024-06-30T12:46:13.551Z,english_168.wav,0,peel,328,0,0.0,-69.10300998,1.14537751
RIY,101,2,2024-06-30T12:46:13.551Z,english_168.wav,0,peel,328,1,0.1,-24.44784794,1.06854972
RIY,101,2,2024-06-30T12:46:13.551Z,english_168.wav,0,peel,328,2,0.2,35.31321785,0.45192262
RIY,101,2,2024-06-30T12:46:13.551Z,english_168.wav,0,peel,328,3,0.3,-41.77498511,0.2846318
RIY,101,2,2024-06-30T12:46:13.551Z,english_168.wav,0,peel,328,4,0.32341667,19.92389913,0.9853942
RIY,102,2,2024-06-30T12:46:13.551Z,english_135.wav,0,pill,1879,0,0.0,92.53632507,0.8813083
RIY,102,2,2024-06-30T12:46:13.551Z,english_135.wav,0,pill,1879,1,0.1,42.68843281,1.60503348
RIY,102,2,2024-06-30T12:46:13.551Z,english_135.wav,0,pill,1879,2,0.2,87.27237188,0.22265806
RIY,102,2,2024-06-30T12:46:13.551Z,english_135.wav,0,pill,1879,3,0.3,-70.62725941,0.4233462
RIY,102,2,2024-06-30T12:46:13.551Z,english_135.wav,0,pill,1879,4,0.32341667,91.37204548,0.99500327
RIY,103,2,2024-06-30T12:46:13.551Z,english_595.wav,0,peel,118,0,0.0,-39.84727911,1.6526444
RIY,103,2,2024-06-30T12:46:13.551Z,english_595.wav,0,peel,118,1,0.1,-68.85607622,1.11711065
RIY,103,2,2024-06-30T12:46:13.551Z,english_595.wav,0,peel,118,2,0.2,23.68364187,1.96516016
RIY,103,2,2024-06-30T12:46:13.551Z,english_595.wav,0,peel,118,3,0.3,-80.51887658,0.34053421
RIY,103,2,2024-06-30T12:46:13.551Z,english_595.wav,0,peel,118,4,0.32341667,-94.66311932,1.22603371
RIY,104,2,2024-06-30T12:46:13.551Z,english_851.wav,0,pill,243,0,0.0,-83.90491711,1.65488062
RIY,104,2,2024-06-30T12:46:13.551Z,english_851.wav,0,pill,243,1,0.1,92.94065497,0.14315595
RIY,104,2,2024-06-30T12:46:13.551Z,english_851.wav,0,pill,243,2,0.2,-63.47542883,0.84481863
RIY,104,2,2024-06-30T12:46:13.551Z,english_851.wav,0,pill,243,3,0.3,13.34025436,1.9580918
RIY,104,2,2024-06-30T12:46:13.551Z,english_851.wav,0,pill,243,4,0.32341667,32.96474042,0.23608581
RIY,105,2,2024-06-30T12:46:13.551Z,english_274.wav,0,peel,195,0,0.0,-30.61452779,0.78021116
RIY,105,2,2024-06-30T12:46:13.551Z,english_274.wav,0,peel,195,1,0.1,-42.14612233,1.93993358
RIY,105,2,2024-06-30T12:46:13.551Z,english_274.wav,0,peel,195,2,0.2,32.00602795,0.32963606
RIY,105,2,2024-06-30T12:46:13.551Z,english_274.wav,0,peel,195,3,0.3,-37.74375581,1.46133782
RIY,105,2,2024-06-30T12:46:13.551Z,english_274.wav,0,peel,195,4,0.32341667,-54.5397802,1.53178785
RIY,106,2,2024-06-30T12:46:13.551Z,english_262.wav,0,peel,286,0,0.0,-55.0240476,0.91992097
RIY,106,2,2024-06-30T12:46:13.551Z,english_262.wav,0,peel,286,1,0.1,46.31562141,0.94194362
RIY,106,2,2024-06-30T12:46:13.551Z,english_262.wav,0,peel,286,2,0.2,62.5855756,1.80305422
RIY,106,2,2024-06-30T12:46:13.551Z,english_262.wav,0,peel,286,3,0.3,-4.25909078,0.51544707
RIY,106,2,2024-06-30T12:46:13.551Z,english_262.wav,0,peel,286,4,0.32341667,16.27030636,1.47198659
RIY,107,2,2024-06-30T12:46:13.551Z,english_458.wav,0,pill,432,0,0.0,-49.69821038,0.39452057
RIY,107,2,2024-06-30T12:46:13.551Z,english_458.wav,0,pill,432,1,0.1,-49.80647014,1.24604375
RIY,107,2,2024-06-30T12:46:13.551Z,english_458.wav,0,pill,432,2,0.2,11.98261521,0.42272405
RIY,107,2,2024-06-30T12:46:13.551Z,english_458.wav,0,pill,432,3,0.3,59.43319096,0.21259233
RIY,107,2,2024-06-30T12:46:13.551Z,english_458.wav,0,pill,432,4,0.32341667,-34.5671642,1.13235362
RIY,108,2,2024-06-30T12:46:13.551Z,english_499.wav,0,peel,449,0,0.0,-62.75547094,0.4212983
RIY,108,2,2024-06-30T12:46:13.551Z,english_499.wav,0,peel,449,1,0.1,28.73361796,1.54082224
RIY,108,2,2024-06-30T12:46:13.551Z,english_499.wav,0,peel,449,2,0.2,-71.86053711,1.07919976
RIY,108,2,2024-06-30T12:46:13.551Z,english_499.wav,0,peel,449,3,0.3,-44.40399931,1.20425095
RIY,108,2,2024-06-30T12:46:13.551Z,english_499.wav,0,peel,449,4,0.32341667,-2.72335033,0.4618338
RIY,109,2,2024-06-30T12:46:13.551Z,english_449.wav,0,peel,89,0,0.0,-46.54576765,0.60085197
RIY,109,2,2024-06-30T12:46:13.551Z,english_449.wav,0,peel,89,1,0.1,20.05422573,1.74901032
RIY,109,2,2024-06-30T12:46:13.551Z,english_449.wav,0,peel,89,2,0.2,54.52400621,1.9506545
RIY,109,2,2024-06-30T12:46:13.551Z,english_449.wav,0,peel,89,3,0.3,73.66855139,1.81044704
RIY,109,2,2024-06-30T12:46:13.551Z,english_449.wav,0,peel,89,4,0.32341667,-1.88675615,0.93562966
RIY,110,2,2024-06-30T12:46:13.551Z,english_944.wav,0,pill,664,0,0.0,70.24274457,0.61048125
RIY,110,2,2024-06-30T12:46:13.551Z,english_944.wav,0,pill,664,1,0.1,-48.79231442,1.63310511
RIY,110,2,2024-06-30T12:46:13.551Z,english_944.wav,0,pill,664,2,0.2,-6.42324239,0.21687347
RIY,110,2,2024-06-30T12:46:13.551Z,english_944.wav,0,pill,664,3,0.3,-7.7338836,0.45027042
RIY,110,2,2024-06-30T12:46:13.551Z,english_944.wav,0,pill,664,4,0.32341667,69.46240638,0.90306897
RIY,111,2,2024-06-30T12:46:13.551Z,english_290.wav,0,pill,779,0,0.0,73.71968657,0.30552726
RIY,111,2,2024-06-30T12:46:13.551Z,english_290.wav,0,pill,779,1,0.1,-59.85317413,1.31636279
RIY,111,2,2024-06-30T12:46:13.551Z,english_290.wav,0,pill,779,2,0.2,71.1426587,0.54925413
RIY,111,2,2024-06-30T12:46:13.551Z,english_290.wav,0,pill,779,3,0.3,-18.50007061,1.26204455
RIY,111,2,2024-06-30T12:46:13.551Z,english_290.wav,0,pill,779,4,0.32341667,-65.91143137,0.60528556
RIY,112,2,2024-06-30T12:46:13.551Z,english_35.wav,0,peel,163,0,0.0,-35.14158545,0.855771
RIY,112,2,2024-06-30T12:46:13.551Z,english_35.wav,0,peel,163,1,0.1,-54.49669119,0.5452371
RIY,112,2,2024-06-30T12:46:13.551Z,english_35.wav,0,peel,163,2,0.2,37.91149238,1.65995376
RIY,112,2,2024-06-30T12:46:13.551Z,english_35.wav,0,peel,163,3,0.3,-55.38086503,0.74505496
RIY,112,2,2024-06-30T12:46:13.551Z,english_35.wav,0,peel,163,4,0.32341667,54.77667999,0.83530932
RIY,113,2,2024-06-30T12:46:13.551Z,english_760.wav,0,peel,227,0,0.0,24.3902693,0.0,0.67210823
RIY,113,2,2024-06-30T12:46:13.551Z,english_760.wav,0,peel,227,1,0.1,-0.0247174936,0.1,1.89588113
RIY,113,2,2024-06-30T12:46:13.551Z,english_760.wav,0,peel,227,2,0.2,82.8662613,0.2,0.23432987
RIY,113,2,2024-06-30T12:46:13.551Z,english_760.wav,0,peel,227,3,0.3,-7.97314524,0.3,1.20797246
RIY,113,2,2024-06-30T12:46:13.551Z,english_760.wav,0,peel,227,4,0.323416667,-6.32438983,0.32341667,1.72866971
RIY,114,2,2024-06-30T12:46:13.551Z,english_802.wav,0,pill,1236,0,0.0,44.11448731,1.89082481
RIY,114,2,2024-06-30T12:46:13.551Z,english_802.wav,0,pill,1236,1,0.1,27.89646601,1.73386287
RIY,114,2,2024-06-30T12:46:13.551Z,english_802.wav,0,pill,1236,2,0.2,-19.36127415,0.34468699
RIY,114,2,2024-06-30T12:46:13.551Z,english_802.wav,0,pill,1236,3,0.3,15.17899174,0.39328876
RIY,114,2,2024-06-30T12:46:13.551Z,english_802.wav,0,pill,1236,4,0.32341667,-18.70870555,1.25778986
RIY,115,2,2024-06-30T12:46:13.551Z,english_958.wav,0,peel,254,0,0.0,17.32592779,0.33109802
RIY,115,2,2024-06-30T12:46:13.551Z,english_958.wav,0,peel,254,1,0.1,89.03376041,1.83345348
RIY,115,2,2024-06-30T12:46:13.551Z,english_958.wav,0,peel,254,2,0.2,-24.89219777,1.95859429
RIY,115,2,2024-06-30T12:46:13.551Z,english_958.wav,0,peel,254,3,0.3,-92.10798137,1.50296341
RIY,115,2,2024-06-30T12:46:13.551Z,english_958.wav,0,peel,254,4,0.32341667,3.27828718,0.1474067
RIY,116,2,2024-06-30T12:46:13.551Z,english_437.wav,0,pill,417,0,0.0,61.91803223,0.36516876
RIY,116,2,2024-06-30T12:46:13.551Z,english_437.wav,0,pill,417,1,0.1,0.99543568,0.43500315
RIY,116,2,2024-06-30T12:46:13.551Z,english_437.wav,0,pill,417,2,0.2,-50.96874522,1.25398366
RIY,116,2,2024-06-30T12:46:13.551Z,english_437.wav,0,pill,417,3,0.3,-47.73319396,0.60570222
RIY,116,2,2024-06-30T12:46:13.551Z,english_437.wav,0,pill,417,4,0.32341667,15.35939938,0.97208355
RIY,117,2,2024-06-30T12:46:13.551Z,english_673.wav,0,pill,294,0,0.0,-57.74220233,1.16794182
RIY,117,2,2024-06-30T12:46:13.551Z,english_673.wav,0,pill,294,1,0.1,51.69168463,0.24005868
RIY,117,2,2024-06-30T12:46:13.551Z,english_673.wav,0,pill,294,2,0.2,32.71998218,1.1491536
RIY,117,2,2024-06-30T12:46:13.551Z,english_673.wav,0,pill,294,3,0.3,1.53841214,1.59180477
RIY,117,2,2024-06-30T12:46:13.551Z,english_673.wav,0,pill,294,4,0.32341667,-95.68622946,1.00634228
RIY,118,2,2024-06-30T12:46:13.551Z,english_984.wav,0,pill,474,0,0.0,-4.00148485,1.68596177
RIY,118,2,2024-06-30T12:46:13.551Z,english_984.wav,0,pill,474,1,0.1,26.28173365,0.06678014
RIY,118,2,2024-06-30T12:46:13.551Z,english_984.wav,0,pill,474,2,0.2,80.79042683,0.65490985
RIY,118,2,2024-06-30T12:46:13.551Z,english_984.wav,0,pill,474,3,0.3,94.69131331,0.57269921
RIY,118,2,2024-06-30T12:46:13.551Z,english_984.wav,0,pill,474,4,0.32341667,75.17511154,0.71264295
RIY,119,2,2024-06-30T12:46:13.551Z,english_571.wav,0,pill,1766,0,0.0,-42.92588422,0.65590276
RIY,119,2,2024-06-30T12:46:13.551Z,english_571.wav,0,pill,1766,1,0.1,-87.39276897,1.8306878
RIY,119,2,2024-06-30T12:46:13.551Z,english_571.wav,0,pill,1766,2,0.2,19.06282168,0.06889765
RIY,119,2,2024-06-30T12:46:13.551Z,english_571.wav,0,pill,1766,3,0.3,-99.30459792,0.29364209
RIY,119,2,2024-06-30T12:46:13.551Z,english_571.wav,0,pill,1766,4,0.32341667,41.25263337,1.388798
RIY,120,2,2024-06-30T12:46:13.551Z,english_652.wav,0,pill,822,0,0.0,4.27736911,0.30427218
RIY,120,2,2024-06-30T12:46:13.551Z,english_652.wav,0,pill,822,1,0.1,18.79087972,0.67520162
RIY,120,2,2024-06-30T12:46:13.551Z,english_652.wav,0,pill,822,2,0.2,61.32163128,0.66270689
RIY,120,2,2024-06-30T12:46:13.551Z,english_652.wav,0,pill,822,3,0.3,45.76092148,0.93987847
RIY,120,2,2024-06-30T12:46:13.551Z,english_652.wav,0,pill,822,4,0.32341667,-45.08671386,1.10617978
RIY,121,2,2024-06-30T12:46:13.551Z,english_75.wav,0,peel,355,0,0.0,-9.18091647,0.92930856
RIY,121,2,2024-06-30T12:46:13.551Z,english_75.wav,0,peel,355,1,0.1,-62.02164907,1.94000482
RIY,121,2,2024-06-30T12:46:13.551Z,english_75.wav,0,peel,355,2,0.2,-12.90623207,1.2183621
RIY,121,2,2024-06-30T12:46:13.551Z,english_75.wav,0,peel,355,3,0.3,15.17089036,0.47349695
RIY,121,2,2024-06-30T12:46:13.551Z,english_75.wav,0,peel,355,4,0.32341667,10.89352922,1.02561006
RIY,122,2,2024-06-30T12:46:13.551Z,english_288.wav,0,peel,166,0,0.0,35.15100251,1.01330681
RIY,122,2,2024-06-30T12:46:13.551Z,english_288.wav,0,peel,166,1,0.1,49.55485069,0.90213232
RIY,122,2,2024-06-30T12:46:13.551Z,english_288.wav,0,peel,166,2,0.2,28.604189,1.8181607
RIY,122,2,2024-06-30T12:46:13.551Z,english_288.wav,0,peel,166,3,0.3,38.59633835,1.82579698
RIY,122,2,2024-06-30T12:46:13.551Z,english_288.wav,0,peel,166,4,0.32341667,-98.9026904,0.14571105
RIY,123,2,2024-06-30T12:46:13.551Z,english_871.wav,0,peel,259,0,0.0,84.63625516,0.21643415
RIY,123,2,2024-06-30T12:46:13.551Z,english_871.wav,0,peel,259,1,0.1,-19.11058767,1.23538017
RIY,123,2,2024-06-30T12:46:13.551Z,english_871.wav,0,peel,259,2,0.2,49.1497137,1.26375285
RIY,123,2,2024-06-30T12:46:13.551Z,english_871.wav,0,peel,259,3,0.3,-83.07816512,0.03257235
RIY,123,2,2024-06-30T12:46:13.551Z,english_871.wav,0,peel,259,4,0.32341667,11.22002909,1.90703832
RIY,124,2,2024-06-30T12:46:13.551Z,english_133.wav,0,peel,475,0,0.0,12.35833749,0.72635311
RIY,124,2,2024-06-30T12:46:13.551Z,english_133.wav,0,peel,475,1,0.1,40.12315016,1.38782059
RIY,124,2,2024-06-30T12:46:13.551Z,english_133.wav,0,peel,475,2,0.2,21.09458129,0.15947395
RIY,124,2,2024-06-30T12:46:13.551Z,english_133.wav,0,peel,475,3,0.3,-98.82286682,0.28433836
RIY,124,2,2024-06-30T12:46:13.551Z,english_133.wav,0,peel,475,4,0.32341667,-85.44748976,1.2581514
RIY,125,2,2024-06-30T12:46:13.551Z,english_972.wav,0,peel,446,0,0.0,-87.82800068,1.28286493
RIY,125,2,2024-06-30T12:46:13.551Z,english_972.wav,0,peel,446,1,0.1,-25.45661385,0.89058027
RIY,125,2,2024-06-30T12:46:13.551Z,english_972.wav,0,peel,446,2,0.2,2.95853851,1.4716374
RIY,125,2,2024-06-30T12:46:13.551Z,english_972.wav,0,peel,446,3,0.3,84.61583696,0.6386035
RIY,125,2,2024-06-30T12:46:13.551Z,english_972.wav,0,peel,446,4,0.32341667,42.95706616,1.51056083
RIY,126,2,2024-06-30T12:46:13.551Z,english_732.wav,0,peel,278,0,0.0,-12.49530298,1.28394154
RIY,126,2,2024-06-30T12:46:13.551Z,english_732.wav,0,peel,278,1,0.1,77.35683448,1.95772399
RIY,126,2,2024-06-30T12:46:13.551Z,english_732.wav,0,peel,278,2,0.2,46.14200593,1.14408971
RIY,126,2,2024-06-30T12:46:13.551Z,english_732.wav,0,peel,278,3,0.3,-17.19403126,0.21034957
RIY,126,2,2024-06-30T12:46:13.551Z,english_732.wav,0,peel,278,4,0.32341667,-81.60069167,0.50538316
RIY,127,2,2024-06-30T12:46:13.551Z,english_102.wav,0,peel,611,0,0.0,32.71328306,1.2311829
RIY,127,2,2024-06-30T12:46:13.551Z,english_102.wav,0,peel,611,1,0.1,59.73255369,0.25599615
RIY,127,2,2024-06-30T12:46:13.551Z,english_102.wav,0,peel,611,2,0.2,-0.64397298,1.7526023
RIY,127,2,2024-06-30T12:46:13.551Z,english_102.wav,0,peel,611,3,0.3,-37.18099902,1.98319627
RIY,127,2,2024-06-30T12:46:13.551Z,english_102.wav,0,peel,611,4,0.32341667,41.63197766,1.38410598
RIY,128,2,2024-06-30T12:46:13.551Z,english_282.wav,0,pill,502,0,0.0,0.76940706,0.32837311
RIY,128,2,2024-06-30T12:46:13.551Z,english_282.wav,0,pill,502,1,0.1,85.14494722,0.39977994
RIY,128,2,2024-06-30T12:46:13.551Z,english_282.wav,0,pill,502,2,0.2,-92.43433596,0.62065738
RIY,128,2,2024-06-30T12:46:13.551Z,english_282.wav,0,pill,502,3,0.3,-98.42888083,0.06200237
RIY,128,2,2024-06-30T12:46:13.551Z,english_282.wav,0,pill,502,4,0.32341667,-32.58662549,1.4193679
RIY,129,2,2024-06-30T12:46:13.551Z,english_488.wav,0,peel,270,0,0.0,7.19120882,0.55609806
RIY,129,2,2024-06-30T12:46:13.551Z,english_488.wav,0,peel,270,1,0.1,11.64873536,1.36121935
RIY,129,2,2024-06-30T12:46:13.551Z,english_488.wav,0,peel,270,2,0.2,59.26032861,0.93872915
RIY,129,2,2024-06-30T12:46:13.551Z,english_488.wav,0,peel,270,3,0.3,-31.0631162,1.52041262
RIY,129,2,2024-06-30T12:46:13.551Z,english_488.wav,0,peel,270,4,0.32341667,23.8619583,1.83140972
RIY,130,2,2024-06-30T12:46:13.551Z,english_68.wav,0,peel,257,0,0.0,-23.38152803,1.83565324
RIY,130,2,2024-06-30T12:46:13.551Z,english_68.wav,0,peel,257,1,0.1,-36.0918901,0.35162477
RIY,130,2,2024-06-30T12:46:13.551Z,english_68.wav,0,peel,257,2,0.2,65.46592862,1.10705723
RIY,130,2,2024-06-30T12:46:13.551Z,english_68.wav,0,peel,257,3,0.3,48.57602628,1.09550925
RIY,130,2,2024-06-30T12:46:13.551Z,english_68.wav,0,peel,257,4,0.32341667,-93.64245591,0.05753383
RIY,131,2,2024-06-30T12:46:13.551Z,english_569.wav,0,pill,553,0,0.0,-44.4695194,1.56768834
RIY,131,2,2024-06-30T12:46:13.551Z,english_569.wav,0,pill,553,1,0.1,50.36705327,0.42032873
RIY,131,2,2024-06-30T12:46:13.551Z,english_569.wav,0,pill,553,2,0.2,-76.17438636,0.31133764
RIY,131,2,2024-06-30T12:46:13.551Z,english_569.wav,0,pill,553,3,0.3,55.47083669,0.91900801
RIY,131,2,2024-06-30T12:46:13.551Z,english_569.wav,0,pill,553,4,0.32341667,-10.68913609,1.26529561
RIY,132,2,2024-06-30T12:46:13.551Z,english_841.wav,0,peel,406,0,0.0,36.57834023,0.37598589
RIY,132,2,2024-06-30T12:46:13.551Z,english_841.wav,0,peel,406,1,0.1,81.12994836,1.18949815
RIY,132,2,2024-06-30T12:46:13.551Z,english_841.wav,0,peel,406,2,0.2,55.4316434,1.24219065
RIY,132,2,2024-06-30T12:46:13.551Z,english_841.wav,0,peel,406,3,0.3,-50.85387517,1.45004046
RIY,132,2,2024-06-30T12:46:13.551Z,english_841.wav,0,peel,406,4,0.32341667,-52.13814436,0.19253582
RIY,133,2,2024-06-30T12:46:13.551Z,english_461.wav,0,peel,471,0,0.0,-99.86661298,0.04975834
RIY,133,2,2024-06-30T12:46:13.551Z,english_461.wav,0,peel,471,1,0.1,65.11959058,1.27856071
RIY,133,2,2024-06-30T12:46:13.551Z,english_461.wav,0,peel,471,2,0.2,-96.19635976,1.53618081
RIY,133,2,2024-06-30T12:46:13.551Z,english_461.wav,0,peel,471,3,0.3,56.69155656,1.97602464
RIY,133,2,2024-06-30T12:46:13.551Z,english_461.wav,0,peel,471,4,0.32341667,-82.13106063,1.41647384
RIY,134,2,2024-06-30T12:46:13.551Z,english_219.wav,0,peel,646,0,0.0,38.40040381,1.09142553
RIY,134,2,2024-06-30T12:46:13.551Z,english_219.wav,0,peel,646,1,0.1,-26.23926727,0.5740428
RIY,134,2,2024-06-30T12:46:13.551Z,english_219.wav,0,peel,646,2,0.2,-57.67558578,1.19056911
RIY,134,2,2024-06-30T12:46:13.551Z,english_219.wav,0,peel,646,3,0.3,50.56926795,1.87089358
RIY,134,2,2024-06-30T12:46:13.551Z,english_219.wav,0,peel,646,4,0.32341667,64.39220397,1.06933149
RIY,135,2,2024-06-30T12:46:13.551Z,english_93.wav,0,peel,376,0,0.0,-63.58558414,0.84265136
RIY,135,2,2024-06-30T12:46:13.551Z,english_93.wav,0,peel,376,1,0.1,47.93190562,0.45441634
RIY,135,2,2024-06-30T12:46:13.551Z,english_93.wav,0,peel,376,2,0.2,74.1463043,1.33476805
RIY,135,2,2024-06-30T12:46:13.551Z,english_93.wav,0,peel,376,3,0.3,46.42515129,0.61821532
RIY,135,2,2024-06-30T12:46:13.551Z,english_93.wav,0,peel,376,4,0.32341667,-19.17332826,1.94889868
RIY,136,2,2024-06-30T12:46:13.551Z,english_666.wav,0,pill,1039,0,0.0,-6.63307831,0.44221414
RIY,136,2,2024-06-30T12:46:13.551Z,english_666.wav,0,pill,1039,1,0.1,-47.66524373,1.62559692
RIY,136,2,2024-06-30T12:46:13.551Z,english_666.wav,0,pill,1039,2,0.2,66.93817534,0.27313334
RIY,136,2,2024-06-30T12:46:13.551Z,english_666.wav,0,pill,1039,3,0.3,-1.338646,0.46846925
RIY,136,2,2024-06-30T12:46:13.551Z,english_666.wav,0,pill,1039,4,0.32341667,-14.31927765,1.08883823
RIY,137,2,2024-06-30T12:46:13.551Z,english_565.wav,0,peel,342,0,0.0,-89.95965492,1.93181176
RIY,137,2,2024-06-30T12:46:13.551Z,english_565.wav,0,peel,342,1,0.1,67.55938023,1.29027557
RIY,137,2,2024-06-30T12:46:13.551Z,english_565.wav,0,peel,342,2,0.2,26.6208604,0.36054668
RIY,137,2,2024-06-30T12:46:13.551Z,english_565.wav,0,peel,342,3,0.3,-54.20230035,1.25973455
RIY,137,2,2024-06-30T12:46:13.551Z,english_565.wav,0,peel,342,4,0.32341667,-98.16020256,0.92743077
RIY,138,2,2024-06-30T12:46:13.551Z,english_151.wav,0,peel,105,0,0.0,-8.78950662,1.36403682
RIY,138,2,2024-06-30T12:46:13.551Z,english_151.wav,0,peel,105,1,0.1,-1.70650264,1.76375426
RIY,138,2,2024-06-30T12:46:13.551Z,english_151.wav,0,peel,105,2,0.2,-17.50286784,1.43087438
RIY,138,2,2024-06-30T12:46:13.551Z,english_151.wav,0,peel,105,3,0.3,88.78233286,1.18017331
RIY,138,2,2024-06-30T12:46:13.551Z,english_151.wav,0,peel,105,4,0.32341667,55.08117545,1.30400061
RIY,139,2,2024-06-30T12:46:13.551Z,english_188.wav,0,peel,125,0,0.0,-13.13088252,0.29227292
RIY,139,2,2024-06-30T12:46:13.551Z,english_188.wav,0,peel,125,1,0.1,51.13663316,1.25360943
RIY,139,2,2024-06-30T12:46:13.551Z,english_188.wav,0,peel,125,2,0.2,-80.18048506,1.7916357
RIY,139,2,2024-06-30T12:46:13.551Z,english_188.wav,0,peel,125,3,0.3,-47.89773773,0.58346705
RIY,139,2,2024-06-30T12:46:13.551Z,english_188.wav,0,peel,125,4,0.32341667,-7.0568118,1.77612328
RIY,140,2,2024-06-30T12:46:13.551Z,english_326.wav,0,peel,313,0,0.0,-13.70476372,1.64570887
RIY,140,2,2024-06-30T12:46:13.551Z,english_326.wav,0,peel,313,1,0.1,47.7156259,0.91266102
RIY,140,2,2024-06-30T12:46:13.551Z,english_326.wav,0,peel,313,2,0.2,23.24839736,0.36997562
RIY,140,2,2024-06-30T12:46:13.551Z,english_326.wav,0,peel,313,3,0.3,67.08212267,1.96258237
RIY,140,2,2024-06-30T12:46:13.551Z,english_326.wav,0,peel,313,4,0.32341667,78.79356023,1.01334204
RIY,141,2,2024-06-30T12:46:13.551Z,english_634.wav,0,peel,238,0,0.0,-94.29539956,0.6011183
RIY,141,2,2024-06-30T12:46:13.551Z,english_634.wav,0,peel,238,1,0.1,28.41708136,1.15242669
RIY,141,2,2024-06-30T12:46:13.551Z,english_634.wav,0,peel,238,2,0.2,-99.13935281,0.68826906
RIY,141,2,2024-06-30T12:46:13.551Z,english_634.wav,0,peel,238,3,0.3,-78.11216949,1.44169335
RIY,141,2,2024-06-30T12:46:13.551Z,english_634.wav,0,peel,238,4,0.32341667,-54.5881907,0.90266094
RIY,142,2,2024-06-30T12:46:13.551Z,english_187.wav,0,peel,303,0,0.0,-18.35695568,0.61755768
RIY,142,2,2024-06-30T12:46:13.551Z,english_187.wav,0,peel,303,1,0.1,10.21632188,1.6626445
RIY,142,2,2024-06-30T12:46:13.551Z,english_187.wav,0,peel,303,2,0.2,0.69047377,0.70950015
RIY,142,2,2024-06-30T12:46:13.551Z,english_187.wav,0,peel,303,3,0.3,67.68385624,0.8856252
RIY,142,2,2024-06-30T12:46:13.551Z,english_187.wav,0,peel,303,4,0.32341667,48.15291114,1.92627472
RIY,143,2,2024-06-30T12:46:13.551Z,english_820.wav,0,peel,216,0,0.0,-46.83321603,0.84618107
RIY,143,2,2024-06-30T12:46:13.551Z,english_820.wav,0,peel,216,1,0.1,41.6487922,0.98544532
RIY,143,2,2024-06-30T12:46:13.551Z,english_820.wav,0,peel,216,2,0.2,8.4156442,0.7701051
RIY,143,2,2024-06-30T12:46:13.551Z,english_820.wav,0,peel,216,3,0.3,-54.82963666,1.20043732
RIY,143,2,2024-06-30T12:46:13.551Z,english_820.wav,0,peel,216,4,0.32341667,30.43602938,1.85489027
RIY,144,2,2024-06-30T12:46:13.551Z,english_381.wav,0,peel,286,0,0.0,-64.83599525,0.77808766
RIY,144,2,2024-06-30T12:46:13.551Z,english_381.wav,0,peel,286,1,0.1,97.61236857,1.62635576
RIY,144,2,2024-06-30T12:46:13.551Z,english_381.wav,0,peel,286,2,0.2,-60.27157178,0.65298664
RIY,144,2,2024-06-30T12:46:13.551Z,english_381.wav,0,peel,286,3,0.3,84.45732791,0.46881793
RIY,144,2,2024-06-30T12:46:13.551Z,english_381.wav,0,peel,286,4,0.32341667,-87.53832291,1.22836965
RIY,145,2,2024-06-30T12:46:13.551Z,english_132.wav,0,peel,187,0,0.0,-72.51222148,1.10010631
RIY,145,2,2024-06-30T12:46:13.551Z,english_132.wav,0,peel,187,1,0.1,-7.68798614,1.14985521
RIY,145,2,2024-06-30T12:46:13.551Z,english_132.wav,0,peel,187,2,0.2,-26.80347179,1.49426164
RIY,145,2,2024-06-30T12:46:13.551Z,english_132.wav,0,peel,187,3,0.3,-51.62992771,1.25622472
RIY,145,2,2024-06-30T12:46:13.551Z,english_132.wav,0,peel,187,4,0.32341667,-1.85745595,0.89976888
RIY,146,2,2024-06-30T12:46:13.551Z,english_560.wav,0,peel,182,0,0.0,6.26341837,1.61909233
RIY,146,2,2024-06-30T12:46:13.551Z,english_560.wav,0,peel,182,1,0.1,-94.10474965,0.93851614
RIY,146,2,2024-06-30T12:46:13.551Z,english_560.wav,0,peel,182,2,0.2,-43.88069215,1.37910144
RIY,146,2,2024-06-30T12:46:13.551Z,english_560.wav,0,peel,182,3,0.3,-26.3559156,1.10578935
RIY,146,2,2024-06-30T12:46:13.551Z,english_560.wav,0,peel,182,4,0.32341667,-91.38105747,0.02070647
RIY,147,2,2024-06-30T12:46:13.551Z,english_521.wav,0,peel,235,0,0.0,-39.78859965,1.84590666
RIY,147,2,2024-06-30T12:46:13.551Z,english_521.wav,0,peel,235,1,0.1,94.65680132,0.33665341
RIY,147,2,2024-06-30T12:46:13.551Z,english_521.wav,0,peel,235,2,0.2,-68.68225016,1.01474729
RIY,147,2,2024-06-30T12:46:13.551Z,english_521.wav,0,peel,235,3,0.3,19.56493677,0.73624599
RIY,147,2,2024-06-30T12:46:13.551Z,english_521.wav,0,peel,235,4,0.32341667,69.42990376,1.4391639
RIY,148,2,2024-06-30T12:46:13.551Z,english_875.wav,0,peel,312,0,0.0,-72.29566874,0.47412948
RIY,148,2,2024-06-30T12:46:13.551Z,english_875.wav,0,peel,312,1,0.1,40.49821439,0.97105678
RIY,148,2,2024-06-30T12:46:13.551Z,english_875.wav,0,peel,312,2,0.2,61.66936014,1.31175081
RIY,148,2,2024-06-30T12:46:13.551Z,english_875.wav,0,peel,312,3,0.3,36.92950197,0.55015514
RIY,148,2,2024-06-30T12:46:13.551Z,english_875.wav,0,peel,312,4,0.32341667,61.03530789,1.23529794
RIY,149,2,2024-06-30T12:46:13.551Z,english_504.wav,0,pill,899,0,0.0,4.11468456,0.75379057
RIY,149,2,2024-06-30T12:46:13.551Z,english_504.wav,0,pill,899,1,0.1,70.56620437,1.18348717
RIY,149,2,2024-06-30T12:46:13.551Z,english_504.wav,0,pill,899,2,0.2,3.26767498,0.25360202
RIY,149,2,2024-06-30T12:46:13.551Z,english_504.wav,0,pill,899,3,0.3,-3.14493553,1.87094491
RIY,149,2,2024-06-30T12:46:13.551Z,english_504.wav,0,pill,899,4,0.32341667,43.57926014,0.110125
RIY,150,3,2024-06-30T12:46:13.551Z,english_84.wav,0,peel,411,0,0.0,-42.35488886,0.45116064
RIY,150,3,2024-06-30T12:46:13.551Z,english_84.wav,0,peel,411,1,0.1,17.86576323,1.91320005
RIY,150,3,2024-06-30T12:46:13.551Z,english_84.wav,0,peel,411,2,0.2,-56.36172821,1.53140363
RIY,150,3,2024-06-30T12:46:13.551Z,english_84.wav,0,peel,411,3,0.3,69.8537656,0.53091011
RIY,150,3,2024-06-30T12:46:13.551Z,english_84.wav,0,peel,411,4,0.32341667,-47.30652012,1.59279301
RIY,151,3,2024-06-30T12:46:13.551Z,english_303.wav,0,pill,649,0,0.0,67.00540241,1.22520816
RIY,151,3,2024-06-30T12:46:13.551Z,english_303.wav,0,pill,649,1,0.1,32.95821842,1.22732479
RIY,151,3,2024-06-30T12:46:13.551Z,english_303.wav,0,pill,649,2,0.2,-23.67517146,0.54923068
RIY,151,3,2024-06-30T12:46:13.551Z,english_303.wav,0,pill,649,3,0.3,-66.94926695,0.8977578
RIY,151,3,2024-06-30T12:46:13.551Z,english_303.wav,0,pill,649,4,0.32341667,65.71723135,1.41807679
RIY,152,3,2024-06-30T12:46:13.551Z,english_956.wav,0,peel,527,0,0.0,-98.71257913,1.5828524
RIY,152,3,2024-06-30T12:46:13.551Z,english_956.wav,0,peel,527,1,0.1,-36.05702295,0.66985857
RIY,152,3,2024-06-30T12:46:13.551Z,english_956.wav,0,peel,527,2,0.2,-31.95582623,0.13798036
RIY,152,3,2024-06-30T12:46:13.551Z,english_956.wav,0,peel,527,3,0.3,-81.31295359,0.22663358
RIY,152,3,2024-06-30T12:46:13.551Z,english_956.wav,0,peel,527,4,0.32341667,45.09425789,0.54862974
RIY,153,3,2024-06-30T12:46:13.551Z,english_161.wav,0,peel,591,0,0.0,16.17182642,0.80971259
RIY,153,3,2024-06-30T12:46:13.551Z,english_161.wav,0,peel,591,1,0.1,51.23408036,1.56168911
RIY,153,3,2024-06-30T12:46:13.551Z,english_161.wav,0,peel,591,2,0.2,56.55598601,0.91666403
RIY,153,3,2024-06-30T12:46:13.551Z,english_161.wav,0,peel,591,3,0.3,-25.08054758,1.93998208
RIY,153,3,2024-06-30T12:46:13.551Z,english_161.wav,0,peel,591,4,0.32341667,-70.36900789,0.76147365
RIY,154,3,2024-06-30T12:46:13.551Z,english_982.wav,0,peel,673,0,0.0,12.44046596,0.81508625
RIY,154,3,2024-06-30T12:46:13.551Z,english_982.wav,0,peel,673,1,0.1,-60.41666302,0.92712357
RIY,154,3,2024-06-30T12:46:13.551Z,english_982.wav,0,peel,673,2,0.2,-35.31499742,0.77678916
RIY,154,3,2024-06-30T12:46:13.551Z,english_982.wav,0,peel,673,3,0.3,-10.96739076,1.0294352
RIY,154,3,2024-06-30T12:46:13.551Z,english_982.wav,0,peel,673,4,0.32341667,44.50624474,1.1322674
RIY,155,3,2024-06-30T12:46:13.551Z,english_386.wav,0,pill,857,0,0.0,74.56899624,1.79299743
RIY,155,3,2024-06-30T12:46:13.551Z,english_386.wav,0,pill,857,1,0.1,25.94107183,0.16071221
RIY,155,3,2024-06-30T12:46:13.551Z,english_386.wav,0,pill,857,2,0.2,41.2839149,0.21721497
RIY,155,3,2024-06-30T12:46:13.551Z,english_386.wav,0,pill,857,3,0.3,14.47866495,1.22036918
RIY,155,3,2024-06-30T12:46:13.551Z,english_386.wav,0,pill,857,4,0.32341667,-14.73959674,1.81871952
RIY,156,3,2024-06-30T12:46:13.551Z,english_543.wav,0,peel,171,0,0.0,13.74009622,0.63900578
RIY,156,3,2024-06-30T12:46:13.551Z,english_543.wav,0,peel,171,1,0.1,51.80972721,1.6206981
RIY,156,3,2024-06-30T12:46:13.551Z,english_543.wav,0,peel,171,2,0.2,86.3964352,0.03304675
RIY,156,3,2024-06-30T12:46:13.551Z,english_543.wav,0,peel,171,3,0.3,-66.39783761,1.7049324
RIY,156,3,2024-06-30T12:46:13.551Z,english_543.wav,0,peel,171,4,0.32341667,31.11863834,1.46507556
RIY,157,3,2024-06-30T12:46:13.551Z,english_585.wav,0,peel,457,0,0.0,-47.47167609,0.91486293
RIY,157,3,2024-06-30T12:46:13.551Z,english_585.wav,0,peel,457,1,0.1,-85.73018253,0.8051019
RIY,157,3,2024-06-30T12:46:13.551Z,english_585.wav,0,peel,457,2,0.2,4.69567907,1.25289508
RIY,157,3,2024-06-30T12:46:13.551Z,english_585.wav,0,peel,457,3,0.3,51.83381109,0.83258124
RIY,157,3,2024-06-30T12:46:13.551Z,english_585.wav,0,peel,457,4,0.32341667,14.12777642,1.43411439
RIY,158,3,2024-06-30T12:46:13.551Z,english_117.wav,0,peel,401,0,0.0,-98.72491255,1.42659946
RIY,158,3,2024-06-30T12:46:13.551Z,english_117.wav,0,peel,401,1,0.1,-15.15642563,1.64599539
RIY,158,3,2024-06-30T12:46:13.551Z,english_117.wav,0,peel,401,2,0.2,24.45806353,0.97767705
RIY,158,3,2024-06-30T12:46:13.551Z,english_117.wav,0,peel,401,3,0.3,-80.67224668,0.37962884
RIY,158,3,2024-06-30T12:46:13.551Z,english_117.wav,0,peel,401,4,0.32341667,-97.50349755,0.74274723
RIY,159,3,2024-06-30T12:46:13.551Z,english_462.wav,0,peel,187,0,0.0,-35.73318704,1.53267708
RIY,159,3,2024-06-30T12:46:13.551Z,english_462.wav,0,peel,187,1,0.1,-5.65949109,1.98369384
RIY,159,3,2024-06-30T12:46:13.551Z,english_462.wav,0,peel,187,2,0.2,-49.47542688,1.31270994
RIY,159,3,2024-06-30T12:46:13.551Z,english_462.wav,0,peel,187,3,0.3,-98.18570674,1.26289606
RIY,159,3,2024-06-30T12:46:13.551Z,english_462.wav,0,peel,187,4,0.32341667,-16.34927785,1.36496903
RIY,160,3,2024-06-30T12:46:13.551Z,english_382.wav,0,pill,931,0,0.0,-83.35497559,1.24516413
RIY,160,3,2024-06-30T12:46:13.551Z,english_382.wav,0,pill,931,1,0.1,7.83115402,0.59675254
RIY,160,3,2024-06-30T12:46:13.551Z,english_382.wav,0,pill,931,2,0.2,77.46115257,0.61036026
RIY,160,3,2024-06-30T12:46:13.551Z,english_382.wav,0,pill,931,3,0.3,89.755233,1.95554414
RIY,160,3,2024-06-30T12:46:13.551Z,english_382.wav,0,pill,931,4,0.32341667,-36.08570956,1.60845727
RIY,161,3,2024-06-30T12:46:13.551Z,english_384.wav,0,pill,563,0,0.0,-38.96228733,0.34616893
RIY,161,3,2024-06-30T12:46:13.551Z,english_384.wav,0,pill,563,1,0.1,2.386347,0.04115024
RIY,161,3,2024-06-30T12:46:13.551Z,english_384.wav,0,pill,563,2,0.2,48.26486793,0.35900131
RIY,161,3,2024-06-30T12:46:13.551Z,english_384.wav,0,pill,563,3,0.3,-48.11903655,1.58519606
RIY,161,3,2024-06-30T12:46:13.551Z,english_384.wav,0,pill,563,4,0.32341667,19.29531145,0.95531857
RIY,162,3,2024-06-30T12:46:13.551Z,english_392.wav,0,pill,422,0,0.0,-12.90562814,1.13144201
RIY,162,3,2024-06-30T12:46:13.551Z,english_392.wav,0,pill,422,1,0.1,-1.29416779,0.98893381
RIY,162,3,2024-06-30T12:46:13.551Z,english_392.wav,0,pill,422,2,0.2,-53.34155903,0.07204825
RIY,162,3,2024-06-30T12:46:13.551Z,english_392.wav,0,pill,422,3,0.3,-48.65153398,1.52779633
RIY,162,3,2024-06-30T12:46:13.551Z,english_392.wav,0,pill,422,4,0.32341667,-43.47653164,1.32355089
RIY,163,3,2024-06-30T12:46:13.551Z,english_601.wav,0,peel,214,0,0.0,54.32401431,0.08668951
RIY,163,3,2024-06-30T12:46:13.551Z,english_601.wav,0,peel,214,1,0.1,-6.72935942,1.16468766
RIY,163,3,2024-06-30T12:46:13.551Z,english_601.wav,0,peel,214,2,0.2,39.12079493,1.8612572
RIY,163,3,2024-06-30T12:46:13.551Z,english_601.wav,0,peel,214,3,0.3,39.92141387,0.92171433
RIY,163,3,2024-06-30T12:46:13.551Z,english_601.wav,0,peel,214,4,0.32341667,-27.14681087,0.50419734
RIY,164,3,2024-06-30T12:46:13.551Z,english_345.wav,0,peel,377,0,0.0,-46.00579497,1.58751342
RIY,164,3,2024-06-30T12:46:13.551Z,english_345.wav,0,peel,377,1,0.1,-45.5805492,1.0202646
RIY,164,3,2024-06-30T12:46:13.551Z,english_345.wav,0,peel,377,2,0.2,-14.04378539,0.61561299
RIY,164,3,2024-06-30T12:46:13.551Z,english_345.wav,0,peel,377,3,0.3,63.72413351,1.21547564
RIY,164,3,2024-06-30T12:46:13.551Z,english_345.wav,0,peel,377,4,0.32341667,18.03717792,1.47127253
RIY,165,3,2024-06-30T12:46:13.551Z,english_502.wav,0,peel,179,0,0.0,-23.73065935,0.0797034
RIY,165,3,2024-06-30T12:46:13.551Z,english_502.wav,0,peel,179,1,0.1,2.70754613,1.83600464
RIY,165,3,2024-06-30T12:46:13.551Z,english_502.wav,0,peel,179,2,0.2,25.650451,1.48948742
RIY,165,3,2024-06-30T12:46:13.551Z,english_502.wav,0,peel,179,3,0.3,-49.55254658,1.22465236
RIY,165,3,2024-06-30T12:46:13.551Z,english_502.wav,0,peel,179,4,0.32341667,16.82642172,1.41984075
RIY,166,3,2024-06-30T12:46:13.551Z,english_206.wav,0,peel,190,0,0.0,29.86029141,0.9413203
RIY,166,3,2024-06-30T12:46:13.551Z,english_206.wav,0,peel,190,1,0.1,-65.49550847,1.58501733
RIY,166,3,2024-06-30T12:46:13.551Z,english_206.wav,0,peel,190,2,0.2,-8.37849199,1.84833856
RIY,166,3,2024-06-30T12:46:13.551Z,english_206.wav,0,peel,190,3,0.3,16.32170521,1.12864021
RIY,166,3,2024-06-30T12:46:13.551Z,english_206.wav,0,peel,190,4,0.32341667,-96.55544023,0.85017735
RIY,167,3,2024-06-30T12:46:13.551Z,english_939.wav,0,peel,403,0,0.0,-23.2558256,0.1774722
RIY,167,3,2024-06-30T12:46:13.551Z,english_939.wav,0,peel,403,1,0.1,-16.62065377,0.56271239
RIY,167,3,2024-06-30T12:46:13.551Z,english_939.wav,0,peel,403,2,0.2,-49.54734698,1.42782479
RIY,167,3,2024-06-30T12:46:13.551Z,english_939.wav,0,peel,403,3,0.3,22.82101289,0.76516147
RIY,167,3,2024-06-30T12:46:13.551Z,english_939.wav,0,peel,403,4,0.32341667,28.63490654,1.70219777
RIY,168,3,2024-06-30T12:46:13.551Z,english_359.wav,0,peel,238,0,0.0,95.13315851,1.5844105
RIY,168,3,2024-06-30T12:46:13.551Z,english_359.wav,0,peel,238,1,0.1,95.71495863,0.46491803
RIY,168,3,2024-06-30T12:46:13.551Z,english_359.wav,0,peel,238,2,0.2,4.56295435,1.17107987
RIY,168,3,2024-06-30T12:46:13.551Z,english_359.wav,0,peel,238,3,0.3,-11.93773809,0.63485582
RIY,168,3,2024-06-30T12:46:13.551Z,english_359.wav,0,peel,238,4,0.32341667,-75.72789111,0.10666132
RIY,169,3,2024-06-30T12:46:13.551Z,english_429.wav,0,peel,216,0,0.0,-70.82827187,0.34305232
RIY,169,3,2024-06-30T12:46:13.551Z,english_429.wav,0,peel,216,1,0.1,79.2644825,1.15525787
RIY,169,3,2024-06-30T12:46:13.551Z,english_429.wav,0,peel,216,2,0.2,14.29027084,1.85610569
RIY,169,3,2024-06-30T12:46:13.551Z,english_429.wav,0,peel,216,3,0.3,-47.65971945,0.19828098
RIY,169,3,2024-06-30T12:46:13.551Z,english_429.wav,0,peel,216,4,0.32341667,8.9954872,1.51767034
RIY,170,3,2024-06-30T12:46:13.551Z,english_766.wav,0,peel,219,0,0.0,-86.57417509,1.21737292
RIY,170,3,2024-06-30T12:46:13.551Z,english_766.wav,0,peel,219,1,0.1,-67.75686223,1.61484435
RIY,170,3,2024-06-30T12:46:13.551Z,english_766.wav,0,peel,219,2,0.2,74.21258041,1.47872362
RIY,170,3,2024-06-30T12:46:13.551Z,english_766.wav,0,peel,219,3,0.3,65.20164426,1.81064247
RIY,170,3,2024-06-30T12:46:13.551Z,english_766.wav,0,peel,219,4,0.32341667,-26.41371036,1.37776493
RIY,171,3,2024-06-30T12:46:13.551Z,english_999.wav,0,peel,211,0,0.0,-43.88463807,1.5561212
RIY,171,3,2024-06-30T12:46:13.551Z,english_999.wav,0,peel,211,1,0.1,-19.69329198,1.76032244
RIY,171,3,2024-06-30T12:46:13.551Z,english_999.wav,0,peel,211,2,0.2,-16.47401585,0.67323911
RIY,171,3,2024-06-30T12:46:13.551Z,english_999.wav,0,peel,211,3,0.3,-27.91485083,0.0725875
RIY,171,3,2024-06-30T12:46:13.551Z,english_999.wav,0,peel,211,4,0.32341667,-38.65265262,0.89314247
RIY,172,3,2024-06-30T12:46:13.551Z,english_107.wav,0,pill,1937,0,0.0,-19.24931684,0.69122185
RIY,172,3,2024-06-30T12:46:13.551Z,english_107.wav,0,pill,1937,1,0.1,24.04874113,0.13674094
RIY,172,3,2024-06-30T12:46:13.551Z,english_107.wav,0,pill,1937,2,0.2,59.01955179,1.47608642
RIY,172,3,2024-06-30T12:46:13.551Z,english_107.wav,0,pill,1937,3,0.3,49.74315823,1.52525824
RIY,172,3,2024-06-30T12:46:13.551Z,english_107.wav,0,pill,1937,4,0.32341667,-75.23844627,0.11985114
RIY,173,3,2024-06-30T12:46:13.551Z,english_604.wav,0,peel,214,0,0.0,11.37360706,1.9162078
RIY,173,3,2024-06-30T12:46:13.551Z,english_604.wav,0,peel,214,1,0.1,-50.20832577,0.59247461
RIY,173,3,2024-06-30T12:46:13.551Z,english_604.wav,0,peel,214,2,0.2,-34.39542541,1.79911242
RIY,173,3,2024-06-30T12:46:13.551Z,english_604.wav,0,peel,214,3,0.3,-9.87560088,0.998763
RIY,173,3,2024-06-30T12:46:13.551Z,english_604.wav,0,peel,214,4,0.32341667,34.71454295,0.76768671
RIY,174,3,2024-06-30T12:46:13.551Z,english_959.wav,0,pill,918,0,0.0,-78.42285057,1.71892855
RIY,174,3,2024-06-30T12:46:13.551Z,english_959.wav,0,pill,918,1,0.1,6.44734251,1.96402951
RIY,174,3,2024-06-30T12:46:13.551Z,english_959.wav,0,pill,918,2,0.2,20.74966326,0.26247596
RIY,174,3,2024-06-30T12:46:13.551Z,english_959.wav,0,pill,918,3,0.3,-29.69680039,1.29464598
RIY,174,3,2024-06-30T12:46:13.551Z,english_959.wav,0,pill,918,4,0.32341667,34.2282551,1.77868038
RIY,175,3,2024-06-30T12:46:13.551Z,english_103.wav,0,peel,1003,0,0.0,-79.54710498,0.84178061
RIY,175,3,2024-06-30T12:46:13.551Z,english_103.wav,0,peel,1003,1,0.1,-41.31314025,1.9706485
RIY,175,3,2024-06-30T12:46:13.551Z,english_103.wav,0,peel,1003,2,0.2,-48.58046961,1.55059924
RIY,175,3,2024-06-30T12:46:13.551Z,english_103.wav,0,peel,1003,3,0.3,50.88097047,1.14550684
RIY,175,3,2024-06-30T12:46:13.551Z,english_103.wav,0,peel,1003,4,0.32341667,21.22320476,1.67039139
RIY,176,3,2024-06-30T12:46:13.551Z,english_805.wav,0,peel,2126,0,0.0,-11.97504695,0.06029378
RIY,176,3,2024-06-30T12:46:13.551Z,english_805.wav,0,peel,2126,1,0.1,96.82911573,0.81391401
RIY,176,3,2024-06-30T12:46:13.551Z,english_805.wav,0,peel,2126,2,0.2,7.51835152,1.33531055
RIY,176,3,2024-06-30T12:46:13.551Z,english_805.wav,0,peel,2126,3,0.3,2.47378187,1.7608484
RIY,176,3,2024-06-30T12:46:13.551Z,english_805.wav,0,peel,2126,4,0.32341667,-43.26336213,1.4289718
RIY,177,3,2024-06-30T12:46:13.551Z,english_523.wav,0,pill,632,0,0.0,8.07414344,0.20594791
RIY,177,3,2024-06-30T12:46:13.551Z,english_523.wav,0,pill,632,1,0.1,27.61667564,1.87511385
RIY,177,3,2024-06-30T12:46:13.551Z,english_523.wav,0,pill,632,2,0.2,12.25175146,0.19246655
RIY,177,3,2024-06-30T12:46:13.551Z,english_523.wav,0,pill,632,3,0.3,5.7333769,0.42766967
RIY,177,3,2024-06-30T12:46:13.551Z,english_523.wav,0,pill,632,4,0.32341667,77.72310536,1.43882185
RIY,178,3,2024-06-30T12:46:13.551Z,english_952.wav,0,peel,1654,0,0.0,64.91746033,1.00586425
RIY,178,3,2024-06-30T12:46:13.551Z,english_952.wav,0,peel,1654,1,0.1,-25.84234774,1.28790365
RIY,178,3,2024-06-30T12:46:13.551Z,english_952.wav,0,peel,1654,2,0.2,60.30097417,1.6668124
RIY,178,3,2024-06-30T12:46:13.551Z,english_952.wav,0,peel,1654,3,0.3,-98.0606555,1.44616756
RIY,178,3,2024-06-30T12:46:13.551Z,english_952.wav,0,peel,1654,4,0.32341667,-77.98984902,0.15831209
RIY,179,3,2024-06-30T12:46:13.551Z,english_95.wav,0,pill,2651,0,0.0,-9.17523314,0.73915747
RIY,179,3,2024-06-30T12:46:13.551Z,english_95.wav,0,pill,2651,1,0.1,-95.16832451,1.01172325
RIY,179,3,2024-06-30T12:46:13.551Z,english_95.wav,0,pill,2651,2,0.2,-21.6130257,1.19817679
RIY,179,3,2024-06-30T12:46:13.551Z,english_95.wav,0,pill,2651,3,0.3,0.51006416,1.53285694
RIY,179,3,2024-06-30T12:46:13.551Z,english_95.wav,0,pill,2651,4,0.32341667,43.00131518,1.08383215
RIY,180,3,2024-06-30T12:46:13.551Z,english_740.wav,0,peel,347,0,0.0,17.63845752,0.65519257
RIY,180,3,2024-06-30T12:46:13.551Z,english_740.wav,0,peel,347,1,0.1,36.88289119,0.996231
RIY,180,3,2024-06-30T12:46:13.551Z,english_740.wav,0,peel,347,2,0.2,-63.85348159,0.85360158
RIY,180,3,2024-06-30T12:46:13.551Z,english_740.wav,0,peel,347,3,0.3,-97.96670479,1.42654033
RIY,180,3,2024-06-30T12:46:13.551Z,english_740.wav,0,peel,347,4,0.32341667,43.035587,1.01691569
RIY,181,3,2024-06-30T12:46:13.551Z,english_818.wav,0,peel,983,0,0.0,88.49542613,1.4873036
RIY,181,3,2024-06-30T12:46:13.551Z,english_818.wav,0,peel,983,1,0.1,-7.37005163,1.25102077
RIY,181,3,2024-06-30T12:46:13.551Z,english_818.wav,0,peel,983,2,0.2,-1.58613611,0.80764036
RIY,181,3,2024-06-30T12:46:13.551Z,english_818.wav,0,peel,983,3,0.3,-69.41222379,0.80656775
RIY,181,3,2024-06-30T12:46:13.551Z,english_818.wav,0,peel,983,4,0.32341667,14.01707612,1.41859799
RIY,182,3,2024-06-30T12:46:13.551Z,english_621.wav,0,peel,1030,0,0.0,-58.25251841,1.01186344
RIY,182,3,2024-06-30T12:46:13.551Z,english_621.wav,0,peel,1030,1,0.1,21.8974524,1.03560921
RIY,182,3,2024-06-30T12:46:13.551Z,english_621.wav,0,peel,1030,2,0.2,-22.03552483,0.97057504
RIY,182,3,2024-06-30T12:46:13.551Z,english_621.wav,0,peel,1030,3,0.3,-56.80446909,1.33131235
RIY,182,3,2024-06-30T12:46:13.551Z,english_621.wav,0,peel,1030,4,0.32341667,-23.41760562,0.49151525
RIY,183,3,2024-06-30T12:46:13.551Z,english_689.wav,0,pill,705,0,0.0,42.02822248,1.89069384
RIY,183,3,2024-06-30T12:46:13.551Z,english_689.wav,0,pill,705,1,0.1,-61.92185233,0.33123617
RIY,183,3,2024-06-30T12:46:13.551Z,english_689.wav,0,pill,705,2,0.2,-8.45156809,0.5478675
RIY,183,3,2024-06-30T12:46:13.551Z,english_689.wav,0,pill,705,3,0.3,15.09500637,0.80334133
RIY,183,3,2024-06-30T12:46:13.551Z,english_689.wav,0,pill,705,4,0.32341667,8.33163023,1.42024866
RIY,184,3,2024-06-30T12:46:13.551Z,english_558.wav,0,peel,697,0,0.0,-73.38624366,1.58797859
RIY,184,3,2024-06-30T12:46:13.551Z,english_558.wav,0,peel,697,1,0.1,-42.42633216,1.10525313
RIY,184,3,2024-06-30T12:46:13.551Z,english_558.wav,0,peel,697,2,0.2,15.99713578,0.42598769
RIY,184,3,2024-06-30T12:46:13.551Z,english_558.wav,0,peel,697,3,0.3,-33.12568725,0.25629603
RIY,184,3,2024-06-30T12:46:13.551Z,english_558.wav,0,peel,697,4,0.32341667,44.00446366,1.81995896
RIY,185,3,2024-06-30T12:46:13.551Z,english_431.wav,0,peel,395,0,0.0,-28.91437381,1.3282391
RIY,185,3,2024-06-30T12:46:13.551Z,english_431.wav,0,peel,395,1,0.1,30.6479342,1.9405757
RIY,185,3,2024-06-30T12:46:13.551Z,english_431.wav,0,peel,395,2,0.2,41.25713347,1.67607787
RIY,185,3,2024-06-30T12:46:13.551Z,english_431.wav,0,peel,395,3,0.3,9.19018397,0.62213613
RIY,185,3,2024-06-30T12:46:13.551Z,english_431.wav,0,peel,395,4,0.32341667,-61.77590044,0.50881411
RIY,186,3,2024-06-30T12:46:13.551Z,english_963.wav,0,peel,3934,0,0.0,-60.03327616,0.86711865
RIY,186,3,2024-06-30T12:46:13.551Z,english_963.wav,0,peel,3934,1,0.1,-15.51067414,1.69273621
RIY,186,3,2024-06-30T12:46:13.551Z,english_963.wav,0,peel,3934,2,0.2,59.36715957,0.74157302
RIY,186,3,2024-06-30T12:46:13.551Z,english_963.wav,0,peel,3934,3,0.3,-98.70464219,1.73078555
RIY,186,3,2024-06-30T12:46:13.551Z,english_963.wav,0,peel,3934,4,0.32341667,37.26723218,1.37482324
RIY,187,3,2024-06-30T12:46:13.551Z,english_686.wav,0,peel,283,0,0.0,-30.40223154,0.36787347
RIY,187,3,2024-06-30T12:46:13.551Z,english_686.wav,0,peel,283,1,0.1,40.30213926,1.54584144
RIY,187,3,2024-06-30T12:46:13.551Z,english_686.wav,0,peel,283,2,0.2,68.68183252,1.54645212
RIY,187,3,2024-06-30T12:46:13.551Z,english_686.wav,0,peel,283,3,0.3,82.36920372,1.04035585
RIY,187,3,2024-06-30T12:46:13.551Z,english_686.wav,0,peel,283,4,0.32341667,5.8000707,1.51520661
RIY,188,3,2024-06-30T12:46:13.551Z,english_719.wav,0,peel,400,0,0.0,-32.14306232,1.4431753
RIY,188,3,2024-06-30T12:46:13.551Z,english_719.wav,0,peel,400,1,0.1,-81.40439332,0.46175707
RIY,188,3,2024-06-30T12:46:13.551Z,english_719.wav,0,peel,400,2,0.2,-20.1172293,1.86886769
RIY,188,3,2024-06-30T12:46:13.551Z,english_719.wav,0,peel,400,3,0.3,67.63048238,0.67969247
RIY,188,3,2024-06-30T12:46:13.551Z,english_719.wav,0,peel,400,4,0.32341667,50.83305788,1.68151983
RIY,189,3,2024-06-30T12:46:13.551Z,english_266.wav,0,peel,203,0,0.0,16.70772117,0.81064175
RIY,189,3,2024-06-30T12:46:13.551Z,english_266.wav,0,peel,203,1,0.1,-61.82971906,1.48442032
RIY,189,3,2024-06-30T12:46:13.551Z,english_266.wav,0,peel,203,2,0.2,-31.41060896,1.39445033
RIY,189,3,2024-06-30T12:46:13.551Z,english_266.wav,0,peel,203,3,0.3,-8.94045194,1.01594082
RIY,189,3,2024-06-30T12:46:13.551Z,english_266.wav,0,peel,203,4,0.32341667,-27.43066022,0.75934284
RIY,190,3,2024-06-30T12:46:13.551Z,english_552.wav,0,peel,182,0,0.0,-54.22317773,0.14479657
RIY,190,3,2024-06-30T12:46:13.551Z,english_552.wav,0,peel,182,1,0.1,23.75537749,1.96762023
RIY,190,3,2024-06-30T12:46:13.551Z,english_552.wav,0,peel,182,2,0.2,-67.43154965,0.75812729
RIY,190,3,2024-06-30T12:46:13.551Z,english_552.wav,0,peel,182,3,0.3,-83.62242399,0.84420129
RIY,190,3,2024-06-30T12:46:13.551Z,english_552.wav,0,peel,182,4,0.32341667,64.2322812,0.73382384
RIY,191,3,2024-06-30T12:46:13.551Z,english_493.wav,0,peel,586,0,0.0,42.62366846,0.72879325
RIY,191,3,2024-06-30T12:46:13.551Z,english_493.wav,0,peel,586,1,0.1,-24.95330968,1.87742997
RIY,191,3,2024-06-30T12:46:13.551Z,english_493.wav,0,peel,586,2,0.2,82.3526737,1.69463318
RIY,191,3,2024-06-30T12:46:13.551Z,english_493.wav,0,peel,586,3,0.3,53.78370402,0.82529142
RIY,191,3,2024-06-30T12:46:13.551Z,english_493.wav,0,peel,586,4,0.32341667,-52.5410085,0.10126548
RIY,192,3,2024-06-30T12:46:13.551Z,english_753.wav,0,pill,2081,0,0.0,38.61944715,0.75641923
RIY,192,3,2024-06-30T12:46:13.551Z,english_753.wav,0,pill,2081,1,0.1,-76.3398938,1.17320485
RIY,192,3,2024-06-30T12:46:13.551Z,english_753.wav,0,pill,2081,2,0.2,-80.92813522,0.63072958
RIY,192,3,2024-06-30T12:46:13.551Z,english_753.wav,0,pill,2081,3,0.3,-16.48508052,1.96252246
RIY,192,3,2024-06-30T12:46:13.551Z,english_753.wav,0,pill,2081,4,0.32341667,16.23487259,1.97125296
RIY,193,3,2024-06-30T12:46:13.551Z,english_489.wav,0,pill,771,0,0.0,5.7057461,0.60142671
RIY,193,3,2024-06-30T12:46:13.551Z,english_489.wav,0,pill,771,1,0.1,-88.87009038,1.38499056
RIY,193,3,2024-06-30T12:46:13.551Z,english_489.wav,0,pill,771,2,0.2,73.69789316,0.38073994
RIY,193,3,2024-06-30T12:46:13.551Z,english_489.wav,0,pill,771,3,0.3,8.66804208,0.90212706
RIY,193,3,2024-06-30T12:46:13.551Z,english_489.wav,0,pill,771,4,0.32341667,-19.53009002,1.00729778
RIY,194,3,2024-06-30T12:46:13.551Z,english_671.wav,0,peel,2614,0,0.0,32.91930287,1.74193101
RIY,194,3,2024-06-30T12:46:13.551Z,english_671.wav,0,peel,2614,1,0.1,6.16976114,0.51820224
RIY,194,3,2024-06-30T12:46:13.551Z,english_671.wav,0,peel,2614,2,0.2,-34.00390264,0.07120536
RIY,194,3,2024-06-30T12:46:13.551Z,english_671.wav,0,peel,2614,3,0.3,18.374511,0.3828633
RIY,194,3,2024-06-30T12:46:13.551Z,english_671.wav,0,peel,2614,4,0.32341667,-2.98713897,1.2592669
RIY,195,3,2024-06-30T12:46:13.551Z,english_37.wav,0,peel,2310,0,0.0,-5.54999706,1.12257854
RIY,195,3,2024-06-30T12:46:13.551Z,english_37.wav,0,peel,2310,1,0.1,23.22206304,1.8669628
RIY,195,3,2024-06-30T12:46:13.551Z,english_37.wav,0,peel,2310,2,0.2,-57.36481589,0.39386712
RIY,195,3,2024-06-30T12:46:13.551Z,english_37.wav,0,peel,2310,3,0.3,58.0578648,1.21765674
RIY,195,3,2024-06-30T12:46:13.551Z,english_37.wav,0,peel,2310,4,0.32341667,66.03280024,0.74428952
RIY,196,3,2024-06-30T12:46:13.551Z,english_253.wav,0,peel,808,0,0.0,12.9108365,0.20464585
RIY,196,3,2024-06-30T12:46:13.551Z,english_253.wav,0,peel,808,1,0.1,-70.83420593,1.97412558
RIY,196,3,2024-06-30T12:46:13.551Z,english_253.wav,0,peel,808,2,0.2,-6.13796162,1.12401504
RIY,196,3,2024-06-30T12:46:13.551Z,english_253.wav,0,peel,808,3,0.3,38.03543053,1.75851492
RIY,196,3,2024-06-30T12:46:13.551Z,english_253.wav,0,peel,808,4,0.32341667,-61.21147917,0.77953826
RIY,197,3,2024-06-30T12:46:13.551Z,english_222.wav,0,peel,611,0,0.0,-5.8882644,0.97478352
RIY,197,3,2024-06-30T12:46:13.551Z,english_222.wav,0,peel,611,1,0.1,-15.4334302,1.79573252
RIY,197,3,2024-06-30T12:46:13.551Z,english_222.wav,0,peel,611,2,0.2,-39.50203868,1.71948726
RIY,197,3,2024-06-30T12:46:13.551Z,english_222.wav,0,peel,611,3,0.3,67.79027175,0.41699719
RIY,197,3,2024-06-30T12:46:13.551Z,english_222.wav,0,peel,611,4,0.32341667,-43.17344259,0.26315099
RIY,198,3,2024-06-30T12:46:13.551Z,english_728.wav,0,pill,779,0,0.0,-6.4565561,1.7247049
RIY,198,3,2024-06-30T12:46:13.551Z,english_728.wav,0,pill,779,1,0.1,2.02882612,1.95158608
RIY,198,3,2024-06-30T12:46:13.551Z,english_728.wav,0,pill,779,2,0.2,-40.29513079,0.21085377
RIY,198,3,2024-06-30T12:46:13.551Z,english_728.wav,0,pill,779,3,0.3,-29.37287389,0.85434083
RIY,198,3,2024-06-30T12:46:13.551Z,english_728.wav,0,pill,779,4,0.32341667,-32.17490136,1.52436666
RIY,199,3,2024-06-30T12:46:13.551Z,english_620.wav,0,peel,670,0,0.0,-92.9203055,0.0,0.43561856
RIY,199,3,2024-06-30T12:46:13.551Z,english_620.wav,0,peel,670,1,0.1,26.7086056,0.1,0.24535421
RIY,199,3,2024-06-30T12:46:13.551Z,english_620.wav,0,peel,670,2,0.2,89.1883135,0.2,1.34102831
RIY,199,3,2024-06-30T12:46:13.551Z,english_620.wav,0,peel,670,3,0.3,-0.0557738795,0.3,1.80103954
RIY,199,3,2024-06-30T12:46:13.551Z,english_620.wav,0,peel,670,4,0.323416667,2.9787243,0.32341667,0.21248525
RIY,200,4,2024-06-30T12:46:13.551Z,english_469.wav,0,peel,387,0,0.0,-12.92877168,0.59007764
RIY,200,4,2024-06-30T12:46:13.551Z,english_469.wav,0,peel,387,1,0.1,-67.35237443,1.36577084
RIY,200,4,2024-06-30T12:46:13.551Z,english_469.wav,0,peel,387,2,0.2,-70.76493751,1.86337992
RIY,200,4,2024-06-30T12:46:13.551Z,english_469.wav,0,peel,387,3,0.3,86.785725,1.85233296
RIY,200,4,2024-06-30T12:46:13.551Z,english_469.wav,0,peel,387,4,0.32341667,-36.33255728,1.108986
RIY,201,4,2024-06-30T12:46:13.551Z,english_735.wav,0,pill,485,0,0.0,51.40973306,0.29099813
RIY,201,4,2024-06-30T12:46:13.551Z,english_735.wav,0,pill,485,1,0.1,-5.42867159,1.62833375
RIY,201,4,2024-06-30T12:46:13.551Z,english_735.wav,0,pill,485,2,0.2,13.71146629,0.32849247
RIY,201,4,2024-06-30T12:46:13.551Z,english_735.wav,0,pill,485,3,0.3,-14.17202169,0.46991549
RIY,201,4,2024-06-30T12:46:13.551Z,english_735.wav,0,pill,485,4,0.32341667,14.98699592,0.51625305
RIY,202,4,2024-06-30T12:46:13.551Z,english_767.wav,0,peel,529,0,0.0,29.63321135,0.17563718
RIY,202,4,2024-06-30T12:46:13.551Z,english_767.wav,0,peel,529,1,0.1,-31.63783795,0.61981002
RIY,202,4,2024-06-30T12:46:13.551Z,english_767.wav,0,peel,529,2,0.2,56.53254366,1.38773128
RIY,202,4,2024-06-30T12:46:13.551Z,english_767.wav,0,peel,529,3,0.3,52.69149806,1.37795514
RIY,202,4,2024-06-30T12:46:13.551Z,english_767.wav,0,peel,529,4,0.32341667,-0.8536295,1.97315338
RIY,203,4,2024-06-30T12:46:13.551Z,english_824.wav,0,peel,761,0,0.0,80.46503136,1.43025592
RIY,203,4,2024-06-30T12:46:13.551Z,english_824.wav,0,peel,761,1,0.1,-48.668347,0.89138167
RIY,203,4,2024-06-30T12:46:13.551Z,english_824.wav,0,peel,761,2,0.2,37.27765876,1.91281619
RIY,203,4,2024-06-30T12:46:13.551Z,english_824.wav,0,peel,761,3,0.3,-91.29945309,0.71335031
RIY,203,4,2024-06-30T12:46:13.551Z,english_824.wav,0,peel,761,4,0.32341667,14.46507007,0.89780818
RIY,204,4,2024-06-30T12:46:13.551Z,english_817.wav,0,peel,823,0,0.0,58.06319333,0.77394069
RIY,204,4,2024-06-30T12:46:13.551Z,english_817.wav,0,peel,823,1,0.1,0.91206114,0.81778066
RIY,204,4,2024-06-30T12:46:13.551Z,english_817.wav,0,peel,823,2,0.2,-27.80824757,1.48752315
RIY,204,4,2024-06-30T12:46:13.551Z,english_817.wav,0,peel,823,3,0.3,-73.7491051,0.41888886
RIY,204,4,2024-06-30T12:46:13.551Z,english_817.wav,0,peel,823,4,0.32341667,69.75698508,0.93012443
RIY,205,4,2024-06-30T12:46:13.551Z,english_487.wav,0,pill,484,0,0.0,57.34447058,0.27098038
RIY,205,4,2024-06-30T12:46:13.551Z,english_487.wav,0,pill,484,1,0.1,-38.59224607,1.03105808
RIY,205,4,2024-06-30T12:46:13.551Z,english_487.wav,0,pill,484,2,0.2,-30.93562102,0.17810411
RIY,205,4,2024-06-30T12:46:13.551Z,english_487.wav,0,pill,484,3,0.3,-21.39452484,0.81608244
RIY,205,4,2024-06-30T12:46:13.551Z,english_487.wav,0,pill,484,4,0.32341667,-98.93333205,1.1056793
RIY,206,4,2024-06-30T12:46:13.551Z,english_930.wav,0,pill,1384,0,0.0,-52.65701122,0.60066533
RIY,206,4,2024-06-30T12:46:13.551Z,english_930.wav,0,pill,1384,1,0.1,-24.36484499,1.33650528
RIY,206,4,2024-06-30T12:46:13.551Z,english_930.wav,0,pill,1384,2,0.2,4.10813066,0.15979886
RIY,206,4,2024-06-30T12:46:13.551Z,english_930.wav,0,pill,1384,3,0.3,93.74919515,1.46288505
RIY,206,4,2024-06-30T12:46:13.551Z,english_930.wav,0,pill,1384,4,0.32341667,66.31726896,0.93993915
RIY,207,4,2024-06-30T12:46:13.551Z,english_121.wav,0,peel,267,0,0.0,-30.24687583,0.23154591
RIY,207,4,2024-06-30T12:46:13.551Z,english_121.wav,0,peel,267,1,0.1,-28.09260766,0.6680997
RIY,207,4,2024-06-30T12:46:13.551Z,english_121.wav,0,peel,267,2,0.2,-29.54951374,1.79539672
RIY,207,4,2024-06-30T12:46:13.551Z,english_121.wav,0,peel,267,3,0.3,-37.35286973,0.57554739
RIY,207,4,2024-06-30T12:46:13.551Z,english_121.wav,0,peel,267,4,0.32341667,58.68529554,1.8709958
RIY,208,4,2024-06-30T12:46:13.551Z,english_321.wav,0,peel,286,0,0.0,2.07721816,1.69623759
RIY,208,4,2024-06-30T12:46:13.551Z,english_321.wav,0,peel,286,1,0.1,59.48735819,1.35736687
RIY,208,4,2024-06-30T12:46:13.551Z,english_321.wav,0,peel,286,2,0.2,64.78149714,1.92920457
RIY,208,4,2024-06-30T12:46:13.551Z,english_321.wav,0,peel,286,3,0.3,65.58393414,0.66559077
RIY,208,4,2024-06-30T12:46:13.551Z,english_321.wav,0,peel,286,4,0.32341667,14.66673939,1.66523208
RIY,209,4,2024-06-30T12:46:13.551Z,english_829.wav,0,peel,942,0,0.0,60.30417439,0.94286345
RIY,209,4,2024-06-30T12:46:13.551Z,english_829.wav,0,peel,942,1,0.1,-26.87459656,0.76756767
RIY,209,4,2024-06-30T12:46:13.551Z,english_829.wav,0,peel,942,2,0.2,59.05286014,1.50609211
RIY,209,4,2024-06-30T12:46:13.551Z,english_829.wav,0,peel,942,3,0.3,-38.64739237,0.33518122
RIY,209,4,2024-06-30T12:46:13.551Z,english_829.wav,0,peel,942,4,0.32341667,68.61732932,1.40687349
RIY,210,4,2024-06-30T12:46:13.551Z,english_762.wav,0,pill,959,0,0.0,-56.40971946,1.43822993
RIY,210,4,2024-06-30T12:46:13.551Z,english_762.wav,0,pill,959,1,0.1,-9.09046034,1.11776807
RIY,210,4,2024-06-30T12:46:13.551Z,english_762.wav,0,pill,959,2,0.2,20.98892014,0.71531135
RIY,210,4,2024-06-30T12:46:13.551Z,english_762.wav,0,pill,959,3,0.3,-66.43296232,0.54997993
RIY,210,4,2024-06-30T12:46:13.551Z,english_762.wav,0,pill,959,4,0.32341667,-91.78640069,0.26897274
RIY,211,4,2024-06-30T12:46:13.551Z,english_712.wav,0,pill,507,0,0.0,-69.83835125,1.15670948
RIY,211,4,2024-06-30T12:46:13.551Z,english_712.wav,0,pill,507,1,0.1,-89.98535393,0.40201287
RIY,211,4,2024-06-30T12:46:13.551Z,english_712.wav,0,pill,507,2,0.2,47.33040466,0.06412681
RIY,211,4,2024-06-30T12:46:13.551Z,english_712.wav,0,pill,507,3,0.3,-32.03166139,1.50973484
RIY,211,4,2024-06-30T12:46:13.551Z,english_712.wav,0,pill,507,4,0.32341667,-5.29851616,1.18377017
RIY,212,4,2024-06-30T12:46:13.551Z,english_81.wav,0,peel,371,0,0.0,-8.99652005,1.6890162
RIY,212,4,2024-06-30T12:46:13.551Z,english_81.wav,0,peel,371,1,0.1,37.2959996,1.86826101
RIY,212,4,2024-06-30T12:46:13.551Z,english_81.wav,0,peel,371,2,0.2,56.49217416,0.68929954
RIY,212,4,2024-06-30T12:46:13.551Z,english_81.wav,0,peel,371,3,0.3,99.31521879,0.22383451
RIY,212,4,2024-06-30T12:46:13.551Z,english_81.wav,0,peel,371,4,0.32341667,-25.36881215,0.930773
RIY,213,4,2024-06-30T12:46:13.551Z,english_309.wav,0,pill,1219,0,0.0,59.8258624,0.58100331
RIY,213,4,2024-06-30T12:46:13.551Z,english_309.wav,0,pill,1219,1,0.1,73.70427758,0.81024997
RIY,213,4,2024-06-30T12:46:13.551Z,english_309.wav,0,pill,1219,2,0.2,-8.71125849,0.10827203
RIY,213,4,2024-06-30T12:46:13.551Z,english_309.wav,0,pill,1219,3,0.3,-86.6882155,0.09670208
RIY,213,4,2024-06-30T12:46:13.551Z,english_309.wav,0,pill,1219,4,0.32341667,-90.77340978,1.53063904
RIY,214,4,2024-06-30T12:46:13.551Z,english_357.wav,0,pill,1321,0,0.0,76.35734026,1.14590216
RIY,214,4,2024-06-30T12:46:13.551Z,english_357.wav,0,pill,1321,1,0.1,-86.84267031,0.53472093
RIY,214,4,2024-06-30T12:46:13.551Z,english_357.wav,0,pill,1321,2,0.2,-64.6676431,0.54723503
RIY,214,4,2024-06-30T12:46:13.551Z,english_357.wav,0,pill,1321,3,0.3,-69.9472318,1.29334783
RIY,214,4,2024-06-30T12:46:13.551Z,english_357.wav,0,pill,1321,4,0.32341667,87.84988665,1.74725804
RIY,215,4,2024-06-30T12:46:13.551Z,english_419.wav,0,pill,801,0,0.0,74.10926047,0.0,0.423980314
RIY,215,4,2024-06-30T12:46:13.551Z,english_419.wav,0,pill,801,1,0.1,-50.44969368,0.1,1.12483838
RIY,215,4,2024-06-30T12:46:13.551Z,english_419.wav,0,pill,801,2,0.2,-38.37630765,0.2,0.473465541
RIY,215,4,2024-06-30T12:46:13.551Z,english_419.wav,0,pill,801,3,0.3,-57.54140712,0.3,0.000838613621
RIY,215,4,2024-06-30T12:46:13.551Z,english_419.wav,0,pill,801,4,0.32341667,48.12555486,0.323416667,0.389285402
RIY,216,4,2024-06-30T12:46:13.551Z,english_635.wav,0,peel,2164,0,0.0,27.7169436,1.98702335
RIY,216,4,2024-06-30T12:46:13.551Z,english_635.wav,0,peel,2164,1,0.1,-44.8292656,1.27737447
