subj,trial,block,date,stim,stim_order,response,rt,age,english,language,sex,param_index,segment,pitch,stretch
SAF,0,0,2024-10-15T04:08:19.027Z,english_860.wav,0,pill,4199,39,5,Japanese,m,0,0.0,10.25066679,1.47817545
SAF,0,0,2024-10-15T04:08:19.027Z,english_860.wav,0,pill,4199,39,5,Japanese,m,1,0.1,55.87909831,1.32859058
SAF,0,0,2024-10-15T04:08:19.027Z,english_860.wav,0,pill,4199,39,5,Japanese,m,2,0.2,81.09373959,0.99201561
SAF,0,0,2024-10-15T04:08:19.027Z,english_860.wav,0,pill,4199,39,5,Japanese,m,3,0.3,15.52286826,0.3312489
SAF,0,0,2024-10-15T04:08:19.027Z,english_860.wav,0,pill,4199,39,5,Japanese,m,4,0.32341667,58.18702512,0.66001743
SAF,1,0,2024-10-15T04:08:19.027Z,english_409.wav,0,pill,4559,39,5,Japanese,m,0,0.0,-24.04105399,0.29560797
SAF,1,0,2024-10-15T04:08:19.027Z,english_409.wav,0,pill,4559,39,5,Japanese,m,1,0.1,-26.67389605,1.53762848
SAF,1,0,2024-10-15T04:08:19.027Z,english_409.wav,0,pill,4559,39,5,Japanese,m,2,0.2,23.9966363,0.34602898
SAF,1,0,2024-10-15T04:08:19.027Z,english_409.wav,0,pill,4559,39,5,Japanese,m,3,0.3,16.61705293,1.21824435
SAF,1,0,2024-10-15T04:08:19.027Z,english_409.wav,0,pill,4559,39,5,Japanese,m,4,0.32341667,73.09980407,1.55330233
SAF,2,0,2024-10-15T04:08:19.027Z,english_850.wav,0,pill,5183,39,5,Japanese,m,0,0.0,79.79173837,1.46721922
SAF,2,0,2024-10-15T04:08:19.027Z,english_850.wav,0,pill,5183,39,5,Japanese,m,1,0.1,-44.24877139,0.57242606
SAF,2,0,2024-10-15T04:08:19.027Z,english_850.wav,0,pill,5183,39,5,Japanese,m,2,0.2,74.77623955,0.15597525
SAF,2,0,2024-10-15T04:08:19.027Z,english_850.wav,0,pill,5183,39,5,Japanese,m,3,0.3,-86.32612653,1.3358867
SAF,2,0,2024-10-15T04:08:19.027Z,english_850.wav,0,pill,5183,39,5,Japanese,m,4,0.32341667,-11.10230867,1.14618682
SAF,3,0,2024-10-15T04:08:19.027Z,english_626.wav,0,pill,4220,39,5,Japanese,m,0,0.0,4.25415757,0.7037323
SAF,3,0,2024-10-15T04:08:19.027Z,english_626.wav,0,pill,4220,39,5,Japanese,m,1,0.1,-41.27415217,1.26912647
SAF,3,0,2024-10-15T04:08:19.027Z,english_626.wav,0,pill,4220,39,5,Japanese,m,2,0.2,-74.74598363,0.17760594
SAF,3,0,2024-10-15T04:08:19.027Z,english_626.wav,0,pill,4220,39,5,Japanese,m,3,0.3,-15.94741517,1.12963497
SAF,3,0,2024-10-15T04:08:19.027Z,english_626.wav,0,pill,4220,39,5,Japanese,m,4,0.32341667,43.51897949,0.85087029
SAF,4,0,2024-10-15T04:08:19.027Z,english_509.wav,0,peel,2845,39,5,Japanese,m,0,0.0,58.37136146,0.93627824
SAF,4,0,2024-10-15T04:08:19.027Z,english_509.wav,0,peel,2845,39,5,Japanese,m,1,0.1,-30.59588084,1.268957
SAF,4,0,2024-10-15T04:08:19.027Z,english_509.wav,0,peel,2845,39,5,Japanese,m,2,0.2,-42.62400689,0.87018438
SAF,4,0,2024-10-15T04:08:19.027Z,english_509.wav,0,peel,2845,39,5,Japanese,m,3,0.3,58.46483968,1.67134466
SAF,4,0,2024-10-15T04:08:19.027Z,english_509.wav,0,peel,2845,39,5,Japanese,m,4,0.32341667,44.09610342,1.96584472
SAF,5,0,2024-10-15T04:08:19.027Z,english_683.wav,0,pill,2954,39,5,Japanese,m,0,0.0,-73.37543508,1.70409633
SAF,5,0,2024-10-15T04:08:19.027Z,english_683.wav,0,pill,2954,39,5,Japanese,m,1,0.1,66.4080647,1.25556383
SAF,5,0,2024-10-15T04:08:19.027Z,english_683.wav,0,pill,2954,39,5,Japanese,m,2,0.2,46.46812351,0.87554738
SAF,5,0,2024-10-15T04:08:19.027Z,english_683.wav,0,pill,2954,39,5,Japanese,m,3,0.3,71.67755016,1.32863005
SAF,5,0,2024-10-15T04:08:19.027Z,english_683.wav,0,pill,2954,39,5,Japanese,m,4,0.32341667,2.86253031,0.20364682
SAF,6,0,2024-10-15T04:08:19.027Z,english_49.wav,0,peel,2355,39,5,Japanese,m,0,0.0,-6.08822071,0.36436507
SAF,6,0,2024-10-15T04:08:19.027Z,english_49.wav,0,peel,2355,39,5,Japanese,m,1,0.1,-56.0367764,1.66948988
SAF,6,0,2024-10-15T04:08:19.027Z,english_49.wav,0,peel,2355,39,5,Japanese,m,2,0.2,-51.95657584,1.20554654
SAF,6,0,2024-10-15T04:08:19.027Z,english_49.wav,0,peel,2355,39,5,Japanese,m,3,0.3,-59.93208112,0.31084089
SAF,6,0,2024-10-15T04:08:19.027Z,english_49.wav,0,peel,2355,39,5,Japanese,m,4,0.32341667,-7.85847813,0.44223059
SAF,7,0,2024-10-15T04:08:19.027Z,english_39.wav,0,pill,1358,39,5,Japanese,m,0,0.0,28.0167149,1.3269735
SAF,7,0,2024-10-15T04:08:19.027Z,english_39.wav,0,pill,1358,39,5,Japanese,m,1,0.1,0.73047565,0.59121622
SAF,7,0,2024-10-15T04:08:19.027Z,english_39.wav,0,pill,1358,39,5,Japanese,m,2,0.2,-55.83763262,0.32613901
SAF,7,0,2024-10-15T04:08:19.027Z,english_39.wav,0,pill,1358,39,5,Japanese,m,3,0.3,-59.78026112,1.39661139
SAF,7,0,2024-10-15T04:08:19.027Z,english_39.wav,0,pill,1358,39,5,Japanese,m,4,0.32341667,81.1603589,0.76065887
SAF,8,0,2024-10-15T04:08:19.027Z,english_708.wav,0,pill,1795,39,5,Japanese,m,0,0.0,-27.19248895,0.74061838
SAF,8,0,2024-10-15T04:08:19.027Z,english_708.wav,0,pill,1795,39,5,Japanese,m,1,0.1,84.25795725,1.13599963
SAF,8,0,2024-10-15T04:08:19.027Z,english_708.wav,0,pill,1795,39,5,Japanese,m,2,0.2,-19.19551503,1.10086254
SAF,8,0,2024-10-15T04:08:19.027Z,english_708.wav,0,pill,1795,39,5,Japanese,m,3,0.3,29.88012033,0.53054382
SAF,8,0,2024-10-15T04:08:19.027Z,english_708.wav,0,pill,1795,39,5,Japanese,m,4,0.32341667,46.0858662,1.51974387
SAF,9,0,2024-10-15T04:08:19.027Z,english_902.wav,0,pill,2108,39,5,Japanese,m,0,0.0,-4.27617126,0.16330526
SAF,9,0,2024-10-15T04:08:19.027Z,english_902.wav,0,pill,2108,39,5,Japanese,m,1,0.1,-5.01127315,0.62492789
SAF,9,0,2024-10-15T04:08:19.027Z,english_902.wav,0,pill,2108,39,5,Japanese,m,2,0.2,83.22080084,1.08638924
SAF,9,0,2024-10-15T04:08:19.027Z,english_902.wav,0,pill,2108,39,5,Japanese,m,3,0.3,77.56473772,1.61764227
SAF,9,0,2024-10-15T04:08:19.027Z,english_902.wav,0,pill,2108,39,5,Japanese,m,4,0.32341667,-13.02741535,1.72075309
SAF,10,0,2024-10-15T04:08:19.027Z,english_185.wav,0,pill,2472,39,5,Japanese,m,0,0.0,-67.20213277,0.62417316
SAF,10,0,2024-10-15T04:08:19.027Z,english_185.wav,0,pill,2472,39,5,Japanese,m,1,0.1,-70.91279736,1.12829576
SAF,10,0,2024-10-15T04:08:19.027Z,english_185.wav,0,pill,2472,39,5,Japanese,m,2,0.2,11.55913655,0.70978518
SAF,10,0,2024-10-15T04:08:19.027Z,english_185.wav,0,pill,2472,39,5,Japanese,m,3,0.3,-88.76292025,0.02882377
SAF,10,0,2024-10-15T04:08:19.027Z,english_185.wav,0,pill,2472,39,5,Japanese,m,4,0.32341667,-25.67800099,0.52970381
SAF,11,0,2024-10-15T04:08:19.027Z,english_562.wav,0,pill,1328,39,5,Japanese,m,0,0.0,-40.22672309,0.64031882
SAF,11,0,2024-10-15T04:08:19.027Z,english_562.wav,0,pill,1328,39,5,Japanese,m,1,0.1,77.961849,0.7637006
SAF,11,0,2024-10-15T04:08:19.027Z,english_562.wav,0,pill,1328,39,5,Japanese,m,2,0.2,25.52463525,0.87632482
SAF,11,0,2024-10-15T04:08:19.027Z,english_562.wav,0,pill,1328,39,5,Japanese,m,3,0.3,84.62788358,0.98972612
SAF,11,0,2024-10-15T04:08:19.027Z,english_562.wav,0,pill,1328,39,5,Japanese,m,4,0.32341667,-53.67427145,0.74010285
SAF,12,0,2024-10-15T04:08:19.027Z,english_203.wav,0,peel,5180,39,5,Japanese,m,0,0.0,-22.28277813,1.31475846
SAF,12,0,2024-10-15T04:08:19.027Z,english_203.wav,0,peel,5180,39,5,Japanese,m,1,0.1,13.21695477,1.08922412
SAF,12,0,2024-10-15T04:08:19.027Z,english_203.wav,0,peel,5180,39,5,Japanese,m,2,0.2,63.23651974,0.55450355
SAF,12,0,2024-10-15T04:08:19.027Z,english_203.wav,0,peel,5180,39,5,Japanese,m,3,0.3,-20.14830746,1.72034007
SAF,12,0,2024-10-15T04:08:19.027Z,english_203.wav,0,peel,5180,39,5,Japanese,m,4,0.32341667,-78.55276631,0.92481053
SAF,13,0,2024-10-15T04:08:19.027Z,english_539.wav,0,peel,3153,39,5,Japanese,m,0,0.0,-67.77604021,0.83598486
SAF,13,0,2024-10-15T04:08:19.027Z,english_539.wav,0,peel,3153,39,5,Japanese,m,1,0.1,61.22104537,1.51877163
SAF,13,0,2024-10-15T04:08:19.027Z,english_539.wav,0,peel,3153,39,5,Japanese,m,2,0.2,38.09257369,1.73578169
SAF,13,0,2024-10-15T04:08:19.027Z,english_539.wav,0,peel,3153,39,5,Japanese,m,3,0.3,-20.76875757,0.52680037
SAF,13,0,2024-10-15T04:08:19.027Z,english_539.wav,0,peel,3153,39,5,Japanese,m,4,0.32341667,-47.71444482,1.99278149
SAF,14,0,2024-10-15T04:08:19.027Z,english_554.wav,0,peel,2389,39,5,Japanese,m,0,0.0,9.57607907,1.93967122
SAF,14,0,2024-10-15T04:08:19.027Z,english_554.wav,0,peel,2389,39,5,Japanese,m,1,0.1,29.37398753,1.74360796
SAF,14,0,2024-10-15T04:08:19.027Z,english_554.wav,0,peel,2389,39,5,Japanese,m,2,0.2,-58.71210794,0.37945994
SAF,14,0,2024-10-15T04:08:19.027Z,english_554.wav,0,peel,2389,39,5,Japanese,m,3,0.3,-10.7927705,1.56347046
SAF,14,0,2024-10-15T04:08:19.027Z,english_554.wav,0,peel,2389,39,5,Japanese,m,4,0.32341667,21.8128915,1.38248676
SAF,15,0,2024-10-15T04:08:19.027Z,english_604.wav,0,pill,3091,39,5,Japanese,m,0,0.0,11.37360706,1.9162078
SAF,15,0,2024-10-15T04:08:19.027Z,english_604.wav,0,pill,3091,39,5,Japanese,m,1,0.1,-50.20832577,0.59247461
SAF,15,0,2024-10-15T04:08:19.027Z,english_604.wav,0,pill,3091,39,5,Japanese,m,2,0.2,-34.39542541,1.79911242
SAF,15,0,2024-10-15T04:08:19.027Z,english_604.wav,0,pill,3091,39,5,Japanese,m,3,0.3,-9.87560088,0.998763
SAF,15,0,2024-10-15T04:08:19.027Z,english_604.wav,0,pill,3091,39,5,Japanese,m,4,0.32341667,34.71454295,0.76768671
SAF,16,0,2024-10-15T04:08:19.027Z,english_905.wav,0,pill,1627,39,5,Japanese,m,0,0.0,73.76258642,1.30259847
SAF,16,0,2024-10-15T04:08:19.027Z,english_905.wav,0,pill,1627,39,5,Japanese,m,1,0.1,49.84186991,0.15786419
SAF,16,0,2024-10-15T04:08:19.027Z,english_905.wav,0,pill,1627,39,5,Japanese,m,2,0.2,-84.55275191,0.47562292
SAF,16,0,2024-10-15T04:08:19.027Z,english_905.wav,0,pill,1627,39,5,Japanese,m,3,0.3,70.45460649,1.69272047
SAF,16,0,2024-10-15T04:08:19.027Z,english_905.wav,0,pill,1627,39,5,Japanese,m,4,0.32341667,-84.87734561,1.28570309
SAF,17,0,2024-10-15T04:08:19.027Z,english_988.wav,0,pill,2650,39,5,Japanese,m,0,0.0,23.53561789,0.18772999
SAF,17,0,2024-10-15T04:08:19.027Z,english_988.wav,0,pill,2650,39,5,Japanese,m,1,0.1,39.09545525,0.71537172
SAF,17,0,2024-10-15T04:08:19.027Z,english_988.wav,0,pill,2650,39,5,Japanese,m,2,0.2,-32.2225044,0.50944864
SAF,17,0,2024-10-15T04:08:19.027Z,english_988.wav,0,pill,2650,39,5,Japanese,m,3,0.3,5.54449519,0.59930705
SAF,17,0,2024-10-15T04:08:19.027Z,english_988.wav,0,pill,2650,39,5,Japanese,m,4,0.32341667,-94.58480047,1.43881296
SAF,18,0,2024-10-15T04:08:19.027Z,english_270.wav,0,pill,984,39,5,Japanese,m,0,0.0,-54.89328754,1.02368747
SAF,18,0,2024-10-15T04:08:19.027Z,english_270.wav,0,pill,984,39,5,Japanese,m,1,0.1,-41.12345733,1.74263534
SAF,18,0,2024-10-15T04:08:19.027Z,english_270.wav,0,pill,984,39,5,Japanese,m,2,0.2,79.03328036,0.45342006
SAF,18,0,2024-10-15T04:08:19.027Z,english_270.wav,0,pill,984,39,5,Japanese,m,3,0.3,-87.71335894,1.29911503
SAF,18,0,2024-10-15T04:08:19.027Z,english_270.wav,0,pill,984,39,5,Japanese,m,4,0.32341667,-48.20373708,0.95859349
SAF,19,0,2024-10-15T04:08:19.027Z,english_426.wav,0,pill,1156,39,5,Japanese,m,0,0.0,84.66887763,0.58495982
SAF,19,0,2024-10-15T04:08:19.027Z,english_426.wav,0,pill,1156,39,5,Japanese,m,1,0.1,6.08176803,0.31710055
SAF,19,0,2024-10-15T04:08:19.027Z,english_426.wav,0,pill,1156,39,5,Japanese,m,2,0.2,90.82211143,1.7123379
SAF,19,0,2024-10-15T04:08:19.027Z,english_426.wav,0,pill,1156,39,5,Japanese,m,3,0.3,42.04787562,1.38911617
SAF,19,0,2024-10-15T04:08:19.027Z,english_426.wav,0,pill,1156,39,5,Japanese,m,4,0.32341667,-40.19306584,1.84862951
SAF,20,0,2024-10-15T04:08:19.027Z,english_266.wav,0,pill,1981,39,5,Japanese,m,0,0.0,16.70772117,0.81064175
SAF,20,0,2024-10-15T04:08:19.027Z,english_266.wav,0,pill,1981,39,5,Japanese,m,1,0.1,-61.82971906,1.48442032
SAF,20,0,2024-10-15T04:08:19.027Z,english_266.wav,0,pill,1981,39,5,Japanese,m,2,0.2,-31.41060896,1.39445033
SAF,20,0,2024-10-15T04:08:19.027Z,english_266.wav,0,pill,1981,39,5,Japanese,m,3,0.3,-8.94045194,1.01594082
SAF,20,0,2024-10-15T04:08:19.027Z,english_266.wav,0,pill,1981,39,5,Japanese,m,4,0.32341667,-27.43066022,0.75934284
SAF,21,0,2024-10-15T04:08:19.027Z,english_256.wav,0,pill,707,39,5,Japanese,m,0,0.0,22.60769813,1.84037168
SAF,21,0,2024-10-15T04:08:19.027Z,english_256.wav,0,pill,707,39,5,Japanese,m,1,0.1,-95.01444593,0.47687766
SAF,21,0,2024-10-15T04:08:19.027Z,english_256.wav,0,pill,707,39,5,Japanese,m,2,0.2,-19.91310746,0.85339151
SAF,21,0,2024-10-15T04:08:19.027Z,english_256.wav,0,pill,707,39,5,Japanese,m,3,0.3,-6.39209363,0.75097161
SAF,21,0,2024-10-15T04:08:19.027Z,english_256.wav,0,pill,707,39,5,Japanese,m,4,0.32341667,24.02209282,1.98695073
SAF,22,0,2024-10-15T04:08:19.027Z,english_440.wav,0,pill,852,39,5,Japanese,m,0,0.0,44.70308901,0.0,1.51497438
SAF,22,0,2024-10-15T04:08:19.027Z,english_440.wav,0,pill,852,39,5,Japanese,m,1,0.1,-88.0257567,0.1,1.05972447
SAF,22,0,2024-10-15T04:08:19.027Z,english_440.wav,0,pill,852,39,5,Japanese,m,2,0.2,1.19893433,0.2,0.590820378
SAF,22,0,2024-10-15T04:08:19.027Z,english_440.wav,0,pill,852,39,5,Japanese,m,3,0.3,19.45485395,0.3,0.680586803
SAF,22,0,2024-10-15T04:08:19.027Z,english_440.wav,0,pill,852,39,5,Japanese,m,4,0.32341667,13.00088222,0.323416667,0.000618341324
SAF,23,0,2024-10-15T04:08:19.027Z,english_257.wav,0,peel,2236,39,5,Japanese,m,0,0.0,-68.31428674,1.40239735
SAF,23,0,2024-10-15T04:08:19.027Z,english_257.wav,0,peel,2236,39,5,Japanese,m,1,0.1,-13.90908686,1.49673114
SAF,23,0,2024-10-15T04:08:19.027Z,english_257.wav,0,peel,2236,39,5,Japanese,m,2,0.2,54.08743226,1.07658057
SAF,23,0,2024-10-15T04:08:19.027Z,english_257.wav,0,peel,2236,39,5,Japanese,m,3,0.3,-42.73693867,0.27427112
SAF,23,0,2024-10-15T04:08:19.027Z,english_257.wav,0,peel,2236,39,5,Japanese,m,4,0.32341667,-1.03846516,1.90516482
SAF,24,0,2024-10-15T04:08:19.027Z,english_339.wav,0,pill,1527,39,5,Japanese,m,0,0.0,-58.67599578,0.13141934
SAF,24,0,2024-10-15T04:08:19.027Z,english_339.wav,0,pill,1527,39,5,Japanese,m,1,0.1,-13.30258388,0.16133177
SAF,24,0,2024-10-15T04:08:19.027Z,english_339.wav,0,pill,1527,39,5,Japanese,m,2,0.2,-52.40820381,1.13500643
SAF,24,0,2024-10-15T04:08:19.027Z,english_339.wav,0,pill,1527,39,5,Japanese,m,3,0.3,11.33062491,0.98717522
SAF,24,0,2024-10-15T04:08:19.027Z,english_339.wav,0,pill,1527,39,5,Japanese,m,4,0.32341667,9.6385593,0.10332776
SAF,25,0,2024-10-15T04:08:19.027Z,english_870.wav,0,pill,1499,39,5,Japanese,m,0,0.0,-85.66751388,1.70746054
SAF,25,0,2024-10-15T04:08:19.027Z,english_870.wav,0,pill,1499,39,5,Japanese,m,1,0.1,30.55194498,0.68953906
SAF,25,0,2024-10-15T04:08:19.027Z,english_870.wav,0,pill,1499,39,5,Japanese,m,2,0.2,-98.28008273,1.62274852
SAF,25,0,2024-10-15T04:08:19.027Z,english_870.wav,0,pill,1499,39,5,Japanese,m,3,0.3,-58.1418371,0.74531017
SAF,25,0,2024-10-15T04:08:19.027Z,english_870.wav,0,pill,1499,39,5,Japanese,m,4,0.32341667,81.20200135,1.06596266
SAF,26,0,2024-10-15T04:08:19.027Z,english_743.wav,0,pill,564,39,5,Japanese,m,0,0.0,-28.24983145,1.42102626
SAF,26,0,2024-10-15T04:08:19.027Z,english_743.wav,0,pill,564,39,5,Japanese,m,1,0.1,71.30498545,0.84283155
SAF,26,0,2024-10-15T04:08:19.027Z,english_743.wav,0,pill,564,39,5,Japanese,m,2,0.2,-89.00652632,0.82757129
SAF,26,0,2024-10-15T04:08:19.027Z,english_743.wav,0,pill,564,39,5,Japanese,m,3,0.3,3.43441779,1.38808557
SAF,26,0,2024-10-15T04:08:19.027Z,english_743.wav,0,pill,564,39,5,Japanese,m,4,0.32341667,-16.71659348,0.28501565
SAF,27,0,2024-10-15T04:08:19.027Z,english_787.wav,0,peel,2339,39,5,Japanese,m,0,0.0,57.99353047,1.96251481
SAF,27,0,2024-10-15T04:08:19.027Z,english_787.wav,0,peel,2339,39,5,Japanese,m,1,0.1,-40.79525362,0.94444479
SAF,27,0,2024-10-15T04:08:19.027Z,english_787.wav,0,peel,2339,39,5,Japanese,m,2,0.2,23.78072576,0.924778
SAF,27,0,2024-10-15T04:08:19.027Z,english_787.wav,0,peel,2339,39,5,Japanese,m,3,0.3,72.96982422,0.31383508
SAF,27,0,2024-10-15T04:08:19.027Z,english_787.wav,0,peel,2339,39,5,Japanese,m,4,0.32341667,53.76957631,0.68947425
SAF,28,0,2024-10-15T04:08:19.027Z,english_444.wav,0,pill,1022,39,5,Japanese,m,0,0.0,57.2872587,0.52242118
SAF,28,0,2024-10-15T04:08:19.027Z,english_444.wav,0,pill,1022,39,5,Japanese,m,1,0.1,68.85097071,1.61316948
SAF,28,0,2024-10-15T04:08:19.027Z,english_444.wav,0,pill,1022,39,5,Japanese,m,2,0.2,-30.10164543,0.15196309
SAF,28,0,2024-10-15T04:08:19.027Z,english_444.wav,0,pill,1022,39,5,Japanese,m,3,0.3,-57.0249627,0.44426911
SAF,28,0,2024-10-15T04:08:19.027Z,english_444.wav,0,pill,1022,39,5,Japanese,m,4,0.32341667,-54.19692118,1.48693747
SAF,29,0,2024-10-15T04:08:19.027Z,english_432.wav,0,pill,1929,39,5,Japanese,m,0,0.0,34.04923955,0.51661687
SAF,29,0,2024-10-15T04:08:19.027Z,english_432.wav,0,pill,1929,39,5,Japanese,m,1,0.1,-20.16773507,0.2259012
SAF,29,0,2024-10-15T04:08:19.027Z,english_432.wav,0,pill,1929,39,5,Japanese,m,2,0.2,58.06800811,1.98214485
SAF,29,0,2024-10-15T04:08:19.027Z,english_432.wav,0,pill,1929,39,5,Japanese,m,3,0.3,46.82268278,1.23025235
SAF,29,0,2024-10-15T04:08:19.027Z,english_432.wav,0,pill,1929,39,5,Japanese,m,4,0.32341667,16.04458546,1.72803009
SAF,30,0,2024-10-15T04:08:19.027Z,english_907.wav,0,peel,2965,39,5,Japanese,m,0,0.0,13.97638225,0.68575839
SAF,30,0,2024-10-15T04:08:19.027Z,english_907.wav,0,peel,2965,39,5,Japanese,m,1,0.1,36.81481791,1.58611259
SAF,30,0,2024-10-15T04:08:19.027Z,english_907.wav,0,peel,2965,39,5,Japanese,m,2,0.2,1.21651202,1.59547025
SAF,30,0,2024-10-15T04:08:19.027Z,english_907.wav,0,peel,2965,39,5,Japanese,m,3,0.3,35.47405672,0.75888392
SAF,30,0,2024-10-15T04:08:19.027Z,english_907.wav,0,peel,2965,39,5,Japanese,m,4,0.32341667,-27.93760057,0.06937964
SAF,31,0,2024-10-15T04:08:19.027Z,english_854.wav,0,pill,1174,39,5,Japanese,m,0,0.0,-3.2532791,1.78139632
SAF,31,0,2024-10-15T04:08:19.027Z,english_854.wav,0,pill,1174,39,5,Japanese,m,1,0.1,19.40039505,1.50161717
SAF,31,0,2024-10-15T04:08:19.027Z,english_854.wav,0,pill,1174,39,5,Japanese,m,2,0.2,-14.62360686,0.8978804
SAF,31,0,2024-10-15T04:08:19.027Z,english_854.wav,0,pill,1174,39,5,Japanese,m,3,0.3,-63.13820282,1.66267041
SAF,31,0,2024-10-15T04:08:19.027Z,english_854.wav,0,pill,1174,39,5,Japanese,m,4,0.32341667,44.42181264,1.68588082
SAF,32,0,2024-10-15T04:08:19.027Z,english_748.wav,0,peel,2196,39,5,Japanese,m,0,0.0,0.23647087,0.91094575
SAF,32,0,2024-10-15T04:08:19.027Z,english_748.wav,0,peel,2196,39,5,Japanese,m,1,0.1,45.60572596,1.68800655
SAF,32,0,2024-10-15T04:08:19.027Z,english_748.wav,0,peel,2196,39,5,Japanese,m,2,0.2,6.14588966,1.37684191
SAF,32,0,2024-10-15T04:08:19.027Z,english_748.wav,0,peel,2196,39,5,Japanese,m,3,0.3,-10.39850874,0.70556294
SAF,32,0,2024-10-15T04:08:19.027Z,english_748.wav,0,peel,2196,39,5,Japanese,m,4,0.32341667,-7.86503132,1.52987196
SAF,33,0,2024-10-15T04:08:19.027Z,english_972.wav,0,pill,511,39,5,Japanese,m,0,0.0,-87.82800068,1.28286493
SAF,33,0,2024-10-15T04:08:19.027Z,english_972.wav,0,pill,511,39,5,Japanese,m,1,0.1,-25.45661385,0.89058027
SAF,33,0,2024-10-15T04:08:19.027Z,english_972.wav,0,pill,511,39,5,Japanese,m,2,0.2,2.95853851,1.4716374
SAF,33,0,2024-10-15T04:08:19.027Z,english_972.wav,0,pill,511,39,5,Japanese,m,3,0.3,84.61583696,0.6386035
SAF,33,0,2024-10-15T04:08:19.027Z,english_972.wav,0,pill,511,39,5,Japanese,m,4,0.32341667,42.95706616,1.51056083
SAF,34,0,2024-10-15T04:08:19.027Z,english_638.wav,0,pill,1852,39,5,Japanese,m,0,0.0,6.92468799,1.1702122
SAF,34,0,2024-10-15T04:08:19.027Z,english_638.wav,0,pill,1852,39,5,Japanese,m,1,0.1,52.10042521,0.51269982
SAF,34,0,2024-10-15T04:08:19.027Z,english_638.wav,0,pill,1852,39,5,Japanese,m,2,0.2,-39.07293948,0.1912204
SAF,34,0,2024-10-15T04:08:19.027Z,english_638.wav,0,pill,1852,39,5,Japanese,m,3,0.3,38.46029754,0.91406415
SAF,34,0,2024-10-15T04:08:19.027Z,english_638.wav,0,pill,1852,39,5,Japanese,m,4,0.32341667,-16.6630855,1.67689755
SAF,35,0,2024-10-15T04:08:19.027Z,english_534.wav,0,pill,1092,39,5,Japanese,m,0,0.0,-42.4271338,1.1267565
SAF,35,0,2024-10-15T04:08:19.027Z,english_534.wav,0,pill,1092,39,5,Japanese,m,1,0.1,-80.6424644,0.6842577
SAF,35,0,2024-10-15T04:08:19.027Z,english_534.wav,0,pill,1092,39,5,Japanese,m,2,0.2,59.29592388,0.01459656
SAF,35,0,2024-10-15T04:08:19.027Z,english_534.wav,0,pill,1092,39,5,Japanese,m,3,0.3,75.02007223,1.03701198
SAF,35,0,2024-10-15T04:08:19.027Z,english_534.wav,0,pill,1092,39,5,Japanese,m,4,0.32341667,-57.55026449,1.25840342
SAF,36,0,2024-10-15T04:08:19.027Z,english_335.wav,0,pill,994,39,5,Japanese,m,0,0.0,2.73277154,0.73564724
SAF,36,0,2024-10-15T04:08:19.027Z,english_335.wav,0,pill,994,39,5,Japanese,m,1,0.1,-7.1950175,0.15546095
SAF,36,0,2024-10-15T04:08:19.027Z,english_335.wav,0,pill,994,39,5,Japanese,m,2,0.2,60.45920583,0.90435367
SAF,36,0,2024-10-15T04:08:19.027Z,english_335.wav,0,pill,994,39,5,Japanese,m,3,0.3,-26.91989021,0.56661996
SAF,36,0,2024-10-15T04:08:19.027Z,english_335.wav,0,pill,994,39,5,Japanese,m,4,0.32341667,-2.30142169,1.21763394
SAF,37,0,2024-10-15T04:08:19.027Z,english_22.wav,0,peel,3151,39,5,Japanese,m,0,0.0,78.11206964,1.48448967
SAF,37,0,2024-10-15T04:08:19.027Z,english_22.wav,0,peel,3151,39,5,Japanese,m,1,0.1,30.08823316,0.28770474
SAF,37,0,2024-10-15T04:08:19.027Z,english_22.wav,0,peel,3151,39,5,Japanese,m,2,0.2,62.70691674,1.03274311
SAF,37,0,2024-10-15T04:08:19.027Z,english_22.wav,0,peel,3151,39,5,Japanese,m,3,0.3,-69.9857022,0.45071415
SAF,37,0,2024-10-15T04:08:19.027Z,english_22.wav,0,peel,3151,39,5,Japanese,m,4,0.32341667,-1.96178027,0.30900593
SAF,38,0,2024-10-15T04:08:19.027Z,english_294.wav,0,pill,1673,39,5,Japanese,m,0,0.0,-92.15775888,0.74816787
SAF,38,0,2024-10-15T04:08:19.027Z,english_294.wav,0,pill,1673,39,5,Japanese,m,1,0.1,71.96645866,1.71916745
SAF,38,0,2024-10-15T04:08:19.027Z,english_294.wav,0,pill,1673,39,5,Japanese,m,2,0.2,-25.46852775,1.7524902
SAF,38,0,2024-10-15T04:08:19.027Z,english_294.wav,0,pill,1673,39,5,Japanese,m,3,0.3,17.21488016,0.9780509
SAF,38,0,2024-10-15T04:08:19.027Z,english_294.wav,0,pill,1673,39,5,Japanese,m,4,0.32341667,-10.41176069,1.21177262
SAF,39,0,2024-10-15T04:08:19.027Z,english_522.wav,0,pill,2109,39,5,Japanese,m,0,0.0,11.68148217,0.44643579
SAF,39,0,2024-10-15T04:08:19.027Z,english_522.wav,0,pill,2109,39,5,Japanese,m,1,0.1,-74.55265788,0.16885459
SAF,39,0,2024-10-15T04:08:19.027Z,english_522.wav,0,pill,2109,39,5,Japanese,m,2,0.2,95.15954448,1.67161326
SAF,39,0,2024-10-15T04:08:19.027Z,english_522.wav,0,pill,2109,39,5,Japanese,m,3,0.3,-17.14209769,0.53349848
SAF,39,0,2024-10-15T04:08:19.027Z,english_522.wav,0,pill,2109,39,5,Japanese,m,4,0.32341667,-35.38302731,0.4645726
SAF,40,0,2024-10-15T04:08:19.027Z,english_624.wav,0,pill,3898,39,5,Japanese,m,0,0.0,-66.94889137,0.79130031
SAF,40,0,2024-10-15T04:08:19.027Z,english_624.wav,0,pill,3898,39,5,Japanese,m,1,0.1,-6.87427926,1.85178888
SAF,40,0,2024-10-15T04:08:19.027Z,english_624.wav,0,pill,3898,39,5,Japanese,m,2,0.2,69.52298075,0.79988954
SAF,40,0,2024-10-15T04:08:19.027Z,english_624.wav,0,pill,3898,39,5,Japanese,m,3,0.3,-45.26015132,0.87521033
SAF,40,0,2024-10-15T04:08:19.027Z,english_624.wav,0,pill,3898,39,5,Japanese,m,4,0.32341667,-50.37935108,1.50754026
SAF,41,0,2024-10-15T04:08:19.027Z,english_52.wav,0,pill,3108,39,5,Japanese,m,0,0.0,54.63859099,0.91426261
SAF,41,0,2024-10-15T04:08:19.027Z,english_52.wav,0,pill,3108,39,5,Japanese,m,1,0.1,-85.67195477,1.20728413
SAF,41,0,2024-10-15T04:08:19.027Z,english_52.wav,0,pill,3108,39,5,Japanese,m,2,0.2,2.4878885,0.71733995
SAF,41,0,2024-10-15T04:08:19.027Z,english_52.wav,0,pill,3108,39,5,Japanese,m,3,0.3,86.13143505,1.54149443
SAF,41,0,2024-10-15T04:08:19.027Z,english_52.wav,0,pill,3108,39,5,Japanese,m,4,0.32341667,-53.30399902,1.3376245
SAF,42,0,2024-10-15T04:08:19.027Z,english_338.wav,0,pill,3072,39,5,Japanese,m,0,0.0,-22.40965878,1.93572195
SAF,42,0,2024-10-15T04:08:19.027Z,english_338.wav,0,pill,3072,39,5,Japanese,m,1,0.1,-10.16153496,1.78994992
SAF,42,0,2024-10-15T04:08:19.027Z,english_338.wav,0,pill,3072,39,5,Japanese,m,2,0.2,-50.2449588,1.38134059
SAF,42,0,2024-10-15T04:08:19.027Z,english_338.wav,0,pill,3072,39,5,Japanese,m,3,0.3,14.05674122,1.78462007
SAF,42,0,2024-10-15T04:08:19.027Z,english_338.wav,0,pill,3072,39,5,Japanese,m,4,0.32341667,-78.35339858,1.2607094
SAF,43,0,2024-10-15T04:08:19.027Z,english_831.wav,0,pill,2480,39,5,Japanese,m,0,0.0,-7.33710711,1.53159971
SAF,43,0,2024-10-15T04:08:19.027Z,english_831.wav,0,pill,2480,39,5,Japanese,m,1,0.1,-87.69782071,1.22669962
SAF,43,0,2024-10-15T04:08:19.027Z,english_831.wav,0,pill,2480,39,5,Japanese,m,2,0.2,34.03975531,0.70180407
SAF,43,0,2024-10-15T04:08:19.027Z,english_831.wav,0,pill,2480,39,5,Japanese,m,3,0.3,-2.18295653,1.02244347
SAF,43,0,2024-10-15T04:08:19.027Z,english_831.wav,0,pill,2480,39,5,Japanese,m,4,0.32341667,20.908766,1.06702443
SAF,44,0,2024-10-15T04:08:19.027Z,english_109.wav,0,pill,688,39,5,Japanese,m,0,0.0,44.56131593,1.07349586
SAF,44,0,2024-10-15T04:08:19.027Z,english_109.wav,0,pill,688,39,5,Japanese,m,1,0.1,-35.23159756,1.27535987
SAF,44,0,2024-10-15T04:08:19.027Z,english_109.wav,0,pill,688,39,5,Japanese,m,2,0.2,-19.62269282,1.28483541
SAF,44,0,2024-10-15T04:08:19.027Z,english_109.wav,0,pill,688,39,5,Japanese,m,3,0.3,38.10372837,1.04109326
SAF,44,0,2024-10-15T04:08:19.027Z,english_109.wav,0,pill,688,39,5,Japanese,m,4,0.32341667,-20.09605057,0.10213448
SAF,45,0,2024-10-15T04:08:19.027Z,english_550.wav,0,peel,2075,39,5,Japanese,m,0,0.0,19.46608022,0.78600887
SAF,45,0,2024-10-15T04:08:19.027Z,english_550.wav,0,peel,2075,39,5,Japanese,m,1,0.1,-94.3556307,1.03273328
SAF,45,0,2024-10-15T04:08:19.027Z,english_550.wav,0,peel,2075,39,5,Japanese,m,2,0.2,-80.90695222,0.36941932
SAF,45,0,2024-10-15T04:08:19.027Z,english_550.wav,0,peel,2075,39,5,Japanese,m,3,0.3,-65.36230075,0.47038634
SAF,45,0,2024-10-15T04:08:19.027Z,english_550.wav,0,peel,2075,39,5,Japanese,m,4,0.32341667,-18.45722395,0.11798167
SAF,46,0,2024-10-15T04:08:19.027Z,english_449.wav,0,pill,2033,39,5,Japanese,m,0,0.0,-46.54576765,0.60085197
SAF,46,0,2024-10-15T04:08:19.027Z,english_449.wav,0,pill,2033,39,5,Japanese,m,1,0.1,20.05422573,1.74901032
SAF,46,0,2024-10-15T04:08:19.027Z,english_449.wav,0,pill,2033,39,5,Japanese,m,2,0.2,54.52400621,1.9506545
SAF,46,0,2024-10-15T04:08:19.027Z,english_449.wav,0,pill,2033,39,5,Japanese,m,3,0.3,73.66855139,1.81044704
SAF,46,0,2024-10-15T04:08:19.027Z,english_449.wav,0,pill,2033,39,5,Japanese,m,4,0.32341667,-1.88675615,0.93562966
SAF,47,0,2024-10-15T04:08:19.027Z,english_978.wav,0,pill,830,39,5,Japanese,m,0,0.0,-73.1961296,0.69168228
SAF,47,0,2024-10-15T04:08:19.027Z,english_978.wav,0,pill,830,39,5,Japanese,m,1,0.1,-56.98452675,1.28516196
SAF,47,0,2024-10-15T04:08:19.027Z,english_978.wav,0,pill,830,39,5,Japanese,m,2,0.2,1.81288897,1.00851945
SAF,47,0,2024-10-15T04:08:19.027Z,english_978.wav,0,pill,830,39,5,Japanese,m,3,0.3,-17.93803526,0.05981722
SAF,47,0,2024-10-15T04:08:19.027Z,english_978.wav,0,pill,830,39,5,Japanese,m,4,0.32341667,-33.17886565,1.89275203
SAF,48,0,2024-10-15T04:08:19.027Z,english_891.wav,0,pill,498,39,5,Japanese,m,0,0.0,21.29241244,0.7419472
SAF,48,0,2024-10-15T04:08:19.027Z,english_891.wav,0,pill,498,39,5,Japanese,m,1,0.1,-1.23713702,1.09270952
SAF,48,0,2024-10-15T04:08:19.027Z,english_891.wav,0,pill,498,39,5,Japanese,m,2,0.2,-74.86460599,0.8129571
SAF,48,0,2024-10-15T04:08:19.027Z,english_891.wav,0,pill,498,39,5,Japanese,m,3,0.3,18.81587233,0.16019775
SAF,48,0,2024-10-15T04:08:19.027Z,english_891.wav,0,pill,498,39,5,Japanese,m,4,0.32341667,35.3489582,1.17476401
SAF,49,0,2024-10-15T04:08:19.027Z,english_26.wav,0,pill,1204,39,5,Japanese,m,0,0.0,54.38966875,1.86679487
SAF,49,0,2024-10-15T04:08:19.027Z,english_26.wav,0,pill,1204,39,5,Japanese,m,1,0.1,0.3460174,0.79762949
SAF,49,0,2024-10-15T04:08:19.027Z,english_26.wav,0,pill,1204,39,5,Japanese,m,2,0.2,-72.33258957,0.93682052
SAF,49,0,2024-10-15T04:08:19.027Z,english_26.wav,0,pill,1204,39,5,Japanese,m,3,0.3,67.09142092,1.42469209
SAF,49,0,2024-10-15T04:08:19.027Z,english_26.wav,0,pill,1204,39,5,Japanese,m,4,0.32341667,16.00565239,1.17807545
SAF,50,1,2024-10-15T04:12:25.691Z,english_91.wav,0,pill,2719,39,5,Japanese,m,0,0.0,-67.73951944,0.2772338
SAF,50,1,2024-10-15T04:12:25.691Z,english_91.wav,0,pill,2719,39,5,Japanese,m,1,0.1,83.83337034,0.0816757
SAF,50,1,2024-10-15T04:12:25.691Z,english_91.wav,0,pill,2719,39,5,Japanese,m,2,0.2,-12.75649653,0.92538416
SAF,50,1,2024-10-15T04:12:25.691Z,english_91.wav,0,pill,2719,39,5,Japanese,m,3,0.3,5.95502951,0.40714056
SAF,50,1,2024-10-15T04:12:25.691Z,english_91.wav,0,pill,2719,39,5,Japanese,m,4,0.32341667,59.56964586,1.8717525
SAF,51,1,2024-10-15T04:12:25.691Z,english_622.wav,0,peel,2818,39,5,Japanese,m,0,0.0,-46.49267806,1.425187
SAF,51,1,2024-10-15T04:12:25.691Z,english_622.wav,0,peel,2818,39,5,Japanese,m,1,0.1,-80.07623079,0.61910367
SAF,51,1,2024-10-15T04:12:25.691Z,english_622.wav,0,peel,2818,39,5,Japanese,m,2,0.2,-28.70131311,1.30297951
SAF,51,1,2024-10-15T04:12:25.691Z,english_622.wav,0,peel,2818,39,5,Japanese,m,3,0.3,-26.89352847,1.73248838
SAF,51,1,2024-10-15T04:12:25.691Z,english_622.wav,0,peel,2818,39,5,Japanese,m,4,0.32341667,-24.31243398,0.85523545
SAF,52,1,2024-10-15T04:12:25.691Z,english_468.wav,0,pill,754,39,5,Japanese,m,0,0.0,-33.82586043,0.35164089
SAF,52,1,2024-10-15T04:12:25.691Z,english_468.wav,0,pill,754,39,5,Japanese,m,1,0.1,-42.55840131,0.20114733
SAF,52,1,2024-10-15T04:12:25.691Z,english_468.wav,0,pill,754,39,5,Japanese,m,2,0.2,-36.6492295,1.40729654
SAF,52,1,2024-10-15T04:12:25.691Z,english_468.wav,0,pill,754,39,5,Japanese,m,3,0.3,39.91321296,0.04300573
SAF,52,1,2024-10-15T04:12:25.691Z,english_468.wav,0,pill,754,39,5,Japanese,m,4,0.32341667,54.14936319,1.79642733
SAF,53,1,2024-10-15T04:12:25.691Z,english_420.wav,0,pill,1712,39,5,Japanese,m,0,0.0,-56.31893026,0.25307214
SAF,53,1,2024-10-15T04:12:25.691Z,english_420.wav,0,pill,1712,39,5,Japanese,m,1,0.1,66.6522923,1.93095887
SAF,53,1,2024-10-15T04:12:25.691Z,english_420.wav,0,pill,1712,39,5,Japanese,m,2,0.2,2.15493058,0.49520396
SAF,53,1,2024-10-15T04:12:25.691Z,english_420.wav,0,pill,1712,39,5,Japanese,m,3,0.3,-23.51601285,1.55970731
SAF,53,1,2024-10-15T04:12:25.691Z,english_420.wav,0,pill,1712,39,5,Japanese,m,4,0.32341667,22.32226467,0.71957325
SAF,54,1,2024-10-15T04:12:25.691Z,english_540.wav,0,peel,2386,39,5,Japanese,m,0,0.0,-46.6752609,1.16352469
SAF,54,1,2024-10-15T04:12:25.691Z,english_540.wav,0,peel,2386,39,5,Japanese,m,1,0.1,-93.20209644,0.0234781
SAF,54,1,2024-10-15T04:12:25.691Z,english_540.wav,0,peel,2386,39,5,Japanese,m,2,0.2,64.96419662,0.05926191
SAF,54,1,2024-10-15T04:12:25.691Z,english_540.wav,0,peel,2386,39,5,Japanese,m,3,0.3,-12.16484387,1.47406284
SAF,54,1,2024-10-15T04:12:25.691Z,english_540.wav,0,peel,2386,39,5,Japanese,m,4,0.32341667,-44.34688232,0.60104864
SAF,55,1,2024-10-15T04:12:25.691Z,english_729.wav,0,pill,1319,39,5,Japanese,m,0,0.0,31.16849918,1.30127688
SAF,55,1,2024-10-15T04:12:25.691Z,english_729.wav,0,pill,1319,39,5,Japanese,m,1,0.1,-74.04657477,1.28998605
SAF,55,1,2024-10-15T04:12:25.691Z,english_729.wav,0,pill,1319,39,5,Japanese,m,2,0.2,98.28479208,0.71365363
SAF,55,1,2024-10-15T04:12:25.691Z,english_729.wav,0,pill,1319,39,5,Japanese,m,3,0.3,45.68234461,0.61436371
SAF,55,1,2024-10-15T04:12:25.691Z,english_729.wav,0,pill,1319,39,5,Japanese,m,4,0.32341667,-23.12232547,0.96520681
SAF,56,1,2024-10-15T04:12:25.691Z,english_455.wav,0,pill,1296,39,5,Japanese,m,0,0.0,16.09493262,0.21208686
SAF,56,1,2024-10-15T04:12:25.691Z,english_455.wav,0,pill,1296,39,5,Japanese,m,1,0.1,24.58982,1.0305564
SAF,56,1,2024-10-15T04:12:25.691Z,english_455.wav,0,pill,1296,39,5,Japanese,m,2,0.2,-59.31201859,1.53057992
SAF,56,1,2024-10-15T04:12:25.691Z,english_455.wav,0,pill,1296,39,5,Japanese,m,3,0.3,40.79603426,0.62599766
SAF,56,1,2024-10-15T04:12:25.691Z,english_455.wav,0,pill,1296,39,5,Japanese,m,4,0.32341667,-39.30035714,1.43054244
SAF,57,1,2024-10-15T04:12:25.691Z,english_705.wav,0,pill,2753,39,5,Japanese,m,0,0.0,3.76426423,0.9500377
SAF,57,1,2024-10-15T04:12:25.691Z,english_705.wav,0,pill,2753,39,5,Japanese,m,1,0.1,90.96696755,0.74173997
SAF,57,1,2024-10-15T04:12:25.691Z,english_705.wav,0,pill,2753,39,5,Japanese,m,2,0.2,-32.86898574,1.78776637
SAF,57,1,2024-10-15T04:12:25.691Z,english_705.wav,0,pill,2753,39,5,Japanese,m,3,0.3,-21.12550784,0.8178788
SAF,57,1,2024-10-15T04:12:25.691Z,english_705.wav,0,pill,2753,39,5,Japanese,m,4,0.32341667,39.74077299,1.54913024
SAF,58,1,2024-10-15T04:12:25.691Z,english_700.wav,0,pill,708,39,5,Japanese,m,0,0.0,-76.89056698,0.13963816
SAF,58,1,2024-10-15T04:12:25.691Z,english_700.wav,0,pill,708,39,5,Japanese,m,1,0.1,-93.17552037,0.76842729
SAF,58,1,2024-10-15T04:12:25.691Z,english_700.wav,0,pill,708,39,5,Japanese,m,2,0.2,51.24439156,0.49149542
SAF,58,1,2024-10-15T04:12:25.691Z,english_700.wav,0,pill,708,39,5,Japanese,m,3,0.3,89.4516499,1.08714417
SAF,58,1,2024-10-15T04:12:25.691Z,english_700.wav,0,pill,708,39,5,Japanese,m,4,0.32341667,-68.48659069,1.35188588
SAF,59,1,2024-10-15T04:12:25.691Z,english_721.wav,0,pill,886,39,5,Japanese,m,0,0.0,-1.67193172,0.23966059
SAF,59,1,2024-10-15T04:12:25.691Z,english_721.wav,0,pill,886,39,5,Japanese,m,1,0.1,23.81304459,1.61361986
SAF,59,1,2024-10-15T04:12:25.691Z,english_721.wav,0,pill,886,39,5,Japanese,m,2,0.2,94.27532923,0.58045828
SAF,59,1,2024-10-15T04:12:25.691Z,english_721.wav,0,pill,886,39,5,Japanese,m,3,0.3,10.08520391,1.63757532
SAF,59,1,2024-10-15T04:12:25.691Z,english_721.wav,0,pill,886,39,5,Japanese,m,4,0.32341667,-26.68837018,1.4581473
SAF,60,1,2024-10-15T04:12:25.691Z,english_637.wav,0,peel,1413,39,5,Japanese,m,0,0.0,-1.71458324,1.21739028
SAF,60,1,2024-10-15T04:12:25.691Z,english_637.wav,0,peel,1413,39,5,Japanese,m,1,0.1,-8.03758275,0.51882016
SAF,60,1,2024-10-15T04:12:25.691Z,english_637.wav,0,peel,1413,39,5,Japanese,m,2,0.2,-8.49550443,1.63519413
SAF,60,1,2024-10-15T04:12:25.691Z,english_637.wav,0,peel,1413,39,5,Japanese,m,3,0.3,-8.27727969,1.34863813
SAF,60,1,2024-10-15T04:12:25.691Z,english_637.wav,0,peel,1413,39,5,Japanese,m,4,0.32341667,64.42471467,1.93003029
SAF,61,1,2024-10-15T04:12:25.691Z,english_108.wav,0,peel,2610,39,5,Japanese,m,0,0.0,-20.69942707,0.77052949
SAF,61,1,2024-10-15T04:12:25.691Z,english_108.wav,0,peel,2610,39,5,Japanese,m,1,0.1,-59.42152954,1.01445352
SAF,61,1,2024-10-15T04:12:25.691Z,english_108.wav,0,peel,2610,39,5,Japanese,m,2,0.2,-8.09170222,0.42363715
SAF,61,1,2024-10-15T04:12:25.691Z,english_108.wav,0,peel,2610,39,5,Japanese,m,3,0.3,21.99826779,1.45799831
SAF,61,1,2024-10-15T04:12:25.691Z,english_108.wav,0,peel,2610,39,5,Japanese,m,4,0.32341667,56.38973361,1.71498507
SAF,62,1,2024-10-15T04:12:25.691Z,english_209.wav,0,peel,1925,39,5,Japanese,m,0,0.0,14.15361396,1.44232267
SAF,62,1,2024-10-15T04:12:25.691Z,english_209.wav,0,peel,1925,39,5,Japanese,m,1,0.1,85.95109622,1.49291498
SAF,62,1,2024-10-15T04:12:25.691Z,english_209.wav,0,peel,1925,39,5,Japanese,m,2,0.2,18.04804687,1.19611731
SAF,62,1,2024-10-15T04:12:25.691Z,english_209.wav,0,peel,1925,39,5,Japanese,m,3,0.3,28.2522976,1.49647535
SAF,62,1,2024-10-15T04:12:25.691Z,english_209.wav,0,peel,1925,39,5,Japanese,m,4,0.32341667,5.36776296,0.30324849
SAF,63,1,2024-10-15T04:12:25.691Z,english_355.wav,0,pill,596,39,5,Japanese,m,0,0.0,33.6784286,1.28512049
SAF,63,1,2024-10-15T04:12:25.691Z,english_355.wav,0,pill,596,39,5,Japanese,m,1,0.1,30.74796889,1.04729355
SAF,63,1,2024-10-15T04:12:25.691Z,english_355.wav,0,pill,596,39,5,Japanese,m,2,0.2,71.39310534,0.74339822
SAF,63,1,2024-10-15T04:12:25.691Z,english_355.wav,0,pill,596,39,5,Japanese,m,3,0.3,38.16266559,0.86152361
SAF,63,1,2024-10-15T04:12:25.691Z,english_355.wav,0,pill,596,39,5,Japanese,m,4,0.32341667,-39.8799084,1.83215587
SAF,64,1,2024-10-15T04:12:25.691Z,english_536.wav,0,peel,2719,39,5,Japanese,m,0,0.0,19.16157828,1.0914138
SAF,64,1,2024-10-15T04:12:25.691Z,english_536.wav,0,peel,2719,39,5,Japanese,m,1,0.1,-70.44875328,1.55996729
SAF,64,1,2024-10-15T04:12:25.691Z,english_536.wav,0,peel,2719,39,5,Japanese,m,2,0.2,9.3844651,1.22014226
SAF,64,1,2024-10-15T04:12:25.691Z,english_536.wav,0,peel,2719,39,5,Japanese,m,3,0.3,54.79833109,0.24268308
SAF,64,1,2024-10-15T04:12:25.691Z,english_536.wav,0,peel,2719,39,5,Japanese,m,4,0.32341667,-43.58683919,1.12643869
SAF,65,1,2024-10-15T04:12:25.691Z,english_639.wav,0,pill,1828,39,5,Japanese,m,0,0.0,-8.64176861,1.80061108
SAF,65,1,2024-10-15T04:12:25.691Z,english_639.wav,0,pill,1828,39,5,Japanese,m,1,0.1,-2.28240571,0.32075858
SAF,65,1,2024-10-15T04:12:25.691Z,english_639.wav,0,pill,1828,39,5,Japanese,m,2,0.2,61.07673865,0.35362442
SAF,65,1,2024-10-15T04:12:25.691Z,english_639.wav,0,pill,1828,39,5,Japanese,m,3,0.3,-20.33592136,1.48415136
SAF,65,1,2024-10-15T04:12:25.691Z,english_639.wav,0,pill,1828,39,5,Japanese,m,4,0.32341667,-24.05835486,0.14560931
SAF,66,1,2024-10-15T04:12:25.691Z,english_340.wav,0,pill,1246,39,5,Japanese,m,0,0.0,42.62794877,1.44385011
SAF,66,1,2024-10-15T04:12:25.691Z,english_340.wav,0,pill,1246,39,5,Japanese,m,1,0.1,67.09042835,1.29329602
SAF,66,1,2024-10-15T04:12:25.691Z,english_340.wav,0,pill,1246,39,5,Japanese,m,2,0.2,-80.28719593,1.71068781
SAF,66,1,2024-10-15T04:12:25.691Z,english_340.wav,0,pill,1246,39,5,Japanese,m,3,0.3,-47.97556268,0.48872717
SAF,66,1,2024-10-15T04:12:25.691Z,english_340.wav,0,pill,1246,39,5,Japanese,m,4,0.32341667,32.7013797,1.09000269
SAF,67,1,2024-10-15T04:12:25.691Z,english_824.wav,0,pill,984,39,5,Japanese,m,0,0.0,80.46503136,1.43025592
SAF,67,1,2024-10-15T04:12:25.691Z,english_824.wav,0,pill,984,39,5,Japanese,m,1,0.1,-48.668347,0.89138167
SAF,67,1,2024-10-15T04:12:25.691Z,english_824.wav,0,pill,984,39,5,Japanese,m,2,0.2,37.27765876,1.91281619
SAF,67,1,2024-10-15T04:12:25.691Z,english_824.wav,0,pill,984,39,5,Japanese,m,3,0.3,-91.29945309,0.71335031
SAF,67,1,2024-10-15T04:12:25.691Z,english_824.wav,0,pill,984,39,5,Japanese,m,4,0.32341667,14.46507007,0.89780818
SAF,68,1,2024-10-15T04:12:25.691Z,english_319.wav,0,peel,3226,39,5,Japanese,m,0,0.0,-84.37928886,1.17141126
SAF,68,1,2024-10-15T04:12:25.691Z,english_319.wav,0,peel,3226,39,5,Japanese,m,1,0.1,-52.76931383,1.13741792
SAF,68,1,2024-10-15T04:12:25.691Z,english_319.wav,0,peel,3226,39,5,Japanese,m,2,0.2,56.06390533,0.91618882
SAF,68,1,2024-10-15T04:12:25.691Z,english_319.wav,0,peel,3226,39,5,Japanese,m,3,0.3,-69.46438111,0.7080153
SAF,68,1,2024-10-15T04:12:25.691Z,english_319.wav,0,peel,3226,39,5,Japanese,m,4,0.32341667,91.86152445,0.5910213
SAF,69,1,2024-10-15T04:12:25.691Z,english_654.wav,0,peel,2312,39,5,Japanese,m,0,0.0,-97.13147194,0.91673578
SAF,69,1,2024-10-15T04:12:25.691Z,english_654.wav,0,peel,2312,39,5,Japanese,m,1,0.1,-81.37819023,1.23280851
SAF,69,1,2024-10-15T04:12:25.691Z,english_654.wav,0,peel,2312,39,5,Japanese,m,2,0.2,51.48571278,1.64688363
SAF,69,1,2024-10-15T04:12:25.691Z,english_654.wav,0,peel,2312,39,5,Japanese,m,3,0.3,54.00949099,1.75994168
SAF,69,1,2024-10-15T04:12:25.691Z,english_654.wav,0,peel,2312,39,5,Japanese,m,4,0.32341667,-95.1633683,0.20104411
SAF,70,1,2024-10-15T04:12:25.691Z,english_170.wav,0,pill,1537,39,5,Japanese,m,0,0.0,6.45066022,1.58910722
SAF,70,1,2024-10-15T04:12:25.691Z,english_170.wav,0,pill,1537,39,5,Japanese,m,1,0.1,-4.11198278,0.3365331
SAF,70,1,2024-10-15T04:12:25.691Z,english_170.wav,0,pill,1537,39,5,Japanese,m,2,0.2,96.59136675,0.38643451
SAF,70,1,2024-10-15T04:12:25.691Z,english_170.wav,0,pill,1537,39,5,Japanese,m,3,0.3,21.57070742,1.58623933
SAF,70,1,2024-10-15T04:12:25.691Z,english_170.wav,0,pill,1537,39,5,Japanese,m,4,0.32341667,94.47980818,1.61968164
SAF,71,1,2024-10-15T04:12:25.691Z,english_867.wav,0,peel,3543,39,5,Japanese,m,0,0.0,9.0283109,0.25019481
SAF,71,1,2024-10-15T04:12:25.691Z,english_867.wav,0,peel,3543,39,5,Japanese,m,1,0.1,6.96107974,0.62311927
SAF,71,1,2024-10-15T04:12:25.691Z,english_867.wav,0,peel,3543,39,5,Japanese,m,2,0.2,14.88339172,1.78918939
SAF,71,1,2024-10-15T04:12:25.691Z,english_867.wav,0,peel,3543,39,5,Japanese,m,3,0.3,-2.73093064,1.34945049
SAF,71,1,2024-10-15T04:12:25.691Z,english_867.wav,0,peel,3543,39,5,Japanese,m,4,0.32341667,-85.27526638,0.75720604
SAF,72,1,2024-10-15T04:12:25.691Z,english_837.wav,0,peel,4414,39,5,Japanese,m,0,0.0,-10.72674788,0.56055933
SAF,72,1,2024-10-15T04:12:25.691Z,english_837.wav,0,peel,4414,39,5,Japanese,m,1,0.1,33.60933966,1.16716927
SAF,72,1,2024-10-15T04:12:25.691Z,english_837.wav,0,peel,4414,39,5,Japanese,m,2,0.2,-1.37827911,1.02731607
SAF,72,1,2024-10-15T04:12:25.691Z,english_837.wav,0,peel,4414,39,5,Japanese,m,3,0.3,29.3498758,1.96665864
SAF,72,1,2024-10-15T04:12:25.691Z,english_837.wav,0,peel,4414,39,5,Japanese,m,4,0.32341667,31.86641091,0.45425732
SAF,73,1,2024-10-15T04:12:25.691Z,english_832.wav,0,peel,1722,39,5,Japanese,m,0,0.0,-21.62855277,1.31372842
SAF,73,1,2024-10-15T04:12:25.691Z,english_832.wav,0,peel,1722,39,5,Japanese,m,1,0.1,-35.3834786,1.55258378
SAF,73,1,2024-10-15T04:12:25.691Z,english_832.wav,0,peel,1722,39,5,Japanese,m,2,0.2,52.65867494,1.50567803
SAF,73,1,2024-10-15T04:12:25.691Z,english_832.wav,0,peel,1722,39,5,Japanese,m,3,0.3,62.52082964,1.2163301
SAF,73,1,2024-10-15T04:12:25.691Z,english_832.wav,0,peel,1722,39,5,Japanese,m,4,0.32341667,46.66062952,1.20100353
SAF,74,1,2024-10-15T04:12:25.691Z,english_724.wav,0,peel,1402,39,5,Japanese,m,0,0.0,-91.46740291,0.46376674
SAF,74,1,2024-10-15T04:12:25.691Z,english_724.wav,0,peel,1402,39,5,Japanese,m,1,0.1,23.01616352,1.84849858
SAF,74,1,2024-10-15T04:12:25.691Z,english_724.wav,0,peel,1402,39,5,Japanese,m,2,0.2,-29.32408493,1.44978715
SAF,74,1,2024-10-15T04:12:25.691Z,english_724.wav,0,peel,1402,39,5,Japanese,m,3,0.3,-79.49145217,1.24719002
SAF,74,1,2024-10-15T04:12:25.691Z,english_724.wav,0,peel,1402,39,5,Japanese,m,4,0.32341667,82.35247912,0.99570929
SAF,75,1,2024-10-15T04:12:25.691Z,english_691.wav,0,pill,2973,39,5,Japanese,m,0,0.0,28.79078449,1.07683297
SAF,75,1,2024-10-15T04:12:25.691Z,english_691.wav,0,pill,2973,39,5,Japanese,m,1,0.1,99.1184909,1.07376069
SAF,75,1,2024-10-15T04:12:25.691Z,english_691.wav,0,pill,2973,39,5,Japanese,m,2,0.2,-54.13985733,0.28522735
SAF,75,1,2024-10-15T04:12:25.691Z,english_691.wav,0,pill,2973,39,5,Japanese,m,3,0.3,-85.36319246,0.85701066
SAF,75,1,2024-10-15T04:12:25.691Z,english_691.wav,0,pill,2973,39,5,Japanese,m,4,0.32341667,-73.61621094,1.71165398
SAF,76,1,2024-10-15T04:12:25.691Z,english_592.wav,0,peel,809,39,5,Japanese,m,0,0.0,-77.34060672,0.96869857
SAF,76,1,2024-10-15T04:12:25.691Z,english_592.wav,0,peel,809,39,5,Japanese,m,1,0.1,27.41551815,1.75134411
SAF,76,1,2024-10-15T04:12:25.691Z,english_592.wav,0,peel,809,39,5,Japanese,m,2,0.2,-17.47445882,1.41680483
SAF,76,1,2024-10-15T04:12:25.691Z,english_592.wav,0,peel,809,39,5,Japanese,m,3,0.3,-61.08462212,1.07260777
SAF,76,1,2024-10-15T04:12:25.691Z,english_592.wav,0,peel,809,39,5,Japanese,m,4,0.32341667,74.7675789,0.73150904
SAF,77,1,2024-10-15T04:12:25.691Z,english_194.wav,0,peel,2672,39,5,Japanese,m,0,0.0,46.99725025,0.38230397
SAF,77,1,2024-10-15T04:12:25.691Z,english_194.wav,0,peel,2672,39,5,Japanese,m,1,0.1,-37.20381284,1.33246395
SAF,77,1,2024-10-15T04:12:25.691Z,english_194.wav,0,peel,2672,39,5,Japanese,m,2,0.2,13.86947558,1.31276464
SAF,77,1,2024-10-15T04:12:25.691Z,english_194.wav,0,peel,2672,39,5,Japanese,m,3,0.3,79.77232086,0.22397005
SAF,77,1,2024-10-15T04:12:25.691Z,english_194.wav,0,peel,2672,39,5,Japanese,m,4,0.32341667,49.46244041,1.74931967
SAF,78,1,2024-10-15T04:12:25.691Z,english_247.wav,0,pill,739,39,5,Japanese,m,0,0.0,48.65693284,0.25539499
SAF,78,1,2024-10-15T04:12:25.691Z,english_247.wav,0,pill,739,39,5,Japanese,m,1,0.1,-27.64572099,1.09429421
SAF,78,1,2024-10-15T04:12:25.691Z,english_247.wav,0,pill,739,39,5,Japanese,m,2,0.2,-20.19701808,0.88115619
SAF,78,1,2024-10-15T04:12:25.691Z,english_247.wav,0,pill,739,39,5,Japanese,m,3,0.3,-10.74442668,1.97859338
SAF,78,1,2024-10-15T04:12:25.691Z,english_247.wav,0,pill,739,39,5,Japanese,m,4,0.32341667,91.42432082,0.10638235
SAF,79,1,2024-10-15T04:12:25.691Z,english_424.wav,0,pill,3212,39,5,Japanese,m,0,0.0,-7.44814198,1.7438251
SAF,79,1,2024-10-15T04:12:25.691Z,english_424.wav,0,pill,3212,39,5,Japanese,m,1,0.1,9.0703424,1.33993463
SAF,79,1,2024-10-15T04:12:25.691Z,english_424.wav,0,pill,3212,39,5,Japanese,m,2,0.2,-65.6005214,0.96535207
SAF,79,1,2024-10-15T04:12:25.691Z,english_424.wav,0,pill,3212,39,5,Japanese,m,3,0.3,79.88163057,0.39557207
SAF,79,1,2024-10-15T04:12:25.691Z,english_424.wav,0,pill,3212,39,5,Japanese,m,4,0.32341667,48.78273262,0.47346175
SAF,80,1,2024-10-15T04:12:25.691Z,english_51.wav,0,pill,1645,39,5,Japanese,m,0,0.0,88.48054236,0.21487201
SAF,80,1,2024-10-15T04:12:25.691Z,english_51.wav,0,pill,1645,39,5,Japanese,m,1,0.1,-53.5534646,0.90061677
SAF,80,1,2024-10-15T04:12:25.691Z,english_51.wav,0,pill,1645,39,5,Japanese,m,2,0.2,-33.31344908,0.24834744
SAF,80,1,2024-10-15T04:12:25.691Z,english_51.wav,0,pill,1645,39,5,Japanese,m,3,0.3,87.0533187,1.31052611
SAF,80,1,2024-10-15T04:12:25.691Z,english_51.wav,0,pill,1645,39,5,Japanese,m,4,0.32341667,-16.55219825,0.58644625
SAF,81,1,2024-10-15T04:12:25.691Z,english_874.wav,0,peel,3500,39,5,Japanese,m,0,0.0,32.94582558,0.77720789
SAF,81,1,2024-10-15T04:12:25.691Z,english_874.wav,0,peel,3500,39,5,Japanese,m,1,0.1,73.76521909,1.44852608
SAF,81,1,2024-10-15T04:12:25.691Z,english_874.wav,0,peel,3500,39,5,Japanese,m,2,0.2,-83.94992572,1.18086928
SAF,81,1,2024-10-15T04:12:25.691Z,english_874.wav,0,peel,3500,39,5,Japanese,m,3,0.3,-61.86791133,0.75042975
SAF,81,1,2024-10-15T04:12:25.691Z,english_874.wav,0,peel,3500,39,5,Japanese,m,4,0.32341667,-94.71312943,1.11461748
SAF,82,1,2024-10-15T04:12:25.691Z,english_866.wav,0,pill,1090,39,5,Japanese,m,0,0.0,-75.90204766,0.10539101
SAF,82,1,2024-10-15T04:12:25.691Z,english_866.wav,0,pill,1090,39,5,Japanese,m,1,0.1,-89.66881049,1.63294926
SAF,82,1,2024-10-15T04:12:25.691Z,english_866.wav,0,pill,1090,39,5,Japanese,m,2,0.2,-86.78535298,0.21421971
SAF,82,1,2024-10-15T04:12:25.691Z,english_866.wav,0,pill,1090,39,5,Japanese,m,3,0.3,50.96369643,1.47001367
SAF,82,1,2024-10-15T04:12:25.691Z,english_866.wav,0,pill,1090,39,5,Japanese,m,4,0.32341667,36.94157773,1.56453662
SAF,83,1,2024-10-15T04:12:25.691Z,english_333.wav,0,peel,1269,39,5,Japanese,m,0,0.0,61.26933292,0.50090252
SAF,83,1,2024-10-15T04:12:25.691Z,english_333.wav,0,peel,1269,39,5,Japanese,m,1,0.1,38.65533839,1.61630161
SAF,83,1,2024-10-15T04:12:25.691Z,english_333.wav,0,peel,1269,39,5,Japanese,m,2,0.2,-27.91605269,1.73322278
SAF,83,1,2024-10-15T04:12:25.691Z,english_333.wav,0,peel,1269,39,5,Japanese,m,3,0.3,36.00101096,0.67742762
SAF,83,1,2024-10-15T04:12:25.691Z,english_333.wav,0,peel,1269,39,5,Japanese,m,4,0.32341667,-78.35943708,0.46993908
SAF,84,1,2024-10-15T04:12:25.691Z,english_370.wav,0,peel,1111,39,5,Japanese,m,0,0.0,-90.17078727,0.17796458
SAF,84,1,2024-10-15T04:12:25.691Z,english_370.wav,0,peel,1111,39,5,Japanese,m,1,0.1,-71.99280791,1.08934715
SAF,84,1,2024-10-15T04:12:25.691Z,english_370.wav,0,peel,1111,39,5,Japanese,m,2,0.2,-13.60727202,1.05914244
SAF,84,1,2024-10-15T04:12:25.691Z,english_370.wav,0,peel,1111,39,5,Japanese,m,3,0.3,-0.93192742,1.87852505
SAF,84,1,2024-10-15T04:12:25.691Z,english_370.wav,0,peel,1111,39,5,Japanese,m,4,0.32341667,33.27852394,1.24161401
SAF,85,1,2024-10-15T04:12:25.691Z,english_19.wav,0,pill,611,39,5,Japanese,m,0,0.0,51.84788699,0.3981759
SAF,85,1,2024-10-15T04:12:25.691Z,english_19.wav,0,pill,611,39,5,Japanese,m,1,0.1,59.68091475,1.61217409
SAF,85,1,2024-10-15T04:12:25.691Z,english_19.wav,0,pill,611,39,5,Japanese,m,2,0.2,-27.71167756,0.35158216
SAF,85,1,2024-10-15T04:12:25.691Z,english_19.wav,0,pill,611,39,5,Japanese,m,3,0.3,-29.56443604,0.8770992
SAF,85,1,2024-10-15T04:12:25.691Z,english_19.wav,0,pill,611,39,5,Japanese,m,4,0.32341667,-58.55228515,0.51670124
SAF,86,1,2024-10-15T04:12:25.691Z,english_556.wav,0,pill,1362,39,5,Japanese,m,0,0.0,35.62658416,1.88481821
SAF,86,1,2024-10-15T04:12:25.691Z,english_556.wav,0,pill,1362,39,5,Japanese,m,1,0.1,28.75181601,0.4023528
SAF,86,1,2024-10-15T04:12:25.691Z,english_556.wav,0,pill,1362,39,5,Japanese,m,2,0.2,-2.62389444,1.49364055
SAF,86,1,2024-10-15T04:12:25.691Z,english_556.wav,0,pill,1362,39,5,Japanese,m,3,0.3,64.03572584,1.54190039
SAF,86,1,2024-10-15T04:12:25.691Z,english_556.wav,0,pill,1362,39,5,Japanese,m,4,0.32341667,72.79696002,0.53435232
SAF,87,1,2024-10-15T04:12:25.691Z,english_764.wav,0,peel,1458,39,5,Japanese,m,0,0.0,7.00590276,1.84020442
SAF,87,1,2024-10-15T04:12:25.691Z,english_764.wav,0,peel,1458,39,5,Japanese,m,1,0.1,-69.33047837,0.1607256
SAF,87,1,2024-10-15T04:12:25.691Z,english_764.wav,0,peel,1458,39,5,Japanese,m,2,0.2,-20.89747671,1.70981587
SAF,87,1,2024-10-15T04:12:25.691Z,english_764.wav,0,peel,1458,39,5,Japanese,m,3,0.3,-96.63564891,1.13854431
SAF,87,1,2024-10-15T04:12:25.691Z,english_764.wav,0,peel,1458,39,5,Japanese,m,4,0.32341667,78.55111455,1.5536836
SAF,88,1,2024-10-15T04:12:25.691Z,english_782.wav,0,peel,2048,39,5,Japanese,m,0,0.0,-98.70381677,1.47488053
SAF,88,1,2024-10-15T04:12:25.691Z,english_782.wav,0,peel,2048,39,5,Japanese,m,1,0.1,-69.82387258,0.7270016
SAF,88,1,2024-10-15T04:12:25.691Z,english_782.wav,0,peel,2048,39,5,Japanese,m,2,0.2,35.26613747,0.08778447
SAF,88,1,2024-10-15T04:12:25.691Z,english_782.wav,0,peel,2048,39,5,Japanese,m,3,0.3,-81.38004879,1.16903228
SAF,88,1,2024-10-15T04:12:25.691Z,english_782.wav,0,peel,2048,39,5,Japanese,m,4,0.32341667,-61.83067014,0.92727902
SAF,89,1,2024-10-15T04:12:25.691Z,english_812.wav,0,pill,553,39,5,Japanese,m,0,0.0,70.24469457,0.85599223
SAF,89,1,2024-10-15T04:12:25.691Z,english_812.wav,0,pill,553,39,5,Japanese,m,1,0.1,-27.51466786,0.39005905
SAF,89,1,2024-10-15T04:12:25.691Z,english_812.wav,0,pill,553,39,5,Japanese,m,2,0.2,60.55844263,1.43275618
SAF,89,1,2024-10-15T04:12:25.691Z,english_812.wav,0,pill,553,39,5,Japanese,m,3,0.3,52.93607499,1.34329238
SAF,89,1,2024-10-15T04:12:25.691Z,english_812.wav,0,pill,553,39,5,Japanese,m,4,0.32341667,74.74872052,0.96810209
SAF,90,1,2024-10-15T04:12:25.691Z,english_282.wav,0,pill,1008,39,5,Japanese,m,0,0.0,0.76940706,0.32837311
SAF,90,1,2024-10-15T04:12:25.691Z,english_282.wav,0,pill,1008,39,5,Japanese,m,1,0.1,85.14494722,0.39977994
SAF,90,1,2024-10-15T04:12:25.691Z,english_282.wav,0,pill,1008,39,5,Japanese,m,2,0.2,-92.43433596,0.62065738
SAF,90,1,2024-10-15T04:12:25.691Z,english_282.wav,0,pill,1008,39,5,Japanese,m,3,0.3,-98.42888083,0.06200237
SAF,90,1,2024-10-15T04:12:25.691Z,english_282.wav,0,pill,1008,39,5,Japanese,m,4,0.32341667,-32.58662549,1.4193679
SAF,91,1,2024-10-15T04:12:25.691Z,english_231.wav,0,peel,908,39,5,Japanese,m,0,0.0,-57.04299033,1.30850831
SAF,91,1,2024-10-15T04:12:25.691Z,english_231.wav,0,peel,908,39,5,Japanese,m,1,0.1,-61.30294243,1.06317761
SAF,91,1,2024-10-15T04:12:25.691Z,english_231.wav,0,peel,908,39,5,Japanese,m,2,0.2,11.10207427,1.86768436
SAF,91,1,2024-10-15T04:12:25.691Z,english_231.wav,0,peel,908,39,5,Japanese,m,3,0.3,-1.38864911,1.42169342
SAF,91,1,2024-10-15T04:12:25.691Z,english_231.wav,0,peel,908,39,5,Japanese,m,4,0.32341667,-40.37897369,0.58634772
SAF,92,1,2024-10-15T04:12:25.691Z,english_505.wav,0,pill,3440,39,5,Japanese,m,0,0.0,-14.1569725,0.45361713
SAF,92,1,2024-10-15T04:12:25.691Z,english_505.wav,0,pill,3440,39,5,Japanese,m,1,0.1,55.52926248,0.94516805
SAF,92,1,2024-10-15T04:12:25.691Z,english_505.wav,0,pill,3440,39,5,Japanese,m,2,0.2,53.00334781,0.85342654
SAF,92,1,2024-10-15T04:12:25.691Z,english_505.wav,0,pill,3440,39,5,Japanese,m,3,0.3,75.03788466,1.32942474
SAF,92,1,2024-10-15T04:12:25.691Z,english_505.wav,0,pill,3440,39,5,Japanese,m,4,0.32341667,-7.91266729,0.93790665
SAF,93,1,2024-10-15T04:12:25.691Z,english_275.wav,0,peel,2197,39,5,Japanese,m,0,0.0,-1.14725012,0.71691039
SAF,93,1,2024-10-15T04:12:25.691Z,english_275.wav,0,peel,2197,39,5,Japanese,m,1,0.1,-90.43848863,0.74614953
SAF,93,1,2024-10-15T04:12:25.691Z,english_275.wav,0,peel,2197,39,5,Japanese,m,2,0.2,-40.03711279,1.94843862
SAF,93,1,2024-10-15T04:12:25.691Z,english_275.wav,0,peel,2197,39,5,Japanese,m,3,0.3,-29.12549604,0.32495742
SAF,93,1,2024-10-15T04:12:25.691Z,english_275.wav,0,peel,2197,39,5,Japanese,m,4,0.32341667,77.33253221,0.61649877
SAF,94,1,2024-10-15T04:12:25.691Z,english_315.wav,0,peel,1484,39,5,Japanese,m,0,0.0,3.76150079,1.04293113
SAF,94,1,2024-10-15T04:12:25.691Z,english_315.wav,0,peel,1484,39,5,Japanese,m,1,0.1,4.93204799,0.55537984
SAF,94,1,2024-10-15T04:12:25.691Z,english_315.wav,0,peel,1484,39,5,Japanese,m,2,0.2,-81.53480532,1.13024782
SAF,94,1,2024-10-15T04:12:25.691Z,english_315.wav,0,peel,1484,39,5,Japanese,m,3,0.3,45.94577355,1.06792043
SAF,94,1,2024-10-15T04:12:25.691Z,english_315.wav,0,peel,1484,39,5,Japanese,m,4,0.32341667,-55.96194099,1.80369969
SAF,95,1,2024-10-15T04:12:25.691Z,english_213.wav,0,peel,1216,39,5,Japanese,m,0,0.0,-29.91874444,1.42031243
SAF,95,1,2024-10-15T04:12:25.691Z,english_213.wav,0,peel,1216,39,5,Japanese,m,1,0.1,41.64704809,0.59218852
SAF,95,1,2024-10-15T04:12:25.691Z,english_213.wav,0,peel,1216,39,5,Japanese,m,2,0.2,-87.11075848,1.10576613
SAF,95,1,2024-10-15T04:12:25.691Z,english_213.wav,0,peel,1216,39,5,Japanese,m,3,0.3,-61.54877495,0.09529021
SAF,95,1,2024-10-15T04:12:25.691Z,english_213.wav,0,peel,1216,39,5,Japanese,m,4,0.32341667,-34.29429643,1.15583312
SAF,96,1,2024-10-15T04:12:25.691Z,english_990.wav,0,peel,2254,39,5,Japanese,m,0,0.0,-17.98511021,0.6190444
SAF,96,1,2024-10-15T04:12:25.691Z,english_990.wav,0,peel,2254,39,5,Japanese,m,1,0.1,-90.3005676,0.77548775
SAF,96,1,2024-10-15T04:12:25.691Z,english_990.wav,0,peel,2254,39,5,Japanese,m,2,0.2,4.37005684,0.55013224
SAF,96,1,2024-10-15T04:12:25.691Z,english_990.wav,0,peel,2254,39,5,Japanese,m,3,0.3,83.93705034,0.66784051
SAF,96,1,2024-10-15T04:12:25.691Z,english_990.wav,0,peel,2254,39,5,Japanese,m,4,0.32341667,-36.57803625,0.32384409
SAF,97,1,2024-10-15T04:12:25.691Z,english_531.wav,0,peel,1178,39,5,Japanese,m,0,0.0,-79.40575395,0.23141906
SAF,97,1,2024-10-15T04:12:25.691Z,english_531.wav,0,peel,1178,39,5,Japanese,m,1,0.1,24.69139357,1.34739197
SAF,97,1,2024-10-15T04:12:25.691Z,english_531.wav,0,peel,1178,39,5,Japanese,m,2,0.2,31.85465478,0.44473315
SAF,97,1,2024-10-15T04:12:25.691Z,english_531.wav,0,peel,1178,39,5,Japanese,m,3,0.3,0.37788074,1.31624907
SAF,97,1,2024-10-15T04:12:25.691Z,english_531.wav,0,peel,1178,39,5,Japanese,m,4,0.32341667,-42.85922685,0.82105614
SAF,98,1,2024-10-15T04:12:25.691Z,english_916.wav,0,pill,4095,39,5,Japanese,m,0,0.0,-50.62314768,0.5519299
SAF,98,1,2024-10-15T04:12:25.691Z,english_916.wav,0,pill,4095,39,5,Japanese,m,1,0.1,-52.55300278,1.16723516
SAF,98,1,2024-10-15T04:12:25.691Z,english_916.wav,0,pill,4095,39,5,Japanese,m,2,0.2,54.298582,1.72376738
SAF,98,1,2024-10-15T04:12:25.691Z,english_916.wav,0,pill,4095,39,5,Japanese,m,3,0.3,-23.99088857,0.41493786
SAF,98,1,2024-10-15T04:12:25.691Z,english_916.wav,0,pill,4095,39,5,Japanese,m,4,0.32341667,4.88948607,1.97918138
SAF,99,1,2024-10-15T04:12:25.691Z,english_956.wav,0,pill,3746,39,5,Japanese,m,0,0.0,-98.71257913,1.5828524
SAF,99,1,2024-10-15T04:12:25.691Z,english_956.wav,0,pill,3746,39,5,Japanese,m,1,0.1,-36.05702295,0.66985857
SAF,99,1,2024-10-15T04:12:25.691Z,english_956.wav,0,pill,3746,39,5,Japanese,m,2,0.2,-31.95582623,0.13798036
SAF,99,1,2024-10-15T04:12:25.691Z,english_956.wav,0,pill,3746,39,5,Japanese,m,3,0.3,-81.31295359,0.22663358
SAF,99,1,2024-10-15T04:12:25.691Z,english_956.wav,0,pill,3746,39,5,Japanese,m,4,0.32341667,45.09425789,0.54862974
SAF,100,2,2024-10-15T04:16:02.533Z,english_603.wav,0,pill,1824,39,5,Japanese,m,0,0.0,-14.17444723,1.28295305
SAF,100,2,2024-10-15T04:16:02.533Z,english_603.wav,0,pill,1824,39,5,Japanese,m,1,0.1,-4.64921339,0.35920956
SAF,100,2,2024-10-15T04:16:02.533Z,english_603.wav,0,pill,1824,39,5,Japanese,m,2,0.2,-23.32469505,0.60281559
SAF,100,2,2024-10-15T04:16:02.533Z,english_603.wav,0,pill,1824,39,5,Japanese,m,3,0.3,-59.01260874,0.58107079
SAF,100,2,2024-10-15T04:16:02.533Z,english_603.wav,0,pill,1824,39,5,Japanese,m,4,0.32341667,88.53711532,1.19087365
SAF,101,2,2024-10-15T04:16:02.533Z,english_770.wav,0,peel,1734,39,5,Japanese,m,0,0.0,-33.21947329,1.48551245
SAF,101,2,2024-10-15T04:16:02.533Z,english_770.wav,0,peel,1734,39,5,Japanese,m,1,0.1,63.53746239,1.21485607
SAF,101,2,2024-10-15T04:16:02.533Z,english_770.wav,0,peel,1734,39,5,Japanese,m,2,0.2,-62.38231874,1.11129762
SAF,101,2,2024-10-15T04:16:02.533Z,english_770.wav,0,peel,1734,39,5,Japanese,m,3,0.3,57.5515188,1.59702794
SAF,101,2,2024-10-15T04:16:02.533Z,english_770.wav,0,peel,1734,39,5,Japanese,m,4,0.32341667,-11.94001254,1.16110171
SAF,102,2,2024-10-15T04:16:02.533Z,english_555.wav,0,pill,2290,39,5,Japanese,m,0,0.0,69.49762262,1.08530069
SAF,102,2,2024-10-15T04:16:02.533Z,english_555.wav,0,pill,2290,39,5,Japanese,m,1,0.1,42.72159746,0.99979939
SAF,102,2,2024-10-15T04:16:02.533Z,english_555.wav,0,pill,2290,39,5,Japanese,m,2,0.2,96.74773092,1.75882447
SAF,102,2,2024-10-15T04:16:02.533Z,english_555.wav,0,pill,2290,39,5,Japanese,m,3,0.3,-27.92411753,1.36775981
SAF,102,2,2024-10-15T04:16:02.533Z,english_555.wav,0,pill,2290,39,5,Japanese,m,4,0.32341667,33.93273626,0.90104071
SAF,103,2,2024-10-15T04:16:02.533Z,english_809.wav,0,peel,1773,39,5,Japanese,m,0,0.0,-9.08149959,0.73203403
SAF,103,2,2024-10-15T04:16:02.533Z,english_809.wav,0,peel,1773,39,5,Japanese,m,1,0.1,12.16544582,0.53159531
SAF,103,2,2024-10-15T04:16:02.533Z,english_809.wav,0,peel,1773,39,5,Japanese,m,2,0.2,40.52205867,1.48114639
SAF,103,2,2024-10-15T04:16:02.533Z,english_809.wav,0,peel,1773,39,5,Japanese,m,3,0.3,-94.19679153,1.77078339
SAF,103,2,2024-10-15T04:16:02.533Z,english_809.wav,0,peel,1773,39,5,Japanese,m,4,0.32341667,-5.82752377,1.36117577
SAF,104,2,2024-10-15T04:16:02.533Z,english_517.wav,0,pill,729,39,5,Japanese,m,0,0.0,11.23661905,0.76208972
SAF,104,2,2024-10-15T04:16:02.533Z,english_517.wav,0,pill,729,39,5,Japanese,m,1,0.1,58.81241605,0.18193562
SAF,104,2,2024-10-15T04:16:02.533Z,english_517.wav,0,pill,729,39,5,Japanese,m,2,0.2,38.38790279,1.85963831
SAF,104,2,2024-10-15T04:16:02.533Z,english_517.wav,0,pill,729,39,5,Japanese,m,3,0.3,-74.61462092,0.20223028
SAF,104,2,2024-10-15T04:16:02.533Z,english_517.wav,0,pill,729,39,5,Japanese,m,4,0.32341667,-36.69086471,1.46287498
SAF,105,2,2024-10-15T04:16:02.533Z,english_932.wav,0,pill,2365,39,5,Japanese,m,0,0.0,-3.8848098,1.00949787
SAF,105,2,2024-10-15T04:16:02.533Z,english_932.wav,0,pill,2365,39,5,Japanese,m,1,0.1,-32.48916274,1.44703087
SAF,105,2,2024-10-15T04:16:02.533Z,english_932.wav,0,pill,2365,39,5,Japanese,m,2,0.2,81.26251807,0.10808594
SAF,105,2,2024-10-15T04:16:02.533Z,english_932.wav,0,pill,2365,39,5,Japanese,m,3,0.3,-18.23478105,0.03465182
SAF,105,2,2024-10-15T04:16:02.533Z,english_932.wav,0,pill,2365,39,5,Japanese,m,4,0.32341667,7.90132089,0.79845554
SAF,106,2,2024-10-15T04:16:02.533Z,english_817.wav,0,pill,5099,39,5,Japanese,m,0,0.0,58.06319333,0.77394069
SAF,106,2,2024-10-15T04:16:02.533Z,english_817.wav,0,pill,5099,39,5,Japanese,m,1,0.1,0.91206114,0.81778066
SAF,106,2,2024-10-15T04:16:02.533Z,english_817.wav,0,pill,5099,39,5,Japanese,m,2,0.2,-27.80824757,1.48752315
SAF,106,2,2024-10-15T04:16:02.533Z,english_817.wav,0,pill,5099,39,5,Japanese,m,3,0.3,-73.7491051,0.41888886
SAF,106,2,2024-10-15T04:16:02.533Z,english_817.wav,0,pill,5099,39,5,Japanese,m,4,0.32341667,69.75698508,0.93012443
SAF,107,2,2024-10-15T04:16:02.533Z,english_785.wav,0,pill,1230,39,5,Japanese,m,0,0.0,41.51350967,0.93543931
SAF,107,2,2024-10-15T04:16:02.533Z,english_785.wav,0,pill,1230,39,5,Japanese,m,1,0.1,26.23517368,1.17819894
SAF,107,2,2024-10-15T04:16:02.533Z,english_785.wav,0,pill,1230,39,5,Japanese,m,2,0.2,-12.63822228,1.98833146
SAF,107,2,2024-10-15T04:16:02.533Z,english_785.wav,0,pill,1230,39,5,Japanese,m,3,0.3,-30.66588474,0.80021218
SAF,107,2,2024-10-15T04:16:02.533Z,english_785.wav,0,pill,1230,39,5,Japanese,m,4,0.32341667,26.08399401,1.2737519
SAF,108,2,2024-10-15T04:16:02.533Z,english_112.wav,0,peel,1227,39,5,Japanese,m,0,0.0,-98.7507832,1.62855774
SAF,108,2,2024-10-15T04:16:02.533Z,english_112.wav,0,peel,1227,39,5,Japanese,m,1,0.1,-92.72198769,1.23374737
SAF,108,2,2024-10-15T04:16:02.533Z,english_112.wav,0,peel,1227,39,5,Japanese,m,2,0.2,15.54821062,0.76022921
SAF,108,2,2024-10-15T04:16:02.533Z,english_112.wav,0,peel,1227,39,5,Japanese,m,3,0.3,-40.54151432,0.49860071
SAF,108,2,2024-10-15T04:16:02.533Z,english_112.wav,0,peel,1227,39,5,Japanese,m,4,0.32341667,-42.89167932,0.23801633
SAF,109,2,2024-10-15T04:16:02.533Z,english_899.wav,0,pill,2596,39,5,Japanese,m,0,0.0,34.44970312,1.0262563
SAF,109,2,2024-10-15T04:16:02.533Z,english_899.wav,0,pill,2596,39,5,Japanese,m,1,0.1,-73.97598586,0.5565938
SAF,109,2,2024-10-15T04:16:02.533Z,english_899.wav,0,pill,2596,39,5,Japanese,m,2,0.2,4.84970015,0.08950317
SAF,109,2,2024-10-15T04:16:02.533Z,english_899.wav,0,pill,2596,39,5,Japanese,m,3,0.3,25.99530817,1.10823657
SAF,109,2,2024-10-15T04:16:02.533Z,english_899.wav,0,pill,2596,39,5,Japanese,m,4,0.32341667,7.0197251,1.27665612
SAF,110,2,2024-10-15T04:16:02.533Z,english_344.wav,0,peel,879,39,5,Japanese,m,0,0.0,-81.18103124,1.80730522
SAF,110,2,2024-10-15T04:16:02.533Z,english_344.wav,0,peel,879,39,5,Japanese,m,1,0.1,-15.12635331,1.30606229
SAF,110,2,2024-10-15T04:16:02.533Z,english_344.wav,0,peel,879,39,5,Japanese,m,2,0.2,92.11407185,0.89739403
SAF,110,2,2024-10-15T04:16:02.533Z,english_344.wav,0,peel,879,39,5,Japanese,m,3,0.3,-26.28325028,0.17834637
SAF,110,2,2024-10-15T04:16:02.533Z,english_344.wav,0,peel,879,39,5,Japanese,m,4,0.32341667,-10.89648072,0.48618419
SAF,111,2,2024-10-15T04:16:02.533Z,english_745.wav,0,pill,4261,39,5,Japanese,m,0,0.0,-57.64472866,1.88925258
SAF,111,2,2024-10-15T04:16:02.533Z,english_745.wav,0,pill,4261,39,5,Japanese,m,1,0.1,-14.80975681,0.26333653
SAF,111,2,2024-10-15T04:16:02.533Z,english_745.wav,0,pill,4261,39,5,Japanese,m,2,0.2,44.46939178,1.01945351
SAF,111,2,2024-10-15T04:16:02.533Z,english_745.wav,0,pill,4261,39,5,Japanese,m,3,0.3,56.80280999,0.00901457
SAF,111,2,2024-10-15T04:16:02.533Z,english_745.wav,0,pill,4261,39,5,Japanese,m,4,0.32341667,-16.53068296,0.38778228
SAF,112,2,2024-10-15T04:16:02.533Z,english_62.wav,0,peel,779,39,5,Japanese,m,0,0.0,17.28527913,1.12530616
SAF,112,2,2024-10-15T04:16:02.533Z,english_62.wav,0,peel,779,39,5,Japanese,m,1,0.1,8.63936001,1.09357984
SAF,112,2,2024-10-15T04:16:02.533Z,english_62.wav,0,peel,779,39,5,Japanese,m,2,0.2,-69.0074729,1.07648496
SAF,112,2,2024-10-15T04:16:02.533Z,english_62.wav,0,peel,779,39,5,Japanese,m,3,0.3,-18.85502465,0.36768209
SAF,112,2,2024-10-15T04:16:02.533Z,english_62.wav,0,peel,779,39,5,Japanese,m,4,0.32341667,59.46739627,0.39033463
SAF,113,2,2024-10-15T04:16:02.533Z,english_906.wav,0,pill,346,39,5,Japanese,m,0,0.0,-40.48589107,1.22436898
SAF,113,2,2024-10-15T04:16:02.533Z,english_906.wav,0,pill,346,39,5,Japanese,m,1,0.1,47.48995475,1.54823641
SAF,113,2,2024-10-15T04:16:02.533Z,english_906.wav,0,pill,346,39,5,Japanese,m,2,0.2,-46.73743802,1.02590908
SAF,113,2,2024-10-15T04:16:02.533Z,english_906.wav,0,pill,346,39,5,Japanese,m,3,0.3,-97.96557374,1.74877791
SAF,113,2,2024-10-15T04:16:02.533Z,english_906.wav,0,pill,346,39,5,Japanese,m,4,0.32341667,18.48293991,0.76585735
SAF,114,2,2024-10-15T04:16:02.533Z,english_27.wav,0,peel,1289,39,5,Japanese,m,0,0.0,-6.18374659,1.89085405
SAF,114,2,2024-10-15T04:16:02.533Z,english_27.wav,0,peel,1289,39,5,Japanese,m,1,0.1,32.21095844,0.80138328
SAF,114,2,2024-10-15T04:16:02.533Z,english_27.wav,0,peel,1289,39,5,Japanese,m,2,0.2,21.02729748,1.01248602
SAF,114,2,2024-10-15T04:16:02.533Z,english_27.wav,0,peel,1289,39,5,Japanese,m,3,0.3,4.79829383,1.67412938
SAF,114,2,2024-10-15T04:16:02.533Z,english_27.wav,0,peel,1289,39,5,Japanese,m,4,0.32341667,-70.7577659,0.3387802
SAF,115,2,2024-10-15T04:16:02.533Z,english_406.wav,0,pill,352,39,5,Japanese,m,0,0.0,28.09923375,1.43312072
SAF,115,2,2024-10-15T04:16:02.533Z,english_406.wav,0,pill,352,39,5,Japanese,m,1,0.1,-15.10813675,0.8890381
SAF,115,2,2024-10-15T04:16:02.533Z,english_406.wav,0,pill,352,39,5,Japanese,m,2,0.2,-12.43931725,0.60560557
SAF,115,2,2024-10-15T04:16:02.533Z,english_406.wav,0,pill,352,39,5,Japanese,m,3,0.3,-27.33468297,1.13565345
SAF,115,2,2024-10-15T04:16:02.533Z,english_406.wav,0,pill,352,39,5,Japanese,m,4,0.32341667,-62.66931892,1.8467177
SAF,116,2,2024-10-15T04:16:02.533Z,english_862.wav,0,pill,3320,39,5,Japanese,m,0,0.0,97.17644144,0.51253178
SAF,116,2,2024-10-15T04:16:02.533Z,english_862.wav,0,pill,3320,39,5,Japanese,m,1,0.1,26.34966999,0.21080737
SAF,116,2,2024-10-15T04:16:02.533Z,english_862.wav,0,pill,3320,39,5,Japanese,m,2,0.2,-21.73584106,0.27401534
SAF,116,2,2024-10-15T04:16:02.533Z,english_862.wav,0,pill,3320,39,5,Japanese,m,3,0.3,70.49109419,1.91980484
SAF,116,2,2024-10-15T04:16:02.533Z,english_862.wav,0,pill,3320,39,5,Japanese,m,4,0.32341667,43.48373212,0.96077188
SAF,117,2,2024-10-15T04:16:02.533Z,english_995.wav,0,peel,975,39,5,Japanese,m,0,0.0,49.33707883,0.89732458
SAF,117,2,2024-10-15T04:16:02.533Z,english_995.wav,0,peel,975,39,5,Japanese,m,1,0.1,54.78730957,0.49662083
SAF,117,2,2024-10-15T04:16:02.533Z,english_995.wav,0,peel,975,39,5,Japanese,m,2,0.2,-5.99414072,0.83265132
SAF,117,2,2024-10-15T04:16:02.533Z,english_995.wav,0,peel,975,39,5,Japanese,m,3,0.3,26.8687238,1.32035917
SAF,117,2,2024-10-15T04:16:02.533Z,english_995.wav,0,peel,975,39,5,Japanese,m,4,0.32341667,38.3348194,1.99869744
SAF,118,2,2024-10-15T04:16:02.533Z,english_941.wav,0,pill,588,39,5,Japanese,m,0,0.0,88.25484185,1.5236155
SAF,118,2,2024-10-15T04:16:02.533Z,english_941.wav,0,pill,588,39,5,Japanese,m,1,0.1,29.23312353,0.93469446
SAF,118,2,2024-10-15T04:16:02.533Z,english_941.wav,0,pill,588,39,5,Japanese,m,2,0.2,-73.60888885,0.44203051
SAF,118,2,2024-10-15T04:16:02.533Z,english_941.wav,0,pill,588,39,5,Japanese,m,3,0.3,-38.35663254,1.28625712
SAF,118,2,2024-10-15T04:16:02.533Z,english_941.wav,0,pill,588,39,5,Japanese,m,4,0.32341667,-37.21470774,1.264942
SAF,119,2,2024-10-15T04:16:02.533Z,english_823.wav,0,pill,1907,39,5,Japanese,m,0,0.0,24.6891334,1.19409205
SAF,119,2,2024-10-15T04:16:02.533Z,english_823.wav,0,pill,1907,39,5,Japanese,m,1,0.1,86.03794788,0.72053846
SAF,119,2,2024-10-15T04:16:02.533Z,english_823.wav,0,pill,1907,39,5,Japanese,m,2,0.2,45.97308045,0.2138623
SAF,119,2,2024-10-15T04:16:02.533Z,english_823.wav,0,pill,1907,39,5,Japanese,m,3,0.3,39.11596791,1.56743943
SAF,119,2,2024-10-15T04:16:02.533Z,english_823.wav,0,pill,1907,39,5,Japanese,m,4,0.32341667,10.29734006,1.24065623
SAF,120,2,2024-10-15T04:16:02.533Z,english_811.wav,0,peel,787,39,5,Japanese,m,0,0.0,-51.03425556,1.55055496
SAF,120,2,2024-10-15T04:16:02.533Z,english_811.wav,0,peel,787,39,5,Japanese,m,1,0.1,22.81695275,1.74830484
SAF,120,2,2024-10-15T04:16:02.533Z,english_811.wav,0,peel,787,39,5,Japanese,m,2,0.2,73.06623682,1.24661488
SAF,120,2,2024-10-15T04:16:02.533Z,english_811.wav,0,peel,787,39,5,Japanese,m,3,0.3,-9.17693151,0.09792889
SAF,120,2,2024-10-15T04:16:02.533Z,english_811.wav,0,peel,787,39,5,Japanese,m,4,0.32341667,79.97760745,0.03735929
SAF,121,2,2024-10-15T04:16:02.533Z,english_97.wav,0,pill,1178,39,5,Japanese,m,0,0.0,57.21139396,1.63402743
SAF,121,2,2024-10-15T04:16:02.533Z,english_97.wav,0,pill,1178,39,5,Japanese,m,1,0.1,-7.40408397,0.54734888
SAF,121,2,2024-10-15T04:16:02.533Z,english_97.wav,0,pill,1178,39,5,Japanese,m,2,0.2,77.7995227,1.5228594
SAF,121,2,2024-10-15T04:16:02.533Z,english_97.wav,0,pill,1178,39,5,Japanese,m,3,0.3,-51.1747528,1.13050105
SAF,121,2,2024-10-15T04:16:02.533Z,english_97.wav,0,pill,1178,39,5,Japanese,m,4,0.32341667,77.11982253,0.82586999
SAF,122,2,2024-10-15T04:16:02.533Z,english_167.wav,0,peel,681,39,5,Japanese,m,0,0.0,57.26975159,0.44729063
SAF,122,2,2024-10-15T04:16:02.533Z,english_167.wav,0,peel,681,39,5,Japanese,m,1,0.1,54.31010869,1.623568
SAF,122,2,2024-10-15T04:16:02.533Z,english_167.wav,0,peel,681,39,5,Japanese,m,2,0.2,99.57020207,0.28743218
SAF,122,2,2024-10-15T04:16:02.533Z,english_167.wav,0,peel,681,39,5,Japanese,m,3,0.3,27.92735821,0.71837494
SAF,122,2,2024-10-15T04:16:02.533Z,english_167.wav,0,peel,681,39,5,Japanese,m,4,0.32341667,73.13424206,1.35815305
SAF,123,2,2024-10-15T04:16:02.533Z,english_218.wav,0,pill,1112,39,5,Japanese,m,0,0.0,87.3373499,1.94084006
SAF,123,2,2024-10-15T04:16:02.533Z,english_218.wav,0,pill,1112,39,5,Japanese,m,1,0.1,-14.87903436,0.13305972
SAF,123,2,2024-10-15T04:16:02.533Z,english_218.wav,0,pill,1112,39,5,Japanese,m,2,0.2,-31.97943339,1.11441312
SAF,123,2,2024-10-15T04:16:02.533Z,english_218.wav,0,pill,1112,39,5,Japanese,m,3,0.3,-60.49311609,1.83933377
SAF,123,2,2024-10-15T04:16:02.533Z,english_218.wav,0,pill,1112,39,5,Japanese,m,4,0.32341667,-63.68242647,1.41053301
SAF,124,2,2024-10-15T04:16:02.533Z,english_495.wav,0,pill,649,39,5,Japanese,m,0,0.0,-5.58861003,1.32978923
SAF,124,2,2024-10-15T04:16:02.533Z,english_495.wav,0,pill,649,39,5,Japanese,m,1,0.1,8.95176437,0.81778757
SAF,124,2,2024-10-15T04:16:02.533Z,english_495.wav,0,pill,649,39,5,Japanese,m,2,0.2,39.42206983,0.66481361
SAF,124,2,2024-10-15T04:16:02.533Z,english_495.wav,0,pill,649,39,5,Japanese,m,3,0.3,-84.38976819,0.35850052
SAF,124,2,2024-10-15T04:16:02.533Z,english_495.wav,0,pill,649,39,5,Japanese,m,4,0.32341667,-2.90431636,0.23899864
SAF,125,2,2024-10-15T04:16:02.533Z,english_771.wav,0,pill,2402,39,5,Japanese,m,0,0.0,52.29619013,1.65909918
SAF,125,2,2024-10-15T04:16:02.533Z,english_771.wav,0,pill,2402,39,5,Japanese,m,1,0.1,55.26271333,1.05958749
SAF,125,2,2024-10-15T04:16:02.533Z,english_771.wav,0,pill,2402,39,5,Japanese,m,2,0.2,49.2587818,1.33758239
SAF,125,2,2024-10-15T04:16:02.533Z,english_771.wav,0,pill,2402,39,5,Japanese,m,3,0.3,48.45532009,1.75478958
SAF,125,2,2024-10-15T04:16:02.533Z,english_771.wav,0,pill,2402,39,5,Japanese,m,4,0.32341667,-98.45631565,0.37013483
SAF,126,2,2024-10-15T04:16:02.533Z,english_171.wav,0,pill,1145,39,5,Japanese,m,0,0.0,13.65984607,0.71637608
SAF,126,2,2024-10-15T04:16:02.533Z,english_171.wav,0,pill,1145,39,5,Japanese,m,1,0.1,70.55092655,1.80826384
SAF,126,2,2024-10-15T04:16:02.533Z,english_171.wav,0,pill,1145,39,5,Japanese,m,2,0.2,57.57935127,0.47277884
SAF,126,2,2024-10-15T04:16:02.533Z,english_171.wav,0,pill,1145,39,5,Japanese,m,3,0.3,-55.35579571,1.22036711
SAF,126,2,2024-10-15T04:16:02.533Z,english_171.wav,0,pill,1145,39,5,Japanese,m,4,0.32341667,13.04572565,0.00907712
SAF,127,2,2024-10-15T04:16:02.533Z,english_923.wav,0,pill,2895,39,5,Japanese,m,0,0.0,-0.59122564,1.19594648
SAF,127,2,2024-10-15T04:16:02.533Z,english_923.wav,0,pill,2895,39,5,Japanese,m,1,0.1,-5.70499959,1.05419104
SAF,127,2,2024-10-15T04:16:02.533Z,english_923.wav,0,pill,2895,39,5,Japanese,m,2,0.2,-29.88927864,0.73000078
SAF,127,2,2024-10-15T04:16:02.533Z,english_923.wav,0,pill,2895,39,5,Japanese,m,3,0.3,-82.02126299,1.36390543
SAF,127,2,2024-10-15T04:16:02.533Z,english_923.wav,0,pill,2895,39,5,Japanese,m,4,0.32341667,16.89967319,1.13865732
SAF,128,2,2024-10-15T04:16:02.533Z,english_846.wav,0,peel,4416,39,5,Japanese,m,0,0.0,61.87306923,1.6800264
SAF,128,2,2024-10-15T04:16:02.533Z,english_846.wav,0,peel,4416,39,5,Japanese,m,1,0.1,-5.64177324,0.32387551
SAF,128,2,2024-10-15T04:16:02.533Z,english_846.wav,0,peel,4416,39,5,Japanese,m,2,0.2,86.75305487,0.09122421
SAF,128,2,2024-10-15T04:16:02.533Z,english_846.wav,0,peel,4416,39,5,Japanese,m,3,0.3,-27.71752308,0.55014386
SAF,128,2,2024-10-15T04:16:02.533Z,english_846.wav,0,peel,4416,39,5,Japanese,m,4,0.32341667,-26.78048177,0.82256102
SAF,129,2,2024-10-15T04:16:02.533Z,english_373.wav,0,pill,3587,39,5,Japanese,m,0,0.0,-63.66458186,0.61104768
SAF,129,2,2024-10-15T04:16:02.533Z,english_373.wav,0,pill,3587,39,5,Japanese,m,1,0.1,-61.42386056,1.64905001
SAF,129,2,2024-10-15T04:16:02.533Z,english_373.wav,0,pill,3587,39,5,Japanese,m,2,0.2,-78.74831974,1.44355649
SAF,129,2,2024-10-15T04:16:02.533Z,english_373.wav,0,pill,3587,39,5,Japanese,m,3,0.3,-23.23108213,1.63671726
SAF,129,2,2024-10-15T04:16:02.533Z,english_373.wav,0,pill,3587,39,5,Japanese,m,4,0.32341667,-77.15694383,1.96911306
SAF,130,2,2024-10-15T04:16:02.533Z,english_410.wav,0,peel,2499,39,5,Japanese,m,0,0.0,-74.64506245,0.42358098
SAF,130,2,2024-10-15T04:16:02.533Z,english_410.wav,0,peel,2499,39,5,Japanese,m,1,0.1,65.24401488,0.42526697
SAF,130,2,2024-10-15T04:16:02.533Z,english_410.wav,0,peel,2499,39,5,Japanese,m,2,0.2,-65.86471953,1.12385183
SAF,130,2,2024-10-15T04:16:02.533Z,english_410.wav,0,peel,2499,39,5,Japanese,m,3,0.3,98.79489106,0.33588109
SAF,130,2,2024-10-15T04:16:02.533Z,english_410.wav,0,peel,2499,39,5,Japanese,m,4,0.32341667,14.95451541,1.7246864
SAF,131,2,2024-10-15T04:16:02.533Z,english_363.wav,0,pill,1396,39,5,Japanese,m,0,0.0,-8.62246293,0.22304778
SAF,131,2,2024-10-15T04:16:02.533Z,english_363.wav,0,pill,1396,39,5,Japanese,m,1,0.1,-37.95317313,0.51009023
SAF,131,2,2024-10-15T04:16:02.533Z,english_363.wav,0,pill,1396,39,5,Japanese,m,2,0.2,-98.56362786,1.67320701
SAF,131,2,2024-10-15T04:16:02.533Z,english_363.wav,0,pill,1396,39,5,Japanese,m,3,0.3,79.4101663,0.32318158
SAF,131,2,2024-10-15T04:16:02.533Z,english_363.wav,0,pill,1396,39,5,Japanese,m,4,0.32341667,-19.01593507,1.23606141
SAF,132,2,2024-10-15T04:16:02.533Z,english_228.wav,0,peel,975,39,5,Japanese,m,0,0.0,10.35680964,1.81276751
SAF,132,2,2024-10-15T04:16:02.533Z,english_228.wav,0,peel,975,39,5,Japanese,m,1,0.1,-84.53961792,0.9819477
SAF,132,2,2024-10-15T04:16:02.533Z,english_228.wav,0,peel,975,39,5,Japanese,m,2,0.2,38.41788342,1.68506606
SAF,132,2,2024-10-15T04:16:02.533Z,english_228.wav,0,peel,975,39,5,Japanese,m,3,0.3,-9.18015311,0.19219142
SAF,132,2,2024-10-15T04:16:02.533Z,english_228.wav,0,peel,975,39,5,Japanese,m,4,0.32341667,-12.25744947,1.99636764
SAF,133,2,2024-10-15T04:16:02.533Z,english_195.wav,0,peel,608,39,5,Japanese,m,0,0.0,88.76446124,0.85936173
SAF,133,2,2024-10-15T04:16:02.533Z,english_195.wav,0,peel,608,39,5,Japanese,m,1,0.1,56.50909504,1.06337161
SAF,133,2,2024-10-15T04:16:02.533Z,english_195.wav,0,peel,608,39,5,Japanese,m,2,0.2,-5.11157055,1.01766647
SAF,133,2,2024-10-15T04:16:02.533Z,english_195.wav,0,peel,608,39,5,Japanese,m,3,0.3,14.19517065,1.03928052
SAF,133,2,2024-10-15T04:16:02.533Z,english_195.wav,0,peel,608,39,5,Japanese,m,4,0.32341667,67.19148892,1.18131313
SAF,134,2,2024-10-15T04:16:02.533Z,english_150.wav,0,peel,923,39,5,Japanese,m,0,0.0,-51.77489255,0.6625495
SAF,134,2,2024-10-15T04:16:02.533Z,english_150.wav,0,peel,923,39,5,Japanese,m,1,0.1,16.7322824,1.26353984
SAF,134,2,2024-10-15T04:16:02.533Z,english_150.wav,0,peel,923,39,5,Japanese,m,2,0.2,-56.19561079,0.38378194
SAF,134,2,2024-10-15T04:16:02.533Z,english_150.wav,0,peel,923,39,5,Japanese,m,3,0.3,36.81691324,1.59154348
SAF,134,2,2024-10-15T04:16:02.533Z,english_150.wav,0,peel,923,39,5,Japanese,m,4,0.32341667,-97.11243964,0.94821753
SAF,135,2,2024-10-15T04:16:02.533Z,english_276.wav,0,pill,4211,39,5,Japanese,m,0,0.0,-87.25523595,1.1918401
SAF,135,2,2024-10-15T04:16:02.533Z,english_276.wav,0,pill,4211,39,5,Japanese,m,1,0.1,16.91650801,0.89399115
SAF,135,2,2024-10-15T04:16:02.533Z,english_276.wav,0,pill,4211,39,5,Japanese,m,2,0.2,-40.09372932,0.89701806
SAF,135,2,2024-10-15T04:16:02.533Z,english_276.wav,0,pill,4211,39,5,Japanese,m,3,0.3,3.19229046,1.98333504
SAF,135,2,2024-10-15T04:16:02.533Z,english_276.wav,0,pill,4211,39,5,Japanese,m,4,0.32341667,18.84785296,1.85350493
SAF,136,2,2024-10-15T04:16:02.533Z,english_474.wav,0,peel,1459,39,5,Japanese,m,0,0.0,42.88606971,0.87351765
SAF,136,2,2024-10-15T04:16:02.533Z,english_474.wav,0,peel,1459,39,5,Japanese,m,1,0.1,6.82691085,1.08551449
SAF,136,2,2024-10-15T04:16:02.533Z,english_474.wav,0,peel,1459,39,5,Japanese,m,2,0.2,-33.80031927,1.99847166
SAF,136,2,2024-10-15T04:16:02.533Z,english_474.wav,0,peel,1459,39,5,Japanese,m,3,0.3,-97.18672796,0.27470298
SAF,136,2,2024-10-15T04:16:02.533Z,english_474.wav,0,peel,1459,39,5,Japanese,m,4,0.32341667,-4.7462475,0.02962094
SAF,137,2,2024-10-15T04:16:02.533Z,english_883.wav,0,peel,1119,39,5,Japanese,m,0,0.0,-17.60743744,1.86037562
SAF,137,2,2024-10-15T04:16:02.533Z,english_883.wav,0,peel,1119,39,5,Japanese,m,1,0.1,-37.46625877,0.9331332
SAF,137,2,2024-10-15T04:16:02.533Z,english_883.wav,0,peel,1119,39,5,Japanese,m,2,0.2,55.1108939,1.34322635
SAF,137,2,2024-10-15T04:16:02.533Z,english_883.wav,0,peel,1119,39,5,Japanese,m,3,0.3,87.45591348,0.07818604
SAF,137,2,2024-10-15T04:16:02.533Z,english_883.wav,0,peel,1119,39,5,Japanese,m,4,0.32341667,-90.78539671,1.31446095
SAF,138,2,2024-10-15T04:16:02.533Z,english_408.wav,0,pill,505,39,5,Japanese,m,0,0.0,-0.16211679,1.52185603
SAF,138,2,2024-10-15T04:16:02.533Z,english_408.wav,0,pill,505,39,5,Japanese,m,1,0.1,16.68246491,0.27925492
SAF,138,2,2024-10-15T04:16:02.533Z,english_408.wav,0,pill,505,39,5,Japanese,m,2,0.2,-84.31504289,0.96179544
SAF,138,2,2024-10-15T04:16:02.533Z,english_408.wav,0,pill,505,39,5,Japanese,m,3,0.3,20.95362966,1.64669203
SAF,138,2,2024-10-15T04:16:02.533Z,english_408.wav,0,pill,505,39,5,Japanese,m,4,0.32341667,15.25079186,1.54793764
SAF,139,2,2024-10-15T04:16:02.533Z,english_457.wav,0,peel,944,39,5,Japanese,m,0,0.0,-73.30847947,0.35525387
SAF,139,2,2024-10-15T04:16:02.533Z,english_457.wav,0,peel,944,39,5,Japanese,m,1,0.1,-25.74413936,0.90483023
SAF,139,2,2024-10-15T04:16:02.533Z,english_457.wav,0,peel,944,39,5,Japanese,m,2,0.2,8.82772976,1.30004432
SAF,139,2,2024-10-15T04:16:02.533Z,english_457.wav,0,peel,944,39,5,Japanese,m,3,0.3,-2.30416086,0.93422762
SAF,139,2,2024-10-15T04:16:02.533Z,english_457.wav,0,peel,944,39,5,Japanese,m,4,0.32341667,-34.04493945,1.31504388
SAF,140,2,2024-10-15T04:16:02.533Z,english_888.wav,0,peel,981,39,5,Japanese,m,0,0.0,-75.11317729,0.15619421
SAF,140,2,2024-10-15T04:16:02.533Z,english_888.wav,0,peel,981,39,5,Japanese,m,1,0.1,-15.41916561,1.45351631
SAF,140,2,2024-10-15T04:16:02.533Z,english_888.wav,0,peel,981,39,5,Japanese,m,2,0.2,30.82770832,1.60154734
SAF,140,2,2024-10-15T04:16:02.533Z,english_888.wav,0,peel,981,39,5,Japanese,m,3,0.3,69.72581111,1.09787436
SAF,140,2,2024-10-15T04:16:02.533Z,english_888.wav,0,peel,981,39,5,Japanese,m,4,0.32341667,-21.6620698,1.3760261
SAF,141,2,2024-10-15T04:16:02.533Z,english_111.wav,0,pill,615,39,5,Japanese,m,0,0.0,43.12539807,1.84745579
SAF,141,2,2024-10-15T04:16:02.533Z,english_111.wav,0,pill,615,39,5,Japanese,m,1,0.1,63.99665526,0.92577031
SAF,141,2,2024-10-15T04:16:02.533Z,english_111.wav,0,pill,615,39,5,Japanese,m,2,0.2,86.04570556,0.31264784
SAF,141,2,2024-10-15T04:16:02.533Z,english_111.wav,0,pill,615,39,5,Japanese,m,3,0.3,-25.76798659,0.89352032
SAF,141,2,2024-10-15T04:16:02.533Z,english_111.wav,0,pill,615,39,5,Japanese,m,4,0.32341667,-36.14422463,0.32138535
SAF,142,2,2024-10-15T04:16:02.533Z,english_467.wav,0,peel,780,39,5,Japanese,m,0,0.0,-0.54983343,1.824027
SAF,142,2,2024-10-15T04:16:02.533Z,english_467.wav,0,peel,780,39,5,Japanese,m,1,0.1,-84.54516502,1.06295632
SAF,142,2,2024-10-15T04:16:02.533Z,english_467.wav,0,peel,780,39,5,Japanese,m,2,0.2,54.30123894,1.09976952
SAF,142,2,2024-10-15T04:16:02.533Z,english_467.wav,0,peel,780,39,5,Japanese,m,3,0.3,-82.00368026,1.11766566
SAF,142,2,2024-10-15T04:16:02.533Z,english_467.wav,0,peel,780,39,5,Japanese,m,4,0.32341667,-54.10816942,0.44824559
SAF,143,2,2024-10-15T04:16:02.533Z,english_384.wav,0,pill,1075,39,5,Japanese,m,0,0.0,-38.96228733,0.34616893
SAF,143,2,2024-10-15T04:16:02.533Z,english_384.wav,0,pill,1075,39,5,Japanese,m,1,0.1,2.386347,0.04115024
SAF,143,2,2024-10-15T04:16:02.533Z,english_384.wav,0,pill,1075,39,5,Japanese,m,2,0.2,48.26486793,0.35900131
SAF,143,2,2024-10-15T04:16:02.533Z,english_384.wav,0,pill,1075,39,5,Japanese,m,3,0.3,-48.11903655,1.58519606
SAF,143,2,2024-10-15T04:16:02.533Z,english_384.wav,0,pill,1075,39,5,Japanese,m,4,0.32341667,19.29531145,0.95531857
SAF,144,2,2024-10-15T04:16:02.533Z,english_503.wav,0,peel,979,39,5,Japanese,m,0,0.0,-62.81458057,1.15988152
SAF,144,2,2024-10-15T04:16:02.533Z,english_503.wav,0,peel,979,39,5,Japanese,m,1,0.1,17.97702429,0.58853345
SAF,144,2,2024-10-15T04:16:02.533Z,english_503.wav,0,peel,979,39,5,Japanese,m,2,0.2,-8.2980926,1.29983279
SAF,144,2,2024-10-15T04:16:02.533Z,english_503.wav,0,peel,979,39,5,Japanese,m,3,0.3,-62.4217389,1.42406205
SAF,144,2,2024-10-15T04:16:02.533Z,english_503.wav,0,peel,979,39,5,Japanese,m,4,0.32341667,18.11027086,0.84018378
SAF,145,2,2024-10-15T04:16:02.533Z,english_669.wav,0,peel,2219,39,5,Japanese,m,0,0.0,-58.38123624,0.53455866
SAF,145,2,2024-10-15T04:16:02.533Z,english_669.wav,0,peel,2219,39,5,Japanese,m,1,0.1,-80.20155876,0.64376179
SAF,145,2,2024-10-15T04:16:02.533Z,english_669.wav,0,peel,2219,39,5,Japanese,m,2,0.2,-25.59737246,0.76694756
SAF,145,2,2024-10-15T04:16:02.533Z,english_669.wav,0,peel,2219,39,5,Japanese,m,3,0.3,-30.25633946,1.36842807
SAF,145,2,2024-10-15T04:16:02.533Z,english_669.wav,0,peel,2219,39,5,Japanese,m,4,0.32341667,-70.78768349,0.06434218
SAF,146,2,2024-10-15T04:16:02.533Z,english_57.wav,0,pill,461,39,5,Japanese,m,0,0.0,-27.39668164,1.97835384
SAF,146,2,2024-10-15T04:16:02.533Z,english_57.wav,0,pill,461,39,5,Japanese,m,1,0.1,63.52389761,0.69906452
SAF,146,2,2024-10-15T04:16:02.533Z,english_57.wav,0,pill,461,39,5,Japanese,m,2,0.2,-55.42033209,0.75389415
SAF,146,2,2024-10-15T04:16:02.533Z,english_57.wav,0,pill,461,39,5,Japanese,m,3,0.3,40.81906742,0.20375649
SAF,146,2,2024-10-15T04:16:02.533Z,english_57.wav,0,pill,461,39,5,Japanese,m,4,0.32341667,-12.75543821,1.65585112
SAF,147,2,2024-10-15T04:16:02.533Z,english_631.wav,0,pill,1142,39,5,Japanese,m,0,0.0,-74.37700429,0.77307226
SAF,147,2,2024-10-15T04:16:02.533Z,english_631.wav,0,pill,1142,39,5,Japanese,m,1,0.1,-18.72790858,0.75923189
SAF,147,2,2024-10-15T04:16:02.533Z,english_631.wav,0,pill,1142,39,5,Japanese,m,2,0.2,-40.03216697,1.00825659
SAF,147,2,2024-10-15T04:16:02.533Z,english_631.wav,0,pill,1142,39,5,Japanese,m,3,0.3,-98.5967418,1.46579839
SAF,147,2,2024-10-15T04:16:02.533Z,english_631.wav,0,pill,1142,39,5,Japanese,m,4,0.32341667,-41.89017921,0.34107994
SAF,148,2,2024-10-15T04:16:02.533Z,english_60.wav,0,peel,636,39,5,Japanese,m,0,0.0,82.53369854,0.66834278
SAF,148,2,2024-10-15T04:16:02.533Z,english_60.wav,0,peel,636,39,5,Japanese,m,1,0.1,60.14491878,1.16350573
SAF,148,2,2024-10-15T04:16:02.533Z,english_60.wav,0,peel,636,39,5,Japanese,m,2,0.2,-26.84704149,1.24827189
SAF,148,2,2024-10-15T04:16:02.533Z,english_60.wav,0,peel,636,39,5,Japanese,m,3,0.3,-19.8784386,0.70182905
SAF,148,2,2024-10-15T04:16:02.533Z,english_60.wav,0,peel,636,39,5,Japanese,m,4,0.32341667,-26.04492652,0.20173025
SAF,149,2,2024-10-15T04:16:02.533Z,english_347.wav,0,pill,439,39,5,Japanese,m,0,0.0,34.89178431,1.32203506
SAF,149,2,2024-10-15T04:16:02.533Z,english_347.wav,0,pill,439,39,5,Japanese,m,1,0.1,53.24978685,0.28714436
SAF,149,2,2024-10-15T04:16:02.533Z,english_347.wav,0,pill,439,39,5,Japanese,m,2,0.2,4.11185022,1.66093526
SAF,149,2,2024-10-15T04:16:02.533Z,english_347.wav,0,pill,439,39,5,Japanese,m,3,0.3,89.26663646,1.29826057
SAF,149,2,2024-10-15T04:16:02.533Z,english_347.wav,0,pill,439,39,5,Japanese,m,4,0.32341667,-53.02646266,0.05504814
SAF,150,3,2024-10-15T04:16:02.533Z,english_232.wav,0,pill,1200,39,5,Japanese,m,0,0.0,15.13134779,0.53160298
SAF,150,3,2024-10-15T04:16:02.533Z,english_232.wav,0,pill,1200,39,5,Japanese,m,1,0.1,-49.29605083,0.4519978
SAF,150,3,2024-10-15T04:16:02.533Z,english_232.wav,0,pill,1200,39,5,Japanese,m,2,0.2,59.10606455,0.39260156
SAF,150,3,2024-10-15T04:16:02.533Z,english_232.wav,0,pill,1200,39,5,Japanese,m,3,0.3,48.81708847,0.4692084
SAF,150,3,2024-10-15T04:16:02.533Z,english_232.wav,0,pill,1200,39,5,Japanese,m,4,0.32341667,14.83590121,0.46233459
SAF,151,3,2024-10-15T04:16:02.533Z,english_992.wav,0,peel,1045,39,5,Japanese,m,0,0.0,-6.68189934,0.46848529
SAF,151,3,2024-10-15T04:16:02.533Z,english_992.wav,0,peel,1045,39,5,Japanese,m,1,0.1,78.76679047,0.9874556
SAF,151,3,2024-10-15T04:16:02.533Z,english_992.wav,0,peel,1045,39,5,Japanese,m,2,0.2,-58.5917679,0.57881803
SAF,151,3,2024-10-15T04:16:02.533Z,english_992.wav,0,peel,1045,39,5,Japanese,m,3,0.3,-98.64651588,0.88425299
SAF,151,3,2024-10-15T04:16:02.533Z,english_992.wav,0,peel,1045,39,5,Japanese,m,4,0.32341667,73.76402904,0.6994588
SAF,152,3,2024-10-15T04:16:02.533Z,english_766.wav,0,peel,1032,39,5,Japanese,m,0,0.0,-86.57417509,1.21737292
SAF,152,3,2024-10-15T04:16:02.533Z,english_766.wav,0,peel,1032,39,5,Japanese,m,1,0.1,-67.75686223,1.61484435
SAF,152,3,2024-10-15T04:16:02.533Z,english_766.wav,0,peel,1032,39,5,Japanese,m,2,0.2,74.21258041,1.47872362
SAF,152,3,2024-10-15T04:16:02.533Z,english_766.wav,0,peel,1032,39,5,Japanese,m,3,0.3,65.20164426,1.81064247
SAF,152,3,2024-10-15T04:16:02.533Z,english_766.wav,0,peel,1032,39,5,Japanese,m,4,0.32341667,-26.41371036,1.37776493
SAF,153,3,2024-10-15T04:16:02.533Z,english_221.wav,0,pill,551,39,5,Japanese,m,0,0.0,85.84184869,1.38100565
SAF,153,3,2024-10-15T04:16:02.533Z,english_221.wav,0,pill,551,39,5,Japanese,m,1,0.1,-20.37513589,0.79531516
SAF,153,3,2024-10-15T04:16:02.533Z,english_221.wav,0,pill,551,39,5,Japanese,m,2,0.2,-89.75984637,0.9538446
SAF,153,3,2024-10-15T04:16:02.533Z,english_221.wav,0,pill,551,39,5,Japanese,m,3,0.3,50.66879934,1.56492426
SAF,153,3,2024-10-15T04:16:02.533Z,english_221.wav,0,pill,551,39,5,Japanese,m,4,0.32341667,20.92538743,1.60855456
SAF,154,3,2024-10-15T04:16:02.533Z,english_445.wav,0,peel,993,39,5,Japanese,m,0,0.0,88.00598922,1.42174052
SAF,154,3,2024-10-15T04:16:02.533Z,english_445.wav,0,peel,993,39,5,Japanese,m,1,0.1,96.51328737,1.49122509
SAF,154,3,2024-10-15T04:16:02.533Z,english_445.wav,0,peel,993,39,5,Japanese,m,2,0.2,29.11093561,0.62095286
SAF,154,3,2024-10-15T04:16:02.533Z,english_445.wav,0,peel,993,39,5,Japanese,m,3,0.3,69.6076589,1.14630865
SAF,154,3,2024-10-15T04:16:02.533Z,english_445.wav,0,peel,993,39,5,Japanese,m,4,0.32341667,-59.73938179,1.38538671
SAF,155,3,2024-10-15T04:16:02.533Z,english_781.wav,0,pill,973,39,5,Japanese,m,0,0.0,22.64916165,0.31928057
SAF,155,3,2024-10-15T04:16:02.533Z,english_781.wav,0,pill,973,39,5,Japanese,m,1,0.1,6.89582518,1.4040275
SAF,155,3,2024-10-15T04:16:02.533Z,english_781.wav,0,pill,973,39,5,Japanese,m,2,0.2,-79.07711894,0.86558079
SAF,155,3,2024-10-15T04:16:02.533Z,english_781.wav,0,pill,973,39,5,Japanese,m,3,0.3,66.534152,0.14510309
SAF,155,3,2024-10-15T04:16:02.533Z,english_781.wav,0,pill,973,39,5,Japanese,m,4,0.32341667,93.30494506,0.79620595
SAF,156,3,2024-10-15T04:16:02.533Z,english_758.wav,0,peel,698,39,5,Japanese,m,0,0.0,-56.29380511,1.72966744
SAF,156,3,2024-10-15T04:16:02.533Z,english_758.wav,0,peel,698,39,5,Japanese,m,1,0.1,1.29517397,1.20455484
SAF,156,3,2024-10-15T04:16:02.533Z,english_758.wav,0,peel,698,39,5,Japanese,m,2,0.2,49.77366466,0.98441853
SAF,156,3,2024-10-15T04:16:02.533Z,english_758.wav,0,peel,698,39,5,Japanese,m,3,0.3,51.49077837,0.78323536
SAF,156,3,2024-10-15T04:16:02.533Z,english_758.wav,0,peel,698,39,5,Japanese,m,4,0.32341667,80.19813303,1.88107652
SAF,157,3,2024-10-15T04:16:02.533Z,english_537.wav,0,pill,433,39,5,Japanese,m,0,0.0,70.8709352,0.55947112
SAF,157,3,2024-10-15T04:16:02.533Z,english_537.wav,0,pill,433,39,5,Japanese,m,1,0.1,32.34369018,1.10627241
SAF,157,3,2024-10-15T04:16:02.533Z,english_537.wav,0,pill,433,39,5,Japanese,m,2,0.2,-92.9302278,1.10842043
SAF,157,3,2024-10-15T04:16:02.533Z,english_537.wav,0,pill,433,39,5,Japanese,m,3,0.3,14.89115364,0.86800797
SAF,157,3,2024-10-15T04:16:02.533Z,english_537.wav,0,pill,433,39,5,Japanese,m,4,0.32341667,-67.12260703,1.7659473
SAF,158,3,2024-10-15T04:16:02.533Z,english_430.wav,0,peel,524,39,5,Japanese,m,0,0.0,72.23510535,0.8682214
SAF,158,3,2024-10-15T04:16:02.533Z,english_430.wav,0,peel,524,39,5,Japanese,m,1,0.1,-9.56156918,0.26781202
SAF,158,3,2024-10-15T04:16:02.533Z,english_430.wav,0,peel,524,39,5,Japanese,m,2,0.2,36.71559936,1.38873793
SAF,158,3,2024-10-15T04:16:02.533Z,english_430.wav,0,peel,524,39,5,Japanese,m,3,0.3,-33.55254317,0.29076709
SAF,158,3,2024-10-15T04:16:02.533Z,english_430.wav,0,peel,524,39,5,Japanese,m,4,0.32341667,-25.71861109,0.30869259
SAF,159,3,2024-10-15T04:16:02.533Z,english_118.wav,0,pill,446,39,5,Japanese,m,0,0.0,-46.26080879,0.77156844
SAF,159,3,2024-10-15T04:16:02.533Z,english_118.wav,0,pill,446,39,5,Japanese,m,1,0.1,-14.63576669,0.55135676
SAF,159,3,2024-10-15T04:16:02.533Z,english_118.wav,0,pill,446,39,5,Japanese,m,2,0.2,85.04541628,0.92804695
SAF,159,3,2024-10-15T04:16:02.533Z,english_118.wav,0,pill,446,39,5,Japanese,m,3,0.3,-49.31762638,1.40435072
SAF,159,3,2024-10-15T04:16:02.533Z,english_118.wav,0,pill,446,39,5,Japanese,m,4,0.32341667,16.64479416,1.67291824
SAF,160,3,2024-10-15T04:16:02.533Z,english_606.wav,0,peel,934,39,5,Japanese,m,0,0.0,-54.19201916,1.71730642
SAF,160,3,2024-10-15T04:16:02.533Z,english_606.wav,0,peel,934,39,5,Japanese,m,1,0.1,-9.49104439,0.42216081
SAF,160,3,2024-10-15T04:16:02.533Z,english_606.wav,0,peel,934,39,5,Japanese,m,2,0.2,1.17868262,1.31506394
SAF,160,3,2024-10-15T04:16:02.533Z,english_606.wav,0,peel,934,39,5,Japanese,m,3,0.3,-95.39718692,0.06922913
SAF,160,3,2024-10-15T04:16:02.533Z,english_606.wav,0,peel,934,39,5,Japanese,m,4,0.32341667,-48.659775,0.08316227
SAF,161,3,2024-10-15T04:16:02.533Z,english_968.wav,0,pill,506,39,5,Japanese,m,0,0.0,-36.76350372,0.52322451
SAF,161,3,2024-10-15T04:16:02.533Z,english_968.wav,0,pill,506,39,5,Japanese,m,1,0.1,-99.8991193,0.66419732
SAF,161,3,2024-10-15T04:16:02.533Z,english_968.wav,0,pill,506,39,5,Japanese,m,2,0.2,27.503089,0.44232096
SAF,161,3,2024-10-15T04:16:02.533Z,english_968.wav,0,pill,506,39,5,Japanese,m,3,0.3,-34.85106147,1.90778707
SAF,161,3,2024-10-15T04:16:02.533Z,english_968.wav,0,pill,506,39,5,Japanese,m,4,0.32341667,68.2869663,0.59652698
SAF,162,3,2024-10-15T04:16:02.533Z,english_703.wav,0,pill,1155,39,5,Japanese,m,0,0.0,21.25560127,1.22587136
SAF,162,3,2024-10-15T04:16:02.533Z,english_703.wav,0,pill,1155,39,5,Japanese,m,1,0.1,-5.61566417,1.28752652
SAF,162,3,2024-10-15T04:16:02.533Z,english_703.wav,0,pill,1155,39,5,Japanese,m,2,0.2,-88.15973778,1.61643937
SAF,162,3,2024-10-15T04:16:02.533Z,english_703.wav,0,pill,1155,39,5,Japanese,m,3,0.3,39.86499493,1.32560109
SAF,162,3,2024-10-15T04:16:02.533Z,english_703.wav,0,pill,1155,39,5,Japanese,m,4,0.32341667,64.67338156,0.74206522
SAF,163,3,2024-10-15T04:16:02.533Z,english_21.wav,0,peel,659,39,5,Japanese,m,0,0.0,-21.85116114,1.17417274
SAF,163,3,2024-10-15T04:16:02.533Z,english_21.wav,0,peel,659,39,5,Japanese,m,1,0.1,-94.69976897,0.84289237
SAF,163,3,2024-10-15T04:16:02.533Z,english_21.wav,0,peel,659,39,5,Japanese,m,2,0.2,59.00053046,1.58737119
SAF,163,3,2024-10-15T04:16:02.533Z,english_21.wav,0,peel,659,39,5,Japanese,m,3,0.3,-81.44868512,0.70500889
SAF,163,3,2024-10-15T04:16:02.533Z,english_21.wav,0,peel,659,39,5,Japanese,m,4,0.32341667,-68.72650823,1.41810016
SAF,164,3,2024-10-15T04:16:02.533Z,english_568.wav,0,pill,453,39,5,Japanese,m,0,0.0,-80.38325009,1.52383372
SAF,164,3,2024-10-15T04:16:02.533Z,english_568.wav,0,pill,453,39,5,Japanese,m,1,0.1,65.28340143,0.37337456
SAF,164,3,2024-10-15T04:16:02.533Z,english_568.wav,0,pill,453,39,5,Japanese,m,2,0.2,22.57833022,0.67023469
SAF,164,3,2024-10-15T04:16:02.533Z,english_568.wav,0,pill,453,39,5,Japanese,m,3,0.3,-55.44872251,1.98652091
SAF,164,3,2024-10-15T04:16:02.533Z,english_568.wav,0,pill,453,39,5,Japanese,m,4,0.32341667,-94.3142815,1.15861726
SAF,165,3,2024-10-15T04:16:02.533Z,english_479.wav,0,pill,955,39,5,Japanese,m,0,0.0,74.98268857,0.98081986
SAF,165,3,2024-10-15T04:16:02.533Z,english_479.wav,0,pill,955,39,5,Japanese,m,1,0.1,16.03290679,0.71187618
SAF,165,3,2024-10-15T04:16:02.533Z,english_479.wav,0,pill,955,39,5,Japanese,m,2,0.2,78.97784812,0.27050369
SAF,165,3,2024-10-15T04:16:02.533Z,english_479.wav,0,pill,955,39,5,Japanese,m,3,0.3,-15.63843586,1.15797271
SAF,165,3,2024-10-15T04:16:02.533Z,english_479.wav,0,pill,955,39,5,Japanese,m,4,0.32341667,42.04802753,1.51318639
SAF,166,3,2024-10-15T04:16:02.533Z,english_325.wav,0,peel,484,39,5,Japanese,m,0,0.0,-36.86035688,0.2784687
SAF,166,3,2024-10-15T04:16:02.533Z,english_325.wav,0,peel,484,39,5,Japanese,m,1,0.1,-55.38569655,1.41229923
SAF,166,3,2024-10-15T04:16:02.533Z,english_325.wav,0,peel,484,39,5,Japanese,m,2,0.2,-56.86017215,0.83316938
SAF,166,3,2024-10-15T04:16:02.533Z,english_325.wav,0,peel,484,39,5,Japanese,m,3,0.3,-98.19449268,0.3465596
SAF,166,3,2024-10-15T04:16:02.533Z,english_325.wav,0,peel,484,39,5,Japanese,m,4,0.32341667,-6.42447902,1.41863786
SAF,167,3,2024-10-15T04:16:02.533Z,english_744.wav,0,pill,300,39,5,Japanese,m,0,0.0,43.39686976,0.75505854
SAF,167,3,2024-10-15T04:16:02.533Z,english_744.wav,0,pill,300,39,5,Japanese,m,1,0.1,-61.67573043,1.01311725
SAF,167,3,2024-10-15T04:16:02.533Z,english_744.wav,0,pill,300,39,5,Japanese,m,2,0.2,0.51873183,0.73457108
SAF,167,3,2024-10-15T04:16:02.533Z,english_744.wav,0,pill,300,39,5,Japanese,m,3,0.3,12.88130512,0.90154102
SAF,167,3,2024-10-15T04:16:02.533Z,english_744.wav,0,pill,300,39,5,Japanese,m,4,0.32341667,57.31714449,1.01338509
SAF,168,3,2024-10-15T04:16:02.533Z,english_173.wav,0,pill,1376,39,5,Japanese,m,0,0.0,11.1251521,0.60172576
SAF,168,3,2024-10-15T04:16:02.533Z,english_173.wav,0,pill,1376,39,5,Japanese,m,1,0.1,94.22411188,0.44802145
SAF,168,3,2024-10-15T04:16:02.533Z,english_173.wav,0,pill,1376,39,5,Japanese,m,2,0.2,89.44753043,1.27552997
SAF,168,3,2024-10-15T04:16:02.533Z,english_173.wav,0,pill,1376,39,5,Japanese,m,3,0.3,74.30769895,1.09756939
SAF,168,3,2024-10-15T04:16:02.533Z,english_173.wav,0,pill,1376,39,5,Japanese,m,4,0.32341667,-37.47679669,0.7907315
SAF,169,3,2024-10-15T04:16:02.533Z,english_657.wav,0,peel,602,39,5,Japanese,m,0,0.0,30.03208284,1.42095662
SAF,169,3,2024-10-15T04:16:02.533Z,english_657.wav,0,peel,602,39,5,Japanese,m,1,0.1,-5.57127058,1.29790323
SAF,169,3,2024-10-15T04:16:02.533Z,english_657.wav,0,peel,602,39,5,Japanese,m,2,0.2,9.55793083,0.51612643
SAF,169,3,2024-10-15T04:16:02.533Z,english_657.wav,0,peel,602,39,5,Japanese,m,3,0.3,3.39766504,0.37671101
SAF,169,3,2024-10-15T04:16:02.533Z,english_657.wav,0,peel,602,39,5,Japanese,m,4,0.32341667,84.38659916,1.20124021
SAF,170,3,2024-10-15T04:16:02.533Z,english_55.wav,0,pill,239,39,5,Japanese,m,0,0.0,71.89255128,0.24931264
SAF,170,3,2024-10-15T04:16:02.533Z,english_55.wav,0,pill,239,39,5,Japanese,m,1,0.1,0.20692224,1.79813092
SAF,170,3,2024-10-15T04:16:02.533Z,english_55.wav,0,pill,239,39,5,Japanese,m,2,0.2,-68.61006599,0.71729895
SAF,170,3,2024-10-15T04:16:02.533Z,english_55.wav,0,pill,239,39,5,Japanese,m,3,0.3,-5.20952515,1.28733782
SAF,170,3,2024-10-15T04:16:02.533Z,english_55.wav,0,pill,239,39,5,Japanese,m,4,0.32341667,28.45991968,1.77061752
SAF,171,3,2024-10-15T04:16:02.533Z,english_573.wav,0,pill,1223,39,5,Japanese,m,0,0.0,-46.41950257,0.98293374
SAF,171,3,2024-10-15T04:16:02.533Z,english_573.wav,0,pill,1223,39,5,Japanese,m,1,0.1,-92.58424164,0.99885906
SAF,171,3,2024-10-15T04:16:02.533Z,english_573.wav,0,pill,1223,39,5,Japanese,m,2,0.2,21.8123883,0.65769494
SAF,171,3,2024-10-15T04:16:02.533Z,english_573.wav,0,pill,1223,39,5,Japanese,m,3,0.3,16.48756951,0.46238493
SAF,171,3,2024-10-15T04:16:02.533Z,english_573.wav,0,pill,1223,39,5,Japanese,m,4,0.32341667,-54.36863361,0.72259175
SAF,172,3,2024-10-15T04:16:02.533Z,english_229.wav,0,peel,529,39,5,Japanese,m,0,0.0,51.56916705,1.25898044
SAF,172,3,2024-10-15T04:16:02.533Z,english_229.wav,0,peel,529,39,5,Japanese,m,1,0.1,-51.28327497,0.34588319
SAF,172,3,2024-10-15T04:16:02.533Z,english_229.wav,0,peel,529,39,5,Japanese,m,2,0.2,97.78221202,1.91985924
SAF,172,3,2024-10-15T04:16:02.533Z,english_229.wav,0,peel,529,39,5,Japanese,m,3,0.3,-75.98126047,0.82059623
SAF,172,3,2024-10-15T04:16:02.533Z,english_229.wav,0,peel,529,39,5,Japanese,m,4,0.32341667,-44.05308002,1.38191391
SAF,173,3,2024-10-15T04:16:02.533Z,english_798.wav,0,peel,2435,39,5,Japanese,m,0,0.0,-16.40769998,1.85457914
SAF,173,3,2024-10-15T04:16:02.533Z,english_798.wav,0,peel,2435,39,5,Japanese,m,1,0.1,3.00381127,1.50219522
SAF,173,3,2024-10-15T04:16:02.533Z,english_798.wav,0,peel,2435,39,5,Japanese,m,2,0.2,-31.24410556,0.78751403
SAF,173,3,2024-10-15T04:16:02.533Z,english_798.wav,0,peel,2435,39,5,Japanese,m,3,0.3,-53.27973877,1.17339142
SAF,173,3,2024-10-15T04:16:02.533Z,english_798.wav,0,peel,2435,39,5,Japanese,m,4,0.32341667,91.43563813,1.30184409
SAF,174,3,2024-10-15T04:16:02.533Z,english_599.wav,0,pill,1463,39,5,Japanese,m,0,0.0,-57.09760884,1.03382432
SAF,174,3,2024-10-15T04:16:02.533Z,english_599.wav,0,pill,1463,39,5,Japanese,m,1,0.1,31.85682387,1.26885403
SAF,174,3,2024-10-15T04:16:02.533Z,english_599.wav,0,pill,1463,39,5,Japanese,m,2,0.2,-6.73425875,1.24717465
SAF,174,3,2024-10-15T04:16:02.533Z,english_599.wav,0,pill,1463,39,5,Japanese,m,3,0.3,47.95830633,1.34338376
SAF,174,3,2024-10-15T04:16:02.533Z,english_599.wav,0,pill,1463,39,5,Japanese,m,4,0.32341667,-83.8084816,0.34550335
SAF,175,3,2024-10-15T04:16:02.533Z,english_684.wav,0,pill,1696,39,5,Japanese,m,0,0.0,0.36394418,1.65924935
SAF,175,3,2024-10-15T04:16:02.533Z,english_684.wav,0,pill,1696,39,5,Japanese,m,1,0.1,28.47964645,1.32149406
SAF,175,3,2024-10-15T04:16:02.533Z,english_684.wav,0,pill,1696,39,5,Japanese,m,2,0.2,60.47995017,0.32417562
SAF,175,3,2024-10-15T04:16:02.533Z,english_684.wav,0,pill,1696,39,5,Japanese,m,3,0.3,-33.43266819,1.42108385
SAF,175,3,2024-10-15T04:16:02.533Z,english_684.wav,0,pill,1696,39,5,Japanese,m,4,0.32341667,-31.86672206,1.29243289
SAF,176,3,2024-10-15T04:16:02.533Z,english_183.wav,0,peel,1350,39,5,Japanese,m,0,0.0,-43.98322413,0.65201846
SAF,176,3,2024-10-15T04:16:02.533Z,english_183.wav,0,peel,1350,39,5,Japanese,m,1,0.1,-25.77671075,1.22292345
SAF,176,3,2024-10-15T04:16:02.533Z,english_183.wav,0,peel,1350,39,5,Japanese,m,2,0.2,39.5110442,1.45876179
SAF,176,3,2024-10-15T04:16:02.533Z,english_183.wav,0,peel,1350,39,5,Japanese,m,3,0.3,-32.19697736,0.98656907
SAF,176,3,2024-10-15T04:16:02.533Z,english_183.wav,0,peel,1350,39,5,Japanese,m,4,0.32341667,10.88673449,1.0349791
SAF,177,3,2024-10-15T04:16:02.533Z,english_584.wav,0,pill,545,39,5,Japanese,m,0,0.0,10.38934641,1.28044862
SAF,177,3,2024-10-15T04:16:02.533Z,english_584.wav,0,pill,545,39,5,Japanese,m,1,0.1,16.58552078,0.12750447
SAF,177,3,2024-10-15T04:16:02.533Z,english_584.wav,0,pill,545,39,5,Japanese,m,2,0.2,93.24376001,0.67889343
SAF,177,3,2024-10-15T04:16:02.533Z,english_584.wav,0,pill,545,39,5,Japanese,m,3,0.3,-17.62367845,1.20299248
SAF,177,3,2024-10-15T04:16:02.533Z,english_584.wav,0,pill,545,39,5,Japanese,m,4,0.32341667,35.31863132,1.61660781
SAF,178,3,2024-10-15T04:16:02.533Z,english_402.wav,0,pill,2296,39,5,Japanese,m,0,0.0,-69.75327375,0.88104294
SAF,178,3,2024-10-15T04:16:02.533Z,english_402.wav,0,pill,2296,39,5,Japanese,m,1,0.1,-37.13247603,1.50830761
SAF,178,3,2024-10-15T04:16:02.533Z,english_402.wav,0,pill,2296,39,5,Japanese,m,2,0.2,95.06865819,0.86613458
SAF,178,3,2024-10-15T04:16:02.533Z,english_402.wav,0,pill,2296,39,5,Japanese,m,3,0.3,-83.65219271,1.46195184
SAF,178,3,2024-10-15T04:16:02.533Z,english_402.wav,0,pill,2296,39,5,Japanese,m,4,0.32341667,-39.65623645,1.78030697
SAF,179,3,2024-10-15T04:16:02.533Z,english_593.wav,0,peel,638,39,5,Japanese,m,0,0.0,0.23295982,1.83954553
SAF,179,3,2024-10-15T04:16:02.533Z,english_593.wav,0,peel,638,39,5,Japanese,m,1,0.1,-0.52832444,1.77820403
SAF,179,3,2024-10-15T04:16:02.533Z,english_593.wav,0,peel,638,39,5,Japanese,m,2,0.2,18.28609946,0.36770598
SAF,179,3,2024-10-15T04:16:02.533Z,english_593.wav,0,peel,638,39,5,Japanese,m,3,0.3,21.25816485,0.42189114
SAF,179,3,2024-10-15T04:16:02.533Z,english_593.wav,0,peel,638,39,5,Japanese,m,4,0.32341667,60.44039038,0.07588974
SAF,180,3,2024-10-15T04:16:02.533Z,english_377.wav,0,pill,1360,39,5,Japanese,m,0,0.0,74.10679581,1.90218841
SAF,180,3,2024-10-15T04:16:02.533Z,english_377.wav,0,pill,1360,39,5,Japanese,m,1,0.1,-97.36412995,1.60160035
SAF,180,3,2024-10-15T04:16:02.533Z,english_377.wav,0,pill,1360,39,5,Japanese,m,2,0.2,-84.25672888,1.668912
SAF,180,3,2024-10-15T04:16:02.533Z,english_377.wav,0,pill,1360,39,5,Japanese,m,3,0.3,27.09308902,1.51590505
SAF,180,3,2024-10-15T04:16:02.533Z,english_377.wav,0,pill,1360,39,5,Japanese,m,4,0.32341667,-12.33253686,0.99909344
SAF,181,3,2024-10-15T04:16:02.533Z,english_875.wav,0,pill,1256,39,5,Japanese,m,0,0.0,-72.29566874,0.47412948
SAF,181,3,2024-10-15T04:16:02.533Z,english_875.wav,0,pill,1256,39,5,Japanese,m,1,0.1,40.49821439,0.97105678
SAF,181,3,2024-10-15T04:16:02.533Z,english_875.wav,0,pill,1256,39,5,Japanese,m,2,0.2,61.66936014,1.31175081
SAF,181,3,2024-10-15T04:16:02.533Z,english_875.wav,0,pill,1256,39,5,Japanese,m,3,0.3,36.92950197,0.55015514
SAF,181,3,2024-10-15T04:16:02.533Z,english_875.wav,0,pill,1256,39,5,Japanese,m,4,0.32341667,61.03530789,1.23529794
SAF,182,3,2024-10-15T04:16:02.533Z,english_337.wav,0,pill,2399,39,5,Japanese,m,0,0.0,17.21863108,0.02346696
SAF,182,3,2024-10-15T04:16:02.533Z,english_337.wav,0,pill,2399,39,5,Japanese,m,1,0.1,-16.30098312,1.2349353
SAF,182,3,2024-10-15T04:16:02.533Z,english_337.wav,0,pill,2399,39,5,Japanese,m,2,0.2,70.17733319,1.07823504
SAF,182,3,2024-10-15T04:16:02.533Z,english_337.wav,0,pill,2399,39,5,Japanese,m,3,0.3,-7.16478631,1.83339424
SAF,182,3,2024-10-15T04:16:02.533Z,english_337.wav,0,pill,2399,39,5,Japanese,m,4,0.32341667,-84.96176299,1.87583376
SAF,183,3,2024-10-15T04:16:02.533Z,english_658.wav,0,pill,1177,39,5,Japanese,m,0,0.0,-80.21976745,0.49170119
SAF,183,3,2024-10-15T04:16:02.533Z,english_658.wav,0,pill,1177,39,5,Japanese,m,1,0.1,11.23314836,0.6994793
SAF,183,3,2024-10-15T04:16:02.533Z,english_658.wav,0,pill,1177,39,5,Japanese,m,2,0.2,8.94946791,1.18458539
SAF,183,3,2024-10-15T04:16:02.533Z,english_658.wav,0,pill,1177,39,5,Japanese,m,3,0.3,17.22411688,0.7091276
