subj,trial,block,date,stim,stim_order,response,rt,param_index,segment,pitch,stretch
YAY,0,0,2024-06-22T16:01:35.419Z,english_496.wav,0,pill,4209,0,0.0,-50.36729616,1.24588939
YAY,0,0,2024-06-22T16:01:35.419Z,english_496.wav,0,pill,4209,1,0.1,43.15166092,1.651593
YAY,0,0,2024-06-22T16:01:35.419Z,english_496.wav,0,pill,4209,2,0.2,-89.08132341,0.94120535
YAY,0,0,2024-06-22T16:01:35.419Z,english_496.wav,0,pill,4209,3,0.3,-31.93753525,0.55989053
YAY,0,0,2024-06-22T16:01:35.419Z,english_496.wav,0,pill,4209,4,0.32341667,-79.66514086,1.95233748
YAY,1,0,2024-06-22T16:01:35.419Z,english_703.wav,0,pill,1114,0,0.0,21.25560127,1.22587136
YAY,1,0,2024-06-22T16:01:35.419Z,english_703.wav,0,pill,1114,1,0.1,-5.61566417,1.28752652
YAY,1,0,2024-06-22T16:01:35.419Z,english_703.wav,0,pill,1114,2,0.2,-88.15973778,1.61643937
YAY,1,0,2024-06-22T16:01:35.419Z,english_703.wav,0,pill,1114,3,0.3,39.86499493,1.32560109
YAY,1,0,2024-06-22T16:01:35.419Z,english_703.wav,0,pill,1114,4,0.32341667,64.67338156,0.74206522
YAY,2,0,2024-06-22T16:01:35.419Z,english_457.wav,0,pill,2568,0,0.0,-73.30847947,0.35525387
YAY,2,0,2024-06-22T16:01:35.419Z,english_457.wav,0,pill,2568,1,0.1,-25.74413936,0.90483023
YAY,2,0,2024-06-22T16:01:35.419Z,english_457.wav,0,pill,2568,2,0.2,8.82772976,1.30004432
YAY,2,0,2024-06-22T16:01:35.419Z,english_457.wav,0,pill,2568,3,0.3,-2.30416086,0.93422762
YAY,2,0,2024-06-22T16:01:35.419Z,english_457.wav,0,pill,2568,4,0.32341667,-34.04493945,1.31504388
YAY,3,0,2024-06-22T16:01:35.419Z,english_352.wav,0,pill,2082,0,0.0,71.64354449,0.18312459
YAY,3,0,2024-06-22T16:01:35.419Z,english_352.wav,0,pill,2082,1,0.1,53.2516906,1.19991438
YAY,3,0,2024-06-22T16:01:35.419Z,english_352.wav,0,pill,2082,2,0.2,28.90726554,1.21095973
YAY,3,0,2024-06-22T16:01:35.419Z,english_352.wav,0,pill,2082,3,0.3,-49.8940387,1.61067418
YAY,3,0,2024-06-22T16:01:35.419Z,english_352.wav,0,pill,2082,4,0.32341667,21.76832357,1.26376439
YAY,4,0,2024-06-22T16:01:35.419Z,english_953.wav,0,pill,2149,0,0.0,-16.02430182,0.31806788
YAY,4,0,2024-06-22T16:01:35.419Z,english_953.wav,0,pill,2149,1,0.1,29.58660593,0.5983964
YAY,4,0,2024-06-22T16:01:35.419Z,english_953.wav,0,pill,2149,2,0.2,-69.77021268,1.47459901
YAY,4,0,2024-06-22T16:01:35.419Z,english_953.wav,0,pill,2149,3,0.3,10.24378989,1.63555671
YAY,4,0,2024-06-22T16:01:35.419Z,english_953.wav,0,pill,2149,4,0.32341667,-68.66835117,1.74756834
YAY,5,0,2024-06-22T16:01:35.419Z,english_177.wav,0,pill,4405,0,0.0,87.98258728,1.54790065
YAY,5,0,2024-06-22T16:01:35.419Z,english_177.wav,0,pill,4405,1,0.1,87.12011565,0.90861448
YAY,5,0,2024-06-22T16:01:35.419Z,english_177.wav,0,pill,4405,2,0.2,-29.82518494,0.58649069
YAY,5,0,2024-06-22T16:01:35.419Z,english_177.wav,0,pill,4405,3,0.3,54.38835911,0.51296238
YAY,5,0,2024-06-22T16:01:35.419Z,english_177.wav,0,pill,4405,4,0.32341667,53.98423531,1.78492888
YAY,6,0,2024-06-22T16:01:35.419Z,english_130.wav,0,pill,1546,0,0.0,-27.4951122,0.83907871
YAY,6,0,2024-06-22T16:01:35.419Z,english_130.wav,0,pill,1546,1,0.1,-38.07775804,1.38560413
YAY,6,0,2024-06-22T16:01:35.419Z,english_130.wav,0,pill,1546,2,0.2,-9.69340922,0.50531735
YAY,6,0,2024-06-22T16:01:35.419Z,english_130.wav,0,pill,1546,3,0.3,-88.09187015,0.53414674
YAY,6,0,2024-06-22T16:01:35.419Z,english_130.wav,0,pill,1546,4,0.32341667,-47.45461314,1.10107345
YAY,7,0,2024-06-22T16:01:35.419Z,english_314.wav,0,pill,1439,0,0.0,-64.95449137,1.33019215
YAY,7,0,2024-06-22T16:01:35.419Z,english_314.wav,0,pill,1439,1,0.1,41.76232806,0.95010379
YAY,7,0,2024-06-22T16:01:35.419Z,english_314.wav,0,pill,1439,2,0.2,68.0199099,0.0418164
YAY,7,0,2024-06-22T16:01:35.419Z,english_314.wav,0,pill,1439,3,0.3,-18.86846342,0.3847457
YAY,7,0,2024-06-22T16:01:35.419Z,english_314.wav,0,pill,1439,4,0.32341667,-2.58545886,1.31154336
YAY,8,0,2024-06-22T16:01:35.419Z,english_560.wav,0,peel,923,0,0.0,6.26341837,1.61909233
YAY,8,0,2024-06-22T16:01:35.419Z,english_560.wav,0,peel,923,1,0.1,-94.10474965,0.93851614
YAY,8,0,2024-06-22T16:01:35.419Z,english_560.wav,0,peel,923,2,0.2,-43.88069215,1.37910144
YAY,8,0,2024-06-22T16:01:35.419Z,english_560.wav,0,peel,923,3,0.3,-26.3559156,1.10578935
YAY,8,0,2024-06-22T16:01:35.419Z,english_560.wav,0,peel,923,4,0.32341667,-91.38105747,0.02070647
YAY,9,0,2024-06-22T16:01:35.419Z,english_485.wav,0,peel,1543,0,0.0,-7.08941798,1.8206563
YAY,9,0,2024-06-22T16:01:35.419Z,english_485.wav,0,peel,1543,1,0.1,-70.64579204,0.10660577
YAY,9,0,2024-06-22T16:01:35.419Z,english_485.wav,0,peel,1543,2,0.2,23.79115045,1.92760945
YAY,9,0,2024-06-22T16:01:35.419Z,english_485.wav,0,peel,1543,3,0.3,0.80487994,0.77499174
YAY,9,0,2024-06-22T16:01:35.419Z,english_485.wav,0,peel,1543,4,0.32341667,4.72097057,1.20070888
YAY,10,0,2024-06-22T16:01:35.419Z,english_902.wav,0,peel,1005,0,0.0,-4.27617126,0.16330526
YAY,10,0,2024-06-22T16:01:35.419Z,english_902.wav,0,peel,1005,1,0.1,-5.01127315,0.62492789
YAY,10,0,2024-06-22T16:01:35.419Z,english_902.wav,0,peel,1005,2,0.2,83.22080084,1.08638924
YAY,10,0,2024-06-22T16:01:35.419Z,english_902.wav,0,peel,1005,3,0.3,77.56473772,1.61764227
YAY,10,0,2024-06-22T16:01:35.419Z,english_902.wav,0,peel,1005,4,0.32341667,-13.02741535,1.72075309
YAY,11,0,2024-06-22T16:01:35.419Z,english_207.wav,0,peel,815,0,0.0,-64.55688296,1.06406661
YAY,11,0,2024-06-22T16:01:35.419Z,english_207.wav,0,peel,815,1,0.1,98.33987034,1.58122859
YAY,11,0,2024-06-22T16:01:35.419Z,english_207.wav,0,peel,815,2,0.2,-40.48281934,1.31381917
YAY,11,0,2024-06-22T16:01:35.419Z,english_207.wav,0,peel,815,3,0.3,-36.48143513,0.83233835
YAY,11,0,2024-06-22T16:01:35.419Z,english_207.wav,0,peel,815,4,0.32341667,-87.11188062,0.12663517
YAY,12,0,2024-06-22T16:01:35.419Z,english_304.wav,0,pill,564,0,0.0,-80.7192326,0.54130022
YAY,12,0,2024-06-22T16:01:35.419Z,english_304.wav,0,pill,564,1,0.1,34.14230443,0.20766845
YAY,12,0,2024-06-22T16:01:35.419Z,english_304.wav,0,pill,564,2,0.2,-43.78548789,1.25157904
YAY,12,0,2024-06-22T16:01:35.419Z,english_304.wav,0,pill,564,3,0.3,85.79520644,0.76195837
YAY,12,0,2024-06-22T16:01:35.419Z,english_304.wav,0,pill,564,4,0.32341667,-29.32737886,0.20991234
YAY,13,0,2024-06-22T16:01:35.419Z,english_371.wav,0,pill,261,0,0.0,44.65928585,0.25571852
YAY,13,0,2024-06-22T16:01:35.419Z,english_371.wav,0,pill,261,1,0.1,2.85031152,1.3562861
YAY,13,0,2024-06-22T16:01:35.419Z,english_371.wav,0,pill,261,2,0.2,-57.71166213,1.30905236
YAY,13,0,2024-06-22T16:01:35.419Z,english_371.wav,0,pill,261,3,0.3,-66.93032782,1.33160076
YAY,13,0,2024-06-22T16:01:35.419Z,english_371.wav,0,pill,261,4,0.32341667,13.43806553,0.62192137
YAY,14,0,2024-06-22T16:01:35.419Z,english_562.wav,0,pill,922,0,0.0,-40.22672309,0.64031882
YAY,14,0,2024-06-22T16:01:35.419Z,english_562.wav,0,pill,922,1,0.1,77.961849,0.7637006
YAY,14,0,2024-06-22T16:01:35.419Z,english_562.wav,0,pill,922,2,0.2,25.52463525,0.87632482
YAY,14,0,2024-06-22T16:01:35.419Z,english_562.wav,0,pill,922,3,0.3,84.62788358,0.98972612
YAY,14,0,2024-06-22T16:01:35.419Z,english_562.wav,0,pill,922,4,0.32341667,-53.67427145,0.74010285
YAY,15,0,2024-06-22T16:01:35.419Z,english_287.wav,0,pill,633,0,0.0,-5.71925808,1.04112926
YAY,15,0,2024-06-22T16:01:35.419Z,english_287.wav,0,pill,633,1,0.1,-94.78041007,0.35149142
YAY,15,0,2024-06-22T16:01:35.419Z,english_287.wav,0,pill,633,2,0.2,8.34641368,0.86781598
YAY,15,0,2024-06-22T16:01:35.419Z,english_287.wav,0,pill,633,3,0.3,36.34893025,1.897904
YAY,15,0,2024-06-22T16:01:35.419Z,english_287.wav,0,pill,633,4,0.32341667,-22.47689594,0.5607403
YAY,16,0,2024-06-22T16:01:35.419Z,english_759.wav,0,pill,474,0,0.0,22.56482953,0.32974928
YAY,16,0,2024-06-22T16:01:35.419Z,english_759.wav,0,pill,474,1,0.1,-26.57515882,0.74944663
YAY,16,0,2024-06-22T16:01:35.419Z,english_759.wav,0,pill,474,2,0.2,58.52096087,0.73148935
YAY,16,0,2024-06-22T16:01:35.419Z,english_759.wav,0,pill,474,3,0.3,67.88336338,0.69769471
YAY,16,0,2024-06-22T16:01:35.419Z,english_759.wav,0,pill,474,4,0.32341667,-98.7178367,1.46371733
YAY,17,0,2024-06-22T16:01:35.419Z,english_993.wav,0,pill,462,0,0.0,-66.15449332,1.17508471
YAY,17,0,2024-06-22T16:01:35.419Z,english_993.wav,0,pill,462,1,0.1,33.08083728,0.94744004
YAY,17,0,2024-06-22T16:01:35.419Z,english_993.wav,0,pill,462,2,0.2,51.46479562,0.74931244
YAY,17,0,2024-06-22T16:01:35.419Z,english_993.wav,0,pill,462,3,0.3,-80.58676237,0.35628979
YAY,17,0,2024-06-22T16:01:35.419Z,english_993.wav,0,pill,462,4,0.32341667,81.97884737,1.25416847
YAY,18,0,2024-06-22T16:01:35.419Z,english_730.wav,0,peel,236,0,0.0,12.15035978,0.91227818
YAY,18,0,2024-06-22T16:01:35.419Z,english_730.wav,0,peel,236,1,0.1,-56.22765555,1.17022701
YAY,18,0,2024-06-22T16:01:35.419Z,english_730.wav,0,peel,236,2,0.2,-53.26534685,0.58034143
YAY,18,0,2024-06-22T16:01:35.419Z,english_730.wav,0,peel,236,3,0.3,-25.75230742,1.9562998
YAY,18,0,2024-06-22T16:01:35.419Z,english_730.wav,0,peel,236,4,0.32341667,-73.04726616,1.99538846
YAY,19,0,2024-06-22T16:01:35.419Z,english_36.wav,0,pill,441,0,0.0,8.79498818,0.0614271
YAY,19,0,2024-06-22T16:01:35.419Z,english_36.wav,0,pill,441,1,0.1,-18.99628775,0.22652961
YAY,19,0,2024-06-22T16:01:35.419Z,english_36.wav,0,pill,441,2,0.2,-17.40156662,0.46484299
YAY,19,0,2024-06-22T16:01:35.419Z,english_36.wav,0,pill,441,3,0.3,-85.73958234,0.81464033
YAY,19,0,2024-06-22T16:01:35.419Z,english_36.wav,0,pill,441,4,0.32341667,45.44069908,0.21843777
YAY,20,0,2024-06-22T16:01:35.419Z,english_793.wav,0,peel,356,0,0.0,-3.59370976,0.95327953
YAY,20,0,2024-06-22T16:01:35.419Z,english_793.wav,0,peel,356,1,0.1,-92.44382947,0.8890172
YAY,20,0,2024-06-22T16:01:35.419Z,english_793.wav,0,peel,356,2,0.2,-89.84008222,0.47547445
YAY,20,0,2024-06-22T16:01:35.419Z,english_793.wav,0,peel,356,3,0.3,96.09352514,1.09208031
YAY,20,0,2024-06-22T16:01:35.419Z,english_793.wav,0,peel,356,4,0.32341667,42.94050617,0.63383093
YAY,21,0,2024-06-22T16:01:35.419Z,english_694.wav,0,pill,418,0,0.0,-79.88370205,0.99496101
YAY,21,0,2024-06-22T16:01:35.419Z,english_694.wav,0,pill,418,1,0.1,-58.02841319,0.06406007
YAY,21,0,2024-06-22T16:01:35.419Z,english_694.wav,0,pill,418,2,0.2,-50.54988317,0.5055253
YAY,21,0,2024-06-22T16:01:35.419Z,english_694.wav,0,pill,418,3,0.3,-20.79864769,0.19498426
YAY,21,0,2024-06-22T16:01:35.419Z,english_694.wav,0,pill,418,4,0.32341667,-73.64916114,0.36410653
YAY,22,0,2024-06-22T16:01:35.419Z,english_306.wav,0,peel,178,0,0.0,-78.46406697,1.96625377
YAY,22,0,2024-06-22T16:01:35.419Z,english_306.wav,0,peel,178,1,0.1,-60.64765069,1.9128761
YAY,22,0,2024-06-22T16:01:35.419Z,english_306.wav,0,peel,178,2,0.2,41.654101,0.92284414
YAY,22,0,2024-06-22T16:01:35.419Z,english_306.wav,0,peel,178,3,0.3,58.45609749,1.12546267
YAY,22,0,2024-06-22T16:01:35.419Z,english_306.wav,0,peel,178,4,0.32341667,-89.32145871,0.77622038
YAY,23,0,2024-06-22T16:01:35.419Z,english_602.wav,0,peel,189,0,0.0,-53.18857274,1.95117352
YAY,23,0,2024-06-22T16:01:35.419Z,english_602.wav,0,peel,189,1,0.1,-52.96167371,1.1427253
YAY,23,0,2024-06-22T16:01:35.419Z,english_602.wav,0,peel,189,2,0.2,38.20784676,1.10694813
YAY,23,0,2024-06-22T16:01:35.419Z,english_602.wav,0,peel,189,3,0.3,46.0178344,0.8717932
YAY,23,0,2024-06-22T16:01:35.419Z,english_602.wav,0,peel,189,4,0.32341667,78.11630752,0.71626065
YAY,24,0,2024-06-22T16:01:35.419Z,english_101.wav,0,pill,401,0,0.0,60.77829508,0.77962125
YAY,24,0,2024-06-22T16:01:35.419Z,english_101.wav,0,pill,401,1,0.1,43.41373716,0.02040908
YAY,24,0,2024-06-22T16:01:35.419Z,english_101.wav,0,pill,401,2,0.2,56.16195873,0.79248433
YAY,24,0,2024-06-22T16:01:35.419Z,english_101.wav,0,pill,401,3,0.3,-99.94719329,1.74003505
YAY,24,0,2024-06-22T16:01:35.419Z,english_101.wav,0,pill,401,4,0.32341667,-1.35074094,1.66206156
YAY,25,0,2024-06-22T16:01:35.419Z,english_292.wav,0,peel,289,0,0.0,-39.45275529,0.85174507
YAY,25,0,2024-06-22T16:01:35.419Z,english_292.wav,0,peel,289,1,0.1,-35.03464337,0.73996191
YAY,25,0,2024-06-22T16:01:35.419Z,english_292.wav,0,peel,289,2,0.2,31.68370279,1.42892595
YAY,25,0,2024-06-22T16:01:35.419Z,english_292.wav,0,peel,289,3,0.3,-53.75991965,0.04968332
YAY,25,0,2024-06-22T16:01:35.419Z,english_292.wav,0,peel,289,4,0.32341667,12.49992629,0.58931553
YAY,26,0,2024-06-22T16:01:35.419Z,english_402.wav,0,peel,242,0,0.0,-69.75327375,0.88104294
YAY,26,0,2024-06-22T16:01:35.419Z,english_402.wav,0,peel,242,1,0.1,-37.13247603,1.50830761
YAY,26,0,2024-06-22T16:01:35.419Z,english_402.wav,0,peel,242,2,0.2,95.06865819,0.86613458
YAY,26,0,2024-06-22T16:01:35.419Z,english_402.wav,0,peel,242,3,0.3,-83.65219271,1.46195184
YAY,26,0,2024-06-22T16:01:35.419Z,english_402.wav,0,peel,242,4,0.32341667,-39.65623645,1.78030697
YAY,27,0,2024-06-22T16:01:35.419Z,english_833.wav,0,peel,372,0,0.0,18.29317799,0.49951345
YAY,27,0,2024-06-22T16:01:35.419Z,english_833.wav,0,peel,372,1,0.1,20.01945042,1.12176851
YAY,27,0,2024-06-22T16:01:35.419Z,english_833.wav,0,peel,372,2,0.2,-77.99741705,0.59960618
YAY,27,0,2024-06-22T16:01:35.419Z,english_833.wav,0,peel,372,3,0.3,19.36192697,0.50557433
YAY,27,0,2024-06-22T16:01:35.419Z,english_833.wav,0,peel,372,4,0.32341667,43.06785988,0.3288339
YAY,28,0,2024-06-22T16:01:35.419Z,english_232.wav,0,pill,254,0,0.0,15.13134779,0.53160298
YAY,28,0,2024-06-22T16:01:35.419Z,english_232.wav,0,pill,254,1,0.1,-49.29605083,0.4519978
YAY,28,0,2024-06-22T16:01:35.419Z,english_232.wav,0,pill,254,2,0.2,59.10606455,0.39260156
YAY,28,0,2024-06-22T16:01:35.419Z,english_232.wav,0,pill,254,3,0.3,48.81708847,0.4692084
YAY,28,0,2024-06-22T16:01:35.419Z,english_232.wav,0,pill,254,4,0.32341667,14.83590121,0.46233459
YAY,29,0,2024-06-22T16:01:35.419Z,english_858.wav,0,peel,188,0,0.0,45.12570132,0.50395823
YAY,29,0,2024-06-22T16:01:35.419Z,english_858.wav,0,peel,188,1,0.1,-46.71359417,1.50658612
YAY,29,0,2024-06-22T16:01:35.419Z,english_858.wav,0,peel,188,2,0.2,-60.32464978,0.86887416
YAY,29,0,2024-06-22T16:01:35.419Z,english_858.wav,0,peel,188,3,0.3,-70.46241098,0.20520469
YAY,29,0,2024-06-22T16:01:35.419Z,english_858.wav,0,peel,188,4,0.32341667,76.51169453,1.05885662
YAY,30,0,2024-06-22T16:01:35.419Z,english_495.wav,0,peel,361,0,0.0,-5.58861003,1.32978923
YAY,30,0,2024-06-22T16:01:35.419Z,english_495.wav,0,peel,361,1,0.1,8.95176437,0.81778757
YAY,30,0,2024-06-22T16:01:35.419Z,english_495.wav,0,peel,361,2,0.2,39.42206983,0.66481361
YAY,30,0,2024-06-22T16:01:35.419Z,english_495.wav,0,peel,361,3,0.3,-84.38976819,0.35850052
YAY,30,0,2024-06-22T16:01:35.419Z,english_495.wav,0,peel,361,4,0.32341667,-2.90431636,0.23899864
YAY,31,0,2024-06-22T16:01:35.419Z,english_737.wav,0,peel,404,0,0.0,21.35751723,1.17499048
YAY,31,0,2024-06-22T16:01:35.419Z,english_737.wav,0,peel,404,1,0.1,61.52152077,1.09581395
YAY,31,0,2024-06-22T16:01:35.419Z,english_737.wav,0,peel,404,2,0.2,-29.75610596,0.62940412
YAY,31,0,2024-06-22T16:01:35.419Z,english_737.wav,0,peel,404,3,0.3,-39.80249708,0.11793022
YAY,31,0,2024-06-22T16:01:35.419Z,english_737.wav,0,peel,404,4,0.32341667,-14.64937497,0.62377861
YAY,32,0,2024-06-22T16:01:35.419Z,english_29.wav,0,pill,228,0,0.0,-2.71310826,1.50712016
YAY,32,0,2024-06-22T16:01:35.419Z,english_29.wav,0,pill,228,1,0.1,17.7201972,0.83644439
YAY,32,0,2024-06-22T16:01:35.419Z,english_29.wav,0,pill,228,2,0.2,-20.17501418,0.76078741
YAY,32,0,2024-06-22T16:01:35.419Z,english_29.wav,0,pill,228,3,0.3,12.48271646,0.17009155
YAY,32,0,2024-06-22T16:01:35.419Z,english_29.wav,0,pill,228,4,0.32341667,29.42079391,1.26727983
YAY,33,0,2024-06-22T16:01:35.419Z,english_776.wav,0,peel,149,0,0.0,29.86548478,0.57139857
YAY,33,0,2024-06-22T16:01:35.419Z,english_776.wav,0,peel,149,1,0.1,2.8025705,1.94435619
YAY,33,0,2024-06-22T16:01:35.419Z,english_776.wav,0,peel,149,2,0.2,-38.4768188,0.3951066
YAY,33,0,2024-06-22T16:01:35.419Z,english_776.wav,0,peel,149,3,0.3,-89.49838949,0.29859462
YAY,33,0,2024-06-22T16:01:35.419Z,english_776.wav,0,peel,149,4,0.32341667,30.18488016,1.93939037
YAY,34,0,2024-06-22T16:01:35.419Z,english_871.wav,0,peel,461,0,0.0,84.63625516,0.21643415
YAY,34,0,2024-06-22T16:01:35.419Z,english_871.wav,0,peel,461,1,0.1,-19.11058767,1.23538017
YAY,34,0,2024-06-22T16:01:35.419Z,english_871.wav,0,peel,461,2,0.2,49.1497137,1.26375285
YAY,34,0,2024-06-22T16:01:35.419Z,english_871.wav,0,peel,461,3,0.3,-83.07816512,0.03257235
YAY,34,0,2024-06-22T16:01:35.419Z,english_871.wav,0,peel,461,4,0.32341667,11.22002909,1.90703832
YAY,35,0,2024-06-22T16:01:35.419Z,english_811.wav,0,peel,301,0,0.0,-51.03425556,1.55055496
YAY,35,0,2024-06-22T16:01:35.419Z,english_811.wav,0,peel,301,1,0.1,22.81695275,1.74830484
YAY,35,0,2024-06-22T16:01:35.419Z,english_811.wav,0,peel,301,2,0.2,73.06623682,1.24661488
YAY,35,0,2024-06-22T16:01:35.419Z,english_811.wav,0,peel,301,3,0.3,-9.17693151,0.09792889
YAY,35,0,2024-06-22T16:01:35.419Z,english_811.wav,0,peel,301,4,0.32341667,79.97760745,0.03735929
YAY,36,0,2024-06-22T16:01:35.419Z,english_140.wav,0,peel,191,0,0.0,-63.97366245,1.49783115
YAY,36,0,2024-06-22T16:01:35.419Z,english_140.wav,0,peel,191,1,0.1,-84.90656008,1.37250299
YAY,36,0,2024-06-22T16:01:35.419Z,english_140.wav,0,peel,191,2,0.2,93.42782744,0.10650492
YAY,36,0,2024-06-22T16:01:35.419Z,english_140.wav,0,peel,191,3,0.3,11.57634117,0.84315206
YAY,36,0,2024-06-22T16:01:35.419Z,english_140.wav,0,peel,191,4,0.32341667,80.35905055,1.26233419
YAY,37,0,2024-06-22T16:01:35.419Z,english_741.wav,0,peel,150,0,0.0,-74.62614727,1.92216761
YAY,37,0,2024-06-22T16:01:35.419Z,english_741.wav,0,peel,150,1,0.1,33.834367,1.50741835
YAY,37,0,2024-06-22T16:01:35.419Z,english_741.wav,0,peel,150,2,0.2,-60.21329901,0.74273648
YAY,37,0,2024-06-22T16:01:35.419Z,english_741.wav,0,peel,150,3,0.3,-95.39639135,0.98175705
YAY,37,0,2024-06-22T16:01:35.419Z,english_741.wav,0,peel,150,4,0.32341667,3.10560698,0.9878567
YAY,38,0,2024-06-22T16:01:35.419Z,english_229.wav,0,peel,149,0,0.0,51.56916705,1.25898044
YAY,38,0,2024-06-22T16:01:35.419Z,english_229.wav,0,peel,149,1,0.1,-51.28327497,0.34588319
YAY,38,0,2024-06-22T16:01:35.419Z,english_229.wav,0,peel,149,2,0.2,97.78221202,1.91985924
YAY,38,0,2024-06-22T16:01:35.419Z,english_229.wav,0,peel,149,3,0.3,-75.98126047,0.82059623
YAY,38,0,2024-06-22T16:01:35.419Z,english_229.wav,0,peel,149,4,0.32341667,-44.05308002,1.38191391
YAY,39,0,2024-06-22T16:01:35.419Z,english_47.wav,0,peel,85,0,0.0,70.62381491,1.36620222
YAY,39,0,2024-06-22T16:01:35.419Z,english_47.wav,0,peel,85,1,0.1,-43.60565268,0.47559644
YAY,39,0,2024-06-22T16:01:35.419Z,english_47.wav,0,peel,85,2,0.2,29.54670776,0.92078875
YAY,39,0,2024-06-22T16:01:35.419Z,english_47.wav,0,peel,85,3,0.3,95.208653,0.83015506
YAY,39,0,2024-06-22T16:01:35.419Z,english_47.wav,0,peel,85,4,0.32341667,-87.83630424,1.40747595
YAY,40,0,2024-06-22T16:01:35.419Z,english_381.wav,0,peel,161,0,0.0,-64.83599525,0.77808766
YAY,40,0,2024-06-22T16:01:35.419Z,english_381.wav,0,peel,161,1,0.1,97.61236857,1.62635576
YAY,40,0,2024-06-22T16:01:35.419Z,english_381.wav,0,peel,161,2,0.2,-60.27157178,0.65298664
YAY,40,0,2024-06-22T16:01:35.419Z,english_381.wav,0,peel,161,3,0.3,84.45732791,0.46881793
YAY,40,0,2024-06-22T16:01:35.419Z,english_381.wav,0,peel,161,4,0.32341667,-87.53832291,1.22836965
YAY,41,0,2024-06-22T16:01:35.419Z,english_156.wav,0,pill,455,0,0.0,93.86570948,0.27803573
YAY,41,0,2024-06-22T16:01:35.419Z,english_156.wav,0,pill,455,1,0.1,63.74639013,0.76121308
YAY,41,0,2024-06-22T16:01:35.419Z,english_156.wav,0,pill,455,2,0.2,-97.10775444,0.98438609
YAY,41,0,2024-06-22T16:01:35.419Z,english_156.wav,0,pill,455,3,0.3,99.76737427,0.34877861
YAY,41,0,2024-06-22T16:01:35.419Z,english_156.wav,0,pill,455,4,0.32341667,11.29868277,0.58154428
YAY,42,0,2024-06-22T16:01:35.419Z,english_852.wav,0,peel,212,0,0.0,-59.21906832,1.76087743
YAY,42,0,2024-06-22T16:01:35.419Z,english_852.wav,0,peel,212,1,0.1,5.96662808,0.85304022
YAY,42,0,2024-06-22T16:01:35.419Z,english_852.wav,0,peel,212,2,0.2,12.29830648,0.5029047
YAY,42,0,2024-06-22T16:01:35.419Z,english_852.wav,0,peel,212,3,0.3,-98.20735767,0.66544939
YAY,42,0,2024-06-22T16:01:35.419Z,english_852.wav,0,peel,212,4,0.32341667,-0.5186354,0.26669214
YAY,43,0,2024-06-22T16:01:35.419Z,english_952.wav,0,peel,192,0,0.0,64.91746033,1.00586425
YAY,43,0,2024-06-22T16:01:35.419Z,english_952.wav,0,peel,192,1,0.1,-25.84234774,1.28790365
YAY,43,0,2024-06-22T16:01:35.419Z,english_952.wav,0,peel,192,2,0.2,60.30097417,1.6668124
YAY,43,0,2024-06-22T16:01:35.419Z,english_952.wav,0,peel,192,3,0.3,-98.0606555,1.44616756
YAY,43,0,2024-06-22T16:01:35.419Z,english_952.wav,0,peel,192,4,0.32341667,-77.98984902,0.15831209
YAY,44,0,2024-06-22T16:01:35.419Z,english_174.wav,0,pill,392,0,0.0,-14.93169449,0.27768215
YAY,44,0,2024-06-22T16:01:35.419Z,english_174.wav,0,pill,392,1,0.1,-60.50222611,0.13809097
YAY,44,0,2024-06-22T16:01:35.419Z,english_174.wav,0,pill,392,2,0.2,-88.67347191,0.18584848
YAY,44,0,2024-06-22T16:01:35.419Z,english_174.wav,0,pill,392,3,0.3,-20.58504224,1.46718454
YAY,44,0,2024-06-22T16:01:35.419Z,english_174.wav,0,pill,392,4,0.32341667,-52.28073567,0.17567705
YAY,45,0,2024-06-22T16:01:35.419Z,english_506.wav,0,peel,300,0,0.0,-17.73769578,0.98447335
YAY,45,0,2024-06-22T16:01:35.419Z,english_506.wav,0,peel,300,1,0.1,-41.45582363,0.94666259
YAY,45,0,2024-06-22T16:01:35.419Z,english_506.wav,0,peel,300,2,0.2,30.66866042,0.72831062
YAY,45,0,2024-06-22T16:01:35.419Z,english_506.wav,0,peel,300,3,0.3,59.8078046,1.02790064
YAY,45,0,2024-06-22T16:01:35.419Z,english_506.wav,0,peel,300,4,0.32341667,84.38248427,0.39724826
YAY,46,0,2024-06-22T16:01:35.419Z,english_626.wav,0,pill,479,0,0.0,4.25415757,0.7037323
YAY,46,0,2024-06-22T16:01:35.419Z,english_626.wav,0,pill,479,1,0.1,-41.27415217,1.26912647
YAY,46,0,2024-06-22T16:01:35.419Z,english_626.wav,0,pill,479,2,0.2,-74.74598363,0.17760594
YAY,46,0,2024-06-22T16:01:35.419Z,english_626.wav,0,pill,479,3,0.3,-15.94741517,1.12963497
YAY,46,0,2024-06-22T16:01:35.419Z,english_626.wav,0,pill,479,4,0.32341667,43.51897949,0.85087029
YAY,47,0,2024-06-22T16:01:35.419Z,english_213.wav,0,peel,256,0,0.0,-29.91874444,1.42031243
YAY,47,0,2024-06-22T16:01:35.419Z,english_213.wav,0,peel,256,1,0.1,41.64704809,0.59218852
YAY,47,0,2024-06-22T16:01:35.419Z,english_213.wav,0,peel,256,2,0.2,-87.11075848,1.10576613
YAY,47,0,2024-06-22T16:01:35.419Z,english_213.wav,0,peel,256,3,0.3,-61.54877495,0.09529021
YAY,47,0,2024-06-22T16:01:35.419Z,english_213.wav,0,peel,256,4,0.32341667,-34.29429643,1.15583312
YAY,48,0,2024-06-22T16:01:35.419Z,english_30.wav,0,peel,201,0,0.0,-18.5398728,0.31748681
YAY,48,0,2024-06-22T16:01:35.419Z,english_30.wav,0,peel,201,1,0.1,-67.34991207,1.82477139
YAY,48,0,2024-06-22T16:01:35.419Z,english_30.wav,0,peel,201,2,0.2,65.54879707,1.59992979
YAY,48,0,2024-06-22T16:01:35.419Z,english_30.wav,0,peel,201,3,0.3,30.88088319,0.89523729
YAY,48,0,2024-06-22T16:01:35.419Z,english_30.wav,0,peel,201,4,0.32341667,50.60550813,1.02052202
YAY,49,0,2024-06-22T16:01:35.419Z,english_530.wav,0,peel,479,0,0.0,21.55057906,0.25130805
YAY,49,0,2024-06-22T16:01:35.419Z,english_530.wav,0,peel,479,1,0.1,-20.17265513,0.96020899
YAY,49,0,2024-06-22T16:01:35.419Z,english_530.wav,0,peel,479,2,0.2,-52.07974762,1.55252741
YAY,49,0,2024-06-22T16:01:35.419Z,english_530.wav,0,peel,479,3,0.3,87.36384387,1.19622655
YAY,49,0,2024-06-22T16:01:35.419Z,english_530.wav,0,peel,479,4,0.32341667,-72.92256984,0.75880724
YAY,50,1,2024-06-22T16:01:35.419Z,english_874.wav,0,peel,654,0,0.0,32.94582558,0.77720789
YAY,50,1,2024-06-22T16:01:35.419Z,english_874.wav,0,peel,654,1,0.1,73.76521909,1.44852608
YAY,50,1,2024-06-22T16:01:35.419Z,english_874.wav,0,peel,654,2,0.2,-83.94992572,1.18086928
YAY,50,1,2024-06-22T16:01:35.419Z,english_874.wav,0,peel,654,3,0.3,-61.86791133,0.75042975
YAY,50,1,2024-06-22T16:01:35.419Z,english_874.wav,0,peel,654,4,0.32341667,-94.71312943,1.11461748
YAY,51,1,2024-06-22T16:01:35.419Z,english_542.wav,0,peel,239,0,0.0,-75.53633957,0.40538048
YAY,51,1,2024-06-22T16:01:35.419Z,english_542.wav,0,peel,239,1,0.1,-65.83593262,1.98560632
YAY,51,1,2024-06-22T16:01:35.419Z,english_542.wav,0,peel,239,2,0.2,-66.8010443,1.18970355
YAY,51,1,2024-06-22T16:01:35.419Z,english_542.wav,0,peel,239,3,0.3,89.94318033,1.00543009
YAY,51,1,2024-06-22T16:01:35.419Z,english_542.wav,0,peel,239,4,0.32341667,-28.80984484,1.15995836
YAY,52,1,2024-06-22T16:01:35.419Z,english_296.wav,0,pill,209,0,0.0,-4.92142852,1.99305172
YAY,52,1,2024-06-22T16:01:35.419Z,english_296.wav,0,pill,209,1,0.1,-5.74196289,0.92633133
YAY,52,1,2024-06-22T16:01:35.419Z,english_296.wav,0,pill,209,2,0.2,76.26647078,0.44879969
YAY,52,1,2024-06-22T16:01:35.419Z,english_296.wav,0,pill,209,3,0.3,-62.74030654,1.47417428
YAY,52,1,2024-06-22T16:01:35.419Z,english_296.wav,0,pill,209,4,0.32341667,-60.661992,1.05571007
YAY,53,1,2024-06-22T16:01:35.419Z,english_57.wav,0,pill,1866,0,0.0,-27.39668164,1.97835384
YAY,53,1,2024-06-22T16:01:35.419Z,english_57.wav,0,pill,1866,1,0.1,63.52389761,0.69906452
YAY,53,1,2024-06-22T16:01:35.419Z,english_57.wav,0,pill,1866,2,0.2,-55.42033209,0.75389415
YAY,53,1,2024-06-22T16:01:35.419Z,english_57.wav,0,pill,1866,3,0.3,40.81906742,0.20375649
YAY,53,1,2024-06-22T16:01:35.419Z,english_57.wav,0,pill,1866,4,0.32341667,-12.75543821,1.65585112
YAY,54,1,2024-06-22T16:01:35.419Z,english_250.wav,0,peel,257,0,0.0,15.9272347,0.97372592
YAY,54,1,2024-06-22T16:01:35.419Z,english_250.wav,0,peel,257,1,0.1,-20.77070657,1.45189783
YAY,54,1,2024-06-22T16:01:35.419Z,english_250.wav,0,peel,257,2,0.2,-20.08480075,0.50513237
YAY,54,1,2024-06-22T16:01:35.419Z,english_250.wav,0,peel,257,3,0.3,-29.82576937,1.38910207
YAY,54,1,2024-06-22T16:01:35.419Z,english_250.wav,0,peel,257,4,0.32341667,87.83532187,1.51614456
YAY,55,1,2024-06-22T16:01:35.419Z,english_740.wav,0,peel,655,0,0.0,17.63845752,0.65519257
YAY,55,1,2024-06-22T16:01:35.419Z,english_740.wav,0,peel,655,1,0.1,36.88289119,0.996231
YAY,55,1,2024-06-22T16:01:35.419Z,english_740.wav,0,peel,655,2,0.2,-63.85348159,0.85360158
YAY,55,1,2024-06-22T16:01:35.419Z,english_740.wav,0,peel,655,3,0.3,-97.96670479,1.42654033
YAY,55,1,2024-06-22T16:01:35.419Z,english_740.wav,0,peel,655,4,0.32341667,43.035587,1.01691569
YAY,56,1,2024-06-22T16:01:35.419Z,english_965.wav,0,peel,126,0,0.0,-19.49526798,1.71910172
YAY,56,1,2024-06-22T16:01:35.419Z,english_965.wav,0,peel,126,1,0.1,-33.46093545,1.16323176
YAY,56,1,2024-06-22T16:01:35.419Z,english_965.wav,0,peel,126,2,0.2,95.24809114,0.56514201
YAY,56,1,2024-06-22T16:01:35.419Z,english_965.wav,0,peel,126,3,0.3,26.23968625,1.82539978
YAY,56,1,2024-06-22T16:01:35.419Z,english_965.wav,0,peel,126,4,0.32341667,15.70217089,1.7659451
YAY,57,1,2024-06-22T16:01:35.419Z,english_353.wav,0,pill,175,0,0.0,51.44050484,0.16518243
YAY,57,1,2024-06-22T16:01:35.419Z,english_353.wav,0,pill,175,1,0.1,-8.32491594,1.32533476
YAY,57,1,2024-06-22T16:01:35.419Z,english_353.wav,0,pill,175,2,0.2,-53.32966552,0.41923861
YAY,57,1,2024-06-22T16:01:35.419Z,english_353.wav,0,pill,175,3,0.3,68.29246543,1.87374553
YAY,57,1,2024-06-22T16:01:35.419Z,english_353.wav,0,pill,175,4,0.32341667,-32.22441747,1.13071195
YAY,58,1,2024-06-22T16:01:35.419Z,english_231.wav,0,peel,133,0,0.0,-57.04299033,1.30850831
YAY,58,1,2024-06-22T16:01:35.419Z,english_231.wav,0,peel,133,1,0.1,-61.30294243,1.06317761
YAY,58,1,2024-06-22T16:01:35.419Z,english_231.wav,0,peel,133,2,0.2,11.10207427,1.86768436
YAY,58,1,2024-06-22T16:01:35.419Z,english_231.wav,0,peel,133,3,0.3,-1.38864911,1.42169342
YAY,58,1,2024-06-22T16:01:35.419Z,english_231.wav,0,peel,133,4,0.32341667,-40.37897369,0.58634772
YAY,59,1,2024-06-22T16:01:35.419Z,english_357.wav,0,pill,307,0,0.0,76.35734026,1.14590216
YAY,59,1,2024-06-22T16:01:35.419Z,english_357.wav,0,pill,307,1,0.1,-86.84267031,0.53472093
YAY,59,1,2024-06-22T16:01:35.419Z,english_357.wav,0,pill,307,2,0.2,-64.6676431,0.54723503
YAY,59,1,2024-06-22T16:01:35.419Z,english_357.wav,0,pill,307,3,0.3,-69.9472318,1.29334783
YAY,59,1,2024-06-22T16:01:35.419Z,english_357.wav,0,pill,307,4,0.32341667,87.84988665,1.74725804
YAY,60,1,2024-06-22T16:01:35.419Z,english_376.wav,0,peel,29,0,0.0,-10.66231765,0.83936518
YAY,60,1,2024-06-22T16:01:35.419Z,english_376.wav,0,peel,29,1,0.1,-53.95799634,1.7265478
YAY,60,1,2024-06-22T16:01:35.419Z,english_376.wav,0,peel,29,2,0.2,-44.60014177,0.44309389
YAY,60,1,2024-06-22T16:01:35.419Z,english_376.wav,0,peel,29,3,0.3,-84.32777745,1.91772458
YAY,60,1,2024-06-22T16:01:35.419Z,english_376.wav,0,peel,29,4,0.32341667,-2.76179289,0.76255227
YAY,61,1,2024-06-22T16:01:35.419Z,english_718.wav,0,pill,319,0,0.0,-62.54470118,0.40124114
YAY,61,1,2024-06-22T16:01:35.419Z,english_718.wav,0,pill,319,1,0.1,-40.70811043,0.49945062
YAY,61,1,2024-06-22T16:01:35.419Z,english_718.wav,0,pill,319,2,0.2,-11.25435391,1.54880463
YAY,61,1,2024-06-22T16:01:35.419Z,english_718.wav,0,pill,319,3,0.3,-68.52161814,0.39118497
YAY,61,1,2024-06-22T16:01:35.419Z,english_718.wav,0,pill,319,4,0.32341667,-77.89834334,0.07447668
YAY,62,1,2024-06-22T16:01:35.419Z,english_625.wav,0,pill,417,0,0.0,25.70847239,1.1960971
YAY,62,1,2024-06-22T16:01:35.419Z,english_625.wav,0,pill,417,1,0.1,-37.82303983,0.02795501
YAY,62,1,2024-06-22T16:01:35.419Z,english_625.wav,0,pill,417,2,0.2,38.52328891,1.10198652
YAY,62,1,2024-06-22T16:01:35.419Z,english_625.wav,0,pill,417,3,0.3,-23.93667478,0.08852642
YAY,62,1,2024-06-22T16:01:35.419Z,english_625.wav,0,pill,417,4,0.32341667,-53.98326942,1.59813041
YAY,63,1,2024-06-22T16:01:35.419Z,english_310.wav,0,peel,155,0,0.0,82.1385274,0.14341218
YAY,63,1,2024-06-22T16:01:35.419Z,english_310.wav,0,peel,155,1,0.1,-33.74608058,1.80934389
YAY,63,1,2024-06-22T16:01:35.419Z,english_310.wav,0,peel,155,2,0.2,62.12487376,1.28785402
YAY,63,1,2024-06-22T16:01:35.419Z,english_310.wav,0,peel,155,3,0.3,96.31437548,1.13060378
YAY,63,1,2024-06-22T16:01:35.419Z,english_310.wav,0,peel,155,4,0.32341667,-23.64802517,1.05137249
YAY,64,1,2024-06-22T16:01:35.419Z,english_479.wav,0,pill,573,0,0.0,74.98268857,0.98081986
YAY,64,1,2024-06-22T16:01:35.419Z,english_479.wav,0,pill,573,1,0.1,16.03290679,0.71187618
YAY,64,1,2024-06-22T16:01:35.419Z,english_479.wav,0,pill,573,2,0.2,78.97784812,0.27050369
YAY,64,1,2024-06-22T16:01:35.419Z,english_479.wav,0,pill,573,3,0.3,-15.63843586,1.15797271
YAY,64,1,2024-06-22T16:01:35.419Z,english_479.wav,0,pill,573,4,0.32341667,42.04802753,1.51318639
YAY,65,1,2024-06-22T16:01:35.419Z,english_959.wav,0,peel,162,0,0.0,-78.42285057,1.71892855
YAY,65,1,2024-06-22T16:01:35.419Z,english_959.wav,0,peel,162,1,0.1,6.44734251,1.96402951
YAY,65,1,2024-06-22T16:01:35.419Z,english_959.wav,0,peel,162,2,0.2,20.74966326,0.26247596
YAY,65,1,2024-06-22T16:01:35.419Z,english_959.wav,0,peel,162,3,0.3,-29.69680039,1.29464598
YAY,65,1,2024-06-22T16:01:35.419Z,english_959.wav,0,peel,162,4,0.32341667,34.2282551,1.77868038
YAY,66,1,2024-06-22T16:01:35.419Z,english_744.wav,0,pill,205,0,0.0,43.39686976,0.75505854
YAY,66,1,2024-06-22T16:01:35.419Z,english_744.wav,0,pill,205,1,0.1,-61.67573043,1.01311725
YAY,66,1,2024-06-22T16:01:35.419Z,english_744.wav,0,pill,205,2,0.2,0.51873183,0.73457108
YAY,66,1,2024-06-22T16:01:35.419Z,english_744.wav,0,pill,205,3,0.3,12.88130512,0.90154102
YAY,66,1,2024-06-22T16:01:35.419Z,english_744.wav,0,pill,205,4,0.32341667,57.31714449,1.01338509
YAY,67,1,2024-06-22T16:01:35.419Z,english_48.wav,0,peel,256,0,0.0,73.79399561,0.74385981
YAY,67,1,2024-06-22T16:01:35.419Z,english_48.wav,0,peel,256,1,0.1,-6.33056249,1.05457567
YAY,67,1,2024-06-22T16:01:35.419Z,english_48.wav,0,peel,256,2,0.2,-25.55346814,0.45493163
YAY,67,1,2024-06-22T16:01:35.419Z,english_48.wav,0,peel,256,3,0.3,46.43305776,0.06513279
YAY,67,1,2024-06-22T16:01:35.419Z,english_48.wav,0,peel,256,4,0.32341667,-46.56414761,0.46755714
YAY,68,1,2024-06-22T16:01:35.419Z,english_684.wav,0,peel,430,0,0.0,0.36394418,1.65924935
YAY,68,1,2024-06-22T16:01:35.419Z,english_684.wav,0,peel,430,1,0.1,28.47964645,1.32149406
YAY,68,1,2024-06-22T16:01:35.419Z,english_684.wav,0,peel,430,2,0.2,60.47995017,0.32417562
YAY,68,1,2024-06-22T16:01:35.419Z,english_684.wav,0,peel,430,3,0.3,-33.43266819,1.42108385
YAY,68,1,2024-06-22T16:01:35.419Z,english_684.wav,0,peel,430,4,0.32341667,-31.86672206,1.29243289
YAY,69,1,2024-06-22T16:01:35.419Z,english_565.wav,0,peel,180,0,0.0,-89.95965492,1.93181176
YAY,69,1,2024-06-22T16:01:35.419Z,english_565.wav,0,peel,180,1,0.1,67.55938023,1.29027557
YAY,69,1,2024-06-22T16:01:35.419Z,english_565.wav,0,peel,180,2,0.2,26.6208604,0.36054668
YAY,69,1,2024-06-22T16:01:35.419Z,english_565.wav,0,peel,180,3,0.3,-54.20230035,1.25973455
YAY,69,1,2024-06-22T16:01:35.419Z,english_565.wav,0,peel,180,4,0.32341667,-98.16020256,0.92743077
YAY,70,1,2024-06-22T16:01:35.419Z,english_186.wav,0,peel,105,0,0.0,-54.7664391,1.87021502
YAY,70,1,2024-06-22T16:01:35.419Z,english_186.wav,0,peel,105,1,0.1,-8.4263529,1.36390049
YAY,70,1,2024-06-22T16:01:35.419Z,english_186.wav,0,peel,105,2,0.2,6.22451559,1.69942617
YAY,70,1,2024-06-22T16:01:35.419Z,english_186.wav,0,peel,105,3,0.3,-12.35671223,1.8066537
YAY,70,1,2024-06-22T16:01:35.419Z,english_186.wav,0,peel,105,4,0.32341667,86.21839615,1.2511354
YAY,71,1,2024-06-22T16:01:35.419Z,english_541.wav,0,pill,269,0,0.0,-20.13323906,0.51383156
YAY,71,1,2024-06-22T16:01:35.419Z,english_541.wav,0,pill,269,1,0.1,2.48768759,0.65082056
YAY,71,1,2024-06-22T16:01:35.419Z,english_541.wav,0,pill,269,2,0.2,-86.20966861,0.48716137
YAY,71,1,2024-06-22T16:01:35.419Z,english_541.wav,0,pill,269,3,0.3,59.01445297,0.54905673
YAY,71,1,2024-06-22T16:01:35.419Z,english_541.wav,0,pill,269,4,0.32341667,61.23853539,1.76268899
YAY,72,1,2024-06-22T16:01:35.419Z,english_592.wav,0,peel,202,0,0.0,-77.34060672,0.96869857
YAY,72,1,2024-06-22T16:01:35.419Z,english_592.wav,0,peel,202,1,0.1,27.41551815,1.75134411
YAY,72,1,2024-06-22T16:01:35.419Z,english_592.wav,0,peel,202,2,0.2,-17.47445882,1.41680483
YAY,72,1,2024-06-22T16:01:35.419Z,english_592.wav,0,peel,202,3,0.3,-61.08462212,1.07260777
YAY,72,1,2024-06-22T16:01:35.419Z,english_592.wav,0,peel,202,4,0.32341667,74.7675789,0.73150904
YAY,73,1,2024-06-22T16:01:35.419Z,english_674.wav,0,peel,129,0,0.0,-38.60253285,0.25488683
YAY,73,1,2024-06-22T16:01:35.419Z,english_674.wav,0,peel,129,1,0.1,46.14948962,1.80679583
YAY,73,1,2024-06-22T16:01:35.419Z,english_674.wav,0,peel,129,2,0.2,-49.76414787,1.59420413
YAY,73,1,2024-06-22T16:01:35.419Z,english_674.wav,0,peel,129,3,0.3,-66.16492387,1.25714797
YAY,73,1,2024-06-22T16:01:35.419Z,english_674.wav,0,peel,129,4,0.32341667,28.37583826,1.20557216
YAY,74,1,2024-06-22T16:01:35.419Z,english_225.wav,0,peel,276,0,0.0,66.72796839,1.97535322
YAY,74,1,2024-06-22T16:01:35.419Z,english_225.wav,0,peel,276,1,0.1,3.03768966,1.18784527
YAY,74,1,2024-06-22T16:01:35.419Z,english_225.wav,0,peel,276,2,0.2,-45.96345052,1.58393351
YAY,74,1,2024-06-22T16:01:35.419Z,english_225.wav,0,peel,276,3,0.3,-88.14676012,1.17885171
YAY,74,1,2024-06-22T16:01:35.419Z,english_225.wav,0,peel,276,4,0.32341667,46.76760659,1.387907
YAY,75,1,2024-06-22T16:01:35.419Z,english_499.wav,0,peel,210,0,0.0,-62.75547094,0.4212983
YAY,75,1,2024-06-22T16:01:35.419Z,english_499.wav,0,peel,210,1,0.1,28.73361796,1.54082224
YAY,75,1,2024-06-22T16:01:35.419Z,english_499.wav,0,peel,210,2,0.2,-71.86053711,1.07919976
YAY,75,1,2024-06-22T16:01:35.419Z,english_499.wav,0,peel,210,3,0.3,-44.40399931,1.20425095
YAY,75,1,2024-06-22T16:01:35.419Z,english_499.wav,0,peel,210,4,0.32341667,-2.72335033,0.4618338
YAY,76,1,2024-06-22T16:01:35.419Z,english_910.wav,0,peel,417,0,0.0,-5.78748479,0.61840584
YAY,76,1,2024-06-22T16:01:35.419Z,english_910.wav,0,peel,417,1,0.1,25.040103,1.20431928
YAY,76,1,2024-06-22T16:01:35.419Z,english_910.wav,0,peel,417,2,0.2,-40.66398147,1.66594732
YAY,76,1,2024-06-22T16:01:35.419Z,english_910.wav,0,peel,417,3,0.3,-99.21011725,0.99007018
YAY,76,1,2024-06-22T16:01:35.419Z,english_910.wav,0,peel,417,4,0.32341667,30.82754841,0.23705338
YAY,77,1,2024-06-22T16:01:35.419Z,english_456.wav,0,pill,375,0,0.0,43.57092671,0.12750432
YAY,77,1,2024-06-22T16:01:35.419Z,english_456.wav,0,pill,375,1,0.1,59.73787768,0.97340157
YAY,77,1,2024-06-22T16:01:35.419Z,english_456.wav,0,pill,375,2,0.2,82.18665257,0.43547726
YAY,77,1,2024-06-22T16:01:35.419Z,english_456.wav,0,pill,375,3,0.3,84.09992258,1.17970357
YAY,77,1,2024-06-22T16:01:35.419Z,english_456.wav,0,pill,375,4,0.32341667,14.68455092,0.64309566
YAY,78,1,2024-06-22T16:01:35.419Z,english_324.wav,0,peel,390,0,0.0,49.07155908,0.10864525
YAY,78,1,2024-06-22T16:01:35.419Z,english_324.wav,0,peel,390,1,0.1,-58.77252084,1.61132735
YAY,78,1,2024-06-22T16:01:35.419Z,english_324.wav,0,peel,390,2,0.2,-55.40155542,0.60180616
YAY,78,1,2024-06-22T16:01:35.419Z,english_324.wav,0,peel,390,3,0.3,19.02224292,0.93555132
YAY,78,1,2024-06-22T16:01:35.419Z,english_324.wav,0,peel,390,4,0.32341667,21.20382854,0.34417591
YAY,79,1,2024-06-22T16:01:35.419Z,english_46.wav,0,peel,1329,0,0.0,-29.32250151,0.64118776
YAY,79,1,2024-06-22T16:01:35.419Z,english_46.wav,0,peel,1329,1,0.1,-3.06808063,0.73649566
YAY,79,1,2024-06-22T16:01:35.419Z,english_46.wav,0,peel,1329,2,0.2,90.97923358,1.88790792
YAY,79,1,2024-06-22T16:01:35.419Z,english_46.wav,0,peel,1329,3,0.3,10.7462216,0.26788582
YAY,79,1,2024-06-22T16:01:35.419Z,english_46.wav,0,peel,1329,4,0.32341667,-76.74347892,0.543593
YAY,80,1,2024-06-22T16:01:35.419Z,english_942.wav,0,peel,331,0,0.0,96.26286183,1.14976657
YAY,80,1,2024-06-22T16:01:35.419Z,english_942.wav,0,peel,331,1,0.1,-96.45992778,0.962364
YAY,80,1,2024-06-22T16:01:35.419Z,english_942.wav,0,peel,331,2,0.2,50.93322043,0.99280793
YAY,80,1,2024-06-22T16:01:35.419Z,english_942.wav,0,peel,331,3,0.3,14.6207779,1.92237923
YAY,80,1,2024-06-22T16:01:35.419Z,english_942.wav,0,peel,331,4,0.32341667,7.19296333,1.02094568
YAY,81,1,2024-06-22T16:01:35.419Z,english_529.wav,0,pill,450,0,0.0,13.90759343,0.83001961
YAY,81,1,2024-06-22T16:01:35.419Z,english_529.wav,0,pill,450,1,0.1,-33.526088,0.02518437
YAY,81,1,2024-06-22T16:01:35.419Z,english_529.wav,0,pill,450,2,0.2,-34.32120589,1.61112877
YAY,81,1,2024-06-22T16:01:35.419Z,english_529.wav,0,pill,450,3,0.3,-18.30112723,0.91948239
YAY,81,1,2024-06-22T16:01:35.419Z,english_529.wav,0,pill,450,4,0.32341667,16.4796061,0.33204613
YAY,82,1,2024-06-22T16:01:35.419Z,english_614.wav,0,peel,228,0,0.0,78.57791509,1.76663636
YAY,82,1,2024-06-22T16:01:35.419Z,english_614.wav,0,peel,228,1,0.1,-6.15631212,0.7337869
YAY,82,1,2024-06-22T16:01:35.419Z,english_614.wav,0,peel,228,2,0.2,-15.34092719,1.62880485
YAY,82,1,2024-06-22T16:01:35.419Z,english_614.wav,0,peel,228,3,0.3,21.91351344,0.61213133
YAY,82,1,2024-06-22T16:01:35.419Z,english_614.wav,0,peel,228,4,0.32341667,-10.50820757,0.41097232
YAY,83,1,2024-06-22T16:01:35.419Z,english_430.wav,0,peel,953,0,0.0,72.23510535,0.8682214
YAY,83,1,2024-06-22T16:01:35.419Z,english_430.wav,0,peel,953,1,0.1,-9.56156918,0.26781202
YAY,83,1,2024-06-22T16:01:35.419Z,english_430.wav,0,peel,953,2,0.2,36.71559936,1.38873793
YAY,83,1,2024-06-22T16:01:35.419Z,english_430.wav,0,peel,953,3,0.3,-33.55254317,0.29076709
YAY,83,1,2024-06-22T16:01:35.419Z,english_430.wav,0,peel,953,4,0.32341667,-25.71861109,0.30869259
YAY,84,1,2024-06-22T16:01:35.419Z,english_480.wav,0,pill,420,0,0.0,-9.10453384,0.61491247
YAY,84,1,2024-06-22T16:01:35.419Z,english_480.wav,0,pill,420,1,0.1,72.09708103,1.35502449
YAY,84,1,2024-06-22T16:01:35.419Z,english_480.wav,0,pill,420,2,0.2,-73.7181862,0.28674933
YAY,84,1,2024-06-22T16:01:35.419Z,english_480.wav,0,pill,420,3,0.3,18.73451671,0.14653082
YAY,84,1,2024-06-22T16:01:35.419Z,english_480.wav,0,pill,420,4,0.32341667,83.35837597,1.34653786
YAY,85,1,2024-06-22T16:01:35.419Z,english_326.wav,0,peel,449,0,0.0,-13.70476372,1.64570887
YAY,85,1,2024-06-22T16:01:35.419Z,english_326.wav,0,peel,449,1,0.1,47.7156259,0.91266102
YAY,85,1,2024-06-22T16:01:35.419Z,english_326.wav,0,peel,449,2,0.2,23.24839736,0.36997562
YAY,85,1,2024-06-22T16:01:35.419Z,english_326.wav,0,peel,449,3,0.3,67.08212267,1.96258237
YAY,85,1,2024-06-22T16:01:35.419Z,english_326.wav,0,peel,449,4,0.32341667,78.79356023,1.01334204
YAY,86,1,2024-06-22T16:01:35.419Z,english_969.wav,0,pill,487,0,0.0,0.27440165,1.49550116
YAY,86,1,2024-06-22T16:01:35.419Z,english_969.wav,0,pill,487,1,0.1,32.90941676,1.08086357
YAY,86,1,2024-06-22T16:01:35.419Z,english_969.wav,0,pill,487,2,0.2,65.54691775,0.25687245
YAY,86,1,2024-06-22T16:01:35.419Z,english_969.wav,0,pill,487,3,0.3,38.11090315,0.33107225
YAY,86,1,2024-06-22T16:01:35.419Z,english_969.wav,0,pill,487,4,0.32341667,-66.49311905,0.72842933
YAY,87,1,2024-06-22T16:01:35.419Z,english_13.wav,0,peel,415,0,0.0,85.79405153,0.93145275
YAY,87,1,2024-06-22T16:01:35.419Z,english_13.wav,0,peel,415,1,0.1,-22.00296346,0.69811424
YAY,87,1,2024-06-22T16:01:35.419Z,english_13.wav,0,peel,415,2,0.2,45.89988476,1.08090206
YAY,87,1,2024-06-22T16:01:35.419Z,english_13.wav,0,peel,415,3,0.3,-17.47250281,0.35305012
YAY,87,1,2024-06-22T16:01:35.419Z,english_13.wav,0,peel,415,4,0.32341667,-30.34546067,0.65915907
YAY,88,1,2024-06-22T16:01:35.419Z,english_551.wav,0,peel,521,0,0.0,51.69986033,0.0331047
YAY,88,1,2024-06-22T16:01:35.419Z,english_551.wav,0,peel,521,1,0.1,-91.31948841,0.51079487
YAY,88,1,2024-06-22T16:01:35.419Z,english_551.wav,0,peel,521,2,0.2,12.24586311,1.83581854
YAY,88,1,2024-06-22T16:01:35.419Z,english_551.wav,0,peel,521,3,0.3,-52.90680215,0.12201236
YAY,88,1,2024-06-22T16:01:35.419Z,english_551.wav,0,peel,521,4,0.32341667,-27.23325687,1.55189277
YAY,89,1,2024-06-22T16:01:35.419Z,english_97.wav,0,peel,123,0,0.0,57.21139396,1.63402743
YAY,89,1,2024-06-22T16:01:35.419Z,english_97.wav,0,peel,123,1,0.1,-7.40408397,0.54734888
YAY,89,1,2024-06-22T16:01:35.419Z,english_97.wav,0,peel,123,2,0.2,77.7995227,1.5228594
YAY,89,1,2024-06-22T16:01:35.419Z,english_97.wav,0,peel,123,3,0.3,-51.1747528,1.13050105
YAY,89,1,2024-06-22T16:01:35.419Z,english_97.wav,0,peel,123,4,0.32341667,77.11982253,0.82586999
YAY,90,1,2024-06-22T16:01:35.419Z,english_110.wav,0,peel,45,0,0.0,87.43016285,1.84693198
YAY,90,1,2024-06-22T16:01:35.419Z,english_110.wav,0,peel,45,1,0.1,-22.53798338,0.72868036
YAY,90,1,2024-06-22T16:01:35.419Z,english_110.wav,0,peel,45,2,0.2,60.38266123,1.6889543
YAY,90,1,2024-06-22T16:01:35.419Z,english_110.wav,0,peel,45,3,0.3,50.75224473,0.97311446
YAY,90,1,2024-06-22T16:01:35.419Z,english_110.wav,0,peel,45,4,0.32341667,87.78495288,0.46157718
YAY,91,1,2024-06-22T16:01:35.419Z,english_494.wav,0,peel,117,0,0.0,-3.60210196,0.0,0.92014098
YAY,91,1,2024-06-22T16:01:35.419Z,english_494.wav,0,peel,117,1,0.1,-0.0120609558,0.1,1.08763174
YAY,91,1,2024-06-22T16:01:35.419Z,english_494.wav,0,peel,117,2,0.2,-75.2550513,0.2,0.29239621
YAY,91,1,2024-06-22T16:01:35.419Z,english_494.wav,0,peel,117,3,0.3,39.6800445,0.3,0.26357805
YAY,91,1,2024-06-22T16:01:35.419Z,english_494.wav,0,peel,117,4,0.323416667,78.1977592,0.32341667,1.67878037
YAY,92,1,2024-06-22T16:01:35.419Z,english_547.wav,0,peel,186,0,0.0,30.48969685,1.04682874
YAY,92,1,2024-06-22T16:01:35.419Z,english_547.wav,0,peel,186,1,0.1,-38.27442703,0.75017858
YAY,92,1,2024-06-22T16:01:35.419Z,english_547.wav,0,peel,186,2,0.2,29.58442849,0.7996645
YAY,92,1,2024-06-22T16:01:35.419Z,english_547.wav,0,peel,186,3,0.3,-4.27268154,1.92102789
YAY,92,1,2024-06-22T16:01:35.419Z,english_547.wav,0,peel,186,4,0.32341667,58.02076364,1.77056707
YAY,93,1,2024-06-22T16:01:35.419Z,english_245.wav,0,peel,582,0,0.0,74.89239003,1.30710747
YAY,93,1,2024-06-22T16:01:35.419Z,english_245.wav,0,peel,582,1,0.1,41.98679172,0.93119149
YAY,93,1,2024-06-22T16:01:35.419Z,english_245.wav,0,peel,582,2,0.2,99.42105985,1.84379828
YAY,93,1,2024-06-22T16:01:35.419Z,english_245.wav,0,peel,582,3,0.3,-75.11958538,1.72828743
YAY,93,1,2024-06-22T16:01:35.419Z,english_245.wav,0,peel,582,4,0.32341667,-62.10664415,0.50124118
YAY,94,1,2024-06-22T16:01:35.419Z,english_482.wav,0,peel,181,0,0.0,-75.58658814,1.00366747
YAY,94,1,2024-06-22T16:01:35.419Z,english_482.wav,0,peel,181,1,0.1,-97.88900999,1.47597923
YAY,94,1,2024-06-22T16:01:35.419Z,english_482.wav,0,peel,181,2,0.2,-4.46161317,1.10854794
YAY,94,1,2024-06-22T16:01:35.419Z,english_482.wav,0,peel,181,3,0.3,31.34799552,1.07348452
YAY,94,1,2024-06-22T16:01:35.419Z,english_482.wav,0,peel,181,4,0.32341667,-51.80510351,0.67390339
YAY,95,1,2024-06-22T16:01:35.419Z,english_637.wav,0,peel,529,0,0.0,-1.71458324,1.21739028
YAY,95,1,2024-06-22T16:01:35.419Z,english_637.wav,0,peel,529,1,0.1,-8.03758275,0.51882016
YAY,95,1,2024-06-22T16:01:35.419Z,english_637.wav,0,peel,529,2,0.2,-8.49550443,1.63519413
YAY,95,1,2024-06-22T16:01:35.419Z,english_637.wav,0,peel,529,3,0.3,-8.27727969,1.34863813
YAY,95,1,2024-06-22T16:01:35.419Z,english_637.wav,0,peel,529,4,0.32341667,64.42471467,1.93003029
YAY,96,1,2024-06-22T16:01:35.419Z,english_493.wav,0,peel,359,0,0.0,42.62366846,0.72879325
YAY,96,1,2024-06-22T16:01:35.419Z,english_493.wav,0,peel,359,1,0.1,-24.95330968,1.87742997
YAY,96,1,2024-06-22T16:01:35.419Z,english_493.wav,0,peel,359,2,0.2,82.3526737,1.69463318
YAY,96,1,2024-06-22T16:01:35.419Z,english_493.wav,0,peel,359,3,0.3,53.78370402,0.82529142
YAY,96,1,2024-06-22T16:01:35.419Z,english_493.wav,0,peel,359,4,0.32341667,-52.5410085,0.10126548
YAY,97,1,2024-06-22T16:01:35.419Z,english_518.wav,0,peel,229,0,0.0,52.37511869,0.23824141
YAY,97,1,2024-06-22T16:01:35.419Z,english_518.wav,0,peel,229,1,0.1,-33.3490586,0.80559068
YAY,97,1,2024-06-22T16:01:35.419Z,english_518.wav,0,peel,229,2,0.2,-71.20035434,1.24725456
YAY,97,1,2024-06-22T16:01:35.419Z,english_518.wav,0,peel,229,3,0.3,6.23243823,1.01334401
YAY,97,1,2024-06-22T16:01:35.419Z,english_518.wav,0,peel,229,4,0.32341667,-29.48660546,1.51264586
YAY,98,1,2024-06-22T16:01:35.419Z,english_176.wav,0,pill,412,0,0.0,-62.84257592,0.68193044
YAY,98,1,2024-06-22T16:01:35.419Z,english_176.wav,0,pill,412,1,0.1,86.95506575,0.26950978
YAY,98,1,2024-06-22T16:01:35.419Z,english_176.wav,0,pill,412,2,0.2,-28.0397163,0.45294908
YAY,98,1,2024-06-22T16:01:35.419Z,english_176.wav,0,pill,412,3,0.3,-64.80124174,0.91353321
YAY,98,1,2024-06-22T16:01:35.419Z,english_176.wav,0,pill,412,4,0.32341667,-98.66046935,1.10925614
YAY,99,1,2024-06-22T16:01:35.419Z,english_170.wav,0,pill,536,0,0.0,6.45066022,1.58910722
YAY,99,1,2024-06-22T16:01:35.419Z,english_170.wav,0,pill,536,1,0.1,-4.11198278,0.3365331
YAY,99,1,2024-06-22T16:01:35.419Z,english_170.wav,0,pill,536,2,0.2,96.59136675,0.38643451
YAY,99,1,2024-06-22T16:01:35.419Z,english_170.wav,0,pill,536,3,0.3,21.57070742,1.58623933
YAY,99,1,2024-06-22T16:01:35.419Z,english_170.wav,0,pill,536,4,0.32341667,94.47980818,1.61968164
YAY,100,2,2024-06-22T16:01:35.419Z,english_742.wav,0,pill,413,0,0.0,12.62363586,1.26368295
YAY,100,2,2024-06-22T16:01:35.419Z,english_742.wav,0,pill,413,1,0.1,23.02085171,0.7448394
YAY,100,2,2024-06-22T16:01:35.419Z,english_742.wav,0,pill,413,2,0.2,23.36423086,0.05261082
YAY,100,2,2024-06-22T16:01:35.419Z,english_742.wav,0,pill,413,3,0.3,97.70614946,1.01748925
YAY,100,2,2024-06-22T16:01:35.419Z,english_742.wav,0,pill,413,4,0.32341667,-25.72861775,0.88645775
YAY,101,2,2024-06-22T16:01:35.419Z,english_825.wav,0,peel,531,0,0.0,9.96211161,0.17252736
YAY,101,2,2024-06-22T16:01:35.419Z,english_825.wav,0,peel,531,1,0.1,-28.44120521,0.52830291
YAY,101,2,2024-06-22T16:01:35.419Z,english_825.wav,0,peel,531,2,0.2,58.95311712,0.51646024
YAY,101,2,2024-06-22T16:01:35.419Z,english_825.wav,0,peel,531,3,0.3,-14.85414305,0.70859388
YAY,101,2,2024-06-22T16:01:35.419Z,english_825.wav,0,peel,531,4,0.32341667,85.14956963,0.64434305
YAY,102,2,2024-06-22T16:01:35.419Z,english_591.wav,0,pill,491,0,0.0,-17.23532002,0.16408748
YAY,102,2,2024-06-22T16:01:35.419Z,english_591.wav,0,pill,491,1,0.1,-55.20494434,0.21361432
YAY,102,2,2024-06-22T16:01:35.419Z,english_591.wav,0,pill,491,2,0.2,-36.65883109,0.19384467
YAY,102,2,2024-06-22T16:01:35.419Z,english_591.wav,0,pill,491,3,0.3,75.34514139,0.82850175
YAY,102,2,2024-06-22T16:01:35.419Z,english_591.wav,0,pill,491,4,0.32341667,31.2832342,1.471328
YAY,103,2,2024-06-22T16:01:35.419Z,english_203.wav,0,peel,817,0,0.0,-22.28277813,1.31475846
YAY,103,2,2024-06-22T16:01:35.419Z,english_203.wav,0,peel,817,1,0.1,13.21695477,1.08922412
YAY,103,2,2024-06-22T16:01:35.419Z,english_203.wav,0,peel,817,2,0.2,63.23651974,0.55450355
YAY,103,2,2024-06-22T16:01:35.419Z,english_203.wav,0,peel,817,3,0.3,-20.14830746,1.72034007
YAY,103,2,2024-06-22T16:01:35.419Z,english_203.wav,0,peel,817,4,0.32341667,-78.55276631,0.92481053
YAY,104,2,2024-06-22T16:01:35.419Z,english_510.wav,0,peel,433,0,0.0,-39.77235695,0.97080384
YAY,104,2,2024-06-22T16:01:35.419Z,english_510.wav,0,peel,433,1,0.1,-55.9025784,0.1022914
YAY,104,2,2024-06-22T16:01:35.419Z,english_510.wav,0,peel,433,2,0.2,42.12378864,1.56878682
YAY,104,2,2024-06-22T16:01:35.419Z,english_510.wav,0,peel,433,3,0.3,-5.9333084,1.19302163
YAY,104,2,2024-06-22T16:01:35.419Z,english_510.wav,0,peel,433,4,0.32341667,84.8199861,1.45606517
YAY,105,2,2024-06-22T16:01:35.419Z,english_209.wav,0,peel,86,0,0.0,14.15361396,1.44232267
YAY,105,2,2024-06-22T16:01:35.419Z,english_209.wav,0,peel,86,1,0.1,85.95109622,1.49291498
YAY,105,2,2024-06-22T16:01:35.419Z,english_209.wav,0,peel,86,2,0.2,18.04804687,1.19611731
YAY,105,2,2024-06-22T16:01:35.419Z,english_209.wav,0,peel,86,3,0.3,28.2522976,1.49647535
YAY,105,2,2024-06-22T16:01:35.419Z,english_209.wav,0,peel,86,4,0.32341667,5.36776296,0.30324849
YAY,106,2,2024-06-22T16:01:35.419Z,english_681.wav,0,peel,170,0,0.0,65.45313908,1.43173201
YAY,106,2,2024-06-22T16:01:35.419Z,english_681.wav,0,peel,170,1,0.1,23.22224239,1.64604346
YAY,106,2,2024-06-22T16:01:35.419Z,english_681.wav,0,peel,170,2,0.2,44.35096717,0.82186037
YAY,106,2,2024-06-22T16:01:35.419Z,english_681.wav,0,peel,170,3,0.3,67.45757963,0.26689352
YAY,106,2,2024-06-22T16:01:35.419Z,english_681.wav,0,peel,170,4,0.32341667,55.5822091,1.64490636
YAY,107,2,2024-06-22T16:01:35.419Z,english_148.wav,0,pill,462,0,0.0,-15.87588743,0.13468567
YAY,107,2,2024-06-22T16:01:35.419Z,english_148.wav,0,pill,462,1,0.1,66.05332506,1.11017862
YAY,107,2,2024-06-22T16:01:35.419Z,english_148.wav,0,pill,462,2,0.2,50.59551539,0.42983488
YAY,107,2,2024-06-22T16:01:35.419Z,english_148.wav,0,pill,462,3,0.3,-59.45276716,0.2729575
YAY,107,2,2024-06-22T16:01:35.419Z,english_148.wav,0,pill,462,4,0.32341667,58.4155276,0.65396017
YAY,108,2,2024-06-22T16:01:35.419Z,english_994.wav,0,peel,70,0,0.0,53.6083957,1.72152032
YAY,108,2,2024-06-22T16:01:35.419Z,english_994.wav,0,peel,70,1,0.1,62.5650281,0.97077126
YAY,108,2,2024-06-22T16:01:35.419Z,english_994.wav,0,peel,70,2,0.2,91.00734213,1.1154275
YAY,108,2,2024-06-22T16:01:35.419Z,english_994.wav,0,peel,70,3,0.3,-14.6853323,0.93534142
YAY,108,2,2024-06-22T16:01:35.419Z,english_994.wav,0,peel,70,4,0.32341667,42.94025292,1.51312842
YAY,109,2,2024-06-22T16:01:35.419Z,english_572.wav,0,peel,196,0,0.0,-16.16189062,1.82210005
YAY,109,2,2024-06-22T16:01:35.419Z,english_572.wav,0,peel,196,1,0.1,-40.8511413,0.80249033
YAY,109,2,2024-06-22T16:01:35.419Z,english_572.wav,0,peel,196,2,0.2,-77.3747243,0.69959732
YAY,109,2,2024-06-22T16:01:35.419Z,english_572.wav,0,peel,196,3,0.3,87.62803369,0.43311894
YAY,109,2,2024-06-22T16:01:35.419Z,english_572.wav,0,peel,196,4,0.32341667,81.6005998,1.25204325
YAY,110,2,2024-06-22T16:01:35.419Z,english_502.wav,0,peel,77,0,0.0,-23.73065935,0.0797034
YAY,110,2,2024-06-22T16:01:35.419Z,english_502.wav,0,peel,77,1,0.1,2.70754613,1.83600464
YAY,110,2,2024-06-22T16:01:35.419Z,english_502.wav,0,peel,77,2,0.2,25.650451,1.48948742
YAY,110,2,2024-06-22T16:01:35.419Z,english_502.wav,0,peel,77,3,0.3,-49.55254658,1.22465236
YAY,110,2,2024-06-22T16:01:35.419Z,english_502.wav,0,peel,77,4,0.32341667,16.82642172,1.41984075
YAY,111,2,2024-06-22T16:01:35.419Z,english_208.wav,0,peel,420,0,0.0,-16.36413188,1.19542909
YAY,111,2,2024-06-22T16:01:35.419Z,english_208.wav,0,peel,420,1,0.1,25.67725806,0.42717457
YAY,111,2,2024-06-22T16:01:35.419Z,english_208.wav,0,peel,420,2,0.2,15.43722313,1.01088833
YAY,111,2,2024-06-22T16:01:35.419Z,english_208.wav,0,peel,420,3,0.3,-39.3158007,1.09044814
YAY,111,2,2024-06-22T16:01:35.419Z,english_208.wav,0,peel,420,4,0.32341667,38.48956167,1.60091335
YAY,112,2,2024-06-22T16:01:35.419Z,english_950.wav,0,peel,139,0,0.0,-21.9776243,0.20752278
YAY,112,2,2024-06-22T16:01:35.419Z,english_950.wav,0,peel,139,1,0.1,-41.40023943,1.93939622
YAY,112,2,2024-06-22T16:01:35.419Z,english_950.wav,0,peel,139,2,0.2,48.01515584,1.55608343
YAY,112,2,2024-06-22T16:01:35.419Z,english_950.wav,0,peel,139,3,0.3,-87.95551252,1.49634866
YAY,112,2,2024-06-22T16:01:35.419Z,english_950.wav,0,peel,139,4,0.32341667,-39.5252386,0.91783384
YAY,113,2,2024-06-22T16:01:35.419Z,english_37.wav,0,peel,837,0,0.0,-5.54999706,1.12257854
YAY,113,2,2024-06-22T16:01:35.419Z,english_37.wav,0,peel,837,1,0.1,23.22206304,1.8669628
YAY,113,2,2024-06-22T16:01:35.419Z,english_37.wav,0,peel,837,2,0.2,-57.36481589,0.39386712
YAY,113,2,2024-06-22T16:01:35.419Z,english_37.wav,0,peel,837,3,0.3,58.0578648,1.21765674
YAY,113,2,2024-06-22T16:01:35.419Z,english_37.wav,0,peel,837,4,0.32341667,66.03280024,0.74428952
YAY,114,2,2024-06-22T16:01:35.419Z,english_736.wav,0,peel,372,0,0.0,44.94907169,1.40223879
YAY,114,2,2024-06-22T16:01:35.419Z,english_736.wav,0,peel,372,1,0.1,-89.05982676,1.76358699
YAY,114,2,2024-06-22T16:01:35.419Z,english_736.wav,0,peel,372,2,0.2,27.88925208,0.99111008
YAY,114,2,2024-06-22T16:01:35.419Z,english_736.wav,0,peel,372,3,0.3,77.01163693,1.90426439
YAY,114,2,2024-06-22T16:01:35.419Z,english_736.wav,0,peel,372,4,0.32341667,-28.23601136,1.97036362
YAY,115,2,2024-06-22T16:01:35.419Z,english_691.wav,0,pill,406,0,0.0,28.79078449,1.07683297
YAY,115,2,2024-06-22T16:01:35.419Z,english_691.wav,0,pill,406,1,0.1,99.1184909,1.07376069
YAY,115,2,2024-06-22T16:01:35.419Z,english_691.wav,0,pill,406,2,0.2,-54.13985733,0.28522735
YAY,115,2,2024-06-22T16:01:35.419Z,english_691.wav,0,pill,406,3,0.3,-85.36319246,0.85701066
YAY,115,2,2024-06-22T16:01:35.419Z,english_691.wav,0,pill,406,4,0.32341667,-73.61621094,1.71165398
YAY,116,2,2024-06-22T16:01:35.419Z,english_92.wav,0,peel,187,0,0.0,31.88505953,1.50112375
YAY,116,2,2024-06-22T16:01:35.419Z,english_92.wav,0,peel,187,1,0.1,-5.62534355,0.35596674
YAY,116,2,2024-06-22T16:01:35.419Z,english_92.wav,0,peel,187,2,0.2,-66.19250112,1.12270031
YAY,116,2,2024-06-22T16:01:35.419Z,english_92.wav,0,peel,187,3,0.3,-77.62644198,1.09837269
YAY,116,2,2024-06-22T16:01:35.419Z,english_92.wav,0,peel,187,4,0.32341667,-66.61656061,1.16274455
YAY,117,2,2024-06-22T16:01:35.419Z,english_517.wav,0,peel,324,0,0.0,11.23661905,0.76208972
YAY,117,2,2024-06-22T16:01:35.419Z,english_517.wav,0,peel,324,1,0.1,58.81241605,0.18193562
YAY,117,2,2024-06-22T16:01:35.419Z,english_517.wav,0,peel,324,2,0.2,38.38790279,1.85963831
YAY,117,2,2024-06-22T16:01:35.419Z,english_517.wav,0,peel,324,3,0.3,-74.61462092,0.20223028
YAY,117,2,2024-06-22T16:01:35.419Z,english_517.wav,0,peel,324,4,0.32341667,-36.69086471,1.46287498
YAY,118,2,2024-06-22T16:01:35.419Z,english_83.wav,0,peel,174,0,0.0,98.86804112,0.82381457
YAY,118,2,2024-06-22T16:01:35.419Z,english_83.wav,0,peel,174,1,0.1,-37.42051535,1.26275754
YAY,118,2,2024-06-22T16:01:35.419Z,english_83.wav,0,peel,174,2,0.2,23.85234946,0.74836396
YAY,118,2,2024-06-22T16:01:35.419Z,english_83.wav,0,peel,174,3,0.3,28.05435803,0.41584898
YAY,118,2,2024-06-22T16:01:35.419Z,english_83.wav,0,peel,174,4,0.32341667,2.44147447,1.88336536
YAY,119,2,2024-06-22T16:01:35.419Z,english_132.wav,0,peel,289,0,0.0,-72.51222148,1.10010631
YAY,119,2,2024-06-22T16:01:35.419Z,english_132.wav,0,peel,289,1,0.1,-7.68798614,1.14985521
YAY,119,2,2024-06-22T16:01:35.419Z,english_132.wav,0,peel,289,2,0.2,-26.80347179,1.49426164
YAY,119,2,2024-06-22T16:01:35.419Z,english_132.wav,0,peel,289,3,0.3,-51.62992771,1.25622472
YAY,119,2,2024-06-22T16:01:35.419Z,english_132.wav,0,peel,289,4,0.32341667,-1.85745595,0.89976888
YAY,120,2,2024-06-22T16:01:35.419Z,english_350.wav,0,pill,303,0,0.0,97.64268741,0.61487918
YAY,120,2,2024-06-22T16:01:35.419Z,english_350.wav,0,pill,303,1,0.1,23.96704837,0.40988424
YAY,120,2,2024-06-22T16:01:35.419Z,english_350.wav,0,pill,303,2,0.2,50.30792237,0.86872158
YAY,120,2,2024-06-22T16:01:35.419Z,english_350.wav,0,pill,303,3,0.3,71.77937185,1.01783109
YAY,120,2,2024-06-22T16:01:35.419Z,english_350.wav,0,pill,303,4,0.32341667,-64.81416361,0.68761283
YAY,121,2,2024-06-22T16:01:35.419Z,english_189.wav,0,pill,416,0,0.0,-22.70456848,0.82906961
YAY,121,2,2024-06-22T16:01:35.419Z,english_189.wav,0,pill,416,1,0.1,-12.00888723,0.58408113
YAY,121,2,2024-06-22T16:01:35.419Z,english_189.wav,0,pill,416,2,0.2,15.14046376,0.19058783
YAY,121,2,2024-06-22T16:01:35.419Z,english_189.wav,0,pill,416,3,0.3,-19.30106293,0.57788611
YAY,121,2,2024-06-22T16:01:35.419Z,english_189.wav,0,pill,416,4,0.32341667,-20.57313834,0.32577637
YAY,122,2,2024-06-22T16:01:35.419Z,english_61.wav,0,peel,84,0,0.0,-58.73450167,1.5196582
YAY,122,2,2024-06-22T16:01:35.419Z,english_61.wav,0,peel,84,1,0.1,-68.77732169,0.79346499
YAY,122,2,2024-06-22T16:01:35.419Z,english_61.wav,0,peel,84,2,0.2,-61.07430116,0.90548432
YAY,122,2,2024-06-22T16:01:35.419Z,english_61.wav,0,peel,84,3,0.3,-87.12791991,1.71431728
YAY,122,2,2024-06-22T16:01:35.419Z,english_61.wav,0,peel,84,4,0.32341667,47.32358741,0.57778581
YAY,123,2,2024-06-22T16:01:35.419Z,english_252.wav,0,peel,337,0,0.0,79.75601627,0.77799761
YAY,123,2,2024-06-22T16:01:35.419Z,english_252.wav,0,peel,337,1,0.1,17.00183399,1.07711339
YAY,123,2,2024-06-22T16:01:35.419Z,english_252.wav,0,peel,337,2,0.2,-25.42800597,0.7917181
YAY,123,2,2024-06-22T16:01:35.419Z,english_252.wav,0,peel,337,3,0.3,-47.65138194,1.47632881
YAY,123,2,2024-06-22T16:01:35.419Z,english_252.wav,0,peel,337,4,0.32341667,35.10652067,1.65919103
YAY,124,2,2024-06-22T16:01:35.419Z,english_727.wav,0,peel,130,0,0.0,86.20347479,1.33530257
YAY,124,2,2024-06-22T16:01:35.419Z,english_727.wav,0,peel,130,1,0.1,12.26210304,1.85547333
YAY,124,2,2024-06-22T16:01:35.419Z,english_727.wav,0,peel,130,2,0.2,5.59218777,1.19683436
YAY,124,2,2024-06-22T16:01:35.419Z,english_727.wav,0,peel,130,3,0.3,-46.39280156,1.89207751
YAY,124,2,2024-06-22T16:01:35.419Z,english_727.wav,0,peel,130,4,0.32341667,21.79775503,1.05019022
YAY,125,2,2024-06-22T16:01:35.419Z,english_830.wav,0,peel,242,0,0.0,2.63258607,0.89301132
YAY,125,2,2024-06-22T16:01:35.419Z,english_830.wav,0,peel,242,1,0.1,-31.8387274,1.32560067
YAY,125,2,2024-06-22T16:01:35.419Z,english_830.wav,0,peel,242,2,0.2,-6.78563658,1.08718884
YAY,125,2,2024-06-22T16:01:35.419Z,english_830.wav,0,peel,242,3,0.3,-57.52390495,0.53430446
YAY,125,2,2024-06-22T16:01:35.419Z,english_830.wav,0,peel,242,4,0.32341667,51.13575953,0.53816607
YAY,126,2,2024-06-22T16:01:35.419Z,english_368.wav,0,peel,134,0,0.0,-25.00542805,1.03431482
YAY,126,2,2024-06-22T16:01:35.419Z,english_368.wav,0,peel,134,1,0.1,-48.20991773,0.92366821
YAY,126,2,2024-06-22T16:01:35.419Z,english_368.wav,0,peel,134,2,0.2,-51.83604218,0.34019883
YAY,126,2,2024-06-22T16:01:35.419Z,english_368.wav,0,peel,134,3,0.3,14.57062672,1.21184807
YAY,126,2,2024-06-22T16:01:35.419Z,english_368.wav,0,peel,134,4,0.32341667,-26.77020505,0.81530657
YAY,127,2,2024-06-22T16:01:35.419Z,english_810.wav,0,peel,58,0,0.0,44.6757801,0.0,0.77700382
YAY,127,2,2024-06-22T16:01:35.419Z,english_810.wav,0,peel,58,1,0.1,-98.4252216,0.1,1.25917073
YAY,127,2,2024-06-22T16:01:35.419Z,english_810.wav,0,peel,58,2,0.2,55.4106213,0.2,0.78203472
YAY,127,2,2024-06-22T16:01:35.419Z,english_810.wav,0,peel,58,3,0.3,-18.4676839,0.3,1.13021068
YAY,127,2,2024-06-22T16:01:35.419Z,english_810.wav,0,peel,58,4,0.323416667,0.0259169543,0.32341667,0.14578676
YAY,128,2,2024-06-22T16:01:35.419Z,english_895.wav,0,peel,175,0,0.0,-36.05432491,1.57991636
YAY,128,2,2024-06-22T16:01:35.419Z,english_895.wav,0,peel,175,1,0.1,0.27991529,1.29141926
YAY,128,2,2024-06-22T16:01:35.419Z,english_895.wav,0,peel,175,2,0.2,-68.50060493,0.78617821
YAY,128,2,2024-06-22T16:01:35.419Z,english_895.wav,0,peel,175,3,0.3,-65.34452755,0.53071912
YAY,128,2,2024-06-22T16:01:35.419Z,english_895.wav,0,peel,175,4,0.32341667,44.30205494,1.44568828
YAY,129,2,2024-06-22T16:01:35.419Z,english_573.wav,0,peel,145,0,0.0,-46.41950257,0.98293374
YAY,129,2,2024-06-22T16:01:35.419Z,english_573.wav,0,peel,145,1,0.1,-92.58424164,0.99885906
YAY,129,2,2024-06-22T16:01:35.419Z,english_573.wav,0,peel,145,2,0.2,21.8123883,0.65769494
YAY,129,2,2024-06-22T16:01:35.419Z,english_573.wav,0,peel,145,3,0.3,16.48756951,0.46238493
YAY,129,2,2024-06-22T16:01:35.419Z,english_573.wav,0,peel,145,4,0.32341667,-54.36863361,0.72259175
YAY,130,2,2024-06-22T16:01:35.419Z,english_239.wav,0,peel,142,0,0.0,87.44943986,1.42022081
YAY,130,2,2024-06-22T16:01:35.419Z,english_239.wav,0,peel,142,1,0.1,50.09814929,0.64261102
YAY,130,2,2024-06-22T16:01:35.419Z,english_239.wav,0,peel,142,2,0.2,-20.91132269,0.17156284
YAY,130,2,2024-06-22T16:01:35.419Z,english_239.wav,0,peel,142,3,0.3,1.56869958,1.89365974
YAY,130,2,2024-06-22T16:01:35.419Z,english_239.wav,0,peel,142,4,0.32341667,15.23790706,1.86939691
YAY,131,2,2024-06-22T16:01:35.419Z,english_217.wav,0,peel,361,0,0.0,-87.44045162,1.20965721
YAY,131,2,2024-06-22T16:01:35.419Z,english_217.wav,0,peel,361,1,0.1,26.67222095,0.05295089
YAY,131,2,2024-06-22T16:01:35.419Z,english_217.wav,0,peel,361,2,0.2,97.90977363,1.23557872
YAY,131,2,2024-06-22T16:01:35.419Z,english_217.wav,0,peel,361,3,0.3,4.49718441,1.80752812
YAY,131,2,2024-06-22T16:01:35.419Z,english_217.wav,0,peel,361,4,0.32341667,13.31384309,1.57586313
YAY,132,2,2024-06-22T16:01:35.419Z,english_434.wav,0,peel,303,0,0.0,-4.12787863,0.96421208
YAY,132,2,2024-06-22T16:01:35.419Z,english_434.wav,0,peel,303,1,0.1,-30.19441281,1.08561731
YAY,132,2,2024-06-22T16:01:35.419Z,english_434.wav,0,peel,303,2,0.2,41.04377471,1.46356301
YAY,132,2,2024-06-22T16:01:35.419Z,english_434.wav,0,peel,303,3,0.3,-32.43591961,0.25116585
YAY,132,2,2024-06-22T16:01:35.419Z,english_434.wav,0,peel,303,4,0.32341667,61.53108406,0.73120458
YAY,133,2,2024-06-22T16:01:35.419Z,english_768.wav,0,pill,390,0,0.0,-28.93145359,1.5002074
YAY,133,2,2024-06-22T16:01:35.419Z,english_768.wav,0,pill,390,1,0.1,59.49166151,1.15432208
YAY,133,2,2024-06-22T16:01:35.419Z,english_768.wav,0,pill,390,2,0.2,41.87955621,0.01731471
YAY,133,2,2024-06-22T16:01:35.419Z,english_768.wav,0,pill,390,3,0.3,-92.17589111,0.98337229
YAY,133,2,2024-06-22T16:01:35.419Z,english_768.wav,0,pill,390,4,0.32341667,15.2364545,0.4381055
YAY,134,2,2024-06-22T16:01:35.419Z,english_139.wav,0,pill,3,0,0.0,55.35526281,1.40478417
YAY,134,2,2024-06-22T16:01:35.419Z,english_139.wav,0,pill,3,1,0.1,-66.48550036,1.12007301
YAY,134,2,2024-06-22T16:01:35.419Z,english_139.wav,0,pill,3,2,0.2,21.45340352,1.58559909
YAY,134,2,2024-06-22T16:01:35.419Z,english_139.wav,0,pill,3,3,0.3,-32.80413748,1.13081383
YAY,134,2,2024-06-22T16:01:35.419Z,english_139.wav,0,pill,3,4,0.32341667,-77.32206638,0.38560717
YAY,135,2,2024-06-22T16:01:35.419Z,english_705.wav,0,peel,778,0,0.0,3.76426423,0.9500377
YAY,135,2,2024-06-22T16:01:35.419Z,english_705.wav,0,peel,778,1,0.1,90.96696755,0.74173997
YAY,135,2,2024-06-22T16:01:35.419Z,english_705.wav,0,peel,778,2,0.2,-32.86898574,1.78776637
YAY,135,2,2024-06-22T16:01:35.419Z,english_705.wav,0,peel,778,3,0.3,-21.12550784,0.8178788
YAY,135,2,2024-06-22T16:01:35.419Z,english_705.wav,0,peel,778,4,0.32341667,39.74077299,1.54913024
YAY,136,2,2024-06-22T16:01:35.419Z,english_640.wav,0,pill,552,0,0.0,74.95875769,1.81273707
YAY,136,2,2024-06-22T16:01:35.419Z,english_640.wav,0,pill,552,1,0.1,87.73764633,1.50076703
YAY,136,2,2024-06-22T16:01:35.419Z,english_640.wav,0,pill,552,2,0.2,-71.36544648,0.25286143
YAY,136,2,2024-06-22T16:01:35.419Z,english_640.wav,0,pill,552,3,0.3,11.07583082,0.53181051
YAY,136,2,2024-06-22T16:01:35.419Z,english_640.wav,0,pill,552,4,0.32341667,18.32643638,0.76351343
YAY,137,2,2024-06-22T16:01:35.419Z,english_290.wav,0,peel,253,0,0.0,73.71968657,0.30552726
YAY,137,2,2024-06-22T16:01:35.419Z,english_290.wav,0,peel,253,1,0.1,-59.85317413,1.31636279
YAY,137,2,2024-06-22T16:01:35.419Z,english_290.wav,0,peel,253,2,0.2,71.1426587,0.54925413
YAY,137,2,2024-06-22T16:01:35.419Z,english_290.wav,0,peel,253,3,0.3,-18.50007061,1.26204455
YAY,137,2,2024-06-22T16:01:35.419Z,english_290.wav,0,peel,253,4,0.32341667,-65.91143137,0.60528556
YAY,138,2,2024-06-22T16:01:35.419Z,english_558.wav,0,peel,273,0,0.0,-73.38624366,1.58797859
YAY,138,2,2024-06-22T16:01:35.419Z,english_558.wav,0,peel,273,1,0.1,-42.42633216,1.10525313
YAY,138,2,2024-06-22T16:01:35.419Z,english_558.wav,0,peel,273,2,0.2,15.99713578,0.42598769
YAY,138,2,2024-06-22T16:01:35.419Z,english_558.wav,0,peel,273,3,0.3,-33.12568725,0.25629603
YAY,138,2,2024-06-22T16:01:35.419Z,english_558.wav,0,peel,273,4,0.32341667,44.00446366,1.81995896
YAY,139,2,2024-06-22T16:01:35.419Z,english_918.wav,0,peel,225,0,0.0,-64.11083249,1.38668504
YAY,139,2,2024-06-22T16:01:35.419Z,english_918.wav,0,peel,225,1,0.1,75.84330997,1.4522357
YAY,139,2,2024-06-22T16:01:35.419Z,english_918.wav,0,peel,225,2,0.2,-30.10314186,1.37046734
YAY,139,2,2024-06-22T16:01:35.419Z,english_918.wav,0,peel,225,3,0.3,91.40385877,0.70209545
YAY,139,2,2024-06-22T16:01:35.419Z,english_918.wav,0,peel,225,4,0.32341667,-14.12068895,0.09881605
YAY,140,2,2024-06-22T16:01:35.419Z,english_23.wav,0,peel,159,0,0.0,-50.80982819,0.58244855
YAY,140,2,2024-06-22T16:01:35.419Z,english_23.wav,0,peel,159,1,0.1,76.10516215,1.77510268
YAY,140,2,2024-06-22T16:01:35.419Z,english_23.wav,0,peel,159,2,0.2,-90.32463898,0.60847707
YAY,140,2,2024-06-22T16:01:35.419Z,english_23.wav,0,peel,159,3,0.3,15.76928166,0.62114149
YAY,140,2,2024-06-22T16:01:35.419Z,english_23.wav,0,peel,159,4,0.32341667,-7.56392806,1.60162938
YAY,141,2,2024-06-22T16:01:35.419Z,english_433.wav,0,peel,185,0,0.0,-74.58178472,0.69852952
YAY,141,2,2024-06-22T16:01:35.419Z,english_433.wav,0,peel,185,1,0.1,-50.00917691,1.92405883
YAY,141,2,2024-06-22T16:01:35.419Z,english_433.wav,0,peel,185,2,0.2,48.18572343,0.3905825
YAY,141,2,2024-06-22T16:01:35.419Z,english_433.wav,0,peel,185,3,0.3,-63.95387597,0.31453116
YAY,141,2,2024-06-22T16:01:35.419Z,english_433.wav,0,peel,185,4,0.32341667,-68.91859183,1.4953114
YAY,142,2,2024-06-22T16:01:35.419Z,english_958.wav,0,peel,563,0,0.0,17.32592779,0.33109802
YAY,142,2,2024-06-22T16:01:35.419Z,english_958.wav,0,peel,563,1,0.1,89.03376041,1.83345348
YAY,142,2,2024-06-22T16:01:35.419Z,english_958.wav,0,peel,563,2,0.2,-24.89219777,1.95859429
YAY,142,2,2024-06-22T16:01:35.419Z,english_958.wav,0,peel,563,3,0.3,-92.10798137,1.50296341
YAY,142,2,2024-06-22T16:01:35.419Z,english_958.wav,0,peel,563,4,0.32341667,3.27828718,0.1474067
YAY,143,2,2024-06-22T16:01:35.419Z,english_824.wav,0,peel,123,0,0.0,80.46503136,1.43025592
YAY,143,2,2024-06-22T16:01:35.419Z,english_824.wav,0,peel,123,1,0.1,-48.668347,0.89138167
YAY,143,2,2024-06-22T16:01:35.419Z,english_824.wav,0,peel,123,2,0.2,37.27765876,1.91281619
YAY,143,2,2024-06-22T16:01:35.419Z,english_824.wav,0,peel,123,3,0.3,-91.29945309,0.71335031
YAY,143,2,2024-06-22T16:01:35.419Z,english_824.wav,0,peel,123,4,0.32341667,14.46507007,0.89780818
YAY,144,2,2024-06-22T16:01:35.419Z,english_318.wav,0,pill,573,0,0.0,40.16064427,0.11467793
YAY,144,2,2024-06-22T16:01:35.419Z,english_318.wav,0,pill,573,1,0.1,-52.58874178,0.6224104
YAY,144,2,2024-06-22T16:01:35.419Z,english_318.wav,0,pill,573,2,0.2,46.7653316,0.05328619
YAY,144,2,2024-06-22T16:01:35.419Z,english_318.wav,0,pill,573,3,0.3,-41.44559589,0.01138238
YAY,144,2,2024-06-22T16:01:35.419Z,english_318.wav,0,pill,573,4,0.32341667,-2.50443948,1.16020285
YAY,145,2,2024-06-22T16:01:35.419Z,english_779.wav,0,peel,655,0,0.0,-66.48303018,1.22216448
YAY,145,2,2024-06-22T16:01:35.419Z,english_779.wav,0,peel,655,1,0.1,55.33592885,1.30288261
YAY,145,2,2024-06-22T16:01:35.419Z,english_779.wav,0,peel,655,2,0.2,67.38671669,0.25409759
YAY,145,2,2024-06-22T16:01:35.419Z,english_779.wav,0,peel,655,3,0.3,65.49052189,1.76174581
YAY,145,2,2024-06-22T16:01:35.419Z,english_779.wav,0,peel,655,4,0.32341667,-12.12955258,0.12280057
YAY,146,2,2024-06-22T16:01:35.419Z,english_53.wav,0,pill,411,0,0.0,5.97237457,0.42230306
YAY,146,2,2024-06-22T16:01:35.419Z,english_53.wav,0,pill,411,1,0.1,-76.12131912,0.60624646
YAY,146,2,2024-06-22T16:01:35.419Z,english_53.wav,0,pill,411,2,0.2,55.18337216,0.26369256
YAY,146,2,2024-06-22T16:01:35.419Z,english_53.wav,0,pill,411,3,0.3,70.32610425,1.07400525
YAY,146,2,2024-06-22T16:01:35.419Z,english_53.wav,0,pill,411,4,0.32341667,26.40450832,0.2721545
YAY,147,2,2024-06-22T16:01:35.419Z,english_210.wav,0,peel,330,0,0.0,43.03172008,0.27268056
YAY,147,2,2024-06-22T16:01:35.419Z,english_210.wav,0,peel,330,1,0.1,58.48529179,0.59270989
YAY,147,2,2024-06-22T16:01:35.419Z,english_210.wav,0,peel,330,2,0.2,57.29337371,1.57355776
YAY,147,2,2024-06-22T16:01:35.419Z,english_210.wav,0,peel,330,3,0.3,-45.34642936,1.97663548
YAY,147,2,2024-06-22T16:01:35.419Z,english_210.wav,0,peel,330,4,0.32341667,-3.49486879,1.39997912
YAY,148,2,2024-06-22T16:01:35.419Z,english_486.wav,0,peel,535,0,0.0,31.41997184,1.22599644
YAY,148,2,2024-06-22T16:01:35.419Z,english_486.wav,0,peel,535,1,0.1,58.03480486,1.4547445
YAY,148,2,2024-06-22T16:01:35.419Z,english_486.wav,0,peel,535,2,0.2,-62.84801238,0.27967606
YAY,148,2,2024-06-22T16:01:35.419Z,english_486.wav,0,peel,535,3,0.3,10.62451678,0.02065399
YAY,148,2,2024-06-22T16:01:35.419Z,english_486.wav,0,peel,535,4,0.32341667,10.31835057,0.3128479
YAY,149,2,2024-06-22T16:01:35.419Z,english_428.wav,0,peel,404,0,0.0,-98.34466569,1.83106884
YAY,149,2,2024-06-22T16:01:35.419Z,english_428.wav,0,peel,404,1,0.1,-10.51162175,1.34345266
YAY,149,2,2024-06-22T16:01:35.419Z,english_428.wav,0,peel,404,2,0.2,97.93427859,0.65853672
YAY,149,2,2024-06-22T16:01:35.419Z,english_428.wav,0,peel,404,3,0.3,35.61870537,1.28105878
YAY,149,2,2024-06-22T16:01:35.419Z,english_428.wav,0,peel,404,4,0.32341667,-12.49352836,0.15324236
YAY,150,3,2024-06-22T16:01:35.419Z,english_899.wav,0,pill,396,0,0.0,34.44970312,1.0262563
YAY,150,3,2024-06-22T16:01:35.419Z,english_899.wav,0,pill,396,1,0.1,-73.97598586,0.5565938
YAY,150,3,2024-06-22T16:01:35.419Z,english_899.wav,0,pill,396,2,0.2,4.84970015,0.08950317
YAY,150,3,2024-06-22T16:01:35.419Z,english_899.wav,0,pill,396,3,0.3,25.99530817,1.10823657
YAY,150,3,2024-06-22T16:01:35.419Z,english_899.wav,0,pill,396,4,0.32341667,7.0197251,1.27665612
YAY,151,3,2024-06-22T16:01:35.419Z,english_271.wav,0,peel,1116,0,0.0,24.41564841,0.25667552
YAY,151,3,2024-06-22T16:01:35.419Z,english_271.wav,0,peel,1116,1,0.1,-64.42577909,1.20221217
YAY,151,3,2024-06-22T16:01:35.419Z,english_271.wav,0,peel,1116,2,0.2,32.27025317,0.24658485
YAY,151,3,2024-06-22T16:01:35.419Z,english_271.wav,0,peel,1116,3,0.3,58.71212772,1.57844265
YAY,151,3,2024-06-22T16:01:35.419Z,english_271.wav,0,peel,1116,4,0.32341667,46.7300547,1.00400066
YAY,152,3,2024-06-22T16:01:35.419Z,english_786.wav,0,peel,758,0,0.0,50.77560123,0.9907589
YAY,152,3,2024-06-22T16:01:35.419Z,english_786.wav,0,peel,758,1,0.1,-87.08435808,0.48193409
YAY,152,3,2024-06-22T16:01:35.419Z,english_786.wav,0,peel,758,2,0.2,-36.07136163,1.01949061
YAY,152,3,2024-06-22T16:01:35.419Z,english_786.wav,0,peel,758,3,0.3,98.77618087,1.06334926
YAY,152,3,2024-06-22T16:01:35.419Z,english_786.wav,0,peel,758,4,0.32341667,86.70070823,0.94164836
YAY,153,3,2024-06-22T16:01:35.419Z,english_790.wav,0,peel,253,0,0.0,51.18493756,0.66657869
YAY,153,3,2024-06-22T16:01:35.419Z,english_790.wav,0,peel,253,1,0.1,-64.70105349,0.91857876
YAY,153,3,2024-06-22T16:01:35.419Z,english_790.wav,0,peel,253,2,0.2,-90.57968214,1.26779222
YAY,153,3,2024-06-22T16:01:35.419Z,english_790.wav,0,peel,253,3,0.3,-94.64625917,1.54144859
YAY,153,3,2024-06-22T16:01:35.419Z,english_790.wav,0,peel,253,4,0.32341667,-38.85953331,1.32367104
YAY,154,3,2024-06-22T16:01:35.419Z,english_365.wav,0,peel,175,0,0.0,58.11205919,0.53708026
YAY,154,3,2024-06-22T16:01:35.419Z,english_365.wav,0,peel,175,1,0.1,-61.04014877,1.10456153
YAY,154,3,2024-06-22T16:01:35.419Z,english_365.wav,0,peel,175,2,0.2,12.43042802,1.31731937
YAY,154,3,2024-06-22T16:01:35.419Z,english_365.wav,0,peel,175,3,0.3,17.00746388,1.02387946
YAY,154,3,2024-06-22T16:01:35.419Z,english_365.wav,0,peel,175,4,0.32341667,-69.10644956,1.31633463
YAY,155,3,2024-06-22T16:01:35.419Z,english_391.wav,0,pill,362,0,0.0,67.64906061,0.41951577
YAY,155,3,2024-06-22T16:01:35.419Z,english_391.wav,0,pill,362,1,0.1,79.28195584,0.03526883
YAY,155,3,2024-06-22T16:01:35.419Z,english_391.wav,0,pill,362,2,0.2,62.27299227,0.81828659
YAY,155,3,2024-06-22T16:01:35.419Z,english_391.wav,0,pill,362,3,0.3,-11.10764883,1.2900604
YAY,155,3,2024-06-22T16:01:35.419Z,english_391.wav,0,pill,362,4,0.32341667,57.41338752,1.95373865
YAY,156,3,2024-06-22T16:01:35.419Z,english_49.wav,0,peel,255,0,0.0,-6.08822071,0.36436507
YAY,156,3,2024-06-22T16:01:35.419Z,english_49.wav,0,peel,255,1,0.1,-56.0367764,1.66948988
YAY,156,3,2024-06-22T16:01:35.419Z,english_49.wav,0,peel,255,2,0.2,-51.95657584,1.20554654
YAY,156,3,2024-06-22T16:01:35.419Z,english_49.wav,0,peel,255,3,0.3,-59.93208112,0.31084089
YAY,156,3,2024-06-22T16:01:35.419Z,english_49.wav,0,peel,255,4,0.32341667,-7.85847813,0.44223059
YAY,157,3,2024-06-22T16:01:35.419Z,english_813.wav,0,peel,215,0,0.0,55.66932548,1.32885027
YAY,157,3,2024-06-22T16:01:35.419Z,english_813.wav,0,peel,215,1,0.1,81.68960615,1.76450173
YAY,157,3,2024-06-22T16:01:35.419Z,english_813.wav,0,peel,215,2,0.2,55.75765178,0.71046445
YAY,157,3,2024-06-22T16:01:35.419Z,english_813.wav,0,peel,215,3,0.3,-1.25572602,1.00431818
YAY,157,3,2024-06-22T16:01:35.419Z,english_813.wav,0,peel,215,4,0.32341667,95.15429199,0.60962601
YAY,158,3,2024-06-22T16:01:35.419Z,english_143.wav,0,pill,674,0,0.0,-40.90047407,0.05812512
YAY,158,3,2024-06-22T16:01:35.419Z,english_143.wav,0,pill,674,1,0.1,-35.35291254,0.81203879
YAY,158,3,2024-06-22T16:01:35.419Z,english_143.wav,0,pill,674,2,0.2,36.32983964,0.61124866
YAY,158,3,2024-06-22T16:01:35.419Z,english_143.wav,0,pill,674,3,0.3,-7.67980486,0.41683772
YAY,158,3,2024-06-22T16:01:35.419Z,english_143.wav,0,pill,674,4,0.32341667,-89.59854269,1.86697452
YAY,159,3,2024-06-22T16:01:35.419Z,english_286.wav,0,peel,138,0,0.0,-94.9495111,0.49849168
YAY,159,3,2024-06-22T16:01:35.419Z,english_286.wav,0,peel,138,1,0.1,-25.05656786,1.27672914
YAY,159,3,2024-06-22T16:01:35.419Z,english_286.wav,0,peel,138,2,0.2,59.61150177,0.14515846
YAY,159,3,2024-06-22T16:01:35.419Z,english_286.wav,0,peel,138,3,0.3,-32.97544875,1.67164973
YAY,159,3,2024-06-22T16:01:35.419Z,english_286.wav,0,peel,138,4,0.32341667,7.58095242,0.86492177
YAY,160,3,2024-06-22T16:01:35.419Z,english_384.wav,0,pill,379,0,0.0,-38.96228733,0.34616893
YAY,160,3,2024-06-22T16:01:35.419Z,english_384.wav,0,pill,379,1,0.1,2.386347,0.04115024
YAY,160,3,2024-06-22T16:01:35.419Z,english_384.wav,0,pill,379,2,0.2,48.26486793,0.35900131
YAY,160,3,2024-06-22T16:01:35.419Z,english_384.wav,0,pill,379,3,0.3,-48.11903655,1.58519606
YAY,160,3,2024-06-22T16:01:35.419Z,english_384.wav,0,pill,379,4,0.32341667,19.29531145,0.95531857
YAY,161,3,2024-06-22T16:01:35.419Z,english_837.wav,0,peel,168,0,0.0,-10.72674788,0.56055933
YAY,161,3,2024-06-22T16:01:35.419Z,english_837.wav,0,peel,168,1,0.1,33.60933966,1.16716927
YAY,161,3,2024-06-22T16:01:35.419Z,english_837.wav,0,peel,168,2,0.2,-1.37827911,1.02731607
YAY,161,3,2024-06-22T16:01:35.419Z,english_837.wav,0,peel,168,3,0.3,29.3498758,1.96665864
YAY,161,3,2024-06-22T16:01:35.419Z,english_837.wav,0,peel,168,4,0.32341667,31.86641091,0.45425732
YAY,162,3,2024-06-22T16:01:35.419Z,english_219.wav,0,peel,184,0,0.0,38.40040381,1.09142553
YAY,162,3,2024-06-22T16:01:35.419Z,english_219.wav,0,peel,184,1,0.1,-26.23926727,0.5740428
YAY,162,3,2024-06-22T16:01:35.419Z,english_219.wav,0,peel,184,2,0.2,-57.67558578,1.19056911
YAY,162,3,2024-06-22T16:01:35.419Z,english_219.wav,0,peel,184,3,0.3,50.56926795,1.87089358
YAY,162,3,2024-06-22T16:01:35.419Z,english_219.wav,0,peel,184,4,0.32341667,64.39220397,1.06933149
YAY,163,3,2024-06-22T16:01:35.419Z,english_976.wav,0,peel,90,0,0.0,-92.49082032,0.30893725
YAY,163,3,2024-06-22T16:01:35.419Z,english_976.wav,0,peel,90,1,0.1,92.01562452,1.54393752
YAY,163,3,2024-06-22T16:01:35.419Z,english_976.wav,0,peel,90,2,0.2,-80.55764576,1.31466429
YAY,163,3,2024-06-22T16:01:35.419Z,english_976.wav,0,peel,90,3,0.3,-70.09009567,1.88171095
YAY,163,3,2024-06-22T16:01:35.419Z,english_976.wav,0,peel,90,4,0.32341667,-7.5394989,1.71314556
YAY,164,3,2024-06-22T16:01:35.419Z,english_147.wav,0,pill,340,0,0.0,-14.37625717,1.08714974
YAY,164,3,2024-06-22T16:01:35.419Z,english_147.wav,0,pill,340,1,0.1,-48.99147792,1.05600262
YAY,164,3,2024-06-22T16:01:35.419Z,english_147.wav,0,pill,340,2,0.2,-76.025031,0.62193731
YAY,164,3,2024-06-22T16:01:35.419Z,english_147.wav,0,pill,340,3,0.3,-4.271985,1.23272935
YAY,164,3,2024-06-22T16:01:35.419Z,english_147.wav,0,pill,340,4,0.32341667,90.36670579,0.90867663
YAY,165,3,2024-06-22T16:01:35.419Z,english_155.wav,0,peel,1189,0,0.0,53.87474094,1.93436975
YAY,165,3,2024-06-22T16:01:35.419Z,english_155.wav,0,peel,1189,1,0.1,74.81745726,0.64472983
YAY,165,3,2024-06-22T16:01:35.419Z,english_155.wav,0,peel,1189,2,0.2,8.25192738,1.6098708
YAY,165,3,2024-06-22T16:01:35.419Z,english_155.wav,0,peel,1189,3,0.3,-52.88121257,1.15705679
YAY,165,3,2024-06-22T16:01:35.419Z,english_155.wav,0,peel,1189,4,0.32341667,48.31209788,0.66500292
YAY,166,3,2024-06-22T16:01:35.419Z,english_675.wav,0,peel,210,0,0.0,-31.75128323,1.35198954
YAY,166,3,2024-06-22T16:01:35.419Z,english_675.wav,0,peel,210,1,0.1,60.52679753,1.32787853
YAY,166,3,2024-06-22T16:01:35.419Z,english_675.wav,0,peel,210,2,0.2,-22.8835824,1.57632911
YAY,166,3,2024-06-22T16:01:35.419Z,english_675.wav,0,peel,210,3,0.3,-6.32596177,0.80140737
YAY,166,3,2024-06-22T16:01:35.419Z,english_675.wav,0,peel,210,4,0.32341667,-61.06491024,0.99818917
YAY,167,3,2024-06-22T16:01:35.419Z,english_151.wav,0,peel,492,0,0.0,-8.78950662,1.36403682
YAY,167,3,2024-06-22T16:01:35.419Z,english_151.wav,0,peel,492,1,0.1,-1.70650264,1.76375426
YAY,167,3,2024-06-22T16:01:35.419Z,english_151.wav,0,peel,492,2,0.2,-17.50286784,1.43087438
YAY,167,3,2024-06-22T16:01:35.419Z,english_151.wav,0,peel,492,3,0.3,88.78233286,1.18017331
YAY,167,3,2024-06-22T16:01:35.419Z,english_151.wav,0,peel,492,4,0.32341667,55.08117545,1.30400061
YAY,168,3,2024-06-22T16:01:35.419Z,english_513.wav,0,pill,415,0,0.0,76.78578212,0.02403043
YAY,168,3,2024-06-22T16:01:35.419Z,english_513.wav,0,pill,415,1,0.1,20.42124481,0.85164369
YAY,168,3,2024-06-22T16:01:35.419Z,english_513.wav,0,pill,415,2,0.2,83.32251122,1.08658436
YAY,168,3,2024-06-22T16:01:35.419Z,english_513.wav,0,pill,415,3,0.3,47.28432413,0.40639055
YAY,168,3,2024-06-22T16:01:35.419Z,english_513.wav,0,pill,415,4,0.32341667,-50.64117466,1.29336046
YAY,169,3,2024-06-22T16:01:35.419Z,english_557.wav,0,peel,135,0,0.0,43.94308994,0.38165316
YAY,169,3,2024-06-22T16:01:35.419Z,english_557.wav,0,peel,135,1,0.1,84.77773598,1.19567933
YAY,169,3,2024-06-22T16:01:35.419Z,english_557.wav,0,peel,135,2,0.2,-14.75143777,1.35103773
YAY,169,3,2024-06-22T16:01:35.419Z,english_557.wav,0,peel,135,3,0.3,-37.76141322,1.69174007
YAY,169,3,2024-06-22T16:01:35.419Z,english_557.wav,0,peel,135,4,0.32341667,-5.99076179,0.4334092
YAY,170,3,2024-06-22T16:01:35.419Z,english_450.wav,0,peel,356,0,0.0,32.75253923,1.28767958
YAY,170,3,2024-06-22T16:01:35.419Z,english_450.wav,0,peel,356,1,0.1,-95.51335644,1.7262356
YAY,170,3,2024-06-22T16:01:35.419Z,english_450.wav,0,peel,356,2,0.2,34.87485597,0.97567272
YAY,170,3,2024-06-22T16:01:35.419Z,english_450.wav,0,peel,356,3,0.3,-23.91285283,1.94639387
YAY,170,3,2024-06-22T16:01:35.419Z,english_450.wav,0,peel,356,4,0.32341667,-8.67870007,1.78958339
YAY,171,3,2024-06-22T16:01:35.419Z,english_181.wav,0,pill,429,0,0.0,-20.89133039,0.39550568
YAY,171,3,2024-06-22T16:01:35.419Z,english_181.wav,0,pill,429,1,0.1,-68.36112581,0.87114476
YAY,171,3,2024-06-22T16:01:35.419Z,english_181.wav,0,pill,429,2,0.2,-21.7912093,0.0214418
YAY,171,3,2024-06-22T16:01:35.419Z,english_181.wav,0,pill,429,3,0.3,7.62752627,1.98777716
YAY,171,3,2024-06-22T16:01:35.419Z,english_181.wav,0,pill,429,4,0.32341667,53.94324841,0.40706026
YAY,172,3,2024-06-22T16:01:35.419Z,english_723.wav,0,peel,240,0,0.0,-85.17156731,1.02541656
YAY,172,3,2024-06-22T16:01:35.419Z,english_723.wav,0,peel,240,1,0.1,92.93654667,0.92088513
YAY,172,3,2024-06-22T16:01:35.419Z,english_723.wav,0,peel,240,2,0.2,-28.89042756,0.78256854
YAY,172,3,2024-06-22T16:01:35.419Z,english_723.wav,0,peel,240,3,0.3,36.79914563,1.22887413
YAY,172,3,2024-06-22T16:01:35.419Z,english_723.wav,0,peel,240,4,0.32341667,6.86426773,1.77193963
YAY,173,3,2024-06-22T16:01:35.419Z,english_896.wav,0,pill,405,0,0.0,-76.63716622,1.08893336
YAY,173,3,2024-06-22T16:01:35.419Z,english_896.wav,0,pill,405,1,0.1,-73.11298951,0.41748987
YAY,173,3,2024-06-22T16:01:35.419Z,english_896.wav,0,pill,405,2,0.2,48.53347054,0.32012442
YAY,173,3,2024-06-22T16:01:35.419Z,english_896.wav,0,pill,405,3,0.3,-4.46661278,0.63387312
YAY,173,3,2024-06-22T16:01:35.419Z,english_896.wav,0,pill,405,4,0.32341667,-44.69533701,1.27766005
YAY,174,3,2024-06-22T16:01:35.419Z,english_276.wav,0,peel,198,0,0.0,-87.25523595,1.1918401
YAY,174,3,2024-06-22T16:01:35.419Z,english_276.wav,0,peel,198,1,0.1,16.91650801,0.89399115
YAY,174,3,2024-06-22T16:01:35.419Z,english_276.wav,0,peel,198,2,0.2,-40.09372932,0.89701806
YAY,174,3,2024-06-22T16:01:35.419Z,english_276.wav,0,peel,198,3,0.3,3.19229046,1.98333504
YAY,174,3,2024-06-22T16:01:35.419Z,english_276.wav,0,peel,198,4,0.32341667,18.84785296,1.85350493
YAY,175,3,2024-06-22T16:01:35.419Z,english_766.wav,0,peel,286,0,0.0,-86.57417509,1.21737292
YAY,175,3,2024-06-22T16:01:35.419Z,english_766.wav,0,peel,286,1,0.1,-67.75686223,1.61484435
YAY,175,3,2024-06-22T16:01:35.419Z,english_766.wav,0,peel,286,2,0.2,74.21258041,1.47872362
YAY,175,3,2024-06-22T16:01:35.419Z,english_766.wav,0,peel,286,3,0.3,65.20164426,1.81064247
YAY,175,3,2024-06-22T16:01:35.419Z,english_766.wav,0,peel,286,4,0.32341667,-26.41371036,1.37776493
YAY,176,3,2024-06-22T16:01:35.419Z,english_944.wav,0,pill,539,0,0.0,70.24274457,0.61048125
YAY,176,3,2024-06-22T16:01:35.419Z,english_944.wav,0,pill,539,1,0.1,-48.79231442,1.63310511
YAY,176,3,2024-06-22T16:01:35.419Z,english_944.wav,0,pill,539,2,0.2,-6.42324239,0.21687347
YAY,176,3,2024-06-22T16:01:35.419Z,english_944.wav,0,pill,539,3,0.3,-7.7338836,0.45027042
YAY,176,3,2024-06-22T16:01:35.419Z,english_944.wav,0,pill,539,4,0.32341667,69.46240638,0.90306897
YAY,177,3,2024-06-22T16:01:35.419Z,english_757.wav,0,peel,106,0,0.0,-71.37581006,0.57944866
YAY,177,3,2024-06-22T16:01:35.419Z,english_757.wav,0,peel,106,1,0.1,-34.89028362,1.76833087
YAY,177,3,2024-06-22T16:01:35.419Z,english_757.wav,0,peel,106,2,0.2,97.72444176,0.43040584
YAY,177,3,2024-06-22T16:01:35.419Z,english_757.wav,0,peel,106,3,0.3,8.64322444,1.84780211
YAY,177,3,2024-06-22T16:01:35.419Z,english_757.wav,0,peel,106,4,0.32341667,-59.15215987,0.21714226
YAY,178,3,2024-06-22T16:01:35.419Z,english_947.wav,0,peel,285,0,0.0,73.13113362,0.1925557
YAY,178,3,2024-06-22T16:01:35.419Z,english_947.wav,0,peel,285,1,0.1,-55.13077299,1.89478059
YAY,178,3,2024-06-22T16:01:35.419Z,english_947.wav,0,peel,285,2,0.2,59.32217849,0.99662771
YAY,178,3,2024-06-22T16:01:35.419Z,english_947.wav,0,peel,285,3,0.3,-71.25946194,0.61263341
YAY,178,3,2024-06-22T16:01:35.419Z,english_947.wav,0,peel,285,4,0.32341667,39.2274254,0.46373334
YAY,179,3,2024-06-22T16:01:35.419Z,english_193.wav,0,peel,9,0,0.0,98.63199606,1.10219899
YAY,179,3,2024-06-22T16:01:35.419Z,english_193.wav,0,peel,9,1,0.1,38.06859183,1.75752318
YAY,179,3,2024-06-22T16:01:35.419Z,english_193.wav,0,peel,9,2,0.2,58.19309996,1.8701857
YAY,179,3,2024-06-22T16:01:35.419Z,english_193.wav,0,peel,9,3,0.3,70.68425501,1.90449871
YAY,179,3,2024-06-22T16:01:35.419Z,english_193.wav,0,peel,9,4,0.32341667,89.06926868,1.70479661
YAY,180,3,2024-06-22T16:01:35.419Z,english_71.wav,0,peel,219,0,0.0,-89.06637534,0.37218892
YAY,180,3,2024-06-22T16:01:35.419Z,english_71.wav,0,peel,219,1,0.1,-28.638437,1.29479557
YAY,180,3,2024-06-22T16:01:35.419Z,english_71.wav,0,peel,219,2,0.2,-8.31899436,1.34818575
YAY,180,3,2024-06-22T16:01:35.419Z,english_71.wav,0,peel,219,3,0.3,67.7820648,1.24266832
YAY,180,3,2024-06-22T16:01:35.419Z,english_71.wav,0,peel,219,4,0.32341667,4.09606073,1.38884894
YAY,181,3,2024-06-22T16:01:35.419Z,english_977.wav,0,peel,208,0,0.0,63.46196139,0.87194913
YAY,181,3,2024-06-22T16:01:35.419Z,english_977.wav,0,peel,208,1,0.1,-23.64022125,1.67919547
YAY,181,3,2024-06-22T16:01:35.419Z,english_977.wav,0,peel,208,2,0.2,31.65242203,0.97011806
YAY,181,3,2024-06-22T16:01:35.419Z,english_977.wav,0,peel,208,3,0.3,16.19881364,1.40431802
YAY,181,3,2024-06-22T16:01:35.419Z,english_977.wav,0,peel,208,4,0.32341667,-33.08554183,1.02563167
YAY,182,3,2024-06-22T16:01:35.419Z,english_765.wav,0,pill,436,0,0.0,-52.71695997,0.24697616
YAY,182,3,2024-06-22T16:01:35.419Z,english_765.wav,0,pill,436,1,0.1,-0.72548599,1.34458244
YAY,182,3,2024-06-22T16:01:35.419Z,english_765.wav,0,pill,436,2,0.2,-25.46106624,0.2833524
YAY,182,3,2024-06-22T16:01:35.419Z,english_765.wav,0,pill,436,3,0.3,-15.36834083,0.99517128
YAY,182,3,2024-06-22T16:01:35.419Z,english_765.wav,0,pill,436,4,0.32341667,-34.08212533,0.81265208
YAY,183,3,2024-06-22T16:01:35.419Z,english_751.wav,0,peel,789,0,0.0,45.03630887,0.43450625
YAY,183,3,2024-06-22T16:01:35.419Z,english_751.wav,0,peel,789,1,0.1,46.59103402,1.30072592
YAY,183,3,2024-06-22T16:01:35.419Z,english_751.wav,0,peel,789,2,0.2,-30.90440374,1.20093797
YAY,183,3,2024-06-22T16:01:35.419Z,english_751.wav,0,peel,789,3,0.3,-61.26470289,0.81911259
YAY,183,3,2024-06-22T16:01:35.419Z,english_751.wav,0,peel,789,4,0.32341667,34.91384756,0.19140491
YAY,184,3,2024-06-22T16:01:35.419Z,english_990.wav,0,peel,257,0,0.0,-17.98511021,0.6190444
YAY,184,3,2024-06-22T16:01:35.419Z,english_990.wav,0,peel,257,1,0.1,-90.3005676,0.77548775
YAY,184,3,2024-06-22T16:01:35.419Z,english_990.wav,0,peel,257,2,0.2,4.37005684,0.55013224
YAY,184,3,2024-06-22T16:01:35.419Z,english_990.wav,0,peel,257,3,0.3,83.93705034,0.66784051
YAY,184,3,2024-06-22T16:01:35.419Z,english_990.wav,0,peel,257,4,0.32341667,-36.57803625,0.32384409
YAY,185,3,2024-06-22T16:01:35.419Z,english_442.wav,0,peel,273,0,0.0,-5.21319176,1.35819452
YAY,185,3,2024-06-22T16:01:35.419Z,english_442.wav,0,peel,273,1,0.1,-16.23989513,1.66019663
YAY,185,3,2024-06-22T16:01:35.419Z,english_442.wav,0,peel,273,2,0.2,-36.77315909,0.51170704
YAY,185,3,2024-06-22T16:01:35.419Z,english_442.wav,0,peel,273,3,0.3,-33.51446291,1.6590932
YAY,185,3,2024-06-22T16:01:35.419Z,english_442.wav,0,peel,273,4,0.32341667,-25.07447919,0.97998973
YAY,186,3,2024-06-22T16:01:35.419Z,english_752.wav,0,peel,93,0,0.0,-89.50526135,1.26833375
YAY,186,3,2024-06-22T16:01:35.419Z,english_752.wav,0,peel,93,1,0.1,16.42916277,1.25445964
YAY,186,3,2024-06-22T16:01:35.419Z,english_752.wav,0,peel,93,2,0.2,-62.11724863,1.84048801
YAY,186,3,2024-06-22T16:01:35.419Z,english_752.wav,0,peel,93,3,0.3,-22.7839786,0.96813738
YAY,186,3,2024-06-22T16:01:35.419Z,english_752.wav,0,peel,93,4,0.32341667,21.77934146,1.95604557
YAY,187,3,2024-06-22T16:01:35.419Z,english_827.wav,0,peel,258,0,0.0,-49.24128803,1.70838213
YAY,187,3,2024-06-22T16:01:35.419Z,english_827.wav,0,peel,258,1,0.1,62.6158679,0.88048656
YAY,187,3,2024-06-22T16:01:35.419Z,english_827.wav,0,peel,258,2,0.2,-85.72053716,1.47530841
YAY,187,3,2024-06-22T16:01:35.419Z,english_827.wav,0,peel,258,3,0.3,-65.54354982,0.04991031
YAY,187,3,2024-06-22T16:01:35.419Z,english_827.wav,0,peel,258,4,0.32341667,-42.30235352,0.1531298
YAY,188,3,2024-06-22T16:01:35.419Z,english_183.wav,0,peel,319,0,0.0,-43.98322413,0.65201846
YAY,188,3,2024-06-22T16:01:35.419Z,english_183.wav,0,peel,319,1,0.1,-25.77671075,1.22292345
YAY,188,3,2024-06-22T16:01:35.419Z,english_183.wav,0,peel,319,2,0.2,39.5110442,1.45876179
YAY,188,3,2024-06-22T16:01:35.419Z,english_183.wav,0,peel,319,3,0.3,-32.19697736,0.98656907
YAY,188,3,2024-06-22T16:01:35.419Z,english_183.wav,0,peel,319,4,0.32341667,10.88673449,1.0349791
YAY,189,3,2024-06-22T16:01:35.419Z,english_869.wav,0,peel,232,0,0.0,31.82870938,0.91730192
YAY,189,3,2024-06-22T16:01:35.419Z,english_869.wav,0,peel,232,1,0.1,55.69153841,1.54634356
YAY,189,3,2024-06-22T16:01:35.419Z,english_869.wav,0,peel,232,2,0.2,44.83997999,0.32401745
YAY,189,3,2024-06-22T16:01:35.419Z,english_869.wav,0,peel,232,3,0.3,-64.6596515,1.34292926
YAY,189,3,2024-06-22T16:01:35.419Z,english_869.wav,0,peel,232,4,0.32341667,-51.58434075,0.99771643
YAY,190,3,2024-06-22T16:01:35.419Z,english_393.wav,0,pill,292,0,0.0,3.63201436,1.68653621
YAY,190,3,2024-06-22T16:01:35.419Z,english_393.wav,0,pill,292,1,0.1,64.52667935,0.22518435
YAY,190,3,2024-06-22T16:01:35.419Z,english_393.wav,0,pill,292,2,0.2,-51.23523019,0.07728703
YAY,190,3,2024-06-22T16:01:35.419Z,english_393.wav,0,pill,292,3,0.3,-89.75219839,0.70962284
YAY,190,3,2024-06-22T16:01:35.419Z,english_393.wav,0,pill,292,4,0.32341667,-66.06218428,0.7432397
YAY,191,3,2024-06-22T16:01:35.419Z,english_588.wav,0,pill,383,0,0.0,99.95047602,0.54608042
YAY,191,3,2024-06-22T16:01:35.419Z,english_588.wav,0,pill,383,1,0.1,6.8401109,0.86340392
YAY,191,3,2024-06-22T16:01:35.419Z,english_588.wav,0,pill,383,2,0.2,-15.9093749,0.01522231
YAY,191,3,2024-06-22T16:01:35.419Z,english_588.wav,0,pill,383,3,0.3,-95.80500507,0.86017392
YAY,191,3,2024-06-22T16:01:35.419Z,english_588.wav,0,pill,383,4,0.32341667,23.59255786,0.36914066
YAY,192,3,2024-06-22T16:01:35.419Z,english_50.wav,0,peel,230,0,0.0,-72.72872807,1.68140442
YAY,192,3,2024-06-22T16:01:35.419Z,english_50.wav,0,peel,230,1,0.1,-88.33626222,1.82728433
YAY,192,3,2024-06-22T16:01:35.419Z,english_50.wav,0,peel,230,2,0.2,-2.18882928,0.80476824
YAY,192,3,2024-06-22T16:01:35.419Z,english_50.wav,0,peel,230,3,0.3,60.61456424,0.21215651
YAY,192,3,2024-06-22T16:01:35.419Z,english_50.wav,0,peel,230,4,0.32341667,95.28335061,1.87644163
YAY,193,3,2024-06-22T16:01:35.419Z,english_116.wav,0,peel,162,0,0.0,47.3382154,1.30986561
YAY,193,3,2024-06-22T16:01:35.419Z,english_116.wav,0,peel,162,1,0.1,-82.57412589,0.36649927
YAY,193,3,2024-06-22T16:01:35.419Z,english_116.wav,0,peel,162,2,0.2,24.81754674,1.53598436
YAY,193,3,2024-06-22T16:01:35.419Z,english_116.wav,0,peel,162,3,0.3,61.93416492,1.65694634
YAY,193,3,2024-06-22T16:01:35.419Z,english_116.wav,0,peel,162,4,0.32341667,-97.8286579,0.40343631
YAY,194,3,2024-06-22T16:01:35.419Z,english_882.wav,0,pill,677,0,0.0,-42.93700265,1.06489748
YAY,194,3,2024-06-22T16:01:35.419Z,english_882.wav,0,pill,677,1,0.1,-62.35786663,1.38883859
YAY,194,3,2024-06-22T16:01:35.419Z,english_882.wav,0,pill,677,2,0.2,-16.20482572,0.28843799
YAY,194,3,2024-06-22T16:01:35.419Z,english_882.wav,0,pill,677,3,0.3,-46.49020195,1.05408179
YAY,194,3,2024-06-22T16:01:35.419Z,english_882.wav,0,pill,677,4,0.32341667,-64.89408339,1.78517837
YAY,195,3,2024-06-22T16:01:35.419Z,english_497.wav,0,peel,271,0,0.0,3.92391523,0.25005623
YAY,195,3,2024-06-22T16:01:35.419Z,english_497.wav,0,peel,271,1,0.1,-39.44421726,1.18920756
YAY,195,3,2024-06-22T16:01:35.419Z,english_497.wav,0,peel,271,2,0.2,-70.21843081,1.75478959
YAY,195,3,2024-06-22T16:01:35.419Z,english_497.wav,0,peel,271,3,0.3,-95.13281119,0.47878412
YAY,195,3,2024-06-22T16:01:35.419Z,english_497.wav,0,peel,271,4,0.32341667,-23.7064256,0.88125504
YAY,196,3,2024-06-22T16:01:35.419Z,english_954.wav,0,peel,71,0,0.0,-31.7323473,1.78985335
YAY,196,3,2024-06-22T16:01:35.419Z,english_954.wav,0,peel,71,1,0.1,26.42807939,1.38754521
YAY,196,3,2024-06-22T16:01:35.419Z,english_954.wav,0,peel,71,2,0.2,22.25968883,1.54917493
YAY,196,3,2024-06-22T16:01:35.419Z,english_954.wav,0,peel,71,3,0.3,-25.30270181,1.54718362
YAY,196,3,2024-06-22T16:01:35.419Z,english_954.wav,0,peel,71,4,0.32341667,46.97185243,0.09638929
YAY,197,3,2024-06-22T16:01:35.419Z,english_646.wav,0,peel,225,0,0.0,65.65927644,1.85038449
YAY,197,3,2024-06-22T16:01:35.419Z,english_646.wav,0,peel,225,1,0.1,-31.23211399,1.10748568
YAY,197,3,2024-06-22T16:01:35.419Z,english_646.wav,0,peel,225,2,0.2,62.59110385,1.14052106
YAY,197,3,2024-06-22T16:01:35.419Z,english_646.wav,0,peel,225,3,0.3,-86.43369357,1.38971404
YAY,197,3,2024-06-22T16:01:35.419Z,english_646.wav,0,peel,225,4,0.32341667,41.84315348,0.49971738
YAY,198,3,2024-06-22T16:01:35.419Z,english_11.wav,0,pill,449,0,0.0,-20.45826732,1.19869378
YAY,198,3,2024-06-22T16:01:35.419Z,english_11.wav,0,pill,449,1,0.1,-31.26113472,0.2059713
YAY,198,3,2024-06-22T16:01:35.419Z,english_11.wav,0,pill,449,2,0.2,84.03210455,0.62296143
YAY,198,3,2024-06-22T16:01:35.419Z,english_11.wav,0,pill,449,3,0.3,30.35463164,1.49781179
YAY,198,3,2024-06-22T16:01:35.419Z,english_11.wav,0,pill,449,4,0.32341667,-63.36217442,0.18750748
YAY,199,3,2024-06-22T16:01:35.419Z,english_55.wav,0,peel,385,0,0.0,71.89255128,0.24931264
YAY,199,3,2024-06-22T16:01:35.419Z,english_55.wav,0,peel,385,1,0.1,0.20692224,1.79813092
YAY,199,3,2024-06-22T16:01:35.419Z,english_55.wav,0,peel,385,2,0.2,-68.61006599,0.71729895
YAY,199,3,2024-06-22T16:01:35.419Z,english_55.wav,0,peel,385,3,0.3,-5.20952515,1.28733782
YAY,199,3,2024-06-22T16:01:35.419Z,english_55.wav,0,peel,385,4,0.32341667,28.45991968,1.77061752
YAY,200,4,2024-06-22T16:01:35.419Z,english_746.wav,0,peel,285,0,0.0,-1.32395796,1.72273729
YAY,200,4,2024-06-22T16:01:35.419Z,english_746.wav,0,peel,285,1,0.1,-67.07117971,1.22961235
YAY,200,4,2024-06-22T16:01:35.419Z,english_746.wav,0,peel,285,2,0.2,75.09604974,1.29107068
YAY,200,4,2024-06-22T16:01:35.419Z,english_746.wav,0,peel,285,3,0.3,-48.59278454,1.34694816
YAY,200,4,2024-06-22T16:01:35.419Z,english_746.wav,0,peel,285,4,0.32341667,-6.52080997,0.94274536
YAY,201,4,2024-06-22T16:01:35.419Z,english_692.wav,0,peel,745,0,0.0,-29.13306787,0.55849531
YAY,201,4,2024-06-22T16:01:35.419Z,english_692.wav,0,peel,745,1,0.1,-41.86406343,1.96517265
YAY,201,4,2024-06-22T16:01:35.419Z,english_692.wav,0,peel,745,2,0.2,-94.94051661,0.19953253
YAY,201,4,2024-06-22T16:01:35.419Z,english_692.wav,0,peel,745,3,0.3,78.40426091,1.89357941
YAY,201,4,2024-06-22T16:01:35.419Z,english_692.wav,0,peel,745,4,0.32341667,-47.11562344,1.37874109
YAY,202,4,2024-06-22T16:01:35.419Z,english_437.wav,0,peel,378,0,0.0,61.91803223,0.36516876
YAY,202,4,2024-06-22T16:01:35.419Z,english_437.wav,0,peel,378,1,0.1,0.99543568,0.43500315
YAY,202,4,2024-06-22T16:01:35.419Z,english_437.wav,0,peel,378,2,0.2,-50.96874522,1.25398366
YAY,202,4,2024-06-22T16:01:35.419Z,english_437.wav,0,peel,378,3,0.3,-47.73319396,0.60570222
YAY,202,4,2024-06-22T16:01:35.419Z,english_437.wav,0,peel,378,4,0.32341667,15.35939938,0.97208355
YAY,203,4,2024-06-22T16:01:35.419Z,english_312.wav,0,peel,744,0,0.0,44.01610098,1.36033213
YAY,203,4,2024-06-22T16:01:35.419Z,english_312.wav,0,peel,744,1,0.1,-34.76139374,0.08557756
YAY,203,4,2024-06-22T16:01:35.419Z,english_312.wav,0,peel,744,2,0.2,-43.47986862,1.06509633
YAY,203,4,2024-06-22T16:01:35.419Z,english_312.wav,0,peel,744,3,0.3,-9.79517271,0.67257935
YAY,203,4,2024-06-22T16:01:35.419Z,english_312.wav,0,peel,744,4,0.32341667,85.48914895,0.12614926
YAY,204,4,2024-06-22T16:01:35.419Z,english_677.wav,0,peel,779,0,0.0,74.92499355,0.4070184
YAY,204,4,2024-06-22T16:01:35.419Z,english_677.wav,0,peel,779,1,0.1,35.44886391,0.82737557
YAY,204,4,2024-06-22T16:01:35.419Z,english_677.wav,0,peel,779,2,0.2,3.82146975,0.46436239
YAY,204,4,2024-06-22T16:01:35.419Z,english_677.wav,0,peel,779,3,0.3,10.3543008,1.40426898
YAY,204,4,2024-06-22T16:01:35.419Z,english_677.wav,0,peel,779,4,0.32341667,-53.94170103,1.42138659
YAY,205,4,2024-06-22T16:01:35.419Z,english_164.wav,0,peel,203,0,0.0,-18.99376005,1.91320144
YAY,205,4,2024-06-22T16:01:35.419Z,english_164.wav,0,peel,203,1,0.1,-38.65269109,0.23857652
YAY,205,4,2024-06-22T16:01:35.419Z,english_164.wav,0,peel,203,2,0.2,64.75288033,1.41883879
YAY,205,4,2024-06-22T16:01:35.419Z,english_164.wav,0,peel,203,3,0.3,-33.8407164,1.34667564
YAY,205,4,2024-06-22T16:01:35.419Z,english_164.wav,0,peel,203,4,0.32341667,27.96502681,0.04602263
YAY,206,4,2024-06-22T16:01:35.419Z,english_595.wav,0,peel,83,0,0.0,-39.84727911,1.6526444
YAY,206,4,2024-06-22T16:01:35.419Z,english_595.wav,0,peel,83,1,0.1,-68.85607622,1.11711065
YAY,206,4,2024-06-22T16:01:35.419Z,english_595.wav,0,peel,83,2,0.2,23.68364187,1.96516016
YAY,206,4,2024-06-22T16:01:35.419Z,english_595.wav,0,peel,83,3,0.3,-80.51887658,0.34053421
YAY,206,4,2024-06-22T16:01:35.419Z,english_595.wav,0,peel,83,4,0.32341667,-94.66311932,1.22603371
YAY,207,4,2024-06-22T16:01:35.419Z,english_465.wav,0,peel,304,0,0.0,40.04056426,1.33778995
YAY,207,4,2024-06-22T16:01:35.419Z,english_465.wav,0,peel,304,1,0.1,-97.28817369,0.1899685
YAY,207,4,2024-06-22T16:01:35.419Z,english_465.wav,0,peel,304,2,0.2,-58.72937184,1.35609136
YAY,207,4,2024-06-22T16:01:35.419Z,english_465.wav,0,peel,304,3,0.3,82.2448524,1.94032164
YAY,207,4,2024-06-22T16:01:35.419Z,english_465.wav,0,peel,304,4,0.32341667,-29.20233879,0.27858753
YAY,208,4,2024-06-22T16:01:35.419Z,english_5.wav,0,pill,712,0,0.0,-15.92383461,0.27445408
YAY,208,4,2024-06-22T16:01:35.419Z,english_5.wav,0,pill,712,1,0.1,-20.01914587,0.54328549
YAY,208,4,2024-06-22T16:01:35.419Z,english_5.wav,0,pill,712,2,0.2,40.70457056,0.32172142
YAY,208,4,2024-06-22T16:01:35.419Z,english_5.wav,0,pill,712,3,0.3,-94.67131236,1.15903644
YAY,208,4,2024-06-22T16:01:35.419Z,english_5.wav,0,pill,712,4,0.32341667,-88.33027294,0.94870148
YAY,209,4,2024-06-22T16:01:35.419Z,english_800.wav,0,peel,265,0,0.0,-9.91001254,0.13142639
YAY,209,4,2024-06-22T16:01:35.419Z,english_800.wav,0,peel,265,1,0.1,-86.79409322,1.71040153
YAY,209,4,2024-06-22T16:01:35.419Z,english_800.wav,0,peel,265,2,0.2,-27.39997365,0.18637657
YAY,209,4,2024-06-22T16:01:35.419Z,english_800.wav,0,peel,265,3,0.3,13.46737707,1.09766523
YAY,209,4,2024-06-22T16:01:35.419Z,english_800.wav,0,peel,265,4,0.32341667,-32.56208711,1.57940615
YAY,210,4,2024-06-22T16:01:35.419Z,english_975.wav,0,pill,700,0,0.0,30.76275893,1.75032315
YAY,210,4,2024-06-22T16:01:35.419Z,english_975.wav,0,pill,700,1,0.1,-18.30184736,1.1766706
YAY,210,4,2024-06-22T16:01:35.419Z,english_975.wav,0,pill,700,2,0.2,88.92209311,0.11148121
YAY,210,4,2024-06-22T16:01:35.419Z,english_975.wav,0,pill,700,3,0.3,-15.78836893,1.00992181
YAY,210,4,2024-06-22T16:01:35.419Z,english_975.wav,0,pill,700,4,0.32341667,81.69873146,1.08252971
YAY,211,4,2024-06-22T16:01:35.419Z,english_458.wav,0,pill,833,0,0.0,-49.69821038,0.39452057
YAY,211,4,2024-06-22T16:01:35.419Z,english_458.wav,0,pill,833,1,0.1,-49.80647014,1.24604375
YAY,211,4,2024-06-22T16:01:35.419Z,english_458.wav,0,pill,833,2,0.2,11.98261521,0.42272405
YAY,211,4,2024-06-22T16:01:35.419Z,english_458.wav,0,pill,833,3,0.3,59.43319096,0.21259233
YAY,211,4,2024-06-22T16:01:35.419Z,english_458.wav,0,pill,833,4,0.32341667,-34.5671642,1.13235362
YAY,212,4,2024-06-22T16:01:35.419Z,english_561.wav,0,peel,177,0,0.0,62.21065415,1.32725493
YAY,212,4,2024-06-22T16:01:35.419Z,english_561.wav,0,peel,177,1,0.1,-9.84770717,1.15871491
YAY,212,4,2024-06-22T16:01:35.419Z,english_561.wav,0,peel,177,2,0.2,-12.92274306,0.82816789
YAY,212,4,2024-06-22T16:01:35.419Z,english_561.wav,0,peel,177,3,0.3,16.08334811,1.72308293
YAY,212,4,2024-06-22T16:01:35.419Z,english_561.wav,0,peel,177,4,0.32341667,-22.38830035,0.72943893
YAY,213,4,2024-06-22T16:01:35.419Z,english_131.wav,0,peel,48,0,0.0,-90.65248477,1.67513221
YAY,213,4,2024-06-22T16:01:35.419Z,english_131.wav,0,peel,48,1,0.1,7.0988446,1.62916956
YAY,213,4,2024-06-22T16:01:35.419Z,english_131.wav,0,peel,48,2,0.2,-30.94637352,1.4017665
YAY,213,4,2024-06-22T16:01:35.419Z,english_131.wav,0,peel,48,3,0.3,-31.86179524,1.07276153
YAY,213,4,2024-06-22T16:01:35.419Z,english_131.wav,0,peel,48,4,0.32341667,1.85809033,1.80109071
YAY,214,4,2024-06-22T16:01:35.419Z,english_806.wav,0,peel,55,0,0.0,17.38837614,1.03842349
YAY,214,4,2024-06-22T16:01:35.419Z,english_806.wav,0,peel,55,1,0.1,50.31160736,1.08461549
YAY,214,4,2024-06-22T16:01:35.419Z,english_806.wav,0,peel,55,2,0.2,74.21499327,1.8436814
YAY,214,4,2024-06-22T16:01:35.419Z,english_806.wav,0,peel,55,3,0.3,16.647622,1.85846725
YAY,214,4,2024-06-22T16:01:35.419Z,english_806.wav,0,peel,55,4,0.32341667,27.12519974,1.15820289
YAY,215,4,2024-06-22T16:01:35.419Z,english_81.wav,0,peel,217,0,0.0,-8.99652005,1.6890162
YAY,215,4,2024-06-22T16:01:35.419Z,english_81.wav,0,peel,217,1,0.1,37.2959996,1.86826101
YAY,215,4,2024-06-22T16:01:35.419Z,english_81.wav,0,peel,217,2,0.2,56.49217416,0.68929954
YAY,215,4,2024-06-22T16:01:35.419Z,english_81.wav,0,peel,217,3,0.3,99.31521879,0.22383451
YAY,215,4,2024-06-22T16:01:35.419Z,english_81.wav,0,peel,217,4,0.32341667,-25.36881215,0.930773
YAY,216,4,2024-06-22T16:01:35.419Z,english_853.wav,0,pill,219,0,0.0,87.83319324,0.81037323
YAY,216,4,2024-06-22T16:01:35.419Z,english_853.wav,0,pill,219,1,0.1,64.16710312,1.2495933
YAY,216,4,2024-06-22T16:01:35.419Z,english_853.wav,0,pill,219,2,0.2,12.98667351,0.22916278
YAY,216,4,2024-06-22T16:01:35.419Z,english_853.wav,0,pill,219,3,0.3,25.03434444,0.67764146
YAY,216,4,2024-06-22T16:01:35.419Z,english_853.wav,0,pill,219,4,0.32341667,98.3458188,0.13807639
