subj,trial,block,date,stim,stim_order,response,rt,age,english,french,language,sex,param_index,segment,pitch,stretch
61325af0137e3f0aa5b2ad59,0,0,2024-02-27T11:27:58.664Z,french_205.wav,0,pull,13688,34,5,5,français,f,0,0.0,78.04866769,1.87984927
61325af0137e3f0aa5b2ad59,0,0,2024-02-27T11:27:58.664Z,french_205.wav,0,pull,13688,34,5,5,français,f,1,0.1,-67.75164997,0.01831656
61325af0137e3f0aa5b2ad59,0,0,2024-02-27T11:27:58.664Z,french_205.wav,0,pull,13688,34,5,5,français,f,2,0.2,44.60844785,0.73268828
61325af0137e3f0aa5b2ad59,0,0,2024-02-27T11:27:58.664Z,french_205.wav,0,pull,13688,34,5,5,français,f,3,0.3,-56.07838497,1.50191554
61325af0137e3f0aa5b2ad59,0,0,2024-02-27T11:27:58.664Z,french_205.wav,0,pull,13688,34,5,5,français,f,4,0.4,-46.47786092,0.28985561
61325af0137e3f0aa5b2ad59,0,0,2024-02-27T11:27:58.664Z,french_205.wav,0,pull,13688,34,5,5,français,f,5,0.5,-65.17646139,0.41187197
61325af0137e3f0aa5b2ad59,0,0,2024-02-27T11:27:58.664Z,french_205.wav,0,pull,13688,34,5,5,français,f,6,0.6,45.23839845,0.10062474
61325af0137e3f0aa5b2ad59,0,0,2024-02-27T11:27:58.664Z,french_205.wav,0,pull,13688,34,5,5,français,f,7,0.7,94.47627073,1.54463893
61325af0137e3f0aa5b2ad59,0,0,2024-02-27T11:27:58.664Z,french_205.wav,0,pull,13688,34,5,5,français,f,8,0.8,46.03003331,0.02982808
61325af0137e3f0aa5b2ad59,0,0,2024-02-27T11:27:58.664Z,french_205.wav,0,pull,13688,34,5,5,français,f,9,0.9,-84.83671843,1.25721957
61325af0137e3f0aa5b2ad59,0,0,2024-02-27T11:27:58.664Z,french_205.wav,0,pull,13688,34,5,5,français,f,10,1.0,57.9859844,1.4544164
61325af0137e3f0aa5b2ad59,0,0,2024-02-27T11:27:58.664Z,french_205.wav,0,pull,13688,34,5,5,français,f,11,1.1,57.27316607,0.60561771
61325af0137e3f0aa5b2ad59,0,0,2024-02-27T11:27:58.664Z,french_205.wav,0,pull,13688,34,5,5,français,f,12,1.14141667,-99.40468877,1.0266889
61325af0137e3f0aa5b2ad59,1,0,2024-02-27T11:27:58.664Z,french_74.wav,0,poule,1118,34,5,5,français,f,0,0.0,84.74621133,0.15482924
61325af0137e3f0aa5b2ad59,1,0,2024-02-27T11:27:58.664Z,french_74.wav,0,poule,1118,34,5,5,français,f,1,0.1,92.18246646,0.90780051
61325af0137e3f0aa5b2ad59,1,0,2024-02-27T11:27:58.664Z,french_74.wav,0,poule,1118,34,5,5,français,f,2,0.2,-59.5459939,1.42386573
61325af0137e3f0aa5b2ad59,1,0,2024-02-27T11:27:58.664Z,french_74.wav,0,poule,1118,34,5,5,français,f,3,0.3,-98.70399026,1.79795319
61325af0137e3f0aa5b2ad59,1,0,2024-02-27T11:27:58.664Z,french_74.wav,0,poule,1118,34,5,5,français,f,4,0.4,-95.53423626,0.68328648
61325af0137e3f0aa5b2ad59,1,0,2024-02-27T11:27:58.664Z,french_74.wav,0,poule,1118,34,5,5,français,f,5,0.5,-57.56578286,1.03595689
61325af0137e3f0aa5b2ad59,1,0,2024-02-27T11:27:58.664Z,french_74.wav,0,poule,1118,34,5,5,français,f,6,0.6,-23.70931613,0.55161363
61325af0137e3f0aa5b2ad59,1,0,2024-02-27T11:27:58.664Z,french_74.wav,0,poule,1118,34,5,5,français,f,7,0.7,59.8421939,0.09331541
61325af0137e3f0aa5b2ad59,1,0,2024-02-27T11:27:58.664Z,french_74.wav,0,poule,1118,34,5,5,français,f,8,0.8,-90.10462767,0.72998265
61325af0137e3f0aa5b2ad59,1,0,2024-02-27T11:27:58.664Z,french_74.wav,0,poule,1118,34,5,5,français,f,9,0.9,-16.09842749,1.18746687
61325af0137e3f0aa5b2ad59,1,0,2024-02-27T11:27:58.664Z,french_74.wav,0,poule,1118,34,5,5,français,f,10,1.0,62.6860723,1.32035057
61325af0137e3f0aa5b2ad59,1,0,2024-02-27T11:27:58.664Z,french_74.wav,0,poule,1118,34,5,5,français,f,11,1.1,-21.10074863,0.35098378
61325af0137e3f0aa5b2ad59,1,0,2024-02-27T11:27:58.664Z,french_74.wav,0,poule,1118,34,5,5,français,f,12,1.14141667,19.46279158,0.11551636
61325af0137e3f0aa5b2ad59,2,0,2024-02-27T11:27:58.664Z,french_274.wav,0,poule,706,34,5,5,français,f,0,0.0,11.34851872,0.92432066
61325af0137e3f0aa5b2ad59,2,0,2024-02-27T11:27:58.664Z,french_274.wav,0,poule,706,34,5,5,français,f,1,0.1,13.75361052,1.08642525
61325af0137e3f0aa5b2ad59,2,0,2024-02-27T11:27:58.664Z,french_274.wav,0,poule,706,34,5,5,français,f,2,0.2,-0.75190247,1.84874711
61325af0137e3f0aa5b2ad59,2,0,2024-02-27T11:27:58.664Z,french_274.wav,0,poule,706,34,5,5,français,f,3,0.3,-4.16246796,1.98932462
61325af0137e3f0aa5b2ad59,2,0,2024-02-27T11:27:58.664Z,french_274.wav,0,poule,706,34,5,5,français,f,4,0.4,18.70806668,0.96958415
61325af0137e3f0aa5b2ad59,2,0,2024-02-27T11:27:58.664Z,french_274.wav,0,poule,706,34,5,5,français,f,5,0.5,47.88190006,0.47164432
61325af0137e3f0aa5b2ad59,2,0,2024-02-27T11:27:58.664Z,french_274.wav,0,poule,706,34,5,5,français,f,6,0.6,-89.77923631,1.74396934
61325af0137e3f0aa5b2ad59,2,0,2024-02-27T11:27:58.664Z,french_274.wav,0,poule,706,34,5,5,français,f,7,0.7,-0.8025892,0.78095143
61325af0137e3f0aa5b2ad59,2,0,2024-02-27T11:27:58.664Z,french_274.wav,0,poule,706,34,5,5,français,f,8,0.8,-59.16372517,1.62764069
61325af0137e3f0aa5b2ad59,2,0,2024-02-27T11:27:58.664Z,french_274.wav,0,poule,706,34,5,5,français,f,9,0.9,-28.1266963,1.67337912
61325af0137e3f0aa5b2ad59,2,0,2024-02-27T11:27:58.664Z,french_274.wav,0,poule,706,34,5,5,français,f,10,1.0,-15.26675969,1.21050795
61325af0137e3f0aa5b2ad59,2,0,2024-02-27T11:27:58.664Z,french_274.wav,0,poule,706,34,5,5,français,f,11,1.1,27.54287848,1.43502167
61325af0137e3f0aa5b2ad59,2,0,2024-02-27T11:27:58.664Z,french_274.wav,0,poule,706,34,5,5,français,f,12,1.14141667,84.80385161,1.62747772
61325af0137e3f0aa5b2ad59,3,0,2024-02-27T11:27:58.664Z,french_240.wav,0,pull,3761,34,5,5,français,f,0,0.0,79.28024055,1.48897581
61325af0137e3f0aa5b2ad59,3,0,2024-02-27T11:27:58.664Z,french_240.wav,0,pull,3761,34,5,5,français,f,1,0.1,39.9173306,0.75408064
61325af0137e3f0aa5b2ad59,3,0,2024-02-27T11:27:58.664Z,french_240.wav,0,pull,3761,34,5,5,français,f,2,0.2,-2.70400976,0.39468673
61325af0137e3f0aa5b2ad59,3,0,2024-02-27T11:27:58.664Z,french_240.wav,0,pull,3761,34,5,5,français,f,3,0.3,39.39701163,1.23817767
61325af0137e3f0aa5b2ad59,3,0,2024-02-27T11:27:58.664Z,french_240.wav,0,pull,3761,34,5,5,français,f,4,0.4,79.19766018,0.44750026
61325af0137e3f0aa5b2ad59,3,0,2024-02-27T11:27:58.664Z,french_240.wav,0,pull,3761,34,5,5,français,f,5,0.5,-76.7629426,0.89933765
61325af0137e3f0aa5b2ad59,3,0,2024-02-27T11:27:58.664Z,french_240.wav,0,pull,3761,34,5,5,français,f,6,0.6,-31.05375973,0.57627918
61325af0137e3f0aa5b2ad59,3,0,2024-02-27T11:27:58.664Z,french_240.wav,0,pull,3761,34,5,5,français,f,7,0.7,31.78885255,1.06601512
61325af0137e3f0aa5b2ad59,3,0,2024-02-27T11:27:58.664Z,french_240.wav,0,pull,3761,34,5,5,français,f,8,0.8,44.52880411,1.28390236
61325af0137e3f0aa5b2ad59,3,0,2024-02-27T11:27:58.664Z,french_240.wav,0,pull,3761,34,5,5,français,f,9,0.9,96.26715937,1.31345705
61325af0137e3f0aa5b2ad59,3,0,2024-02-27T11:27:58.664Z,french_240.wav,0,pull,3761,34,5,5,français,f,10,1.0,91.69005138,0.48894908
61325af0137e3f0aa5b2ad59,3,0,2024-02-27T11:27:58.664Z,french_240.wav,0,pull,3761,34,5,5,français,f,11,1.1,13.24674088,1.31101528
61325af0137e3f0aa5b2ad59,3,0,2024-02-27T11:27:58.664Z,french_240.wav,0,pull,3761,34,5,5,français,f,12,1.14141667,-8.33706819,0.7531849
61325af0137e3f0aa5b2ad59,4,0,2024-02-27T11:27:58.664Z,french_133.wav,0,pull,2005,34,5,5,français,f,0,0.0,-7.61871603,1.34607476
61325af0137e3f0aa5b2ad59,4,0,2024-02-27T11:27:58.664Z,french_133.wav,0,pull,2005,34,5,5,français,f,1,0.1,34.71331069,1.71757152
61325af0137e3f0aa5b2ad59,4,0,2024-02-27T11:27:58.664Z,french_133.wav,0,pull,2005,34,5,5,français,f,2,0.2,55.79384499,1.76223693
61325af0137e3f0aa5b2ad59,4,0,2024-02-27T11:27:58.664Z,french_133.wav,0,pull,2005,34,5,5,français,f,3,0.3,23.25377101,0.89332745
61325af0137e3f0aa5b2ad59,4,0,2024-02-27T11:27:58.664Z,french_133.wav,0,pull,2005,34,5,5,français,f,4,0.4,77.34286394,0.6099967
61325af0137e3f0aa5b2ad59,4,0,2024-02-27T11:27:58.664Z,french_133.wav,0,pull,2005,34,5,5,français,f,5,0.5,3.92318715,1.94047269
61325af0137e3f0aa5b2ad59,4,0,2024-02-27T11:27:58.664Z,french_133.wav,0,pull,2005,34,5,5,français,f,6,0.6,98.08340608,1.62942383
61325af0137e3f0aa5b2ad59,4,0,2024-02-27T11:27:58.664Z,french_133.wav,0,pull,2005,34,5,5,français,f,7,0.7,-24.38130769,1.25566232
61325af0137e3f0aa5b2ad59,4,0,2024-02-27T11:27:58.664Z,french_133.wav,0,pull,2005,34,5,5,français,f,8,0.8,35.62412421,1.87414585
61325af0137e3f0aa5b2ad59,4,0,2024-02-27T11:27:58.664Z,french_133.wav,0,pull,2005,34,5,5,français,f,9,0.9,53.54170068,0.07787487
61325af0137e3f0aa5b2ad59,4,0,2024-02-27T11:27:58.664Z,french_133.wav,0,pull,2005,34,5,5,français,f,10,1.0,40.87834808,0.93409185
61325af0137e3f0aa5b2ad59,4,0,2024-02-27T11:27:58.664Z,french_133.wav,0,pull,2005,34,5,5,français,f,11,1.1,98.4604717,1.5263652
61325af0137e3f0aa5b2ad59,4,0,2024-02-27T11:27:58.664Z,french_133.wav,0,pull,2005,34,5,5,français,f,12,1.14141667,75.71752154,0.309992
61325af0137e3f0aa5b2ad59,5,0,2024-02-27T11:27:58.664Z,french_920.wav,0,poule,3833,34,5,5,français,f,0,0.0,-19.30176094,0.60193283
61325af0137e3f0aa5b2ad59,5,0,2024-02-27T11:27:58.664Z,french_920.wav,0,poule,3833,34,5,5,français,f,1,0.1,42.24966406,0.7358632
61325af0137e3f0aa5b2ad59,5,0,2024-02-27T11:27:58.664Z,french_920.wav,0,poule,3833,34,5,5,français,f,2,0.2,4.59844531,0.13299168
61325af0137e3f0aa5b2ad59,5,0,2024-02-27T11:27:58.664Z,french_920.wav,0,poule,3833,34,5,5,français,f,3,0.3,-50.26112208,0.59112751
61325af0137e3f0aa5b2ad59,5,0,2024-02-27T11:27:58.664Z,french_920.wav,0,poule,3833,34,5,5,français,f,4,0.4,47.39747576,1.45544303
61325af0137e3f0aa5b2ad59,5,0,2024-02-27T11:27:58.664Z,french_920.wav,0,poule,3833,34,5,5,français,f,5,0.5,27.93582477,0.40873773
61325af0137e3f0aa5b2ad59,5,0,2024-02-27T11:27:58.664Z,french_920.wav,0,poule,3833,34,5,5,français,f,6,0.6,-38.24165331,0.52359377
61325af0137e3f0aa5b2ad59,5,0,2024-02-27T11:27:58.664Z,french_920.wav,0,poule,3833,34,5,5,français,f,7,0.7,79.50072261,0.61254304
61325af0137e3f0aa5b2ad59,5,0,2024-02-27T11:27:58.664Z,french_920.wav,0,poule,3833,34,5,5,français,f,8,0.8,-91.19546582,1.38763095
61325af0137e3f0aa5b2ad59,5,0,2024-02-27T11:27:58.664Z,french_920.wav,0,poule,3833,34,5,5,français,f,9,0.9,-20.42037276,0.18569195
61325af0137e3f0aa5b2ad59,5,0,2024-02-27T11:27:58.664Z,french_920.wav,0,poule,3833,34,5,5,français,f,10,1.0,91.97225273,0.6972115
61325af0137e3f0aa5b2ad59,5,0,2024-02-27T11:27:58.664Z,french_920.wav,0,poule,3833,34,5,5,français,f,11,1.1,-48.93345242,0.62343363
61325af0137e3f0aa5b2ad59,5,0,2024-02-27T11:27:58.664Z,french_920.wav,0,poule,3833,34,5,5,français,f,12,1.14141667,95.20886409,1.83344131
61325af0137e3f0aa5b2ad59,6,0,2024-02-27T11:27:58.664Z,french_963.wav,0,pull,976,34,5,5,français,f,0,0.0,-2.60515396,1.09825401
61325af0137e3f0aa5b2ad59,6,0,2024-02-27T11:27:58.664Z,french_963.wav,0,pull,976,34,5,5,français,f,1,0.1,-69.80600128,0.40228202
61325af0137e3f0aa5b2ad59,6,0,2024-02-27T11:27:58.664Z,french_963.wav,0,pull,976,34,5,5,français,f,2,0.2,-22.76975295,1.61918413
61325af0137e3f0aa5b2ad59,6,0,2024-02-27T11:27:58.664Z,french_963.wav,0,pull,976,34,5,5,français,f,3,0.3,47.94644455,0.40760169
61325af0137e3f0aa5b2ad59,6,0,2024-02-27T11:27:58.664Z,french_963.wav,0,pull,976,34,5,5,français,f,4,0.4,60.99924488,1.12429397
61325af0137e3f0aa5b2ad59,6,0,2024-02-27T11:27:58.664Z,french_963.wav,0,pull,976,34,5,5,français,f,5,0.5,-68.16371487,1.50749112
61325af0137e3f0aa5b2ad59,6,0,2024-02-27T11:27:58.664Z,french_963.wav,0,pull,976,34,5,5,français,f,6,0.6,16.07488466,0.65773223
61325af0137e3f0aa5b2ad59,6,0,2024-02-27T11:27:58.664Z,french_963.wav,0,pull,976,34,5,5,français,f,7,0.7,79.50423257,1.2210919
61325af0137e3f0aa5b2ad59,6,0,2024-02-27T11:27:58.664Z,french_963.wav,0,pull,976,34,5,5,français,f,8,0.8,-61.32959447,0.77742832
61325af0137e3f0aa5b2ad59,6,0,2024-02-27T11:27:58.664Z,french_963.wav,0,pull,976,34,5,5,français,f,9,0.9,61.1484988,0.45497553
61325af0137e3f0aa5b2ad59,6,0,2024-02-27T11:27:58.664Z,french_963.wav,0,pull,976,34,5,5,français,f,10,1.0,-89.32108127,1.00003594
61325af0137e3f0aa5b2ad59,6,0,2024-02-27T11:27:58.664Z,french_963.wav,0,pull,976,34,5,5,français,f,11,1.1,87.59092513,1.38056661
61325af0137e3f0aa5b2ad59,6,0,2024-02-27T11:27:58.664Z,french_963.wav,0,pull,976,34,5,5,français,f,12,1.14141667,33.6770082,0.82674617
61325af0137e3f0aa5b2ad59,7,0,2024-02-27T11:27:58.664Z,french_652.wav,0,pull,4277,34,5,5,français,f,0,0.0,-64.34245078,0.17219181
61325af0137e3f0aa5b2ad59,7,0,2024-02-27T11:27:58.664Z,french_652.wav,0,pull,4277,34,5,5,français,f,1,0.1,36.64819292,0.49943741
61325af0137e3f0aa5b2ad59,7,0,2024-02-27T11:27:58.664Z,french_652.wav,0,pull,4277,34,5,5,français,f,2,0.2,94.39930996,1.4050061
61325af0137e3f0aa5b2ad59,7,0,2024-02-27T11:27:58.664Z,french_652.wav,0,pull,4277,34,5,5,français,f,3,0.3,-83.22796631,0.74775149
61325af0137e3f0aa5b2ad59,7,0,2024-02-27T11:27:58.664Z,french_652.wav,0,pull,4277,34,5,5,français,f,4,0.4,-63.44049695,0.98675799
61325af0137e3f0aa5b2ad59,7,0,2024-02-27T11:27:58.664Z,french_652.wav,0,pull,4277,34,5,5,français,f,5,0.5,-21.86417372,0.11455054
61325af0137e3f0aa5b2ad59,7,0,2024-02-27T11:27:58.664Z,french_652.wav,0,pull,4277,34,5,5,français,f,6,0.6,-52.40579631,1.43554655
61325af0137e3f0aa5b2ad59,7,0,2024-02-27T11:27:58.664Z,french_652.wav,0,pull,4277,34,5,5,français,f,7,0.7,52.60731432,0.71254102
61325af0137e3f0aa5b2ad59,7,0,2024-02-27T11:27:58.664Z,french_652.wav,0,pull,4277,34,5,5,français,f,8,0.8,82.26732634,0.77312084
61325af0137e3f0aa5b2ad59,7,0,2024-02-27T11:27:58.664Z,french_652.wav,0,pull,4277,34,5,5,français,f,9,0.9,-66.56660682,0.00594099
61325af0137e3f0aa5b2ad59,7,0,2024-02-27T11:27:58.664Z,french_652.wav,0,pull,4277,34,5,5,français,f,10,1.0,93.91460513,0.65440972
61325af0137e3f0aa5b2ad59,7,0,2024-02-27T11:27:58.664Z,french_652.wav,0,pull,4277,34,5,5,français,f,11,1.1,-23.42883906,1.76783286
61325af0137e3f0aa5b2ad59,7,0,2024-02-27T11:27:58.664Z,french_652.wav,0,pull,4277,34,5,5,français,f,12,1.14141667,-61.50549834,1.41039415
61325af0137e3f0aa5b2ad59,8,0,2024-02-27T11:27:58.664Z,french_468.wav,0,poule,756,34,5,5,français,f,0,0.0,-13.58676493,1.61786678
61325af0137e3f0aa5b2ad59,8,0,2024-02-27T11:27:58.664Z,french_468.wav,0,poule,756,34,5,5,français,f,1,0.1,72.6058515,0.87941828
61325af0137e3f0aa5b2ad59,8,0,2024-02-27T11:27:58.664Z,french_468.wav,0,poule,756,34,5,5,français,f,2,0.2,-32.02129576,1.83091307
61325af0137e3f0aa5b2ad59,8,0,2024-02-27T11:27:58.664Z,french_468.wav,0,poule,756,34,5,5,français,f,3,0.3,52.20448247,0.55022133
61325af0137e3f0aa5b2ad59,8,0,2024-02-27T11:27:58.664Z,french_468.wav,0,poule,756,34,5,5,français,f,4,0.4,81.43032914,1.31843468
61325af0137e3f0aa5b2ad59,8,0,2024-02-27T11:27:58.664Z,french_468.wav,0,poule,756,34,5,5,français,f,5,0.5,-46.64724356,0.27128196
61325af0137e3f0aa5b2ad59,8,0,2024-02-27T11:27:58.664Z,french_468.wav,0,poule,756,34,5,5,français,f,6,0.6,-9.87779487,1.45996143
61325af0137e3f0aa5b2ad59,8,0,2024-02-27T11:27:58.664Z,french_468.wav,0,poule,756,34,5,5,français,f,7,0.7,-19.54175122,1.9285159
61325af0137e3f0aa5b2ad59,8,0,2024-02-27T11:27:58.664Z,french_468.wav,0,poule,756,34,5,5,français,f,8,0.8,-49.98241499,0.92372557
61325af0137e3f0aa5b2ad59,8,0,2024-02-27T11:27:58.664Z,french_468.wav,0,poule,756,34,5,5,français,f,9,0.9,-13.16351875,0.96002264
61325af0137e3f0aa5b2ad59,8,0,2024-02-27T11:27:58.664Z,french_468.wav,0,poule,756,34,5,5,français,f,10,1.0,-96.83623885,0.2797337
61325af0137e3f0aa5b2ad59,8,0,2024-02-27T11:27:58.664Z,french_468.wav,0,poule,756,34,5,5,français,f,11,1.1,49.6134393,0.59117932
61325af0137e3f0aa5b2ad59,8,0,2024-02-27T11:27:58.664Z,french_468.wav,0,poule,756,34,5,5,français,f,12,1.14141667,15.95148808,0.63965457
61325af0137e3f0aa5b2ad59,9,0,2024-02-27T11:27:58.664Z,french_389.wav,0,poule,1433,34,5,5,français,f,0,0.0,88.59624005,0.45180273
61325af0137e3f0aa5b2ad59,9,0,2024-02-27T11:27:58.664Z,french_389.wav,0,poule,1433,34,5,5,français,f,1,0.1,-41.54260936,0.9916986
61325af0137e3f0aa5b2ad59,9,0,2024-02-27T11:27:58.664Z,french_389.wav,0,poule,1433,34,5,5,français,f,2,0.2,98.66273367,1.03654002
61325af0137e3f0aa5b2ad59,9,0,2024-02-27T11:27:58.664Z,french_389.wav,0,poule,1433,34,5,5,français,f,3,0.3,-51.42818897,1.09206691
61325af0137e3f0aa5b2ad59,9,0,2024-02-27T11:27:58.664Z,french_389.wav,0,poule,1433,34,5,5,français,f,4,0.4,-3.9259191,0.2266594
61325af0137e3f0aa5b2ad59,9,0,2024-02-27T11:27:58.664Z,french_389.wav,0,poule,1433,34,5,5,français,f,5,0.5,-69.59109812,0.4475897
61325af0137e3f0aa5b2ad59,9,0,2024-02-27T11:27:58.664Z,french_389.wav,0,poule,1433,34,5,5,français,f,6,0.6,-72.83399841,1.50879898
61325af0137e3f0aa5b2ad59,9,0,2024-02-27T11:27:58.664Z,french_389.wav,0,poule,1433,34,5,5,français,f,7,0.7,-23.08602762,0.72789206
61325af0137e3f0aa5b2ad59,9,0,2024-02-27T11:27:58.664Z,french_389.wav,0,poule,1433,34,5,5,français,f,8,0.8,52.81995183,1.12820915
61325af0137e3f0aa5b2ad59,9,0,2024-02-27T11:27:58.664Z,french_389.wav,0,poule,1433,34,5,5,français,f,9,0.9,-71.91777434,1.44183991
61325af0137e3f0aa5b2ad59,9,0,2024-02-27T11:27:58.664Z,french_389.wav,0,poule,1433,34,5,5,français,f,10,1.0,59.65306281,0.41497505
61325af0137e3f0aa5b2ad59,9,0,2024-02-27T11:27:58.664Z,french_389.wav,0,poule,1433,34,5,5,français,f,11,1.1,-37.74620063,1.99975046
61325af0137e3f0aa5b2ad59,9,0,2024-02-27T11:27:58.664Z,french_389.wav,0,poule,1433,34,5,5,français,f,12,1.14141667,-3.28569545,1.69153947
61325af0137e3f0aa5b2ad59,10,0,2024-02-27T11:27:58.664Z,french_101.wav,0,pull,3272,34,5,5,français,f,0,0.0,-65.46087388,1.12241829
61325af0137e3f0aa5b2ad59,10,0,2024-02-27T11:27:58.664Z,french_101.wav,0,pull,3272,34,5,5,français,f,1,0.1,63.59656018,0.33793213
61325af0137e3f0aa5b2ad59,10,0,2024-02-27T11:27:58.664Z,french_101.wav,0,pull,3272,34,5,5,français,f,2,0.2,54.14288835,1.19927572
61325af0137e3f0aa5b2ad59,10,0,2024-02-27T11:27:58.664Z,french_101.wav,0,pull,3272,34,5,5,français,f,3,0.3,22.15338449,1.19891661
61325af0137e3f0aa5b2ad59,10,0,2024-02-27T11:27:58.664Z,french_101.wav,0,pull,3272,34,5,5,français,f,4,0.4,9.44966108,1.16356615
61325af0137e3f0aa5b2ad59,10,0,2024-02-27T11:27:58.664Z,french_101.wav,0,pull,3272,34,5,5,français,f,5,0.5,62.3405883,1.8094662
61325af0137e3f0aa5b2ad59,10,0,2024-02-27T11:27:58.664Z,french_101.wav,0,pull,3272,34,5,5,français,f,6,0.6,35.08854145,1.21572763
61325af0137e3f0aa5b2ad59,10,0,2024-02-27T11:27:58.664Z,french_101.wav,0,pull,3272,34,5,5,français,f,7,0.7,90.28352707,1.20829502
61325af0137e3f0aa5b2ad59,10,0,2024-02-27T11:27:58.664Z,french_101.wav,0,pull,3272,34,5,5,français,f,8,0.8,32.40917648,0.2048106
61325af0137e3f0aa5b2ad59,10,0,2024-02-27T11:27:58.664Z,french_101.wav,0,pull,3272,34,5,5,français,f,9,0.9,45.65146214,0.15870555
61325af0137e3f0aa5b2ad59,10,0,2024-02-27T11:27:58.664Z,french_101.wav,0,pull,3272,34,5,5,français,f,10,1.0,26.68572675,0.85858703
61325af0137e3f0aa5b2ad59,10,0,2024-02-27T11:27:58.664Z,french_101.wav,0,pull,3272,34,5,5,français,f,11,1.1,-28.95615297,0.96045603
61325af0137e3f0aa5b2ad59,10,0,2024-02-27T11:27:58.664Z,french_101.wav,0,pull,3272,34,5,5,français,f,12,1.14141667,65.42086227,0.41262817
61325af0137e3f0aa5b2ad59,11,0,2024-02-27T11:27:58.664Z,french_293.wav,0,poule,1118,34,5,5,français,f,0,0.0,13.88157175,0.60053573
61325af0137e3f0aa5b2ad59,11,0,2024-02-27T11:27:58.664Z,french_293.wav,0,poule,1118,34,5,5,français,f,1,0.1,2.23867218,1.35819194
61325af0137e3f0aa5b2ad59,11,0,2024-02-27T11:27:58.664Z,french_293.wav,0,poule,1118,34,5,5,français,f,2,0.2,-40.7386732,0.02818672
61325af0137e3f0aa5b2ad59,11,0,2024-02-27T11:27:58.664Z,french_293.wav,0,poule,1118,34,5,5,français,f,3,0.3,6.10244728,1.13378846
61325af0137e3f0aa5b2ad59,11,0,2024-02-27T11:27:58.664Z,french_293.wav,0,poule,1118,34,5,5,français,f,4,0.4,32.8477373,1.04896096
61325af0137e3f0aa5b2ad59,11,0,2024-02-27T11:27:58.664Z,french_293.wav,0,poule,1118,34,5,5,français,f,5,0.5,-60.22275726,1.31947449
61325af0137e3f0aa5b2ad59,11,0,2024-02-27T11:27:58.664Z,french_293.wav,0,poule,1118,34,5,5,français,f,6,0.6,-73.78584082,0.64719086
61325af0137e3f0aa5b2ad59,11,0,2024-02-27T11:27:58.664Z,french_293.wav,0,poule,1118,34,5,5,français,f,7,0.7,-39.23060497,1.73705065
61325af0137e3f0aa5b2ad59,11,0,2024-02-27T11:27:58.664Z,french_293.wav,0,poule,1118,34,5,5,français,f,8,0.8,13.36329351,1.2092819
61325af0137e3f0aa5b2ad59,11,0,2024-02-27T11:27:58.664Z,french_293.wav,0,poule,1118,34,5,5,français,f,9,0.9,16.41932854,0.87930659
61325af0137e3f0aa5b2ad59,11,0,2024-02-27T11:27:58.664Z,french_293.wav,0,poule,1118,34,5,5,français,f,10,1.0,44.79400967,1.38260782
61325af0137e3f0aa5b2ad59,11,0,2024-02-27T11:27:58.664Z,french_293.wav,0,poule,1118,34,5,5,français,f,11,1.1,34.65582677,1.24528476
61325af0137e3f0aa5b2ad59,11,0,2024-02-27T11:27:58.664Z,french_293.wav,0,poule,1118,34,5,5,français,f,12,1.14141667,28.28906565,1.87043564
61325af0137e3f0aa5b2ad59,12,0,2024-02-27T11:27:58.664Z,french_779.wav,0,pull,1135,34,5,5,français,f,0,0.0,-38.28425878,1.14466513
61325af0137e3f0aa5b2ad59,12,0,2024-02-27T11:27:58.664Z,french_779.wav,0,pull,1135,34,5,5,français,f,1,0.1,-19.73299362,1.60046318
61325af0137e3f0aa5b2ad59,12,0,2024-02-27T11:27:58.664Z,french_779.wav,0,pull,1135,34,5,5,français,f,2,0.2,-1.63971334,0.66760831
61325af0137e3f0aa5b2ad59,12,0,2024-02-27T11:27:58.664Z,french_779.wav,0,pull,1135,34,5,5,français,f,3,0.3,-13.00341001,1.70247529
61325af0137e3f0aa5b2ad59,12,0,2024-02-27T11:27:58.664Z,french_779.wav,0,pull,1135,34,5,5,français,f,4,0.4,-18.58635516,0.17241517
61325af0137e3f0aa5b2ad59,12,0,2024-02-27T11:27:58.664Z,french_779.wav,0,pull,1135,34,5,5,français,f,5,0.5,-89.98694193,1.76793656
61325af0137e3f0aa5b2ad59,12,0,2024-02-27T11:27:58.664Z,french_779.wav,0,pull,1135,34,5,5,français,f,6,0.6,92.32758461,1.36679993
61325af0137e3f0aa5b2ad59,12,0,2024-02-27T11:27:58.664Z,french_779.wav,0,pull,1135,34,5,5,français,f,7,0.7,-57.54469246,0.7012445
61325af0137e3f0aa5b2ad59,12,0,2024-02-27T11:27:58.664Z,french_779.wav,0,pull,1135,34,5,5,français,f,8,0.8,-77.17429957,1.36817327
61325af0137e3f0aa5b2ad59,12,0,2024-02-27T11:27:58.664Z,french_779.wav,0,pull,1135,34,5,5,français,f,9,0.9,-5.46434537,0.41680341
61325af0137e3f0aa5b2ad59,12,0,2024-02-27T11:27:58.664Z,french_779.wav,0,pull,1135,34,5,5,français,f,10,1.0,-18.50514079,0.28529805
61325af0137e3f0aa5b2ad59,12,0,2024-02-27T11:27:58.664Z,french_779.wav,0,pull,1135,34,5,5,français,f,11,1.1,-7.2649165,1.0076311
61325af0137e3f0aa5b2ad59,12,0,2024-02-27T11:27:58.664Z,french_779.wav,0,pull,1135,34,5,5,français,f,12,1.14141667,-3.97761041,1.26738641
61325af0137e3f0aa5b2ad59,13,0,2024-02-27T11:27:58.664Z,french_223.wav,0,poule,953,34,5,5,français,f,0,0.0,64.43568115,0.4833355
61325af0137e3f0aa5b2ad59,13,0,2024-02-27T11:27:58.664Z,french_223.wav,0,poule,953,34,5,5,français,f,1,0.1,77.28311868,1.08365863
61325af0137e3f0aa5b2ad59,13,0,2024-02-27T11:27:58.664Z,french_223.wav,0,poule,953,34,5,5,français,f,2,0.2,-15.8404347,1.52438888
61325af0137e3f0aa5b2ad59,13,0,2024-02-27T11:27:58.664Z,french_223.wav,0,poule,953,34,5,5,français,f,3,0.3,-15.56416552,1.1894603
61325af0137e3f0aa5b2ad59,13,0,2024-02-27T11:27:58.664Z,french_223.wav,0,poule,953,34,5,5,français,f,4,0.4,-48.39280877,1.68663673
61325af0137e3f0aa5b2ad59,13,0,2024-02-27T11:27:58.664Z,french_223.wav,0,poule,953,34,5,5,français,f,5,0.5,-47.32748788,0.66067992
61325af0137e3f0aa5b2ad59,13,0,2024-02-27T11:27:58.664Z,french_223.wav,0,poule,953,34,5,5,français,f,6,0.6,-74.31506907,0.19909573
61325af0137e3f0aa5b2ad59,13,0,2024-02-27T11:27:58.664Z,french_223.wav,0,poule,953,34,5,5,français,f,7,0.7,47.50066871,1.00007806
61325af0137e3f0aa5b2ad59,13,0,2024-02-27T11:27:58.664Z,french_223.wav,0,poule,953,34,5,5,français,f,8,0.8,38.75008391,1.63203338
61325af0137e3f0aa5b2ad59,13,0,2024-02-27T11:27:58.664Z,french_223.wav,0,poule,953,34,5,5,français,f,9,0.9,-13.12092782,1.00722694
61325af0137e3f0aa5b2ad59,13,0,2024-02-27T11:27:58.664Z,french_223.wav,0,poule,953,34,5,5,français,f,10,1.0,63.85572142,1.61081016
61325af0137e3f0aa5b2ad59,13,0,2024-02-27T11:27:58.664Z,french_223.wav,0,poule,953,34,5,5,français,f,11,1.1,54.84841305,1.64055646
61325af0137e3f0aa5b2ad59,13,0,2024-02-27T11:27:58.664Z,french_223.wav,0,poule,953,34,5,5,français,f,12,1.14141667,-49.01629095,0.73014079
61325af0137e3f0aa5b2ad59,14,0,2024-02-27T11:27:58.664Z,french_82.wav,0,pull,892,34,5,5,français,f,0,0.0,72.0977367,1.01696947
61325af0137e3f0aa5b2ad59,14,0,2024-02-27T11:27:58.664Z,french_82.wav,0,pull,892,34,5,5,français,f,1,0.1,13.70688001,1.97290743
61325af0137e3f0aa5b2ad59,14,0,2024-02-27T11:27:58.664Z,french_82.wav,0,pull,892,34,5,5,français,f,2,0.2,12.2114914,0.08873669
61325af0137e3f0aa5b2ad59,14,0,2024-02-27T11:27:58.664Z,french_82.wav,0,pull,892,34,5,5,français,f,3,0.3,-69.04637283,1.89535476
61325af0137e3f0aa5b2ad59,14,0,2024-02-27T11:27:58.664Z,french_82.wav,0,pull,892,34,5,5,français,f,4,0.4,51.39319656,0.09685831
61325af0137e3f0aa5b2ad59,14,0,2024-02-27T11:27:58.664Z,french_82.wav,0,pull,892,34,5,5,français,f,5,0.5,47.88063171,0.48800994
61325af0137e3f0aa5b2ad59,14,0,2024-02-27T11:27:58.664Z,french_82.wav,0,pull,892,34,5,5,français,f,6,0.6,22.68060335,1.51769172
61325af0137e3f0aa5b2ad59,14,0,2024-02-27T11:27:58.664Z,french_82.wav,0,pull,892,34,5,5,français,f,7,0.7,43.54036569,0.60661005
61325af0137e3f0aa5b2ad59,14,0,2024-02-27T11:27:58.664Z,french_82.wav,0,pull,892,34,5,5,français,f,8,0.8,-1.40002238,0.807753
61325af0137e3f0aa5b2ad59,14,0,2024-02-27T11:27:58.664Z,french_82.wav,0,pull,892,34,5,5,français,f,9,0.9,-44.69291662,1.80168033
61325af0137e3f0aa5b2ad59,14,0,2024-02-27T11:27:58.664Z,french_82.wav,0,pull,892,34,5,5,français,f,10,1.0,-80.67967911,1.61964295
61325af0137e3f0aa5b2ad59,14,0,2024-02-27T11:27:58.664Z,french_82.wav,0,pull,892,34,5,5,français,f,11,1.1,-40.96891049,1.99449381
61325af0137e3f0aa5b2ad59,14,0,2024-02-27T11:27:58.664Z,french_82.wav,0,pull,892,34,5,5,français,f,12,1.14141667,-20.90276353,0.77383177
61325af0137e3f0aa5b2ad59,15,0,2024-02-27T11:27:58.664Z,french_175.wav,0,poule,4879,34,5,5,français,f,0,0.0,-86.0971082,0.20418882
61325af0137e3f0aa5b2ad59,15,0,2024-02-27T11:27:58.664Z,french_175.wav,0,poule,4879,34,5,5,français,f,1,0.1,-2.3053728,1.54727449
61325af0137e3f0aa5b2ad59,15,0,2024-02-27T11:27:58.664Z,french_175.wav,0,poule,4879,34,5,5,français,f,2,0.2,91.03775422,0.94711427
61325af0137e3f0aa5b2ad59,15,0,2024-02-27T11:27:58.664Z,french_175.wav,0,poule,4879,34,5,5,français,f,3,0.3,-72.92322202,0.51689232
61325af0137e3f0aa5b2ad59,15,0,2024-02-27T11:27:58.664Z,french_175.wav,0,poule,4879,34,5,5,français,f,4,0.4,19.26304209,1.57615447
61325af0137e3f0aa5b2ad59,15,0,2024-02-27T11:27:58.664Z,french_175.wav,0,poule,4879,34,5,5,français,f,5,0.5,22.762125,1.15863709
61325af0137e3f0aa5b2ad59,15,0,2024-02-27T11:27:58.664Z,french_175.wav,0,poule,4879,34,5,5,français,f,6,0.6,89.08499151,1.47271781
61325af0137e3f0aa5b2ad59,15,0,2024-02-27T11:27:58.664Z,french_175.wav,0,poule,4879,34,5,5,français,f,7,0.7,30.86228211,1.58184422
61325af0137e3f0aa5b2ad59,15,0,2024-02-27T11:27:58.664Z,french_175.wav,0,poule,4879,34,5,5,français,f,8,0.8,-20.38362491,1.71939633
61325af0137e3f0aa5b2ad59,15,0,2024-02-27T11:27:58.664Z,french_175.wav,0,poule,4879,34,5,5,français,f,9,0.9,30.33990578,1.50494596
61325af0137e3f0aa5b2ad59,15,0,2024-02-27T11:27:58.664Z,french_175.wav,0,poule,4879,34,5,5,français,f,10,1.0,40.44951768,0.66724973
61325af0137e3f0aa5b2ad59,15,0,2024-02-27T11:27:58.664Z,french_175.wav,0,poule,4879,34,5,5,français,f,11,1.1,-74.03551827,1.94775923
61325af0137e3f0aa5b2ad59,15,0,2024-02-27T11:27:58.664Z,french_175.wav,0,poule,4879,34,5,5,français,f,12,1.14141667,8.34335903,1.32591679
61325af0137e3f0aa5b2ad59,16,0,2024-02-27T11:27:58.664Z,french_785.wav,0,pull,2351,34,5,5,français,f,0,0.0,31.0161768,1.90021395
61325af0137e3f0aa5b2ad59,16,0,2024-02-27T11:27:58.664Z,french_785.wav,0,pull,2351,34,5,5,français,f,1,0.1,0.0889317705,0.95233189
61325af0137e3f0aa5b2ad59,16,0,2024-02-27T11:27:58.664Z,french_785.wav,0,pull,2351,34,5,5,français,f,2,0.2,46.8782722,1.49745041
61325af0137e3f0aa5b2ad59,16,0,2024-02-27T11:27:58.664Z,french_785.wav,0,pull,2351,34,5,5,français,f,3,0.3,20.2217261,1.87832474
61325af0137e3f0aa5b2ad59,16,0,2024-02-27T11:27:58.664Z,french_785.wav,0,pull,2351,34,5,5,français,f,4,0.4,-75.3235401,0.82836314
61325af0137e3f0aa5b2ad59,16,0,2024-02-27T11:27:58.664Z,french_785.wav,0,pull,2351,34,5,5,français,f,5,0.5,-43.9350846,1.74071043
61325af0137e3f0aa5b2ad59,16,0,2024-02-27T11:27:58.664Z,french_785.wav,0,pull,2351,34,5,5,français,f,6,0.6,-25.4763074,0.83584892
61325af0137e3f0aa5b2ad59,16,0,2024-02-27T11:27:58.664Z,french_785.wav,0,pull,2351,34,5,5,français,f,7,0.7,57.0842413,0.40885784
61325af0137e3f0aa5b2ad59,16,0,2024-02-27T11:27:58.664Z,french_785.wav,0,pull,2351,34,5,5,français,f,8,0.8,-10.8459606,0.0344692
61325af0137e3f0aa5b2ad59,16,0,2024-02-27T11:27:58.664Z,french_785.wav,0,pull,2351,34,5,5,français,f,9,0.9,34.0534095,0.38075821
61325af0137e3f0aa5b2ad59,16,0,2024-02-27T11:27:58.664Z,french_785.wav,0,pull,2351,34,5,5,français,f,10,1.0,-48.9572729,0.97802108
61325af0137e3f0aa5b2ad59,16,0,2024-02-27T11:27:58.664Z,french_785.wav,0,pull,2351,34,5,5,français,f,11,1.1,41.6078861,1.78850331
61325af0137e3f0aa5b2ad59,16,0,2024-02-27T11:27:58.664Z,french_785.wav,0,pull,2351,34,5,5,français,f,12,1.14141667,89.2588617,0.64465129
61325af0137e3f0aa5b2ad59,17,0,2024-02-27T11:27:58.664Z,french_281.wav,0,poule,750,34,5,5,français,f,0,0.0,-95.80336327,0.76183862
61325af0137e3f0aa5b2ad59,17,0,2024-02-27T11:27:58.664Z,french_281.wav,0,poule,750,34,5,5,français,f,1,0.1,13.19102034,1.51704684
61325af0137e3f0aa5b2ad59,17,0,2024-02-27T11:27:58.664Z,french_281.wav,0,poule,750,34,5,5,français,f,2,0.2,42.62860053,0.9408124
61325af0137e3f0aa5b2ad59,17,0,2024-02-27T11:27:58.664Z,french_281.wav,0,poule,750,34,5,5,français,f,3,0.3,21.92016727,0.14797413
61325af0137e3f0aa5b2ad59,17,0,2024-02-27T11:27:58.664Z,french_281.wav,0,poule,750,34,5,5,français,f,4,0.4,-2.97694346,0.97581102
61325af0137e3f0aa5b2ad59,17,0,2024-02-27T11:27:58.664Z,french_281.wav,0,poule,750,34,5,5,français,f,5,0.5,-3.56004014,0.67546432
61325af0137e3f0aa5b2ad59,17,0,2024-02-27T11:27:58.664Z,french_281.wav,0,poule,750,34,5,5,français,f,6,0.6,-28.69548466,0.35656679
61325af0137e3f0aa5b2ad59,17,0,2024-02-27T11:27:58.664Z,french_281.wav,0,poule,750,34,5,5,français,f,7,0.7,-9.16727504,1.28503381
61325af0137e3f0aa5b2ad59,17,0,2024-02-27T11:27:58.664Z,french_281.wav,0,poule,750,34,5,5,français,f,8,0.8,7.86062341,0.91616519
61325af0137e3f0aa5b2ad59,17,0,2024-02-27T11:27:58.664Z,french_281.wav,0,poule,750,34,5,5,français,f,9,0.9,-95.03668578,1.72740892
61325af0137e3f0aa5b2ad59,17,0,2024-02-27T11:27:58.664Z,french_281.wav,0,poule,750,34,5,5,français,f,10,1.0,-83.63952968,0.79466522
61325af0137e3f0aa5b2ad59,17,0,2024-02-27T11:27:58.664Z,french_281.wav,0,poule,750,34,5,5,français,f,11,1.1,74.11931798,0.92967992
61325af0137e3f0aa5b2ad59,17,0,2024-02-27T11:27:58.664Z,french_281.wav,0,poule,750,34,5,5,français,f,12,1.14141667,32.00428404,1.54385024
61325af0137e3f0aa5b2ad59,18,0,2024-02-27T11:27:58.664Z,french_928.wav,0,poule,1608,34,5,5,français,f,0,0.0,77.65399843,1.03949078
61325af0137e3f0aa5b2ad59,18,0,2024-02-27T11:27:58.664Z,french_928.wav,0,poule,1608,34,5,5,français,f,1,0.1,-97.72027015,1.92124203
61325af0137e3f0aa5b2ad59,18,0,2024-02-27T11:27:58.664Z,french_928.wav,0,poule,1608,34,5,5,français,f,2,0.2,15.0757151,1.05294339
61325af0137e3f0aa5b2ad59,18,0,2024-02-27T11:27:58.664Z,french_928.wav,0,poule,1608,34,5,5,français,f,3,0.3,15.26895504,0.59065495
61325af0137e3f0aa5b2ad59,18,0,2024-02-27T11:27:58.664Z,french_928.wav,0,poule,1608,34,5,5,français,f,4,0.4,92.50858123,1.60035035
61325af0137e3f0aa5b2ad59,18,0,2024-02-27T11:27:58.664Z,french_928.wav,0,poule,1608,34,5,5,français,f,5,0.5,65.09104424,1.36447781
61325af0137e3f0aa5b2ad59,18,0,2024-02-27T11:27:58.664Z,french_928.wav,0,poule,1608,34,5,5,français,f,6,0.6,-24.67043346,0.80047478
61325af0137e3f0aa5b2ad59,18,0,2024-02-27T11:27:58.664Z,french_928.wav,0,poule,1608,34,5,5,français,f,7,0.7,66.07550104,1.4779592
61325af0137e3f0aa5b2ad59,18,0,2024-02-27T11:27:58.664Z,french_928.wav,0,poule,1608,34,5,5,français,f,8,0.8,65.67415522,0.56691074
61325af0137e3f0aa5b2ad59,18,0,2024-02-27T11:27:58.664Z,french_928.wav,0,poule,1608,34,5,5,français,f,9,0.9,43.73911132,1.10790743
61325af0137e3f0aa5b2ad59,18,0,2024-02-27T11:27:58.664Z,french_928.wav,0,poule,1608,34,5,5,français,f,10,1.0,8.31494364,1.64403799
61325af0137e3f0aa5b2ad59,18,0,2024-02-27T11:27:58.664Z,french_928.wav,0,poule,1608,34,5,5,français,f,11,1.1,88.37046435,1.51641494
61325af0137e3f0aa5b2ad59,18,0,2024-02-27T11:27:58.664Z,french_928.wav,0,poule,1608,34,5,5,français,f,12,1.14141667,-13.7286056,1.14951782
61325af0137e3f0aa5b2ad59,19,0,2024-02-27T11:27:58.664Z,french_103.wav,0,poule,1532,34,5,5,français,f,0,0.0,2.91786926,0.93245286
61325af0137e3f0aa5b2ad59,19,0,2024-02-27T11:27:58.664Z,french_103.wav,0,poule,1532,34,5,5,français,f,1,0.1,23.30029005,0.22329417
61325af0137e3f0aa5b2ad59,19,0,2024-02-27T11:27:58.664Z,french_103.wav,0,poule,1532,34,5,5,français,f,2,0.2,28.01552046,0.96994087
61325af0137e3f0aa5b2ad59,19,0,2024-02-27T11:27:58.664Z,french_103.wav,0,poule,1532,34,5,5,français,f,3,0.3,-51.40874307,0.86608645
61325af0137e3f0aa5b2ad59,19,0,2024-02-27T11:27:58.664Z,french_103.wav,0,poule,1532,34,5,5,français,f,4,0.4,-99.21557126,1.27002085
61325af0137e3f0aa5b2ad59,19,0,2024-02-27T11:27:58.664Z,french_103.wav,0,poule,1532,34,5,5,français,f,5,0.5,19.84118939,0.69713375
61325af0137e3f0aa5b2ad59,19,0,2024-02-27T11:27:58.664Z,french_103.wav,0,poule,1532,34,5,5,français,f,6,0.6,-65.99225766,1.27865319
61325af0137e3f0aa5b2ad59,19,0,2024-02-27T11:27:58.664Z,french_103.wav,0,poule,1532,34,5,5,français,f,7,0.7,40.39751922,0.4711572
61325af0137e3f0aa5b2ad59,19,0,2024-02-27T11:27:58.664Z,french_103.wav,0,poule,1532,34,5,5,français,f,8,0.8,74.789965,1.04688334
61325af0137e3f0aa5b2ad59,19,0,2024-02-27T11:27:58.664Z,french_103.wav,0,poule,1532,34,5,5,français,f,9,0.9,-43.83163503,1.42282614
61325af0137e3f0aa5b2ad59,19,0,2024-02-27T11:27:58.664Z,french_103.wav,0,poule,1532,34,5,5,français,f,10,1.0,57.49015739,0.52926459
61325af0137e3f0aa5b2ad59,19,0,2024-02-27T11:27:58.664Z,french_103.wav,0,poule,1532,34,5,5,français,f,11,1.1,25.73775256,0.76349625
61325af0137e3f0aa5b2ad59,19,0,2024-02-27T11:27:58.664Z,french_103.wav,0,poule,1532,34,5,5,français,f,12,1.14141667,-31.20389674,0.16787847
61325af0137e3f0aa5b2ad59,20,0,2024-02-27T11:27:58.664Z,french_906.wav,0,pull,1756,34,5,5,français,f,0,0.0,94.19134076,1.81442497
61325af0137e3f0aa5b2ad59,20,0,2024-02-27T11:27:58.664Z,french_906.wav,0,pull,1756,34,5,5,français,f,1,0.1,-33.3914726,0.92341441
61325af0137e3f0aa5b2ad59,20,0,2024-02-27T11:27:58.664Z,french_906.wav,0,pull,1756,34,5,5,français,f,2,0.2,89.0954816,0.20593764
61325af0137e3f0aa5b2ad59,20,0,2024-02-27T11:27:58.664Z,french_906.wav,0,pull,1756,34,5,5,français,f,3,0.3,33.95372214,0.6664786
61325af0137e3f0aa5b2ad59,20,0,2024-02-27T11:27:58.664Z,french_906.wav,0,pull,1756,34,5,5,français,f,4,0.4,39.46652721,1.04326326
61325af0137e3f0aa5b2ad59,20,0,2024-02-27T11:27:58.664Z,french_906.wav,0,pull,1756,34,5,5,français,f,5,0.5,-59.34550424,1.00260981
61325af0137e3f0aa5b2ad59,20,0,2024-02-27T11:27:58.664Z,french_906.wav,0,pull,1756,34,5,5,français,f,6,0.6,82.89634223,1.70924615
61325af0137e3f0aa5b2ad59,20,0,2024-02-27T11:27:58.664Z,french_906.wav,0,pull,1756,34,5,5,français,f,7,0.7,65.83754994,1.32883795
61325af0137e3f0aa5b2ad59,20,0,2024-02-27T11:27:58.664Z,french_906.wav,0,pull,1756,34,5,5,français,f,8,0.8,79.03979174,1.05343215
61325af0137e3f0aa5b2ad59,20,0,2024-02-27T11:27:58.664Z,french_906.wav,0,pull,1756,34,5,5,français,f,9,0.9,-5.26869148,0.85234764
61325af0137e3f0aa5b2ad59,20,0,2024-02-27T11:27:58.664Z,french_906.wav,0,pull,1756,34,5,5,français,f,10,1.0,-11.60722286,0.70456839
61325af0137e3f0aa5b2ad59,20,0,2024-02-27T11:27:58.664Z,french_906.wav,0,pull,1756,34,5,5,français,f,11,1.1,-90.04101612,0.28255596
61325af0137e3f0aa5b2ad59,20,0,2024-02-27T11:27:58.664Z,french_906.wav,0,pull,1756,34,5,5,français,f,12,1.14141667,92.05953945,1.51531647
61325af0137e3f0aa5b2ad59,21,0,2024-02-27T11:27:58.664Z,french_504.wav,0,pull,1331,34,5,5,français,f,0,0.0,-41.82140768,1.84770239
61325af0137e3f0aa5b2ad59,21,0,2024-02-27T11:27:58.664Z,french_504.wav,0,pull,1331,34,5,5,français,f,1,0.1,97.07530933,0.49171838
61325af0137e3f0aa5b2ad59,21,0,2024-02-27T11:27:58.664Z,french_504.wav,0,pull,1331,34,5,5,français,f,2,0.2,61.02388002,0.47472033
61325af0137e3f0aa5b2ad59,21,0,2024-02-27T11:27:58.664Z,french_504.wav,0,pull,1331,34,5,5,français,f,3,0.3,-27.18611965,1.44367117
61325af0137e3f0aa5b2ad59,21,0,2024-02-27T11:27:58.664Z,french_504.wav,0,pull,1331,34,5,5,français,f,4,0.4,-58.17917059,0.04505535
61325af0137e3f0aa5b2ad59,21,0,2024-02-27T11:27:58.664Z,french_504.wav,0,pull,1331,34,5,5,français,f,5,0.5,9.56156567,0.75389127
61325af0137e3f0aa5b2ad59,21,0,2024-02-27T11:27:58.664Z,french_504.wav,0,pull,1331,34,5,5,français,f,6,0.6,98.52665159,1.37136318
61325af0137e3f0aa5b2ad59,21,0,2024-02-27T11:27:58.664Z,french_504.wav,0,pull,1331,34,5,5,français,f,7,0.7,98.98825478,0.89733916
61325af0137e3f0aa5b2ad59,21,0,2024-02-27T11:27:58.664Z,french_504.wav,0,pull,1331,34,5,5,français,f,8,0.8,94.82792761,1.83341516
61325af0137e3f0aa5b2ad59,21,0,2024-02-27T11:27:58.664Z,french_504.wav,0,pull,1331,34,5,5,français,f,9,0.9,75.17568326,0.71992929
61325af0137e3f0aa5b2ad59,21,0,2024-02-27T11:27:58.664Z,french_504.wav,0,pull,1331,34,5,5,français,f,10,1.0,-46.15164739,0.35031196
61325af0137e3f0aa5b2ad59,21,0,2024-02-27T11:27:58.664Z,french_504.wav,0,pull,1331,34,5,5,français,f,11,1.1,73.71983811,0.61578475
61325af0137e3f0aa5b2ad59,21,0,2024-02-27T11:27:58.664Z,french_504.wav,0,pull,1331,34,5,5,français,f,12,1.14141667,48.12743652,0.73246634
61325af0137e3f0aa5b2ad59,22,0,2024-02-27T11:27:58.664Z,french_592.wav,0,poule,1067,34,5,5,français,f,0,0.0,70.81103316,0.54665666
61325af0137e3f0aa5b2ad59,22,0,2024-02-27T11:27:58.664Z,french_592.wav,0,poule,1067,34,5,5,français,f,1,0.1,-26.4080383,0.88508354
61325af0137e3f0aa5b2ad59,22,0,2024-02-27T11:27:58.664Z,french_592.wav,0,poule,1067,34,5,5,français,f,2,0.2,-0.21646814,1.19588417
61325af0137e3f0aa5b2ad59,22,0,2024-02-27T11:27:58.664Z,french_592.wav,0,poule,1067,34,5,5,français,f,3,0.3,5.07209888,0.17214274
61325af0137e3f0aa5b2ad59,22,0,2024-02-27T11:27:58.664Z,french_592.wav,0,poule,1067,34,5,5,français,f,4,0.4,0.60727661,0.84375355
61325af0137e3f0aa5b2ad59,22,0,2024-02-27T11:27:58.664Z,french_592.wav,0,poule,1067,34,5,5,français,f,5,0.5,-4.25807997,1.80777341
61325af0137e3f0aa5b2ad59,22,0,2024-02-27T11:27:58.664Z,french_592.wav,0,poule,1067,34,5,5,français,f,6,0.6,-57.11909805,0.71388549
61325af0137e3f0aa5b2ad59,22,0,2024-02-27T11:27:58.664Z,french_592.wav,0,poule,1067,34,5,5,français,f,7,0.7,-40.92130442,1.31000832
61325af0137e3f0aa5b2ad59,22,0,2024-02-27T11:27:58.664Z,french_592.wav,0,poule,1067,34,5,5,français,f,8,0.8,57.21863493,0.43276947
61325af0137e3f0aa5b2ad59,22,0,2024-02-27T11:27:58.664Z,french_592.wav,0,poule,1067,34,5,5,français,f,9,0.9,70.04761432,1.73827866
61325af0137e3f0aa5b2ad59,22,0,2024-02-27T11:27:58.664Z,french_592.wav,0,poule,1067,34,5,5,français,f,10,1.0,-50.9301359,0.70932726
61325af0137e3f0aa5b2ad59,22,0,2024-02-27T11:27:58.664Z,french_592.wav,0,poule,1067,34,5,5,français,f,11,1.1,-84.24132436,0.23430707
61325af0137e3f0aa5b2ad59,22,0,2024-02-27T11:27:58.664Z,french_592.wav,0,poule,1067,34,5,5,français,f,12,1.14141667,-46.29341041,1.11453021
61325af0137e3f0aa5b2ad59,23,0,2024-02-27T11:27:58.664Z,french_552.wav,0,poule,3088,34,5,5,français,f,0,0.0,-27.97286864,0.83019058
61325af0137e3f0aa5b2ad59,23,0,2024-02-27T11:27:58.664Z,french_552.wav,0,poule,3088,34,5,5,français,f,1,0.1,82.34355776,0.63707458
61325af0137e3f0aa5b2ad59,23,0,2024-02-27T11:27:58.664Z,french_552.wav,0,poule,3088,34,5,5,français,f,2,0.2,75.72258463,1.55031703
61325af0137e3f0aa5b2ad59,23,0,2024-02-27T11:27:58.664Z,french_552.wav,0,poule,3088,34,5,5,français,f,3,0.3,44.47191759,0.7768572
61325af0137e3f0aa5b2ad59,23,0,2024-02-27T11:27:58.664Z,french_552.wav,0,poule,3088,34,5,5,français,f,4,0.4,60.8877637,0.18510724
61325af0137e3f0aa5b2ad59,23,0,2024-02-27T11:27:58.664Z,french_552.wav,0,poule,3088,34,5,5,français,f,5,0.5,10.82391156,1.0788321
61325af0137e3f0aa5b2ad59,23,0,2024-02-27T11:27:58.664Z,french_552.wav,0,poule,3088,34,5,5,français,f,6,0.6,-58.65109875,1.31682618
61325af0137e3f0aa5b2ad59,23,0,2024-02-27T11:27:58.664Z,french_552.wav,0,poule,3088,34,5,5,français,f,7,0.7,20.27200832,0.72729944
61325af0137e3f0aa5b2ad59,23,0,2024-02-27T11:27:58.664Z,french_552.wav,0,poule,3088,34,5,5,français,f,8,0.8,3.52627908,1.27092013
61325af0137e3f0aa5b2ad59,23,0,2024-02-27T11:27:58.664Z,french_552.wav,0,poule,3088,34,5,5,français,f,9,0.9,-45.99634136,1.15426896
61325af0137e3f0aa5b2ad59,23,0,2024-02-27T11:27:58.664Z,french_552.wav,0,poule,3088,34,5,5,français,f,10,1.0,-70.74863326,1.45798892
61325af0137e3f0aa5b2ad59,23,0,2024-02-27T11:27:58.664Z,french_552.wav,0,poule,3088,34,5,5,français,f,11,1.1,34.69877099,1.33628297
61325af0137e3f0aa5b2ad59,23,0,2024-02-27T11:27:58.664Z,french_552.wav,0,poule,3088,34,5,5,français,f,12,1.14141667,60.86659865,1.63737837
61325af0137e3f0aa5b2ad59,24,0,2024-02-27T11:27:58.664Z,french_597.wav,0,poule,2545,34,5,5,français,f,0,0.0,3.81117618,0.64425147
61325af0137e3f0aa5b2ad59,24,0,2024-02-27T11:27:58.664Z,french_597.wav,0,poule,2545,34,5,5,français,f,1,0.1,1.65290583,1.80851034
61325af0137e3f0aa5b2ad59,24,0,2024-02-27T11:27:58.664Z,french_597.wav,0,poule,2545,34,5,5,français,f,2,0.2,75.20334273,0.13064714
61325af0137e3f0aa5b2ad59,24,0,2024-02-27T11:27:58.664Z,french_597.wav,0,poule,2545,34,5,5,français,f,3,0.3,-31.80520796,1.14595158
61325af0137e3f0aa5b2ad59,24,0,2024-02-27T11:27:58.664Z,french_597.wav,0,poule,2545,34,5,5,français,f,4,0.4,47.06388339,1.20714689
61325af0137e3f0aa5b2ad59,24,0,2024-02-27T11:27:58.664Z,french_597.wav,0,poule,2545,34,5,5,français,f,5,0.5,-12.18502222,1.21300166
61325af0137e3f0aa5b2ad59,24,0,2024-02-27T11:27:58.664Z,french_597.wav,0,poule,2545,34,5,5,français,f,6,0.6,16.00653048,1.59786204
61325af0137e3f0aa5b2ad59,24,0,2024-02-27T11:27:58.664Z,french_597.wav,0,poule,2545,34,5,5,français,f,7,0.7,-1.06509013,1.5777009
61325af0137e3f0aa5b2ad59,24,0,2024-02-27T11:27:58.664Z,french_597.wav,0,poule,2545,34,5,5,français,f,8,0.8,-88.67460342,1.85046757
61325af0137e3f0aa5b2ad59,24,0,2024-02-27T11:27:58.664Z,french_597.wav,0,poule,2545,34,5,5,français,f,9,0.9,79.23096379,0.15850725
61325af0137e3f0aa5b2ad59,24,0,2024-02-27T11:27:58.664Z,french_597.wav,0,poule,2545,34,5,5,français,f,10,1.0,-37.6385831,0.67581982
61325af0137e3f0aa5b2ad59,24,0,2024-02-27T11:27:58.664Z,french_597.wav,0,poule,2545,34,5,5,français,f,11,1.1,-82.3453721,0.97379481
61325af0137e3f0aa5b2ad59,24,0,2024-02-27T11:27:58.664Z,french_597.wav,0,poule,2545,34,5,5,français,f,12,1.14141667,50.39965119,1.28226838
61325af0137e3f0aa5b2ad59,25,0,2024-02-27T11:27:58.664Z,french_841.wav,0,pull,2086,34,5,5,français,f,0,0.0,24.99093095,0.83229965
61325af0137e3f0aa5b2ad59,25,0,2024-02-27T11:27:58.664Z,french_841.wav,0,pull,2086,34,5,5,français,f,1,0.1,19.20045888,0.93912689
61325af0137e3f0aa5b2ad59,25,0,2024-02-27T11:27:58.664Z,french_841.wav,0,pull,2086,34,5,5,français,f,2,0.2,-88.34968649,0.70963574
61325af0137e3f0aa5b2ad59,25,0,2024-02-27T11:27:58.664Z,french_841.wav,0,pull,2086,34,5,5,français,f,3,0.3,95.66802837,1.76222683
61325af0137e3f0aa5b2ad59,25,0,2024-02-27T11:27:58.664Z,french_841.wav,0,pull,2086,34,5,5,français,f,4,0.4,0.50486689,1.37113042
61325af0137e3f0aa5b2ad59,25,0,2024-02-27T11:27:58.664Z,french_841.wav,0,pull,2086,34,5,5,français,f,5,0.5,-15.49480604,0.74699954
61325af0137e3f0aa5b2ad59,25,0,2024-02-27T11:27:58.664Z,french_841.wav,0,pull,2086,34,5,5,français,f,6,0.6,-6.74027916,1.70894308
61325af0137e3f0aa5b2ad59,25,0,2024-02-27T11:27:58.664Z,french_841.wav,0,pull,2086,34,5,5,français,f,7,0.7,-26.50511795,1.40997401
61325af0137e3f0aa5b2ad59,25,0,2024-02-27T11:27:58.664Z,french_841.wav,0,pull,2086,34,5,5,français,f,8,0.8,-55.94751294,0.13803427
61325af0137e3f0aa5b2ad59,25,0,2024-02-27T11:27:58.664Z,french_841.wav,0,pull,2086,34,5,5,français,f,9,0.9,56.14082099,0.58598043
61325af0137e3f0aa5b2ad59,25,0,2024-02-27T11:27:58.664Z,french_841.wav,0,pull,2086,34,5,5,français,f,10,1.0,32.57761441,0.41847332
61325af0137e3f0aa5b2ad59,25,0,2024-02-27T11:27:58.664Z,french_841.wav,0,pull,2086,34,5,5,français,f,11,1.1,11.18785831,0.36003965
61325af0137e3f0aa5b2ad59,25,0,2024-02-27T11:27:58.664Z,french_841.wav,0,pull,2086,34,5,5,français,f,12,1.14141667,20.73461672,1.14123964
61325af0137e3f0aa5b2ad59,26,0,2024-02-27T11:27:58.664Z,french_943.wav,0,poule,2211,34,5,5,français,f,0,0.0,-39.69174356,1.76181843
61325af0137e3f0aa5b2ad59,26,0,2024-02-27T11:27:58.664Z,french_943.wav,0,poule,2211,34,5,5,français,f,1,0.1,9.71823043,0.25866572
61325af0137e3f0aa5b2ad59,26,0,2024-02-27T11:27:58.664Z,french_943.wav,0,poule,2211,34,5,5,français,f,2,0.2,47.82156503,1.61194964
61325af0137e3f0aa5b2ad59,26,0,2024-02-27T11:27:58.664Z,french_943.wav,0,poule,2211,34,5,5,français,f,3,0.3,-70.45683827,1.00408981
61325af0137e3f0aa5b2ad59,26,0,2024-02-27T11:27:58.664Z,french_943.wav,0,poule,2211,34,5,5,français,f,4,0.4,-70.36375892,1.40275429
61325af0137e3f0aa5b2ad59,26,0,2024-02-27T11:27:58.664Z,french_943.wav,0,poule,2211,34,5,5,français,f,5,0.5,-78.09117144,0.47534453
61325af0137e3f0aa5b2ad59,26,0,2024-02-27T11:27:58.664Z,french_943.wav,0,poule,2211,34,5,5,français,f,6,0.6,43.3001696,1.96075546
61325af0137e3f0aa5b2ad59,26,0,2024-02-27T11:27:58.664Z,french_943.wav,0,poule,2211,34,5,5,français,f,7,0.7,27.56713446,0.78248667
61325af0137e3f0aa5b2ad59,26,0,2024-02-27T11:27:58.664Z,french_943.wav,0,poule,2211,34,5,5,français,f,8,0.8,54.98161832,1.42706625
61325af0137e3f0aa5b2ad59,26,0,2024-02-27T11:27:58.664Z,french_943.wav,0,poule,2211,34,5,5,français,f,9,0.9,-79.78278868,0.63840216
61325af0137e3f0aa5b2ad59,26,0,2024-02-27T11:27:58.664Z,french_943.wav,0,poule,2211,34,5,5,français,f,10,1.0,66.03849917,0.77310904
61325af0137e3f0aa5b2ad59,26,0,2024-02-27T11:27:58.664Z,french_943.wav,0,poule,2211,34,5,5,français,f,11,1.1,-45.24869993,1.03848478
61325af0137e3f0aa5b2ad59,26,0,2024-02-27T11:27:58.664Z,french_943.wav,0,poule,2211,34,5,5,français,f,12,1.14141667,-78.78234865,0.62693219
61325af0137e3f0aa5b2ad59,27,0,2024-02-27T11:27:58.664Z,french_774.wav,0,pull,3067,34,5,5,français,f,0,0.0,9.83885445,1.49989175
61325af0137e3f0aa5b2ad59,27,0,2024-02-27T11:27:58.664Z,french_774.wav,0,pull,3067,34,5,5,français,f,1,0.1,-98.61163295,1.44348715
61325af0137e3f0aa5b2ad59,27,0,2024-02-27T11:27:58.664Z,french_774.wav,0,pull,3067,34,5,5,français,f,2,0.2,-53.0003268,1.64880248
61325af0137e3f0aa5b2ad59,27,0,2024-02-27T11:27:58.664Z,french_774.wav,0,pull,3067,34,5,5,français,f,3,0.3,67.55233727,0.01819088
61325af0137e3f0aa5b2ad59,27,0,2024-02-27T11:27:58.664Z,french_774.wav,0,pull,3067,34,5,5,français,f,4,0.4,-25.70793796,1.11963974
61325af0137e3f0aa5b2ad59,27,0,2024-02-27T11:27:58.664Z,french_774.wav,0,pull,3067,34,5,5,français,f,5,0.5,92.0831493,1.57052563
61325af0137e3f0aa5b2ad59,27,0,2024-02-27T11:27:58.664Z,french_774.wav,0,pull,3067,34,5,5,français,f,6,0.6,54.58794218,1.49268288
61325af0137e3f0aa5b2ad59,27,0,2024-02-27T11:27:58.664Z,french_774.wav,0,pull,3067,34,5,5,français,f,7,0.7,-99.7650473,0.54873159
61325af0137e3f0aa5b2ad59,27,0,2024-02-27T11:27:58.664Z,french_774.wav,0,pull,3067,34,5,5,français,f,8,0.8,38.64749518,0.90006733
61325af0137e3f0aa5b2ad59,27,0,2024-02-27T11:27:58.664Z,french_774.wav,0,pull,3067,34,5,5,français,f,9,0.9,80.65889942,0.38923512
61325af0137e3f0aa5b2ad59,27,0,2024-02-27T11:27:58.664Z,french_774.wav,0,pull,3067,34,5,5,français,f,10,1.0,6.94619559,0.33656127
61325af0137e3f0aa5b2ad59,27,0,2024-02-27T11:27:58.664Z,french_774.wav,0,pull,3067,34,5,5,français,f,11,1.1,36.40208287,1.29679542
61325af0137e3f0aa5b2ad59,27,0,2024-02-27T11:27:58.664Z,french_774.wav,0,pull,3067,34,5,5,français,f,12,1.14141667,-33.4860138,0.33566792
61325af0137e3f0aa5b2ad59,28,0,2024-02-27T11:27:58.664Z,french_476.wav,0,poule,1503,34,5,5,français,f,0,0.0,2.7094507,1.35860471
61325af0137e3f0aa5b2ad59,28,0,2024-02-27T11:27:58.664Z,french_476.wav,0,poule,1503,34,5,5,français,f,1,0.1,-87.7280692,0.99732338
61325af0137e3f0aa5b2ad59,28,0,2024-02-27T11:27:58.664Z,french_476.wav,0,poule,1503,34,5,5,français,f,2,0.2,73.10097617,0.39475379
61325af0137e3f0aa5b2ad59,28,0,2024-02-27T11:27:58.664Z,french_476.wav,0,poule,1503,34,5,5,français,f,3,0.3,-39.94037221,1.23972907
61325af0137e3f0aa5b2ad59,28,0,2024-02-27T11:27:58.664Z,french_476.wav,0,poule,1503,34,5,5,français,f,4,0.4,-70.77067891,1.89359737
61325af0137e3f0aa5b2ad59,28,0,2024-02-27T11:27:58.664Z,french_476.wav,0,poule,1503,34,5,5,français,f,5,0.5,-69.51890588,1.35568455
61325af0137e3f0aa5b2ad59,28,0,2024-02-27T11:27:58.664Z,french_476.wav,0,poule,1503,34,5,5,français,f,6,0.6,14.97450783,0.10717939
61325af0137e3f0aa5b2ad59,28,0,2024-02-27T11:27:58.664Z,french_476.wav,0,poule,1503,34,5,5,français,f,7,0.7,11.8314824,1.73146134
61325af0137e3f0aa5b2ad59,28,0,2024-02-27T11:27:58.664Z,french_476.wav,0,poule,1503,34,5,5,français,f,8,0.8,-94.87528551,1.80986266
61325af0137e3f0aa5b2ad59,28,0,2024-02-27T11:27:58.664Z,french_476.wav,0,poule,1503,34,5,5,français,f,9,0.9,-47.21116186,0.67970101
61325af0137e3f0aa5b2ad59,28,0,2024-02-27T11:27:58.664Z,french_476.wav,0,poule,1503,34,5,5,français,f,10,1.0,77.98956327,0.57105332
61325af0137e3f0aa5b2ad59,28,0,2024-02-27T11:27:58.664Z,french_476.wav,0,poule,1503,34,5,5,français,f,11,1.1,27.75596283,0.99269413
61325af0137e3f0aa5b2ad59,28,0,2024-02-27T11:27:58.664Z,french_476.wav,0,poule,1503,34,5,5,français,f,12,1.14141667,-30.59689751,0.74836079
61325af0137e3f0aa5b2ad59,29,0,2024-02-27T11:27:58.664Z,french_8.wav,0,poule,1634,34,5,5,français,f,0,0.0,29.87385678,1.00961104
61325af0137e3f0aa5b2ad59,29,0,2024-02-27T11:27:58.664Z,french_8.wav,0,poule,1634,34,5,5,français,f,1,0.1,-3.65385888,0.57995768
61325af0137e3f0aa5b2ad59,29,0,2024-02-27T11:27:58.664Z,french_8.wav,0,poule,1634,34,5,5,français,f,2,0.2,20.76458152,0.32179014
61325af0137e3f0aa5b2ad59,29,0,2024-02-27T11:27:58.664Z,french_8.wav,0,poule,1634,34,5,5,français,f,3,0.3,-24.72434665,1.30213617
61325af0137e3f0aa5b2ad59,29,0,2024-02-27T11:27:58.664Z,french_8.wav,0,poule,1634,34,5,5,français,f,4,0.4,94.1074102,0.70211569
61325af0137e3f0aa5b2ad59,29,0,2024-02-27T11:27:58.664Z,french_8.wav,0,poule,1634,34,5,5,français,f,5,0.5,-73.60935749,1.57277834
61325af0137e3f0aa5b2ad59,29,0,2024-02-27T11:27:58.664Z,french_8.wav,0,poule,1634,34,5,5,français,f,6,0.6,79.05229915,0.53451743
61325af0137e3f0aa5b2ad59,29,0,2024-02-27T11:27:58.664Z,french_8.wav,0,poule,1634,34,5,5,français,f,7,0.7,-23.70127853,0.94827227
61325af0137e3f0aa5b2ad59,29,0,2024-02-27T11:27:58.664Z,french_8.wav,0,poule,1634,34,5,5,français,f,8,0.8,-24.8003351,0.73750596
61325af0137e3f0aa5b2ad59,29,0,2024-02-27T11:27:58.664Z,french_8.wav,0,poule,1634,34,5,5,français,f,9,0.9,-11.25394398,1.88096631
61325af0137e3f0aa5b2ad59,29,0,2024-02-27T11:27:58.664Z,french_8.wav,0,poule,1634,34,5,5,français,f,10,1.0,-86.90808114,1.57496214
61325af0137e3f0aa5b2ad59,29,0,2024-02-27T11:27:58.664Z,french_8.wav,0,poule,1634,34,5,5,français,f,11,1.1,19.56164583,1.34018823
61325af0137e3f0aa5b2ad59,29,0,2024-02-27T11:27:58.664Z,french_8.wav,0,poule,1634,34,5,5,français,f,12,1.14141667,97.75645862,0.99774717
61325af0137e3f0aa5b2ad59,30,0,2024-02-27T11:27:58.664Z,french_11.wav,0,poule,1127,34,5,5,français,f,0,0.0,-53.97722238,1.09610164
61325af0137e3f0aa5b2ad59,30,0,2024-02-27T11:27:58.664Z,french_11.wav,0,poule,1127,34,5,5,français,f,1,0.1,-31.21118385,0.22350944
61325af0137e3f0aa5b2ad59,30,0,2024-02-27T11:27:58.664Z,french_11.wav,0,poule,1127,34,5,5,français,f,2,0.2,-36.80951357,1.00123418
61325af0137e3f0aa5b2ad59,30,0,2024-02-27T11:27:58.664Z,french_11.wav,0,poule,1127,34,5,5,français,f,3,0.3,-95.45532381,0.87401162
61325af0137e3f0aa5b2ad59,30,0,2024-02-27T11:27:58.664Z,french_11.wav,0,poule,1127,34,5,5,français,f,4,0.4,58.15480481,0.20703956
61325af0137e3f0aa5b2ad59,30,0,2024-02-27T11:27:58.664Z,french_11.wav,0,poule,1127,34,5,5,français,f,5,0.5,71.015522,0.5150991
61325af0137e3f0aa5b2ad59,30,0,2024-02-27T11:27:58.664Z,french_11.wav,0,poule,1127,34,5,5,français,f,6,0.6,65.59713254,1.3674314
61325af0137e3f0aa5b2ad59,30,0,2024-02-27T11:27:58.664Z,french_11.wav,0,poule,1127,34,5,5,français,f,7,0.7,10.73762905,0.96376634
61325af0137e3f0aa5b2ad59,30,0,2024-02-27T11:27:58.664Z,french_11.wav,0,poule,1127,34,5,5,français,f,8,0.8,28.00448009,0.85790612
61325af0137e3f0aa5b2ad59,30,0,2024-02-27T11:27:58.664Z,french_11.wav,0,poule,1127,34,5,5,français,f,9,0.9,-7.76276887,1.59940673
61325af0137e3f0aa5b2ad59,30,0,2024-02-27T11:27:58.664Z,french_11.wav,0,poule,1127,34,5,5,français,f,10,1.0,39.23656931,0.40281071
61325af0137e3f0aa5b2ad59,30,0,2024-02-27T11:27:58.664Z,french_11.wav,0,poule,1127,34,5,5,français,f,11,1.1,-90.22036196,1.59018171
61325af0137e3f0aa5b2ad59,30,0,2024-02-27T11:27:58.664Z,french_11.wav,0,poule,1127,34,5,5,français,f,12,1.14141667,-39.83688041,1.67678977
61325af0137e3f0aa5b2ad59,31,0,2024-02-27T11:27:58.664Z,french_153.wav,0,pull,997,34,5,5,français,f,0,0.0,-42.01574029,0.84439614
61325af0137e3f0aa5b2ad59,31,0,2024-02-27T11:27:58.664Z,french_153.wav,0,pull,997,34,5,5,français,f,1,0.1,-90.00143585,0.44297776
61325af0137e3f0aa5b2ad59,31,0,2024-02-27T11:27:58.664Z,french_153.wav,0,pull,997,34,5,5,français,f,2,0.2,-43.7259183,0.69214518
61325af0137e3f0aa5b2ad59,31,0,2024-02-27T11:27:58.664Z,french_153.wav,0,pull,997,34,5,5,français,f,3,0.3,11.44022212,1.09273238
61325af0137e3f0aa5b2ad59,31,0,2024-02-27T11:27:58.664Z,french_153.wav,0,pull,997,34,5,5,français,f,4,0.4,88.748088,0.54928819
61325af0137e3f0aa5b2ad59,31,0,2024-02-27T11:27:58.664Z,french_153.wav,0,pull,997,34,5,5,français,f,5,0.5,-52.31400469,0.96507272
61325af0137e3f0aa5b2ad59,31,0,2024-02-27T11:27:58.664Z,french_153.wav,0,pull,997,34,5,5,français,f,6,0.6,87.18732736,1.56155988
61325af0137e3f0aa5b2ad59,31,0,2024-02-27T11:27:58.664Z,french_153.wav,0,pull,997,34,5,5,français,f,7,0.7,-86.03959727,1.86632658
61325af0137e3f0aa5b2ad59,31,0,2024-02-27T11:27:58.664Z,french_153.wav,0,pull,997,34,5,5,français,f,8,0.8,8.69100054,0.92278907
61325af0137e3f0aa5b2ad59,31,0,2024-02-27T11:27:58.664Z,french_153.wav,0,pull,997,34,5,5,français,f,9,0.9,62.86212057,0.59982574
61325af0137e3f0aa5b2ad59,31,0,2024-02-27T11:27:58.664Z,french_153.wav,0,pull,997,34,5,5,français,f,10,1.0,27.92700795,0.05271929
61325af0137e3f0aa5b2ad59,31,0,2024-02-27T11:27:58.664Z,french_153.wav,0,pull,997,34,5,5,français,f,11,1.1,39.59984074,0.68548108
61325af0137e3f0aa5b2ad59,31,0,2024-02-27T11:27:58.664Z,french_153.wav,0,pull,997,34,5,5,français,f,12,1.14141667,-14.92872681,1.34366794
61325af0137e3f0aa5b2ad59,32,0,2024-02-27T11:27:58.664Z,french_55.wav,0,poule,914,34,5,5,français,f,0,0.0,-70.28328368,1.42617491
61325af0137e3f0aa5b2ad59,32,0,2024-02-27T11:27:58.664Z,french_55.wav,0,poule,914,34,5,5,français,f,1,0.1,50.73292751,1.31979309
61325af0137e3f0aa5b2ad59,32,0,2024-02-27T11:27:58.664Z,french_55.wav,0,poule,914,34,5,5,français,f,2,0.2,-16.31236971,0.76251105
61325af0137e3f0aa5b2ad59,32,0,2024-02-27T11:27:58.664Z,french_55.wav,0,poule,914,34,5,5,français,f,3,0.3,-98.76766394,1.13142855
61325af0137e3f0aa5b2ad59,32,0,2024-02-27T11:27:58.664Z,french_55.wav,0,poule,914,34,5,5,français,f,4,0.4,-93.70290529,0.93708244
61325af0137e3f0aa5b2ad59,32,0,2024-02-27T11:27:58.664Z,french_55.wav,0,poule,914,34,5,5,français,f,5,0.5,16.78078951,0.78930631
61325af0137e3f0aa5b2ad59,32,0,2024-02-27T11:27:58.664Z,french_55.wav,0,poule,914,34,5,5,français,f,6,0.6,52.75208615,1.96633931
61325af0137e3f0aa5b2ad59,32,0,2024-02-27T11:27:58.664Z,french_55.wav,0,poule,914,34,5,5,français,f,7,0.7,70.61937301,0.79237353
61325af0137e3f0aa5b2ad59,32,0,2024-02-27T11:27:58.664Z,french_55.wav,0,poule,914,34,5,5,français,f,8,0.8,11.43760761,1.3224414
61325af0137e3f0aa5b2ad59,32,0,2024-02-27T11:27:58.664Z,french_55.wav,0,poule,914,34,5,5,français,f,9,0.9,81.46267865,1.11476735
61325af0137e3f0aa5b2ad59,32,0,2024-02-27T11:27:58.664Z,french_55.wav,0,poule,914,34,5,5,français,f,10,1.0,50.14519789,0.76573152
61325af0137e3f0aa5b2ad59,32,0,2024-02-27T11:27:58.664Z,french_55.wav,0,poule,914,34,5,5,français,f,11,1.1,25.14822077,0.21170061
61325af0137e3f0aa5b2ad59,32,0,2024-02-27T11:27:58.664Z,french_55.wav,0,poule,914,34,5,5,français,f,12,1.14141667,-49.70858316,0.42730216
61325af0137e3f0aa5b2ad59,33,0,2024-02-27T11:27:58.664Z,french_195.wav,0,poule,3218,34,5,5,français,f,0,0.0,-94.44814465,1.01221837
61325af0137e3f0aa5b2ad59,33,0,2024-02-27T11:27:58.664Z,french_195.wav,0,poule,3218,34,5,5,français,f,1,0.1,-8.36271039,1.79960209
61325af0137e3f0aa5b2ad59,33,0,2024-02-27T11:27:58.664Z,french_195.wav,0,poule,3218,34,5,5,français,f,2,0.2,-97.87108345,1.85291705
61325af0137e3f0aa5b2ad59,33,0,2024-02-27T11:27:58.664Z,french_195.wav,0,poule,3218,34,5,5,français,f,3,0.3,9.38810088,0.83034956
61325af0137e3f0aa5b2ad59,33,0,2024-02-27T11:27:58.664Z,french_195.wav,0,poule,3218,34,5,5,français,f,4,0.4,-5.68639094,0.73814621
61325af0137e3f0aa5b2ad59,33,0,2024-02-27T11:27:58.664Z,french_195.wav,0,poule,3218,34,5,5,français,f,5,0.5,-56.99964644,0.06268946
61325af0137e3f0aa5b2ad59,33,0,2024-02-27T11:27:58.664Z,french_195.wav,0,poule,3218,34,5,5,français,f,6,0.6,-39.66675761,0.32946706
61325af0137e3f0aa5b2ad59,33,0,2024-02-27T11:27:58.664Z,french_195.wav,0,poule,3218,34,5,5,français,f,7,0.7,-15.03436473,0.25786145
61325af0137e3f0aa5b2ad59,33,0,2024-02-27T11:27:58.664Z,french_195.wav,0,poule,3218,34,5,5,français,f,8,0.8,-93.37490315,0.98424063
61325af0137e3f0aa5b2ad59,33,0,2024-02-27T11:27:58.664Z,french_195.wav,0,poule,3218,34,5,5,français,f,9,0.9,-8.95214025,1.23440392
61325af0137e3f0aa5b2ad59,33,0,2024-02-27T11:27:58.664Z,french_195.wav,0,poule,3218,34,5,5,français,f,10,1.0,-32.67851066,0.86929082
61325af0137e3f0aa5b2ad59,33,0,2024-02-27T11:27:58.664Z,french_195.wav,0,poule,3218,34,5,5,français,f,11,1.1,93.76301079,0.24226685
61325af0137e3f0aa5b2ad59,33,0,2024-02-27T11:27:58.664Z,french_195.wav,0,poule,3218,34,5,5,français,f,12,1.14141667,4.14523698,0.71121181
61325af0137e3f0aa5b2ad59,34,0,2024-02-27T11:27:58.664Z,french_579.wav,0,poule,1179,34,5,5,français,f,0,0.0,-44.9724905,1.96822281
61325af0137e3f0aa5b2ad59,34,0,2024-02-27T11:27:58.664Z,french_579.wav,0,poule,1179,34,5,5,français,f,1,0.1,0.83845953,0.71149274
61325af0137e3f0aa5b2ad59,34,0,2024-02-27T11:27:58.664Z,french_579.wav,0,poule,1179,34,5,5,français,f,2,0.2,93.06026355,0.47444189
61325af0137e3f0aa5b2ad59,34,0,2024-02-27T11:27:58.664Z,french_579.wav,0,poule,1179,34,5,5,français,f,3,0.3,-62.41374452,1.30095402
61325af0137e3f0aa5b2ad59,34,0,2024-02-27T11:27:58.664Z,french_579.wav,0,poule,1179,34,5,5,français,f,4,0.4,20.02213112,1.46488426
61325af0137e3f0aa5b2ad59,34,0,2024-02-27T11:27:58.664Z,french_579.wav,0,poule,1179,34,5,5,français,f,5,0.5,-38.5151373,0.97233373
61325af0137e3f0aa5b2ad59,34,0,2024-02-27T11:27:58.664Z,french_579.wav,0,poule,1179,34,5,5,français,f,6,0.6,22.08241798,0.80064838
61325af0137e3f0aa5b2ad59,34,0,2024-02-27T11:27:58.664Z,french_579.wav,0,poule,1179,34,5,5,français,f,7,0.7,-58.17924339,0.70983162
61325af0137e3f0aa5b2ad59,34,0,2024-02-27T11:27:58.664Z,french_579.wav,0,poule,1179,34,5,5,français,f,8,0.8,-33.23197636,0.45331315
61325af0137e3f0aa5b2ad59,34,0,2024-02-27T11:27:58.664Z,french_579.wav,0,poule,1179,34,5,5,français,f,9,0.9,46.73979954,0.98403406
61325af0137e3f0aa5b2ad59,34,0,2024-02-27T11:27:58.664Z,french_579.wav,0,poule,1179,34,5,5,français,f,10,1.0,-1.66986987,1.54220588
61325af0137e3f0aa5b2ad59,34,0,2024-02-27T11:27:58.664Z,french_579.wav,0,poule,1179,34,5,5,français,f,11,1.1,-43.99049691,0.41959049
61325af0137e3f0aa5b2ad59,34,0,2024-02-27T11:27:58.664Z,french_579.wav,0,poule,1179,34,5,5,français,f,12,1.14141667,-39.65764058,1.4912741
61325af0137e3f0aa5b2ad59,35,0,2024-02-27T11:27:58.664Z,french_773.wav,0,poule,1994,34,5,5,français,f,0,0.0,90.88397921,1.06737054
61325af0137e3f0aa5b2ad59,35,0,2024-02-27T11:27:58.664Z,french_773.wav,0,poule,1994,34,5,5,français,f,1,0.1,-97.74548221,0.14530111
61325af0137e3f0aa5b2ad59,35,0,2024-02-27T11:27:58.664Z,french_773.wav,0,poule,1994,34,5,5,français,f,2,0.2,-81.77453318,1.50560224
61325af0137e3f0aa5b2ad59,35,0,2024-02-27T11:27:58.664Z,french_773.wav,0,poule,1994,34,5,5,français,f,3,0.3,-60.4929378,1.01956339
61325af0137e3f0aa5b2ad59,35,0,2024-02-27T11:27:58.664Z,french_773.wav,0,poule,1994,34,5,5,français,f,4,0.4,14.2654909,1.222014
61325af0137e3f0aa5b2ad59,35,0,2024-02-27T11:27:58.664Z,french_773.wav,0,poule,1994,34,5,5,français,f,5,0.5,13.48693384,0.55664854
61325af0137e3f0aa5b2ad59,35,0,2024-02-27T11:27:58.664Z,french_773.wav,0,poule,1994,34,5,5,français,f,6,0.6,-78.61444355,0.94800925
61325af0137e3f0aa5b2ad59,35,0,2024-02-27T11:27:58.664Z,french_773.wav,0,poule,1994,34,5,5,français,f,7,0.7,52.86531268,0.50565971
61325af0137e3f0aa5b2ad59,35,0,2024-02-27T11:27:58.664Z,french_773.wav,0,poule,1994,34,5,5,français,f,8,0.8,17.19518197,0.02729331
61325af0137e3f0aa5b2ad59,35,0,2024-02-27T11:27:58.664Z,french_773.wav,0,poule,1994,34,5,5,français,f,9,0.9,-49.96848683,1.80400274
61325af0137e3f0aa5b2ad59,35,0,2024-02-27T11:27:58.664Z,french_773.wav,0,poule,1994,34,5,5,français,f,10,1.0,-36.06899071,0.44266383
61325af0137e3f0aa5b2ad59,35,0,2024-02-27T11:27:58.664Z,french_773.wav,0,poule,1994,34,5,5,français,f,11,1.1,-4.80556283,0.36556726
61325af0137e3f0aa5b2ad59,35,0,2024-02-27T11:27:58.664Z,french_773.wav,0,poule,1994,34,5,5,français,f,12,1.14141667,-57.10011079,0.33818106
61325af0137e3f0aa5b2ad59,36,0,2024-02-27T11:27:58.664Z,french_378.wav,0,poule,2026,34,5,5,français,f,0,0.0,10.14074494,1.10712978
61325af0137e3f0aa5b2ad59,36,0,2024-02-27T11:27:58.664Z,french_378.wav,0,poule,2026,34,5,5,français,f,1,0.1,-69.45781997,1.44615803
61325af0137e3f0aa5b2ad59,36,0,2024-02-27T11:27:58.664Z,french_378.wav,0,poule,2026,34,5,5,français,f,2,0.2,38.40349345,1.25967469
61325af0137e3f0aa5b2ad59,36,0,2024-02-27T11:27:58.664Z,french_378.wav,0,poule,2026,34,5,5,français,f,3,0.3,-11.42336743,0.20781614
61325af0137e3f0aa5b2ad59,36,0,2024-02-27T11:27:58.664Z,french_378.wav,0,poule,2026,34,5,5,français,f,4,0.4,-38.27576318,0.33459003
61325af0137e3f0aa5b2ad59,36,0,2024-02-27T11:27:58.664Z,french_378.wav,0,poule,2026,34,5,5,français,f,5,0.5,-2.73288809,0.46876696
61325af0137e3f0aa5b2ad59,36,0,2024-02-27T11:27:58.664Z,french_378.wav,0,poule,2026,34,5,5,français,f,6,0.6,78.86302992,0.47313469
61325af0137e3f0aa5b2ad59,36,0,2024-02-27T11:27:58.664Z,french_378.wav,0,poule,2026,34,5,5,français,f,7,0.7,-17.950808,0.39569402
61325af0137e3f0aa5b2ad59,36,0,2024-02-27T11:27:58.664Z,french_378.wav,0,poule,2026,34,5,5,français,f,8,0.8,58.47358133,1.30666007
61325af0137e3f0aa5b2ad59,36,0,2024-02-27T11:27:58.664Z,french_378.wav,0,poule,2026,34,5,5,français,f,9,0.9,26.64529298,1.95577036
61325af0137e3f0aa5b2ad59,36,0,2024-02-27T11:27:58.664Z,french_378.wav,0,poule,2026,34,5,5,français,f,10,1.0,-55.10685082,0.02933321
61325af0137e3f0aa5b2ad59,36,0,2024-02-27T11:27:58.664Z,french_378.wav,0,poule,2026,34,5,5,français,f,11,1.1,-18.22256523,0.7247038
61325af0137e3f0aa5b2ad59,36,0,2024-02-27T11:27:58.664Z,french_378.wav,0,poule,2026,34,5,5,français,f,12,1.14141667,61.35932925,0.67386771
61325af0137e3f0aa5b2ad59,37,0,2024-02-27T11:27:58.664Z,french_26.wav,0,pull,3452,34,5,5,français,f,0,0.0,-81.500945,0.85880669
61325af0137e3f0aa5b2ad59,37,0,2024-02-27T11:27:58.664Z,french_26.wav,0,pull,3452,34,5,5,français,f,1,0.1,-65.11333571,1.39583556
61325af0137e3f0aa5b2ad59,37,0,2024-02-27T11:27:58.664Z,french_26.wav,0,pull,3452,34,5,5,français,f,2,0.2,-77.7704124,1.33635367
61325af0137e3f0aa5b2ad59,37,0,2024-02-27T11:27:58.664Z,french_26.wav,0,pull,3452,34,5,5,français,f,3,0.3,34.60738715,0.06972488
61325af0137e3f0aa5b2ad59,37,0,2024-02-27T11:27:58.664Z,french_26.wav,0,pull,3452,34,5,5,français,f,4,0.4,-21.13268023,1.32038127
61325af0137e3f0aa5b2ad59,37,0,2024-02-27T11:27:58.664Z,french_26.wav,0,pull,3452,34,5,5,français,f,5,0.5,-67.64311047,1.38878371
61325af0137e3f0aa5b2ad59,37,0,2024-02-27T11:27:58.664Z,french_26.wav,0,pull,3452,34,5,5,français,f,6,0.6,75.6271836,0.79062113
61325af0137e3f0aa5b2ad59,37,0,2024-02-27T11:27:58.664Z,french_26.wav,0,pull,3452,34,5,5,français,f,7,0.7,-50.68101632,1.95456048
61325af0137e3f0aa5b2ad59,37,0,2024-02-27T11:27:58.664Z,french_26.wav,0,pull,3452,34,5,5,français,f,8,0.8,22.77029763,1.27674604
61325af0137e3f0aa5b2ad59,37,0,2024-02-27T11:27:58.664Z,french_26.wav,0,pull,3452,34,5,5,français,f,9,0.9,41.21511466,0.82824768
61325af0137e3f0aa5b2ad59,37,0,2024-02-27T11:27:58.664Z,french_26.wav,0,pull,3452,34,5,5,français,f,10,1.0,-24.64698103,0.54540622
61325af0137e3f0aa5b2ad59,37,0,2024-02-27T11:27:58.664Z,french_26.wav,0,pull,3452,34,5,5,français,f,11,1.1,-60.0366715,0.3520348
61325af0137e3f0aa5b2ad59,37,0,2024-02-27T11:27:58.664Z,french_26.wav,0,pull,3452,34,5,5,français,f,12,1.14141667,78.73354468,0.71671085
61325af0137e3f0aa5b2ad59,38,0,2024-02-27T11:27:58.664Z,french_104.wav,0,pull,1344,34,5,5,français,f,0,0.0,-10.82069804,0.1966368
61325af0137e3f0aa5b2ad59,38,0,2024-02-27T11:27:58.664Z,french_104.wav,0,pull,1344,34,5,5,français,f,1,0.1,-46.9179638,1.84976789
61325af0137e3f0aa5b2ad59,38,0,2024-02-27T11:27:58.664Z,french_104.wav,0,pull,1344,34,5,5,français,f,2,0.2,-54.48570272,1.33623315
61325af0137e3f0aa5b2ad59,38,0,2024-02-27T11:27:58.664Z,french_104.wav,0,pull,1344,34,5,5,français,f,3,0.3,3.05404722,1.29159713
61325af0137e3f0aa5b2ad59,38,0,2024-02-27T11:27:58.664Z,french_104.wav,0,pull,1344,34,5,5,français,f,4,0.4,53.05029039,0.83782165
61325af0137e3f0aa5b2ad59,38,0,2024-02-27T11:27:58.664Z,french_104.wav,0,pull,1344,34,5,5,français,f,5,0.5,41.93888619,1.8090238
61325af0137e3f0aa5b2ad59,38,0,2024-02-27T11:27:58.664Z,french_104.wav,0,pull,1344,34,5,5,français,f,6,0.6,38.59618791,0.45654873
61325af0137e3f0aa5b2ad59,38,0,2024-02-27T11:27:58.664Z,french_104.wav,0,pull,1344,34,5,5,français,f,7,0.7,19.43152578,1.50843582
61325af0137e3f0aa5b2ad59,38,0,2024-02-27T11:27:58.664Z,french_104.wav,0,pull,1344,34,5,5,français,f,8,0.8,77.35445073,0.98312763
61325af0137e3f0aa5b2ad59,38,0,2024-02-27T11:27:58.664Z,french_104.wav,0,pull,1344,34,5,5,français,f,9,0.9,32.46536794,0.62069846
61325af0137e3f0aa5b2ad59,38,0,2024-02-27T11:27:58.664Z,french_104.wav,0,pull,1344,34,5,5,français,f,10,1.0,-22.38343672,0.12277995
61325af0137e3f0aa5b2ad59,38,0,2024-02-27T11:27:58.664Z,french_104.wav,0,pull,1344,34,5,5,français,f,11,1.1,12.24635973,0.0590951
61325af0137e3f0aa5b2ad59,38,0,2024-02-27T11:27:58.664Z,french_104.wav,0,pull,1344,34,5,5,français,f,12,1.14141667,-33.54926905,0.80794126
61325af0137e3f0aa5b2ad59,39,0,2024-02-27T11:27:58.664Z,french_710.wav,0,poule,900,34,5,5,français,f,0,0.0,77.18918864,1.03192367
61325af0137e3f0aa5b2ad59,39,0,2024-02-27T11:27:58.664Z,french_710.wav,0,poule,900,34,5,5,français,f,1,0.1,83.78981414,0.42018287
61325af0137e3f0aa5b2ad59,39,0,2024-02-27T11:27:58.664Z,french_710.wav,0,poule,900,34,5,5,français,f,2,0.2,-65.7693655,1.29406306
61325af0137e3f0aa5b2ad59,39,0,2024-02-27T11:27:58.664Z,french_710.wav,0,poule,900,34,5,5,français,f,3,0.3,-78.64184177,1.1839606
61325af0137e3f0aa5b2ad59,39,0,2024-02-27T11:27:58.664Z,french_710.wav,0,poule,900,34,5,5,français,f,4,0.4,60.76094054,0.24656774
61325af0137e3f0aa5b2ad59,39,0,2024-02-27T11:27:58.664Z,french_710.wav,0,poule,900,34,5,5,français,f,5,0.5,-85.54613182,0.27070574
61325af0137e3f0aa5b2ad59,39,0,2024-02-27T11:27:58.664Z,french_710.wav,0,poule,900,34,5,5,français,f,6,0.6,-82.83985369,0.55478724
61325af0137e3f0aa5b2ad59,39,0,2024-02-27T11:27:58.664Z,french_710.wav,0,poule,900,34,5,5,français,f,7,0.7,58.31469254,1.43791568
61325af0137e3f0aa5b2ad59,39,0,2024-02-27T11:27:58.664Z,french_710.wav,0,poule,900,34,5,5,français,f,8,0.8,-19.88359903,1.39655562
61325af0137e3f0aa5b2ad59,39,0,2024-02-27T11:27:58.664Z,french_710.wav,0,poule,900,34,5,5,français,f,9,0.9,28.05302473,1.5621613
61325af0137e3f0aa5b2ad59,39,0,2024-02-27T11:27:58.664Z,french_710.wav,0,poule,900,34,5,5,français,f,10,1.0,66.48543532,1.2992387
61325af0137e3f0aa5b2ad59,39,0,2024-02-27T11:27:58.664Z,french_710.wav,0,poule,900,34,5,5,français,f,11,1.1,3.69004882,0.84860939
61325af0137e3f0aa5b2ad59,39,0,2024-02-27T11:27:58.664Z,french_710.wav,0,poule,900,34,5,5,français,f,12,1.14141667,84.06568163,1.88227991
61325af0137e3f0aa5b2ad59,40,0,2024-02-27T11:27:58.664Z,french_578.wav,0,poule,802,34,5,5,français,f,0,0.0,87.69276993,1.0053747
61325af0137e3f0aa5b2ad59,40,0,2024-02-27T11:27:58.664Z,french_578.wav,0,poule,802,34,5,5,français,f,1,0.1,-6.69011024,1.08201998
61325af0137e3f0aa5b2ad59,40,0,2024-02-27T11:27:58.664Z,french_578.wav,0,poule,802,34,5,5,français,f,2,0.2,34.77261508,1.30978326
61325af0137e3f0aa5b2ad59,40,0,2024-02-27T11:27:58.664Z,french_578.wav,0,poule,802,34,5,5,français,f,3,0.3,9.00297073,0.36090352
61325af0137e3f0aa5b2ad59,40,0,2024-02-27T11:27:58.664Z,french_578.wav,0,poule,802,34,5,5,français,f,4,0.4,-56.58211353,1.18596965
61325af0137e3f0aa5b2ad59,40,0,2024-02-27T11:27:58.664Z,french_578.wav,0,poule,802,34,5,5,français,f,5,0.5,-72.48915741,1.8315835
61325af0137e3f0aa5b2ad59,40,0,2024-02-27T11:27:58.664Z,french_578.wav,0,poule,802,34,5,5,français,f,6,0.6,-71.77023581,0.12847581
61325af0137e3f0aa5b2ad59,40,0,2024-02-27T11:27:58.664Z,french_578.wav,0,poule,802,34,5,5,français,f,7,0.7,51.8047657,1.50247353
61325af0137e3f0aa5b2ad59,40,0,2024-02-27T11:27:58.664Z,french_578.wav,0,poule,802,34,5,5,français,f,8,0.8,7.96298825,1.86239575
61325af0137e3f0aa5b2ad59,40,0,2024-02-27T11:27:58.664Z,french_578.wav,0,poule,802,34,5,5,français,f,9,0.9,60.27042228,1.19829159
61325af0137e3f0aa5b2ad59,40,0,2024-02-27T11:27:58.664Z,french_578.wav,0,poule,802,34,5,5,français,f,10,1.0,-58.95396632,0.97286799
61325af0137e3f0aa5b2ad59,40,0,2024-02-27T11:27:58.664Z,french_578.wav,0,poule,802,34,5,5,français,f,11,1.1,-58.35182671,1.33480816
61325af0137e3f0aa5b2ad59,40,0,2024-02-27T11:27:58.664Z,french_578.wav,0,poule,802,34,5,5,français,f,12,1.14141667,-30.86837624,1.64372193
61325af0137e3f0aa5b2ad59,41,0,2024-02-27T11:27:58.664Z,french_661.wav,0,pull,791,34,5,5,français,f,0,0.0,30.83790401,1.59193642
61325af0137e3f0aa5b2ad59,41,0,2024-02-27T11:27:58.664Z,french_661.wav,0,pull,791,34,5,5,français,f,1,0.1,81.04248617,0.6507153
61325af0137e3f0aa5b2ad59,41,0,2024-02-27T11:27:58.664Z,french_661.wav,0,pull,791,34,5,5,français,f,2,0.2,-46.51005007,1.89395187
61325af0137e3f0aa5b2ad59,41,0,2024-02-27T11:27:58.664Z,french_661.wav,0,pull,791,34,5,5,français,f,3,0.3,26.8916854,0.85636205
61325af0137e3f0aa5b2ad59,41,0,2024-02-27T11:27:58.664Z,french_661.wav,0,pull,791,34,5,5,français,f,4,0.4,-54.15099684,1.87917795
61325af0137e3f0aa5b2ad59,41,0,2024-02-27T11:27:58.664Z,french_661.wav,0,pull,791,34,5,5,français,f,5,0.5,-20.07151139,1.44711177
61325af0137e3f0aa5b2ad59,41,0,2024-02-27T11:27:58.664Z,french_661.wav,0,pull,791,34,5,5,français,f,6,0.6,-67.43725044,0.9534675
61325af0137e3f0aa5b2ad59,41,0,2024-02-27T11:27:58.664Z,french_661.wav,0,pull,791,34,5,5,français,f,7,0.7,-45.28880793,0.8140216
61325af0137e3f0aa5b2ad59,41,0,2024-02-27T11:27:58.664Z,french_661.wav,0,pull,791,34,5,5,français,f,8,0.8,24.96344604,1.80648656
61325af0137e3f0aa5b2ad59,41,0,2024-02-27T11:27:58.664Z,french_661.wav,0,pull,791,34,5,5,français,f,9,0.9,-21.69937315,1.45486334
61325af0137e3f0aa5b2ad59,41,0,2024-02-27T11:27:58.664Z,french_661.wav,0,pull,791,34,5,5,français,f,10,1.0,-64.52606708,0.69077663
61325af0137e3f0aa5b2ad59,41,0,2024-02-27T11:27:58.664Z,french_661.wav,0,pull,791,34,5,5,français,f,11,1.1,4.37748404,0.59868939
61325af0137e3f0aa5b2ad59,41,0,2024-02-27T11:27:58.664Z,french_661.wav,0,pull,791,34,5,5,français,f,12,1.14141667,-33.68343588,0.88637105
61325af0137e3f0aa5b2ad59,42,0,2024-02-27T11:27:58.664Z,french_507.wav,0,poule,975,34,5,5,français,f,0,0.0,-18.83784301,0.97207948
61325af0137e3f0aa5b2ad59,42,0,2024-02-27T11:27:58.664Z,french_507.wav,0,poule,975,34,5,5,français,f,1,0.1,-87.48663551,0.90416973
61325af0137e3f0aa5b2ad59,42,0,2024-02-27T11:27:58.664Z,french_507.wav,0,poule,975,34,5,5,français,f,2,0.2,-60.22132392,1.16192947
61325af0137e3f0aa5b2ad59,42,0,2024-02-27T11:27:58.664Z,french_507.wav,0,poule,975,34,5,5,français,f,3,0.3,37.76954176,1.71554284
61325af0137e3f0aa5b2ad59,42,0,2024-02-27T11:27:58.664Z,french_507.wav,0,poule,975,34,5,5,français,f,4,0.4,-39.51400755,1.68517506
61325af0137e3f0aa5b2ad59,42,0,2024-02-27T11:27:58.664Z,french_507.wav,0,poule,975,34,5,5,français,f,5,0.5,69.25962534,0.77995291
61325af0137e3f0aa5b2ad59,42,0,2024-02-27T11:27:58.664Z,french_507.wav,0,poule,975,34,5,5,français,f,6,0.6,8.68923179,0.11564571
61325af0137e3f0aa5b2ad59,42,0,2024-02-27T11:27:58.664Z,french_507.wav,0,poule,975,34,5,5,français,f,7,0.7,-88.77359472,0.9600572
61325af0137e3f0aa5b2ad59,42,0,2024-02-27T11:27:58.664Z,french_507.wav,0,poule,975,34,5,5,français,f,8,0.8,-71.54118881,0.74032598
61325af0137e3f0aa5b2ad59,42,0,2024-02-27T11:27:58.664Z,french_507.wav,0,poule,975,34,5,5,français,f,9,0.9,-44.94089327,0.81018125
61325af0137e3f0aa5b2ad59,42,0,2024-02-27T11:27:58.664Z,french_507.wav,0,poule,975,34,5,5,français,f,10,1.0,-83.6521711,0.90893345
61325af0137e3f0aa5b2ad59,42,0,2024-02-27T11:27:58.664Z,french_507.wav,0,poule,975,34,5,5,français,f,11,1.1,-54.78607567,0.84528223
61325af0137e3f0aa5b2ad59,42,0,2024-02-27T11:27:58.664Z,french_507.wav,0,poule,975,34,5,5,français,f,12,1.14141667,10.77236355,0.84574894
61325af0137e3f0aa5b2ad59,43,0,2024-02-27T11:27:58.664Z,french_425.wav,0,pull,828,34,5,5,français,f,0,0.0,40.80708737,1.41087106
61325af0137e3f0aa5b2ad59,43,0,2024-02-27T11:27:58.664Z,french_425.wav,0,pull,828,34,5,5,français,f,1,0.1,60.39772417,1.65745633
61325af0137e3f0aa5b2ad59,43,0,2024-02-27T11:27:58.664Z,french_425.wav,0,pull,828,34,5,5,français,f,2,0.2,-30.92752134,0.45777505
61325af0137e3f0aa5b2ad59,43,0,2024-02-27T11:27:58.664Z,french_425.wav,0,pull,828,34,5,5,français,f,3,0.3,2.68286726,1.01895972
61325af0137e3f0aa5b2ad59,43,0,2024-02-27T11:27:58.664Z,french_425.wav,0,pull,828,34,5,5,français,f,4,0.4,17.39949018,1.013591
61325af0137e3f0aa5b2ad59,43,0,2024-02-27T11:27:58.664Z,french_425.wav,0,pull,828,34,5,5,français,f,5,0.5,51.6498397,1.16516661
61325af0137e3f0aa5b2ad59,43,0,2024-02-27T11:27:58.664Z,french_425.wav,0,pull,828,34,5,5,français,f,6,0.6,89.07176273,0.74158204
61325af0137e3f0aa5b2ad59,43,0,2024-02-27T11:27:58.664Z,french_425.wav,0,pull,828,34,5,5,français,f,7,0.7,-59.50926562,0.74893466
61325af0137e3f0aa5b2ad59,43,0,2024-02-27T11:27:58.664Z,french_425.wav,0,pull,828,34,5,5,français,f,8,0.8,44.57255827,0.322155
61325af0137e3f0aa5b2ad59,43,0,2024-02-27T11:27:58.664Z,french_425.wav,0,pull,828,34,5,5,français,f,9,0.9,18.71725485,0.8403819
61325af0137e3f0aa5b2ad59,43,0,2024-02-27T11:27:58.664Z,french_425.wav,0,pull,828,34,5,5,français,f,10,1.0,-67.0298998,0.41738082
61325af0137e3f0aa5b2ad59,43,0,2024-02-27T11:27:58.664Z,french_425.wav,0,pull,828,34,5,5,français,f,11,1.1,-15.30442624,0.70327016
61325af0137e3f0aa5b2ad59,43,0,2024-02-27T11:27:58.664Z,french_425.wav,0,pull,828,34,5,5,français,f,12,1.14141667,69.53078356,1.53973882
61325af0137e3f0aa5b2ad59,44,0,2024-02-27T11:27:58.664Z,french_452.wav,0,poule,1384,34,5,5,français,f,0,0.0,-65.13304523,1.10727473
61325af0137e3f0aa5b2ad59,44,0,2024-02-27T11:27:58.664Z,french_452.wav,0,poule,1384,34,5,5,français,f,1,0.1,91.34871159,0.36749155
61325af0137e3f0aa5b2ad59,44,0,2024-02-27T11:27:58.664Z,french_452.wav,0,poule,1384,34,5,5,français,f,2,0.2,-53.78564445,1.21292776
61325af0137e3f0aa5b2ad59,44,0,2024-02-27T11:27:58.664Z,french_452.wav,0,poule,1384,34,5,5,français,f,3,0.3,-10.05929492,1.33310916
61325af0137e3f0aa5b2ad59,44,0,2024-02-27T11:27:58.664Z,french_452.wav,0,poule,1384,34,5,5,français,f,4,0.4,47.92385069,0.35628751
61325af0137e3f0aa5b2ad59,44,0,2024-02-27T11:27:58.664Z,french_452.wav,0,poule,1384,34,5,5,français,f,5,0.5,-15.4646629,1.12575771
61325af0137e3f0aa5b2ad59,44,0,2024-02-27T11:27:58.664Z,french_452.wav,0,poule,1384,34,5,5,français,f,6,0.6,67.64656442,1.51128562
61325af0137e3f0aa5b2ad59,44,0,2024-02-27T11:27:58.664Z,french_452.wav,0,poule,1384,34,5,5,français,f,7,0.7,70.11175977,0.50973205
61325af0137e3f0aa5b2ad59,44,0,2024-02-27T11:27:58.664Z,french_452.wav,0,poule,1384,34,5,5,français,f,8,0.8,14.66379349,0.76730337
61325af0137e3f0aa5b2ad59,44,0,2024-02-27T11:27:58.664Z,french_452.wav,0,poule,1384,34,5,5,français,f,9,0.9,-29.42655143,0.80900056
61325af0137e3f0aa5b2ad59,44,0,2024-02-27T11:27:58.664Z,french_452.wav,0,poule,1384,34,5,5,français,f,10,1.0,-94.24598391,1.56347286
61325af0137e3f0aa5b2ad59,44,0,2024-02-27T11:27:58.664Z,french_452.wav,0,poule,1384,34,5,5,français,f,11,1.1,-5.14208276,0.95168615
61325af0137e3f0aa5b2ad59,44,0,2024-02-27T11:27:58.664Z,french_452.wav,0,poule,1384,34,5,5,français,f,12,1.14141667,-20.66516361,1.45096679
61325af0137e3f0aa5b2ad59,45,0,2024-02-27T11:27:58.664Z,french_993.wav,0,poule,922,34,5,5,français,f,0,0.0,12.15010971,1.75305024
61325af0137e3f0aa5b2ad59,45,0,2024-02-27T11:27:58.664Z,french_993.wav,0,poule,922,34,5,5,français,f,1,0.1,-82.84639936,1.84709621
61325af0137e3f0aa5b2ad59,45,0,2024-02-27T11:27:58.664Z,french_993.wav,0,poule,922,34,5,5,français,f,2,0.2,-20.79111952,0.30086676
61325af0137e3f0aa5b2ad59,45,0,2024-02-27T11:27:58.664Z,french_993.wav,0,poule,922,34,5,5,français,f,3,0.3,-65.6849191,1.77802679
61325af0137e3f0aa5b2ad59,45,0,2024-02-27T11:27:58.664Z,french_993.wav,0,poule,922,34,5,5,français,f,4,0.4,91.44268592,1.32826192
61325af0137e3f0aa5b2ad59,45,0,2024-02-27T11:27:58.664Z,french_993.wav,0,poule,922,34,5,5,français,f,5,0.5,68.69317307,1.38957999
61325af0137e3f0aa5b2ad59,45,0,2024-02-27T11:27:58.664Z,french_993.wav,0,poule,922,34,5,5,français,f,6,0.6,-10.77550368,1.02740556
61325af0137e3f0aa5b2ad59,45,0,2024-02-27T11:27:58.664Z,french_993.wav,0,poule,922,34,5,5,français,f,7,0.7,-49.61168901,1.11521635
61325af0137e3f0aa5b2ad59,45,0,2024-02-27T11:27:58.664Z,french_993.wav,0,poule,922,34,5,5,français,f,8,0.8,-0.95659448,1.04000764
61325af0137e3f0aa5b2ad59,45,0,2024-02-27T11:27:58.664Z,french_993.wav,0,poule,922,34,5,5,français,f,9,0.9,-52.83875719,0.85033094
61325af0137e3f0aa5b2ad59,45,0,2024-02-27T11:27:58.664Z,french_993.wav,0,poule,922,34,5,5,français,f,10,1.0,18.01113285,0.82072098
61325af0137e3f0aa5b2ad59,45,0,2024-02-27T11:27:58.664Z,french_993.wav,0,poule,922,34,5,5,français,f,11,1.1,54.17994577,1.80257596
61325af0137e3f0aa5b2ad59,45,0,2024-02-27T11:27:58.664Z,french_993.wav,0,poule,922,34,5,5,français,f,12,1.14141667,62.64482751,0.77736437
61325af0137e3f0aa5b2ad59,46,0,2024-02-27T11:27:58.664Z,french_208.wav,0,poule,1214,34,5,5,français,f,0,0.0,22.05412131,0.76725809
61325af0137e3f0aa5b2ad59,46,0,2024-02-27T11:27:58.664Z,french_208.wav,0,poule,1214,34,5,5,français,f,1,0.1,-81.24093625,1.19895138
61325af0137e3f0aa5b2ad59,46,0,2024-02-27T11:27:58.664Z,french_208.wav,0,poule,1214,34,5,5,français,f,2,0.2,-56.8023019,1.75036409
61325af0137e3f0aa5b2ad59,46,0,2024-02-27T11:27:58.664Z,french_208.wav,0,poule,1214,34,5,5,français,f,3,0.3,42.11803464,1.11519781
61325af0137e3f0aa5b2ad59,46,0,2024-02-27T11:27:58.664Z,french_208.wav,0,poule,1214,34,5,5,français,f,4,0.4,-62.30011739,0.53587167
61325af0137e3f0aa5b2ad59,46,0,2024-02-27T11:27:58.664Z,french_208.wav,0,poule,1214,34,5,5,français,f,5,0.5,-54.22793596,0.06074171
61325af0137e3f0aa5b2ad59,46,0,2024-02-27T11:27:58.664Z,french_208.wav,0,poule,1214,34,5,5,français,f,6,0.6,-22.54029576,0.24306128
61325af0137e3f0aa5b2ad59,46,0,2024-02-27T11:27:58.664Z,french_208.wav,0,poule,1214,34,5,5,français,f,7,0.7,3.64260812,0.45122919
61325af0137e3f0aa5b2ad59,46,0,2024-02-27T11:27:58.664Z,french_208.wav,0,poule,1214,34,5,5,français,f,8,0.8,34.77853372,0.41059711
61325af0137e3f0aa5b2ad59,46,0,2024-02-27T11:27:58.664Z,french_208.wav,0,poule,1214,34,5,5,français,f,9,0.9,-69.5924933,0.57249987
61325af0137e3f0aa5b2ad59,46,0,2024-02-27T11:27:58.664Z,french_208.wav,0,poule,1214,34,5,5,français,f,10,1.0,-81.19588074,1.0921966
61325af0137e3f0aa5b2ad59,46,0,2024-02-27T11:27:58.664Z,french_208.wav,0,poule,1214,34,5,5,français,f,11,1.1,-23.61160916,1.04543031
61325af0137e3f0aa5b2ad59,46,0,2024-02-27T11:27:58.664Z,french_208.wav,0,poule,1214,34,5,5,français,f,12,1.14141667,-3.35496918,1.92109129
61325af0137e3f0aa5b2ad59,47,0,2024-02-27T11:27:58.664Z,french_603.wav,0,pull,5493,34,5,5,français,f,0,0.0,19.6945105,1.69967751
61325af0137e3f0aa5b2ad59,47,0,2024-02-27T11:27:58.664Z,french_603.wav,0,pull,5493,34,5,5,français,f,1,0.1,53.62811089,0.5893267
61325af0137e3f0aa5b2ad59,47,0,2024-02-27T11:27:58.664Z,french_603.wav,0,pull,5493,34,5,5,français,f,2,0.2,-39.30903103,0.72876725
61325af0137e3f0aa5b2ad59,47,0,2024-02-27T11:27:58.664Z,french_603.wav,0,pull,5493,34,5,5,français,f,3,0.3,54.20589937,0.31950758
61325af0137e3f0aa5b2ad59,47,0,2024-02-27T11:27:58.664Z,french_603.wav,0,pull,5493,34,5,5,français,f,4,0.4,-95.2083084,1.11794186
61325af0137e3f0aa5b2ad59,47,0,2024-02-27T11:27:58.664Z,french_603.wav,0,pull,5493,34,5,5,français,f,5,0.5,29.46971661,0.00334081
61325af0137e3f0aa5b2ad59,47,0,2024-02-27T11:27:58.664Z,french_603.wav,0,pull,5493,34,5,5,français,f,6,0.6,-7.96409569,1.04777544
61325af0137e3f0aa5b2ad59,47,0,2024-02-27T11:27:58.664Z,french_603.wav,0,pull,5493,34,5,5,français,f,7,0.7,91.50199685,0.15242204
61325af0137e3f0aa5b2ad59,47,0,2024-02-27T11:27:58.664Z,french_603.wav,0,pull,5493,34,5,5,français,f,8,0.8,48.8288282,1.6691606
61325af0137e3f0aa5b2ad59,47,0,2024-02-27T11:27:58.664Z,french_603.wav,0,pull,5493,34,5,5,français,f,9,0.9,47.6951267,1.19043437
61325af0137e3f0aa5b2ad59,47,0,2024-02-27T11:27:58.664Z,french_603.wav,0,pull,5493,34,5,5,français,f,10,1.0,89.55727136,1.93432652
61325af0137e3f0aa5b2ad59,47,0,2024-02-27T11:27:58.664Z,french_603.wav,0,pull,5493,34,5,5,français,f,11,1.1,-25.40894762,0.50605662
61325af0137e3f0aa5b2ad59,47,0,2024-02-27T11:27:58.664Z,french_603.wav,0,pull,5493,34,5,5,français,f,12,1.14141667,-65.1673552,1.63687901
61325af0137e3f0aa5b2ad59,48,0,2024-02-27T11:27:58.664Z,french_18.wav,0,poule,847,34,5,5,français,f,0,0.0,93.52743688,0.76387958
61325af0137e3f0aa5b2ad59,48,0,2024-02-27T11:27:58.664Z,french_18.wav,0,poule,847,34,5,5,français,f,1,0.1,75.80838578,1.75297182
61325af0137e3f0aa5b2ad59,48,0,2024-02-27T11:27:58.664Z,french_18.wav,0,poule,847,34,5,5,français,f,2,0.2,-9.29580861,0.15580834
61325af0137e3f0aa5b2ad59,48,0,2024-02-27T11:27:58.664Z,french_18.wav,0,poule,847,34,5,5,français,f,3,0.3,-14.85608386,1.56760651
61325af0137e3f0aa5b2ad59,48,0,2024-02-27T11:27:58.664Z,french_18.wav,0,poule,847,34,5,5,français,f,4,0.4,47.7084462,0.03729265
61325af0137e3f0aa5b2ad59,48,0,2024-02-27T11:27:58.664Z,french_18.wav,0,poule,847,34,5,5,français,f,5,0.5,-86.34780257,1.22925424
61325af0137e3f0aa5b2ad59,48,0,2024-02-27T11:27:58.664Z,french_18.wav,0,poule,847,34,5,5,français,f,6,0.6,56.10837569,0.55659065
61325af0137e3f0aa5b2ad59,48,0,2024-02-27T11:27:58.664Z,french_18.wav,0,poule,847,34,5,5,français,f,7,0.7,-52.07621897,1.75613793
61325af0137e3f0aa5b2ad59,48,0,2024-02-27T11:27:58.664Z,french_18.wav,0,poule,847,34,5,5,français,f,8,0.8,35.05417357,0.81523904
61325af0137e3f0aa5b2ad59,48,0,2024-02-27T11:27:58.664Z,french_18.wav,0,poule,847,34,5,5,français,f,9,0.9,46.67766368,0.36189217
61325af0137e3f0aa5b2ad59,48,0,2024-02-27T11:27:58.664Z,french_18.wav,0,poule,847,34,5,5,français,f,10,1.0,-74.34797605,1.53764015
61325af0137e3f0aa5b2ad59,48,0,2024-02-27T11:27:58.664Z,french_18.wav,0,poule,847,34,5,5,français,f,11,1.1,-14.43524118,1.56618903
61325af0137e3f0aa5b2ad59,48,0,2024-02-27T11:27:58.664Z,french_18.wav,0,poule,847,34,5,5,français,f,12,1.14141667,27.72939281,1.06338948
61325af0137e3f0aa5b2ad59,49,0,2024-02-27T11:27:58.664Z,french_752.wav,0,poule,1229,34,5,5,français,f,0,0.0,34.41371414,1.9791919
61325af0137e3f0aa5b2ad59,49,0,2024-02-27T11:27:58.664Z,french_752.wav,0,poule,1229,34,5,5,français,f,1,0.1,14.80466577,1.83037093
61325af0137e3f0aa5b2ad59,49,0,2024-02-27T11:27:58.664Z,french_752.wav,0,poule,1229,34,5,5,français,f,2,0.2,74.3043598,0.40593576
61325af0137e3f0aa5b2ad59,49,0,2024-02-27T11:27:58.664Z,french_752.wav,0,poule,1229,34,5,5,français,f,3,0.3,-77.13621083,1.74575453
61325af0137e3f0aa5b2ad59,49,0,2024-02-27T11:27:58.664Z,french_752.wav,0,poule,1229,34,5,5,français,f,4,0.4,70.32500444,0.26577505
61325af0137e3f0aa5b2ad59,49,0,2024-02-27T11:27:58.664Z,french_752.wav,0,poule,1229,34,5,5,français,f,5,0.5,34.75569951,0.70202735
61325af0137e3f0aa5b2ad59,49,0,2024-02-27T11:27:58.664Z,french_752.wav,0,poule,1229,34,5,5,français,f,6,0.6,80.57354741,0.39412162
61325af0137e3f0aa5b2ad59,49,0,2024-02-27T11:27:58.664Z,french_752.wav,0,poule,1229,34,5,5,français,f,7,0.7,15.56334688,0.9711471
61325af0137e3f0aa5b2ad59,49,0,2024-02-27T11:27:58.664Z,french_752.wav,0,poule,1229,34,5,5,français,f,8,0.8,85.58814621,1.79720256
61325af0137e3f0aa5b2ad59,49,0,2024-02-27T11:27:58.664Z,french_752.wav,0,poule,1229,34,5,5,français,f,9,0.9,38.60264584,1.09938166
61325af0137e3f0aa5b2ad59,49,0,2024-02-27T11:27:58.664Z,french_752.wav,0,poule,1229,34,5,5,français,f,10,1.0,-2.86267761,0.83455272
61325af0137e3f0aa5b2ad59,49,0,2024-02-27T11:27:58.664Z,french_752.wav,0,poule,1229,34,5,5,français,f,11,1.1,79.56587881,0.64213106
61325af0137e3f0aa5b2ad59,49,0,2024-02-27T11:27:58.664Z,french_752.wav,0,poule,1229,34,5,5,français,f,12,1.14141667,-84.62804294,1.19502277
61325af0137e3f0aa5b2ad59,50,1,2024-02-27T11:27:58.664Z,french_618.wav,0,poule,763,34,5,5,français,f,0,0.0,20.05983972,0.17568044
61325af0137e3f0aa5b2ad59,50,1,2024-02-27T11:27:58.664Z,french_618.wav,0,poule,763,34,5,5,français,f,1,0.1,58.91310592,0.80933432
61325af0137e3f0aa5b2ad59,50,1,2024-02-27T11:27:58.664Z,french_618.wav,0,poule,763,34,5,5,français,f,2,0.2,6.72731042,1.75957191
61325af0137e3f0aa5b2ad59,50,1,2024-02-27T11:27:58.664Z,french_618.wav,0,poule,763,34,5,5,français,f,3,0.3,-78.89679785,1.21569199
61325af0137e3f0aa5b2ad59,50,1,2024-02-27T11:27:58.664Z,french_618.wav,0,poule,763,34,5,5,français,f,4,0.4,-8.33733298,0.08695144
61325af0137e3f0aa5b2ad59,50,1,2024-02-27T11:27:58.664Z,french_618.wav,0,poule,763,34,5,5,français,f,5,0.5,65.10342581,0.71252573
61325af0137e3f0aa5b2ad59,50,1,2024-02-27T11:27:58.664Z,french_618.wav,0,poule,763,34,5,5,français,f,6,0.6,-94.00807668,1.00569246
61325af0137e3f0aa5b2ad59,50,1,2024-02-27T11:27:58.664Z,french_618.wav,0,poule,763,34,5,5,français,f,7,0.7,82.41977933,1.1966004
61325af0137e3f0aa5b2ad59,50,1,2024-02-27T11:27:58.664Z,french_618.wav,0,poule,763,34,5,5,français,f,8,0.8,21.24581957,1.80975739
61325af0137e3f0aa5b2ad59,50,1,2024-02-27T11:27:58.664Z,french_618.wav,0,poule,763,34,5,5,français,f,9,0.9,66.30338575,1.67881476
61325af0137e3f0aa5b2ad59,50,1,2024-02-27T11:27:58.664Z,french_618.wav,0,poule,763,34,5,5,français,f,10,1.0,35.04204865,1.40354146
61325af0137e3f0aa5b2ad59,50,1,2024-02-27T11:27:58.664Z,french_618.wav,0,poule,763,34,5,5,français,f,11,1.1,4.02018466,1.74539239
61325af0137e3f0aa5b2ad59,50,1,2024-02-27T11:27:58.664Z,french_618.wav,0,poule,763,34,5,5,français,f,12,1.14141667,-34.41646074,1.86292193
61325af0137e3f0aa5b2ad59,51,1,2024-02-27T11:27:58.664Z,french_386.wav,0,poule,624,34,5,5,français,f,0,0.0,0.78430489,0.59169825
61325af0137e3f0aa5b2ad59,51,1,2024-02-27T11:27:58.664Z,french_386.wav,0,poule,624,34,5,5,français,f,1,0.1,13.87766625,1.1288047
61325af0137e3f0aa5b2ad59,51,1,2024-02-27T11:27:58.664Z,french_386.wav,0,poule,624,34,5,5,français,f,2,0.2,-53.9186669,1.52123219
61325af0137e3f0aa5b2ad59,51,1,2024-02-27T11:27:58.664Z,french_386.wav,0,poule,624,34,5,5,français,f,3,0.3,-0.65622809,0.54949769
61325af0137e3f0aa5b2ad59,51,1,2024-02-27T11:27:58.664Z,french_386.wav,0,poule,624,34,5,5,français,f,4,0.4,-79.12810333,0.20623394
61325af0137e3f0aa5b2ad59,51,1,2024-02-27T11:27:58.664Z,french_386.wav,0,poule,624,34,5,5,français,f,5,0.5,84.24951195,1.13251054
61325af0137e3f0aa5b2ad59,51,1,2024-02-27T11:27:58.664Z,french_386.wav,0,poule,624,34,5,5,français,f,6,0.6,-76.27796842,0.81791972
61325af0137e3f0aa5b2ad59,51,1,2024-02-27T11:27:58.664Z,french_386.wav,0,poule,624,34,5,5,français,f,7,0.7,-35.34111523,1.23104671
61325af0137e3f0aa5b2ad59,51,1,2024-02-27T11:27:58.664Z,french_386.wav,0,poule,624,34,5,5,français,f,8,0.8,11.2375659,1.83380782
61325af0137e3f0aa5b2ad59,51,1,2024-02-27T11:27:58.664Z,french_386.wav,0,poule,624,34,5,5,français,f,9,0.9,58.35016227,1.80502663
61325af0137e3f0aa5b2ad59,51,1,2024-02-27T11:27:58.664Z,french_386.wav,0,poule,624,34,5,5,français,f,10,1.0,-48.14486205,1.74198324
61325af0137e3f0aa5b2ad59,51,1,2024-02-27T11:27:58.664Z,french_386.wav,0,poule,624,34,5,5,français,f,11,1.1,32.95340606,0.89805375
61325af0137e3f0aa5b2ad59,51,1,2024-02-27T11:27:58.664Z,french_386.wav,0,poule,624,34,5,5,français,f,12,1.14141667,8.70227109,1.16860367
61325af0137e3f0aa5b2ad59,52,1,2024-02-27T11:27:58.664Z,french_874.wav,0,pull,847,34,5,5,français,f,0,0.0,24.82218591,0.93385532
61325af0137e3f0aa5b2ad59,52,1,2024-02-27T11:27:58.664Z,french_874.wav,0,pull,847,34,5,5,français,f,1,0.1,31.97554255,0.52068193
61325af0137e3f0aa5b2ad59,52,1,2024-02-27T11:27:58.664Z,french_874.wav,0,pull,847,34,5,5,français,f,2,0.2,2.67321332,1.97452011
61325af0137e3f0aa5b2ad59,52,1,2024-02-27T11:27:58.664Z,french_874.wav,0,pull,847,34,5,5,français,f,3,0.3,59.14891992,1.89922471
61325af0137e3f0aa5b2ad59,52,1,2024-02-27T11:27:58.664Z,french_874.wav,0,pull,847,34,5,5,français,f,4,0.4,43.38272278,1.65471555
61325af0137e3f0aa5b2ad59,52,1,2024-02-27T11:27:58.664Z,french_874.wav,0,pull,847,34,5,5,français,f,5,0.5,-74.72104069,0.60790691
61325af0137e3f0aa5b2ad59,52,1,2024-02-27T11:27:58.664Z,french_874.wav,0,pull,847,34,5,5,français,f,6,0.6,-8.80505474,1.28029407
61325af0137e3f0aa5b2ad59,52,1,2024-02-27T11:27:58.664Z,french_874.wav,0,pull,847,34,5,5,français,f,7,0.7,-25.97945718,0.93899149
61325af0137e3f0aa5b2ad59,52,1,2024-02-27T11:27:58.664Z,french_874.wav,0,pull,847,34,5,5,français,f,8,0.8,1.17125942,1.17717124
61325af0137e3f0aa5b2ad59,52,1,2024-02-27T11:27:58.664Z,french_874.wav,0,pull,847,34,5,5,français,f,9,0.9,33.37054961,0.6185284
61325af0137e3f0aa5b2ad59,52,1,2024-02-27T11:27:58.664Z,french_874.wav,0,pull,847,34,5,5,français,f,10,1.0,-11.11162277,0.02478248
61325af0137e3f0aa5b2ad59,52,1,2024-02-27T11:27:58.664Z,french_874.wav,0,pull,847,34,5,5,français,f,11,1.1,-2.67830525,1.255922
61325af0137e3f0aa5b2ad59,52,1,2024-02-27T11:27:58.664Z,french_874.wav,0,pull,847,34,5,5,français,f,12,1.14141667,31.54441533,0.93433181
61325af0137e3f0aa5b2ad59,53,1,2024-02-27T11:27:58.664Z,french_750.wav,0,pull,3385,34,5,5,français,f,0,0.0,68.384864,0.88761123
61325af0137e3f0aa5b2ad59,53,1,2024-02-27T11:27:58.664Z,french_750.wav,0,pull,3385,34,5,5,français,f,1,0.1,-12.54054232,0.48802278
61325af0137e3f0aa5b2ad59,53,1,2024-02-27T11:27:58.664Z,french_750.wav,0,pull,3385,34,5,5,français,f,2,0.2,38.20542066,1.39577597
61325af0137e3f0aa5b2ad59,53,1,2024-02-27T11:27:58.664Z,french_750.wav,0,pull,3385,34,5,5,français,f,3,0.3,-13.65587965,0.86182701
61325af0137e3f0aa5b2ad59,53,1,2024-02-27T11:27:58.664Z,french_750.wav,0,pull,3385,34,5,5,français,f,4,0.4,-87.20869433,0.59248942
61325af0137e3f0aa5b2ad59,53,1,2024-02-27T11:27:58.664Z,french_750.wav,0,pull,3385,34,5,5,français,f,5,0.5,-32.62716093,1.00273613
61325af0137e3f0aa5b2ad59,53,1,2024-02-27T11:27:58.664Z,french_750.wav,0,pull,3385,34,5,5,français,f,6,0.6,10.94806249,1.78150364
61325af0137e3f0aa5b2ad59,53,1,2024-02-27T11:27:58.664Z,french_750.wav,0,pull,3385,34,5,5,français,f,7,0.7,50.06911145,1.71651432
61325af0137e3f0aa5b2ad59,53,1,2024-02-27T11:27:58.664Z,french_750.wav,0,pull,3385,34,5,5,français,f,8,0.8,99.00831247,1.81026364
61325af0137e3f0aa5b2ad59,53,1,2024-02-27T11:27:58.664Z,french_750.wav,0,pull,3385,34,5,5,français,f,9,0.9,-53.01326403,1.46265358
61325af0137e3f0aa5b2ad59,53,1,2024-02-27T11:27:58.664Z,french_750.wav,0,pull,3385,34,5,5,français,f,10,1.0,-76.4591149,0.3188175
61325af0137e3f0aa5b2ad59,53,1,2024-02-27T11:27:58.664Z,french_750.wav,0,pull,3385,34,5,5,français,f,11,1.1,-55.31028242,1.15839447
61325af0137e3f0aa5b2ad59,53,1,2024-02-27T11:27:58.664Z,french_750.wav,0,pull,3385,34,5,5,français,f,12,1.14141667,-22.75078549,1.38940907
61325af0137e3f0aa5b2ad59,54,1,2024-02-27T11:27:58.664Z,french_83.wav,0,pull,3278,34,5,5,français,f,0,0.0,30.44967783,0.42165273
61325af0137e3f0aa5b2ad59,54,1,2024-02-27T11:27:58.664Z,french_83.wav,0,pull,3278,34,5,5,français,f,1,0.1,32.59822127,0.3238076
61325af0137e3f0aa5b2ad59,54,1,2024-02-27T11:27:58.664Z,french_83.wav,0,pull,3278,34,5,5,français,f,2,0.2,50.8682146,0.37913611
61325af0137e3f0aa5b2ad59,54,1,2024-02-27T11:27:58.664Z,french_83.wav,0,pull,3278,34,5,5,français,f,3,0.3,0.11779037,0.78724258
61325af0137e3f0aa5b2ad59,54,1,2024-02-27T11:27:58.664Z,french_83.wav,0,pull,3278,34,5,5,français,f,4,0.4,16.37029834,1.0594663
61325af0137e3f0aa5b2ad59,54,1,2024-02-27T11:27:58.664Z,french_83.wav,0,pull,3278,34,5,5,français,f,5,0.5,90.79022832,0.48377765
61325af0137e3f0aa5b2ad59,54,1,2024-02-27T11:27:58.664Z,french_83.wav,0,pull,3278,34,5,5,français,f,6,0.6,-75.94380669,0.29353951
61325af0137e3f0aa5b2ad59,54,1,2024-02-27T11:27:58.664Z,french_83.wav,0,pull,3278,34,5,5,français,f,7,0.7,34.13478403,1.31767934
61325af0137e3f0aa5b2ad59,54,1,2024-02-27T11:27:58.664Z,french_83.wav,0,pull,3278,34,5,5,français,f,8,0.8,-27.50152867,0.23770737
61325af0137e3f0aa5b2ad59,54,1,2024-02-27T11:27:58.664Z,french_83.wav,0,pull,3278,34,5,5,français,f,9,0.9,9.93495342,0.58296712
61325af0137e3f0aa5b2ad59,54,1,2024-02-27T11:27:58.664Z,french_83.wav,0,pull,3278,34,5,5,français,f,10,1.0,58.3619145,0.64820026
61325af0137e3f0aa5b2ad59,54,1,2024-02-27T11:27:58.664Z,french_83.wav,0,pull,3278,34,5,5,français,f,11,1.1,15.44979308,0.12158815
61325af0137e3f0aa5b2ad59,54,1,2024-02-27T11:27:58.664Z,french_83.wav,0,pull,3278,34,5,5,français,f,12,1.14141667,13.85594834,0.38899467
61325af0137e3f0aa5b2ad59,55,1,2024-02-27T11:27:58.664Z,french_983.wav,0,poule,921,34,5,5,français,f,0,0.0,-58.740306,1.29800401
61325af0137e3f0aa5b2ad59,55,1,2024-02-27T11:27:58.664Z,french_983.wav,0,poule,921,34,5,5,français,f,1,0.1,86.62100381,0.11364498
61325af0137e3f0aa5b2ad59,55,1,2024-02-27T11:27:58.664Z,french_983.wav,0,poule,921,34,5,5,français,f,2,0.2,72.28686739,1.04246937
61325af0137e3f0aa5b2ad59,55,1,2024-02-27T11:27:58.664Z,french_983.wav,0,poule,921,34,5,5,français,f,3,0.3,40.58051416,0.31985263
61325af0137e3f0aa5b2ad59,55,1,2024-02-27T11:27:58.664Z,french_983.wav,0,poule,921,34,5,5,français,f,4,0.4,-24.25700788,0.23068067
61325af0137e3f0aa5b2ad59,55,1,2024-02-27T11:27:58.664Z,french_983.wav,0,poule,921,34,5,5,français,f,5,0.5,71.71663195,1.2336031
61325af0137e3f0aa5b2ad59,55,1,2024-02-27T11:27:58.664Z,french_983.wav,0,poule,921,34,5,5,français,f,6,0.6,-12.96137505,1.36252466
61325af0137e3f0aa5b2ad59,55,1,2024-02-27T11:27:58.664Z,french_983.wav,0,poule,921,34,5,5,français,f,7,0.7,-82.1836976,1.78793687
61325af0137e3f0aa5b2ad59,55,1,2024-02-27T11:27:58.664Z,french_983.wav,0,poule,921,34,5,5,français,f,8,0.8,-24.9069762,0.590606
61325af0137e3f0aa5b2ad59,55,1,2024-02-27T11:27:58.664Z,french_983.wav,0,poule,921,34,5,5,français,f,9,0.9,55.25058614,0.99616144
61325af0137e3f0aa5b2ad59,55,1,2024-02-27T11:27:58.664Z,french_983.wav,0,poule,921,34,5,5,français,f,10,1.0,73.77815743,0.61804154
61325af0137e3f0aa5b2ad59,55,1,2024-02-27T11:27:58.664Z,french_983.wav,0,poule,921,34,5,5,français,f,11,1.1,32.70068021,1.49661667
61325af0137e3f0aa5b2ad59,55,1,2024-02-27T11:27:58.664Z,french_983.wav,0,poule,921,34,5,5,français,f,12,1.14141667,-94.39337182,0.91742292
61325af0137e3f0aa5b2ad59,56,1,2024-02-27T11:27:58.664Z,french_570.wav,0,poule,1886,34,5,5,français,f,0,0.0,-45.3917955,1.19819767
61325af0137e3f0aa5b2ad59,56,1,2024-02-27T11:27:58.664Z,french_570.wav,0,poule,1886,34,5,5,français,f,1,0.1,-10.85306862,0.49543291
61325af0137e3f0aa5b2ad59,56,1,2024-02-27T11:27:58.664Z,french_570.wav,0,poule,1886,34,5,5,français,f,2,0.2,-2.66303486,1.66800071
61325af0137e3f0aa5b2ad59,56,1,2024-02-27T11:27:58.664Z,french_570.wav,0,poule,1886,34,5,5,français,f,3,0.3,-32.59962556,0.10362546
61325af0137e3f0aa5b2ad59,56,1,2024-02-27T11:27:58.664Z,french_570.wav,0,poule,1886,34,5,5,français,f,4,0.4,-5.49643311,0.8503783
61325af0137e3f0aa5b2ad59,56,1,2024-02-27T11:27:58.664Z,french_570.wav,0,poule,1886,34,5,5,français,f,5,0.5,28.02198877,1.53524079
61325af0137e3f0aa5b2ad59,56,1,2024-02-27T11:27:58.664Z,french_570.wav,0,poule,1886,34,5,5,français,f,6,0.6,-36.20109348,1.11611775
61325af0137e3f0aa5b2ad59,56,1,2024-02-27T11:27:58.664Z,french_570.wav,0,poule,1886,34,5,5,français,f,7,0.7,-12.58953364,1.41982797
61325af0137e3f0aa5b2ad59,56,1,2024-02-27T11:27:58.664Z,french_570.wav,0,poule,1886,34,5,5,français,f,8,0.8,24.84923046,1.83422328
61325af0137e3f0aa5b2ad59,56,1,2024-02-27T11:27:58.664Z,french_570.wav,0,poule,1886,34,5,5,français,f,9,0.9,-28.45536131,0.62751144
61325af0137e3f0aa5b2ad59,56,1,2024-02-27T11:27:58.664Z,french_570.wav,0,poule,1886,34,5,5,français,f,10,1.0,-38.13214267,0.56230222
61325af0137e3f0aa5b2ad59,56,1,2024-02-27T11:27:58.664Z,french_570.wav,0,poule,1886,34,5,5,français,f,11,1.1,36.48055026,0.57641953
61325af0137e3f0aa5b2ad59,56,1,2024-02-27T11:27:58.664Z,french_570.wav,0,poule,1886,34,5,5,français,f,12,1.14141667,7.78558151,1.40822903
61325af0137e3f0aa5b2ad59,57,1,2024-02-27T11:27:58.664Z,french_944.wav,0,pull,1850,34,5,5,français,f,0,0.0,5.90730738,0.22530641
61325af0137e3f0aa5b2ad59,57,1,2024-02-27T11:27:58.664Z,french_944.wav,0,pull,1850,34,5,5,français,f,1,0.1,20.95549988,0.6742477
61325af0137e3f0aa5b2ad59,57,1,2024-02-27T11:27:58.664Z,french_944.wav,0,pull,1850,34,5,5,français,f,2,0.2,10.39827044,1.43871072
61325af0137e3f0aa5b2ad59,57,1,2024-02-27T11:27:58.664Z,french_944.wav,0,pull,1850,34,5,5,français,f,3,0.3,-37.75669253,1.70419916
61325af0137e3f0aa5b2ad59,57,1,2024-02-27T11:27:58.664Z,french_944.wav,0,pull,1850,34,5,5,français,f,4,0.4,-49.22667344,1.47532653
61325af0137e3f0aa5b2ad59,57,1,2024-02-27T11:27:58.664Z,french_944.wav,0,pull,1850,34,5,5,français,f,5,0.5,93.16977427,0.37116111
61325af0137e3f0aa5b2ad59,57,1,2024-02-27T11:27:58.664Z,french_944.wav,0,pull,1850,34,5,5,français,f,6,0.6,-41.75153683,1.12986992
61325af0137e3f0aa5b2ad59,57,1,2024-02-27T11:27:58.664Z,french_944.wav,0,pull,1850,34,5,5,français,f,7,0.7,76.29351329,1.77142708
61325af0137e3f0aa5b2ad59,57,1,2024-02-27T11:27:58.664Z,french_944.wav,0,pull,1850,34,5,5,français,f,8,0.8,-83.23951468,1.06487534
61325af0137e3f0aa5b2ad59,57,1,2024-02-27T11:27:58.664Z,french_944.wav,0,pull,1850,34,5,5,français,f,9,0.9,79.19877778,0.07393278
61325af0137e3f0aa5b2ad59,57,1,2024-02-27T11:27:58.664Z,french_944.wav,0,pull,1850,34,5,5,français,f,10,1.0,-79.96280606,0.93112082
61325af0137e3f0aa5b2ad59,57,1,2024-02-27T11:27:58.664Z,french_944.wav,0,pull,1850,34,5,5,français,f,11,1.1,-35.90278779,0.20805406
61325af0137e3f0aa5b2ad59,57,1,2024-02-27T11:27:58.664Z,french_944.wav,0,pull,1850,34,5,5,français,f,12,1.14141667,-47.06382287,0.24056538
61325af0137e3f0aa5b2ad59,58,1,2024-02-27T11:27:58.664Z,french_893.wav,0,pull,2163,34,5,5,français,f,0,0.0,-7.27699978,1.51978009
61325af0137e3f0aa5b2ad59,58,1,2024-02-27T11:27:58.664Z,french_893.wav,0,pull,2163,34,5,5,français,f,1,0.1,-89.77020568,0.73116865
61325af0137e3f0aa5b2ad59,58,1,2024-02-27T11:27:58.664Z,french_893.wav,0,pull,2163,34,5,5,français,f,2,0.2,-14.57898987,0.67126481
61325af0137e3f0aa5b2ad59,58,1,2024-02-27T11:27:58.664Z,french_893.wav,0,pull,2163,34,5,5,français,f,3,0.3,17.83631346,1.90896292
61325af0137e3f0aa5b2ad59,58,1,2024-02-27T11:27:58.664Z,french_893.wav,0,pull,2163,34,5,5,français,f,4,0.4,-1.41603642,0.69510604
61325af0137e3f0aa5b2ad59,58,1,2024-02-27T11:27:58.664Z,french_893.wav,0,pull,2163,34,5,5,français,f,5,0.5,83.48956913,1.57489321
61325af0137e3f0aa5b2ad59,58,1,2024-02-27T11:27:58.664Z,french_893.wav,0,pull,2163,34,5,5,français,f,6,0.6,30.8822208,1.47648751
61325af0137e3f0aa5b2ad59,58,1,2024-02-27T11:27:58.664Z,french_893.wav,0,pull,2163,34,5,5,français,f,7,0.7,-64.37206317,1.31493152
61325af0137e3f0aa5b2ad59,58,1,2024-02-27T11:27:58.664Z,french_893.wav,0,pull,2163,34,5,5,français,f,8,0.8,-28.39613134,0.56604346
61325af0137e3f0aa5b2ad59,58,1,2024-02-27T11:27:58.664Z,french_893.wav,0,pull,2163,34,5,5,français,f,9,0.9,-87.01917752,0.26201855
61325af0137e3f0aa5b2ad59,58,1,2024-02-27T11:27:58.664Z,french_893.wav,0,pull,2163,34,5,5,français,f,10,1.0,40.7229808,0.45307121
61325af0137e3f0aa5b2ad59,58,1,2024-02-27T11:27:58.664Z,french_893.wav,0,pull,2163,34,5,5,français,f,11,1.1,99.76956112,0.54133615
61325af0137e3f0aa5b2ad59,58,1,2024-02-27T11:27:58.664Z,french_893.wav,0,pull,2163,34,5,5,français,f,12,1.14141667,-22.42545561,0.07796444
61325af0137e3f0aa5b2ad59,59,1,2024-02-27T11:27:58.664Z,french_911.wav,0,poule,2249,34,5,5,français,f,0,0.0,4.5077802,0.45317339
61325af0137e3f0aa5b2ad59,59,1,2024-02-27T11:27:58.664Z,french_911.wav,0,poule,2249,34,5,5,français,f,1,0.1,-96.78615261,0.25538375
