subj,trial,block,date,stim,stim_order,response,rt,age,english,french,language,sex,param_index,segment,pitch,stretch
58bfee7de5869400018f5e9e,0,0,2024-02-27T11:13:13.714Z,french_572.wav,0,poule,3464,37,5,5,francais,m,0,0.0,80.73678316,1.6999436
58bfee7de5869400018f5e9e,0,0,2024-02-27T11:13:13.714Z,french_572.wav,0,poule,3464,37,5,5,francais,m,1,0.1,-23.27448365,0.98259769
58bfee7de5869400018f5e9e,0,0,2024-02-27T11:13:13.714Z,french_572.wav,0,poule,3464,37,5,5,francais,m,2,0.2,-6.4033247,0.22058864
58bfee7de5869400018f5e9e,0,0,2024-02-27T11:13:13.714Z,french_572.wav,0,poule,3464,37,5,5,francais,m,3,0.3,-21.51480068,1.57552372
58bfee7de5869400018f5e9e,0,0,2024-02-27T11:13:13.714Z,french_572.wav,0,poule,3464,37,5,5,francais,m,4,0.4,-23.17709403,1.16662567
58bfee7de5869400018f5e9e,0,0,2024-02-27T11:13:13.714Z,french_572.wav,0,poule,3464,37,5,5,francais,m,5,0.5,-16.39338242,0.33871722
58bfee7de5869400018f5e9e,0,0,2024-02-27T11:13:13.714Z,french_572.wav,0,poule,3464,37,5,5,francais,m,6,0.6,-25.06757564,1.16530793
58bfee7de5869400018f5e9e,0,0,2024-02-27T11:13:13.714Z,french_572.wav,0,poule,3464,37,5,5,francais,m,7,0.7,-29.26685238,0.52650663
58bfee7de5869400018f5e9e,0,0,2024-02-27T11:13:13.714Z,french_572.wav,0,poule,3464,37,5,5,francais,m,8,0.8,-87.48148555,0.8714082
58bfee7de5869400018f5e9e,0,0,2024-02-27T11:13:13.714Z,french_572.wav,0,poule,3464,37,5,5,francais,m,9,0.9,-64.25549842,1.09019316
58bfee7de5869400018f5e9e,0,0,2024-02-27T11:13:13.714Z,french_572.wav,0,poule,3464,37,5,5,francais,m,10,1.0,40.51352953,0.83858713
58bfee7de5869400018f5e9e,0,0,2024-02-27T11:13:13.714Z,french_572.wav,0,poule,3464,37,5,5,francais,m,11,1.1,45.12554912,1.2000092
58bfee7de5869400018f5e9e,0,0,2024-02-27T11:13:13.714Z,french_572.wav,0,poule,3464,37,5,5,francais,m,12,1.14141667,-31.72850353,1.29324569
58bfee7de5869400018f5e9e,1,0,2024-02-27T11:13:13.714Z,french_499.wav,0,poule,1325,37,5,5,francais,m,0,0.0,46.36032418,1.15673236
58bfee7de5869400018f5e9e,1,0,2024-02-27T11:13:13.714Z,french_499.wav,0,poule,1325,37,5,5,francais,m,1,0.1,-46.60169096,1.00449513
58bfee7de5869400018f5e9e,1,0,2024-02-27T11:13:13.714Z,french_499.wav,0,poule,1325,37,5,5,francais,m,2,0.2,-44.64435546,1.22972272
58bfee7de5869400018f5e9e,1,0,2024-02-27T11:13:13.714Z,french_499.wav,0,poule,1325,37,5,5,francais,m,3,0.3,58.45397876,1.93385814
58bfee7de5869400018f5e9e,1,0,2024-02-27T11:13:13.714Z,french_499.wav,0,poule,1325,37,5,5,francais,m,4,0.4,-85.48224087,0.72285847
58bfee7de5869400018f5e9e,1,0,2024-02-27T11:13:13.714Z,french_499.wav,0,poule,1325,37,5,5,francais,m,5,0.5,32.740238,1.06540141
58bfee7de5869400018f5e9e,1,0,2024-02-27T11:13:13.714Z,french_499.wav,0,poule,1325,37,5,5,francais,m,6,0.6,41.02068671,1.32864033
58bfee7de5869400018f5e9e,1,0,2024-02-27T11:13:13.714Z,french_499.wav,0,poule,1325,37,5,5,francais,m,7,0.7,-17.47927701,0.41428775
58bfee7de5869400018f5e9e,1,0,2024-02-27T11:13:13.714Z,french_499.wav,0,poule,1325,37,5,5,francais,m,8,0.8,-42.8013025,1.26797028
58bfee7de5869400018f5e9e,1,0,2024-02-27T11:13:13.714Z,french_499.wav,0,poule,1325,37,5,5,francais,m,9,0.9,24.39191536,0.4617835
58bfee7de5869400018f5e9e,1,0,2024-02-27T11:13:13.714Z,french_499.wav,0,poule,1325,37,5,5,francais,m,10,1.0,7.64839567,1.17377315
58bfee7de5869400018f5e9e,1,0,2024-02-27T11:13:13.714Z,french_499.wav,0,poule,1325,37,5,5,francais,m,11,1.1,-20.78399586,0.12304897
58bfee7de5869400018f5e9e,1,0,2024-02-27T11:13:13.714Z,french_499.wav,0,poule,1325,37,5,5,francais,m,12,1.14141667,-72.74453454,1.98091911
58bfee7de5869400018f5e9e,2,0,2024-02-27T11:13:13.714Z,french_297.wav,0,poule,727,37,5,5,francais,m,0,0.0,-57.88814484,0.69308764
58bfee7de5869400018f5e9e,2,0,2024-02-27T11:13:13.714Z,french_297.wav,0,poule,727,37,5,5,francais,m,1,0.1,-65.38188866,0.37987573
58bfee7de5869400018f5e9e,2,0,2024-02-27T11:13:13.714Z,french_297.wav,0,poule,727,37,5,5,francais,m,2,0.2,56.2043282,0.59927578
58bfee7de5869400018f5e9e,2,0,2024-02-27T11:13:13.714Z,french_297.wav,0,poule,727,37,5,5,francais,m,3,0.3,37.86944555,1.25022663
58bfee7de5869400018f5e9e,2,0,2024-02-27T11:13:13.714Z,french_297.wav,0,poule,727,37,5,5,francais,m,4,0.4,-19.92258325,0.84509442
58bfee7de5869400018f5e9e,2,0,2024-02-27T11:13:13.714Z,french_297.wav,0,poule,727,37,5,5,francais,m,5,0.5,-5.91149955,0.62575422
58bfee7de5869400018f5e9e,2,0,2024-02-27T11:13:13.714Z,french_297.wav,0,poule,727,37,5,5,francais,m,6,0.6,-11.69802287,0.6876977
58bfee7de5869400018f5e9e,2,0,2024-02-27T11:13:13.714Z,french_297.wav,0,poule,727,37,5,5,francais,m,7,0.7,-38.75754166,0.53792077
58bfee7de5869400018f5e9e,2,0,2024-02-27T11:13:13.714Z,french_297.wav,0,poule,727,37,5,5,francais,m,8,0.8,-82.79023729,1.01464863
58bfee7de5869400018f5e9e,2,0,2024-02-27T11:13:13.714Z,french_297.wav,0,poule,727,37,5,5,francais,m,9,0.9,-96.88307613,0.81112842
58bfee7de5869400018f5e9e,2,0,2024-02-27T11:13:13.714Z,french_297.wav,0,poule,727,37,5,5,francais,m,10,1.0,-63.09042371,1.38654734
58bfee7de5869400018f5e9e,2,0,2024-02-27T11:13:13.714Z,french_297.wav,0,poule,727,37,5,5,francais,m,11,1.1,78.08018198,0.15468479
58bfee7de5869400018f5e9e,2,0,2024-02-27T11:13:13.714Z,french_297.wav,0,poule,727,37,5,5,francais,m,12,1.14141667,10.19553277,0.66198032
58bfee7de5869400018f5e9e,3,0,2024-02-27T11:13:13.714Z,french_190.wav,0,pull,1864,37,5,5,francais,m,0,0.0,-84.78481836,0.30111759
58bfee7de5869400018f5e9e,3,0,2024-02-27T11:13:13.714Z,french_190.wav,0,pull,1864,37,5,5,francais,m,1,0.1,29.20321027,0.52687699
58bfee7de5869400018f5e9e,3,0,2024-02-27T11:13:13.714Z,french_190.wav,0,pull,1864,37,5,5,francais,m,2,0.2,71.02026604,0.36945697
58bfee7de5869400018f5e9e,3,0,2024-02-27T11:13:13.714Z,french_190.wav,0,pull,1864,37,5,5,francais,m,3,0.3,37.89731146,1.56057188
58bfee7de5869400018f5e9e,3,0,2024-02-27T11:13:13.714Z,french_190.wav,0,pull,1864,37,5,5,francais,m,4,0.4,34.75879188,0.61390271
58bfee7de5869400018f5e9e,3,0,2024-02-27T11:13:13.714Z,french_190.wav,0,pull,1864,37,5,5,francais,m,5,0.5,77.81147551,1.27237332
58bfee7de5869400018f5e9e,3,0,2024-02-27T11:13:13.714Z,french_190.wav,0,pull,1864,37,5,5,francais,m,6,0.6,-18.99656469,0.54829677
58bfee7de5869400018f5e9e,3,0,2024-02-27T11:13:13.714Z,french_190.wav,0,pull,1864,37,5,5,francais,m,7,0.7,26.98882743,0.77113773
58bfee7de5869400018f5e9e,3,0,2024-02-27T11:13:13.714Z,french_190.wav,0,pull,1864,37,5,5,francais,m,8,0.8,-33.86115457,0.27810299
58bfee7de5869400018f5e9e,3,0,2024-02-27T11:13:13.714Z,french_190.wav,0,pull,1864,37,5,5,francais,m,9,0.9,22.61865263,0.84080076
58bfee7de5869400018f5e9e,3,0,2024-02-27T11:13:13.714Z,french_190.wav,0,pull,1864,37,5,5,francais,m,10,1.0,32.47086589,1.24207539
58bfee7de5869400018f5e9e,3,0,2024-02-27T11:13:13.714Z,french_190.wav,0,pull,1864,37,5,5,francais,m,11,1.1,-79.69806843,0.66945603
58bfee7de5869400018f5e9e,3,0,2024-02-27T11:13:13.714Z,french_190.wav,0,pull,1864,37,5,5,francais,m,12,1.14141667,67.93837124,0.50686976
58bfee7de5869400018f5e9e,4,0,2024-02-27T11:13:13.714Z,french_783.wav,0,pull,2533,37,5,5,francais,m,0,0.0,67.95688706,1.32033802
58bfee7de5869400018f5e9e,4,0,2024-02-27T11:13:13.714Z,french_783.wav,0,pull,2533,37,5,5,francais,m,1,0.1,66.58489906,1.08556824
58bfee7de5869400018f5e9e,4,0,2024-02-27T11:13:13.714Z,french_783.wav,0,pull,2533,37,5,5,francais,m,2,0.2,-41.94359354,0.61415439
58bfee7de5869400018f5e9e,4,0,2024-02-27T11:13:13.714Z,french_783.wav,0,pull,2533,37,5,5,francais,m,3,0.3,60.84755071,0.40512708
58bfee7de5869400018f5e9e,4,0,2024-02-27T11:13:13.714Z,french_783.wav,0,pull,2533,37,5,5,francais,m,4,0.4,-30.61881203,0.06015789
58bfee7de5869400018f5e9e,4,0,2024-02-27T11:13:13.714Z,french_783.wav,0,pull,2533,37,5,5,francais,m,5,0.5,-40.67842679,0.65199148
58bfee7de5869400018f5e9e,4,0,2024-02-27T11:13:13.714Z,french_783.wav,0,pull,2533,37,5,5,francais,m,6,0.6,64.08569012,0.78956563
58bfee7de5869400018f5e9e,4,0,2024-02-27T11:13:13.714Z,french_783.wav,0,pull,2533,37,5,5,francais,m,7,0.7,99.13880064,0.80807467
58bfee7de5869400018f5e9e,4,0,2024-02-27T11:13:13.714Z,french_783.wav,0,pull,2533,37,5,5,francais,m,8,0.8,-12.83246815,0.85940772
58bfee7de5869400018f5e9e,4,0,2024-02-27T11:13:13.714Z,french_783.wav,0,pull,2533,37,5,5,francais,m,9,0.9,10.70429708,1.2718336
58bfee7de5869400018f5e9e,4,0,2024-02-27T11:13:13.714Z,french_783.wav,0,pull,2533,37,5,5,francais,m,10,1.0,-81.74688152,1.76451942
58bfee7de5869400018f5e9e,4,0,2024-02-27T11:13:13.714Z,french_783.wav,0,pull,2533,37,5,5,francais,m,11,1.1,-91.16540139,1.6213532
58bfee7de5869400018f5e9e,4,0,2024-02-27T11:13:13.714Z,french_783.wav,0,pull,2533,37,5,5,francais,m,12,1.14141667,62.13275496,0.99499193
58bfee7de5869400018f5e9e,5,0,2024-02-27T11:13:13.714Z,french_583.wav,0,pull,589,37,5,5,francais,m,0,0.0,26.44085031,0.31061179
58bfee7de5869400018f5e9e,5,0,2024-02-27T11:13:13.714Z,french_583.wav,0,pull,589,37,5,5,francais,m,1,0.1,14.41399243,0.85478015
58bfee7de5869400018f5e9e,5,0,2024-02-27T11:13:13.714Z,french_583.wav,0,pull,589,37,5,5,francais,m,2,0.2,-44.04798398,0.56023647
58bfee7de5869400018f5e9e,5,0,2024-02-27T11:13:13.714Z,french_583.wav,0,pull,589,37,5,5,francais,m,3,0.3,50.00895276,0.81245
58bfee7de5869400018f5e9e,5,0,2024-02-27T11:13:13.714Z,french_583.wav,0,pull,589,37,5,5,francais,m,4,0.4,19.39525308,1.75738507
58bfee7de5869400018f5e9e,5,0,2024-02-27T11:13:13.714Z,french_583.wav,0,pull,589,37,5,5,francais,m,5,0.5,-25.1077287,0.57873184
58bfee7de5869400018f5e9e,5,0,2024-02-27T11:13:13.714Z,french_583.wav,0,pull,589,37,5,5,francais,m,6,0.6,78.46877294,0.13356268
58bfee7de5869400018f5e9e,5,0,2024-02-27T11:13:13.714Z,french_583.wav,0,pull,589,37,5,5,francais,m,7,0.7,9.01865163,0.57025844
58bfee7de5869400018f5e9e,5,0,2024-02-27T11:13:13.714Z,french_583.wav,0,pull,589,37,5,5,francais,m,8,0.8,53.79896315,0.66409288
58bfee7de5869400018f5e9e,5,0,2024-02-27T11:13:13.714Z,french_583.wav,0,pull,589,37,5,5,francais,m,9,0.9,-34.8052192,0.72593729
58bfee7de5869400018f5e9e,5,0,2024-02-27T11:13:13.714Z,french_583.wav,0,pull,589,37,5,5,francais,m,10,1.0,-44.31336501,1.39487215
58bfee7de5869400018f5e9e,5,0,2024-02-27T11:13:13.714Z,french_583.wav,0,pull,589,37,5,5,francais,m,11,1.1,39.98165615,1.47926175
58bfee7de5869400018f5e9e,5,0,2024-02-27T11:13:13.714Z,french_583.wav,0,pull,589,37,5,5,francais,m,12,1.14141667,86.9176988,1.39400974
58bfee7de5869400018f5e9e,6,0,2024-02-27T11:13:13.714Z,french_302.wav,0,poule,695,37,5,5,francais,m,0,0.0,-33.52028632,1.20247244
58bfee7de5869400018f5e9e,6,0,2024-02-27T11:13:13.714Z,french_302.wav,0,poule,695,37,5,5,francais,m,1,0.1,14.06293771,0.59103421
58bfee7de5869400018f5e9e,6,0,2024-02-27T11:13:13.714Z,french_302.wav,0,poule,695,37,5,5,francais,m,2,0.2,-53.22339511,0.70543363
58bfee7de5869400018f5e9e,6,0,2024-02-27T11:13:13.714Z,french_302.wav,0,poule,695,37,5,5,francais,m,3,0.3,84.66079963,1.47264463
58bfee7de5869400018f5e9e,6,0,2024-02-27T11:13:13.714Z,french_302.wav,0,poule,695,37,5,5,francais,m,4,0.4,56.53078776,1.52121196
58bfee7de5869400018f5e9e,6,0,2024-02-27T11:13:13.714Z,french_302.wav,0,poule,695,37,5,5,francais,m,5,0.5,52.09924325,0.90612389
58bfee7de5869400018f5e9e,6,0,2024-02-27T11:13:13.714Z,french_302.wav,0,poule,695,37,5,5,francais,m,6,0.6,36.68626461,1.68691492
58bfee7de5869400018f5e9e,6,0,2024-02-27T11:13:13.714Z,french_302.wav,0,poule,695,37,5,5,francais,m,7,0.7,-22.67460192,1.01798697
58bfee7de5869400018f5e9e,6,0,2024-02-27T11:13:13.714Z,french_302.wav,0,poule,695,37,5,5,francais,m,8,0.8,43.78011135,0.90734577
58bfee7de5869400018f5e9e,6,0,2024-02-27T11:13:13.714Z,french_302.wav,0,poule,695,37,5,5,francais,m,9,0.9,-34.77035128,1.35012392
58bfee7de5869400018f5e9e,6,0,2024-02-27T11:13:13.714Z,french_302.wav,0,poule,695,37,5,5,francais,m,10,1.0,51.90159777,1.01237919
58bfee7de5869400018f5e9e,6,0,2024-02-27T11:13:13.714Z,french_302.wav,0,poule,695,37,5,5,francais,m,11,1.1,37.64911617,0.20910983
58bfee7de5869400018f5e9e,6,0,2024-02-27T11:13:13.714Z,french_302.wav,0,poule,695,37,5,5,francais,m,12,1.14141667,19.69656895,0.68199001
58bfee7de5869400018f5e9e,7,0,2024-02-27T11:13:13.714Z,french_672.wav,0,pull,1845,37,5,5,francais,m,0,0.0,-13.52735411,0.54145116
58bfee7de5869400018f5e9e,7,0,2024-02-27T11:13:13.714Z,french_672.wav,0,pull,1845,37,5,5,francais,m,1,0.1,-59.96134508,1.25870061
58bfee7de5869400018f5e9e,7,0,2024-02-27T11:13:13.714Z,french_672.wav,0,pull,1845,37,5,5,francais,m,2,0.2,-7.33992186,0.81866039
58bfee7de5869400018f5e9e,7,0,2024-02-27T11:13:13.714Z,french_672.wav,0,pull,1845,37,5,5,francais,m,3,0.3,21.63942854,1.39452004
58bfee7de5869400018f5e9e,7,0,2024-02-27T11:13:13.714Z,french_672.wav,0,pull,1845,37,5,5,francais,m,4,0.4,5.10103928,1.0769607
58bfee7de5869400018f5e9e,7,0,2024-02-27T11:13:13.714Z,french_672.wav,0,pull,1845,37,5,5,francais,m,5,0.5,-48.7358571,0.77470724
58bfee7de5869400018f5e9e,7,0,2024-02-27T11:13:13.714Z,french_672.wav,0,pull,1845,37,5,5,francais,m,6,0.6,81.11443851,0.81807513
58bfee7de5869400018f5e9e,7,0,2024-02-27T11:13:13.714Z,french_672.wav,0,pull,1845,37,5,5,francais,m,7,0.7,33.12369615,0.78329539
58bfee7de5869400018f5e9e,7,0,2024-02-27T11:13:13.714Z,french_672.wav,0,pull,1845,37,5,5,francais,m,8,0.8,3.43276833,0.23496053
58bfee7de5869400018f5e9e,7,0,2024-02-27T11:13:13.714Z,french_672.wav,0,pull,1845,37,5,5,francais,m,9,0.9,-39.94820872,0.10186009
58bfee7de5869400018f5e9e,7,0,2024-02-27T11:13:13.714Z,french_672.wav,0,pull,1845,37,5,5,francais,m,10,1.0,74.47431305,0.92703632
58bfee7de5869400018f5e9e,7,0,2024-02-27T11:13:13.714Z,french_672.wav,0,pull,1845,37,5,5,francais,m,11,1.1,21.91430586,1.77981995
58bfee7de5869400018f5e9e,7,0,2024-02-27T11:13:13.714Z,french_672.wav,0,pull,1845,37,5,5,francais,m,12,1.14141667,-6.84202398,0.93084115
58bfee7de5869400018f5e9e,8,0,2024-02-27T11:13:13.714Z,french_842.wav,0,poule,1161,37,5,5,francais,m,0,0.0,-14.6621915,1.29563872
58bfee7de5869400018f5e9e,8,0,2024-02-27T11:13:13.714Z,french_842.wav,0,poule,1161,37,5,5,francais,m,1,0.1,58.26484617,1.98590439
58bfee7de5869400018f5e9e,8,0,2024-02-27T11:13:13.714Z,french_842.wav,0,poule,1161,37,5,5,francais,m,2,0.2,-28.18109147,0.87867447
58bfee7de5869400018f5e9e,8,0,2024-02-27T11:13:13.714Z,french_842.wav,0,poule,1161,37,5,5,francais,m,3,0.3,-40.73880456,1.23089187
58bfee7de5869400018f5e9e,8,0,2024-02-27T11:13:13.714Z,french_842.wav,0,poule,1161,37,5,5,francais,m,4,0.4,-82.44418112,1.09137094
58bfee7de5869400018f5e9e,8,0,2024-02-27T11:13:13.714Z,french_842.wav,0,poule,1161,37,5,5,francais,m,5,0.5,21.69569036,1.30354814
58bfee7de5869400018f5e9e,8,0,2024-02-27T11:13:13.714Z,french_842.wav,0,poule,1161,37,5,5,francais,m,6,0.6,-66.1415884,0.5635244
58bfee7de5869400018f5e9e,8,0,2024-02-27T11:13:13.714Z,french_842.wav,0,poule,1161,37,5,5,francais,m,7,0.7,94.24119963,0.77093559
58bfee7de5869400018f5e9e,8,0,2024-02-27T11:13:13.714Z,french_842.wav,0,poule,1161,37,5,5,francais,m,8,0.8,88.68830767,1.98831599
58bfee7de5869400018f5e9e,8,0,2024-02-27T11:13:13.714Z,french_842.wav,0,poule,1161,37,5,5,francais,m,9,0.9,54.23873464,0.57043998
58bfee7de5869400018f5e9e,8,0,2024-02-27T11:13:13.714Z,french_842.wav,0,poule,1161,37,5,5,francais,m,10,1.0,80.38497769,1.5403888
58bfee7de5869400018f5e9e,8,0,2024-02-27T11:13:13.714Z,french_842.wav,0,poule,1161,37,5,5,francais,m,11,1.1,58.10558011,0.53885693
58bfee7de5869400018f5e9e,8,0,2024-02-27T11:13:13.714Z,french_842.wav,0,poule,1161,37,5,5,francais,m,12,1.14141667,-78.08033462,0.32293885
58bfee7de5869400018f5e9e,9,0,2024-02-27T11:13:13.714Z,french_240.wav,0,poule,738,37,5,5,francais,m,0,0.0,79.28024055,1.48897581
58bfee7de5869400018f5e9e,9,0,2024-02-27T11:13:13.714Z,french_240.wav,0,poule,738,37,5,5,francais,m,1,0.1,39.9173306,0.75408064
58bfee7de5869400018f5e9e,9,0,2024-02-27T11:13:13.714Z,french_240.wav,0,poule,738,37,5,5,francais,m,2,0.2,-2.70400976,0.39468673
58bfee7de5869400018f5e9e,9,0,2024-02-27T11:13:13.714Z,french_240.wav,0,poule,738,37,5,5,francais,m,3,0.3,39.39701163,1.23817767
58bfee7de5869400018f5e9e,9,0,2024-02-27T11:13:13.714Z,french_240.wav,0,poule,738,37,5,5,francais,m,4,0.4,79.19766018,0.44750026
58bfee7de5869400018f5e9e,9,0,2024-02-27T11:13:13.714Z,french_240.wav,0,poule,738,37,5,5,francais,m,5,0.5,-76.7629426,0.89933765
58bfee7de5869400018f5e9e,9,0,2024-02-27T11:13:13.714Z,french_240.wav,0,poule,738,37,5,5,francais,m,6,0.6,-31.05375973,0.57627918
58bfee7de5869400018f5e9e,9,0,2024-02-27T11:13:13.714Z,french_240.wav,0,poule,738,37,5,5,francais,m,7,0.7,31.78885255,1.06601512
58bfee7de5869400018f5e9e,9,0,2024-02-27T11:13:13.714Z,french_240.wav,0,poule,738,37,5,5,francais,m,8,0.8,44.52880411,1.28390236
58bfee7de5869400018f5e9e,9,0,2024-02-27T11:13:13.714Z,french_240.wav,0,poule,738,37,5,5,francais,m,9,0.9,96.26715937,1.31345705
58bfee7de5869400018f5e9e,9,0,2024-02-27T11:13:13.714Z,french_240.wav,0,poule,738,37,5,5,francais,m,10,1.0,91.69005138,0.48894908
58bfee7de5869400018f5e9e,9,0,2024-02-27T11:13:13.714Z,french_240.wav,0,poule,738,37,5,5,francais,m,11,1.1,13.24674088,1.31101528
58bfee7de5869400018f5e9e,9,0,2024-02-27T11:13:13.714Z,french_240.wav,0,poule,738,37,5,5,francais,m,12,1.14141667,-8.33706819,0.7531849
58bfee7de5869400018f5e9e,10,0,2024-02-27T11:13:13.714Z,french_638.wav,0,pull,968,37,5,5,francais,m,0,0.0,24.10332876,1.30118958
58bfee7de5869400018f5e9e,10,0,2024-02-27T11:13:13.714Z,french_638.wav,0,pull,968,37,5,5,francais,m,1,0.1,32.02867085,1.62073515
58bfee7de5869400018f5e9e,10,0,2024-02-27T11:13:13.714Z,french_638.wav,0,pull,968,37,5,5,francais,m,2,0.2,1.29939719,1.30287272
58bfee7de5869400018f5e9e,10,0,2024-02-27T11:13:13.714Z,french_638.wav,0,pull,968,37,5,5,francais,m,3,0.3,-44.40258825,0.74134116
58bfee7de5869400018f5e9e,10,0,2024-02-27T11:13:13.714Z,french_638.wav,0,pull,968,37,5,5,francais,m,4,0.4,97.18876934,1.56205412
58bfee7de5869400018f5e9e,10,0,2024-02-27T11:13:13.714Z,french_638.wav,0,pull,968,37,5,5,francais,m,5,0.5,-12.30944177,0.56116492
58bfee7de5869400018f5e9e,10,0,2024-02-27T11:13:13.714Z,french_638.wav,0,pull,968,37,5,5,francais,m,6,0.6,-48.49998348,1.30243736
58bfee7de5869400018f5e9e,10,0,2024-02-27T11:13:13.714Z,french_638.wav,0,pull,968,37,5,5,francais,m,7,0.7,-40.05211121,1.7883874
58bfee7de5869400018f5e9e,10,0,2024-02-27T11:13:13.714Z,french_638.wav,0,pull,968,37,5,5,francais,m,8,0.8,-21.78672943,0.99108579
58bfee7de5869400018f5e9e,10,0,2024-02-27T11:13:13.714Z,french_638.wav,0,pull,968,37,5,5,francais,m,9,0.9,5.53380977,1.30235669
58bfee7de5869400018f5e9e,10,0,2024-02-27T11:13:13.714Z,french_638.wav,0,pull,968,37,5,5,francais,m,10,1.0,70.33014347,1.07221989
58bfee7de5869400018f5e9e,10,0,2024-02-27T11:13:13.714Z,french_638.wav,0,pull,968,37,5,5,francais,m,11,1.1,-13.64024382,1.48013576
58bfee7de5869400018f5e9e,10,0,2024-02-27T11:13:13.714Z,french_638.wav,0,pull,968,37,5,5,francais,m,12,1.14141667,22.08022903,0.22008977
58bfee7de5869400018f5e9e,11,0,2024-02-27T11:13:13.714Z,french_275.wav,0,pull,1695,37,5,5,francais,m,0,0.0,-91.39287319,1.90354156
58bfee7de5869400018f5e9e,11,0,2024-02-27T11:13:13.714Z,french_275.wav,0,pull,1695,37,5,5,francais,m,1,0.1,22.10547383,0.54315679
58bfee7de5869400018f5e9e,11,0,2024-02-27T11:13:13.714Z,french_275.wav,0,pull,1695,37,5,5,francais,m,2,0.2,-21.22592408,0.64106827
58bfee7de5869400018f5e9e,11,0,2024-02-27T11:13:13.714Z,french_275.wav,0,pull,1695,37,5,5,francais,m,3,0.3,72.24714003,1.19782448
58bfee7de5869400018f5e9e,11,0,2024-02-27T11:13:13.714Z,french_275.wav,0,pull,1695,37,5,5,francais,m,4,0.4,61.38684723,0.97884644
58bfee7de5869400018f5e9e,11,0,2024-02-27T11:13:13.714Z,french_275.wav,0,pull,1695,37,5,5,francais,m,5,0.5,-33.49357785,0.24795855
58bfee7de5869400018f5e9e,11,0,2024-02-27T11:13:13.714Z,french_275.wav,0,pull,1695,37,5,5,francais,m,6,0.6,-22.32450075,0.94645389
58bfee7de5869400018f5e9e,11,0,2024-02-27T11:13:13.714Z,french_275.wav,0,pull,1695,37,5,5,francais,m,7,0.7,-57.48612132,1.89730656
58bfee7de5869400018f5e9e,11,0,2024-02-27T11:13:13.714Z,french_275.wav,0,pull,1695,37,5,5,francais,m,8,0.8,-68.59893206,1.68481666
58bfee7de5869400018f5e9e,11,0,2024-02-27T11:13:13.714Z,french_275.wav,0,pull,1695,37,5,5,francais,m,9,0.9,-44.92566121,1.9522513
58bfee7de5869400018f5e9e,11,0,2024-02-27T11:13:13.714Z,french_275.wav,0,pull,1695,37,5,5,francais,m,10,1.0,65.4486236,1.20961361
58bfee7de5869400018f5e9e,11,0,2024-02-27T11:13:13.714Z,french_275.wav,0,pull,1695,37,5,5,francais,m,11,1.1,30.92096177,0.71442014
58bfee7de5869400018f5e9e,11,0,2024-02-27T11:13:13.714Z,french_275.wav,0,pull,1695,37,5,5,francais,m,12,1.14141667,-41.22661434,1.65151151
58bfee7de5869400018f5e9e,12,0,2024-02-27T11:13:13.714Z,french_754.wav,0,poule,1173,37,5,5,francais,m,0,0.0,-84.307761,1.73493973
58bfee7de5869400018f5e9e,12,0,2024-02-27T11:13:13.714Z,french_754.wav,0,poule,1173,37,5,5,francais,m,1,0.1,-47.62124767,1.3102964
58bfee7de5869400018f5e9e,12,0,2024-02-27T11:13:13.714Z,french_754.wav,0,poule,1173,37,5,5,francais,m,2,0.2,-12.79145766,0.59352597
58bfee7de5869400018f5e9e,12,0,2024-02-27T11:13:13.714Z,french_754.wav,0,poule,1173,37,5,5,francais,m,3,0.3,-31.8164057,1.7032681
58bfee7de5869400018f5e9e,12,0,2024-02-27T11:13:13.714Z,french_754.wav,0,poule,1173,37,5,5,francais,m,4,0.4,-8.66758057,0.18685858
58bfee7de5869400018f5e9e,12,0,2024-02-27T11:13:13.714Z,french_754.wav,0,poule,1173,37,5,5,francais,m,5,0.5,-39.98987583,0.87140851
58bfee7de5869400018f5e9e,12,0,2024-02-27T11:13:13.714Z,french_754.wav,0,poule,1173,37,5,5,francais,m,6,0.6,85.58862918,1.09552436
58bfee7de5869400018f5e9e,12,0,2024-02-27T11:13:13.714Z,french_754.wav,0,poule,1173,37,5,5,francais,m,7,0.7,28.85356743,0.38483895
58bfee7de5869400018f5e9e,12,0,2024-02-27T11:13:13.714Z,french_754.wav,0,poule,1173,37,5,5,francais,m,8,0.8,8.72964996,1.64570353
58bfee7de5869400018f5e9e,12,0,2024-02-27T11:13:13.714Z,french_754.wav,0,poule,1173,37,5,5,francais,m,9,0.9,-60.08793264,1.67708663
58bfee7de5869400018f5e9e,12,0,2024-02-27T11:13:13.714Z,french_754.wav,0,poule,1173,37,5,5,francais,m,10,1.0,51.79044132,0.3181758
58bfee7de5869400018f5e9e,12,0,2024-02-27T11:13:13.714Z,french_754.wav,0,poule,1173,37,5,5,francais,m,11,1.1,91.281273,0.66657575
58bfee7de5869400018f5e9e,12,0,2024-02-27T11:13:13.714Z,french_754.wav,0,poule,1173,37,5,5,francais,m,12,1.14141667,-82.03639439,1.25795178
58bfee7de5869400018f5e9e,13,0,2024-02-27T11:13:13.714Z,french_684.wav,0,pull,1916,37,5,5,francais,m,0,0.0,-88.96240825,1.78476448
58bfee7de5869400018f5e9e,13,0,2024-02-27T11:13:13.714Z,french_684.wav,0,pull,1916,37,5,5,francais,m,1,0.1,-54.37508207,0.02576857
58bfee7de5869400018f5e9e,13,0,2024-02-27T11:13:13.714Z,french_684.wav,0,pull,1916,37,5,5,francais,m,2,0.2,-91.57905397,1.04724647
58bfee7de5869400018f5e9e,13,0,2024-02-27T11:13:13.714Z,french_684.wav,0,pull,1916,37,5,5,francais,m,3,0.3,-58.85501017,0.76694618
58bfee7de5869400018f5e9e,13,0,2024-02-27T11:13:13.714Z,french_684.wav,0,pull,1916,37,5,5,francais,m,4,0.4,44.82481671,0.80269361
58bfee7de5869400018f5e9e,13,0,2024-02-27T11:13:13.714Z,french_684.wav,0,pull,1916,37,5,5,francais,m,5,0.5,-70.60806513,0.84512097
58bfee7de5869400018f5e9e,13,0,2024-02-27T11:13:13.714Z,french_684.wav,0,pull,1916,37,5,5,francais,m,6,0.6,94.32148608,0.97813642
58bfee7de5869400018f5e9e,13,0,2024-02-27T11:13:13.714Z,french_684.wav,0,pull,1916,37,5,5,francais,m,7,0.7,-17.32520236,0.54666182
58bfee7de5869400018f5e9e,13,0,2024-02-27T11:13:13.714Z,french_684.wav,0,pull,1916,37,5,5,francais,m,8,0.8,29.06027198,0.58446507
58bfee7de5869400018f5e9e,13,0,2024-02-27T11:13:13.714Z,french_684.wav,0,pull,1916,37,5,5,francais,m,9,0.9,-57.57833097,0.42247579
58bfee7de5869400018f5e9e,13,0,2024-02-27T11:13:13.714Z,french_684.wav,0,pull,1916,37,5,5,francais,m,10,1.0,-48.20877129,0.8068102
58bfee7de5869400018f5e9e,13,0,2024-02-27T11:13:13.714Z,french_684.wav,0,pull,1916,37,5,5,francais,m,11,1.1,58.87949866,0.07609372
58bfee7de5869400018f5e9e,13,0,2024-02-27T11:13:13.714Z,french_684.wav,0,pull,1916,37,5,5,francais,m,12,1.14141667,-11.47571774,1.952562
58bfee7de5869400018f5e9e,14,0,2024-02-27T11:13:13.714Z,french_426.wav,0,pull,758,37,5,5,francais,m,0,0.0,-6.32763113,1.69747545
58bfee7de5869400018f5e9e,14,0,2024-02-27T11:13:13.714Z,french_426.wav,0,pull,758,37,5,5,francais,m,1,0.1,52.57695115,0.44356632
58bfee7de5869400018f5e9e,14,0,2024-02-27T11:13:13.714Z,french_426.wav,0,pull,758,37,5,5,francais,m,2,0.2,41.60389797,0.19149228
58bfee7de5869400018f5e9e,14,0,2024-02-27T11:13:13.714Z,french_426.wav,0,pull,758,37,5,5,francais,m,3,0.3,-8.66153644,0.04934427
58bfee7de5869400018f5e9e,14,0,2024-02-27T11:13:13.714Z,french_426.wav,0,pull,758,37,5,5,francais,m,4,0.4,21.98741159,1.95400703
58bfee7de5869400018f5e9e,14,0,2024-02-27T11:13:13.714Z,french_426.wav,0,pull,758,37,5,5,francais,m,5,0.5,7.59234245,0.49820864
58bfee7de5869400018f5e9e,14,0,2024-02-27T11:13:13.714Z,french_426.wav,0,pull,758,37,5,5,francais,m,6,0.6,70.82755328,0.51266747
58bfee7de5869400018f5e9e,14,0,2024-02-27T11:13:13.714Z,french_426.wav,0,pull,758,37,5,5,francais,m,7,0.7,17.66979404,1.86795174
58bfee7de5869400018f5e9e,14,0,2024-02-27T11:13:13.714Z,french_426.wav,0,pull,758,37,5,5,francais,m,8,0.8,-65.60181314,1.30935529
58bfee7de5869400018f5e9e,14,0,2024-02-27T11:13:13.714Z,french_426.wav,0,pull,758,37,5,5,francais,m,9,0.9,-44.40728826,0.05861012
58bfee7de5869400018f5e9e,14,0,2024-02-27T11:13:13.714Z,french_426.wav,0,pull,758,37,5,5,francais,m,10,1.0,-52.60669598,1.40782227
58bfee7de5869400018f5e9e,14,0,2024-02-27T11:13:13.714Z,french_426.wav,0,pull,758,37,5,5,francais,m,11,1.1,-70.77145759,1.0203891
58bfee7de5869400018f5e9e,14,0,2024-02-27T11:13:13.714Z,french_426.wav,0,pull,758,37,5,5,francais,m,12,1.14141667,-30.0338136,1.4169691
58bfee7de5869400018f5e9e,15,0,2024-02-27T11:13:13.714Z,french_613.wav,0,pull,992,37,5,5,francais,m,0,0.0,-79.12321817,0.47548878
58bfee7de5869400018f5e9e,15,0,2024-02-27T11:13:13.714Z,french_613.wav,0,pull,992,37,5,5,francais,m,1,0.1,-7.41492532,0.76860871
58bfee7de5869400018f5e9e,15,0,2024-02-27T11:13:13.714Z,french_613.wav,0,pull,992,37,5,5,francais,m,2,0.2,-83.26616323,0.13725989
58bfee7de5869400018f5e9e,15,0,2024-02-27T11:13:13.714Z,french_613.wav,0,pull,992,37,5,5,francais,m,3,0.3,76.11721718,1.43493141
58bfee7de5869400018f5e9e,15,0,2024-02-27T11:13:13.714Z,french_613.wav,0,pull,992,37,5,5,francais,m,4,0.4,-86.02724826,0.64104135
58bfee7de5869400018f5e9e,15,0,2024-02-27T11:13:13.714Z,french_613.wav,0,pull,992,37,5,5,francais,m,5,0.5,-21.97136908,0.69636711
58bfee7de5869400018f5e9e,15,0,2024-02-27T11:13:13.714Z,french_613.wav,0,pull,992,37,5,5,francais,m,6,0.6,-20.66842631,0.03283489
58bfee7de5869400018f5e9e,15,0,2024-02-27T11:13:13.714Z,french_613.wav,0,pull,992,37,5,5,francais,m,7,0.7,-18.6862133,1.11684822
58bfee7de5869400018f5e9e,15,0,2024-02-27T11:13:13.714Z,french_613.wav,0,pull,992,37,5,5,francais,m,8,0.8,93.72513797,0.70396807
58bfee7de5869400018f5e9e,15,0,2024-02-27T11:13:13.714Z,french_613.wav,0,pull,992,37,5,5,francais,m,9,0.9,-61.43949343,0.51356951
58bfee7de5869400018f5e9e,15,0,2024-02-27T11:13:13.714Z,french_613.wav,0,pull,992,37,5,5,francais,m,10,1.0,-85.97992137,0.02840793
58bfee7de5869400018f5e9e,15,0,2024-02-27T11:13:13.714Z,french_613.wav,0,pull,992,37,5,5,francais,m,11,1.1,65.40328987,0.75953201
58bfee7de5869400018f5e9e,15,0,2024-02-27T11:13:13.714Z,french_613.wav,0,pull,992,37,5,5,francais,m,12,1.14141667,-7.08798818,0.90179979
58bfee7de5869400018f5e9e,16,0,2024-02-27T11:13:13.714Z,french_372.wav,0,pull,1406,37,5,5,francais,m,0,0.0,53.83123276,0.9084392
58bfee7de5869400018f5e9e,16,0,2024-02-27T11:13:13.714Z,french_372.wav,0,pull,1406,37,5,5,francais,m,1,0.1,-27.04821844,0.09293525
58bfee7de5869400018f5e9e,16,0,2024-02-27T11:13:13.714Z,french_372.wav,0,pull,1406,37,5,5,francais,m,2,0.2,78.33609214,1.96631007
58bfee7de5869400018f5e9e,16,0,2024-02-27T11:13:13.714Z,french_372.wav,0,pull,1406,37,5,5,francais,m,3,0.3,-78.11586559,1.72866936
58bfee7de5869400018f5e9e,16,0,2024-02-27T11:13:13.714Z,french_372.wav,0,pull,1406,37,5,5,francais,m,4,0.4,-94.60748533,0.92226198
58bfee7de5869400018f5e9e,16,0,2024-02-27T11:13:13.714Z,french_372.wav,0,pull,1406,37,5,5,francais,m,5,0.5,62.83015715,0.25318941
58bfee7de5869400018f5e9e,16,0,2024-02-27T11:13:13.714Z,french_372.wav,0,pull,1406,37,5,5,francais,m,6,0.6,67.82201499,1.49472832
58bfee7de5869400018f5e9e,16,0,2024-02-27T11:13:13.714Z,french_372.wav,0,pull,1406,37,5,5,francais,m,7,0.7,-70.53647708,1.73802722
58bfee7de5869400018f5e9e,16,0,2024-02-27T11:13:13.714Z,french_372.wav,0,pull,1406,37,5,5,francais,m,8,0.8,-76.96545312,1.70359471
58bfee7de5869400018f5e9e,16,0,2024-02-27T11:13:13.714Z,french_372.wav,0,pull,1406,37,5,5,francais,m,9,0.9,-50.42790053,0.97070185
58bfee7de5869400018f5e9e,16,0,2024-02-27T11:13:13.714Z,french_372.wav,0,pull,1406,37,5,5,francais,m,10,1.0,72.8443529,1.23269087
58bfee7de5869400018f5e9e,16,0,2024-02-27T11:13:13.714Z,french_372.wav,0,pull,1406,37,5,5,francais,m,11,1.1,-42.09585527,0.48846866
58bfee7de5869400018f5e9e,16,0,2024-02-27T11:13:13.714Z,french_372.wav,0,pull,1406,37,5,5,francais,m,12,1.14141667,-94.08216846,0.68010024
58bfee7de5869400018f5e9e,17,0,2024-02-27T11:13:13.714Z,french_253.wav,0,pull,749,37,5,5,francais,m,0,0.0,-89.5826566,1.00310862
58bfee7de5869400018f5e9e,17,0,2024-02-27T11:13:13.714Z,french_253.wav,0,pull,749,37,5,5,francais,m,1,0.1,-63.70370357,1.7781702
58bfee7de5869400018f5e9e,17,0,2024-02-27T11:13:13.714Z,french_253.wav,0,pull,749,37,5,5,francais,m,2,0.2,-14.51209822,0.53130159
58bfee7de5869400018f5e9e,17,0,2024-02-27T11:13:13.714Z,french_253.wav,0,pull,749,37,5,5,francais,m,3,0.3,5.82695505,0.05471502
58bfee7de5869400018f5e9e,17,0,2024-02-27T11:13:13.714Z,french_253.wav,0,pull,749,37,5,5,francais,m,4,0.4,-19.57946925,0.52945793
58bfee7de5869400018f5e9e,17,0,2024-02-27T11:13:13.714Z,french_253.wav,0,pull,749,37,5,5,francais,m,5,0.5,87.57565015,1.66365335
58bfee7de5869400018f5e9e,17,0,2024-02-27T11:13:13.714Z,french_253.wav,0,pull,749,37,5,5,francais,m,6,0.6,-73.1648263,1.72939253
58bfee7de5869400018f5e9e,17,0,2024-02-27T11:13:13.714Z,french_253.wav,0,pull,749,37,5,5,francais,m,7,0.7,-39.90368027,1.34794684
58bfee7de5869400018f5e9e,17,0,2024-02-27T11:13:13.714Z,french_253.wav,0,pull,749,37,5,5,francais,m,8,0.8,14.9886667,1.19439909
58bfee7de5869400018f5e9e,17,0,2024-02-27T11:13:13.714Z,french_253.wav,0,pull,749,37,5,5,francais,m,9,0.9,7.8580164,0.55204652
58bfee7de5869400018f5e9e,17,0,2024-02-27T11:13:13.714Z,french_253.wav,0,pull,749,37,5,5,francais,m,10,1.0,-2.22909138,1.59445373
58bfee7de5869400018f5e9e,17,0,2024-02-27T11:13:13.714Z,french_253.wav,0,pull,749,37,5,5,francais,m,11,1.1,-72.50653721,1.19009319
58bfee7de5869400018f5e9e,17,0,2024-02-27T11:13:13.714Z,french_253.wav,0,pull,749,37,5,5,francais,m,12,1.14141667,-11.98086269,1.9048409
58bfee7de5869400018f5e9e,18,0,2024-02-27T11:13:13.714Z,french_486.wav,0,pull,693,37,5,5,francais,m,0,0.0,-98.02817501,1.75569009
58bfee7de5869400018f5e9e,18,0,2024-02-27T11:13:13.714Z,french_486.wav,0,pull,693,37,5,5,francais,m,1,0.1,65.33144032,1.7050464
58bfee7de5869400018f5e9e,18,0,2024-02-27T11:13:13.714Z,french_486.wav,0,pull,693,37,5,5,francais,m,2,0.2,61.38493925,0.61683653
58bfee7de5869400018f5e9e,18,0,2024-02-27T11:13:13.714Z,french_486.wav,0,pull,693,37,5,5,francais,m,3,0.3,96.45925622,1.35566853
58bfee7de5869400018f5e9e,18,0,2024-02-27T11:13:13.714Z,french_486.wav,0,pull,693,37,5,5,francais,m,4,0.4,5.96921881,0.89727466
58bfee7de5869400018f5e9e,18,0,2024-02-27T11:13:13.714Z,french_486.wav,0,pull,693,37,5,5,francais,m,5,0.5,30.65383736,1.1713147
58bfee7de5869400018f5e9e,18,0,2024-02-27T11:13:13.714Z,french_486.wav,0,pull,693,37,5,5,francais,m,6,0.6,-44.15981347,1.99548871
58bfee7de5869400018f5e9e,18,0,2024-02-27T11:13:13.714Z,french_486.wav,0,pull,693,37,5,5,francais,m,7,0.7,31.03879088,0.16009728
58bfee7de5869400018f5e9e,18,0,2024-02-27T11:13:13.714Z,french_486.wav,0,pull,693,37,5,5,francais,m,8,0.8,51.75647773,0.88389912
58bfee7de5869400018f5e9e,18,0,2024-02-27T11:13:13.714Z,french_486.wav,0,pull,693,37,5,5,francais,m,9,0.9,-98.74797635,0.14376531
58bfee7de5869400018f5e9e,18,0,2024-02-27T11:13:13.714Z,french_486.wav,0,pull,693,37,5,5,francais,m,10,1.0,42.51271204,0.54659097
58bfee7de5869400018f5e9e,18,0,2024-02-27T11:13:13.714Z,french_486.wav,0,pull,693,37,5,5,francais,m,11,1.1,63.21062453,1.09027863
58bfee7de5869400018f5e9e,18,0,2024-02-27T11:13:13.714Z,french_486.wav,0,pull,693,37,5,5,francais,m,12,1.14141667,-77.59539186,0.71851787
58bfee7de5869400018f5e9e,19,0,2024-02-27T11:13:13.714Z,french_27.wav,0,pull,539,37,5,5,francais,m,0,0.0,-1.50377204,0.3104196
58bfee7de5869400018f5e9e,19,0,2024-02-27T11:13:13.714Z,french_27.wav,0,pull,539,37,5,5,francais,m,1,0.1,7.47875837,0.09567804
58bfee7de5869400018f5e9e,19,0,2024-02-27T11:13:13.714Z,french_27.wav,0,pull,539,37,5,5,francais,m,2,0.2,-50.14128102,0.85087588
58bfee7de5869400018f5e9e,19,0,2024-02-27T11:13:13.714Z,french_27.wav,0,pull,539,37,5,5,francais,m,3,0.3,-88.39961719,1.45265647
58bfee7de5869400018f5e9e,19,0,2024-02-27T11:13:13.714Z,french_27.wav,0,pull,539,37,5,5,francais,m,4,0.4,-49.33965182,1.34800208
58bfee7de5869400018f5e9e,19,0,2024-02-27T11:13:13.714Z,french_27.wav,0,pull,539,37,5,5,francais,m,5,0.5,-68.54669644,1.04395523
58bfee7de5869400018f5e9e,19,0,2024-02-27T11:13:13.714Z,french_27.wav,0,pull,539,37,5,5,francais,m,6,0.6,-12.90156587,1.29844977
58bfee7de5869400018f5e9e,19,0,2024-02-27T11:13:13.714Z,french_27.wav,0,pull,539,37,5,5,francais,m,7,0.7,70.78738425,0.13763237
58bfee7de5869400018f5e9e,19,0,2024-02-27T11:13:13.714Z,french_27.wav,0,pull,539,37,5,5,francais,m,8,0.8,-85.06905441,1.23467997
58bfee7de5869400018f5e9e,19,0,2024-02-27T11:13:13.714Z,french_27.wav,0,pull,539,37,5,5,francais,m,9,0.9,-13.50869681,0.09749829
58bfee7de5869400018f5e9e,19,0,2024-02-27T11:13:13.714Z,french_27.wav,0,pull,539,37,5,5,francais,m,10,1.0,34.30290891,0.14969302
58bfee7de5869400018f5e9e,19,0,2024-02-27T11:13:13.714Z,french_27.wav,0,pull,539,37,5,5,francais,m,11,1.1,-41.23505264,0.43290894
58bfee7de5869400018f5e9e,19,0,2024-02-27T11:13:13.714Z,french_27.wav,0,pull,539,37,5,5,francais,m,12,1.14141667,12.46163778,0.76657439
58bfee7de5869400018f5e9e,20,0,2024-02-27T11:13:13.714Z,french_197.wav,0,poule,440,37,5,5,francais,m,0,0.0,-32.22739451,1.51686325
58bfee7de5869400018f5e9e,20,0,2024-02-27T11:13:13.714Z,french_197.wav,0,poule,440,37,5,5,francais,m,1,0.1,-62.71984809,0.24201413
58bfee7de5869400018f5e9e,20,0,2024-02-27T11:13:13.714Z,french_197.wav,0,poule,440,37,5,5,francais,m,2,0.2,74.98952372,0.91229046
58bfee7de5869400018f5e9e,20,0,2024-02-27T11:13:13.714Z,french_197.wav,0,poule,440,37,5,5,francais,m,3,0.3,45.74615237,1.18910292
58bfee7de5869400018f5e9e,20,0,2024-02-27T11:13:13.714Z,french_197.wav,0,poule,440,37,5,5,francais,m,4,0.4,-90.51519145,0.62237854
58bfee7de5869400018f5e9e,20,0,2024-02-27T11:13:13.714Z,french_197.wav,0,poule,440,37,5,5,francais,m,5,0.5,-55.57177481,1.52029181
58bfee7de5869400018f5e9e,20,0,2024-02-27T11:13:13.714Z,french_197.wav,0,poule,440,37,5,5,francais,m,6,0.6,29.61889111,0.64553376
58bfee7de5869400018f5e9e,20,0,2024-02-27T11:13:13.714Z,french_197.wav,0,poule,440,37,5,5,francais,m,7,0.7,-22.23442676,0.69050991
58bfee7de5869400018f5e9e,20,0,2024-02-27T11:13:13.714Z,french_197.wav,0,poule,440,37,5,5,francais,m,8,0.8,-2.38421375,1.96622619
58bfee7de5869400018f5e9e,20,0,2024-02-27T11:13:13.714Z,french_197.wav,0,poule,440,37,5,5,francais,m,9,0.9,20.49896048,1.79065794
58bfee7de5869400018f5e9e,20,0,2024-02-27T11:13:13.714Z,french_197.wav,0,poule,440,37,5,5,francais,m,10,1.0,-44.60269007,0.97033515
58bfee7de5869400018f5e9e,20,0,2024-02-27T11:13:13.714Z,french_197.wav,0,poule,440,37,5,5,francais,m,11,1.1,76.8804822,0.66551295
58bfee7de5869400018f5e9e,20,0,2024-02-27T11:13:13.714Z,french_197.wav,0,poule,440,37,5,5,francais,m,12,1.14141667,16.68296349,0.45334556
58bfee7de5869400018f5e9e,21,0,2024-02-27T11:13:13.714Z,french_603.wav,0,pull,2708,37,5,5,francais,m,0,0.0,19.6945105,1.69967751
58bfee7de5869400018f5e9e,21,0,2024-02-27T11:13:13.714Z,french_603.wav,0,pull,2708,37,5,5,francais,m,1,0.1,53.62811089,0.5893267
58bfee7de5869400018f5e9e,21,0,2024-02-27T11:13:13.714Z,french_603.wav,0,pull,2708,37,5,5,francais,m,2,0.2,-39.30903103,0.72876725
58bfee7de5869400018f5e9e,21,0,2024-02-27T11:13:13.714Z,french_603.wav,0,pull,2708,37,5,5,francais,m,3,0.3,54.20589937,0.31950758
58bfee7de5869400018f5e9e,21,0,2024-02-27T11:13:13.714Z,french_603.wav,0,pull,2708,37,5,5,francais,m,4,0.4,-95.2083084,1.11794186
58bfee7de5869400018f5e9e,21,0,2024-02-27T11:13:13.714Z,french_603.wav,0,pull,2708,37,5,5,francais,m,5,0.5,29.46971661,0.00334081
58bfee7de5869400018f5e9e,21,0,2024-02-27T11:13:13.714Z,french_603.wav,0,pull,2708,37,5,5,francais,m,6,0.6,-7.96409569,1.04777544
58bfee7de5869400018f5e9e,21,0,2024-02-27T11:13:13.714Z,french_603.wav,0,pull,2708,37,5,5,francais,m,7,0.7,91.50199685,0.15242204
58bfee7de5869400018f5e9e,21,0,2024-02-27T11:13:13.714Z,french_603.wav,0,pull,2708,37,5,5,francais,m,8,0.8,48.8288282,1.6691606
58bfee7de5869400018f5e9e,21,0,2024-02-27T11:13:13.714Z,french_603.wav,0,pull,2708,37,5,5,francais,m,9,0.9,47.6951267,1.19043437
58bfee7de5869400018f5e9e,21,0,2024-02-27T11:13:13.714Z,french_603.wav,0,pull,2708,37,5,5,francais,m,10,1.0,89.55727136,1.93432652
58bfee7de5869400018f5e9e,21,0,2024-02-27T11:13:13.714Z,french_603.wav,0,pull,2708,37,5,5,francais,m,11,1.1,-25.40894762,0.50605662
58bfee7de5869400018f5e9e,21,0,2024-02-27T11:13:13.714Z,french_603.wav,0,pull,2708,37,5,5,francais,m,12,1.14141667,-65.1673552,1.63687901
58bfee7de5869400018f5e9e,22,0,2024-02-27T11:13:13.714Z,french_126.wav,0,pull,1164,37,5,5,francais,m,0,0.0,-47.50319365,1.7258072
58bfee7de5869400018f5e9e,22,0,2024-02-27T11:13:13.714Z,french_126.wav,0,pull,1164,37,5,5,francais,m,1,0.1,7.1744106,1.03228838
58bfee7de5869400018f5e9e,22,0,2024-02-27T11:13:13.714Z,french_126.wav,0,pull,1164,37,5,5,francais,m,2,0.2,-57.32327794,0.24012817
58bfee7de5869400018f5e9e,22,0,2024-02-27T11:13:13.714Z,french_126.wav,0,pull,1164,37,5,5,francais,m,3,0.3,31.39211364,0.38913186
58bfee7de5869400018f5e9e,22,0,2024-02-27T11:13:13.714Z,french_126.wav,0,pull,1164,37,5,5,francais,m,4,0.4,53.99094674,0.22087612
58bfee7de5869400018f5e9e,22,0,2024-02-27T11:13:13.714Z,french_126.wav,0,pull,1164,37,5,5,francais,m,5,0.5,-26.25701214,1.50069545
58bfee7de5869400018f5e9e,22,0,2024-02-27T11:13:13.714Z,french_126.wav,0,pull,1164,37,5,5,francais,m,6,0.6,-77.34266557,1.97351318
58bfee7de5869400018f5e9e,22,0,2024-02-27T11:13:13.714Z,french_126.wav,0,pull,1164,37,5,5,francais,m,7,0.7,-34.04180886,1.74293994
58bfee7de5869400018f5e9e,22,0,2024-02-27T11:13:13.714Z,french_126.wav,0,pull,1164,37,5,5,francais,m,8,0.8,86.39853896,0.68176609
58bfee7de5869400018f5e9e,22,0,2024-02-27T11:13:13.714Z,french_126.wav,0,pull,1164,37,5,5,francais,m,9,0.9,86.34329163,0.61357482
58bfee7de5869400018f5e9e,22,0,2024-02-27T11:13:13.714Z,french_126.wav,0,pull,1164,37,5,5,francais,m,10,1.0,-48.32443869,1.25399236
58bfee7de5869400018f5e9e,22,0,2024-02-27T11:13:13.714Z,french_126.wav,0,pull,1164,37,5,5,francais,m,11,1.1,-43.96297419,1.03394671
58bfee7de5869400018f5e9e,22,0,2024-02-27T11:13:13.714Z,french_126.wav,0,pull,1164,37,5,5,francais,m,12,1.14141667,18.70995966,0.12686828
58bfee7de5869400018f5e9e,23,0,2024-02-27T11:13:13.714Z,french_578.wav,0,pull,2955,37,5,5,francais,m,0,0.0,87.69276993,1.0053747
58bfee7de5869400018f5e9e,23,0,2024-02-27T11:13:13.714Z,french_578.wav,0,pull,2955,37,5,5,francais,m,1,0.1,-6.69011024,1.08201998
58bfee7de5869400018f5e9e,23,0,2024-02-27T11:13:13.714Z,french_578.wav,0,pull,2955,37,5,5,francais,m,2,0.2,34.77261508,1.30978326
58bfee7de5869400018f5e9e,23,0,2024-02-27T11:13:13.714Z,french_578.wav,0,pull,2955,37,5,5,francais,m,3,0.3,9.00297073,0.36090352
58bfee7de5869400018f5e9e,23,0,2024-02-27T11:13:13.714Z,french_578.wav,0,pull,2955,37,5,5,francais,m,4,0.4,-56.58211353,1.18596965
58bfee7de5869400018f5e9e,23,0,2024-02-27T11:13:13.714Z,french_578.wav,0,pull,2955,37,5,5,francais,m,5,0.5,-72.48915741,1.8315835
58bfee7de5869400018f5e9e,23,0,2024-02-27T11:13:13.714Z,french_578.wav,0,pull,2955,37,5,5,francais,m,6,0.6,-71.77023581,0.12847581
58bfee7de5869400018f5e9e,23,0,2024-02-27T11:13:13.714Z,french_578.wav,0,pull,2955,37,5,5,francais,m,7,0.7,51.8047657,1.50247353
58bfee7de5869400018f5e9e,23,0,2024-02-27T11:13:13.714Z,french_578.wav,0,pull,2955,37,5,5,francais,m,8,0.8,7.96298825,1.86239575
58bfee7de5869400018f5e9e,23,0,2024-02-27T11:13:13.714Z,french_578.wav,0,pull,2955,37,5,5,francais,m,9,0.9,60.27042228,1.19829159
58bfee7de5869400018f5e9e,23,0,2024-02-27T11:13:13.714Z,french_578.wav,0,pull,2955,37,5,5,francais,m,10,1.0,-58.95396632,0.97286799
58bfee7de5869400018f5e9e,23,0,2024-02-27T11:13:13.714Z,french_578.wav,0,pull,2955,37,5,5,francais,m,11,1.1,-58.35182671,1.33480816
58bfee7de5869400018f5e9e,23,0,2024-02-27T11:13:13.714Z,french_578.wav,0,pull,2955,37,5,5,francais,m,12,1.14141667,-30.86837624,1.64372193
58bfee7de5869400018f5e9e,24,0,2024-02-27T11:13:13.714Z,french_698.wav,0,poule,557,37,5,5,francais,m,0,0.0,-72.72171023,1.10424283
58bfee7de5869400018f5e9e,24,0,2024-02-27T11:13:13.714Z,french_698.wav,0,poule,557,37,5,5,francais,m,1,0.1,-92.28547811,1.63377421
58bfee7de5869400018f5e9e,24,0,2024-02-27T11:13:13.714Z,french_698.wav,0,poule,557,37,5,5,francais,m,2,0.2,78.30279975,1.39433893
58bfee7de5869400018f5e9e,24,0,2024-02-27T11:13:13.714Z,french_698.wav,0,poule,557,37,5,5,francais,m,3,0.3,-68.78486727,0.14644335
58bfee7de5869400018f5e9e,24,0,2024-02-27T11:13:13.714Z,french_698.wav,0,poule,557,37,5,5,francais,m,4,0.4,87.24301331,1.64827297
58bfee7de5869400018f5e9e,24,0,2024-02-27T11:13:13.714Z,french_698.wav,0,poule,557,37,5,5,francais,m,5,0.5,27.58390407,0.39799942
58bfee7de5869400018f5e9e,24,0,2024-02-27T11:13:13.714Z,french_698.wav,0,poule,557,37,5,5,francais,m,6,0.6,61.38962085,0.89163179
58bfee7de5869400018f5e9e,24,0,2024-02-27T11:13:13.714Z,french_698.wav,0,poule,557,37,5,5,francais,m,7,0.7,-76.7179626,0.96988788
58bfee7de5869400018f5e9e,24,0,2024-02-27T11:13:13.714Z,french_698.wav,0,poule,557,37,5,5,francais,m,8,0.8,23.60904151,1.20056585
58bfee7de5869400018f5e9e,24,0,2024-02-27T11:13:13.714Z,french_698.wav,0,poule,557,37,5,5,francais,m,9,0.9,58.8863327,1.68687528
58bfee7de5869400018f5e9e,24,0,2024-02-27T11:13:13.714Z,french_698.wav,0,poule,557,37,5,5,francais,m,10,1.0,44.33190286,1.25995821
58bfee7de5869400018f5e9e,24,0,2024-02-27T11:13:13.714Z,french_698.wav,0,poule,557,37,5,5,francais,m,11,1.1,-97.60212082,1.93576493
58bfee7de5869400018f5e9e,24,0,2024-02-27T11:13:13.714Z,french_698.wav,0,poule,557,37,5,5,francais,m,12,1.14141667,-6.89659946,1.56148329
58bfee7de5869400018f5e9e,25,0,2024-02-27T11:13:13.714Z,french_904.wav,0,poule,986,37,5,5,francais,m,0,0.0,-11.62176844,1.49355087
58bfee7de5869400018f5e9e,25,0,2024-02-27T11:13:13.714Z,french_904.wav,0,poule,986,37,5,5,francais,m,1,0.1,-97.15527311,0.51193857
58bfee7de5869400018f5e9e,25,0,2024-02-27T11:13:13.714Z,french_904.wav,0,poule,986,37,5,5,francais,m,2,0.2,23.7219884,1.25947895
58bfee7de5869400018f5e9e,25,0,2024-02-27T11:13:13.714Z,french_904.wav,0,poule,986,37,5,5,francais,m,3,0.3,-11.13047804,0.53809601
58bfee7de5869400018f5e9e,25,0,2024-02-27T11:13:13.714Z,french_904.wav,0,poule,986,37,5,5,francais,m,4,0.4,98.59989814,0.21415281
58bfee7de5869400018f5e9e,25,0,2024-02-27T11:13:13.714Z,french_904.wav,0,poule,986,37,5,5,francais,m,5,0.5,10.92949536,1.62896015
58bfee7de5869400018f5e9e,25,0,2024-02-27T11:13:13.714Z,french_904.wav,0,poule,986,37,5,5,francais,m,6,0.6,-8.2334005,0.06342806
58bfee7de5869400018f5e9e,25,0,2024-02-27T11:13:13.714Z,french_904.wav,0,poule,986,37,5,5,francais,m,7,0.7,-68.9383701,0.5262516
58bfee7de5869400018f5e9e,25,0,2024-02-27T11:13:13.714Z,french_904.wav,0,poule,986,37,5,5,francais,m,8,0.8,64.82847107,1.37854903
58bfee7de5869400018f5e9e,25,0,2024-02-27T11:13:13.714Z,french_904.wav,0,poule,986,37,5,5,francais,m,9,0.9,-91.99415487,0.72263695
58bfee7de5869400018f5e9e,25,0,2024-02-27T11:13:13.714Z,french_904.wav,0,poule,986,37,5,5,francais,m,10,1.0,-52.64833553,0.97240938
58bfee7de5869400018f5e9e,25,0,2024-02-27T11:13:13.714Z,french_904.wav,0,poule,986,37,5,5,francais,m,11,1.1,47.97880576,0.44825995
58bfee7de5869400018f5e9e,25,0,2024-02-27T11:13:13.714Z,french_904.wav,0,poule,986,37,5,5,francais,m,12,1.14141667,-73.02936526,1.11879983
58bfee7de5869400018f5e9e,26,0,2024-02-27T11:13:13.714Z,french_527.wav,0,poule,1078,37,5,5,francais,m,0,0.0,82.21391649,0.16629569
58bfee7de5869400018f5e9e,26,0,2024-02-27T11:13:13.714Z,french_527.wav,0,poule,1078,37,5,5,francais,m,1,0.1,8.23446924,0.53206339
58bfee7de5869400018f5e9e,26,0,2024-02-27T11:13:13.714Z,french_527.wav,0,poule,1078,37,5,5,francais,m,2,0.2,-66.78536599,0.7302175
58bfee7de5869400018f5e9e,26,0,2024-02-27T11:13:13.714Z,french_527.wav,0,poule,1078,37,5,5,francais,m,3,0.3,91.71269389,1.32409314
58bfee7de5869400018f5e9e,26,0,2024-02-27T11:13:13.714Z,french_527.wav,0,poule,1078,37,5,5,francais,m,4,0.4,38.34506198,0.73265348
58bfee7de5869400018f5e9e,26,0,2024-02-27T11:13:13.714Z,french_527.wav,0,poule,1078,37,5,5,francais,m,5,0.5,11.54452605,1.69253874
58bfee7de5869400018f5e9e,26,0,2024-02-27T11:13:13.714Z,french_527.wav,0,poule,1078,37,5,5,francais,m,6,0.6,96.28222232,1.17892536
58bfee7de5869400018f5e9e,26,0,2024-02-27T11:13:13.714Z,french_527.wav,0,poule,1078,37,5,5,francais,m,7,0.7,-47.65455755,0.38924981
58bfee7de5869400018f5e9e,26,0,2024-02-27T11:13:13.714Z,french_527.wav,0,poule,1078,37,5,5,francais,m,8,0.8,-79.10134883,1.19695385
58bfee7de5869400018f5e9e,26,0,2024-02-27T11:13:13.714Z,french_527.wav,0,poule,1078,37,5,5,francais,m,9,0.9,28.80832425,0.99788434
58bfee7de5869400018f5e9e,26,0,2024-02-27T11:13:13.714Z,french_527.wav,0,poule,1078,37,5,5,francais,m,10,1.0,42.88340192,1.07124619
58bfee7de5869400018f5e9e,26,0,2024-02-27T11:13:13.714Z,french_527.wav,0,poule,1078,37,5,5,francais,m,11,1.1,-29.0066371,1.45535326
58bfee7de5869400018f5e9e,26,0,2024-02-27T11:13:13.714Z,french_527.wav,0,poule,1078,37,5,5,francais,m,12,1.14141667,-55.47213333,1.05284773
58bfee7de5869400018f5e9e,27,0,2024-02-27T11:13:13.714Z,french_107.wav,0,pull,785,37,5,5,francais,m,0,0.0,48.95738848,0.23520596
58bfee7de5869400018f5e9e,27,0,2024-02-27T11:13:13.714Z,french_107.wav,0,pull,785,37,5,5,francais,m,1,0.1,-86.21350197,1.35835183
58bfee7de5869400018f5e9e,27,0,2024-02-27T11:13:13.714Z,french_107.wav,0,pull,785,37,5,5,francais,m,2,0.2,-66.15605828,1.80441503
58bfee7de5869400018f5e9e,27,0,2024-02-27T11:13:13.714Z,french_107.wav,0,pull,785,37,5,5,francais,m,3,0.3,36.09764322,1.20547982
58bfee7de5869400018f5e9e,27,0,2024-02-27T11:13:13.714Z,french_107.wav,0,pull,785,37,5,5,francais,m,4,0.4,84.94348039,1.45019214
58bfee7de5869400018f5e9e,27,0,2024-02-27T11:13:13.714Z,french_107.wav,0,pull,785,37,5,5,francais,m,5,0.5,45.37934285,1.82448315
58bfee7de5869400018f5e9e,27,0,2024-02-27T11:13:13.714Z,french_107.wav,0,pull,785,37,5,5,francais,m,6,0.6,-37.42419694,0.98390392
58bfee7de5869400018f5e9e,27,0,2024-02-27T11:13:13.714Z,french_107.wav,0,pull,785,37,5,5,francais,m,7,0.7,9.9462813,1.44557172
58bfee7de5869400018f5e9e,27,0,2024-02-27T11:13:13.714Z,french_107.wav,0,pull,785,37,5,5,francais,m,8,0.8,-34.76810552,1.21843616
58bfee7de5869400018f5e9e,27,0,2024-02-27T11:13:13.714Z,french_107.wav,0,pull,785,37,5,5,francais,m,9,0.9,-2.69499058,0.65132093
58bfee7de5869400018f5e9e,27,0,2024-02-27T11:13:13.714Z,french_107.wav,0,pull,785,37,5,5,francais,m,10,1.0,-37.67578174,0.48352105
58bfee7de5869400018f5e9e,27,0,2024-02-27T11:13:13.714Z,french_107.wav,0,pull,785,37,5,5,francais,m,11,1.1,10.67241344,1.27397433
58bfee7de5869400018f5e9e,27,0,2024-02-27T11:13:13.714Z,french_107.wav,0,pull,785,37,5,5,francais,m,12,1.14141667,78.13998046,0.78593457
58bfee7de5869400018f5e9e,28,0,2024-02-27T11:13:13.714Z,french_469.wav,0,poule,1402,37,5,5,francais,m,0,0.0,-11.84414354,1.70542515
58bfee7de5869400018f5e9e,28,0,2024-02-27T11:13:13.714Z,french_469.wav,0,poule,1402,37,5,5,francais,m,1,0.1,-48.40182789,1.16680679
58bfee7de5869400018f5e9e,28,0,2024-02-27T11:13:13.714Z,french_469.wav,0,poule,1402,37,5,5,francais,m,2,0.2,-1.62228667,1.49863903
58bfee7de5869400018f5e9e,28,0,2024-02-27T11:13:13.714Z,french_469.wav,0,poule,1402,37,5,5,francais,m,3,0.3,48.75005327,1.41560569
58bfee7de5869400018f5e9e,28,0,2024-02-27T11:13:13.714Z,french_469.wav,0,poule,1402,37,5,5,francais,m,4,0.4,-26.14061485,1.39507228
58bfee7de5869400018f5e9e,28,0,2024-02-27T11:13:13.714Z,french_469.wav,0,poule,1402,37,5,5,francais,m,5,0.5,92.71891808,0.0638533
58bfee7de5869400018f5e9e,28,0,2024-02-27T11:13:13.714Z,french_469.wav,0,poule,1402,37,5,5,francais,m,6,0.6,-16.05969494,0.05359306
58bfee7de5869400018f5e9e,28,0,2024-02-27T11:13:13.714Z,french_469.wav,0,poule,1402,37,5,5,francais,m,7,0.7,-24.84536451,1.50590241
58bfee7de5869400018f5e9e,28,0,2024-02-27T11:13:13.714Z,french_469.wav,0,poule,1402,37,5,5,francais,m,8,0.8,45.28109884,1.38923205
58bfee7de5869400018f5e9e,28,0,2024-02-27T11:13:13.714Z,french_469.wav,0,poule,1402,37,5,5,francais,m,9,0.9,86.67333684,1.69756748
58bfee7de5869400018f5e9e,28,0,2024-02-27T11:13:13.714Z,french_469.wav,0,poule,1402,37,5,5,francais,m,10,1.0,-92.87325643,1.98155922
58bfee7de5869400018f5e9e,28,0,2024-02-27T11:13:13.714Z,french_469.wav,0,poule,1402,37,5,5,francais,m,11,1.1,4.17895767,1.36025463
58bfee7de5869400018f5e9e,28,0,2024-02-27T11:13:13.714Z,french_469.wav,0,poule,1402,37,5,5,francais,m,12,1.14141667,50.19046743,1.37929818
58bfee7de5869400018f5e9e,29,0,2024-02-27T11:13:13.714Z,french_600.wav,0,poule,626,37,5,5,francais,m,0,0.0,52.68900208,1.20996587
58bfee7de5869400018f5e9e,29,0,2024-02-27T11:13:13.714Z,french_600.wav,0,poule,626,37,5,5,francais,m,1,0.1,-6.73067052,0.65229061
58bfee7de5869400018f5e9e,29,0,2024-02-27T11:13:13.714Z,french_600.wav,0,poule,626,37,5,5,francais,m,2,0.2,96.57898689,1.53870963
58bfee7de5869400018f5e9e,29,0,2024-02-27T11:13:13.714Z,french_600.wav,0,poule,626,37,5,5,francais,m,3,0.3,88.93281909,0.24911415
58bfee7de5869400018f5e9e,29,0,2024-02-27T11:13:13.714Z,french_600.wav,0,poule,626,37,5,5,francais,m,4,0.4,75.90530311,0.83209065
58bfee7de5869400018f5e9e,29,0,2024-02-27T11:13:13.714Z,french_600.wav,0,poule,626,37,5,5,francais,m,5,0.5,83.32696458,1.35695142
58bfee7de5869400018f5e9e,29,0,2024-02-27T11:13:13.714Z,french_600.wav,0,poule,626,37,5,5,francais,m,6,0.6,-66.79703103,1.60598618
58bfee7de5869400018f5e9e,29,0,2024-02-27T11:13:13.714Z,french_600.wav,0,poule,626,37,5,5,francais,m,7,0.7,63.7950694,1.81288548
58bfee7de5869400018f5e9e,29,0,2024-02-27T11:13:13.714Z,french_600.wav,0,poule,626,37,5,5,francais,m,8,0.8,-58.76780301,0.6555076
58bfee7de5869400018f5e9e,29,0,2024-02-27T11:13:13.714Z,french_600.wav,0,poule,626,37,5,5,francais,m,9,0.9,44.34251674,1.0412619
58bfee7de5869400018f5e9e,29,0,2024-02-27T11:13:13.714Z,french_600.wav,0,poule,626,37,5,5,francais,m,10,1.0,40.69658778,1.14001909
58bfee7de5869400018f5e9e,29,0,2024-02-27T11:13:13.714Z,french_600.wav,0,poule,626,37,5,5,francais,m,11,1.1,-28.98281282,0.56625227
58bfee7de5869400018f5e9e,29,0,2024-02-27T11:13:13.714Z,french_600.wav,0,poule,626,37,5,5,francais,m,12,1.14141667,43.07407366,0.71314078
58bfee7de5869400018f5e9e,30,0,2024-02-27T11:13:13.714Z,french_254.wav,0,poule,920,37,5,5,francais,m,0,0.0,75.2945508,1.80685914
58bfee7de5869400018f5e9e,30,0,2024-02-27T11:13:13.714Z,french_254.wav,0,poule,920,37,5,5,francais,m,1,0.1,38.40784012,0.82548004
58bfee7de5869400018f5e9e,30,0,2024-02-27T11:13:13.714Z,french_254.wav,0,poule,920,37,5,5,francais,m,2,0.2,-3.45801992,0.60126929
58bfee7de5869400018f5e9e,30,0,2024-02-27T11:13:13.714Z,french_254.wav,0,poule,920,37,5,5,francais,m,3,0.3,-16.53874186,1.71103273
58bfee7de5869400018f5e9e,30,0,2024-02-27T11:13:13.714Z,french_254.wav,0,poule,920,37,5,5,francais,m,4,0.4,40.95649298,1.57269369
58bfee7de5869400018f5e9e,30,0,2024-02-27T11:13:13.714Z,french_254.wav,0,poule,920,37,5,5,francais,m,5,0.5,-2.76974338,1.05246524
58bfee7de5869400018f5e9e,30,0,2024-02-27T11:13:13.714Z,french_254.wav,0,poule,920,37,5,5,francais,m,6,0.6,-14.89193372,1.10171175
58bfee7de5869400018f5e9e,30,0,2024-02-27T11:13:13.714Z,french_254.wav,0,poule,920,37,5,5,francais,m,7,0.7,6.98344765,0.20129796
58bfee7de5869400018f5e9e,30,0,2024-02-27T11:13:13.714Z,french_254.wav,0,poule,920,37,5,5,francais,m,8,0.8,-11.38819477,1.28961808
58bfee7de5869400018f5e9e,30,0,2024-02-27T11:13:13.714Z,french_254.wav,0,poule,920,37,5,5,francais,m,9,0.9,31.37717737,0.6064434
58bfee7de5869400018f5e9e,30,0,2024-02-27T11:13:13.714Z,french_254.wav,0,poule,920,37,5,5,francais,m,10,1.0,-27.40134119,1.272806
58bfee7de5869400018f5e9e,30,0,2024-02-27T11:13:13.714Z,french_254.wav,0,poule,920,37,5,5,francais,m,11,1.1,-15.25823698,1.69518769
58bfee7de5869400018f5e9e,30,0,2024-02-27T11:13:13.714Z,french_254.wav,0,poule,920,37,5,5,francais,m,12,1.14141667,52.56825486,1.16774241
58bfee7de5869400018f5e9e,31,0,2024-02-27T11:13:13.714Z,french_745.wav,0,poule,661,37,5,5,francais,m,0,0.0,-8.32888314,1.09732397
58bfee7de5869400018f5e9e,31,0,2024-02-27T11:13:13.714Z,french_745.wav,0,poule,661,37,5,5,francais,m,1,0.1,-6.05023993,1.87088692
58bfee7de5869400018f5e9e,31,0,2024-02-27T11:13:13.714Z,french_745.wav,0,poule,661,37,5,5,francais,m,2,0.2,14.20117391,1.54181536
58bfee7de5869400018f5e9e,31,0,2024-02-27T11:13:13.714Z,french_745.wav,0,poule,661,37,5,5,francais,m,3,0.3,9.72422027,0.66469183
58bfee7de5869400018f5e9e,31,0,2024-02-27T11:13:13.714Z,french_745.wav,0,poule,661,37,5,5,francais,m,4,0.4,61.94285409,0.06080466
58bfee7de5869400018f5e9e,31,0,2024-02-27T11:13:13.714Z,french_745.wav,0,poule,661,37,5,5,francais,m,5,0.5,16.9242065,0.4761387
58bfee7de5869400018f5e9e,31,0,2024-02-27T11:13:13.714Z,french_745.wav,0,poule,661,37,5,5,francais,m,6,0.6,-73.99150176,0.98624315
58bfee7de5869400018f5e9e,31,0,2024-02-27T11:13:13.714Z,french_745.wav,0,poule,661,37,5,5,francais,m,7,0.7,-68.75802198,1.75579455
58bfee7de5869400018f5e9e,31,0,2024-02-27T11:13:13.714Z,french_745.wav,0,poule,661,37,5,5,francais,m,8,0.8,30.41524691,0.49603864
58bfee7de5869400018f5e9e,31,0,2024-02-27T11:13:13.714Z,french_745.wav,0,poule,661,37,5,5,francais,m,9,0.9,-73.26315303,1.28396811
58bfee7de5869400018f5e9e,31,0,2024-02-27T11:13:13.714Z,french_745.wav,0,poule,661,37,5,5,francais,m,10,1.0,67.07087991,1.04819189
58bfee7de5869400018f5e9e,31,0,2024-02-27T11:13:13.714Z,french_745.wav,0,poule,661,37,5,5,francais,m,11,1.1,37.63567308,1.07853657
58bfee7de5869400018f5e9e,31,0,2024-02-27T11:13:13.714Z,french_745.wav,0,poule,661,37,5,5,francais,m,12,1.14141667,72.47019106,1.51225642
58bfee7de5869400018f5e9e,32,0,2024-02-27T11:13:13.714Z,french_858.wav,0,pull,1618,37,5,5,francais,m,0,0.0,-53.68453677,1.6757384
58bfee7de5869400018f5e9e,32,0,2024-02-27T11:13:13.714Z,french_858.wav,0,pull,1618,37,5,5,francais,m,1,0.1,-28.94516131,1.30661064
58bfee7de5869400018f5e9e,32,0,2024-02-27T11:13:13.714Z,french_858.wav,0,pull,1618,37,5,5,francais,m,2,0.2,-98.24340487,0.9866685
58bfee7de5869400018f5e9e,32,0,2024-02-27T11:13:13.714Z,french_858.wav,0,pull,1618,37,5,5,francais,m,3,0.3,-99.1252782,0.35735292
58bfee7de5869400018f5e9e,32,0,2024-02-27T11:13:13.714Z,french_858.wav,0,pull,1618,37,5,5,francais,m,4,0.4,-26.26210223,1.10822688
58bfee7de5869400018f5e9e,32,0,2024-02-27T11:13:13.714Z,french_858.wav,0,pull,1618,37,5,5,francais,m,5,0.5,-45.03942581,1.57836245
58bfee7de5869400018f5e9e,32,0,2024-02-27T11:13:13.714Z,french_858.wav,0,pull,1618,37,5,5,francais,m,6,0.6,-66.94086258,1.65767341
58bfee7de5869400018f5e9e,32,0,2024-02-27T11:13:13.714Z,french_858.wav,0,pull,1618,37,5,5,francais,m,7,0.7,82.11998094,1.15727357
58bfee7de5869400018f5e9e,32,0,2024-02-27T11:13:13.714Z,french_858.wav,0,pull,1618,37,5,5,francais,m,8,0.8,26.35770122,1.70991659
58bfee7de5869400018f5e9e,32,0,2024-02-27T11:13:13.714Z,french_858.wav,0,pull,1618,37,5,5,francais,m,9,0.9,30.884295,0.39633264
58bfee7de5869400018f5e9e,32,0,2024-02-27T11:13:13.714Z,french_858.wav,0,pull,1618,37,5,5,francais,m,10,1.0,12.20949493,0.36576693
58bfee7de5869400018f5e9e,32,0,2024-02-27T11:13:13.714Z,french_858.wav,0,pull,1618,37,5,5,francais,m,11,1.1,-39.12104369,1.53765391
58bfee7de5869400018f5e9e,32,0,2024-02-27T11:13:13.714Z,french_858.wav,0,pull,1618,37,5,5,francais,m,12,1.14141667,17.56591415,0.88045647
58bfee7de5869400018f5e9e,33,0,2024-02-27T11:13:13.714Z,french_987.wav,0,pull,869,37,5,5,francais,m,0,0.0,93.34375743,0.73630152
58bfee7de5869400018f5e9e,33,0,2024-02-27T11:13:13.714Z,french_987.wav,0,pull,869,37,5,5,francais,m,1,0.1,2.33597737,0.83046349
58bfee7de5869400018f5e9e,33,0,2024-02-27T11:13:13.714Z,french_987.wav,0,pull,869,37,5,5,francais,m,2,0.2,-20.41507514,0.92633409
58bfee7de5869400018f5e9e,33,0,2024-02-27T11:13:13.714Z,french_987.wav,0,pull,869,37,5,5,francais,m,3,0.3,20.11504777,0.57479289
58bfee7de5869400018f5e9e,33,0,2024-02-27T11:13:13.714Z,french_987.wav,0,pull,869,37,5,5,francais,m,4,0.4,-45.44674631,1.77561818
58bfee7de5869400018f5e9e,33,0,2024-02-27T11:13:13.714Z,french_987.wav,0,pull,869,37,5,5,francais,m,5,0.5,43.68235221,1.63901309
58bfee7de5869400018f5e9e,33,0,2024-02-27T11:13:13.714Z,french_987.wav,0,pull,869,37,5,5,francais,m,6,0.6,45.61538995,1.78979007
58bfee7de5869400018f5e9e,33,0,2024-02-27T11:13:13.714Z,french_987.wav,0,pull,869,37,5,5,francais,m,7,0.7,9.26168888,0.34807002
58bfee7de5869400018f5e9e,33,0,2024-02-27T11:13:13.714Z,french_987.wav,0,pull,869,37,5,5,francais,m,8,0.8,-81.27003637,0.31053438
58bfee7de5869400018f5e9e,33,0,2024-02-27T11:13:13.714Z,french_987.wav,0,pull,869,37,5,5,francais,m,9,0.9,83.67066648,0.87882318
58bfee7de5869400018f5e9e,33,0,2024-02-27T11:13:13.714Z,french_987.wav,0,pull,869,37,5,5,francais,m,10,1.0,-82.52176091,0.97272554
58bfee7de5869400018f5e9e,33,0,2024-02-27T11:13:13.714Z,french_987.wav,0,pull,869,37,5,5,francais,m,11,1.1,-88.64619633,1.50609738
58bfee7de5869400018f5e9e,33,0,2024-02-27T11:13:13.714Z,french_987.wav,0,pull,869,37,5,5,francais,m,12,1.14141667,-23.61840795,0.63259854
58bfee7de5869400018f5e9e,34,0,2024-02-27T11:13:13.714Z,french_206.wav,0,poule,673,37,5,5,francais,m,0,0.0,43.92395117,1.77403628
58bfee7de5869400018f5e9e,34,0,2024-02-27T11:13:13.714Z,french_206.wav,0,poule,673,37,5,5,francais,m,1,0.1,39.31302251,1.60288441
58bfee7de5869400018f5e9e,34,0,2024-02-27T11:13:13.714Z,french_206.wav,0,poule,673,37,5,5,francais,m,2,0.2,-42.8927459,1.13153884
58bfee7de5869400018f5e9e,34,0,2024-02-27T11:13:13.714Z,french_206.wav,0,poule,673,37,5,5,francais,m,3,0.3,-42.74094368,1.48428597
58bfee7de5869400018f5e9e,34,0,2024-02-27T11:13:13.714Z,french_206.wav,0,poule,673,37,5,5,francais,m,4,0.4,-54.37015978,0.87838006
58bfee7de5869400018f5e9e,34,0,2024-02-27T11:13:13.714Z,french_206.wav,0,poule,673,37,5,5,francais,m,5,0.5,58.70658254,1.89671484
58bfee7de5869400018f5e9e,34,0,2024-02-27T11:13:13.714Z,french_206.wav,0,poule,673,37,5,5,francais,m,6,0.6,-93.65162754,0.9605472
58bfee7de5869400018f5e9e,34,0,2024-02-27T11:13:13.714Z,french_206.wav,0,poule,673,37,5,5,francais,m,7,0.7,21.97210984,1.59310841
58bfee7de5869400018f5e9e,34,0,2024-02-27T11:13:13.714Z,french_206.wav,0,poule,673,37,5,5,francais,m,8,0.8,-19.85883058,0.68468678
58bfee7de5869400018f5e9e,34,0,2024-02-27T11:13:13.714Z,french_206.wav,0,poule,673,37,5,5,francais,m,9,0.9,52.86747229,1.01785064
58bfee7de5869400018f5e9e,34,0,2024-02-27T11:13:13.714Z,french_206.wav,0,poule,673,37,5,5,francais,m,10,1.0,28.65042427,1.27680634
58bfee7de5869400018f5e9e,34,0,2024-02-27T11:13:13.714Z,french_206.wav,0,poule,673,37,5,5,francais,m,11,1.1,97.07118546,0.38746368
58bfee7de5869400018f5e9e,34,0,2024-02-27T11:13:13.714Z,french_206.wav,0,poule,673,37,5,5,francais,m,12,1.14141667,-9.08669324,1.12107316
58bfee7de5869400018f5e9e,35,0,2024-02-27T11:13:13.714Z,french_898.wav,0,pull,1692,37,5,5,francais,m,0,0.0,40.55101388,0.40687164
58bfee7de5869400018f5e9e,35,0,2024-02-27T11:13:13.714Z,french_898.wav,0,pull,1692,37,5,5,francais,m,1,0.1,-10.72159434,1.17784559
58bfee7de5869400018f5e9e,35,0,2024-02-27T11:13:13.714Z,french_898.wav,0,pull,1692,37,5,5,francais,m,2,0.2,-58.26572843,1.99106934
58bfee7de5869400018f5e9e,35,0,2024-02-27T11:13:13.714Z,french_898.wav,0,pull,1692,37,5,5,francais,m,3,0.3,1.32434592,1.19983585
58bfee7de5869400018f5e9e,35,0,2024-02-27T11:13:13.714Z,french_898.wav,0,pull,1692,37,5,5,francais,m,4,0.4,-85.02838438,1.58797841
58bfee7de5869400018f5e9e,35,0,2024-02-27T11:13:13.714Z,french_898.wav,0,pull,1692,37,5,5,francais,m,5,0.5,-51.66180539,0.9404896
58bfee7de5869400018f5e9e,35,0,2024-02-27T11:13:13.714Z,french_898.wav,0,pull,1692,37,5,5,francais,m,6,0.6,67.40806224,0.59137193
58bfee7de5869400018f5e9e,35,0,2024-02-27T11:13:13.714Z,french_898.wav,0,pull,1692,37,5,5,francais,m,7,0.7,12.83683936,0.08939655
58bfee7de5869400018f5e9e,35,0,2024-02-27T11:13:13.714Z,french_898.wav,0,pull,1692,37,5,5,francais,m,8,0.8,54.30464397,1.07296018
58bfee7de5869400018f5e9e,35,0,2024-02-27T11:13:13.714Z,french_898.wav,0,pull,1692,37,5,5,francais,m,9,0.9,-46.76261458,0.52533407
58bfee7de5869400018f5e9e,35,0,2024-02-27T11:13:13.714Z,french_898.wav,0,pull,1692,37,5,5,francais,m,10,1.0,69.22607274,1.50554702
58bfee7de5869400018f5e9e,35,0,2024-02-27T11:13:13.714Z,french_898.wav,0,pull,1692,37,5,5,francais,m,11,1.1,52.29389,1.19515122
58bfee7de5869400018f5e9e,35,0,2024-02-27T11:13:13.714Z,french_898.wav,0,pull,1692,37,5,5,francais,m,12,1.14141667,57.59849823,1.26374575
58bfee7de5869400018f5e9e,36,0,2024-02-27T11:13:13.714Z,french_109.wav,0,poule,1627,37,5,5,francais,m,0,0.0,1.17844242,1.5803853
58bfee7de5869400018f5e9e,36,0,2024-02-27T11:13:13.714Z,french_109.wav,0,poule,1627,37,5,5,francais,m,1,0.1,-14.85452266,0.56742715
58bfee7de5869400018f5e9e,36,0,2024-02-27T11:13:13.714Z,french_109.wav,0,poule,1627,37,5,5,francais,m,2,0.2,-20.37230195,0.78661325
58bfee7de5869400018f5e9e,36,0,2024-02-27T11:13:13.714Z,french_109.wav,0,poule,1627,37,5,5,francais,m,3,0.3,49.74194323,0.33324213
58bfee7de5869400018f5e9e,36,0,2024-02-27T11:13:13.714Z,french_109.wav,0,poule,1627,37,5,5,francais,m,4,0.4,-65.96631617,0.49184911
58bfee7de5869400018f5e9e,36,0,2024-02-27T11:13:13.714Z,french_109.wav,0,poule,1627,37,5,5,francais,m,5,0.5,21.76864509,0.90813617
58bfee7de5869400018f5e9e,36,0,2024-02-27T11:13:13.714Z,french_109.wav,0,poule,1627,37,5,5,francais,m,6,0.6,20.73976333,1.60003572
58bfee7de5869400018f5e9e,36,0,2024-02-27T11:13:13.714Z,french_109.wav,0,poule,1627,37,5,5,francais,m,7,0.7,70.44353833,0.49286217
58bfee7de5869400018f5e9e,36,0,2024-02-27T11:13:13.714Z,french_109.wav,0,poule,1627,37,5,5,francais,m,8,0.8,51.04994309,1.51483798
58bfee7de5869400018f5e9e,36,0,2024-02-27T11:13:13.714Z,french_109.wav,0,poule,1627,37,5,5,francais,m,9,0.9,20.19663893,1.58201919
58bfee7de5869400018f5e9e,36,0,2024-02-27T11:13:13.714Z,french_109.wav,0,poule,1627,37,5,5,francais,m,10,1.0,6.52382528,0.61887811
58bfee7de5869400018f5e9e,36,0,2024-02-27T11:13:13.714Z,french_109.wav,0,poule,1627,37,5,5,francais,m,11,1.1,-82.64651079,1.53074757
58bfee7de5869400018f5e9e,36,0,2024-02-27T11:13:13.714Z,french_109.wav,0,poule,1627,37,5,5,francais,m,12,1.14141667,-19.22290242,1.29835876
58bfee7de5869400018f5e9e,37,0,2024-02-27T11:13:13.714Z,french_283.wav,0,pull,1340,37,5,5,francais,m,0,0.0,85.09524946,1.18974262
58bfee7de5869400018f5e9e,37,0,2024-02-27T11:13:13.714Z,french_283.wav,0,pull,1340,37,5,5,francais,m,1,0.1,-97.54308337,0.87209609
58bfee7de5869400018f5e9e,37,0,2024-02-27T11:13:13.714Z,french_283.wav,0,pull,1340,37,5,5,francais,m,2,0.2,-40.85204681,1.85393105
58bfee7de5869400018f5e9e,37,0,2024-02-27T11:13:13.714Z,french_283.wav,0,pull,1340,37,5,5,francais,m,3,0.3,-2.35384301,0.12748359
58bfee7de5869400018f5e9e,37,0,2024-02-27T11:13:13.714Z,french_283.wav,0,pull,1340,37,5,5,francais,m,4,0.4,-31.68218734,0.27016739
58bfee7de5869400018f5e9e,37,0,2024-02-27T11:13:13.714Z,french_283.wav,0,pull,1340,37,5,5,francais,m,5,0.5,-91.02321919,0.64146537
58bfee7de5869400018f5e9e,37,0,2024-02-27T11:13:13.714Z,french_283.wav,0,pull,1340,37,5,5,francais,m,6,0.6,44.13360811,0.80126796
58bfee7de5869400018f5e9e,37,0,2024-02-27T11:13:13.714Z,french_283.wav,0,pull,1340,37,5,5,francais,m,7,0.7,-68.52408845,0.44632746
58bfee7de5869400018f5e9e,37,0,2024-02-27T11:13:13.714Z,french_283.wav,0,pull,1340,37,5,5,francais,m,8,0.8,17.15846586,1.0554532
58bfee7de5869400018f5e9e,37,0,2024-02-27T11:13:13.714Z,french_283.wav,0,pull,1340,37,5,5,francais,m,9,0.9,-35.58743883,0.31893528
58bfee7de5869400018f5e9e,37,0,2024-02-27T11:13:13.714Z,french_283.wav,0,pull,1340,37,5,5,francais,m,10,1.0,89.20732919,0.28549057
58bfee7de5869400018f5e9e,37,0,2024-02-27T11:13:13.714Z,french_283.wav,0,pull,1340,37,5,5,francais,m,11,1.1,-57.32248704,1.83484261
58bfee7de5869400018f5e9e,37,0,2024-02-27T11:13:13.714Z,french_283.wav,0,pull,1340,37,5,5,francais,m,12,1.14141667,28.07262427,1.84086056
58bfee7de5869400018f5e9e,38,0,2024-02-27T11:13:13.714Z,french_939.wav,0,pull,1805,37,5,5,francais,m,0,0.0,68.2384799,0.18942364
58bfee7de5869400018f5e9e,38,0,2024-02-27T11:13:13.714Z,french_939.wav,0,pull,1805,37,5,5,francais,m,1,0.1,98.20525801,1.24422322
58bfee7de5869400018f5e9e,38,0,2024-02-27T11:13:13.714Z,french_939.wav,0,pull,1805,37,5,5,francais,m,2,0.2,-42.19761406,0.84726027
58bfee7de5869400018f5e9e,38,0,2024-02-27T11:13:13.714Z,french_939.wav,0,pull,1805,37,5,5,francais,m,3,0.3,43.17355225,0.63121745
58bfee7de5869400018f5e9e,38,0,2024-02-27T11:13:13.714Z,french_939.wav,0,pull,1805,37,5,5,francais,m,4,0.4,-14.96635905,1.39450382
58bfee7de5869400018f5e9e,38,0,2024-02-27T11:13:13.714Z,french_939.wav,0,pull,1805,37,5,5,francais,m,5,0.5,-43.49672798,1.83680784
58bfee7de5869400018f5e9e,38,0,2024-02-27T11:13:13.714Z,french_939.wav,0,pull,1805,37,5,5,francais,m,6,0.6,41.76813315,1.84374711
58bfee7de5869400018f5e9e,38,0,2024-02-27T11:13:13.714Z,french_939.wav,0,pull,1805,37,5,5,francais,m,7,0.7,88.36147994,0.72560086
58bfee7de5869400018f5e9e,38,0,2024-02-27T11:13:13.714Z,french_939.wav,0,pull,1805,37,5,5,francais,m,8,0.8,59.42037908,1.11819201
58bfee7de5869400018f5e9e,38,0,2024-02-27T11:13:13.714Z,french_939.wav,0,pull,1805,37,5,5,francais,m,9,0.9,86.723379,1.00539219
58bfee7de5869400018f5e9e,38,0,2024-02-27T11:13:13.714Z,french_939.wav,0,pull,1805,37,5,5,francais,m,10,1.0,-78.72989076,1.52240486
58bfee7de5869400018f5e9e,38,0,2024-02-27T11:13:13.714Z,french_939.wav,0,pull,1805,37,5,5,francais,m,11,1.1,-26.66254955,1.78566065
58bfee7de5869400018f5e9e,38,0,2024-02-27T11:13:13.714Z,french_939.wav,0,pull,1805,37,5,5,francais,m,12,1.14141667,-48.10200682,1.0817634
58bfee7de5869400018f5e9e,39,0,2024-02-27T11:13:13.714Z,french_247.wav,0,pull,1448,37,5,5,francais,m,0,0.0,87.28160699,1.75163706
58bfee7de5869400018f5e9e,39,0,2024-02-27T11:13:13.714Z,french_247.wav,0,pull,1448,37,5,5,francais,m,1,0.1,54.41631338,0.7463051
58bfee7de5869400018f5e9e,39,0,2024-02-27T11:13:13.714Z,french_247.wav,0,pull,1448,37,5,5,francais,m,2,0.2,37.94276377,0.54290341
58bfee7de5869400018f5e9e,39,0,2024-02-27T11:13:13.714Z,french_247.wav,0,pull,1448,37,5,5,francais,m,3,0.3,-67.22196437,0.62982968
58bfee7de5869400018f5e9e,39,0,2024-02-27T11:13:13.714Z,french_247.wav,0,pull,1448,37,5,5,francais,m,4,0.4,-92.34211051,1.66450544
58bfee7de5869400018f5e9e,39,0,2024-02-27T11:13:13.714Z,french_247.wav,0,pull,1448,37,5,5,francais,m,5,0.5,78.48957529,0.11949556
58bfee7de5869400018f5e9e,39,0,2024-02-27T11:13:13.714Z,french_247.wav,0,pull,1448,37,5,5,francais,m,6,0.6,-77.60666308,0.59857061
58bfee7de5869400018f5e9e,39,0,2024-02-27T11:13:13.714Z,french_247.wav,0,pull,1448,37,5,5,francais,m,7,0.7,89.04290108,1.16504801
58bfee7de5869400018f5e9e,39,0,2024-02-27T11:13:13.714Z,french_247.wav,0,pull,1448,37,5,5,francais,m,8,0.8,95.38463118,1.98824202
58bfee7de5869400018f5e9e,39,0,2024-02-27T11:13:13.714Z,french_247.wav,0,pull,1448,37,5,5,francais,m,9,0.9,-13.6171851,1.58326229
58bfee7de5869400018f5e9e,39,0,2024-02-27T11:13:13.714Z,french_247.wav,0,pull,1448,37,5,5,francais,m,10,1.0,-62.96426983,1.7730941
58bfee7de5869400018f5e9e,39,0,2024-02-27T11:13:13.714Z,french_247.wav,0,pull,1448,37,5,5,francais,m,11,1.1,10.74028895,1.01142382
58bfee7de5869400018f5e9e,39,0,2024-02-27T11:13:13.714Z,french_247.wav,0,pull,1448,37,5,5,francais,m,12,1.14141667,30.61570069,1.22213948
58bfee7de5869400018f5e9e,40,0,2024-02-27T11:13:13.714Z,french_890.wav,0,pull,2566,37,5,5,francais,m,0,0.0,37.66035755,1.19799643
58bfee7de5869400018f5e9e,40,0,2024-02-27T11:13:13.714Z,french_890.wav,0,pull,2566,37,5,5,francais,m,1,0.1,-62.4198419,1.95985133
58bfee7de5869400018f5e9e,40,0,2024-02-27T11:13:13.714Z,french_890.wav,0,pull,2566,37,5,5,francais,m,2,0.2,22.14011597,6.34751795e-05
58bfee7de5869400018f5e9e,40,0,2024-02-27T11:13:13.714Z,french_890.wav,0,pull,2566,37,5,5,francais,m,3,0.3,-19.28433509,0.467547013
58bfee7de5869400018f5e9e,40,0,2024-02-27T11:13:13.714Z,french_890.wav,0,pull,2566,37,5,5,francais,m,4,0.4,58.02680792,0.379118242
58bfee7de5869400018f5e9e,40,0,2024-02-27T11:13:13.714Z,french_890.wav,0,pull,2566,37,5,5,francais,m,5,0.5,26.36088305,0.398106844
58bfee7de5869400018f5e9e,40,0,2024-02-27T11:13:13.714Z,french_890.wav,0,pull,2566,37,5,5,francais,m,6,0.6,-2.96553475,1.90521091
58bfee7de5869400018f5e9e,40,0,2024-02-27T11:13:13.714Z,french_890.wav,0,pull,2566,37,5,5,francais,m,7,0.7,18.82025548,0.228927516
58bfee7de5869400018f5e9e,40,0,2024-02-27T11:13:13.714Z,french_890.wav,0,pull,2566,37,5,5,francais,m,8,0.8,-71.77019801,0.850400434
58bfee7de5869400018f5e9e,40,0,2024-02-27T11:13:13.714Z,french_890.wav,0,pull,2566,37,5,5,francais,m,9,0.9,-33.53163,0.845624976
58bfee7de5869400018f5e9e,40,0,2024-02-27T11:13:13.714Z,french_890.wav,0,pull,2566,37,5,5,francais,m,10,1.0,-66.53266587,1.47438703
58bfee7de5869400018f5e9e,40,0,2024-02-27T11:13:13.714Z,french_890.wav,0,pull,2566,37,5,5,francais,m,11,1.1,-68.49556875,1.89174641
58bfee7de5869400018f5e9e,40,0,2024-02-27T11:13:13.714Z,french_890.wav,0,pull,2566,37,5,5,francais,m,12,1.14141667,37.72443789,1.26260731
58bfee7de5869400018f5e9e,41,0,2024-02-27T11:13:13.714Z,french_418.wav,0,pull,1002,37,5,5,francais,m,0,0.0,30.8158802,0.39666711
58bfee7de5869400018f5e9e,41,0,2024-02-27T11:13:13.714Z,french_418.wav,0,pull,1002,37,5,5,francais,m,1,0.1,-49.53284919,1.06359174
58bfee7de5869400018f5e9e,41,0,2024-02-27T11:13:13.714Z,french_418.wav,0,pull,1002,37,5,5,francais,m,2,0.2,36.79712785,0.64757436
58bfee7de5869400018f5e9e,41,0,2024-02-27T11:13:13.714Z,french_418.wav,0,pull,1002,37,5,5,francais,m,3,0.3,-99.55359759,1.7224486
58bfee7de5869400018f5e9e,41,0,2024-02-27T11:13:13.714Z,french_418.wav,0,pull,1002,37,5,5,francais,m,4,0.4,68.9088774,0.44902576
58bfee7de5869400018f5e9e,41,0,2024-02-27T11:13:13.714Z,french_418.wav,0,pull,1002,37,5,5,francais,m,5,0.5,80.99957915,1.67719648
58bfee7de5869400018f5e9e,41,0,2024-02-27T11:13:13.714Z,french_418.wav,0,pull,1002,37,5,5,francais,m,6,0.6,4.26486526,1.66921538
58bfee7de5869400018f5e9e,41,0,2024-02-27T11:13:13.714Z,french_418.wav,0,pull,1002,37,5,5,francais,m,7,0.7,-17.5210691,1.5326406
58bfee7de5869400018f5e9e,41,0,2024-02-27T11:13:13.714Z,french_418.wav,0,pull,1002,37,5,5,francais,m,8,0.8,62.53897835,0.45272356
58bfee7de5869400018f5e9e,41,0,2024-02-27T11:13:13.714Z,french_418.wav,0,pull,1002,37,5,5,francais,m,9,0.9,-85.84748653,1.5121066
58bfee7de5869400018f5e9e,41,0,2024-02-27T11:13:13.714Z,french_418.wav,0,pull,1002,37,5,5,francais,m,10,1.0,-46.33715828,0.28461943
58bfee7de5869400018f5e9e,41,0,2024-02-27T11:13:13.714Z,french_418.wav,0,pull,1002,37,5,5,francais,m,11,1.1,42.67097057,0.94734784
58bfee7de5869400018f5e9e,41,0,2024-02-27T11:13:13.714Z,french_418.wav,0,pull,1002,37,5,5,francais,m,12,1.14141667,-75.9263862,0.46817887
58bfee7de5869400018f5e9e,42,0,2024-02-27T11:13:13.714Z,french_607.wav,0,poule,881,37,5,5,francais,m,0,0.0,-12.44319925,1.98503206
58bfee7de5869400018f5e9e,42,0,2024-02-27T11:13:13.714Z,french_607.wav,0,poule,881,37,5,5,francais,m,1,0.1,-94.85502328,1.00846088
58bfee7de5869400018f5e9e,42,0,2024-02-27T11:13:13.714Z,french_607.wav,0,poule,881,37,5,5,francais,m,2,0.2,-56.9043045,0.69384134
58bfee7de5869400018f5e9e,42,0,2024-02-27T11:13:13.714Z,french_607.wav,0,poule,881,37,5,5,francais,m,3,0.3,-18.59020178,1.76201014
58bfee7de5869400018f5e9e,42,0,2024-02-27T11:13:13.714Z,french_607.wav,0,poule,881,37,5,5,francais,m,4,0.4,9.27721525,1.29911711
58bfee7de5869400018f5e9e,42,0,2024-02-27T11:13:13.714Z,french_607.wav,0,poule,881,37,5,5,francais,m,5,0.5,-86.5437561,1.18024894
58bfee7de5869400018f5e9e,42,0,2024-02-27T11:13:13.714Z,french_607.wav,0,poule,881,37,5,5,francais,m,6,0.6,-6.68115528,0.3019838
58bfee7de5869400018f5e9e,42,0,2024-02-27T11:13:13.714Z,french_607.wav,0,poule,881,37,5,5,francais,m,7,0.7,82.47774992,1.87001672
58bfee7de5869400018f5e9e,42,0,2024-02-27T11:13:13.714Z,french_607.wav,0,poule,881,37,5,5,francais,m,8,0.8,-64.79498014,1.60167076
58bfee7de5869400018f5e9e,42,0,2024-02-27T11:13:13.714Z,french_607.wav,0,poule,881,37,5,5,francais,m,9,0.9,54.51357441,0.75456566
58bfee7de5869400018f5e9e,42,0,2024-02-27T11:13:13.714Z,french_607.wav,0,poule,881,37,5,5,francais,m,10,1.0,-5.80014692,1.39935428
58bfee7de5869400018f5e9e,42,0,2024-02-27T11:13:13.714Z,french_607.wav,0,poule,881,37,5,5,francais,m,11,1.1,-22.72142846,0.80764916
58bfee7de5869400018f5e9e,42,0,2024-02-27T11:13:13.714Z,french_607.wav,0,poule,881,37,5,5,francais,m,12,1.14141667,-12.07204915,0.54525676
58bfee7de5869400018f5e9e,43,0,2024-02-27T11:13:13.714Z,french_56.wav,0,poule,383,37,5,5,francais,m,0,0.0,57.67582041,1.07499149
58bfee7de5869400018f5e9e,43,0,2024-02-27T11:13:13.714Z,french_56.wav,0,poule,383,37,5,5,francais,m,1,0.1,30.60683187,1.16004115
58bfee7de5869400018f5e9e,43,0,2024-02-27T11:13:13.714Z,french_56.wav,0,poule,383,37,5,5,francais,m,2,0.2,67.52262427,0.4342818
58bfee7de5869400018f5e9e,43,0,2024-02-27T11:13:13.714Z,french_56.wav,0,poule,383,37,5,5,francais,m,3,0.3,46.8365599,1.77949258
58bfee7de5869400018f5e9e,43,0,2024-02-27T11:13:13.714Z,french_56.wav,0,poule,383,37,5,5,francais,m,4,0.4,-1.01645681,1.14694495
58bfee7de5869400018f5e9e,43,0,2024-02-27T11:13:13.714Z,french_56.wav,0,poule,383,37,5,5,francais,m,5,0.5,-58.538187,0.2393662
58bfee7de5869400018f5e9e,43,0,2024-02-27T11:13:13.714Z,french_56.wav,0,poule,383,37,5,5,francais,m,6,0.6,10.91378016,0.50449479
58bfee7de5869400018f5e9e,43,0,2024-02-27T11:13:13.714Z,french_56.wav,0,poule,383,37,5,5,francais,m,7,0.7,-18.54635938,1.22580092
58bfee7de5869400018f5e9e,43,0,2024-02-27T11:13:13.714Z,french_56.wav,0,poule,383,37,5,5,francais,m,8,0.8,-51.46185887,1.46495703
58bfee7de5869400018f5e9e,43,0,2024-02-27T11:13:13.714Z,french_56.wav,0,poule,383,37,5,5,francais,m,9,0.9,-24.54774775,1.95127442
58bfee7de5869400018f5e9e,43,0,2024-02-27T11:13:13.714Z,french_56.wav,0,poule,383,37,5,5,francais,m,10,1.0,23.81493142,0.99233432
58bfee7de5869400018f5e9e,43,0,2024-02-27T11:13:13.714Z,french_56.wav,0,poule,383,37,5,5,francais,m,11,1.1,-98.28583734,1.14516037
58bfee7de5869400018f5e9e,43,0,2024-02-27T11:13:13.714Z,french_56.wav,0,poule,383,37,5,5,francais,m,12,1.14141667,-16.63951012,0.6161327
58bfee7de5869400018f5e9e,44,0,2024-02-27T11:13:13.714Z,french_937.wav,0,poule,468,37,5,5,francais,m,0,0.0,72.99223977,1.02241682
58bfee7de5869400018f5e9e,44,0,2024-02-27T11:13:13.714Z,french_937.wav,0,poule,468,37,5,5,francais,m,1,0.1,41.57940993,0.9465754
58bfee7de5869400018f5e9e,44,0,2024-02-27T11:13:13.714Z,french_937.wav,0,poule,468,37,5,5,francais,m,2,0.2,67.06048677,0.64915766
58bfee7de5869400018f5e9e,44,0,2024-02-27T11:13:13.714Z,french_937.wav,0,poule,468,37,5,5,francais,m,3,0.3,-5.02147455,1.58052124
58bfee7de5869400018f5e9e,44,0,2024-02-27T11:13:13.714Z,french_937.wav,0,poule,468,37,5,5,francais,m,4,0.4,9.35505141,0.61188269
58bfee7de5869400018f5e9e,44,0,2024-02-27T11:13:13.714Z,french_937.wav,0,poule,468,37,5,5,francais,m,5,0.5,-95.44742745,0.05363048
58bfee7de5869400018f5e9e,44,0,2024-02-27T11:13:13.714Z,french_937.wav,0,poule,468,37,5,5,francais,m,6,0.6,-38.02184142,1.12742296
58bfee7de5869400018f5e9e,44,0,2024-02-27T11:13:13.714Z,french_937.wav,0,poule,468,37,5,5,francais,m,7,0.7,49.17491426,0.50171031
58bfee7de5869400018f5e9e,44,0,2024-02-27T11:13:13.714Z,french_937.wav,0,poule,468,37,5,5,francais,m,8,0.8,16.46716684,0.61367002
58bfee7de5869400018f5e9e,44,0,2024-02-27T11:13:13.714Z,french_937.wav,0,poule,468,37,5,5,francais,m,9,0.9,-84.30790102,0.71351628
58bfee7de5869400018f5e9e,44,0,2024-02-27T11:13:13.714Z,french_937.wav,0,poule,468,37,5,5,francais,m,10,1.0,-10.41765428,0.56964317
58bfee7de5869400018f5e9e,44,0,2024-02-27T11:13:13.714Z,french_937.wav,0,poule,468,37,5,5,francais,m,11,1.1,5.6201408,0.47945544
58bfee7de5869400018f5e9e,44,0,2024-02-27T11:13:13.714Z,french_937.wav,0,poule,468,37,5,5,francais,m,12,1.14141667,-44.40394436,1.82118938
58bfee7de5869400018f5e9e,45,0,2024-02-27T11:13:13.714Z,french_541.wav,0,pull,580,37,5,5,francais,m,0,0.0,2.74676595,1.22388571
58bfee7de5869400018f5e9e,45,0,2024-02-27T11:13:13.714Z,french_541.wav,0,pull,580,37,5,5,francais,m,1,0.1,83.23215627,0.59489091
58bfee7de5869400018f5e9e,45,0,2024-02-27T11:13:13.714Z,french_541.wav,0,pull,580,37,5,5,francais,m,2,0.2,-19.5310813,0.0302362
58bfee7de5869400018f5e9e,45,0,2024-02-27T11:13:13.714Z,french_541.wav,0,pull,580,37,5,5,francais,m,3,0.3,-37.06653527,1.44440055
58bfee7de5869400018f5e9e,45,0,2024-02-27T11:13:13.714Z,french_541.wav,0,pull,580,37,5,5,francais,m,4,0.4,10.34316696,0.76671296
58bfee7de5869400018f5e9e,45,0,2024-02-27T11:13:13.714Z,french_541.wav,0,pull,580,37,5,5,francais,m,5,0.5,-44.77981601,1.21683481
58bfee7de5869400018f5e9e,45,0,2024-02-27T11:13:13.714Z,french_541.wav,0,pull,580,37,5,5,francais,m,6,0.6,-15.46722486,0.28594328
58bfee7de5869400018f5e9e,45,0,2024-02-27T11:13:13.714Z,french_541.wav,0,pull,580,37,5,5,francais,m,7,0.7,-30.03274479,1.70659675
58bfee7de5869400018f5e9e,45,0,2024-02-27T11:13:13.714Z,french_541.wav,0,pull,580,37,5,5,francais,m,8,0.8,32.22050065,0.5056851
58bfee7de5869400018f5e9e,45,0,2024-02-27T11:13:13.714Z,french_541.wav,0,pull,580,37,5,5,francais,m,9,0.9,-28.45977879,1.08036446
58bfee7de5869400018f5e9e,45,0,2024-02-27T11:13:13.714Z,french_541.wav,0,pull,580,37,5,5,francais,m,10,1.0,-97.18959003,1.82748837
58bfee7de5869400018f5e9e,45,0,2024-02-27T11:13:13.714Z,french_541.wav,0,pull,580,37,5,5,francais,m,11,1.1,46.93949027,1.15452478
58bfee7de5869400018f5e9e,45,0,2024-02-27T11:13:13.714Z,french_541.wav,0,pull,580,37,5,5,francais,m,12,1.14141667,51.98067408,0.582253
58bfee7de5869400018f5e9e,46,0,2024-02-27T11:13:13.714Z,french_789.wav,0,poule,505,37,5,5,francais,m,0,0.0,69.53612507,0.1529788
58bfee7de5869400018f5e9e,46,0,2024-02-27T11:13:13.714Z,french_789.wav,0,poule,505,37,5,5,francais,m,1,0.1,48.66484312,0.37242119
58bfee7de5869400018f5e9e,46,0,2024-02-27T11:13:13.714Z,french_789.wav,0,poule,505,37,5,5,francais,m,2,0.2,-72.01203103,0.49230089
58bfee7de5869400018f5e9e,46,0,2024-02-27T11:13:13.714Z,french_789.wav,0,poule,505,37,5,5,francais,m,3,0.3,-67.26752296,0.40103962
58bfee7de5869400018f5e9e,46,0,2024-02-27T11:13:13.714Z,french_789.wav,0,poule,505,37,5,5,francais,m,4,0.4,-11.1534243,1.41340534
58bfee7de5869400018f5e9e,46,0,2024-02-27T11:13:13.714Z,french_789.wav,0,poule,505,37,5,5,francais,m,5,0.5,-45.42016811,1.63034897
58bfee7de5869400018f5e9e,46,0,2024-02-27T11:13:13.714Z,french_789.wav,0,poule,505,37,5,5,francais,m,6,0.6,8.72911857,1.56067788
58bfee7de5869400018f5e9e,46,0,2024-02-27T11:13:13.714Z,french_789.wav,0,poule,505,37,5,5,francais,m,7,0.7,94.32168061,0.03921667
58bfee7de5869400018f5e9e,46,0,2024-02-27T11:13:13.714Z,french_789.wav,0,poule,505,37,5,5,francais,m,8,0.8,-32.05571011,1.73882324
58bfee7de5869400018f5e9e,46,0,2024-02-27T11:13:13.714Z,french_789.wav,0,poule,505,37,5,5,francais,m,9,0.9,-53.70986217,0.69818848
58bfee7de5869400018f5e9e,46,0,2024-02-27T11:13:13.714Z,french_789.wav,0,poule,505,37,5,5,francais,m,10,1.0,44.14624596,0.50903081
58bfee7de5869400018f5e9e,46,0,2024-02-27T11:13:13.714Z,french_789.wav,0,poule,505,37,5,5,francais,m,11,1.1,-51.47253769,0.01362261
58bfee7de5869400018f5e9e,46,0,2024-02-27T11:13:13.714Z,french_789.wav,0,poule,505,37,5,5,francais,m,12,1.14141667,-61.00447878,1.34786961
58bfee7de5869400018f5e9e,47,0,2024-02-27T11:13:13.714Z,french_931.wav,0,poule,596,37,5,5,francais,m,0,0.0,-69.01025024,1.27357492
58bfee7de5869400018f5e9e,47,0,2024-02-27T11:13:13.714Z,french_931.wav,0,poule,596,37,5,5,francais,m,1,0.1,55.0215027,1.07794659
58bfee7de5869400018f5e9e,47,0,2024-02-27T11:13:13.714Z,french_931.wav,0,poule,596,37,5,5,francais,m,2,0.2,-87.91788028,0.81824311
58bfee7de5869400018f5e9e,47,0,2024-02-27T11:13:13.714Z,french_931.wav,0,poule,596,37,5,5,francais,m,3,0.3,-33.0393784,1.31896505
58bfee7de5869400018f5e9e,47,0,2024-02-27T11:13:13.714Z,french_931.wav,0,poule,596,37,5,5,francais,m,4,0.4,-72.68752112,0.67025176
58bfee7de5869400018f5e9e,47,0,2024-02-27T11:13:13.714Z,french_931.wav,0,poule,596,37,5,5,francais,m,5,0.5,-31.87844098,1.54286398
58bfee7de5869400018f5e9e,47,0,2024-02-27T11:13:13.714Z,french_931.wav,0,poule,596,37,5,5,francais,m,6,0.6,-82.83878474,0.23472784
58bfee7de5869400018f5e9e,47,0,2024-02-27T11:13:13.714Z,french_931.wav,0,poule,596,37,5,5,francais,m,7,0.7,33.5640508,1.16459242
58bfee7de5869400018f5e9e,47,0,2024-02-27T11:13:13.714Z,french_931.wav,0,poule,596,37,5,5,francais,m,8,0.8,-20.37118135,0.71129123
58bfee7de5869400018f5e9e,47,0,2024-02-27T11:13:13.714Z,french_931.wav,0,poule,596,37,5,5,francais,m,9,0.9,28.67350866,0.02939642
58bfee7de5869400018f5e9e,47,0,2024-02-27T11:13:13.714Z,french_931.wav,0,poule,596,37,5,5,francais,m,10,1.0,-45.8203528,0.30340473
58bfee7de5869400018f5e9e,47,0,2024-02-27T11:13:13.714Z,french_931.wav,0,poule,596,37,5,5,francais,m,11,1.1,1.98964677,1.35857862
58bfee7de5869400018f5e9e,47,0,2024-02-27T11:13:13.714Z,french_931.wav,0,poule,596,37,5,5,francais,m,12,1.14141667,44.24014335,1.98946576
58bfee7de5869400018f5e9e,48,0,2024-02-27T11:13:13.714Z,french_266.wav,0,pull,577,37,5,5,francais,m,0,0.0,62.50241255,0.93840708
58bfee7de5869400018f5e9e,48,0,2024-02-27T11:13:13.714Z,french_266.wav,0,pull,577,37,5,5,francais,m,1,0.1,-80.45225804,1.11812108
58bfee7de5869400018f5e9e,48,0,2024-02-27T11:13:13.714Z,french_266.wav,0,pull,577,37,5,5,francais,m,2,0.2,99.9367927,0.26660891
58bfee7de5869400018f5e9e,48,0,2024-02-27T11:13:13.714Z,french_266.wav,0,pull,577,37,5,5,francais,m,3,0.3,25.84200308,0.17403162
58bfee7de5869400018f5e9e,48,0,2024-02-27T11:13:13.714Z,french_266.wav,0,pull,577,37,5,5,francais,m,4,0.4,3.00063379,0.79325238
58bfee7de5869400018f5e9e,48,0,2024-02-27T11:13:13.714Z,french_266.wav,0,pull,577,37,5,5,francais,m,5,0.5,81.08001176,0.88590027
58bfee7de5869400018f5e9e,48,0,2024-02-27T11:13:13.714Z,french_266.wav,0,pull,577,37,5,5,francais,m,6,0.6,-95.83385783,1.71394363
58bfee7de5869400018f5e9e,48,0,2024-02-27T11:13:13.714Z,french_266.wav,0,pull,577,37,5,5,francais,m,7,0.7,-79.07600331,0.61606385
58bfee7de5869400018f5e9e,48,0,2024-02-27T11:13:13.714Z,french_266.wav,0,pull,577,37,5,5,francais,m,8,0.8,-11.28199515,1.85993339
58bfee7de5869400018f5e9e,48,0,2024-02-27T11:13:13.714Z,french_266.wav,0,pull,577,37,5,5,francais,m,9,0.9,57.49444579,1.14234551
58bfee7de5869400018f5e9e,48,0,2024-02-27T11:13:13.714Z,french_266.wav,0,pull,577,37,5,5,francais,m,10,1.0,99.18608096,1.34332999
58bfee7de5869400018f5e9e,48,0,2024-02-27T11:13:13.714Z,french_266.wav,0,pull,577,37,5,5,francais,m,11,1.1,-92.12178731,1.65260759
58bfee7de5869400018f5e9e,48,0,2024-02-27T11:13:13.714Z,french_266.wav,0,pull,577,37,5,5,francais,m,12,1.14141667,-44.20618078,0.36778532
58bfee7de5869400018f5e9e,49,0,2024-02-27T11:13:13.714Z,french_491.wav,0,pull,542,37,5,5,francais,m,0,0.0,-32.79721007,0.90116217
58bfee7de5869400018f5e9e,49,0,2024-02-27T11:13:13.714Z,french_491.wav,0,pull,542,37,5,5,francais,m,1,0.1,25.08986795,1.66798034
58bfee7de5869400018f5e9e,49,0,2024-02-27T11:13:13.714Z,french_491.wav,0,pull,542,37,5,5,francais,m,2,0.2,99.1504277,1.6353077
58bfee7de5869400018f5e9e,49,0,2024-02-27T11:13:13.714Z,french_491.wav,0,pull,542,37,5,5,francais,m,3,0.3,-40.395736,0.54788847
58bfee7de5869400018f5e9e,49,0,2024-02-27T11:13:13.714Z,french_491.wav,0,pull,542,37,5,5,francais,m,4,0.4,-71.36976671,0.14013258
58bfee7de5869400018f5e9e,49,0,2024-02-27T11:13:13.714Z,french_491.wav,0,pull,542,37,5,5,francais,m,5,0.5,-12.86066121,1.37878942
58bfee7de5869400018f5e9e,49,0,2024-02-27T11:13:13.714Z,french_491.wav,0,pull,542,37,5,5,francais,m,6,0.6,-65.44931003,1.55111616
58bfee7de5869400018f5e9e,49,0,2024-02-27T11:13:13.714Z,french_491.wav,0,pull,542,37,5,5,francais,m,7,0.7,-44.47531366,0.8376443
58bfee7de5869400018f5e9e,49,0,2024-02-27T11:13:13.714Z,french_491.wav,0,pull,542,37,5,5,francais,m,8,0.8,-56.76207038,0.4945917
58bfee7de5869400018f5e9e,49,0,2024-02-27T11:13:13.714Z,french_491.wav,0,pull,542,37,5,5,francais,m,9,0.9,-6.01683556,0.95762538
58bfee7de5869400018f5e9e,49,0,2024-02-27T11:13:13.714Z,french_491.wav,0,pull,542,37,5,5,francais,m,10,1.0,20.39042638,1.57619744
58bfee7de5869400018f5e9e,49,0,2024-02-27T11:13:13.714Z,french_491.wav,0,pull,542,37,5,5,francais,m,11,1.1,90.67968242,1.41544214
58bfee7de5869400018f5e9e,49,0,2024-02-27T11:13:13.714Z,french_491.wav,0,pull,542,37,5,5,francais,m,12,1.14141667,-59.47328451,0.84581543
58bfee7de5869400018f5e9e,50,1,2024-02-27T11:13:13.714Z,french_903.wav,0,poule,706,37,5,5,francais,m,0,0.0,-30.9940869,1.1028355
58bfee7de5869400018f5e9e,50,1,2024-02-27T11:13:13.714Z,french_903.wav,0,poule,706,37,5,5,francais,m,1,0.1,-51.85288644,1.41515079
58bfee7de5869400018f5e9e,50,1,2024-02-27T11:13:13.714Z,french_903.wav,0,poule,706,37,5,5,francais,m,2,0.2,9.37565232,0.09010735
58bfee7de5869400018f5e9e,50,1,2024-02-27T11:13:13.714Z,french_903.wav,0,poule,706,37,5,5,francais,m,3,0.3,-65.56040136,0.80440488
58bfee7de5869400018f5e9e,50,1,2024-02-27T11:13:13.714Z,french_903.wav,0,poule,706,37,5,5,francais,m,4,0.4,-20.59983465,1.66392086
58bfee7de5869400018f5e9e,50,1,2024-02-27T11:13:13.714Z,french_903.wav,0,poule,706,37,5,5,francais,m,5,0.5,-81.87958144,1.51454605
58bfee7de5869400018f5e9e,50,1,2024-02-27T11:13:13.714Z,french_903.wav,0,poule,706,37,5,5,francais,m,6,0.6,-2.02758668,1.51747342
58bfee7de5869400018f5e9e,50,1,2024-02-27T11:13:13.714Z,french_903.wav,0,poule,706,37,5,5,francais,m,7,0.7,-50.52631335,1.16263681
58bfee7de5869400018f5e9e,50,1,2024-02-27T11:13:13.714Z,french_903.wav,0,poule,706,37,5,5,francais,m,8,0.8,61.79138453,0.22680531
58bfee7de5869400018f5e9e,50,1,2024-02-27T11:13:13.714Z,french_903.wav,0,poule,706,37,5,5,francais,m,9,0.9,14.74849978,1.67852395
58bfee7de5869400018f5e9e,50,1,2024-02-27T11:13:13.714Z,french_903.wav,0,poule,706,37,5,5,francais,m,10,1.0,90.51411256,1.15648316
58bfee7de5869400018f5e9e,50,1,2024-02-27T11:13:13.714Z,french_903.wav,0,poule,706,37,5,5,francais,m,11,1.1,21.53536294,0.37061547
58bfee7de5869400018f5e9e,50,1,2024-02-27T11:13:13.714Z,french_903.wav,0,poule,706,37,5,5,francais,m,12,1.14141667,-52.68287573,1.51798738
58bfee7de5869400018f5e9e,51,1,2024-02-27T11:13:13.714Z,french_173.wav,0,poule,562,37,5,5,francais,m,0,0.0,-46.66919298,1.63776861
58bfee7de5869400018f5e9e,51,1,2024-02-27T11:13:13.714Z,french_173.wav,0,poule,562,37,5,5,francais,m,1,0.1,4.67484005,1.1956952
58bfee7de5869400018f5e9e,51,1,2024-02-27T11:13:13.714Z,french_173.wav,0,poule,562,37,5,5,francais,m,2,0.2,80.83385661,0.9812403
58bfee7de5869400018f5e9e,51,1,2024-02-27T11:13:13.714Z,french_173.wav,0,poule,562,37,5,5,francais,m,3,0.3,-50.45685435,0.93944254
58bfee7de5869400018f5e9e,51,1,2024-02-27T11:13:13.714Z,french_173.wav,0,poule,562,37,5,5,francais,m,4,0.4,-62.49251948,1.366728
58bfee7de5869400018f5e9e,51,1,2024-02-27T11:13:13.714Z,french_173.wav,0,poule,562,37,5,5,francais,m,5,0.5,-50.73769737,0.90395124
58bfee7de5869400018f5e9e,51,1,2024-02-27T11:13:13.714Z,french_173.wav,0,poule,562,37,5,5,francais,m,6,0.6,97.55947113,0.64609469
58bfee7de5869400018f5e9e,51,1,2024-02-27T11:13:13.714Z,french_173.wav,0,poule,562,37,5,5,francais,m,7,0.7,-68.25637207,1.42709177
58bfee7de5869400018f5e9e,51,1,2024-02-27T11:13:13.714Z,french_173.wav,0,poule,562,37,5,5,francais,m,8,0.8,-22.42955904,1.40693544
58bfee7de5869400018f5e9e,51,1,2024-02-27T11:13:13.714Z,french_173.wav,0,poule,562,37,5,5,francais,m,9,0.9,15.09984102,1.93881322
58bfee7de5869400018f5e9e,51,1,2024-02-27T11:13:13.714Z,french_173.wav,0,poule,562,37,5,5,francais,m,10,1.0,-86.7117515,0.05946756
58bfee7de5869400018f5e9e,51,1,2024-02-27T11:13:13.714Z,french_173.wav,0,poule,562,37,5,5,francais,m,11,1.1,-74.37334759,1.20565839
58bfee7de5869400018f5e9e,51,1,2024-02-27T11:13:13.714Z,french_173.wav,0,poule,562,37,5,5,francais,m,12,1.14141667,71.31940753,1.30938607
58bfee7de5869400018f5e9e,52,1,2024-02-27T11:13:13.714Z,french_10.wav,0,poule,567,37,5,5,francais,m,0,0.0,28.16844794,1.16253074
58bfee7de5869400018f5e9e,52,1,2024-02-27T11:13:13.714Z,french_10.wav,0,poule,567,37,5,5,francais,m,1,0.1,46.30100241,0.75705097
58bfee7de5869400018f5e9e,52,1,2024-02-27T11:13:13.714Z,french_10.wav,0,poule,567,37,5,5,francais,m,2,0.2,-21.12843146,0.7794308
58bfee7de5869400018f5e9e,52,1,2024-02-27T11:13:13.714Z,french_10.wav,0,poule,567,37,5,5,francais,m,3,0.3,-4.52409741,1.19848321
58bfee7de5869400018f5e9e,52,1,2024-02-27T11:13:13.714Z,french_10.wav,0,poule,567,37,5,5,francais,m,4,0.4,-24.47310068,1.01301561
58bfee7de5869400018f5e9e,52,1,2024-02-27T11:13:13.714Z,french_10.wav,0,poule,567,37,5,5,francais,m,5,0.5,86.31547098,1.15552006
58bfee7de5869400018f5e9e,52,1,2024-02-27T11:13:13.714Z,french_10.wav,0,poule,567,37,5,5,francais,m,6,0.6,4.34036217,0.763322
58bfee7de5869400018f5e9e,52,1,2024-02-27T11:13:13.714Z,french_10.wav,0,poule,567,37,5,5,francais,m,7,0.7,81.8697429,0.73902021
58bfee7de5869400018f5e9e,52,1,2024-02-27T11:13:13.714Z,french_10.wav,0,poule,567,37,5,5,francais,m,8,0.8,52.86482299,0.69164327
58bfee7de5869400018f5e9e,52,1,2024-02-27T11:13:13.714Z,french_10.wav,0,poule,567,37,5,5,francais,m,9,0.9,-44.35586263,1.48695184
58bfee7de5869400018f5e9e,52,1,2024-02-27T11:13:13.714Z,french_10.wav,0,poule,567,37,5,5,francais,m,10,1.0,65.0577904,0.54071971
58bfee7de5869400018f5e9e,52,1,2024-02-27T11:13:13.714Z,french_10.wav,0,poule,567,37,5,5,francais,m,11,1.1,67.73719127,0.56546023
58bfee7de5869400018f5e9e,52,1,2024-02-27T11:13:13.714Z,french_10.wav,0,poule,567,37,5,5,francais,m,12,1.14141667,-32.2641705,0.40431744
58bfee7de5869400018f5e9e,53,1,2024-02-27T11:13:13.714Z,french_13.wav,0,poule,539,37,5,5,francais,m,0,0.0,28.79040646,1.71683998
58bfee7de5869400018f5e9e,53,1,2024-02-27T11:13:13.714Z,french_13.wav,0,poule,539,37,5,5,francais,m,1,0.1,1.43639251,1.51392947
58bfee7de5869400018f5e9e,53,1,2024-02-27T11:13:13.714Z,french_13.wav,0,poule,539,37,5,5,francais,m,2,0.2,8.93741283,1.95012388
58bfee7de5869400018f5e9e,53,1,2024-02-27T11:13:13.714Z,french_13.wav,0,poule,539,37,5,5,francais,m,3,0.3,-45.23678971,1.24720578
58bfee7de5869400018f5e9e,53,1,2024-02-27T11:13:13.714Z,french_13.wav,0,poule,539,37,5,5,francais,m,4,0.4,-36.64568284,0.6748638
58bfee7de5869400018f5e9e,53,1,2024-02-27T11:13:13.714Z,french_13.wav,0,poule,539,37,5,5,francais,m,5,0.5,95.08006425,0.64178438
58bfee7de5869400018f5e9e,53,1,2024-02-27T11:13:13.714Z,french_13.wav,0,poule,539,37,5,5,francais,m,6,0.6,-25.15383894,1.78067585
58bfee7de5869400018f5e9e,53,1,2024-02-27T11:13:13.714Z,french_13.wav,0,poule,539,37,5,5,francais,m,7,0.7,20.22064469,0.73379373
58bfee7de5869400018f5e9e,53,1,2024-02-27T11:13:13.714Z,french_13.wav,0,poule,539,37,5,5,francais,m,8,0.8,4.43008543,0.8008251
58bfee7de5869400018f5e9e,53,1,2024-02-27T11:13:13.714Z,french_13.wav,0,poule,539,37,5,5,francais,m,9,0.9,31.96842926,1.62083082
58bfee7de5869400018f5e9e,53,1,2024-02-27T11:13:13.714Z,french_13.wav,0,poule,539,37,5,5,francais,m,10,1.0,59.17290693,0.40737704
58bfee7de5869400018f5e9e,53,1,2024-02-27T11:13:13.714Z,french_13.wav,0,poule,539,37,5,5,francais,m,11,1.1,3.48956858,0.59465297
58bfee7de5869400018f5e9e,53,1,2024-02-27T11:13:13.714Z,french_13.wav,0,poule,539,37,5,5,francais,m,12,1.14141667,-39.55658578,0.57584179
58bfee7de5869400018f5e9e,54,1,2024-02-27T11:13:13.714Z,french_737.wav,0,pull,454,37,5,5,francais,m,0,0.0,52.46806953,0.64173495
58bfee7de5869400018f5e9e,54,1,2024-02-27T11:13:13.714Z,french_737.wav,0,pull,454,37,5,5,francais,m,1,0.1,22.11164663,1.02290277
58bfee7de5869400018f5e9e,54,1,2024-02-27T11:13:13.714Z,french_737.wav,0,pull,454,37,5,5,francais,m,2,0.2,21.15045447,1.15251768
58bfee7de5869400018f5e9e,54,1,2024-02-27T11:13:13.714Z,french_737.wav,0,pull,454,37,5,5,francais,m,3,0.3,72.92020853,0.917673
58bfee7de5869400018f5e9e,54,1,2024-02-27T11:13:13.714Z,french_737.wav,0,pull,454,37,5,5,francais,m,4,0.4,-88.00822782,0.17703353
58bfee7de5869400018f5e9e,54,1,2024-02-27T11:13:13.714Z,french_737.wav,0,pull,454,37,5,5,francais,m,5,0.5,44.92871735,0.75389602
58bfee7de5869400018f5e9e,54,1,2024-02-27T11:13:13.714Z,french_737.wav,0,pull,454,37,5,5,francais,m,6,0.6,-16.42488454,0.85967356
58bfee7de5869400018f5e9e,54,1,2024-02-27T11:13:13.714Z,french_737.wav,0,pull,454,37,5,5,francais,m,7,0.7,-38.35092669,1.78468728
58bfee7de5869400018f5e9e,54,1,2024-02-27T11:13:13.714Z,french_737.wav,0,pull,454,37,5,5,francais,m,8,0.8,53.07954461,1.36873542
58bfee7de5869400018f5e9e,54,1,2024-02-27T11:13:13.714Z,french_737.wav,0,pull,454,37,5,5,francais,m,9,0.9,-5.60043296,1.27747182
58bfee7de5869400018f5e9e,54,1,2024-02-27T11:13:13.714Z,french_737.wav,0,pull,454,37,5,5,francais,m,10,1.0,-61.57972563,1.44074345
58bfee7de5869400018f5e9e,54,1,2024-02-27T11:13:13.714Z,french_737.wav,0,pull,454,37,5,5,francais,m,11,1.1,-87.96395632,1.60195725
58bfee7de5869400018f5e9e,54,1,2024-02-27T11:13:13.714Z,french_737.wav,0,pull,454,37,5,5,francais,m,12,1.14141667,79.0371692,1.84673245
58bfee7de5869400018f5e9e,55,1,2024-02-27T11:13:13.714Z,french_978.wav,0,pull,851,37,5,5,francais,m,0,0.0,40.36214047,1.71110023
58bfee7de5869400018f5e9e,55,1,2024-02-27T11:13:13.714Z,french_978.wav,0,pull,851,37,5,5,francais,m,1,0.1,27.48362985,0.87420818
58bfee7de5869400018f5e9e,55,1,2024-02-27T11:13:13.714Z,french_978.wav,0,pull,851,37,5,5,francais,m,2,0.2,40.29852831,1.60194799
58bfee7de5869400018f5e9e,55,1,2024-02-27T11:13:13.714Z,french_978.wav,0,pull,851,37,5,5,francais,m,3,0.3,-43.85061163,1.28609491
58bfee7de5869400018f5e9e,55,1,2024-02-27T11:13:13.714Z,french_978.wav,0,pull,851,37,5,5,francais,m,4,0.4,67.88325766,1.65987261
58bfee7de5869400018f5e9e,55,1,2024-02-27T11:13:13.714Z,french_978.wav,0,pull,851,37,5,5,francais,m,5,0.5,-16.70318953,1.36246258
58bfee7de5869400018f5e9e,55,1,2024-02-27T11:13:13.714Z,french_978.wav,0,pull,851,37,5,5,francais,m,6,0.6,-33.19947882,1.20639467
58bfee7de5869400018f5e9e,55,1,2024-02-27T11:13:13.714Z,french_978.wav,0,pull,851,37,5,5,francais,m,7,0.7,50.84300547,0.49083377
58bfee7de5869400018f5e9e,55,1,2024-02-27T11:13:13.714Z,french_978.wav,0,pull,851,37,5,5,francais,m,8,0.8,85.59312257,0.35642981
58bfee7de5869400018f5e9e,55,1,2024-02-27T11:13:13.714Z,french_978.wav,0,pull,851,37,5,5,francais,m,9,0.9,-72.45512146,1.25854162
58bfee7de5869400018f5e9e,55,1,2024-02-27T11:13:13.714Z,french_978.wav,0,pull,851,37,5,5,francais,m,10,1.0,-13.92502552,1.89656772
58bfee7de5869400018f5e9e,55,1,2024-02-27T11:13:13.714Z,french_978.wav,0,pull,851,37,5,5,francais,m,11,1.1,24.95517316,1.25997973
58bfee7de5869400018f5e9e,55,1,2024-02-27T11:13:13.714Z,french_978.wav,0,pull,851,37,5,5,francais,m,12,1.14141667,-51.28447362,1.23391695
58bfee7de5869400018f5e9e,56,1,2024-02-27T11:13:13.714Z,french_580.wav,0,poule,759,37,5,5,francais,m,0,0.0,25.72367309,0.83672034
58bfee7de5869400018f5e9e,56,1,2024-02-27T11:13:13.714Z,french_580.wav,0,poule,759,37,5,5,francais,m,1,0.1,-90.22264513,1.17700555
58bfee7de5869400018f5e9e,56,1,2024-02-27T11:13:13.714Z,french_580.wav,0,poule,759,37,5,5,francais,m,2,0.2,-41.00446139,0.86031616
58bfee7de5869400018f5e9e,56,1,2024-02-27T11:13:13.714Z,french_580.wav,0,poule,759,37,5,5,francais,m,3,0.3,-5.68850956,1.31884624
58bfee7de5869400018f5e9e,56,1,2024-02-27T11:13:13.714Z,french_580.wav,0,poule,759,37,5,5,francais,m,4,0.4,73.58502836,0.50096962
58bfee7de5869400018f5e9e,56,1,2024-02-27T11:13:13.714Z,french_580.wav,0,poule,759,37,5,5,francais,m,5,0.5,-21.93392185,1.67954592
58bfee7de5869400018f5e9e,56,1,2024-02-27T11:13:13.714Z,french_580.wav,0,poule,759,37,5,5,francais,m,6,0.6,22.10254243,1.67101568
58bfee7de5869400018f5e9e,56,1,2024-02-27T11:13:13.714Z,french_580.wav,0,poule,759,37,5,5,francais,m,7,0.7,-79.6738306,0.19873264
58bfee7de5869400018f5e9e,56,1,2024-02-27T11:13:13.714Z,french_580.wav,0,poule,759,37,5,5,francais,m,8,0.8,-14.71861733,1.68323733
58bfee7de5869400018f5e9e,56,1,2024-02-27T11:13:13.714Z,french_580.wav,0,poule,759,37,5,5,francais,m,9,0.9,-0.72546407,0.50457607
58bfee7de5869400018f5e9e,56,1,2024-02-27T11:13:13.714Z,french_580.wav,0,poule,759,37,5,5,francais,m,10,1.0,14.32622757,1.32157054
58bfee7de5869400018f5e9e,56,1,2024-02-27T11:13:13.714Z,french_580.wav,0,poule,759,37,5,5,francais,m,11,1.1,-17.22514553,0.77895262
58bfee7de5869400018f5e9e,56,1,2024-02-27T11:13:13.714Z,french_580.wav,0,poule,759,37,5,5,francais,m,12,1.14141667,91.12485479,0.13067195
58bfee7de5869400018f5e9e,57,1,2024-02-27T11:13:13.714Z,french_618.wav,0,pull,521,37,5,5,francais,m,0,0.0,20.05983972,0.17568044
58bfee7de5869400018f5e9e,57,1,2024-02-27T11:13:13.714Z,french_618.wav,0,pull,521,37,5,5,francais,m,1,0.1,58.91310592,0.80933432
58bfee7de5869400018f5e9e,57,1,2024-02-27T11:13:13.714Z,french_618.wav,0,pull,521,37,5,5,francais,m,2,0.2,6.72731042,1.75957191
58bfee7de5869400018f5e9e,57,1,2024-02-27T11:13:13.714Z,french_618.wav,0,pull,521,37,5,5,francais,m,3,0.3,-78.89679785,1.21569199
58bfee7de5869400018f5e9e,57,1,2024-02-27T11:13:13.714Z,french_618.wav,0,pull,521,37,5,5,francais,m,4,0.4,-8.33733298,0.08695144
58bfee7de5869400018f5e9e,57,1,2024-02-27T11:13:13.714Z,french_618.wav,0,pull,521,37,5,5,francais,m,5,0.5,65.10342581,0.71252573
58bfee7de5869400018f5e9e,57,1,2024-02-27T11:13:13.714Z,french_618.wav,0,pull,521,37,5,5,francais,m,6,0.6,-94.00807668,1.00569246
58bfee7de5869400018f5e9e,57,1,2024-02-27T11:13:13.714Z,french_618.wav,0,pull,521,37,5,5,francais,m,7,0.7,82.41977933,1.1966004
58bfee7de5869400018f5e9e,57,1,2024-02-27T11:13:13.714Z,french_618.wav,0,pull,521,37,5,5,francais,m,8,0.8,21.24581957,1.80975739
58bfee7de5869400018f5e9e,57,1,2024-02-27T11:13:13.714Z,french_618.wav,0,pull,521,37,5,5,francais,m,9,0.9,66.30338575,1.67881476
58bfee7de5869400018f5e9e,57,1,2024-02-27T11:13:13.714Z,french_618.wav,0,pull,521,37,5,5,francais,m,10,1.0,35.04204865,1.40354146
58bfee7de5869400018f5e9e,57,1,2024-02-27T11:13:13.714Z,french_618.wav,0,pull,521,37,5,5,francais,m,11,1.1,4.02018466,1.74539239
58bfee7de5869400018f5e9e,57,1,2024-02-27T11:13:13.714Z,french_618.wav,0,pull,521,37,5,5,francais,m,12,1.14141667,-34.41646074,1.86292193
58bfee7de5869400018f5e9e,58,1,2024-02-27T11:13:13.714Z,french_102.wav,0,pull,573,37,5,5,francais,m,0,0.0,-15.01544192,1.99547859
58bfee7de5869400018f5e9e,58,1,2024-02-27T11:13:13.714Z,french_102.wav,0,pull,573,37,5,5,francais,m,1,0.1,71.67037123,1.31067708
58bfee7de5869400018f5e9e,58,1,2024-02-27T11:13:13.714Z,french_102.wav,0,pull,573,37,5,5,francais,m,2,0.2,-15.40775764,1.89966094
58bfee7de5869400018f5e9e,58,1,2024-02-27T11:13:13.714Z,french_102.wav,0,pull,573,37,5,5,francais,m,3,0.3,-11.03205257,0.46209705
58bfee7de5869400018f5e9e,58,1,2024-02-27T11:13:13.714Z,french_102.wav,0,pull,573,37,5,5,francais,m,4,0.4,83.38976595,1.59020339
58bfee7de5869400018f5e9e,58,1,2024-02-27T11:13:13.714Z,french_102.wav,0,pull,573,37,5,5,francais,m,5,0.5,-5.64706329,0.67444191
58bfee7de5869400018f5e9e,58,1,2024-02-27T11:13:13.714Z,french_102.wav,0,pull,573,37,5,5,francais,m,6,0.6,-61.33063811,0.39768291
58bfee7de5869400018f5e9e,58,1,2024-02-27T11:13:13.714Z,french_102.wav,0,pull,573,37,5,5,francais,m,7,0.7,-33.99234127,1.94992257
58bfee7de5869400018f5e9e,58,1,2024-02-27T11:13:13.714Z,french_102.wav,0,pull,573,37,5,5,francais,m,8,0.8,-77.43313944,0.27940287
58bfee7de5869400018f5e9e,58,1,2024-02-27T11:13:13.714Z,french_102.wav,0,pull,573,37,5,5,francais,m,9,0.9,71.97416395,1.28110567
58bfee7de5869400018f5e9e,58,1,2024-02-27T11:13:13.714Z,french_102.wav,0,pull,573,37,5,5,francais,m,10,1.0,97.74294551,1.03180034
58bfee7de5869400018f5e9e,58,1,2024-02-27T11:13:13.714Z,french_102.wav,0,pull,573,37,5,5,francais,m,11,1.1,3.21615285,0.76414653
58bfee7de5869400018f5e9e,58,1,2024-02-27T11:13:13.714Z,french_102.wav,0,pull,573,37,5,5,francais,m,12,1.14141667,38.32606252,1.66338618
58bfee7de5869400018f5e9e,59,1,2024-02-27T11:13:13.714Z,french_749.wav,0,pull,935,37,5,5,francais,m,0,0.0,-23.16549888,1.16458166
58bfee7de5869400018f5e9e,59,1,2024-02-27T11:13:13.714Z,french_749.wav,0,pull,935,37,5,5,francais,m,1,0.1,-79.07430358,1.09262862
58bfee7de5869400018f5e9e,59,1,2024-02-27T11:13:13.714Z,french_749.wav,0,pull,935,37,5,5,francais,m,2,0.2,70.37404484,1.10936208
