subj,trial,block,date,stim,stim_order,response,rt,age,english,french,language,sex,param_index,segment,pitch,stretch
5f90c32f69122f1cebd1cc0b,0,0,2024-02-28T16:04:24.318Z,french_300.wav,0,poule,1414,55,4,5,français,m,0,0.0,94.68384182,1.20199987
5f90c32f69122f1cebd1cc0b,0,0,2024-02-28T16:04:24.318Z,french_300.wav,0,poule,1414,55,4,5,français,m,1,0.1,43.67173173,1.09384491
5f90c32f69122f1cebd1cc0b,0,0,2024-02-28T16:04:24.318Z,french_300.wav,0,poule,1414,55,4,5,français,m,2,0.2,83.66057135,1.20858856
5f90c32f69122f1cebd1cc0b,0,0,2024-02-28T16:04:24.318Z,french_300.wav,0,poule,1414,55,4,5,français,m,3,0.3,90.66477738,0.61005972
5f90c32f69122f1cebd1cc0b,0,0,2024-02-28T16:04:24.318Z,french_300.wav,0,poule,1414,55,4,5,français,m,4,0.4,33.04822767,0.0949671
5f90c32f69122f1cebd1cc0b,0,0,2024-02-28T16:04:24.318Z,french_300.wav,0,poule,1414,55,4,5,français,m,5,0.5,-39.54628631,1.02227962
5f90c32f69122f1cebd1cc0b,0,0,2024-02-28T16:04:24.318Z,french_300.wav,0,poule,1414,55,4,5,français,m,6,0.6,21.73649473,1.2482894
5f90c32f69122f1cebd1cc0b,0,0,2024-02-28T16:04:24.318Z,french_300.wav,0,poule,1414,55,4,5,français,m,7,0.7,-66.20699618,0.88228821
5f90c32f69122f1cebd1cc0b,0,0,2024-02-28T16:04:24.318Z,french_300.wav,0,poule,1414,55,4,5,français,m,8,0.8,-68.18056654,1.15930732
5f90c32f69122f1cebd1cc0b,0,0,2024-02-28T16:04:24.318Z,french_300.wav,0,poule,1414,55,4,5,français,m,9,0.9,73.28930536,0.69980892
5f90c32f69122f1cebd1cc0b,0,0,2024-02-28T16:04:24.318Z,french_300.wav,0,poule,1414,55,4,5,français,m,10,1.0,74.75815468,1.66502361
5f90c32f69122f1cebd1cc0b,0,0,2024-02-28T16:04:24.318Z,french_300.wav,0,poule,1414,55,4,5,français,m,11,1.1,-48.74741599,1.13907369
5f90c32f69122f1cebd1cc0b,0,0,2024-02-28T16:04:24.318Z,french_300.wav,0,poule,1414,55,4,5,français,m,12,1.14141667,11.42157489,1.94543901
5f90c32f69122f1cebd1cc0b,1,0,2024-02-28T16:04:24.318Z,french_200.wav,0,poule,508,55,4,5,français,m,0,0.0,10.66473812,1.15832736
5f90c32f69122f1cebd1cc0b,1,0,2024-02-28T16:04:24.318Z,french_200.wav,0,poule,508,55,4,5,français,m,1,0.1,-23.10865754,0.48233726
5f90c32f69122f1cebd1cc0b,1,0,2024-02-28T16:04:24.318Z,french_200.wav,0,poule,508,55,4,5,français,m,2,0.2,-26.94851482,0.16521916
5f90c32f69122f1cebd1cc0b,1,0,2024-02-28T16:04:24.318Z,french_200.wav,0,poule,508,55,4,5,français,m,3,0.3,-33.10340519,0.50966441
5f90c32f69122f1cebd1cc0b,1,0,2024-02-28T16:04:24.318Z,french_200.wav,0,poule,508,55,4,5,français,m,4,0.4,49.54751917,0.60857897
5f90c32f69122f1cebd1cc0b,1,0,2024-02-28T16:04:24.318Z,french_200.wav,0,poule,508,55,4,5,français,m,5,0.5,-36.16101415,0.8415653
5f90c32f69122f1cebd1cc0b,1,0,2024-02-28T16:04:24.318Z,french_200.wav,0,poule,508,55,4,5,français,m,6,0.6,69.93456636,1.89309681
5f90c32f69122f1cebd1cc0b,1,0,2024-02-28T16:04:24.318Z,french_200.wav,0,poule,508,55,4,5,français,m,7,0.7,-11.46588409,1.76792236
5f90c32f69122f1cebd1cc0b,1,0,2024-02-28T16:04:24.318Z,french_200.wav,0,poule,508,55,4,5,français,m,8,0.8,-34.69840246,0.32179511
5f90c32f69122f1cebd1cc0b,1,0,2024-02-28T16:04:24.318Z,french_200.wav,0,poule,508,55,4,5,français,m,9,0.9,30.23959847,1.57618572
5f90c32f69122f1cebd1cc0b,1,0,2024-02-28T16:04:24.318Z,french_200.wav,0,poule,508,55,4,5,français,m,10,1.0,-25.32995204,1.69305609
5f90c32f69122f1cebd1cc0b,1,0,2024-02-28T16:04:24.318Z,french_200.wav,0,poule,508,55,4,5,français,m,11,1.1,23.48875346,0.93398883
5f90c32f69122f1cebd1cc0b,1,0,2024-02-28T16:04:24.318Z,french_200.wav,0,poule,508,55,4,5,français,m,12,1.14141667,-45.42969725,0.80903223
5f90c32f69122f1cebd1cc0b,2,0,2024-02-28T16:04:24.318Z,french_758.wav,0,poule,704,55,4,5,français,m,0,0.0,41.40251797,0.56085544
5f90c32f69122f1cebd1cc0b,2,0,2024-02-28T16:04:24.318Z,french_758.wav,0,poule,704,55,4,5,français,m,1,0.1,83.22068517,0.97554237
5f90c32f69122f1cebd1cc0b,2,0,2024-02-28T16:04:24.318Z,french_758.wav,0,poule,704,55,4,5,français,m,2,0.2,-17.02894859,0.01004143
5f90c32f69122f1cebd1cc0b,2,0,2024-02-28T16:04:24.318Z,french_758.wav,0,poule,704,55,4,5,français,m,3,0.3,-57.78871378,1.03626599
5f90c32f69122f1cebd1cc0b,2,0,2024-02-28T16:04:24.318Z,french_758.wav,0,poule,704,55,4,5,français,m,4,0.4,-26.28467223,0.33244231
5f90c32f69122f1cebd1cc0b,2,0,2024-02-28T16:04:24.318Z,french_758.wav,0,poule,704,55,4,5,français,m,5,0.5,1.34940172,1.08481581
5f90c32f69122f1cebd1cc0b,2,0,2024-02-28T16:04:24.318Z,french_758.wav,0,poule,704,55,4,5,français,m,6,0.6,73.49827232,0.0829296
5f90c32f69122f1cebd1cc0b,2,0,2024-02-28T16:04:24.318Z,french_758.wav,0,poule,704,55,4,5,français,m,7,0.7,-10.43882846,1.10238348
5f90c32f69122f1cebd1cc0b,2,0,2024-02-28T16:04:24.318Z,french_758.wav,0,poule,704,55,4,5,français,m,8,0.8,-36.52394931,1.35072621
5f90c32f69122f1cebd1cc0b,2,0,2024-02-28T16:04:24.318Z,french_758.wav,0,poule,704,55,4,5,français,m,9,0.9,-31.42286667,1.63267541
5f90c32f69122f1cebd1cc0b,2,0,2024-02-28T16:04:24.318Z,french_758.wav,0,poule,704,55,4,5,français,m,10,1.0,-59.6641431,0.28303542
5f90c32f69122f1cebd1cc0b,2,0,2024-02-28T16:04:24.318Z,french_758.wav,0,poule,704,55,4,5,français,m,11,1.1,39.4290765,0.53687214
5f90c32f69122f1cebd1cc0b,2,0,2024-02-28T16:04:24.318Z,french_758.wav,0,poule,704,55,4,5,français,m,12,1.14141667,-44.19004616,0.94196396
5f90c32f69122f1cebd1cc0b,3,0,2024-02-28T16:04:24.318Z,french_100.wav,0,pull,1734,55,4,5,français,m,0,0.0,45.30319637,0.4266363
5f90c32f69122f1cebd1cc0b,3,0,2024-02-28T16:04:24.318Z,french_100.wav,0,pull,1734,55,4,5,français,m,1,0.1,47.12815282,0.41166499
5f90c32f69122f1cebd1cc0b,3,0,2024-02-28T16:04:24.318Z,french_100.wav,0,pull,1734,55,4,5,français,m,2,0.2,67.48521917,0.75850186
5f90c32f69122f1cebd1cc0b,3,0,2024-02-28T16:04:24.318Z,french_100.wav,0,pull,1734,55,4,5,français,m,3,0.3,23.61125392,1.79094973
5f90c32f69122f1cebd1cc0b,3,0,2024-02-28T16:04:24.318Z,french_100.wav,0,pull,1734,55,4,5,français,m,4,0.4,20.77565094,1.79636496
5f90c32f69122f1cebd1cc0b,3,0,2024-02-28T16:04:24.318Z,french_100.wav,0,pull,1734,55,4,5,français,m,5,0.5,-96.44964023,1.36246425
5f90c32f69122f1cebd1cc0b,3,0,2024-02-28T16:04:24.318Z,french_100.wav,0,pull,1734,55,4,5,français,m,6,0.6,-27.30276741,0.7383114
5f90c32f69122f1cebd1cc0b,3,0,2024-02-28T16:04:24.318Z,french_100.wav,0,pull,1734,55,4,5,français,m,7,0.7,7.85228196,1.2886492
5f90c32f69122f1cebd1cc0b,3,0,2024-02-28T16:04:24.318Z,french_100.wav,0,pull,1734,55,4,5,français,m,8,0.8,68.83602268,0.63858011
5f90c32f69122f1cebd1cc0b,3,0,2024-02-28T16:04:24.318Z,french_100.wav,0,pull,1734,55,4,5,français,m,9,0.9,42.76775799,0.54144566
5f90c32f69122f1cebd1cc0b,3,0,2024-02-28T16:04:24.318Z,french_100.wav,0,pull,1734,55,4,5,français,m,10,1.0,54.32509685,0.22455782
5f90c32f69122f1cebd1cc0b,3,0,2024-02-28T16:04:24.318Z,french_100.wav,0,pull,1734,55,4,5,français,m,11,1.1,-78.45035325,0.1039249
5f90c32f69122f1cebd1cc0b,3,0,2024-02-28T16:04:24.318Z,french_100.wav,0,pull,1734,55,4,5,français,m,12,1.14141667,25.20581813,0.78301344
5f90c32f69122f1cebd1cc0b,4,0,2024-02-28T16:04:24.318Z,french_25.wav,0,poule,549,55,4,5,français,m,0,0.0,-88.8010065,0.41592312
5f90c32f69122f1cebd1cc0b,4,0,2024-02-28T16:04:24.318Z,french_25.wav,0,poule,549,55,4,5,français,m,1,0.1,83.90276251,0.42533982
5f90c32f69122f1cebd1cc0b,4,0,2024-02-28T16:04:24.318Z,french_25.wav,0,poule,549,55,4,5,français,m,2,0.2,51.8262266,0.45115442
5f90c32f69122f1cebd1cc0b,4,0,2024-02-28T16:04:24.318Z,french_25.wav,0,poule,549,55,4,5,français,m,3,0.3,48.13028071,1.45187216
5f90c32f69122f1cebd1cc0b,4,0,2024-02-28T16:04:24.318Z,french_25.wav,0,poule,549,55,4,5,français,m,4,0.4,-37.19834642,0.31450239
5f90c32f69122f1cebd1cc0b,4,0,2024-02-28T16:04:24.318Z,french_25.wav,0,poule,549,55,4,5,français,m,5,0.5,-5.67180941,0.26706037
5f90c32f69122f1cebd1cc0b,4,0,2024-02-28T16:04:24.318Z,french_25.wav,0,poule,549,55,4,5,français,m,6,0.6,-86.49516365,1.06667064
5f90c32f69122f1cebd1cc0b,4,0,2024-02-28T16:04:24.318Z,french_25.wav,0,poule,549,55,4,5,français,m,7,0.7,32.53649108,1.35764257
5f90c32f69122f1cebd1cc0b,4,0,2024-02-28T16:04:24.318Z,french_25.wav,0,poule,549,55,4,5,français,m,8,0.8,10.53448385,0.06237769
5f90c32f69122f1cebd1cc0b,4,0,2024-02-28T16:04:24.318Z,french_25.wav,0,poule,549,55,4,5,français,m,9,0.9,4.35447071,1.69931779
5f90c32f69122f1cebd1cc0b,4,0,2024-02-28T16:04:24.318Z,french_25.wav,0,poule,549,55,4,5,français,m,10,1.0,5.08898812,0.82831714
5f90c32f69122f1cebd1cc0b,4,0,2024-02-28T16:04:24.318Z,french_25.wav,0,poule,549,55,4,5,français,m,11,1.1,-44.09304524,0.06199876
5f90c32f69122f1cebd1cc0b,4,0,2024-02-28T16:04:24.318Z,french_25.wav,0,poule,549,55,4,5,français,m,12,1.14141667,31.3470305,1.53448447
5f90c32f69122f1cebd1cc0b,5,0,2024-02-28T16:04:24.318Z,french_589.wav,0,poule,460,55,4,5,français,m,0,0.0,-28.81572037,1.30386384
5f90c32f69122f1cebd1cc0b,5,0,2024-02-28T16:04:24.318Z,french_589.wav,0,poule,460,55,4,5,français,m,1,0.1,-19.51196233,0.74133432
5f90c32f69122f1cebd1cc0b,5,0,2024-02-28T16:04:24.318Z,french_589.wav,0,poule,460,55,4,5,français,m,2,0.2,25.83374801,1.49671777
5f90c32f69122f1cebd1cc0b,5,0,2024-02-28T16:04:24.318Z,french_589.wav,0,poule,460,55,4,5,français,m,3,0.3,-10.48765522,1.87945415
5f90c32f69122f1cebd1cc0b,5,0,2024-02-28T16:04:24.318Z,french_589.wav,0,poule,460,55,4,5,français,m,4,0.4,-3.03759246,0.36986056
5f90c32f69122f1cebd1cc0b,5,0,2024-02-28T16:04:24.318Z,french_589.wav,0,poule,460,55,4,5,français,m,5,0.5,79.90675805,1.80845695
5f90c32f69122f1cebd1cc0b,5,0,2024-02-28T16:04:24.318Z,french_589.wav,0,poule,460,55,4,5,français,m,6,0.6,76.74926762,0.51895627
5f90c32f69122f1cebd1cc0b,5,0,2024-02-28T16:04:24.318Z,french_589.wav,0,poule,460,55,4,5,français,m,7,0.7,-44.25171618,1.19430918
5f90c32f69122f1cebd1cc0b,5,0,2024-02-28T16:04:24.318Z,french_589.wav,0,poule,460,55,4,5,français,m,8,0.8,59.06100345,1.35945592
5f90c32f69122f1cebd1cc0b,5,0,2024-02-28T16:04:24.318Z,french_589.wav,0,poule,460,55,4,5,français,m,9,0.9,-88.17253703,1.80478973
5f90c32f69122f1cebd1cc0b,5,0,2024-02-28T16:04:24.318Z,french_589.wav,0,poule,460,55,4,5,français,m,10,1.0,54.60174578,1.51186698
5f90c32f69122f1cebd1cc0b,5,0,2024-02-28T16:04:24.318Z,french_589.wav,0,poule,460,55,4,5,français,m,11,1.1,-90.51260514,1.71055133
5f90c32f69122f1cebd1cc0b,5,0,2024-02-28T16:04:24.318Z,french_589.wav,0,poule,460,55,4,5,français,m,12,1.14141667,-51.25820416,1.7934624
5f90c32f69122f1cebd1cc0b,6,0,2024-02-28T16:04:24.318Z,french_712.wav,0,poule,840,55,4,5,français,m,0,0.0,-95.66069785,1.85127754
5f90c32f69122f1cebd1cc0b,6,0,2024-02-28T16:04:24.318Z,french_712.wav,0,poule,840,55,4,5,français,m,1,0.1,-6.05322415,1.47951206
5f90c32f69122f1cebd1cc0b,6,0,2024-02-28T16:04:24.318Z,french_712.wav,0,poule,840,55,4,5,français,m,2,0.2,-14.42781433,1.70422178
5f90c32f69122f1cebd1cc0b,6,0,2024-02-28T16:04:24.318Z,french_712.wav,0,poule,840,55,4,5,français,m,3,0.3,32.58463251,1.42320081
5f90c32f69122f1cebd1cc0b,6,0,2024-02-28T16:04:24.318Z,french_712.wav,0,poule,840,55,4,5,français,m,4,0.4,-88.6066963,1.1647441
5f90c32f69122f1cebd1cc0b,6,0,2024-02-28T16:04:24.318Z,french_712.wav,0,poule,840,55,4,5,français,m,5,0.5,-30.98319164,1.7308951
5f90c32f69122f1cebd1cc0b,6,0,2024-02-28T16:04:24.318Z,french_712.wav,0,poule,840,55,4,5,français,m,6,0.6,76.39467543,0.03424579
5f90c32f69122f1cebd1cc0b,6,0,2024-02-28T16:04:24.318Z,french_712.wav,0,poule,840,55,4,5,français,m,7,0.7,-64.68968395,0.15973474
5f90c32f69122f1cebd1cc0b,6,0,2024-02-28T16:04:24.318Z,french_712.wav,0,poule,840,55,4,5,français,m,8,0.8,-71.89558722,1.61824192
5f90c32f69122f1cebd1cc0b,6,0,2024-02-28T16:04:24.318Z,french_712.wav,0,poule,840,55,4,5,français,m,9,0.9,67.69667977,0.80414017
5f90c32f69122f1cebd1cc0b,6,0,2024-02-28T16:04:24.318Z,french_712.wav,0,poule,840,55,4,5,français,m,10,1.0,18.20955726,1.37598527
5f90c32f69122f1cebd1cc0b,6,0,2024-02-28T16:04:24.318Z,french_712.wav,0,poule,840,55,4,5,français,m,11,1.1,-31.46092163,0.55072858
5f90c32f69122f1cebd1cc0b,6,0,2024-02-28T16:04:24.318Z,french_712.wav,0,poule,840,55,4,5,français,m,12,1.14141667,29.12914815,1.89981007
5f90c32f69122f1cebd1cc0b,7,0,2024-02-28T16:04:24.318Z,french_847.wav,0,poule,368,55,4,5,français,m,0,0.0,24.30464293,1.42157188
5f90c32f69122f1cebd1cc0b,7,0,2024-02-28T16:04:24.318Z,french_847.wav,0,poule,368,55,4,5,français,m,1,0.1,80.06267567,1.72679545
5f90c32f69122f1cebd1cc0b,7,0,2024-02-28T16:04:24.318Z,french_847.wav,0,poule,368,55,4,5,français,m,2,0.2,49.14872517,0.73959124
5f90c32f69122f1cebd1cc0b,7,0,2024-02-28T16:04:24.318Z,french_847.wav,0,poule,368,55,4,5,français,m,3,0.3,31.44422606,1.62606871
5f90c32f69122f1cebd1cc0b,7,0,2024-02-28T16:04:24.318Z,french_847.wav,0,poule,368,55,4,5,français,m,4,0.4,-22.08154628,1.12324288
5f90c32f69122f1cebd1cc0b,7,0,2024-02-28T16:04:24.318Z,french_847.wav,0,poule,368,55,4,5,français,m,5,0.5,-28.01893953,1.49566705
5f90c32f69122f1cebd1cc0b,7,0,2024-02-28T16:04:24.318Z,french_847.wav,0,poule,368,55,4,5,français,m,6,0.6,20.29474352,0.91317844
5f90c32f69122f1cebd1cc0b,7,0,2024-02-28T16:04:24.318Z,french_847.wav,0,poule,368,55,4,5,français,m,7,0.7,-48.19032453,0.576592
5f90c32f69122f1cebd1cc0b,7,0,2024-02-28T16:04:24.318Z,french_847.wav,0,poule,368,55,4,5,français,m,8,0.8,85.37090763,0.46825986
5f90c32f69122f1cebd1cc0b,7,0,2024-02-28T16:04:24.318Z,french_847.wav,0,poule,368,55,4,5,français,m,9,0.9,76.48288011,0.69487608
5f90c32f69122f1cebd1cc0b,7,0,2024-02-28T16:04:24.318Z,french_847.wav,0,poule,368,55,4,5,français,m,10,1.0,31.27306086,1.75885754
5f90c32f69122f1cebd1cc0b,7,0,2024-02-28T16:04:24.318Z,french_847.wav,0,poule,368,55,4,5,français,m,11,1.1,-93.83311369,0.02337565
5f90c32f69122f1cebd1cc0b,7,0,2024-02-28T16:04:24.318Z,french_847.wav,0,poule,368,55,4,5,français,m,12,1.14141667,62.38115445,0.25458074
5f90c32f69122f1cebd1cc0b,8,0,2024-02-28T16:04:24.318Z,french_526.wav,0,poule,366,55,4,5,français,m,0,0.0,-3.34213948,0.40974575
5f90c32f69122f1cebd1cc0b,8,0,2024-02-28T16:04:24.318Z,french_526.wav,0,poule,366,55,4,5,français,m,1,0.1,-38.63024981,0.80270001
5f90c32f69122f1cebd1cc0b,8,0,2024-02-28T16:04:24.318Z,french_526.wav,0,poule,366,55,4,5,français,m,2,0.2,93.21737658,0.74121325
5f90c32f69122f1cebd1cc0b,8,0,2024-02-28T16:04:24.318Z,french_526.wav,0,poule,366,55,4,5,français,m,3,0.3,-71.56714532,1.50939527
5f90c32f69122f1cebd1cc0b,8,0,2024-02-28T16:04:24.318Z,french_526.wav,0,poule,366,55,4,5,français,m,4,0.4,55.55298997,0.92463097
5f90c32f69122f1cebd1cc0b,8,0,2024-02-28T16:04:24.318Z,french_526.wav,0,poule,366,55,4,5,français,m,5,0.5,-90.65516394,1.64741989
5f90c32f69122f1cebd1cc0b,8,0,2024-02-28T16:04:24.318Z,french_526.wav,0,poule,366,55,4,5,français,m,6,0.6,67.30065147,0.25308429
5f90c32f69122f1cebd1cc0b,8,0,2024-02-28T16:04:24.318Z,french_526.wav,0,poule,366,55,4,5,français,m,7,0.7,-92.19460914,0.31675775
5f90c32f69122f1cebd1cc0b,8,0,2024-02-28T16:04:24.318Z,french_526.wav,0,poule,366,55,4,5,français,m,8,0.8,-61.42846186,1.60624507
5f90c32f69122f1cebd1cc0b,8,0,2024-02-28T16:04:24.318Z,french_526.wav,0,poule,366,55,4,5,français,m,9,0.9,-71.57092401,1.37847828
5f90c32f69122f1cebd1cc0b,8,0,2024-02-28T16:04:24.318Z,french_526.wav,0,poule,366,55,4,5,français,m,10,1.0,-1.13377121,1.26755978
5f90c32f69122f1cebd1cc0b,8,0,2024-02-28T16:04:24.318Z,french_526.wav,0,poule,366,55,4,5,français,m,11,1.1,79.13585044,1.65811532
5f90c32f69122f1cebd1cc0b,8,0,2024-02-28T16:04:24.318Z,french_526.wav,0,poule,366,55,4,5,français,m,12,1.14141667,-60.54584427,1.5361609
5f90c32f69122f1cebd1cc0b,9,0,2024-02-28T16:04:24.318Z,french_644.wav,0,pull,1317,55,4,5,français,m,0,0.0,74.83214381,1.50126041
5f90c32f69122f1cebd1cc0b,9,0,2024-02-28T16:04:24.318Z,french_644.wav,0,pull,1317,55,4,5,français,m,1,0.1,42.49051207,1.8548378
5f90c32f69122f1cebd1cc0b,9,0,2024-02-28T16:04:24.318Z,french_644.wav,0,pull,1317,55,4,5,français,m,2,0.2,90.54799171,1.64493334
5f90c32f69122f1cebd1cc0b,9,0,2024-02-28T16:04:24.318Z,french_644.wav,0,pull,1317,55,4,5,français,m,3,0.3,47.17852012,0.77650911
5f90c32f69122f1cebd1cc0b,9,0,2024-02-28T16:04:24.318Z,french_644.wav,0,pull,1317,55,4,5,français,m,4,0.4,3.30263657,1.92047714
5f90c32f69122f1cebd1cc0b,9,0,2024-02-28T16:04:24.318Z,french_644.wav,0,pull,1317,55,4,5,français,m,5,0.5,-34.13886535,0.71247883
5f90c32f69122f1cebd1cc0b,9,0,2024-02-28T16:04:24.318Z,french_644.wav,0,pull,1317,55,4,5,français,m,6,0.6,-56.77243545,1.54632823
5f90c32f69122f1cebd1cc0b,9,0,2024-02-28T16:04:24.318Z,french_644.wav,0,pull,1317,55,4,5,français,m,7,0.7,25.7362156,1.62920778
5f90c32f69122f1cebd1cc0b,9,0,2024-02-28T16:04:24.318Z,french_644.wav,0,pull,1317,55,4,5,français,m,8,0.8,-95.08022705,1.88559191
5f90c32f69122f1cebd1cc0b,9,0,2024-02-28T16:04:24.318Z,french_644.wav,0,pull,1317,55,4,5,français,m,9,0.9,77.23760269,0.03323224
5f90c32f69122f1cebd1cc0b,9,0,2024-02-28T16:04:24.318Z,french_644.wav,0,pull,1317,55,4,5,français,m,10,1.0,-25.42232077,1.31228193
5f90c32f69122f1cebd1cc0b,9,0,2024-02-28T16:04:24.318Z,french_644.wav,0,pull,1317,55,4,5,français,m,11,1.1,-29.11552135,0.75255545
5f90c32f69122f1cebd1cc0b,9,0,2024-02-28T16:04:24.318Z,french_644.wav,0,pull,1317,55,4,5,français,m,12,1.14141667,-57.8663424,1.94026239
5f90c32f69122f1cebd1cc0b,10,0,2024-02-28T16:04:24.318Z,french_570.wav,0,poule,448,55,4,5,français,m,0,0.0,-45.3917955,1.19819767
5f90c32f69122f1cebd1cc0b,10,0,2024-02-28T16:04:24.318Z,french_570.wav,0,poule,448,55,4,5,français,m,1,0.1,-10.85306862,0.49543291
5f90c32f69122f1cebd1cc0b,10,0,2024-02-28T16:04:24.318Z,french_570.wav,0,poule,448,55,4,5,français,m,2,0.2,-2.66303486,1.66800071
5f90c32f69122f1cebd1cc0b,10,0,2024-02-28T16:04:24.318Z,french_570.wav,0,poule,448,55,4,5,français,m,3,0.3,-32.59962556,0.10362546
5f90c32f69122f1cebd1cc0b,10,0,2024-02-28T16:04:24.318Z,french_570.wav,0,poule,448,55,4,5,français,m,4,0.4,-5.49643311,0.8503783
5f90c32f69122f1cebd1cc0b,10,0,2024-02-28T16:04:24.318Z,french_570.wav,0,poule,448,55,4,5,français,m,5,0.5,28.02198877,1.53524079
5f90c32f69122f1cebd1cc0b,10,0,2024-02-28T16:04:24.318Z,french_570.wav,0,poule,448,55,4,5,français,m,6,0.6,-36.20109348,1.11611775
5f90c32f69122f1cebd1cc0b,10,0,2024-02-28T16:04:24.318Z,french_570.wav,0,poule,448,55,4,5,français,m,7,0.7,-12.58953364,1.41982797
5f90c32f69122f1cebd1cc0b,10,0,2024-02-28T16:04:24.318Z,french_570.wav,0,poule,448,55,4,5,français,m,8,0.8,24.84923046,1.83422328
5f90c32f69122f1cebd1cc0b,10,0,2024-02-28T16:04:24.318Z,french_570.wav,0,poule,448,55,4,5,français,m,9,0.9,-28.45536131,0.62751144
5f90c32f69122f1cebd1cc0b,10,0,2024-02-28T16:04:24.318Z,french_570.wav,0,poule,448,55,4,5,français,m,10,1.0,-38.13214267,0.56230222
5f90c32f69122f1cebd1cc0b,10,0,2024-02-28T16:04:24.318Z,french_570.wav,0,poule,448,55,4,5,français,m,11,1.1,36.48055026,0.57641953
5f90c32f69122f1cebd1cc0b,10,0,2024-02-28T16:04:24.318Z,french_570.wav,0,poule,448,55,4,5,français,m,12,1.14141667,7.78558151,1.40822903
5f90c32f69122f1cebd1cc0b,11,0,2024-02-28T16:04:24.318Z,french_446.wav,0,poule,550,55,4,5,français,m,0,0.0,66.11586976,0.5039422
5f90c32f69122f1cebd1cc0b,11,0,2024-02-28T16:04:24.318Z,french_446.wav,0,poule,550,55,4,5,français,m,1,0.1,-47.79078907,0.80146309
5f90c32f69122f1cebd1cc0b,11,0,2024-02-28T16:04:24.318Z,french_446.wav,0,poule,550,55,4,5,français,m,2,0.2,71.77920412,1.78552689
5f90c32f69122f1cebd1cc0b,11,0,2024-02-28T16:04:24.318Z,french_446.wav,0,poule,550,55,4,5,français,m,3,0.3,-93.6537617,0.88100481
5f90c32f69122f1cebd1cc0b,11,0,2024-02-28T16:04:24.318Z,french_446.wav,0,poule,550,55,4,5,français,m,4,0.4,-6.4027558,0.77019445
5f90c32f69122f1cebd1cc0b,11,0,2024-02-28T16:04:24.318Z,french_446.wav,0,poule,550,55,4,5,français,m,5,0.5,-41.15389174,1.46662088
5f90c32f69122f1cebd1cc0b,11,0,2024-02-28T16:04:24.318Z,french_446.wav,0,poule,550,55,4,5,français,m,6,0.6,-4.55914228,0.87709691
5f90c32f69122f1cebd1cc0b,11,0,2024-02-28T16:04:24.318Z,french_446.wav,0,poule,550,55,4,5,français,m,7,0.7,-9.90410227,0.79820902
5f90c32f69122f1cebd1cc0b,11,0,2024-02-28T16:04:24.318Z,french_446.wav,0,poule,550,55,4,5,français,m,8,0.8,-95.14424616,1.2624915
5f90c32f69122f1cebd1cc0b,11,0,2024-02-28T16:04:24.318Z,french_446.wav,0,poule,550,55,4,5,français,m,9,0.9,-38.80179858,1.05291516
5f90c32f69122f1cebd1cc0b,11,0,2024-02-28T16:04:24.318Z,french_446.wav,0,poule,550,55,4,5,français,m,10,1.0,93.69085656,0.55686505
5f90c32f69122f1cebd1cc0b,11,0,2024-02-28T16:04:24.318Z,french_446.wav,0,poule,550,55,4,5,français,m,11,1.1,-2.36589875,1.21588771
5f90c32f69122f1cebd1cc0b,11,0,2024-02-28T16:04:24.318Z,french_446.wav,0,poule,550,55,4,5,français,m,12,1.14141667,-67.28651827,0.43693886
5f90c32f69122f1cebd1cc0b,12,0,2024-02-28T16:04:24.318Z,french_317.wav,0,pull,1136,55,4,5,français,m,0,0.0,40.8685805,0.12762298
5f90c32f69122f1cebd1cc0b,12,0,2024-02-28T16:04:24.318Z,french_317.wav,0,pull,1136,55,4,5,français,m,1,0.1,-18.25010816,0.46117381
5f90c32f69122f1cebd1cc0b,12,0,2024-02-28T16:04:24.318Z,french_317.wav,0,pull,1136,55,4,5,français,m,2,0.2,21.38431057,0.51489794
5f90c32f69122f1cebd1cc0b,12,0,2024-02-28T16:04:24.318Z,french_317.wav,0,pull,1136,55,4,5,français,m,3,0.3,95.9205375,0.84411481
5f90c32f69122f1cebd1cc0b,12,0,2024-02-28T16:04:24.318Z,french_317.wav,0,pull,1136,55,4,5,français,m,4,0.4,38.32089871,0.32765242
5f90c32f69122f1cebd1cc0b,12,0,2024-02-28T16:04:24.318Z,french_317.wav,0,pull,1136,55,4,5,français,m,5,0.5,-21.23529277,0.79138261
5f90c32f69122f1cebd1cc0b,12,0,2024-02-28T16:04:24.318Z,french_317.wav,0,pull,1136,55,4,5,français,m,6,0.6,77.91728969,0.47375235
5f90c32f69122f1cebd1cc0b,12,0,2024-02-28T16:04:24.318Z,french_317.wav,0,pull,1136,55,4,5,français,m,7,0.7,80.74208796,0.7422914
5f90c32f69122f1cebd1cc0b,12,0,2024-02-28T16:04:24.318Z,french_317.wav,0,pull,1136,55,4,5,français,m,8,0.8,7.4329056,0.34355832
5f90c32f69122f1cebd1cc0b,12,0,2024-02-28T16:04:24.318Z,french_317.wav,0,pull,1136,55,4,5,français,m,9,0.9,43.55624299,0.04625658
5f90c32f69122f1cebd1cc0b,12,0,2024-02-28T16:04:24.318Z,french_317.wav,0,pull,1136,55,4,5,français,m,10,1.0,-3.0789023,1.28889799
5f90c32f69122f1cebd1cc0b,12,0,2024-02-28T16:04:24.318Z,french_317.wav,0,pull,1136,55,4,5,français,m,11,1.1,53.49310135,1.94514932
5f90c32f69122f1cebd1cc0b,12,0,2024-02-28T16:04:24.318Z,french_317.wav,0,pull,1136,55,4,5,français,m,12,1.14141667,20.73152809,0.29763753
5f90c32f69122f1cebd1cc0b,13,0,2024-02-28T16:04:24.318Z,french_876.wav,0,poule,748,55,4,5,français,m,0,0.0,21.13117741,1.19375936
5f90c32f69122f1cebd1cc0b,13,0,2024-02-28T16:04:24.318Z,french_876.wav,0,poule,748,55,4,5,français,m,1,0.1,37.65514383,1.40646894
5f90c32f69122f1cebd1cc0b,13,0,2024-02-28T16:04:24.318Z,french_876.wav,0,poule,748,55,4,5,français,m,2,0.2,77.47900611,0.04935251
5f90c32f69122f1cebd1cc0b,13,0,2024-02-28T16:04:24.318Z,french_876.wav,0,poule,748,55,4,5,français,m,3,0.3,23.67401502,1.0742513
5f90c32f69122f1cebd1cc0b,13,0,2024-02-28T16:04:24.318Z,french_876.wav,0,poule,748,55,4,5,français,m,4,0.4,25.04537318,1.62827347
5f90c32f69122f1cebd1cc0b,13,0,2024-02-28T16:04:24.318Z,french_876.wav,0,poule,748,55,4,5,français,m,5,0.5,-67.87681092,1.21583267
5f90c32f69122f1cebd1cc0b,13,0,2024-02-28T16:04:24.318Z,french_876.wav,0,poule,748,55,4,5,français,m,6,0.6,-20.64301187,0.70254993
5f90c32f69122f1cebd1cc0b,13,0,2024-02-28T16:04:24.318Z,french_876.wav,0,poule,748,55,4,5,français,m,7,0.7,-7.95663064,1.52033335
5f90c32f69122f1cebd1cc0b,13,0,2024-02-28T16:04:24.318Z,french_876.wav,0,poule,748,55,4,5,français,m,8,0.8,76.77399723,0.43483752
5f90c32f69122f1cebd1cc0b,13,0,2024-02-28T16:04:24.318Z,french_876.wav,0,poule,748,55,4,5,français,m,9,0.9,-71.01793875,1.04373837
5f90c32f69122f1cebd1cc0b,13,0,2024-02-28T16:04:24.318Z,french_876.wav,0,poule,748,55,4,5,français,m,10,1.0,-2.24558783,0.6539037
5f90c32f69122f1cebd1cc0b,13,0,2024-02-28T16:04:24.318Z,french_876.wav,0,poule,748,55,4,5,français,m,11,1.1,-93.03998857,0.22502356
5f90c32f69122f1cebd1cc0b,13,0,2024-02-28T16:04:24.318Z,french_876.wav,0,poule,748,55,4,5,français,m,12,1.14141667,65.30869521,1.53054572
5f90c32f69122f1cebd1cc0b,14,0,2024-02-28T16:04:24.318Z,french_678.wav,0,pull,698,55,4,5,français,m,0,0.0,24.19483128,0.81436077
5f90c32f69122f1cebd1cc0b,14,0,2024-02-28T16:04:24.318Z,french_678.wav,0,pull,698,55,4,5,français,m,1,0.1,-47.51642543,1.1125399
5f90c32f69122f1cebd1cc0b,14,0,2024-02-28T16:04:24.318Z,french_678.wav,0,pull,698,55,4,5,français,m,2,0.2,-3.91811007,1.61070048
5f90c32f69122f1cebd1cc0b,14,0,2024-02-28T16:04:24.318Z,french_678.wav,0,pull,698,55,4,5,français,m,3,0.3,32.18517105,1.15077733
5f90c32f69122f1cebd1cc0b,14,0,2024-02-28T16:04:24.318Z,french_678.wav,0,pull,698,55,4,5,français,m,4,0.4,-21.87097974,1.20781999
5f90c32f69122f1cebd1cc0b,14,0,2024-02-28T16:04:24.318Z,french_678.wav,0,pull,698,55,4,5,français,m,5,0.5,28.51645426,0.74457904
5f90c32f69122f1cebd1cc0b,14,0,2024-02-28T16:04:24.318Z,french_678.wav,0,pull,698,55,4,5,français,m,6,0.6,52.47804835,1.7292018
5f90c32f69122f1cebd1cc0b,14,0,2024-02-28T16:04:24.318Z,french_678.wav,0,pull,698,55,4,5,français,m,7,0.7,10.55383211,1.1823552
5f90c32f69122f1cebd1cc0b,14,0,2024-02-28T16:04:24.318Z,french_678.wav,0,pull,698,55,4,5,français,m,8,0.8,89.68033024,1.55182719
5f90c32f69122f1cebd1cc0b,14,0,2024-02-28T16:04:24.318Z,french_678.wav,0,pull,698,55,4,5,français,m,9,0.9,-20.04322085,0.17890882
5f90c32f69122f1cebd1cc0b,14,0,2024-02-28T16:04:24.318Z,french_678.wav,0,pull,698,55,4,5,français,m,10,1.0,-64.98612207,0.04333149
5f90c32f69122f1cebd1cc0b,14,0,2024-02-28T16:04:24.318Z,french_678.wav,0,pull,698,55,4,5,français,m,11,1.1,75.98214859,1.23856993
5f90c32f69122f1cebd1cc0b,14,0,2024-02-28T16:04:24.318Z,french_678.wav,0,pull,698,55,4,5,français,m,12,1.14141667,82.29835908,1.33756429
5f90c32f69122f1cebd1cc0b,15,0,2024-02-28T16:04:24.318Z,french_962.wav,0,poule,588,55,4,5,français,m,0,0.0,30.35154831,1.38256517
5f90c32f69122f1cebd1cc0b,15,0,2024-02-28T16:04:24.318Z,french_962.wav,0,poule,588,55,4,5,français,m,1,0.1,-61.36286216,0.02564806
5f90c32f69122f1cebd1cc0b,15,0,2024-02-28T16:04:24.318Z,french_962.wav,0,poule,588,55,4,5,français,m,2,0.2,8.08216805,1.12052675
5f90c32f69122f1cebd1cc0b,15,0,2024-02-28T16:04:24.318Z,french_962.wav,0,poule,588,55,4,5,français,m,3,0.3,68.07284927,1.71136238
5f90c32f69122f1cebd1cc0b,15,0,2024-02-28T16:04:24.318Z,french_962.wav,0,poule,588,55,4,5,français,m,4,0.4,99.23165684,1.12888991
5f90c32f69122f1cebd1cc0b,15,0,2024-02-28T16:04:24.318Z,french_962.wav,0,poule,588,55,4,5,français,m,5,0.5,-4.09468681,0.85314867
5f90c32f69122f1cebd1cc0b,15,0,2024-02-28T16:04:24.318Z,french_962.wav,0,poule,588,55,4,5,français,m,6,0.6,-43.06547604,0.0118046
5f90c32f69122f1cebd1cc0b,15,0,2024-02-28T16:04:24.318Z,french_962.wav,0,poule,588,55,4,5,français,m,7,0.7,-35.97895548,1.27173176
5f90c32f69122f1cebd1cc0b,15,0,2024-02-28T16:04:24.318Z,french_962.wav,0,poule,588,55,4,5,français,m,8,0.8,65.52039876,0.70027024
5f90c32f69122f1cebd1cc0b,15,0,2024-02-28T16:04:24.318Z,french_962.wav,0,poule,588,55,4,5,français,m,9,0.9,-20.75006378,0.79948638
5f90c32f69122f1cebd1cc0b,15,0,2024-02-28T16:04:24.318Z,french_962.wav,0,poule,588,55,4,5,français,m,10,1.0,45.88316759,0.6951297
5f90c32f69122f1cebd1cc0b,15,0,2024-02-28T16:04:24.318Z,french_962.wav,0,poule,588,55,4,5,français,m,11,1.1,41.80740802,0.43989304
5f90c32f69122f1cebd1cc0b,15,0,2024-02-28T16:04:24.318Z,french_962.wav,0,poule,588,55,4,5,français,m,12,1.14141667,18.01868022,0.96696935
5f90c32f69122f1cebd1cc0b,16,0,2024-02-28T16:04:24.318Z,french_851.wav,0,pull,1062,55,4,5,français,m,0,0.0,-20.43320762,0.66016838
5f90c32f69122f1cebd1cc0b,16,0,2024-02-28T16:04:24.318Z,french_851.wav,0,pull,1062,55,4,5,français,m,1,0.1,60.62921103,0.93704057
5f90c32f69122f1cebd1cc0b,16,0,2024-02-28T16:04:24.318Z,french_851.wav,0,pull,1062,55,4,5,français,m,2,0.2,-69.4758562,0.40844528
5f90c32f69122f1cebd1cc0b,16,0,2024-02-28T16:04:24.318Z,french_851.wav,0,pull,1062,55,4,5,français,m,3,0.3,99.68608968,1.49162955
5f90c32f69122f1cebd1cc0b,16,0,2024-02-28T16:04:24.318Z,french_851.wav,0,pull,1062,55,4,5,français,m,4,0.4,52.60808316,0.63347234
5f90c32f69122f1cebd1cc0b,16,0,2024-02-28T16:04:24.318Z,french_851.wav,0,pull,1062,55,4,5,français,m,5,0.5,82.00432386,0.2494998
5f90c32f69122f1cebd1cc0b,16,0,2024-02-28T16:04:24.318Z,french_851.wav,0,pull,1062,55,4,5,français,m,6,0.6,-29.12456254,0.63171599
5f90c32f69122f1cebd1cc0b,16,0,2024-02-28T16:04:24.318Z,french_851.wav,0,pull,1062,55,4,5,français,m,7,0.7,-55.27967683,0.50436253
5f90c32f69122f1cebd1cc0b,16,0,2024-02-28T16:04:24.318Z,french_851.wav,0,pull,1062,55,4,5,français,m,8,0.8,15.90179394,1.51392072
5f90c32f69122f1cebd1cc0b,16,0,2024-02-28T16:04:24.318Z,french_851.wav,0,pull,1062,55,4,5,français,m,9,0.9,34.1769329,0.06484652
5f90c32f69122f1cebd1cc0b,16,0,2024-02-28T16:04:24.318Z,french_851.wav,0,pull,1062,55,4,5,français,m,10,1.0,72.64427384,0.08572939
5f90c32f69122f1cebd1cc0b,16,0,2024-02-28T16:04:24.318Z,french_851.wav,0,pull,1062,55,4,5,français,m,11,1.1,81.38750215,0.38713991
5f90c32f69122f1cebd1cc0b,16,0,2024-02-28T16:04:24.318Z,french_851.wav,0,pull,1062,55,4,5,français,m,12,1.14141667,96.27916325,0.0705022
5f90c32f69122f1cebd1cc0b,17,0,2024-02-28T16:04:24.318Z,french_833.wav,0,pull,1287,55,4,5,français,m,0,0.0,-22.64377916,0.41211545
5f90c32f69122f1cebd1cc0b,17,0,2024-02-28T16:04:24.318Z,french_833.wav,0,pull,1287,55,4,5,français,m,1,0.1,39.23109032,1.22030284
5f90c32f69122f1cebd1cc0b,17,0,2024-02-28T16:04:24.318Z,french_833.wav,0,pull,1287,55,4,5,français,m,2,0.2,59.98257397,1.60836668
5f90c32f69122f1cebd1cc0b,17,0,2024-02-28T16:04:24.318Z,french_833.wav,0,pull,1287,55,4,5,français,m,3,0.3,-65.49669768,0.84423089
5f90c32f69122f1cebd1cc0b,17,0,2024-02-28T16:04:24.318Z,french_833.wav,0,pull,1287,55,4,5,français,m,4,0.4,95.44390213,0.37549497
5f90c32f69122f1cebd1cc0b,17,0,2024-02-28T16:04:24.318Z,french_833.wav,0,pull,1287,55,4,5,français,m,5,0.5,16.36680149,0.89903376
5f90c32f69122f1cebd1cc0b,17,0,2024-02-28T16:04:24.318Z,french_833.wav,0,pull,1287,55,4,5,français,m,6,0.6,-95.74603826,1.16761525
5f90c32f69122f1cebd1cc0b,17,0,2024-02-28T16:04:24.318Z,french_833.wav,0,pull,1287,55,4,5,français,m,7,0.7,6.50870015,0.92946369
5f90c32f69122f1cebd1cc0b,17,0,2024-02-28T16:04:24.318Z,french_833.wav,0,pull,1287,55,4,5,français,m,8,0.8,55.04487349,0.59809775
5f90c32f69122f1cebd1cc0b,17,0,2024-02-28T16:04:24.318Z,french_833.wav,0,pull,1287,55,4,5,français,m,9,0.9,83.33960194,0.0823061
5f90c32f69122f1cebd1cc0b,17,0,2024-02-28T16:04:24.318Z,french_833.wav,0,pull,1287,55,4,5,français,m,10,1.0,20.98555864,0.9055233
5f90c32f69122f1cebd1cc0b,17,0,2024-02-28T16:04:24.318Z,french_833.wav,0,pull,1287,55,4,5,français,m,11,1.1,-86.19858113,0.76109733
5f90c32f69122f1cebd1cc0b,17,0,2024-02-28T16:04:24.318Z,french_833.wav,0,pull,1287,55,4,5,français,m,12,1.14141667,-62.40303258,0.74455165
5f90c32f69122f1cebd1cc0b,18,0,2024-02-28T16:04:24.318Z,french_616.wav,0,poule,1031,55,4,5,français,m,0,0.0,-67.48494332,0.38346383
5f90c32f69122f1cebd1cc0b,18,0,2024-02-28T16:04:24.318Z,french_616.wav,0,poule,1031,55,4,5,français,m,1,0.1,39.05251255,1.88348097
5f90c32f69122f1cebd1cc0b,18,0,2024-02-28T16:04:24.318Z,french_616.wav,0,poule,1031,55,4,5,français,m,2,0.2,34.40625214,0.11056124
5f90c32f69122f1cebd1cc0b,18,0,2024-02-28T16:04:24.318Z,french_616.wav,0,poule,1031,55,4,5,français,m,3,0.3,73.22864181,0.82898982
5f90c32f69122f1cebd1cc0b,18,0,2024-02-28T16:04:24.318Z,french_616.wav,0,poule,1031,55,4,5,français,m,4,0.4,-39.34822457,0.73681928
5f90c32f69122f1cebd1cc0b,18,0,2024-02-28T16:04:24.318Z,french_616.wav,0,poule,1031,55,4,5,français,m,5,0.5,17.40717288,1.46703967
5f90c32f69122f1cebd1cc0b,18,0,2024-02-28T16:04:24.318Z,french_616.wav,0,poule,1031,55,4,5,français,m,6,0.6,-91.49388448,0.99574773
5f90c32f69122f1cebd1cc0b,18,0,2024-02-28T16:04:24.318Z,french_616.wav,0,poule,1031,55,4,5,français,m,7,0.7,34.60557006,0.97495542
5f90c32f69122f1cebd1cc0b,18,0,2024-02-28T16:04:24.318Z,french_616.wav,0,poule,1031,55,4,5,français,m,8,0.8,-77.63461513,1.89201741
5f90c32f69122f1cebd1cc0b,18,0,2024-02-28T16:04:24.318Z,french_616.wav,0,poule,1031,55,4,5,français,m,9,0.9,48.65476011,0.33100727
5f90c32f69122f1cebd1cc0b,18,0,2024-02-28T16:04:24.318Z,french_616.wav,0,poule,1031,55,4,5,français,m,10,1.0,-26.83527565,1.03515822
5f90c32f69122f1cebd1cc0b,18,0,2024-02-28T16:04:24.318Z,french_616.wav,0,poule,1031,55,4,5,français,m,11,1.1,-26.92771749,0.77199145
5f90c32f69122f1cebd1cc0b,18,0,2024-02-28T16:04:24.318Z,french_616.wav,0,poule,1031,55,4,5,français,m,12,1.14141667,-77.10207996,1.39029364
5f90c32f69122f1cebd1cc0b,19,0,2024-02-28T16:04:24.318Z,french_318.wav,0,poule,516,55,4,5,français,m,0,0.0,-31.42676596,1.63103424
5f90c32f69122f1cebd1cc0b,19,0,2024-02-28T16:04:24.318Z,french_318.wav,0,poule,516,55,4,5,français,m,1,0.1,-45.69666133,1.93624975
5f90c32f69122f1cebd1cc0b,19,0,2024-02-28T16:04:24.318Z,french_318.wav,0,poule,516,55,4,5,français,m,2,0.2,42.60143121,0.81258394
5f90c32f69122f1cebd1cc0b,19,0,2024-02-28T16:04:24.318Z,french_318.wav,0,poule,516,55,4,5,français,m,3,0.3,-87.89208815,0.40497325
5f90c32f69122f1cebd1cc0b,19,0,2024-02-28T16:04:24.318Z,french_318.wav,0,poule,516,55,4,5,français,m,4,0.4,-61.68151552,0.5117739
5f90c32f69122f1cebd1cc0b,19,0,2024-02-28T16:04:24.318Z,french_318.wav,0,poule,516,55,4,5,français,m,5,0.5,80.55619607,0.85325217
5f90c32f69122f1cebd1cc0b,19,0,2024-02-28T16:04:24.318Z,french_318.wav,0,poule,516,55,4,5,français,m,6,0.6,-41.8589192,0.11882034
5f90c32f69122f1cebd1cc0b,19,0,2024-02-28T16:04:24.318Z,french_318.wav,0,poule,516,55,4,5,français,m,7,0.7,-13.86846959,0.48269689
5f90c32f69122f1cebd1cc0b,19,0,2024-02-28T16:04:24.318Z,french_318.wav,0,poule,516,55,4,5,français,m,8,0.8,-94.6811558,1.96435637
5f90c32f69122f1cebd1cc0b,19,0,2024-02-28T16:04:24.318Z,french_318.wav,0,poule,516,55,4,5,français,m,9,0.9,-29.32140474,0.25977776
5f90c32f69122f1cebd1cc0b,19,0,2024-02-28T16:04:24.318Z,french_318.wav,0,poule,516,55,4,5,français,m,10,1.0,74.05579859,1.52953043
5f90c32f69122f1cebd1cc0b,19,0,2024-02-28T16:04:24.318Z,french_318.wav,0,poule,516,55,4,5,français,m,11,1.1,-43.44744043,1.50332708
5f90c32f69122f1cebd1cc0b,19,0,2024-02-28T16:04:24.318Z,french_318.wav,0,poule,516,55,4,5,français,m,12,1.14141667,44.84196134,0.84311706
5f90c32f69122f1cebd1cc0b,20,0,2024-02-28T16:04:24.318Z,french_780.wav,0,poule,1459,55,4,5,français,m,0,0.0,1.6361827,0.91275893
5f90c32f69122f1cebd1cc0b,20,0,2024-02-28T16:04:24.318Z,french_780.wav,0,poule,1459,55,4,5,français,m,1,0.1,65.3259988,0.6923682
5f90c32f69122f1cebd1cc0b,20,0,2024-02-28T16:04:24.318Z,french_780.wav,0,poule,1459,55,4,5,français,m,2,0.2,-9.10284964,0.91492024
5f90c32f69122f1cebd1cc0b,20,0,2024-02-28T16:04:24.318Z,french_780.wav,0,poule,1459,55,4,5,français,m,3,0.3,71.37936618,0.74961563
5f90c32f69122f1cebd1cc0b,20,0,2024-02-28T16:04:24.318Z,french_780.wav,0,poule,1459,55,4,5,français,m,4,0.4,-61.83005099,1.83666104
5f90c32f69122f1cebd1cc0b,20,0,2024-02-28T16:04:24.318Z,french_780.wav,0,poule,1459,55,4,5,français,m,5,0.5,64.1925332,1.59808961
5f90c32f69122f1cebd1cc0b,20,0,2024-02-28T16:04:24.318Z,french_780.wav,0,poule,1459,55,4,5,français,m,6,0.6,-73.78104882,0.06025733
5f90c32f69122f1cebd1cc0b,20,0,2024-02-28T16:04:24.318Z,french_780.wav,0,poule,1459,55,4,5,français,m,7,0.7,-75.04579524,0.97352889
5f90c32f69122f1cebd1cc0b,20,0,2024-02-28T16:04:24.318Z,french_780.wav,0,poule,1459,55,4,5,français,m,8,0.8,94.52941368,0.3343283
5f90c32f69122f1cebd1cc0b,20,0,2024-02-28T16:04:24.318Z,french_780.wav,0,poule,1459,55,4,5,français,m,9,0.9,-40.24958263,1.19408747
5f90c32f69122f1cebd1cc0b,20,0,2024-02-28T16:04:24.318Z,french_780.wav,0,poule,1459,55,4,5,français,m,10,1.0,70.56248905,1.41158065
5f90c32f69122f1cebd1cc0b,20,0,2024-02-28T16:04:24.318Z,french_780.wav,0,poule,1459,55,4,5,français,m,11,1.1,-94.2422388,0.89941942
5f90c32f69122f1cebd1cc0b,20,0,2024-02-28T16:04:24.318Z,french_780.wav,0,poule,1459,55,4,5,français,m,12,1.14141667,38.81083767,0.47183897
5f90c32f69122f1cebd1cc0b,21,0,2024-02-28T16:04:24.318Z,french_861.wav,0,poule,451,55,4,5,français,m,0,0.0,-29.59207834,1.26213784
5f90c32f69122f1cebd1cc0b,21,0,2024-02-28T16:04:24.318Z,french_861.wav,0,poule,451,55,4,5,français,m,1,0.1,-3.20070046,1.09688129
5f90c32f69122f1cebd1cc0b,21,0,2024-02-28T16:04:24.318Z,french_861.wav,0,poule,451,55,4,5,français,m,2,0.2,-58.32537362,1.67288948
5f90c32f69122f1cebd1cc0b,21,0,2024-02-28T16:04:24.318Z,french_861.wav,0,poule,451,55,4,5,français,m,3,0.3,-24.52531727,1.55651392
5f90c32f69122f1cebd1cc0b,21,0,2024-02-28T16:04:24.318Z,french_861.wav,0,poule,451,55,4,5,français,m,4,0.4,4.47991904,0.60089382
5f90c32f69122f1cebd1cc0b,21,0,2024-02-28T16:04:24.318Z,french_861.wav,0,poule,451,55,4,5,français,m,5,0.5,77.73095921,1.00142535
5f90c32f69122f1cebd1cc0b,21,0,2024-02-28T16:04:24.318Z,french_861.wav,0,poule,451,55,4,5,français,m,6,0.6,-9.72754814,1.64754174
5f90c32f69122f1cebd1cc0b,21,0,2024-02-28T16:04:24.318Z,french_861.wav,0,poule,451,55,4,5,français,m,7,0.7,78.69297703,1.0190621
5f90c32f69122f1cebd1cc0b,21,0,2024-02-28T16:04:24.318Z,french_861.wav,0,poule,451,55,4,5,français,m,8,0.8,89.59895789,1.92978713
5f90c32f69122f1cebd1cc0b,21,0,2024-02-28T16:04:24.318Z,french_861.wav,0,poule,451,55,4,5,français,m,9,0.9,-74.88966418,1.64032652
5f90c32f69122f1cebd1cc0b,21,0,2024-02-28T16:04:24.318Z,french_861.wav,0,poule,451,55,4,5,français,m,10,1.0,-8.41302054,1.1947634
5f90c32f69122f1cebd1cc0b,21,0,2024-02-28T16:04:24.318Z,french_861.wav,0,poule,451,55,4,5,français,m,11,1.1,-83.1329049,1.60781283
5f90c32f69122f1cebd1cc0b,21,0,2024-02-28T16:04:24.318Z,french_861.wav,0,poule,451,55,4,5,français,m,12,1.14141667,45.5691638,0.53617129
5f90c32f69122f1cebd1cc0b,22,0,2024-02-28T16:04:24.318Z,french_328.wav,0,poule,648,55,4,5,français,m,0,0.0,70.39281279,1.11868874
5f90c32f69122f1cebd1cc0b,22,0,2024-02-28T16:04:24.318Z,french_328.wav,0,poule,648,55,4,5,français,m,1,0.1,-62.4365066,1.7831523
5f90c32f69122f1cebd1cc0b,22,0,2024-02-28T16:04:24.318Z,french_328.wav,0,poule,648,55,4,5,français,m,2,0.2,74.18889281,0.37694606
5f90c32f69122f1cebd1cc0b,22,0,2024-02-28T16:04:24.318Z,french_328.wav,0,poule,648,55,4,5,français,m,3,0.3,6.08253947,0.30173154
5f90c32f69122f1cebd1cc0b,22,0,2024-02-28T16:04:24.318Z,french_328.wav,0,poule,648,55,4,5,français,m,4,0.4,14.94897536,1.08259473
5f90c32f69122f1cebd1cc0b,22,0,2024-02-28T16:04:24.318Z,french_328.wav,0,poule,648,55,4,5,français,m,5,0.5,-45.91689169,0.83879107
5f90c32f69122f1cebd1cc0b,22,0,2024-02-28T16:04:24.318Z,french_328.wav,0,poule,648,55,4,5,français,m,6,0.6,51.00614237,0.64036349
5f90c32f69122f1cebd1cc0b,22,0,2024-02-28T16:04:24.318Z,french_328.wav,0,poule,648,55,4,5,français,m,7,0.7,-68.53703239,1.67880376
5f90c32f69122f1cebd1cc0b,22,0,2024-02-28T16:04:24.318Z,french_328.wav,0,poule,648,55,4,5,français,m,8,0.8,93.58528924,1.29419858
5f90c32f69122f1cebd1cc0b,22,0,2024-02-28T16:04:24.318Z,french_328.wav,0,poule,648,55,4,5,français,m,9,0.9,51.46046525,0.63702013
5f90c32f69122f1cebd1cc0b,22,0,2024-02-28T16:04:24.318Z,french_328.wav,0,poule,648,55,4,5,français,m,10,1.0,-77.58470521,0.88742502
5f90c32f69122f1cebd1cc0b,22,0,2024-02-28T16:04:24.318Z,french_328.wav,0,poule,648,55,4,5,français,m,11,1.1,-72.45732105,0.08384723
5f90c32f69122f1cebd1cc0b,22,0,2024-02-28T16:04:24.318Z,french_328.wav,0,poule,648,55,4,5,français,m,12,1.14141667,-40.05577785,0.80959776
5f90c32f69122f1cebd1cc0b,23,0,2024-02-28T16:04:24.318Z,french_343.wav,0,poule,1018,55,4,5,français,m,0,0.0,55.30820306,1.58034267
5f90c32f69122f1cebd1cc0b,23,0,2024-02-28T16:04:24.318Z,french_343.wav,0,poule,1018,55,4,5,français,m,1,0.1,-11.48156173,1.0596038
5f90c32f69122f1cebd1cc0b,23,0,2024-02-28T16:04:24.318Z,french_343.wav,0,poule,1018,55,4,5,français,m,2,0.2,-61.33934281,1.28163155
5f90c32f69122f1cebd1cc0b,23,0,2024-02-28T16:04:24.318Z,french_343.wav,0,poule,1018,55,4,5,français,m,3,0.3,-78.79796184,0.20032202
5f90c32f69122f1cebd1cc0b,23,0,2024-02-28T16:04:24.318Z,french_343.wav,0,poule,1018,55,4,5,français,m,4,0.4,-3.55277636,1.05316587
5f90c32f69122f1cebd1cc0b,23,0,2024-02-28T16:04:24.318Z,french_343.wav,0,poule,1018,55,4,5,français,m,5,0.5,40.8675343,0.79348198
5f90c32f69122f1cebd1cc0b,23,0,2024-02-28T16:04:24.318Z,french_343.wav,0,poule,1018,55,4,5,français,m,6,0.6,88.78635161,0.11297715
5f90c32f69122f1cebd1cc0b,23,0,2024-02-28T16:04:24.318Z,french_343.wav,0,poule,1018,55,4,5,français,m,7,0.7,-70.07472114,1.23835329
5f90c32f69122f1cebd1cc0b,23,0,2024-02-28T16:04:24.318Z,french_343.wav,0,poule,1018,55,4,5,français,m,8,0.8,-79.01069817,1.37036254
5f90c32f69122f1cebd1cc0b,23,0,2024-02-28T16:04:24.318Z,french_343.wav,0,poule,1018,55,4,5,français,m,9,0.9,-38.36075722,1.08523433
5f90c32f69122f1cebd1cc0b,23,0,2024-02-28T16:04:24.318Z,french_343.wav,0,poule,1018,55,4,5,français,m,10,1.0,-74.7385536,0.49176562
5f90c32f69122f1cebd1cc0b,23,0,2024-02-28T16:04:24.318Z,french_343.wav,0,poule,1018,55,4,5,français,m,11,1.1,67.32009961,1.89620137
5f90c32f69122f1cebd1cc0b,23,0,2024-02-28T16:04:24.318Z,french_343.wav,0,poule,1018,55,4,5,français,m,12,1.14141667,18.80940086,0.66544547
5f90c32f69122f1cebd1cc0b,24,0,2024-02-28T16:04:24.318Z,french_67.wav,0,poule,883,55,4,5,français,m,0,0.0,-8.80419895,1.71520909
5f90c32f69122f1cebd1cc0b,24,0,2024-02-28T16:04:24.318Z,french_67.wav,0,poule,883,55,4,5,français,m,1,0.1,-89.09971713,1.65194622
5f90c32f69122f1cebd1cc0b,24,0,2024-02-28T16:04:24.318Z,french_67.wav,0,poule,883,55,4,5,français,m,2,0.2,52.16664129,1.05692719
5f90c32f69122f1cebd1cc0b,24,0,2024-02-28T16:04:24.318Z,french_67.wav,0,poule,883,55,4,5,français,m,3,0.3,75.50765895,0.39640522
5f90c32f69122f1cebd1cc0b,24,0,2024-02-28T16:04:24.318Z,french_67.wav,0,poule,883,55,4,5,français,m,4,0.4,-50.4048012,1.79941734
5f90c32f69122f1cebd1cc0b,24,0,2024-02-28T16:04:24.318Z,french_67.wav,0,poule,883,55,4,5,français,m,5,0.5,2.92186318,1.20893726
5f90c32f69122f1cebd1cc0b,24,0,2024-02-28T16:04:24.318Z,french_67.wav,0,poule,883,55,4,5,français,m,6,0.6,-2.99274005,1.83305713
5f90c32f69122f1cebd1cc0b,24,0,2024-02-28T16:04:24.318Z,french_67.wav,0,poule,883,55,4,5,français,m,7,0.7,-60.68394197,0.33461142
5f90c32f69122f1cebd1cc0b,24,0,2024-02-28T16:04:24.318Z,french_67.wav,0,poule,883,55,4,5,français,m,8,0.8,84.35232492,0.31328661
5f90c32f69122f1cebd1cc0b,24,0,2024-02-28T16:04:24.318Z,french_67.wav,0,poule,883,55,4,5,français,m,9,0.9,-25.72248864,0.81923703
5f90c32f69122f1cebd1cc0b,24,0,2024-02-28T16:04:24.318Z,french_67.wav,0,poule,883,55,4,5,français,m,10,1.0,11.86313501,0.47881167
5f90c32f69122f1cebd1cc0b,24,0,2024-02-28T16:04:24.318Z,french_67.wav,0,poule,883,55,4,5,français,m,11,1.1,19.03354401,1.95724467
5f90c32f69122f1cebd1cc0b,24,0,2024-02-28T16:04:24.318Z,french_67.wav,0,poule,883,55,4,5,français,m,12,1.14141667,81.65120736,0.25508289
5f90c32f69122f1cebd1cc0b,25,0,2024-02-28T16:04:24.318Z,french_122.wav,0,poule,1175,55,4,5,français,m,0,0.0,-33.06985715,0.6620336
5f90c32f69122f1cebd1cc0b,25,0,2024-02-28T16:04:24.318Z,french_122.wav,0,poule,1175,55,4,5,français,m,1,0.1,13.32039916,0.17288906
5f90c32f69122f1cebd1cc0b,25,0,2024-02-28T16:04:24.318Z,french_122.wav,0,poule,1175,55,4,5,français,m,2,0.2,-35.94768751,0.95336402
5f90c32f69122f1cebd1cc0b,25,0,2024-02-28T16:04:24.318Z,french_122.wav,0,poule,1175,55,4,5,français,m,3,0.3,-81.35154794,0.61323124
5f90c32f69122f1cebd1cc0b,25,0,2024-02-28T16:04:24.318Z,french_122.wav,0,poule,1175,55,4,5,français,m,4,0.4,-26.61254554,1.26500906
5f90c32f69122f1cebd1cc0b,25,0,2024-02-28T16:04:24.318Z,french_122.wav,0,poule,1175,55,4,5,français,m,5,0.5,-70.60443518,0.87969802
5f90c32f69122f1cebd1cc0b,25,0,2024-02-28T16:04:24.318Z,french_122.wav,0,poule,1175,55,4,5,français,m,6,0.6,66.70275378,1.46043964
5f90c32f69122f1cebd1cc0b,25,0,2024-02-28T16:04:24.318Z,french_122.wav,0,poule,1175,55,4,5,français,m,7,0.7,85.84881293,1.30832464
5f90c32f69122f1cebd1cc0b,25,0,2024-02-28T16:04:24.318Z,french_122.wav,0,poule,1175,55,4,5,français,m,8,0.8,1.30883473,1.14771565
5f90c32f69122f1cebd1cc0b,25,0,2024-02-28T16:04:24.318Z,french_122.wav,0,poule,1175,55,4,5,français,m,9,0.9,93.34161436,1.19803017
5f90c32f69122f1cebd1cc0b,25,0,2024-02-28T16:04:24.318Z,french_122.wav,0,poule,1175,55,4,5,français,m,10,1.0,-35.43272835,1.27700442
5f90c32f69122f1cebd1cc0b,25,0,2024-02-28T16:04:24.318Z,french_122.wav,0,poule,1175,55,4,5,français,m,11,1.1,34.59442217,1.64776975
5f90c32f69122f1cebd1cc0b,25,0,2024-02-28T16:04:24.318Z,french_122.wav,0,poule,1175,55,4,5,français,m,12,1.14141667,-52.05568486,1.36305655
5f90c32f69122f1cebd1cc0b,26,0,2024-02-28T16:04:24.318Z,french_112.wav,0,pull,846,55,4,5,français,m,0,0.0,-8.67519004,0.05511238
5f90c32f69122f1cebd1cc0b,26,0,2024-02-28T16:04:24.318Z,french_112.wav,0,pull,846,55,4,5,français,m,1,0.1,92.32686685,0.5303996
5f90c32f69122f1cebd1cc0b,26,0,2024-02-28T16:04:24.318Z,french_112.wav,0,pull,846,55,4,5,français,m,2,0.2,-90.11400299,1.12381403
5f90c32f69122f1cebd1cc0b,26,0,2024-02-28T16:04:24.318Z,french_112.wav,0,pull,846,55,4,5,français,m,3,0.3,-70.26652749,0.96995279
5f90c32f69122f1cebd1cc0b,26,0,2024-02-28T16:04:24.318Z,french_112.wav,0,pull,846,55,4,5,français,m,4,0.4,90.1952046,1.443926
5f90c32f69122f1cebd1cc0b,26,0,2024-02-28T16:04:24.318Z,french_112.wav,0,pull,846,55,4,5,français,m,5,0.5,-18.57411381,0.7152831
5f90c32f69122f1cebd1cc0b,26,0,2024-02-28T16:04:24.318Z,french_112.wav,0,pull,846,55,4,5,français,m,6,0.6,87.02651396,1.98165732
5f90c32f69122f1cebd1cc0b,26,0,2024-02-28T16:04:24.318Z,french_112.wav,0,pull,846,55,4,5,français,m,7,0.7,74.95745067,1.64696502
5f90c32f69122f1cebd1cc0b,26,0,2024-02-28T16:04:24.318Z,french_112.wav,0,pull,846,55,4,5,français,m,8,0.8,-76.86566846,0.33650489
5f90c32f69122f1cebd1cc0b,26,0,2024-02-28T16:04:24.318Z,french_112.wav,0,pull,846,55,4,5,français,m,9,0.9,-17.37300567,0.64053091
5f90c32f69122f1cebd1cc0b,26,0,2024-02-28T16:04:24.318Z,french_112.wav,0,pull,846,55,4,5,français,m,10,1.0,66.02082776,1.69815657
5f90c32f69122f1cebd1cc0b,26,0,2024-02-28T16:04:24.318Z,french_112.wav,0,pull,846,55,4,5,français,m,11,1.1,74.04162453,1.28891834
5f90c32f69122f1cebd1cc0b,26,0,2024-02-28T16:04:24.318Z,french_112.wav,0,pull,846,55,4,5,français,m,12,1.14141667,30.79891374,1.86060704
5f90c32f69122f1cebd1cc0b,27,0,2024-02-28T16:04:24.318Z,french_927.wav,0,poule,566,55,4,5,français,m,0,0.0,-46.05593581,0.51738485
5f90c32f69122f1cebd1cc0b,27,0,2024-02-28T16:04:24.318Z,french_927.wav,0,poule,566,55,4,5,français,m,1,0.1,62.22976421,1.31954079
5f90c32f69122f1cebd1cc0b,27,0,2024-02-28T16:04:24.318Z,french_927.wav,0,poule,566,55,4,5,français,m,2,0.2,12.11231465,1.09466444
5f90c32f69122f1cebd1cc0b,27,0,2024-02-28T16:04:24.318Z,french_927.wav,0,poule,566,55,4,5,français,m,3,0.3,-43.66006165,1.10625026
5f90c32f69122f1cebd1cc0b,27,0,2024-02-28T16:04:24.318Z,french_927.wav,0,poule,566,55,4,5,français,m,4,0.4,52.37116658,1.24572865
5f90c32f69122f1cebd1cc0b,27,0,2024-02-28T16:04:24.318Z,french_927.wav,0,poule,566,55,4,5,français,m,5,0.5,-9.37800408,1.13457981
5f90c32f69122f1cebd1cc0b,27,0,2024-02-28T16:04:24.318Z,french_927.wav,0,poule,566,55,4,5,français,m,6,0.6,80.54637955,0.80829687
5f90c32f69122f1cebd1cc0b,27,0,2024-02-28T16:04:24.318Z,french_927.wav,0,poule,566,55,4,5,français,m,7,0.7,-47.54165707,0.51219219
5f90c32f69122f1cebd1cc0b,27,0,2024-02-28T16:04:24.318Z,french_927.wav,0,poule,566,55,4,5,français,m,8,0.8,-4.75137405,0.84788996
5f90c32f69122f1cebd1cc0b,27,0,2024-02-28T16:04:24.318Z,french_927.wav,0,poule,566,55,4,5,français,m,9,0.9,-23.76152457,1.37129048
5f90c32f69122f1cebd1cc0b,27,0,2024-02-28T16:04:24.318Z,french_927.wav,0,poule,566,55,4,5,français,m,10,1.0,99.64582752,0.98680773
5f90c32f69122f1cebd1cc0b,27,0,2024-02-28T16:04:24.318Z,french_927.wav,0,poule,566,55,4,5,français,m,11,1.1,40.942183,1.42160835
5f90c32f69122f1cebd1cc0b,27,0,2024-02-28T16:04:24.318Z,french_927.wav,0,poule,566,55,4,5,français,m,12,1.14141667,87.8168677,1.69417822
5f90c32f69122f1cebd1cc0b,28,0,2024-02-28T16:04:24.318Z,french_170.wav,0,poule,395,55,4,5,français,m,0,0.0,78.4256709,1.56635182
5f90c32f69122f1cebd1cc0b,28,0,2024-02-28T16:04:24.318Z,french_170.wav,0,poule,395,55,4,5,français,m,1,0.1,74.01453231,0.86264396
5f90c32f69122f1cebd1cc0b,28,0,2024-02-28T16:04:24.318Z,french_170.wav,0,poule,395,55,4,5,français,m,2,0.2,-39.88926349,0.54432946
5f90c32f69122f1cebd1cc0b,28,0,2024-02-28T16:04:24.318Z,french_170.wav,0,poule,395,55,4,5,français,m,3,0.3,-19.85923671,0.4724751
5f90c32f69122f1cebd1cc0b,28,0,2024-02-28T16:04:24.318Z,french_170.wav,0,poule,395,55,4,5,français,m,4,0.4,21.90551666,1.46831695
5f90c32f69122f1cebd1cc0b,28,0,2024-02-28T16:04:24.318Z,french_170.wav,0,poule,395,55,4,5,français,m,5,0.5,-33.95377881,1.4701458
5f90c32f69122f1cebd1cc0b,28,0,2024-02-28T16:04:24.318Z,french_170.wav,0,poule,395,55,4,5,français,m,6,0.6,91.63398051,0.88463831
5f90c32f69122f1cebd1cc0b,28,0,2024-02-28T16:04:24.318Z,french_170.wav,0,poule,395,55,4,5,français,m,7,0.7,1.97301371,1.6321868
5f90c32f69122f1cebd1cc0b,28,0,2024-02-28T16:04:24.318Z,french_170.wav,0,poule,395,55,4,5,français,m,8,0.8,23.07565561,0.37326226
5f90c32f69122f1cebd1cc0b,28,0,2024-02-28T16:04:24.318Z,french_170.wav,0,poule,395,55,4,5,français,m,9,0.9,9.25122432,1.17917382
5f90c32f69122f1cebd1cc0b,28,0,2024-02-28T16:04:24.318Z,french_170.wav,0,poule,395,55,4,5,français,m,10,1.0,17.68156944,0.44028457
5f90c32f69122f1cebd1cc0b,28,0,2024-02-28T16:04:24.318Z,french_170.wav,0,poule,395,55,4,5,français,m,11,1.1,21.64263281,1.57885644
5f90c32f69122f1cebd1cc0b,28,0,2024-02-28T16:04:24.318Z,french_170.wav,0,poule,395,55,4,5,français,m,12,1.14141667,23.34976947,0.75646094
5f90c32f69122f1cebd1cc0b,29,0,2024-02-28T16:04:24.318Z,french_131.wav,0,poule,377,55,4,5,français,m,0,0.0,43.89869303,1.60661373
5f90c32f69122f1cebd1cc0b,29,0,2024-02-28T16:04:24.318Z,french_131.wav,0,poule,377,55,4,5,français,m,1,0.1,1.87533794,1.45479188
5f90c32f69122f1cebd1cc0b,29,0,2024-02-28T16:04:24.318Z,french_131.wav,0,poule,377,55,4,5,français,m,2,0.2,22.29443787,0.2596898
5f90c32f69122f1cebd1cc0b,29,0,2024-02-28T16:04:24.318Z,french_131.wav,0,poule,377,55,4,5,français,m,3,0.3,80.0665813,0.92411688
5f90c32f69122f1cebd1cc0b,29,0,2024-02-28T16:04:24.318Z,french_131.wav,0,poule,377,55,4,5,français,m,4,0.4,34.98439119,1.59995731
5f90c32f69122f1cebd1cc0b,29,0,2024-02-28T16:04:24.318Z,french_131.wav,0,poule,377,55,4,5,français,m,5,0.5,-5.43009148,1.70569439
5f90c32f69122f1cebd1cc0b,29,0,2024-02-28T16:04:24.318Z,french_131.wav,0,poule,377,55,4,5,français,m,6,0.6,51.77910051,0.57553958
5f90c32f69122f1cebd1cc0b,29,0,2024-02-28T16:04:24.318Z,french_131.wav,0,poule,377,55,4,5,français,m,7,0.7,16.33164281,0.89044664
5f90c32f69122f1cebd1cc0b,29,0,2024-02-28T16:04:24.318Z,french_131.wav,0,poule,377,55,4,5,français,m,8,0.8,2.69660121,0.56880668
5f90c32f69122f1cebd1cc0b,29,0,2024-02-28T16:04:24.318Z,french_131.wav,0,poule,377,55,4,5,français,m,9,0.9,67.97713521,0.83892608
5f90c32f69122f1cebd1cc0b,29,0,2024-02-28T16:04:24.318Z,french_131.wav,0,poule,377,55,4,5,français,m,10,1.0,-78.89064935,1.1265108
5f90c32f69122f1cebd1cc0b,29,0,2024-02-28T16:04:24.318Z,french_131.wav,0,poule,377,55,4,5,français,m,11,1.1,3.66517483,0.22006075
5f90c32f69122f1cebd1cc0b,29,0,2024-02-28T16:04:24.318Z,french_131.wav,0,poule,377,55,4,5,français,m,12,1.14141667,28.89118946,0.49062162
5f90c32f69122f1cebd1cc0b,30,0,2024-02-28T16:04:24.318Z,french_282.wav,0,pull,863,55,4,5,français,m,0,0.0,28.02282509,1.0912119
5f90c32f69122f1cebd1cc0b,30,0,2024-02-28T16:04:24.318Z,french_282.wav,0,pull,863,55,4,5,français,m,1,0.1,67.2501468,0.20405477
5f90c32f69122f1cebd1cc0b,30,0,2024-02-28T16:04:24.318Z,french_282.wav,0,pull,863,55,4,5,français,m,2,0.2,93.9816164,1.91146091
5f90c32f69122f1cebd1cc0b,30,0,2024-02-28T16:04:24.318Z,french_282.wav,0,pull,863,55,4,5,français,m,3,0.3,-97.54085303,1.80081272
5f90c32f69122f1cebd1cc0b,30,0,2024-02-28T16:04:24.318Z,french_282.wav,0,pull,863,55,4,5,français,m,4,0.4,33.49018191,1.44786669
5f90c32f69122f1cebd1cc0b,30,0,2024-02-28T16:04:24.318Z,french_282.wav,0,pull,863,55,4,5,français,m,5,0.5,17.0509321,1.13344756
5f90c32f69122f1cebd1cc0b,30,0,2024-02-28T16:04:24.318Z,french_282.wav,0,pull,863,55,4,5,français,m,6,0.6,26.45613826,0.31385296
5f90c32f69122f1cebd1cc0b,30,0,2024-02-28T16:04:24.318Z,french_282.wav,0,pull,863,55,4,5,français,m,7,0.7,51.40945909,1.39043822
5f90c32f69122f1cebd1cc0b,30,0,2024-02-28T16:04:24.318Z,french_282.wav,0,pull,863,55,4,5,français,m,8,0.8,17.98116381,0.22424719
5f90c32f69122f1cebd1cc0b,30,0,2024-02-28T16:04:24.318Z,french_282.wav,0,pull,863,55,4,5,français,m,9,0.9,51.09259465,0.50632788
5f90c32f69122f1cebd1cc0b,30,0,2024-02-28T16:04:24.318Z,french_282.wav,0,pull,863,55,4,5,français,m,10,1.0,64.32650722,0.63678076
5f90c32f69122f1cebd1cc0b,30,0,2024-02-28T16:04:24.318Z,french_282.wav,0,pull,863,55,4,5,français,m,11,1.1,85.88377636,1.37629793
5f90c32f69122f1cebd1cc0b,30,0,2024-02-28T16:04:24.318Z,french_282.wav,0,pull,863,55,4,5,français,m,12,1.14141667,-27.47476,1.78255014
5f90c32f69122f1cebd1cc0b,31,0,2024-02-28T16:04:24.318Z,french_983.wav,0,poule,927,55,4,5,français,m,0,0.0,-58.740306,1.29800401
5f90c32f69122f1cebd1cc0b,31,0,2024-02-28T16:04:24.318Z,french_983.wav,0,poule,927,55,4,5,français,m,1,0.1,86.62100381,0.11364498
5f90c32f69122f1cebd1cc0b,31,0,2024-02-28T16:04:24.318Z,french_983.wav,0,poule,927,55,4,5,français,m,2,0.2,72.28686739,1.04246937
5f90c32f69122f1cebd1cc0b,31,0,2024-02-28T16:04:24.318Z,french_983.wav,0,poule,927,55,4,5,français,m,3,0.3,40.58051416,0.31985263
5f90c32f69122f1cebd1cc0b,31,0,2024-02-28T16:04:24.318Z,french_983.wav,0,poule,927,55,4,5,français,m,4,0.4,-24.25700788,0.23068067
5f90c32f69122f1cebd1cc0b,31,0,2024-02-28T16:04:24.318Z,french_983.wav,0,poule,927,55,4,5,français,m,5,0.5,71.71663195,1.2336031
5f90c32f69122f1cebd1cc0b,31,0,2024-02-28T16:04:24.318Z,french_983.wav,0,poule,927,55,4,5,français,m,6,0.6,-12.96137505,1.36252466
5f90c32f69122f1cebd1cc0b,31,0,2024-02-28T16:04:24.318Z,french_983.wav,0,poule,927,55,4,5,français,m,7,0.7,-82.1836976,1.78793687
5f90c32f69122f1cebd1cc0b,31,0,2024-02-28T16:04:24.318Z,french_983.wav,0,poule,927,55,4,5,français,m,8,0.8,-24.9069762,0.590606
5f90c32f69122f1cebd1cc0b,31,0,2024-02-28T16:04:24.318Z,french_983.wav,0,poule,927,55,4,5,français,m,9,0.9,55.25058614,0.99616144
5f90c32f69122f1cebd1cc0b,31,0,2024-02-28T16:04:24.318Z,french_983.wav,0,poule,927,55,4,5,français,m,10,1.0,73.77815743,0.61804154
5f90c32f69122f1cebd1cc0b,31,0,2024-02-28T16:04:24.318Z,french_983.wav,0,poule,927,55,4,5,français,m,11,1.1,32.70068021,1.49661667
5f90c32f69122f1cebd1cc0b,31,0,2024-02-28T16:04:24.318Z,french_983.wav,0,poule,927,55,4,5,français,m,12,1.14141667,-94.39337182,0.91742292
5f90c32f69122f1cebd1cc0b,32,0,2024-02-28T16:04:24.318Z,french_387.wav,0,poule,436,55,4,5,français,m,0,0.0,-24.79004383,0.44030197
5f90c32f69122f1cebd1cc0b,32,0,2024-02-28T16:04:24.318Z,french_387.wav,0,poule,436,55,4,5,français,m,1,0.1,-23.52605858,0.70411981
5f90c32f69122f1cebd1cc0b,32,0,2024-02-28T16:04:24.318Z,french_387.wav,0,poule,436,55,4,5,français,m,2,0.2,-91.83469308,1.86884396
5f90c32f69122f1cebd1cc0b,32,0,2024-02-28T16:04:24.318Z,french_387.wav,0,poule,436,55,4,5,français,m,3,0.3,-8.60515115,0.78103642
5f90c32f69122f1cebd1cc0b,32,0,2024-02-28T16:04:24.318Z,french_387.wav,0,poule,436,55,4,5,français,m,4,0.4,66.88839894,0.92101113
5f90c32f69122f1cebd1cc0b,32,0,2024-02-28T16:04:24.318Z,french_387.wav,0,poule,436,55,4,5,français,m,5,0.5,25.42600238,0.1569929
5f90c32f69122f1cebd1cc0b,32,0,2024-02-28T16:04:24.318Z,french_387.wav,0,poule,436,55,4,5,français,m,6,0.6,-7.40031453,0.56500245
5f90c32f69122f1cebd1cc0b,32,0,2024-02-28T16:04:24.318Z,french_387.wav,0,poule,436,55,4,5,français,m,7,0.7,-51.95385071,1.10374922
5f90c32f69122f1cebd1cc0b,32,0,2024-02-28T16:04:24.318Z,french_387.wav,0,poule,436,55,4,5,français,m,8,0.8,50.19527583,0.9239354
5f90c32f69122f1cebd1cc0b,32,0,2024-02-28T16:04:24.318Z,french_387.wav,0,poule,436,55,4,5,français,m,9,0.9,-38.24502807,0.71980966
5f90c32f69122f1cebd1cc0b,32,0,2024-02-28T16:04:24.318Z,french_387.wav,0,poule,436,55,4,5,français,m,10,1.0,-42.80998351,1.05382382
5f90c32f69122f1cebd1cc0b,32,0,2024-02-28T16:04:24.318Z,french_387.wav,0,poule,436,55,4,5,français,m,11,1.1,4.14032159,1.68496778
5f90c32f69122f1cebd1cc0b,32,0,2024-02-28T16:04:24.318Z,french_387.wav,0,poule,436,55,4,5,français,m,12,1.14141667,-51.51302807,0.50981508
5f90c32f69122f1cebd1cc0b,33,0,2024-02-28T16:04:24.318Z,french_663.wav,0,pull,910,55,4,5,français,m,0,0.0,-14.3254762,0.00837881
5f90c32f69122f1cebd1cc0b,33,0,2024-02-28T16:04:24.318Z,french_663.wav,0,pull,910,55,4,5,français,m,1,0.1,19.63428116,1.01490054
5f90c32f69122f1cebd1cc0b,33,0,2024-02-28T16:04:24.318Z,french_663.wav,0,pull,910,55,4,5,français,m,2,0.2,-91.68242216,1.87093457
5f90c32f69122f1cebd1cc0b,33,0,2024-02-28T16:04:24.318Z,french_663.wav,0,pull,910,55,4,5,français,m,3,0.3,-41.82283925,1.17127261
5f90c32f69122f1cebd1cc0b,33,0,2024-02-28T16:04:24.318Z,french_663.wav,0,pull,910,55,4,5,français,m,4,0.4,-72.80326657,1.68516013
5f90c32f69122f1cebd1cc0b,33,0,2024-02-28T16:04:24.318Z,french_663.wav,0,pull,910,55,4,5,français,m,5,0.5,-12.3349336,0.32760374
5f90c32f69122f1cebd1cc0b,33,0,2024-02-28T16:04:24.318Z,french_663.wav,0,pull,910,55,4,5,français,m,6,0.6,-15.30280268,1.68388895
5f90c32f69122f1cebd1cc0b,33,0,2024-02-28T16:04:24.318Z,french_663.wav,0,pull,910,55,4,5,français,m,7,0.7,-15.66686259,1.95044404
5f90c32f69122f1cebd1cc0b,33,0,2024-02-28T16:04:24.318Z,french_663.wav,0,pull,910,55,4,5,français,m,8,0.8,-77.03407899,0.77619086
5f90c32f69122f1cebd1cc0b,33,0,2024-02-28T16:04:24.318Z,french_663.wav,0,pull,910,55,4,5,français,m,9,0.9,-25.15547903,0.62272065
5f90c32f69122f1cebd1cc0b,33,0,2024-02-28T16:04:24.318Z,french_663.wav,0,pull,910,55,4,5,français,m,10,1.0,-56.91868761,0.1392137
5f90c32f69122f1cebd1cc0b,33,0,2024-02-28T16:04:24.318Z,french_663.wav,0,pull,910,55,4,5,français,m,11,1.1,30.52061364,1.81424778
5f90c32f69122f1cebd1cc0b,33,0,2024-02-28T16:04:24.318Z,french_663.wav,0,pull,910,55,4,5,français,m,12,1.14141667,-30.87664349,0.71279161
5f90c32f69122f1cebd1cc0b,34,0,2024-02-28T16:04:24.318Z,french_251.wav,0,pull,1718,55,4,5,français,m,0,0.0,-6.10327237,0.87476983
5f90c32f69122f1cebd1cc0b,34,0,2024-02-28T16:04:24.318Z,french_251.wav,0,pull,1718,55,4,5,français,m,1,0.1,-31.81812212,0.20851018
5f90c32f69122f1cebd1cc0b,34,0,2024-02-28T16:04:24.318Z,french_251.wav,0,pull,1718,55,4,5,français,m,2,0.2,1.49653309,1.45345917
5f90c32f69122f1cebd1cc0b,34,0,2024-02-28T16:04:24.318Z,french_251.wav,0,pull,1718,55,4,5,français,m,3,0.3,36.35816444,1.96312617
5f90c32f69122f1cebd1cc0b,34,0,2024-02-28T16:04:24.318Z,french_251.wav,0,pull,1718,55,4,5,français,m,4,0.4,-9.41951006,1.04651376
5f90c32f69122f1cebd1cc0b,34,0,2024-02-28T16:04:24.318Z,french_251.wav,0,pull,1718,55,4,5,français,m,5,0.5,-36.93530582,1.9610622
5f90c32f69122f1cebd1cc0b,34,0,2024-02-28T16:04:24.318Z,french_251.wav,0,pull,1718,55,4,5,français,m,6,0.6,-25.41473519,1.3492542
5f90c32f69122f1cebd1cc0b,34,0,2024-02-28T16:04:24.318Z,french_251.wav,0,pull,1718,55,4,5,français,m,7,0.7,56.15025122,1.04795193
5f90c32f69122f1cebd1cc0b,34,0,2024-02-28T16:04:24.318Z,french_251.wav,0,pull,1718,55,4,5,français,m,8,0.8,-13.30142445,0.20627276
5f90c32f69122f1cebd1cc0b,34,0,2024-02-28T16:04:24.318Z,french_251.wav,0,pull,1718,55,4,5,français,m,9,0.9,-95.55635491,0.33014387
5f90c32f69122f1cebd1cc0b,34,0,2024-02-28T16:04:24.318Z,french_251.wav,0,pull,1718,55,4,5,français,m,10,1.0,-99.65392401,1.62301135
5f90c32f69122f1cebd1cc0b,34,0,2024-02-28T16:04:24.318Z,french_251.wav,0,pull,1718,55,4,5,français,m,11,1.1,-3.55054731,1.19927307
5f90c32f69122f1cebd1cc0b,34,0,2024-02-28T16:04:24.318Z,french_251.wav,0,pull,1718,55,4,5,français,m,12,1.14141667,-37.18224503,1.67752435
5f90c32f69122f1cebd1cc0b,35,0,2024-02-28T16:04:24.318Z,french_47.wav,0,poule,474,55,4,5,français,m,0,0.0,-14.02980735,0.41273058
5f90c32f69122f1cebd1cc0b,35,0,2024-02-28T16:04:24.318Z,french_47.wav,0,poule,474,55,4,5,français,m,1,0.1,-27.44393002,1.9976669
5f90c32f69122f1cebd1cc0b,35,0,2024-02-28T16:04:24.318Z,french_47.wav,0,poule,474,55,4,5,français,m,2,0.2,-7.74092544,0.8780454
5f90c32f69122f1cebd1cc0b,35,0,2024-02-28T16:04:24.318Z,french_47.wav,0,poule,474,55,4,5,français,m,3,0.3,23.23546009,0.54969456
5f90c32f69122f1cebd1cc0b,35,0,2024-02-28T16:04:24.318Z,french_47.wav,0,poule,474,55,4,5,français,m,4,0.4,-3.3039543,0.45135339
5f90c32f69122f1cebd1cc0b,35,0,2024-02-28T16:04:24.318Z,french_47.wav,0,poule,474,55,4,5,français,m,5,0.5,-33.76060907,1.74264661
5f90c32f69122f1cebd1cc0b,35,0,2024-02-28T16:04:24.318Z,french_47.wav,0,poule,474,55,4,5,français,m,6,0.6,68.62519386,1.65837301
5f90c32f69122f1cebd1cc0b,35,0,2024-02-28T16:04:24.318Z,french_47.wav,0,poule,474,55,4,5,français,m,7,0.7,-38.89599759,0.45381726
5f90c32f69122f1cebd1cc0b,35,0,2024-02-28T16:04:24.318Z,french_47.wav,0,poule,474,55,4,5,français,m,8,0.8,-68.28381771,1.24615661
5f90c32f69122f1cebd1cc0b,35,0,2024-02-28T16:04:24.318Z,french_47.wav,0,poule,474,55,4,5,français,m,9,0.9,62.34469485,1.9071721
5f90c32f69122f1cebd1cc0b,35,0,2024-02-28T16:04:24.318Z,french_47.wav,0,poule,474,55,4,5,français,m,10,1.0,25.674394,0.93114074
5f90c32f69122f1cebd1cc0b,35,0,2024-02-28T16:04:24.318Z,french_47.wav,0,poule,474,55,4,5,français,m,11,1.1,-12.7548133,0.50867237
5f90c32f69122f1cebd1cc0b,35,0,2024-02-28T16:04:24.318Z,french_47.wav,0,poule,474,55,4,5,français,m,12,1.14141667,0.14092954,1.64097535
5f90c32f69122f1cebd1cc0b,36,0,2024-02-28T16:04:24.318Z,french_172.wav,0,pull,1368,55,4,5,français,m,0,0.0,52.55822797,1.64690449
5f90c32f69122f1cebd1cc0b,36,0,2024-02-28T16:04:24.318Z,french_172.wav,0,pull,1368,55,4,5,français,m,1,0.1,36.03304437,1.13416013
5f90c32f69122f1cebd1cc0b,36,0,2024-02-28T16:04:24.318Z,french_172.wav,0,pull,1368,55,4,5,français,m,2,0.2,87.57540256,0.18828869
5f90c32f69122f1cebd1cc0b,36,0,2024-02-28T16:04:24.318Z,french_172.wav,0,pull,1368,55,4,5,français,m,3,0.3,-1.02225297,1.03936139
5f90c32f69122f1cebd1cc0b,36,0,2024-02-28T16:04:24.318Z,french_172.wav,0,pull,1368,55,4,5,français,m,4,0.4,-45.72834283,1.57744061
5f90c32f69122f1cebd1cc0b,36,0,2024-02-28T16:04:24.318Z,french_172.wav,0,pull,1368,55,4,5,français,m,5,0.5,-78.07098029,0.88465221
5f90c32f69122f1cebd1cc0b,36,0,2024-02-28T16:04:24.318Z,french_172.wav,0,pull,1368,55,4,5,français,m,6,0.6,66.92119406,1.26318424
5f90c32f69122f1cebd1cc0b,36,0,2024-02-28T16:04:24.318Z,french_172.wav,0,pull,1368,55,4,5,français,m,7,0.7,54.13458116,0.93894817
5f90c32f69122f1cebd1cc0b,36,0,2024-02-28T16:04:24.318Z,french_172.wav,0,pull,1368,55,4,5,français,m,8,0.8,9.25383275,1.37261227
5f90c32f69122f1cebd1cc0b,36,0,2024-02-28T16:04:24.318Z,french_172.wav,0,pull,1368,55,4,5,français,m,9,0.9,84.2289997,0.51589031
5f90c32f69122f1cebd1cc0b,36,0,2024-02-28T16:04:24.318Z,french_172.wav,0,pull,1368,55,4,5,français,m,10,1.0,-92.0852474,0.04731792
5f90c32f69122f1cebd1cc0b,36,0,2024-02-28T16:04:24.318Z,french_172.wav,0,pull,1368,55,4,5,français,m,11,1.1,-58.15058713,0.7131693
5f90c32f69122f1cebd1cc0b,36,0,2024-02-28T16:04:24.318Z,french_172.wav,0,pull,1368,55,4,5,français,m,12,1.14141667,-93.51230148,0.70039891
5f90c32f69122f1cebd1cc0b,37,0,2024-02-28T16:04:24.318Z,french_968.wav,0,poule,368,55,4,5,français,m,0,0.0,-0.57599219,0.80814607
5f90c32f69122f1cebd1cc0b,37,0,2024-02-28T16:04:24.318Z,french_968.wav,0,poule,368,55,4,5,français,m,1,0.1,13.46528621,0.64850963
5f90c32f69122f1cebd1cc0b,37,0,2024-02-28T16:04:24.318Z,french_968.wav,0,poule,368,55,4,5,français,m,2,0.2,-42.10345484,0.75912538
5f90c32f69122f1cebd1cc0b,37,0,2024-02-28T16:04:24.318Z,french_968.wav,0,poule,368,55,4,5,français,m,3,0.3,65.40524164,0.12507739
5f90c32f69122f1cebd1cc0b,37,0,2024-02-28T16:04:24.318Z,french_968.wav,0,poule,368,55,4,5,français,m,4,0.4,8.7909656,0.61296468
5f90c32f69122f1cebd1cc0b,37,0,2024-02-28T16:04:24.318Z,french_968.wav,0,poule,368,55,4,5,français,m,5,0.5,-70.64658821,1.51166545
5f90c32f69122f1cebd1cc0b,37,0,2024-02-28T16:04:24.318Z,french_968.wav,0,poule,368,55,4,5,français,m,6,0.6,9.04588311,1.40220012
5f90c32f69122f1cebd1cc0b,37,0,2024-02-28T16:04:24.318Z,french_968.wav,0,poule,368,55,4,5,français,m,7,0.7,98.94555371,1.00134396
5f90c32f69122f1cebd1cc0b,37,0,2024-02-28T16:04:24.318Z,french_968.wav,0,poule,368,55,4,5,français,m,8,0.8,45.89078384,0.39587707
5f90c32f69122f1cebd1cc0b,37,0,2024-02-28T16:04:24.318Z,french_968.wav,0,poule,368,55,4,5,français,m,9,0.9,67.24679264,0.99552398
5f90c32f69122f1cebd1cc0b,37,0,2024-02-28T16:04:24.318Z,french_968.wav,0,poule,368,55,4,5,français,m,10,1.0,-17.42221394,1.70178233
5f90c32f69122f1cebd1cc0b,37,0,2024-02-28T16:04:24.318Z,french_968.wav,0,poule,368,55,4,5,français,m,11,1.1,81.33628956,0.58307847
5f90c32f69122f1cebd1cc0b,37,0,2024-02-28T16:04:24.318Z,french_968.wav,0,poule,368,55,4,5,français,m,12,1.14141667,53.22171091,1.9484775
5f90c32f69122f1cebd1cc0b,38,0,2024-02-28T16:04:24.318Z,french_692.wav,0,poule,929,55,4,5,français,m,0,0.0,-3.63018758,1.78860692
5f90c32f69122f1cebd1cc0b,38,0,2024-02-28T16:04:24.318Z,french_692.wav,0,poule,929,55,4,5,français,m,1,0.1,-68.16293379,0.86300874
5f90c32f69122f1cebd1cc0b,38,0,2024-02-28T16:04:24.318Z,french_692.wav,0,poule,929,55,4,5,français,m,2,0.2,94.54361928,1.08735966
5f90c32f69122f1cebd1cc0b,38,0,2024-02-28T16:04:24.318Z,french_692.wav,0,poule,929,55,4,5,français,m,3,0.3,25.0958546,0.96562877
5f90c32f69122f1cebd1cc0b,38,0,2024-02-28T16:04:24.318Z,french_692.wav,0,poule,929,55,4,5,français,m,4,0.4,-99.12905949,1.65441916
5f90c32f69122f1cebd1cc0b,38,0,2024-02-28T16:04:24.318Z,french_692.wav,0,poule,929,55,4,5,français,m,5,0.5,-47.00596257,1.19889603
5f90c32f69122f1cebd1cc0b,38,0,2024-02-28T16:04:24.318Z,french_692.wav,0,poule,929,55,4,5,français,m,6,0.6,-38.46033818,0.04010608
5f90c32f69122f1cebd1cc0b,38,0,2024-02-28T16:04:24.318Z,french_692.wav,0,poule,929,55,4,5,français,m,7,0.7,-52.37005629,0.99288232
5f90c32f69122f1cebd1cc0b,38,0,2024-02-28T16:04:24.318Z,french_692.wav,0,poule,929,55,4,5,français,m,8,0.8,29.27180561,1.70634134
5f90c32f69122f1cebd1cc0b,38,0,2024-02-28T16:04:24.318Z,french_692.wav,0,poule,929,55,4,5,français,m,9,0.9,-18.83326647,0.96715022
5f90c32f69122f1cebd1cc0b,38,0,2024-02-28T16:04:24.318Z,french_692.wav,0,poule,929,55,4,5,français,m,10,1.0,-60.91466225,1.75736357
5f90c32f69122f1cebd1cc0b,38,0,2024-02-28T16:04:24.318Z,french_692.wav,0,poule,929,55,4,5,français,m,11,1.1,-20.82797719,1.93453934
5f90c32f69122f1cebd1cc0b,38,0,2024-02-28T16:04:24.318Z,french_692.wav,0,poule,929,55,4,5,français,m,12,1.14141667,-55.17315813,0.43289188
5f90c32f69122f1cebd1cc0b,39,0,2024-02-28T16:04:24.318Z,french_250.wav,0,poule,1269,55,4,5,français,m,0,0.0,62.52683965,0.48083999
5f90c32f69122f1cebd1cc0b,39,0,2024-02-28T16:04:24.318Z,french_250.wav,0,poule,1269,55,4,5,français,m,1,0.1,-59.15891797,0.2426368
5f90c32f69122f1cebd1cc0b,39,0,2024-02-28T16:04:24.318Z,french_250.wav,0,poule,1269,55,4,5,français,m,2,0.2,72.29013493,0.50289968
5f90c32f69122f1cebd1cc0b,39,0,2024-02-28T16:04:24.318Z,french_250.wav,0,poule,1269,55,4,5,français,m,3,0.3,7.18381601,0.96187942
5f90c32f69122f1cebd1cc0b,39,0,2024-02-28T16:04:24.318Z,french_250.wav,0,poule,1269,55,4,5,français,m,4,0.4,-40.54501031,0.79236689
5f90c32f69122f1cebd1cc0b,39,0,2024-02-28T16:04:24.318Z,french_250.wav,0,poule,1269,55,4,5,français,m,5,0.5,11.17660764,0.45761642
5f90c32f69122f1cebd1cc0b,39,0,2024-02-28T16:04:24.318Z,french_250.wav,0,poule,1269,55,4,5,français,m,6,0.6,-12.72402035,0.22457871
5f90c32f69122f1cebd1cc0b,39,0,2024-02-28T16:04:24.318Z,french_250.wav,0,poule,1269,55,4,5,français,m,7,0.7,86.4128945,1.19019688
5f90c32f69122f1cebd1cc0b,39,0,2024-02-28T16:04:24.318Z,french_250.wav,0,poule,1269,55,4,5,français,m,8,0.8,-22.42213109,0.95557976
5f90c32f69122f1cebd1cc0b,39,0,2024-02-28T16:04:24.318Z,french_250.wav,0,poule,1269,55,4,5,français,m,9,0.9,-17.96201743,0.73743866
5f90c32f69122f1cebd1cc0b,39,0,2024-02-28T16:04:24.318Z,french_250.wav,0,poule,1269,55,4,5,français,m,10,1.0,-65.83896619,1.58004952
5f90c32f69122f1cebd1cc0b,39,0,2024-02-28T16:04:24.318Z,french_250.wav,0,poule,1269,55,4,5,français,m,11,1.1,51.2878128,1.86095595
5f90c32f69122f1cebd1cc0b,39,0,2024-02-28T16:04:24.318Z,french_250.wav,0,poule,1269,55,4,5,français,m,12,1.14141667,-35.15908719,0.98214179
5f90c32f69122f1cebd1cc0b,40,0,2024-02-28T16:04:24.318Z,french_94.wav,0,poule,437,55,4,5,français,m,0,0.0,36.17630989,1.30255272
5f90c32f69122f1cebd1cc0b,40,0,2024-02-28T16:04:24.318Z,french_94.wav,0,poule,437,55,4,5,français,m,1,0.1,14.66761443,0.32896771
5f90c32f69122f1cebd1cc0b,40,0,2024-02-28T16:04:24.318Z,french_94.wav,0,poule,437,55,4,5,français,m,2,0.2,-38.42754405,1.71559629
5f90c32f69122f1cebd1cc0b,40,0,2024-02-28T16:04:24.318Z,french_94.wav,0,poule,437,55,4,5,français,m,3,0.3,-13.35310679,0.63050452
5f90c32f69122f1cebd1cc0b,40,0,2024-02-28T16:04:24.318Z,french_94.wav,0,poule,437,55,4,5,français,m,4,0.4,26.57810187,0.36223899
5f90c32f69122f1cebd1cc0b,40,0,2024-02-28T16:04:24.318Z,french_94.wav,0,poule,437,55,4,5,français,m,5,0.5,28.67841296,1.65127257
5f90c32f69122f1cebd1cc0b,40,0,2024-02-28T16:04:24.318Z,french_94.wav,0,poule,437,55,4,5,français,m,6,0.6,22.87282504,0.67205642
5f90c32f69122f1cebd1cc0b,40,0,2024-02-28T16:04:24.318Z,french_94.wav,0,poule,437,55,4,5,français,m,7,0.7,-73.37852096,0.93955545
5f90c32f69122f1cebd1cc0b,40,0,2024-02-28T16:04:24.318Z,french_94.wav,0,poule,437,55,4,5,français,m,8,0.8,-41.71162889,1.15247084
5f90c32f69122f1cebd1cc0b,40,0,2024-02-28T16:04:24.318Z,french_94.wav,0,poule,437,55,4,5,français,m,9,0.9,-14.22920007,1.35681846
5f90c32f69122f1cebd1cc0b,40,0,2024-02-28T16:04:24.318Z,french_94.wav,0,poule,437,55,4,5,français,m,10,1.0,-28.00054225,0.73658188
5f90c32f69122f1cebd1cc0b,40,0,2024-02-28T16:04:24.318Z,french_94.wav,0,poule,437,55,4,5,français,m,11,1.1,-65.6003802,0.24655426
5f90c32f69122f1cebd1cc0b,40,0,2024-02-28T16:04:24.318Z,french_94.wav,0,poule,437,55,4,5,français,m,12,1.14141667,32.63192122,0.38371321
5f90c32f69122f1cebd1cc0b,41,0,2024-02-28T16:04:24.318Z,french_836.wav,0,pull,1053,55,4,5,français,m,0,0.0,-98.99819352,0.75283852
5f90c32f69122f1cebd1cc0b,41,0,2024-02-28T16:04:24.318Z,french_836.wav,0,pull,1053,55,4,5,français,m,1,0.1,-75.19453636,1.12271703
5f90c32f69122f1cebd1cc0b,41,0,2024-02-28T16:04:24.318Z,french_836.wav,0,pull,1053,55,4,5,français,m,2,0.2,-64.62080883,1.03950179
5f90c32f69122f1cebd1cc0b,41,0,2024-02-28T16:04:24.318Z,french_836.wav,0,pull,1053,55,4,5,français,m,3,0.3,60.55534082,1.75484814
5f90c32f69122f1cebd1cc0b,41,0,2024-02-28T16:04:24.318Z,french_836.wav,0,pull,1053,55,4,5,français,m,4,0.4,-90.56866614,1.22078165
5f90c32f69122f1cebd1cc0b,41,0,2024-02-28T16:04:24.318Z,french_836.wav,0,pull,1053,55,4,5,français,m,5,0.5,42.02544068,1.13870982
5f90c32f69122f1cebd1cc0b,41,0,2024-02-28T16:04:24.318Z,french_836.wav,0,pull,1053,55,4,5,français,m,6,0.6,95.75892424,0.70777339
5f90c32f69122f1cebd1cc0b,41,0,2024-02-28T16:04:24.318Z,french_836.wav,0,pull,1053,55,4,5,français,m,7,0.7,11.40295424,0.47085937
5f90c32f69122f1cebd1cc0b,41,0,2024-02-28T16:04:24.318Z,french_836.wav,0,pull,1053,55,4,5,français,m,8,0.8,-4.00612114,0.55212985
5f90c32f69122f1cebd1cc0b,41,0,2024-02-28T16:04:24.318Z,french_836.wav,0,pull,1053,55,4,5,français,m,9,0.9,-4.86106881,0.16027773
5f90c32f69122f1cebd1cc0b,41,0,2024-02-28T16:04:24.318Z,french_836.wav,0,pull,1053,55,4,5,français,m,10,1.0,-58.99614613,0.43365065
5f90c32f69122f1cebd1cc0b,41,0,2024-02-28T16:04:24.318Z,french_836.wav,0,pull,1053,55,4,5,français,m,11,1.1,-54.09355535,0.99941172
5f90c32f69122f1cebd1cc0b,41,0,2024-02-28T16:04:24.318Z,french_836.wav,0,pull,1053,55,4,5,français,m,12,1.14141667,71.69194122,1.8664191
5f90c32f69122f1cebd1cc0b,42,0,2024-02-28T16:04:24.318Z,french_820.wav,0,poule,539,55,4,5,français,m,0,0.0,2.20805213,0.81178605
5f90c32f69122f1cebd1cc0b,42,0,2024-02-28T16:04:24.318Z,french_820.wav,0,poule,539,55,4,5,français,m,1,0.1,-90.51492195,0.34105584
5f90c32f69122f1cebd1cc0b,42,0,2024-02-28T16:04:24.318Z,french_820.wav,0,poule,539,55,4,5,français,m,2,0.2,14.37438706,1.03419156
5f90c32f69122f1cebd1cc0b,42,0,2024-02-28T16:04:24.318Z,french_820.wav,0,poule,539,55,4,5,français,m,3,0.3,48.7691056,1.3222317
5f90c32f69122f1cebd1cc0b,42,0,2024-02-28T16:04:24.318Z,french_820.wav,0,poule,539,55,4,5,français,m,4,0.4,-26.19278003,0.6377532
5f90c32f69122f1cebd1cc0b,42,0,2024-02-28T16:04:24.318Z,french_820.wav,0,poule,539,55,4,5,français,m,5,0.5,18.08357323,1.39628768
5f90c32f69122f1cebd1cc0b,42,0,2024-02-28T16:04:24.318Z,french_820.wav,0,poule,539,55,4,5,français,m,6,0.6,82.28583292,1.53457958
5f90c32f69122f1cebd1cc0b,42,0,2024-02-28T16:04:24.318Z,french_820.wav,0,poule,539,55,4,5,français,m,7,0.7,69.03631189,1.68460853
5f90c32f69122f1cebd1cc0b,42,0,2024-02-28T16:04:24.318Z,french_820.wav,0,poule,539,55,4,5,français,m,8,0.8,27.35509958,1.6036494
5f90c32f69122f1cebd1cc0b,42,0,2024-02-28T16:04:24.318Z,french_820.wav,0,poule,539,55,4,5,français,m,9,0.9,27.52320107,1.49572357
5f90c32f69122f1cebd1cc0b,42,0,2024-02-28T16:04:24.318Z,french_820.wav,0,poule,539,55,4,5,français,m,10,1.0,-3.99788557,0.7318371
5f90c32f69122f1cebd1cc0b,42,0,2024-02-28T16:04:24.318Z,french_820.wav,0,poule,539,55,4,5,français,m,11,1.1,54.09103587,0.77038849
5f90c32f69122f1cebd1cc0b,42,0,2024-02-28T16:04:24.318Z,french_820.wav,0,poule,539,55,4,5,français,m,12,1.14141667,22.53021971,0.80738652
5f90c32f69122f1cebd1cc0b,43,0,2024-02-28T16:04:24.318Z,french_762.wav,0,poule,306,55,4,5,français,m,0,0.0,-58.12229052,0.21129852
5f90c32f69122f1cebd1cc0b,43,0,2024-02-28T16:04:24.318Z,french_762.wav,0,poule,306,55,4,5,français,m,1,0.1,-14.77350677,0.91239865
5f90c32f69122f1cebd1cc0b,43,0,2024-02-28T16:04:24.318Z,french_762.wav,0,poule,306,55,4,5,français,m,2,0.2,54.6713271,1.23280243
5f90c32f69122f1cebd1cc0b,43,0,2024-02-28T16:04:24.318Z,french_762.wav,0,poule,306,55,4,5,français,m,3,0.3,-40.90961907,1.70520871
5f90c32f69122f1cebd1cc0b,43,0,2024-02-28T16:04:24.318Z,french_762.wav,0,poule,306,55,4,5,français,m,4,0.4,-58.09703168,1.68630109
5f90c32f69122f1cebd1cc0b,43,0,2024-02-28T16:04:24.318Z,french_762.wav,0,poule,306,55,4,5,français,m,5,0.5,69.97242743,1.73739259
5f90c32f69122f1cebd1cc0b,43,0,2024-02-28T16:04:24.318Z,french_762.wav,0,poule,306,55,4,5,français,m,6,0.6,16.84172576,1.78407027
5f90c32f69122f1cebd1cc0b,43,0,2024-02-28T16:04:24.318Z,french_762.wav,0,poule,306,55,4,5,français,m,7,0.7,75.48068622,1.90214956
5f90c32f69122f1cebd1cc0b,43,0,2024-02-28T16:04:24.318Z,french_762.wav,0,poule,306,55,4,5,français,m,8,0.8,-58.94157604,1.23208501
5f90c32f69122f1cebd1cc0b,43,0,2024-02-28T16:04:24.318Z,french_762.wav,0,poule,306,55,4,5,français,m,9,0.9,44.93279187,1.10717751
5f90c32f69122f1cebd1cc0b,43,0,2024-02-28T16:04:24.318Z,french_762.wav,0,poule,306,55,4,5,français,m,10,1.0,-70.94196175,1.38101187
5f90c32f69122f1cebd1cc0b,43,0,2024-02-28T16:04:24.318Z,french_762.wav,0,poule,306,55,4,5,français,m,11,1.1,-49.70042392,1.55049932
5f90c32f69122f1cebd1cc0b,43,0,2024-02-28T16:04:24.318Z,french_762.wav,0,poule,306,55,4,5,français,m,12,1.14141667,20.69121196,0.62647488
5f90c32f69122f1cebd1cc0b,44,0,2024-02-28T16:04:24.318Z,french_83.wav,0,pull,1191,55,4,5,français,m,0,0.0,30.44967783,0.42165273
5f90c32f69122f1cebd1cc0b,44,0,2024-02-28T16:04:24.318Z,french_83.wav,0,pull,1191,55,4,5,français,m,1,0.1,32.59822127,0.3238076
5f90c32f69122f1cebd1cc0b,44,0,2024-02-28T16:04:24.318Z,french_83.wav,0,pull,1191,55,4,5,français,m,2,0.2,50.8682146,0.37913611
5f90c32f69122f1cebd1cc0b,44,0,2024-02-28T16:04:24.318Z,french_83.wav,0,pull,1191,55,4,5,français,m,3,0.3,0.11779037,0.78724258
5f90c32f69122f1cebd1cc0b,44,0,2024-02-28T16:04:24.318Z,french_83.wav,0,pull,1191,55,4,5,français,m,4,0.4,16.37029834,1.0594663
5f90c32f69122f1cebd1cc0b,44,0,2024-02-28T16:04:24.318Z,french_83.wav,0,pull,1191,55,4,5,français,m,5,0.5,90.79022832,0.48377765
5f90c32f69122f1cebd1cc0b,44,0,2024-02-28T16:04:24.318Z,french_83.wav,0,pull,1191,55,4,5,français,m,6,0.6,-75.94380669,0.29353951
5f90c32f69122f1cebd1cc0b,44,0,2024-02-28T16:04:24.318Z,french_83.wav,0,pull,1191,55,4,5,français,m,7,0.7,34.13478403,1.31767934
5f90c32f69122f1cebd1cc0b,44,0,2024-02-28T16:04:24.318Z,french_83.wav,0,pull,1191,55,4,5,français,m,8,0.8,-27.50152867,0.23770737
5f90c32f69122f1cebd1cc0b,44,0,2024-02-28T16:04:24.318Z,french_83.wav,0,pull,1191,55,4,5,français,m,9,0.9,9.93495342,0.58296712
5f90c32f69122f1cebd1cc0b,44,0,2024-02-28T16:04:24.318Z,french_83.wav,0,pull,1191,55,4,5,français,m,10,1.0,58.3619145,0.64820026
5f90c32f69122f1cebd1cc0b,44,0,2024-02-28T16:04:24.318Z,french_83.wav,0,pull,1191,55,4,5,français,m,11,1.1,15.44979308,0.12158815
5f90c32f69122f1cebd1cc0b,44,0,2024-02-28T16:04:24.318Z,french_83.wav,0,pull,1191,55,4,5,français,m,12,1.14141667,13.85594834,0.38899467
5f90c32f69122f1cebd1cc0b,45,0,2024-02-28T16:04:24.318Z,french_286.wav,0,poule,397,55,4,5,français,m,0,0.0,-91.05268085,1.46856287
5f90c32f69122f1cebd1cc0b,45,0,2024-02-28T16:04:24.318Z,french_286.wav,0,poule,397,55,4,5,français,m,1,0.1,-23.35186071,1.00691584
5f90c32f69122f1cebd1cc0b,45,0,2024-02-28T16:04:24.318Z,french_286.wav,0,poule,397,55,4,5,français,m,2,0.2,77.20107387,0.46780603
5f90c32f69122f1cebd1cc0b,45,0,2024-02-28T16:04:24.318Z,french_286.wav,0,poule,397,55,4,5,français,m,3,0.3,-92.81003859,1.70781954
5f90c32f69122f1cebd1cc0b,45,0,2024-02-28T16:04:24.318Z,french_286.wav,0,poule,397,55,4,5,français,m,4,0.4,-53.33460968,0.99550458
5f90c32f69122f1cebd1cc0b,45,0,2024-02-28T16:04:24.318Z,french_286.wav,0,poule,397,55,4,5,français,m,5,0.5,62.91812057,0.7172163
5f90c32f69122f1cebd1cc0b,45,0,2024-02-28T16:04:24.318Z,french_286.wav,0,poule,397,55,4,5,français,m,6,0.6,16.16077368,1.39130844
5f90c32f69122f1cebd1cc0b,45,0,2024-02-28T16:04:24.318Z,french_286.wav,0,poule,397,55,4,5,français,m,7,0.7,69.38476605,0.60440693
5f90c32f69122f1cebd1cc0b,45,0,2024-02-28T16:04:24.318Z,french_286.wav,0,poule,397,55,4,5,français,m,8,0.8,-57.13655676,1.66516304
5f90c32f69122f1cebd1cc0b,45,0,2024-02-28T16:04:24.318Z,french_286.wav,0,poule,397,55,4,5,français,m,9,0.9,-15.81173514,1.68938028
5f90c32f69122f1cebd1cc0b,45,0,2024-02-28T16:04:24.318Z,french_286.wav,0,poule,397,55,4,5,français,m,10,1.0,-9.63797078,1.74581604
5f90c32f69122f1cebd1cc0b,45,0,2024-02-28T16:04:24.318Z,french_286.wav,0,poule,397,55,4,5,français,m,11,1.1,-63.31208094,1.61756959
5f90c32f69122f1cebd1cc0b,45,0,2024-02-28T16:04:24.318Z,french_286.wav,0,poule,397,55,4,5,français,m,12,1.14141667,-26.04631218,1.66119384
5f90c32f69122f1cebd1cc0b,46,0,2024-02-28T16:04:24.318Z,french_615.wav,0,poule,374,55,4,5,français,m,0,0.0,72.38681635,0.57584536
5f90c32f69122f1cebd1cc0b,46,0,2024-02-28T16:04:24.318Z,french_615.wav,0,poule,374,55,4,5,français,m,1,0.1,24.59331479,1.35294979
5f90c32f69122f1cebd1cc0b,46,0,2024-02-28T16:04:24.318Z,french_615.wav,0,poule,374,55,4,5,français,m,2,0.2,97.45037318,1.77087323
5f90c32f69122f1cebd1cc0b,46,0,2024-02-28T16:04:24.318Z,french_615.wav,0,poule,374,55,4,5,français,m,3,0.3,-28.96661313,0.43158904
5f90c32f69122f1cebd1cc0b,46,0,2024-02-28T16:04:24.318Z,french_615.wav,0,poule,374,55,4,5,français,m,4,0.4,-31.23729726,1.66456616
5f90c32f69122f1cebd1cc0b,46,0,2024-02-28T16:04:24.318Z,french_615.wav,0,poule,374,55,4,5,français,m,5,0.5,-70.6612612,1.7199114
5f90c32f69122f1cebd1cc0b,46,0,2024-02-28T16:04:24.318Z,french_615.wav,0,poule,374,55,4,5,français,m,6,0.6,-53.69570139,1.78953723
5f90c32f69122f1cebd1cc0b,46,0,2024-02-28T16:04:24.318Z,french_615.wav,0,poule,374,55,4,5,français,m,7,0.7,-38.46914073,0.36678916
5f90c32f69122f1cebd1cc0b,46,0,2024-02-28T16:04:24.318Z,french_615.wav,0,poule,374,55,4,5,français,m,8,0.8,-55.15375189,1.32513305
5f90c32f69122f1cebd1cc0b,46,0,2024-02-28T16:04:24.318Z,french_615.wav,0,poule,374,55,4,5,français,m,9,0.9,90.9560503,1.7903427
5f90c32f69122f1cebd1cc0b,46,0,2024-02-28T16:04:24.318Z,french_615.wav,0,poule,374,55,4,5,français,m,10,1.0,-8.94488098,1.74831673
5f90c32f69122f1cebd1cc0b,46,0,2024-02-28T16:04:24.318Z,french_615.wav,0,poule,374,55,4,5,français,m,11,1.1,-87.12452045,1.54330105
5f90c32f69122f1cebd1cc0b,46,0,2024-02-28T16:04:24.318Z,french_615.wav,0,poule,374,55,4,5,français,m,12,1.14141667,-63.51314693,1.13986447
5f90c32f69122f1cebd1cc0b,47,0,2024-02-28T16:04:24.318Z,french_921.wav,0,pull,868,55,4,5,français,m,0,0.0,-22.48407438,0.56788331
5f90c32f69122f1cebd1cc0b,47,0,2024-02-28T16:04:24.318Z,french_921.wav,0,pull,868,55,4,5,français,m,1,0.1,96.20023213,0.48037084
5f90c32f69122f1cebd1cc0b,47,0,2024-02-28T16:04:24.318Z,french_921.wav,0,pull,868,55,4,5,français,m,2,0.2,-26.96111018,1.28513603
5f90c32f69122f1cebd1cc0b,47,0,2024-02-28T16:04:24.318Z,french_921.wav,0,pull,868,55,4,5,français,m,3,0.3,-4.61285821,0.47395862
5f90c32f69122f1cebd1cc0b,47,0,2024-02-28T16:04:24.318Z,french_921.wav,0,pull,868,55,4,5,français,m,4,0.4,-41.60418228,1.80498459
5f90c32f69122f1cebd1cc0b,47,0,2024-02-28T16:04:24.318Z,french_921.wav,0,pull,868,55,4,5,français,m,5,0.5,16.2616983,1.788566
5f90c32f69122f1cebd1cc0b,47,0,2024-02-28T16:04:24.318Z,french_921.wav,0,pull,868,55,4,5,français,m,6,0.6,40.35336686,0.45002982
5f90c32f69122f1cebd1cc0b,47,0,2024-02-28T16:04:24.318Z,french_921.wav,0,pull,868,55,4,5,français,m,7,0.7,-44.63732317,0.17970155
5f90c32f69122f1cebd1cc0b,47,0,2024-02-28T16:04:24.318Z,french_921.wav,0,pull,868,55,4,5,français,m,8,0.8,58.4442517,0.55049439
5f90c32f69122f1cebd1cc0b,47,0,2024-02-28T16:04:24.318Z,french_921.wav,0,pull,868,55,4,5,français,m,9,0.9,9.84257376,0.16897134
5f90c32f69122f1cebd1cc0b,47,0,2024-02-28T16:04:24.318Z,french_921.wav,0,pull,868,55,4,5,français,m,10,1.0,41.47094552,0.81111626
5f90c32f69122f1cebd1cc0b,47,0,2024-02-28T16:04:24.318Z,french_921.wav,0,pull,868,55,4,5,français,m,11,1.1,-30.9925565,1.40036405
5f90c32f69122f1cebd1cc0b,47,0,2024-02-28T16:04:24.318Z,french_921.wav,0,pull,868,55,4,5,français,m,12,1.14141667,23.41632399,1.37522971
5f90c32f69122f1cebd1cc0b,48,0,2024-02-28T16:04:24.318Z,french_593.wav,0,poule,412,55,4,5,français,m,0,0.0,-26.15191158,1.67620181
5f90c32f69122f1cebd1cc0b,48,0,2024-02-28T16:04:24.318Z,french_593.wav,0,poule,412,55,4,5,français,m,1,0.1,-23.77044674,1.88114871
5f90c32f69122f1cebd1cc0b,48,0,2024-02-28T16:04:24.318Z,french_593.wav,0,poule,412,55,4,5,français,m,2,0.2,-56.77087027,0.68107866
5f90c32f69122f1cebd1cc0b,48,0,2024-02-28T16:04:24.318Z,french_593.wav,0,poule,412,55,4,5,français,m,3,0.3,-26.6634209,0.59955882
5f90c32f69122f1cebd1cc0b,48,0,2024-02-28T16:04:24.318Z,french_593.wav,0,poule,412,55,4,5,français,m,4,0.4,23.2517825,0.4124721
5f90c32f69122f1cebd1cc0b,48,0,2024-02-28T16:04:24.318Z,french_593.wav,0,poule,412,55,4,5,français,m,5,0.5,20.15285172,1.3172903
5f90c32f69122f1cebd1cc0b,48,0,2024-02-28T16:04:24.318Z,french_593.wav,0,poule,412,55,4,5,français,m,6,0.6,0.51630832,1.36089333
5f90c32f69122f1cebd1cc0b,48,0,2024-02-28T16:04:24.318Z,french_593.wav,0,poule,412,55,4,5,français,m,7,0.7,-35.81236966,1.34128956
5f90c32f69122f1cebd1cc0b,48,0,2024-02-28T16:04:24.318Z,french_593.wav,0,poule,412,55,4,5,français,m,8,0.8,-27.3865171,0.731606
5f90c32f69122f1cebd1cc0b,48,0,2024-02-28T16:04:24.318Z,french_593.wav,0,poule,412,55,4,5,français,m,9,0.9,-29.8816425,1.0339416
5f90c32f69122f1cebd1cc0b,48,0,2024-02-28T16:04:24.318Z,french_593.wav,0,poule,412,55,4,5,français,m,10,1.0,-1.08914565,1.74012393
5f90c32f69122f1cebd1cc0b,48,0,2024-02-28T16:04:24.318Z,french_593.wav,0,poule,412,55,4,5,français,m,11,1.1,-56.55903373,0.35910853
5f90c32f69122f1cebd1cc0b,48,0,2024-02-28T16:04:24.318Z,french_593.wav,0,poule,412,55,4,5,français,m,12,1.14141667,-69.29632341,1.05627167
5f90c32f69122f1cebd1cc0b,49,0,2024-02-28T16:04:24.318Z,french_957.wav,0,pull,854,55,4,5,français,m,0,0.0,12.88644625,0.94965628
5f90c32f69122f1cebd1cc0b,49,0,2024-02-28T16:04:24.318Z,french_957.wav,0,pull,854,55,4,5,français,m,1,0.1,18.70253323,0.59858398
5f90c32f69122f1cebd1cc0b,49,0,2024-02-28T16:04:24.318Z,french_957.wav,0,pull,854,55,4,5,français,m,2,0.2,63.85450626,0.52603788
5f90c32f69122f1cebd1cc0b,49,0,2024-02-28T16:04:24.318Z,french_957.wav,0,pull,854,55,4,5,français,m,3,0.3,-60.64060755,1.4306776
5f90c32f69122f1cebd1cc0b,49,0,2024-02-28T16:04:24.318Z,french_957.wav,0,pull,854,55,4,5,français,m,4,0.4,-90.62123275,1.89873251
5f90c32f69122f1cebd1cc0b,49,0,2024-02-28T16:04:24.318Z,french_957.wav,0,pull,854,55,4,5,français,m,5,0.5,24.73093513,1.80457899
5f90c32f69122f1cebd1cc0b,49,0,2024-02-28T16:04:24.318Z,french_957.wav,0,pull,854,55,4,5,français,m,6,0.6,-79.40998292,0.32316389
5f90c32f69122f1cebd1cc0b,49,0,2024-02-28T16:04:24.318Z,french_957.wav,0,pull,854,55,4,5,français,m,7,0.7,99.89533842,0.77051068
5f90c32f69122f1cebd1cc0b,49,0,2024-02-28T16:04:24.318Z,french_957.wav,0,pull,854,55,4,5,français,m,8,0.8,-82.08813401,0.69662658
5f90c32f69122f1cebd1cc0b,49,0,2024-02-28T16:04:24.318Z,french_957.wav,0,pull,854,55,4,5,français,m,9,0.9,-46.39069699,0.26903226
5f90c32f69122f1cebd1cc0b,49,0,2024-02-28T16:04:24.318Z,french_957.wav,0,pull,854,55,4,5,français,m,10,1.0,-76.81702111,0.24465655
5f90c32f69122f1cebd1cc0b,49,0,2024-02-28T16:04:24.318Z,french_957.wav,0,pull,854,55,4,5,français,m,11,1.1,65.90507306,1.35119799
5f90c32f69122f1cebd1cc0b,49,0,2024-02-28T16:04:24.318Z,french_957.wav,0,pull,854,55,4,5,français,m,12,1.14141667,15.50319114,1.75217446
5f90c32f69122f1cebd1cc0b,50,1,2024-02-28T16:04:24.318Z,french_143.wav,0,pull,890,55,4,5,français,m,0,0.0,-29.3673722,0.22996727
5f90c32f69122f1cebd1cc0b,50,1,2024-02-28T16:04:24.318Z,french_143.wav,0,pull,890,55,4,5,français,m,1,0.1,44.40810174,1.64696191
5f90c32f69122f1cebd1cc0b,50,1,2024-02-28T16:04:24.318Z,french_143.wav,0,pull,890,55,4,5,français,m,2,0.2,9.85258544,1.06029091
5f90c32f69122f1cebd1cc0b,50,1,2024-02-28T16:04:24.318Z,french_143.wav,0,pull,890,55,4,5,français,m,3,0.3,-70.232311,0.85821425
5f90c32f69122f1cebd1cc0b,50,1,2024-02-28T16:04:24.318Z,french_143.wav,0,pull,890,55,4,5,français,m,4,0.4,10.18078432,0.90927264
5f90c32f69122f1cebd1cc0b,50,1,2024-02-28T16:04:24.318Z,french_143.wav,0,pull,890,55,4,5,français,m,5,0.5,54.14062098,1.46523027
5f90c32f69122f1cebd1cc0b,50,1,2024-02-28T16:04:24.318Z,french_143.wav,0,pull,890,55,4,5,français,m,6,0.6,5.91204202,0.81919343
5f90c32f69122f1cebd1cc0b,50,1,2024-02-28T16:04:24.318Z,french_143.wav,0,pull,890,55,4,5,français,m,7,0.7,41.76003801,1.08727783
5f90c32f69122f1cebd1cc0b,50,1,2024-02-28T16:04:24.318Z,french_143.wav,0,pull,890,55,4,5,français,m,8,0.8,-59.19909661,1.65258162
5f90c32f69122f1cebd1cc0b,50,1,2024-02-28T16:04:24.318Z,french_143.wav,0,pull,890,55,4,5,français,m,9,0.9,-56.68785287,0.26852297
5f90c32f69122f1cebd1cc0b,50,1,2024-02-28T16:04:24.318Z,french_143.wav,0,pull,890,55,4,5,français,m,10,1.0,-72.6143152,1.68829351
5f90c32f69122f1cebd1cc0b,50,1,2024-02-28T16:04:24.318Z,french_143.wav,0,pull,890,55,4,5,français,m,11,1.1,5.43153154,1.1963145
5f90c32f69122f1cebd1cc0b,50,1,2024-02-28T16:04:24.318Z,french_143.wav,0,pull,890,55,4,5,français,m,12,1.14141667,73.51458945,1.20911613
5f90c32f69122f1cebd1cc0b,51,1,2024-02-28T16:04:24.318Z,french_491.wav,0,poule,390,55,4,5,français,m,0,0.0,-32.79721007,0.90116217
5f90c32f69122f1cebd1cc0b,51,1,2024-02-28T16:04:24.318Z,french_491.wav,0,poule,390,55,4,5,français,m,1,0.1,25.08986795,1.66798034
5f90c32f69122f1cebd1cc0b,51,1,2024-02-28T16:04:24.318Z,french_491.wav,0,poule,390,55,4,5,français,m,2,0.2,99.1504277,1.6353077
5f90c32f69122f1cebd1cc0b,51,1,2024-02-28T16:04:24.318Z,french_491.wav,0,poule,390,55,4,5,français,m,3,0.3,-40.395736,0.54788847
5f90c32f69122f1cebd1cc0b,51,1,2024-02-28T16:04:24.318Z,french_491.wav,0,poule,390,55,4,5,français,m,4,0.4,-71.36976671,0.14013258
5f90c32f69122f1cebd1cc0b,51,1,2024-02-28T16:04:24.318Z,french_491.wav,0,poule,390,55,4,5,français,m,5,0.5,-12.86066121,1.37878942
5f90c32f69122f1cebd1cc0b,51,1,2024-02-28T16:04:24.318Z,french_491.wav,0,poule,390,55,4,5,français,m,6,0.6,-65.44931003,1.55111616
5f90c32f69122f1cebd1cc0b,51,1,2024-02-28T16:04:24.318Z,french_491.wav,0,poule,390,55,4,5,français,m,7,0.7,-44.47531366,0.8376443
5f90c32f69122f1cebd1cc0b,51,1,2024-02-28T16:04:24.318Z,french_491.wav,0,poule,390,55,4,5,français,m,8,0.8,-56.76207038,0.4945917
5f90c32f69122f1cebd1cc0b,51,1,2024-02-28T16:04:24.318Z,french_491.wav,0,poule,390,55,4,5,français,m,9,0.9,-6.01683556,0.95762538
5f90c32f69122f1cebd1cc0b,51,1,2024-02-28T16:04:24.318Z,french_491.wav,0,poule,390,55,4,5,français,m,10,1.0,20.39042638,1.57619744
5f90c32f69122f1cebd1cc0b,51,1,2024-02-28T16:04:24.318Z,french_491.wav,0,poule,390,55,4,5,français,m,11,1.1,90.67968242,1.41544214
5f90c32f69122f1cebd1cc0b,51,1,2024-02-28T16:04:24.318Z,french_491.wav,0,poule,390,55,4,5,français,m,12,1.14141667,-59.47328451,0.84581543
5f90c32f69122f1cebd1cc0b,52,1,2024-02-28T16:04:24.318Z,french_911.wav,0,pull,1147,55,4,5,français,m,0,0.0,4.5077802,0.45317339
5f90c32f69122f1cebd1cc0b,52,1,2024-02-28T16:04:24.318Z,french_911.wav,0,pull,1147,55,4,5,français,m,1,0.1,-96.78615261,0.25538375
5f90c32f69122f1cebd1cc0b,52,1,2024-02-28T16:04:24.318Z,french_911.wav,0,pull,1147,55,4,5,français,m,2,0.2,-37.59081272,1.68180074
5f90c32f69122f1cebd1cc0b,52,1,2024-02-28T16:04:24.318Z,french_911.wav,0,pull,1147,55,4,5,français,m,3,0.3,-22.54318893,1.97141889
5f90c32f69122f1cebd1cc0b,52,1,2024-02-28T16:04:24.318Z,french_911.wav,0,pull,1147,55,4,5,français,m,4,0.4,41.73115672,1.92243093
5f90c32f69122f1cebd1cc0b,52,1,2024-02-28T16:04:24.318Z,french_911.wav,0,pull,1147,55,4,5,français,m,5,0.5,14.97022372,1.75864732
5f90c32f69122f1cebd1cc0b,52,1,2024-02-28T16:04:24.318Z,french_911.wav,0,pull,1147,55,4,5,français,m,6,0.6,85.88650346,0.81891757
5f90c32f69122f1cebd1cc0b,52,1,2024-02-28T16:04:24.318Z,french_911.wav,0,pull,1147,55,4,5,français,m,7,0.7,68.3289829,1.88316065
5f90c32f69122f1cebd1cc0b,52,1,2024-02-28T16:04:24.318Z,french_911.wav,0,pull,1147,55,4,5,français,m,8,0.8,7.55069148,1.13854529
5f90c32f69122f1cebd1cc0b,52,1,2024-02-28T16:04:24.318Z,french_911.wav,0,pull,1147,55,4,5,français,m,9,0.9,-43.2506384,0.43261131
5f90c32f69122f1cebd1cc0b,52,1,2024-02-28T16:04:24.318Z,french_911.wav,0,pull,1147,55,4,5,français,m,10,1.0,-13.95845811,1.6405843
5f90c32f69122f1cebd1cc0b,52,1,2024-02-28T16:04:24.318Z,french_911.wav,0,pull,1147,55,4,5,français,m,11,1.1,-72.76673472,1.08647293
5f90c32f69122f1cebd1cc0b,52,1,2024-02-28T16:04:24.318Z,french_911.wav,0,pull,1147,55,4,5,français,m,12,1.14141667,-31.61498631,1.30606036
5f90c32f69122f1cebd1cc0b,53,1,2024-02-28T16:04:24.318Z,french_297.wav,0,poule,417,55,4,5,français,m,0,0.0,-57.88814484,0.69308764
5f90c32f69122f1cebd1cc0b,53,1,2024-02-28T16:04:24.318Z,french_297.wav,0,poule,417,55,4,5,français,m,1,0.1,-65.38188866,0.37987573
5f90c32f69122f1cebd1cc0b,53,1,2024-02-28T16:04:24.318Z,french_297.wav,0,poule,417,55,4,5,français,m,2,0.2,56.2043282,0.59927578
5f90c32f69122f1cebd1cc0b,53,1,2024-02-28T16:04:24.318Z,french_297.wav,0,poule,417,55,4,5,français,m,3,0.3,37.86944555,1.25022663
5f90c32f69122f1cebd1cc0b,53,1,2024-02-28T16:04:24.318Z,french_297.wav,0,poule,417,55,4,5,français,m,4,0.4,-19.92258325,0.84509442
5f90c32f69122f1cebd1cc0b,53,1,2024-02-28T16:04:24.318Z,french_297.wav,0,poule,417,55,4,5,français,m,5,0.5,-5.91149955,0.62575422
5f90c32f69122f1cebd1cc0b,53,1,2024-02-28T16:04:24.318Z,french_297.wav,0,poule,417,55,4,5,français,m,6,0.6,-11.69802287,0.6876977
5f90c32f69122f1cebd1cc0b,53,1,2024-02-28T16:04:24.318Z,french_297.wav,0,poule,417,55,4,5,français,m,7,0.7,-38.75754166,0.53792077
5f90c32f69122f1cebd1cc0b,53,1,2024-02-28T16:04:24.318Z,french_297.wav,0,poule,417,55,4,5,français,m,8,0.8,-82.79023729,1.01464863
5f90c32f69122f1cebd1cc0b,53,1,2024-02-28T16:04:24.318Z,french_297.wav,0,poule,417,55,4,5,français,m,9,0.9,-96.88307613,0.81112842
5f90c32f69122f1cebd1cc0b,53,1,2024-02-28T16:04:24.318Z,french_297.wav,0,poule,417,55,4,5,français,m,10,1.0,-63.09042371,1.38654734
5f90c32f69122f1cebd1cc0b,53,1,2024-02-28T16:04:24.318Z,french_297.wav,0,poule,417,55,4,5,français,m,11,1.1,78.08018198,0.15468479
5f90c32f69122f1cebd1cc0b,53,1,2024-02-28T16:04:24.318Z,french_297.wav,0,poule,417,55,4,5,français,m,12,1.14141667,10.19553277,0.66198032
5f90c32f69122f1cebd1cc0b,54,1,2024-02-28T16:04:24.318Z,french_426.wav,0,pull,674,55,4,5,français,m,0,0.0,-6.32763113,1.69747545
5f90c32f69122f1cebd1cc0b,54,1,2024-02-28T16:04:24.318Z,french_426.wav,0,pull,674,55,4,5,français,m,1,0.1,52.57695115,0.44356632
5f90c32f69122f1cebd1cc0b,54,1,2024-02-28T16:04:24.318Z,french_426.wav,0,pull,674,55,4,5,français,m,2,0.2,41.60389797,0.19149228
5f90c32f69122f1cebd1cc0b,54,1,2024-02-28T16:04:24.318Z,french_426.wav,0,pull,674,55,4,5,français,m,3,0.3,-8.66153644,0.04934427
5f90c32f69122f1cebd1cc0b,54,1,2024-02-28T16:04:24.318Z,french_426.wav,0,pull,674,55,4,5,français,m,4,0.4,21.98741159,1.95400703
5f90c32f69122f1cebd1cc0b,54,1,2024-02-28T16:04:24.318Z,french_426.wav,0,pull,674,55,4,5,français,m,5,0.5,7.59234245,0.49820864
5f90c32f69122f1cebd1cc0b,54,1,2024-02-28T16:04:24.318Z,french_426.wav,0,pull,674,55,4,5,français,m,6,0.6,70.82755328,0.51266747
5f90c32f69122f1cebd1cc0b,54,1,2024-02-28T16:04:24.318Z,french_426.wav,0,pull,674,55,4,5,français,m,7,0.7,17.66979404,1.86795174
5f90c32f69122f1cebd1cc0b,54,1,2024-02-28T16:04:24.318Z,french_426.wav,0,pull,674,55,4,5,français,m,8,0.8,-65.60181314,1.30935529
5f90c32f69122f1cebd1cc0b,54,1,2024-02-28T16:04:24.318Z,french_426.wav,0,pull,674,55,4,5,français,m,9,0.9,-44.40728826,0.05861012
5f90c32f69122f1cebd1cc0b,54,1,2024-02-28T16:04:24.318Z,french_426.wav,0,pull,674,55,4,5,français,m,10,1.0,-52.60669598,1.40782227
5f90c32f69122f1cebd1cc0b,54,1,2024-02-28T16:04:24.318Z,french_426.wav,0,pull,674,55,4,5,français,m,11,1.1,-70.77145759,1.0203891
5f90c32f69122f1cebd1cc0b,54,1,2024-02-28T16:04:24.318Z,french_426.wav,0,pull,674,55,4,5,français,m,12,1.14141667,-30.0338136,1.4169691
5f90c32f69122f1cebd1cc0b,55,1,2024-02-28T16:04:24.318Z,french_87.wav,0,poule,364,55,4,5,français,m,0,0.0,92.4660963,0.46305834
5f90c32f69122f1cebd1cc0b,55,1,2024-02-28T16:04:24.318Z,french_87.wav,0,poule,364,55,4,5,français,m,1,0.1,15.06427617,1.65512059
5f90c32f69122f1cebd1cc0b,55,1,2024-02-28T16:04:24.318Z,french_87.wav,0,poule,364,55,4,5,français,m,2,0.2,19.88587698,1.47687397
5f90c32f69122f1cebd1cc0b,55,1,2024-02-28T16:04:24.318Z,french_87.wav,0,poule,364,55,4,5,français,m,3,0.3,19.16381268,1.98465726
5f90c32f69122f1cebd1cc0b,55,1,2024-02-28T16:04:24.318Z,french_87.wav,0,poule,364,55,4,5,français,m,4,0.4,-43.83456388,0.88568527
5f90c32f69122f1cebd1cc0b,55,1,2024-02-28T16:04:24.318Z,french_87.wav,0,poule,364,55,4,5,français,m,5,0.5,-75.19485474,0.59200872
5f90c32f69122f1cebd1cc0b,55,1,2024-02-28T16:04:24.318Z,french_87.wav,0,poule,364,55,4,5,français,m,6,0.6,-41.9677828,1.00282805
5f90c32f69122f1cebd1cc0b,55,1,2024-02-28T16:04:24.318Z,french_87.wav,0,poule,364,55,4,5,français,m,7,0.7,48.89631163,0.36234637
5f90c32f69122f1cebd1cc0b,55,1,2024-02-28T16:04:24.318Z,french_87.wav,0,poule,364,55,4,5,français,m,8,0.8,59.57141731,1.86287014
5f90c32f69122f1cebd1cc0b,55,1,2024-02-28T16:04:24.318Z,french_87.wav,0,poule,364,55,4,5,français,m,9,0.9,-7.29688456,0.55653028
5f90c32f69122f1cebd1cc0b,55,1,2024-02-28T16:04:24.318Z,french_87.wav,0,poule,364,55,4,5,français,m,10,1.0,-56.30540489,1.69420603
5f90c32f69122f1cebd1cc0b,55,1,2024-02-28T16:04:24.318Z,french_87.wav,0,poule,364,55,4,5,français,m,11,1.1,-92.5665511,0.74268973
5f90c32f69122f1cebd1cc0b,55,1,2024-02-28T16:04:24.318Z,french_87.wav,0,poule,364,55,4,5,français,m,12,1.14141667,7.04899103,0.9328285
5f90c32f69122f1cebd1cc0b,56,1,2024-02-28T16:04:24.318Z,french_916.wav,0,pull,956,55,4,5,français,m,0,0.0,36.60514791,0.71192514
5f90c32f69122f1cebd1cc0b,56,1,2024-02-28T16:04:24.318Z,french_916.wav,0,pull,956,55,4,5,français,m,1,0.1,67.71028213,0.52787746
5f90c32f69122f1cebd1cc0b,56,1,2024-02-28T16:04:24.318Z,french_916.wav,0,pull,956,55,4,5,français,m,2,0.2,-14.627271,1.09974622
5f90c32f69122f1cebd1cc0b,56,1,2024-02-28T16:04:24.318Z,french_916.wav,0,pull,956,55,4,5,français,m,3,0.3,-96.69583428,1.70171287
5f90c32f69122f1cebd1cc0b,56,1,2024-02-28T16:04:24.318Z,french_916.wav,0,pull,956,55,4,5,français,m,4,0.4,6.99292361,0.41492285
5f90c32f69122f1cebd1cc0b,56,1,2024-02-28T16:04:24.318Z,french_916.wav,0,pull,956,55,4,5,français,m,5,0.5,98.33986356,0.32961241
5f90c32f69122f1cebd1cc0b,56,1,2024-02-28T16:04:24.318Z,french_916.wav,0,pull,956,55,4,5,français,m,6,0.6,-83.4018512,0.54015023
5f90c32f69122f1cebd1cc0b,56,1,2024-02-28T16:04:24.318Z,french_916.wav,0,pull,956,55,4,5,français,m,7,0.7,40.81394323,1.11593731
5f90c32f69122f1cebd1cc0b,56,1,2024-02-28T16:04:24.318Z,french_916.wav,0,pull,956,55,4,5,français,m,8,0.8,1.22546887,1.21943801
5f90c32f69122f1cebd1cc0b,56,1,2024-02-28T16:04:24.318Z,french_916.wav,0,pull,956,55,4,5,français,m,9,0.9,-0.4367378,0.4397667
5f90c32f69122f1cebd1cc0b,56,1,2024-02-28T16:04:24.318Z,french_916.wav,0,pull,956,55,4,5,français,m,10,1.0,11.82973509,0.30306907
5f90c32f69122f1cebd1cc0b,56,1,2024-02-28T16:04:24.318Z,french_916.wav,0,pull,956,55,4,5,français,m,11,1.1,1.50837578,0.95828899
5f90c32f69122f1cebd1cc0b,56,1,2024-02-28T16:04:24.318Z,french_916.wav,0,pull,956,55,4,5,français,m,12,1.14141667,22.61945616,0.74726021
5f90c32f69122f1cebd1cc0b,57,1,2024-02-28T16:04:24.318Z,french_981.wav,0,pull,1243,55,4,5,français,m,0,0.0,-38.08669269,1.67776231
5f90c32f69122f1cebd1cc0b,57,1,2024-02-28T16:04:24.318Z,french_981.wav,0,pull,1243,55,4,5,français,m,1,0.1,-73.93088907,1.4500739
5f90c32f69122f1cebd1cc0b,57,1,2024-02-28T16:04:24.318Z,french_981.wav,0,pull,1243,55,4,5,français,m,2,0.2,-88.32473941,1.60115886
5f90c32f69122f1cebd1cc0b,57,1,2024-02-28T16:04:24.318Z,french_981.wav,0,pull,1243,55,4,5,français,m,3,0.3,60.7364341,1.60462547
5f90c32f69122f1cebd1cc0b,57,1,2024-02-28T16:04:24.318Z,french_981.wav,0,pull,1243,55,4,5,français,m,4,0.4,-16.1524086,0.69020142
5f90c32f69122f1cebd1cc0b,57,1,2024-02-28T16:04:24.318Z,french_981.wav,0,pull,1243,55,4,5,français,m,5,0.5,-93.43340089,0.54737899
5f90c32f69122f1cebd1cc0b,57,1,2024-02-28T16:04:24.318Z,french_981.wav,0,pull,1243,55,4,5,français,m,6,0.6,-45.31120126,0.19731947
5f90c32f69122f1cebd1cc0b,57,1,2024-02-28T16:04:24.318Z,french_981.wav,0,pull,1243,55,4,5,français,m,7,0.7,-79.13047949,1.35276023
5f90c32f69122f1cebd1cc0b,57,1,2024-02-28T16:04:24.318Z,french_981.wav,0,pull,1243,55,4,5,français,m,8,0.8,72.11880398,0.09347094
5f90c32f69122f1cebd1cc0b,57,1,2024-02-28T16:04:24.318Z,french_981.wav,0,pull,1243,55,4,5,français,m,9,0.9,-24.42160512,0.88261019
5f90c32f69122f1cebd1cc0b,57,1,2024-02-28T16:04:24.318Z,french_981.wav,0,pull,1243,55,4,5,français,m,10,1.0,-37.42455043,0.20373219
5f90c32f69122f1cebd1cc0b,57,1,2024-02-28T16:04:24.318Z,french_981.wav,0,pull,1243,55,4,5,français,m,11,1.1,1.64695246,1.67203558
5f90c32f69122f1cebd1cc0b,57,1,2024-02-28T16:04:24.318Z,french_981.wav,0,pull,1243,55,4,5,français,m,12,1.14141667,92.37141996,1.72330196
5f90c32f69122f1cebd1cc0b,58,1,2024-02-28T16:04:24.318Z,french_511.wav,0,poule,663,55,4,5,français,m,0,0.0,68.45765267,0.68906271
5f90c32f69122f1cebd1cc0b,58,1,2024-02-28T16:04:24.318Z,french_511.wav,0,poule,663,55,4,5,français,m,1,0.1,-8.95520239,1.35083961
5f90c32f69122f1cebd1cc0b,58,1,2024-02-28T16:04:24.318Z,french_511.wav,0,poule,663,55,4,5,français,m,2,0.2,44.78754761,0.86739012
5f90c32f69122f1cebd1cc0b,58,1,2024-02-28T16:04:24.318Z,french_511.wav,0,poule,663,55,4,5,français,m,3,0.3,48.7554288,0.74272649
5f90c32f69122f1cebd1cc0b,58,1,2024-02-28T16:04:24.318Z,french_511.wav,0,poule,663,55,4,5,français,m,4,0.4,41.20564236,1.27472163
5f90c32f69122f1cebd1cc0b,58,1,2024-02-28T16:04:24.318Z,french_511.wav,0,poule,663,55,4,5,français,m,5,0.5,74.46096489,0.69400452
5f90c32f69122f1cebd1cc0b,58,1,2024-02-28T16:04:24.318Z,french_511.wav,0,poule,663,55,4,5,français,m,6,0.6,-92.19481722,0.63157953
5f90c32f69122f1cebd1cc0b,58,1,2024-02-28T16:04:24.318Z,french_511.wav,0,poule,663,55,4,5,français,m,7,0.7,70.54554277,1.62489355
5f90c32f69122f1cebd1cc0b,58,1,2024-02-28T16:04:24.318Z,french_511.wav,0,poule,663,55,4,5,français,m,8,0.8,-89.98216972,1.1631817
5f90c32f69122f1cebd1cc0b,58,1,2024-02-28T16:04:24.318Z,french_511.wav,0,poule,663,55,4,5,français,m,9,0.9,96.36310752,1.80808524
5f90c32f69122f1cebd1cc0b,58,1,2024-02-28T16:04:24.318Z,french_511.wav,0,poule,663,55,4,5,français,m,10,1.0,-57.15318896,1.87485338
5f90c32f69122f1cebd1cc0b,58,1,2024-02-28T16:04:24.318Z,french_511.wav,0,poule,663,55,4,5,français,m,11,1.1,-15.3628732,0.63700297
5f90c32f69122f1cebd1cc0b,58,1,2024-02-28T16:04:24.318Z,french_511.wav,0,poule,663,55,4,5,français,m,12,1.14141667,-40.17140688,1.56626139
5f90c32f69122f1cebd1cc0b,59,1,2024-02-28T16:04:24.318Z,french_260.wav,0,pull,1635,55,4,5,français,m,0,0.0,-53.54532591,1.79603491
5f90c32f69122f1cebd1cc0b,59,1,2024-02-28T16:04:24.318Z,french_260.wav,0,pull,1635,55,4,5,français,m,1,0.1,35.21996958,1.47877738
5f90c32f69122f1cebd1cc0b,59,1,2024-02-28T16:04:24.318Z,french_260.wav,0,pull,1635,55,4,5,français,m,2,0.2,-90.61068842,1.16082327
