subj,trial,block,date,stim,stim_order,response,rt,age,english,french,language,sex,param_index,segment,pitch,stretch
60ae750dbba4a1822e957e68,0,0,2024-02-24T08:19:56.906Z,french_152.wav,0,poule,6114,38,5,5,francais,m,0,0.0,22.60875431,0.83599951
60ae750dbba4a1822e957e68,0,0,2024-02-24T08:19:56.906Z,french_152.wav,0,poule,6114,38,5,5,francais,m,1,0.1,14.43122851,1.5682517
60ae750dbba4a1822e957e68,0,0,2024-02-24T08:19:56.906Z,french_152.wav,0,poule,6114,38,5,5,francais,m,2,0.2,-1.17604154,1.13690913
60ae750dbba4a1822e957e68,0,0,2024-02-24T08:19:56.906Z,french_152.wav,0,poule,6114,38,5,5,francais,m,3,0.3,99.62569478,0.25393691
60ae750dbba4a1822e957e68,0,0,2024-02-24T08:19:56.906Z,french_152.wav,0,poule,6114,38,5,5,francais,m,4,0.4,-64.65569176,0.7777625
60ae750dbba4a1822e957e68,0,0,2024-02-24T08:19:56.906Z,french_152.wav,0,poule,6114,38,5,5,francais,m,5,0.5,-41.8275267,0.49994145
60ae750dbba4a1822e957e68,0,0,2024-02-24T08:19:56.906Z,french_152.wav,0,poule,6114,38,5,5,francais,m,6,0.6,34.66502166,0.40465775
60ae750dbba4a1822e957e68,0,0,2024-02-24T08:19:56.906Z,french_152.wav,0,poule,6114,38,5,5,francais,m,7,0.7,-34.34381975,1.59194632
60ae750dbba4a1822e957e68,0,0,2024-02-24T08:19:56.906Z,french_152.wav,0,poule,6114,38,5,5,francais,m,8,0.8,-81.02141252,1.86410196
60ae750dbba4a1822e957e68,0,0,2024-02-24T08:19:56.906Z,french_152.wav,0,poule,6114,38,5,5,francais,m,9,0.9,-5.97302513,1.45014204
60ae750dbba4a1822e957e68,0,0,2024-02-24T08:19:56.906Z,french_152.wav,0,poule,6114,38,5,5,francais,m,10,1.0,-9.83226783,1.09472926
60ae750dbba4a1822e957e68,0,0,2024-02-24T08:19:56.906Z,french_152.wav,0,poule,6114,38,5,5,francais,m,11,1.1,-81.65012796,1.56254354
60ae750dbba4a1822e957e68,0,0,2024-02-24T08:19:56.906Z,french_152.wav,0,poule,6114,38,5,5,francais,m,12,1.14141667,-85.13057585,1.24100029
60ae750dbba4a1822e957e68,1,0,2024-02-24T08:19:56.906Z,french_379.wav,0,poule,3462,38,5,5,francais,m,0,0.0,92.35208151,0.11616284
60ae750dbba4a1822e957e68,1,0,2024-02-24T08:19:56.906Z,french_379.wav,0,poule,3462,38,5,5,francais,m,1,0.1,-25.91567626,0.27217006
60ae750dbba4a1822e957e68,1,0,2024-02-24T08:19:56.906Z,french_379.wav,0,poule,3462,38,5,5,francais,m,2,0.2,-77.118008,0.89509921
60ae750dbba4a1822e957e68,1,0,2024-02-24T08:19:56.906Z,french_379.wav,0,poule,3462,38,5,5,francais,m,3,0.3,29.86283118,0.0899849
60ae750dbba4a1822e957e68,1,0,2024-02-24T08:19:56.906Z,french_379.wav,0,poule,3462,38,5,5,francais,m,4,0.4,-82.08951689,1.97506173
60ae750dbba4a1822e957e68,1,0,2024-02-24T08:19:56.906Z,french_379.wav,0,poule,3462,38,5,5,francais,m,5,0.5,-83.67767675,1.23110802
60ae750dbba4a1822e957e68,1,0,2024-02-24T08:19:56.906Z,french_379.wav,0,poule,3462,38,5,5,francais,m,6,0.6,-86.47421564,1.35680108
60ae750dbba4a1822e957e68,1,0,2024-02-24T08:19:56.906Z,french_379.wav,0,poule,3462,38,5,5,francais,m,7,0.7,-6.33610425,0.07151016
60ae750dbba4a1822e957e68,1,0,2024-02-24T08:19:56.906Z,french_379.wav,0,poule,3462,38,5,5,francais,m,8,0.8,1.07303098,1.17075437
60ae750dbba4a1822e957e68,1,0,2024-02-24T08:19:56.906Z,french_379.wav,0,poule,3462,38,5,5,francais,m,9,0.9,-96.07937115,1.73539261
60ae750dbba4a1822e957e68,1,0,2024-02-24T08:19:56.906Z,french_379.wav,0,poule,3462,38,5,5,francais,m,10,1.0,-53.89727413,0.96881955
60ae750dbba4a1822e957e68,1,0,2024-02-24T08:19:56.906Z,french_379.wav,0,poule,3462,38,5,5,francais,m,11,1.1,72.38399251,1.26167389
60ae750dbba4a1822e957e68,1,0,2024-02-24T08:19:56.906Z,french_379.wav,0,poule,3462,38,5,5,francais,m,12,1.14141667,18.55821878,1.82038754
60ae750dbba4a1822e957e68,2,0,2024-02-24T08:19:56.906Z,french_913.wav,0,pull,8216,38,5,5,francais,m,0,0.0,-47.25134073,0.04335797
60ae750dbba4a1822e957e68,2,0,2024-02-24T08:19:56.906Z,french_913.wav,0,pull,8216,38,5,5,francais,m,1,0.1,-82.39617775,1.67103064
60ae750dbba4a1822e957e68,2,0,2024-02-24T08:19:56.906Z,french_913.wav,0,pull,8216,38,5,5,francais,m,2,0.2,-49.77107224,0.81708714
60ae750dbba4a1822e957e68,2,0,2024-02-24T08:19:56.906Z,french_913.wav,0,pull,8216,38,5,5,francais,m,3,0.3,-65.18926328,1.28520765
60ae750dbba4a1822e957e68,2,0,2024-02-24T08:19:56.906Z,french_913.wav,0,pull,8216,38,5,5,francais,m,4,0.4,-21.76681249,1.7369454
60ae750dbba4a1822e957e68,2,0,2024-02-24T08:19:56.906Z,french_913.wav,0,pull,8216,38,5,5,francais,m,5,0.5,25.27312638,1.03142804
60ae750dbba4a1822e957e68,2,0,2024-02-24T08:19:56.906Z,french_913.wav,0,pull,8216,38,5,5,francais,m,6,0.6,55.78406259,0.74912627
60ae750dbba4a1822e957e68,2,0,2024-02-24T08:19:56.906Z,french_913.wav,0,pull,8216,38,5,5,francais,m,7,0.7,-27.8783869,1.88947917
60ae750dbba4a1822e957e68,2,0,2024-02-24T08:19:56.906Z,french_913.wav,0,pull,8216,38,5,5,francais,m,8,0.8,-52.69419859,0.39822081
60ae750dbba4a1822e957e68,2,0,2024-02-24T08:19:56.906Z,french_913.wav,0,pull,8216,38,5,5,francais,m,9,0.9,99.44571929,0.52497493
60ae750dbba4a1822e957e68,2,0,2024-02-24T08:19:56.906Z,french_913.wav,0,pull,8216,38,5,5,francais,m,10,1.0,87.33615919,1.60117884
60ae750dbba4a1822e957e68,2,0,2024-02-24T08:19:56.906Z,french_913.wav,0,pull,8216,38,5,5,francais,m,11,1.1,46.22614126,1.53649436
60ae750dbba4a1822e957e68,2,0,2024-02-24T08:19:56.906Z,french_913.wav,0,pull,8216,38,5,5,francais,m,12,1.14141667,-71.95970705,0.49650592
60ae750dbba4a1822e957e68,3,0,2024-02-24T08:19:56.906Z,french_216.wav,0,poule,2785,38,5,5,francais,m,0,0.0,-60.17810311,1.55322104
60ae750dbba4a1822e957e68,3,0,2024-02-24T08:19:56.906Z,french_216.wav,0,poule,2785,38,5,5,francais,m,1,0.1,11.42252773,1.00304409
60ae750dbba4a1822e957e68,3,0,2024-02-24T08:19:56.906Z,french_216.wav,0,poule,2785,38,5,5,francais,m,2,0.2,-56.55439893,0.02981525
60ae750dbba4a1822e957e68,3,0,2024-02-24T08:19:56.906Z,french_216.wav,0,poule,2785,38,5,5,francais,m,3,0.3,-80.03421186,1.36759869
60ae750dbba4a1822e957e68,3,0,2024-02-24T08:19:56.906Z,french_216.wav,0,poule,2785,38,5,5,francais,m,4,0.4,-80.18888981,0.05691451
60ae750dbba4a1822e957e68,3,0,2024-02-24T08:19:56.906Z,french_216.wav,0,poule,2785,38,5,5,francais,m,5,0.5,5.79858175,1.70282351
60ae750dbba4a1822e957e68,3,0,2024-02-24T08:19:56.906Z,french_216.wav,0,poule,2785,38,5,5,francais,m,6,0.6,13.53577994,0.34437275
60ae750dbba4a1822e957e68,3,0,2024-02-24T08:19:56.906Z,french_216.wav,0,poule,2785,38,5,5,francais,m,7,0.7,-40.39198044,1.08997785
60ae750dbba4a1822e957e68,3,0,2024-02-24T08:19:56.906Z,french_216.wav,0,poule,2785,38,5,5,francais,m,8,0.8,92.2878797,0.90763246
60ae750dbba4a1822e957e68,3,0,2024-02-24T08:19:56.906Z,french_216.wav,0,poule,2785,38,5,5,francais,m,9,0.9,-9.2786245,0.73661202
60ae750dbba4a1822e957e68,3,0,2024-02-24T08:19:56.906Z,french_216.wav,0,poule,2785,38,5,5,francais,m,10,1.0,74.67011589,0.85986577
60ae750dbba4a1822e957e68,3,0,2024-02-24T08:19:56.906Z,french_216.wav,0,poule,2785,38,5,5,francais,m,11,1.1,-31.97031309,1.06794363
60ae750dbba4a1822e957e68,3,0,2024-02-24T08:19:56.906Z,french_216.wav,0,poule,2785,38,5,5,francais,m,12,1.14141667,-30.83960704,1.05869648
60ae750dbba4a1822e957e68,4,0,2024-02-24T08:19:56.906Z,french_410.wav,0,pull,3493,38,5,5,francais,m,0,0.0,-13.61010892,0.12499196
60ae750dbba4a1822e957e68,4,0,2024-02-24T08:19:56.906Z,french_410.wav,0,pull,3493,38,5,5,francais,m,1,0.1,77.81547095,1.21899276
60ae750dbba4a1822e957e68,4,0,2024-02-24T08:19:56.906Z,french_410.wav,0,pull,3493,38,5,5,francais,m,2,0.2,82.13695373,1.54170327
60ae750dbba4a1822e957e68,4,0,2024-02-24T08:19:56.906Z,french_410.wav,0,pull,3493,38,5,5,francais,m,3,0.3,-16.93458416,0.12135823
60ae750dbba4a1822e957e68,4,0,2024-02-24T08:19:56.906Z,french_410.wav,0,pull,3493,38,5,5,francais,m,4,0.4,-8.61826003,0.17314322
60ae750dbba4a1822e957e68,4,0,2024-02-24T08:19:56.906Z,french_410.wav,0,pull,3493,38,5,5,francais,m,5,0.5,-33.26612631,0.58788453
60ae750dbba4a1822e957e68,4,0,2024-02-24T08:19:56.906Z,french_410.wav,0,pull,3493,38,5,5,francais,m,6,0.6,40.79154832,1.09892225
60ae750dbba4a1822e957e68,4,0,2024-02-24T08:19:56.906Z,french_410.wav,0,pull,3493,38,5,5,francais,m,7,0.7,66.55884445,0.15132796
60ae750dbba4a1822e957e68,4,0,2024-02-24T08:19:56.906Z,french_410.wav,0,pull,3493,38,5,5,francais,m,8,0.8,86.34165637,0.64125421
60ae750dbba4a1822e957e68,4,0,2024-02-24T08:19:56.906Z,french_410.wav,0,pull,3493,38,5,5,francais,m,9,0.9,91.11355202,0.30485539
60ae750dbba4a1822e957e68,4,0,2024-02-24T08:19:56.906Z,french_410.wav,0,pull,3493,38,5,5,francais,m,10,1.0,-30.27955269,0.74953125
60ae750dbba4a1822e957e68,4,0,2024-02-24T08:19:56.906Z,french_410.wav,0,pull,3493,38,5,5,francais,m,11,1.1,52.51274623,1.17085768
60ae750dbba4a1822e957e68,4,0,2024-02-24T08:19:56.906Z,french_410.wav,0,pull,3493,38,5,5,francais,m,12,1.14141667,95.54585368,1.8491146
60ae750dbba4a1822e957e68,5,0,2024-02-24T08:19:56.906Z,french_921.wav,0,pull,1618,38,5,5,francais,m,0,0.0,-22.48407438,0.56788331
60ae750dbba4a1822e957e68,5,0,2024-02-24T08:19:56.906Z,french_921.wav,0,pull,1618,38,5,5,francais,m,1,0.1,96.20023213,0.48037084
60ae750dbba4a1822e957e68,5,0,2024-02-24T08:19:56.906Z,french_921.wav,0,pull,1618,38,5,5,francais,m,2,0.2,-26.96111018,1.28513603
60ae750dbba4a1822e957e68,5,0,2024-02-24T08:19:56.906Z,french_921.wav,0,pull,1618,38,5,5,francais,m,3,0.3,-4.61285821,0.47395862
60ae750dbba4a1822e957e68,5,0,2024-02-24T08:19:56.906Z,french_921.wav,0,pull,1618,38,5,5,francais,m,4,0.4,-41.60418228,1.80498459
60ae750dbba4a1822e957e68,5,0,2024-02-24T08:19:56.906Z,french_921.wav,0,pull,1618,38,5,5,francais,m,5,0.5,16.2616983,1.788566
60ae750dbba4a1822e957e68,5,0,2024-02-24T08:19:56.906Z,french_921.wav,0,pull,1618,38,5,5,francais,m,6,0.6,40.35336686,0.45002982
60ae750dbba4a1822e957e68,5,0,2024-02-24T08:19:56.906Z,french_921.wav,0,pull,1618,38,5,5,francais,m,7,0.7,-44.63732317,0.17970155
60ae750dbba4a1822e957e68,5,0,2024-02-24T08:19:56.906Z,french_921.wav,0,pull,1618,38,5,5,francais,m,8,0.8,58.4442517,0.55049439
60ae750dbba4a1822e957e68,5,0,2024-02-24T08:19:56.906Z,french_921.wav,0,pull,1618,38,5,5,francais,m,9,0.9,9.84257376,0.16897134
60ae750dbba4a1822e957e68,5,0,2024-02-24T08:19:56.906Z,french_921.wav,0,pull,1618,38,5,5,francais,m,10,1.0,41.47094552,0.81111626
60ae750dbba4a1822e957e68,5,0,2024-02-24T08:19:56.906Z,french_921.wav,0,pull,1618,38,5,5,francais,m,11,1.1,-30.9925565,1.40036405
60ae750dbba4a1822e957e68,5,0,2024-02-24T08:19:56.906Z,french_921.wav,0,pull,1618,38,5,5,francais,m,12,1.14141667,23.41632399,1.37522971
60ae750dbba4a1822e957e68,6,0,2024-02-24T08:19:56.906Z,french_247.wav,0,poule,1032,38,5,5,francais,m,0,0.0,87.28160699,1.75163706
60ae750dbba4a1822e957e68,6,0,2024-02-24T08:19:56.906Z,french_247.wav,0,poule,1032,38,5,5,francais,m,1,0.1,54.41631338,0.7463051
60ae750dbba4a1822e957e68,6,0,2024-02-24T08:19:56.906Z,french_247.wav,0,poule,1032,38,5,5,francais,m,2,0.2,37.94276377,0.54290341
60ae750dbba4a1822e957e68,6,0,2024-02-24T08:19:56.906Z,french_247.wav,0,poule,1032,38,5,5,francais,m,3,0.3,-67.22196437,0.62982968
60ae750dbba4a1822e957e68,6,0,2024-02-24T08:19:56.906Z,french_247.wav,0,poule,1032,38,5,5,francais,m,4,0.4,-92.34211051,1.66450544
60ae750dbba4a1822e957e68,6,0,2024-02-24T08:19:56.906Z,french_247.wav,0,poule,1032,38,5,5,francais,m,5,0.5,78.48957529,0.11949556
60ae750dbba4a1822e957e68,6,0,2024-02-24T08:19:56.906Z,french_247.wav,0,poule,1032,38,5,5,francais,m,6,0.6,-77.60666308,0.59857061
60ae750dbba4a1822e957e68,6,0,2024-02-24T08:19:56.906Z,french_247.wav,0,poule,1032,38,5,5,francais,m,7,0.7,89.04290108,1.16504801
60ae750dbba4a1822e957e68,6,0,2024-02-24T08:19:56.906Z,french_247.wav,0,poule,1032,38,5,5,francais,m,8,0.8,95.38463118,1.98824202
60ae750dbba4a1822e957e68,6,0,2024-02-24T08:19:56.906Z,french_247.wav,0,poule,1032,38,5,5,francais,m,9,0.9,-13.6171851,1.58326229
60ae750dbba4a1822e957e68,6,0,2024-02-24T08:19:56.906Z,french_247.wav,0,poule,1032,38,5,5,francais,m,10,1.0,-62.96426983,1.7730941
60ae750dbba4a1822e957e68,6,0,2024-02-24T08:19:56.906Z,french_247.wav,0,poule,1032,38,5,5,francais,m,11,1.1,10.74028895,1.01142382
60ae750dbba4a1822e957e68,6,0,2024-02-24T08:19:56.906Z,french_247.wav,0,poule,1032,38,5,5,francais,m,12,1.14141667,30.61570069,1.22213948
60ae750dbba4a1822e957e68,7,0,2024-02-24T08:19:56.906Z,french_692.wav,0,poule,780,38,5,5,francais,m,0,0.0,-3.63018758,1.78860692
60ae750dbba4a1822e957e68,7,0,2024-02-24T08:19:56.906Z,french_692.wav,0,poule,780,38,5,5,francais,m,1,0.1,-68.16293379,0.86300874
60ae750dbba4a1822e957e68,7,0,2024-02-24T08:19:56.906Z,french_692.wav,0,poule,780,38,5,5,francais,m,2,0.2,94.54361928,1.08735966
60ae750dbba4a1822e957e68,7,0,2024-02-24T08:19:56.906Z,french_692.wav,0,poule,780,38,5,5,francais,m,3,0.3,25.0958546,0.96562877
60ae750dbba4a1822e957e68,7,0,2024-02-24T08:19:56.906Z,french_692.wav,0,poule,780,38,5,5,francais,m,4,0.4,-99.12905949,1.65441916
60ae750dbba4a1822e957e68,7,0,2024-02-24T08:19:56.906Z,french_692.wav,0,poule,780,38,5,5,francais,m,5,0.5,-47.00596257,1.19889603
60ae750dbba4a1822e957e68,7,0,2024-02-24T08:19:56.906Z,french_692.wav,0,poule,780,38,5,5,francais,m,6,0.6,-38.46033818,0.04010608
60ae750dbba4a1822e957e68,7,0,2024-02-24T08:19:56.906Z,french_692.wav,0,poule,780,38,5,5,francais,m,7,0.7,-52.37005629,0.99288232
60ae750dbba4a1822e957e68,7,0,2024-02-24T08:19:56.906Z,french_692.wav,0,poule,780,38,5,5,francais,m,8,0.8,29.27180561,1.70634134
60ae750dbba4a1822e957e68,7,0,2024-02-24T08:19:56.906Z,french_692.wav,0,poule,780,38,5,5,francais,m,9,0.9,-18.83326647,0.96715022
60ae750dbba4a1822e957e68,7,0,2024-02-24T08:19:56.906Z,french_692.wav,0,poule,780,38,5,5,francais,m,10,1.0,-60.91466225,1.75736357
60ae750dbba4a1822e957e68,7,0,2024-02-24T08:19:56.906Z,french_692.wav,0,poule,780,38,5,5,francais,m,11,1.1,-20.82797719,1.93453934
60ae750dbba4a1822e957e68,7,0,2024-02-24T08:19:56.906Z,french_692.wav,0,poule,780,38,5,5,francais,m,12,1.14141667,-55.17315813,0.43289188
60ae750dbba4a1822e957e68,8,0,2024-02-24T08:19:56.906Z,french_609.wav,0,poule,719,38,5,5,francais,m,0,0.0,-33.0990358,1.60128012
60ae750dbba4a1822e957e68,8,0,2024-02-24T08:19:56.906Z,french_609.wav,0,poule,719,38,5,5,francais,m,1,0.1,-76.8855135,1.70842232
60ae750dbba4a1822e957e68,8,0,2024-02-24T08:19:56.906Z,french_609.wav,0,poule,719,38,5,5,francais,m,2,0.2,-77.09744455,1.82827546
60ae750dbba4a1822e957e68,8,0,2024-02-24T08:19:56.906Z,french_609.wav,0,poule,719,38,5,5,francais,m,3,0.3,53.13274146,0.14742697
60ae750dbba4a1822e957e68,8,0,2024-02-24T08:19:56.906Z,french_609.wav,0,poule,719,38,5,5,francais,m,4,0.4,35.37902203,1.25283251
60ae750dbba4a1822e957e68,8,0,2024-02-24T08:19:56.906Z,french_609.wav,0,poule,719,38,5,5,francais,m,5,0.5,20.34548248,0.26386793
60ae750dbba4a1822e957e68,8,0,2024-02-24T08:19:56.906Z,french_609.wav,0,poule,719,38,5,5,francais,m,6,0.6,-6.72304145,0.83898533
60ae750dbba4a1822e957e68,8,0,2024-02-24T08:19:56.906Z,french_609.wav,0,poule,719,38,5,5,francais,m,7,0.7,18.07732321,0.31703682
60ae750dbba4a1822e957e68,8,0,2024-02-24T08:19:56.906Z,french_609.wav,0,poule,719,38,5,5,francais,m,8,0.8,95.53940519,1.359658
60ae750dbba4a1822e957e68,8,0,2024-02-24T08:19:56.906Z,french_609.wav,0,poule,719,38,5,5,francais,m,9,0.9,-92.74085832,1.06120925
60ae750dbba4a1822e957e68,8,0,2024-02-24T08:19:56.906Z,french_609.wav,0,poule,719,38,5,5,francais,m,10,1.0,56.61461398,1.23233063
60ae750dbba4a1822e957e68,8,0,2024-02-24T08:19:56.906Z,french_609.wav,0,poule,719,38,5,5,francais,m,11,1.1,-30.80451212,0.16135233
60ae750dbba4a1822e957e68,8,0,2024-02-24T08:19:56.906Z,french_609.wav,0,poule,719,38,5,5,francais,m,12,1.14141667,-4.98965675,1.719186
60ae750dbba4a1822e957e68,9,0,2024-02-24T08:19:56.906Z,french_438.wav,0,poule,4590,38,5,5,francais,m,0,0.0,43.13117395,0.60174175
60ae750dbba4a1822e957e68,9,0,2024-02-24T08:19:56.906Z,french_438.wav,0,poule,4590,38,5,5,francais,m,1,0.1,-96.19122477,1.82890944
60ae750dbba4a1822e957e68,9,0,2024-02-24T08:19:56.906Z,french_438.wav,0,poule,4590,38,5,5,francais,m,2,0.2,2.45935204,0.13586503
60ae750dbba4a1822e957e68,9,0,2024-02-24T08:19:56.906Z,french_438.wav,0,poule,4590,38,5,5,francais,m,3,0.3,15.27272703,1.07865646
60ae750dbba4a1822e957e68,9,0,2024-02-24T08:19:56.906Z,french_438.wav,0,poule,4590,38,5,5,francais,m,4,0.4,26.47355935,1.62969028
60ae750dbba4a1822e957e68,9,0,2024-02-24T08:19:56.906Z,french_438.wav,0,poule,4590,38,5,5,francais,m,5,0.5,89.52569862,0.68123355
60ae750dbba4a1822e957e68,9,0,2024-02-24T08:19:56.906Z,french_438.wav,0,poule,4590,38,5,5,francais,m,6,0.6,61.94808616,1.92819184
60ae750dbba4a1822e957e68,9,0,2024-02-24T08:19:56.906Z,french_438.wav,0,poule,4590,38,5,5,francais,m,7,0.7,-12.05040884,1.42294884
60ae750dbba4a1822e957e68,9,0,2024-02-24T08:19:56.906Z,french_438.wav,0,poule,4590,38,5,5,francais,m,8,0.8,69.46484253,0.89758032
60ae750dbba4a1822e957e68,9,0,2024-02-24T08:19:56.906Z,french_438.wav,0,poule,4590,38,5,5,francais,m,9,0.9,-61.92633994,1.76206692
60ae750dbba4a1822e957e68,9,0,2024-02-24T08:19:56.906Z,french_438.wav,0,poule,4590,38,5,5,francais,m,10,1.0,68.08285091,1.82226832
60ae750dbba4a1822e957e68,9,0,2024-02-24T08:19:56.906Z,french_438.wav,0,poule,4590,38,5,5,francais,m,11,1.1,37.23495274,0.67576012
60ae750dbba4a1822e957e68,9,0,2024-02-24T08:19:56.906Z,french_438.wav,0,poule,4590,38,5,5,francais,m,12,1.14141667,-33.15221386,1.67391689
60ae750dbba4a1822e957e68,10,0,2024-02-24T08:19:56.906Z,french_268.wav,0,pull,1115,38,5,5,francais,m,0,0.0,-90.17309363,1.87145696
60ae750dbba4a1822e957e68,10,0,2024-02-24T08:19:56.906Z,french_268.wav,0,pull,1115,38,5,5,francais,m,1,0.1,7.72676812,1.66378637
60ae750dbba4a1822e957e68,10,0,2024-02-24T08:19:56.906Z,french_268.wav,0,pull,1115,38,5,5,francais,m,2,0.2,-17.47785998,0.26930884
60ae750dbba4a1822e957e68,10,0,2024-02-24T08:19:56.906Z,french_268.wav,0,pull,1115,38,5,5,francais,m,3,0.3,-68.38186843,1.52031218
60ae750dbba4a1822e957e68,10,0,2024-02-24T08:19:56.906Z,french_268.wav,0,pull,1115,38,5,5,francais,m,4,0.4,-68.90464699,0.92093983
60ae750dbba4a1822e957e68,10,0,2024-02-24T08:19:56.906Z,french_268.wav,0,pull,1115,38,5,5,francais,m,5,0.5,-60.03371115,1.79094401
60ae750dbba4a1822e957e68,10,0,2024-02-24T08:19:56.906Z,french_268.wav,0,pull,1115,38,5,5,francais,m,6,0.6,54.95042453,1.54867869
60ae750dbba4a1822e957e68,10,0,2024-02-24T08:19:56.906Z,french_268.wav,0,pull,1115,38,5,5,francais,m,7,0.7,-61.89102348,1.2478237
60ae750dbba4a1822e957e68,10,0,2024-02-24T08:19:56.906Z,french_268.wav,0,pull,1115,38,5,5,francais,m,8,0.8,-92.43644205,0.54208793
60ae750dbba4a1822e957e68,10,0,2024-02-24T08:19:56.906Z,french_268.wav,0,pull,1115,38,5,5,francais,m,9,0.9,-85.74845922,0.78885357
60ae750dbba4a1822e957e68,10,0,2024-02-24T08:19:56.906Z,french_268.wav,0,pull,1115,38,5,5,francais,m,10,1.0,-67.45378327,1.38787262
60ae750dbba4a1822e957e68,10,0,2024-02-24T08:19:56.906Z,french_268.wav,0,pull,1115,38,5,5,francais,m,11,1.1,-69.51500294,1.61364817
60ae750dbba4a1822e957e68,10,0,2024-02-24T08:19:56.906Z,french_268.wav,0,pull,1115,38,5,5,francais,m,12,1.14141667,25.86880955,0.52503336
60ae750dbba4a1822e957e68,11,0,2024-02-24T08:19:56.906Z,french_713.wav,0,pull,791,38,5,5,francais,m,0,0.0,-37.43474567,1.24372469
60ae750dbba4a1822e957e68,11,0,2024-02-24T08:19:56.906Z,french_713.wav,0,pull,791,38,5,5,francais,m,1,0.1,99.965975,0.93707229
60ae750dbba4a1822e957e68,11,0,2024-02-24T08:19:56.906Z,french_713.wav,0,pull,791,38,5,5,francais,m,2,0.2,59.45839073,1.24132484
60ae750dbba4a1822e957e68,11,0,2024-02-24T08:19:56.906Z,french_713.wav,0,pull,791,38,5,5,francais,m,3,0.3,-25.31478906,0.8696724
60ae750dbba4a1822e957e68,11,0,2024-02-24T08:19:56.906Z,french_713.wav,0,pull,791,38,5,5,francais,m,4,0.4,5.71723288,1.68662747
60ae750dbba4a1822e957e68,11,0,2024-02-24T08:19:56.906Z,french_713.wav,0,pull,791,38,5,5,francais,m,5,0.5,36.1118223,0.63259997
60ae750dbba4a1822e957e68,11,0,2024-02-24T08:19:56.906Z,french_713.wav,0,pull,791,38,5,5,francais,m,6,0.6,-56.37110024,1.92165301
60ae750dbba4a1822e957e68,11,0,2024-02-24T08:19:56.906Z,french_713.wav,0,pull,791,38,5,5,francais,m,7,0.7,-24.52303614,1.34711854
60ae750dbba4a1822e957e68,11,0,2024-02-24T08:19:56.906Z,french_713.wav,0,pull,791,38,5,5,francais,m,8,0.8,-2.49025769,0.32122443
60ae750dbba4a1822e957e68,11,0,2024-02-24T08:19:56.906Z,french_713.wav,0,pull,791,38,5,5,francais,m,9,0.9,21.24369228,0.60636845
60ae750dbba4a1822e957e68,11,0,2024-02-24T08:19:56.906Z,french_713.wav,0,pull,791,38,5,5,francais,m,10,1.0,-2.82246083,1.76664037
60ae750dbba4a1822e957e68,11,0,2024-02-24T08:19:56.906Z,french_713.wav,0,pull,791,38,5,5,francais,m,11,1.1,-3.3969212,1.5841005
60ae750dbba4a1822e957e68,11,0,2024-02-24T08:19:56.906Z,french_713.wav,0,pull,791,38,5,5,francais,m,12,1.14141667,-49.20963854,1.28542725
60ae750dbba4a1822e957e68,12,0,2024-02-24T08:19:56.906Z,french_458.wav,0,poule,3855,38,5,5,francais,m,0,0.0,-9.50766831,1.22883205
60ae750dbba4a1822e957e68,12,0,2024-02-24T08:19:56.906Z,french_458.wav,0,poule,3855,38,5,5,francais,m,1,0.1,42.93423473,1.97283167
60ae750dbba4a1822e957e68,12,0,2024-02-24T08:19:56.906Z,french_458.wav,0,poule,3855,38,5,5,francais,m,2,0.2,-35.25099644,0.2630832
60ae750dbba4a1822e957e68,12,0,2024-02-24T08:19:56.906Z,french_458.wav,0,poule,3855,38,5,5,francais,m,3,0.3,-21.12424967,1.57587361
60ae750dbba4a1822e957e68,12,0,2024-02-24T08:19:56.906Z,french_458.wav,0,poule,3855,38,5,5,francais,m,4,0.4,88.8263871,1.57260938
60ae750dbba4a1822e957e68,12,0,2024-02-24T08:19:56.906Z,french_458.wav,0,poule,3855,38,5,5,francais,m,5,0.5,-40.0858464,1.32200512
60ae750dbba4a1822e957e68,12,0,2024-02-24T08:19:56.906Z,french_458.wav,0,poule,3855,38,5,5,francais,m,6,0.6,47.86966009,0.7357165
60ae750dbba4a1822e957e68,12,0,2024-02-24T08:19:56.906Z,french_458.wav,0,poule,3855,38,5,5,francais,m,7,0.7,4.01017738,0.40421915
60ae750dbba4a1822e957e68,12,0,2024-02-24T08:19:56.906Z,french_458.wav,0,poule,3855,38,5,5,francais,m,8,0.8,39.64619026,0.89504993
60ae750dbba4a1822e957e68,12,0,2024-02-24T08:19:56.906Z,french_458.wav,0,poule,3855,38,5,5,francais,m,9,0.9,-44.5526031,1.47670046
60ae750dbba4a1822e957e68,12,0,2024-02-24T08:19:56.906Z,french_458.wav,0,poule,3855,38,5,5,francais,m,10,1.0,99.06586971,0.22243202
60ae750dbba4a1822e957e68,12,0,2024-02-24T08:19:56.906Z,french_458.wav,0,poule,3855,38,5,5,francais,m,11,1.1,-77.88778656,0.95591191
60ae750dbba4a1822e957e68,12,0,2024-02-24T08:19:56.906Z,french_458.wav,0,poule,3855,38,5,5,francais,m,12,1.14141667,-50.98752312,0.35484095
60ae750dbba4a1822e957e68,13,0,2024-02-24T08:19:56.906Z,french_506.wav,0,poule,2956,38,5,5,francais,m,0,0.0,-87.05114528,0.75685483
60ae750dbba4a1822e957e68,13,0,2024-02-24T08:19:56.906Z,french_506.wav,0,poule,2956,38,5,5,francais,m,1,0.1,-77.86066202,0.21255667
60ae750dbba4a1822e957e68,13,0,2024-02-24T08:19:56.906Z,french_506.wav,0,poule,2956,38,5,5,francais,m,2,0.2,52.75337557,1.57179702
60ae750dbba4a1822e957e68,13,0,2024-02-24T08:19:56.906Z,french_506.wav,0,poule,2956,38,5,5,francais,m,3,0.3,25.87417745,1.16483377
60ae750dbba4a1822e957e68,13,0,2024-02-24T08:19:56.906Z,french_506.wav,0,poule,2956,38,5,5,francais,m,4,0.4,-24.91493329,0.62640737
60ae750dbba4a1822e957e68,13,0,2024-02-24T08:19:56.906Z,french_506.wav,0,poule,2956,38,5,5,francais,m,5,0.5,-32.59613326,1.0252894
60ae750dbba4a1822e957e68,13,0,2024-02-24T08:19:56.906Z,french_506.wav,0,poule,2956,38,5,5,francais,m,6,0.6,48.37216542,1.86296546
60ae750dbba4a1822e957e68,13,0,2024-02-24T08:19:56.906Z,french_506.wav,0,poule,2956,38,5,5,francais,m,7,0.7,44.4070888,1.06697399
60ae750dbba4a1822e957e68,13,0,2024-02-24T08:19:56.906Z,french_506.wav,0,poule,2956,38,5,5,francais,m,8,0.8,-12.10632677,0.54922329
60ae750dbba4a1822e957e68,13,0,2024-02-24T08:19:56.906Z,french_506.wav,0,poule,2956,38,5,5,francais,m,9,0.9,-37.63462634,1.02176301
60ae750dbba4a1822e957e68,13,0,2024-02-24T08:19:56.906Z,french_506.wav,0,poule,2956,38,5,5,francais,m,10,1.0,31.99184566,1.70544642
60ae750dbba4a1822e957e68,13,0,2024-02-24T08:19:56.906Z,french_506.wav,0,poule,2956,38,5,5,francais,m,11,1.1,61.30326663,0.92919277
60ae750dbba4a1822e957e68,13,0,2024-02-24T08:19:56.906Z,french_506.wav,0,poule,2956,38,5,5,francais,m,12,1.14141667,-30.40718756,1.34999173
60ae750dbba4a1822e957e68,14,0,2024-02-24T08:19:56.906Z,french_285.wav,0,poule,1501,38,5,5,francais,m,0,0.0,-67.57072599,0.37904843
60ae750dbba4a1822e957e68,14,0,2024-02-24T08:19:56.906Z,french_285.wav,0,poule,1501,38,5,5,francais,m,1,0.1,84.43540763,0.12399617
60ae750dbba4a1822e957e68,14,0,2024-02-24T08:19:56.906Z,french_285.wav,0,poule,1501,38,5,5,francais,m,2,0.2,85.85677823,0.94810797
60ae750dbba4a1822e957e68,14,0,2024-02-24T08:19:56.906Z,french_285.wav,0,poule,1501,38,5,5,francais,m,3,0.3,-51.1358312,0.32864625
60ae750dbba4a1822e957e68,14,0,2024-02-24T08:19:56.906Z,french_285.wav,0,poule,1501,38,5,5,francais,m,4,0.4,1.86504598,1.19097279
60ae750dbba4a1822e957e68,14,0,2024-02-24T08:19:56.906Z,french_285.wav,0,poule,1501,38,5,5,francais,m,5,0.5,-60.64566772,1.05097031
60ae750dbba4a1822e957e68,14,0,2024-02-24T08:19:56.906Z,french_285.wav,0,poule,1501,38,5,5,francais,m,6,0.6,99.34914542,0.36311382
60ae750dbba4a1822e957e68,14,0,2024-02-24T08:19:56.906Z,french_285.wav,0,poule,1501,38,5,5,francais,m,7,0.7,7.44874037,0.61278289
60ae750dbba4a1822e957e68,14,0,2024-02-24T08:19:56.906Z,french_285.wav,0,poule,1501,38,5,5,francais,m,8,0.8,-82.24182328,1.20299316
60ae750dbba4a1822e957e68,14,0,2024-02-24T08:19:56.906Z,french_285.wav,0,poule,1501,38,5,5,francais,m,9,0.9,24.56172418,1.09809905
60ae750dbba4a1822e957e68,14,0,2024-02-24T08:19:56.906Z,french_285.wav,0,poule,1501,38,5,5,francais,m,10,1.0,8.87987036,1.68130662
60ae750dbba4a1822e957e68,14,0,2024-02-24T08:19:56.906Z,french_285.wav,0,poule,1501,38,5,5,francais,m,11,1.1,12.90602373,0.87422743
60ae750dbba4a1822e957e68,14,0,2024-02-24T08:19:56.906Z,french_285.wav,0,poule,1501,38,5,5,francais,m,12,1.14141667,72.88869787,1.98915228
60ae750dbba4a1822e957e68,15,0,2024-02-24T08:19:56.906Z,french_287.wav,0,pull,2064,38,5,5,francais,m,0,0.0,24.91246091,0.55628619
60ae750dbba4a1822e957e68,15,0,2024-02-24T08:19:56.906Z,french_287.wav,0,pull,2064,38,5,5,francais,m,1,0.1,67.7832239,0.6662612
60ae750dbba4a1822e957e68,15,0,2024-02-24T08:19:56.906Z,french_287.wav,0,pull,2064,38,5,5,francais,m,2,0.2,45.53981298,1.36903667
60ae750dbba4a1822e957e68,15,0,2024-02-24T08:19:56.906Z,french_287.wav,0,pull,2064,38,5,5,francais,m,3,0.3,-34.40875305,0.2836932
60ae750dbba4a1822e957e68,15,0,2024-02-24T08:19:56.906Z,french_287.wav,0,pull,2064,38,5,5,francais,m,4,0.4,15.18631391,1.18401113
60ae750dbba4a1822e957e68,15,0,2024-02-24T08:19:56.906Z,french_287.wav,0,pull,2064,38,5,5,francais,m,5,0.5,-31.03447886,0.95699151
60ae750dbba4a1822e957e68,15,0,2024-02-24T08:19:56.906Z,french_287.wav,0,pull,2064,38,5,5,francais,m,6,0.6,-58.473992,1.42939471
60ae750dbba4a1822e957e68,15,0,2024-02-24T08:19:56.906Z,french_287.wav,0,pull,2064,38,5,5,francais,m,7,0.7,5.63880144,0.68329905
60ae750dbba4a1822e957e68,15,0,2024-02-24T08:19:56.906Z,french_287.wav,0,pull,2064,38,5,5,francais,m,8,0.8,-88.66742404,1.80121068
60ae750dbba4a1822e957e68,15,0,2024-02-24T08:19:56.906Z,french_287.wav,0,pull,2064,38,5,5,francais,m,9,0.9,-39.07529751,1.9139007
60ae750dbba4a1822e957e68,15,0,2024-02-24T08:19:56.906Z,french_287.wav,0,pull,2064,38,5,5,francais,m,10,1.0,-4.11446779,0.02395004
60ae750dbba4a1822e957e68,15,0,2024-02-24T08:19:56.906Z,french_287.wav,0,pull,2064,38,5,5,francais,m,11,1.1,-59.02603501,0.8859273
60ae750dbba4a1822e957e68,15,0,2024-02-24T08:19:56.906Z,french_287.wav,0,pull,2064,38,5,5,francais,m,12,1.14141667,11.416303,1.12262587
60ae750dbba4a1822e957e68,16,0,2024-02-24T08:19:56.906Z,french_610.wav,0,poule,1682,38,5,5,francais,m,0,0.0,47.1860399,1.33803609
60ae750dbba4a1822e957e68,16,0,2024-02-24T08:19:56.906Z,french_610.wav,0,poule,1682,38,5,5,francais,m,1,0.1,-96.06014479,0.47296881
60ae750dbba4a1822e957e68,16,0,2024-02-24T08:19:56.906Z,french_610.wav,0,poule,1682,38,5,5,francais,m,2,0.2,-81.77505762,0.09802014
60ae750dbba4a1822e957e68,16,0,2024-02-24T08:19:56.906Z,french_610.wav,0,poule,1682,38,5,5,francais,m,3,0.3,35.16188142,0.2417997
60ae750dbba4a1822e957e68,16,0,2024-02-24T08:19:56.906Z,french_610.wav,0,poule,1682,38,5,5,francais,m,4,0.4,95.26049293,0.91420719
60ae750dbba4a1822e957e68,16,0,2024-02-24T08:19:56.906Z,french_610.wav,0,poule,1682,38,5,5,francais,m,5,0.5,-89.00178187,0.06740769
60ae750dbba4a1822e957e68,16,0,2024-02-24T08:19:56.906Z,french_610.wav,0,poule,1682,38,5,5,francais,m,6,0.6,-22.334568,1.13982749
60ae750dbba4a1822e957e68,16,0,2024-02-24T08:19:56.906Z,french_610.wav,0,poule,1682,38,5,5,francais,m,7,0.7,-38.7408441,1.6854513
60ae750dbba4a1822e957e68,16,0,2024-02-24T08:19:56.906Z,french_610.wav,0,poule,1682,38,5,5,francais,m,8,0.8,-9.79495772,1.43854832
60ae750dbba4a1822e957e68,16,0,2024-02-24T08:19:56.906Z,french_610.wav,0,poule,1682,38,5,5,francais,m,9,0.9,-2.0016606,0.94209986
60ae750dbba4a1822e957e68,16,0,2024-02-24T08:19:56.906Z,french_610.wav,0,poule,1682,38,5,5,francais,m,10,1.0,-3.52855837,0.49469701
60ae750dbba4a1822e957e68,16,0,2024-02-24T08:19:56.906Z,french_610.wav,0,poule,1682,38,5,5,francais,m,11,1.1,27.22191873,0.27592944
60ae750dbba4a1822e957e68,16,0,2024-02-24T08:19:56.906Z,french_610.wav,0,poule,1682,38,5,5,francais,m,12,1.14141667,-19.56542136,0.89824845
60ae750dbba4a1822e957e68,17,0,2024-02-24T08:19:56.906Z,french_147.wav,0,poule,761,38,5,5,francais,m,0,0.0,43.59768472,0.75883139
60ae750dbba4a1822e957e68,17,0,2024-02-24T08:19:56.906Z,french_147.wav,0,poule,761,38,5,5,francais,m,1,0.1,5.27615481,0.68857604
60ae750dbba4a1822e957e68,17,0,2024-02-24T08:19:56.906Z,french_147.wav,0,poule,761,38,5,5,francais,m,2,0.2,-44.61195544,1.03649149
60ae750dbba4a1822e957e68,17,0,2024-02-24T08:19:56.906Z,french_147.wav,0,poule,761,38,5,5,francais,m,3,0.3,-76.96509144,1.25844465
60ae750dbba4a1822e957e68,17,0,2024-02-24T08:19:56.906Z,french_147.wav,0,poule,761,38,5,5,francais,m,4,0.4,-32.44980634,0.35823479
60ae750dbba4a1822e957e68,17,0,2024-02-24T08:19:56.906Z,french_147.wav,0,poule,761,38,5,5,francais,m,5,0.5,70.43396506,1.36921243
60ae750dbba4a1822e957e68,17,0,2024-02-24T08:19:56.906Z,french_147.wav,0,poule,761,38,5,5,francais,m,6,0.6,-38.3254351,1.21356569
60ae750dbba4a1822e957e68,17,0,2024-02-24T08:19:56.906Z,french_147.wav,0,poule,761,38,5,5,francais,m,7,0.7,52.08578881,0.98986047
60ae750dbba4a1822e957e68,17,0,2024-02-24T08:19:56.906Z,french_147.wav,0,poule,761,38,5,5,francais,m,8,0.8,-28.17308576,1.9051095
60ae750dbba4a1822e957e68,17,0,2024-02-24T08:19:56.906Z,french_147.wav,0,poule,761,38,5,5,francais,m,9,0.9,-10.89832162,1.35815009
60ae750dbba4a1822e957e68,17,0,2024-02-24T08:19:56.906Z,french_147.wav,0,poule,761,38,5,5,francais,m,10,1.0,75.90492901,1.54610858
60ae750dbba4a1822e957e68,17,0,2024-02-24T08:19:56.906Z,french_147.wav,0,poule,761,38,5,5,francais,m,11,1.1,18.84686186,1.77017923
60ae750dbba4a1822e957e68,17,0,2024-02-24T08:19:56.906Z,french_147.wav,0,poule,761,38,5,5,francais,m,12,1.14141667,-70.82963066,1.1558003
60ae750dbba4a1822e957e68,18,0,2024-02-24T08:19:56.906Z,french_339.wav,0,pull,1618,38,5,5,francais,m,0,0.0,-91.66719756,0.83274
60ae750dbba4a1822e957e68,18,0,2024-02-24T08:19:56.906Z,french_339.wav,0,pull,1618,38,5,5,francais,m,1,0.1,-40.09978494,1.09275025
60ae750dbba4a1822e957e68,18,0,2024-02-24T08:19:56.906Z,french_339.wav,0,pull,1618,38,5,5,francais,m,2,0.2,-46.90301028,0.95259452
60ae750dbba4a1822e957e68,18,0,2024-02-24T08:19:56.906Z,french_339.wav,0,pull,1618,38,5,5,francais,m,3,0.3,12.45337088,1.57352585
60ae750dbba4a1822e957e68,18,0,2024-02-24T08:19:56.906Z,french_339.wav,0,pull,1618,38,5,5,francais,m,4,0.4,-7.3719957,1.00068358
60ae750dbba4a1822e957e68,18,0,2024-02-24T08:19:56.906Z,french_339.wav,0,pull,1618,38,5,5,francais,m,5,0.5,-38.64502955,1.00260215
60ae750dbba4a1822e957e68,18,0,2024-02-24T08:19:56.906Z,french_339.wav,0,pull,1618,38,5,5,francais,m,6,0.6,-0.41989507,1.95270399
60ae750dbba4a1822e957e68,18,0,2024-02-24T08:19:56.906Z,french_339.wav,0,pull,1618,38,5,5,francais,m,7,0.7,-65.16929213,0.43011904
60ae750dbba4a1822e957e68,18,0,2024-02-24T08:19:56.906Z,french_339.wav,0,pull,1618,38,5,5,francais,m,8,0.8,-43.18579065,0.35215598
60ae750dbba4a1822e957e68,18,0,2024-02-24T08:19:56.906Z,french_339.wav,0,pull,1618,38,5,5,francais,m,9,0.9,25.69839136,0.10684683
60ae750dbba4a1822e957e68,18,0,2024-02-24T08:19:56.906Z,french_339.wav,0,pull,1618,38,5,5,francais,m,10,1.0,84.15479884,0.15211102
60ae750dbba4a1822e957e68,18,0,2024-02-24T08:19:56.906Z,french_339.wav,0,pull,1618,38,5,5,francais,m,11,1.1,10.06988607,1.20317356
60ae750dbba4a1822e957e68,18,0,2024-02-24T08:19:56.906Z,french_339.wav,0,pull,1618,38,5,5,francais,m,12,1.14141667,43.816716,0.84876333
60ae750dbba4a1822e957e68,19,0,2024-02-24T08:19:56.906Z,french_137.wav,0,poule,2017,38,5,5,francais,m,0,0.0,13.84151074,1.03948831
60ae750dbba4a1822e957e68,19,0,2024-02-24T08:19:56.906Z,french_137.wav,0,poule,2017,38,5,5,francais,m,1,0.1,30.89109092,0.10685141
60ae750dbba4a1822e957e68,19,0,2024-02-24T08:19:56.906Z,french_137.wav,0,poule,2017,38,5,5,francais,m,2,0.2,6.32022174,1.61877291
60ae750dbba4a1822e957e68,19,0,2024-02-24T08:19:56.906Z,french_137.wav,0,poule,2017,38,5,5,francais,m,3,0.3,-92.3031882,1.17088534
60ae750dbba4a1822e957e68,19,0,2024-02-24T08:19:56.906Z,french_137.wav,0,poule,2017,38,5,5,francais,m,4,0.4,-1.61058663,0.66870039
60ae750dbba4a1822e957e68,19,0,2024-02-24T08:19:56.906Z,french_137.wav,0,poule,2017,38,5,5,francais,m,5,0.5,-86.82183705,1.63827949
60ae750dbba4a1822e957e68,19,0,2024-02-24T08:19:56.906Z,french_137.wav,0,poule,2017,38,5,5,francais,m,6,0.6,97.0175415,1.01305486
60ae750dbba4a1822e957e68,19,0,2024-02-24T08:19:56.906Z,french_137.wav,0,poule,2017,38,5,5,francais,m,7,0.7,3.01255749,0.88385102
60ae750dbba4a1822e957e68,19,0,2024-02-24T08:19:56.906Z,french_137.wav,0,poule,2017,38,5,5,francais,m,8,0.8,-19.28567494,0.46725667
60ae750dbba4a1822e957e68,19,0,2024-02-24T08:19:56.906Z,french_137.wav,0,poule,2017,38,5,5,francais,m,9,0.9,83.26795694,0.62986207
60ae750dbba4a1822e957e68,19,0,2024-02-24T08:19:56.906Z,french_137.wav,0,poule,2017,38,5,5,francais,m,10,1.0,57.309714,0.5153644
60ae750dbba4a1822e957e68,19,0,2024-02-24T08:19:56.906Z,french_137.wav,0,poule,2017,38,5,5,francais,m,11,1.1,-65.06221701,0.6314328
60ae750dbba4a1822e957e68,19,0,2024-02-24T08:19:56.906Z,french_137.wav,0,poule,2017,38,5,5,francais,m,12,1.14141667,36.56603197,1.91953491
60ae750dbba4a1822e957e68,20,0,2024-02-24T08:19:56.906Z,french_411.wav,0,poule,2450,38,5,5,francais,m,0,0.0,-70.25391747,1.92256059
60ae750dbba4a1822e957e68,20,0,2024-02-24T08:19:56.906Z,french_411.wav,0,poule,2450,38,5,5,francais,m,1,0.1,27.74894857,0.54123007
60ae750dbba4a1822e957e68,20,0,2024-02-24T08:19:56.906Z,french_411.wav,0,poule,2450,38,5,5,francais,m,2,0.2,46.03152981,0.1167021
60ae750dbba4a1822e957e68,20,0,2024-02-24T08:19:56.906Z,french_411.wav,0,poule,2450,38,5,5,francais,m,3,0.3,-29.20691402,0.14269419
60ae750dbba4a1822e957e68,20,0,2024-02-24T08:19:56.906Z,french_411.wav,0,poule,2450,38,5,5,francais,m,4,0.4,-31.45553026,0.19948758
60ae750dbba4a1822e957e68,20,0,2024-02-24T08:19:56.906Z,french_411.wav,0,poule,2450,38,5,5,francais,m,5,0.5,35.02826995,1.84749686
60ae750dbba4a1822e957e68,20,0,2024-02-24T08:19:56.906Z,french_411.wav,0,poule,2450,38,5,5,francais,m,6,0.6,-8.95158706,0.431015
60ae750dbba4a1822e957e68,20,0,2024-02-24T08:19:56.906Z,french_411.wav,0,poule,2450,38,5,5,francais,m,7,0.7,81.46107147,0.56033936
60ae750dbba4a1822e957e68,20,0,2024-02-24T08:19:56.906Z,french_411.wav,0,poule,2450,38,5,5,francais,m,8,0.8,-2.93504405,0.91187984
60ae750dbba4a1822e957e68,20,0,2024-02-24T08:19:56.906Z,french_411.wav,0,poule,2450,38,5,5,francais,m,9,0.9,64.39331925,1.61465115
60ae750dbba4a1822e957e68,20,0,2024-02-24T08:19:56.906Z,french_411.wav,0,poule,2450,38,5,5,francais,m,10,1.0,-8.26962553,0.879149
60ae750dbba4a1822e957e68,20,0,2024-02-24T08:19:56.906Z,french_411.wav,0,poule,2450,38,5,5,francais,m,11,1.1,56.99467859,1.56755984
60ae750dbba4a1822e957e68,20,0,2024-02-24T08:19:56.906Z,french_411.wav,0,poule,2450,38,5,5,francais,m,12,1.14141667,-1.61116333,1.10827976
60ae750dbba4a1822e957e68,21,0,2024-02-24T08:19:56.906Z,french_819.wav,0,poule,2016,38,5,5,francais,m,0,0.0,3.5433124,0.69924153
60ae750dbba4a1822e957e68,21,0,2024-02-24T08:19:56.906Z,french_819.wav,0,poule,2016,38,5,5,francais,m,1,0.1,34.67580474,0.59233338
60ae750dbba4a1822e957e68,21,0,2024-02-24T08:19:56.906Z,french_819.wav,0,poule,2016,38,5,5,francais,m,2,0.2,52.06096148,0.10786683
60ae750dbba4a1822e957e68,21,0,2024-02-24T08:19:56.906Z,french_819.wav,0,poule,2016,38,5,5,francais,m,3,0.3,-11.68829783,0.82052849
60ae750dbba4a1822e957e68,21,0,2024-02-24T08:19:56.906Z,french_819.wav,0,poule,2016,38,5,5,francais,m,4,0.4,-55.43273777,0.57964387
60ae750dbba4a1822e957e68,21,0,2024-02-24T08:19:56.906Z,french_819.wav,0,poule,2016,38,5,5,francais,m,5,0.5,-69.12141051,1.16428723
60ae750dbba4a1822e957e68,21,0,2024-02-24T08:19:56.906Z,french_819.wav,0,poule,2016,38,5,5,francais,m,6,0.6,-6.92352796,0.35573096
60ae750dbba4a1822e957e68,21,0,2024-02-24T08:19:56.906Z,french_819.wav,0,poule,2016,38,5,5,francais,m,7,0.7,-30.91883779,1.23577296
60ae750dbba4a1822e957e68,21,0,2024-02-24T08:19:56.906Z,french_819.wav,0,poule,2016,38,5,5,francais,m,8,0.8,65.5281881,0.83715517
60ae750dbba4a1822e957e68,21,0,2024-02-24T08:19:56.906Z,french_819.wav,0,poule,2016,38,5,5,francais,m,9,0.9,-41.62316532,1.18768042
60ae750dbba4a1822e957e68,21,0,2024-02-24T08:19:56.906Z,french_819.wav,0,poule,2016,38,5,5,francais,m,10,1.0,-72.0133608,1.9698724
60ae750dbba4a1822e957e68,21,0,2024-02-24T08:19:56.906Z,french_819.wav,0,poule,2016,38,5,5,francais,m,11,1.1,34.83208876,0.40899085
60ae750dbba4a1822e957e68,21,0,2024-02-24T08:19:56.906Z,french_819.wav,0,poule,2016,38,5,5,francais,m,12,1.14141667,-43.5569199,1.30290544
60ae750dbba4a1822e957e68,22,0,2024-02-24T08:19:56.906Z,french_546.wav,0,poule,1339,38,5,5,francais,m,0,0.0,-13.20812947,0.61614772
60ae750dbba4a1822e957e68,22,0,2024-02-24T08:19:56.906Z,french_546.wav,0,poule,1339,38,5,5,francais,m,1,0.1,-8.37020236,1.06411131
60ae750dbba4a1822e957e68,22,0,2024-02-24T08:19:56.906Z,french_546.wav,0,poule,1339,38,5,5,francais,m,2,0.2,57.48789341,1.60441563
60ae750dbba4a1822e957e68,22,0,2024-02-24T08:19:56.906Z,french_546.wav,0,poule,1339,38,5,5,francais,m,3,0.3,-11.78127808,0.66409069
60ae750dbba4a1822e957e68,22,0,2024-02-24T08:19:56.906Z,french_546.wav,0,poule,1339,38,5,5,francais,m,4,0.4,-26.00594078,1.03544668
60ae750dbba4a1822e957e68,22,0,2024-02-24T08:19:56.906Z,french_546.wav,0,poule,1339,38,5,5,francais,m,5,0.5,-3.33648258,0.99289071
60ae750dbba4a1822e957e68,22,0,2024-02-24T08:19:56.906Z,french_546.wav,0,poule,1339,38,5,5,francais,m,6,0.6,-1.73835095,0.28199712
60ae750dbba4a1822e957e68,22,0,2024-02-24T08:19:56.906Z,french_546.wav,0,poule,1339,38,5,5,francais,m,7,0.7,17.1570367,0.98444234
60ae750dbba4a1822e957e68,22,0,2024-02-24T08:19:56.906Z,french_546.wav,0,poule,1339,38,5,5,francais,m,8,0.8,37.36365726,0.65105351
60ae750dbba4a1822e957e68,22,0,2024-02-24T08:19:56.906Z,french_546.wav,0,poule,1339,38,5,5,francais,m,9,0.9,8.15656678,1.40961932
60ae750dbba4a1822e957e68,22,0,2024-02-24T08:19:56.906Z,french_546.wav,0,poule,1339,38,5,5,francais,m,10,1.0,-8.08158861,1.13622797
60ae750dbba4a1822e957e68,22,0,2024-02-24T08:19:56.906Z,french_546.wav,0,poule,1339,38,5,5,francais,m,11,1.1,5.60886703,0.04199534
60ae750dbba4a1822e957e68,22,0,2024-02-24T08:19:56.906Z,french_546.wav,0,poule,1339,38,5,5,francais,m,12,1.14141667,-59.33959304,1.17471858
60ae750dbba4a1822e957e68,23,0,2024-02-24T08:19:56.906Z,french_804.wav,0,pull,1125,38,5,5,francais,m,0,0.0,-81.48040782,1.72278374
60ae750dbba4a1822e957e68,23,0,2024-02-24T08:19:56.906Z,french_804.wav,0,pull,1125,38,5,5,francais,m,1,0.1,-17.45889889,1.09467419
60ae750dbba4a1822e957e68,23,0,2024-02-24T08:19:56.906Z,french_804.wav,0,pull,1125,38,5,5,francais,m,2,0.2,30.94703124,1.89284567
60ae750dbba4a1822e957e68,23,0,2024-02-24T08:19:56.906Z,french_804.wav,0,pull,1125,38,5,5,francais,m,3,0.3,-59.31638088,0.06467182
60ae750dbba4a1822e957e68,23,0,2024-02-24T08:19:56.906Z,french_804.wav,0,pull,1125,38,5,5,francais,m,4,0.4,32.31952964,1.7986491
60ae750dbba4a1822e957e68,23,0,2024-02-24T08:19:56.906Z,french_804.wav,0,pull,1125,38,5,5,francais,m,5,0.5,-76.80935002,0.95859736
60ae750dbba4a1822e957e68,23,0,2024-02-24T08:19:56.906Z,french_804.wav,0,pull,1125,38,5,5,francais,m,6,0.6,-98.7037282,1.28356637
60ae750dbba4a1822e957e68,23,0,2024-02-24T08:19:56.906Z,french_804.wav,0,pull,1125,38,5,5,francais,m,7,0.7,-37.18293781,0.02342821
60ae750dbba4a1822e957e68,23,0,2024-02-24T08:19:56.906Z,french_804.wav,0,pull,1125,38,5,5,francais,m,8,0.8,-12.0929561,0.57090294
60ae750dbba4a1822e957e68,23,0,2024-02-24T08:19:56.906Z,french_804.wav,0,pull,1125,38,5,5,francais,m,9,0.9,70.86110412,0.54405877
60ae750dbba4a1822e957e68,23,0,2024-02-24T08:19:56.906Z,french_804.wav,0,pull,1125,38,5,5,francais,m,10,1.0,-41.4148751,0.67180302
60ae750dbba4a1822e957e68,23,0,2024-02-24T08:19:56.906Z,french_804.wav,0,pull,1125,38,5,5,francais,m,11,1.1,34.56454139,1.24764987
60ae750dbba4a1822e957e68,23,0,2024-02-24T08:19:56.906Z,french_804.wav,0,pull,1125,38,5,5,francais,m,12,1.14141667,-8.86405782,0.56589089
60ae750dbba4a1822e957e68,24,0,2024-02-24T08:19:56.906Z,french_688.wav,0,pull,1167,38,5,5,francais,m,0,0.0,91.54391251,1.81466251
60ae750dbba4a1822e957e68,24,0,2024-02-24T08:19:56.906Z,french_688.wav,0,pull,1167,38,5,5,francais,m,1,0.1,78.06416421,1.53337533
60ae750dbba4a1822e957e68,24,0,2024-02-24T08:19:56.906Z,french_688.wav,0,pull,1167,38,5,5,francais,m,2,0.2,-58.48067555,0.98967466
60ae750dbba4a1822e957e68,24,0,2024-02-24T08:19:56.906Z,french_688.wav,0,pull,1167,38,5,5,francais,m,3,0.3,-90.2136996,1.42275833
60ae750dbba4a1822e957e68,24,0,2024-02-24T08:19:56.906Z,french_688.wav,0,pull,1167,38,5,5,francais,m,4,0.4,-50.08146281,1.74242441
60ae750dbba4a1822e957e68,24,0,2024-02-24T08:19:56.906Z,french_688.wav,0,pull,1167,38,5,5,francais,m,5,0.5,0.90253223,1.11374005
60ae750dbba4a1822e957e68,24,0,2024-02-24T08:19:56.906Z,french_688.wav,0,pull,1167,38,5,5,francais,m,6,0.6,-14.71129545,0.56963487
60ae750dbba4a1822e957e68,24,0,2024-02-24T08:19:56.906Z,french_688.wav,0,pull,1167,38,5,5,francais,m,7,0.7,-23.6898362,0.82081927
60ae750dbba4a1822e957e68,24,0,2024-02-24T08:19:56.906Z,french_688.wav,0,pull,1167,38,5,5,francais,m,8,0.8,31.11024133,1.73481969
60ae750dbba4a1822e957e68,24,0,2024-02-24T08:19:56.906Z,french_688.wav,0,pull,1167,38,5,5,francais,m,9,0.9,-14.23643957,0.39687116
60ae750dbba4a1822e957e68,24,0,2024-02-24T08:19:56.906Z,french_688.wav,0,pull,1167,38,5,5,francais,m,10,1.0,63.67411618,0.09343869
60ae750dbba4a1822e957e68,24,0,2024-02-24T08:19:56.906Z,french_688.wav,0,pull,1167,38,5,5,francais,m,11,1.1,62.83310166,0.28087028
60ae750dbba4a1822e957e68,24,0,2024-02-24T08:19:56.906Z,french_688.wav,0,pull,1167,38,5,5,francais,m,12,1.14141667,-7.71472793,0.17948475
60ae750dbba4a1822e957e68,25,0,2024-02-24T08:19:56.906Z,french_261.wav,0,poule,1039,38,5,5,francais,m,0,0.0,12.34576995,0.50310042
60ae750dbba4a1822e957e68,25,0,2024-02-24T08:19:56.906Z,french_261.wav,0,poule,1039,38,5,5,francais,m,1,0.1,25.47601384,0.25268449
60ae750dbba4a1822e957e68,25,0,2024-02-24T08:19:56.906Z,french_261.wav,0,poule,1039,38,5,5,francais,m,2,0.2,-67.0906301,0.7627603
60ae750dbba4a1822e957e68,25,0,2024-02-24T08:19:56.906Z,french_261.wav,0,poule,1039,38,5,5,francais,m,3,0.3,-13.09856908,1.52142005
60ae750dbba4a1822e957e68,25,0,2024-02-24T08:19:56.906Z,french_261.wav,0,poule,1039,38,5,5,francais,m,4,0.4,68.1575105,1.92904385
60ae750dbba4a1822e957e68,25,0,2024-02-24T08:19:56.906Z,french_261.wav,0,poule,1039,38,5,5,francais,m,5,0.5,-2.34833931,0.33812634
60ae750dbba4a1822e957e68,25,0,2024-02-24T08:19:56.906Z,french_261.wav,0,poule,1039,38,5,5,francais,m,6,0.6,-56.25265887,1.12365674
60ae750dbba4a1822e957e68,25,0,2024-02-24T08:19:56.906Z,french_261.wav,0,poule,1039,38,5,5,francais,m,7,0.7,99.24314725,0.56685205
60ae750dbba4a1822e957e68,25,0,2024-02-24T08:19:56.906Z,french_261.wav,0,poule,1039,38,5,5,francais,m,8,0.8,97.55208396,1.813104
60ae750dbba4a1822e957e68,25,0,2024-02-24T08:19:56.906Z,french_261.wav,0,poule,1039,38,5,5,francais,m,9,0.9,-44.49919777,1.56800569
60ae750dbba4a1822e957e68,25,0,2024-02-24T08:19:56.906Z,french_261.wav,0,poule,1039,38,5,5,francais,m,10,1.0,-9.98862023,0.34584513
60ae750dbba4a1822e957e68,25,0,2024-02-24T08:19:56.906Z,french_261.wav,0,poule,1039,38,5,5,francais,m,11,1.1,12.33371854,0.48440501
60ae750dbba4a1822e957e68,25,0,2024-02-24T08:19:56.906Z,french_261.wav,0,poule,1039,38,5,5,francais,m,12,1.14141667,0.5455691,1.72005323
60ae750dbba4a1822e957e68,26,0,2024-02-24T08:19:56.906Z,french_691.wav,0,poule,1731,38,5,5,francais,m,0,0.0,-53.29117551,1.10181202
60ae750dbba4a1822e957e68,26,0,2024-02-24T08:19:56.906Z,french_691.wav,0,poule,1731,38,5,5,francais,m,1,0.1,-43.12784614,0.28907205
60ae750dbba4a1822e957e68,26,0,2024-02-24T08:19:56.906Z,french_691.wav,0,poule,1731,38,5,5,francais,m,2,0.2,-84.82989966,1.7388292
60ae750dbba4a1822e957e68,26,0,2024-02-24T08:19:56.906Z,french_691.wav,0,poule,1731,38,5,5,francais,m,3,0.3,39.71227421,1.78666224
60ae750dbba4a1822e957e68,26,0,2024-02-24T08:19:56.906Z,french_691.wav,0,poule,1731,38,5,5,francais,m,4,0.4,59.63865094,1.87776175
60ae750dbba4a1822e957e68,26,0,2024-02-24T08:19:56.906Z,french_691.wav,0,poule,1731,38,5,5,francais,m,5,0.5,-32.9711098,1.68554567
60ae750dbba4a1822e957e68,26,0,2024-02-24T08:19:56.906Z,french_691.wav,0,poule,1731,38,5,5,francais,m,6,0.6,1.3247472,1.64523099
60ae750dbba4a1822e957e68,26,0,2024-02-24T08:19:56.906Z,french_691.wav,0,poule,1731,38,5,5,francais,m,7,0.7,-50.55695338,1.0611099
60ae750dbba4a1822e957e68,26,0,2024-02-24T08:19:56.906Z,french_691.wav,0,poule,1731,38,5,5,francais,m,8,0.8,53.24371519,0.7419427
60ae750dbba4a1822e957e68,26,0,2024-02-24T08:19:56.906Z,french_691.wav,0,poule,1731,38,5,5,francais,m,9,0.9,30.60584544,1.06726815
60ae750dbba4a1822e957e68,26,0,2024-02-24T08:19:56.906Z,french_691.wav,0,poule,1731,38,5,5,francais,m,10,1.0,-22.917909,1.56845074
60ae750dbba4a1822e957e68,26,0,2024-02-24T08:19:56.906Z,french_691.wav,0,poule,1731,38,5,5,francais,m,11,1.1,-32.41553069,0.51496565
60ae750dbba4a1822e957e68,26,0,2024-02-24T08:19:56.906Z,french_691.wav,0,poule,1731,38,5,5,francais,m,12,1.14141667,-51.47885944,1.22953203
60ae750dbba4a1822e957e68,27,0,2024-02-24T08:19:56.906Z,french_776.wav,0,poule,1017,38,5,5,francais,m,0,0.0,-48.17423645,0.77631494
60ae750dbba4a1822e957e68,27,0,2024-02-24T08:19:56.906Z,french_776.wav,0,poule,1017,38,5,5,francais,m,1,0.1,70.47241533,0.30206355
60ae750dbba4a1822e957e68,27,0,2024-02-24T08:19:56.906Z,french_776.wav,0,poule,1017,38,5,5,francais,m,2,0.2,-25.19523269,0.58442509
60ae750dbba4a1822e957e68,27,0,2024-02-24T08:19:56.906Z,french_776.wav,0,poule,1017,38,5,5,francais,m,3,0.3,87.43097705,1.0473267
60ae750dbba4a1822e957e68,27,0,2024-02-24T08:19:56.906Z,french_776.wav,0,poule,1017,38,5,5,francais,m,4,0.4,-31.8700143,1.39697119
60ae750dbba4a1822e957e68,27,0,2024-02-24T08:19:56.906Z,french_776.wav,0,poule,1017,38,5,5,francais,m,5,0.5,85.54136389,1.2447418
60ae750dbba4a1822e957e68,27,0,2024-02-24T08:19:56.906Z,french_776.wav,0,poule,1017,38,5,5,francais,m,6,0.6,-67.05238836,1.41470132
60ae750dbba4a1822e957e68,27,0,2024-02-24T08:19:56.906Z,french_776.wav,0,poule,1017,38,5,5,francais,m,7,0.7,63.29487245,0.48396717
60ae750dbba4a1822e957e68,27,0,2024-02-24T08:19:56.906Z,french_776.wav,0,poule,1017,38,5,5,francais,m,8,0.8,-91.58850078,0.48226026
60ae750dbba4a1822e957e68,27,0,2024-02-24T08:19:56.906Z,french_776.wav,0,poule,1017,38,5,5,francais,m,9,0.9,-92.53289931,1.44155104
60ae750dbba4a1822e957e68,27,0,2024-02-24T08:19:56.906Z,french_776.wav,0,poule,1017,38,5,5,francais,m,10,1.0,-7.51119873,1.57581197
60ae750dbba4a1822e957e68,27,0,2024-02-24T08:19:56.906Z,french_776.wav,0,poule,1017,38,5,5,francais,m,11,1.1,-98.58910198,1.16160073
60ae750dbba4a1822e957e68,27,0,2024-02-24T08:19:56.906Z,french_776.wav,0,poule,1017,38,5,5,francais,m,12,1.14141667,-80.10890934,0.05324504
60ae750dbba4a1822e957e68,28,0,2024-02-24T08:19:56.906Z,french_511.wav,0,poule,523,38,5,5,francais,m,0,0.0,68.45765267,0.68906271
60ae750dbba4a1822e957e68,28,0,2024-02-24T08:19:56.906Z,french_511.wav,0,poule,523,38,5,5,francais,m,1,0.1,-8.95520239,1.35083961
60ae750dbba4a1822e957e68,28,0,2024-02-24T08:19:56.906Z,french_511.wav,0,poule,523,38,5,5,francais,m,2,0.2,44.78754761,0.86739012
60ae750dbba4a1822e957e68,28,0,2024-02-24T08:19:56.906Z,french_511.wav,0,poule,523,38,5,5,francais,m,3,0.3,48.7554288,0.74272649
60ae750dbba4a1822e957e68,28,0,2024-02-24T08:19:56.906Z,french_511.wav,0,poule,523,38,5,5,francais,m,4,0.4,41.20564236,1.27472163
60ae750dbba4a1822e957e68,28,0,2024-02-24T08:19:56.906Z,french_511.wav,0,poule,523,38,5,5,francais,m,5,0.5,74.46096489,0.69400452
60ae750dbba4a1822e957e68,28,0,2024-02-24T08:19:56.906Z,french_511.wav,0,poule,523,38,5,5,francais,m,6,0.6,-92.19481722,0.63157953
60ae750dbba4a1822e957e68,28,0,2024-02-24T08:19:56.906Z,french_511.wav,0,poule,523,38,5,5,francais,m,7,0.7,70.54554277,1.62489355
60ae750dbba4a1822e957e68,28,0,2024-02-24T08:19:56.906Z,french_511.wav,0,poule,523,38,5,5,francais,m,8,0.8,-89.98216972,1.1631817
60ae750dbba4a1822e957e68,28,0,2024-02-24T08:19:56.906Z,french_511.wav,0,poule,523,38,5,5,francais,m,9,0.9,96.36310752,1.80808524
60ae750dbba4a1822e957e68,28,0,2024-02-24T08:19:56.906Z,french_511.wav,0,poule,523,38,5,5,francais,m,10,1.0,-57.15318896,1.87485338
60ae750dbba4a1822e957e68,28,0,2024-02-24T08:19:56.906Z,french_511.wav,0,poule,523,38,5,5,francais,m,11,1.1,-15.3628732,0.63700297
60ae750dbba4a1822e957e68,28,0,2024-02-24T08:19:56.906Z,french_511.wav,0,poule,523,38,5,5,francais,m,12,1.14141667,-40.17140688,1.56626139
60ae750dbba4a1822e957e68,29,0,2024-02-24T08:19:56.906Z,french_120.wav,0,poule,629,38,5,5,francais,m,0,0.0,-25.39055637,0.67452719
60ae750dbba4a1822e957e68,29,0,2024-02-24T08:19:56.906Z,french_120.wav,0,poule,629,38,5,5,francais,m,1,0.1,-52.16988554,0.89530536
60ae750dbba4a1822e957e68,29,0,2024-02-24T08:19:56.906Z,french_120.wav,0,poule,629,38,5,5,francais,m,2,0.2,-97.11481736,0.31491033
60ae750dbba4a1822e957e68,29,0,2024-02-24T08:19:56.906Z,french_120.wav,0,poule,629,38,5,5,francais,m,3,0.3,-11.4581745,0.92298319
60ae750dbba4a1822e957e68,29,0,2024-02-24T08:19:56.906Z,french_120.wav,0,poule,629,38,5,5,francais,m,4,0.4,-45.99069763,0.35602146
60ae750dbba4a1822e957e68,29,0,2024-02-24T08:19:56.906Z,french_120.wav,0,poule,629,38,5,5,francais,m,5,0.5,-43.61865699,0.39625722
60ae750dbba4a1822e957e68,29,0,2024-02-24T08:19:56.906Z,french_120.wav,0,poule,629,38,5,5,francais,m,6,0.6,-44.83604124,1.05367551
60ae750dbba4a1822e957e68,29,0,2024-02-24T08:19:56.906Z,french_120.wav,0,poule,629,38,5,5,francais,m,7,0.7,-8.86769407,1.01432352
60ae750dbba4a1822e957e68,29,0,2024-02-24T08:19:56.906Z,french_120.wav,0,poule,629,38,5,5,francais,m,8,0.8,63.33461413,1.39909629
60ae750dbba4a1822e957e68,29,0,2024-02-24T08:19:56.906Z,french_120.wav,0,poule,629,38,5,5,francais,m,9,0.9,-71.92792016,1.4024389
60ae750dbba4a1822e957e68,29,0,2024-02-24T08:19:56.906Z,french_120.wav,0,poule,629,38,5,5,francais,m,10,1.0,76.65131092,0.62839034
60ae750dbba4a1822e957e68,29,0,2024-02-24T08:19:56.906Z,french_120.wav,0,poule,629,38,5,5,francais,m,11,1.1,60.1037415,0.42144028
60ae750dbba4a1822e957e68,29,0,2024-02-24T08:19:56.906Z,french_120.wav,0,poule,629,38,5,5,francais,m,12,1.14141667,-22.4064568,0.48383485
60ae750dbba4a1822e957e68,30,0,2024-02-24T08:19:56.906Z,french_812.wav,0,poule,1383,38,5,5,francais,m,0,0.0,-42.66002827,0.44619032
60ae750dbba4a1822e957e68,30,0,2024-02-24T08:19:56.906Z,french_812.wav,0,poule,1383,38,5,5,francais,m,1,0.1,-63.45257727,1.09752053
60ae750dbba4a1822e957e68,30,0,2024-02-24T08:19:56.906Z,french_812.wav,0,poule,1383,38,5,5,francais,m,2,0.2,-17.55899299,1.94483115
60ae750dbba4a1822e957e68,30,0,2024-02-24T08:19:56.906Z,french_812.wav,0,poule,1383,38,5,5,francais,m,3,0.3,-6.53827268,1.6322026
60ae750dbba4a1822e957e68,30,0,2024-02-24T08:19:56.906Z,french_812.wav,0,poule,1383,38,5,5,francais,m,4,0.4,82.73159926,1.42964573
60ae750dbba4a1822e957e68,30,0,2024-02-24T08:19:56.906Z,french_812.wav,0,poule,1383,38,5,5,francais,m,5,0.5,13.20285819,1.82803278
60ae750dbba4a1822e957e68,30,0,2024-02-24T08:19:56.906Z,french_812.wav,0,poule,1383,38,5,5,francais,m,6,0.6,-12.96734249,1.23610149
60ae750dbba4a1822e957e68,30,0,2024-02-24T08:19:56.906Z,french_812.wav,0,poule,1383,38,5,5,francais,m,7,0.7,-74.04565338,1.25749674
60ae750dbba4a1822e957e68,30,0,2024-02-24T08:19:56.906Z,french_812.wav,0,poule,1383,38,5,5,francais,m,8,0.8,43.93001564,1.19337031
60ae750dbba4a1822e957e68,30,0,2024-02-24T08:19:56.906Z,french_812.wav,0,poule,1383,38,5,5,francais,m,9,0.9,-5.48619498,0.21250901
60ae750dbba4a1822e957e68,30,0,2024-02-24T08:19:56.906Z,french_812.wav,0,poule,1383,38,5,5,francais,m,10,1.0,51.20549239,1.32924457
60ae750dbba4a1822e957e68,30,0,2024-02-24T08:19:56.906Z,french_812.wav,0,poule,1383,38,5,5,francais,m,11,1.1,48.53876007,0.52399169
60ae750dbba4a1822e957e68,30,0,2024-02-24T08:19:56.906Z,french_812.wav,0,poule,1383,38,5,5,francais,m,12,1.14141667,-70.42678673,0.252725
60ae750dbba4a1822e957e68,31,0,2024-02-24T08:19:56.906Z,french_31.wav,0,poule,1388,38,5,5,francais,m,0,0.0,62.57492675,0.62563008
60ae750dbba4a1822e957e68,31,0,2024-02-24T08:19:56.906Z,french_31.wav,0,poule,1388,38,5,5,francais,m,1,0.1,-58.08231023,0.03942754
60ae750dbba4a1822e957e68,31,0,2024-02-24T08:19:56.906Z,french_31.wav,0,poule,1388,38,5,5,francais,m,2,0.2,-55.72136937,0.40518479
60ae750dbba4a1822e957e68,31,0,2024-02-24T08:19:56.906Z,french_31.wav,0,poule,1388,38,5,5,francais,m,3,0.3,-71.33473232,0.83625103
60ae750dbba4a1822e957e68,31,0,2024-02-24T08:19:56.906Z,french_31.wav,0,poule,1388,38,5,5,francais,m,4,0.4,-4.71968321,1.04296763
60ae750dbba4a1822e957e68,31,0,2024-02-24T08:19:56.906Z,french_31.wav,0,poule,1388,38,5,5,francais,m,5,0.5,-18.8158031,1.30881089
60ae750dbba4a1822e957e68,31,0,2024-02-24T08:19:56.906Z,french_31.wav,0,poule,1388,38,5,5,francais,m,6,0.6,57.81974569,1.24294484
60ae750dbba4a1822e957e68,31,0,2024-02-24T08:19:56.906Z,french_31.wav,0,poule,1388,38,5,5,francais,m,7,0.7,-62.11860801,1.99884765
60ae750dbba4a1822e957e68,31,0,2024-02-24T08:19:56.906Z,french_31.wav,0,poule,1388,38,5,5,francais,m,8,0.8,-40.60816107,1.24785525
60ae750dbba4a1822e957e68,31,0,2024-02-24T08:19:56.906Z,french_31.wav,0,poule,1388,38,5,5,francais,m,9,0.9,65.87873267,0.7861542
60ae750dbba4a1822e957e68,31,0,2024-02-24T08:19:56.906Z,french_31.wav,0,poule,1388,38,5,5,francais,m,10,1.0,-62.031162,0.46276533
60ae750dbba4a1822e957e68,31,0,2024-02-24T08:19:56.906Z,french_31.wav,0,poule,1388,38,5,5,francais,m,11,1.1,23.18328609,1.73009947
60ae750dbba4a1822e957e68,31,0,2024-02-24T08:19:56.906Z,french_31.wav,0,poule,1388,38,5,5,francais,m,12,1.14141667,-73.14382864,1.02235307
60ae750dbba4a1822e957e68,32,0,2024-02-24T08:19:56.906Z,french_514.wav,0,poule,635,38,5,5,francais,m,0,0.0,19.52749286,0.20353533
60ae750dbba4a1822e957e68,32,0,2024-02-24T08:19:56.906Z,french_514.wav,0,poule,635,38,5,5,francais,m,1,0.1,-18.57686292,0.56212811
60ae750dbba4a1822e957e68,32,0,2024-02-24T08:19:56.906Z,french_514.wav,0,poule,635,38,5,5,francais,m,2,0.2,-11.65218112,1.19554763
60ae750dbba4a1822e957e68,32,0,2024-02-24T08:19:56.906Z,french_514.wav,0,poule,635,38,5,5,francais,m,3,0.3,67.73335024,1.25373802
60ae750dbba4a1822e957e68,32,0,2024-02-24T08:19:56.906Z,french_514.wav,0,poule,635,38,5,5,francais,m,4,0.4,2.50414412,0.49820491
60ae750dbba4a1822e957e68,32,0,2024-02-24T08:19:56.906Z,french_514.wav,0,poule,635,38,5,5,francais,m,5,0.5,9.98358294,0.39911731
60ae750dbba4a1822e957e68,32,0,2024-02-24T08:19:56.906Z,french_514.wav,0,poule,635,38,5,5,francais,m,6,0.6,-79.6394771,1.7639196
60ae750dbba4a1822e957e68,32,0,2024-02-24T08:19:56.906Z,french_514.wav,0,poule,635,38,5,5,francais,m,7,0.7,-56.69454189,0.02096069
60ae750dbba4a1822e957e68,32,0,2024-02-24T08:19:56.906Z,french_514.wav,0,poule,635,38,5,5,francais,m,8,0.8,-18.40953805,1.56380325
60ae750dbba4a1822e957e68,32,0,2024-02-24T08:19:56.906Z,french_514.wav,0,poule,635,38,5,5,francais,m,9,0.9,-52.29201997,0.9626698
60ae750dbba4a1822e957e68,32,0,2024-02-24T08:19:56.906Z,french_514.wav,0,poule,635,38,5,5,francais,m,10,1.0,65.08217065,1.00011748
60ae750dbba4a1822e957e68,32,0,2024-02-24T08:19:56.906Z,french_514.wav,0,poule,635,38,5,5,francais,m,11,1.1,-33.80106577,1.32853589
60ae750dbba4a1822e957e68,32,0,2024-02-24T08:19:56.906Z,french_514.wav,0,poule,635,38,5,5,francais,m,12,1.14141667,66.85973887,0.17517316
60ae750dbba4a1822e957e68,33,0,2024-02-24T08:19:56.906Z,french_933.wav,0,pull,1768,38,5,5,francais,m,0,0.0,-37.43352781,0.98661175
60ae750dbba4a1822e957e68,33,0,2024-02-24T08:19:56.906Z,french_933.wav,0,pull,1768,38,5,5,francais,m,1,0.1,15.82558876,1.72794901
60ae750dbba4a1822e957e68,33,0,2024-02-24T08:19:56.906Z,french_933.wav,0,pull,1768,38,5,5,francais,m,2,0.2,11.44233804,1.10536982
60ae750dbba4a1822e957e68,33,0,2024-02-24T08:19:56.906Z,french_933.wav,0,pull,1768,38,5,5,francais,m,3,0.3,86.94047545,1.85590912
60ae750dbba4a1822e957e68,33,0,2024-02-24T08:19:56.906Z,french_933.wav,0,pull,1768,38,5,5,francais,m,4,0.4,37.92501629,1.60290293
60ae750dbba4a1822e957e68,33,0,2024-02-24T08:19:56.906Z,french_933.wav,0,pull,1768,38,5,5,francais,m,5,0.5,-35.56187113,0.81732851
60ae750dbba4a1822e957e68,33,0,2024-02-24T08:19:56.906Z,french_933.wav,0,pull,1768,38,5,5,francais,m,6,0.6,59.84524001,1.28262622
60ae750dbba4a1822e957e68,33,0,2024-02-24T08:19:56.906Z,french_933.wav,0,pull,1768,38,5,5,francais,m,7,0.7,24.35368068,1.01556076
60ae750dbba4a1822e957e68,33,0,2024-02-24T08:19:56.906Z,french_933.wav,0,pull,1768,38,5,5,francais,m,8,0.8,67.82444353,0.86505333
60ae750dbba4a1822e957e68,33,0,2024-02-24T08:19:56.906Z,french_933.wav,0,pull,1768,38,5,5,francais,m,9,0.9,-52.71000344,1.28433396
60ae750dbba4a1822e957e68,33,0,2024-02-24T08:19:56.906Z,french_933.wav,0,pull,1768,38,5,5,francais,m,10,1.0,-54.70339119,0.40007403
60ae750dbba4a1822e957e68,33,0,2024-02-24T08:19:56.906Z,french_933.wav,0,pull,1768,38,5,5,francais,m,11,1.1,-41.48635512,0.04539202
60ae750dbba4a1822e957e68,33,0,2024-02-24T08:19:56.906Z,french_933.wav,0,pull,1768,38,5,5,francais,m,12,1.14141667,11.82766033,0.17405222
60ae750dbba4a1822e957e68,34,0,2024-02-24T08:19:56.906Z,french_98.wav,0,poule,896,38,5,5,francais,m,0,0.0,27.92501493,1.51631653
60ae750dbba4a1822e957e68,34,0,2024-02-24T08:19:56.906Z,french_98.wav,0,poule,896,38,5,5,francais,m,1,0.1,59.24114929,0.28885009
60ae750dbba4a1822e957e68,34,0,2024-02-24T08:19:56.906Z,french_98.wav,0,poule,896,38,5,5,francais,m,2,0.2,-68.02156992,0.05176143
60ae750dbba4a1822e957e68,34,0,2024-02-24T08:19:56.906Z,french_98.wav,0,poule,896,38,5,5,francais,m,3,0.3,5.60235983,1.90669743
60ae750dbba4a1822e957e68,34,0,2024-02-24T08:19:56.906Z,french_98.wav,0,poule,896,38,5,5,francais,m,4,0.4,2.69393326,1.86364642
60ae750dbba4a1822e957e68,34,0,2024-02-24T08:19:56.906Z,french_98.wav,0,poule,896,38,5,5,francais,m,5,0.5,90.0176611,0.90725653
60ae750dbba4a1822e957e68,34,0,2024-02-24T08:19:56.906Z,french_98.wav,0,poule,896,38,5,5,francais,m,6,0.6,41.09060442,0.95347669
60ae750dbba4a1822e957e68,34,0,2024-02-24T08:19:56.906Z,french_98.wav,0,poule,896,38,5,5,francais,m,7,0.7,62.7475479,0.30246882
60ae750dbba4a1822e957e68,34,0,2024-02-24T08:19:56.906Z,french_98.wav,0,poule,896,38,5,5,francais,m,8,0.8,66.62159186,0.88737081
60ae750dbba4a1822e957e68,34,0,2024-02-24T08:19:56.906Z,french_98.wav,0,poule,896,38,5,5,francais,m,9,0.9,14.67969687,1.21320472
60ae750dbba4a1822e957e68,34,0,2024-02-24T08:19:56.906Z,french_98.wav,0,poule,896,38,5,5,francais,m,10,1.0,69.55311158,1.54236415
60ae750dbba4a1822e957e68,34,0,2024-02-24T08:19:56.906Z,french_98.wav,0,poule,896,38,5,5,francais,m,11,1.1,90.37756358,0.74421088
60ae750dbba4a1822e957e68,34,0,2024-02-24T08:19:56.906Z,french_98.wav,0,poule,896,38,5,5,francais,m,12,1.14141667,17.28405695,1.15025617
60ae750dbba4a1822e957e68,35,0,2024-02-24T08:19:56.906Z,french_657.wav,0,pull,947,38,5,5,francais,m,0,0.0,50.77155,0.21857213
60ae750dbba4a1822e957e68,35,0,2024-02-24T08:19:56.906Z,french_657.wav,0,pull,947,38,5,5,francais,m,1,0.1,-88.44032236,0.77478754
60ae750dbba4a1822e957e68,35,0,2024-02-24T08:19:56.906Z,french_657.wav,0,pull,947,38,5,5,francais,m,2,0.2,-16.35056241,1.07560701
60ae750dbba4a1822e957e68,35,0,2024-02-24T08:19:56.906Z,french_657.wav,0,pull,947,38,5,5,francais,m,3,0.3,93.40705596,1.87026108
60ae750dbba4a1822e957e68,35,0,2024-02-24T08:19:56.906Z,french_657.wav,0,pull,947,38,5,5,francais,m,4,0.4,-74.6789326,0.69300558
60ae750dbba4a1822e957e68,35,0,2024-02-24T08:19:56.906Z,french_657.wav,0,pull,947,38,5,5,francais,m,5,0.5,-38.29324704,0.52433596
60ae750dbba4a1822e957e68,35,0,2024-02-24T08:19:56.906Z,french_657.wav,0,pull,947,38,5,5,francais,m,6,0.6,32.78215282,1.52144011
60ae750dbba4a1822e957e68,35,0,2024-02-24T08:19:56.906Z,french_657.wav,0,pull,947,38,5,5,francais,m,7,0.7,29.62203909,1.14086256
60ae750dbba4a1822e957e68,35,0,2024-02-24T08:19:56.906Z,french_657.wav,0,pull,947,38,5,5,francais,m,8,0.8,-11.53531476,1.26545396
60ae750dbba4a1822e957e68,35,0,2024-02-24T08:19:56.906Z,french_657.wav,0,pull,947,38,5,5,francais,m,9,0.9,57.1082223,1.92266532
60ae750dbba4a1822e957e68,35,0,2024-02-24T08:19:56.906Z,french_657.wav,0,pull,947,38,5,5,francais,m,10,1.0,57.55501293,0.47482447
60ae750dbba4a1822e957e68,35,0,2024-02-24T08:19:56.906Z,french_657.wav,0,pull,947,38,5,5,francais,m,11,1.1,34.6835129,0.15103677
60ae750dbba4a1822e957e68,35,0,2024-02-24T08:19:56.906Z,french_657.wav,0,pull,947,38,5,5,francais,m,12,1.14141667,-93.64179673,1.64505221
60ae750dbba4a1822e957e68,36,0,2024-02-24T08:19:56.906Z,french_693.wav,0,pull,474,38,5,5,francais,m,0,0.0,85.06863742,1.43800555
60ae750dbba4a1822e957e68,36,0,2024-02-24T08:19:56.906Z,french_693.wav,0,pull,474,38,5,5,francais,m,1,0.1,68.65637618,1.1319261
60ae750dbba4a1822e957e68,36,0,2024-02-24T08:19:56.906Z,french_693.wav,0,pull,474,38,5,5,francais,m,2,0.2,-64.93166306,1.31376129
60ae750dbba4a1822e957e68,36,0,2024-02-24T08:19:56.906Z,french_693.wav,0,pull,474,38,5,5,francais,m,3,0.3,9.02094246,1.44469297
60ae750dbba4a1822e957e68,36,0,2024-02-24T08:19:56.906Z,french_693.wav,0,pull,474,38,5,5,francais,m,4,0.4,30.21577577,0.25926005
60ae750dbba4a1822e957e68,36,0,2024-02-24T08:19:56.906Z,french_693.wav,0,pull,474,38,5,5,francais,m,5,0.5,-45.55013979,1.97890068
60ae750dbba4a1822e957e68,36,0,2024-02-24T08:19:56.906Z,french_693.wav,0,pull,474,38,5,5,francais,m,6,0.6,-22.45894718,0.76035239
60ae750dbba4a1822e957e68,36,0,2024-02-24T08:19:56.906Z,french_693.wav,0,pull,474,38,5,5,francais,m,7,0.7,-22.03690569,0.26797463
60ae750dbba4a1822e957e68,36,0,2024-02-24T08:19:56.906Z,french_693.wav,0,pull,474,38,5,5,francais,m,8,0.8,-72.74256114,0.09379237
60ae750dbba4a1822e957e68,36,0,2024-02-24T08:19:56.906Z,french_693.wav,0,pull,474,38,5,5,francais,m,9,0.9,79.55542456,1.21622186
60ae750dbba4a1822e957e68,36,0,2024-02-24T08:19:56.906Z,french_693.wav,0,pull,474,38,5,5,francais,m,10,1.0,3.37293032,0.59723312
60ae750dbba4a1822e957e68,36,0,2024-02-24T08:19:56.906Z,french_693.wav,0,pull,474,38,5,5,francais,m,11,1.1,-26.61524733,1.86545966
60ae750dbba4a1822e957e68,36,0,2024-02-24T08:19:56.906Z,french_693.wav,0,pull,474,38,5,5,francais,m,12,1.14141667,-12.67054895,1.32223551
60ae750dbba4a1822e957e68,37,0,2024-02-24T08:19:56.906Z,french_14.wav,0,pull,967,38,5,5,francais,m,0,0.0,47.89955795,0.26613935
60ae750dbba4a1822e957e68,37,0,2024-02-24T08:19:56.906Z,french_14.wav,0,pull,967,38,5,5,francais,m,1,0.1,61.35134247,1.19318983
60ae750dbba4a1822e957e68,37,0,2024-02-24T08:19:56.906Z,french_14.wav,0,pull,967,38,5,5,francais,m,2,0.2,25.97351418,1.52071117
60ae750dbba4a1822e957e68,37,0,2024-02-24T08:19:56.906Z,french_14.wav,0,pull,967,38,5,5,francais,m,3,0.3,96.79201142,1.8410781
60ae750dbba4a1822e957e68,37,0,2024-02-24T08:19:56.906Z,french_14.wav,0,pull,967,38,5,5,francais,m,4,0.4,-2.49416278,0.83400601
60ae750dbba4a1822e957e68,37,0,2024-02-24T08:19:56.906Z,french_14.wav,0,pull,967,38,5,5,francais,m,5,0.5,-48.27662198,0.10945672
60ae750dbba4a1822e957e68,37,0,2024-02-24T08:19:56.906Z,french_14.wav,0,pull,967,38,5,5,francais,m,6,0.6,40.76261572,0.75420347
60ae750dbba4a1822e957e68,37,0,2024-02-24T08:19:56.906Z,french_14.wav,0,pull,967,38,5,5,francais,m,7,0.7,-77.78715279,0.00356081
60ae750dbba4a1822e957e68,37,0,2024-02-24T08:19:56.906Z,french_14.wav,0,pull,967,38,5,5,francais,m,8,0.8,1.01884087,0.62198197
60ae750dbba4a1822e957e68,37,0,2024-02-24T08:19:56.906Z,french_14.wav,0,pull,967,38,5,5,francais,m,9,0.9,-46.10217397,0.23306124
60ae750dbba4a1822e957e68,37,0,2024-02-24T08:19:56.906Z,french_14.wav,0,pull,967,38,5,5,francais,m,10,1.0,68.50309763,1.67852962
60ae750dbba4a1822e957e68,37,0,2024-02-24T08:19:56.906Z,french_14.wav,0,pull,967,38,5,5,francais,m,11,1.1,54.05400046,1.90740001
60ae750dbba4a1822e957e68,37,0,2024-02-24T08:19:56.906Z,french_14.wav,0,pull,967,38,5,5,francais,m,12,1.14141667,12.0764648,0.55424844
60ae750dbba4a1822e957e68,38,0,2024-02-24T08:19:56.906Z,french_856.wav,0,poule,1883,38,5,5,francais,m,0,0.0,-0.93889544,1.28603939
60ae750dbba4a1822e957e68,38,0,2024-02-24T08:19:56.906Z,french_856.wav,0,poule,1883,38,5,5,francais,m,1,0.1,90.07982384,1.96490125
60ae750dbba4a1822e957e68,38,0,2024-02-24T08:19:56.906Z,french_856.wav,0,poule,1883,38,5,5,francais,m,2,0.2,22.28999256,0.30855118
60ae750dbba4a1822e957e68,38,0,2024-02-24T08:19:56.906Z,french_856.wav,0,poule,1883,38,5,5,francais,m,3,0.3,-70.55357194,1.81394373
60ae750dbba4a1822e957e68,38,0,2024-02-24T08:19:56.906Z,french_856.wav,0,poule,1883,38,5,5,francais,m,4,0.4,-39.36048444,1.50076133
60ae750dbba4a1822e957e68,38,0,2024-02-24T08:19:56.906Z,french_856.wav,0,poule,1883,38,5,5,francais,m,5,0.5,80.72578613,0.90391841
60ae750dbba4a1822e957e68,38,0,2024-02-24T08:19:56.906Z,french_856.wav,0,poule,1883,38,5,5,francais,m,6,0.6,-38.29184104,0.70323297
60ae750dbba4a1822e957e68,38,0,2024-02-24T08:19:56.906Z,french_856.wav,0,poule,1883,38,5,5,francais,m,7,0.7,80.58102018,1.65396101
60ae750dbba4a1822e957e68,38,0,2024-02-24T08:19:56.906Z,french_856.wav,0,poule,1883,38,5,5,francais,m,8,0.8,72.71158308,0.93078739
60ae750dbba4a1822e957e68,38,0,2024-02-24T08:19:56.906Z,french_856.wav,0,poule,1883,38,5,5,francais,m,9,0.9,-45.84185553,0.5298796
60ae750dbba4a1822e957e68,38,0,2024-02-24T08:19:56.906Z,french_856.wav,0,poule,1883,38,5,5,francais,m,10,1.0,43.65872365,1.25026146
60ae750dbba4a1822e957e68,38,0,2024-02-24T08:19:56.906Z,french_856.wav,0,poule,1883,38,5,5,francais,m,11,1.1,70.34512494,1.14846561
60ae750dbba4a1822e957e68,38,0,2024-02-24T08:19:56.906Z,french_856.wav,0,poule,1883,38,5,5,francais,m,12,1.14141667,-74.99468932,1.91922666
60ae750dbba4a1822e957e68,39,0,2024-02-24T08:19:56.906Z,french_674.wav,0,poule,1040,38,5,5,francais,m,0,0.0,13.4877762,1.49229311
60ae750dbba4a1822e957e68,39,0,2024-02-24T08:19:56.906Z,french_674.wav,0,poule,1040,38,5,5,francais,m,1,0.1,-72.71286041,0.38255489
60ae750dbba4a1822e957e68,39,0,2024-02-24T08:19:56.906Z,french_674.wav,0,poule,1040,38,5,5,francais,m,2,0.2,25.25285257,1.8939445
60ae750dbba4a1822e957e68,39,0,2024-02-24T08:19:56.906Z,french_674.wav,0,poule,1040,38,5,5,francais,m,3,0.3,-18.45415803,1.35404975
60ae750dbba4a1822e957e68,39,0,2024-02-24T08:19:56.906Z,french_674.wav,0,poule,1040,38,5,5,francais,m,4,0.4,-57.71656378,1.2879641
60ae750dbba4a1822e957e68,39,0,2024-02-24T08:19:56.906Z,french_674.wav,0,poule,1040,38,5,5,francais,m,5,0.5,-73.49162441,1.75487552
60ae750dbba4a1822e957e68,39,0,2024-02-24T08:19:56.906Z,french_674.wav,0,poule,1040,38,5,5,francais,m,6,0.6,-1.85504026,0.89488389
60ae750dbba4a1822e957e68,39,0,2024-02-24T08:19:56.906Z,french_674.wav,0,poule,1040,38,5,5,francais,m,7,0.7,-87.1412738,0.66012514
60ae750dbba4a1822e957e68,39,0,2024-02-24T08:19:56.906Z,french_674.wav,0,poule,1040,38,5,5,francais,m,8,0.8,-35.96348726,0.42860271
60ae750dbba4a1822e957e68,39,0,2024-02-24T08:19:56.906Z,french_674.wav,0,poule,1040,38,5,5,francais,m,9,0.9,-95.42427093,0.95081491
60ae750dbba4a1822e957e68,39,0,2024-02-24T08:19:56.906Z,french_674.wav,0,poule,1040,38,5,5,francais,m,10,1.0,-14.54067517,1.48593936
60ae750dbba4a1822e957e68,39,0,2024-02-24T08:19:56.906Z,french_674.wav,0,poule,1040,38,5,5,francais,m,11,1.1,-75.28735124,0.17038498
60ae750dbba4a1822e957e68,39,0,2024-02-24T08:19:56.906Z,french_674.wav,0,poule,1040,38,5,5,francais,m,12,1.14141667,-11.45770391,1.04908179
60ae750dbba4a1822e957e68,40,0,2024-02-24T08:19:56.906Z,french_780.wav,0,poule,570,38,5,5,francais,m,0,0.0,1.6361827,0.91275893
60ae750dbba4a1822e957e68,40,0,2024-02-24T08:19:56.906Z,french_780.wav,0,poule,570,38,5,5,francais,m,1,0.1,65.3259988,0.6923682
60ae750dbba4a1822e957e68,40,0,2024-02-24T08:19:56.906Z,french_780.wav,0,poule,570,38,5,5,francais,m,2,0.2,-9.10284964,0.91492024
60ae750dbba4a1822e957e68,40,0,2024-02-24T08:19:56.906Z,french_780.wav,0,poule,570,38,5,5,francais,m,3,0.3,71.37936618,0.74961563
60ae750dbba4a1822e957e68,40,0,2024-02-24T08:19:56.906Z,french_780.wav,0,poule,570,38,5,5,francais,m,4,0.4,-61.83005099,1.83666104
60ae750dbba4a1822e957e68,40,0,2024-02-24T08:19:56.906Z,french_780.wav,0,poule,570,38,5,5,francais,m,5,0.5,64.1925332,1.59808961
60ae750dbba4a1822e957e68,40,0,2024-02-24T08:19:56.906Z,french_780.wav,0,poule,570,38,5,5,francais,m,6,0.6,-73.78104882,0.06025733
60ae750dbba4a1822e957e68,40,0,2024-02-24T08:19:56.906Z,french_780.wav,0,poule,570,38,5,5,francais,m,7,0.7,-75.04579524,0.97352889
60ae750dbba4a1822e957e68,40,0,2024-02-24T08:19:56.906Z,french_780.wav,0,poule,570,38,5,5,francais,m,8,0.8,94.52941368,0.3343283
60ae750dbba4a1822e957e68,40,0,2024-02-24T08:19:56.906Z,french_780.wav,0,poule,570,38,5,5,francais,m,9,0.9,-40.24958263,1.19408747
60ae750dbba4a1822e957e68,40,0,2024-02-24T08:19:56.906Z,french_780.wav,0,poule,570,38,5,5,francais,m,10,1.0,70.56248905,1.41158065
60ae750dbba4a1822e957e68,40,0,2024-02-24T08:19:56.906Z,french_780.wav,0,poule,570,38,5,5,francais,m,11,1.1,-94.2422388,0.89941942
60ae750dbba4a1822e957e68,40,0,2024-02-24T08:19:56.906Z,french_780.wav,0,poule,570,38,5,5,francais,m,12,1.14141667,38.81083767,0.47183897
60ae750dbba4a1822e957e68,41,0,2024-02-24T08:19:56.906Z,french_685.wav,0,poule,1010,38,5,5,francais,m,0,0.0,15.72275415,0.3186228
60ae750dbba4a1822e957e68,41,0,2024-02-24T08:19:56.906Z,french_685.wav,0,poule,1010,38,5,5,francais,m,1,0.1,-17.98823356,0.55293097
60ae750dbba4a1822e957e68,41,0,2024-02-24T08:19:56.906Z,french_685.wav,0,poule,1010,38,5,5,francais,m,2,0.2,65.15130869,1.61552047
60ae750dbba4a1822e957e68,41,0,2024-02-24T08:19:56.906Z,french_685.wav,0,poule,1010,38,5,5,francais,m,3,0.3,-29.09849503,1.16824703
60ae750dbba4a1822e957e68,41,0,2024-02-24T08:19:56.906Z,french_685.wav,0,poule,1010,38,5,5,francais,m,4,0.4,80.3913755,1.52008085
60ae750dbba4a1822e957e68,41,0,2024-02-24T08:19:56.906Z,french_685.wav,0,poule,1010,38,5,5,francais,m,5,0.5,69.16437222,0.87763706
60ae750dbba4a1822e957e68,41,0,2024-02-24T08:19:56.906Z,french_685.wav,0,poule,1010,38,5,5,francais,m,6,0.6,94.4311828,1.87993666
60ae750dbba4a1822e957e68,41,0,2024-02-24T08:19:56.906Z,french_685.wav,0,poule,1010,38,5,5,francais,m,7,0.7,-34.30157349,1.65434325
60ae750dbba4a1822e957e68,41,0,2024-02-24T08:19:56.906Z,french_685.wav,0,poule,1010,38,5,5,francais,m,8,0.8,54.54653623,0.05536448
60ae750dbba4a1822e957e68,41,0,2024-02-24T08:19:56.906Z,french_685.wav,0,poule,1010,38,5,5,francais,m,9,0.9,70.83768359,1.1397735
60ae750dbba4a1822e957e68,41,0,2024-02-24T08:19:56.906Z,french_685.wav,0,poule,1010,38,5,5,francais,m,10,1.0,85.61297077,0.83672501
60ae750dbba4a1822e957e68,41,0,2024-02-24T08:19:56.906Z,french_685.wav,0,poule,1010,38,5,5,francais,m,11,1.1,27.81589557,0.56110169
60ae750dbba4a1822e957e68,41,0,2024-02-24T08:19:56.906Z,french_685.wav,0,poule,1010,38,5,5,francais,m,12,1.14141667,-9.10708793,0.81567385
60ae750dbba4a1822e957e68,42,0,2024-02-24T08:19:56.906Z,french_718.wav,0,poule,629,38,5,5,francais,m,0,0.0,33.83974481,1.83484525
60ae750dbba4a1822e957e68,42,0,2024-02-24T08:19:56.906Z,french_718.wav,0,poule,629,38,5,5,francais,m,1,0.1,75.60927008,0.41567784
60ae750dbba4a1822e957e68,42,0,2024-02-24T08:19:56.906Z,french_718.wav,0,poule,629,38,5,5,francais,m,2,0.2,5.42570617,1.12655023
60ae750dbba4a1822e957e68,42,0,2024-02-24T08:19:56.906Z,french_718.wav,0,poule,629,38,5,5,francais,m,3,0.3,-86.49968927,1.26248076
60ae750dbba4a1822e957e68,42,0,2024-02-24T08:19:56.906Z,french_718.wav,0,poule,629,38,5,5,francais,m,4,0.4,-82.66009843,1.75908703
60ae750dbba4a1822e957e68,42,0,2024-02-24T08:19:56.906Z,french_718.wav,0,poule,629,38,5,5,francais,m,5,0.5,-7.42138801,1.52482075
60ae750dbba4a1822e957e68,42,0,2024-02-24T08:19:56.906Z,french_718.wav,0,poule,629,38,5,5,francais,m,6,0.6,22.39546771,1.87690382
60ae750dbba4a1822e957e68,42,0,2024-02-24T08:19:56.906Z,french_718.wav,0,poule,629,38,5,5,francais,m,7,0.7,-75.7468097,0.07228786
60ae750dbba4a1822e957e68,42,0,2024-02-24T08:19:56.906Z,french_718.wav,0,poule,629,38,5,5,francais,m,8,0.8,56.54879527,1.60832124
60ae750dbba4a1822e957e68,42,0,2024-02-24T08:19:56.906Z,french_718.wav,0,poule,629,38,5,5,francais,m,9,0.9,22.08965796,1.35064447
60ae750dbba4a1822e957e68,42,0,2024-02-24T08:19:56.906Z,french_718.wav,0,poule,629,38,5,5,francais,m,10,1.0,0.92889237,1.67650518
60ae750dbba4a1822e957e68,42,0,2024-02-24T08:19:56.906Z,french_718.wav,0,poule,629,38,5,5,francais,m,11,1.1,-96.09137466,1.75605442
60ae750dbba4a1822e957e68,42,0,2024-02-24T08:19:56.906Z,french_718.wav,0,poule,629,38,5,5,francais,m,12,1.14141667,-27.56610434,1.42532868
60ae750dbba4a1822e957e68,43,0,2024-02-24T08:19:56.906Z,french_32.wav,0,poule,522,38,5,5,francais,m,0,0.0,25.64245336,0.9376555
60ae750dbba4a1822e957e68,43,0,2024-02-24T08:19:56.906Z,french_32.wav,0,poule,522,38,5,5,francais,m,1,0.1,74.46490303,0.0194653
60ae750dbba4a1822e957e68,43,0,2024-02-24T08:19:56.906Z,french_32.wav,0,poule,522,38,5,5,francais,m,2,0.2,75.42714506,0.91939121
60ae750dbba4a1822e957e68,43,0,2024-02-24T08:19:56.906Z,french_32.wav,0,poule,522,38,5,5,francais,m,3,0.3,12.14071868,1.08230627
60ae750dbba4a1822e957e68,43,0,2024-02-24T08:19:56.906Z,french_32.wav,0,poule,522,38,5,5,francais,m,4,0.4,40.77039563,0.82408412
60ae750dbba4a1822e957e68,43,0,2024-02-24T08:19:56.906Z,french_32.wav,0,poule,522,38,5,5,francais,m,5,0.5,-20.80438468,1.20505809
60ae750dbba4a1822e957e68,43,0,2024-02-24T08:19:56.906Z,french_32.wav,0,poule,522,38,5,5,francais,m,6,0.6,-71.68231008,0.63983348
60ae750dbba4a1822e957e68,43,0,2024-02-24T08:19:56.906Z,french_32.wav,0,poule,522,38,5,5,francais,m,7,0.7,16.12247882,0.90304415
60ae750dbba4a1822e957e68,43,0,2024-02-24T08:19:56.906Z,french_32.wav,0,poule,522,38,5,5,francais,m,8,0.8,87.68485785,1.79212791
60ae750dbba4a1822e957e68,43,0,2024-02-24T08:19:56.906Z,french_32.wav,0,poule,522,38,5,5,francais,m,9,0.9,79.73964285,1.47515702
60ae750dbba4a1822e957e68,43,0,2024-02-24T08:19:56.906Z,french_32.wav,0,poule,522,38,5,5,francais,m,10,1.0,-38.91547588,1.77574617
60ae750dbba4a1822e957e68,43,0,2024-02-24T08:19:56.906Z,french_32.wav,0,poule,522,38,5,5,francais,m,11,1.1,4.83585376,0.71542026
60ae750dbba4a1822e957e68,43,0,2024-02-24T08:19:56.906Z,french_32.wav,0,poule,522,38,5,5,francais,m,12,1.14141667,27.36294356,0.90843464
60ae750dbba4a1822e957e68,44,0,2024-02-24T08:19:56.906Z,french_307.wav,0,poule,507,38,5,5,francais,m,0,0.0,-81.2536919,1.33468173
60ae750dbba4a1822e957e68,44,0,2024-02-24T08:19:56.906Z,french_307.wav,0,poule,507,38,5,5,francais,m,1,0.1,-5.92199646,1.24052459
60ae750dbba4a1822e957e68,44,0,2024-02-24T08:19:56.906Z,french_307.wav,0,poule,507,38,5,5,francais,m,2,0.2,-70.8440156,0.05751099
60ae750dbba4a1822e957e68,44,0,2024-02-24T08:19:56.906Z,french_307.wav,0,poule,507,38,5,5,francais,m,3,0.3,-38.8570398,0.0183033
60ae750dbba4a1822e957e68,44,0,2024-02-24T08:19:56.906Z,french_307.wav,0,poule,507,38,5,5,francais,m,4,0.4,-74.6373028,1.42823854
60ae750dbba4a1822e957e68,44,0,2024-02-24T08:19:56.906Z,french_307.wav,0,poule,507,38,5,5,francais,m,5,0.5,37.2357881,1.31262623
60ae750dbba4a1822e957e68,44,0,2024-02-24T08:19:56.906Z,french_307.wav,0,poule,507,38,5,5,francais,m,6,0.6,-2.6113695,1.64307627
60ae750dbba4a1822e957e68,44,0,2024-02-24T08:19:56.906Z,french_307.wav,0,poule,507,38,5,5,francais,m,7,0.7,40.6769116,1.23311758
60ae750dbba4a1822e957e68,44,0,2024-02-24T08:19:56.906Z,french_307.wav,0,poule,507,38,5,5,francais,m,8,0.8,66.8191977,1.11809567
60ae750dbba4a1822e957e68,44,0,2024-02-24T08:19:56.906Z,french_307.wav,0,poule,507,38,5,5,francais,m,9,0.9,89.4255447,1.10385944
60ae750dbba4a1822e957e68,44,0,2024-02-24T08:19:56.906Z,french_307.wav,0,poule,507,38,5,5,francais,m,10,1.0,-0.0124290818,1.86476593
60ae750dbba4a1822e957e68,44,0,2024-02-24T08:19:56.906Z,french_307.wav,0,poule,507,38,5,5,francais,m,11,1.1,-94.7277852,1.90945351
60ae750dbba4a1822e957e68,44,0,2024-02-24T08:19:56.906Z,french_307.wav,0,poule,507,38,5,5,francais,m,12,1.14141667,5.25537701,1.40561689
60ae750dbba4a1822e957e68,45,0,2024-02-24T08:19:56.906Z,french_351.wav,0,pull,1938,38,5,5,francais,m,0,0.0,85.6199955,0.19143732
60ae750dbba4a1822e957e68,45,0,2024-02-24T08:19:56.906Z,french_351.wav,0,pull,1938,38,5,5,francais,m,1,0.1,-58.21803023,0.65841603
60ae750dbba4a1822e957e68,45,0,2024-02-24T08:19:56.906Z,french_351.wav,0,pull,1938,38,5,5,francais,m,2,0.2,-74.01582093,0.92288135
60ae750dbba4a1822e957e68,45,0,2024-02-24T08:19:56.906Z,french_351.wav,0,pull,1938,38,5,5,francais,m,3,0.3,-37.08836973,0.84124379
60ae750dbba4a1822e957e68,45,0,2024-02-24T08:19:56.906Z,french_351.wav,0,pull,1938,38,5,5,francais,m,4,0.4,51.76831215,0.79870299
60ae750dbba4a1822e957e68,45,0,2024-02-24T08:19:56.906Z,french_351.wav,0,pull,1938,38,5,5,francais,m,5,0.5,8.55965689,1.46106007
60ae750dbba4a1822e957e68,45,0,2024-02-24T08:19:56.906Z,french_351.wav,0,pull,1938,38,5,5,francais,m,6,0.6,27.71691358,0.45059655
60ae750dbba4a1822e957e68,45,0,2024-02-24T08:19:56.906Z,french_351.wav,0,pull,1938,38,5,5,francais,m,7,0.7,-58.19113091,1.62014764
60ae750dbba4a1822e957e68,45,0,2024-02-24T08:19:56.906Z,french_351.wav,0,pull,1938,38,5,5,francais,m,8,0.8,27.05080067,1.4891219
60ae750dbba4a1822e957e68,45,0,2024-02-24T08:19:56.906Z,french_351.wav,0,pull,1938,38,5,5,francais,m,9,0.9,27.79413221,1.20637276
60ae750dbba4a1822e957e68,45,0,2024-02-24T08:19:56.906Z,french_351.wav,0,pull,1938,38,5,5,francais,m,10,1.0,50.00685101,1.30794963
60ae750dbba4a1822e957e68,45,0,2024-02-24T08:19:56.906Z,french_351.wav,0,pull,1938,38,5,5,francais,m,11,1.1,-92.88762057,0.24756041
60ae750dbba4a1822e957e68,45,0,2024-02-24T08:19:56.906Z,french_351.wav,0,pull,1938,38,5,5,francais,m,12,1.14141667,-51.26204732,0.85622749
60ae750dbba4a1822e957e68,46,0,2024-02-24T08:19:56.906Z,french_202.wav,0,poule,691,38,5,5,francais,m,0,0.0,-17.04430056,0.85322679
60ae750dbba4a1822e957e68,46,0,2024-02-24T08:19:56.906Z,french_202.wav,0,poule,691,38,5,5,francais,m,1,0.1,-39.59352405,1.90558069
60ae750dbba4a1822e957e68,46,0,2024-02-24T08:19:56.906Z,french_202.wav,0,poule,691,38,5,5,francais,m,2,0.2,-50.32219172,0.57660663
60ae750dbba4a1822e957e68,46,0,2024-02-24T08:19:56.906Z,french_202.wav,0,poule,691,38,5,5,francais,m,3,0.3,-86.25811675,0.53517989
60ae750dbba4a1822e957e68,46,0,2024-02-24T08:19:56.906Z,french_202.wav,0,poule,691,38,5,5,francais,m,4,0.4,0.56208373,1.3075328
60ae750dbba4a1822e957e68,46,0,2024-02-24T08:19:56.906Z,french_202.wav,0,poule,691,38,5,5,francais,m,5,0.5,12.13136617,0.65532662
60ae750dbba4a1822e957e68,46,0,2024-02-24T08:19:56.906Z,french_202.wav,0,poule,691,38,5,5,francais,m,6,0.6,-9.09694351,0.58470433
60ae750dbba4a1822e957e68,46,0,2024-02-24T08:19:56.906Z,french_202.wav,0,poule,691,38,5,5,francais,m,7,0.7,-34.01550811,1.41307701
60ae750dbba4a1822e957e68,46,0,2024-02-24T08:19:56.906Z,french_202.wav,0,poule,691,38,5,5,francais,m,8,0.8,-50.44375165,0.21256409
60ae750dbba4a1822e957e68,46,0,2024-02-24T08:19:56.906Z,french_202.wav,0,poule,691,38,5,5,francais,m,9,0.9,45.46201631,1.38233641
60ae750dbba4a1822e957e68,46,0,2024-02-24T08:19:56.906Z,french_202.wav,0,poule,691,38,5,5,francais,m,10,1.0,32.9446266,1.86150004
60ae750dbba4a1822e957e68,46,0,2024-02-24T08:19:56.906Z,french_202.wav,0,poule,691,38,5,5,francais,m,11,1.1,-83.35470967,1.834538
60ae750dbba4a1822e957e68,46,0,2024-02-24T08:19:56.906Z,french_202.wav,0,poule,691,38,5,5,francais,m,12,1.14141667,64.06448626,1.65956504
60ae750dbba4a1822e957e68,47,0,2024-02-24T08:19:56.906Z,french_786.wav,0,pull,733,38,5,5,francais,m,0,0.0,38.76441964,1.14598177
60ae750dbba4a1822e957e68,47,0,2024-02-24T08:19:56.906Z,french_786.wav,0,pull,733,38,5,5,francais,m,1,0.1,-17.22213434,0.30884626
60ae750dbba4a1822e957e68,47,0,2024-02-24T08:19:56.906Z,french_786.wav,0,pull,733,38,5,5,francais,m,2,0.2,-53.50411542,1.46322181
60ae750dbba4a1822e957e68,47,0,2024-02-24T08:19:56.906Z,french_786.wav,0,pull,733,38,5,5,francais,m,3,0.3,54.00869537,1.01008771
60ae750dbba4a1822e957e68,47,0,2024-02-24T08:19:56.906Z,french_786.wav,0,pull,733,38,5,5,francais,m,4,0.4,41.15972867,0.8851671
60ae750dbba4a1822e957e68,47,0,2024-02-24T08:19:56.906Z,french_786.wav,0,pull,733,38,5,5,francais,m,5,0.5,5.62640716,0.04808052
60ae750dbba4a1822e957e68,47,0,2024-02-24T08:19:56.906Z,french_786.wav,0,pull,733,38,5,5,francais,m,6,0.6,-40.24246399,0.01062828
60ae750dbba4a1822e957e68,47,0,2024-02-24T08:19:56.906Z,french_786.wav,0,pull,733,38,5,5,francais,m,7,0.7,37.40642031,0.50762063
60ae750dbba4a1822e957e68,47,0,2024-02-24T08:19:56.906Z,french_786.wav,0,pull,733,38,5,5,francais,m,8,0.8,-79.038697,1.45151939
60ae750dbba4a1822e957e68,47,0,2024-02-24T08:19:56.906Z,french_786.wav,0,pull,733,38,5,5,francais,m,9,0.9,-2.83409807,0.5557897
60ae750dbba4a1822e957e68,47,0,2024-02-24T08:19:56.906Z,french_786.wav,0,pull,733,38,5,5,francais,m,10,1.0,-83.88540682,1.26457994
60ae750dbba4a1822e957e68,47,0,2024-02-24T08:19:56.906Z,french_786.wav,0,pull,733,38,5,5,francais,m,11,1.1,-36.64548828,0.26949796
60ae750dbba4a1822e957e68,47,0,2024-02-24T08:19:56.906Z,french_786.wav,0,pull,733,38,5,5,francais,m,12,1.14141667,-40.44439649,0.7448993
60ae750dbba4a1822e957e68,48,0,2024-02-24T08:19:56.906Z,french_274.wav,0,poule,776,38,5,5,francais,m,0,0.0,11.34851872,0.92432066
60ae750dbba4a1822e957e68,48,0,2024-02-24T08:19:56.906Z,french_274.wav,0,poule,776,38,5,5,francais,m,1,0.1,13.75361052,1.08642525
60ae750dbba4a1822e957e68,48,0,2024-02-24T08:19:56.906Z,french_274.wav,0,poule,776,38,5,5,francais,m,2,0.2,-0.75190247,1.84874711
60ae750dbba4a1822e957e68,48,0,2024-02-24T08:19:56.906Z,french_274.wav,0,poule,776,38,5,5,francais,m,3,0.3,-4.16246796,1.98932462
60ae750dbba4a1822e957e68,48,0,2024-02-24T08:19:56.906Z,french_274.wav,0,poule,776,38,5,5,francais,m,4,0.4,18.70806668,0.96958415
60ae750dbba4a1822e957e68,48,0,2024-02-24T08:19:56.906Z,french_274.wav,0,poule,776,38,5,5,francais,m,5,0.5,47.88190006,0.47164432
60ae750dbba4a1822e957e68,48,0,2024-02-24T08:19:56.906Z,french_274.wav,0,poule,776,38,5,5,francais,m,6,0.6,-89.77923631,1.74396934
60ae750dbba4a1822e957e68,48,0,2024-02-24T08:19:56.906Z,french_274.wav,0,poule,776,38,5,5,francais,m,7,0.7,-0.8025892,0.78095143
60ae750dbba4a1822e957e68,48,0,2024-02-24T08:19:56.906Z,french_274.wav,0,poule,776,38,5,5,francais,m,8,0.8,-59.16372517,1.62764069
60ae750dbba4a1822e957e68,48,0,2024-02-24T08:19:56.906Z,french_274.wav,0,poule,776,38,5,5,francais,m,9,0.9,-28.1266963,1.67337912
60ae750dbba4a1822e957e68,48,0,2024-02-24T08:19:56.906Z,french_274.wav,0,poule,776,38,5,5,francais,m,10,1.0,-15.26675969,1.21050795
60ae750dbba4a1822e957e68,48,0,2024-02-24T08:19:56.906Z,french_274.wav,0,poule,776,38,5,5,francais,m,11,1.1,27.54287848,1.43502167
60ae750dbba4a1822e957e68,48,0,2024-02-24T08:19:56.906Z,french_274.wav,0,poule,776,38,5,5,francais,m,12,1.14141667,84.80385161,1.62747772
60ae750dbba4a1822e957e68,49,0,2024-02-24T08:19:56.906Z,french_391.wav,0,poule,498,38,5,5,francais,m,0,0.0,-63.38951,1.14224987
60ae750dbba4a1822e957e68,49,0,2024-02-24T08:19:56.906Z,french_391.wav,0,poule,498,38,5,5,francais,m,1,0.1,-12.13737461,1.31006617
60ae750dbba4a1822e957e68,49,0,2024-02-24T08:19:56.906Z,french_391.wav,0,poule,498,38,5,5,francais,m,2,0.2,-38.21112995,0.24455102
60ae750dbba4a1822e957e68,49,0,2024-02-24T08:19:56.906Z,french_391.wav,0,poule,498,38,5,5,francais,m,3,0.3,4.18791745,0.96567526
60ae750dbba4a1822e957e68,49,0,2024-02-24T08:19:56.906Z,french_391.wav,0,poule,498,38,5,5,francais,m,4,0.4,11.17446833,1.67923755
60ae750dbba4a1822e957e68,49,0,2024-02-24T08:19:56.906Z,french_391.wav,0,poule,498,38,5,5,francais,m,5,0.5,7.29155963,0.50375972
60ae750dbba4a1822e957e68,49,0,2024-02-24T08:19:56.906Z,french_391.wav,0,poule,498,38,5,5,francais,m,6,0.6,-58.1710113,0.67632761
60ae750dbba4a1822e957e68,49,0,2024-02-24T08:19:56.906Z,french_391.wav,0,poule,498,38,5,5,francais,m,7,0.7,43.11353546,1.0182493
60ae750dbba4a1822e957e68,49,0,2024-02-24T08:19:56.906Z,french_391.wav,0,poule,498,38,5,5,francais,m,8,0.8,-94.57778997,1.87677108
60ae750dbba4a1822e957e68,49,0,2024-02-24T08:19:56.906Z,french_391.wav,0,poule,498,38,5,5,francais,m,9,0.9,-20.01521967,0.59083803
60ae750dbba4a1822e957e68,49,0,2024-02-24T08:19:56.906Z,french_391.wav,0,poule,498,38,5,5,francais,m,10,1.0,-15.40965354,1.56157441
60ae750dbba4a1822e957e68,49,0,2024-02-24T08:19:56.906Z,french_391.wav,0,poule,498,38,5,5,francais,m,11,1.1,-78.29833341,0.23424545
60ae750dbba4a1822e957e68,49,0,2024-02-24T08:19:56.906Z,french_391.wav,0,poule,498,38,5,5,francais,m,12,1.14141667,-63.95688504,1.62713208
60ae750dbba4a1822e957e68,50,1,2024-02-24T08:19:56.906Z,french_787.wav,0,poule,3249,38,5,5,francais,m,0,0.0,79.17712948,0.1163321
60ae750dbba4a1822e957e68,50,1,2024-02-24T08:19:56.906Z,french_787.wav,0,poule,3249,38,5,5,francais,m,1,0.1,-73.07775463,1.90835001
60ae750dbba4a1822e957e68,50,1,2024-02-24T08:19:56.906Z,french_787.wav,0,poule,3249,38,5,5,francais,m,2,0.2,-37.59236331,1.9055926
60ae750dbba4a1822e957e68,50,1,2024-02-24T08:19:56.906Z,french_787.wav,0,poule,3249,38,5,5,francais,m,3,0.3,-95.60780002,1.66008027
60ae750dbba4a1822e957e68,50,1,2024-02-24T08:19:56.906Z,french_787.wav,0,poule,3249,38,5,5,francais,m,4,0.4,-67.52212669,0.73855665
60ae750dbba4a1822e957e68,50,1,2024-02-24T08:19:56.906Z,french_787.wav,0,poule,3249,38,5,5,francais,m,5,0.5,-72.3853784,0.63713084
60ae750dbba4a1822e957e68,50,1,2024-02-24T08:19:56.906Z,french_787.wav,0,poule,3249,38,5,5,francais,m,6,0.6,55.41129583,1.4880735
60ae750dbba4a1822e957e68,50,1,2024-02-24T08:19:56.906Z,french_787.wav,0,poule,3249,38,5,5,francais,m,7,0.7,-20.28029725,0.64813036
60ae750dbba4a1822e957e68,50,1,2024-02-24T08:19:56.906Z,french_787.wav,0,poule,3249,38,5,5,francais,m,8,0.8,-85.08323843,1.12873134
60ae750dbba4a1822e957e68,50,1,2024-02-24T08:19:56.906Z,french_787.wav,0,poule,3249,38,5,5,francais,m,9,0.9,93.86210994,1.32091412
60ae750dbba4a1822e957e68,50,1,2024-02-24T08:19:56.906Z,french_787.wav,0,poule,3249,38,5,5,francais,m,10,1.0,-64.51549876,0.48515729
60ae750dbba4a1822e957e68,50,1,2024-02-24T08:19:56.906Z,french_787.wav,0,poule,3249,38,5,5,francais,m,11,1.1,-56.22239298,0.45260231
60ae750dbba4a1822e957e68,50,1,2024-02-24T08:19:56.906Z,french_787.wav,0,poule,3249,38,5,5,francais,m,12,1.14141667,-87.31995502,0.83170694
60ae750dbba4a1822e957e68,51,1,2024-02-24T08:19:56.906Z,french_425.wav,0,pull,1079,38,5,5,francais,m,0,0.0,40.80708737,1.41087106
60ae750dbba4a1822e957e68,51,1,2024-02-24T08:19:56.906Z,french_425.wav,0,pull,1079,38,5,5,francais,m,1,0.1,60.39772417,1.65745633
60ae750dbba4a1822e957e68,51,1,2024-02-24T08:19:56.906Z,french_425.wav,0,pull,1079,38,5,5,francais,m,2,0.2,-30.92752134,0.45777505
60ae750dbba4a1822e957e68,51,1,2024-02-24T08:19:56.906Z,french_425.wav,0,pull,1079,38,5,5,francais,m,3,0.3,2.68286726,1.01895972
60ae750dbba4a1822e957e68,51,1,2024-02-24T08:19:56.906Z,french_425.wav,0,pull,1079,38,5,5,francais,m,4,0.4,17.39949018,1.013591
60ae750dbba4a1822e957e68,51,1,2024-02-24T08:19:56.906Z,french_425.wav,0,pull,1079,38,5,5,francais,m,5,0.5,51.6498397,1.16516661
60ae750dbba4a1822e957e68,51,1,2024-02-24T08:19:56.906Z,french_425.wav,0,pull,1079,38,5,5,francais,m,6,0.6,89.07176273,0.74158204
60ae750dbba4a1822e957e68,51,1,2024-02-24T08:19:56.906Z,french_425.wav,0,pull,1079,38,5,5,francais,m,7,0.7,-59.50926562,0.74893466
60ae750dbba4a1822e957e68,51,1,2024-02-24T08:19:56.906Z,french_425.wav,0,pull,1079,38,5,5,francais,m,8,0.8,44.57255827,0.322155
60ae750dbba4a1822e957e68,51,1,2024-02-24T08:19:56.906Z,french_425.wav,0,pull,1079,38,5,5,francais,m,9,0.9,18.71725485,0.8403819
60ae750dbba4a1822e957e68,51,1,2024-02-24T08:19:56.906Z,french_425.wav,0,pull,1079,38,5,5,francais,m,10,1.0,-67.0298998,0.41738082
60ae750dbba4a1822e957e68,51,1,2024-02-24T08:19:56.906Z,french_425.wav,0,pull,1079,38,5,5,francais,m,11,1.1,-15.30442624,0.70327016
60ae750dbba4a1822e957e68,51,1,2024-02-24T08:19:56.906Z,french_425.wav,0,pull,1079,38,5,5,francais,m,12,1.14141667,69.53078356,1.53973882
60ae750dbba4a1822e957e68,52,1,2024-02-24T08:19:56.906Z,french_33.wav,0,poule,709,38,5,5,francais,m,0,0.0,-73.97774923,1.19939349
60ae750dbba4a1822e957e68,52,1,2024-02-24T08:19:56.906Z,french_33.wav,0,poule,709,38,5,5,francais,m,1,0.1,-36.06885346,0.62157126
60ae750dbba4a1822e957e68,52,1,2024-02-24T08:19:56.906Z,french_33.wav,0,poule,709,38,5,5,francais,m,2,0.2,-90.19934184,0.91970763
60ae750dbba4a1822e957e68,52,1,2024-02-24T08:19:56.906Z,french_33.wav,0,poule,709,38,5,5,francais,m,3,0.3,0.39936716,1.47370084
60ae750dbba4a1822e957e68,52,1,2024-02-24T08:19:56.906Z,french_33.wav,0,poule,709,38,5,5,francais,m,4,0.4,96.52672865,1.0541108
60ae750dbba4a1822e957e68,52,1,2024-02-24T08:19:56.906Z,french_33.wav,0,poule,709,38,5,5,francais,m,5,0.5,63.74011165,0.90431886
60ae750dbba4a1822e957e68,52,1,2024-02-24T08:19:56.906Z,french_33.wav,0,poule,709,38,5,5,francais,m,6,0.6,31.44503744,1.27813504
60ae750dbba4a1822e957e68,52,1,2024-02-24T08:19:56.906Z,french_33.wav,0,poule,709,38,5,5,francais,m,7,0.7,14.04693027,1.74599993
60ae750dbba4a1822e957e68,52,1,2024-02-24T08:19:56.906Z,french_33.wav,0,poule,709,38,5,5,francais,m,8,0.8,-77.85077502,1.73098361
60ae750dbba4a1822e957e68,52,1,2024-02-24T08:19:56.906Z,french_33.wav,0,poule,709,38,5,5,francais,m,9,0.9,68.67883666,1.17206891
60ae750dbba4a1822e957e68,52,1,2024-02-24T08:19:56.906Z,french_33.wav,0,poule,709,38,5,5,francais,m,10,1.0,74.94832397,1.57344571
60ae750dbba4a1822e957e68,52,1,2024-02-24T08:19:56.906Z,french_33.wav,0,poule,709,38,5,5,francais,m,11,1.1,69.92169069,0.28570847
60ae750dbba4a1822e957e68,52,1,2024-02-24T08:19:56.906Z,french_33.wav,0,poule,709,38,5,5,francais,m,12,1.14141667,18.14392296,1.15456632
60ae750dbba4a1822e957e68,53,1,2024-02-24T08:19:56.906Z,french_603.wav,0,pull,5913,38,5,5,francais,m,0,0.0,19.6945105,1.69967751
60ae750dbba4a1822e957e68,53,1,2024-02-24T08:19:56.906Z,french_603.wav,0,pull,5913,38,5,5,francais,m,1,0.1,53.62811089,0.5893267
60ae750dbba4a1822e957e68,53,1,2024-02-24T08:19:56.906Z,french_603.wav,0,pull,5913,38,5,5,francais,m,2,0.2,-39.30903103,0.72876725
60ae750dbba4a1822e957e68,53,1,2024-02-24T08:19:56.906Z,french_603.wav,0,pull,5913,38,5,5,francais,m,3,0.3,54.20589937,0.31950758
60ae750dbba4a1822e957e68,53,1,2024-02-24T08:19:56.906Z,french_603.wav,0,pull,5913,38,5,5,francais,m,4,0.4,-95.2083084,1.11794186
60ae750dbba4a1822e957e68,53,1,2024-02-24T08:19:56.906Z,french_603.wav,0,pull,5913,38,5,5,francais,m,5,0.5,29.46971661,0.00334081
60ae750dbba4a1822e957e68,53,1,2024-02-24T08:19:56.906Z,french_603.wav,0,pull,5913,38,5,5,francais,m,6,0.6,-7.96409569,1.04777544
60ae750dbba4a1822e957e68,53,1,2024-02-24T08:19:56.906Z,french_603.wav,0,pull,5913,38,5,5,francais,m,7,0.7,91.50199685,0.15242204
60ae750dbba4a1822e957e68,53,1,2024-02-24T08:19:56.906Z,french_603.wav,0,pull,5913,38,5,5,francais,m,8,0.8,48.8288282,1.6691606
60ae750dbba4a1822e957e68,53,1,2024-02-24T08:19:56.906Z,french_603.wav,0,pull,5913,38,5,5,francais,m,9,0.9,47.6951267,1.19043437
60ae750dbba4a1822e957e68,53,1,2024-02-24T08:19:56.906Z,french_603.wav,0,pull,5913,38,5,5,francais,m,10,1.0,89.55727136,1.93432652
60ae750dbba4a1822e957e68,53,1,2024-02-24T08:19:56.906Z,french_603.wav,0,pull,5913,38,5,5,francais,m,11,1.1,-25.40894762,0.50605662
60ae750dbba4a1822e957e68,53,1,2024-02-24T08:19:56.906Z,french_603.wav,0,pull,5913,38,5,5,francais,m,12,1.14141667,-65.1673552,1.63687901
60ae750dbba4a1822e957e68,54,1,2024-02-24T08:19:56.906Z,french_81.wav,0,pull,799,38,5,5,francais,m,0,0.0,67.6847266,1.81460428
60ae750dbba4a1822e957e68,54,1,2024-02-24T08:19:56.906Z,french_81.wav,0,pull,799,38,5,5,francais,m,1,0.1,-58.3581712,1.73405123
60ae750dbba4a1822e957e68,54,1,2024-02-24T08:19:56.906Z,french_81.wav,0,pull,799,38,5,5,francais,m,2,0.2,32.9541847,1.57189037
60ae750dbba4a1822e957e68,54,1,2024-02-24T08:19:56.906Z,french_81.wav,0,pull,799,38,5,5,francais,m,3,0.3,6.29425878,1.70078164
60ae750dbba4a1822e957e68,54,1,2024-02-24T08:19:56.906Z,french_81.wav,0,pull,799,38,5,5,francais,m,4,0.4,-86.2881706,1.17783701
60ae750dbba4a1822e957e68,54,1,2024-02-24T08:19:56.906Z,french_81.wav,0,pull,799,38,5,5,francais,m,5,0.5,12.2464963,1.20141313
60ae750dbba4a1822e957e68,54,1,2024-02-24T08:19:56.906Z,french_81.wav,0,pull,799,38,5,5,francais,m,6,0.6,-8.0116786,0.76040054
60ae750dbba4a1822e957e68,54,1,2024-02-24T08:19:56.906Z,french_81.wav,0,pull,799,38,5,5,francais,m,7,0.7,-81.7805605,0.61904183
60ae750dbba4a1822e957e68,54,1,2024-02-24T08:19:56.906Z,french_81.wav,0,pull,799,38,5,5,francais,m,8,0.8,-26.6703715,0.14117463
60ae750dbba4a1822e957e68,54,1,2024-02-24T08:19:56.906Z,french_81.wav,0,pull,799,38,5,5,francais,m,9,0.9,0.00583519665,0.42043152
60ae750dbba4a1822e957e68,54,1,2024-02-24T08:19:56.906Z,french_81.wav,0,pull,799,38,5,5,francais,m,10,1.0,40.7172767,0.44958537
60ae750dbba4a1822e957e68,54,1,2024-02-24T08:19:56.906Z,french_81.wav,0,pull,799,38,5,5,francais,m,11,1.1,-82.2964273,0.90894384
60ae750dbba4a1822e957e68,54,1,2024-02-24T08:19:56.906Z,french_81.wav,0,pull,799,38,5,5,francais,m,12,1.14141667,-70.2645664,0.31630246
60ae750dbba4a1822e957e68,55,1,2024-02-24T08:19:56.906Z,french_725.wav,0,poule,669,38,5,5,francais,m,0,0.0,6.35773429,0.33586519
60ae750dbba4a1822e957e68,55,1,2024-02-24T08:19:56.906Z,french_725.wav,0,poule,669,38,5,5,francais,m,1,0.1,43.70894135,1.09244635
60ae750dbba4a1822e957e68,55,1,2024-02-24T08:19:56.906Z,french_725.wav,0,poule,669,38,5,5,francais,m,2,0.2,22.90719147,1.28834014
60ae750dbba4a1822e957e68,55,1,2024-02-24T08:19:56.906Z,french_725.wav,0,poule,669,38,5,5,francais,m,3,0.3,77.83150395,1.7742292
60ae750dbba4a1822e957e68,55,1,2024-02-24T08:19:56.906Z,french_725.wav,0,poule,669,38,5,5,francais,m,4,0.4,8.06655205,0.13845401
60ae750dbba4a1822e957e68,55,1,2024-02-24T08:19:56.906Z,french_725.wav,0,poule,669,38,5,5,francais,m,5,0.5,-92.02564179,1.68229188
60ae750dbba4a1822e957e68,55,1,2024-02-24T08:19:56.906Z,french_725.wav,0,poule,669,38,5,5,francais,m,6,0.6,-0.94151394,1.36391947
60ae750dbba4a1822e957e68,55,1,2024-02-24T08:19:56.906Z,french_725.wav,0,poule,669,38,5,5,francais,m,7,0.7,-43.43116172,1.13588382
60ae750dbba4a1822e957e68,55,1,2024-02-24T08:19:56.906Z,french_725.wav,0,poule,669,38,5,5,francais,m,8,0.8,25.37203063,1.69588373
60ae750dbba4a1822e957e68,55,1,2024-02-24T08:19:56.906Z,french_725.wav,0,poule,669,38,5,5,francais,m,9,0.9,-10.8941145,0.78478635
60ae750dbba4a1822e957e68,55,1,2024-02-24T08:19:56.906Z,french_725.wav,0,poule,669,38,5,5,francais,m,10,1.0,87.02180765,1.06725008
60ae750dbba4a1822e957e68,55,1,2024-02-24T08:19:56.906Z,french_725.wav,0,poule,669,38,5,5,francais,m,11,1.1,-29.98720343,0.9920546
60ae750dbba4a1822e957e68,55,1,2024-02-24T08:19:56.906Z,french_725.wav,0,poule,669,38,5,5,francais,m,12,1.14141667,85.40182929,1.23288415
60ae750dbba4a1822e957e68,56,1,2024-02-24T08:19:56.906Z,french_767.wav,0,poule,851,38,5,5,francais,m,0,0.0,31.24966423,0.89200081
60ae750dbba4a1822e957e68,56,1,2024-02-24T08:19:56.906Z,french_767.wav,0,poule,851,38,5,5,francais,m,1,0.1,-33.74972246,0.44980231
60ae750dbba4a1822e957e68,56,1,2024-02-24T08:19:56.906Z,french_767.wav,0,poule,851,38,5,5,francais,m,2,0.2,71.56049833,0.50688559
60ae750dbba4a1822e957e68,56,1,2024-02-24T08:19:56.906Z,french_767.wav,0,poule,851,38,5,5,francais,m,3,0.3,62.17111584,1.0886013
60ae750dbba4a1822e957e68,56,1,2024-02-24T08:19:56.906Z,french_767.wav,0,poule,851,38,5,5,francais,m,4,0.4,35.54545248,1.84098668
60ae750dbba4a1822e957e68,56,1,2024-02-24T08:19:56.906Z,french_767.wav,0,poule,851,38,5,5,francais,m,5,0.5,68.28182606,1.57490731
60ae750dbba4a1822e957e68,56,1,2024-02-24T08:19:56.906Z,french_767.wav,0,poule,851,38,5,5,francais,m,6,0.6,-85.55401335,0.92975639
60ae750dbba4a1822e957e68,56,1,2024-02-24T08:19:56.906Z,french_767.wav,0,poule,851,38,5,5,francais,m,7,0.7,-59.71070843,1.27612781
60ae750dbba4a1822e957e68,56,1,2024-02-24T08:19:56.906Z,french_767.wav,0,poule,851,38,5,5,francais,m,8,0.8,46.66690446,1.46786923
60ae750dbba4a1822e957e68,56,1,2024-02-24T08:19:56.906Z,french_767.wav,0,poule,851,38,5,5,francais,m,9,0.9,-33.16116599,0.72434396
60ae750dbba4a1822e957e68,56,1,2024-02-24T08:19:56.906Z,french_767.wav,0,poule,851,38,5,5,francais,m,10,1.0,9.56946316,0.62492348
60ae750dbba4a1822e957e68,56,1,2024-02-24T08:19:56.906Z,french_767.wav,0,poule,851,38,5,5,francais,m,11,1.1,-24.73907556,1.30557
60ae750dbba4a1822e957e68,56,1,2024-02-24T08:19:56.906Z,french_767.wav,0,poule,851,38,5,5,francais,m,12,1.14141667,-56.92984188,0.8430712
60ae750dbba4a1822e957e68,57,1,2024-02-24T08:19:56.906Z,french_820.wav,0,poule,759,38,5,5,francais,m,0,0.0,2.20805213,0.81178605
60ae750dbba4a1822e957e68,57,1,2024-02-24T08:19:56.906Z,french_820.wav,0,poule,759,38,5,5,francais,m,1,0.1,-90.51492195,0.34105584
60ae750dbba4a1822e957e68,57,1,2024-02-24T08:19:56.906Z,french_820.wav,0,poule,759,38,5,5,francais,m,2,0.2,14.37438706,1.03419156
60ae750dbba4a1822e957e68,57,1,2024-02-24T08:19:56.906Z,french_820.wav,0,poule,759,38,5,5,francais,m,3,0.3,48.7691056,1.3222317
60ae750dbba4a1822e957e68,57,1,2024-02-24T08:19:56.906Z,french_820.wav,0,poule,759,38,5,5,francais,m,4,0.4,-26.19278003,0.6377532
60ae750dbba4a1822e957e68,57,1,2024-02-24T08:19:56.906Z,french_820.wav,0,poule,759,38,5,5,francais,m,5,0.5,18.08357323,1.39628768
60ae750dbba4a1822e957e68,57,1,2024-02-24T08:19:56.906Z,french_820.wav,0,poule,759,38,5,5,francais,m,6,0.6,82.28583292,1.53457958
60ae750dbba4a1822e957e68,57,1,2024-02-24T08:19:56.906Z,french_820.wav,0,poule,759,38,5,5,francais,m,7,0.7,69.03631189,1.68460853
60ae750dbba4a1822e957e68,57,1,2024-02-24T08:19:56.906Z,french_820.wav,0,poule,759,38,5,5,francais,m,8,0.8,27.35509958,1.6036494
60ae750dbba4a1822e957e68,57,1,2024-02-24T08:19:56.906Z,french_820.wav,0,poule,759,38,5,5,francais,m,9,0.9,27.52320107,1.49572357
60ae750dbba4a1822e957e68,57,1,2024-02-24T08:19:56.906Z,french_820.wav,0,poule,759,38,5,5,francais,m,10,1.0,-3.99788557,0.7318371
60ae750dbba4a1822e957e68,57,1,2024-02-24T08:19:56.906Z,french_820.wav,0,poule,759,38,5,5,francais,m,11,1.1,54.09103587,0.77038849
60ae750dbba4a1822e957e68,57,1,2024-02-24T08:19:56.906Z,french_820.wav,0,poule,759,38,5,5,francais,m,12,1.14141667,22.53021971,0.80738652
60ae750dbba4a1822e957e68,58,1,2024-02-24T08:19:56.906Z,french_177.wav,0,poule,579,38,5,5,francais,m,0,0.0,-8.10737453,1.83762725
60ae750dbba4a1822e957e68,58,1,2024-02-24T08:19:56.906Z,french_177.wav,0,poule,579,38,5,5,francais,m,1,0.1,-14.13185222,1.41917184
60ae750dbba4a1822e957e68,58,1,2024-02-24T08:19:56.906Z,french_177.wav,0,poule,579,38,5,5,francais,m,2,0.2,-21.48127278,1.32076247
60ae750dbba4a1822e957e68,58,1,2024-02-24T08:19:56.906Z,french_177.wav,0,poule,579,38,5,5,francais,m,3,0.3,24.9697288,0.20954591
60ae750dbba4a1822e957e68,58,1,2024-02-24T08:19:56.906Z,french_177.wav,0,poule,579,38,5,5,francais,m,4,0.4,-13.99641156,0.92966731
60ae750dbba4a1822e957e68,58,1,2024-02-24T08:19:56.906Z,french_177.wav,0,poule,579,38,5,5,francais,m,5,0.5,-59.00404828,0.48144728
60ae750dbba4a1822e957e68,58,1,2024-02-24T08:19:56.906Z,french_177.wav,0,poule,579,38,5,5,francais,m,6,0.6,-79.56959599,1.07022563
60ae750dbba4a1822e957e68,58,1,2024-02-24T08:19:56.906Z,french_177.wav,0,poule,579,38,5,5,francais,m,7,0.7,56.96667595,0.90878311
60ae750dbba4a1822e957e68,58,1,2024-02-24T08:19:56.906Z,french_177.wav,0,poule,579,38,5,5,francais,m,8,0.8,53.96652251,0.75598619
60ae750dbba4a1822e957e68,58,1,2024-02-24T08:19:56.906Z,french_177.wav,0,poule,579,38,5,5,francais,m,9,0.9,-43.28510596,1.20570373
60ae750dbba4a1822e957e68,58,1,2024-02-24T08:19:56.906Z,french_177.wav,0,poule,579,38,5,5,francais,m,10,1.0,-17.06884575,0.31173544
60ae750dbba4a1822e957e68,58,1,2024-02-24T08:19:56.906Z,french_177.wav,0,poule,579,38,5,5,francais,m,11,1.1,91.20873705,1.67692112
60ae750dbba4a1822e957e68,58,1,2024-02-24T08:19:56.906Z,french_177.wav,0,poule,579,38,5,5,francais,m,12,1.14141667,-64.77412729,0.58516183
60ae750dbba4a1822e957e68,59,1,2024-02-24T08:19:56.906Z,french_328.wav,0,poule,721,38,5,5,francais,m,0,0.0,70.39281279,1.11868874
60ae750dbba4a1822e957e68,59,1,2024-02-24T08:19:56.906Z,french_328.wav,0,poule,721,38,5,5,francais,m,1,0.1,-62.4365066,1.7831523
