subj,trial,block,date,stim,stim_order,response,rt,age,english,french,language,sex,param_index,segment,pitch,stretch
5e15aae07bf572b8f97a847d,0,0,2024-02-28T14:37:17.179Z,french_376.wav,0,poule,1463,29,5,5,français,m,0,0.0,73.87662421,1.19017326
5e15aae07bf572b8f97a847d,0,0,2024-02-28T14:37:17.179Z,french_376.wav,0,poule,1463,29,5,5,français,m,1,0.1,19.14234839,0.34739983
5e15aae07bf572b8f97a847d,0,0,2024-02-28T14:37:17.179Z,french_376.wav,0,poule,1463,29,5,5,français,m,2,0.2,4.70109866,1.75661595
5e15aae07bf572b8f97a847d,0,0,2024-02-28T14:37:17.179Z,french_376.wav,0,poule,1463,29,5,5,français,m,3,0.3,-30.42429162,0.21467383
5e15aae07bf572b8f97a847d,0,0,2024-02-28T14:37:17.179Z,french_376.wav,0,poule,1463,29,5,5,français,m,4,0.4,3.90906102,1.0652989
5e15aae07bf572b8f97a847d,0,0,2024-02-28T14:37:17.179Z,french_376.wav,0,poule,1463,29,5,5,français,m,5,0.5,10.50295885,0.76759319
5e15aae07bf572b8f97a847d,0,0,2024-02-28T14:37:17.179Z,french_376.wav,0,poule,1463,29,5,5,français,m,6,0.6,-30.86055656,0.07074157
5e15aae07bf572b8f97a847d,0,0,2024-02-28T14:37:17.179Z,french_376.wav,0,poule,1463,29,5,5,français,m,7,0.7,53.80718703,0.03277106
5e15aae07bf572b8f97a847d,0,0,2024-02-28T14:37:17.179Z,french_376.wav,0,poule,1463,29,5,5,français,m,8,0.8,-11.59229263,0.77775249
5e15aae07bf572b8f97a847d,0,0,2024-02-28T14:37:17.179Z,french_376.wav,0,poule,1463,29,5,5,français,m,9,0.9,30.36028375,1.59245898
5e15aae07bf572b8f97a847d,0,0,2024-02-28T14:37:17.179Z,french_376.wav,0,poule,1463,29,5,5,français,m,10,1.0,7.96834733,1.58597596
5e15aae07bf572b8f97a847d,0,0,2024-02-28T14:37:17.179Z,french_376.wav,0,poule,1463,29,5,5,français,m,11,1.1,39.66709202,1.4930996
5e15aae07bf572b8f97a847d,0,0,2024-02-28T14:37:17.179Z,french_376.wav,0,poule,1463,29,5,5,français,m,12,1.14141667,-13.49486002,0.34020646
5e15aae07bf572b8f97a847d,1,0,2024-02-28T14:37:17.179Z,french_360.wav,0,poule,596,29,5,5,français,m,0,0.0,80.67919688,0.20606147
5e15aae07bf572b8f97a847d,1,0,2024-02-28T14:37:17.179Z,french_360.wav,0,poule,596,29,5,5,français,m,1,0.1,-27.94865849,1.11725372
5e15aae07bf572b8f97a847d,1,0,2024-02-28T14:37:17.179Z,french_360.wav,0,poule,596,29,5,5,français,m,2,0.2,22.32787623,0.05039174
5e15aae07bf572b8f97a847d,1,0,2024-02-28T14:37:17.179Z,french_360.wav,0,poule,596,29,5,5,français,m,3,0.3,45.22188439,1.66716796
5e15aae07bf572b8f97a847d,1,0,2024-02-28T14:37:17.179Z,french_360.wav,0,poule,596,29,5,5,français,m,4,0.4,-7.80157648,0.33872424
5e15aae07bf572b8f97a847d,1,0,2024-02-28T14:37:17.179Z,french_360.wav,0,poule,596,29,5,5,français,m,5,0.5,86.06729103,1.77425049
5e15aae07bf572b8f97a847d,1,0,2024-02-28T14:37:17.179Z,french_360.wav,0,poule,596,29,5,5,français,m,6,0.6,-43.84449169,0.57660507
5e15aae07bf572b8f97a847d,1,0,2024-02-28T14:37:17.179Z,french_360.wav,0,poule,596,29,5,5,français,m,7,0.7,41.33735645,1.5995083
5e15aae07bf572b8f97a847d,1,0,2024-02-28T14:37:17.179Z,french_360.wav,0,poule,596,29,5,5,français,m,8,0.8,-33.22134049,0.05507617
5e15aae07bf572b8f97a847d,1,0,2024-02-28T14:37:17.179Z,french_360.wav,0,poule,596,29,5,5,français,m,9,0.9,24.39834814,1.78566
5e15aae07bf572b8f97a847d,1,0,2024-02-28T14:37:17.179Z,french_360.wav,0,poule,596,29,5,5,français,m,10,1.0,-32.3038852,0.95403795
5e15aae07bf572b8f97a847d,1,0,2024-02-28T14:37:17.179Z,french_360.wav,0,poule,596,29,5,5,français,m,11,1.1,18.07242607,1.61112926
5e15aae07bf572b8f97a847d,1,0,2024-02-28T14:37:17.179Z,french_360.wav,0,poule,596,29,5,5,français,m,12,1.14141667,-15.85341792,1.37482411
5e15aae07bf572b8f97a847d,2,0,2024-02-28T14:37:17.179Z,french_162.wav,0,poule,992,29,5,5,français,m,0,0.0,-38.96167212,1.55026416
5e15aae07bf572b8f97a847d,2,0,2024-02-28T14:37:17.179Z,french_162.wav,0,poule,992,29,5,5,français,m,1,0.1,80.18092811,0.24674033
5e15aae07bf572b8f97a847d,2,0,2024-02-28T14:37:17.179Z,french_162.wav,0,poule,992,29,5,5,français,m,2,0.2,-81.06113279,1.21482423
5e15aae07bf572b8f97a847d,2,0,2024-02-28T14:37:17.179Z,french_162.wav,0,poule,992,29,5,5,français,m,3,0.3,-42.28565504,1.28297285
5e15aae07bf572b8f97a847d,2,0,2024-02-28T14:37:17.179Z,french_162.wav,0,poule,992,29,5,5,français,m,4,0.4,30.67134652,1.65504156
5e15aae07bf572b8f97a847d,2,0,2024-02-28T14:37:17.179Z,french_162.wav,0,poule,992,29,5,5,français,m,5,0.5,87.51356995,1.51108296
5e15aae07bf572b8f97a847d,2,0,2024-02-28T14:37:17.179Z,french_162.wav,0,poule,992,29,5,5,français,m,6,0.6,-33.64216401,0.42676112
5e15aae07bf572b8f97a847d,2,0,2024-02-28T14:37:17.179Z,french_162.wav,0,poule,992,29,5,5,français,m,7,0.7,-59.84183097,0.47582994
5e15aae07bf572b8f97a847d,2,0,2024-02-28T14:37:17.179Z,french_162.wav,0,poule,992,29,5,5,français,m,8,0.8,-15.77228678,0.9990467
5e15aae07bf572b8f97a847d,2,0,2024-02-28T14:37:17.179Z,french_162.wav,0,poule,992,29,5,5,français,m,9,0.9,-13.63731809,1.04340837
5e15aae07bf572b8f97a847d,2,0,2024-02-28T14:37:17.179Z,french_162.wav,0,poule,992,29,5,5,français,m,10,1.0,-26.93891473,1.47233289
5e15aae07bf572b8f97a847d,2,0,2024-02-28T14:37:17.179Z,french_162.wav,0,poule,992,29,5,5,français,m,11,1.1,-89.32964059,0.19163643
5e15aae07bf572b8f97a847d,2,0,2024-02-28T14:37:17.179Z,french_162.wav,0,poule,992,29,5,5,français,m,12,1.14141667,-46.59860418,0.92983005
5e15aae07bf572b8f97a847d,3,0,2024-02-28T14:37:17.179Z,french_852.wav,0,pull,445,29,5,5,français,m,0,0.0,-75.579629,0.97237808
5e15aae07bf572b8f97a847d,3,0,2024-02-28T14:37:17.179Z,french_852.wav,0,pull,445,29,5,5,français,m,1,0.1,9.75219201,1.6900286
5e15aae07bf572b8f97a847d,3,0,2024-02-28T14:37:17.179Z,french_852.wav,0,pull,445,29,5,5,français,m,2,0.2,38.69783008,1.09971581
5e15aae07bf572b8f97a847d,3,0,2024-02-28T14:37:17.179Z,french_852.wav,0,pull,445,29,5,5,français,m,3,0.3,-44.87561604,1.9036896
5e15aae07bf572b8f97a847d,3,0,2024-02-28T14:37:17.179Z,french_852.wav,0,pull,445,29,5,5,français,m,4,0.4,-64.24815105,1.26745534
5e15aae07bf572b8f97a847d,3,0,2024-02-28T14:37:17.179Z,french_852.wav,0,pull,445,29,5,5,français,m,5,0.5,-43.14702475,1.16897207
5e15aae07bf572b8f97a847d,3,0,2024-02-28T14:37:17.179Z,french_852.wav,0,pull,445,29,5,5,français,m,6,0.6,-59.55818505,1.16309784
5e15aae07bf572b8f97a847d,3,0,2024-02-28T14:37:17.179Z,french_852.wav,0,pull,445,29,5,5,français,m,7,0.7,81.39778674,0.54291031
5e15aae07bf572b8f97a847d,3,0,2024-02-28T14:37:17.179Z,french_852.wav,0,pull,445,29,5,5,français,m,8,0.8,14.94119743,0.92960786
5e15aae07bf572b8f97a847d,3,0,2024-02-28T14:37:17.179Z,french_852.wav,0,pull,445,29,5,5,français,m,9,0.9,12.85391635,0.23724457
5e15aae07bf572b8f97a847d,3,0,2024-02-28T14:37:17.179Z,french_852.wav,0,pull,445,29,5,5,français,m,10,1.0,-75.05815793,0.52504337
5e15aae07bf572b8f97a847d,3,0,2024-02-28T14:37:17.179Z,french_852.wav,0,pull,445,29,5,5,français,m,11,1.1,15.84083523,0.12114604
5e15aae07bf572b8f97a847d,3,0,2024-02-28T14:37:17.179Z,french_852.wav,0,pull,445,29,5,5,français,m,12,1.14141667,84.82223355,0.83116482
5e15aae07bf572b8f97a847d,4,0,2024-02-28T14:37:17.179Z,french_748.wav,0,poule,566,29,5,5,français,m,0,0.0,21.06287569,1.43701335
5e15aae07bf572b8f97a847d,4,0,2024-02-28T14:37:17.179Z,french_748.wav,0,poule,566,29,5,5,français,m,1,0.1,15.36105543,1.59777978
5e15aae07bf572b8f97a847d,4,0,2024-02-28T14:37:17.179Z,french_748.wav,0,poule,566,29,5,5,français,m,2,0.2,-30.59586006,0.73016849
5e15aae07bf572b8f97a847d,4,0,2024-02-28T14:37:17.179Z,french_748.wav,0,poule,566,29,5,5,français,m,3,0.3,79.94920558,0.61979898
5e15aae07bf572b8f97a847d,4,0,2024-02-28T14:37:17.179Z,french_748.wav,0,poule,566,29,5,5,français,m,4,0.4,-61.07313039,0.89579179
5e15aae07bf572b8f97a847d,4,0,2024-02-28T14:37:17.179Z,french_748.wav,0,poule,566,29,5,5,français,m,5,0.5,-45.04655322,0.56474332
5e15aae07bf572b8f97a847d,4,0,2024-02-28T14:37:17.179Z,french_748.wav,0,poule,566,29,5,5,français,m,6,0.6,-50.58543561,1.20782806
5e15aae07bf572b8f97a847d,4,0,2024-02-28T14:37:17.179Z,french_748.wav,0,poule,566,29,5,5,français,m,7,0.7,1.01417539,0.1338859
5e15aae07bf572b8f97a847d,4,0,2024-02-28T14:37:17.179Z,french_748.wav,0,poule,566,29,5,5,français,m,8,0.8,-5.64267087,0.84409368
5e15aae07bf572b8f97a847d,4,0,2024-02-28T14:37:17.179Z,french_748.wav,0,poule,566,29,5,5,français,m,9,0.9,-45.78723347,0.94921143
5e15aae07bf572b8f97a847d,4,0,2024-02-28T14:37:17.179Z,french_748.wav,0,poule,566,29,5,5,français,m,10,1.0,-89.41556612,1.42685707
5e15aae07bf572b8f97a847d,4,0,2024-02-28T14:37:17.179Z,french_748.wav,0,poule,566,29,5,5,français,m,11,1.1,-62.55272039,0.52153694
5e15aae07bf572b8f97a847d,4,0,2024-02-28T14:37:17.179Z,french_748.wav,0,poule,566,29,5,5,français,m,12,1.14141667,-65.25853362,0.03253725
5e15aae07bf572b8f97a847d,5,0,2024-02-28T14:37:17.179Z,french_516.wav,0,poule,657,29,5,5,français,m,0,0.0,88.67453169,0.27330387
5e15aae07bf572b8f97a847d,5,0,2024-02-28T14:37:17.179Z,french_516.wav,0,poule,657,29,5,5,français,m,1,0.1,-32.80281116,1.74934986
5e15aae07bf572b8f97a847d,5,0,2024-02-28T14:37:17.179Z,french_516.wav,0,poule,657,29,5,5,français,m,2,0.2,70.97056018,0.3871866
5e15aae07bf572b8f97a847d,5,0,2024-02-28T14:37:17.179Z,french_516.wav,0,poule,657,29,5,5,français,m,3,0.3,30.08988452,1.42397991
5e15aae07bf572b8f97a847d,5,0,2024-02-28T14:37:17.179Z,french_516.wav,0,poule,657,29,5,5,français,m,4,0.4,24.3392461,0.38699984
5e15aae07bf572b8f97a847d,5,0,2024-02-28T14:37:17.179Z,french_516.wav,0,poule,657,29,5,5,français,m,5,0.5,-13.33118715,1.44623849
5e15aae07bf572b8f97a847d,5,0,2024-02-28T14:37:17.179Z,french_516.wav,0,poule,657,29,5,5,français,m,6,0.6,-31.56481899,1.53806255
5e15aae07bf572b8f97a847d,5,0,2024-02-28T14:37:17.179Z,french_516.wav,0,poule,657,29,5,5,français,m,7,0.7,3.03144729,1.95923825
5e15aae07bf572b8f97a847d,5,0,2024-02-28T14:37:17.179Z,french_516.wav,0,poule,657,29,5,5,français,m,8,0.8,98.28132693,0.23970082
5e15aae07bf572b8f97a847d,5,0,2024-02-28T14:37:17.179Z,french_516.wav,0,poule,657,29,5,5,français,m,9,0.9,59.24424313,1.02137392
5e15aae07bf572b8f97a847d,5,0,2024-02-28T14:37:17.179Z,french_516.wav,0,poule,657,29,5,5,français,m,10,1.0,-78.84052304,1.07914984
5e15aae07bf572b8f97a847d,5,0,2024-02-28T14:37:17.179Z,french_516.wav,0,poule,657,29,5,5,français,m,11,1.1,33.79048953,0.23007882
5e15aae07bf572b8f97a847d,5,0,2024-02-28T14:37:17.179Z,french_516.wav,0,poule,657,29,5,5,français,m,12,1.14141667,15.60736791,1.42555187
5e15aae07bf572b8f97a847d,6,0,2024-02-28T14:37:17.179Z,french_758.wav,0,poule,1029,29,5,5,français,m,0,0.0,41.40251797,0.56085544
5e15aae07bf572b8f97a847d,6,0,2024-02-28T14:37:17.179Z,french_758.wav,0,poule,1029,29,5,5,français,m,1,0.1,83.22068517,0.97554237
5e15aae07bf572b8f97a847d,6,0,2024-02-28T14:37:17.179Z,french_758.wav,0,poule,1029,29,5,5,français,m,2,0.2,-17.02894859,0.01004143
5e15aae07bf572b8f97a847d,6,0,2024-02-28T14:37:17.179Z,french_758.wav,0,poule,1029,29,5,5,français,m,3,0.3,-57.78871378,1.03626599
5e15aae07bf572b8f97a847d,6,0,2024-02-28T14:37:17.179Z,french_758.wav,0,poule,1029,29,5,5,français,m,4,0.4,-26.28467223,0.33244231
5e15aae07bf572b8f97a847d,6,0,2024-02-28T14:37:17.179Z,french_758.wav,0,poule,1029,29,5,5,français,m,5,0.5,1.34940172,1.08481581
5e15aae07bf572b8f97a847d,6,0,2024-02-28T14:37:17.179Z,french_758.wav,0,poule,1029,29,5,5,français,m,6,0.6,73.49827232,0.0829296
5e15aae07bf572b8f97a847d,6,0,2024-02-28T14:37:17.179Z,french_758.wav,0,poule,1029,29,5,5,français,m,7,0.7,-10.43882846,1.10238348
5e15aae07bf572b8f97a847d,6,0,2024-02-28T14:37:17.179Z,french_758.wav,0,poule,1029,29,5,5,français,m,8,0.8,-36.52394931,1.35072621
5e15aae07bf572b8f97a847d,6,0,2024-02-28T14:37:17.179Z,french_758.wav,0,poule,1029,29,5,5,français,m,9,0.9,-31.42286667,1.63267541
5e15aae07bf572b8f97a847d,6,0,2024-02-28T14:37:17.179Z,french_758.wav,0,poule,1029,29,5,5,français,m,10,1.0,-59.6641431,0.28303542
5e15aae07bf572b8f97a847d,6,0,2024-02-28T14:37:17.179Z,french_758.wav,0,poule,1029,29,5,5,français,m,11,1.1,39.4290765,0.53687214
5e15aae07bf572b8f97a847d,6,0,2024-02-28T14:37:17.179Z,french_758.wav,0,poule,1029,29,5,5,français,m,12,1.14141667,-44.19004616,0.94196396
5e15aae07bf572b8f97a847d,7,0,2024-02-28T14:37:17.179Z,french_771.wav,0,poule,365,29,5,5,français,m,0,0.0,10.14205054,0.57898689
5e15aae07bf572b8f97a847d,7,0,2024-02-28T14:37:17.179Z,french_771.wav,0,poule,365,29,5,5,français,m,1,0.1,14.3317902,1.67899679
5e15aae07bf572b8f97a847d,7,0,2024-02-28T14:37:17.179Z,french_771.wav,0,poule,365,29,5,5,français,m,2,0.2,13.88278029,0.37616214
5e15aae07bf572b8f97a847d,7,0,2024-02-28T14:37:17.179Z,french_771.wav,0,poule,365,29,5,5,français,m,3,0.3,-60.54024748,1.4737865
5e15aae07bf572b8f97a847d,7,0,2024-02-28T14:37:17.179Z,french_771.wav,0,poule,365,29,5,5,français,m,4,0.4,53.93566508,0.40945874
5e15aae07bf572b8f97a847d,7,0,2024-02-28T14:37:17.179Z,french_771.wav,0,poule,365,29,5,5,français,m,5,0.5,35.11564719,1.07675123
5e15aae07bf572b8f97a847d,7,0,2024-02-28T14:37:17.179Z,french_771.wav,0,poule,365,29,5,5,français,m,6,0.6,19.66283226,1.54958043
5e15aae07bf572b8f97a847d,7,0,2024-02-28T14:37:17.179Z,french_771.wav,0,poule,365,29,5,5,français,m,7,0.7,68.53997152,1.22758448
5e15aae07bf572b8f97a847d,7,0,2024-02-28T14:37:17.179Z,french_771.wav,0,poule,365,29,5,5,français,m,8,0.8,-62.55324327,1.96215938
5e15aae07bf572b8f97a847d,7,0,2024-02-28T14:37:17.179Z,french_771.wav,0,poule,365,29,5,5,français,m,9,0.9,-55.18291591,1.69292096
5e15aae07bf572b8f97a847d,7,0,2024-02-28T14:37:17.179Z,french_771.wav,0,poule,365,29,5,5,français,m,10,1.0,72.9743266,0.50909353
5e15aae07bf572b8f97a847d,7,0,2024-02-28T14:37:17.179Z,french_771.wav,0,poule,365,29,5,5,français,m,11,1.1,85.13995014,1.76686526
5e15aae07bf572b8f97a847d,7,0,2024-02-28T14:37:17.179Z,french_771.wav,0,poule,365,29,5,5,français,m,12,1.14141667,-84.73790953,1.66223723
5e15aae07bf572b8f97a847d,8,0,2024-02-28T14:37:17.179Z,french_310.wav,0,poule,440,29,5,5,français,m,0,0.0,17.56598639,1.12956977
5e15aae07bf572b8f97a847d,8,0,2024-02-28T14:37:17.179Z,french_310.wav,0,poule,440,29,5,5,français,m,1,0.1,76.92128936,1.00648851
5e15aae07bf572b8f97a847d,8,0,2024-02-28T14:37:17.179Z,french_310.wav,0,poule,440,29,5,5,français,m,2,0.2,-58.20509392,0.97784502
5e15aae07bf572b8f97a847d,8,0,2024-02-28T14:37:17.179Z,french_310.wav,0,poule,440,29,5,5,français,m,3,0.3,83.85101429,1.32502708
5e15aae07bf572b8f97a847d,8,0,2024-02-28T14:37:17.179Z,french_310.wav,0,poule,440,29,5,5,français,m,4,0.4,-30.03153984,1.31992976
5e15aae07bf572b8f97a847d,8,0,2024-02-28T14:37:17.179Z,french_310.wav,0,poule,440,29,5,5,français,m,5,0.5,65.65347409,1.69425093
5e15aae07bf572b8f97a847d,8,0,2024-02-28T14:37:17.179Z,french_310.wav,0,poule,440,29,5,5,français,m,6,0.6,-31.19085718,0.83891868
5e15aae07bf572b8f97a847d,8,0,2024-02-28T14:37:17.179Z,french_310.wav,0,poule,440,29,5,5,français,m,7,0.7,13.20607402,0.55122583
5e15aae07bf572b8f97a847d,8,0,2024-02-28T14:37:17.179Z,french_310.wav,0,poule,440,29,5,5,français,m,8,0.8,67.80059658,1.89433213
5e15aae07bf572b8f97a847d,8,0,2024-02-28T14:37:17.179Z,french_310.wav,0,poule,440,29,5,5,français,m,9,0.9,-60.97564656,0.44162944
5e15aae07bf572b8f97a847d,8,0,2024-02-28T14:37:17.179Z,french_310.wav,0,poule,440,29,5,5,français,m,10,1.0,-20.93273173,1.30621231
5e15aae07bf572b8f97a847d,8,0,2024-02-28T14:37:17.179Z,french_310.wav,0,poule,440,29,5,5,français,m,11,1.1,9.82776434,1.40358407
5e15aae07bf572b8f97a847d,8,0,2024-02-28T14:37:17.179Z,french_310.wav,0,poule,440,29,5,5,français,m,12,1.14141667,-83.18360608,0.62868818
5e15aae07bf572b8f97a847d,9,0,2024-02-28T14:37:17.179Z,french_597.wav,0,pull,1920,29,5,5,français,m,0,0.0,3.81117618,0.64425147
5e15aae07bf572b8f97a847d,9,0,2024-02-28T14:37:17.179Z,french_597.wav,0,pull,1920,29,5,5,français,m,1,0.1,1.65290583,1.80851034
5e15aae07bf572b8f97a847d,9,0,2024-02-28T14:37:17.179Z,french_597.wav,0,pull,1920,29,5,5,français,m,2,0.2,75.20334273,0.13064714
5e15aae07bf572b8f97a847d,9,0,2024-02-28T14:37:17.179Z,french_597.wav,0,pull,1920,29,5,5,français,m,3,0.3,-31.80520796,1.14595158
5e15aae07bf572b8f97a847d,9,0,2024-02-28T14:37:17.179Z,french_597.wav,0,pull,1920,29,5,5,français,m,4,0.4,47.06388339,1.20714689
5e15aae07bf572b8f97a847d,9,0,2024-02-28T14:37:17.179Z,french_597.wav,0,pull,1920,29,5,5,français,m,5,0.5,-12.18502222,1.21300166
5e15aae07bf572b8f97a847d,9,0,2024-02-28T14:37:17.179Z,french_597.wav,0,pull,1920,29,5,5,français,m,6,0.6,16.00653048,1.59786204
5e15aae07bf572b8f97a847d,9,0,2024-02-28T14:37:17.179Z,french_597.wav,0,pull,1920,29,5,5,français,m,7,0.7,-1.06509013,1.5777009
5e15aae07bf572b8f97a847d,9,0,2024-02-28T14:37:17.179Z,french_597.wav,0,pull,1920,29,5,5,français,m,8,0.8,-88.67460342,1.85046757
5e15aae07bf572b8f97a847d,9,0,2024-02-28T14:37:17.179Z,french_597.wav,0,pull,1920,29,5,5,français,m,9,0.9,79.23096379,0.15850725
5e15aae07bf572b8f97a847d,9,0,2024-02-28T14:37:17.179Z,french_597.wav,0,pull,1920,29,5,5,français,m,10,1.0,-37.6385831,0.67581982
5e15aae07bf572b8f97a847d,9,0,2024-02-28T14:37:17.179Z,french_597.wav,0,pull,1920,29,5,5,français,m,11,1.1,-82.3453721,0.97379481
5e15aae07bf572b8f97a847d,9,0,2024-02-28T14:37:17.179Z,french_597.wav,0,pull,1920,29,5,5,français,m,12,1.14141667,50.39965119,1.28226838
5e15aae07bf572b8f97a847d,10,0,2024-02-28T14:37:17.179Z,french_82.wav,0,poule,1339,29,5,5,français,m,0,0.0,72.0977367,1.01696947
5e15aae07bf572b8f97a847d,10,0,2024-02-28T14:37:17.179Z,french_82.wav,0,poule,1339,29,5,5,français,m,1,0.1,13.70688001,1.97290743
5e15aae07bf572b8f97a847d,10,0,2024-02-28T14:37:17.179Z,french_82.wav,0,poule,1339,29,5,5,français,m,2,0.2,12.2114914,0.08873669
5e15aae07bf572b8f97a847d,10,0,2024-02-28T14:37:17.179Z,french_82.wav,0,poule,1339,29,5,5,français,m,3,0.3,-69.04637283,1.89535476
5e15aae07bf572b8f97a847d,10,0,2024-02-28T14:37:17.179Z,french_82.wav,0,poule,1339,29,5,5,français,m,4,0.4,51.39319656,0.09685831
5e15aae07bf572b8f97a847d,10,0,2024-02-28T14:37:17.179Z,french_82.wav,0,poule,1339,29,5,5,français,m,5,0.5,47.88063171,0.48800994
5e15aae07bf572b8f97a847d,10,0,2024-02-28T14:37:17.179Z,french_82.wav,0,poule,1339,29,5,5,français,m,6,0.6,22.68060335,1.51769172
5e15aae07bf572b8f97a847d,10,0,2024-02-28T14:37:17.179Z,french_82.wav,0,poule,1339,29,5,5,français,m,7,0.7,43.54036569,0.60661005
5e15aae07bf572b8f97a847d,10,0,2024-02-28T14:37:17.179Z,french_82.wav,0,poule,1339,29,5,5,français,m,8,0.8,-1.40002238,0.807753
5e15aae07bf572b8f97a847d,10,0,2024-02-28T14:37:17.179Z,french_82.wav,0,poule,1339,29,5,5,français,m,9,0.9,-44.69291662,1.80168033
5e15aae07bf572b8f97a847d,10,0,2024-02-28T14:37:17.179Z,french_82.wav,0,poule,1339,29,5,5,français,m,10,1.0,-80.67967911,1.61964295
5e15aae07bf572b8f97a847d,10,0,2024-02-28T14:37:17.179Z,french_82.wav,0,poule,1339,29,5,5,français,m,11,1.1,-40.96891049,1.99449381
5e15aae07bf572b8f97a847d,10,0,2024-02-28T14:37:17.179Z,french_82.wav,0,poule,1339,29,5,5,français,m,12,1.14141667,-20.90276353,0.77383177
5e15aae07bf572b8f97a847d,11,0,2024-02-28T14:37:17.179Z,french_166.wav,0,poule,856,29,5,5,français,m,0,0.0,-22.8295336,0.98939774
5e15aae07bf572b8f97a847d,11,0,2024-02-28T14:37:17.179Z,french_166.wav,0,poule,856,29,5,5,français,m,1,0.1,14.33636562,0.78908761
5e15aae07bf572b8f97a847d,11,0,2024-02-28T14:37:17.179Z,french_166.wav,0,poule,856,29,5,5,français,m,2,0.2,-32.76172213,0.51317007
5e15aae07bf572b8f97a847d,11,0,2024-02-28T14:37:17.179Z,french_166.wav,0,poule,856,29,5,5,français,m,3,0.3,-7.88397719,0.37283333
5e15aae07bf572b8f97a847d,11,0,2024-02-28T14:37:17.179Z,french_166.wav,0,poule,856,29,5,5,français,m,4,0.4,51.92763564,1.97840198
5e15aae07bf572b8f97a847d,11,0,2024-02-28T14:37:17.179Z,french_166.wav,0,poule,856,29,5,5,français,m,5,0.5,-54.54324827,0.56612573
5e15aae07bf572b8f97a847d,11,0,2024-02-28T14:37:17.179Z,french_166.wav,0,poule,856,29,5,5,français,m,6,0.6,70.56273054,0.83954762
5e15aae07bf572b8f97a847d,11,0,2024-02-28T14:37:17.179Z,french_166.wav,0,poule,856,29,5,5,français,m,7,0.7,-69.25364705,1.0329173
5e15aae07bf572b8f97a847d,11,0,2024-02-28T14:37:17.179Z,french_166.wav,0,poule,856,29,5,5,français,m,8,0.8,-88.09425491,0.5192872
5e15aae07bf572b8f97a847d,11,0,2024-02-28T14:37:17.179Z,french_166.wav,0,poule,856,29,5,5,français,m,9,0.9,14.9037885,1.44412419
5e15aae07bf572b8f97a847d,11,0,2024-02-28T14:37:17.179Z,french_166.wav,0,poule,856,29,5,5,français,m,10,1.0,-87.04528153,0.95474057
5e15aae07bf572b8f97a847d,11,0,2024-02-28T14:37:17.179Z,french_166.wav,0,poule,856,29,5,5,français,m,11,1.1,18.00160319,1.86178802
5e15aae07bf572b8f97a847d,11,0,2024-02-28T14:37:17.179Z,french_166.wav,0,poule,856,29,5,5,français,m,12,1.14141667,52.36923677,1.07082912
5e15aae07bf572b8f97a847d,12,0,2024-02-28T14:37:17.179Z,french_812.wav,0,poule,1376,29,5,5,français,m,0,0.0,-42.66002827,0.44619032
5e15aae07bf572b8f97a847d,12,0,2024-02-28T14:37:17.179Z,french_812.wav,0,poule,1376,29,5,5,français,m,1,0.1,-63.45257727,1.09752053
5e15aae07bf572b8f97a847d,12,0,2024-02-28T14:37:17.179Z,french_812.wav,0,poule,1376,29,5,5,français,m,2,0.2,-17.55899299,1.94483115
5e15aae07bf572b8f97a847d,12,0,2024-02-28T14:37:17.179Z,french_812.wav,0,poule,1376,29,5,5,français,m,3,0.3,-6.53827268,1.6322026
5e15aae07bf572b8f97a847d,12,0,2024-02-28T14:37:17.179Z,french_812.wav,0,poule,1376,29,5,5,français,m,4,0.4,82.73159926,1.42964573
5e15aae07bf572b8f97a847d,12,0,2024-02-28T14:37:17.179Z,french_812.wav,0,poule,1376,29,5,5,français,m,5,0.5,13.20285819,1.82803278
5e15aae07bf572b8f97a847d,12,0,2024-02-28T14:37:17.179Z,french_812.wav,0,poule,1376,29,5,5,français,m,6,0.6,-12.96734249,1.23610149
5e15aae07bf572b8f97a847d,12,0,2024-02-28T14:37:17.179Z,french_812.wav,0,poule,1376,29,5,5,français,m,7,0.7,-74.04565338,1.25749674
5e15aae07bf572b8f97a847d,12,0,2024-02-28T14:37:17.179Z,french_812.wav,0,poule,1376,29,5,5,français,m,8,0.8,43.93001564,1.19337031
5e15aae07bf572b8f97a847d,12,0,2024-02-28T14:37:17.179Z,french_812.wav,0,poule,1376,29,5,5,français,m,9,0.9,-5.48619498,0.21250901
5e15aae07bf572b8f97a847d,12,0,2024-02-28T14:37:17.179Z,french_812.wav,0,poule,1376,29,5,5,français,m,10,1.0,51.20549239,1.32924457
5e15aae07bf572b8f97a847d,12,0,2024-02-28T14:37:17.179Z,french_812.wav,0,poule,1376,29,5,5,français,m,11,1.1,48.53876007,0.52399169
5e15aae07bf572b8f97a847d,12,0,2024-02-28T14:37:17.179Z,french_812.wav,0,poule,1376,29,5,5,français,m,12,1.14141667,-70.42678673,0.252725
5e15aae07bf572b8f97a847d,13,0,2024-02-28T14:37:17.179Z,french_701.wav,0,poule,576,29,5,5,français,m,0,0.0,13.86918761,0.63182109
5e15aae07bf572b8f97a847d,13,0,2024-02-28T14:37:17.179Z,french_701.wav,0,poule,576,29,5,5,français,m,1,0.1,25.98390225,1.85758869
5e15aae07bf572b8f97a847d,13,0,2024-02-28T14:37:17.179Z,french_701.wav,0,poule,576,29,5,5,français,m,2,0.2,62.79635394,1.68485958
5e15aae07bf572b8f97a847d,13,0,2024-02-28T14:37:17.179Z,french_701.wav,0,poule,576,29,5,5,français,m,3,0.3,67.80376008,0.50866318
5e15aae07bf572b8f97a847d,13,0,2024-02-28T14:37:17.179Z,french_701.wav,0,poule,576,29,5,5,français,m,4,0.4,-54.23175366,1.37500116
5e15aae07bf572b8f97a847d,13,0,2024-02-28T14:37:17.179Z,french_701.wav,0,poule,576,29,5,5,français,m,5,0.5,-42.04160911,0.8503416
5e15aae07bf572b8f97a847d,13,0,2024-02-28T14:37:17.179Z,french_701.wav,0,poule,576,29,5,5,français,m,6,0.6,-58.41766146,0.53241727
5e15aae07bf572b8f97a847d,13,0,2024-02-28T14:37:17.179Z,french_701.wav,0,poule,576,29,5,5,français,m,7,0.7,90.23612499,1.86464457
5e15aae07bf572b8f97a847d,13,0,2024-02-28T14:37:17.179Z,french_701.wav,0,poule,576,29,5,5,français,m,8,0.8,80.19297104,1.8007814
5e15aae07bf572b8f97a847d,13,0,2024-02-28T14:37:17.179Z,french_701.wav,0,poule,576,29,5,5,français,m,9,0.9,-45.72951024,1.24365205
5e15aae07bf572b8f97a847d,13,0,2024-02-28T14:37:17.179Z,french_701.wav,0,poule,576,29,5,5,français,m,10,1.0,35.47554357,1.16086821
5e15aae07bf572b8f97a847d,13,0,2024-02-28T14:37:17.179Z,french_701.wav,0,poule,576,29,5,5,français,m,11,1.1,25.09086311,0.27592984
5e15aae07bf572b8f97a847d,13,0,2024-02-28T14:37:17.179Z,french_701.wav,0,poule,576,29,5,5,français,m,12,1.14141667,-71.61211297,0.34423902
5e15aae07bf572b8f97a847d,14,0,2024-02-28T14:37:17.179Z,french_669.wav,0,poule,928,29,5,5,français,m,0,0.0,53.9397138,0.06355711
5e15aae07bf572b8f97a847d,14,0,2024-02-28T14:37:17.179Z,french_669.wav,0,poule,928,29,5,5,français,m,1,0.1,-36.5956991,0.48004976
5e15aae07bf572b8f97a847d,14,0,2024-02-28T14:37:17.179Z,french_669.wav,0,poule,928,29,5,5,français,m,2,0.2,-43.1876693,1.03789897
5e15aae07bf572b8f97a847d,14,0,2024-02-28T14:37:17.179Z,french_669.wav,0,poule,928,29,5,5,français,m,3,0.3,-53.9427897,1.26221458
5e15aae07bf572b8f97a847d,14,0,2024-02-28T14:37:17.179Z,french_669.wav,0,poule,928,29,5,5,français,m,4,0.4,-65.783131,0.60369974
5e15aae07bf572b8f97a847d,14,0,2024-02-28T14:37:17.179Z,french_669.wav,0,poule,928,29,5,5,français,m,5,0.5,8.54446973,0.38242942
5e15aae07bf572b8f97a847d,14,0,2024-02-28T14:37:17.179Z,french_669.wav,0,poule,928,29,5,5,français,m,6,0.6,25.982451,0.77698842
5e15aae07bf572b8f97a847d,14,0,2024-02-28T14:37:17.179Z,french_669.wav,0,poule,928,29,5,5,français,m,7,0.7,2.31628943,1.9835701
5e15aae07bf572b8f97a847d,14,0,2024-02-28T14:37:17.179Z,french_669.wav,0,poule,928,29,5,5,français,m,8,0.8,-23.9411009,0.74672504
5e15aae07bf572b8f97a847d,14,0,2024-02-28T14:37:17.179Z,french_669.wav,0,poule,928,29,5,5,français,m,9,0.9,1.17847383,0.31328371
5e15aae07bf572b8f97a847d,14,0,2024-02-28T14:37:17.179Z,french_669.wav,0,poule,928,29,5,5,français,m,10,1.0,-0.0207096506,1.00971918
5e15aae07bf572b8f97a847d,14,0,2024-02-28T14:37:17.179Z,french_669.wav,0,poule,928,29,5,5,français,m,11,1.1,79.8727398,0.68044343
5e15aae07bf572b8f97a847d,14,0,2024-02-28T14:37:17.179Z,french_669.wav,0,poule,928,29,5,5,français,m,12,1.14141667,41.4033753,0.87080947
5e15aae07bf572b8f97a847d,15,0,2024-02-28T14:37:17.179Z,french_337.wav,0,poule,502,29,5,5,français,m,0,0.0,-54.36724897,1.61515364
5e15aae07bf572b8f97a847d,15,0,2024-02-28T14:37:17.179Z,french_337.wav,0,poule,502,29,5,5,français,m,1,0.1,47.20909077,1.4185112
5e15aae07bf572b8f97a847d,15,0,2024-02-28T14:37:17.179Z,french_337.wav,0,poule,502,29,5,5,français,m,2,0.2,-38.31746159,0.32887669
5e15aae07bf572b8f97a847d,15,0,2024-02-28T14:37:17.179Z,french_337.wav,0,poule,502,29,5,5,français,m,3,0.3,-61.13963937,0.02610503
5e15aae07bf572b8f97a847d,15,0,2024-02-28T14:37:17.179Z,french_337.wav,0,poule,502,29,5,5,français,m,4,0.4,13.36429747,0.46832004
5e15aae07bf572b8f97a847d,15,0,2024-02-28T14:37:17.179Z,french_337.wav,0,poule,502,29,5,5,français,m,5,0.5,11.60122819,0.11209332
5e15aae07bf572b8f97a847d,15,0,2024-02-28T14:37:17.179Z,french_337.wav,0,poule,502,29,5,5,français,m,6,0.6,-37.13411098,1.89414481
5e15aae07bf572b8f97a847d,15,0,2024-02-28T14:37:17.179Z,french_337.wav,0,poule,502,29,5,5,français,m,7,0.7,16.0551706,0.78679118
5e15aae07bf572b8f97a847d,15,0,2024-02-28T14:37:17.179Z,french_337.wav,0,poule,502,29,5,5,français,m,8,0.8,-76.84632417,0.16086144
5e15aae07bf572b8f97a847d,15,0,2024-02-28T14:37:17.179Z,french_337.wav,0,poule,502,29,5,5,français,m,9,0.9,7.55549957,1.28761221
5e15aae07bf572b8f97a847d,15,0,2024-02-28T14:37:17.179Z,french_337.wav,0,poule,502,29,5,5,français,m,10,1.0,-1.43284295,0.94282924
5e15aae07bf572b8f97a847d,15,0,2024-02-28T14:37:17.179Z,french_337.wav,0,poule,502,29,5,5,français,m,11,1.1,70.59581093,0.25063138
5e15aae07bf572b8f97a847d,15,0,2024-02-28T14:37:17.179Z,french_337.wav,0,poule,502,29,5,5,français,m,12,1.14141667,-22.88982384,0.65987502
5e15aae07bf572b8f97a847d,16,0,2024-02-28T14:37:17.179Z,french_613.wav,0,pull,1079,29,5,5,français,m,0,0.0,-79.12321817,0.47548878
5e15aae07bf572b8f97a847d,16,0,2024-02-28T14:37:17.179Z,french_613.wav,0,pull,1079,29,5,5,français,m,1,0.1,-7.41492532,0.76860871
5e15aae07bf572b8f97a847d,16,0,2024-02-28T14:37:17.179Z,french_613.wav,0,pull,1079,29,5,5,français,m,2,0.2,-83.26616323,0.13725989
5e15aae07bf572b8f97a847d,16,0,2024-02-28T14:37:17.179Z,french_613.wav,0,pull,1079,29,5,5,français,m,3,0.3,76.11721718,1.43493141
5e15aae07bf572b8f97a847d,16,0,2024-02-28T14:37:17.179Z,french_613.wav,0,pull,1079,29,5,5,français,m,4,0.4,-86.02724826,0.64104135
5e15aae07bf572b8f97a847d,16,0,2024-02-28T14:37:17.179Z,french_613.wav,0,pull,1079,29,5,5,français,m,5,0.5,-21.97136908,0.69636711
5e15aae07bf572b8f97a847d,16,0,2024-02-28T14:37:17.179Z,french_613.wav,0,pull,1079,29,5,5,français,m,6,0.6,-20.66842631,0.03283489
5e15aae07bf572b8f97a847d,16,0,2024-02-28T14:37:17.179Z,french_613.wav,0,pull,1079,29,5,5,français,m,7,0.7,-18.6862133,1.11684822
5e15aae07bf572b8f97a847d,16,0,2024-02-28T14:37:17.179Z,french_613.wav,0,pull,1079,29,5,5,français,m,8,0.8,93.72513797,0.70396807
5e15aae07bf572b8f97a847d,16,0,2024-02-28T14:37:17.179Z,french_613.wav,0,pull,1079,29,5,5,français,m,9,0.9,-61.43949343,0.51356951
5e15aae07bf572b8f97a847d,16,0,2024-02-28T14:37:17.179Z,french_613.wav,0,pull,1079,29,5,5,français,m,10,1.0,-85.97992137,0.02840793
5e15aae07bf572b8f97a847d,16,0,2024-02-28T14:37:17.179Z,french_613.wav,0,pull,1079,29,5,5,français,m,11,1.1,65.40328987,0.75953201
5e15aae07bf572b8f97a847d,16,0,2024-02-28T14:37:17.179Z,french_613.wav,0,pull,1079,29,5,5,français,m,12,1.14141667,-7.08798818,0.90179979
5e15aae07bf572b8f97a847d,17,0,2024-02-28T14:37:17.179Z,french_526.wav,0,poule,825,29,5,5,français,m,0,0.0,-3.34213948,0.40974575
5e15aae07bf572b8f97a847d,17,0,2024-02-28T14:37:17.179Z,french_526.wav,0,poule,825,29,5,5,français,m,1,0.1,-38.63024981,0.80270001
5e15aae07bf572b8f97a847d,17,0,2024-02-28T14:37:17.179Z,french_526.wav,0,poule,825,29,5,5,français,m,2,0.2,93.21737658,0.74121325
5e15aae07bf572b8f97a847d,17,0,2024-02-28T14:37:17.179Z,french_526.wav,0,poule,825,29,5,5,français,m,3,0.3,-71.56714532,1.50939527
5e15aae07bf572b8f97a847d,17,0,2024-02-28T14:37:17.179Z,french_526.wav,0,poule,825,29,5,5,français,m,4,0.4,55.55298997,0.92463097
5e15aae07bf572b8f97a847d,17,0,2024-02-28T14:37:17.179Z,french_526.wav,0,poule,825,29,5,5,français,m,5,0.5,-90.65516394,1.64741989
5e15aae07bf572b8f97a847d,17,0,2024-02-28T14:37:17.179Z,french_526.wav,0,poule,825,29,5,5,français,m,6,0.6,67.30065147,0.25308429
5e15aae07bf572b8f97a847d,17,0,2024-02-28T14:37:17.179Z,french_526.wav,0,poule,825,29,5,5,français,m,7,0.7,-92.19460914,0.31675775
5e15aae07bf572b8f97a847d,17,0,2024-02-28T14:37:17.179Z,french_526.wav,0,poule,825,29,5,5,français,m,8,0.8,-61.42846186,1.60624507
5e15aae07bf572b8f97a847d,17,0,2024-02-28T14:37:17.179Z,french_526.wav,0,poule,825,29,5,5,français,m,9,0.9,-71.57092401,1.37847828
5e15aae07bf572b8f97a847d,17,0,2024-02-28T14:37:17.179Z,french_526.wav,0,poule,825,29,5,5,français,m,10,1.0,-1.13377121,1.26755978
5e15aae07bf572b8f97a847d,17,0,2024-02-28T14:37:17.179Z,french_526.wav,0,poule,825,29,5,5,français,m,11,1.1,79.13585044,1.65811532
5e15aae07bf572b8f97a847d,17,0,2024-02-28T14:37:17.179Z,french_526.wav,0,poule,825,29,5,5,français,m,12,1.14141667,-60.54584427,1.5361609
5e15aae07bf572b8f97a847d,18,0,2024-02-28T14:37:17.179Z,french_242.wav,0,pull,712,29,5,5,français,m,0,0.0,59.9246686,0.7705426
5e15aae07bf572b8f97a847d,18,0,2024-02-28T14:37:17.179Z,french_242.wav,0,pull,712,29,5,5,français,m,1,0.1,34.317104,1.35720794
5e15aae07bf572b8f97a847d,18,0,2024-02-28T14:37:17.179Z,french_242.wav,0,pull,712,29,5,5,français,m,2,0.2,-16.35349213,1.64741756
5e15aae07bf572b8f97a847d,18,0,2024-02-28T14:37:17.179Z,french_242.wav,0,pull,712,29,5,5,français,m,3,0.3,-3.89642432,1.32981589
5e15aae07bf572b8f97a847d,18,0,2024-02-28T14:37:17.179Z,french_242.wav,0,pull,712,29,5,5,français,m,4,0.4,29.46938807,1.18335147
5e15aae07bf572b8f97a847d,18,0,2024-02-28T14:37:17.179Z,french_242.wav,0,pull,712,29,5,5,français,m,5,0.5,87.19069856,0.80157352
5e15aae07bf572b8f97a847d,18,0,2024-02-28T14:37:17.179Z,french_242.wav,0,pull,712,29,5,5,français,m,6,0.6,31.58848926,0.21433163
5e15aae07bf572b8f97a847d,18,0,2024-02-28T14:37:17.179Z,french_242.wav,0,pull,712,29,5,5,français,m,7,0.7,67.19434404,0.24954864
5e15aae07bf572b8f97a847d,18,0,2024-02-28T14:37:17.179Z,french_242.wav,0,pull,712,29,5,5,français,m,8,0.8,60.57808794,0.17414225
5e15aae07bf572b8f97a847d,18,0,2024-02-28T14:37:17.179Z,french_242.wav,0,pull,712,29,5,5,français,m,9,0.9,42.29794733,1.41029666
5e15aae07bf572b8f97a847d,18,0,2024-02-28T14:37:17.179Z,french_242.wav,0,pull,712,29,5,5,français,m,10,1.0,-49.75875444,0.53247326
5e15aae07bf572b8f97a847d,18,0,2024-02-28T14:37:17.179Z,french_242.wav,0,pull,712,29,5,5,français,m,11,1.1,36.47194949,0.97948889
5e15aae07bf572b8f97a847d,18,0,2024-02-28T14:37:17.179Z,french_242.wav,0,pull,712,29,5,5,français,m,12,1.14141667,15.25504346,0.82870392
5e15aae07bf572b8f97a847d,19,0,2024-02-28T14:37:17.179Z,french_643.wav,0,pull,445,29,5,5,français,m,0,0.0,73.91884807,1.70558003
5e15aae07bf572b8f97a847d,19,0,2024-02-28T14:37:17.179Z,french_643.wav,0,pull,445,29,5,5,français,m,1,0.1,-4.43109792,0.86348917
5e15aae07bf572b8f97a847d,19,0,2024-02-28T14:37:17.179Z,french_643.wav,0,pull,445,29,5,5,français,m,2,0.2,-1.1803274,1.37952802
5e15aae07bf572b8f97a847d,19,0,2024-02-28T14:37:17.179Z,french_643.wav,0,pull,445,29,5,5,français,m,3,0.3,-41.71220888,1.18502501
5e15aae07bf572b8f97a847d,19,0,2024-02-28T14:37:17.179Z,french_643.wav,0,pull,445,29,5,5,français,m,4,0.4,94.20925974,0.88169131
5e15aae07bf572b8f97a847d,19,0,2024-02-28T14:37:17.179Z,french_643.wav,0,pull,445,29,5,5,français,m,5,0.5,-88.02698337,1.38963069
5e15aae07bf572b8f97a847d,19,0,2024-02-28T14:37:17.179Z,french_643.wav,0,pull,445,29,5,5,français,m,6,0.6,27.05940028,1.01487063
5e15aae07bf572b8f97a847d,19,0,2024-02-28T14:37:17.179Z,french_643.wav,0,pull,445,29,5,5,français,m,7,0.7,-90.83448332,1.12640019
5e15aae07bf572b8f97a847d,19,0,2024-02-28T14:37:17.179Z,french_643.wav,0,pull,445,29,5,5,français,m,8,0.8,-22.69696081,1.31593489
5e15aae07bf572b8f97a847d,19,0,2024-02-28T14:37:17.179Z,french_643.wav,0,pull,445,29,5,5,français,m,9,0.9,-24.03182976,0.18197264
5e15aae07bf572b8f97a847d,19,0,2024-02-28T14:37:17.179Z,french_643.wav,0,pull,445,29,5,5,français,m,10,1.0,92.21203229,1.50863552
5e15aae07bf572b8f97a847d,19,0,2024-02-28T14:37:17.179Z,french_643.wav,0,pull,445,29,5,5,français,m,11,1.1,48.64996004,0.67746017
5e15aae07bf572b8f97a847d,19,0,2024-02-28T14:37:17.179Z,french_643.wav,0,pull,445,29,5,5,français,m,12,1.14141667,-33.54561586,0.44809852
5e15aae07bf572b8f97a847d,20,0,2024-02-28T14:37:17.179Z,french_241.wav,0,poule,492,29,5,5,français,m,0,0.0,98.04166171,0.32485673
5e15aae07bf572b8f97a847d,20,0,2024-02-28T14:37:17.179Z,french_241.wav,0,poule,492,29,5,5,français,m,1,0.1,6.16764543,1.24402989
5e15aae07bf572b8f97a847d,20,0,2024-02-28T14:37:17.179Z,french_241.wav,0,poule,492,29,5,5,français,m,2,0.2,-42.8608234,0.94649821
5e15aae07bf572b8f97a847d,20,0,2024-02-28T14:37:17.179Z,french_241.wav,0,poule,492,29,5,5,français,m,3,0.3,54.21216242,1.15369043
5e15aae07bf572b8f97a847d,20,0,2024-02-28T14:37:17.179Z,french_241.wav,0,poule,492,29,5,5,français,m,4,0.4,-1.78367985,0.47784039
5e15aae07bf572b8f97a847d,20,0,2024-02-28T14:37:17.179Z,french_241.wav,0,poule,492,29,5,5,français,m,5,0.5,-5.66820407,0.56378862
5e15aae07bf572b8f97a847d,20,0,2024-02-28T14:37:17.179Z,french_241.wav,0,poule,492,29,5,5,français,m,6,0.6,54.13943684,0.47159963
5e15aae07bf572b8f97a847d,20,0,2024-02-28T14:37:17.179Z,french_241.wav,0,poule,492,29,5,5,français,m,7,0.7,-80.00679133,1.76255958
5e15aae07bf572b8f97a847d,20,0,2024-02-28T14:37:17.179Z,french_241.wav,0,poule,492,29,5,5,français,m,8,0.8,-44.25002722,0.64662376
5e15aae07bf572b8f97a847d,20,0,2024-02-28T14:37:17.179Z,french_241.wav,0,poule,492,29,5,5,français,m,9,0.9,-63.06102871,1.1795317
5e15aae07bf572b8f97a847d,20,0,2024-02-28T14:37:17.179Z,french_241.wav,0,poule,492,29,5,5,français,m,10,1.0,80.68342045,1.4030233
5e15aae07bf572b8f97a847d,20,0,2024-02-28T14:37:17.179Z,french_241.wav,0,poule,492,29,5,5,français,m,11,1.1,4.33426609,0.53258498
5e15aae07bf572b8f97a847d,20,0,2024-02-28T14:37:17.179Z,french_241.wav,0,poule,492,29,5,5,français,m,12,1.14141667,89.08058854,0.85759255
5e15aae07bf572b8f97a847d,21,0,2024-02-28T14:37:17.179Z,french_102.wav,0,poule,632,29,5,5,français,m,0,0.0,-15.01544192,1.99547859
5e15aae07bf572b8f97a847d,21,0,2024-02-28T14:37:17.179Z,french_102.wav,0,poule,632,29,5,5,français,m,1,0.1,71.67037123,1.31067708
5e15aae07bf572b8f97a847d,21,0,2024-02-28T14:37:17.179Z,french_102.wav,0,poule,632,29,5,5,français,m,2,0.2,-15.40775764,1.89966094
5e15aae07bf572b8f97a847d,21,0,2024-02-28T14:37:17.179Z,french_102.wav,0,poule,632,29,5,5,français,m,3,0.3,-11.03205257,0.46209705
5e15aae07bf572b8f97a847d,21,0,2024-02-28T14:37:17.179Z,french_102.wav,0,poule,632,29,5,5,français,m,4,0.4,83.38976595,1.59020339
5e15aae07bf572b8f97a847d,21,0,2024-02-28T14:37:17.179Z,french_102.wav,0,poule,632,29,5,5,français,m,5,0.5,-5.64706329,0.67444191
5e15aae07bf572b8f97a847d,21,0,2024-02-28T14:37:17.179Z,french_102.wav,0,poule,632,29,5,5,français,m,6,0.6,-61.33063811,0.39768291
5e15aae07bf572b8f97a847d,21,0,2024-02-28T14:37:17.179Z,french_102.wav,0,poule,632,29,5,5,français,m,7,0.7,-33.99234127,1.94992257
5e15aae07bf572b8f97a847d,21,0,2024-02-28T14:37:17.179Z,french_102.wav,0,poule,632,29,5,5,français,m,8,0.8,-77.43313944,0.27940287
5e15aae07bf572b8f97a847d,21,0,2024-02-28T14:37:17.179Z,french_102.wav,0,poule,632,29,5,5,français,m,9,0.9,71.97416395,1.28110567
5e15aae07bf572b8f97a847d,21,0,2024-02-28T14:37:17.179Z,french_102.wav,0,poule,632,29,5,5,français,m,10,1.0,97.74294551,1.03180034
5e15aae07bf572b8f97a847d,21,0,2024-02-28T14:37:17.179Z,french_102.wav,0,poule,632,29,5,5,français,m,11,1.1,3.21615285,0.76414653
5e15aae07bf572b8f97a847d,21,0,2024-02-28T14:37:17.179Z,french_102.wav,0,poule,632,29,5,5,français,m,12,1.14141667,38.32606252,1.66338618
5e15aae07bf572b8f97a847d,22,0,2024-02-28T14:37:17.179Z,french_357.wav,0,pull,446,29,5,5,français,m,0,0.0,86.82276174,1.92268893
5e15aae07bf572b8f97a847d,22,0,2024-02-28T14:37:17.179Z,french_357.wav,0,pull,446,29,5,5,français,m,1,0.1,61.01952575,0.3802524
5e15aae07bf572b8f97a847d,22,0,2024-02-28T14:37:17.179Z,french_357.wav,0,pull,446,29,5,5,français,m,2,0.2,-60.75226359,0.64366911
5e15aae07bf572b8f97a847d,22,0,2024-02-28T14:37:17.179Z,french_357.wav,0,pull,446,29,5,5,français,m,3,0.3,85.98471719,0.42839795
5e15aae07bf572b8f97a847d,22,0,2024-02-28T14:37:17.179Z,french_357.wav,0,pull,446,29,5,5,français,m,4,0.4,-69.86147068,0.00748054
5e15aae07bf572b8f97a847d,22,0,2024-02-28T14:37:17.179Z,french_357.wav,0,pull,446,29,5,5,français,m,5,0.5,9.94695166,1.08678504
5e15aae07bf572b8f97a847d,22,0,2024-02-28T14:37:17.179Z,french_357.wav,0,pull,446,29,5,5,français,m,6,0.6,18.79769535,1.81857945
5e15aae07bf572b8f97a847d,22,0,2024-02-28T14:37:17.179Z,french_357.wav,0,pull,446,29,5,5,français,m,7,0.7,32.56379866,0.88876944
5e15aae07bf572b8f97a847d,22,0,2024-02-28T14:37:17.179Z,french_357.wav,0,pull,446,29,5,5,français,m,8,0.8,-63.36176939,0.00755284
5e15aae07bf572b8f97a847d,22,0,2024-02-28T14:37:17.179Z,french_357.wav,0,pull,446,29,5,5,français,m,9,0.9,-52.11840686,1.32717317
5e15aae07bf572b8f97a847d,22,0,2024-02-28T14:37:17.179Z,french_357.wav,0,pull,446,29,5,5,français,m,10,1.0,-62.81838888,1.11144187
5e15aae07bf572b8f97a847d,22,0,2024-02-28T14:37:17.179Z,french_357.wav,0,pull,446,29,5,5,français,m,11,1.1,-46.10611579,1.48923739
5e15aae07bf572b8f97a847d,22,0,2024-02-28T14:37:17.179Z,french_357.wav,0,pull,446,29,5,5,français,m,12,1.14141667,30.76289331,0.80153076
5e15aae07bf572b8f97a847d,23,0,2024-02-28T14:37:17.179Z,french_576.wav,0,poule,383,29,5,5,français,m,0,0.0,-35.22249623,0.53434723
5e15aae07bf572b8f97a847d,23,0,2024-02-28T14:37:17.179Z,french_576.wav,0,poule,383,29,5,5,français,m,1,0.1,92.91804811,1.6832489
5e15aae07bf572b8f97a847d,23,0,2024-02-28T14:37:17.179Z,french_576.wav,0,poule,383,29,5,5,français,m,2,0.2,14.59888727,0.18828374
5e15aae07bf572b8f97a847d,23,0,2024-02-28T14:37:17.179Z,french_576.wav,0,poule,383,29,5,5,français,m,3,0.3,-68.19590077,1.37837483
5e15aae07bf572b8f97a847d,23,0,2024-02-28T14:37:17.179Z,french_576.wav,0,poule,383,29,5,5,français,m,4,0.4,52.21316696,1.79475925
5e15aae07bf572b8f97a847d,23,0,2024-02-28T14:37:17.179Z,french_576.wav,0,poule,383,29,5,5,français,m,5,0.5,14.92193752,1.60751943
5e15aae07bf572b8f97a847d,23,0,2024-02-28T14:37:17.179Z,french_576.wav,0,poule,383,29,5,5,français,m,6,0.6,-2.54989891,1.27401164
5e15aae07bf572b8f97a847d,23,0,2024-02-28T14:37:17.179Z,french_576.wav,0,poule,383,29,5,5,français,m,7,0.7,-61.75801356,1.12679718
5e15aae07bf572b8f97a847d,23,0,2024-02-28T14:37:17.179Z,french_576.wav,0,poule,383,29,5,5,français,m,8,0.8,-64.3663367,0.78491819
5e15aae07bf572b8f97a847d,23,0,2024-02-28T14:37:17.179Z,french_576.wav,0,poule,383,29,5,5,français,m,9,0.9,-54.016617,0.78342671
5e15aae07bf572b8f97a847d,23,0,2024-02-28T14:37:17.179Z,french_576.wav,0,poule,383,29,5,5,français,m,10,1.0,23.77391071,0.50591009
5e15aae07bf572b8f97a847d,23,0,2024-02-28T14:37:17.179Z,french_576.wav,0,poule,383,29,5,5,français,m,11,1.1,16.13387818,1.89137454
5e15aae07bf572b8f97a847d,23,0,2024-02-28T14:37:17.179Z,french_576.wav,0,poule,383,29,5,5,français,m,12,1.14141667,16.53892652,1.34464609
5e15aae07bf572b8f97a847d,24,0,2024-02-28T14:37:17.179Z,french_816.wav,0,poule,431,29,5,5,français,m,0,0.0,-97.18949374,1.62055142
5e15aae07bf572b8f97a847d,24,0,2024-02-28T14:37:17.179Z,french_816.wav,0,poule,431,29,5,5,français,m,1,0.1,-61.44808102,0.77873913
5e15aae07bf572b8f97a847d,24,0,2024-02-28T14:37:17.179Z,french_816.wav,0,poule,431,29,5,5,français,m,2,0.2,61.9994188,1.7419515
5e15aae07bf572b8f97a847d,24,0,2024-02-28T14:37:17.179Z,french_816.wav,0,poule,431,29,5,5,français,m,3,0.3,84.22947867,1.18335518
5e15aae07bf572b8f97a847d,24,0,2024-02-28T14:37:17.179Z,french_816.wav,0,poule,431,29,5,5,français,m,4,0.4,71.42718941,0.26789649
5e15aae07bf572b8f97a847d,24,0,2024-02-28T14:37:17.179Z,french_816.wav,0,poule,431,29,5,5,français,m,5,0.5,24.61980692,1.09790132
5e15aae07bf572b8f97a847d,24,0,2024-02-28T14:37:17.179Z,french_816.wav,0,poule,431,29,5,5,français,m,6,0.6,67.61429309,0.65540703
5e15aae07bf572b8f97a847d,24,0,2024-02-28T14:37:17.179Z,french_816.wav,0,poule,431,29,5,5,français,m,7,0.7,2.89011689,0.23417739
5e15aae07bf572b8f97a847d,24,0,2024-02-28T14:37:17.179Z,french_816.wav,0,poule,431,29,5,5,français,m,8,0.8,-17.87721334,1.34217218
5e15aae07bf572b8f97a847d,24,0,2024-02-28T14:37:17.179Z,french_816.wav,0,poule,431,29,5,5,français,m,9,0.9,68.87537651,0.58504263
5e15aae07bf572b8f97a847d,24,0,2024-02-28T14:37:17.179Z,french_816.wav,0,poule,431,29,5,5,français,m,10,1.0,26.6727595,0.89860731
5e15aae07bf572b8f97a847d,24,0,2024-02-28T14:37:17.179Z,french_816.wav,0,poule,431,29,5,5,français,m,11,1.1,7.78053478,1.05692274
5e15aae07bf572b8f97a847d,24,0,2024-02-28T14:37:17.179Z,french_816.wav,0,poule,431,29,5,5,français,m,12,1.14141667,95.77522744,0.59957378
5e15aae07bf572b8f97a847d,25,0,2024-02-28T14:37:17.179Z,french_788.wav,0,pull,437,29,5,5,français,m,0,0.0,84.88181246,0.03175168
5e15aae07bf572b8f97a847d,25,0,2024-02-28T14:37:17.179Z,french_788.wav,0,pull,437,29,5,5,français,m,1,0.1,-53.361196,0.85169606
5e15aae07bf572b8f97a847d,25,0,2024-02-28T14:37:17.179Z,french_788.wav,0,pull,437,29,5,5,français,m,2,0.2,-79.83183492,1.06249642
5e15aae07bf572b8f97a847d,25,0,2024-02-28T14:37:17.179Z,french_788.wav,0,pull,437,29,5,5,français,m,3,0.3,-81.43667249,0.33118056
5e15aae07bf572b8f97a847d,25,0,2024-02-28T14:37:17.179Z,french_788.wav,0,pull,437,29,5,5,français,m,4,0.4,-84.26984857,0.56264905
5e15aae07bf572b8f97a847d,25,0,2024-02-28T14:37:17.179Z,french_788.wav,0,pull,437,29,5,5,français,m,5,0.5,-6.78913133,1.04297642
5e15aae07bf572b8f97a847d,25,0,2024-02-28T14:37:17.179Z,french_788.wav,0,pull,437,29,5,5,français,m,6,0.6,-92.03119161,0.21097219
5e15aae07bf572b8f97a847d,25,0,2024-02-28T14:37:17.179Z,french_788.wav,0,pull,437,29,5,5,français,m,7,0.7,-49.77310548,0.74540568
5e15aae07bf572b8f97a847d,25,0,2024-02-28T14:37:17.179Z,french_788.wav,0,pull,437,29,5,5,français,m,8,0.8,-47.02560552,0.91078692
5e15aae07bf572b8f97a847d,25,0,2024-02-28T14:37:17.179Z,french_788.wav,0,pull,437,29,5,5,français,m,9,0.9,-18.72561961,1.76633496
5e15aae07bf572b8f97a847d,25,0,2024-02-28T14:37:17.179Z,french_788.wav,0,pull,437,29,5,5,français,m,10,1.0,-17.58583792,0.74480247
5e15aae07bf572b8f97a847d,25,0,2024-02-28T14:37:17.179Z,french_788.wav,0,pull,437,29,5,5,français,m,11,1.1,-51.68507601,0.45106358
5e15aae07bf572b8f97a847d,25,0,2024-02-28T14:37:17.179Z,french_788.wav,0,pull,437,29,5,5,français,m,12,1.14141667,-51.32861943,1.35846838
5e15aae07bf572b8f97a847d,26,0,2024-02-28T14:37:17.179Z,french_587.wav,0,poule,523,29,5,5,français,m,0,0.0,-23.10151834,0.66297152
5e15aae07bf572b8f97a847d,26,0,2024-02-28T14:37:17.179Z,french_587.wav,0,poule,523,29,5,5,français,m,1,0.1,73.96187404,0.83081239
5e15aae07bf572b8f97a847d,26,0,2024-02-28T14:37:17.179Z,french_587.wav,0,poule,523,29,5,5,français,m,2,0.2,-36.92313799,1.04778095
5e15aae07bf572b8f97a847d,26,0,2024-02-28T14:37:17.179Z,french_587.wav,0,poule,523,29,5,5,français,m,3,0.3,-49.18419378,0.81483732
5e15aae07bf572b8f97a847d,26,0,2024-02-28T14:37:17.179Z,french_587.wav,0,poule,523,29,5,5,français,m,4,0.4,62.41576627,1.5428737
5e15aae07bf572b8f97a847d,26,0,2024-02-28T14:37:17.179Z,french_587.wav,0,poule,523,29,5,5,français,m,5,0.5,50.48984241,0.5491045
5e15aae07bf572b8f97a847d,26,0,2024-02-28T14:37:17.179Z,french_587.wav,0,poule,523,29,5,5,français,m,6,0.6,-36.48125396,0.38093132
5e15aae07bf572b8f97a847d,26,0,2024-02-28T14:37:17.179Z,french_587.wav,0,poule,523,29,5,5,français,m,7,0.7,49.40629833,0.06101614
5e15aae07bf572b8f97a847d,26,0,2024-02-28T14:37:17.179Z,french_587.wav,0,poule,523,29,5,5,français,m,8,0.8,9.88525734,0.87218615
5e15aae07bf572b8f97a847d,26,0,2024-02-28T14:37:17.179Z,french_587.wav,0,poule,523,29,5,5,français,m,9,0.9,3.79133085,1.80491798
5e15aae07bf572b8f97a847d,26,0,2024-02-28T14:37:17.179Z,french_587.wav,0,poule,523,29,5,5,français,m,10,1.0,26.22699337,1.12003779
5e15aae07bf572b8f97a847d,26,0,2024-02-28T14:37:17.179Z,french_587.wav,0,poule,523,29,5,5,français,m,11,1.1,38.90906104,1.11770584
5e15aae07bf572b8f97a847d,26,0,2024-02-28T14:37:17.179Z,french_587.wav,0,poule,523,29,5,5,français,m,12,1.14141667,68.80148374,1.81736967
5e15aae07bf572b8f97a847d,27,0,2024-02-28T14:37:17.179Z,french_846.wav,0,poule,828,29,5,5,français,m,0,0.0,43.42961838,1.28400626
5e15aae07bf572b8f97a847d,27,0,2024-02-28T14:37:17.179Z,french_846.wav,0,poule,828,29,5,5,français,m,1,0.1,48.91207132,0.70533895
5e15aae07bf572b8f97a847d,27,0,2024-02-28T14:37:17.179Z,french_846.wav,0,poule,828,29,5,5,français,m,2,0.2,-68.42359385,0.06316808
5e15aae07bf572b8f97a847d,27,0,2024-02-28T14:37:17.179Z,french_846.wav,0,poule,828,29,5,5,français,m,3,0.3,77.65804288,0.61229951
5e15aae07bf572b8f97a847d,27,0,2024-02-28T14:37:17.179Z,french_846.wav,0,poule,828,29,5,5,français,m,4,0.4,98.73987553,0.63250943
5e15aae07bf572b8f97a847d,27,0,2024-02-28T14:37:17.179Z,french_846.wav,0,poule,828,29,5,5,français,m,5,0.5,-52.72140445,0.92323899
5e15aae07bf572b8f97a847d,27,0,2024-02-28T14:37:17.179Z,french_846.wav,0,poule,828,29,5,5,français,m,6,0.6,75.92396611,1.83199323
5e15aae07bf572b8f97a847d,27,0,2024-02-28T14:37:17.179Z,french_846.wav,0,poule,828,29,5,5,français,m,7,0.7,-55.96148037,0.13437825
5e15aae07bf572b8f97a847d,27,0,2024-02-28T14:37:17.179Z,french_846.wav,0,poule,828,29,5,5,français,m,8,0.8,-32.72936207,0.25967485
5e15aae07bf572b8f97a847d,27,0,2024-02-28T14:37:17.179Z,french_846.wav,0,poule,828,29,5,5,français,m,9,0.9,28.49983495,1.88952139
5e15aae07bf572b8f97a847d,27,0,2024-02-28T14:37:17.179Z,french_846.wav,0,poule,828,29,5,5,français,m,10,1.0,-51.57941373,1.26440491
5e15aae07bf572b8f97a847d,27,0,2024-02-28T14:37:17.179Z,french_846.wav,0,poule,828,29,5,5,français,m,11,1.1,-3.09394124,1.62136954
5e15aae07bf572b8f97a847d,27,0,2024-02-28T14:37:17.179Z,french_846.wav,0,poule,828,29,5,5,français,m,12,1.14141667,-55.77116461,0.52928256
5e15aae07bf572b8f97a847d,28,0,2024-02-28T14:37:17.179Z,french_297.wav,0,pull,445,29,5,5,français,m,0,0.0,-57.88814484,0.69308764
5e15aae07bf572b8f97a847d,28,0,2024-02-28T14:37:17.179Z,french_297.wav,0,pull,445,29,5,5,français,m,1,0.1,-65.38188866,0.37987573
5e15aae07bf572b8f97a847d,28,0,2024-02-28T14:37:17.179Z,french_297.wav,0,pull,445,29,5,5,français,m,2,0.2,56.2043282,0.59927578
5e15aae07bf572b8f97a847d,28,0,2024-02-28T14:37:17.179Z,french_297.wav,0,pull,445,29,5,5,français,m,3,0.3,37.86944555,1.25022663
5e15aae07bf572b8f97a847d,28,0,2024-02-28T14:37:17.179Z,french_297.wav,0,pull,445,29,5,5,français,m,4,0.4,-19.92258325,0.84509442
5e15aae07bf572b8f97a847d,28,0,2024-02-28T14:37:17.179Z,french_297.wav,0,pull,445,29,5,5,français,m,5,0.5,-5.91149955,0.62575422
5e15aae07bf572b8f97a847d,28,0,2024-02-28T14:37:17.179Z,french_297.wav,0,pull,445,29,5,5,français,m,6,0.6,-11.69802287,0.6876977
5e15aae07bf572b8f97a847d,28,0,2024-02-28T14:37:17.179Z,french_297.wav,0,pull,445,29,5,5,français,m,7,0.7,-38.75754166,0.53792077
5e15aae07bf572b8f97a847d,28,0,2024-02-28T14:37:17.179Z,french_297.wav,0,pull,445,29,5,5,français,m,8,0.8,-82.79023729,1.01464863
5e15aae07bf572b8f97a847d,28,0,2024-02-28T14:37:17.179Z,french_297.wav,0,pull,445,29,5,5,français,m,9,0.9,-96.88307613,0.81112842
5e15aae07bf572b8f97a847d,28,0,2024-02-28T14:37:17.179Z,french_297.wav,0,pull,445,29,5,5,français,m,10,1.0,-63.09042371,1.38654734
5e15aae07bf572b8f97a847d,28,0,2024-02-28T14:37:17.179Z,french_297.wav,0,pull,445,29,5,5,français,m,11,1.1,78.08018198,0.15468479
5e15aae07bf572b8f97a847d,28,0,2024-02-28T14:37:17.179Z,french_297.wav,0,pull,445,29,5,5,français,m,12,1.14141667,10.19553277,0.66198032
5e15aae07bf572b8f97a847d,29,0,2024-02-28T14:37:17.179Z,french_965.wav,0,pull,602,29,5,5,français,m,0,0.0,-48.58162181,0.70059107
5e15aae07bf572b8f97a847d,29,0,2024-02-28T14:37:17.179Z,french_965.wav,0,pull,602,29,5,5,français,m,1,0.1,47.6871057,1.78470564
5e15aae07bf572b8f97a847d,29,0,2024-02-28T14:37:17.179Z,french_965.wav,0,pull,602,29,5,5,français,m,2,0.2,23.95676838,0.47543709
5e15aae07bf572b8f97a847d,29,0,2024-02-28T14:37:17.179Z,french_965.wav,0,pull,602,29,5,5,français,m,3,0.3,-24.73791069,1.78680006
5e15aae07bf572b8f97a847d,29,0,2024-02-28T14:37:17.179Z,french_965.wav,0,pull,602,29,5,5,français,m,4,0.4,88.65790889,0.5678587
5e15aae07bf572b8f97a847d,29,0,2024-02-28T14:37:17.179Z,french_965.wav,0,pull,602,29,5,5,français,m,5,0.5,-99.17119216,1.43378545
5e15aae07bf572b8f97a847d,29,0,2024-02-28T14:37:17.179Z,french_965.wav,0,pull,602,29,5,5,français,m,6,0.6,34.90627437,0.13629267
5e15aae07bf572b8f97a847d,29,0,2024-02-28T14:37:17.179Z,french_965.wav,0,pull,602,29,5,5,français,m,7,0.7,25.78663671,0.97611612
5e15aae07bf572b8f97a847d,29,0,2024-02-28T14:37:17.179Z,french_965.wav,0,pull,602,29,5,5,français,m,8,0.8,29.63617464,0.2968179
5e15aae07bf572b8f97a847d,29,0,2024-02-28T14:37:17.179Z,french_965.wav,0,pull,602,29,5,5,français,m,9,0.9,78.54761734,1.84395649
5e15aae07bf572b8f97a847d,29,0,2024-02-28T14:37:17.179Z,french_965.wav,0,pull,602,29,5,5,français,m,10,1.0,89.6715392,0.06154245
5e15aae07bf572b8f97a847d,29,0,2024-02-28T14:37:17.179Z,french_965.wav,0,pull,602,29,5,5,français,m,11,1.1,52.66680317,0.24306075
5e15aae07bf572b8f97a847d,29,0,2024-02-28T14:37:17.179Z,french_965.wav,0,pull,602,29,5,5,français,m,12,1.14141667,-91.61447482,0.32609014
5e15aae07bf572b8f97a847d,30,0,2024-02-28T14:37:17.179Z,french_175.wav,0,poule,818,29,5,5,français,m,0,0.0,-86.0971082,0.20418882
5e15aae07bf572b8f97a847d,30,0,2024-02-28T14:37:17.179Z,french_175.wav,0,poule,818,29,5,5,français,m,1,0.1,-2.3053728,1.54727449
5e15aae07bf572b8f97a847d,30,0,2024-02-28T14:37:17.179Z,french_175.wav,0,poule,818,29,5,5,français,m,2,0.2,91.03775422,0.94711427
5e15aae07bf572b8f97a847d,30,0,2024-02-28T14:37:17.179Z,french_175.wav,0,poule,818,29,5,5,français,m,3,0.3,-72.92322202,0.51689232
5e15aae07bf572b8f97a847d,30,0,2024-02-28T14:37:17.179Z,french_175.wav,0,poule,818,29,5,5,français,m,4,0.4,19.26304209,1.57615447
5e15aae07bf572b8f97a847d,30,0,2024-02-28T14:37:17.179Z,french_175.wav,0,poule,818,29,5,5,français,m,5,0.5,22.762125,1.15863709
5e15aae07bf572b8f97a847d,30,0,2024-02-28T14:37:17.179Z,french_175.wav,0,poule,818,29,5,5,français,m,6,0.6,89.08499151,1.47271781
5e15aae07bf572b8f97a847d,30,0,2024-02-28T14:37:17.179Z,french_175.wav,0,poule,818,29,5,5,français,m,7,0.7,30.86228211,1.58184422
5e15aae07bf572b8f97a847d,30,0,2024-02-28T14:37:17.179Z,french_175.wav,0,poule,818,29,5,5,français,m,8,0.8,-20.38362491,1.71939633
5e15aae07bf572b8f97a847d,30,0,2024-02-28T14:37:17.179Z,french_175.wav,0,poule,818,29,5,5,français,m,9,0.9,30.33990578,1.50494596
5e15aae07bf572b8f97a847d,30,0,2024-02-28T14:37:17.179Z,french_175.wav,0,poule,818,29,5,5,français,m,10,1.0,40.44951768,0.66724973
5e15aae07bf572b8f97a847d,30,0,2024-02-28T14:37:17.179Z,french_175.wav,0,poule,818,29,5,5,français,m,11,1.1,-74.03551827,1.94775923
5e15aae07bf572b8f97a847d,30,0,2024-02-28T14:37:17.179Z,french_175.wav,0,poule,818,29,5,5,français,m,12,1.14141667,8.34335903,1.32591679
5e15aae07bf572b8f97a847d,31,0,2024-02-28T14:37:17.179Z,french_343.wav,0,poule,694,29,5,5,français,m,0,0.0,55.30820306,1.58034267
5e15aae07bf572b8f97a847d,31,0,2024-02-28T14:37:17.179Z,french_343.wav,0,poule,694,29,5,5,français,m,1,0.1,-11.48156173,1.0596038
5e15aae07bf572b8f97a847d,31,0,2024-02-28T14:37:17.179Z,french_343.wav,0,poule,694,29,5,5,français,m,2,0.2,-61.33934281,1.28163155
5e15aae07bf572b8f97a847d,31,0,2024-02-28T14:37:17.179Z,french_343.wav,0,poule,694,29,5,5,français,m,3,0.3,-78.79796184,0.20032202
5e15aae07bf572b8f97a847d,31,0,2024-02-28T14:37:17.179Z,french_343.wav,0,poule,694,29,5,5,français,m,4,0.4,-3.55277636,1.05316587
5e15aae07bf572b8f97a847d,31,0,2024-02-28T14:37:17.179Z,french_343.wav,0,poule,694,29,5,5,français,m,5,0.5,40.8675343,0.79348198
5e15aae07bf572b8f97a847d,31,0,2024-02-28T14:37:17.179Z,french_343.wav,0,poule,694,29,5,5,français,m,6,0.6,88.78635161,0.11297715
5e15aae07bf572b8f97a847d,31,0,2024-02-28T14:37:17.179Z,french_343.wav,0,poule,694,29,5,5,français,m,7,0.7,-70.07472114,1.23835329
5e15aae07bf572b8f97a847d,31,0,2024-02-28T14:37:17.179Z,french_343.wav,0,poule,694,29,5,5,français,m,8,0.8,-79.01069817,1.37036254
5e15aae07bf572b8f97a847d,31,0,2024-02-28T14:37:17.179Z,french_343.wav,0,poule,694,29,5,5,français,m,9,0.9,-38.36075722,1.08523433
5e15aae07bf572b8f97a847d,31,0,2024-02-28T14:37:17.179Z,french_343.wav,0,poule,694,29,5,5,français,m,10,1.0,-74.7385536,0.49176562
5e15aae07bf572b8f97a847d,31,0,2024-02-28T14:37:17.179Z,french_343.wav,0,poule,694,29,5,5,français,m,11,1.1,67.32009961,1.89620137
5e15aae07bf572b8f97a847d,31,0,2024-02-28T14:37:17.179Z,french_343.wav,0,poule,694,29,5,5,français,m,12,1.14141667,18.80940086,0.66544547
5e15aae07bf572b8f97a847d,32,0,2024-02-28T14:37:17.179Z,french_644.wav,0,pull,741,29,5,5,français,m,0,0.0,74.83214381,1.50126041
5e15aae07bf572b8f97a847d,32,0,2024-02-28T14:37:17.179Z,french_644.wav,0,pull,741,29,5,5,français,m,1,0.1,42.49051207,1.8548378
5e15aae07bf572b8f97a847d,32,0,2024-02-28T14:37:17.179Z,french_644.wav,0,pull,741,29,5,5,français,m,2,0.2,90.54799171,1.64493334
5e15aae07bf572b8f97a847d,32,0,2024-02-28T14:37:17.179Z,french_644.wav,0,pull,741,29,5,5,français,m,3,0.3,47.17852012,0.77650911
5e15aae07bf572b8f97a847d,32,0,2024-02-28T14:37:17.179Z,french_644.wav,0,pull,741,29,5,5,français,m,4,0.4,3.30263657,1.92047714
5e15aae07bf572b8f97a847d,32,0,2024-02-28T14:37:17.179Z,french_644.wav,0,pull,741,29,5,5,français,m,5,0.5,-34.13886535,0.71247883
5e15aae07bf572b8f97a847d,32,0,2024-02-28T14:37:17.179Z,french_644.wav,0,pull,741,29,5,5,français,m,6,0.6,-56.77243545,1.54632823
5e15aae07bf572b8f97a847d,32,0,2024-02-28T14:37:17.179Z,french_644.wav,0,pull,741,29,5,5,français,m,7,0.7,25.7362156,1.62920778
5e15aae07bf572b8f97a847d,32,0,2024-02-28T14:37:17.179Z,french_644.wav,0,pull,741,29,5,5,français,m,8,0.8,-95.08022705,1.88559191
5e15aae07bf572b8f97a847d,32,0,2024-02-28T14:37:17.179Z,french_644.wav,0,pull,741,29,5,5,français,m,9,0.9,77.23760269,0.03323224
5e15aae07bf572b8f97a847d,32,0,2024-02-28T14:37:17.179Z,french_644.wav,0,pull,741,29,5,5,français,m,10,1.0,-25.42232077,1.31228193
5e15aae07bf572b8f97a847d,32,0,2024-02-28T14:37:17.179Z,french_644.wav,0,pull,741,29,5,5,français,m,11,1.1,-29.11552135,0.75255545
5e15aae07bf572b8f97a847d,32,0,2024-02-28T14:37:17.179Z,french_644.wav,0,pull,741,29,5,5,français,m,12,1.14141667,-57.8663424,1.94026239
5e15aae07bf572b8f97a847d,33,0,2024-02-28T14:37:17.179Z,french_326.wav,0,pull,573,29,5,5,français,m,0,0.0,33.2240673,1.57377142
5e15aae07bf572b8f97a847d,33,0,2024-02-28T14:37:17.179Z,french_326.wav,0,pull,573,29,5,5,français,m,1,0.1,4.22517174,0.8823726
5e15aae07bf572b8f97a847d,33,0,2024-02-28T14:37:17.179Z,french_326.wav,0,pull,573,29,5,5,français,m,2,0.2,-40.15802905,1.03253402
5e15aae07bf572b8f97a847d,33,0,2024-02-28T14:37:17.179Z,french_326.wav,0,pull,573,29,5,5,français,m,3,0.3,76.34436149,1.1469021
5e15aae07bf572b8f97a847d,33,0,2024-02-28T14:37:17.179Z,french_326.wav,0,pull,573,29,5,5,français,m,4,0.4,79.59228699,0.89908004
5e15aae07bf572b8f97a847d,33,0,2024-02-28T14:37:17.179Z,french_326.wav,0,pull,573,29,5,5,français,m,5,0.5,62.60308162,1.27653111
5e15aae07bf572b8f97a847d,33,0,2024-02-28T14:37:17.179Z,french_326.wav,0,pull,573,29,5,5,français,m,6,0.6,-43.24864807,1.49634374
5e15aae07bf572b8f97a847d,33,0,2024-02-28T14:37:17.179Z,french_326.wav,0,pull,573,29,5,5,français,m,7,0.7,-34.58226958,1.09554095
5e15aae07bf572b8f97a847d,33,0,2024-02-28T14:37:17.179Z,french_326.wav,0,pull,573,29,5,5,français,m,8,0.8,94.59063038,1.19566866
5e15aae07bf572b8f97a847d,33,0,2024-02-28T14:37:17.179Z,french_326.wav,0,pull,573,29,5,5,français,m,9,0.9,89.37349944,0.827427
5e15aae07bf572b8f97a847d,33,0,2024-02-28T14:37:17.179Z,french_326.wav,0,pull,573,29,5,5,français,m,10,1.0,-44.64831514,0.30385796
5e15aae07bf572b8f97a847d,33,0,2024-02-28T14:37:17.179Z,french_326.wav,0,pull,573,29,5,5,français,m,11,1.1,-36.56024871,0.62284344
5e15aae07bf572b8f97a847d,33,0,2024-02-28T14:37:17.179Z,french_326.wav,0,pull,573,29,5,5,français,m,12,1.14141667,65.3737617,1.01572262
5e15aae07bf572b8f97a847d,34,0,2024-02-28T14:37:17.179Z,french_186.wav,0,pull,365,29,5,5,français,m,0,0.0,-98.77577856,0.55132228
5e15aae07bf572b8f97a847d,34,0,2024-02-28T14:37:17.179Z,french_186.wav,0,pull,365,29,5,5,français,m,1,0.1,-4.32281383,1.48616205
5e15aae07bf572b8f97a847d,34,0,2024-02-28T14:37:17.179Z,french_186.wav,0,pull,365,29,5,5,français,m,2,0.2,78.96843766,0.45730809
5e15aae07bf572b8f97a847d,34,0,2024-02-28T14:37:17.179Z,french_186.wav,0,pull,365,29,5,5,français,m,3,0.3,44.94722027,1.48574317
5e15aae07bf572b8f97a847d,34,0,2024-02-28T14:37:17.179Z,french_186.wav,0,pull,365,29,5,5,français,m,4,0.4,31.19969444,1.3915634
5e15aae07bf572b8f97a847d,34,0,2024-02-28T14:37:17.179Z,french_186.wav,0,pull,365,29,5,5,français,m,5,0.5,-58.54120229,1.49810348
5e15aae07bf572b8f97a847d,34,0,2024-02-28T14:37:17.179Z,french_186.wav,0,pull,365,29,5,5,français,m,6,0.6,-32.79633131,0.03278635
5e15aae07bf572b8f97a847d,34,0,2024-02-28T14:37:17.179Z,french_186.wav,0,pull,365,29,5,5,français,m,7,0.7,47.64797381,0.80642704
5e15aae07bf572b8f97a847d,34,0,2024-02-28T14:37:17.179Z,french_186.wav,0,pull,365,29,5,5,français,m,8,0.8,59.96836761,0.531218
5e15aae07bf572b8f97a847d,34,0,2024-02-28T14:37:17.179Z,french_186.wav,0,pull,365,29,5,5,français,m,9,0.9,33.94460262,0.39314189
5e15aae07bf572b8f97a847d,34,0,2024-02-28T14:37:17.179Z,french_186.wav,0,pull,365,29,5,5,français,m,10,1.0,61.1812075,1.05456246
5e15aae07bf572b8f97a847d,34,0,2024-02-28T14:37:17.179Z,french_186.wav,0,pull,365,29,5,5,français,m,11,1.1,66.76882768,0.65443343
5e15aae07bf572b8f97a847d,34,0,2024-02-28T14:37:17.179Z,french_186.wav,0,pull,365,29,5,5,français,m,12,1.14141667,84.5034927,0.87378313
5e15aae07bf572b8f97a847d,35,0,2024-02-28T14:37:17.179Z,french_83.wav,0,poule,423,29,5,5,français,m,0,0.0,30.44967783,0.42165273
5e15aae07bf572b8f97a847d,35,0,2024-02-28T14:37:17.179Z,french_83.wav,0,poule,423,29,5,5,français,m,1,0.1,32.59822127,0.3238076
5e15aae07bf572b8f97a847d,35,0,2024-02-28T14:37:17.179Z,french_83.wav,0,poule,423,29,5,5,français,m,2,0.2,50.8682146,0.37913611
5e15aae07bf572b8f97a847d,35,0,2024-02-28T14:37:17.179Z,french_83.wav,0,poule,423,29,5,5,français,m,3,0.3,0.11779037,0.78724258
5e15aae07bf572b8f97a847d,35,0,2024-02-28T14:37:17.179Z,french_83.wav,0,poule,423,29,5,5,français,m,4,0.4,16.37029834,1.0594663
5e15aae07bf572b8f97a847d,35,0,2024-02-28T14:37:17.179Z,french_83.wav,0,poule,423,29,5,5,français,m,5,0.5,90.79022832,0.48377765
5e15aae07bf572b8f97a847d,35,0,2024-02-28T14:37:17.179Z,french_83.wav,0,poule,423,29,5,5,français,m,6,0.6,-75.94380669,0.29353951
5e15aae07bf572b8f97a847d,35,0,2024-02-28T14:37:17.179Z,french_83.wav,0,poule,423,29,5,5,français,m,7,0.7,34.13478403,1.31767934
5e15aae07bf572b8f97a847d,35,0,2024-02-28T14:37:17.179Z,french_83.wav,0,poule,423,29,5,5,français,m,8,0.8,-27.50152867,0.23770737
5e15aae07bf572b8f97a847d,35,0,2024-02-28T14:37:17.179Z,french_83.wav,0,poule,423,29,5,5,français,m,9,0.9,9.93495342,0.58296712
5e15aae07bf572b8f97a847d,35,0,2024-02-28T14:37:17.179Z,french_83.wav,0,poule,423,29,5,5,français,m,10,1.0,58.3619145,0.64820026
5e15aae07bf572b8f97a847d,35,0,2024-02-28T14:37:17.179Z,french_83.wav,0,poule,423,29,5,5,français,m,11,1.1,15.44979308,0.12158815
5e15aae07bf572b8f97a847d,35,0,2024-02-28T14:37:17.179Z,french_83.wav,0,poule,423,29,5,5,français,m,12,1.14141667,13.85594834,0.38899467
5e15aae07bf572b8f97a847d,36,0,2024-02-28T14:37:17.179Z,french_690.wav,0,pull,891,29,5,5,français,m,0,0.0,-15.77794192,0.776264
5e15aae07bf572b8f97a847d,36,0,2024-02-28T14:37:17.179Z,french_690.wav,0,pull,891,29,5,5,français,m,1,0.1,20.73657668,1.05348149
5e15aae07bf572b8f97a847d,36,0,2024-02-28T14:37:17.179Z,french_690.wav,0,pull,891,29,5,5,français,m,2,0.2,5.47948765,1.31884557
5e15aae07bf572b8f97a847d,36,0,2024-02-28T14:37:17.179Z,french_690.wav,0,pull,891,29,5,5,français,m,3,0.3,-23.65899914,1.7112966
5e15aae07bf572b8f97a847d,36,0,2024-02-28T14:37:17.179Z,french_690.wav,0,pull,891,29,5,5,français,m,4,0.4,-47.44992258,1.21461339
5e15aae07bf572b8f97a847d,36,0,2024-02-28T14:37:17.179Z,french_690.wav,0,pull,891,29,5,5,français,m,5,0.5,-15.93516049,0.66481507
5e15aae07bf572b8f97a847d,36,0,2024-02-28T14:37:17.179Z,french_690.wav,0,pull,891,29,5,5,français,m,6,0.6,-89.18707981,1.81328245
5e15aae07bf572b8f97a847d,36,0,2024-02-28T14:37:17.179Z,french_690.wav,0,pull,891,29,5,5,français,m,7,0.7,-35.2776218,1.44254844
5e15aae07bf572b8f97a847d,36,0,2024-02-28T14:37:17.179Z,french_690.wav,0,pull,891,29,5,5,français,m,8,0.8,6.20395888,0.19339101
5e15aae07bf572b8f97a847d,36,0,2024-02-28T14:37:17.179Z,french_690.wav,0,pull,891,29,5,5,français,m,9,0.9,41.59707706,0.10495866
5e15aae07bf572b8f97a847d,36,0,2024-02-28T14:37:17.179Z,french_690.wav,0,pull,891,29,5,5,français,m,10,1.0,82.2331579,0.77487954
5e15aae07bf572b8f97a847d,36,0,2024-02-28T14:37:17.179Z,french_690.wav,0,pull,891,29,5,5,français,m,11,1.1,5.21006,0.35725584
5e15aae07bf572b8f97a847d,36,0,2024-02-28T14:37:17.179Z,french_690.wav,0,pull,891,29,5,5,français,m,12,1.14141667,-56.47896781,0.31922507
5e15aae07bf572b8f97a847d,37,0,2024-02-28T14:37:17.179Z,french_245.wav,0,pull,1138,29,5,5,français,m,0,0.0,-32.65946157,0.88127163
5e15aae07bf572b8f97a847d,37,0,2024-02-28T14:37:17.179Z,french_245.wav,0,pull,1138,29,5,5,français,m,1,0.1,-91.34414589,0.39712506
5e15aae07bf572b8f97a847d,37,0,2024-02-28T14:37:17.179Z,french_245.wav,0,pull,1138,29,5,5,français,m,2,0.2,20.76427352,1.80102862
5e15aae07bf572b8f97a847d,37,0,2024-02-28T14:37:17.179Z,french_245.wav,0,pull,1138,29,5,5,français,m,3,0.3,-95.58645124,1.05649218
5e15aae07bf572b8f97a847d,37,0,2024-02-28T14:37:17.179Z,french_245.wav,0,pull,1138,29,5,5,français,m,4,0.4,-66.19056055,0.46999531
5e15aae07bf572b8f97a847d,37,0,2024-02-28T14:37:17.179Z,french_245.wav,0,pull,1138,29,5,5,français,m,5,0.5,49.19473098,1.20747474
5e15aae07bf572b8f97a847d,37,0,2024-02-28T14:37:17.179Z,french_245.wav,0,pull,1138,29,5,5,français,m,6,0.6,81.42926779,0.59003214
5e15aae07bf572b8f97a847d,37,0,2024-02-28T14:37:17.179Z,french_245.wav,0,pull,1138,29,5,5,français,m,7,0.7,65.80631096,1.12088878
5e15aae07bf572b8f97a847d,37,0,2024-02-28T14:37:17.179Z,french_245.wav,0,pull,1138,29,5,5,français,m,8,0.8,-57.42028442,1.50034126
5e15aae07bf572b8f97a847d,37,0,2024-02-28T14:37:17.179Z,french_245.wav,0,pull,1138,29,5,5,français,m,9,0.9,-85.65499007,1.79720209
5e15aae07bf572b8f97a847d,37,0,2024-02-28T14:37:17.179Z,french_245.wav,0,pull,1138,29,5,5,français,m,10,1.0,-34.33028766,1.3179064
5e15aae07bf572b8f97a847d,37,0,2024-02-28T14:37:17.179Z,french_245.wav,0,pull,1138,29,5,5,français,m,11,1.1,43.77204938,1.83502919
5e15aae07bf572b8f97a847d,37,0,2024-02-28T14:37:17.179Z,french_245.wav,0,pull,1138,29,5,5,français,m,12,1.14141667,-47.4172931,1.05306136
5e15aae07bf572b8f97a847d,38,0,2024-02-28T14:37:17.179Z,french_790.wav,0,poule,880,29,5,5,français,m,0,0.0,-57.89390183,1.82865837
5e15aae07bf572b8f97a847d,38,0,2024-02-28T14:37:17.179Z,french_790.wav,0,poule,880,29,5,5,français,m,1,0.1,79.17034047,0.89920795
5e15aae07bf572b8f97a847d,38,0,2024-02-28T14:37:17.179Z,french_790.wav,0,poule,880,29,5,5,français,m,2,0.2,61.93580685,1.70315706
5e15aae07bf572b8f97a847d,38,0,2024-02-28T14:37:17.179Z,french_790.wav,0,poule,880,29,5,5,français,m,3,0.3,73.83766419,0.63562482
5e15aae07bf572b8f97a847d,38,0,2024-02-28T14:37:17.179Z,french_790.wav,0,poule,880,29,5,5,français,m,4,0.4,12.23224582,1.66129943
5e15aae07bf572b8f97a847d,38,0,2024-02-28T14:37:17.179Z,french_790.wav,0,poule,880,29,5,5,français,m,5,0.5,-36.20570809,1.84264673
5e15aae07bf572b8f97a847d,38,0,2024-02-28T14:37:17.179Z,french_790.wav,0,poule,880,29,5,5,français,m,6,0.6,-35.80418352,1.991074
5e15aae07bf572b8f97a847d,38,0,2024-02-28T14:37:17.179Z,french_790.wav,0,poule,880,29,5,5,français,m,7,0.7,69.07593122,1.03555826
5e15aae07bf572b8f97a847d,38,0,2024-02-28T14:37:17.179Z,french_790.wav,0,poule,880,29,5,5,français,m,8,0.8,53.97673234,1.17116983
5e15aae07bf572b8f97a847d,38,0,2024-02-28T14:37:17.179Z,french_790.wav,0,poule,880,29,5,5,français,m,9,0.9,5.33736996,0.91705366
5e15aae07bf572b8f97a847d,38,0,2024-02-28T14:37:17.179Z,french_790.wav,0,poule,880,29,5,5,français,m,10,1.0,-61.7851313,0.69782623
5e15aae07bf572b8f97a847d,38,0,2024-02-28T14:37:17.179Z,french_790.wav,0,poule,880,29,5,5,français,m,11,1.1,-57.04830132,0.3273665
5e15aae07bf572b8f97a847d,38,0,2024-02-28T14:37:17.179Z,french_790.wav,0,poule,880,29,5,5,français,m,12,1.14141667,-40.58679678,1.69019386
5e15aae07bf572b8f97a847d,39,0,2024-02-28T14:37:17.179Z,french_363.wav,0,poule,628,29,5,5,français,m,0,0.0,-10.90000223,0.01988505
5e15aae07bf572b8f97a847d,39,0,2024-02-28T14:37:17.179Z,french_363.wav,0,poule,628,29,5,5,français,m,1,0.1,-17.77890753,0.4157118
5e15aae07bf572b8f97a847d,39,0,2024-02-28T14:37:17.179Z,french_363.wav,0,poule,628,29,5,5,français,m,2,0.2,88.87263959,1.34213765
5e15aae07bf572b8f97a847d,39,0,2024-02-28T14:37:17.179Z,french_363.wav,0,poule,628,29,5,5,français,m,3,0.3,-43.08200188,1.89153857
5e15aae07bf572b8f97a847d,39,0,2024-02-28T14:37:17.179Z,french_363.wav,0,poule,628,29,5,5,français,m,4,0.4,-3.71858938,0.45840361
5e15aae07bf572b8f97a847d,39,0,2024-02-28T14:37:17.179Z,french_363.wav,0,poule,628,29,5,5,français,m,5,0.5,-38.27799499,1.00482351
5e15aae07bf572b8f97a847d,39,0,2024-02-28T14:37:17.179Z,french_363.wav,0,poule,628,29,5,5,français,m,6,0.6,-45.64383698,1.53498487
5e15aae07bf572b8f97a847d,39,0,2024-02-28T14:37:17.179Z,french_363.wav,0,poule,628,29,5,5,français,m,7,0.7,-33.85105354,0.84744486
5e15aae07bf572b8f97a847d,39,0,2024-02-28T14:37:17.179Z,french_363.wav,0,poule,628,29,5,5,français,m,8,0.8,56.31466728,1.23553797
5e15aae07bf572b8f97a847d,39,0,2024-02-28T14:37:17.179Z,french_363.wav,0,poule,628,29,5,5,français,m,9,0.9,-49.59267572,1.89573533
5e15aae07bf572b8f97a847d,39,0,2024-02-28T14:37:17.179Z,french_363.wav,0,poule,628,29,5,5,français,m,10,1.0,-7.69975981,1.67231577
5e15aae07bf572b8f97a847d,39,0,2024-02-28T14:37:17.179Z,french_363.wav,0,poule,628,29,5,5,français,m,11,1.1,62.19506455,0.727209
5e15aae07bf572b8f97a847d,39,0,2024-02-28T14:37:17.179Z,french_363.wav,0,poule,628,29,5,5,français,m,12,1.14141667,75.53080132,1.05404819
5e15aae07bf572b8f97a847d,40,0,2024-02-28T14:37:17.179Z,french_882.wav,0,pull,423,29,5,5,français,m,0,0.0,-81.86021221,0.3759178
5e15aae07bf572b8f97a847d,40,0,2024-02-28T14:37:17.179Z,french_882.wav,0,pull,423,29,5,5,français,m,1,0.1,-38.71029223,0.35952644
5e15aae07bf572b8f97a847d,40,0,2024-02-28T14:37:17.179Z,french_882.wav,0,pull,423,29,5,5,français,m,2,0.2,-87.95798325,0.62161924
5e15aae07bf572b8f97a847d,40,0,2024-02-28T14:37:17.179Z,french_882.wav,0,pull,423,29,5,5,français,m,3,0.3,64.64799839,1.70435044
5e15aae07bf572b8f97a847d,40,0,2024-02-28T14:37:17.179Z,french_882.wav,0,pull,423,29,5,5,français,m,4,0.4,46.25884824,0.36582707
5e15aae07bf572b8f97a847d,40,0,2024-02-28T14:37:17.179Z,french_882.wav,0,pull,423,29,5,5,français,m,5,0.5,-79.81084627,1.39801288
5e15aae07bf572b8f97a847d,40,0,2024-02-28T14:37:17.179Z,french_882.wav,0,pull,423,29,5,5,français,m,6,0.6,63.83558359,1.87495394
5e15aae07bf572b8f97a847d,40,0,2024-02-28T14:37:17.179Z,french_882.wav,0,pull,423,29,5,5,français,m,7,0.7,52.64588214,1.93367686
5e15aae07bf572b8f97a847d,40,0,2024-02-28T14:37:17.179Z,french_882.wav,0,pull,423,29,5,5,français,m,8,0.8,26.08689515,1.9588609
5e15aae07bf572b8f97a847d,40,0,2024-02-28T14:37:17.179Z,french_882.wav,0,pull,423,29,5,5,français,m,9,0.9,-62.73363803,0.95894244
5e15aae07bf572b8f97a847d,40,0,2024-02-28T14:37:17.179Z,french_882.wav,0,pull,423,29,5,5,français,m,10,1.0,-4.49298081,0.61415959
5e15aae07bf572b8f97a847d,40,0,2024-02-28T14:37:17.179Z,french_882.wav,0,pull,423,29,5,5,français,m,11,1.1,30.81537457,0.47891102
5e15aae07bf572b8f97a847d,40,0,2024-02-28T14:37:17.179Z,french_882.wav,0,pull,423,29,5,5,français,m,12,1.14141667,66.97281878,0.6437554
5e15aae07bf572b8f97a847d,41,0,2024-02-28T14:37:17.179Z,french_375.wav,0,poule,645,29,5,5,français,m,0,0.0,31.10986402,0.17189217
5e15aae07bf572b8f97a847d,41,0,2024-02-28T14:37:17.179Z,french_375.wav,0,poule,645,29,5,5,français,m,1,0.1,-64.41627884,0.94028887
5e15aae07bf572b8f97a847d,41,0,2024-02-28T14:37:17.179Z,french_375.wav,0,poule,645,29,5,5,français,m,2,0.2,-43.97758131,0.78583956
5e15aae07bf572b8f97a847d,41,0,2024-02-28T14:37:17.179Z,french_375.wav,0,poule,645,29,5,5,français,m,3,0.3,3.5016032,0.68692804
5e15aae07bf572b8f97a847d,41,0,2024-02-28T14:37:17.179Z,french_375.wav,0,poule,645,29,5,5,français,m,4,0.4,-62.10092202,1.2060681
5e15aae07bf572b8f97a847d,41,0,2024-02-28T14:37:17.179Z,french_375.wav,0,poule,645,29,5,5,français,m,5,0.5,4.57148994,1.35623391
5e15aae07bf572b8f97a847d,41,0,2024-02-28T14:37:17.179Z,french_375.wav,0,poule,645,29,5,5,français,m,6,0.6,-39.23521385,1.63276043
5e15aae07bf572b8f97a847d,41,0,2024-02-28T14:37:17.179Z,french_375.wav,0,poule,645,29,5,5,français,m,7,0.7,-83.18001871,0.56752426
5e15aae07bf572b8f97a847d,41,0,2024-02-28T14:37:17.179Z,french_375.wav,0,poule,645,29,5,5,français,m,8,0.8,68.29182649,1.48970374
5e15aae07bf572b8f97a847d,41,0,2024-02-28T14:37:17.179Z,french_375.wav,0,poule,645,29,5,5,français,m,9,0.9,2.09327012,0.60983572
5e15aae07bf572b8f97a847d,41,0,2024-02-28T14:37:17.179Z,french_375.wav,0,poule,645,29,5,5,français,m,10,1.0,79.13559059,0.91295212
5e15aae07bf572b8f97a847d,41,0,2024-02-28T14:37:17.179Z,french_375.wav,0,poule,645,29,5,5,français,m,11,1.1,78.47171785,0.92165738
5e15aae07bf572b8f97a847d,41,0,2024-02-28T14:37:17.179Z,french_375.wav,0,poule,645,29,5,5,français,m,12,1.14141667,-28.42503843,0.42144788
5e15aae07bf572b8f97a847d,42,0,2024-02-28T14:37:17.179Z,french_702.wav,0,poule,931,29,5,5,français,m,0,0.0,26.32047113,0.49645865
5e15aae07bf572b8f97a847d,42,0,2024-02-28T14:37:17.179Z,french_702.wav,0,poule,931,29,5,5,français,m,1,0.1,33.56503539,1.57950196
5e15aae07bf572b8f97a847d,42,0,2024-02-28T14:37:17.179Z,french_702.wav,0,poule,931,29,5,5,français,m,2,0.2,-13.32899181,1.71930356
5e15aae07bf572b8f97a847d,42,0,2024-02-28T14:37:17.179Z,french_702.wav,0,poule,931,29,5,5,français,m,3,0.3,-92.77430448,0.44513477
5e15aae07bf572b8f97a847d,42,0,2024-02-28T14:37:17.179Z,french_702.wav,0,poule,931,29,5,5,français,m,4,0.4,55.50813545,0.90179218
5e15aae07bf572b8f97a847d,42,0,2024-02-28T14:37:17.179Z,french_702.wav,0,poule,931,29,5,5,français,m,5,0.5,-64.42128049,1.66921342
5e15aae07bf572b8f97a847d,42,0,2024-02-28T14:37:17.179Z,french_702.wav,0,poule,931,29,5,5,français,m,6,0.6,-93.19419433,0.28360175
5e15aae07bf572b8f97a847d,42,0,2024-02-28T14:37:17.179Z,french_702.wav,0,poule,931,29,5,5,français,m,7,0.7,47.86603083,1.17825667
5e15aae07bf572b8f97a847d,42,0,2024-02-28T14:37:17.179Z,french_702.wav,0,poule,931,29,5,5,français,m,8,0.8,2.57404089,1.90745253
5e15aae07bf572b8f97a847d,42,0,2024-02-28T14:37:17.179Z,french_702.wav,0,poule,931,29,5,5,français,m,9,0.9,8.38316132,1.47535418
5e15aae07bf572b8f97a847d,42,0,2024-02-28T14:37:17.179Z,french_702.wav,0,poule,931,29,5,5,français,m,10,1.0,27.09531385,1.20087323
5e15aae07bf572b8f97a847d,42,0,2024-02-28T14:37:17.179Z,french_702.wav,0,poule,931,29,5,5,français,m,11,1.1,53.99806352,1.42749806
5e15aae07bf572b8f97a847d,42,0,2024-02-28T14:37:17.179Z,french_702.wav,0,poule,931,29,5,5,français,m,12,1.14141667,-2.40011534,0.48284837
5e15aae07bf572b8f97a847d,43,0,2024-02-28T14:37:17.179Z,french_422.wav,0,poule,850,29,5,5,français,m,0,0.0,-16.62309101,0.51321666
5e15aae07bf572b8f97a847d,43,0,2024-02-28T14:37:17.179Z,french_422.wav,0,poule,850,29,5,5,français,m,1,0.1,44.80756997,0.44814263
5e15aae07bf572b8f97a847d,43,0,2024-02-28T14:37:17.179Z,french_422.wav,0,poule,850,29,5,5,français,m,2,0.2,-93.80146089,1.51316273
5e15aae07bf572b8f97a847d,43,0,2024-02-28T14:37:17.179Z,french_422.wav,0,poule,850,29,5,5,français,m,3,0.3,-72.47193654,1.60530729
5e15aae07bf572b8f97a847d,43,0,2024-02-28T14:37:17.179Z,french_422.wav,0,poule,850,29,5,5,français,m,4,0.4,16.7471252,0.6388763
5e15aae07bf572b8f97a847d,43,0,2024-02-28T14:37:17.179Z,french_422.wav,0,poule,850,29,5,5,français,m,5,0.5,-92.72141855,1.31238957
5e15aae07bf572b8f97a847d,43,0,2024-02-28T14:37:17.179Z,french_422.wav,0,poule,850,29,5,5,français,m,6,0.6,-47.90487867,1.76360785
5e15aae07bf572b8f97a847d,43,0,2024-02-28T14:37:17.179Z,french_422.wav,0,poule,850,29,5,5,français,m,7,0.7,-75.7589654,1.38544073
5e15aae07bf572b8f97a847d,43,0,2024-02-28T14:37:17.179Z,french_422.wav,0,poule,850,29,5,5,français,m,8,0.8,34.26572493,0.04882189
5e15aae07bf572b8f97a847d,43,0,2024-02-28T14:37:17.179Z,french_422.wav,0,poule,850,29,5,5,français,m,9,0.9,-65.97357415,0.84339819
5e15aae07bf572b8f97a847d,43,0,2024-02-28T14:37:17.179Z,french_422.wav,0,poule,850,29,5,5,français,m,10,1.0,3.77229199,0.68214832
5e15aae07bf572b8f97a847d,43,0,2024-02-28T14:37:17.179Z,french_422.wav,0,poule,850,29,5,5,français,m,11,1.1,-30.82396636,1.57442392
5e15aae07bf572b8f97a847d,43,0,2024-02-28T14:37:17.179Z,french_422.wav,0,poule,850,29,5,5,français,m,12,1.14141667,-37.60844358,0.61861744
5e15aae07bf572b8f97a847d,44,0,2024-02-28T14:37:17.179Z,french_490.wav,0,poule,1148,29,5,5,français,m,0,0.0,34.07788698,0.7414872
5e15aae07bf572b8f97a847d,44,0,2024-02-28T14:37:17.179Z,french_490.wav,0,poule,1148,29,5,5,français,m,1,0.1,46.76949029,0.69857728
5e15aae07bf572b8f97a847d,44,0,2024-02-28T14:37:17.179Z,french_490.wav,0,poule,1148,29,5,5,français,m,2,0.2,28.77768732,0.06010779
5e15aae07bf572b8f97a847d,44,0,2024-02-28T14:37:17.179Z,french_490.wav,0,poule,1148,29,5,5,français,m,3,0.3,84.71768289,0.07957118
5e15aae07bf572b8f97a847d,44,0,2024-02-28T14:37:17.179Z,french_490.wav,0,poule,1148,29,5,5,français,m,4,0.4,-49.14084598,1.177156
5e15aae07bf572b8f97a847d,44,0,2024-02-28T14:37:17.179Z,french_490.wav,0,poule,1148,29,5,5,français,m,5,0.5,-27.41453293,1.97943137
5e15aae07bf572b8f97a847d,44,0,2024-02-28T14:37:17.179Z,french_490.wav,0,poule,1148,29,5,5,français,m,6,0.6,34.60310524,0.5073494
5e15aae07bf572b8f97a847d,44,0,2024-02-28T14:37:17.179Z,french_490.wav,0,poule,1148,29,5,5,français,m,7,0.7,-10.05161689,1.71553838
5e15aae07bf572b8f97a847d,44,0,2024-02-28T14:37:17.179Z,french_490.wav,0,poule,1148,29,5,5,français,m,8,0.8,-40.81038415,0.81648338
5e15aae07bf572b8f97a847d,44,0,2024-02-28T14:37:17.179Z,french_490.wav,0,poule,1148,29,5,5,français,m,9,0.9,-9.03506951,1.29656038
5e15aae07bf572b8f97a847d,44,0,2024-02-28T14:37:17.179Z,french_490.wav,0,poule,1148,29,5,5,français,m,10,1.0,28.04397329,1.96068251
5e15aae07bf572b8f97a847d,44,0,2024-02-28T14:37:17.179Z,french_490.wav,0,poule,1148,29,5,5,français,m,11,1.1,18.34662283,0.27924409
5e15aae07bf572b8f97a847d,44,0,2024-02-28T14:37:17.179Z,french_490.wav,0,poule,1148,29,5,5,français,m,12,1.14141667,68.18025592,1.35055219
5e15aae07bf572b8f97a847d,45,0,2024-02-28T14:37:17.179Z,french_641.wav,0,pull,1880,29,5,5,français,m,0,0.0,-43.09575809,0.3387751
5e15aae07bf572b8f97a847d,45,0,2024-02-28T14:37:17.179Z,french_641.wav,0,pull,1880,29,5,5,français,m,1,0.1,-81.59758754,0.93263347
5e15aae07bf572b8f97a847d,45,0,2024-02-28T14:37:17.179Z,french_641.wav,0,pull,1880,29,5,5,français,m,2,0.2,-22.20264254,1.36728443
5e15aae07bf572b8f97a847d,45,0,2024-02-28T14:37:17.179Z,french_641.wav,0,pull,1880,29,5,5,français,m,3,0.3,-56.41027235,0.90941875
5e15aae07bf572b8f97a847d,45,0,2024-02-28T14:37:17.179Z,french_641.wav,0,pull,1880,29,5,5,français,m,4,0.4,-55.14696793,1.38478795
5e15aae07bf572b8f97a847d,45,0,2024-02-28T14:37:17.179Z,french_641.wav,0,pull,1880,29,5,5,français,m,5,0.5,48.08973996,0.25504986
5e15aae07bf572b8f97a847d,45,0,2024-02-28T14:37:17.179Z,french_641.wav,0,pull,1880,29,5,5,français,m,6,0.6,-19.5107077,1.77925453
5e15aae07bf572b8f97a847d,45,0,2024-02-28T14:37:17.179Z,french_641.wav,0,pull,1880,29,5,5,français,m,7,0.7,-89.2518139,0.95413505
5e15aae07bf572b8f97a847d,45,0,2024-02-28T14:37:17.179Z,french_641.wav,0,pull,1880,29,5,5,français,m,8,0.8,81.37542917,1.08287655
5e15aae07bf572b8f97a847d,45,0,2024-02-28T14:37:17.179Z,french_641.wav,0,pull,1880,29,5,5,français,m,9,0.9,-79.21888814,1.06879943
5e15aae07bf572b8f97a847d,45,0,2024-02-28T14:37:17.179Z,french_641.wav,0,pull,1880,29,5,5,français,m,10,1.0,-51.09677691,1.22707958
5e15aae07bf572b8f97a847d,45,0,2024-02-28T14:37:17.179Z,french_641.wav,0,pull,1880,29,5,5,français,m,11,1.1,97.24624771,0.21706358
5e15aae07bf572b8f97a847d,45,0,2024-02-28T14:37:17.179Z,french_641.wav,0,pull,1880,29,5,5,français,m,12,1.14141667,24.04850575,1.25974501
5e15aae07bf572b8f97a847d,46,0,2024-02-28T14:37:17.179Z,french_466.wav,0,poule,398,29,5,5,français,m,0,0.0,-23.27991826,1.52804132
5e15aae07bf572b8f97a847d,46,0,2024-02-28T14:37:17.179Z,french_466.wav,0,poule,398,29,5,5,français,m,1,0.1,97.23850922,0.01047206
5e15aae07bf572b8f97a847d,46,0,2024-02-28T14:37:17.179Z,french_466.wav,0,poule,398,29,5,5,français,m,2,0.2,-96.9465149,1.6544422
5e15aae07bf572b8f97a847d,46,0,2024-02-28T14:37:17.179Z,french_466.wav,0,poule,398,29,5,5,français,m,3,0.3,-86.96925433,1.82991551
5e15aae07bf572b8f97a847d,46,0,2024-02-28T14:37:17.179Z,french_466.wav,0,poule,398,29,5,5,français,m,4,0.4,2.85783603,0.86899364
5e15aae07bf572b8f97a847d,46,0,2024-02-28T14:37:17.179Z,french_466.wav,0,poule,398,29,5,5,français,m,5,0.5,95.91347723,1.25331213
5e15aae07bf572b8f97a847d,46,0,2024-02-28T14:37:17.179Z,french_466.wav,0,poule,398,29,5,5,français,m,6,0.6,-63.35172498,1.68509567
5e15aae07bf572b8f97a847d,46,0,2024-02-28T14:37:17.179Z,french_466.wav,0,poule,398,29,5,5,français,m,7,0.7,-25.95383213,1.20636117
5e15aae07bf572b8f97a847d,46,0,2024-02-28T14:37:17.179Z,french_466.wav,0,poule,398,29,5,5,français,m,8,0.8,-52.59375309,0.84252752
5e15aae07bf572b8f97a847d,46,0,2024-02-28T14:37:17.179Z,french_466.wav,0,poule,398,29,5,5,français,m,9,0.9,-70.79178645,1.91154977
5e15aae07bf572b8f97a847d,46,0,2024-02-28T14:37:17.179Z,french_466.wav,0,poule,398,29,5,5,français,m,10,1.0,-29.48964846,0.45592683
5e15aae07bf572b8f97a847d,46,0,2024-02-28T14:37:17.179Z,french_466.wav,0,poule,398,29,5,5,français,m,11,1.1,-52.94204961,0.35898479
5e15aae07bf572b8f97a847d,46,0,2024-02-28T14:37:17.179Z,french_466.wav,0,poule,398,29,5,5,français,m,12,1.14141667,46.57113475,1.03194217
5e15aae07bf572b8f97a847d,47,0,2024-02-28T14:37:17.179Z,french_724.wav,0,pull,884,29,5,5,français,m,0,0.0,-42.7356975,0.85167994
5e15aae07bf572b8f97a847d,47,0,2024-02-28T14:37:17.179Z,french_724.wav,0,pull,884,29,5,5,français,m,1,0.1,79.1515089,1.58951064
5e15aae07bf572b8f97a847d,47,0,2024-02-28T14:37:17.179Z,french_724.wav,0,pull,884,29,5,5,français,m,2,0.2,64.9302742,0.60770722
5e15aae07bf572b8f97a847d,47,0,2024-02-28T14:37:17.179Z,french_724.wav,0,pull,884,29,5,5,français,m,3,0.3,-85.1878267,0.75189335
5e15aae07bf572b8f97a847d,47,0,2024-02-28T14:37:17.179Z,french_724.wav,0,pull,884,29,5,5,français,m,4,0.4,-34.3526203,0.90807039
5e15aae07bf572b8f97a847d,47,0,2024-02-28T14:37:17.179Z,french_724.wav,0,pull,884,29,5,5,français,m,5,0.5,-4.99910648,0.50960695
5e15aae07bf572b8f97a847d,47,0,2024-02-28T14:37:17.179Z,french_724.wav,0,pull,884,29,5,5,français,m,6,0.6,0.044891932,0.49994716
5e15aae07bf572b8f97a847d,47,0,2024-02-28T14:37:17.179Z,french_724.wav,0,pull,884,29,5,5,français,m,7,0.7,7.78511592,1.52976277
5e15aae07bf572b8f97a847d,47,0,2024-02-28T14:37:17.179Z,french_724.wav,0,pull,884,29,5,5,français,m,8,0.8,20.6697314,1.0388534
5e15aae07bf572b8f97a847d,47,0,2024-02-28T14:37:17.179Z,french_724.wav,0,pull,884,29,5,5,français,m,9,0.9,94.4830377,1.27328061
5e15aae07bf572b8f97a847d,47,0,2024-02-28T14:37:17.179Z,french_724.wav,0,pull,884,29,5,5,français,m,10,1.0,1.93406873,1.00280062
5e15aae07bf572b8f97a847d,47,0,2024-02-28T14:37:17.179Z,french_724.wav,0,pull,884,29,5,5,français,m,11,1.1,65.5163276,1.51647705
5e15aae07bf572b8f97a847d,47,0,2024-02-28T14:37:17.179Z,french_724.wav,0,pull,884,29,5,5,français,m,12,1.14141667,36.432613,1.50732266
5e15aae07bf572b8f97a847d,48,0,2024-02-28T14:37:17.179Z,french_537.wav,0,poule,428,29,5,5,français,m,0,0.0,-70.42232238,1.1949198
5e15aae07bf572b8f97a847d,48,0,2024-02-28T14:37:17.179Z,french_537.wav,0,poule,428,29,5,5,français,m,1,0.1,-63.79861737,0.86017995
5e15aae07bf572b8f97a847d,48,0,2024-02-28T14:37:17.179Z,french_537.wav,0,poule,428,29,5,5,français,m,2,0.2,80.15379792,1.22540727
5e15aae07bf572b8f97a847d,48,0,2024-02-28T14:37:17.179Z,french_537.wav,0,poule,428,29,5,5,français,m,3,0.3,-34.87323386,0.58113387
5e15aae07bf572b8f97a847d,48,0,2024-02-28T14:37:17.179Z,french_537.wav,0,poule,428,29,5,5,français,m,4,0.4,-97.49401193,0.63475004
5e15aae07bf572b8f97a847d,48,0,2024-02-28T14:37:17.179Z,french_537.wav,0,poule,428,29,5,5,français,m,5,0.5,-75.02904728,1.70548795
5e15aae07bf572b8f97a847d,48,0,2024-02-28T14:37:17.179Z,french_537.wav,0,poule,428,29,5,5,français,m,6,0.6,88.01304316,0.65284568
5e15aae07bf572b8f97a847d,48,0,2024-02-28T14:37:17.179Z,french_537.wav,0,poule,428,29,5,5,français,m,7,0.7,57.25012965,1.05406598
5e15aae07bf572b8f97a847d,48,0,2024-02-28T14:37:17.179Z,french_537.wav,0,poule,428,29,5,5,français,m,8,0.8,-34.47690346,1.3603352
5e15aae07bf572b8f97a847d,48,0,2024-02-28T14:37:17.179Z,french_537.wav,0,poule,428,29,5,5,français,m,9,0.9,2.26660201,1.51124063
5e15aae07bf572b8f97a847d,48,0,2024-02-28T14:37:17.179Z,french_537.wav,0,poule,428,29,5,5,français,m,10,1.0,-37.62355762,1.53115779
5e15aae07bf572b8f97a847d,48,0,2024-02-28T14:37:17.179Z,french_537.wav,0,poule,428,29,5,5,français,m,11,1.1,-8.96459096,1.18349734
5e15aae07bf572b8f97a847d,48,0,2024-02-28T14:37:17.179Z,french_537.wav,0,poule,428,29,5,5,français,m,12,1.14141667,-65.74543059,1.59300288
5e15aae07bf572b8f97a847d,49,0,2024-02-28T14:37:17.179Z,french_820.wav,0,poule,770,29,5,5,français,m,0,0.0,2.20805213,0.81178605
5e15aae07bf572b8f97a847d,49,0,2024-02-28T14:37:17.179Z,french_820.wav,0,poule,770,29,5,5,français,m,1,0.1,-90.51492195,0.34105584
5e15aae07bf572b8f97a847d,49,0,2024-02-28T14:37:17.179Z,french_820.wav,0,poule,770,29,5,5,français,m,2,0.2,14.37438706,1.03419156
5e15aae07bf572b8f97a847d,49,0,2024-02-28T14:37:17.179Z,french_820.wav,0,poule,770,29,5,5,français,m,3,0.3,48.7691056,1.3222317
5e15aae07bf572b8f97a847d,49,0,2024-02-28T14:37:17.179Z,french_820.wav,0,poule,770,29,5,5,français,m,4,0.4,-26.19278003,0.6377532
5e15aae07bf572b8f97a847d,49,0,2024-02-28T14:37:17.179Z,french_820.wav,0,poule,770,29,5,5,français,m,5,0.5,18.08357323,1.39628768
5e15aae07bf572b8f97a847d,49,0,2024-02-28T14:37:17.179Z,french_820.wav,0,poule,770,29,5,5,français,m,6,0.6,82.28583292,1.53457958
5e15aae07bf572b8f97a847d,49,0,2024-02-28T14:37:17.179Z,french_820.wav,0,poule,770,29,5,5,français,m,7,0.7,69.03631189,1.68460853
5e15aae07bf572b8f97a847d,49,0,2024-02-28T14:37:17.179Z,french_820.wav,0,poule,770,29,5,5,français,m,8,0.8,27.35509958,1.6036494
5e15aae07bf572b8f97a847d,49,0,2024-02-28T14:37:17.179Z,french_820.wav,0,poule,770,29,5,5,français,m,9,0.9,27.52320107,1.49572357
5e15aae07bf572b8f97a847d,49,0,2024-02-28T14:37:17.179Z,french_820.wav,0,poule,770,29,5,5,français,m,10,1.0,-3.99788557,0.7318371
5e15aae07bf572b8f97a847d,49,0,2024-02-28T14:37:17.179Z,french_820.wav,0,poule,770,29,5,5,français,m,11,1.1,54.09103587,0.77038849
5e15aae07bf572b8f97a847d,49,0,2024-02-28T14:37:17.179Z,french_820.wav,0,poule,770,29,5,5,français,m,12,1.14141667,22.53021971,0.80738652
5e15aae07bf572b8f97a847d,50,1,2024-02-28T14:37:17.179Z,french_689.wav,0,poule,837,29,5,5,français,m,0,0.0,18.71690093,1.63903865
5e15aae07bf572b8f97a847d,50,1,2024-02-28T14:37:17.179Z,french_689.wav,0,poule,837,29,5,5,français,m,1,0.1,70.88150917,1.28668292
5e15aae07bf572b8f97a847d,50,1,2024-02-28T14:37:17.179Z,french_689.wav,0,poule,837,29,5,5,français,m,2,0.2,23.29873522,0.4448863
5e15aae07bf572b8f97a847d,50,1,2024-02-28T14:37:17.179Z,french_689.wav,0,poule,837,29,5,5,français,m,3,0.3,-19.83408775,1.46840806
5e15aae07bf572b8f97a847d,50,1,2024-02-28T14:37:17.179Z,french_689.wav,0,poule,837,29,5,5,français,m,4,0.4,-88.59539457,0.66601538
5e15aae07bf572b8f97a847d,50,1,2024-02-28T14:37:17.179Z,french_689.wav,0,poule,837,29,5,5,français,m,5,0.5,3.33992371,0.03688538
5e15aae07bf572b8f97a847d,50,1,2024-02-28T14:37:17.179Z,french_689.wav,0,poule,837,29,5,5,français,m,6,0.6,-73.90842815,0.48708825
5e15aae07bf572b8f97a847d,50,1,2024-02-28T14:37:17.179Z,french_689.wav,0,poule,837,29,5,5,français,m,7,0.7,27.77232776,0.83201182
5e15aae07bf572b8f97a847d,50,1,2024-02-28T14:37:17.179Z,french_689.wav,0,poule,837,29,5,5,français,m,8,0.8,47.07023028,0.98489988
5e15aae07bf572b8f97a847d,50,1,2024-02-28T14:37:17.179Z,french_689.wav,0,poule,837,29,5,5,français,m,9,0.9,58.29803031,0.70021639
5e15aae07bf572b8f97a847d,50,1,2024-02-28T14:37:17.179Z,french_689.wav,0,poule,837,29,5,5,français,m,10,1.0,66.78853229,1.48154334
5e15aae07bf572b8f97a847d,50,1,2024-02-28T14:37:17.179Z,french_689.wav,0,poule,837,29,5,5,français,m,11,1.1,-39.3403084,0.31951264
5e15aae07bf572b8f97a847d,50,1,2024-02-28T14:37:17.179Z,french_689.wav,0,poule,837,29,5,5,français,m,12,1.14141667,45.51603845,1.22903486
5e15aae07bf572b8f97a847d,51,1,2024-02-28T14:37:17.179Z,french_775.wav,0,poule,713,29,5,5,français,m,0,0.0,49.14441244,0.85002417
5e15aae07bf572b8f97a847d,51,1,2024-02-28T14:37:17.179Z,french_775.wav,0,poule,713,29,5,5,français,m,1,0.1,-37.49635801,0.73677405
5e15aae07bf572b8f97a847d,51,1,2024-02-28T14:37:17.179Z,french_775.wav,0,poule,713,29,5,5,français,m,2,0.2,-64.74479121,0.82269634
5e15aae07bf572b8f97a847d,51,1,2024-02-28T14:37:17.179Z,french_775.wav,0,poule,713,29,5,5,français,m,3,0.3,-12.02662639,1.87072388
5e15aae07bf572b8f97a847d,51,1,2024-02-28T14:37:17.179Z,french_775.wav,0,poule,713,29,5,5,français,m,4,0.4,-26.48861759,1.17405656
5e15aae07bf572b8f97a847d,51,1,2024-02-28T14:37:17.179Z,french_775.wav,0,poule,713,29,5,5,français,m,5,0.5,-43.08388975,0.44967365
5e15aae07bf572b8f97a847d,51,1,2024-02-28T14:37:17.179Z,french_775.wav,0,poule,713,29,5,5,français,m,6,0.6,-18.80336799,1.74849723
5e15aae07bf572b8f97a847d,51,1,2024-02-28T14:37:17.179Z,french_775.wav,0,poule,713,29,5,5,français,m,7,0.7,-90.02503078,0.62644381
5e15aae07bf572b8f97a847d,51,1,2024-02-28T14:37:17.179Z,french_775.wav,0,poule,713,29,5,5,français,m,8,0.8,-28.18761095,0.54512666
5e15aae07bf572b8f97a847d,51,1,2024-02-28T14:37:17.179Z,french_775.wav,0,poule,713,29,5,5,français,m,9,0.9,-28.26997976,1.47102377
5e15aae07bf572b8f97a847d,51,1,2024-02-28T14:37:17.179Z,french_775.wav,0,poule,713,29,5,5,français,m,10,1.0,7.95602716,1.49461557
5e15aae07bf572b8f97a847d,51,1,2024-02-28T14:37:17.179Z,french_775.wav,0,poule,713,29,5,5,français,m,11,1.1,64.66434367,0.10246187
5e15aae07bf572b8f97a847d,51,1,2024-02-28T14:37:17.179Z,french_775.wav,0,poule,713,29,5,5,français,m,12,1.14141667,48.93413359,1.38779848
5e15aae07bf572b8f97a847d,52,1,2024-02-28T14:37:17.179Z,french_76.wav,0,poule,502,29,5,5,français,m,0,0.0,65.24155803,1.51578207
5e15aae07bf572b8f97a847d,52,1,2024-02-28T14:37:17.179Z,french_76.wav,0,poule,502,29,5,5,français,m,1,0.1,-64.10777613,1.54793346
5e15aae07bf572b8f97a847d,52,1,2024-02-28T14:37:17.179Z,french_76.wav,0,poule,502,29,5,5,français,m,2,0.2,-66.43983652,1.59239598
5e15aae07bf572b8f97a847d,52,1,2024-02-28T14:37:17.179Z,french_76.wav,0,poule,502,29,5,5,français,m,3,0.3,9.38529777,1.00112308
5e15aae07bf572b8f97a847d,52,1,2024-02-28T14:37:17.179Z,french_76.wav,0,poule,502,29,5,5,français,m,4,0.4,-68.79387642,1.06006715
5e15aae07bf572b8f97a847d,52,1,2024-02-28T14:37:17.179Z,french_76.wav,0,poule,502,29,5,5,français,m,5,0.5,24.61155373,0.66047476
5e15aae07bf572b8f97a847d,52,1,2024-02-28T14:37:17.179Z,french_76.wav,0,poule,502,29,5,5,français,m,6,0.6,-11.51773882,0.15886587
5e15aae07bf572b8f97a847d,52,1,2024-02-28T14:37:17.179Z,french_76.wav,0,poule,502,29,5,5,français,m,7,0.7,-77.87210972,1.3402371
5e15aae07bf572b8f97a847d,52,1,2024-02-28T14:37:17.179Z,french_76.wav,0,poule,502,29,5,5,français,m,8,0.8,23.51580427,1.57866238
5e15aae07bf572b8f97a847d,52,1,2024-02-28T14:37:17.179Z,french_76.wav,0,poule,502,29,5,5,français,m,9,0.9,-41.53779425,0.66862434
5e15aae07bf572b8f97a847d,52,1,2024-02-28T14:37:17.179Z,french_76.wav,0,poule,502,29,5,5,français,m,10,1.0,-40.31239806,0.74779091
5e15aae07bf572b8f97a847d,52,1,2024-02-28T14:37:17.179Z,french_76.wav,0,poule,502,29,5,5,français,m,11,1.1,79.50743198,0.1792498
5e15aae07bf572b8f97a847d,52,1,2024-02-28T14:37:17.179Z,french_76.wav,0,poule,502,29,5,5,français,m,12,1.14141667,-12.84080619,0.70819275
5e15aae07bf572b8f97a847d,53,1,2024-02-28T14:37:17.179Z,french_209.wav,0,poule,410,29,5,5,français,m,0,0.0,-37.75432052,1.2769056
5e15aae07bf572b8f97a847d,53,1,2024-02-28T14:37:17.179Z,french_209.wav,0,poule,410,29,5,5,français,m,1,0.1,-41.54397479,0.48875509
5e15aae07bf572b8f97a847d,53,1,2024-02-28T14:37:17.179Z,french_209.wav,0,poule,410,29,5,5,français,m,2,0.2,88.65301906,0.27666548
5e15aae07bf572b8f97a847d,53,1,2024-02-28T14:37:17.179Z,french_209.wav,0,poule,410,29,5,5,français,m,3,0.3,-58.34566528,0.43345867
5e15aae07bf572b8f97a847d,53,1,2024-02-28T14:37:17.179Z,french_209.wav,0,poule,410,29,5,5,français,m,4,0.4,32.2915787,0.98164386
5e15aae07bf572b8f97a847d,53,1,2024-02-28T14:37:17.179Z,french_209.wav,0,poule,410,29,5,5,français,m,5,0.5,-42.74882162,1.03792846
5e15aae07bf572b8f97a847d,53,1,2024-02-28T14:37:17.179Z,french_209.wav,0,poule,410,29,5,5,français,m,6,0.6,-70.03367552,0.41234579
5e15aae07bf572b8f97a847d,53,1,2024-02-28T14:37:17.179Z,french_209.wav,0,poule,410,29,5,5,français,m,7,0.7,-13.67330676,0.09529836
5e15aae07bf572b8f97a847d,53,1,2024-02-28T14:37:17.179Z,french_209.wav,0,poule,410,29,5,5,français,m,8,0.8,-64.68428425,1.4613373
5e15aae07bf572b8f97a847d,53,1,2024-02-28T14:37:17.179Z,french_209.wav,0,poule,410,29,5,5,français,m,9,0.9,-46.32803613,1.1830112
5e15aae07bf572b8f97a847d,53,1,2024-02-28T14:37:17.179Z,french_209.wav,0,poule,410,29,5,5,français,m,10,1.0,-60.50547671,1.12513934
5e15aae07bf572b8f97a847d,53,1,2024-02-28T14:37:17.179Z,french_209.wav,0,poule,410,29,5,5,français,m,11,1.1,74.16907005,1.39691571
5e15aae07bf572b8f97a847d,53,1,2024-02-28T14:37:17.179Z,french_209.wav,0,poule,410,29,5,5,français,m,12,1.14141667,-0.39288766,0.99758243
5e15aae07bf572b8f97a847d,54,1,2024-02-28T14:37:17.179Z,french_244.wav,0,poule,431,29,5,5,français,m,0,0.0,-40.90857257,1.48710022
5e15aae07bf572b8f97a847d,54,1,2024-02-28T14:37:17.179Z,french_244.wav,0,poule,431,29,5,5,français,m,1,0.1,-23.19940354,1.78796145
5e15aae07bf572b8f97a847d,54,1,2024-02-28T14:37:17.179Z,french_244.wav,0,poule,431,29,5,5,français,m,2,0.2,-9.74154174,0.48835371
5e15aae07bf572b8f97a847d,54,1,2024-02-28T14:37:17.179Z,french_244.wav,0,poule,431,29,5,5,français,m,3,0.3,87.19522638,1.90695857
5e15aae07bf572b8f97a847d,54,1,2024-02-28T14:37:17.179Z,french_244.wav,0,poule,431,29,5,5,français,m,4,0.4,-7.49916647,0.52976083
5e15aae07bf572b8f97a847d,54,1,2024-02-28T14:37:17.179Z,french_244.wav,0,poule,431,29,5,5,français,m,5,0.5,-95.1828161,1.55056133
5e15aae07bf572b8f97a847d,54,1,2024-02-28T14:37:17.179Z,french_244.wav,0,poule,431,29,5,5,français,m,6,0.6,-18.16824401,0.52884278
5e15aae07bf572b8f97a847d,54,1,2024-02-28T14:37:17.179Z,french_244.wav,0,poule,431,29,5,5,français,m,7,0.7,-82.50536742,1.94726977
5e15aae07bf572b8f97a847d,54,1,2024-02-28T14:37:17.179Z,french_244.wav,0,poule,431,29,5,5,français,m,8,0.8,-31.01536133,1.32231376
5e15aae07bf572b8f97a847d,54,1,2024-02-28T14:37:17.179Z,french_244.wav,0,poule,431,29,5,5,français,m,9,0.9,-10.22104565,0.62488791
5e15aae07bf572b8f97a847d,54,1,2024-02-28T14:37:17.179Z,french_244.wav,0,poule,431,29,5,5,français,m,10,1.0,-10.44065108,0.52375366
5e15aae07bf572b8f97a847d,54,1,2024-02-28T14:37:17.179Z,french_244.wav,0,poule,431,29,5,5,français,m,11,1.1,-73.85387114,0.61432095
5e15aae07bf572b8f97a847d,54,1,2024-02-28T14:37:17.179Z,french_244.wav,0,poule,431,29,5,5,français,m,12,1.14141667,-85.30185074,1.48327973
5e15aae07bf572b8f97a847d,55,1,2024-02-28T14:37:17.179Z,french_869.wav,0,poule,334,29,5,5,français,m,0,0.0,10.06964707,1.17340434
5e15aae07bf572b8f97a847d,55,1,2024-02-28T14:37:17.179Z,french_869.wav,0,poule,334,29,5,5,français,m,1,0.1,72.3514197,1.36922426
5e15aae07bf572b8f97a847d,55,1,2024-02-28T14:37:17.179Z,french_869.wav,0,poule,334,29,5,5,français,m,2,0.2,-78.73472109,0.77161299
5e15aae07bf572b8f97a847d,55,1,2024-02-28T14:37:17.179Z,french_869.wav,0,poule,334,29,5,5,français,m,3,0.3,-40.67674689,1.34525353
5e15aae07bf572b8f97a847d,55,1,2024-02-28T14:37:17.179Z,french_869.wav,0,poule,334,29,5,5,français,m,4,0.4,-17.02344132,0.7584047
5e15aae07bf572b8f97a847d,55,1,2024-02-28T14:37:17.179Z,french_869.wav,0,poule,334,29,5,5,français,m,5,0.5,-95.32428519,0.4736501
5e15aae07bf572b8f97a847d,55,1,2024-02-28T14:37:17.179Z,french_869.wav,0,poule,334,29,5,5,français,m,6,0.6,70.62566531,0.80990329
5e15aae07bf572b8f97a847d,55,1,2024-02-28T14:37:17.179Z,french_869.wav,0,poule,334,29,5,5,français,m,7,0.7,26.98173134,0.73249988
5e15aae07bf572b8f97a847d,55,1,2024-02-28T14:37:17.179Z,french_869.wav,0,poule,334,29,5,5,français,m,8,0.8,-17.49912211,0.54315522
5e15aae07bf572b8f97a847d,55,1,2024-02-28T14:37:17.179Z,french_869.wav,0,poule,334,29,5,5,français,m,9,0.9,-24.96981158,0.1746071
5e15aae07bf572b8f97a847d,55,1,2024-02-28T14:37:17.179Z,french_869.wav,0,poule,334,29,5,5,français,m,10,1.0,73.4310681,0.90375101
5e15aae07bf572b8f97a847d,55,1,2024-02-28T14:37:17.179Z,french_869.wav,0,poule,334,29,5,5,français,m,11,1.1,-31.18993398,1.67173749
5e15aae07bf572b8f97a847d,55,1,2024-02-28T14:37:17.179Z,french_869.wav,0,poule,334,29,5,5,français,m,12,1.14141667,11.94019487,0.91185421
5e15aae07bf572b8f97a847d,56,1,2024-02-28T14:37:17.179Z,french_279.wav,0,poule,436,29,5,5,français,m,0,0.0,-91.71642023,0.17583363
5e15aae07bf572b8f97a847d,56,1,2024-02-28T14:37:17.179Z,french_279.wav,0,poule,436,29,5,5,français,m,1,0.1,76.60374466,1.80297447
5e15aae07bf572b8f97a847d,56,1,2024-02-28T14:37:17.179Z,french_279.wav,0,poule,436,29,5,5,français,m,2,0.2,-79.20287469,0.03779617
5e15aae07bf572b8f97a847d,56,1,2024-02-28T14:37:17.179Z,french_279.wav,0,poule,436,29,5,5,français,m,3,0.3,-93.80806914,0.62702853
5e15aae07bf572b8f97a847d,56,1,2024-02-28T14:37:17.179Z,french_279.wav,0,poule,436,29,5,5,français,m,4,0.4,30.74870714,1.94363581
5e15aae07bf572b8f97a847d,56,1,2024-02-28T14:37:17.179Z,french_279.wav,0,poule,436,29,5,5,français,m,5,0.5,-44.65493672,0.80705141
5e15aae07bf572b8f97a847d,56,1,2024-02-28T14:37:17.179Z,french_279.wav,0,poule,436,29,5,5,français,m,6,0.6,-17.93028223,1.06056317
5e15aae07bf572b8f97a847d,56,1,2024-02-28T14:37:17.179Z,french_279.wav,0,poule,436,29,5,5,français,m,7,0.7,66.50862207,0.16633528
5e15aae07bf572b8f97a847d,56,1,2024-02-28T14:37:17.179Z,french_279.wav,0,poule,436,29,5,5,français,m,8,0.8,-46.72060919,1.76936946
5e15aae07bf572b8f97a847d,56,1,2024-02-28T14:37:17.179Z,french_279.wav,0,poule,436,29,5,5,français,m,9,0.9,26.44083851,0.44742287
5e15aae07bf572b8f97a847d,56,1,2024-02-28T14:37:17.179Z,french_279.wav,0,poule,436,29,5,5,français,m,10,1.0,-38.70123146,1.71685996
5e15aae07bf572b8f97a847d,56,1,2024-02-28T14:37:17.179Z,french_279.wav,0,poule,436,29,5,5,français,m,11,1.1,-0.14852688,1.04972879
5e15aae07bf572b8f97a847d,56,1,2024-02-28T14:37:17.179Z,french_279.wav,0,poule,436,29,5,5,français,m,12,1.14141667,76.49421083,1.48972813
5e15aae07bf572b8f97a847d,57,1,2024-02-28T14:37:17.179Z,french_951.wav,0,poule,410,29,5,5,français,m,0,0.0,-59.18192022,1.45916036
5e15aae07bf572b8f97a847d,57,1,2024-02-28T14:37:17.179Z,french_951.wav,0,poule,410,29,5,5,français,m,1,0.1,-27.92655099,1.48383107
5e15aae07bf572b8f97a847d,57,1,2024-02-28T14:37:17.179Z,french_951.wav,0,poule,410,29,5,5,français,m,2,0.2,-5.73022688,1.25689949
5e15aae07bf572b8f97a847d,57,1,2024-02-28T14:37:17.179Z,french_951.wav,0,poule,410,29,5,5,français,m,3,0.3,68.45966422,1.56218682
5e15aae07bf572b8f97a847d,57,1,2024-02-28T14:37:17.179Z,french_951.wav,0,poule,410,29,5,5,français,m,4,0.4,-37.23530529,0.00736189
5e15aae07bf572b8f97a847d,57,1,2024-02-28T14:37:17.179Z,french_951.wav,0,poule,410,29,5,5,français,m,5,0.5,-77.25496344,0.83394895
5e15aae07bf572b8f97a847d,57,1,2024-02-28T14:37:17.179Z,french_951.wav,0,poule,410,29,5,5,français,m,6,0.6,54.9841058,0.9452294
5e15aae07bf572b8f97a847d,57,1,2024-02-28T14:37:17.179Z,french_951.wav,0,poule,410,29,5,5,français,m,7,0.7,51.16492363,0.27979743
5e15aae07bf572b8f97a847d,57,1,2024-02-28T14:37:17.179Z,french_951.wav,0,poule,410,29,5,5,français,m,8,0.8,91.66668886,1.94616702
5e15aae07bf572b8f97a847d,57,1,2024-02-28T14:37:17.179Z,french_951.wav,0,poule,410,29,5,5,français,m,9,0.9,-74.79679848,1.12844722
5e15aae07bf572b8f97a847d,57,1,2024-02-28T14:37:17.179Z,french_951.wav,0,poule,410,29,5,5,français,m,10,1.0,-52.80636313,0.91078071
5e15aae07bf572b8f97a847d,57,1,2024-02-28T14:37:17.179Z,french_951.wav,0,poule,410,29,5,5,français,m,11,1.1,-7.64221064,1.05806406
5e15aae07bf572b8f97a847d,57,1,2024-02-28T14:37:17.179Z,french_951.wav,0,poule,410,29,5,5,français,m,12,1.14141667,79.03906119,0.62563609
5e15aae07bf572b8f97a847d,58,1,2024-02-28T14:37:17.179Z,french_65.wav,0,poule,389,29,5,5,français,m,0,0.0,90.25303481,0.53945939
5e15aae07bf572b8f97a847d,58,1,2024-02-28T14:37:17.179Z,french_65.wav,0,poule,389,29,5,5,français,m,1,0.1,-68.20435052,0.42688683
5e15aae07bf572b8f97a847d,58,1,2024-02-28T14:37:17.179Z,french_65.wav,0,poule,389,29,5,5,français,m,2,0.2,-29.40329428,0.27290811
5e15aae07bf572b8f97a847d,58,1,2024-02-28T14:37:17.179Z,french_65.wav,0,poule,389,29,5,5,français,m,3,0.3,46.42632137,1.55081286
5e15aae07bf572b8f97a847d,58,1,2024-02-28T14:37:17.179Z,french_65.wav,0,poule,389,29,5,5,français,m,4,0.4,-28.79951441,1.45770659
5e15aae07bf572b8f97a847d,58,1,2024-02-28T14:37:17.179Z,french_65.wav,0,poule,389,29,5,5,français,m,5,0.5,-14.64344063,1.99435488
5e15aae07bf572b8f97a847d,58,1,2024-02-28T14:37:17.179Z,french_65.wav,0,poule,389,29,5,5,français,m,6,0.6,55.39931543,1.36766936
5e15aae07bf572b8f97a847d,58,1,2024-02-28T14:37:17.179Z,french_65.wav,0,poule,389,29,5,5,français,m,7,0.7,-54.55605034,1.57729108
5e15aae07bf572b8f97a847d,58,1,2024-02-28T14:37:17.179Z,french_65.wav,0,poule,389,29,5,5,français,m,8,0.8,84.8250898,1.17309042
5e15aae07bf572b8f97a847d,58,1,2024-02-28T14:37:17.179Z,french_65.wav,0,poule,389,29,5,5,français,m,9,0.9,60.3117994,0.17286677
5e15aae07bf572b8f97a847d,58,1,2024-02-28T14:37:17.179Z,french_65.wav,0,poule,389,29,5,5,français,m,10,1.0,-27.81288119,1.4236834
5e15aae07bf572b8f97a847d,58,1,2024-02-28T14:37:17.179Z,french_65.wav,0,poule,389,29,5,5,français,m,11,1.1,65.1988238,1.20315137
5e15aae07bf572b8f97a847d,58,1,2024-02-28T14:37:17.179Z,french_65.wav,0,poule,389,29,5,5,français,m,12,1.14141667,-4.75581652,1.51714563
5e15aae07bf572b8f97a847d,59,1,2024-02-28T14:37:17.179Z,french_988.wav,0,poule,544,29,5,5,français,m,0,0.0,-77.06578257,0.33849132
5e15aae07bf572b8f97a847d,59,1,2024-02-28T14:37:17.179Z,french_988.wav,0,poule,544,29,5,5,français,m,1,0.1,-67.09994089,1.48998326
5e15aae07bf572b8f97a847d,59,1,2024-02-28T14:37:17.179Z,french_988.wav,0,poule,544,29,5,5,français,m,2,0.2,10.23356221,1.02808848
