subj,trial,block,date,stim,stim_order,response,rt,age,english,french,language,sex,param_index,segment,pitch,stretch
657b128079618c853ed056b4,0,0,2024-02-27T11:20:21.176Z,french_442.wav,0,poule,3599,62,4,5,français,m,0,0.0,59.89348182,1.93338354
657b128079618c853ed056b4,0,0,2024-02-27T11:20:21.176Z,french_442.wav,0,poule,3599,62,4,5,français,m,1,0.1,-90.19745983,0.1221368
657b128079618c853ed056b4,0,0,2024-02-27T11:20:21.176Z,french_442.wav,0,poule,3599,62,4,5,français,m,2,0.2,34.97525188,1.40375233
657b128079618c853ed056b4,0,0,2024-02-27T11:20:21.176Z,french_442.wav,0,poule,3599,62,4,5,français,m,3,0.3,-60.10498495,0.23715052
657b128079618c853ed056b4,0,0,2024-02-27T11:20:21.176Z,french_442.wav,0,poule,3599,62,4,5,français,m,4,0.4,-52.20535883,0.86935067
657b128079618c853ed056b4,0,0,2024-02-27T11:20:21.176Z,french_442.wav,0,poule,3599,62,4,5,français,m,5,0.5,33.32923329,1.40007492
657b128079618c853ed056b4,0,0,2024-02-27T11:20:21.176Z,french_442.wav,0,poule,3599,62,4,5,français,m,6,0.6,-72.02089693,1.87875592
657b128079618c853ed056b4,0,0,2024-02-27T11:20:21.176Z,french_442.wav,0,poule,3599,62,4,5,français,m,7,0.7,15.91732192,1.15703728
657b128079618c853ed056b4,0,0,2024-02-27T11:20:21.176Z,french_442.wav,0,poule,3599,62,4,5,français,m,8,0.8,49.50947125,1.45583236
657b128079618c853ed056b4,0,0,2024-02-27T11:20:21.176Z,french_442.wav,0,poule,3599,62,4,5,français,m,9,0.9,-96.72595223,0.52053121
657b128079618c853ed056b4,0,0,2024-02-27T11:20:21.176Z,french_442.wav,0,poule,3599,62,4,5,français,m,10,1.0,12.6942829,0.18849311
657b128079618c853ed056b4,0,0,2024-02-27T11:20:21.176Z,french_442.wav,0,poule,3599,62,4,5,français,m,11,1.1,-57.11899111,1.67578542
657b128079618c853ed056b4,0,0,2024-02-27T11:20:21.176Z,french_442.wav,0,poule,3599,62,4,5,français,m,12,1.14141667,36.89213251,0.36635536
657b128079618c853ed056b4,1,0,2024-02-27T11:20:21.176Z,french_251.wav,0,poule,1566,62,4,5,français,m,0,0.0,-6.10327237,0.87476983
657b128079618c853ed056b4,1,0,2024-02-27T11:20:21.176Z,french_251.wav,0,poule,1566,62,4,5,français,m,1,0.1,-31.81812212,0.20851018
657b128079618c853ed056b4,1,0,2024-02-27T11:20:21.176Z,french_251.wav,0,poule,1566,62,4,5,français,m,2,0.2,1.49653309,1.45345917
657b128079618c853ed056b4,1,0,2024-02-27T11:20:21.176Z,french_251.wav,0,poule,1566,62,4,5,français,m,3,0.3,36.35816444,1.96312617
657b128079618c853ed056b4,1,0,2024-02-27T11:20:21.176Z,french_251.wav,0,poule,1566,62,4,5,français,m,4,0.4,-9.41951006,1.04651376
657b128079618c853ed056b4,1,0,2024-02-27T11:20:21.176Z,french_251.wav,0,poule,1566,62,4,5,français,m,5,0.5,-36.93530582,1.9610622
657b128079618c853ed056b4,1,0,2024-02-27T11:20:21.176Z,french_251.wav,0,poule,1566,62,4,5,français,m,6,0.6,-25.41473519,1.3492542
657b128079618c853ed056b4,1,0,2024-02-27T11:20:21.176Z,french_251.wav,0,poule,1566,62,4,5,français,m,7,0.7,56.15025122,1.04795193
657b128079618c853ed056b4,1,0,2024-02-27T11:20:21.176Z,french_251.wav,0,poule,1566,62,4,5,français,m,8,0.8,-13.30142445,0.20627276
657b128079618c853ed056b4,1,0,2024-02-27T11:20:21.176Z,french_251.wav,0,poule,1566,62,4,5,français,m,9,0.9,-95.55635491,0.33014387
657b128079618c853ed056b4,1,0,2024-02-27T11:20:21.176Z,french_251.wav,0,poule,1566,62,4,5,français,m,10,1.0,-99.65392401,1.62301135
657b128079618c853ed056b4,1,0,2024-02-27T11:20:21.176Z,french_251.wav,0,poule,1566,62,4,5,français,m,11,1.1,-3.55054731,1.19927307
657b128079618c853ed056b4,1,0,2024-02-27T11:20:21.176Z,french_251.wav,0,poule,1566,62,4,5,français,m,12,1.14141667,-37.18224503,1.67752435
657b128079618c853ed056b4,2,0,2024-02-27T11:20:21.176Z,french_620.wav,0,pull,892,62,4,5,français,m,0,0.0,81.23981072,0.49867824
657b128079618c853ed056b4,2,0,2024-02-27T11:20:21.176Z,french_620.wav,0,pull,892,62,4,5,français,m,1,0.1,59.042463,0.00451098
657b128079618c853ed056b4,2,0,2024-02-27T11:20:21.176Z,french_620.wav,0,pull,892,62,4,5,français,m,2,0.2,63.56884277,0.27971017
657b128079618c853ed056b4,2,0,2024-02-27T11:20:21.176Z,french_620.wav,0,pull,892,62,4,5,français,m,3,0.3,18.30431865,1.7801653
657b128079618c853ed056b4,2,0,2024-02-27T11:20:21.176Z,french_620.wav,0,pull,892,62,4,5,français,m,4,0.4,3.28014676,0.68268275
657b128079618c853ed056b4,2,0,2024-02-27T11:20:21.176Z,french_620.wav,0,pull,892,62,4,5,français,m,5,0.5,-50.25769465,1.40391779
657b128079618c853ed056b4,2,0,2024-02-27T11:20:21.176Z,french_620.wav,0,pull,892,62,4,5,français,m,6,0.6,34.04173203,1.9419564
657b128079618c853ed056b4,2,0,2024-02-27T11:20:21.176Z,french_620.wav,0,pull,892,62,4,5,français,m,7,0.7,-89.91812475,1.23232489
657b128079618c853ed056b4,2,0,2024-02-27T11:20:21.176Z,french_620.wav,0,pull,892,62,4,5,français,m,8,0.8,-91.12000534,1.04769521
657b128079618c853ed056b4,2,0,2024-02-27T11:20:21.176Z,french_620.wav,0,pull,892,62,4,5,français,m,9,0.9,-56.90768545,0.51522296
657b128079618c853ed056b4,2,0,2024-02-27T11:20:21.176Z,french_620.wav,0,pull,892,62,4,5,français,m,10,1.0,56.81289128,0.60047706
657b128079618c853ed056b4,2,0,2024-02-27T11:20:21.176Z,french_620.wav,0,pull,892,62,4,5,français,m,11,1.1,52.75650998,0.1927266
657b128079618c853ed056b4,2,0,2024-02-27T11:20:21.176Z,french_620.wav,0,pull,892,62,4,5,français,m,12,1.14141667,-1.02091794,0.76689439
657b128079618c853ed056b4,3,0,2024-02-27T11:20:21.176Z,french_649.wav,0,poule,449,62,4,5,français,m,0,0.0,-14.63575946,1.48016251
657b128079618c853ed056b4,3,0,2024-02-27T11:20:21.176Z,french_649.wav,0,poule,449,62,4,5,français,m,1,0.1,87.90447506,1.99171813
657b128079618c853ed056b4,3,0,2024-02-27T11:20:21.176Z,french_649.wav,0,poule,449,62,4,5,français,m,2,0.2,16.67284582,0.37897864
657b128079618c853ed056b4,3,0,2024-02-27T11:20:21.176Z,french_649.wav,0,poule,449,62,4,5,français,m,3,0.3,66.15245768,1.28017908
657b128079618c853ed056b4,3,0,2024-02-27T11:20:21.176Z,french_649.wav,0,poule,449,62,4,5,français,m,4,0.4,-20.15560471,0.5887237
657b128079618c853ed056b4,3,0,2024-02-27T11:20:21.176Z,french_649.wav,0,poule,449,62,4,5,français,m,5,0.5,-60.0326813,1.90797715
657b128079618c853ed056b4,3,0,2024-02-27T11:20:21.176Z,french_649.wav,0,poule,449,62,4,5,français,m,6,0.6,31.72800587,0.19529448
657b128079618c853ed056b4,3,0,2024-02-27T11:20:21.176Z,french_649.wav,0,poule,449,62,4,5,français,m,7,0.7,-60.07829106,1.64301184
657b128079618c853ed056b4,3,0,2024-02-27T11:20:21.176Z,french_649.wav,0,poule,449,62,4,5,français,m,8,0.8,15.50516257,1.80534623
657b128079618c853ed056b4,3,0,2024-02-27T11:20:21.176Z,french_649.wav,0,poule,449,62,4,5,français,m,9,0.9,-42.6229878,0.7062957
657b128079618c853ed056b4,3,0,2024-02-27T11:20:21.176Z,french_649.wav,0,poule,449,62,4,5,français,m,10,1.0,78.15416518,1.55899311
657b128079618c853ed056b4,3,0,2024-02-27T11:20:21.176Z,french_649.wav,0,poule,449,62,4,5,français,m,11,1.1,46.83392995,1.39425951
657b128079618c853ed056b4,3,0,2024-02-27T11:20:21.176Z,french_649.wav,0,poule,449,62,4,5,français,m,12,1.14141667,39.79631616,1.94277347
657b128079618c853ed056b4,4,0,2024-02-27T11:20:21.176Z,french_713.wav,0,pull,827,62,4,5,français,m,0,0.0,-37.43474567,1.24372469
657b128079618c853ed056b4,4,0,2024-02-27T11:20:21.176Z,french_713.wav,0,pull,827,62,4,5,français,m,1,0.1,99.965975,0.93707229
657b128079618c853ed056b4,4,0,2024-02-27T11:20:21.176Z,french_713.wav,0,pull,827,62,4,5,français,m,2,0.2,59.45839073,1.24132484
657b128079618c853ed056b4,4,0,2024-02-27T11:20:21.176Z,french_713.wav,0,pull,827,62,4,5,français,m,3,0.3,-25.31478906,0.8696724
657b128079618c853ed056b4,4,0,2024-02-27T11:20:21.176Z,french_713.wav,0,pull,827,62,4,5,français,m,4,0.4,5.71723288,1.68662747
657b128079618c853ed056b4,4,0,2024-02-27T11:20:21.176Z,french_713.wav,0,pull,827,62,4,5,français,m,5,0.5,36.1118223,0.63259997
657b128079618c853ed056b4,4,0,2024-02-27T11:20:21.176Z,french_713.wav,0,pull,827,62,4,5,français,m,6,0.6,-56.37110024,1.92165301
657b128079618c853ed056b4,4,0,2024-02-27T11:20:21.176Z,french_713.wav,0,pull,827,62,4,5,français,m,7,0.7,-24.52303614,1.34711854
657b128079618c853ed056b4,4,0,2024-02-27T11:20:21.176Z,french_713.wav,0,pull,827,62,4,5,français,m,8,0.8,-2.49025769,0.32122443
657b128079618c853ed056b4,4,0,2024-02-27T11:20:21.176Z,french_713.wav,0,pull,827,62,4,5,français,m,9,0.9,21.24369228,0.60636845
657b128079618c853ed056b4,4,0,2024-02-27T11:20:21.176Z,french_713.wav,0,pull,827,62,4,5,français,m,10,1.0,-2.82246083,1.76664037
657b128079618c853ed056b4,4,0,2024-02-27T11:20:21.176Z,french_713.wav,0,pull,827,62,4,5,français,m,11,1.1,-3.3969212,1.5841005
657b128079618c853ed056b4,4,0,2024-02-27T11:20:21.176Z,french_713.wav,0,pull,827,62,4,5,français,m,12,1.14141667,-49.20963854,1.28542725
657b128079618c853ed056b4,5,0,2024-02-27T11:20:21.176Z,french_27.wav,0,poule,753,62,4,5,français,m,0,0.0,-1.50377204,0.3104196
657b128079618c853ed056b4,5,0,2024-02-27T11:20:21.176Z,french_27.wav,0,poule,753,62,4,5,français,m,1,0.1,7.47875837,0.09567804
657b128079618c853ed056b4,5,0,2024-02-27T11:20:21.176Z,french_27.wav,0,poule,753,62,4,5,français,m,2,0.2,-50.14128102,0.85087588
657b128079618c853ed056b4,5,0,2024-02-27T11:20:21.176Z,french_27.wav,0,poule,753,62,4,5,français,m,3,0.3,-88.39961719,1.45265647
657b128079618c853ed056b4,5,0,2024-02-27T11:20:21.176Z,french_27.wav,0,poule,753,62,4,5,français,m,4,0.4,-49.33965182,1.34800208
657b128079618c853ed056b4,5,0,2024-02-27T11:20:21.176Z,french_27.wav,0,poule,753,62,4,5,français,m,5,0.5,-68.54669644,1.04395523
657b128079618c853ed056b4,5,0,2024-02-27T11:20:21.176Z,french_27.wav,0,poule,753,62,4,5,français,m,6,0.6,-12.90156587,1.29844977
657b128079618c853ed056b4,5,0,2024-02-27T11:20:21.176Z,french_27.wav,0,poule,753,62,4,5,français,m,7,0.7,70.78738425,0.13763237
657b128079618c853ed056b4,5,0,2024-02-27T11:20:21.176Z,french_27.wav,0,poule,753,62,4,5,français,m,8,0.8,-85.06905441,1.23467997
657b128079618c853ed056b4,5,0,2024-02-27T11:20:21.176Z,french_27.wav,0,poule,753,62,4,5,français,m,9,0.9,-13.50869681,0.09749829
657b128079618c853ed056b4,5,0,2024-02-27T11:20:21.176Z,french_27.wav,0,poule,753,62,4,5,français,m,10,1.0,34.30290891,0.14969302
657b128079618c853ed056b4,5,0,2024-02-27T11:20:21.176Z,french_27.wav,0,poule,753,62,4,5,français,m,11,1.1,-41.23505264,0.43290894
657b128079618c853ed056b4,5,0,2024-02-27T11:20:21.176Z,french_27.wav,0,poule,753,62,4,5,français,m,12,1.14141667,12.46163778,0.76657439
657b128079618c853ed056b4,6,0,2024-02-27T11:20:21.176Z,french_449.wav,0,pull,1438,62,4,5,français,m,0,0.0,48.07237211,1.574298
657b128079618c853ed056b4,6,0,2024-02-27T11:20:21.176Z,french_449.wav,0,pull,1438,62,4,5,français,m,1,0.1,10.50044698,0.465888
657b128079618c853ed056b4,6,0,2024-02-27T11:20:21.176Z,french_449.wav,0,pull,1438,62,4,5,français,m,2,0.2,99.10264915,1.49470087
657b128079618c853ed056b4,6,0,2024-02-27T11:20:21.176Z,french_449.wav,0,pull,1438,62,4,5,français,m,3,0.3,44.97033086,1.26780995
657b128079618c853ed056b4,6,0,2024-02-27T11:20:21.176Z,french_449.wav,0,pull,1438,62,4,5,français,m,4,0.4,-41.32684653,0.48746737
657b128079618c853ed056b4,6,0,2024-02-27T11:20:21.176Z,french_449.wav,0,pull,1438,62,4,5,français,m,5,0.5,-79.7525466,0.73531069
657b128079618c853ed056b4,6,0,2024-02-27T11:20:21.176Z,french_449.wav,0,pull,1438,62,4,5,français,m,6,0.6,50.40932694,0.94941626
657b128079618c853ed056b4,6,0,2024-02-27T11:20:21.176Z,french_449.wav,0,pull,1438,62,4,5,français,m,7,0.7,52.6193965,1.08611184
657b128079618c853ed056b4,6,0,2024-02-27T11:20:21.176Z,french_449.wav,0,pull,1438,62,4,5,français,m,8,0.8,-15.31474709,0.81949253
657b128079618c853ed056b4,6,0,2024-02-27T11:20:21.176Z,french_449.wav,0,pull,1438,62,4,5,français,m,9,0.9,-28.04173939,1.27162102
657b128079618c853ed056b4,6,0,2024-02-27T11:20:21.176Z,french_449.wav,0,pull,1438,62,4,5,français,m,10,1.0,9.78914311,1.38692301
657b128079618c853ed056b4,6,0,2024-02-27T11:20:21.176Z,french_449.wav,0,pull,1438,62,4,5,français,m,11,1.1,-78.00931625,0.89469579
657b128079618c853ed056b4,6,0,2024-02-27T11:20:21.176Z,french_449.wav,0,pull,1438,62,4,5,français,m,12,1.14141667,-11.66917093,1.6806745
657b128079618c853ed056b4,7,0,2024-02-27T11:20:21.176Z,french_895.wav,0,pull,806,62,4,5,français,m,0,0.0,-82.61317698,0.72926476
657b128079618c853ed056b4,7,0,2024-02-27T11:20:21.176Z,french_895.wav,0,pull,806,62,4,5,français,m,1,0.1,61.08514813,0.45997711
657b128079618c853ed056b4,7,0,2024-02-27T11:20:21.176Z,french_895.wav,0,pull,806,62,4,5,français,m,2,0.2,81.60336348,1.06624038
657b128079618c853ed056b4,7,0,2024-02-27T11:20:21.176Z,french_895.wav,0,pull,806,62,4,5,français,m,3,0.3,49.30047411,0.34123055
657b128079618c853ed056b4,7,0,2024-02-27T11:20:21.176Z,french_895.wav,0,pull,806,62,4,5,français,m,4,0.4,20.19115982,1.31366912
657b128079618c853ed056b4,7,0,2024-02-27T11:20:21.176Z,french_895.wav,0,pull,806,62,4,5,français,m,5,0.5,4.84484905,1.47334476
657b128079618c853ed056b4,7,0,2024-02-27T11:20:21.176Z,french_895.wav,0,pull,806,62,4,5,français,m,6,0.6,-6.33725134,0.20442325
657b128079618c853ed056b4,7,0,2024-02-27T11:20:21.176Z,french_895.wav,0,pull,806,62,4,5,français,m,7,0.7,-50.52881352,0.26254822
657b128079618c853ed056b4,7,0,2024-02-27T11:20:21.176Z,french_895.wav,0,pull,806,62,4,5,français,m,8,0.8,18.84546957,1.49473913
657b128079618c853ed056b4,7,0,2024-02-27T11:20:21.176Z,french_895.wav,0,pull,806,62,4,5,français,m,9,0.9,30.02670132,0.11252772
657b128079618c853ed056b4,7,0,2024-02-27T11:20:21.176Z,french_895.wav,0,pull,806,62,4,5,français,m,10,1.0,-40.28568066,0.43349841
657b128079618c853ed056b4,7,0,2024-02-27T11:20:21.176Z,french_895.wav,0,pull,806,62,4,5,français,m,11,1.1,-6.50062274,0.539272
657b128079618c853ed056b4,7,0,2024-02-27T11:20:21.176Z,french_895.wav,0,pull,806,62,4,5,français,m,12,1.14141667,-45.625456,0.44528582
657b128079618c853ed056b4,8,0,2024-02-27T11:20:21.176Z,french_90.wav,0,poule,467,62,4,5,français,m,0,0.0,51.48746338,0.57454011
657b128079618c853ed056b4,8,0,2024-02-27T11:20:21.176Z,french_90.wav,0,poule,467,62,4,5,français,m,1,0.1,-41.52133944,0.30754534
657b128079618c853ed056b4,8,0,2024-02-27T11:20:21.176Z,french_90.wav,0,poule,467,62,4,5,français,m,2,0.2,-66.82034245,0.44353042
657b128079618c853ed056b4,8,0,2024-02-27T11:20:21.176Z,french_90.wav,0,poule,467,62,4,5,français,m,3,0.3,-31.91254058,1.82396512
657b128079618c853ed056b4,8,0,2024-02-27T11:20:21.176Z,french_90.wav,0,poule,467,62,4,5,français,m,4,0.4,-56.80874984,0.39997223
657b128079618c853ed056b4,8,0,2024-02-27T11:20:21.176Z,french_90.wav,0,poule,467,62,4,5,français,m,5,0.5,68.34440134,0.81668605
657b128079618c853ed056b4,8,0,2024-02-27T11:20:21.176Z,french_90.wav,0,poule,467,62,4,5,français,m,6,0.6,50.52930805,1.26467162
657b128079618c853ed056b4,8,0,2024-02-27T11:20:21.176Z,french_90.wav,0,poule,467,62,4,5,français,m,7,0.7,-1.54170659,1.853663
657b128079618c853ed056b4,8,0,2024-02-27T11:20:21.176Z,french_90.wav,0,poule,467,62,4,5,français,m,8,0.8,-35.46235807,1.62084754
657b128079618c853ed056b4,8,0,2024-02-27T11:20:21.176Z,french_90.wav,0,poule,467,62,4,5,français,m,9,0.9,-26.78461092,1.11562603
657b128079618c853ed056b4,8,0,2024-02-27T11:20:21.176Z,french_90.wav,0,poule,467,62,4,5,français,m,10,1.0,-18.44652471,0.44778159
657b128079618c853ed056b4,8,0,2024-02-27T11:20:21.176Z,french_90.wav,0,poule,467,62,4,5,français,m,11,1.1,-81.09353417,1.37026097
657b128079618c853ed056b4,8,0,2024-02-27T11:20:21.176Z,french_90.wav,0,poule,467,62,4,5,français,m,12,1.14141667,-49.88432299,1.47783822
657b128079618c853ed056b4,9,0,2024-02-27T11:20:21.176Z,french_485.wav,0,pull,522,62,4,5,français,m,0,0.0,-32.72393911,1.22977984
657b128079618c853ed056b4,9,0,2024-02-27T11:20:21.176Z,french_485.wav,0,pull,522,62,4,5,français,m,1,0.1,80.82307242,1.23405783
657b128079618c853ed056b4,9,0,2024-02-27T11:20:21.176Z,french_485.wav,0,pull,522,62,4,5,français,m,2,0.2,57.31331333,0.86608886
657b128079618c853ed056b4,9,0,2024-02-27T11:20:21.176Z,french_485.wav,0,pull,522,62,4,5,français,m,3,0.3,48.72087878,0.52599403
657b128079618c853ed056b4,9,0,2024-02-27T11:20:21.176Z,french_485.wav,0,pull,522,62,4,5,français,m,4,0.4,67.57779619,1.47744611
657b128079618c853ed056b4,9,0,2024-02-27T11:20:21.176Z,french_485.wav,0,pull,522,62,4,5,français,m,5,0.5,-63.19645997,1.32987449
657b128079618c853ed056b4,9,0,2024-02-27T11:20:21.176Z,french_485.wav,0,pull,522,62,4,5,français,m,6,0.6,1.81636455,0.58593864
657b128079618c853ed056b4,9,0,2024-02-27T11:20:21.176Z,french_485.wav,0,pull,522,62,4,5,français,m,7,0.7,-75.79477779,0.98960333
657b128079618c853ed056b4,9,0,2024-02-27T11:20:21.176Z,french_485.wav,0,pull,522,62,4,5,français,m,8,0.8,29.75420726,0.53553397
657b128079618c853ed056b4,9,0,2024-02-27T11:20:21.176Z,french_485.wav,0,pull,522,62,4,5,français,m,9,0.9,22.42069032,0.8020386
657b128079618c853ed056b4,9,0,2024-02-27T11:20:21.176Z,french_485.wav,0,pull,522,62,4,5,français,m,10,1.0,18.39827523,1.39729728
657b128079618c853ed056b4,9,0,2024-02-27T11:20:21.176Z,french_485.wav,0,pull,522,62,4,5,français,m,11,1.1,83.2380207,0.57653841
657b128079618c853ed056b4,9,0,2024-02-27T11:20:21.176Z,french_485.wav,0,pull,522,62,4,5,français,m,12,1.14141667,50.25973786,1.79465784
657b128079618c853ed056b4,10,0,2024-02-27T11:20:21.176Z,french_657.wav,0,poule,1248,62,4,5,français,m,0,0.0,50.77155,0.21857213
657b128079618c853ed056b4,10,0,2024-02-27T11:20:21.176Z,french_657.wav,0,poule,1248,62,4,5,français,m,1,0.1,-88.44032236,0.77478754
657b128079618c853ed056b4,10,0,2024-02-27T11:20:21.176Z,french_657.wav,0,poule,1248,62,4,5,français,m,2,0.2,-16.35056241,1.07560701
657b128079618c853ed056b4,10,0,2024-02-27T11:20:21.176Z,french_657.wav,0,poule,1248,62,4,5,français,m,3,0.3,93.40705596,1.87026108
657b128079618c853ed056b4,10,0,2024-02-27T11:20:21.176Z,french_657.wav,0,poule,1248,62,4,5,français,m,4,0.4,-74.6789326,0.69300558
657b128079618c853ed056b4,10,0,2024-02-27T11:20:21.176Z,french_657.wav,0,poule,1248,62,4,5,français,m,5,0.5,-38.29324704,0.52433596
657b128079618c853ed056b4,10,0,2024-02-27T11:20:21.176Z,french_657.wav,0,poule,1248,62,4,5,français,m,6,0.6,32.78215282,1.52144011
657b128079618c853ed056b4,10,0,2024-02-27T11:20:21.176Z,french_657.wav,0,poule,1248,62,4,5,français,m,7,0.7,29.62203909,1.14086256
657b128079618c853ed056b4,10,0,2024-02-27T11:20:21.176Z,french_657.wav,0,poule,1248,62,4,5,français,m,8,0.8,-11.53531476,1.26545396
657b128079618c853ed056b4,10,0,2024-02-27T11:20:21.176Z,french_657.wav,0,poule,1248,62,4,5,français,m,9,0.9,57.1082223,1.92266532
657b128079618c853ed056b4,10,0,2024-02-27T11:20:21.176Z,french_657.wav,0,poule,1248,62,4,5,français,m,10,1.0,57.55501293,0.47482447
657b128079618c853ed056b4,10,0,2024-02-27T11:20:21.176Z,french_657.wav,0,poule,1248,62,4,5,français,m,11,1.1,34.6835129,0.15103677
657b128079618c853ed056b4,10,0,2024-02-27T11:20:21.176Z,french_657.wav,0,poule,1248,62,4,5,français,m,12,1.14141667,-93.64179673,1.64505221
657b128079618c853ed056b4,11,0,2024-02-27T11:20:21.176Z,french_910.wav,0,pull,609,62,4,5,français,m,0,0.0,48.88340935,1.81109224
657b128079618c853ed056b4,11,0,2024-02-27T11:20:21.176Z,french_910.wav,0,pull,609,62,4,5,français,m,1,0.1,-0.9314083,0.91261377
657b128079618c853ed056b4,11,0,2024-02-27T11:20:21.176Z,french_910.wav,0,pull,609,62,4,5,français,m,2,0.2,10.65492222,0.6391442
657b128079618c853ed056b4,11,0,2024-02-27T11:20:21.176Z,french_910.wav,0,pull,609,62,4,5,français,m,3,0.3,53.80361557,1.7256034
657b128079618c853ed056b4,11,0,2024-02-27T11:20:21.176Z,french_910.wav,0,pull,609,62,4,5,français,m,4,0.4,-55.5093235,1.10196828
657b128079618c853ed056b4,11,0,2024-02-27T11:20:21.176Z,french_910.wav,0,pull,609,62,4,5,français,m,5,0.5,25.35597856,1.92121955
657b128079618c853ed056b4,11,0,2024-02-27T11:20:21.176Z,french_910.wav,0,pull,609,62,4,5,français,m,6,0.6,30.25602932,1.45045528
657b128079618c853ed056b4,11,0,2024-02-27T11:20:21.176Z,french_910.wav,0,pull,609,62,4,5,français,m,7,0.7,-14.25396351,1.70872625
657b128079618c853ed056b4,11,0,2024-02-27T11:20:21.176Z,french_910.wav,0,pull,609,62,4,5,français,m,8,0.8,-99.95037684,0.23726838
657b128079618c853ed056b4,11,0,2024-02-27T11:20:21.176Z,french_910.wav,0,pull,609,62,4,5,français,m,9,0.9,-31.56392694,0.64113417
657b128079618c853ed056b4,11,0,2024-02-27T11:20:21.176Z,french_910.wav,0,pull,609,62,4,5,français,m,10,1.0,4.49716215,1.46769435
657b128079618c853ed056b4,11,0,2024-02-27T11:20:21.176Z,french_910.wav,0,pull,609,62,4,5,français,m,11,1.1,30.67655198,0.95921
657b128079618c853ed056b4,11,0,2024-02-27T11:20:21.176Z,french_910.wav,0,pull,609,62,4,5,français,m,12,1.14141667,-27.21370615,0.8849765
657b128079618c853ed056b4,12,0,2024-02-27T11:20:21.176Z,french_745.wav,0,poule,405,62,4,5,français,m,0,0.0,-8.32888314,1.09732397
657b128079618c853ed056b4,12,0,2024-02-27T11:20:21.176Z,french_745.wav,0,poule,405,62,4,5,français,m,1,0.1,-6.05023993,1.87088692
657b128079618c853ed056b4,12,0,2024-02-27T11:20:21.176Z,french_745.wav,0,poule,405,62,4,5,français,m,2,0.2,14.20117391,1.54181536
657b128079618c853ed056b4,12,0,2024-02-27T11:20:21.176Z,french_745.wav,0,poule,405,62,4,5,français,m,3,0.3,9.72422027,0.66469183
657b128079618c853ed056b4,12,0,2024-02-27T11:20:21.176Z,french_745.wav,0,poule,405,62,4,5,français,m,4,0.4,61.94285409,0.06080466
657b128079618c853ed056b4,12,0,2024-02-27T11:20:21.176Z,french_745.wav,0,poule,405,62,4,5,français,m,5,0.5,16.9242065,0.4761387
657b128079618c853ed056b4,12,0,2024-02-27T11:20:21.176Z,french_745.wav,0,poule,405,62,4,5,français,m,6,0.6,-73.99150176,0.98624315
657b128079618c853ed056b4,12,0,2024-02-27T11:20:21.176Z,french_745.wav,0,poule,405,62,4,5,français,m,7,0.7,-68.75802198,1.75579455
657b128079618c853ed056b4,12,0,2024-02-27T11:20:21.176Z,french_745.wav,0,poule,405,62,4,5,français,m,8,0.8,30.41524691,0.49603864
657b128079618c853ed056b4,12,0,2024-02-27T11:20:21.176Z,french_745.wav,0,poule,405,62,4,5,français,m,9,0.9,-73.26315303,1.28396811
657b128079618c853ed056b4,12,0,2024-02-27T11:20:21.176Z,french_745.wav,0,poule,405,62,4,5,français,m,10,1.0,67.07087991,1.04819189
657b128079618c853ed056b4,12,0,2024-02-27T11:20:21.176Z,french_745.wav,0,poule,405,62,4,5,français,m,11,1.1,37.63567308,1.07853657
657b128079618c853ed056b4,12,0,2024-02-27T11:20:21.176Z,french_745.wav,0,poule,405,62,4,5,français,m,12,1.14141667,72.47019106,1.51225642
657b128079618c853ed056b4,13,0,2024-02-27T11:20:21.176Z,french_589.wav,0,poule,399,62,4,5,français,m,0,0.0,-28.81572037,1.30386384
657b128079618c853ed056b4,13,0,2024-02-27T11:20:21.176Z,french_589.wav,0,poule,399,62,4,5,français,m,1,0.1,-19.51196233,0.74133432
657b128079618c853ed056b4,13,0,2024-02-27T11:20:21.176Z,french_589.wav,0,poule,399,62,4,5,français,m,2,0.2,25.83374801,1.49671777
657b128079618c853ed056b4,13,0,2024-02-27T11:20:21.176Z,french_589.wav,0,poule,399,62,4,5,français,m,3,0.3,-10.48765522,1.87945415
657b128079618c853ed056b4,13,0,2024-02-27T11:20:21.176Z,french_589.wav,0,poule,399,62,4,5,français,m,4,0.4,-3.03759246,0.36986056
657b128079618c853ed056b4,13,0,2024-02-27T11:20:21.176Z,french_589.wav,0,poule,399,62,4,5,français,m,5,0.5,79.90675805,1.80845695
657b128079618c853ed056b4,13,0,2024-02-27T11:20:21.176Z,french_589.wav,0,poule,399,62,4,5,français,m,6,0.6,76.74926762,0.51895627
657b128079618c853ed056b4,13,0,2024-02-27T11:20:21.176Z,french_589.wav,0,poule,399,62,4,5,français,m,7,0.7,-44.25171618,1.19430918
657b128079618c853ed056b4,13,0,2024-02-27T11:20:21.176Z,french_589.wav,0,poule,399,62,4,5,français,m,8,0.8,59.06100345,1.35945592
657b128079618c853ed056b4,13,0,2024-02-27T11:20:21.176Z,french_589.wav,0,poule,399,62,4,5,français,m,9,0.9,-88.17253703,1.80478973
657b128079618c853ed056b4,13,0,2024-02-27T11:20:21.176Z,french_589.wav,0,poule,399,62,4,5,français,m,10,1.0,54.60174578,1.51186698
657b128079618c853ed056b4,13,0,2024-02-27T11:20:21.176Z,french_589.wav,0,poule,399,62,4,5,français,m,11,1.1,-90.51260514,1.71055133
657b128079618c853ed056b4,13,0,2024-02-27T11:20:21.176Z,french_589.wav,0,poule,399,62,4,5,français,m,12,1.14141667,-51.25820416,1.7934624
657b128079618c853ed056b4,14,0,2024-02-27T11:20:21.176Z,french_23.wav,0,pull,548,62,4,5,français,m,0,0.0,94.27150104,0.68588866
657b128079618c853ed056b4,14,0,2024-02-27T11:20:21.176Z,french_23.wav,0,pull,548,62,4,5,français,m,1,0.1,-80.41139797,0.79728373
657b128079618c853ed056b4,14,0,2024-02-27T11:20:21.176Z,french_23.wav,0,pull,548,62,4,5,français,m,2,0.2,-40.00077648,1.69486433
657b128079618c853ed056b4,14,0,2024-02-27T11:20:21.176Z,french_23.wav,0,pull,548,62,4,5,français,m,3,0.3,-47.9206401,1.07510551
657b128079618c853ed056b4,14,0,2024-02-27T11:20:21.176Z,french_23.wav,0,pull,548,62,4,5,français,m,4,0.4,-40.2970177,0.70826522
657b128079618c853ed056b4,14,0,2024-02-27T11:20:21.176Z,french_23.wav,0,pull,548,62,4,5,français,m,5,0.5,-11.70208262,1.48791079
657b128079618c853ed056b4,14,0,2024-02-27T11:20:21.176Z,french_23.wav,0,pull,548,62,4,5,français,m,6,0.6,-73.01945175,1.35299151
657b128079618c853ed056b4,14,0,2024-02-27T11:20:21.176Z,french_23.wav,0,pull,548,62,4,5,français,m,7,0.7,-69.64342933,1.04861918
657b128079618c853ed056b4,14,0,2024-02-27T11:20:21.176Z,french_23.wav,0,pull,548,62,4,5,français,m,8,0.8,39.43111503,1.24336041
657b128079618c853ed056b4,14,0,2024-02-27T11:20:21.176Z,french_23.wav,0,pull,548,62,4,5,français,m,9,0.9,-87.77522393,0.25284501
657b128079618c853ed056b4,14,0,2024-02-27T11:20:21.176Z,french_23.wav,0,pull,548,62,4,5,français,m,10,1.0,50.22964222,1.1347567
657b128079618c853ed056b4,14,0,2024-02-27T11:20:21.176Z,french_23.wav,0,pull,548,62,4,5,français,m,11,1.1,38.35462342,0.86795362
657b128079618c853ed056b4,14,0,2024-02-27T11:20:21.176Z,french_23.wav,0,pull,548,62,4,5,français,m,12,1.14141667,7.98362759,1.42379585
657b128079618c853ed056b4,15,0,2024-02-27T11:20:21.176Z,french_255.wav,0,pull,483,62,4,5,français,m,0,0.0,2.442736,0.0501212
657b128079618c853ed056b4,15,0,2024-02-27T11:20:21.176Z,french_255.wav,0,pull,483,62,4,5,français,m,1,0.1,-5.83495052,0.90036752
657b128079618c853ed056b4,15,0,2024-02-27T11:20:21.176Z,french_255.wav,0,pull,483,62,4,5,français,m,2,0.2,-32.74029462,0.867095
657b128079618c853ed056b4,15,0,2024-02-27T11:20:21.176Z,french_255.wav,0,pull,483,62,4,5,français,m,3,0.3,-17.9207749,1.25241404
657b128079618c853ed056b4,15,0,2024-02-27T11:20:21.176Z,french_255.wav,0,pull,483,62,4,5,français,m,4,0.4,53.89951696,1.67759172
657b128079618c853ed056b4,15,0,2024-02-27T11:20:21.176Z,french_255.wav,0,pull,483,62,4,5,français,m,5,0.5,24.94391855,0.01553626
657b128079618c853ed056b4,15,0,2024-02-27T11:20:21.176Z,french_255.wav,0,pull,483,62,4,5,français,m,6,0.6,80.54570604,1.57070252
657b128079618c853ed056b4,15,0,2024-02-27T11:20:21.176Z,french_255.wav,0,pull,483,62,4,5,français,m,7,0.7,-69.18774393,0.9248427
657b128079618c853ed056b4,15,0,2024-02-27T11:20:21.176Z,french_255.wav,0,pull,483,62,4,5,français,m,8,0.8,-15.07298286,1.33887414
657b128079618c853ed056b4,15,0,2024-02-27T11:20:21.176Z,french_255.wav,0,pull,483,62,4,5,français,m,9,0.9,-32.34798788,0.16575364
657b128079618c853ed056b4,15,0,2024-02-27T11:20:21.176Z,french_255.wav,0,pull,483,62,4,5,français,m,10,1.0,-56.5580714,0.79462378
657b128079618c853ed056b4,15,0,2024-02-27T11:20:21.176Z,french_255.wav,0,pull,483,62,4,5,français,m,11,1.1,-26.54917843,1.53751958
657b128079618c853ed056b4,15,0,2024-02-27T11:20:21.176Z,french_255.wav,0,pull,483,62,4,5,français,m,12,1.14141667,7.68459279,1.02892378
657b128079618c853ed056b4,16,0,2024-02-27T11:20:21.176Z,french_532.wav,0,poule,444,62,4,5,français,m,0,0.0,85.83623854,1.76274874
657b128079618c853ed056b4,16,0,2024-02-27T11:20:21.176Z,french_532.wav,0,poule,444,62,4,5,français,m,1,0.1,84.10541783,0.70179858
657b128079618c853ed056b4,16,0,2024-02-27T11:20:21.176Z,french_532.wav,0,poule,444,62,4,5,français,m,2,0.2,26.42202154,1.88377086
657b128079618c853ed056b4,16,0,2024-02-27T11:20:21.176Z,french_532.wav,0,poule,444,62,4,5,français,m,3,0.3,79.07795266,0.03665049
657b128079618c853ed056b4,16,0,2024-02-27T11:20:21.176Z,french_532.wav,0,poule,444,62,4,5,français,m,4,0.4,-79.74270865,0.9425884
657b128079618c853ed056b4,16,0,2024-02-27T11:20:21.176Z,french_532.wav,0,poule,444,62,4,5,français,m,5,0.5,95.386086,1.22571827
657b128079618c853ed056b4,16,0,2024-02-27T11:20:21.176Z,french_532.wav,0,poule,444,62,4,5,français,m,6,0.6,72.0692702,0.12096615
657b128079618c853ed056b4,16,0,2024-02-27T11:20:21.176Z,french_532.wav,0,poule,444,62,4,5,français,m,7,0.7,-9.08909472,0.73907677
657b128079618c853ed056b4,16,0,2024-02-27T11:20:21.176Z,french_532.wav,0,poule,444,62,4,5,français,m,8,0.8,-4.90273931,1.49339614
657b128079618c853ed056b4,16,0,2024-02-27T11:20:21.176Z,french_532.wav,0,poule,444,62,4,5,français,m,9,0.9,5.30793597,0.96320852
657b128079618c853ed056b4,16,0,2024-02-27T11:20:21.176Z,french_532.wav,0,poule,444,62,4,5,français,m,10,1.0,-72.96309884,1.02982353
657b128079618c853ed056b4,16,0,2024-02-27T11:20:21.176Z,french_532.wav,0,poule,444,62,4,5,français,m,11,1.1,-95.33528515,1.03939041
657b128079618c853ed056b4,16,0,2024-02-27T11:20:21.176Z,french_532.wav,0,poule,444,62,4,5,français,m,12,1.14141667,-74.8568227,1.59124295
657b128079618c853ed056b4,17,0,2024-02-27T11:20:21.176Z,french_448.wav,0,pull,651,62,4,5,français,m,0,0.0,-49.41608192,0.77831595
657b128079618c853ed056b4,17,0,2024-02-27T11:20:21.176Z,french_448.wav,0,pull,651,62,4,5,français,m,1,0.1,-30.3512703,1.71978765
657b128079618c853ed056b4,17,0,2024-02-27T11:20:21.176Z,french_448.wav,0,pull,651,62,4,5,français,m,2,0.2,67.54613393,0.27102863
657b128079618c853ed056b4,17,0,2024-02-27T11:20:21.176Z,french_448.wav,0,pull,651,62,4,5,français,m,3,0.3,-93.47597167,1.6891978
657b128079618c853ed056b4,17,0,2024-02-27T11:20:21.176Z,french_448.wav,0,pull,651,62,4,5,français,m,4,0.4,23.22725928,1.07215267
657b128079618c853ed056b4,17,0,2024-02-27T11:20:21.176Z,french_448.wav,0,pull,651,62,4,5,français,m,5,0.5,60.03248628,0.57646816
657b128079618c853ed056b4,17,0,2024-02-27T11:20:21.176Z,french_448.wav,0,pull,651,62,4,5,français,m,6,0.6,26.16426079,0.14253766
657b128079618c853ed056b4,17,0,2024-02-27T11:20:21.176Z,french_448.wav,0,pull,651,62,4,5,français,m,7,0.7,19.22865529,1.98223022
657b128079618c853ed056b4,17,0,2024-02-27T11:20:21.176Z,french_448.wav,0,pull,651,62,4,5,français,m,8,0.8,-91.4658834,0.38558498
657b128079618c853ed056b4,17,0,2024-02-27T11:20:21.176Z,french_448.wav,0,pull,651,62,4,5,français,m,9,0.9,-80.8404627,0.04175319
657b128079618c853ed056b4,17,0,2024-02-27T11:20:21.176Z,french_448.wav,0,pull,651,62,4,5,français,m,10,1.0,-14.65228926,0.76552701
657b128079618c853ed056b4,17,0,2024-02-27T11:20:21.176Z,french_448.wav,0,pull,651,62,4,5,français,m,11,1.1,-63.24456299,1.41782634
657b128079618c853ed056b4,17,0,2024-02-27T11:20:21.176Z,french_448.wav,0,pull,651,62,4,5,français,m,12,1.14141667,-10.86817626,0.38733853
657b128079618c853ed056b4,18,0,2024-02-27T11:20:21.176Z,french_961.wav,0,poule,455,62,4,5,français,m,0,0.0,-57.76361631,0.10893139
657b128079618c853ed056b4,18,0,2024-02-27T11:20:21.176Z,french_961.wav,0,poule,455,62,4,5,français,m,1,0.1,25.39331568,1.43252878
657b128079618c853ed056b4,18,0,2024-02-27T11:20:21.176Z,french_961.wav,0,poule,455,62,4,5,français,m,2,0.2,12.35143873,0.92444386
657b128079618c853ed056b4,18,0,2024-02-27T11:20:21.176Z,french_961.wav,0,poule,455,62,4,5,français,m,3,0.3,22.75517226,1.05401088
657b128079618c853ed056b4,18,0,2024-02-27T11:20:21.176Z,french_961.wav,0,poule,455,62,4,5,français,m,4,0.4,-18.00705604,0.76286408
657b128079618c853ed056b4,18,0,2024-02-27T11:20:21.176Z,french_961.wav,0,poule,455,62,4,5,français,m,5,0.5,-39.89863119,0.39968066
657b128079618c853ed056b4,18,0,2024-02-27T11:20:21.176Z,french_961.wav,0,poule,455,62,4,5,français,m,6,0.6,-14.96300277,1.49971695
657b128079618c853ed056b4,18,0,2024-02-27T11:20:21.176Z,french_961.wav,0,poule,455,62,4,5,français,m,7,0.7,-94.00933824,0.233123
657b128079618c853ed056b4,18,0,2024-02-27T11:20:21.176Z,french_961.wav,0,poule,455,62,4,5,français,m,8,0.8,3.75296714,0.79401243
657b128079618c853ed056b4,18,0,2024-02-27T11:20:21.176Z,french_961.wav,0,poule,455,62,4,5,français,m,9,0.9,-65.25681875,0.70841327
657b128079618c853ed056b4,18,0,2024-02-27T11:20:21.176Z,french_961.wav,0,poule,455,62,4,5,français,m,10,1.0,-36.72733908,0.02300455
657b128079618c853ed056b4,18,0,2024-02-27T11:20:21.176Z,french_961.wav,0,poule,455,62,4,5,français,m,11,1.1,-39.85327237,1.99640547
657b128079618c853ed056b4,18,0,2024-02-27T11:20:21.176Z,french_961.wav,0,poule,455,62,4,5,français,m,12,1.14141667,88.04121989,1.78012452
657b128079618c853ed056b4,19,0,2024-02-27T11:20:21.176Z,french_206.wav,0,poule,564,62,4,5,français,m,0,0.0,43.92395117,1.77403628
657b128079618c853ed056b4,19,0,2024-02-27T11:20:21.176Z,french_206.wav,0,poule,564,62,4,5,français,m,1,0.1,39.31302251,1.60288441
657b128079618c853ed056b4,19,0,2024-02-27T11:20:21.176Z,french_206.wav,0,poule,564,62,4,5,français,m,2,0.2,-42.8927459,1.13153884
657b128079618c853ed056b4,19,0,2024-02-27T11:20:21.176Z,french_206.wav,0,poule,564,62,4,5,français,m,3,0.3,-42.74094368,1.48428597
657b128079618c853ed056b4,19,0,2024-02-27T11:20:21.176Z,french_206.wav,0,poule,564,62,4,5,français,m,4,0.4,-54.37015978,0.87838006
657b128079618c853ed056b4,19,0,2024-02-27T11:20:21.176Z,french_206.wav,0,poule,564,62,4,5,français,m,5,0.5,58.70658254,1.89671484
657b128079618c853ed056b4,19,0,2024-02-27T11:20:21.176Z,french_206.wav,0,poule,564,62,4,5,français,m,6,0.6,-93.65162754,0.9605472
657b128079618c853ed056b4,19,0,2024-02-27T11:20:21.176Z,french_206.wav,0,poule,564,62,4,5,français,m,7,0.7,21.97210984,1.59310841
657b128079618c853ed056b4,19,0,2024-02-27T11:20:21.176Z,french_206.wav,0,poule,564,62,4,5,français,m,8,0.8,-19.85883058,0.68468678
657b128079618c853ed056b4,19,0,2024-02-27T11:20:21.176Z,french_206.wav,0,poule,564,62,4,5,français,m,9,0.9,52.86747229,1.01785064
657b128079618c853ed056b4,19,0,2024-02-27T11:20:21.176Z,french_206.wav,0,poule,564,62,4,5,français,m,10,1.0,28.65042427,1.27680634
657b128079618c853ed056b4,19,0,2024-02-27T11:20:21.176Z,french_206.wav,0,poule,564,62,4,5,français,m,11,1.1,97.07118546,0.38746368
657b128079618c853ed056b4,19,0,2024-02-27T11:20:21.176Z,french_206.wav,0,poule,564,62,4,5,français,m,12,1.14141667,-9.08669324,1.12107316
657b128079618c853ed056b4,20,0,2024-02-27T11:20:21.176Z,french_297.wav,0,pull,438,62,4,5,français,m,0,0.0,-57.88814484,0.69308764
657b128079618c853ed056b4,20,0,2024-02-27T11:20:21.176Z,french_297.wav,0,pull,438,62,4,5,français,m,1,0.1,-65.38188866,0.37987573
657b128079618c853ed056b4,20,0,2024-02-27T11:20:21.176Z,french_297.wav,0,pull,438,62,4,5,français,m,2,0.2,56.2043282,0.59927578
657b128079618c853ed056b4,20,0,2024-02-27T11:20:21.176Z,french_297.wav,0,pull,438,62,4,5,français,m,3,0.3,37.86944555,1.25022663
657b128079618c853ed056b4,20,0,2024-02-27T11:20:21.176Z,french_297.wav,0,pull,438,62,4,5,français,m,4,0.4,-19.92258325,0.84509442
657b128079618c853ed056b4,20,0,2024-02-27T11:20:21.176Z,french_297.wav,0,pull,438,62,4,5,français,m,5,0.5,-5.91149955,0.62575422
657b128079618c853ed056b4,20,0,2024-02-27T11:20:21.176Z,french_297.wav,0,pull,438,62,4,5,français,m,6,0.6,-11.69802287,0.6876977
657b128079618c853ed056b4,20,0,2024-02-27T11:20:21.176Z,french_297.wav,0,pull,438,62,4,5,français,m,7,0.7,-38.75754166,0.53792077
657b128079618c853ed056b4,20,0,2024-02-27T11:20:21.176Z,french_297.wav,0,pull,438,62,4,5,français,m,8,0.8,-82.79023729,1.01464863
657b128079618c853ed056b4,20,0,2024-02-27T11:20:21.176Z,french_297.wav,0,pull,438,62,4,5,français,m,9,0.9,-96.88307613,0.81112842
657b128079618c853ed056b4,20,0,2024-02-27T11:20:21.176Z,french_297.wav,0,pull,438,62,4,5,français,m,10,1.0,-63.09042371,1.38654734
657b128079618c853ed056b4,20,0,2024-02-27T11:20:21.176Z,french_297.wav,0,pull,438,62,4,5,français,m,11,1.1,78.08018198,0.15468479
657b128079618c853ed056b4,20,0,2024-02-27T11:20:21.176Z,french_297.wav,0,pull,438,62,4,5,français,m,12,1.14141667,10.19553277,0.66198032
657b128079618c853ed056b4,21,0,2024-02-27T11:20:21.176Z,french_13.wav,0,poule,350,62,4,5,français,m,0,0.0,28.79040646,1.71683998
657b128079618c853ed056b4,21,0,2024-02-27T11:20:21.176Z,french_13.wav,0,poule,350,62,4,5,français,m,1,0.1,1.43639251,1.51392947
657b128079618c853ed056b4,21,0,2024-02-27T11:20:21.176Z,french_13.wav,0,poule,350,62,4,5,français,m,2,0.2,8.93741283,1.95012388
657b128079618c853ed056b4,21,0,2024-02-27T11:20:21.176Z,french_13.wav,0,poule,350,62,4,5,français,m,3,0.3,-45.23678971,1.24720578
657b128079618c853ed056b4,21,0,2024-02-27T11:20:21.176Z,french_13.wav,0,poule,350,62,4,5,français,m,4,0.4,-36.64568284,0.6748638
657b128079618c853ed056b4,21,0,2024-02-27T11:20:21.176Z,french_13.wav,0,poule,350,62,4,5,français,m,5,0.5,95.08006425,0.64178438
657b128079618c853ed056b4,21,0,2024-02-27T11:20:21.176Z,french_13.wav,0,poule,350,62,4,5,français,m,6,0.6,-25.15383894,1.78067585
657b128079618c853ed056b4,21,0,2024-02-27T11:20:21.176Z,french_13.wav,0,poule,350,62,4,5,français,m,7,0.7,20.22064469,0.73379373
657b128079618c853ed056b4,21,0,2024-02-27T11:20:21.176Z,french_13.wav,0,poule,350,62,4,5,français,m,8,0.8,4.43008543,0.8008251
657b128079618c853ed056b4,21,0,2024-02-27T11:20:21.176Z,french_13.wav,0,poule,350,62,4,5,français,m,9,0.9,31.96842926,1.62083082
657b128079618c853ed056b4,21,0,2024-02-27T11:20:21.176Z,french_13.wav,0,poule,350,62,4,5,français,m,10,1.0,59.17290693,0.40737704
657b128079618c853ed056b4,21,0,2024-02-27T11:20:21.176Z,french_13.wav,0,poule,350,62,4,5,français,m,11,1.1,3.48956858,0.59465297
657b128079618c853ed056b4,21,0,2024-02-27T11:20:21.176Z,french_13.wav,0,poule,350,62,4,5,français,m,12,1.14141667,-39.55658578,0.57584179
657b128079618c853ed056b4,22,0,2024-02-27T11:20:21.176Z,french_107.wav,0,poule,748,62,4,5,français,m,0,0.0,48.95738848,0.23520596
657b128079618c853ed056b4,22,0,2024-02-27T11:20:21.176Z,french_107.wav,0,poule,748,62,4,5,français,m,1,0.1,-86.21350197,1.35835183
657b128079618c853ed056b4,22,0,2024-02-27T11:20:21.176Z,french_107.wav,0,poule,748,62,4,5,français,m,2,0.2,-66.15605828,1.80441503
657b128079618c853ed056b4,22,0,2024-02-27T11:20:21.176Z,french_107.wav,0,poule,748,62,4,5,français,m,3,0.3,36.09764322,1.20547982
657b128079618c853ed056b4,22,0,2024-02-27T11:20:21.176Z,french_107.wav,0,poule,748,62,4,5,français,m,4,0.4,84.94348039,1.45019214
657b128079618c853ed056b4,22,0,2024-02-27T11:20:21.176Z,french_107.wav,0,poule,748,62,4,5,français,m,5,0.5,45.37934285,1.82448315
657b128079618c853ed056b4,22,0,2024-02-27T11:20:21.176Z,french_107.wav,0,poule,748,62,4,5,français,m,6,0.6,-37.42419694,0.98390392
657b128079618c853ed056b4,22,0,2024-02-27T11:20:21.176Z,french_107.wav,0,poule,748,62,4,5,français,m,7,0.7,9.9462813,1.44557172
657b128079618c853ed056b4,22,0,2024-02-27T11:20:21.176Z,french_107.wav,0,poule,748,62,4,5,français,m,8,0.8,-34.76810552,1.21843616
657b128079618c853ed056b4,22,0,2024-02-27T11:20:21.176Z,french_107.wav,0,poule,748,62,4,5,français,m,9,0.9,-2.69499058,0.65132093
657b128079618c853ed056b4,22,0,2024-02-27T11:20:21.176Z,french_107.wav,0,poule,748,62,4,5,français,m,10,1.0,-37.67578174,0.48352105
657b128079618c853ed056b4,22,0,2024-02-27T11:20:21.176Z,french_107.wav,0,poule,748,62,4,5,français,m,11,1.1,10.67241344,1.27397433
657b128079618c853ed056b4,22,0,2024-02-27T11:20:21.176Z,french_107.wav,0,poule,748,62,4,5,français,m,12,1.14141667,78.13998046,0.78593457
657b128079618c853ed056b4,23,0,2024-02-27T11:20:21.176Z,french_768.wav,0,poule,555,62,4,5,français,m,0,0.0,-90.25998479,0.74075575
657b128079618c853ed056b4,23,0,2024-02-27T11:20:21.176Z,french_768.wav,0,poule,555,62,4,5,français,m,1,0.1,34.21415615,0.17866259
657b128079618c853ed056b4,23,0,2024-02-27T11:20:21.176Z,french_768.wav,0,poule,555,62,4,5,français,m,2,0.2,-52.71140353,1.12012438
657b128079618c853ed056b4,23,0,2024-02-27T11:20:21.176Z,french_768.wav,0,poule,555,62,4,5,français,m,3,0.3,-0.87917212,1.6540895
657b128079618c853ed056b4,23,0,2024-02-27T11:20:21.176Z,french_768.wav,0,poule,555,62,4,5,français,m,4,0.4,16.13384172,0.5612472
657b128079618c853ed056b4,23,0,2024-02-27T11:20:21.176Z,french_768.wav,0,poule,555,62,4,5,français,m,5,0.5,40.42476131,0.6068206
657b128079618c853ed056b4,23,0,2024-02-27T11:20:21.176Z,french_768.wav,0,poule,555,62,4,5,français,m,6,0.6,89.24687933,0.74654886
657b128079618c853ed056b4,23,0,2024-02-27T11:20:21.176Z,french_768.wav,0,poule,555,62,4,5,français,m,7,0.7,-96.15596273,0.53936952
657b128079618c853ed056b4,23,0,2024-02-27T11:20:21.176Z,french_768.wav,0,poule,555,62,4,5,français,m,8,0.8,-38.29186897,1.70646715
657b128079618c853ed056b4,23,0,2024-02-27T11:20:21.176Z,french_768.wav,0,poule,555,62,4,5,français,m,9,0.9,-17.48626228,0.70300524
657b128079618c853ed056b4,23,0,2024-02-27T11:20:21.176Z,french_768.wav,0,poule,555,62,4,5,français,m,10,1.0,19.34641069,1.33185606
657b128079618c853ed056b4,23,0,2024-02-27T11:20:21.176Z,french_768.wav,0,poule,555,62,4,5,français,m,11,1.1,11.56546597,0.71915286
657b128079618c853ed056b4,23,0,2024-02-27T11:20:21.176Z,french_768.wav,0,poule,555,62,4,5,français,m,12,1.14141667,81.99709235,0.49042586
657b128079618c853ed056b4,24,0,2024-02-27T11:20:21.176Z,french_803.wav,0,pull,2931,62,4,5,français,m,0,0.0,-12.95878337,0.89212547
657b128079618c853ed056b4,24,0,2024-02-27T11:20:21.176Z,french_803.wav,0,pull,2931,62,4,5,français,m,1,0.1,61.50797195,0.09328832
657b128079618c853ed056b4,24,0,2024-02-27T11:20:21.176Z,french_803.wav,0,pull,2931,62,4,5,français,m,2,0.2,96.13916552,0.1771654
657b128079618c853ed056b4,24,0,2024-02-27T11:20:21.176Z,french_803.wav,0,pull,2931,62,4,5,français,m,3,0.3,63.40829671,0.79511002
657b128079618c853ed056b4,24,0,2024-02-27T11:20:21.176Z,french_803.wav,0,pull,2931,62,4,5,français,m,4,0.4,-18.80055907,0.67535594
657b128079618c853ed056b4,24,0,2024-02-27T11:20:21.176Z,french_803.wav,0,pull,2931,62,4,5,français,m,5,0.5,-13.37960084,0.14377803
657b128079618c853ed056b4,24,0,2024-02-27T11:20:21.176Z,french_803.wav,0,pull,2931,62,4,5,français,m,6,0.6,17.49624977,0.71363745
657b128079618c853ed056b4,24,0,2024-02-27T11:20:21.176Z,french_803.wav,0,pull,2931,62,4,5,français,m,7,0.7,26.6489851,0.90742369
657b128079618c853ed056b4,24,0,2024-02-27T11:20:21.176Z,french_803.wav,0,pull,2931,62,4,5,français,m,8,0.8,46.37702818,0.61606813
657b128079618c853ed056b4,24,0,2024-02-27T11:20:21.176Z,french_803.wav,0,pull,2931,62,4,5,français,m,9,0.9,47.62008812,0.82361862
657b128079618c853ed056b4,24,0,2024-02-27T11:20:21.176Z,french_803.wav,0,pull,2931,62,4,5,français,m,10,1.0,35.61177117,1.14929537
657b128079618c853ed056b4,24,0,2024-02-27T11:20:21.176Z,french_803.wav,0,pull,2931,62,4,5,français,m,11,1.1,-76.22783665,1.55419548
657b128079618c853ed056b4,24,0,2024-02-27T11:20:21.176Z,french_803.wav,0,pull,2931,62,4,5,français,m,12,1.14141667,34.8549378,1.0035068
657b128079618c853ed056b4,25,0,2024-02-27T11:20:21.176Z,french_471.wav,0,pull,721,62,4,5,français,m,0,0.0,41.83391715,1.67349399
657b128079618c853ed056b4,25,0,2024-02-27T11:20:21.176Z,french_471.wav,0,pull,721,62,4,5,français,m,1,0.1,-76.96843168,0.59594788
657b128079618c853ed056b4,25,0,2024-02-27T11:20:21.176Z,french_471.wav,0,pull,721,62,4,5,français,m,2,0.2,-8.95205146,0.21651802
657b128079618c853ed056b4,25,0,2024-02-27T11:20:21.176Z,french_471.wav,0,pull,721,62,4,5,français,m,3,0.3,23.54279346,1.46166629
657b128079618c853ed056b4,25,0,2024-02-27T11:20:21.176Z,french_471.wav,0,pull,721,62,4,5,français,m,4,0.4,-15.91458067,0.64159162
657b128079618c853ed056b4,25,0,2024-02-27T11:20:21.176Z,french_471.wav,0,pull,721,62,4,5,français,m,5,0.5,-62.29566062,1.70672832
657b128079618c853ed056b4,25,0,2024-02-27T11:20:21.176Z,french_471.wav,0,pull,721,62,4,5,français,m,6,0.6,-10.03907701,1.06314921
657b128079618c853ed056b4,25,0,2024-02-27T11:20:21.176Z,french_471.wav,0,pull,721,62,4,5,français,m,7,0.7,28.86778795,0.77270182
657b128079618c853ed056b4,25,0,2024-02-27T11:20:21.176Z,french_471.wav,0,pull,721,62,4,5,français,m,8,0.8,41.41175946,1.60583208
657b128079618c853ed056b4,25,0,2024-02-27T11:20:21.176Z,french_471.wav,0,pull,721,62,4,5,français,m,9,0.9,-29.16663325,0.6103897
657b128079618c853ed056b4,25,0,2024-02-27T11:20:21.176Z,french_471.wav,0,pull,721,62,4,5,français,m,10,1.0,-67.59158679,1.4211614
657b128079618c853ed056b4,25,0,2024-02-27T11:20:21.176Z,french_471.wav,0,pull,721,62,4,5,français,m,11,1.1,-87.94197707,0.92479557
657b128079618c853ed056b4,25,0,2024-02-27T11:20:21.176Z,french_471.wav,0,pull,721,62,4,5,français,m,12,1.14141667,-62.10245378,0.63214451
657b128079618c853ed056b4,26,0,2024-02-27T11:20:21.176Z,french_405.wav,0,pull,477,62,4,5,français,m,0,0.0,2.94741857,0.47922485
657b128079618c853ed056b4,26,0,2024-02-27T11:20:21.176Z,french_405.wav,0,pull,477,62,4,5,français,m,1,0.1,10.93945556,0.75992021
657b128079618c853ed056b4,26,0,2024-02-27T11:20:21.176Z,french_405.wav,0,pull,477,62,4,5,français,m,2,0.2,-33.58175419,0.51030052
657b128079618c853ed056b4,26,0,2024-02-27T11:20:21.176Z,french_405.wav,0,pull,477,62,4,5,français,m,3,0.3,-35.59039283,1.5380037
657b128079618c853ed056b4,26,0,2024-02-27T11:20:21.176Z,french_405.wav,0,pull,477,62,4,5,français,m,4,0.4,-23.09707718,1.53478695
657b128079618c853ed056b4,26,0,2024-02-27T11:20:21.176Z,french_405.wav,0,pull,477,62,4,5,français,m,5,0.5,-12.93229662,0.62602002
657b128079618c853ed056b4,26,0,2024-02-27T11:20:21.176Z,french_405.wav,0,pull,477,62,4,5,français,m,6,0.6,54.45275162,0.6867386
657b128079618c853ed056b4,26,0,2024-02-27T11:20:21.176Z,french_405.wav,0,pull,477,62,4,5,français,m,7,0.7,52.01362083,0.60233158
657b128079618c853ed056b4,26,0,2024-02-27T11:20:21.176Z,french_405.wav,0,pull,477,62,4,5,français,m,8,0.8,-18.58395664,1.63961568
657b128079618c853ed056b4,26,0,2024-02-27T11:20:21.176Z,french_405.wav,0,pull,477,62,4,5,français,m,9,0.9,21.80701506,0.20387093
657b128079618c853ed056b4,26,0,2024-02-27T11:20:21.176Z,french_405.wav,0,pull,477,62,4,5,français,m,10,1.0,-55.17899325,1.51918911
657b128079618c853ed056b4,26,0,2024-02-27T11:20:21.176Z,french_405.wav,0,pull,477,62,4,5,français,m,11,1.1,62.50728609,1.29633258
657b128079618c853ed056b4,26,0,2024-02-27T11:20:21.176Z,french_405.wav,0,pull,477,62,4,5,français,m,12,1.14141667,-31.56259202,0.04867302
657b128079618c853ed056b4,27,0,2024-02-27T11:20:21.176Z,french_289.wav,0,poule,505,62,4,5,français,m,0,0.0,14.70665442,1.83068481
657b128079618c853ed056b4,27,0,2024-02-27T11:20:21.176Z,french_289.wav,0,poule,505,62,4,5,français,m,1,0.1,95.25316321,0.61558809
657b128079618c853ed056b4,27,0,2024-02-27T11:20:21.176Z,french_289.wav,0,poule,505,62,4,5,français,m,2,0.2,22.20186217,1.36200616
657b128079618c853ed056b4,27,0,2024-02-27T11:20:21.176Z,french_289.wav,0,poule,505,62,4,5,français,m,3,0.3,-17.9137024,1.0791943
657b128079618c853ed056b4,27,0,2024-02-27T11:20:21.176Z,french_289.wav,0,poule,505,62,4,5,français,m,4,0.4,-10.1137558,0.20327362
657b128079618c853ed056b4,27,0,2024-02-27T11:20:21.176Z,french_289.wav,0,poule,505,62,4,5,français,m,5,0.5,-69.76519391,1.24486775
657b128079618c853ed056b4,27,0,2024-02-27T11:20:21.176Z,french_289.wav,0,poule,505,62,4,5,français,m,6,0.6,-29.65482042,1.32936048
657b128079618c853ed056b4,27,0,2024-02-27T11:20:21.176Z,french_289.wav,0,poule,505,62,4,5,français,m,7,0.7,65.48072433,1.56831723
657b128079618c853ed056b4,27,0,2024-02-27T11:20:21.176Z,french_289.wav,0,poule,505,62,4,5,français,m,8,0.8,60.45691667,1.33915521
657b128079618c853ed056b4,27,0,2024-02-27T11:20:21.176Z,french_289.wav,0,poule,505,62,4,5,français,m,9,0.9,-67.68084872,1.39765906
657b128079618c853ed056b4,27,0,2024-02-27T11:20:21.176Z,french_289.wav,0,poule,505,62,4,5,français,m,10,1.0,65.70228923,1.14730346
657b128079618c853ed056b4,27,0,2024-02-27T11:20:21.176Z,french_289.wav,0,poule,505,62,4,5,français,m,11,1.1,-57.15088735,1.20392446
657b128079618c853ed056b4,27,0,2024-02-27T11:20:21.176Z,french_289.wav,0,poule,505,62,4,5,français,m,12,1.14141667,1.39733305,0.91697028
657b128079618c853ed056b4,28,0,2024-02-27T11:20:21.176Z,french_515.wav,0,pull,867,62,4,5,français,m,0,0.0,-4.32286311,1.75814959
657b128079618c853ed056b4,28,0,2024-02-27T11:20:21.176Z,french_515.wav,0,pull,867,62,4,5,français,m,1,0.1,-44.33537701,1.20576492
657b128079618c853ed056b4,28,0,2024-02-27T11:20:21.176Z,french_515.wav,0,pull,867,62,4,5,français,m,2,0.2,15.78127792,1.64200762
657b128079618c853ed056b4,28,0,2024-02-27T11:20:21.176Z,french_515.wav,0,pull,867,62,4,5,français,m,3,0.3,-89.02885546,0.90394207
657b128079618c853ed056b4,28,0,2024-02-27T11:20:21.176Z,french_515.wav,0,pull,867,62,4,5,français,m,4,0.4,79.00729914,1.94318296
657b128079618c853ed056b4,28,0,2024-02-27T11:20:21.176Z,french_515.wav,0,pull,867,62,4,5,français,m,5,0.5,-35.30094338,1.3687061
657b128079618c853ed056b4,28,0,2024-02-27T11:20:21.176Z,french_515.wav,0,pull,867,62,4,5,français,m,6,0.6,62.21827851,1.17175752
657b128079618c853ed056b4,28,0,2024-02-27T11:20:21.176Z,french_515.wav,0,pull,867,62,4,5,français,m,7,0.7,-89.96956463,0.52620308
657b128079618c853ed056b4,28,0,2024-02-27T11:20:21.176Z,french_515.wav,0,pull,867,62,4,5,français,m,8,0.8,-47.13344598,1.4204562
657b128079618c853ed056b4,28,0,2024-02-27T11:20:21.176Z,french_515.wav,0,pull,867,62,4,5,français,m,9,0.9,36.11915177,0.03677736
657b128079618c853ed056b4,28,0,2024-02-27T11:20:21.176Z,french_515.wav,0,pull,867,62,4,5,français,m,10,1.0,91.92450568,0.6940855
657b128079618c853ed056b4,28,0,2024-02-27T11:20:21.176Z,french_515.wav,0,pull,867,62,4,5,français,m,11,1.1,-64.59862943,1.106084
657b128079618c853ed056b4,28,0,2024-02-27T11:20:21.176Z,french_515.wav,0,pull,867,62,4,5,français,m,12,1.14141667,-64.9632151,1.16695411
657b128079618c853ed056b4,29,0,2024-02-27T11:20:21.176Z,french_312.wav,0,poule,582,62,4,5,français,m,0,0.0,69.30449707,0.68235651
657b128079618c853ed056b4,29,0,2024-02-27T11:20:21.176Z,french_312.wav,0,poule,582,62,4,5,français,m,1,0.1,28.8122594,0.49968612
657b128079618c853ed056b4,29,0,2024-02-27T11:20:21.176Z,french_312.wav,0,poule,582,62,4,5,français,m,2,0.2,79.52564985,0.10826386
657b128079618c853ed056b4,29,0,2024-02-27T11:20:21.176Z,french_312.wav,0,poule,582,62,4,5,français,m,3,0.3,23.03240233,1.87669154
657b128079618c853ed056b4,29,0,2024-02-27T11:20:21.176Z,french_312.wav,0,poule,582,62,4,5,français,m,4,0.4,-48.5690178,1.01808413
657b128079618c853ed056b4,29,0,2024-02-27T11:20:21.176Z,french_312.wav,0,poule,582,62,4,5,français,m,5,0.5,61.96316276,1.08622218
657b128079618c853ed056b4,29,0,2024-02-27T11:20:21.176Z,french_312.wav,0,poule,582,62,4,5,français,m,6,0.6,-40.84069724,0.31784093
657b128079618c853ed056b4,29,0,2024-02-27T11:20:21.176Z,french_312.wav,0,poule,582,62,4,5,français,m,7,0.7,-21.82800046,0.771822
657b128079618c853ed056b4,29,0,2024-02-27T11:20:21.176Z,french_312.wav,0,poule,582,62,4,5,français,m,8,0.8,-77.10722565,0.59210928
657b128079618c853ed056b4,29,0,2024-02-27T11:20:21.176Z,french_312.wav,0,poule,582,62,4,5,français,m,9,0.9,18.67755044,0.28258662
657b128079618c853ed056b4,29,0,2024-02-27T11:20:21.176Z,french_312.wav,0,poule,582,62,4,5,français,m,10,1.0,0.10322115,0.93032185
657b128079618c853ed056b4,29,0,2024-02-27T11:20:21.176Z,french_312.wav,0,poule,582,62,4,5,français,m,11,1.1,38.28305127,0.32298369
657b128079618c853ed056b4,29,0,2024-02-27T11:20:21.176Z,french_312.wav,0,poule,582,62,4,5,français,m,12,1.14141667,17.56298431,1.36564277
657b128079618c853ed056b4,30,0,2024-02-27T11:20:21.176Z,french_174.wav,0,poule,457,62,4,5,français,m,0,0.0,-30.56433127,1.42567185
657b128079618c853ed056b4,30,0,2024-02-27T11:20:21.176Z,french_174.wav,0,poule,457,62,4,5,français,m,1,0.1,-47.55811777,0.62143253
657b128079618c853ed056b4,30,0,2024-02-27T11:20:21.176Z,french_174.wav,0,poule,457,62,4,5,français,m,2,0.2,28.56583207,1.30085658
657b128079618c853ed056b4,30,0,2024-02-27T11:20:21.176Z,french_174.wav,0,poule,457,62,4,5,français,m,3,0.3,40.04396067,0.91650531
657b128079618c853ed056b4,30,0,2024-02-27T11:20:21.176Z,french_174.wav,0,poule,457,62,4,5,français,m,4,0.4,-28.77006627,0.25461144
657b128079618c853ed056b4,30,0,2024-02-27T11:20:21.176Z,french_174.wav,0,poule,457,62,4,5,français,m,5,0.5,10.60896248,1.7210299
657b128079618c853ed056b4,30,0,2024-02-27T11:20:21.176Z,french_174.wav,0,poule,457,62,4,5,français,m,6,0.6,-60.55483946,0.59527891
657b128079618c853ed056b4,30,0,2024-02-27T11:20:21.176Z,french_174.wav,0,poule,457,62,4,5,français,m,7,0.7,31.94190245,1.66278508
657b128079618c853ed056b4,30,0,2024-02-27T11:20:21.176Z,french_174.wav,0,poule,457,62,4,5,français,m,8,0.8,95.12679038,0.30000032
657b128079618c853ed056b4,30,0,2024-02-27T11:20:21.176Z,french_174.wav,0,poule,457,62,4,5,français,m,9,0.9,-16.07040974,1.57018269
657b128079618c853ed056b4,30,0,2024-02-27T11:20:21.176Z,french_174.wav,0,poule,457,62,4,5,français,m,10,1.0,-80.44609319,1.40831219
657b128079618c853ed056b4,30,0,2024-02-27T11:20:21.176Z,french_174.wav,0,poule,457,62,4,5,français,m,11,1.1,-56.80142673,0.60735431
657b128079618c853ed056b4,30,0,2024-02-27T11:20:21.176Z,french_174.wav,0,poule,457,62,4,5,français,m,12,1.14141667,-57.21574415,0.91560648
657b128079618c853ed056b4,31,0,2024-02-27T11:20:21.176Z,french_714.wav,0,pull,505,62,4,5,français,m,0,0.0,95.90344611,0.85575765
657b128079618c853ed056b4,31,0,2024-02-27T11:20:21.176Z,french_714.wav,0,pull,505,62,4,5,français,m,1,0.1,-24.72262082,0.99109068
657b128079618c853ed056b4,31,0,2024-02-27T11:20:21.176Z,french_714.wav,0,pull,505,62,4,5,français,m,2,0.2,59.37227344,0.51789898
657b128079618c853ed056b4,31,0,2024-02-27T11:20:21.176Z,french_714.wav,0,pull,505,62,4,5,français,m,3,0.3,-27.1741591,0.15135155
657b128079618c853ed056b4,31,0,2024-02-27T11:20:21.176Z,french_714.wav,0,pull,505,62,4,5,français,m,4,0.4,45.66784268,0.88454916
657b128079618c853ed056b4,31,0,2024-02-27T11:20:21.176Z,french_714.wav,0,pull,505,62,4,5,français,m,5,0.5,-18.42560325,0.71216205
657b128079618c853ed056b4,31,0,2024-02-27T11:20:21.176Z,french_714.wav,0,pull,505,62,4,5,français,m,6,0.6,22.13445338,0.59963982
657b128079618c853ed056b4,31,0,2024-02-27T11:20:21.176Z,french_714.wav,0,pull,505,62,4,5,français,m,7,0.7,66.94076888,1.6442642
657b128079618c853ed056b4,31,0,2024-02-27T11:20:21.176Z,french_714.wav,0,pull,505,62,4,5,français,m,8,0.8,57.76397855,1.16580862
657b128079618c853ed056b4,31,0,2024-02-27T11:20:21.176Z,french_714.wav,0,pull,505,62,4,5,français,m,9,0.9,-44.74008532,0.14338442
657b128079618c853ed056b4,31,0,2024-02-27T11:20:21.176Z,french_714.wav,0,pull,505,62,4,5,français,m,10,1.0,2.87251243,1.85438603
657b128079618c853ed056b4,31,0,2024-02-27T11:20:21.176Z,french_714.wav,0,pull,505,62,4,5,français,m,11,1.1,-46.16839405,1.87453004
657b128079618c853ed056b4,31,0,2024-02-27T11:20:21.176Z,french_714.wav,0,pull,505,62,4,5,français,m,12,1.14141667,-2.68285776,0.8079694
657b128079618c853ed056b4,32,0,2024-02-27T11:20:21.176Z,french_119.wav,0,poule,421,62,4,5,français,m,0,0.0,-46.46293881,1.20748333
657b128079618c853ed056b4,32,0,2024-02-27T11:20:21.176Z,french_119.wav,0,poule,421,62,4,5,français,m,1,0.1,36.58591631,0.93241829
657b128079618c853ed056b4,32,0,2024-02-27T11:20:21.176Z,french_119.wav,0,poule,421,62,4,5,français,m,2,0.2,50.38502511,0.66065298
657b128079618c853ed056b4,32,0,2024-02-27T11:20:21.176Z,french_119.wav,0,poule,421,62,4,5,français,m,3,0.3,-66.12823015,0.45259025
657b128079618c853ed056b4,32,0,2024-02-27T11:20:21.176Z,french_119.wav,0,poule,421,62,4,5,français,m,4,0.4,-77.21600754,0.97197432
657b128079618c853ed056b4,32,0,2024-02-27T11:20:21.176Z,french_119.wav,0,poule,421,62,4,5,français,m,5,0.5,6.000212,0.91187225
657b128079618c853ed056b4,32,0,2024-02-27T11:20:21.176Z,french_119.wav,0,poule,421,62,4,5,français,m,6,0.6,-4.76341262,1.2216298
657b128079618c853ed056b4,32,0,2024-02-27T11:20:21.176Z,french_119.wav,0,poule,421,62,4,5,français,m,7,0.7,7.45357195,1.53033872
657b128079618c853ed056b4,32,0,2024-02-27T11:20:21.176Z,french_119.wav,0,poule,421,62,4,5,français,m,8,0.8,-26.58843139,0.74678716
657b128079618c853ed056b4,32,0,2024-02-27T11:20:21.176Z,french_119.wav,0,poule,421,62,4,5,français,m,9,0.9,31.49724547,1.79882331
657b128079618c853ed056b4,32,0,2024-02-27T11:20:21.176Z,french_119.wav,0,poule,421,62,4,5,français,m,10,1.0,28.64688836,0.9366063
657b128079618c853ed056b4,32,0,2024-02-27T11:20:21.176Z,french_119.wav,0,poule,421,62,4,5,français,m,11,1.1,-76.72305376,1.21120155
657b128079618c853ed056b4,32,0,2024-02-27T11:20:21.176Z,french_119.wav,0,poule,421,62,4,5,français,m,12,1.14141667,-86.52721647,0.65657425
657b128079618c853ed056b4,33,0,2024-02-27T11:20:21.176Z,french_556.wav,0,poule,422,62,4,5,français,m,0,0.0,-30.62895729,1.84589581
657b128079618c853ed056b4,33,0,2024-02-27T11:20:21.176Z,french_556.wav,0,poule,422,62,4,5,français,m,1,0.1,64.37703021,1.73651451
657b128079618c853ed056b4,33,0,2024-02-27T11:20:21.176Z,french_556.wav,0,poule,422,62,4,5,français,m,2,0.2,36.98575807,0.16567731
657b128079618c853ed056b4,33,0,2024-02-27T11:20:21.176Z,french_556.wav,0,poule,422,62,4,5,français,m,3,0.3,19.11574957,0.31305634
657b128079618c853ed056b4,33,0,2024-02-27T11:20:21.176Z,french_556.wav,0,poule,422,62,4,5,français,m,4,0.4,89.62577902,1.79061468
657b128079618c853ed056b4,33,0,2024-02-27T11:20:21.176Z,french_556.wav,0,poule,422,62,4,5,français,m,5,0.5,60.7088706,0.86994548
657b128079618c853ed056b4,33,0,2024-02-27T11:20:21.176Z,french_556.wav,0,poule,422,62,4,5,français,m,6,0.6,-62.8516134,1.36507629
657b128079618c853ed056b4,33,0,2024-02-27T11:20:21.176Z,french_556.wav,0,poule,422,62,4,5,français,m,7,0.7,-39.43238068,0.69698054
657b128079618c853ed056b4,33,0,2024-02-27T11:20:21.176Z,french_556.wav,0,poule,422,62,4,5,français,m,8,0.8,-47.12121114,1.7863841
657b128079618c853ed056b4,33,0,2024-02-27T11:20:21.176Z,french_556.wav,0,poule,422,62,4,5,français,m,9,0.9,11.83990719,0.92331121
657b128079618c853ed056b4,33,0,2024-02-27T11:20:21.176Z,french_556.wav,0,poule,422,62,4,5,français,m,10,1.0,-21.1475117,1.29940684
657b128079618c853ed056b4,33,0,2024-02-27T11:20:21.176Z,french_556.wav,0,poule,422,62,4,5,français,m,11,1.1,-1.79697267,1.17001647
657b128079618c853ed056b4,33,0,2024-02-27T11:20:21.176Z,french_556.wav,0,poule,422,62,4,5,français,m,12,1.14141667,-69.11891229,0.89909852
657b128079618c853ed056b4,34,0,2024-02-27T11:20:21.176Z,french_761.wav,0,pull,477,62,4,5,français,m,0,0.0,-4.65368555,1.68992553
657b128079618c853ed056b4,34,0,2024-02-27T11:20:21.176Z,french_761.wav,0,pull,477,62,4,5,français,m,1,0.1,-95.02047891,1.90989282
657b128079618c853ed056b4,34,0,2024-02-27T11:20:21.176Z,french_761.wav,0,pull,477,62,4,5,français,m,2,0.2,-46.13477508,1.32561582
657b128079618c853ed056b4,34,0,2024-02-27T11:20:21.176Z,french_761.wav,0,pull,477,62,4,5,français,m,3,0.3,44.60720678,1.43060887
657b128079618c853ed056b4,34,0,2024-02-27T11:20:21.176Z,french_761.wav,0,pull,477,62,4,5,français,m,4,0.4,-56.15470629,0.29002682
657b128079618c853ed056b4,34,0,2024-02-27T11:20:21.176Z,french_761.wav,0,pull,477,62,4,5,français,m,5,0.5,-5.62885822,1.48383664
657b128079618c853ed056b4,34,0,2024-02-27T11:20:21.176Z,french_761.wav,0,pull,477,62,4,5,français,m,6,0.6,16.04939415,0.48742164
657b128079618c853ed056b4,34,0,2024-02-27T11:20:21.176Z,french_761.wav,0,pull,477,62,4,5,français,m,7,0.7,-7.40448264,0.57849003
657b128079618c853ed056b4,34,0,2024-02-27T11:20:21.176Z,french_761.wav,0,pull,477,62,4,5,français,m,8,0.8,-49.19151668,0.03179743
657b128079618c853ed056b4,34,0,2024-02-27T11:20:21.176Z,french_761.wav,0,pull,477,62,4,5,français,m,9,0.9,-21.58992812,1.574395
657b128079618c853ed056b4,34,0,2024-02-27T11:20:21.176Z,french_761.wav,0,pull,477,62,4,5,français,m,10,1.0,97.9984375,1.21779741
657b128079618c853ed056b4,34,0,2024-02-27T11:20:21.176Z,french_761.wav,0,pull,477,62,4,5,français,m,11,1.1,-54.45281711,1.83689478
657b128079618c853ed056b4,34,0,2024-02-27T11:20:21.176Z,french_761.wav,0,pull,477,62,4,5,français,m,12,1.14141667,96.15058985,0.73963704
657b128079618c853ed056b4,35,0,2024-02-27T11:20:21.176Z,french_628.wav,0,pull,621,62,4,5,français,m,0,0.0,28.98064776,0.98418997
657b128079618c853ed056b4,35,0,2024-02-27T11:20:21.176Z,french_628.wav,0,pull,621,62,4,5,français,m,1,0.1,97.12286429,0.16344307
657b128079618c853ed056b4,35,0,2024-02-27T11:20:21.176Z,french_628.wav,0,pull,621,62,4,5,français,m,2,0.2,-80.73889599,1.6205545
657b128079618c853ed056b4,35,0,2024-02-27T11:20:21.176Z,french_628.wav,0,pull,621,62,4,5,français,m,3,0.3,-34.13229865,0.04211558
657b128079618c853ed056b4,35,0,2024-02-27T11:20:21.176Z,french_628.wav,0,pull,621,62,4,5,français,m,4,0.4,-28.25789245,0.29146504
657b128079618c853ed056b4,35,0,2024-02-27T11:20:21.176Z,french_628.wav,0,pull,621,62,4,5,français,m,5,0.5,30.74174251,1.00822946
657b128079618c853ed056b4,35,0,2024-02-27T11:20:21.176Z,french_628.wav,0,pull,621,62,4,5,français,m,6,0.6,-70.42701558,0.99852998
657b128079618c853ed056b4,35,0,2024-02-27T11:20:21.176Z,french_628.wav,0,pull,621,62,4,5,français,m,7,0.7,-79.42848468,0.12148108
657b128079618c853ed056b4,35,0,2024-02-27T11:20:21.176Z,french_628.wav,0,pull,621,62,4,5,français,m,8,0.8,-11.29296583,1.58757857
657b128079618c853ed056b4,35,0,2024-02-27T11:20:21.176Z,french_628.wav,0,pull,621,62,4,5,français,m,9,0.9,56.44608255,1.131434
657b128079618c853ed056b4,35,0,2024-02-27T11:20:21.176Z,french_628.wav,0,pull,621,62,4,5,français,m,10,1.0,-50.79678899,1.07078584
657b128079618c853ed056b4,35,0,2024-02-27T11:20:21.176Z,french_628.wav,0,pull,621,62,4,5,français,m,11,1.1,36.60975174,0.65492456
657b128079618c853ed056b4,35,0,2024-02-27T11:20:21.176Z,french_628.wav,0,pull,621,62,4,5,français,m,12,1.14141667,2.28400586,1.36384742
657b128079618c853ed056b4,36,0,2024-02-27T11:20:21.176Z,french_783.wav,0,poule,372,62,4,5,français,m,0,0.0,67.95688706,1.32033802
657b128079618c853ed056b4,36,0,2024-02-27T11:20:21.176Z,french_783.wav,0,poule,372,62,4,5,français,m,1,0.1,66.58489906,1.08556824
657b128079618c853ed056b4,36,0,2024-02-27T11:20:21.176Z,french_783.wav,0,poule,372,62,4,5,français,m,2,0.2,-41.94359354,0.61415439
657b128079618c853ed056b4,36,0,2024-02-27T11:20:21.176Z,french_783.wav,0,poule,372,62,4,5,français,m,3,0.3,60.84755071,0.40512708
657b128079618c853ed056b4,36,0,2024-02-27T11:20:21.176Z,french_783.wav,0,poule,372,62,4,5,français,m,4,0.4,-30.61881203,0.06015789
657b128079618c853ed056b4,36,0,2024-02-27T11:20:21.176Z,french_783.wav,0,poule,372,62,4,5,français,m,5,0.5,-40.67842679,0.65199148
657b128079618c853ed056b4,36,0,2024-02-27T11:20:21.176Z,french_783.wav,0,poule,372,62,4,5,français,m,6,0.6,64.08569012,0.78956563
657b128079618c853ed056b4,36,0,2024-02-27T11:20:21.176Z,french_783.wav,0,poule,372,62,4,5,français,m,7,0.7,99.13880064,0.80807467
657b128079618c853ed056b4,36,0,2024-02-27T11:20:21.176Z,french_783.wav,0,poule,372,62,4,5,français,m,8,0.8,-12.83246815,0.85940772
657b128079618c853ed056b4,36,0,2024-02-27T11:20:21.176Z,french_783.wav,0,poule,372,62,4,5,français,m,9,0.9,10.70429708,1.2718336
657b128079618c853ed056b4,36,0,2024-02-27T11:20:21.176Z,french_783.wav,0,poule,372,62,4,5,français,m,10,1.0,-81.74688152,1.76451942
657b128079618c853ed056b4,36,0,2024-02-27T11:20:21.176Z,french_783.wav,0,poule,372,62,4,5,français,m,11,1.1,-91.16540139,1.6213532
657b128079618c853ed056b4,36,0,2024-02-27T11:20:21.176Z,french_783.wav,0,poule,372,62,4,5,français,m,12,1.14141667,62.13275496,0.99499193
657b128079618c853ed056b4,37,0,2024-02-27T11:20:21.176Z,french_805.wav,0,poule,523,62,4,5,français,m,0,0.0,-44.55735502,0.30537306
657b128079618c853ed056b4,37,0,2024-02-27T11:20:21.176Z,french_805.wav,0,poule,523,62,4,5,français,m,1,0.1,-15.81782327,0.95683225
657b128079618c853ed056b4,37,0,2024-02-27T11:20:21.176Z,french_805.wav,0,poule,523,62,4,5,français,m,2,0.2,-60.55488751,1.47185568
657b128079618c853ed056b4,37,0,2024-02-27T11:20:21.176Z,french_805.wav,0,poule,523,62,4,5,français,m,3,0.3,-22.03480197,0.27583044
657b128079618c853ed056b4,37,0,2024-02-27T11:20:21.176Z,french_805.wav,0,poule,523,62,4,5,français,m,4,0.4,-82.42416276,1.40306371
657b128079618c853ed056b4,37,0,2024-02-27T11:20:21.176Z,french_805.wav,0,poule,523,62,4,5,français,m,5,0.5,26.6793054,0.29904003
657b128079618c853ed056b4,37,0,2024-02-27T11:20:21.176Z,french_805.wav,0,poule,523,62,4,5,français,m,6,0.6,-90.86223061,0.10571209
657b128079618c853ed056b4,37,0,2024-02-27T11:20:21.176Z,french_805.wav,0,poule,523,62,4,5,français,m,7,0.7,-32.61383863,1.80090028
657b128079618c853ed056b4,37,0,2024-02-27T11:20:21.176Z,french_805.wav,0,poule,523,62,4,5,français,m,8,0.8,-25.8862389,1.4046027
657b128079618c853ed056b4,37,0,2024-02-27T11:20:21.176Z,french_805.wav,0,poule,523,62,4,5,français,m,9,0.9,-83.72221214,1.0925065
657b128079618c853ed056b4,37,0,2024-02-27T11:20:21.176Z,french_805.wav,0,poule,523,62,4,5,français,m,10,1.0,9.78399033,0.78385676
657b128079618c853ed056b4,37,0,2024-02-27T11:20:21.176Z,french_805.wav,0,poule,523,62,4,5,français,m,11,1.1,-75.28148503,0.24940616
657b128079618c853ed056b4,37,0,2024-02-27T11:20:21.176Z,french_805.wav,0,poule,523,62,4,5,français,m,12,1.14141667,-45.84381211,0.58218615
657b128079618c853ed056b4,38,0,2024-02-27T11:20:21.176Z,french_597.wav,0,poule,619,62,4,5,français,m,0,0.0,3.81117618,0.64425147
657b128079618c853ed056b4,38,0,2024-02-27T11:20:21.176Z,french_597.wav,0,poule,619,62,4,5,français,m,1,0.1,1.65290583,1.80851034
657b128079618c853ed056b4,38,0,2024-02-27T11:20:21.176Z,french_597.wav,0,poule,619,62,4,5,français,m,2,0.2,75.20334273,0.13064714
657b128079618c853ed056b4,38,0,2024-02-27T11:20:21.176Z,french_597.wav,0,poule,619,62,4,5,français,m,3,0.3,-31.80520796,1.14595158
657b128079618c853ed056b4,38,0,2024-02-27T11:20:21.176Z,french_597.wav,0,poule,619,62,4,5,français,m,4,0.4,47.06388339,1.20714689
657b128079618c853ed056b4,38,0,2024-02-27T11:20:21.176Z,french_597.wav,0,poule,619,62,4,5,français,m,5,0.5,-12.18502222,1.21300166
657b128079618c853ed056b4,38,0,2024-02-27T11:20:21.176Z,french_597.wav,0,poule,619,62,4,5,français,m,6,0.6,16.00653048,1.59786204
657b128079618c853ed056b4,38,0,2024-02-27T11:20:21.176Z,french_597.wav,0,poule,619,62,4,5,français,m,7,0.7,-1.06509013,1.5777009
657b128079618c853ed056b4,38,0,2024-02-27T11:20:21.176Z,french_597.wav,0,poule,619,62,4,5,français,m,8,0.8,-88.67460342,1.85046757
657b128079618c853ed056b4,38,0,2024-02-27T11:20:21.176Z,french_597.wav,0,poule,619,62,4,5,français,m,9,0.9,79.23096379,0.15850725
657b128079618c853ed056b4,38,0,2024-02-27T11:20:21.176Z,french_597.wav,0,poule,619,62,4,5,français,m,10,1.0,-37.6385831,0.67581982
657b128079618c853ed056b4,38,0,2024-02-27T11:20:21.176Z,french_597.wav,0,poule,619,62,4,5,français,m,11,1.1,-82.3453721,0.97379481
657b128079618c853ed056b4,38,0,2024-02-27T11:20:21.176Z,french_597.wav,0,poule,619,62,4,5,français,m,12,1.14141667,50.39965119,1.28226838
657b128079618c853ed056b4,39,0,2024-02-27T11:20:21.176Z,french_244.wav,0,poule,658,62,4,5,français,m,0,0.0,-40.90857257,1.48710022
657b128079618c853ed056b4,39,0,2024-02-27T11:20:21.176Z,french_244.wav,0,poule,658,62,4,5,français,m,1,0.1,-23.19940354,1.78796145
657b128079618c853ed056b4,39,0,2024-02-27T11:20:21.176Z,french_244.wav,0,poule,658,62,4,5,français,m,2,0.2,-9.74154174,0.48835371
657b128079618c853ed056b4,39,0,2024-02-27T11:20:21.176Z,french_244.wav,0,poule,658,62,4,5,français,m,3,0.3,87.19522638,1.90695857
657b128079618c853ed056b4,39,0,2024-02-27T11:20:21.176Z,french_244.wav,0,poule,658,62,4,5,français,m,4,0.4,-7.49916647,0.52976083
657b128079618c853ed056b4,39,0,2024-02-27T11:20:21.176Z,french_244.wav,0,poule,658,62,4,5,français,m,5,0.5,-95.1828161,1.55056133
657b128079618c853ed056b4,39,0,2024-02-27T11:20:21.176Z,french_244.wav,0,poule,658,62,4,5,français,m,6,0.6,-18.16824401,0.52884278
657b128079618c853ed056b4,39,0,2024-02-27T11:20:21.176Z,french_244.wav,0,poule,658,62,4,5,français,m,7,0.7,-82.50536742,1.94726977
657b128079618c853ed056b4,39,0,2024-02-27T11:20:21.176Z,french_244.wav,0,poule,658,62,4,5,français,m,8,0.8,-31.01536133,1.32231376
657b128079618c853ed056b4,39,0,2024-02-27T11:20:21.176Z,french_244.wav,0,poule,658,62,4,5,français,m,9,0.9,-10.22104565,0.62488791
657b128079618c853ed056b4,39,0,2024-02-27T11:20:21.176Z,french_244.wav,0,poule,658,62,4,5,français,m,10,1.0,-10.44065108,0.52375366
657b128079618c853ed056b4,39,0,2024-02-27T11:20:21.176Z,french_244.wav,0,poule,658,62,4,5,français,m,11,1.1,-73.85387114,0.61432095
657b128079618c853ed056b4,39,0,2024-02-27T11:20:21.176Z,french_244.wav,0,poule,658,62,4,5,français,m,12,1.14141667,-85.30185074,1.48327973
657b128079618c853ed056b4,40,0,2024-02-27T11:20:21.176Z,french_19.wav,0,pull,595,62,4,5,français,m,0,0.0,-15.85396014,0.42164348
657b128079618c853ed056b4,40,0,2024-02-27T11:20:21.176Z,french_19.wav,0,pull,595,62,4,5,français,m,1,0.1,23.57988749,0.56417691
657b128079618c853ed056b4,40,0,2024-02-27T11:20:21.176Z,french_19.wav,0,pull,595,62,4,5,français,m,2,0.2,90.5407412,1.21613489
657b128079618c853ed056b4,40,0,2024-02-27T11:20:21.176Z,french_19.wav,0,pull,595,62,4,5,français,m,3,0.3,54.36086044,1.77542269
657b128079618c853ed056b4,40,0,2024-02-27T11:20:21.176Z,french_19.wav,0,pull,595,62,4,5,français,m,4,0.4,-76.80072536,1.88282697
657b128079618c853ed056b4,40,0,2024-02-27T11:20:21.176Z,french_19.wav,0,pull,595,62,4,5,français,m,5,0.5,4.74522472,1.35259083
657b128079618c853ed056b4,40,0,2024-02-27T11:20:21.176Z,french_19.wav,0,pull,595,62,4,5,français,m,6,0.6,61.23738329,1.70484982
657b128079618c853ed056b4,40,0,2024-02-27T11:20:21.176Z,french_19.wav,0,pull,595,62,4,5,français,m,7,0.7,13.41741959,0.27300571
657b128079618c853ed056b4,40,0,2024-02-27T11:20:21.176Z,french_19.wav,0,pull,595,62,4,5,français,m,8,0.8,-83.99617766,0.56573118
657b128079618c853ed056b4,40,0,2024-02-27T11:20:21.176Z,french_19.wav,0,pull,595,62,4,5,français,m,9,0.9,47.05289938,1.23296436
657b128079618c853ed056b4,40,0,2024-02-27T11:20:21.176Z,french_19.wav,0,pull,595,62,4,5,français,m,10,1.0,63.84619237,0.73939236
657b128079618c853ed056b4,40,0,2024-02-27T11:20:21.176Z,french_19.wav,0,pull,595,62,4,5,français,m,11,1.1,70.82125043,0.292558
657b128079618c853ed056b4,40,0,2024-02-27T11:20:21.176Z,french_19.wav,0,pull,595,62,4,5,français,m,12,1.14141667,42.43080479,1.64361302
657b128079618c853ed056b4,41,0,2024-02-27T11:20:21.176Z,french_884.wav,0,pull,1584,62,4,5,français,m,0,0.0,76.60838861,1.25391535
657b128079618c853ed056b4,41,0,2024-02-27T11:20:21.176Z,french_884.wav,0,pull,1584,62,4,5,français,m,1,0.1,-41.71607783,0.49990107
657b128079618c853ed056b4,41,0,2024-02-27T11:20:21.176Z,french_884.wav,0,pull,1584,62,4,5,français,m,2,0.2,3.78955534,1.78461269
657b128079618c853ed056b4,41,0,2024-02-27T11:20:21.176Z,french_884.wav,0,pull,1584,62,4,5,français,m,3,0.3,84.8602831,1.65174889
657b128079618c853ed056b4,41,0,2024-02-27T11:20:21.176Z,french_884.wav,0,pull,1584,62,4,5,français,m,4,0.4,16.24540696,0.71422903
657b128079618c853ed056b4,41,0,2024-02-27T11:20:21.176Z,french_884.wav,0,pull,1584,62,4,5,français,m,5,0.5,68.23827876,0.8676404
657b128079618c853ed056b4,41,0,2024-02-27T11:20:21.176Z,french_884.wav,0,pull,1584,62,4,5,français,m,6,0.6,-39.71005998,0.5442146
657b128079618c853ed056b4,41,0,2024-02-27T11:20:21.176Z,french_884.wav,0,pull,1584,62,4,5,français,m,7,0.7,-63.62075652,1.40281909
657b128079618c853ed056b4,41,0,2024-02-27T11:20:21.176Z,french_884.wav,0,pull,1584,62,4,5,français,m,8,0.8,-57.73110382,0.85462819
657b128079618c853ed056b4,41,0,2024-02-27T11:20:21.176Z,french_884.wav,0,pull,1584,62,4,5,français,m,9,0.9,-99.10016615,0.70808592
657b128079618c853ed056b4,41,0,2024-02-27T11:20:21.176Z,french_884.wav,0,pull,1584,62,4,5,français,m,10,1.0,-27.53166894,1.31831149
657b128079618c853ed056b4,41,0,2024-02-27T11:20:21.176Z,french_884.wav,0,pull,1584,62,4,5,français,m,11,1.1,-48.35308155,0.34930191
657b128079618c853ed056b4,41,0,2024-02-27T11:20:21.176Z,french_884.wav,0,pull,1584,62,4,5,français,m,12,1.14141667,-12.55349758,0.2030207
657b128079618c853ed056b4,42,0,2024-02-27T11:20:21.176Z,french_946.wav,0,pull,1992,62,4,5,français,m,0,0.0,-55.67612518,0.4439597
657b128079618c853ed056b4,42,0,2024-02-27T11:20:21.176Z,french_946.wav,0,pull,1992,62,4,5,français,m,1,0.1,-16.03559422,0.03929623
657b128079618c853ed056b4,42,0,2024-02-27T11:20:21.176Z,french_946.wav,0,pull,1992,62,4,5,français,m,2,0.2,-53.91064696,1.70924034
657b128079618c853ed056b4,42,0,2024-02-27T11:20:21.176Z,french_946.wav,0,pull,1992,62,4,5,français,m,3,0.3,-54.26086959,1.28648534
657b128079618c853ed056b4,42,0,2024-02-27T11:20:21.176Z,french_946.wav,0,pull,1992,62,4,5,français,m,4,0.4,-68.76085781,1.86835463
657b128079618c853ed056b4,42,0,2024-02-27T11:20:21.176Z,french_946.wav,0,pull,1992,62,4,5,français,m,5,0.5,59.18925829,1.39467098
657b128079618c853ed056b4,42,0,2024-02-27T11:20:21.176Z,french_946.wav,0,pull,1992,62,4,5,français,m,6,0.6,63.61101254,0.62769918
657b128079618c853ed056b4,42,0,2024-02-27T11:20:21.176Z,french_946.wav,0,pull,1992,62,4,5,français,m,7,0.7,87.82589692,0.63219143
657b128079618c853ed056b4,42,0,2024-02-27T11:20:21.176Z,french_946.wav,0,pull,1992,62,4,5,français,m,8,0.8,30.01203982,0.36165151
657b128079618c853ed056b4,42,0,2024-02-27T11:20:21.176Z,french_946.wav,0,pull,1992,62,4,5,français,m,9,0.9,-24.26556885,0.01038162
657b128079618c853ed056b4,42,0,2024-02-27T11:20:21.176Z,french_946.wav,0,pull,1992,62,4,5,français,m,10,1.0,-42.07057407,1.38502095
657b128079618c853ed056b4,42,0,2024-02-27T11:20:21.176Z,french_946.wav,0,pull,1992,62,4,5,français,m,11,1.1,-49.30472811,0.34691407
657b128079618c853ed056b4,42,0,2024-02-27T11:20:21.176Z,french_946.wav,0,pull,1992,62,4,5,français,m,12,1.14141667,9.32164167,1.3196907
657b128079618c853ed056b4,43,0,2024-02-27T11:20:21.176Z,french_110.wav,0,pull,1207,62,4,5,français,m,0,0.0,-49.55382507,1.59273092
657b128079618c853ed056b4,43,0,2024-02-27T11:20:21.176Z,french_110.wav,0,pull,1207,62,4,5,français,m,1,0.1,3.45056557,0.34265347
657b128079618c853ed056b4,43,0,2024-02-27T11:20:21.176Z,french_110.wav,0,pull,1207,62,4,5,français,m,2,0.2,60.85553291,1.89522696
657b128079618c853ed056b4,43,0,2024-02-27T11:20:21.176Z,french_110.wav,0,pull,1207,62,4,5,français,m,3,0.3,27.01273716,1.37531992
657b128079618c853ed056b4,43,0,2024-02-27T11:20:21.176Z,french_110.wav,0,pull,1207,62,4,5,français,m,4,0.4,69.39855055,0.92990778
657b128079618c853ed056b4,43,0,2024-02-27T11:20:21.176Z,french_110.wav,0,pull,1207,62,4,5,français,m,5,0.5,-57.48674894,0.17949399
657b128079618c853ed056b4,43,0,2024-02-27T11:20:21.176Z,french_110.wav,0,pull,1207,62,4,5,français,m,6,0.6,9.44204119,1.02012289
657b128079618c853ed056b4,43,0,2024-02-27T11:20:21.176Z,french_110.wav,0,pull,1207,62,4,5,français,m,7,0.7,8.79064651,0.69455485
657b128079618c853ed056b4,43,0,2024-02-27T11:20:21.176Z,french_110.wav,0,pull,1207,62,4,5,français,m,8,0.8,-59.90874368,0.57470009
657b128079618c853ed056b4,43,0,2024-02-27T11:20:21.176Z,french_110.wav,0,pull,1207,62,4,5,français,m,9,0.9,-59.0130881,0.48670798
657b128079618c853ed056b4,43,0,2024-02-27T11:20:21.176Z,french_110.wav,0,pull,1207,62,4,5,français,m,10,1.0,53.21957995,1.28651513
657b128079618c853ed056b4,43,0,2024-02-27T11:20:21.176Z,french_110.wav,0,pull,1207,62,4,5,français,m,11,1.1,-40.30790368,1.81922057
657b128079618c853ed056b4,43,0,2024-02-27T11:20:21.176Z,french_110.wav,0,pull,1207,62,4,5,français,m,12,1.14141667,27.6270525,0.80818814
657b128079618c853ed056b4,44,0,2024-02-27T11:20:21.176Z,french_352.wav,0,poule,444,62,4,5,français,m,0,0.0,10.73486736,0.92635418
657b128079618c853ed056b4,44,0,2024-02-27T11:20:21.176Z,french_352.wav,0,poule,444,62,4,5,français,m,1,0.1,-2.13704655,1.35141752
657b128079618c853ed056b4,44,0,2024-02-27T11:20:21.176Z,french_352.wav,0,poule,444,62,4,5,français,m,2,0.2,28.17863461,1.44107808
657b128079618c853ed056b4,44,0,2024-02-27T11:20:21.176Z,french_352.wav,0,poule,444,62,4,5,français,m,3,0.3,31.31595099,0.55561757
657b128079618c853ed056b4,44,0,2024-02-27T11:20:21.176Z,french_352.wav,0,poule,444,62,4,5,français,m,4,0.4,78.82756463,1.72995487
657b128079618c853ed056b4,44,0,2024-02-27T11:20:21.176Z,french_352.wav,0,poule,444,62,4,5,français,m,5,0.5,83.48671707,0.72311037
657b128079618c853ed056b4,44,0,2024-02-27T11:20:21.176Z,french_352.wav,0,poule,444,62,4,5,français,m,6,0.6,-30.66584618,0.44618391
657b128079618c853ed056b4,44,0,2024-02-27T11:20:21.176Z,french_352.wav,0,poule,444,62,4,5,français,m,7,0.7,81.60814872,0.87849223
657b128079618c853ed056b4,44,0,2024-02-27T11:20:21.176Z,french_352.wav,0,poule,444,62,4,5,français,m,8,0.8,7.8464664,1.36014926
657b128079618c853ed056b4,44,0,2024-02-27T11:20:21.176Z,french_352.wav,0,poule,444,62,4,5,français,m,9,0.9,-79.02516518,1.59973975
657b128079618c853ed056b4,44,0,2024-02-27T11:20:21.176Z,french_352.wav,0,poule,444,62,4,5,français,m,10,1.0,-33.20547634,1.01580825
657b128079618c853ed056b4,44,0,2024-02-27T11:20:21.176Z,french_352.wav,0,poule,444,62,4,5,français,m,11,1.1,-36.70872287,0.8147003
657b128079618c853ed056b4,44,0,2024-02-27T11:20:21.176Z,french_352.wav,0,poule,444,62,4,5,français,m,12,1.14141667,97.65700818,1.87612807
657b128079618c853ed056b4,45,0,2024-02-27T11:20:21.176Z,french_407.wav,0,poule,417,62,4,5,français,m,0,0.0,-52.73012387,0.24402757
657b128079618c853ed056b4,45,0,2024-02-27T11:20:21.176Z,french_407.wav,0,poule,417,62,4,5,français,m,1,0.1,-28.5729864,1.29210695
657b128079618c853ed056b4,45,0,2024-02-27T11:20:21.176Z,french_407.wav,0,poule,417,62,4,5,français,m,2,0.2,-47.07796397,0.06046572
657b128079618c853ed056b4,45,0,2024-02-27T11:20:21.176Z,french_407.wav,0,poule,417,62,4,5,français,m,3,0.3,17.74684299,1.10042584
657b128079618c853ed056b4,45,0,2024-02-27T11:20:21.176Z,french_407.wav,0,poule,417,62,4,5,français,m,4,0.4,37.34640295,1.69104448
657b128079618c853ed056b4,45,0,2024-02-27T11:20:21.176Z,french_407.wav,0,poule,417,62,4,5,français,m,5,0.5,-42.43796403,0.59648632
657b128079618c853ed056b4,45,0,2024-02-27T11:20:21.176Z,french_407.wav,0,poule,417,62,4,5,français,m,6,0.6,-61.80417458,0.39705946
657b128079618c853ed056b4,45,0,2024-02-27T11:20:21.176Z,french_407.wav,0,poule,417,62,4,5,français,m,7,0.7,-21.46496731,0.26343711
657b128079618c853ed056b4,45,0,2024-02-27T11:20:21.176Z,french_407.wav,0,poule,417,62,4,5,français,m,8,0.8,95.609946,0.85042411
657b128079618c853ed056b4,45,0,2024-02-27T11:20:21.176Z,french_407.wav,0,poule,417,62,4,5,français,m,9,0.9,16.31222417,1.08752782
657b128079618c853ed056b4,45,0,2024-02-27T11:20:21.176Z,french_407.wav,0,poule,417,62,4,5,français,m,10,1.0,-16.20883131,1.29538933
657b128079618c853ed056b4,45,0,2024-02-27T11:20:21.176Z,french_407.wav,0,poule,417,62,4,5,français,m,11,1.1,-36.82799384,0.90220762
657b128079618c853ed056b4,45,0,2024-02-27T11:20:21.176Z,french_407.wav,0,poule,417,62,4,5,français,m,12,1.14141667,63.4089875,1.14604251
657b128079618c853ed056b4,46,0,2024-02-27T11:20:21.176Z,french_527.wav,0,pull,1669,62,4,5,français,m,0,0.0,82.21391649,0.16629569
657b128079618c853ed056b4,46,0,2024-02-27T11:20:21.176Z,french_527.wav,0,pull,1669,62,4,5,français,m,1,0.1,8.23446924,0.53206339
657b128079618c853ed056b4,46,0,2024-02-27T11:20:21.176Z,french_527.wav,0,pull,1669,62,4,5,français,m,2,0.2,-66.78536599,0.7302175
657b128079618c853ed056b4,46,0,2024-02-27T11:20:21.176Z,french_527.wav,0,pull,1669,62,4,5,français,m,3,0.3,91.71269389,1.32409314
657b128079618c853ed056b4,46,0,2024-02-27T11:20:21.176Z,french_527.wav,0,pull,1669,62,4,5,français,m,4,0.4,38.34506198,0.73265348
657b128079618c853ed056b4,46,0,2024-02-27T11:20:21.176Z,french_527.wav,0,pull,1669,62,4,5,français,m,5,0.5,11.54452605,1.69253874
657b128079618c853ed056b4,46,0,2024-02-27T11:20:21.176Z,french_527.wav,0,pull,1669,62,4,5,français,m,6,0.6,96.28222232,1.17892536
657b128079618c853ed056b4,46,0,2024-02-27T11:20:21.176Z,french_527.wav,0,pull,1669,62,4,5,français,m,7,0.7,-47.65455755,0.38924981
657b128079618c853ed056b4,46,0,2024-02-27T11:20:21.176Z,french_527.wav,0,pull,1669,62,4,5,français,m,8,0.8,-79.10134883,1.19695385
657b128079618c853ed056b4,46,0,2024-02-27T11:20:21.176Z,french_527.wav,0,pull,1669,62,4,5,français,m,9,0.9,28.80832425,0.99788434
657b128079618c853ed056b4,46,0,2024-02-27T11:20:21.176Z,french_527.wav,0,pull,1669,62,4,5,français,m,10,1.0,42.88340192,1.07124619
657b128079618c853ed056b4,46,0,2024-02-27T11:20:21.176Z,french_527.wav,0,pull,1669,62,4,5,français,m,11,1.1,-29.0066371,1.45535326
657b128079618c853ed056b4,46,0,2024-02-27T11:20:21.176Z,french_527.wav,0,pull,1669,62,4,5,français,m,12,1.14141667,-55.47213333,1.05284773
657b128079618c853ed056b4,47,0,2024-02-27T11:20:21.176Z,french_194.wav,0,poule,478,62,4,5,français,m,0,0.0,-60.01930183,0.43224252
657b128079618c853ed056b4,47,0,2024-02-27T11:20:21.176Z,french_194.wav,0,poule,478,62,4,5,français,m,1,0.1,20.30972586,0.07832547
657b128079618c853ed056b4,47,0,2024-02-27T11:20:21.176Z,french_194.wav,0,poule,478,62,4,5,français,m,2,0.2,67.38310892,1.91786387
657b128079618c853ed056b4,47,0,2024-02-27T11:20:21.176Z,french_194.wav,0,poule,478,62,4,5,français,m,3,0.3,-95.50489651,0.91072931
657b128079618c853ed056b4,47,0,2024-02-27T11:20:21.176Z,french_194.wav,0,poule,478,62,4,5,français,m,4,0.4,-2.12670272,1.344361
657b128079618c853ed056b4,47,0,2024-02-27T11:20:21.176Z,french_194.wav,0,poule,478,62,4,5,français,m,5,0.5,-51.50884311,1.10988815
657b128079618c853ed056b4,47,0,2024-02-27T11:20:21.176Z,french_194.wav,0,poule,478,62,4,5,français,m,6,0.6,75.39740949,1.25269149
657b128079618c853ed056b4,47,0,2024-02-27T11:20:21.176Z,french_194.wav,0,poule,478,62,4,5,français,m,7,0.7,-12.50950669,1.78944925
657b128079618c853ed056b4,47,0,2024-02-27T11:20:21.176Z,french_194.wav,0,poule,478,62,4,5,français,m,8,0.8,48.91718695,0.28624108
657b128079618c853ed056b4,47,0,2024-02-27T11:20:21.176Z,french_194.wav,0,poule,478,62,4,5,français,m,9,0.9,-19.59697026,1.1001374
657b128079618c853ed056b4,47,0,2024-02-27T11:20:21.176Z,french_194.wav,0,poule,478,62,4,5,français,m,10,1.0,-32.7166779,0.63979411
657b128079618c853ed056b4,47,0,2024-02-27T11:20:21.176Z,french_194.wav,0,poule,478,62,4,5,français,m,11,1.1,55.31271575,0.40558529
657b128079618c853ed056b4,47,0,2024-02-27T11:20:21.176Z,french_194.wav,0,poule,478,62,4,5,français,m,12,1.14141667,43.70519529,1.36778215
657b128079618c853ed056b4,48,0,2024-02-27T11:20:21.176Z,french_16.wav,0,pull,1862,62,4,5,français,m,0,0.0,82.07579611,1.07310586
657b128079618c853ed056b4,48,0,2024-02-27T11:20:21.176Z,french_16.wav,0,pull,1862,62,4,5,français,m,1,0.1,-32.83094823,1.45317336
657b128079618c853ed056b4,48,0,2024-02-27T11:20:21.176Z,french_16.wav,0,pull,1862,62,4,5,français,m,2,0.2,41.28040727,0.46166585
657b128079618c853ed056b4,48,0,2024-02-27T11:20:21.176Z,french_16.wav,0,pull,1862,62,4,5,français,m,3,0.3,90.77692627,0.56449572
657b128079618c853ed056b4,48,0,2024-02-27T11:20:21.176Z,french_16.wav,0,pull,1862,62,4,5,français,m,4,0.4,73.94831714,0.90966038
657b128079618c853ed056b4,48,0,2024-02-27T11:20:21.176Z,french_16.wav,0,pull,1862,62,4,5,français,m,5,0.5,-88.41542948,0.09547685
657b128079618c853ed056b4,48,0,2024-02-27T11:20:21.176Z,french_16.wav,0,pull,1862,62,4,5,français,m,6,0.6,4.37289538,0.22269855
657b128079618c853ed056b4,48,0,2024-02-27T11:20:21.176Z,french_16.wav,0,pull,1862,62,4,5,français,m,7,0.7,77.79051447,0.49251914
657b128079618c853ed056b4,48,0,2024-02-27T11:20:21.176Z,french_16.wav,0,pull,1862,62,4,5,français,m,8,0.8,71.33775497,1.29029618
657b128079618c853ed056b4,48,0,2024-02-27T11:20:21.176Z,french_16.wav,0,pull,1862,62,4,5,français,m,9,0.9,-23.77305366,0.28261848
657b128079618c853ed056b4,48,0,2024-02-27T11:20:21.176Z,french_16.wav,0,pull,1862,62,4,5,français,m,10,1.0,69.50638407,0.13786232
657b128079618c853ed056b4,48,0,2024-02-27T11:20:21.176Z,french_16.wav,0,pull,1862,62,4,5,français,m,11,1.1,7.9375364,0.88824907
657b128079618c853ed056b4,48,0,2024-02-27T11:20:21.176Z,french_16.wav,0,pull,1862,62,4,5,français,m,12,1.14141667,-53.70826654,1.57250049
657b128079618c853ed056b4,49,0,2024-02-27T11:20:21.176Z,french_309.wav,0,poule,557,62,4,5,français,m,0,0.0,88.86072846,0.49259138
657b128079618c853ed056b4,49,0,2024-02-27T11:20:21.176Z,french_309.wav,0,poule,557,62,4,5,français,m,1,0.1,-92.30784176,1.03565122
657b128079618c853ed056b4,49,0,2024-02-27T11:20:21.176Z,french_309.wav,0,poule,557,62,4,5,français,m,2,0.2,82.47612196,1.68879094
657b128079618c853ed056b4,49,0,2024-02-27T11:20:21.176Z,french_309.wav,0,poule,557,62,4,5,français,m,3,0.3,57.0914166,0.15996054
657b128079618c853ed056b4,49,0,2024-02-27T11:20:21.176Z,french_309.wav,0,poule,557,62,4,5,français,m,4,0.4,66.45676368,0.58460838
657b128079618c853ed056b4,49,0,2024-02-27T11:20:21.176Z,french_309.wav,0,poule,557,62,4,5,français,m,5,0.5,72.19100472,1.83489212
657b128079618c853ed056b4,49,0,2024-02-27T11:20:21.176Z,french_309.wav,0,poule,557,62,4,5,français,m,6,0.6,35.35255388,0.91773079
657b128079618c853ed056b4,49,0,2024-02-27T11:20:21.176Z,french_309.wav,0,poule,557,62,4,5,français,m,7,0.7,-77.76741336,1.18228681
657b128079618c853ed056b4,49,0,2024-02-27T11:20:21.176Z,french_309.wav,0,poule,557,62,4,5,français,m,8,0.8,54.34179283,1.82634316
657b128079618c853ed056b4,49,0,2024-02-27T11:20:21.176Z,french_309.wav,0,poule,557,62,4,5,français,m,9,0.9,-68.94607686,1.45479271
657b128079618c853ed056b4,49,0,2024-02-27T11:20:21.176Z,french_309.wav,0,poule,557,62,4,5,français,m,10,1.0,31.97810202,1.70391198
657b128079618c853ed056b4,49,0,2024-02-27T11:20:21.176Z,french_309.wav,0,poule,557,62,4,5,français,m,11,1.1,-11.94966658,1.08327525
657b128079618c853ed056b4,49,0,2024-02-27T11:20:21.176Z,french_309.wav,0,poule,557,62,4,5,français,m,12,1.14141667,53.65953482,1.25779548
657b128079618c853ed056b4,50,1,2024-02-27T11:20:21.176Z,french_199.wav,0,poule,295,62,4,5,français,m,0,0.0,94.82681546,1.08752285
657b128079618c853ed056b4,50,1,2024-02-27T11:20:21.176Z,french_199.wav,0,poule,295,62,4,5,français,m,1,0.1,-99.32589547,1.17751559
657b128079618c853ed056b4,50,1,2024-02-27T11:20:21.176Z,french_199.wav,0,poule,295,62,4,5,français,m,2,0.2,-78.08329164,0.30459673
657b128079618c853ed056b4,50,1,2024-02-27T11:20:21.176Z,french_199.wav,0,poule,295,62,4,5,français,m,3,0.3,48.54945549,0.73513396
657b128079618c853ed056b4,50,1,2024-02-27T11:20:21.176Z,french_199.wav,0,poule,295,62,4,5,français,m,4,0.4,-55.35713623,0.36114074
657b128079618c853ed056b4,50,1,2024-02-27T11:20:21.176Z,french_199.wav,0,poule,295,62,4,5,français,m,5,0.5,14.26830721,1.70747304
657b128079618c853ed056b4,50,1,2024-02-27T11:20:21.176Z,french_199.wav,0,poule,295,62,4,5,français,m,6,0.6,-99.29695971,0.80626327
657b128079618c853ed056b4,50,1,2024-02-27T11:20:21.176Z,french_199.wav,0,poule,295,62,4,5,français,m,7,0.7,15.02714813,0.80058463
657b128079618c853ed056b4,50,1,2024-02-27T11:20:21.176Z,french_199.wav,0,poule,295,62,4,5,français,m,8,0.8,-2.77969287,1.68930656
657b128079618c853ed056b4,50,1,2024-02-27T11:20:21.176Z,french_199.wav,0,poule,295,62,4,5,français,m,9,0.9,47.22114937,1.36846234
657b128079618c853ed056b4,50,1,2024-02-27T11:20:21.176Z,french_199.wav,0,poule,295,62,4,5,français,m,10,1.0,-7.42122426,1.62178929
657b128079618c853ed056b4,50,1,2024-02-27T11:20:21.176Z,french_199.wav,0,poule,295,62,4,5,français,m,11,1.1,-9.24704573,1.97685154
657b128079618c853ed056b4,50,1,2024-02-27T11:20:21.176Z,french_199.wav,0,poule,295,62,4,5,français,m,12,1.14141667,-65.8542189,1.49094293
657b128079618c853ed056b4,51,1,2024-02-27T11:20:21.176Z,french_846.wav,0,pull,556,62,4,5,français,m,0,0.0,43.42961838,1.28400626
657b128079618c853ed056b4,51,1,2024-02-27T11:20:21.176Z,french_846.wav,0,pull,556,62,4,5,français,m,1,0.1,48.91207132,0.70533895
657b128079618c853ed056b4,51,1,2024-02-27T11:20:21.176Z,french_846.wav,0,pull,556,62,4,5,français,m,2,0.2,-68.42359385,0.06316808
657b128079618c853ed056b4,51,1,2024-02-27T11:20:21.176Z,french_846.wav,0,pull,556,62,4,5,français,m,3,0.3,77.65804288,0.61229951
657b128079618c853ed056b4,51,1,2024-02-27T11:20:21.176Z,french_846.wav,0,pull,556,62,4,5,français,m,4,0.4,98.73987553,0.63250943
657b128079618c853ed056b4,51,1,2024-02-27T11:20:21.176Z,french_846.wav,0,pull,556,62,4,5,français,m,5,0.5,-52.72140445,0.92323899
657b128079618c853ed056b4,51,1,2024-02-27T11:20:21.176Z,french_846.wav,0,pull,556,62,4,5,français,m,6,0.6,75.92396611,1.83199323
657b128079618c853ed056b4,51,1,2024-02-27T11:20:21.176Z,french_846.wav,0,pull,556,62,4,5,français,m,7,0.7,-55.96148037,0.13437825
657b128079618c853ed056b4,51,1,2024-02-27T11:20:21.176Z,french_846.wav,0,pull,556,62,4,5,français,m,8,0.8,-32.72936207,0.25967485
657b128079618c853ed056b4,51,1,2024-02-27T11:20:21.176Z,french_846.wav,0,pull,556,62,4,5,français,m,9,0.9,28.49983495,1.88952139
657b128079618c853ed056b4,51,1,2024-02-27T11:20:21.176Z,french_846.wav,0,pull,556,62,4,5,français,m,10,1.0,-51.57941373,1.26440491
657b128079618c853ed056b4,51,1,2024-02-27T11:20:21.176Z,french_846.wav,0,pull,556,62,4,5,français,m,11,1.1,-3.09394124,1.62136954
657b128079618c853ed056b4,51,1,2024-02-27T11:20:21.176Z,french_846.wav,0,pull,556,62,4,5,français,m,12,1.14141667,-55.77116461,0.52928256
657b128079618c853ed056b4,52,1,2024-02-27T11:20:21.176Z,french_551.wav,0,poule,468,62,4,5,français,m,0,0.0,-0.87306912,0.61757566
657b128079618c853ed056b4,52,1,2024-02-27T11:20:21.176Z,french_551.wav,0,poule,468,62,4,5,français,m,1,0.1,53.97679775,0.32729864
657b128079618c853ed056b4,52,1,2024-02-27T11:20:21.176Z,french_551.wav,0,poule,468,62,4,5,français,m,2,0.2,-17.9143701,0.86705571
657b128079618c853ed056b4,52,1,2024-02-27T11:20:21.176Z,french_551.wav,0,poule,468,62,4,5,français,m,3,0.3,-24.754792,1.89311071
657b128079618c853ed056b4,52,1,2024-02-27T11:20:21.176Z,french_551.wav,0,poule,468,62,4,5,français,m,4,0.4,-10.20538455,0.75504891
657b128079618c853ed056b4,52,1,2024-02-27T11:20:21.176Z,french_551.wav,0,poule,468,62,4,5,français,m,5,0.5,-90.27714005,1.63875435
657b128079618c853ed056b4,52,1,2024-02-27T11:20:21.176Z,french_551.wav,0,poule,468,62,4,5,français,m,6,0.6,-72.01449514,0.70533148
657b128079618c853ed056b4,52,1,2024-02-27T11:20:21.176Z,french_551.wav,0,poule,468,62,4,5,français,m,7,0.7,-31.05860399,1.05102433
657b128079618c853ed056b4,52,1,2024-02-27T11:20:21.176Z,french_551.wav,0,poule,468,62,4,5,français,m,8,0.8,37.94491682,1.57562173
657b128079618c853ed056b4,52,1,2024-02-27T11:20:21.176Z,french_551.wav,0,poule,468,62,4,5,français,m,9,0.9,-68.22280845,1.37229945
657b128079618c853ed056b4,52,1,2024-02-27T11:20:21.176Z,french_551.wav,0,poule,468,62,4,5,français,m,10,1.0,-76.8164716,1.64854708
657b128079618c853ed056b4,52,1,2024-02-27T11:20:21.176Z,french_551.wav,0,poule,468,62,4,5,français,m,11,1.1,-55.95467944,1.48711428
657b128079618c853ed056b4,52,1,2024-02-27T11:20:21.176Z,french_551.wav,0,poule,468,62,4,5,français,m,12,1.14141667,42.33514592,0.93522853
657b128079618c853ed056b4,53,1,2024-02-27T11:20:21.176Z,french_328.wav,0,pull,955,62,4,5,français,m,0,0.0,70.39281279,1.11868874
657b128079618c853ed056b4,53,1,2024-02-27T11:20:21.176Z,french_328.wav,0,pull,955,62,4,5,français,m,1,0.1,-62.4365066,1.7831523
657b128079618c853ed056b4,53,1,2024-02-27T11:20:21.176Z,french_328.wav,0,pull,955,62,4,5,français,m,2,0.2,74.18889281,0.37694606
657b128079618c853ed056b4,53,1,2024-02-27T11:20:21.176Z,french_328.wav,0,pull,955,62,4,5,français,m,3,0.3,6.08253947,0.30173154
657b128079618c853ed056b4,53,1,2024-02-27T11:20:21.176Z,french_328.wav,0,pull,955,62,4,5,français,m,4,0.4,14.94897536,1.08259473
657b128079618c853ed056b4,53,1,2024-02-27T11:20:21.176Z,french_328.wav,0,pull,955,62,4,5,français,m,5,0.5,-45.91689169,0.83879107
657b128079618c853ed056b4,53,1,2024-02-27T11:20:21.176Z,french_328.wav,0,pull,955,62,4,5,français,m,6,0.6,51.00614237,0.64036349
657b128079618c853ed056b4,53,1,2024-02-27T11:20:21.176Z,french_328.wav,0,pull,955,62,4,5,français,m,7,0.7,-68.53703239,1.67880376
657b128079618c853ed056b4,53,1,2024-02-27T11:20:21.176Z,french_328.wav,0,pull,955,62,4,5,français,m,8,0.8,93.58528924,1.29419858
657b128079618c853ed056b4,53,1,2024-02-27T11:20:21.176Z,french_328.wav,0,pull,955,62,4,5,français,m,9,0.9,51.46046525,0.63702013
657b128079618c853ed056b4,53,1,2024-02-27T11:20:21.176Z,french_328.wav,0,pull,955,62,4,5,français,m,10,1.0,-77.58470521,0.88742502
657b128079618c853ed056b4,53,1,2024-02-27T11:20:21.176Z,french_328.wav,0,pull,955,62,4,5,français,m,11,1.1,-72.45732105,0.08384723
657b128079618c853ed056b4,53,1,2024-02-27T11:20:21.176Z,french_328.wav,0,pull,955,62,4,5,français,m,12,1.14141667,-40.05577785,0.80959776
657b128079618c853ed056b4,54,1,2024-02-27T11:20:21.176Z,french_996.wav,0,pull,380,62,4,5,français,m,0,0.0,57.52390769,1.49078278
657b128079618c853ed056b4,54,1,2024-02-27T11:20:21.176Z,french_996.wav,0,pull,380,62,4,5,français,m,1,0.1,28.89954393,1.56353839
657b128079618c853ed056b4,54,1,2024-02-27T11:20:21.176Z,french_996.wav,0,pull,380,62,4,5,français,m,2,0.2,-56.16359269,1.22071433
657b128079618c853ed056b4,54,1,2024-02-27T11:20:21.176Z,french_996.wav,0,pull,380,62,4,5,français,m,3,0.3,99.33257974,1.39398369
657b128079618c853ed056b4,54,1,2024-02-27T11:20:21.176Z,french_996.wav,0,pull,380,62,4,5,français,m,4,0.4,7.55778037,1.76945469
657b128079618c853ed056b4,54,1,2024-02-27T11:20:21.176Z,french_996.wav,0,pull,380,62,4,5,français,m,5,0.5,53.15282026,0.1319849
657b128079618c853ed056b4,54,1,2024-02-27T11:20:21.176Z,french_996.wav,0,pull,380,62,4,5,français,m,6,0.6,-76.68073566,1.12557272
657b128079618c853ed056b4,54,1,2024-02-27T11:20:21.176Z,french_996.wav,0,pull,380,62,4,5,français,m,7,0.7,-18.7129586,0.43863447
657b128079618c853ed056b4,54,1,2024-02-27T11:20:21.176Z,french_996.wav,0,pull,380,62,4,5,français,m,8,0.8,72.85645273,0.54827929
657b128079618c853ed056b4,54,1,2024-02-27T11:20:21.176Z,french_996.wav,0,pull,380,62,4,5,français,m,9,0.9,-89.56078896,0.55787863
657b128079618c853ed056b4,54,1,2024-02-27T11:20:21.176Z,french_996.wav,0,pull,380,62,4,5,français,m,10,1.0,-98.66124278,1.55112453
657b128079618c853ed056b4,54,1,2024-02-27T11:20:21.176Z,french_996.wav,0,pull,380,62,4,5,français,m,11,1.1,30.91972551,0.43338009
657b128079618c853ed056b4,54,1,2024-02-27T11:20:21.176Z,french_996.wav,0,pull,380,62,4,5,français,m,12,1.14141667,73.76139469,1.35718155
657b128079618c853ed056b4,55,1,2024-02-27T11:20:21.176Z,french_989.wav,0,pull,1223,62,4,5,français,m,0,0.0,-44.41097931,1.1786245
657b128079618c853ed056b4,55,1,2024-02-27T11:20:21.176Z,french_989.wav,0,pull,1223,62,4,5,français,m,1,0.1,66.6460462,1.67818399
657b128079618c853ed056b4,55,1,2024-02-27T11:20:21.176Z,french_989.wav,0,pull,1223,62,4,5,français,m,2,0.2,-12.00930919,1.77767188
657b128079618c853ed056b4,55,1,2024-02-27T11:20:21.176Z,french_989.wav,0,pull,1223,62,4,5,français,m,3,0.3,18.31928104,0.42466345
657b128079618c853ed056b4,55,1,2024-02-27T11:20:21.176Z,french_989.wav,0,pull,1223,62,4,5,français,m,4,0.4,42.84827908,1.98594194
657b128079618c853ed056b4,55,1,2024-02-27T11:20:21.176Z,french_989.wav,0,pull,1223,62,4,5,français,m,5,0.5,39.43988164,0.94788839
657b128079618c853ed056b4,55,1,2024-02-27T11:20:21.176Z,french_989.wav,0,pull,1223,62,4,5,français,m,6,0.6,98.0897031,0.65021646
657b128079618c853ed056b4,55,1,2024-02-27T11:20:21.176Z,french_989.wav,0,pull,1223,62,4,5,français,m,7,0.7,73.07759931,1.41735588
657b128079618c853ed056b4,55,1,2024-02-27T11:20:21.176Z,french_989.wav,0,pull,1223,62,4,5,français,m,8,0.8,88.83528455,0.23014767
657b128079618c853ed056b4,55,1,2024-02-27T11:20:21.176Z,french_989.wav,0,pull,1223,62,4,5,français,m,9,0.9,-62.07438452,0.393141
657b128079618c853ed056b4,55,1,2024-02-27T11:20:21.176Z,french_989.wav,0,pull,1223,62,4,5,français,m,10,1.0,95.3416321,1.54796878
657b128079618c853ed056b4,55,1,2024-02-27T11:20:21.176Z,french_989.wav,0,pull,1223,62,4,5,français,m,11,1.1,72.09965955,0.59500938
657b128079618c853ed056b4,55,1,2024-02-27T11:20:21.176Z,french_989.wav,0,pull,1223,62,4,5,français,m,12,1.14141667,32.11352747,0.56774679
657b128079618c853ed056b4,56,1,2024-02-27T11:20:21.176Z,french_262.wav,0,pull,1407,62,4,5,français,m,0,0.0,-49.98964576,1.11053442
657b128079618c853ed056b4,56,1,2024-02-27T11:20:21.176Z,french_262.wav,0,pull,1407,62,4,5,français,m,1,0.1,49.26689568,1.17094698
657b128079618c853ed056b4,56,1,2024-02-27T11:20:21.176Z,french_262.wav,0,pull,1407,62,4,5,français,m,2,0.2,-10.28953368,1.02775787
657b128079618c853ed056b4,56,1,2024-02-27T11:20:21.176Z,french_262.wav,0,pull,1407,62,4,5,français,m,3,0.3,16.98520639,0.65380655
657b128079618c853ed056b4,56,1,2024-02-27T11:20:21.176Z,french_262.wav,0,pull,1407,62,4,5,français,m,4,0.4,58.69009652,0.10783944
657b128079618c853ed056b4,56,1,2024-02-27T11:20:21.176Z,french_262.wav,0,pull,1407,62,4,5,français,m,5,0.5,-6.53344433,1.03413092
657b128079618c853ed056b4,56,1,2024-02-27T11:20:21.176Z,french_262.wav,0,pull,1407,62,4,5,français,m,6,0.6,78.39274077,1.62007201
657b128079618c853ed056b4,56,1,2024-02-27T11:20:21.176Z,french_262.wav,0,pull,1407,62,4,5,français,m,7,0.7,51.65400512,0.45017147
657b128079618c853ed056b4,56,1,2024-02-27T11:20:21.176Z,french_262.wav,0,pull,1407,62,4,5,français,m,8,0.8,81.31634544,0.78466741
657b128079618c853ed056b4,56,1,2024-02-27T11:20:21.176Z,french_262.wav,0,pull,1407,62,4,5,français,m,9,0.9,18.40506356,0.98426364
657b128079618c853ed056b4,56,1,2024-02-27T11:20:21.176Z,french_262.wav,0,pull,1407,62,4,5,français,m,10,1.0,-53.30019586,0.15499386
657b128079618c853ed056b4,56,1,2024-02-27T11:20:21.176Z,french_262.wav,0,pull,1407,62,4,5,français,m,11,1.1,-37.56666303,1.25025011
657b128079618c853ed056b4,56,1,2024-02-27T11:20:21.176Z,french_262.wav,0,pull,1407,62,4,5,français,m,12,1.14141667,77.06743199,1.21854314
657b128079618c853ed056b4,57,1,2024-02-27T11:20:21.176Z,french_599.wav,0,poule,493,62,4,5,français,m,0,0.0,74.66292845,0.15491799
657b128079618c853ed056b4,57,1,2024-02-27T11:20:21.176Z,french_599.wav,0,poule,493,62,4,5,français,m,1,0.1,55.47744892,1.92619011
657b128079618c853ed056b4,57,1,2024-02-27T11:20:21.176Z,french_599.wav,0,poule,493,62,4,5,français,m,2,0.2,25.18058214,0.72781992
657b128079618c853ed056b4,57,1,2024-02-27T11:20:21.176Z,french_599.wav,0,poule,493,62,4,5,français,m,3,0.3,-20.41180146,0.5459496
657b128079618c853ed056b4,57,1,2024-02-27T11:20:21.176Z,french_599.wav,0,poule,493,62,4,5,français,m,4,0.4,65.05582465,1.65791523
657b128079618c853ed056b4,57,1,2024-02-27T11:20:21.176Z,french_599.wav,0,poule,493,62,4,5,français,m,5,0.5,49.70299421,1.8109323
657b128079618c853ed056b4,57,1,2024-02-27T11:20:21.176Z,french_599.wav,0,poule,493,62,4,5,français,m,6,0.6,43.15373281,1.66408753
657b128079618c853ed056b4,57,1,2024-02-27T11:20:21.176Z,french_599.wav,0,poule,493,62,4,5,français,m,7,0.7,29.05436358,0.68381857
657b128079618c853ed056b4,57,1,2024-02-27T11:20:21.176Z,french_599.wav,0,poule,493,62,4,5,français,m,8,0.8,-73.56464831,0.62280676
657b128079618c853ed056b4,57,1,2024-02-27T11:20:21.176Z,french_599.wav,0,poule,493,62,4,5,français,m,9,0.9,-31.94852447,1.60467555
657b128079618c853ed056b4,57,1,2024-02-27T11:20:21.176Z,french_599.wav,0,poule,493,62,4,5,français,m,10,1.0,-16.65001138,0.48527104
657b128079618c853ed056b4,57,1,2024-02-27T11:20:21.176Z,french_599.wav,0,poule,493,62,4,5,français,m,11,1.1,76.01210747,0.27394506
657b128079618c853ed056b4,57,1,2024-02-27T11:20:21.176Z,french_599.wav,0,poule,493,62,4,5,français,m,12,1.14141667,-17.42786697,1.89431481
657b128079618c853ed056b4,58,1,2024-02-27T11:20:21.176Z,french_685.wav,0,poule,2217,62,4,5,français,m,0,0.0,15.72275415,0.3186228
657b128079618c853ed056b4,58,1,2024-02-27T11:20:21.176Z,french_685.wav,0,poule,2217,62,4,5,français,m,1,0.1,-17.98823356,0.55293097
657b128079618c853ed056b4,58,1,2024-02-27T11:20:21.176Z,french_685.wav,0,poule,2217,62,4,5,français,m,2,0.2,65.15130869,1.61552047
657b128079618c853ed056b4,58,1,2024-02-27T11:20:21.176Z,french_685.wav,0,poule,2217,62,4,5,français,m,3,0.3,-29.09849503,1.16824703
657b128079618c853ed056b4,58,1,2024-02-27T11:20:21.176Z,french_685.wav,0,poule,2217,62,4,5,français,m,4,0.4,80.3913755,1.52008085
657b128079618c853ed056b4,58,1,2024-02-27T11:20:21.176Z,french_685.wav,0,poule,2217,62,4,5,français,m,5,0.5,69.16437222,0.87763706
657b128079618c853ed056b4,58,1,2024-02-27T11:20:21.176Z,french_685.wav,0,poule,2217,62,4,5,français,m,6,0.6,94.4311828,1.87993666
657b128079618c853ed056b4,58,1,2024-02-27T11:20:21.176Z,french_685.wav,0,poule,2217,62,4,5,français,m,7,0.7,-34.30157349,1.65434325
657b128079618c853ed056b4,58,1,2024-02-27T11:20:21.176Z,french_685.wav,0,poule,2217,62,4,5,français,m,8,0.8,54.54653623,0.05536448
657b128079618c853ed056b4,58,1,2024-02-27T11:20:21.176Z,french_685.wav,0,poule,2217,62,4,5,français,m,9,0.9,70.83768359,1.1397735
657b128079618c853ed056b4,58,1,2024-02-27T11:20:21.176Z,french_685.wav,0,poule,2217,62,4,5,français,m,10,1.0,85.61297077,0.83672501
657b128079618c853ed056b4,58,1,2024-02-27T11:20:21.176Z,french_685.wav,0,poule,2217,62,4,5,français,m,11,1.1,27.81589557,0.56110169
657b128079618c853ed056b4,58,1,2024-02-27T11:20:21.176Z,french_685.wav,0,poule,2217,62,4,5,français,m,12,1.14141667,-9.10708793,0.81567385
657b128079618c853ed056b4,59,1,2024-02-27T11:20:21.176Z,french_479.wav,0,poule,710,62,4,5,français,m,0,0.0,-1.20230986,0.20404821
657b128079618c853ed056b4,59,1,2024-02-27T11:20:21.176Z,french_479.wav,0,poule,710,62,4,5,français,m,1,0.1,-97.64332549,1.69681
657b128079618c853ed056b4,59,1,2024-02-27T11:20:21.176Z,french_479.wav,0,poule,710,62,4,5,français,m,2,0.2,-86.19449335,0.56198468
657b128079618c853ed056b4,59,1,2024-02-27T11:20:21.176Z,french_479.wav,0,poule,710,62,4,5,français,m,3,0.3,-7.49654588,0.43639433
