subj,trial,block,date,stim,stim_order,response,rt,age,english,french,language,sex,param_index,segment,pitch,stretch
5b8fffca220be50001c59858,0,0,2024-02-28T14:35:36.601Z,french_873.wav,0,poule,625,26,4,5,français,f,0,0.0,72.03003954,1.83410118
5b8fffca220be50001c59858,0,0,2024-02-28T14:35:36.601Z,french_873.wav,0,poule,625,26,4,5,français,f,1,0.1,-23.30621714,1.9626168
5b8fffca220be50001c59858,0,0,2024-02-28T14:35:36.601Z,french_873.wav,0,poule,625,26,4,5,français,f,2,0.2,-35.89141319,0.81420051
5b8fffca220be50001c59858,0,0,2024-02-28T14:35:36.601Z,french_873.wav,0,poule,625,26,4,5,français,f,3,0.3,67.68024677,1.63047329
5b8fffca220be50001c59858,0,0,2024-02-28T14:35:36.601Z,french_873.wav,0,poule,625,26,4,5,français,f,4,0.4,21.20717598,1.57956601
5b8fffca220be50001c59858,0,0,2024-02-28T14:35:36.601Z,french_873.wav,0,poule,625,26,4,5,français,f,5,0.5,-50.70040168,1.84719914
5b8fffca220be50001c59858,0,0,2024-02-28T14:35:36.601Z,french_873.wav,0,poule,625,26,4,5,français,f,6,0.6,-71.51050021,0.36709049
5b8fffca220be50001c59858,0,0,2024-02-28T14:35:36.601Z,french_873.wav,0,poule,625,26,4,5,français,f,7,0.7,34.37852202,0.904759
5b8fffca220be50001c59858,0,0,2024-02-28T14:35:36.601Z,french_873.wav,0,poule,625,26,4,5,français,f,8,0.8,30.83728681,1.75590546
5b8fffca220be50001c59858,0,0,2024-02-28T14:35:36.601Z,french_873.wav,0,poule,625,26,4,5,français,f,9,0.9,-76.87739592,1.02149993
5b8fffca220be50001c59858,0,0,2024-02-28T14:35:36.601Z,french_873.wav,0,poule,625,26,4,5,français,f,10,1.0,42.37175398,0.76391448
5b8fffca220be50001c59858,0,0,2024-02-28T14:35:36.601Z,french_873.wav,0,poule,625,26,4,5,français,f,11,1.1,70.77163958,0.00404813
5b8fffca220be50001c59858,0,0,2024-02-28T14:35:36.601Z,french_873.wav,0,poule,625,26,4,5,français,f,12,1.14141667,15.85245945,0.16931054
5b8fffca220be50001c59858,1,0,2024-02-28T14:35:36.601Z,french_442.wav,0,poule,1057,26,4,5,français,f,0,0.0,59.89348182,1.93338354
5b8fffca220be50001c59858,1,0,2024-02-28T14:35:36.601Z,french_442.wav,0,poule,1057,26,4,5,français,f,1,0.1,-90.19745983,0.1221368
5b8fffca220be50001c59858,1,0,2024-02-28T14:35:36.601Z,french_442.wav,0,poule,1057,26,4,5,français,f,2,0.2,34.97525188,1.40375233
5b8fffca220be50001c59858,1,0,2024-02-28T14:35:36.601Z,french_442.wav,0,poule,1057,26,4,5,français,f,3,0.3,-60.10498495,0.23715052
5b8fffca220be50001c59858,1,0,2024-02-28T14:35:36.601Z,french_442.wav,0,poule,1057,26,4,5,français,f,4,0.4,-52.20535883,0.86935067
5b8fffca220be50001c59858,1,0,2024-02-28T14:35:36.601Z,french_442.wav,0,poule,1057,26,4,5,français,f,5,0.5,33.32923329,1.40007492
5b8fffca220be50001c59858,1,0,2024-02-28T14:35:36.601Z,french_442.wav,0,poule,1057,26,4,5,français,f,6,0.6,-72.02089693,1.87875592
5b8fffca220be50001c59858,1,0,2024-02-28T14:35:36.601Z,french_442.wav,0,poule,1057,26,4,5,français,f,7,0.7,15.91732192,1.15703728
5b8fffca220be50001c59858,1,0,2024-02-28T14:35:36.601Z,french_442.wav,0,poule,1057,26,4,5,français,f,8,0.8,49.50947125,1.45583236
5b8fffca220be50001c59858,1,0,2024-02-28T14:35:36.601Z,french_442.wav,0,poule,1057,26,4,5,français,f,9,0.9,-96.72595223,0.52053121
5b8fffca220be50001c59858,1,0,2024-02-28T14:35:36.601Z,french_442.wav,0,poule,1057,26,4,5,français,f,10,1.0,12.6942829,0.18849311
5b8fffca220be50001c59858,1,0,2024-02-28T14:35:36.601Z,french_442.wav,0,poule,1057,26,4,5,français,f,11,1.1,-57.11899111,1.67578542
5b8fffca220be50001c59858,1,0,2024-02-28T14:35:36.601Z,french_442.wav,0,poule,1057,26,4,5,français,f,12,1.14141667,36.89213251,0.36635536
5b8fffca220be50001c59858,2,0,2024-02-28T14:35:36.601Z,french_647.wav,0,pull,964,26,4,5,français,f,0,0.0,64.96347352,1.44558339
5b8fffca220be50001c59858,2,0,2024-02-28T14:35:36.601Z,french_647.wav,0,pull,964,26,4,5,français,f,1,0.1,42.67118944,1.09186706
5b8fffca220be50001c59858,2,0,2024-02-28T14:35:36.601Z,french_647.wav,0,pull,964,26,4,5,français,f,2,0.2,-71.33315366,0.89479071
5b8fffca220be50001c59858,2,0,2024-02-28T14:35:36.601Z,french_647.wav,0,pull,964,26,4,5,français,f,3,0.3,-41.45052921,0.112933
5b8fffca220be50001c59858,2,0,2024-02-28T14:35:36.601Z,french_647.wav,0,pull,964,26,4,5,français,f,4,0.4,22.15572667,0.58173767
5b8fffca220be50001c59858,2,0,2024-02-28T14:35:36.601Z,french_647.wav,0,pull,964,26,4,5,français,f,5,0.5,-49.22246912,0.69537994
5b8fffca220be50001c59858,2,0,2024-02-28T14:35:36.601Z,french_647.wav,0,pull,964,26,4,5,français,f,6,0.6,1.17986866,1.54756643
5b8fffca220be50001c59858,2,0,2024-02-28T14:35:36.601Z,french_647.wav,0,pull,964,26,4,5,français,f,7,0.7,39.60922848,1.87055518
5b8fffca220be50001c59858,2,0,2024-02-28T14:35:36.601Z,french_647.wav,0,pull,964,26,4,5,français,f,8,0.8,-95.82191419,0.45701879
5b8fffca220be50001c59858,2,0,2024-02-28T14:35:36.601Z,french_647.wav,0,pull,964,26,4,5,français,f,9,0.9,-84.37193607,0.87297018
5b8fffca220be50001c59858,2,0,2024-02-28T14:35:36.601Z,french_647.wav,0,pull,964,26,4,5,français,f,10,1.0,42.94723671,1.22985311
5b8fffca220be50001c59858,2,0,2024-02-28T14:35:36.601Z,french_647.wav,0,pull,964,26,4,5,français,f,11,1.1,25.55585594,1.03234616
5b8fffca220be50001c59858,2,0,2024-02-28T14:35:36.601Z,french_647.wav,0,pull,964,26,4,5,français,f,12,1.14141667,49.83574532,1.39896026
5b8fffca220be50001c59858,3,0,2024-02-28T14:35:36.601Z,french_435.wav,0,poule,329,26,4,5,français,f,0,0.0,81.5425699,0.93712121
5b8fffca220be50001c59858,3,0,2024-02-28T14:35:36.601Z,french_435.wav,0,poule,329,26,4,5,français,f,1,0.1,-48.84484952,1.49338777
5b8fffca220be50001c59858,3,0,2024-02-28T14:35:36.601Z,french_435.wav,0,poule,329,26,4,5,français,f,2,0.2,39.71151192,0.34387239
5b8fffca220be50001c59858,3,0,2024-02-28T14:35:36.601Z,french_435.wav,0,poule,329,26,4,5,français,f,3,0.3,29.28112411,1.76749626
5b8fffca220be50001c59858,3,0,2024-02-28T14:35:36.601Z,french_435.wav,0,poule,329,26,4,5,français,f,4,0.4,-65.26037108,0.97806384
5b8fffca220be50001c59858,3,0,2024-02-28T14:35:36.601Z,french_435.wav,0,poule,329,26,4,5,français,f,5,0.5,70.68569274,1.32932034
5b8fffca220be50001c59858,3,0,2024-02-28T14:35:36.601Z,french_435.wav,0,poule,329,26,4,5,français,f,6,0.6,31.94362707,1.36671189
5b8fffca220be50001c59858,3,0,2024-02-28T14:35:36.601Z,french_435.wav,0,poule,329,26,4,5,français,f,7,0.7,17.61291347,0.96349
5b8fffca220be50001c59858,3,0,2024-02-28T14:35:36.601Z,french_435.wav,0,poule,329,26,4,5,français,f,8,0.8,-39.1197626,0.60128096
5b8fffca220be50001c59858,3,0,2024-02-28T14:35:36.601Z,french_435.wav,0,poule,329,26,4,5,français,f,9,0.9,-5.35175447,1.42042138
5b8fffca220be50001c59858,3,0,2024-02-28T14:35:36.601Z,french_435.wav,0,poule,329,26,4,5,français,f,10,1.0,24.45778649,1.76902262
5b8fffca220be50001c59858,3,0,2024-02-28T14:35:36.601Z,french_435.wav,0,poule,329,26,4,5,français,f,11,1.1,-46.14976355,1.00188526
5b8fffca220be50001c59858,3,0,2024-02-28T14:35:36.601Z,french_435.wav,0,poule,329,26,4,5,français,f,12,1.14141667,-26.15718061,0.52918618
5b8fffca220be50001c59858,4,0,2024-02-28T14:35:36.601Z,french_28.wav,0,poule,287,26,4,5,français,f,0,0.0,-56.10420343,1.70315994
5b8fffca220be50001c59858,4,0,2024-02-28T14:35:36.601Z,french_28.wav,0,poule,287,26,4,5,français,f,1,0.1,-31.69596583,1.28626693
5b8fffca220be50001c59858,4,0,2024-02-28T14:35:36.601Z,french_28.wav,0,poule,287,26,4,5,français,f,2,0.2,10.77640338,1.2824792
5b8fffca220be50001c59858,4,0,2024-02-28T14:35:36.601Z,french_28.wav,0,poule,287,26,4,5,français,f,3,0.3,-20.69274199,1.46430812
5b8fffca220be50001c59858,4,0,2024-02-28T14:35:36.601Z,french_28.wav,0,poule,287,26,4,5,français,f,4,0.4,6.95136345,1.88063004
5b8fffca220be50001c59858,4,0,2024-02-28T14:35:36.601Z,french_28.wav,0,poule,287,26,4,5,français,f,5,0.5,48.14792065,1.08025973
5b8fffca220be50001c59858,4,0,2024-02-28T14:35:36.601Z,french_28.wav,0,poule,287,26,4,5,français,f,6,0.6,97.62552183,0.53911676
5b8fffca220be50001c59858,4,0,2024-02-28T14:35:36.601Z,french_28.wav,0,poule,287,26,4,5,français,f,7,0.7,-10.73890428,1.61562015
5b8fffca220be50001c59858,4,0,2024-02-28T14:35:36.601Z,french_28.wav,0,poule,287,26,4,5,français,f,8,0.8,38.69981846,1.07570603
5b8fffca220be50001c59858,4,0,2024-02-28T14:35:36.601Z,french_28.wav,0,poule,287,26,4,5,français,f,9,0.9,-67.7986679,1.41027786
5b8fffca220be50001c59858,4,0,2024-02-28T14:35:36.601Z,french_28.wav,0,poule,287,26,4,5,français,f,10,1.0,42.50924299,0.45518513
5b8fffca220be50001c59858,4,0,2024-02-28T14:35:36.601Z,french_28.wav,0,poule,287,26,4,5,français,f,11,1.1,18.11663107,0.65531755
5b8fffca220be50001c59858,4,0,2024-02-28T14:35:36.601Z,french_28.wav,0,poule,287,26,4,5,français,f,12,1.14141667,-94.85686725,1.88116662
5b8fffca220be50001c59858,5,0,2024-02-28T14:35:36.601Z,french_144.wav,0,poule,421,26,4,5,français,f,0,0.0,-87.33158892,1.33030495
5b8fffca220be50001c59858,5,0,2024-02-28T14:35:36.601Z,french_144.wav,0,poule,421,26,4,5,français,f,1,0.1,43.96940333,1.71798455
5b8fffca220be50001c59858,5,0,2024-02-28T14:35:36.601Z,french_144.wav,0,poule,421,26,4,5,français,f,2,0.2,63.49398133,0.46851704
5b8fffca220be50001c59858,5,0,2024-02-28T14:35:36.601Z,french_144.wav,0,poule,421,26,4,5,français,f,3,0.3,72.22026005,1.15388423
5b8fffca220be50001c59858,5,0,2024-02-28T14:35:36.601Z,french_144.wav,0,poule,421,26,4,5,français,f,4,0.4,50.99674413,1.45420645
5b8fffca220be50001c59858,5,0,2024-02-28T14:35:36.601Z,french_144.wav,0,poule,421,26,4,5,français,f,5,0.5,25.89293491,1.24934967
5b8fffca220be50001c59858,5,0,2024-02-28T14:35:36.601Z,french_144.wav,0,poule,421,26,4,5,français,f,6,0.6,-58.22339939,1.8757656
5b8fffca220be50001c59858,5,0,2024-02-28T14:35:36.601Z,french_144.wav,0,poule,421,26,4,5,français,f,7,0.7,90.30265248,0.58436241
5b8fffca220be50001c59858,5,0,2024-02-28T14:35:36.601Z,french_144.wav,0,poule,421,26,4,5,français,f,8,0.8,74.88211349,0.31234812
5b8fffca220be50001c59858,5,0,2024-02-28T14:35:36.601Z,french_144.wav,0,poule,421,26,4,5,français,f,9,0.9,38.42569875,1.51881213
5b8fffca220be50001c59858,5,0,2024-02-28T14:35:36.601Z,french_144.wav,0,poule,421,26,4,5,français,f,10,1.0,-98.48214618,0.41334582
5b8fffca220be50001c59858,5,0,2024-02-28T14:35:36.601Z,french_144.wav,0,poule,421,26,4,5,français,f,11,1.1,92.16903622,0.65967757
5b8fffca220be50001c59858,5,0,2024-02-28T14:35:36.601Z,french_144.wav,0,poule,421,26,4,5,français,f,12,1.14141667,6.22676374,0.88172018
5b8fffca220be50001c59858,6,0,2024-02-28T14:35:36.601Z,french_379.wav,0,pull,566,26,4,5,français,f,0,0.0,92.35208151,0.11616284
5b8fffca220be50001c59858,6,0,2024-02-28T14:35:36.601Z,french_379.wav,0,pull,566,26,4,5,français,f,1,0.1,-25.91567626,0.27217006
5b8fffca220be50001c59858,6,0,2024-02-28T14:35:36.601Z,french_379.wav,0,pull,566,26,4,5,français,f,2,0.2,-77.118008,0.89509921
5b8fffca220be50001c59858,6,0,2024-02-28T14:35:36.601Z,french_379.wav,0,pull,566,26,4,5,français,f,3,0.3,29.86283118,0.0899849
5b8fffca220be50001c59858,6,0,2024-02-28T14:35:36.601Z,french_379.wav,0,pull,566,26,4,5,français,f,4,0.4,-82.08951689,1.97506173
5b8fffca220be50001c59858,6,0,2024-02-28T14:35:36.601Z,french_379.wav,0,pull,566,26,4,5,français,f,5,0.5,-83.67767675,1.23110802
5b8fffca220be50001c59858,6,0,2024-02-28T14:35:36.601Z,french_379.wav,0,pull,566,26,4,5,français,f,6,0.6,-86.47421564,1.35680108
5b8fffca220be50001c59858,6,0,2024-02-28T14:35:36.601Z,french_379.wav,0,pull,566,26,4,5,français,f,7,0.7,-6.33610425,0.07151016
5b8fffca220be50001c59858,6,0,2024-02-28T14:35:36.601Z,french_379.wav,0,pull,566,26,4,5,français,f,8,0.8,1.07303098,1.17075437
5b8fffca220be50001c59858,6,0,2024-02-28T14:35:36.601Z,french_379.wav,0,pull,566,26,4,5,français,f,9,0.9,-96.07937115,1.73539261
5b8fffca220be50001c59858,6,0,2024-02-28T14:35:36.601Z,french_379.wav,0,pull,566,26,4,5,français,f,10,1.0,-53.89727413,0.96881955
5b8fffca220be50001c59858,6,0,2024-02-28T14:35:36.601Z,french_379.wav,0,pull,566,26,4,5,français,f,11,1.1,72.38399251,1.26167389
5b8fffca220be50001c59858,6,0,2024-02-28T14:35:36.601Z,french_379.wav,0,pull,566,26,4,5,français,f,12,1.14141667,18.55821878,1.82038754
5b8fffca220be50001c59858,7,0,2024-02-28T14:35:36.601Z,french_87.wav,0,poule,322,26,4,5,français,f,0,0.0,92.4660963,0.46305834
5b8fffca220be50001c59858,7,0,2024-02-28T14:35:36.601Z,french_87.wav,0,poule,322,26,4,5,français,f,1,0.1,15.06427617,1.65512059
5b8fffca220be50001c59858,7,0,2024-02-28T14:35:36.601Z,french_87.wav,0,poule,322,26,4,5,français,f,2,0.2,19.88587698,1.47687397
5b8fffca220be50001c59858,7,0,2024-02-28T14:35:36.601Z,french_87.wav,0,poule,322,26,4,5,français,f,3,0.3,19.16381268,1.98465726
5b8fffca220be50001c59858,7,0,2024-02-28T14:35:36.601Z,french_87.wav,0,poule,322,26,4,5,français,f,4,0.4,-43.83456388,0.88568527
5b8fffca220be50001c59858,7,0,2024-02-28T14:35:36.601Z,french_87.wav,0,poule,322,26,4,5,français,f,5,0.5,-75.19485474,0.59200872
5b8fffca220be50001c59858,7,0,2024-02-28T14:35:36.601Z,french_87.wav,0,poule,322,26,4,5,français,f,6,0.6,-41.9677828,1.00282805
5b8fffca220be50001c59858,7,0,2024-02-28T14:35:36.601Z,french_87.wav,0,poule,322,26,4,5,français,f,7,0.7,48.89631163,0.36234637
5b8fffca220be50001c59858,7,0,2024-02-28T14:35:36.601Z,french_87.wav,0,poule,322,26,4,5,français,f,8,0.8,59.57141731,1.86287014
5b8fffca220be50001c59858,7,0,2024-02-28T14:35:36.601Z,french_87.wav,0,poule,322,26,4,5,français,f,9,0.9,-7.29688456,0.55653028
5b8fffca220be50001c59858,7,0,2024-02-28T14:35:36.601Z,french_87.wav,0,poule,322,26,4,5,français,f,10,1.0,-56.30540489,1.69420603
5b8fffca220be50001c59858,7,0,2024-02-28T14:35:36.601Z,french_87.wav,0,poule,322,26,4,5,français,f,11,1.1,-92.5665511,0.74268973
5b8fffca220be50001c59858,7,0,2024-02-28T14:35:36.601Z,french_87.wav,0,poule,322,26,4,5,français,f,12,1.14141667,7.04899103,0.9328285
5b8fffca220be50001c59858,8,0,2024-02-28T14:35:36.601Z,french_324.wav,0,pull,312,26,4,5,français,f,0,0.0,29.48435579,0.24977075
5b8fffca220be50001c59858,8,0,2024-02-28T14:35:36.601Z,french_324.wav,0,pull,312,26,4,5,français,f,1,0.1,-12.86077023,0.60660691
5b8fffca220be50001c59858,8,0,2024-02-28T14:35:36.601Z,french_324.wav,0,pull,312,26,4,5,français,f,2,0.2,46.37578497,0.99456154
5b8fffca220be50001c59858,8,0,2024-02-28T14:35:36.601Z,french_324.wav,0,pull,312,26,4,5,français,f,3,0.3,-59.94288497,0.72384829
5b8fffca220be50001c59858,8,0,2024-02-28T14:35:36.601Z,french_324.wav,0,pull,312,26,4,5,français,f,4,0.4,-53.99559511,1.72248011
5b8fffca220be50001c59858,8,0,2024-02-28T14:35:36.601Z,french_324.wav,0,pull,312,26,4,5,français,f,5,0.5,45.88563697,1.3825471
5b8fffca220be50001c59858,8,0,2024-02-28T14:35:36.601Z,french_324.wav,0,pull,312,26,4,5,français,f,6,0.6,-44.14854504,1.83694132
5b8fffca220be50001c59858,8,0,2024-02-28T14:35:36.601Z,french_324.wav,0,pull,312,26,4,5,français,f,7,0.7,-61.31230077,1.25302686
5b8fffca220be50001c59858,8,0,2024-02-28T14:35:36.601Z,french_324.wav,0,pull,312,26,4,5,français,f,8,0.8,44.45043245,0.61220659
5b8fffca220be50001c59858,8,0,2024-02-28T14:35:36.601Z,french_324.wav,0,pull,312,26,4,5,français,f,9,0.9,-5.57853866,1.12870649
5b8fffca220be50001c59858,8,0,2024-02-28T14:35:36.601Z,french_324.wav,0,pull,312,26,4,5,français,f,10,1.0,59.99037779,1.29442933
5b8fffca220be50001c59858,8,0,2024-02-28T14:35:36.601Z,french_324.wav,0,pull,312,26,4,5,français,f,11,1.1,-49.32219251,1.14424628
5b8fffca220be50001c59858,8,0,2024-02-28T14:35:36.601Z,french_324.wav,0,pull,312,26,4,5,français,f,12,1.14141667,81.26576792,1.85932034
5b8fffca220be50001c59858,9,0,2024-02-28T14:35:36.601Z,french_417.wav,0,poule,101,26,4,5,français,f,0,0.0,-32.77068381,1.43807666
5b8fffca220be50001c59858,9,0,2024-02-28T14:35:36.601Z,french_417.wav,0,poule,101,26,4,5,français,f,1,0.1,10.55708239,0.31892394
5b8fffca220be50001c59858,9,0,2024-02-28T14:35:36.601Z,french_417.wav,0,poule,101,26,4,5,français,f,2,0.2,9.91718709,0.85335618
5b8fffca220be50001c59858,9,0,2024-02-28T14:35:36.601Z,french_417.wav,0,poule,101,26,4,5,français,f,3,0.3,-19.65098282,1.09322127
5b8fffca220be50001c59858,9,0,2024-02-28T14:35:36.601Z,french_417.wav,0,poule,101,26,4,5,français,f,4,0.4,78.0410625,1.86029096
5b8fffca220be50001c59858,9,0,2024-02-28T14:35:36.601Z,french_417.wav,0,poule,101,26,4,5,français,f,5,0.5,-63.41834819,1.98490369
5b8fffca220be50001c59858,9,0,2024-02-28T14:35:36.601Z,french_417.wav,0,poule,101,26,4,5,français,f,6,0.6,-12.08890259,0.83094909
5b8fffca220be50001c59858,9,0,2024-02-28T14:35:36.601Z,french_417.wav,0,poule,101,26,4,5,français,f,7,0.7,-70.29934215,1.67039107
5b8fffca220be50001c59858,9,0,2024-02-28T14:35:36.601Z,french_417.wav,0,poule,101,26,4,5,français,f,8,0.8,4.63752128,1.16186805
5b8fffca220be50001c59858,9,0,2024-02-28T14:35:36.601Z,french_417.wav,0,poule,101,26,4,5,français,f,9,0.9,-68.78784985,0.77381791
5b8fffca220be50001c59858,9,0,2024-02-28T14:35:36.601Z,french_417.wav,0,poule,101,26,4,5,français,f,10,1.0,70.79482523,1.82295332
5b8fffca220be50001c59858,9,0,2024-02-28T14:35:36.601Z,french_417.wav,0,poule,101,26,4,5,français,f,11,1.1,-86.94841883,0.89972345
5b8fffca220be50001c59858,9,0,2024-02-28T14:35:36.601Z,french_417.wav,0,poule,101,26,4,5,français,f,12,1.14141667,94.70906792,1.91023493
5b8fffca220be50001c59858,10,0,2024-02-28T14:35:36.601Z,french_972.wav,0,poule,248,26,4,5,français,f,0,0.0,-58.81822017,1.66981598
5b8fffca220be50001c59858,10,0,2024-02-28T14:35:36.601Z,french_972.wav,0,poule,248,26,4,5,français,f,1,0.1,34.2814858,0.83771232
5b8fffca220be50001c59858,10,0,2024-02-28T14:35:36.601Z,french_972.wav,0,poule,248,26,4,5,français,f,2,0.2,43.99607496,1.84031443
5b8fffca220be50001c59858,10,0,2024-02-28T14:35:36.601Z,french_972.wav,0,poule,248,26,4,5,français,f,3,0.3,33.10738459,0.59134414
5b8fffca220be50001c59858,10,0,2024-02-28T14:35:36.601Z,french_972.wav,0,poule,248,26,4,5,français,f,4,0.4,97.56823967,0.79653586
5b8fffca220be50001c59858,10,0,2024-02-28T14:35:36.601Z,french_972.wav,0,poule,248,26,4,5,français,f,5,0.5,55.48509594,0.79909451
5b8fffca220be50001c59858,10,0,2024-02-28T14:35:36.601Z,french_972.wav,0,poule,248,26,4,5,français,f,6,0.6,8.26795873,0.62568008
5b8fffca220be50001c59858,10,0,2024-02-28T14:35:36.601Z,french_972.wav,0,poule,248,26,4,5,français,f,7,0.7,-94.62638325,1.95315118
5b8fffca220be50001c59858,10,0,2024-02-28T14:35:36.601Z,french_972.wav,0,poule,248,26,4,5,français,f,8,0.8,-5.39482949,1.30361038
5b8fffca220be50001c59858,10,0,2024-02-28T14:35:36.601Z,french_972.wav,0,poule,248,26,4,5,français,f,9,0.9,86.45351621,1.20040606
5b8fffca220be50001c59858,10,0,2024-02-28T14:35:36.601Z,french_972.wav,0,poule,248,26,4,5,français,f,10,1.0,5.06049595,1.77234817
5b8fffca220be50001c59858,10,0,2024-02-28T14:35:36.601Z,french_972.wav,0,poule,248,26,4,5,français,f,11,1.1,53.29420755,0.02841743
5b8fffca220be50001c59858,10,0,2024-02-28T14:35:36.601Z,french_972.wav,0,poule,248,26,4,5,français,f,12,1.14141667,35.21157931,0.93331201
5b8fffca220be50001c59858,11,0,2024-02-28T14:35:36.601Z,french_644.wav,0,pull,413,26,4,5,français,f,0,0.0,74.83214381,1.50126041
5b8fffca220be50001c59858,11,0,2024-02-28T14:35:36.601Z,french_644.wav,0,pull,413,26,4,5,français,f,1,0.1,42.49051207,1.8548378
5b8fffca220be50001c59858,11,0,2024-02-28T14:35:36.601Z,french_644.wav,0,pull,413,26,4,5,français,f,2,0.2,90.54799171,1.64493334
5b8fffca220be50001c59858,11,0,2024-02-28T14:35:36.601Z,french_644.wav,0,pull,413,26,4,5,français,f,3,0.3,47.17852012,0.77650911
5b8fffca220be50001c59858,11,0,2024-02-28T14:35:36.601Z,french_644.wav,0,pull,413,26,4,5,français,f,4,0.4,3.30263657,1.92047714
5b8fffca220be50001c59858,11,0,2024-02-28T14:35:36.601Z,french_644.wav,0,pull,413,26,4,5,français,f,5,0.5,-34.13886535,0.71247883
5b8fffca220be50001c59858,11,0,2024-02-28T14:35:36.601Z,french_644.wav,0,pull,413,26,4,5,français,f,6,0.6,-56.77243545,1.54632823
5b8fffca220be50001c59858,11,0,2024-02-28T14:35:36.601Z,french_644.wav,0,pull,413,26,4,5,français,f,7,0.7,25.7362156,1.62920778
5b8fffca220be50001c59858,11,0,2024-02-28T14:35:36.601Z,french_644.wav,0,pull,413,26,4,5,français,f,8,0.8,-95.08022705,1.88559191
5b8fffca220be50001c59858,11,0,2024-02-28T14:35:36.601Z,french_644.wav,0,pull,413,26,4,5,français,f,9,0.9,77.23760269,0.03323224
5b8fffca220be50001c59858,11,0,2024-02-28T14:35:36.601Z,french_644.wav,0,pull,413,26,4,5,français,f,10,1.0,-25.42232077,1.31228193
5b8fffca220be50001c59858,11,0,2024-02-28T14:35:36.601Z,french_644.wav,0,pull,413,26,4,5,français,f,11,1.1,-29.11552135,0.75255545
5b8fffca220be50001c59858,11,0,2024-02-28T14:35:36.601Z,french_644.wav,0,pull,413,26,4,5,français,f,12,1.14141667,-57.8663424,1.94026239
5b8fffca220be50001c59858,12,0,2024-02-28T14:35:36.601Z,french_109.wav,0,poule,394,26,4,5,français,f,0,0.0,1.17844242,1.5803853
5b8fffca220be50001c59858,12,0,2024-02-28T14:35:36.601Z,french_109.wav,0,poule,394,26,4,5,français,f,1,0.1,-14.85452266,0.56742715
5b8fffca220be50001c59858,12,0,2024-02-28T14:35:36.601Z,french_109.wav,0,poule,394,26,4,5,français,f,2,0.2,-20.37230195,0.78661325
5b8fffca220be50001c59858,12,0,2024-02-28T14:35:36.601Z,french_109.wav,0,poule,394,26,4,5,français,f,3,0.3,49.74194323,0.33324213
5b8fffca220be50001c59858,12,0,2024-02-28T14:35:36.601Z,french_109.wav,0,poule,394,26,4,5,français,f,4,0.4,-65.96631617,0.49184911
5b8fffca220be50001c59858,12,0,2024-02-28T14:35:36.601Z,french_109.wav,0,poule,394,26,4,5,français,f,5,0.5,21.76864509,0.90813617
5b8fffca220be50001c59858,12,0,2024-02-28T14:35:36.601Z,french_109.wav,0,poule,394,26,4,5,français,f,6,0.6,20.73976333,1.60003572
5b8fffca220be50001c59858,12,0,2024-02-28T14:35:36.601Z,french_109.wav,0,poule,394,26,4,5,français,f,7,0.7,70.44353833,0.49286217
5b8fffca220be50001c59858,12,0,2024-02-28T14:35:36.601Z,french_109.wav,0,poule,394,26,4,5,français,f,8,0.8,51.04994309,1.51483798
5b8fffca220be50001c59858,12,0,2024-02-28T14:35:36.601Z,french_109.wav,0,poule,394,26,4,5,français,f,9,0.9,20.19663893,1.58201919
5b8fffca220be50001c59858,12,0,2024-02-28T14:35:36.601Z,french_109.wav,0,poule,394,26,4,5,français,f,10,1.0,6.52382528,0.61887811
5b8fffca220be50001c59858,12,0,2024-02-28T14:35:36.601Z,french_109.wav,0,poule,394,26,4,5,français,f,11,1.1,-82.64651079,1.53074757
5b8fffca220be50001c59858,12,0,2024-02-28T14:35:36.601Z,french_109.wav,0,poule,394,26,4,5,français,f,12,1.14141667,-19.22290242,1.29835876
5b8fffca220be50001c59858,13,0,2024-02-28T14:35:36.601Z,french_453.wav,0,pull,543,26,4,5,français,f,0,0.0,-23.12360245,0.90227617
5b8fffca220be50001c59858,13,0,2024-02-28T14:35:36.601Z,french_453.wav,0,pull,543,26,4,5,français,f,1,0.1,29.79054149,0.21120058
5b8fffca220be50001c59858,13,0,2024-02-28T14:35:36.601Z,french_453.wav,0,pull,543,26,4,5,français,f,2,0.2,-61.88371212,0.51262885
5b8fffca220be50001c59858,13,0,2024-02-28T14:35:36.601Z,french_453.wav,0,pull,543,26,4,5,français,f,3,0.3,24.4476251,1.10207476
5b8fffca220be50001c59858,13,0,2024-02-28T14:35:36.601Z,french_453.wav,0,pull,543,26,4,5,français,f,4,0.4,74.62873842,0.01288431
5b8fffca220be50001c59858,13,0,2024-02-28T14:35:36.601Z,french_453.wav,0,pull,543,26,4,5,français,f,5,0.5,12.37672846,0.02891067
5b8fffca220be50001c59858,13,0,2024-02-28T14:35:36.601Z,french_453.wav,0,pull,543,26,4,5,français,f,6,0.6,-70.00186754,0.10282501
5b8fffca220be50001c59858,13,0,2024-02-28T14:35:36.601Z,french_453.wav,0,pull,543,26,4,5,français,f,7,0.7,11.74973885,0.68270454
5b8fffca220be50001c59858,13,0,2024-02-28T14:35:36.601Z,french_453.wav,0,pull,543,26,4,5,français,f,8,0.8,-80.88572625,0.50027224
5b8fffca220be50001c59858,13,0,2024-02-28T14:35:36.601Z,french_453.wav,0,pull,543,26,4,5,français,f,9,0.9,66.25216979,1.17966042
5b8fffca220be50001c59858,13,0,2024-02-28T14:35:36.601Z,french_453.wav,0,pull,543,26,4,5,français,f,10,1.0,-23.72864128,1.91038714
5b8fffca220be50001c59858,13,0,2024-02-28T14:35:36.601Z,french_453.wav,0,pull,543,26,4,5,français,f,11,1.1,33.84760067,1.13795736
5b8fffca220be50001c59858,13,0,2024-02-28T14:35:36.601Z,french_453.wav,0,pull,543,26,4,5,français,f,12,1.14141667,-62.79214688,0.6421682
5b8fffca220be50001c59858,14,0,2024-02-28T14:35:36.601Z,french_920.wav,0,pull,1184,26,4,5,français,f,0,0.0,-19.30176094,0.60193283
5b8fffca220be50001c59858,14,0,2024-02-28T14:35:36.601Z,french_920.wav,0,pull,1184,26,4,5,français,f,1,0.1,42.24966406,0.7358632
5b8fffca220be50001c59858,14,0,2024-02-28T14:35:36.601Z,french_920.wav,0,pull,1184,26,4,5,français,f,2,0.2,4.59844531,0.13299168
5b8fffca220be50001c59858,14,0,2024-02-28T14:35:36.601Z,french_920.wav,0,pull,1184,26,4,5,français,f,3,0.3,-50.26112208,0.59112751
5b8fffca220be50001c59858,14,0,2024-02-28T14:35:36.601Z,french_920.wav,0,pull,1184,26,4,5,français,f,4,0.4,47.39747576,1.45544303
5b8fffca220be50001c59858,14,0,2024-02-28T14:35:36.601Z,french_920.wav,0,pull,1184,26,4,5,français,f,5,0.5,27.93582477,0.40873773
5b8fffca220be50001c59858,14,0,2024-02-28T14:35:36.601Z,french_920.wav,0,pull,1184,26,4,5,français,f,6,0.6,-38.24165331,0.52359377
5b8fffca220be50001c59858,14,0,2024-02-28T14:35:36.601Z,french_920.wav,0,pull,1184,26,4,5,français,f,7,0.7,79.50072261,0.61254304
5b8fffca220be50001c59858,14,0,2024-02-28T14:35:36.601Z,french_920.wav,0,pull,1184,26,4,5,français,f,8,0.8,-91.19546582,1.38763095
5b8fffca220be50001c59858,14,0,2024-02-28T14:35:36.601Z,french_920.wav,0,pull,1184,26,4,5,français,f,9,0.9,-20.42037276,0.18569195
5b8fffca220be50001c59858,14,0,2024-02-28T14:35:36.601Z,french_920.wav,0,pull,1184,26,4,5,français,f,10,1.0,91.97225273,0.6972115
5b8fffca220be50001c59858,14,0,2024-02-28T14:35:36.601Z,french_920.wav,0,pull,1184,26,4,5,français,f,11,1.1,-48.93345242,0.62343363
5b8fffca220be50001c59858,14,0,2024-02-28T14:35:36.601Z,french_920.wav,0,pull,1184,26,4,5,français,f,12,1.14141667,95.20886409,1.83344131
5b8fffca220be50001c59858,15,0,2024-02-28T14:35:36.601Z,french_783.wav,0,poule,233,26,4,5,français,f,0,0.0,67.95688706,1.32033802
5b8fffca220be50001c59858,15,0,2024-02-28T14:35:36.601Z,french_783.wav,0,poule,233,26,4,5,français,f,1,0.1,66.58489906,1.08556824
5b8fffca220be50001c59858,15,0,2024-02-28T14:35:36.601Z,french_783.wav,0,poule,233,26,4,5,français,f,2,0.2,-41.94359354,0.61415439
5b8fffca220be50001c59858,15,0,2024-02-28T14:35:36.601Z,french_783.wav,0,poule,233,26,4,5,français,f,3,0.3,60.84755071,0.40512708
5b8fffca220be50001c59858,15,0,2024-02-28T14:35:36.601Z,french_783.wav,0,poule,233,26,4,5,français,f,4,0.4,-30.61881203,0.06015789
5b8fffca220be50001c59858,15,0,2024-02-28T14:35:36.601Z,french_783.wav,0,poule,233,26,4,5,français,f,5,0.5,-40.67842679,0.65199148
5b8fffca220be50001c59858,15,0,2024-02-28T14:35:36.601Z,french_783.wav,0,poule,233,26,4,5,français,f,6,0.6,64.08569012,0.78956563
5b8fffca220be50001c59858,15,0,2024-02-28T14:35:36.601Z,french_783.wav,0,poule,233,26,4,5,français,f,7,0.7,99.13880064,0.80807467
5b8fffca220be50001c59858,15,0,2024-02-28T14:35:36.601Z,french_783.wav,0,poule,233,26,4,5,français,f,8,0.8,-12.83246815,0.85940772
5b8fffca220be50001c59858,15,0,2024-02-28T14:35:36.601Z,french_783.wav,0,poule,233,26,4,5,français,f,9,0.9,10.70429708,1.2718336
5b8fffca220be50001c59858,15,0,2024-02-28T14:35:36.601Z,french_783.wav,0,poule,233,26,4,5,français,f,10,1.0,-81.74688152,1.76451942
5b8fffca220be50001c59858,15,0,2024-02-28T14:35:36.601Z,french_783.wav,0,poule,233,26,4,5,français,f,11,1.1,-91.16540139,1.6213532
5b8fffca220be50001c59858,15,0,2024-02-28T14:35:36.601Z,french_783.wav,0,poule,233,26,4,5,français,f,12,1.14141667,62.13275496,0.99499193
5b8fffca220be50001c59858,16,0,2024-02-28T14:35:36.601Z,french_259.wav,0,poule,298,26,4,5,français,f,0,0.0,-59.91817448,1.41028743
5b8fffca220be50001c59858,16,0,2024-02-28T14:35:36.601Z,french_259.wav,0,poule,298,26,4,5,français,f,1,0.1,-76.78104066,0.39402833
5b8fffca220be50001c59858,16,0,2024-02-28T14:35:36.601Z,french_259.wav,0,poule,298,26,4,5,français,f,2,0.2,-24.57474892,0.55524153
5b8fffca220be50001c59858,16,0,2024-02-28T14:35:36.601Z,french_259.wav,0,poule,298,26,4,5,français,f,3,0.3,14.52282821,1.28540182
5b8fffca220be50001c59858,16,0,2024-02-28T14:35:36.601Z,french_259.wav,0,poule,298,26,4,5,français,f,4,0.4,-74.78142886,1.3039233
5b8fffca220be50001c59858,16,0,2024-02-28T14:35:36.601Z,french_259.wav,0,poule,298,26,4,5,français,f,5,0.5,92.44025007,1.14426098
5b8fffca220be50001c59858,16,0,2024-02-28T14:35:36.601Z,french_259.wav,0,poule,298,26,4,5,français,f,6,0.6,-62.83388566,0.89085824
5b8fffca220be50001c59858,16,0,2024-02-28T14:35:36.601Z,french_259.wav,0,poule,298,26,4,5,français,f,7,0.7,-12.86689319,1.12937419
5b8fffca220be50001c59858,16,0,2024-02-28T14:35:36.601Z,french_259.wav,0,poule,298,26,4,5,français,f,8,0.8,-56.0210738,1.6719433
5b8fffca220be50001c59858,16,0,2024-02-28T14:35:36.601Z,french_259.wav,0,poule,298,26,4,5,français,f,9,0.9,16.50496054,0.74095539
5b8fffca220be50001c59858,16,0,2024-02-28T14:35:36.601Z,french_259.wav,0,poule,298,26,4,5,français,f,10,1.0,26.27464012,1.24119924
5b8fffca220be50001c59858,16,0,2024-02-28T14:35:36.601Z,french_259.wav,0,poule,298,26,4,5,français,f,11,1.1,-25.91156451,0.75010555
5b8fffca220be50001c59858,16,0,2024-02-28T14:35:36.601Z,french_259.wav,0,poule,298,26,4,5,français,f,12,1.14141667,79.12845204,0.55605734
5b8fffca220be50001c59858,17,0,2024-02-28T14:35:36.601Z,french_165.wav,0,poule,236,26,4,5,français,f,0,0.0,-30.57242851,0.37315661
5b8fffca220be50001c59858,17,0,2024-02-28T14:35:36.601Z,french_165.wav,0,poule,236,26,4,5,français,f,1,0.1,14.97931662,1.05022762
5b8fffca220be50001c59858,17,0,2024-02-28T14:35:36.601Z,french_165.wav,0,poule,236,26,4,5,français,f,2,0.2,-12.73059909,1.01492906
5b8fffca220be50001c59858,17,0,2024-02-28T14:35:36.601Z,french_165.wav,0,poule,236,26,4,5,français,f,3,0.3,-76.6340538,1.93408877
5b8fffca220be50001c59858,17,0,2024-02-28T14:35:36.601Z,french_165.wav,0,poule,236,26,4,5,français,f,4,0.4,-39.77201686,1.23235421
5b8fffca220be50001c59858,17,0,2024-02-28T14:35:36.601Z,french_165.wav,0,poule,236,26,4,5,français,f,5,0.5,71.31806432,1.09863872
5b8fffca220be50001c59858,17,0,2024-02-28T14:35:36.601Z,french_165.wav,0,poule,236,26,4,5,français,f,6,0.6,10.64683686,1.73842976
5b8fffca220be50001c59858,17,0,2024-02-28T14:35:36.601Z,french_165.wav,0,poule,236,26,4,5,français,f,7,0.7,-39.62288549,1.7696099
5b8fffca220be50001c59858,17,0,2024-02-28T14:35:36.601Z,french_165.wav,0,poule,236,26,4,5,français,f,8,0.8,30.96552198,0.64569778
5b8fffca220be50001c59858,17,0,2024-02-28T14:35:36.601Z,french_165.wav,0,poule,236,26,4,5,français,f,9,0.9,-10.22867333,0.76121888
5b8fffca220be50001c59858,17,0,2024-02-28T14:35:36.601Z,french_165.wav,0,poule,236,26,4,5,français,f,10,1.0,10.06380936,1.37138018
5b8fffca220be50001c59858,17,0,2024-02-28T14:35:36.601Z,french_165.wav,0,poule,236,26,4,5,français,f,11,1.1,46.55251325,0.47603266
5b8fffca220be50001c59858,17,0,2024-02-28T14:35:36.601Z,french_165.wav,0,poule,236,26,4,5,français,f,12,1.14141667,-68.18565714,0.62197503
5b8fffca220be50001c59858,18,0,2024-02-28T14:35:36.601Z,french_719.wav,0,poule,1022,26,4,5,français,f,0,0.0,28.87558688,0.04017745
5b8fffca220be50001c59858,18,0,2024-02-28T14:35:36.601Z,french_719.wav,0,poule,1022,26,4,5,français,f,1,0.1,-77.56778475,0.4685392
5b8fffca220be50001c59858,18,0,2024-02-28T14:35:36.601Z,french_719.wav,0,poule,1022,26,4,5,français,f,2,0.2,-78.17645142,0.7614239
5b8fffca220be50001c59858,18,0,2024-02-28T14:35:36.601Z,french_719.wav,0,poule,1022,26,4,5,français,f,3,0.3,-31.03424709,0.57429914
5b8fffca220be50001c59858,18,0,2024-02-28T14:35:36.601Z,french_719.wav,0,poule,1022,26,4,5,français,f,4,0.4,-68.16265858,0.41797793
5b8fffca220be50001c59858,18,0,2024-02-28T14:35:36.601Z,french_719.wav,0,poule,1022,26,4,5,français,f,5,0.5,64.36302735,1.2264158
5b8fffca220be50001c59858,18,0,2024-02-28T14:35:36.601Z,french_719.wav,0,poule,1022,26,4,5,français,f,6,0.6,-6.36500349,0.08195012
5b8fffca220be50001c59858,18,0,2024-02-28T14:35:36.601Z,french_719.wav,0,poule,1022,26,4,5,français,f,7,0.7,-85.5800648,0.06647283
5b8fffca220be50001c59858,18,0,2024-02-28T14:35:36.601Z,french_719.wav,0,poule,1022,26,4,5,français,f,8,0.8,-50.52981857,0.36082267
5b8fffca220be50001c59858,18,0,2024-02-28T14:35:36.601Z,french_719.wav,0,poule,1022,26,4,5,français,f,9,0.9,-69.15152335,0.47322342
5b8fffca220be50001c59858,18,0,2024-02-28T14:35:36.601Z,french_719.wav,0,poule,1022,26,4,5,français,f,10,1.0,52.64793667,0.67970515
5b8fffca220be50001c59858,18,0,2024-02-28T14:35:36.601Z,french_719.wav,0,poule,1022,26,4,5,français,f,11,1.1,63.66525963,1.71506737
5b8fffca220be50001c59858,18,0,2024-02-28T14:35:36.601Z,french_719.wav,0,poule,1022,26,4,5,français,f,12,1.14141667,-91.53134556,1.03851815
5b8fffca220be50001c59858,19,0,2024-02-28T14:35:36.601Z,french_846.wav,0,poule,373,26,4,5,français,f,0,0.0,43.42961838,1.28400626
5b8fffca220be50001c59858,19,0,2024-02-28T14:35:36.601Z,french_846.wav,0,poule,373,26,4,5,français,f,1,0.1,48.91207132,0.70533895
5b8fffca220be50001c59858,19,0,2024-02-28T14:35:36.601Z,french_846.wav,0,poule,373,26,4,5,français,f,2,0.2,-68.42359385,0.06316808
5b8fffca220be50001c59858,19,0,2024-02-28T14:35:36.601Z,french_846.wav,0,poule,373,26,4,5,français,f,3,0.3,77.65804288,0.61229951
5b8fffca220be50001c59858,19,0,2024-02-28T14:35:36.601Z,french_846.wav,0,poule,373,26,4,5,français,f,4,0.4,98.73987553,0.63250943
5b8fffca220be50001c59858,19,0,2024-02-28T14:35:36.601Z,french_846.wav,0,poule,373,26,4,5,français,f,5,0.5,-52.72140445,0.92323899
5b8fffca220be50001c59858,19,0,2024-02-28T14:35:36.601Z,french_846.wav,0,poule,373,26,4,5,français,f,6,0.6,75.92396611,1.83199323
5b8fffca220be50001c59858,19,0,2024-02-28T14:35:36.601Z,french_846.wav,0,poule,373,26,4,5,français,f,7,0.7,-55.96148037,0.13437825
5b8fffca220be50001c59858,19,0,2024-02-28T14:35:36.601Z,french_846.wav,0,poule,373,26,4,5,français,f,8,0.8,-32.72936207,0.25967485
5b8fffca220be50001c59858,19,0,2024-02-28T14:35:36.601Z,french_846.wav,0,poule,373,26,4,5,français,f,9,0.9,28.49983495,1.88952139
5b8fffca220be50001c59858,19,0,2024-02-28T14:35:36.601Z,french_846.wav,0,poule,373,26,4,5,français,f,10,1.0,-51.57941373,1.26440491
5b8fffca220be50001c59858,19,0,2024-02-28T14:35:36.601Z,french_846.wav,0,poule,373,26,4,5,français,f,11,1.1,-3.09394124,1.62136954
5b8fffca220be50001c59858,19,0,2024-02-28T14:35:36.601Z,french_846.wav,0,poule,373,26,4,5,français,f,12,1.14141667,-55.77116461,0.52928256
5b8fffca220be50001c59858,20,0,2024-02-28T14:35:36.601Z,french_222.wav,0,poule,1396,26,4,5,français,f,0,0.0,28.12895203,0.63804815
5b8fffca220be50001c59858,20,0,2024-02-28T14:35:36.601Z,french_222.wav,0,poule,1396,26,4,5,français,f,1,0.1,54.21350821,0.11012111
5b8fffca220be50001c59858,20,0,2024-02-28T14:35:36.601Z,french_222.wav,0,poule,1396,26,4,5,français,f,2,0.2,-51.19383466,1.84334534
5b8fffca220be50001c59858,20,0,2024-02-28T14:35:36.601Z,french_222.wav,0,poule,1396,26,4,5,français,f,3,0.3,96.22549518,1.45975235
5b8fffca220be50001c59858,20,0,2024-02-28T14:35:36.601Z,french_222.wav,0,poule,1396,26,4,5,français,f,4,0.4,-32.41307863,1.95527553
5b8fffca220be50001c59858,20,0,2024-02-28T14:35:36.601Z,french_222.wav,0,poule,1396,26,4,5,français,f,5,0.5,26.65044328,1.73920612
5b8fffca220be50001c59858,20,0,2024-02-28T14:35:36.601Z,french_222.wav,0,poule,1396,26,4,5,français,f,6,0.6,9.32091886,1.89068739
5b8fffca220be50001c59858,20,0,2024-02-28T14:35:36.601Z,french_222.wav,0,poule,1396,26,4,5,français,f,7,0.7,-64.89954131,0.09931373
5b8fffca220be50001c59858,20,0,2024-02-28T14:35:36.601Z,french_222.wav,0,poule,1396,26,4,5,français,f,8,0.8,36.72622087,1.22637204
5b8fffca220be50001c59858,20,0,2024-02-28T14:35:36.601Z,french_222.wav,0,poule,1396,26,4,5,français,f,9,0.9,40.2660854,1.29702351
5b8fffca220be50001c59858,20,0,2024-02-28T14:35:36.601Z,french_222.wav,0,poule,1396,26,4,5,français,f,10,1.0,-7.20928191,1.70759595
5b8fffca220be50001c59858,20,0,2024-02-28T14:35:36.601Z,french_222.wav,0,poule,1396,26,4,5,français,f,11,1.1,6.1475954,0.3841372
5b8fffca220be50001c59858,20,0,2024-02-28T14:35:36.601Z,french_222.wav,0,poule,1396,26,4,5,français,f,12,1.14141667,27.94232384,0.96662368
5b8fffca220be50001c59858,21,0,2024-02-28T14:35:36.601Z,french_496.wav,0,pull,340,26,4,5,français,f,0,0.0,84.59361564,1.50422402
5b8fffca220be50001c59858,21,0,2024-02-28T14:35:36.601Z,french_496.wav,0,pull,340,26,4,5,français,f,1,0.1,-5.05294376,1.63237531
5b8fffca220be50001c59858,21,0,2024-02-28T14:35:36.601Z,french_496.wav,0,pull,340,26,4,5,français,f,2,0.2,-52.76925695,0.92311673
5b8fffca220be50001c59858,21,0,2024-02-28T14:35:36.601Z,french_496.wav,0,pull,340,26,4,5,français,f,3,0.3,95.09060688,0.72610966
5b8fffca220be50001c59858,21,0,2024-02-28T14:35:36.601Z,french_496.wav,0,pull,340,26,4,5,français,f,4,0.4,86.20023919,0.88263608
5b8fffca220be50001c59858,21,0,2024-02-28T14:35:36.601Z,french_496.wav,0,pull,340,26,4,5,français,f,5,0.5,-52.82326173,1.78907897
5b8fffca220be50001c59858,21,0,2024-02-28T14:35:36.601Z,french_496.wav,0,pull,340,26,4,5,français,f,6,0.6,10.63524361,0.7019144
5b8fffca220be50001c59858,21,0,2024-02-28T14:35:36.601Z,french_496.wav,0,pull,340,26,4,5,français,f,7,0.7,-21.15639044,1.65387907
5b8fffca220be50001c59858,21,0,2024-02-28T14:35:36.601Z,french_496.wav,0,pull,340,26,4,5,français,f,8,0.8,30.98152688,1.28867146
5b8fffca220be50001c59858,21,0,2024-02-28T14:35:36.601Z,french_496.wav,0,pull,340,26,4,5,français,f,9,0.9,65.47260644,0.50792946
5b8fffca220be50001c59858,21,0,2024-02-28T14:35:36.601Z,french_496.wav,0,pull,340,26,4,5,français,f,10,1.0,-26.92121505,0.69200465
5b8fffca220be50001c59858,21,0,2024-02-28T14:35:36.601Z,french_496.wav,0,pull,340,26,4,5,français,f,11,1.1,75.50063725,1.50293457
5b8fffca220be50001c59858,21,0,2024-02-28T14:35:36.601Z,french_496.wav,0,pull,340,26,4,5,français,f,12,1.14141667,65.89618527,1.08742184
5b8fffca220be50001c59858,22,0,2024-02-28T14:35:36.601Z,french_909.wav,0,poule,186,26,4,5,français,f,0,0.0,-64.5782484,1.76379527
5b8fffca220be50001c59858,22,0,2024-02-28T14:35:36.601Z,french_909.wav,0,poule,186,26,4,5,français,f,1,0.1,-95.21268442,1.79782836
5b8fffca220be50001c59858,22,0,2024-02-28T14:35:36.601Z,french_909.wav,0,poule,186,26,4,5,français,f,2,0.2,-61.56262693,1.19138868
5b8fffca220be50001c59858,22,0,2024-02-28T14:35:36.601Z,french_909.wav,0,poule,186,26,4,5,français,f,3,0.3,-34.31563602,0.3364028
5b8fffca220be50001c59858,22,0,2024-02-28T14:35:36.601Z,french_909.wav,0,poule,186,26,4,5,français,f,4,0.4,34.69813289,1.85790827
5b8fffca220be50001c59858,22,0,2024-02-28T14:35:36.601Z,french_909.wav,0,poule,186,26,4,5,français,f,5,0.5,-19.20312526,1.04934312
5b8fffca220be50001c59858,22,0,2024-02-28T14:35:36.601Z,french_909.wav,0,poule,186,26,4,5,français,f,6,0.6,-58.93366075,1.33665727
5b8fffca220be50001c59858,22,0,2024-02-28T14:35:36.601Z,french_909.wav,0,poule,186,26,4,5,français,f,7,0.7,-0.21005651,1.34926899
5b8fffca220be50001c59858,22,0,2024-02-28T14:35:36.601Z,french_909.wav,0,poule,186,26,4,5,français,f,8,0.8,20.08088994,0.04343107
5b8fffca220be50001c59858,22,0,2024-02-28T14:35:36.601Z,french_909.wav,0,poule,186,26,4,5,français,f,9,0.9,-22.20564,1.26601971
5b8fffca220be50001c59858,22,0,2024-02-28T14:35:36.601Z,french_909.wav,0,poule,186,26,4,5,français,f,10,1.0,28.75495026,1.47988988
5b8fffca220be50001c59858,22,0,2024-02-28T14:35:36.601Z,french_909.wav,0,poule,186,26,4,5,français,f,11,1.1,-38.48195906,0.95787887
5b8fffca220be50001c59858,22,0,2024-02-28T14:35:36.601Z,french_909.wav,0,poule,186,26,4,5,français,f,12,1.14141667,-66.99076148,1.1698671
5b8fffca220be50001c59858,23,0,2024-02-28T14:35:36.601Z,french_166.wav,0,poule,387,26,4,5,français,f,0,0.0,-22.8295336,0.98939774
5b8fffca220be50001c59858,23,0,2024-02-28T14:35:36.601Z,french_166.wav,0,poule,387,26,4,5,français,f,1,0.1,14.33636562,0.78908761
5b8fffca220be50001c59858,23,0,2024-02-28T14:35:36.601Z,french_166.wav,0,poule,387,26,4,5,français,f,2,0.2,-32.76172213,0.51317007
5b8fffca220be50001c59858,23,0,2024-02-28T14:35:36.601Z,french_166.wav,0,poule,387,26,4,5,français,f,3,0.3,-7.88397719,0.37283333
5b8fffca220be50001c59858,23,0,2024-02-28T14:35:36.601Z,french_166.wav,0,poule,387,26,4,5,français,f,4,0.4,51.92763564,1.97840198
5b8fffca220be50001c59858,23,0,2024-02-28T14:35:36.601Z,french_166.wav,0,poule,387,26,4,5,français,f,5,0.5,-54.54324827,0.56612573
5b8fffca220be50001c59858,23,0,2024-02-28T14:35:36.601Z,french_166.wav,0,poule,387,26,4,5,français,f,6,0.6,70.56273054,0.83954762
5b8fffca220be50001c59858,23,0,2024-02-28T14:35:36.601Z,french_166.wav,0,poule,387,26,4,5,français,f,7,0.7,-69.25364705,1.0329173
5b8fffca220be50001c59858,23,0,2024-02-28T14:35:36.601Z,french_166.wav,0,poule,387,26,4,5,français,f,8,0.8,-88.09425491,0.5192872
5b8fffca220be50001c59858,23,0,2024-02-28T14:35:36.601Z,french_166.wav,0,poule,387,26,4,5,français,f,9,0.9,14.9037885,1.44412419
5b8fffca220be50001c59858,23,0,2024-02-28T14:35:36.601Z,french_166.wav,0,poule,387,26,4,5,français,f,10,1.0,-87.04528153,0.95474057
5b8fffca220be50001c59858,23,0,2024-02-28T14:35:36.601Z,french_166.wav,0,poule,387,26,4,5,français,f,11,1.1,18.00160319,1.86178802
5b8fffca220be50001c59858,23,0,2024-02-28T14:35:36.601Z,french_166.wav,0,poule,387,26,4,5,français,f,12,1.14141667,52.36923677,1.07082912
5b8fffca220be50001c59858,24,0,2024-02-28T14:35:36.601Z,french_484.wav,0,pull,443,26,4,5,français,f,0,0.0,6.83265532,0.52592683
5b8fffca220be50001c59858,24,0,2024-02-28T14:35:36.601Z,french_484.wav,0,pull,443,26,4,5,français,f,1,0.1,83.49239965,0.84238665
5b8fffca220be50001c59858,24,0,2024-02-28T14:35:36.601Z,french_484.wav,0,pull,443,26,4,5,français,f,2,0.2,70.78725764,0.69533335
5b8fffca220be50001c59858,24,0,2024-02-28T14:35:36.601Z,french_484.wav,0,pull,443,26,4,5,français,f,3,0.3,-5.74370192,0.62368717
5b8fffca220be50001c59858,24,0,2024-02-28T14:35:36.601Z,french_484.wav,0,pull,443,26,4,5,français,f,4,0.4,-22.9215122,1.93129742
5b8fffca220be50001c59858,24,0,2024-02-28T14:35:36.601Z,french_484.wav,0,pull,443,26,4,5,français,f,5,0.5,-48.70720534,0.19717675
5b8fffca220be50001c59858,24,0,2024-02-28T14:35:36.601Z,french_484.wav,0,pull,443,26,4,5,français,f,6,0.6,-87.25700763,1.0051103
5b8fffca220be50001c59858,24,0,2024-02-28T14:35:36.601Z,french_484.wav,0,pull,443,26,4,5,français,f,7,0.7,52.63394188,1.34413016
5b8fffca220be50001c59858,24,0,2024-02-28T14:35:36.601Z,french_484.wav,0,pull,443,26,4,5,français,f,8,0.8,-28.78801854,0.80549785
5b8fffca220be50001c59858,24,0,2024-02-28T14:35:36.601Z,french_484.wav,0,pull,443,26,4,5,français,f,9,0.9,-24.7890616,0.42644713
5b8fffca220be50001c59858,24,0,2024-02-28T14:35:36.601Z,french_484.wav,0,pull,443,26,4,5,français,f,10,1.0,-91.46030438,0.67801753
5b8fffca220be50001c59858,24,0,2024-02-28T14:35:36.601Z,french_484.wav,0,pull,443,26,4,5,français,f,11,1.1,-55.41551793,1.05030172
5b8fffca220be50001c59858,24,0,2024-02-28T14:35:36.601Z,french_484.wav,0,pull,443,26,4,5,français,f,12,1.14141667,-9.9830909,0.06913333
5b8fffca220be50001c59858,25,0,2024-02-28T14:35:36.601Z,french_701.wav,0,poule,323,26,4,5,français,f,0,0.0,13.86918761,0.63182109
5b8fffca220be50001c59858,25,0,2024-02-28T14:35:36.601Z,french_701.wav,0,poule,323,26,4,5,français,f,1,0.1,25.98390225,1.85758869
5b8fffca220be50001c59858,25,0,2024-02-28T14:35:36.601Z,french_701.wav,0,poule,323,26,4,5,français,f,2,0.2,62.79635394,1.68485958
5b8fffca220be50001c59858,25,0,2024-02-28T14:35:36.601Z,french_701.wav,0,poule,323,26,4,5,français,f,3,0.3,67.80376008,0.50866318
5b8fffca220be50001c59858,25,0,2024-02-28T14:35:36.601Z,french_701.wav,0,poule,323,26,4,5,français,f,4,0.4,-54.23175366,1.37500116
5b8fffca220be50001c59858,25,0,2024-02-28T14:35:36.601Z,french_701.wav,0,poule,323,26,4,5,français,f,5,0.5,-42.04160911,0.8503416
5b8fffca220be50001c59858,25,0,2024-02-28T14:35:36.601Z,french_701.wav,0,poule,323,26,4,5,français,f,6,0.6,-58.41766146,0.53241727
5b8fffca220be50001c59858,25,0,2024-02-28T14:35:36.601Z,french_701.wav,0,poule,323,26,4,5,français,f,7,0.7,90.23612499,1.86464457
5b8fffca220be50001c59858,25,0,2024-02-28T14:35:36.601Z,french_701.wav,0,poule,323,26,4,5,français,f,8,0.8,80.19297104,1.8007814
5b8fffca220be50001c59858,25,0,2024-02-28T14:35:36.601Z,french_701.wav,0,poule,323,26,4,5,français,f,9,0.9,-45.72951024,1.24365205
5b8fffca220be50001c59858,25,0,2024-02-28T14:35:36.601Z,french_701.wav,0,poule,323,26,4,5,français,f,10,1.0,35.47554357,1.16086821
5b8fffca220be50001c59858,25,0,2024-02-28T14:35:36.601Z,french_701.wav,0,poule,323,26,4,5,français,f,11,1.1,25.09086311,0.27592984
5b8fffca220be50001c59858,25,0,2024-02-28T14:35:36.601Z,french_701.wav,0,poule,323,26,4,5,français,f,12,1.14141667,-71.61211297,0.34423902
5b8fffca220be50001c59858,26,0,2024-02-28T14:35:36.601Z,french_892.wav,0,poule,386,26,4,5,français,f,0,0.0,2.48516085,0.58260241
5b8fffca220be50001c59858,26,0,2024-02-28T14:35:36.601Z,french_892.wav,0,poule,386,26,4,5,français,f,1,0.1,-76.22143396,1.93950295
5b8fffca220be50001c59858,26,0,2024-02-28T14:35:36.601Z,french_892.wav,0,poule,386,26,4,5,français,f,2,0.2,93.28499715,0.79251677
5b8fffca220be50001c59858,26,0,2024-02-28T14:35:36.601Z,french_892.wav,0,poule,386,26,4,5,français,f,3,0.3,12.13691899,1.61878069
5b8fffca220be50001c59858,26,0,2024-02-28T14:35:36.601Z,french_892.wav,0,poule,386,26,4,5,français,f,4,0.4,-69.30233484,0.35146725
5b8fffca220be50001c59858,26,0,2024-02-28T14:35:36.601Z,french_892.wav,0,poule,386,26,4,5,français,f,5,0.5,20.86949567,1.82455818
5b8fffca220be50001c59858,26,0,2024-02-28T14:35:36.601Z,french_892.wav,0,poule,386,26,4,5,français,f,6,0.6,-38.30390535,1.06886099
5b8fffca220be50001c59858,26,0,2024-02-28T14:35:36.601Z,french_892.wav,0,poule,386,26,4,5,français,f,7,0.7,-51.39274588,1.74424774
5b8fffca220be50001c59858,26,0,2024-02-28T14:35:36.601Z,french_892.wav,0,poule,386,26,4,5,français,f,8,0.8,66.90425757,1.75805462
5b8fffca220be50001c59858,26,0,2024-02-28T14:35:36.601Z,french_892.wav,0,poule,386,26,4,5,français,f,9,0.9,-53.91373226,1.69854439
5b8fffca220be50001c59858,26,0,2024-02-28T14:35:36.601Z,french_892.wav,0,poule,386,26,4,5,français,f,10,1.0,17.61869839,0.60409156
5b8fffca220be50001c59858,26,0,2024-02-28T14:35:36.601Z,french_892.wav,0,poule,386,26,4,5,français,f,11,1.1,-34.76358151,0.5214224
5b8fffca220be50001c59858,26,0,2024-02-28T14:35:36.601Z,french_892.wav,0,poule,386,26,4,5,français,f,12,1.14141667,15.85772352,1.48692913
5b8fffca220be50001c59858,27,0,2024-02-28T14:35:36.601Z,french_548.wav,0,poule,691,26,4,5,français,f,0,0.0,54.86314065,1.81744547
5b8fffca220be50001c59858,27,0,2024-02-28T14:35:36.601Z,french_548.wav,0,poule,691,26,4,5,français,f,1,0.1,-70.60670497,0.33721892
5b8fffca220be50001c59858,27,0,2024-02-28T14:35:36.601Z,french_548.wav,0,poule,691,26,4,5,français,f,2,0.2,55.69352869,1.2286075
5b8fffca220be50001c59858,27,0,2024-02-28T14:35:36.601Z,french_548.wav,0,poule,691,26,4,5,français,f,3,0.3,-61.47878925,0.67541423
5b8fffca220be50001c59858,27,0,2024-02-28T14:35:36.601Z,french_548.wav,0,poule,691,26,4,5,français,f,4,0.4,-11.97900613,1.75778453
5b8fffca220be50001c59858,27,0,2024-02-28T14:35:36.601Z,french_548.wav,0,poule,691,26,4,5,français,f,5,0.5,18.14617596,1.03239779
5b8fffca220be50001c59858,27,0,2024-02-28T14:35:36.601Z,french_548.wav,0,poule,691,26,4,5,français,f,6,0.6,80.02860728,1.13159617
5b8fffca220be50001c59858,27,0,2024-02-28T14:35:36.601Z,french_548.wav,0,poule,691,26,4,5,français,f,7,0.7,-44.1411094,1.06156024
5b8fffca220be50001c59858,27,0,2024-02-28T14:35:36.601Z,french_548.wav,0,poule,691,26,4,5,français,f,8,0.8,-45.71218284,1.283306
5b8fffca220be50001c59858,27,0,2024-02-28T14:35:36.601Z,french_548.wav,0,poule,691,26,4,5,français,f,9,0.9,63.93029421,0.64876388
5b8fffca220be50001c59858,27,0,2024-02-28T14:35:36.601Z,french_548.wav,0,poule,691,26,4,5,français,f,10,1.0,-1.52565372,0.73723592
5b8fffca220be50001c59858,27,0,2024-02-28T14:35:36.601Z,french_548.wav,0,poule,691,26,4,5,français,f,11,1.1,-65.11467392,1.25903075
5b8fffca220be50001c59858,27,0,2024-02-28T14:35:36.601Z,french_548.wav,0,poule,691,26,4,5,français,f,12,1.14141667,11.82578627,0.35535235
5b8fffca220be50001c59858,28,0,2024-02-28T14:35:36.601Z,french_237.wav,0,poule,1313,26,4,5,français,f,0,0.0,31.70987786,1.31590513
5b8fffca220be50001c59858,28,0,2024-02-28T14:35:36.601Z,french_237.wav,0,poule,1313,26,4,5,français,f,1,0.1,44.65820907,0.84112054
5b8fffca220be50001c59858,28,0,2024-02-28T14:35:36.601Z,french_237.wav,0,poule,1313,26,4,5,français,f,2,0.2,13.3186434,0.69527524
5b8fffca220be50001c59858,28,0,2024-02-28T14:35:36.601Z,french_237.wav,0,poule,1313,26,4,5,français,f,3,0.3,66.1783484,1.26135679
5b8fffca220be50001c59858,28,0,2024-02-28T14:35:36.601Z,french_237.wav,0,poule,1313,26,4,5,français,f,4,0.4,9.82166226,1.98640285
5b8fffca220be50001c59858,28,0,2024-02-28T14:35:36.601Z,french_237.wav,0,poule,1313,26,4,5,français,f,5,0.5,-28.83229096,0.12218975
5b8fffca220be50001c59858,28,0,2024-02-28T14:35:36.601Z,french_237.wav,0,poule,1313,26,4,5,français,f,6,0.6,76.24548925,0.73409952
5b8fffca220be50001c59858,28,0,2024-02-28T14:35:36.601Z,french_237.wav,0,poule,1313,26,4,5,français,f,7,0.7,34.63949689,1.11406015
5b8fffca220be50001c59858,28,0,2024-02-28T14:35:36.601Z,french_237.wav,0,poule,1313,26,4,5,français,f,8,0.8,-48.33331205,1.16947058
5b8fffca220be50001c59858,28,0,2024-02-28T14:35:36.601Z,french_237.wav,0,poule,1313,26,4,5,français,f,9,0.9,50.34000449,0.6556194
5b8fffca220be50001c59858,28,0,2024-02-28T14:35:36.601Z,french_237.wav,0,poule,1313,26,4,5,français,f,10,1.0,49.76225002,1.40941557
5b8fffca220be50001c59858,28,0,2024-02-28T14:35:36.601Z,french_237.wav,0,poule,1313,26,4,5,français,f,11,1.1,67.38211301,0.44515823
5b8fffca220be50001c59858,28,0,2024-02-28T14:35:36.601Z,french_237.wav,0,poule,1313,26,4,5,français,f,12,1.14141667,80.88052333,0.0317855
5b8fffca220be50001c59858,29,0,2024-02-28T14:35:36.601Z,french_221.wav,0,poule,252,26,4,5,français,f,0,0.0,87.596802,0.885939723
5b8fffca220be50001c59858,29,0,2024-02-28T14:35:36.601Z,french_221.wav,0,poule,252,26,4,5,français,f,1,0.1,94.08080992,1.95777695
5b8fffca220be50001c59858,29,0,2024-02-28T14:35:36.601Z,french_221.wav,0,poule,252,26,4,5,français,f,2,0.2,23.23948524,1.7761084
5b8fffca220be50001c59858,29,0,2024-02-28T14:35:36.601Z,french_221.wav,0,poule,252,26,4,5,français,f,3,0.3,61.25075703,0.130584264
5b8fffca220be50001c59858,29,0,2024-02-28T14:35:36.601Z,french_221.wav,0,poule,252,26,4,5,français,f,4,0.4,36.37191221,1.88090151
5b8fffca220be50001c59858,29,0,2024-02-28T14:35:36.601Z,french_221.wav,0,poule,252,26,4,5,français,f,5,0.5,-1.25906166,1.91447985
5b8fffca220be50001c59858,29,0,2024-02-28T14:35:36.601Z,french_221.wav,0,poule,252,26,4,5,français,f,6,0.6,-77.51503636,1.63435485
5b8fffca220be50001c59858,29,0,2024-02-28T14:35:36.601Z,french_221.wav,0,poule,252,26,4,5,français,f,7,0.7,51.79007106,0.969843469
5b8fffca220be50001c59858,29,0,2024-02-28T14:35:36.601Z,french_221.wav,0,poule,252,26,4,5,français,f,8,0.8,37.57137162,1.28271297
5b8fffca220be50001c59858,29,0,2024-02-28T14:35:36.601Z,french_221.wav,0,poule,252,26,4,5,français,f,9,0.9,-17.93936658,1.084226
5b8fffca220be50001c59858,29,0,2024-02-28T14:35:36.601Z,french_221.wav,0,poule,252,26,4,5,français,f,10,1.0,79.44743047,0.932336456
5b8fffca220be50001c59858,29,0,2024-02-28T14:35:36.601Z,french_221.wav,0,poule,252,26,4,5,français,f,11,1.1,65.84768021,0.249585537
5b8fffca220be50001c59858,29,0,2024-02-28T14:35:36.601Z,french_221.wav,0,poule,252,26,4,5,français,f,12,1.14141667,-95.74004892,0.000816857492
5b8fffca220be50001c59858,30,0,2024-02-28T14:35:36.601Z,french_757.wav,0,poule,1004,26,4,5,français,f,0,0.0,6.48639762,0.21123235
5b8fffca220be50001c59858,30,0,2024-02-28T14:35:36.601Z,french_757.wav,0,poule,1004,26,4,5,français,f,1,0.1,-51.86545104,0.07273278
5b8fffca220be50001c59858,30,0,2024-02-28T14:35:36.601Z,french_757.wav,0,poule,1004,26,4,5,français,f,2,0.2,13.60583501,1.91645599
5b8fffca220be50001c59858,30,0,2024-02-28T14:35:36.601Z,french_757.wav,0,poule,1004,26,4,5,français,f,3,0.3,42.98326891,0.23026147
5b8fffca220be50001c59858,30,0,2024-02-28T14:35:36.601Z,french_757.wav,0,poule,1004,26,4,5,français,f,4,0.4,80.68221451,0.90860197
5b8fffca220be50001c59858,30,0,2024-02-28T14:35:36.601Z,french_757.wav,0,poule,1004,26,4,5,français,f,5,0.5,60.20667087,1.24090146
5b8fffca220be50001c59858,30,0,2024-02-28T14:35:36.601Z,french_757.wav,0,poule,1004,26,4,5,français,f,6,0.6,-66.39272407,1.63751086
5b8fffca220be50001c59858,30,0,2024-02-28T14:35:36.601Z,french_757.wav,0,poule,1004,26,4,5,français,f,7,0.7,-56.86759688,1.4449834
5b8fffca220be50001c59858,30,0,2024-02-28T14:35:36.601Z,french_757.wav,0,poule,1004,26,4,5,français,f,8,0.8,31.92005434,0.31701973
5b8fffca220be50001c59858,30,0,2024-02-28T14:35:36.601Z,french_757.wav,0,poule,1004,26,4,5,français,f,9,0.9,-15.9358313,0.97326814
5b8fffca220be50001c59858,30,0,2024-02-28T14:35:36.601Z,french_757.wav,0,poule,1004,26,4,5,français,f,10,1.0,-11.85374841,0.32789054
5b8fffca220be50001c59858,30,0,2024-02-28T14:35:36.601Z,french_757.wav,0,poule,1004,26,4,5,français,f,11,1.1,-30.88500349,0.1026242
5b8fffca220be50001c59858,30,0,2024-02-28T14:35:36.601Z,french_757.wav,0,poule,1004,26,4,5,français,f,12,1.14141667,54.27189093,1.17122037
5b8fffca220be50001c59858,31,0,2024-02-28T14:35:36.601Z,french_957.wav,0,poule,488,26,4,5,français,f,0,0.0,12.88644625,0.94965628
5b8fffca220be50001c59858,31,0,2024-02-28T14:35:36.601Z,french_957.wav,0,poule,488,26,4,5,français,f,1,0.1,18.70253323,0.59858398
5b8fffca220be50001c59858,31,0,2024-02-28T14:35:36.601Z,french_957.wav,0,poule,488,26,4,5,français,f,2,0.2,63.85450626,0.52603788
5b8fffca220be50001c59858,31,0,2024-02-28T14:35:36.601Z,french_957.wav,0,poule,488,26,4,5,français,f,3,0.3,-60.64060755,1.4306776
5b8fffca220be50001c59858,31,0,2024-02-28T14:35:36.601Z,french_957.wav,0,poule,488,26,4,5,français,f,4,0.4,-90.62123275,1.89873251
5b8fffca220be50001c59858,31,0,2024-02-28T14:35:36.601Z,french_957.wav,0,poule,488,26,4,5,français,f,5,0.5,24.73093513,1.80457899
5b8fffca220be50001c59858,31,0,2024-02-28T14:35:36.601Z,french_957.wav,0,poule,488,26,4,5,français,f,6,0.6,-79.40998292,0.32316389
5b8fffca220be50001c59858,31,0,2024-02-28T14:35:36.601Z,french_957.wav,0,poule,488,26,4,5,français,f,7,0.7,99.89533842,0.77051068
5b8fffca220be50001c59858,31,0,2024-02-28T14:35:36.601Z,french_957.wav,0,poule,488,26,4,5,français,f,8,0.8,-82.08813401,0.69662658
5b8fffca220be50001c59858,31,0,2024-02-28T14:35:36.601Z,french_957.wav,0,poule,488,26,4,5,français,f,9,0.9,-46.39069699,0.26903226
5b8fffca220be50001c59858,31,0,2024-02-28T14:35:36.601Z,french_957.wav,0,poule,488,26,4,5,français,f,10,1.0,-76.81702111,0.24465655
5b8fffca220be50001c59858,31,0,2024-02-28T14:35:36.601Z,french_957.wav,0,poule,488,26,4,5,français,f,11,1.1,65.90507306,1.35119799
5b8fffca220be50001c59858,31,0,2024-02-28T14:35:36.601Z,french_957.wav,0,poule,488,26,4,5,français,f,12,1.14141667,15.50319114,1.75217446
5b8fffca220be50001c59858,32,0,2024-02-28T14:35:36.601Z,french_310.wav,0,poule,441,26,4,5,français,f,0,0.0,17.56598639,1.12956977
5b8fffca220be50001c59858,32,0,2024-02-28T14:35:36.601Z,french_310.wav,0,poule,441,26,4,5,français,f,1,0.1,76.92128936,1.00648851
5b8fffca220be50001c59858,32,0,2024-02-28T14:35:36.601Z,french_310.wav,0,poule,441,26,4,5,français,f,2,0.2,-58.20509392,0.97784502
5b8fffca220be50001c59858,32,0,2024-02-28T14:35:36.601Z,french_310.wav,0,poule,441,26,4,5,français,f,3,0.3,83.85101429,1.32502708
5b8fffca220be50001c59858,32,0,2024-02-28T14:35:36.601Z,french_310.wav,0,poule,441,26,4,5,français,f,4,0.4,-30.03153984,1.31992976
5b8fffca220be50001c59858,32,0,2024-02-28T14:35:36.601Z,french_310.wav,0,poule,441,26,4,5,français,f,5,0.5,65.65347409,1.69425093
5b8fffca220be50001c59858,32,0,2024-02-28T14:35:36.601Z,french_310.wav,0,poule,441,26,4,5,français,f,6,0.6,-31.19085718,0.83891868
5b8fffca220be50001c59858,32,0,2024-02-28T14:35:36.601Z,french_310.wav,0,poule,441,26,4,5,français,f,7,0.7,13.20607402,0.55122583
5b8fffca220be50001c59858,32,0,2024-02-28T14:35:36.601Z,french_310.wav,0,poule,441,26,4,5,français,f,8,0.8,67.80059658,1.89433213
5b8fffca220be50001c59858,32,0,2024-02-28T14:35:36.601Z,french_310.wav,0,poule,441,26,4,5,français,f,9,0.9,-60.97564656,0.44162944
5b8fffca220be50001c59858,32,0,2024-02-28T14:35:36.601Z,french_310.wav,0,poule,441,26,4,5,français,f,10,1.0,-20.93273173,1.30621231
5b8fffca220be50001c59858,32,0,2024-02-28T14:35:36.601Z,french_310.wav,0,poule,441,26,4,5,français,f,11,1.1,9.82776434,1.40358407
5b8fffca220be50001c59858,32,0,2024-02-28T14:35:36.601Z,french_310.wav,0,poule,441,26,4,5,français,f,12,1.14141667,-83.18360608,0.62868818
5b8fffca220be50001c59858,33,0,2024-02-28T14:35:36.601Z,french_199.wav,0,poule,361,26,4,5,français,f,0,0.0,94.82681546,1.08752285
5b8fffca220be50001c59858,33,0,2024-02-28T14:35:36.601Z,french_199.wav,0,poule,361,26,4,5,français,f,1,0.1,-99.32589547,1.17751559
5b8fffca220be50001c59858,33,0,2024-02-28T14:35:36.601Z,french_199.wav,0,poule,361,26,4,5,français,f,2,0.2,-78.08329164,0.30459673
5b8fffca220be50001c59858,33,0,2024-02-28T14:35:36.601Z,french_199.wav,0,poule,361,26,4,5,français,f,3,0.3,48.54945549,0.73513396
5b8fffca220be50001c59858,33,0,2024-02-28T14:35:36.601Z,french_199.wav,0,poule,361,26,4,5,français,f,4,0.4,-55.35713623,0.36114074
5b8fffca220be50001c59858,33,0,2024-02-28T14:35:36.601Z,french_199.wav,0,poule,361,26,4,5,français,f,5,0.5,14.26830721,1.70747304
5b8fffca220be50001c59858,33,0,2024-02-28T14:35:36.601Z,french_199.wav,0,poule,361,26,4,5,français,f,6,0.6,-99.29695971,0.80626327
5b8fffca220be50001c59858,33,0,2024-02-28T14:35:36.601Z,french_199.wav,0,poule,361,26,4,5,français,f,7,0.7,15.02714813,0.80058463
5b8fffca220be50001c59858,33,0,2024-02-28T14:35:36.601Z,french_199.wav,0,poule,361,26,4,5,français,f,8,0.8,-2.77969287,1.68930656
5b8fffca220be50001c59858,33,0,2024-02-28T14:35:36.601Z,french_199.wav,0,poule,361,26,4,5,français,f,9,0.9,47.22114937,1.36846234
5b8fffca220be50001c59858,33,0,2024-02-28T14:35:36.601Z,french_199.wav,0,poule,361,26,4,5,français,f,10,1.0,-7.42122426,1.62178929
5b8fffca220be50001c59858,33,0,2024-02-28T14:35:36.601Z,french_199.wav,0,poule,361,26,4,5,français,f,11,1.1,-9.24704573,1.97685154
5b8fffca220be50001c59858,33,0,2024-02-28T14:35:36.601Z,french_199.wav,0,poule,361,26,4,5,français,f,12,1.14141667,-65.8542189,1.49094293
5b8fffca220be50001c59858,34,0,2024-02-28T14:35:36.601Z,french_172.wav,0,poule,456,26,4,5,français,f,0,0.0,52.55822797,1.64690449
5b8fffca220be50001c59858,34,0,2024-02-28T14:35:36.601Z,french_172.wav,0,poule,456,26,4,5,français,f,1,0.1,36.03304437,1.13416013
5b8fffca220be50001c59858,34,0,2024-02-28T14:35:36.601Z,french_172.wav,0,poule,456,26,4,5,français,f,2,0.2,87.57540256,0.18828869
5b8fffca220be50001c59858,34,0,2024-02-28T14:35:36.601Z,french_172.wav,0,poule,456,26,4,5,français,f,3,0.3,-1.02225297,1.03936139
5b8fffca220be50001c59858,34,0,2024-02-28T14:35:36.601Z,french_172.wav,0,poule,456,26,4,5,français,f,4,0.4,-45.72834283,1.57744061
5b8fffca220be50001c59858,34,0,2024-02-28T14:35:36.601Z,french_172.wav,0,poule,456,26,4,5,français,f,5,0.5,-78.07098029,0.88465221
5b8fffca220be50001c59858,34,0,2024-02-28T14:35:36.601Z,french_172.wav,0,poule,456,26,4,5,français,f,6,0.6,66.92119406,1.26318424
5b8fffca220be50001c59858,34,0,2024-02-28T14:35:36.601Z,french_172.wav,0,poule,456,26,4,5,français,f,7,0.7,54.13458116,0.93894817
5b8fffca220be50001c59858,34,0,2024-02-28T14:35:36.601Z,french_172.wav,0,poule,456,26,4,5,français,f,8,0.8,9.25383275,1.37261227
5b8fffca220be50001c59858,34,0,2024-02-28T14:35:36.601Z,french_172.wav,0,poule,456,26,4,5,français,f,9,0.9,84.2289997,0.51589031
5b8fffca220be50001c59858,34,0,2024-02-28T14:35:36.601Z,french_172.wav,0,poule,456,26,4,5,français,f,10,1.0,-92.0852474,0.04731792
5b8fffca220be50001c59858,34,0,2024-02-28T14:35:36.601Z,french_172.wav,0,poule,456,26,4,5,français,f,11,1.1,-58.15058713,0.7131693
5b8fffca220be50001c59858,34,0,2024-02-28T14:35:36.601Z,french_172.wav,0,poule,456,26,4,5,français,f,12,1.14141667,-93.51230148,0.70039891
5b8fffca220be50001c59858,35,0,2024-02-28T14:35:36.601Z,french_776.wav,0,poule,365,26,4,5,français,f,0,0.0,-48.17423645,0.77631494
5b8fffca220be50001c59858,35,0,2024-02-28T14:35:36.601Z,french_776.wav,0,poule,365,26,4,5,français,f,1,0.1,70.47241533,0.30206355
5b8fffca220be50001c59858,35,0,2024-02-28T14:35:36.601Z,french_776.wav,0,poule,365,26,4,5,français,f,2,0.2,-25.19523269,0.58442509
5b8fffca220be50001c59858,35,0,2024-02-28T14:35:36.601Z,french_776.wav,0,poule,365,26,4,5,français,f,3,0.3,87.43097705,1.0473267
5b8fffca220be50001c59858,35,0,2024-02-28T14:35:36.601Z,french_776.wav,0,poule,365,26,4,5,français,f,4,0.4,-31.8700143,1.39697119
5b8fffca220be50001c59858,35,0,2024-02-28T14:35:36.601Z,french_776.wav,0,poule,365,26,4,5,français,f,5,0.5,85.54136389,1.2447418
5b8fffca220be50001c59858,35,0,2024-02-28T14:35:36.601Z,french_776.wav,0,poule,365,26,4,5,français,f,6,0.6,-67.05238836,1.41470132
5b8fffca220be50001c59858,35,0,2024-02-28T14:35:36.601Z,french_776.wav,0,poule,365,26,4,5,français,f,7,0.7,63.29487245,0.48396717
5b8fffca220be50001c59858,35,0,2024-02-28T14:35:36.601Z,french_776.wav,0,poule,365,26,4,5,français,f,8,0.8,-91.58850078,0.48226026
5b8fffca220be50001c59858,35,0,2024-02-28T14:35:36.601Z,french_776.wav,0,poule,365,26,4,5,français,f,9,0.9,-92.53289931,1.44155104
5b8fffca220be50001c59858,35,0,2024-02-28T14:35:36.601Z,french_776.wav,0,poule,365,26,4,5,français,f,10,1.0,-7.51119873,1.57581197
5b8fffca220be50001c59858,35,0,2024-02-28T14:35:36.601Z,french_776.wav,0,poule,365,26,4,5,français,f,11,1.1,-98.58910198,1.16160073
5b8fffca220be50001c59858,35,0,2024-02-28T14:35:36.601Z,french_776.wav,0,poule,365,26,4,5,français,f,12,1.14141667,-80.10890934,0.05324504
5b8fffca220be50001c59858,36,0,2024-02-28T14:35:36.601Z,french_164.wav,0,pull,1411,26,4,5,français,f,0,0.0,-73.61219947,0.64751098
5b8fffca220be50001c59858,36,0,2024-02-28T14:35:36.601Z,french_164.wav,0,pull,1411,26,4,5,français,f,1,0.1,73.83741842,0.99835886
5b8fffca220be50001c59858,36,0,2024-02-28T14:35:36.601Z,french_164.wav,0,pull,1411,26,4,5,français,f,2,0.2,-86.96600918,1.84552202
5b8fffca220be50001c59858,36,0,2024-02-28T14:35:36.601Z,french_164.wav,0,pull,1411,26,4,5,français,f,3,0.3,-44.35897319,0.42506167
5b8fffca220be50001c59858,36,0,2024-02-28T14:35:36.601Z,french_164.wav,0,pull,1411,26,4,5,français,f,4,0.4,-5.93602562,1.56944318
5b8fffca220be50001c59858,36,0,2024-02-28T14:35:36.601Z,french_164.wav,0,pull,1411,26,4,5,français,f,5,0.5,31.57605376,0.50981351
5b8fffca220be50001c59858,36,0,2024-02-28T14:35:36.601Z,french_164.wav,0,pull,1411,26,4,5,français,f,6,0.6,-28.19328213,0.22106919
5b8fffca220be50001c59858,36,0,2024-02-28T14:35:36.601Z,french_164.wav,0,pull,1411,26,4,5,français,f,7,0.7,-59.59617703,0.06179354
5b8fffca220be50001c59858,36,0,2024-02-28T14:35:36.601Z,french_164.wav,0,pull,1411,26,4,5,français,f,8,0.8,-96.4618976,0.63396718
5b8fffca220be50001c59858,36,0,2024-02-28T14:35:36.601Z,french_164.wav,0,pull,1411,26,4,5,français,f,9,0.9,-81.92942934,0.06967389
5b8fffca220be50001c59858,36,0,2024-02-28T14:35:36.601Z,french_164.wav,0,pull,1411,26,4,5,français,f,10,1.0,-44.43943419,1.02865239
5b8fffca220be50001c59858,36,0,2024-02-28T14:35:36.601Z,french_164.wav,0,pull,1411,26,4,5,français,f,11,1.1,-71.04804832,0.75894675
5b8fffca220be50001c59858,36,0,2024-02-28T14:35:36.601Z,french_164.wav,0,pull,1411,26,4,5,français,f,12,1.14141667,-80.61769167,1.53790101
5b8fffca220be50001c59858,37,0,2024-02-28T14:35:36.601Z,french_894.wav,0,poule,260,26,4,5,français,f,0,0.0,-63.53771824,0.06746152
5b8fffca220be50001c59858,37,0,2024-02-28T14:35:36.601Z,french_894.wav,0,poule,260,26,4,5,français,f,1,0.1,-48.82084641,0.82613498
5b8fffca220be50001c59858,37,0,2024-02-28T14:35:36.601Z,french_894.wav,0,poule,260,26,4,5,français,f,2,0.2,59.48766988,1.62551209
5b8fffca220be50001c59858,37,0,2024-02-28T14:35:36.601Z,french_894.wav,0,poule,260,26,4,5,français,f,3,0.3,-55.49733364,0.99502838
5b8fffca220be50001c59858,37,0,2024-02-28T14:35:36.601Z,french_894.wav,0,poule,260,26,4,5,français,f,4,0.4,-40.13811687,0.89450933
5b8fffca220be50001c59858,37,0,2024-02-28T14:35:36.601Z,french_894.wav,0,poule,260,26,4,5,français,f,5,0.5,73.14714698,0.76444276
5b8fffca220be50001c59858,37,0,2024-02-28T14:35:36.601Z,french_894.wav,0,poule,260,26,4,5,français,f,6,0.6,21.15265892,0.34238542
5b8fffca220be50001c59858,37,0,2024-02-28T14:35:36.601Z,french_894.wav,0,poule,260,26,4,5,français,f,7,0.7,59.03356961,1.17027308
5b8fffca220be50001c59858,37,0,2024-02-28T14:35:36.601Z,french_894.wav,0,poule,260,26,4,5,français,f,8,0.8,26.16085905,1.66666647
5b8fffca220be50001c59858,37,0,2024-02-28T14:35:36.601Z,french_894.wav,0,poule,260,26,4,5,français,f,9,0.9,18.08861708,0.7085479
5b8fffca220be50001c59858,37,0,2024-02-28T14:35:36.601Z,french_894.wav,0,poule,260,26,4,5,français,f,10,1.0,12.71398786,0.56628962
5b8fffca220be50001c59858,37,0,2024-02-28T14:35:36.601Z,french_894.wav,0,poule,260,26,4,5,français,f,11,1.1,-33.9717447,1.93039338
5b8fffca220be50001c59858,37,0,2024-02-28T14:35:36.601Z,french_894.wav,0,poule,260,26,4,5,français,f,12,1.14141667,5.80015426,1.50152417
5b8fffca220be50001c59858,38,0,2024-02-28T14:35:36.601Z,french_411.wav,0,poule,149,26,4,5,français,f,0,0.0,-70.25391747,1.92256059
5b8fffca220be50001c59858,38,0,2024-02-28T14:35:36.601Z,french_411.wav,0,poule,149,26,4,5,français,f,1,0.1,27.74894857,0.54123007
5b8fffca220be50001c59858,38,0,2024-02-28T14:35:36.601Z,french_411.wav,0,poule,149,26,4,5,français,f,2,0.2,46.03152981,0.1167021
5b8fffca220be50001c59858,38,0,2024-02-28T14:35:36.601Z,french_411.wav,0,poule,149,26,4,5,français,f,3,0.3,-29.20691402,0.14269419
5b8fffca220be50001c59858,38,0,2024-02-28T14:35:36.601Z,french_411.wav,0,poule,149,26,4,5,français,f,4,0.4,-31.45553026,0.19948758
5b8fffca220be50001c59858,38,0,2024-02-28T14:35:36.601Z,french_411.wav,0,poule,149,26,4,5,français,f,5,0.5,35.02826995,1.84749686
5b8fffca220be50001c59858,38,0,2024-02-28T14:35:36.601Z,french_411.wav,0,poule,149,26,4,5,français,f,6,0.6,-8.95158706,0.431015
5b8fffca220be50001c59858,38,0,2024-02-28T14:35:36.601Z,french_411.wav,0,poule,149,26,4,5,français,f,7,0.7,81.46107147,0.56033936
5b8fffca220be50001c59858,38,0,2024-02-28T14:35:36.601Z,french_411.wav,0,poule,149,26,4,5,français,f,8,0.8,-2.93504405,0.91187984
5b8fffca220be50001c59858,38,0,2024-02-28T14:35:36.601Z,french_411.wav,0,poule,149,26,4,5,français,f,9,0.9,64.39331925,1.61465115
5b8fffca220be50001c59858,38,0,2024-02-28T14:35:36.601Z,french_411.wav,0,poule,149,26,4,5,français,f,10,1.0,-8.26962553,0.879149
5b8fffca220be50001c59858,38,0,2024-02-28T14:35:36.601Z,french_411.wav,0,poule,149,26,4,5,français,f,11,1.1,56.99467859,1.56755984
5b8fffca220be50001c59858,38,0,2024-02-28T14:35:36.601Z,french_411.wav,0,poule,149,26,4,5,français,f,12,1.14141667,-1.61116333,1.10827976
5b8fffca220be50001c59858,39,0,2024-02-28T14:35:36.601Z,french_811.wav,0,poule,213,26,4,5,français,f,0,0.0,81.29896276,1.84653902
5b8fffca220be50001c59858,39,0,2024-02-28T14:35:36.601Z,french_811.wav,0,poule,213,26,4,5,français,f,1,0.1,10.36603333,0.13478562
5b8fffca220be50001c59858,39,0,2024-02-28T14:35:36.601Z,french_811.wav,0,poule,213,26,4,5,français,f,2,0.2,8.35324856,0.94963174
5b8fffca220be50001c59858,39,0,2024-02-28T14:35:36.601Z,french_811.wav,0,poule,213,26,4,5,français,f,3,0.3,-66.51351758,1.29333262
5b8fffca220be50001c59858,39,0,2024-02-28T14:35:36.601Z,french_811.wav,0,poule,213,26,4,5,français,f,4,0.4,-19.45806563,1.48753389
5b8fffca220be50001c59858,39,0,2024-02-28T14:35:36.601Z,french_811.wav,0,poule,213,26,4,5,français,f,5,0.5,-58.39785432,0.87507315
5b8fffca220be50001c59858,39,0,2024-02-28T14:35:36.601Z,french_811.wav,0,poule,213,26,4,5,français,f,6,0.6,46.12503886,0.81797836
5b8fffca220be50001c59858,39,0,2024-02-28T14:35:36.601Z,french_811.wav,0,poule,213,26,4,5,français,f,7,0.7,62.56502679,0.19667337
5b8fffca220be50001c59858,39,0,2024-02-28T14:35:36.601Z,french_811.wav,0,poule,213,26,4,5,français,f,8,0.8,-52.99701324,1.45215497
5b8fffca220be50001c59858,39,0,2024-02-28T14:35:36.601Z,french_811.wav,0,poule,213,26,4,5,français,f,9,0.9,-33.6735275,0.65007173
5b8fffca220be50001c59858,39,0,2024-02-28T14:35:36.601Z,french_811.wav,0,poule,213,26,4,5,français,f,10,1.0,-78.87268894,0.20219426
5b8fffca220be50001c59858,39,0,2024-02-28T14:35:36.601Z,french_811.wav,0,poule,213,26,4,5,français,f,11,1.1,47.87204517,1.36792015
5b8fffca220be50001c59858,39,0,2024-02-28T14:35:36.601Z,french_811.wav,0,poule,213,26,4,5,français,f,12,1.14141667,74.99011566,0.90297384
5b8fffca220be50001c59858,40,0,2024-02-28T14:35:36.601Z,french_653.wav,0,pull,1050,26,4,5,français,f,0,0.0,-16.6650237,0.6514058
5b8fffca220be50001c59858,40,0,2024-02-28T14:35:36.601Z,french_653.wav,0,pull,1050,26,4,5,français,f,1,0.1,-8.50735594,0.80912236
5b8fffca220be50001c59858,40,0,2024-02-28T14:35:36.601Z,french_653.wav,0,pull,1050,26,4,5,français,f,2,0.2,59.74245416,1.05565194
5b8fffca220be50001c59858,40,0,2024-02-28T14:35:36.601Z,french_653.wav,0,pull,1050,26,4,5,français,f,3,0.3,-64.86263645,1.59567426
5b8fffca220be50001c59858,40,0,2024-02-28T14:35:36.601Z,french_653.wav,0,pull,1050,26,4,5,français,f,4,0.4,-59.72264617,1.49585524
5b8fffca220be50001c59858,40,0,2024-02-28T14:35:36.601Z,french_653.wav,0,pull,1050,26,4,5,français,f,5,0.5,-38.42409471,0.43064882
5b8fffca220be50001c59858,40,0,2024-02-28T14:35:36.601Z,french_653.wav,0,pull,1050,26,4,5,français,f,6,0.6,-66.71222224,0.29035008
5b8fffca220be50001c59858,40,0,2024-02-28T14:35:36.601Z,french_653.wav,0,pull,1050,26,4,5,français,f,7,0.7,-1.64153682,1.70426818
5b8fffca220be50001c59858,40,0,2024-02-28T14:35:36.601Z,french_653.wav,0,pull,1050,26,4,5,français,f,8,0.8,-58.84034728,0.82836214
5b8fffca220be50001c59858,40,0,2024-02-28T14:35:36.601Z,french_653.wav,0,pull,1050,26,4,5,français,f,9,0.9,24.2211282,0.71951004
5b8fffca220be50001c59858,40,0,2024-02-28T14:35:36.601Z,french_653.wav,0,pull,1050,26,4,5,français,f,10,1.0,2.29759393,0.36282723
5b8fffca220be50001c59858,40,0,2024-02-28T14:35:36.601Z,french_653.wav,0,pull,1050,26,4,5,français,f,11,1.1,-18.37494867,0.47770594
5b8fffca220be50001c59858,40,0,2024-02-28T14:35:36.601Z,french_653.wav,0,pull,1050,26,4,5,français,f,12,1.14141667,-14.47262819,1.04977426
5b8fffca220be50001c59858,41,0,2024-02-28T14:35:36.601Z,french_11.wav,0,poule,160,26,4,5,français,f,0,0.0,-53.97722238,1.09610164
5b8fffca220be50001c59858,41,0,2024-02-28T14:35:36.601Z,french_11.wav,0,poule,160,26,4,5,français,f,1,0.1,-31.21118385,0.22350944
5b8fffca220be50001c59858,41,0,2024-02-28T14:35:36.601Z,french_11.wav,0,poule,160,26,4,5,français,f,2,0.2,-36.80951357,1.00123418
5b8fffca220be50001c59858,41,0,2024-02-28T14:35:36.601Z,french_11.wav,0,poule,160,26,4,5,français,f,3,0.3,-95.45532381,0.87401162
5b8fffca220be50001c59858,41,0,2024-02-28T14:35:36.601Z,french_11.wav,0,poule,160,26,4,5,français,f,4,0.4,58.15480481,0.20703956
5b8fffca220be50001c59858,41,0,2024-02-28T14:35:36.601Z,french_11.wav,0,poule,160,26,4,5,français,f,5,0.5,71.015522,0.5150991
5b8fffca220be50001c59858,41,0,2024-02-28T14:35:36.601Z,french_11.wav,0,poule,160,26,4,5,français,f,6,0.6,65.59713254,1.3674314
5b8fffca220be50001c59858,41,0,2024-02-28T14:35:36.601Z,french_11.wav,0,poule,160,26,4,5,français,f,7,0.7,10.73762905,0.96376634
5b8fffca220be50001c59858,41,0,2024-02-28T14:35:36.601Z,french_11.wav,0,poule,160,26,4,5,français,f,8,0.8,28.00448009,0.85790612
5b8fffca220be50001c59858,41,0,2024-02-28T14:35:36.601Z,french_11.wav,0,poule,160,26,4,5,français,f,9,0.9,-7.76276887,1.59940673
5b8fffca220be50001c59858,41,0,2024-02-28T14:35:36.601Z,french_11.wav,0,poule,160,26,4,5,français,f,10,1.0,39.23656931,0.40281071
5b8fffca220be50001c59858,41,0,2024-02-28T14:35:36.601Z,french_11.wav,0,poule,160,26,4,5,français,f,11,1.1,-90.22036196,1.59018171
5b8fffca220be50001c59858,41,0,2024-02-28T14:35:36.601Z,french_11.wav,0,poule,160,26,4,5,français,f,12,1.14141667,-39.83688041,1.67678977
5b8fffca220be50001c59858,42,0,2024-02-28T14:35:36.601Z,french_504.wav,0,poule,733,26,4,5,français,f,0,0.0,-41.82140768,1.84770239
5b8fffca220be50001c59858,42,0,2024-02-28T14:35:36.601Z,french_504.wav,0,poule,733,26,4,5,français,f,1,0.1,97.07530933,0.49171838
5b8fffca220be50001c59858,42,0,2024-02-28T14:35:36.601Z,french_504.wav,0,poule,733,26,4,5,français,f,2,0.2,61.02388002,0.47472033
5b8fffca220be50001c59858,42,0,2024-02-28T14:35:36.601Z,french_504.wav,0,poule,733,26,4,5,français,f,3,0.3,-27.18611965,1.44367117
5b8fffca220be50001c59858,42,0,2024-02-28T14:35:36.601Z,french_504.wav,0,poule,733,26,4,5,français,f,4,0.4,-58.17917059,0.04505535
5b8fffca220be50001c59858,42,0,2024-02-28T14:35:36.601Z,french_504.wav,0,poule,733,26,4,5,français,f,5,0.5,9.56156567,0.75389127
5b8fffca220be50001c59858,42,0,2024-02-28T14:35:36.601Z,french_504.wav,0,poule,733,26,4,5,français,f,6,0.6,98.52665159,1.37136318
5b8fffca220be50001c59858,42,0,2024-02-28T14:35:36.601Z,french_504.wav,0,poule,733,26,4,5,français,f,7,0.7,98.98825478,0.89733916
5b8fffca220be50001c59858,42,0,2024-02-28T14:35:36.601Z,french_504.wav,0,poule,733,26,4,5,français,f,8,0.8,94.82792761,1.83341516
5b8fffca220be50001c59858,42,0,2024-02-28T14:35:36.601Z,french_504.wav,0,poule,733,26,4,5,français,f,9,0.9,75.17568326,0.71992929
5b8fffca220be50001c59858,42,0,2024-02-28T14:35:36.601Z,french_504.wav,0,poule,733,26,4,5,français,f,10,1.0,-46.15164739,0.35031196
5b8fffca220be50001c59858,42,0,2024-02-28T14:35:36.601Z,french_504.wav,0,poule,733,26,4,5,français,f,11,1.1,73.71983811,0.61578475
5b8fffca220be50001c59858,42,0,2024-02-28T14:35:36.601Z,french_504.wav,0,poule,733,26,4,5,français,f,12,1.14141667,48.12743652,0.73246634
5b8fffca220be50001c59858,43,0,2024-02-28T14:35:36.601Z,french_273.wav,0,poule,284,26,4,5,français,f,0,0.0,0.7190916,0.53676655
5b8fffca220be50001c59858,43,0,2024-02-28T14:35:36.601Z,french_273.wav,0,poule,284,26,4,5,français,f,1,0.1,97.83891779,1.54358622
5b8fffca220be50001c59858,43,0,2024-02-28T14:35:36.601Z,french_273.wav,0,poule,284,26,4,5,français,f,2,0.2,60.36727917,0.47152348
5b8fffca220be50001c59858,43,0,2024-02-28T14:35:36.601Z,french_273.wav,0,poule,284,26,4,5,français,f,3,0.3,75.34562321,1.2590705
5b8fffca220be50001c59858,43,0,2024-02-28T14:35:36.601Z,french_273.wav,0,poule,284,26,4,5,français,f,4,0.4,-49.29676333,1.86837956
5b8fffca220be50001c59858,43,0,2024-02-28T14:35:36.601Z,french_273.wav,0,poule,284,26,4,5,français,f,5,0.5,66.1161099,0.9921972
5b8fffca220be50001c59858,43,0,2024-02-28T14:35:36.601Z,french_273.wav,0,poule,284,26,4,5,français,f,6,0.6,47.59795939,0.68574852
5b8fffca220be50001c59858,43,0,2024-02-28T14:35:36.601Z,french_273.wav,0,poule,284,26,4,5,français,f,7,0.7,-57.87962131,1.86045002
5b8fffca220be50001c59858,43,0,2024-02-28T14:35:36.601Z,french_273.wav,0,poule,284,26,4,5,français,f,8,0.8,81.42088192,1.53065292
5b8fffca220be50001c59858,43,0,2024-02-28T14:35:36.601Z,french_273.wav,0,poule,284,26,4,5,français,f,9,0.9,-40.71214973,1.34276988
5b8fffca220be50001c59858,43,0,2024-02-28T14:35:36.601Z,french_273.wav,0,poule,284,26,4,5,français,f,10,1.0,21.35486497,1.27786291
5b8fffca220be50001c59858,43,0,2024-02-28T14:35:36.601Z,french_273.wav,0,poule,284,26,4,5,français,f,11,1.1,48.12506042,1.11936535
5b8fffca220be50001c59858,43,0,2024-02-28T14:35:36.601Z,french_273.wav,0,poule,284,26,4,5,français,f,12,1.14141667,82.77823336,0.95547805
5b8fffca220be50001c59858,44,0,2024-02-28T14:35:36.601Z,french_468.wav,0,poule,1947,26,4,5,français,f,0,0.0,-13.58676493,1.61786678
5b8fffca220be50001c59858,44,0,2024-02-28T14:35:36.601Z,french_468.wav,0,poule,1947,26,4,5,français,f,1,0.1,72.6058515,0.87941828
5b8fffca220be50001c59858,44,0,2024-02-28T14:35:36.601Z,french_468.wav,0,poule,1947,26,4,5,français,f,2,0.2,-32.02129576,1.83091307
5b8fffca220be50001c59858,44,0,2024-02-28T14:35:36.601Z,french_468.wav,0,poule,1947,26,4,5,français,f,3,0.3,52.20448247,0.55022133
5b8fffca220be50001c59858,44,0,2024-02-28T14:35:36.601Z,french_468.wav,0,poule,1947,26,4,5,français,f,4,0.4,81.43032914,1.31843468
5b8fffca220be50001c59858,44,0,2024-02-28T14:35:36.601Z,french_468.wav,0,poule,1947,26,4,5,français,f,5,0.5,-46.64724356,0.27128196
5b8fffca220be50001c59858,44,0,2024-02-28T14:35:36.601Z,french_468.wav,0,poule,1947,26,4,5,français,f,6,0.6,-9.87779487,1.45996143
5b8fffca220be50001c59858,44,0,2024-02-28T14:35:36.601Z,french_468.wav,0,poule,1947,26,4,5,français,f,7,0.7,-19.54175122,1.9285159
5b8fffca220be50001c59858,44,0,2024-02-28T14:35:36.601Z,french_468.wav,0,poule,1947,26,4,5,français,f,8,0.8,-49.98241499,0.92372557
5b8fffca220be50001c59858,44,0,2024-02-28T14:35:36.601Z,french_468.wav,0,poule,1947,26,4,5,français,f,9,0.9,-13.16351875,0.96002264
5b8fffca220be50001c59858,44,0,2024-02-28T14:35:36.601Z,french_468.wav,0,poule,1947,26,4,5,français,f,10,1.0,-96.83623885,0.2797337
5b8fffca220be50001c59858,44,0,2024-02-28T14:35:36.601Z,french_468.wav,0,poule,1947,26,4,5,français,f,11,1.1,49.6134393,0.59117932
5b8fffca220be50001c59858,44,0,2024-02-28T14:35:36.601Z,french_468.wav,0,poule,1947,26,4,5,français,f,12,1.14141667,15.95148808,0.63965457
5b8fffca220be50001c59858,45,0,2024-02-28T14:35:36.601Z,french_657.wav,0,poule,257,26,4,5,français,f,0,0.0,50.77155,0.21857213
5b8fffca220be50001c59858,45,0,2024-02-28T14:35:36.601Z,french_657.wav,0,poule,257,26,4,5,français,f,1,0.1,-88.44032236,0.77478754
5b8fffca220be50001c59858,45,0,2024-02-28T14:35:36.601Z,french_657.wav,0,poule,257,26,4,5,français,f,2,0.2,-16.35056241,1.07560701
5b8fffca220be50001c59858,45,0,2024-02-28T14:35:36.601Z,french_657.wav,0,poule,257,26,4,5,français,f,3,0.3,93.40705596,1.87026108
5b8fffca220be50001c59858,45,0,2024-02-28T14:35:36.601Z,french_657.wav,0,poule,257,26,4,5,français,f,4,0.4,-74.6789326,0.69300558
5b8fffca220be50001c59858,45,0,2024-02-28T14:35:36.601Z,french_657.wav,0,poule,257,26,4,5,français,f,5,0.5,-38.29324704,0.52433596
5b8fffca220be50001c59858,45,0,2024-02-28T14:35:36.601Z,french_657.wav,0,poule,257,26,4,5,français,f,6,0.6,32.78215282,1.52144011
5b8fffca220be50001c59858,45,0,2024-02-28T14:35:36.601Z,french_657.wav,0,poule,257,26,4,5,français,f,7,0.7,29.62203909,1.14086256
5b8fffca220be50001c59858,45,0,2024-02-28T14:35:36.601Z,french_657.wav,0,poule,257,26,4,5,français,f,8,0.8,-11.53531476,1.26545396
5b8fffca220be50001c59858,45,0,2024-02-28T14:35:36.601Z,french_657.wav,0,poule,257,26,4,5,français,f,9,0.9,57.1082223,1.92266532
5b8fffca220be50001c59858,45,0,2024-02-28T14:35:36.601Z,french_657.wav,0,poule,257,26,4,5,français,f,10,1.0,57.55501293,0.47482447
5b8fffca220be50001c59858,45,0,2024-02-28T14:35:36.601Z,french_657.wav,0,poule,257,26,4,5,français,f,11,1.1,34.6835129,0.15103677
5b8fffca220be50001c59858,45,0,2024-02-28T14:35:36.601Z,french_657.wav,0,poule,257,26,4,5,français,f,12,1.14141667,-93.64179673,1.64505221
5b8fffca220be50001c59858,46,0,2024-02-28T14:35:36.601Z,french_842.wav,0,poule,93,26,4,5,français,f,0,0.0,-14.6621915,1.29563872
5b8fffca220be50001c59858,46,0,2024-02-28T14:35:36.601Z,french_842.wav,0,poule,93,26,4,5,français,f,1,0.1,58.26484617,1.98590439
5b8fffca220be50001c59858,46,0,2024-02-28T14:35:36.601Z,french_842.wav,0,poule,93,26,4,5,français,f,2,0.2,-28.18109147,0.87867447
5b8fffca220be50001c59858,46,0,2024-02-28T14:35:36.601Z,french_842.wav,0,poule,93,26,4,5,français,f,3,0.3,-40.73880456,1.23089187
5b8fffca220be50001c59858,46,0,2024-02-28T14:35:36.601Z,french_842.wav,0,poule,93,26,4,5,français,f,4,0.4,-82.44418112,1.09137094
5b8fffca220be50001c59858,46,0,2024-02-28T14:35:36.601Z,french_842.wav,0,poule,93,26,4,5,français,f,5,0.5,21.69569036,1.30354814
5b8fffca220be50001c59858,46,0,2024-02-28T14:35:36.601Z,french_842.wav,0,poule,93,26,4,5,français,f,6,0.6,-66.1415884,0.5635244
5b8fffca220be50001c59858,46,0,2024-02-28T14:35:36.601Z,french_842.wav,0,poule,93,26,4,5,français,f,7,0.7,94.24119963,0.77093559
5b8fffca220be50001c59858,46,0,2024-02-28T14:35:36.601Z,french_842.wav,0,poule,93,26,4,5,français,f,8,0.8,88.68830767,1.98831599
5b8fffca220be50001c59858,46,0,2024-02-28T14:35:36.601Z,french_842.wav,0,poule,93,26,4,5,français,f,9,0.9,54.23873464,0.57043998
5b8fffca220be50001c59858,46,0,2024-02-28T14:35:36.601Z,french_842.wav,0,poule,93,26,4,5,français,f,10,1.0,80.38497769,1.5403888
5b8fffca220be50001c59858,46,0,2024-02-28T14:35:36.601Z,french_842.wav,0,poule,93,26,4,5,français,f,11,1.1,58.10558011,0.53885693
5b8fffca220be50001c59858,46,0,2024-02-28T14:35:36.601Z,french_842.wav,0,poule,93,26,4,5,français,f,12,1.14141667,-78.08033462,0.32293885
5b8fffca220be50001c59858,47,0,2024-02-28T14:35:36.601Z,french_671.wav,0,poule,206,26,4,5,français,f,0,0.0,-12.85470068,1.28020636
5b8fffca220be50001c59858,47,0,2024-02-28T14:35:36.601Z,french_671.wav,0,poule,206,26,4,5,français,f,1,0.1,2.67819686,0.37059178
5b8fffca220be50001c59858,47,0,2024-02-28T14:35:36.601Z,french_671.wav,0,poule,206,26,4,5,français,f,2,0.2,95.59247328,0.84310037
5b8fffca220be50001c59858,47,0,2024-02-28T14:35:36.601Z,french_671.wav,0,poule,206,26,4,5,français,f,3,0.3,-13.98443503,0.70560659
5b8fffca220be50001c59858,47,0,2024-02-28T14:35:36.601Z,french_671.wav,0,poule,206,26,4,5,français,f,4,0.4,68.80637955,0.37083609
5b8fffca220be50001c59858,47,0,2024-02-28T14:35:36.601Z,french_671.wav,0,poule,206,26,4,5,français,f,5,0.5,1.26765297,0.87313921
5b8fffca220be50001c59858,47,0,2024-02-28T14:35:36.601Z,french_671.wav,0,poule,206,26,4,5,français,f,6,0.6,-70.75583684,1.92523748
5b8fffca220be50001c59858,47,0,2024-02-28T14:35:36.601Z,french_671.wav,0,poule,206,26,4,5,français,f,7,0.7,-41.351183,1.65594106
5b8fffca220be50001c59858,47,0,2024-02-28T14:35:36.601Z,french_671.wav,0,poule,206,26,4,5,français,f,8,0.8,50.28106636,1.80795109
5b8fffca220be50001c59858,47,0,2024-02-28T14:35:36.601Z,french_671.wav,0,poule,206,26,4,5,français,f,9,0.9,-33.24209559,1.68291782
5b8fffca220be50001c59858,47,0,2024-02-28T14:35:36.601Z,french_671.wav,0,poule,206,26,4,5,français,f,10,1.0,-0.53326813,0.5471334
5b8fffca220be50001c59858,47,0,2024-02-28T14:35:36.601Z,french_671.wav,0,poule,206,26,4,5,français,f,11,1.1,-87.23485775,0.64128997
5b8fffca220be50001c59858,47,0,2024-02-28T14:35:36.601Z,french_671.wav,0,poule,206,26,4,5,français,f,12,1.14141667,-62.69796975,0.27161171
5b8fffca220be50001c59858,48,0,2024-02-28T14:35:36.601Z,french_524.wav,0,poule,45,26,4,5,français,f,0,0.0,55.00709732,0.25824769
5b8fffca220be50001c59858,48,0,2024-02-28T14:35:36.601Z,french_524.wav,0,poule,45,26,4,5,français,f,1,0.1,-23.89661715,0.7249448
5b8fffca220be50001c59858,48,0,2024-02-28T14:35:36.601Z,french_524.wav,0,poule,45,26,4,5,français,f,2,0.2,-10.76576396,0.42763347
5b8fffca220be50001c59858,48,0,2024-02-28T14:35:36.601Z,french_524.wav,0,poule,45,26,4,5,français,f,3,0.3,-89.98073457,1.41980414
5b8fffca220be50001c59858,48,0,2024-02-28T14:35:36.601Z,french_524.wav,0,poule,45,26,4,5,français,f,4,0.4,90.47688198,1.5691433
5b8fffca220be50001c59858,48,0,2024-02-28T14:35:36.601Z,french_524.wav,0,poule,45,26,4,5,français,f,5,0.5,-26.69479883,0.22636254
5b8fffca220be50001c59858,48,0,2024-02-28T14:35:36.601Z,french_524.wav,0,poule,45,26,4,5,français,f,6,0.6,-13.51692626,1.34650289
5b8fffca220be50001c59858,48,0,2024-02-28T14:35:36.601Z,french_524.wav,0,poule,45,26,4,5,français,f,7,0.7,46.79530299,0.32537739
5b8fffca220be50001c59858,48,0,2024-02-28T14:35:36.601Z,french_524.wav,0,poule,45,26,4,5,français,f,8,0.8,46.57964201,1.48093397
5b8fffca220be50001c59858,48,0,2024-02-28T14:35:36.601Z,french_524.wav,0,poule,45,26,4,5,français,f,9,0.9,-91.36020491,0.90980305
5b8fffca220be50001c59858,48,0,2024-02-28T14:35:36.601Z,french_524.wav,0,poule,45,26,4,5,français,f,10,1.0,-81.359929,1.68039469
5b8fffca220be50001c59858,48,0,2024-02-28T14:35:36.601Z,french_524.wav,0,poule,45,26,4,5,français,f,11,1.1,91.07291396,0.19928147
5b8fffca220be50001c59858,48,0,2024-02-28T14:35:36.601Z,french_524.wav,0,poule,45,26,4,5,français,f,12,1.14141667,40.78169996,0.80241369
5b8fffca220be50001c59858,49,0,2024-02-28T14:35:36.601Z,french_543.wav,0,poule,185,26,4,5,français,f,0,0.0,-44.87823344,1.22092405
5b8fffca220be50001c59858,49,0,2024-02-28T14:35:36.601Z,french_543.wav,0,poule,185,26,4,5,français,f,1,0.1,-85.25635594,0.90741811
5b8fffca220be50001c59858,49,0,2024-02-28T14:35:36.601Z,french_543.wav,0,poule,185,26,4,5,français,f,2,0.2,77.65163946,1.977523
5b8fffca220be50001c59858,49,0,2024-02-28T14:35:36.601Z,french_543.wav,0,poule,185,26,4,5,français,f,3,0.3,35.41596957,1.08318728
5b8fffca220be50001c59858,49,0,2024-02-28T14:35:36.601Z,french_543.wav,0,poule,185,26,4,5,français,f,4,0.4,96.96992015,0.30163476
5b8fffca220be50001c59858,49,0,2024-02-28T14:35:36.601Z,french_543.wav,0,poule,185,26,4,5,français,f,5,0.5,30.99132482,0.77672099
5b8fffca220be50001c59858,49,0,2024-02-28T14:35:36.601Z,french_543.wav,0,poule,185,26,4,5,français,f,6,0.6,27.1908954,0.66664394
5b8fffca220be50001c59858,49,0,2024-02-28T14:35:36.601Z,french_543.wav,0,poule,185,26,4,5,français,f,7,0.7,-73.42015814,1.22725994
5b8fffca220be50001c59858,49,0,2024-02-28T14:35:36.601Z,french_543.wav,0,poule,185,26,4,5,français,f,8,0.8,72.47089611,1.04026949
5b8fffca220be50001c59858,49,0,2024-02-28T14:35:36.601Z,french_543.wav,0,poule,185,26,4,5,français,f,9,0.9,-89.08509908,0.57432911
5b8fffca220be50001c59858,49,0,2024-02-28T14:35:36.601Z,french_543.wav,0,poule,185,26,4,5,français,f,10,1.0,-49.62569554,1.03178191
5b8fffca220be50001c59858,49,0,2024-02-28T14:35:36.601Z,french_543.wav,0,poule,185,26,4,5,français,f,11,1.1,25.36303007,1.3294638
5b8fffca220be50001c59858,49,0,2024-02-28T14:35:36.601Z,french_543.wav,0,poule,185,26,4,5,français,f,12,1.14141667,86.26803899,1.02742546
5b8fffca220be50001c59858,50,1,2024-02-28T14:37:45.108Z,french_35.wav,0,pull,1304,26,4,5,français,f,0,0.0,-45.98279,0.780992
5b8fffca220be50001c59858,50,1,2024-02-28T14:37:45.108Z,french_35.wav,0,pull,1304,26,4,5,français,f,1,0.1,-93.35925651,0.62769982
5b8fffca220be50001c59858,50,1,2024-02-28T14:37:45.108Z,french_35.wav,0,pull,1304,26,4,5,français,f,2,0.2,77.12358993,0.02441241
5b8fffca220be50001c59858,50,1,2024-02-28T14:37:45.108Z,french_35.wav,0,pull,1304,26,4,5,français,f,3,0.3,-34.48534753,1.04344707
5b8fffca220be50001c59858,50,1,2024-02-28T14:37:45.108Z,french_35.wav,0,pull,1304,26,4,5,français,f,4,0.4,38.58985069,0.06237226
5b8fffca220be50001c59858,50,1,2024-02-28T14:37:45.108Z,french_35.wav,0,pull,1304,26,4,5,français,f,5,0.5,23.05182082,1.89799499
5b8fffca220be50001c59858,50,1,2024-02-28T14:37:45.108Z,french_35.wav,0,pull,1304,26,4,5,français,f,6,0.6,59.56369485,1.45682954
5b8fffca220be50001c59858,50,1,2024-02-28T14:37:45.108Z,french_35.wav,0,pull,1304,26,4,5,français,f,7,0.7,-15.27709813,1.10135409
5b8fffca220be50001c59858,50,1,2024-02-28T14:37:45.108Z,french_35.wav,0,pull,1304,26,4,5,français,f,8,0.8,16.51606583,0.68131024
5b8fffca220be50001c59858,50,1,2024-02-28T14:37:45.108Z,french_35.wav,0,pull,1304,26,4,5,français,f,9,0.9,-90.32979769,0.067101
5b8fffca220be50001c59858,50,1,2024-02-28T14:37:45.108Z,french_35.wav,0,pull,1304,26,4,5,français,f,10,1.0,0.14455974,0.5753594
5b8fffca220be50001c59858,50,1,2024-02-28T14:37:45.108Z,french_35.wav,0,pull,1304,26,4,5,français,f,11,1.1,-26.62218669,0.31164616
5b8fffca220be50001c59858,50,1,2024-02-28T14:37:45.108Z,french_35.wav,0,pull,1304,26,4,5,français,f,12,1.14141667,-83.87664754,1.05187015
5b8fffca220be50001c59858,51,1,2024-02-28T14:37:45.108Z,french_673.wav,0,poule,231,26,4,5,français,f,0,0.0,-2.55265917,1.38808209
5b8fffca220be50001c59858,51,1,2024-02-28T14:37:45.108Z,french_673.wav,0,poule,231,26,4,5,français,f,1,0.1,-95.33210179,1.23286385
5b8fffca220be50001c59858,51,1,2024-02-28T14:37:45.108Z,french_673.wav,0,poule,231,26,4,5,français,f,2,0.2,75.24432021,1.60990353
5b8fffca220be50001c59858,51,1,2024-02-28T14:37:45.108Z,french_673.wav,0,poule,231,26,4,5,français,f,3,0.3,-62.71648026,1.96096925
5b8fffca220be50001c59858,51,1,2024-02-28T14:37:45.108Z,french_673.wav,0,poule,231,26,4,5,français,f,4,0.4,44.13246856,1.13042948
5b8fffca220be50001c59858,51,1,2024-02-28T14:37:45.108Z,french_673.wav,0,poule,231,26,4,5,français,f,5,0.5,-75.81978201,0.43108443
5b8fffca220be50001c59858,51,1,2024-02-28T14:37:45.108Z,french_673.wav,0,poule,231,26,4,5,français,f,6,0.6,-52.61296489,1.80306239
5b8fffca220be50001c59858,51,1,2024-02-28T14:37:45.108Z,french_673.wav,0,poule,231,26,4,5,français,f,7,0.7,-0.98979507,1.42327276
5b8fffca220be50001c59858,51,1,2024-02-28T14:37:45.108Z,french_673.wav,0,poule,231,26,4,5,français,f,8,0.8,-14.53157899,1.93748615
5b8fffca220be50001c59858,51,1,2024-02-28T14:37:45.108Z,french_673.wav,0,poule,231,26,4,5,français,f,9,0.9,57.4893304,0.36530119
5b8fffca220be50001c59858,51,1,2024-02-28T14:37:45.108Z,french_673.wav,0,poule,231,26,4,5,français,f,10,1.0,91.85549416,1.84079327
5b8fffca220be50001c59858,51,1,2024-02-28T14:37:45.108Z,french_673.wav,0,poule,231,26,4,5,français,f,11,1.1,55.10518596,0.18441238
5b8fffca220be50001c59858,51,1,2024-02-28T14:37:45.108Z,french_673.wav,0,poule,231,26,4,5,français,f,12,1.14141667,42.81341406,1.02298028
5b8fffca220be50001c59858,52,1,2024-02-28T14:37:45.108Z,french_581.wav,0,poule,373,26,4,5,français,f,0,0.0,43.38365337,0.41567672
5b8fffca220be50001c59858,52,1,2024-02-28T14:37:45.108Z,french_581.wav,0,poule,373,26,4,5,français,f,1,0.1,-0.22643789,0.87895889
5b8fffca220be50001c59858,52,1,2024-02-28T14:37:45.108Z,french_581.wav,0,poule,373,26,4,5,français,f,2,0.2,-34.5083162,1.05937657
5b8fffca220be50001c59858,52,1,2024-02-28T14:37:45.108Z,french_581.wav,0,poule,373,26,4,5,français,f,3,0.3,-53.1275403,0.23340752
5b8fffca220be50001c59858,52,1,2024-02-28T14:37:45.108Z,french_581.wav,0,poule,373,26,4,5,français,f,4,0.4,-24.27049396,1.36506565
5b8fffca220be50001c59858,52,1,2024-02-28T14:37:45.108Z,french_581.wav,0,poule,373,26,4,5,français,f,5,0.5,27.70479848,1.54429013
5b8fffca220be50001c59858,52,1,2024-02-28T14:37:45.108Z,french_581.wav,0,poule,373,26,4,5,français,f,6,0.6,48.82569982,1.55961551
5b8fffca220be50001c59858,52,1,2024-02-28T14:37:45.108Z,french_581.wav,0,poule,373,26,4,5,français,f,7,0.7,-53.35719693,0.31113875
5b8fffca220be50001c59858,52,1,2024-02-28T14:37:45.108Z,french_581.wav,0,poule,373,26,4,5,français,f,8,0.8,74.55256708,0.08017685
5b8fffca220be50001c59858,52,1,2024-02-28T14:37:45.108Z,french_581.wav,0,poule,373,26,4,5,français,f,9,0.9,70.29025897,0.98976323
5b8fffca220be50001c59858,52,1,2024-02-28T14:37:45.108Z,french_581.wav,0,poule,373,26,4,5,français,f,10,1.0,-42.93252277,1.41346884
5b8fffca220be50001c59858,52,1,2024-02-28T14:37:45.108Z,french_581.wav,0,poule,373,26,4,5,français,f,11,1.1,72.0501082,1.33841566
5b8fffca220be50001c59858,52,1,2024-02-28T14:37:45.108Z,french_581.wav,0,poule,373,26,4,5,français,f,12,1.14141667,70.1097379,0.36889697
5b8fffca220be50001c59858,53,1,2024-02-28T14:37:45.108Z,french_381.wav,0,poule,1054,26,4,5,français,f,0,0.0,16.77547757,1.57552779
5b8fffca220be50001c59858,53,1,2024-02-28T14:37:45.108Z,french_381.wav,0,poule,1054,26,4,5,français,f,1,0.1,17.23505451,0.79968926
5b8fffca220be50001c59858,53,1,2024-02-28T14:37:45.108Z,french_381.wav,0,poule,1054,26,4,5,français,f,2,0.2,81.55975147,0.97870808
5b8fffca220be50001c59858,53,1,2024-02-28T14:37:45.108Z,french_381.wav,0,poule,1054,26,4,5,français,f,3,0.3,66.33872026,1.32218964
5b8fffca220be50001c59858,53,1,2024-02-28T14:37:45.108Z,french_381.wav,0,poule,1054,26,4,5,français,f,4,0.4,33.03818018,1.91491421
5b8fffca220be50001c59858,53,1,2024-02-28T14:37:45.108Z,french_381.wav,0,poule,1054,26,4,5,français,f,5,0.5,-27.31689891,1.55764182
5b8fffca220be50001c59858,53,1,2024-02-28T14:37:45.108Z,french_381.wav,0,poule,1054,26,4,5,français,f,6,0.6,23.16804454,1.56469583
5b8fffca220be50001c59858,53,1,2024-02-28T14:37:45.108Z,french_381.wav,0,poule,1054,26,4,5,français,f,7,0.7,-22.15418729,0.99557265
5b8fffca220be50001c59858,53,1,2024-02-28T14:37:45.108Z,french_381.wav,0,poule,1054,26,4,5,français,f,8,0.8,17.55346965,0.5982603
5b8fffca220be50001c59858,53,1,2024-02-28T14:37:45.108Z,french_381.wav,0,poule,1054,26,4,5,français,f,9,0.9,-25.58605951,0.02411044
5b8fffca220be50001c59858,53,1,2024-02-28T14:37:45.108Z,french_381.wav,0,poule,1054,26,4,5,français,f,10,1.0,-85.31796448,0.77366774
5b8fffca220be50001c59858,53,1,2024-02-28T14:37:45.108Z,french_381.wav,0,poule,1054,26,4,5,français,f,11,1.1,-83.45042571,0.9088508
5b8fffca220be50001c59858,53,1,2024-02-28T14:37:45.108Z,french_381.wav,0,poule,1054,26,4,5,français,f,12,1.14141667,12.63282515,1.14991204
5b8fffca220be50001c59858,54,1,2024-02-28T14:37:45.108Z,french_403.wav,0,poule,128,26,4,5,français,f,0,0.0,-45.917689,0.58011626
5b8fffca220be50001c59858,54,1,2024-02-28T14:37:45.108Z,french_403.wav,0,poule,128,26,4,5,français,f,1,0.1,-33.5384282,1.99690542
5b8fffca220be50001c59858,54,1,2024-02-28T14:37:45.108Z,french_403.wav,0,poule,128,26,4,5,français,f,2,0.2,-99.0043312,1.57936583
5b8fffca220be50001c59858,54,1,2024-02-28T14:37:45.108Z,french_403.wav,0,poule,128,26,4,5,français,f,3,0.3,-95.1875869,0.63045979
5b8fffca220be50001c59858,54,1,2024-02-28T14:37:45.108Z,french_403.wav,0,poule,128,26,4,5,français,f,4,0.4,-1.31361376,0.92092092
5b8fffca220be50001c59858,54,1,2024-02-28T14:37:45.108Z,french_403.wav,0,poule,128,26,4,5,français,f,5,0.5,-17.0630736,1.43478
5b8fffca220be50001c59858,54,1,2024-02-28T14:37:45.108Z,french_403.wav,0,poule,128,26,4,5,français,f,6,0.6,5.27592549,0.86263227
5b8fffca220be50001c59858,54,1,2024-02-28T14:37:45.108Z,french_403.wav,0,poule,128,26,4,5,français,f,7,0.7,-56.7711373,0.84275935
5b8fffca220be50001c59858,54,1,2024-02-28T14:37:45.108Z,french_403.wav,0,poule,128,26,4,5,français,f,8,0.8,-98.9437023,0.57690133
5b8fffca220be50001c59858,54,1,2024-02-28T14:37:45.108Z,french_403.wav,0,poule,128,26,4,5,français,f,9,0.9,20.0525885,0.40646744
5b8fffca220be50001c59858,54,1,2024-02-28T14:37:45.108Z,french_403.wav,0,poule,128,26,4,5,français,f,10,1.0,82.5481655,1.72098979
5b8fffca220be50001c59858,54,1,2024-02-28T14:37:45.108Z,french_403.wav,0,poule,128,26,4,5,français,f,11,1.1,-0.07654756,0.26974162
5b8fffca220be50001c59858,54,1,2024-02-28T14:37:45.108Z,french_403.wav,0,poule,128,26,4,5,français,f,12,1.14141667,57.742746,1.53625509
5b8fffca220be50001c59858,55,1,2024-02-28T14:37:45.108Z,french_502.wav,0,poule,187,26,4,5,français,f,0,0.0,-11.4543729,1.77169865
5b8fffca220be50001c59858,55,1,2024-02-28T14:37:45.108Z,french_502.wav,0,poule,187,26,4,5,français,f,1,0.1,-12.17896381,0.29167806
5b8fffca220be50001c59858,55,1,2024-02-28T14:37:45.108Z,french_502.wav,0,poule,187,26,4,5,français,f,2,0.2,-48.87403032,1.41232328
5b8fffca220be50001c59858,55,1,2024-02-28T14:37:45.108Z,french_502.wav,0,poule,187,26,4,5,français,f,3,0.3,-0.23226325,0.78511054
5b8fffca220be50001c59858,55,1,2024-02-28T14:37:45.108Z,french_502.wav,0,poule,187,26,4,5,français,f,4,0.4,39.39265286,1.65701815
5b8fffca220be50001c59858,55,1,2024-02-28T14:37:45.108Z,french_502.wav,0,poule,187,26,4,5,français,f,5,0.5,69.41626591,1.20660202
5b8fffca220be50001c59858,55,1,2024-02-28T14:37:45.108Z,french_502.wav,0,poule,187,26,4,5,français,f,6,0.6,-11.96295955,1.43326672
5b8fffca220be50001c59858,55,1,2024-02-28T14:37:45.108Z,french_502.wav,0,poule,187,26,4,5,français,f,7,0.7,-21.04513411,1.53062685
5b8fffca220be50001c59858,55,1,2024-02-28T14:37:45.108Z,french_502.wav,0,poule,187,26,4,5,français,f,8,0.8,55.87157954,1.71764437
5b8fffca220be50001c59858,55,1,2024-02-28T14:37:45.108Z,french_502.wav,0,poule,187,26,4,5,français,f,9,0.9,22.29735048,1.18231357
5b8fffca220be50001c59858,55,1,2024-02-28T14:37:45.108Z,french_502.wav,0,poule,187,26,4,5,français,f,10,1.0,92.74541313,1.70094513
5b8fffca220be50001c59858,55,1,2024-02-28T14:37:45.108Z,french_502.wav,0,poule,187,26,4,5,français,f,11,1.1,59.88842098,1.38297596
5b8fffca220be50001c59858,55,1,2024-02-28T14:37:45.108Z,french_502.wav,0,poule,187,26,4,5,français,f,12,1.14141667,69.69061872,0.39008766
5b8fffca220be50001c59858,56,1,2024-02-28T14:37:45.108Z,french_367.wav,0,poule,794,26,4,5,français,f,0,0.0,-19.33050099,0.32588684
5b8fffca220be50001c59858,56,1,2024-02-28T14:37:45.108Z,french_367.wav,0,poule,794,26,4,5,français,f,1,0.1,-1.29300582,1.20079268
5b8fffca220be50001c59858,56,1,2024-02-28T14:37:45.108Z,french_367.wav,0,poule,794,26,4,5,français,f,2,0.2,-53.6628535,1.68961812
5b8fffca220be50001c59858,56,1,2024-02-28T14:37:45.108Z,french_367.wav,0,poule,794,26,4,5,français,f,3,0.3,-26.30205028,0.18361897
5b8fffca220be50001c59858,56,1,2024-02-28T14:37:45.108Z,french_367.wav,0,poule,794,26,4,5,français,f,4,0.4,-63.4363173,0.97466933
5b8fffca220be50001c59858,56,1,2024-02-28T14:37:45.108Z,french_367.wav,0,poule,794,26,4,5,français,f,5,0.5,6.39307262,1.38512788
5b8fffca220be50001c59858,56,1,2024-02-28T14:37:45.108Z,french_367.wav,0,poule,794,26,4,5,français,f,6,0.6,-64.6682597,0.02274579
5b8fffca220be50001c59858,56,1,2024-02-28T14:37:45.108Z,french_367.wav,0,poule,794,26,4,5,français,f,7,0.7,29.77195728,0.18668815
5b8fffca220be50001c59858,56,1,2024-02-28T14:37:45.108Z,french_367.wav,0,poule,794,26,4,5,français,f,8,0.8,57.14519673,0.42667984
5b8fffca220be50001c59858,56,1,2024-02-28T14:37:45.108Z,french_367.wav,0,poule,794,26,4,5,français,f,9,0.9,-3.13638169,0.48752638
5b8fffca220be50001c59858,56,1,2024-02-28T14:37:45.108Z,french_367.wav,0,poule,794,26,4,5,français,f,10,1.0,29.03856774,0.21358708
5b8fffca220be50001c59858,56,1,2024-02-28T14:37:45.108Z,french_367.wav,0,poule,794,26,4,5,français,f,11,1.1,-14.77542226,0.34158708
5b8fffca220be50001c59858,56,1,2024-02-28T14:37:45.108Z,french_367.wav,0,poule,794,26,4,5,français,f,12,1.14141667,-39.4710146,1.96821169
5b8fffca220be50001c59858,57,1,2024-02-28T14:37:45.108Z,french_460.wav,0,poule,138,26,4,5,français,f,0,0.0,-12.29879205,0.06969059
5b8fffca220be50001c59858,57,1,2024-02-28T14:37:45.108Z,french_460.wav,0,poule,138,26,4,5,français,f,1,0.1,3.28349047,1.96066133
5b8fffca220be50001c59858,57,1,2024-02-28T14:37:45.108Z,french_460.wav,0,poule,138,26,4,5,français,f,2,0.2,-34.86567737,0.93300362
5b8fffca220be50001c59858,57,1,2024-02-28T14:37:45.108Z,french_460.wav,0,poule,138,26,4,5,français,f,3,0.3,9.67806793,0.19701258
5b8fffca220be50001c59858,57,1,2024-02-28T14:37:45.108Z,french_460.wav,0,poule,138,26,4,5,français,f,4,0.4,-75.55665199,0.26225633
5b8fffca220be50001c59858,57,1,2024-02-28T14:37:45.108Z,french_460.wav,0,poule,138,26,4,5,français,f,5,0.5,69.98691691,0.30574944
5b8fffca220be50001c59858,57,1,2024-02-28T14:37:45.108Z,french_460.wav,0,poule,138,26,4,5,français,f,6,0.6,19.57836313,0.84522049
5b8fffca220be50001c59858,57,1,2024-02-28T14:37:45.108Z,french_460.wav,0,poule,138,26,4,5,français,f,7,0.7,26.31608571,0.46797796
5b8fffca220be50001c59858,57,1,2024-02-28T14:37:45.108Z,french_460.wav,0,poule,138,26,4,5,français,f,8,0.8,-43.07931808,1.27967898
5b8fffca220be50001c59858,57,1,2024-02-28T14:37:45.108Z,french_460.wav,0,poule,138,26,4,5,français,f,9,0.9,-53.20570228,1.87003329
5b8fffca220be50001c59858,57,1,2024-02-28T14:37:45.108Z,french_460.wav,0,poule,138,26,4,5,français,f,10,1.0,17.19509414,1.1042613
5b8fffca220be50001c59858,57,1,2024-02-28T14:37:45.108Z,french_460.wav,0,poule,138,26,4,5,français,f,11,1.1,-79.4382763,1.82314088
5b8fffca220be50001c59858,57,1,2024-02-28T14:37:45.108Z,french_460.wav,0,poule,138,26,4,5,français,f,12,1.14141667,17.73784443,1.96864876
5b8fffca220be50001c59858,58,1,2024-02-28T14:37:45.108Z,french_817.wav,0,poule,33,26,4,5,français,f,0,0.0,-30.94248102,0.42536639
5b8fffca220be50001c59858,58,1,2024-02-28T14:37:45.108Z,french_817.wav,0,poule,33,26,4,5,français,f,1,0.1,-4.29051335,0.63122361
5b8fffca220be50001c59858,58,1,2024-02-28T14:37:45.108Z,french_817.wav,0,poule,33,26,4,5,français,f,2,0.2,-40.67450271,1.33951683
5b8fffca220be50001c59858,58,1,2024-02-28T14:37:45.108Z,french_817.wav,0,poule,33,26,4,5,français,f,3,0.3,-98.30979695,0.48386301
5b8fffca220be50001c59858,58,1,2024-02-28T14:37:45.108Z,french_817.wav,0,poule,33,26,4,5,français,f,4,0.4,33.8298658,0.54931862
5b8fffca220be50001c59858,58,1,2024-02-28T14:37:45.108Z,french_817.wav,0,poule,33,26,4,5,français,f,5,0.5,-10.25342909,1.17298133
5b8fffca220be50001c59858,58,1,2024-02-28T14:37:45.108Z,french_817.wav,0,poule,33,26,4,5,français,f,6,0.6,-44.71615858,0.90112803
5b8fffca220be50001c59858,58,1,2024-02-28T14:37:45.108Z,french_817.wav,0,poule,33,26,4,5,français,f,7,0.7,-44.75020149,1.02780662
5b8fffca220be50001c59858,58,1,2024-02-28T14:37:45.108Z,french_817.wav,0,poule,33,26,4,5,français,f,8,0.8,83.65764996,1.75749166
5b8fffca220be50001c59858,58,1,2024-02-28T14:37:45.108Z,french_817.wav,0,poule,33,26,4,5,français,f,9,0.9,43.69158252,1.02056685
5b8fffca220be50001c59858,58,1,2024-02-28T14:37:45.108Z,french_817.wav,0,poule,33,26,4,5,français,f,10,1.0,46.49261848,1.3036828
5b8fffca220be50001c59858,58,1,2024-02-28T14:37:45.108Z,french_817.wav,0,poule,33,26,4,5,français,f,11,1.1,1.97001413,1.81996597
5b8fffca220be50001c59858,58,1,2024-02-28T14:37:45.108Z,french_817.wav,0,poule,33,26,4,5,français,f,12,1.14141667,-3.17194908,0.33384971
5b8fffca220be50001c59858,59,1,2024-02-28T14:37:45.108Z,french_706.wav,0,poule,226,26,4,5,français,f,0,0.0,-4.29945195,1.10902177
5b8fffca220be50001c59858,59,1,2024-02-28T14:37:45.108Z,french_706.wav,0,poule,226,26,4,5,français,f,1,0.1,91.26357726,1.34575
5b8fffca220be50001c59858,59,1,2024-02-28T14:37:45.108Z,french_706.wav,0,poule,226,26,4,5,français,f,2,0.2,-89.32127847,0.99129006
