subj,trial,block,date,stim,stim_order,response,rt,age,english,french,language,sex,param_index,segment,pitch,stretch
65498af02717744d9946615d,0,0,2024-02-28T14:40:07.265Z,french_333.wav,0,poule,6766,31,4,5,Français,M,0,0.0,-20.77044182,1.43629895
65498af02717744d9946615d,0,0,2024-02-28T14:40:07.265Z,french_333.wav,0,poule,6766,31,4,5,Français,M,1,0.1,26.03274788,0.14363016
65498af02717744d9946615d,0,0,2024-02-28T14:40:07.265Z,french_333.wav,0,poule,6766,31,4,5,Français,M,2,0.2,44.25680739,0.99533055
65498af02717744d9946615d,0,0,2024-02-28T14:40:07.265Z,french_333.wav,0,poule,6766,31,4,5,Français,M,3,0.3,54.84607734,1.58313255
65498af02717744d9946615d,0,0,2024-02-28T14:40:07.265Z,french_333.wav,0,poule,6766,31,4,5,Français,M,4,0.4,-84.70319837,0.87601018
65498af02717744d9946615d,0,0,2024-02-28T14:40:07.265Z,french_333.wav,0,poule,6766,31,4,5,Français,M,5,0.5,50.88930926,1.3608632
65498af02717744d9946615d,0,0,2024-02-28T14:40:07.265Z,french_333.wav,0,poule,6766,31,4,5,Français,M,6,0.6,91.49561161,1.05674693
65498af02717744d9946615d,0,0,2024-02-28T14:40:07.265Z,french_333.wav,0,poule,6766,31,4,5,Français,M,7,0.7,-79.27192118,0.56286184
65498af02717744d9946615d,0,0,2024-02-28T14:40:07.265Z,french_333.wav,0,poule,6766,31,4,5,Français,M,8,0.8,-16.30652355,1.24047364
65498af02717744d9946615d,0,0,2024-02-28T14:40:07.265Z,french_333.wav,0,poule,6766,31,4,5,Français,M,9,0.9,-46.58669152,0.80209834
65498af02717744d9946615d,0,0,2024-02-28T14:40:07.265Z,french_333.wav,0,poule,6766,31,4,5,Français,M,10,1.0,92.33152656,0.198323
65498af02717744d9946615d,0,0,2024-02-28T14:40:07.265Z,french_333.wav,0,poule,6766,31,4,5,Français,M,11,1.1,53.35128711,1.38035768
65498af02717744d9946615d,0,0,2024-02-28T14:40:07.265Z,french_333.wav,0,poule,6766,31,4,5,Français,M,12,1.14141667,-31.95559671,0.94952553
65498af02717744d9946615d,1,0,2024-02-28T14:40:07.265Z,french_930.wav,0,poule,1284,31,4,5,Français,M,0,0.0,-19.87682244,1.26137433
65498af02717744d9946615d,1,0,2024-02-28T14:40:07.265Z,french_930.wav,0,poule,1284,31,4,5,Français,M,1,0.1,33.32374643,1.39217721
65498af02717744d9946615d,1,0,2024-02-28T14:40:07.265Z,french_930.wav,0,poule,1284,31,4,5,Français,M,2,0.2,-3.87894318,0.64379498
65498af02717744d9946615d,1,0,2024-02-28T14:40:07.265Z,french_930.wav,0,poule,1284,31,4,5,Français,M,3,0.3,29.76228245,0.20991032
65498af02717744d9946615d,1,0,2024-02-28T14:40:07.265Z,french_930.wav,0,poule,1284,31,4,5,Français,M,4,0.4,51.30696026,0.92641495
65498af02717744d9946615d,1,0,2024-02-28T14:40:07.265Z,french_930.wav,0,poule,1284,31,4,5,Français,M,5,0.5,-78.80141905,1.10165323
65498af02717744d9946615d,1,0,2024-02-28T14:40:07.265Z,french_930.wav,0,poule,1284,31,4,5,Français,M,6,0.6,-63.85822427,0.79329942
65498af02717744d9946615d,1,0,2024-02-28T14:40:07.265Z,french_930.wav,0,poule,1284,31,4,5,Français,M,7,0.7,42.50280172,1.85994667
65498af02717744d9946615d,1,0,2024-02-28T14:40:07.265Z,french_930.wav,0,poule,1284,31,4,5,Français,M,8,0.8,-6.05328021,0.58419589
65498af02717744d9946615d,1,0,2024-02-28T14:40:07.265Z,french_930.wav,0,poule,1284,31,4,5,Français,M,9,0.9,-43.35461535,0.82252221
65498af02717744d9946615d,1,0,2024-02-28T14:40:07.265Z,french_930.wav,0,poule,1284,31,4,5,Français,M,10,1.0,-40.42814,0.37530869
65498af02717744d9946615d,1,0,2024-02-28T14:40:07.265Z,french_930.wav,0,poule,1284,31,4,5,Français,M,11,1.1,43.1107058,1.62426313
65498af02717744d9946615d,1,0,2024-02-28T14:40:07.265Z,french_930.wav,0,poule,1284,31,4,5,Français,M,12,1.14141667,48.8884653,0.25399184
65498af02717744d9946615d,2,0,2024-02-28T14:40:07.265Z,french_344.wav,0,poule,2688,31,4,5,Français,M,0,0.0,96.07480186,0.58479992
65498af02717744d9946615d,2,0,2024-02-28T14:40:07.265Z,french_344.wav,0,poule,2688,31,4,5,Français,M,1,0.1,-21.67597909,0.94801026
65498af02717744d9946615d,2,0,2024-02-28T14:40:07.265Z,french_344.wav,0,poule,2688,31,4,5,Français,M,2,0.2,1.76564063,0.48766352
65498af02717744d9946615d,2,0,2024-02-28T14:40:07.265Z,french_344.wav,0,poule,2688,31,4,5,Français,M,3,0.3,52.19208065,0.58210606
65498af02717744d9946615d,2,0,2024-02-28T14:40:07.265Z,french_344.wav,0,poule,2688,31,4,5,Français,M,4,0.4,-48.97734346,1.63747349
65498af02717744d9946615d,2,0,2024-02-28T14:40:07.265Z,french_344.wav,0,poule,2688,31,4,5,Français,M,5,0.5,8.52034332,0.76958472
65498af02717744d9946615d,2,0,2024-02-28T14:40:07.265Z,french_344.wav,0,poule,2688,31,4,5,Français,M,6,0.6,76.79242076,1.51679811
65498af02717744d9946615d,2,0,2024-02-28T14:40:07.265Z,french_344.wav,0,poule,2688,31,4,5,Français,M,7,0.7,-46.49970146,0.4990454
65498af02717744d9946615d,2,0,2024-02-28T14:40:07.265Z,french_344.wav,0,poule,2688,31,4,5,Français,M,8,0.8,41.91318913,1.79245635
65498af02717744d9946615d,2,0,2024-02-28T14:40:07.265Z,french_344.wav,0,poule,2688,31,4,5,Français,M,9,0.9,-58.70585391,1.42432783
65498af02717744d9946615d,2,0,2024-02-28T14:40:07.265Z,french_344.wav,0,poule,2688,31,4,5,Français,M,10,1.0,-5.86032919,0.02463932
65498af02717744d9946615d,2,0,2024-02-28T14:40:07.265Z,french_344.wav,0,poule,2688,31,4,5,Français,M,11,1.1,3.04602069,1.38926004
65498af02717744d9946615d,2,0,2024-02-28T14:40:07.265Z,french_344.wav,0,poule,2688,31,4,5,Français,M,12,1.14141667,9.91868565,0.39424777
65498af02717744d9946615d,3,0,2024-02-28T14:40:07.265Z,french_491.wav,0,poule,2098,31,4,5,Français,M,0,0.0,-32.79721007,0.90116217
65498af02717744d9946615d,3,0,2024-02-28T14:40:07.265Z,french_491.wav,0,poule,2098,31,4,5,Français,M,1,0.1,25.08986795,1.66798034
65498af02717744d9946615d,3,0,2024-02-28T14:40:07.265Z,french_491.wav,0,poule,2098,31,4,5,Français,M,2,0.2,99.1504277,1.6353077
65498af02717744d9946615d,3,0,2024-02-28T14:40:07.265Z,french_491.wav,0,poule,2098,31,4,5,Français,M,3,0.3,-40.395736,0.54788847
65498af02717744d9946615d,3,0,2024-02-28T14:40:07.265Z,french_491.wav,0,poule,2098,31,4,5,Français,M,4,0.4,-71.36976671,0.14013258
65498af02717744d9946615d,3,0,2024-02-28T14:40:07.265Z,french_491.wav,0,poule,2098,31,4,5,Français,M,5,0.5,-12.86066121,1.37878942
65498af02717744d9946615d,3,0,2024-02-28T14:40:07.265Z,french_491.wav,0,poule,2098,31,4,5,Français,M,6,0.6,-65.44931003,1.55111616
65498af02717744d9946615d,3,0,2024-02-28T14:40:07.265Z,french_491.wav,0,poule,2098,31,4,5,Français,M,7,0.7,-44.47531366,0.8376443
65498af02717744d9946615d,3,0,2024-02-28T14:40:07.265Z,french_491.wav,0,poule,2098,31,4,5,Français,M,8,0.8,-56.76207038,0.4945917
65498af02717744d9946615d,3,0,2024-02-28T14:40:07.265Z,french_491.wav,0,poule,2098,31,4,5,Français,M,9,0.9,-6.01683556,0.95762538
65498af02717744d9946615d,3,0,2024-02-28T14:40:07.265Z,french_491.wav,0,poule,2098,31,4,5,Français,M,10,1.0,20.39042638,1.57619744
65498af02717744d9946615d,3,0,2024-02-28T14:40:07.265Z,french_491.wav,0,poule,2098,31,4,5,Français,M,11,1.1,90.67968242,1.41544214
65498af02717744d9946615d,3,0,2024-02-28T14:40:07.265Z,french_491.wav,0,poule,2098,31,4,5,Français,M,12,1.14141667,-59.47328451,0.84581543
65498af02717744d9946615d,4,0,2024-02-28T14:40:07.265Z,french_833.wav,0,pull,3283,31,4,5,Français,M,0,0.0,-22.64377916,0.41211545
65498af02717744d9946615d,4,0,2024-02-28T14:40:07.265Z,french_833.wav,0,pull,3283,31,4,5,Français,M,1,0.1,39.23109032,1.22030284
65498af02717744d9946615d,4,0,2024-02-28T14:40:07.265Z,french_833.wav,0,pull,3283,31,4,5,Français,M,2,0.2,59.98257397,1.60836668
65498af02717744d9946615d,4,0,2024-02-28T14:40:07.265Z,french_833.wav,0,pull,3283,31,4,5,Français,M,3,0.3,-65.49669768,0.84423089
65498af02717744d9946615d,4,0,2024-02-28T14:40:07.265Z,french_833.wav,0,pull,3283,31,4,5,Français,M,4,0.4,95.44390213,0.37549497
65498af02717744d9946615d,4,0,2024-02-28T14:40:07.265Z,french_833.wav,0,pull,3283,31,4,5,Français,M,5,0.5,16.36680149,0.89903376
65498af02717744d9946615d,4,0,2024-02-28T14:40:07.265Z,french_833.wav,0,pull,3283,31,4,5,Français,M,6,0.6,-95.74603826,1.16761525
65498af02717744d9946615d,4,0,2024-02-28T14:40:07.265Z,french_833.wav,0,pull,3283,31,4,5,Français,M,7,0.7,6.50870015,0.92946369
65498af02717744d9946615d,4,0,2024-02-28T14:40:07.265Z,french_833.wav,0,pull,3283,31,4,5,Français,M,8,0.8,55.04487349,0.59809775
65498af02717744d9946615d,4,0,2024-02-28T14:40:07.265Z,french_833.wav,0,pull,3283,31,4,5,Français,M,9,0.9,83.33960194,0.0823061
65498af02717744d9946615d,4,0,2024-02-28T14:40:07.265Z,french_833.wav,0,pull,3283,31,4,5,Français,M,10,1.0,20.98555864,0.9055233
65498af02717744d9946615d,4,0,2024-02-28T14:40:07.265Z,french_833.wav,0,pull,3283,31,4,5,Français,M,11,1.1,-86.19858113,0.76109733
65498af02717744d9946615d,4,0,2024-02-28T14:40:07.265Z,french_833.wav,0,pull,3283,31,4,5,Français,M,12,1.14141667,-62.40303258,0.74455165
65498af02717744d9946615d,5,0,2024-02-28T14:40:07.265Z,french_647.wav,0,poule,1441,31,4,5,Français,M,0,0.0,64.96347352,1.44558339
65498af02717744d9946615d,5,0,2024-02-28T14:40:07.265Z,french_647.wav,0,poule,1441,31,4,5,Français,M,1,0.1,42.67118944,1.09186706
65498af02717744d9946615d,5,0,2024-02-28T14:40:07.265Z,french_647.wav,0,poule,1441,31,4,5,Français,M,2,0.2,-71.33315366,0.89479071
65498af02717744d9946615d,5,0,2024-02-28T14:40:07.265Z,french_647.wav,0,poule,1441,31,4,5,Français,M,3,0.3,-41.45052921,0.112933
65498af02717744d9946615d,5,0,2024-02-28T14:40:07.265Z,french_647.wav,0,poule,1441,31,4,5,Français,M,4,0.4,22.15572667,0.58173767
65498af02717744d9946615d,5,0,2024-02-28T14:40:07.265Z,french_647.wav,0,poule,1441,31,4,5,Français,M,5,0.5,-49.22246912,0.69537994
65498af02717744d9946615d,5,0,2024-02-28T14:40:07.265Z,french_647.wav,0,poule,1441,31,4,5,Français,M,6,0.6,1.17986866,1.54756643
65498af02717744d9946615d,5,0,2024-02-28T14:40:07.265Z,french_647.wav,0,poule,1441,31,4,5,Français,M,7,0.7,39.60922848,1.87055518
65498af02717744d9946615d,5,0,2024-02-28T14:40:07.265Z,french_647.wav,0,poule,1441,31,4,5,Français,M,8,0.8,-95.82191419,0.45701879
65498af02717744d9946615d,5,0,2024-02-28T14:40:07.265Z,french_647.wav,0,poule,1441,31,4,5,Français,M,9,0.9,-84.37193607,0.87297018
65498af02717744d9946615d,5,0,2024-02-28T14:40:07.265Z,french_647.wav,0,poule,1441,31,4,5,Français,M,10,1.0,42.94723671,1.22985311
65498af02717744d9946615d,5,0,2024-02-28T14:40:07.265Z,french_647.wav,0,poule,1441,31,4,5,Français,M,11,1.1,25.55585594,1.03234616
65498af02717744d9946615d,5,0,2024-02-28T14:40:07.265Z,french_647.wav,0,poule,1441,31,4,5,Français,M,12,1.14141667,49.83574532,1.39896026
65498af02717744d9946615d,6,0,2024-02-28T14:40:07.265Z,french_737.wav,0,poule,1637,31,4,5,Français,M,0,0.0,52.46806953,0.64173495
65498af02717744d9946615d,6,0,2024-02-28T14:40:07.265Z,french_737.wav,0,poule,1637,31,4,5,Français,M,1,0.1,22.11164663,1.02290277
65498af02717744d9946615d,6,0,2024-02-28T14:40:07.265Z,french_737.wav,0,poule,1637,31,4,5,Français,M,2,0.2,21.15045447,1.15251768
65498af02717744d9946615d,6,0,2024-02-28T14:40:07.265Z,french_737.wav,0,poule,1637,31,4,5,Français,M,3,0.3,72.92020853,0.917673
65498af02717744d9946615d,6,0,2024-02-28T14:40:07.265Z,french_737.wav,0,poule,1637,31,4,5,Français,M,4,0.4,-88.00822782,0.17703353
65498af02717744d9946615d,6,0,2024-02-28T14:40:07.265Z,french_737.wav,0,poule,1637,31,4,5,Français,M,5,0.5,44.92871735,0.75389602
65498af02717744d9946615d,6,0,2024-02-28T14:40:07.265Z,french_737.wav,0,poule,1637,31,4,5,Français,M,6,0.6,-16.42488454,0.85967356
65498af02717744d9946615d,6,0,2024-02-28T14:40:07.265Z,french_737.wav,0,poule,1637,31,4,5,Français,M,7,0.7,-38.35092669,1.78468728
65498af02717744d9946615d,6,0,2024-02-28T14:40:07.265Z,french_737.wav,0,poule,1637,31,4,5,Français,M,8,0.8,53.07954461,1.36873542
65498af02717744d9946615d,6,0,2024-02-28T14:40:07.265Z,french_737.wav,0,poule,1637,31,4,5,Français,M,9,0.9,-5.60043296,1.27747182
65498af02717744d9946615d,6,0,2024-02-28T14:40:07.265Z,french_737.wav,0,poule,1637,31,4,5,Français,M,10,1.0,-61.57972563,1.44074345
65498af02717744d9946615d,6,0,2024-02-28T14:40:07.265Z,french_737.wav,0,poule,1637,31,4,5,Français,M,11,1.1,-87.96395632,1.60195725
65498af02717744d9946615d,6,0,2024-02-28T14:40:07.265Z,french_737.wav,0,poule,1637,31,4,5,Français,M,12,1.14141667,79.0371692,1.84673245
65498af02717744d9946615d,7,0,2024-02-28T14:40:07.265Z,french_371.wav,0,pull,3241,31,4,5,Français,M,0,0.0,-75.96996294,1.06184039
65498af02717744d9946615d,7,0,2024-02-28T14:40:07.265Z,french_371.wav,0,pull,3241,31,4,5,Français,M,1,0.1,69.05651355,0.65404497
65498af02717744d9946615d,7,0,2024-02-28T14:40:07.265Z,french_371.wav,0,pull,3241,31,4,5,Français,M,2,0.2,76.11598769,0.87875816
65498af02717744d9946615d,7,0,2024-02-28T14:40:07.265Z,french_371.wav,0,pull,3241,31,4,5,Français,M,3,0.3,-26.62332123,0.8766699
65498af02717744d9946615d,7,0,2024-02-28T14:40:07.265Z,french_371.wav,0,pull,3241,31,4,5,Français,M,4,0.4,72.54551649,1.48996037
65498af02717744d9946615d,7,0,2024-02-28T14:40:07.265Z,french_371.wav,0,pull,3241,31,4,5,Français,M,5,0.5,53.7325728,0.08423874
65498af02717744d9946615d,7,0,2024-02-28T14:40:07.265Z,french_371.wav,0,pull,3241,31,4,5,Français,M,6,0.6,-19.80627641,0.50933238
65498af02717744d9946615d,7,0,2024-02-28T14:40:07.265Z,french_371.wav,0,pull,3241,31,4,5,Français,M,7,0.7,82.18897373,0.11206157
65498af02717744d9946615d,7,0,2024-02-28T14:40:07.265Z,french_371.wav,0,pull,3241,31,4,5,Français,M,8,0.8,-85.15711276,1.01075883
65498af02717744d9946615d,7,0,2024-02-28T14:40:07.265Z,french_371.wav,0,pull,3241,31,4,5,Français,M,9,0.9,-1.67928374,0.86359737
65498af02717744d9946615d,7,0,2024-02-28T14:40:07.265Z,french_371.wav,0,pull,3241,31,4,5,Français,M,10,1.0,86.86600087,0.79020798
65498af02717744d9946615d,7,0,2024-02-28T14:40:07.265Z,french_371.wav,0,pull,3241,31,4,5,Français,M,11,1.1,-45.24707116,1.73708944
65498af02717744d9946615d,7,0,2024-02-28T14:40:07.265Z,french_371.wav,0,pull,3241,31,4,5,Français,M,12,1.14141667,-10.42210917,1.6745319
65498af02717744d9946615d,8,0,2024-02-28T14:40:07.265Z,french_976.wav,0,poule,1430,31,4,5,Français,M,0,0.0,-62.96972063,0.28137182
65498af02717744d9946615d,8,0,2024-02-28T14:40:07.265Z,french_976.wav,0,poule,1430,31,4,5,Français,M,1,0.1,-26.61167246,1.36324422
65498af02717744d9946615d,8,0,2024-02-28T14:40:07.265Z,french_976.wav,0,poule,1430,31,4,5,Français,M,2,0.2,44.65744226,0.73559884
65498af02717744d9946615d,8,0,2024-02-28T14:40:07.265Z,french_976.wav,0,poule,1430,31,4,5,Français,M,3,0.3,-45.10081954,0.69765519
65498af02717744d9946615d,8,0,2024-02-28T14:40:07.265Z,french_976.wav,0,poule,1430,31,4,5,Français,M,4,0.4,-19.39771586,1.05398301
65498af02717744d9946615d,8,0,2024-02-28T14:40:07.265Z,french_976.wav,0,poule,1430,31,4,5,Français,M,5,0.5,-6.74330021,0.92767004
65498af02717744d9946615d,8,0,2024-02-28T14:40:07.265Z,french_976.wav,0,poule,1430,31,4,5,Français,M,6,0.6,-92.2188675,1.8670127
65498af02717744d9946615d,8,0,2024-02-28T14:40:07.265Z,french_976.wav,0,poule,1430,31,4,5,Français,M,7,0.7,3.8955825,0.42732482
65498af02717744d9946615d,8,0,2024-02-28T14:40:07.265Z,french_976.wav,0,poule,1430,31,4,5,Français,M,8,0.8,-58.18459979,1.04518319
65498af02717744d9946615d,8,0,2024-02-28T14:40:07.265Z,french_976.wav,0,poule,1430,31,4,5,Français,M,9,0.9,47.27824977,0.19121007
65498af02717744d9946615d,8,0,2024-02-28T14:40:07.265Z,french_976.wav,0,poule,1430,31,4,5,Français,M,10,1.0,21.78065118,0.50101639
65498af02717744d9946615d,8,0,2024-02-28T14:40:07.265Z,french_976.wav,0,poule,1430,31,4,5,Français,M,11,1.1,-34.33033459,0.92471972
65498af02717744d9946615d,8,0,2024-02-28T14:40:07.265Z,french_976.wav,0,poule,1430,31,4,5,Français,M,12,1.14141667,59.55841944,0.33119465
65498af02717744d9946615d,9,0,2024-02-28T14:40:07.265Z,french_176.wav,0,poule,643,31,4,5,Français,M,0,0.0,17.42683987,0.67887999
65498af02717744d9946615d,9,0,2024-02-28T14:40:07.265Z,french_176.wav,0,poule,643,31,4,5,Français,M,1,0.1,-69.24605077,1.61684562
65498af02717744d9946615d,9,0,2024-02-28T14:40:07.265Z,french_176.wav,0,poule,643,31,4,5,Français,M,2,0.2,-6.34428043,0.9525789
65498af02717744d9946615d,9,0,2024-02-28T14:40:07.265Z,french_176.wav,0,poule,643,31,4,5,Français,M,3,0.3,75.15972611,1.10949226
65498af02717744d9946615d,9,0,2024-02-28T14:40:07.265Z,french_176.wav,0,poule,643,31,4,5,Français,M,4,0.4,-10.39495746,1.71567696
65498af02717744d9946615d,9,0,2024-02-28T14:40:07.265Z,french_176.wav,0,poule,643,31,4,5,Français,M,5,0.5,13.88146309,1.28276813
65498af02717744d9946615d,9,0,2024-02-28T14:40:07.265Z,french_176.wav,0,poule,643,31,4,5,Français,M,6,0.6,18.31316109,1.19506457
65498af02717744d9946615d,9,0,2024-02-28T14:40:07.265Z,french_176.wav,0,poule,643,31,4,5,Français,M,7,0.7,-69.45072477,1.14753905
65498af02717744d9946615d,9,0,2024-02-28T14:40:07.265Z,french_176.wav,0,poule,643,31,4,5,Français,M,8,0.8,-49.21604106,1.86893975
65498af02717744d9946615d,9,0,2024-02-28T14:40:07.265Z,french_176.wav,0,poule,643,31,4,5,Français,M,9,0.9,-57.97216,0.76398554
65498af02717744d9946615d,9,0,2024-02-28T14:40:07.265Z,french_176.wav,0,poule,643,31,4,5,Français,M,10,1.0,70.54547072,1.21135923
65498af02717744d9946615d,9,0,2024-02-28T14:40:07.265Z,french_176.wav,0,poule,643,31,4,5,Français,M,11,1.1,20.83211188,1.97943211
65498af02717744d9946615d,9,0,2024-02-28T14:40:07.265Z,french_176.wav,0,poule,643,31,4,5,Français,M,12,1.14141667,11.47002735,0.36114949
65498af02717744d9946615d,10,0,2024-02-28T14:40:07.265Z,french_449.wav,0,poule,641,31,4,5,Français,M,0,0.0,48.07237211,1.574298
65498af02717744d9946615d,10,0,2024-02-28T14:40:07.265Z,french_449.wav,0,poule,641,31,4,5,Français,M,1,0.1,10.50044698,0.465888
65498af02717744d9946615d,10,0,2024-02-28T14:40:07.265Z,french_449.wav,0,poule,641,31,4,5,Français,M,2,0.2,99.10264915,1.49470087
65498af02717744d9946615d,10,0,2024-02-28T14:40:07.265Z,french_449.wav,0,poule,641,31,4,5,Français,M,3,0.3,44.97033086,1.26780995
65498af02717744d9946615d,10,0,2024-02-28T14:40:07.265Z,french_449.wav,0,poule,641,31,4,5,Français,M,4,0.4,-41.32684653,0.48746737
65498af02717744d9946615d,10,0,2024-02-28T14:40:07.265Z,french_449.wav,0,poule,641,31,4,5,Français,M,5,0.5,-79.7525466,0.73531069
65498af02717744d9946615d,10,0,2024-02-28T14:40:07.265Z,french_449.wav,0,poule,641,31,4,5,Français,M,6,0.6,50.40932694,0.94941626
65498af02717744d9946615d,10,0,2024-02-28T14:40:07.265Z,french_449.wav,0,poule,641,31,4,5,Français,M,7,0.7,52.6193965,1.08611184
65498af02717744d9946615d,10,0,2024-02-28T14:40:07.265Z,french_449.wav,0,poule,641,31,4,5,Français,M,8,0.8,-15.31474709,0.81949253
65498af02717744d9946615d,10,0,2024-02-28T14:40:07.265Z,french_449.wav,0,poule,641,31,4,5,Français,M,9,0.9,-28.04173939,1.27162102
65498af02717744d9946615d,10,0,2024-02-28T14:40:07.265Z,french_449.wav,0,poule,641,31,4,5,Français,M,10,1.0,9.78914311,1.38692301
65498af02717744d9946615d,10,0,2024-02-28T14:40:07.265Z,french_449.wav,0,poule,641,31,4,5,Français,M,11,1.1,-78.00931625,0.89469579
65498af02717744d9946615d,10,0,2024-02-28T14:40:07.265Z,french_449.wav,0,poule,641,31,4,5,Français,M,12,1.14141667,-11.66917093,1.6806745
65498af02717744d9946615d,11,0,2024-02-28T14:40:07.265Z,french_665.wav,0,pull,591,31,4,5,Français,M,0,0.0,40.10949249,1.54602454
65498af02717744d9946615d,11,0,2024-02-28T14:40:07.265Z,french_665.wav,0,pull,591,31,4,5,Français,M,1,0.1,-62.11772623,0.85820789
65498af02717744d9946615d,11,0,2024-02-28T14:40:07.265Z,french_665.wav,0,pull,591,31,4,5,Français,M,2,0.2,10.37983959,1.54593526
65498af02717744d9946615d,11,0,2024-02-28T14:40:07.265Z,french_665.wav,0,pull,591,31,4,5,Français,M,3,0.3,-90.96267468,1.66779558
65498af02717744d9946615d,11,0,2024-02-28T14:40:07.265Z,french_665.wav,0,pull,591,31,4,5,Français,M,4,0.4,-82.59415996,1.76178738
65498af02717744d9946615d,11,0,2024-02-28T14:40:07.265Z,french_665.wav,0,pull,591,31,4,5,Français,M,5,0.5,72.10201259,0.44098313
65498af02717744d9946615d,11,0,2024-02-28T14:40:07.265Z,french_665.wav,0,pull,591,31,4,5,Français,M,6,0.6,7.07517584,1.49710418
65498af02717744d9946615d,11,0,2024-02-28T14:40:07.265Z,french_665.wav,0,pull,591,31,4,5,Français,M,7,0.7,17.81948605,1.04266642
65498af02717744d9946615d,11,0,2024-02-28T14:40:07.265Z,french_665.wav,0,pull,591,31,4,5,Français,M,8,0.8,-75.16725794,1.09545449
65498af02717744d9946615d,11,0,2024-02-28T14:40:07.265Z,french_665.wav,0,pull,591,31,4,5,Français,M,9,0.9,86.62263138,0.00262512
65498af02717744d9946615d,11,0,2024-02-28T14:40:07.265Z,french_665.wav,0,pull,591,31,4,5,Français,M,10,1.0,-39.56803586,1.93103182
65498af02717744d9946615d,11,0,2024-02-28T14:40:07.265Z,french_665.wav,0,pull,591,31,4,5,Français,M,11,1.1,-92.62860056,1.53232008
65498af02717744d9946615d,11,0,2024-02-28T14:40:07.265Z,french_665.wav,0,pull,591,31,4,5,Français,M,12,1.14141667,37.86117833,1.33107791
65498af02717744d9946615d,12,0,2024-02-28T14:40:07.265Z,french_470.wav,0,poule,1378,31,4,5,Français,M,0,0.0,-35.19014481,1.94208233
65498af02717744d9946615d,12,0,2024-02-28T14:40:07.265Z,french_470.wav,0,poule,1378,31,4,5,Français,M,1,0.1,-11.1101007,1.24726807
65498af02717744d9946615d,12,0,2024-02-28T14:40:07.265Z,french_470.wav,0,poule,1378,31,4,5,Français,M,2,0.2,-73.86570158,1.04117415
65498af02717744d9946615d,12,0,2024-02-28T14:40:07.265Z,french_470.wav,0,poule,1378,31,4,5,Français,M,3,0.3,-1.44470238,1.14948121
65498af02717744d9946615d,12,0,2024-02-28T14:40:07.265Z,french_470.wav,0,poule,1378,31,4,5,Français,M,4,0.4,-96.07839084,0.66081228
65498af02717744d9946615d,12,0,2024-02-28T14:40:07.265Z,french_470.wav,0,poule,1378,31,4,5,Français,M,5,0.5,70.99649813,0.84071929
65498af02717744d9946615d,12,0,2024-02-28T14:40:07.265Z,french_470.wav,0,poule,1378,31,4,5,Français,M,6,0.6,55.77361877,1.10459164
65498af02717744d9946615d,12,0,2024-02-28T14:40:07.265Z,french_470.wav,0,poule,1378,31,4,5,Français,M,7,0.7,-22.19728159,0.42902866
65498af02717744d9946615d,12,0,2024-02-28T14:40:07.265Z,french_470.wav,0,poule,1378,31,4,5,Français,M,8,0.8,-72.44437958,1.72163831
65498af02717744d9946615d,12,0,2024-02-28T14:40:07.265Z,french_470.wav,0,poule,1378,31,4,5,Français,M,9,0.9,80.41886886,1.68101907
65498af02717744d9946615d,12,0,2024-02-28T14:40:07.265Z,french_470.wav,0,poule,1378,31,4,5,Français,M,10,1.0,-11.71477961,0.03811178
65498af02717744d9946615d,12,0,2024-02-28T14:40:07.265Z,french_470.wav,0,poule,1378,31,4,5,Français,M,11,1.1,-62.42849441,1.9717108
65498af02717744d9946615d,12,0,2024-02-28T14:40:07.265Z,french_470.wav,0,poule,1378,31,4,5,Français,M,12,1.14141667,98.36646491,0.38277799
65498af02717744d9946615d,13,0,2024-02-28T14:40:07.265Z,french_305.wav,0,pull,483,31,4,5,Français,M,0,0.0,-77.20906853,1.73587013
65498af02717744d9946615d,13,0,2024-02-28T14:40:07.265Z,french_305.wav,0,pull,483,31,4,5,Français,M,1,0.1,64.89199308,0.77294131
65498af02717744d9946615d,13,0,2024-02-28T14:40:07.265Z,french_305.wav,0,pull,483,31,4,5,Français,M,2,0.2,7.69054885,0.32837419
65498af02717744d9946615d,13,0,2024-02-28T14:40:07.265Z,french_305.wav,0,pull,483,31,4,5,Français,M,3,0.3,-47.6141874,1.19216591
65498af02717744d9946615d,13,0,2024-02-28T14:40:07.265Z,french_305.wav,0,pull,483,31,4,5,Français,M,4,0.4,24.82339494,0.80149681
65498af02717744d9946615d,13,0,2024-02-28T14:40:07.265Z,french_305.wav,0,pull,483,31,4,5,Français,M,5,0.5,20.18926417,0.39729394
65498af02717744d9946615d,13,0,2024-02-28T14:40:07.265Z,french_305.wav,0,pull,483,31,4,5,Français,M,6,0.6,-54.4743451,0.54085328
65498af02717744d9946615d,13,0,2024-02-28T14:40:07.265Z,french_305.wav,0,pull,483,31,4,5,Français,M,7,0.7,41.07397409,0.8068405
65498af02717744d9946615d,13,0,2024-02-28T14:40:07.265Z,french_305.wav,0,pull,483,31,4,5,Français,M,8,0.8,-19.05084731,1.23639766
65498af02717744d9946615d,13,0,2024-02-28T14:40:07.265Z,french_305.wav,0,pull,483,31,4,5,Français,M,9,0.9,-20.13915126,0.28852647
65498af02717744d9946615d,13,0,2024-02-28T14:40:07.265Z,french_305.wav,0,pull,483,31,4,5,Français,M,10,1.0,-3.97340908,1.66872212
65498af02717744d9946615d,13,0,2024-02-28T14:40:07.265Z,french_305.wav,0,pull,483,31,4,5,Français,M,11,1.1,88.43102232,1.65649633
65498af02717744d9946615d,13,0,2024-02-28T14:40:07.265Z,french_305.wav,0,pull,483,31,4,5,Français,M,12,1.14141667,5.13824531,1.61177863
65498af02717744d9946615d,14,0,2024-02-28T14:40:07.265Z,french_947.wav,0,poule,402,31,4,5,Français,M,0,0.0,74.11181953,0.64731536
65498af02717744d9946615d,14,0,2024-02-28T14:40:07.265Z,french_947.wav,0,poule,402,31,4,5,Français,M,1,0.1,77.13369973,1.23227619
65498af02717744d9946615d,14,0,2024-02-28T14:40:07.265Z,french_947.wav,0,poule,402,31,4,5,Français,M,2,0.2,88.17713228,1.55440327
65498af02717744d9946615d,14,0,2024-02-28T14:40:07.265Z,french_947.wav,0,poule,402,31,4,5,Français,M,3,0.3,-23.55252616,1.09655338
65498af02717744d9946615d,14,0,2024-02-28T14:40:07.265Z,french_947.wav,0,poule,402,31,4,5,Français,M,4,0.4,29.65801923,0.55037335
65498af02717744d9946615d,14,0,2024-02-28T14:40:07.265Z,french_947.wav,0,poule,402,31,4,5,Français,M,5,0.5,-69.01848253,1.05019014
65498af02717744d9946615d,14,0,2024-02-28T14:40:07.265Z,french_947.wav,0,poule,402,31,4,5,Français,M,6,0.6,-28.7020507,1.09970152
65498af02717744d9946615d,14,0,2024-02-28T14:40:07.265Z,french_947.wav,0,poule,402,31,4,5,Français,M,7,0.7,-92.17619984,0.0368249
65498af02717744d9946615d,14,0,2024-02-28T14:40:07.265Z,french_947.wav,0,poule,402,31,4,5,Français,M,8,0.8,-36.30210181,1.66906697
65498af02717744d9946615d,14,0,2024-02-28T14:40:07.265Z,french_947.wav,0,poule,402,31,4,5,Français,M,9,0.9,21.44134056,1.08042493
65498af02717744d9946615d,14,0,2024-02-28T14:40:07.265Z,french_947.wav,0,poule,402,31,4,5,Français,M,10,1.0,-89.45827175,1.58321133
65498af02717744d9946615d,14,0,2024-02-28T14:40:07.265Z,french_947.wav,0,poule,402,31,4,5,Français,M,11,1.1,-96.98494763,0.55777652
65498af02717744d9946615d,14,0,2024-02-28T14:40:07.265Z,french_947.wav,0,poule,402,31,4,5,Français,M,12,1.14141667,-8.8786906,0.9557999
65498af02717744d9946615d,15,0,2024-02-28T14:40:07.265Z,french_481.wav,0,pull,1152,31,4,5,Français,M,0,0.0,-72.69871862,1.31481161
65498af02717744d9946615d,15,0,2024-02-28T14:40:07.265Z,french_481.wav,0,pull,1152,31,4,5,Français,M,1,0.1,-16.04832948,0.5303762
65498af02717744d9946615d,15,0,2024-02-28T14:40:07.265Z,french_481.wav,0,pull,1152,31,4,5,Français,M,2,0.2,20.92273095,1.66790615
65498af02717744d9946615d,15,0,2024-02-28T14:40:07.265Z,french_481.wav,0,pull,1152,31,4,5,Français,M,3,0.3,-7.90583134,0.3235164
65498af02717744d9946615d,15,0,2024-02-28T14:40:07.265Z,french_481.wav,0,pull,1152,31,4,5,Français,M,4,0.4,52.2185679,1.59315775
65498af02717744d9946615d,15,0,2024-02-28T14:40:07.265Z,french_481.wav,0,pull,1152,31,4,5,Français,M,5,0.5,54.85723666,0.96721806
65498af02717744d9946615d,15,0,2024-02-28T14:40:07.265Z,french_481.wav,0,pull,1152,31,4,5,Français,M,6,0.6,53.33669569,0.14181203
65498af02717744d9946615d,15,0,2024-02-28T14:40:07.265Z,french_481.wav,0,pull,1152,31,4,5,Français,M,7,0.7,-25.554879,0.99100706
65498af02717744d9946615d,15,0,2024-02-28T14:40:07.265Z,french_481.wav,0,pull,1152,31,4,5,Français,M,8,0.8,64.63573473,1.71926809
65498af02717744d9946615d,15,0,2024-02-28T14:40:07.265Z,french_481.wav,0,pull,1152,31,4,5,Français,M,9,0.9,36.81770312,1.97300287
65498af02717744d9946615d,15,0,2024-02-28T14:40:07.265Z,french_481.wav,0,pull,1152,31,4,5,Français,M,10,1.0,49.7946958,1.34955358
65498af02717744d9946615d,15,0,2024-02-28T14:40:07.265Z,french_481.wav,0,pull,1152,31,4,5,Français,M,11,1.1,-12.06960957,0.58588856
65498af02717744d9946615d,15,0,2024-02-28T14:40:07.265Z,french_481.wav,0,pull,1152,31,4,5,Français,M,12,1.14141667,12.77262901,1.02126832
65498af02717744d9946615d,16,0,2024-02-28T14:40:07.265Z,french_656.wav,0,poule,407,31,4,5,Français,M,0,0.0,99.97670879,0.59239102
65498af02717744d9946615d,16,0,2024-02-28T14:40:07.265Z,french_656.wav,0,poule,407,31,4,5,Français,M,1,0.1,13.13237691,0.22261498
65498af02717744d9946615d,16,0,2024-02-28T14:40:07.265Z,french_656.wav,0,poule,407,31,4,5,Français,M,2,0.2,-29.82427587,0.70596369
65498af02717744d9946615d,16,0,2024-02-28T14:40:07.265Z,french_656.wav,0,poule,407,31,4,5,Français,M,3,0.3,-97.19078199,0.83357548
65498af02717744d9946615d,16,0,2024-02-28T14:40:07.265Z,french_656.wav,0,poule,407,31,4,5,Français,M,4,0.4,16.61433788,1.93544912
65498af02717744d9946615d,16,0,2024-02-28T14:40:07.265Z,french_656.wav,0,poule,407,31,4,5,Français,M,5,0.5,-11.63206152,0.95748116
65498af02717744d9946615d,16,0,2024-02-28T14:40:07.265Z,french_656.wav,0,poule,407,31,4,5,Français,M,6,0.6,44.22844334,0.57513986
65498af02717744d9946615d,16,0,2024-02-28T14:40:07.265Z,french_656.wav,0,poule,407,31,4,5,Français,M,7,0.7,-21.12174608,0.75814333
65498af02717744d9946615d,16,0,2024-02-28T14:40:07.265Z,french_656.wav,0,poule,407,31,4,5,Français,M,8,0.8,94.81438705,1.21721037
65498af02717744d9946615d,16,0,2024-02-28T14:40:07.265Z,french_656.wav,0,poule,407,31,4,5,Français,M,9,0.9,-76.66102524,0.36719178
65498af02717744d9946615d,16,0,2024-02-28T14:40:07.265Z,french_656.wav,0,poule,407,31,4,5,Français,M,10,1.0,-7.93989674,1.2783526
65498af02717744d9946615d,16,0,2024-02-28T14:40:07.265Z,french_656.wav,0,poule,407,31,4,5,Français,M,11,1.1,30.36688089,0.57717313
65498af02717744d9946615d,16,0,2024-02-28T14:40:07.265Z,french_656.wav,0,poule,407,31,4,5,Français,M,12,1.14141667,-7.90018331,1.25999286
65498af02717744d9946615d,17,0,2024-02-28T14:40:07.265Z,french_862.wav,0,poule,608,31,4,5,Français,M,0,0.0,-14.63662445,0.11578422
65498af02717744d9946615d,17,0,2024-02-28T14:40:07.265Z,french_862.wav,0,poule,608,31,4,5,Français,M,1,0.1,28.45864879,0.2814116
65498af02717744d9946615d,17,0,2024-02-28T14:40:07.265Z,french_862.wav,0,poule,608,31,4,5,Français,M,2,0.2,-0.68000434,0.85291147
65498af02717744d9946615d,17,0,2024-02-28T14:40:07.265Z,french_862.wav,0,poule,608,31,4,5,Français,M,3,0.3,-26.73602813,1.69973262
65498af02717744d9946615d,17,0,2024-02-28T14:40:07.265Z,french_862.wav,0,poule,608,31,4,5,Français,M,4,0.4,-7.71050008,1.01442459
65498af02717744d9946615d,17,0,2024-02-28T14:40:07.265Z,french_862.wav,0,poule,608,31,4,5,Français,M,5,0.5,33.14788708,1.55366455
65498af02717744d9946615d,17,0,2024-02-28T14:40:07.265Z,french_862.wav,0,poule,608,31,4,5,Français,M,6,0.6,78.18456635,0.0771969
65498af02717744d9946615d,17,0,2024-02-28T14:40:07.265Z,french_862.wav,0,poule,608,31,4,5,Français,M,7,0.7,24.14901592,1.35224055
65498af02717744d9946615d,17,0,2024-02-28T14:40:07.265Z,french_862.wav,0,poule,608,31,4,5,Français,M,8,0.8,45.35031598,0.5357761
65498af02717744d9946615d,17,0,2024-02-28T14:40:07.265Z,french_862.wav,0,poule,608,31,4,5,Français,M,9,0.9,65.59077206,0.6562808
65498af02717744d9946615d,17,0,2024-02-28T14:40:07.265Z,french_862.wav,0,poule,608,31,4,5,Français,M,10,1.0,11.68649512,0.44961624
65498af02717744d9946615d,17,0,2024-02-28T14:40:07.265Z,french_862.wav,0,poule,608,31,4,5,Français,M,11,1.1,25.97419467,0.01039806
65498af02717744d9946615d,17,0,2024-02-28T14:40:07.265Z,french_862.wav,0,poule,608,31,4,5,Français,M,12,1.14141667,-65.02919288,0.96489683
65498af02717744d9946615d,18,0,2024-02-28T14:40:07.265Z,french_891.wav,0,poule,389,31,4,5,Français,M,0,0.0,-99.04712605,1.87208337
65498af02717744d9946615d,18,0,2024-02-28T14:40:07.265Z,french_891.wav,0,poule,389,31,4,5,Français,M,1,0.1,17.3799724,1.3828509
65498af02717744d9946615d,18,0,2024-02-28T14:40:07.265Z,french_891.wav,0,poule,389,31,4,5,Français,M,2,0.2,-1.30355006,1.47231184
65498af02717744d9946615d,18,0,2024-02-28T14:40:07.265Z,french_891.wav,0,poule,389,31,4,5,Français,M,3,0.3,11.66108417,1.45618748
65498af02717744d9946615d,18,0,2024-02-28T14:40:07.265Z,french_891.wav,0,poule,389,31,4,5,Français,M,4,0.4,6.35761676,1.81540908
65498af02717744d9946615d,18,0,2024-02-28T14:40:07.265Z,french_891.wav,0,poule,389,31,4,5,Français,M,5,0.5,-71.86971473,0.63041518
65498af02717744d9946615d,18,0,2024-02-28T14:40:07.265Z,french_891.wav,0,poule,389,31,4,5,Français,M,6,0.6,20.94588527,0.92124801
65498af02717744d9946615d,18,0,2024-02-28T14:40:07.265Z,french_891.wav,0,poule,389,31,4,5,Français,M,7,0.7,-13.59137079,0.65821591
65498af02717744d9946615d,18,0,2024-02-28T14:40:07.265Z,french_891.wav,0,poule,389,31,4,5,Français,M,8,0.8,62.37473981,0.6468689
65498af02717744d9946615d,18,0,2024-02-28T14:40:07.265Z,french_891.wav,0,poule,389,31,4,5,Français,M,9,0.9,64.47380957,0.86634815
65498af02717744d9946615d,18,0,2024-02-28T14:40:07.265Z,french_891.wav,0,poule,389,31,4,5,Français,M,10,1.0,-7.95126825,0.44006572
65498af02717744d9946615d,18,0,2024-02-28T14:40:07.265Z,french_891.wav,0,poule,389,31,4,5,Français,M,11,1.1,-34.88253316,1.52894565
65498af02717744d9946615d,18,0,2024-02-28T14:40:07.265Z,french_891.wav,0,poule,389,31,4,5,Français,M,12,1.14141667,95.31191198,0.84584339
65498af02717744d9946615d,19,0,2024-02-28T14:40:07.265Z,french_36.wav,0,pull,1496,31,4,5,Français,M,0,0.0,-11.07319695,0.23275599
65498af02717744d9946615d,19,0,2024-02-28T14:40:07.265Z,french_36.wav,0,pull,1496,31,4,5,Français,M,1,0.1,-25.71224467,1.71731214
65498af02717744d9946615d,19,0,2024-02-28T14:40:07.265Z,french_36.wav,0,pull,1496,31,4,5,Français,M,2,0.2,-96.57480527,0.39984068
65498af02717744d9946615d,19,0,2024-02-28T14:40:07.265Z,french_36.wav,0,pull,1496,31,4,5,Français,M,3,0.3,93.32142105,0.82158745
65498af02717744d9946615d,19,0,2024-02-28T14:40:07.265Z,french_36.wav,0,pull,1496,31,4,5,Français,M,4,0.4,17.7749858,1.37135508
65498af02717744d9946615d,19,0,2024-02-28T14:40:07.265Z,french_36.wav,0,pull,1496,31,4,5,Français,M,5,0.5,-73.30096507,1.36933286
65498af02717744d9946615d,19,0,2024-02-28T14:40:07.265Z,french_36.wav,0,pull,1496,31,4,5,Français,M,6,0.6,-46.23339782,0.23667526
65498af02717744d9946615d,19,0,2024-02-28T14:40:07.265Z,french_36.wav,0,pull,1496,31,4,5,Français,M,7,0.7,-83.63624017,0.96954284
65498af02717744d9946615d,19,0,2024-02-28T14:40:07.265Z,french_36.wav,0,pull,1496,31,4,5,Français,M,8,0.8,-33.60594302,1.15800278
65498af02717744d9946615d,19,0,2024-02-28T14:40:07.265Z,french_36.wav,0,pull,1496,31,4,5,Français,M,9,0.9,8.42036978,1.66574798
65498af02717744d9946615d,19,0,2024-02-28T14:40:07.265Z,french_36.wav,0,pull,1496,31,4,5,Français,M,10,1.0,36.75587817,1.99186971
65498af02717744d9946615d,19,0,2024-02-28T14:40:07.265Z,french_36.wav,0,pull,1496,31,4,5,Français,M,11,1.1,-32.43019278,1.21078933
65498af02717744d9946615d,19,0,2024-02-28T14:40:07.265Z,french_36.wav,0,pull,1496,31,4,5,Français,M,12,1.14141667,30.15808511,1.78246496
65498af02717744d9946615d,20,0,2024-02-28T14:40:07.265Z,french_46.wav,0,poule,350,31,4,5,Français,M,0,0.0,99.81614434,1.0866831
65498af02717744d9946615d,20,0,2024-02-28T14:40:07.265Z,french_46.wav,0,poule,350,31,4,5,Français,M,1,0.1,-48.37285262,1.95885299
65498af02717744d9946615d,20,0,2024-02-28T14:40:07.265Z,french_46.wav,0,poule,350,31,4,5,Français,M,2,0.2,-15.289429,1.4446691
65498af02717744d9946615d,20,0,2024-02-28T14:40:07.265Z,french_46.wav,0,poule,350,31,4,5,Français,M,3,0.3,-32.07575043,0.38447547
65498af02717744d9946615d,20,0,2024-02-28T14:40:07.265Z,french_46.wav,0,poule,350,31,4,5,Français,M,4,0.4,40.1498227,1.15577076
65498af02717744d9946615d,20,0,2024-02-28T14:40:07.265Z,french_46.wav,0,poule,350,31,4,5,Français,M,5,0.5,-84.01004503,0.29139366
65498af02717744d9946615d,20,0,2024-02-28T14:40:07.265Z,french_46.wav,0,poule,350,31,4,5,Français,M,6,0.6,93.21658911,1.72530213
65498af02717744d9946615d,20,0,2024-02-28T14:40:07.265Z,french_46.wav,0,poule,350,31,4,5,Français,M,7,0.7,4.91881419,1.52355964
65498af02717744d9946615d,20,0,2024-02-28T14:40:07.265Z,french_46.wav,0,poule,350,31,4,5,Français,M,8,0.8,57.5716667,0.25788511
65498af02717744d9946615d,20,0,2024-02-28T14:40:07.265Z,french_46.wav,0,poule,350,31,4,5,Français,M,9,0.9,42.88371802,1.60513185
65498af02717744d9946615d,20,0,2024-02-28T14:40:07.265Z,french_46.wav,0,poule,350,31,4,5,Français,M,10,1.0,-86.43270606,0.1017556
65498af02717744d9946615d,20,0,2024-02-28T14:40:07.265Z,french_46.wav,0,poule,350,31,4,5,Français,M,11,1.1,91.49267578,1.36747558
65498af02717744d9946615d,20,0,2024-02-28T14:40:07.265Z,french_46.wav,0,poule,350,31,4,5,Français,M,12,1.14141667,-10.51058417,0.66277577
65498af02717744d9946615d,21,0,2024-02-28T14:40:07.265Z,french_569.wav,0,poule,424,31,4,5,Français,M,0,0.0,40.60139036,1.33844242
65498af02717744d9946615d,21,0,2024-02-28T14:40:07.265Z,french_569.wav,0,poule,424,31,4,5,Français,M,1,0.1,-15.15147128,1.76501112
65498af02717744d9946615d,21,0,2024-02-28T14:40:07.265Z,french_569.wav,0,poule,424,31,4,5,Français,M,2,0.2,-0.95888134,0.94211994
65498af02717744d9946615d,21,0,2024-02-28T14:40:07.265Z,french_569.wav,0,poule,424,31,4,5,Français,M,3,0.3,44.12601478,0.15427666
65498af02717744d9946615d,21,0,2024-02-28T14:40:07.265Z,french_569.wav,0,poule,424,31,4,5,Français,M,4,0.4,-57.82031804,1.07164182
65498af02717744d9946615d,21,0,2024-02-28T14:40:07.265Z,french_569.wav,0,poule,424,31,4,5,Français,M,5,0.5,64.27680708,1.5909132
65498af02717744d9946615d,21,0,2024-02-28T14:40:07.265Z,french_569.wav,0,poule,424,31,4,5,Français,M,6,0.6,-63.61731308,1.21963001
65498af02717744d9946615d,21,0,2024-02-28T14:40:07.265Z,french_569.wav,0,poule,424,31,4,5,Français,M,7,0.7,77.98248538,0.17925278
65498af02717744d9946615d,21,0,2024-02-28T14:40:07.265Z,french_569.wav,0,poule,424,31,4,5,Français,M,8,0.8,-85.02373468,1.54369257
65498af02717744d9946615d,21,0,2024-02-28T14:40:07.265Z,french_569.wav,0,poule,424,31,4,5,Français,M,9,0.9,23.7771992,1.35763688
65498af02717744d9946615d,21,0,2024-02-28T14:40:07.265Z,french_569.wav,0,poule,424,31,4,5,Français,M,10,1.0,61.80066761,1.46111522
65498af02717744d9946615d,21,0,2024-02-28T14:40:07.265Z,french_569.wav,0,poule,424,31,4,5,Français,M,11,1.1,-41.94387,0.95375882
65498af02717744d9946615d,21,0,2024-02-28T14:40:07.265Z,french_569.wav,0,poule,424,31,4,5,Français,M,12,1.14141667,60.59433976,0.23927558
65498af02717744d9946615d,22,0,2024-02-28T14:40:07.265Z,french_719.wav,0,pull,2886,31,4,5,Français,M,0,0.0,28.87558688,0.04017745
65498af02717744d9946615d,22,0,2024-02-28T14:40:07.265Z,french_719.wav,0,pull,2886,31,4,5,Français,M,1,0.1,-77.56778475,0.4685392
65498af02717744d9946615d,22,0,2024-02-28T14:40:07.265Z,french_719.wav,0,pull,2886,31,4,5,Français,M,2,0.2,-78.17645142,0.7614239
65498af02717744d9946615d,22,0,2024-02-28T14:40:07.265Z,french_719.wav,0,pull,2886,31,4,5,Français,M,3,0.3,-31.03424709,0.57429914
65498af02717744d9946615d,22,0,2024-02-28T14:40:07.265Z,french_719.wav,0,pull,2886,31,4,5,Français,M,4,0.4,-68.16265858,0.41797793
65498af02717744d9946615d,22,0,2024-02-28T14:40:07.265Z,french_719.wav,0,pull,2886,31,4,5,Français,M,5,0.5,64.36302735,1.2264158
65498af02717744d9946615d,22,0,2024-02-28T14:40:07.265Z,french_719.wav,0,pull,2886,31,4,5,Français,M,6,0.6,-6.36500349,0.08195012
65498af02717744d9946615d,22,0,2024-02-28T14:40:07.265Z,french_719.wav,0,pull,2886,31,4,5,Français,M,7,0.7,-85.5800648,0.06647283
65498af02717744d9946615d,22,0,2024-02-28T14:40:07.265Z,french_719.wav,0,pull,2886,31,4,5,Français,M,8,0.8,-50.52981857,0.36082267
65498af02717744d9946615d,22,0,2024-02-28T14:40:07.265Z,french_719.wav,0,pull,2886,31,4,5,Français,M,9,0.9,-69.15152335,0.47322342
65498af02717744d9946615d,22,0,2024-02-28T14:40:07.265Z,french_719.wav,0,pull,2886,31,4,5,Français,M,10,1.0,52.64793667,0.67970515
65498af02717744d9946615d,22,0,2024-02-28T14:40:07.265Z,french_719.wav,0,pull,2886,31,4,5,Français,M,11,1.1,63.66525963,1.71506737
65498af02717744d9946615d,22,0,2024-02-28T14:40:07.265Z,french_719.wav,0,pull,2886,31,4,5,Français,M,12,1.14141667,-91.53134556,1.03851815
65498af02717744d9946615d,23,0,2024-02-28T14:40:07.265Z,french_471.wav,0,poule,369,31,4,5,Français,M,0,0.0,41.83391715,1.67349399
65498af02717744d9946615d,23,0,2024-02-28T14:40:07.265Z,french_471.wav,0,poule,369,31,4,5,Français,M,1,0.1,-76.96843168,0.59594788
65498af02717744d9946615d,23,0,2024-02-28T14:40:07.265Z,french_471.wav,0,poule,369,31,4,5,Français,M,2,0.2,-8.95205146,0.21651802
65498af02717744d9946615d,23,0,2024-02-28T14:40:07.265Z,french_471.wav,0,poule,369,31,4,5,Français,M,3,0.3,23.54279346,1.46166629
65498af02717744d9946615d,23,0,2024-02-28T14:40:07.265Z,french_471.wav,0,poule,369,31,4,5,Français,M,4,0.4,-15.91458067,0.64159162
65498af02717744d9946615d,23,0,2024-02-28T14:40:07.265Z,french_471.wav,0,poule,369,31,4,5,Français,M,5,0.5,-62.29566062,1.70672832
65498af02717744d9946615d,23,0,2024-02-28T14:40:07.265Z,french_471.wav,0,poule,369,31,4,5,Français,M,6,0.6,-10.03907701,1.06314921
65498af02717744d9946615d,23,0,2024-02-28T14:40:07.265Z,french_471.wav,0,poule,369,31,4,5,Français,M,7,0.7,28.86778795,0.77270182
65498af02717744d9946615d,23,0,2024-02-28T14:40:07.265Z,french_471.wav,0,poule,369,31,4,5,Français,M,8,0.8,41.41175946,1.60583208
65498af02717744d9946615d,23,0,2024-02-28T14:40:07.265Z,french_471.wav,0,poule,369,31,4,5,Français,M,9,0.9,-29.16663325,0.6103897
65498af02717744d9946615d,23,0,2024-02-28T14:40:07.265Z,french_471.wav,0,poule,369,31,4,5,Français,M,10,1.0,-67.59158679,1.4211614
65498af02717744d9946615d,23,0,2024-02-28T14:40:07.265Z,french_471.wav,0,poule,369,31,4,5,Français,M,11,1.1,-87.94197707,0.92479557
65498af02717744d9946615d,23,0,2024-02-28T14:40:07.265Z,french_471.wav,0,poule,369,31,4,5,Français,M,12,1.14141667,-62.10245378,0.63214451
65498af02717744d9946615d,24,0,2024-02-28T14:40:07.265Z,french_288.wav,0,poule,799,31,4,5,Français,M,0,0.0,-19.66271306,0.77463997
65498af02717744d9946615d,24,0,2024-02-28T14:40:07.265Z,french_288.wav,0,poule,799,31,4,5,Français,M,1,0.1,-49.95319108,0.15164104
65498af02717744d9946615d,24,0,2024-02-28T14:40:07.265Z,french_288.wav,0,poule,799,31,4,5,Français,M,2,0.2,55.70739253,1.45402293
65498af02717744d9946615d,24,0,2024-02-28T14:40:07.265Z,french_288.wav,0,poule,799,31,4,5,Français,M,3,0.3,-47.82629408,1.49503854
65498af02717744d9946615d,24,0,2024-02-28T14:40:07.265Z,french_288.wav,0,poule,799,31,4,5,Français,M,4,0.4,-30.64427182,0.10701477
65498af02717744d9946615d,24,0,2024-02-28T14:40:07.265Z,french_288.wav,0,poule,799,31,4,5,Français,M,5,0.5,-54.20245769,1.1175781
65498af02717744d9946615d,24,0,2024-02-28T14:40:07.265Z,french_288.wav,0,poule,799,31,4,5,Français,M,6,0.6,94.86326533,0.62210046
65498af02717744d9946615d,24,0,2024-02-28T14:40:07.265Z,french_288.wav,0,poule,799,31,4,5,Français,M,7,0.7,-11.35318876,1.34496978
65498af02717744d9946615d,24,0,2024-02-28T14:40:07.265Z,french_288.wav,0,poule,799,31,4,5,Français,M,8,0.8,-94.65333259,1.0681913
65498af02717744d9946615d,24,0,2024-02-28T14:40:07.265Z,french_288.wav,0,poule,799,31,4,5,Français,M,9,0.9,66.72626026,0.36189635
65498af02717744d9946615d,24,0,2024-02-28T14:40:07.265Z,french_288.wav,0,poule,799,31,4,5,Français,M,10,1.0,-72.10656939,1.98571959
65498af02717744d9946615d,24,0,2024-02-28T14:40:07.265Z,french_288.wav,0,poule,799,31,4,5,Français,M,11,1.1,-87.02340103,1.61383771
65498af02717744d9946615d,24,0,2024-02-28T14:40:07.265Z,french_288.wav,0,poule,799,31,4,5,Français,M,12,1.14141667,-20.80379815,0.2520498
65498af02717744d9946615d,25,0,2024-02-28T14:40:07.265Z,french_996.wav,0,poule,421,31,4,5,Français,M,0,0.0,57.52390769,1.49078278
65498af02717744d9946615d,25,0,2024-02-28T14:40:07.265Z,french_996.wav,0,poule,421,31,4,5,Français,M,1,0.1,28.89954393,1.56353839
65498af02717744d9946615d,25,0,2024-02-28T14:40:07.265Z,french_996.wav,0,poule,421,31,4,5,Français,M,2,0.2,-56.16359269,1.22071433
65498af02717744d9946615d,25,0,2024-02-28T14:40:07.265Z,french_996.wav,0,poule,421,31,4,5,Français,M,3,0.3,99.33257974,1.39398369
65498af02717744d9946615d,25,0,2024-02-28T14:40:07.265Z,french_996.wav,0,poule,421,31,4,5,Français,M,4,0.4,7.55778037,1.76945469
65498af02717744d9946615d,25,0,2024-02-28T14:40:07.265Z,french_996.wav,0,poule,421,31,4,5,Français,M,5,0.5,53.15282026,0.1319849
65498af02717744d9946615d,25,0,2024-02-28T14:40:07.265Z,french_996.wav,0,poule,421,31,4,5,Français,M,6,0.6,-76.68073566,1.12557272
65498af02717744d9946615d,25,0,2024-02-28T14:40:07.265Z,french_996.wav,0,poule,421,31,4,5,Français,M,7,0.7,-18.7129586,0.43863447
65498af02717744d9946615d,25,0,2024-02-28T14:40:07.265Z,french_996.wav,0,poule,421,31,4,5,Français,M,8,0.8,72.85645273,0.54827929
65498af02717744d9946615d,25,0,2024-02-28T14:40:07.265Z,french_996.wav,0,poule,421,31,4,5,Français,M,9,0.9,-89.56078896,0.55787863
65498af02717744d9946615d,25,0,2024-02-28T14:40:07.265Z,french_996.wav,0,poule,421,31,4,5,Français,M,10,1.0,-98.66124278,1.55112453
65498af02717744d9946615d,25,0,2024-02-28T14:40:07.265Z,french_996.wav,0,poule,421,31,4,5,Français,M,11,1.1,30.91972551,0.43338009
65498af02717744d9946615d,25,0,2024-02-28T14:40:07.265Z,french_996.wav,0,poule,421,31,4,5,Français,M,12,1.14141667,73.76139469,1.35718155
65498af02717744d9946615d,26,0,2024-02-28T14:40:07.265Z,french_987.wav,0,poule,357,31,4,5,Français,M,0,0.0,93.34375743,0.73630152
65498af02717744d9946615d,26,0,2024-02-28T14:40:07.265Z,french_987.wav,0,poule,357,31,4,5,Français,M,1,0.1,2.33597737,0.83046349
65498af02717744d9946615d,26,0,2024-02-28T14:40:07.265Z,french_987.wav,0,poule,357,31,4,5,Français,M,2,0.2,-20.41507514,0.92633409
65498af02717744d9946615d,26,0,2024-02-28T14:40:07.265Z,french_987.wav,0,poule,357,31,4,5,Français,M,3,0.3,20.11504777,0.57479289
65498af02717744d9946615d,26,0,2024-02-28T14:40:07.265Z,french_987.wav,0,poule,357,31,4,5,Français,M,4,0.4,-45.44674631,1.77561818
65498af02717744d9946615d,26,0,2024-02-28T14:40:07.265Z,french_987.wav,0,poule,357,31,4,5,Français,M,5,0.5,43.68235221,1.63901309
65498af02717744d9946615d,26,0,2024-02-28T14:40:07.265Z,french_987.wav,0,poule,357,31,4,5,Français,M,6,0.6,45.61538995,1.78979007
65498af02717744d9946615d,26,0,2024-02-28T14:40:07.265Z,french_987.wav,0,poule,357,31,4,5,Français,M,7,0.7,9.26168888,0.34807002
65498af02717744d9946615d,26,0,2024-02-28T14:40:07.265Z,french_987.wav,0,poule,357,31,4,5,Français,M,8,0.8,-81.27003637,0.31053438
65498af02717744d9946615d,26,0,2024-02-28T14:40:07.265Z,french_987.wav,0,poule,357,31,4,5,Français,M,9,0.9,83.67066648,0.87882318
65498af02717744d9946615d,26,0,2024-02-28T14:40:07.265Z,french_987.wav,0,poule,357,31,4,5,Français,M,10,1.0,-82.52176091,0.97272554
65498af02717744d9946615d,26,0,2024-02-28T14:40:07.265Z,french_987.wav,0,poule,357,31,4,5,Français,M,11,1.1,-88.64619633,1.50609738
65498af02717744d9946615d,26,0,2024-02-28T14:40:07.265Z,french_987.wav,0,poule,357,31,4,5,Français,M,12,1.14141667,-23.61840795,0.63259854
65498af02717744d9946615d,27,0,2024-02-28T14:40:07.265Z,french_921.wav,0,poule,1430,31,4,5,Français,M,0,0.0,-22.48407438,0.56788331
65498af02717744d9946615d,27,0,2024-02-28T14:40:07.265Z,french_921.wav,0,poule,1430,31,4,5,Français,M,1,0.1,96.20023213,0.48037084
65498af02717744d9946615d,27,0,2024-02-28T14:40:07.265Z,french_921.wav,0,poule,1430,31,4,5,Français,M,2,0.2,-26.96111018,1.28513603
65498af02717744d9946615d,27,0,2024-02-28T14:40:07.265Z,french_921.wav,0,poule,1430,31,4,5,Français,M,3,0.3,-4.61285821,0.47395862
65498af02717744d9946615d,27,0,2024-02-28T14:40:07.265Z,french_921.wav,0,poule,1430,31,4,5,Français,M,4,0.4,-41.60418228,1.80498459
65498af02717744d9946615d,27,0,2024-02-28T14:40:07.265Z,french_921.wav,0,poule,1430,31,4,5,Français,M,5,0.5,16.2616983,1.788566
65498af02717744d9946615d,27,0,2024-02-28T14:40:07.265Z,french_921.wav,0,poule,1430,31,4,5,Français,M,6,0.6,40.35336686,0.45002982
65498af02717744d9946615d,27,0,2024-02-28T14:40:07.265Z,french_921.wav,0,poule,1430,31,4,5,Français,M,7,0.7,-44.63732317,0.17970155
65498af02717744d9946615d,27,0,2024-02-28T14:40:07.265Z,french_921.wav,0,poule,1430,31,4,5,Français,M,8,0.8,58.4442517,0.55049439
65498af02717744d9946615d,27,0,2024-02-28T14:40:07.265Z,french_921.wav,0,poule,1430,31,4,5,Français,M,9,0.9,9.84257376,0.16897134
65498af02717744d9946615d,27,0,2024-02-28T14:40:07.265Z,french_921.wav,0,poule,1430,31,4,5,Français,M,10,1.0,41.47094552,0.81111626
65498af02717744d9946615d,27,0,2024-02-28T14:40:07.265Z,french_921.wav,0,poule,1430,31,4,5,Français,M,11,1.1,-30.9925565,1.40036405
65498af02717744d9946615d,27,0,2024-02-28T14:40:07.265Z,french_921.wav,0,poule,1430,31,4,5,Français,M,12,1.14141667,23.41632399,1.37522971
65498af02717744d9946615d,28,0,2024-02-28T14:40:07.265Z,french_440.wav,0,poule,1359,31,4,5,Français,M,0,0.0,74.67435377,1.69175495
65498af02717744d9946615d,28,0,2024-02-28T14:40:07.265Z,french_440.wav,0,poule,1359,31,4,5,Français,M,1,0.1,-9.93699387,0.40086311
65498af02717744d9946615d,28,0,2024-02-28T14:40:07.265Z,french_440.wav,0,poule,1359,31,4,5,Français,M,2,0.2,4.2378765,0.64184517
65498af02717744d9946615d,28,0,2024-02-28T14:40:07.265Z,french_440.wav,0,poule,1359,31,4,5,Français,M,3,0.3,39.99279178,0.63810569
65498af02717744d9946615d,28,0,2024-02-28T14:40:07.265Z,french_440.wav,0,poule,1359,31,4,5,Français,M,4,0.4,52.39402187,0.03075419
65498af02717744d9946615d,28,0,2024-02-28T14:40:07.265Z,french_440.wav,0,poule,1359,31,4,5,Français,M,5,0.5,44.85460842,0.47334738
65498af02717744d9946615d,28,0,2024-02-28T14:40:07.265Z,french_440.wav,0,poule,1359,31,4,5,Français,M,6,0.6,-21.96766976,0.2143105
65498af02717744d9946615d,28,0,2024-02-28T14:40:07.265Z,french_440.wav,0,poule,1359,31,4,5,Français,M,7,0.7,-91.32953256,0.75784364
65498af02717744d9946615d,28,0,2024-02-28T14:40:07.265Z,french_440.wav,0,poule,1359,31,4,5,Français,M,8,0.8,-6.7073332,0.24871467
65498af02717744d9946615d,28,0,2024-02-28T14:40:07.265Z,french_440.wav,0,poule,1359,31,4,5,Français,M,9,0.9,-27.08364703,1.11475223
65498af02717744d9946615d,28,0,2024-02-28T14:40:07.265Z,french_440.wav,0,poule,1359,31,4,5,Français,M,10,1.0,20.93648074,1.23612144
65498af02717744d9946615d,28,0,2024-02-28T14:40:07.265Z,french_440.wav,0,poule,1359,31,4,5,Français,M,11,1.1,-98.00545996,0.77567879
65498af02717744d9946615d,28,0,2024-02-28T14:40:07.265Z,french_440.wav,0,poule,1359,31,4,5,Français,M,12,1.14141667,10.88840881,1.24313348
65498af02717744d9946615d,29,0,2024-02-28T14:40:07.265Z,french_919.wav,0,poule,751,31,4,5,Français,M,0,0.0,-1.20086157,1.82372542
65498af02717744d9946615d,29,0,2024-02-28T14:40:07.265Z,french_919.wav,0,poule,751,31,4,5,Français,M,1,0.1,23.70683085,1.2747469
65498af02717744d9946615d,29,0,2024-02-28T14:40:07.265Z,french_919.wav,0,poule,751,31,4,5,Français,M,2,0.2,57.81380223,1.5717064
65498af02717744d9946615d,29,0,2024-02-28T14:40:07.265Z,french_919.wav,0,poule,751,31,4,5,Français,M,3,0.3,-35.3373876,0.75801577
65498af02717744d9946615d,29,0,2024-02-28T14:40:07.265Z,french_919.wav,0,poule,751,31,4,5,Français,M,4,0.4,-47.40127712,0.41520743
65498af02717744d9946615d,29,0,2024-02-28T14:40:07.265Z,french_919.wav,0,poule,751,31,4,5,Français,M,5,0.5,30.8485682,0.28163439
65498af02717744d9946615d,29,0,2024-02-28T14:40:07.265Z,french_919.wav,0,poule,751,31,4,5,Français,M,6,0.6,-65.35395561,0.64408251
65498af02717744d9946615d,29,0,2024-02-28T14:40:07.265Z,french_919.wav,0,poule,751,31,4,5,Français,M,7,0.7,85.95532588,0.95994637
65498af02717744d9946615d,29,0,2024-02-28T14:40:07.265Z,french_919.wav,0,poule,751,31,4,5,Français,M,8,0.8,92.08322147,0.70005391
65498af02717744d9946615d,29,0,2024-02-28T14:40:07.265Z,french_919.wav,0,poule,751,31,4,5,Français,M,9,0.9,-41.94331802,0.9468388
65498af02717744d9946615d,29,0,2024-02-28T14:40:07.265Z,french_919.wav,0,poule,751,31,4,5,Français,M,10,1.0,52.33310805,0.21391183
65498af02717744d9946615d,29,0,2024-02-28T14:40:07.265Z,french_919.wav,0,poule,751,31,4,5,Français,M,11,1.1,-64.04027042,1.54895117
65498af02717744d9946615d,29,0,2024-02-28T14:40:07.265Z,french_919.wav,0,poule,751,31,4,5,Français,M,12,1.14141667,-13.37988962,0.55798758
65498af02717744d9946615d,30,0,2024-02-28T14:40:07.265Z,french_179.wav,0,poule,509,31,4,5,Français,M,0,0.0,25.9419935,1.43954963
65498af02717744d9946615d,30,0,2024-02-28T14:40:07.265Z,french_179.wav,0,poule,509,31,4,5,Français,M,1,0.1,19.59452003,0.61151064
65498af02717744d9946615d,30,0,2024-02-28T14:40:07.265Z,french_179.wav,0,poule,509,31,4,5,Français,M,2,0.2,-39.12260287,0.89212855
65498af02717744d9946615d,30,0,2024-02-28T14:40:07.265Z,french_179.wav,0,poule,509,31,4,5,Français,M,3,0.3,-85.67221141,0.98387134
65498af02717744d9946615d,30,0,2024-02-28T14:40:07.265Z,french_179.wav,0,poule,509,31,4,5,Français,M,4,0.4,-28.01674862,1.06583998
65498af02717744d9946615d,30,0,2024-02-28T14:40:07.265Z,french_179.wav,0,poule,509,31,4,5,Français,M,5,0.5,49.19367454,1.00296789
65498af02717744d9946615d,30,0,2024-02-28T14:40:07.265Z,french_179.wav,0,poule,509,31,4,5,Français,M,6,0.6,-21.07303116,1.40155458
65498af02717744d9946615d,30,0,2024-02-28T14:40:07.265Z,french_179.wav,0,poule,509,31,4,5,Français,M,7,0.7,-10.99512979,0.93788551
65498af02717744d9946615d,30,0,2024-02-28T14:40:07.265Z,french_179.wav,0,poule,509,31,4,5,Français,M,8,0.8,-63.30131829,1.6594551
65498af02717744d9946615d,30,0,2024-02-28T14:40:07.265Z,french_179.wav,0,poule,509,31,4,5,Français,M,9,0.9,27.287684,1.13621815
65498af02717744d9946615d,30,0,2024-02-28T14:40:07.265Z,french_179.wav,0,poule,509,31,4,5,Français,M,10,1.0,-89.06945159,0.80909321
65498af02717744d9946615d,30,0,2024-02-28T14:40:07.265Z,french_179.wav,0,poule,509,31,4,5,Français,M,11,1.1,93.54728433,1.67975458
65498af02717744d9946615d,30,0,2024-02-28T14:40:07.265Z,french_179.wav,0,poule,509,31,4,5,Français,M,12,1.14141667,2.79573973,1.20769065
65498af02717744d9946615d,31,0,2024-02-28T14:40:07.265Z,french_169.wav,0,poule,295,31,4,5,Français,M,0,0.0,59.42185537,0.83159375
65498af02717744d9946615d,31,0,2024-02-28T14:40:07.265Z,french_169.wav,0,poule,295,31,4,5,Français,M,1,0.1,88.63481017,1.38556946
65498af02717744d9946615d,31,0,2024-02-28T14:40:07.265Z,french_169.wav,0,poule,295,31,4,5,Français,M,2,0.2,-30.81317289,0.96575103
65498af02717744d9946615d,31,0,2024-02-28T14:40:07.265Z,french_169.wav,0,poule,295,31,4,5,Français,M,3,0.3,8.8361544,1.88843059
65498af02717744d9946615d,31,0,2024-02-28T14:40:07.265Z,french_169.wav,0,poule,295,31,4,5,Français,M,4,0.4,33.34891954,1.15602215
65498af02717744d9946615d,31,0,2024-02-28T14:40:07.265Z,french_169.wav,0,poule,295,31,4,5,Français,M,5,0.5,19.12772392,1.03022827
65498af02717744d9946615d,31,0,2024-02-28T14:40:07.265Z,french_169.wav,0,poule,295,31,4,5,Français,M,6,0.6,-29.4196349,1.76601862
65498af02717744d9946615d,31,0,2024-02-28T14:40:07.265Z,french_169.wav,0,poule,295,31,4,5,Français,M,7,0.7,-66.8991604,0.44859055
65498af02717744d9946615d,31,0,2024-02-28T14:40:07.265Z,french_169.wav,0,poule,295,31,4,5,Français,M,8,0.8,-49.84424897,0.70503729
65498af02717744d9946615d,31,0,2024-02-28T14:40:07.265Z,french_169.wav,0,poule,295,31,4,5,Français,M,9,0.9,55.00508098,1.09617092
65498af02717744d9946615d,31,0,2024-02-28T14:40:07.265Z,french_169.wav,0,poule,295,31,4,5,Français,M,10,1.0,-98.33346696,1.2567147
65498af02717744d9946615d,31,0,2024-02-28T14:40:07.265Z,french_169.wav,0,poule,295,31,4,5,Français,M,11,1.1,3.91350931,1.30128277
65498af02717744d9946615d,31,0,2024-02-28T14:40:07.265Z,french_169.wav,0,poule,295,31,4,5,Français,M,12,1.14141667,24.90935392,0.9045641
65498af02717744d9946615d,32,0,2024-02-28T14:40:07.265Z,french_733.wav,0,pull,1440,31,4,5,Français,M,0,0.0,-28.30259207,0.49045242
65498af02717744d9946615d,32,0,2024-02-28T14:40:07.265Z,french_733.wav,0,pull,1440,31,4,5,Français,M,1,0.1,-20.51655877,0.41105181
65498af02717744d9946615d,32,0,2024-02-28T14:40:07.265Z,french_733.wav,0,pull,1440,31,4,5,Français,M,2,0.2,32.67834183,0.51992236
65498af02717744d9946615d,32,0,2024-02-28T14:40:07.265Z,french_733.wav,0,pull,1440,31,4,5,Français,M,3,0.3,6.62547625,0.5442563
65498af02717744d9946615d,32,0,2024-02-28T14:40:07.265Z,french_733.wav,0,pull,1440,31,4,5,Français,M,4,0.4,-74.88223305,1.50191258
65498af02717744d9946615d,32,0,2024-02-28T14:40:07.265Z,french_733.wav,0,pull,1440,31,4,5,Français,M,5,0.5,78.7904108,0.7960124
65498af02717744d9946615d,32,0,2024-02-28T14:40:07.265Z,french_733.wav,0,pull,1440,31,4,5,Français,M,6,0.6,92.741833,1.55647812
65498af02717744d9946615d,32,0,2024-02-28T14:40:07.265Z,french_733.wav,0,pull,1440,31,4,5,Français,M,7,0.7,-51.74379755,0.75813018
65498af02717744d9946615d,32,0,2024-02-28T14:40:07.265Z,french_733.wav,0,pull,1440,31,4,5,Français,M,8,0.8,0.26100759,1.97775979
65498af02717744d9946615d,32,0,2024-02-28T14:40:07.265Z,french_733.wav,0,pull,1440,31,4,5,Français,M,9,0.9,80.00528442,1.24266335
65498af02717744d9946615d,32,0,2024-02-28T14:40:07.265Z,french_733.wav,0,pull,1440,31,4,5,Français,M,10,1.0,-20.98835091,0.70545845
65498af02717744d9946615d,32,0,2024-02-28T14:40:07.265Z,french_733.wav,0,pull,1440,31,4,5,Français,M,11,1.1,-67.79194344,0.86751529
65498af02717744d9946615d,32,0,2024-02-28T14:40:07.265Z,french_733.wav,0,pull,1440,31,4,5,Français,M,12,1.14141667,20.39044297,1.05140742
65498af02717744d9946615d,33,0,2024-02-28T14:40:07.265Z,french_66.wav,0,pull,1195,31,4,5,Français,M,0,0.0,-98.32760245,0.76752471
65498af02717744d9946615d,33,0,2024-02-28T14:40:07.265Z,french_66.wav,0,pull,1195,31,4,5,Français,M,1,0.1,-62.26266621,1.09885532
65498af02717744d9946615d,33,0,2024-02-28T14:40:07.265Z,french_66.wav,0,pull,1195,31,4,5,Français,M,2,0.2,89.72937552,0.15772662
65498af02717744d9946615d,33,0,2024-02-28T14:40:07.265Z,french_66.wav,0,pull,1195,31,4,5,Français,M,3,0.3,56.77934236,0.75379746
65498af02717744d9946615d,33,0,2024-02-28T14:40:07.265Z,french_66.wav,0,pull,1195,31,4,5,Français,M,4,0.4,-42.45776165,0.86935584
65498af02717744d9946615d,33,0,2024-02-28T14:40:07.265Z,french_66.wav,0,pull,1195,31,4,5,Français,M,5,0.5,-59.91789644,0.32743409
65498af02717744d9946615d,33,0,2024-02-28T14:40:07.265Z,french_66.wav,0,pull,1195,31,4,5,Français,M,6,0.6,-9.4669158,0.75398911
65498af02717744d9946615d,33,0,2024-02-28T14:40:07.265Z,french_66.wav,0,pull,1195,31,4,5,Français,M,7,0.7,65.23523517,1.26665279
65498af02717744d9946615d,33,0,2024-02-28T14:40:07.265Z,french_66.wav,0,pull,1195,31,4,5,Français,M,8,0.8,-82.94194698,1.24326808
65498af02717744d9946615d,33,0,2024-02-28T14:40:07.265Z,french_66.wav,0,pull,1195,31,4,5,Français,M,9,0.9,-10.04050412,1.27187404
65498af02717744d9946615d,33,0,2024-02-28T14:40:07.265Z,french_66.wav,0,pull,1195,31,4,5,Français,M,10,1.0,69.7789537,1.72227413
65498af02717744d9946615d,33,0,2024-02-28T14:40:07.265Z,french_66.wav,0,pull,1195,31,4,5,Français,M,11,1.1,65.31837891,1.95483723
65498af02717744d9946615d,33,0,2024-02-28T14:40:07.265Z,french_66.wav,0,pull,1195,31,4,5,Français,M,12,1.14141667,-9.82207776,0.94632212
65498af02717744d9946615d,34,0,2024-02-28T14:40:07.265Z,french_709.wav,0,poule,318,31,4,5,Français,M,0,0.0,-53.16296067,1.12002918
65498af02717744d9946615d,34,0,2024-02-28T14:40:07.265Z,french_709.wav,0,poule,318,31,4,5,Français,M,1,0.1,59.94788803,1.08131943
65498af02717744d9946615d,34,0,2024-02-28T14:40:07.265Z,french_709.wav,0,poule,318,31,4,5,Français,M,2,0.2,35.87727167,0.76631976
65498af02717744d9946615d,34,0,2024-02-28T14:40:07.265Z,french_709.wav,0,poule,318,31,4,5,Français,M,3,0.3,-20.5364381,1.69776784
65498af02717744d9946615d,34,0,2024-02-28T14:40:07.265Z,french_709.wav,0,poule,318,31,4,5,Français,M,4,0.4,34.04594206,0.74557561
65498af02717744d9946615d,34,0,2024-02-28T14:40:07.265Z,french_709.wav,0,poule,318,31,4,5,Français,M,5,0.5,-79.51255741,1.35674371
65498af02717744d9946615d,34,0,2024-02-28T14:40:07.265Z,french_709.wav,0,poule,318,31,4,5,Français,M,6,0.6,22.56358256,1.43825325
65498af02717744d9946615d,34,0,2024-02-28T14:40:07.265Z,french_709.wav,0,poule,318,31,4,5,Français,M,7,0.7,-37.88762672,1.0289102
65498af02717744d9946615d,34,0,2024-02-28T14:40:07.265Z,french_709.wav,0,poule,318,31,4,5,Français,M,8,0.8,-41.8377988,1.05848076
65498af02717744d9946615d,34,0,2024-02-28T14:40:07.265Z,french_709.wav,0,poule,318,31,4,5,Français,M,9,0.9,-60.56478502,0.41244704
65498af02717744d9946615d,34,0,2024-02-28T14:40:07.265Z,french_709.wav,0,poule,318,31,4,5,Français,M,10,1.0,-85.9910607,0.82703914
65498af02717744d9946615d,34,0,2024-02-28T14:40:07.265Z,french_709.wav,0,poule,318,31,4,5,Français,M,11,1.1,-8.25451984,1.84061657
65498af02717744d9946615d,34,0,2024-02-28T14:40:07.265Z,french_709.wav,0,poule,318,31,4,5,Français,M,12,1.14141667,-19.34673642,0.86940642
65498af02717744d9946615d,35,0,2024-02-28T14:40:07.265Z,french_713.wav,0,poule,409,31,4,5,Français,M,0,0.0,-37.43474567,1.24372469
65498af02717744d9946615d,35,0,2024-02-28T14:40:07.265Z,french_713.wav,0,poule,409,31,4,5,Français,M,1,0.1,99.965975,0.93707229
65498af02717744d9946615d,35,0,2024-02-28T14:40:07.265Z,french_713.wav,0,poule,409,31,4,5,Français,M,2,0.2,59.45839073,1.24132484
65498af02717744d9946615d,35,0,2024-02-28T14:40:07.265Z,french_713.wav,0,poule,409,31,4,5,Français,M,3,0.3,-25.31478906,0.8696724
65498af02717744d9946615d,35,0,2024-02-28T14:40:07.265Z,french_713.wav,0,poule,409,31,4,5,Français,M,4,0.4,5.71723288,1.68662747
65498af02717744d9946615d,35,0,2024-02-28T14:40:07.265Z,french_713.wav,0,poule,409,31,4,5,Français,M,5,0.5,36.1118223,0.63259997
65498af02717744d9946615d,35,0,2024-02-28T14:40:07.265Z,french_713.wav,0,poule,409,31,4,5,Français,M,6,0.6,-56.37110024,1.92165301
65498af02717744d9946615d,35,0,2024-02-28T14:40:07.265Z,french_713.wav,0,poule,409,31,4,5,Français,M,7,0.7,-24.52303614,1.34711854
65498af02717744d9946615d,35,0,2024-02-28T14:40:07.265Z,french_713.wav,0,poule,409,31,4,5,Français,M,8,0.8,-2.49025769,0.32122443
65498af02717744d9946615d,35,0,2024-02-28T14:40:07.265Z,french_713.wav,0,poule,409,31,4,5,Français,M,9,0.9,21.24369228,0.60636845
65498af02717744d9946615d,35,0,2024-02-28T14:40:07.265Z,french_713.wav,0,poule,409,31,4,5,Français,M,10,1.0,-2.82246083,1.76664037
65498af02717744d9946615d,35,0,2024-02-28T14:40:07.265Z,french_713.wav,0,poule,409,31,4,5,Français,M,11,1.1,-3.3969212,1.5841005
65498af02717744d9946615d,35,0,2024-02-28T14:40:07.265Z,french_713.wav,0,poule,409,31,4,5,Français,M,12,1.14141667,-49.20963854,1.28542725
65498af02717744d9946615d,36,0,2024-02-28T14:40:07.265Z,french_412.wav,0,pull,572,31,4,5,Français,M,0,0.0,80.33750743,1.13543916
65498af02717744d9946615d,36,0,2024-02-28T14:40:07.265Z,french_412.wav,0,pull,572,31,4,5,Français,M,1,0.1,50.4773299,1.15832638
65498af02717744d9946615d,36,0,2024-02-28T14:40:07.265Z,french_412.wav,0,pull,572,31,4,5,Français,M,2,0.2,7.50934865,0.2432056
65498af02717744d9946615d,36,0,2024-02-28T14:40:07.265Z,french_412.wav,0,pull,572,31,4,5,Français,M,3,0.3,-9.23463682,1.81011187
65498af02717744d9946615d,36,0,2024-02-28T14:40:07.265Z,french_412.wav,0,pull,572,31,4,5,Français,M,4,0.4,9.13658121,0.142234
65498af02717744d9946615d,36,0,2024-02-28T14:40:07.265Z,french_412.wav,0,pull,572,31,4,5,Français,M,5,0.5,11.12128685,1.17532286
65498af02717744d9946615d,36,0,2024-02-28T14:40:07.265Z,french_412.wav,0,pull,572,31,4,5,Français,M,6,0.6,-94.30640228,1.06397509
65498af02717744d9946615d,36,0,2024-02-28T14:40:07.265Z,french_412.wav,0,pull,572,31,4,5,Français,M,7,0.7,-51.41178114,1.83631312
65498af02717744d9946615d,36,0,2024-02-28T14:40:07.265Z,french_412.wav,0,pull,572,31,4,5,Français,M,8,0.8,28.26572128,1.0285842
65498af02717744d9946615d,36,0,2024-02-28T14:40:07.265Z,french_412.wav,0,pull,572,31,4,5,Français,M,9,0.9,-71.75232094,1.74888075
65498af02717744d9946615d,36,0,2024-02-28T14:40:07.265Z,french_412.wav,0,pull,572,31,4,5,Français,M,10,1.0,86.09965629,1.95722924
65498af02717744d9946615d,36,0,2024-02-28T14:40:07.265Z,french_412.wav,0,pull,572,31,4,5,Français,M,11,1.1,27.28800681,1.49997067
65498af02717744d9946615d,36,0,2024-02-28T14:40:07.265Z,french_412.wav,0,pull,572,31,4,5,Français,M,12,1.14141667,32.1776899,0.76864943
65498af02717744d9946615d,37,0,2024-02-28T14:40:07.265Z,french_177.wav,0,poule,287,31,4,5,Français,M,0,0.0,-8.10737453,1.83762725
65498af02717744d9946615d,37,0,2024-02-28T14:40:07.265Z,french_177.wav,0,poule,287,31,4,5,Français,M,1,0.1,-14.13185222,1.41917184
65498af02717744d9946615d,37,0,2024-02-28T14:40:07.265Z,french_177.wav,0,poule,287,31,4,5,Français,M,2,0.2,-21.48127278,1.32076247
65498af02717744d9946615d,37,0,2024-02-28T14:40:07.265Z,french_177.wav,0,poule,287,31,4,5,Français,M,3,0.3,24.9697288,0.20954591
65498af02717744d9946615d,37,0,2024-02-28T14:40:07.265Z,french_177.wav,0,poule,287,31,4,5,Français,M,4,0.4,-13.99641156,0.92966731
65498af02717744d9946615d,37,0,2024-02-28T14:40:07.265Z,french_177.wav,0,poule,287,31,4,5,Français,M,5,0.5,-59.00404828,0.48144728
65498af02717744d9946615d,37,0,2024-02-28T14:40:07.265Z,french_177.wav,0,poule,287,31,4,5,Français,M,6,0.6,-79.56959599,1.07022563
65498af02717744d9946615d,37,0,2024-02-28T14:40:07.265Z,french_177.wav,0,poule,287,31,4,5,Français,M,7,0.7,56.96667595,0.90878311
65498af02717744d9946615d,37,0,2024-02-28T14:40:07.265Z,french_177.wav,0,poule,287,31,4,5,Français,M,8,0.8,53.96652251,0.75598619
65498af02717744d9946615d,37,0,2024-02-28T14:40:07.265Z,french_177.wav,0,poule,287,31,4,5,Français,M,9,0.9,-43.28510596,1.20570373
65498af02717744d9946615d,37,0,2024-02-28T14:40:07.265Z,french_177.wav,0,poule,287,31,4,5,Français,M,10,1.0,-17.06884575,0.31173544
65498af02717744d9946615d,37,0,2024-02-28T14:40:07.265Z,french_177.wav,0,poule,287,31,4,5,Français,M,11,1.1,91.20873705,1.67692112
65498af02717744d9946615d,37,0,2024-02-28T14:40:07.265Z,french_177.wav,0,poule,287,31,4,5,Français,M,12,1.14141667,-64.77412729,0.58516183
65498af02717744d9946615d,38,0,2024-02-28T14:40:07.265Z,french_74.wav,0,poule,925,31,4,5,Français,M,0,0.0,84.74621133,0.15482924
65498af02717744d9946615d,38,0,2024-02-28T14:40:07.265Z,french_74.wav,0,poule,925,31,4,5,Français,M,1,0.1,92.18246646,0.90780051
65498af02717744d9946615d,38,0,2024-02-28T14:40:07.265Z,french_74.wav,0,poule,925,31,4,5,Français,M,2,0.2,-59.5459939,1.42386573
65498af02717744d9946615d,38,0,2024-02-28T14:40:07.265Z,french_74.wav,0,poule,925,31,4,5,Français,M,3,0.3,-98.70399026,1.79795319
65498af02717744d9946615d,38,0,2024-02-28T14:40:07.265Z,french_74.wav,0,poule,925,31,4,5,Français,M,4,0.4,-95.53423626,0.68328648
65498af02717744d9946615d,38,0,2024-02-28T14:40:07.265Z,french_74.wav,0,poule,925,31,4,5,Français,M,5,0.5,-57.56578286,1.03595689
65498af02717744d9946615d,38,0,2024-02-28T14:40:07.265Z,french_74.wav,0,poule,925,31,4,5,Français,M,6,0.6,-23.70931613,0.55161363
65498af02717744d9946615d,38,0,2024-02-28T14:40:07.265Z,french_74.wav,0,poule,925,31,4,5,Français,M,7,0.7,59.8421939,0.09331541
65498af02717744d9946615d,38,0,2024-02-28T14:40:07.265Z,french_74.wav,0,poule,925,31,4,5,Français,M,8,0.8,-90.10462767,0.72998265
65498af02717744d9946615d,38,0,2024-02-28T14:40:07.265Z,french_74.wav,0,poule,925,31,4,5,Français,M,9,0.9,-16.09842749,1.18746687
65498af02717744d9946615d,38,0,2024-02-28T14:40:07.265Z,french_74.wav,0,poule,925,31,4,5,Français,M,10,1.0,62.6860723,1.32035057
65498af02717744d9946615d,38,0,2024-02-28T14:40:07.265Z,french_74.wav,0,poule,925,31,4,5,Français,M,11,1.1,-21.10074863,0.35098378
65498af02717744d9946615d,38,0,2024-02-28T14:40:07.265Z,french_74.wav,0,poule,925,31,4,5,Français,M,12,1.14141667,19.46279158,0.11551636
65498af02717744d9946615d,39,0,2024-02-28T14:40:07.265Z,french_314.wav,0,pull,939,31,4,5,Français,M,0,0.0,98.47852425,0.84050002
65498af02717744d9946615d,39,0,2024-02-28T14:40:07.265Z,french_314.wav,0,pull,939,31,4,5,Français,M,1,0.1,-4.76765087,1.9178096
65498af02717744d9946615d,39,0,2024-02-28T14:40:07.265Z,french_314.wav,0,pull,939,31,4,5,Français,M,2,0.2,98.99563551,1.48544664
65498af02717744d9946615d,39,0,2024-02-28T14:40:07.265Z,french_314.wav,0,pull,939,31,4,5,Français,M,3,0.3,-26.02974157,0.28338038
65498af02717744d9946615d,39,0,2024-02-28T14:40:07.265Z,french_314.wav,0,pull,939,31,4,5,Français,M,4,0.4,3.57072729,1.67118839
65498af02717744d9946615d,39,0,2024-02-28T14:40:07.265Z,french_314.wav,0,pull,939,31,4,5,Français,M,5,0.5,-27.39105802,0.9666753
65498af02717744d9946615d,39,0,2024-02-28T14:40:07.265Z,french_314.wav,0,pull,939,31,4,5,Français,M,6,0.6,-34.46329074,0.67276738
65498af02717744d9946615d,39,0,2024-02-28T14:40:07.265Z,french_314.wav,0,pull,939,31,4,5,Français,M,7,0.7,-19.61563284,1.19975177
65498af02717744d9946615d,39,0,2024-02-28T14:40:07.265Z,french_314.wav,0,pull,939,31,4,5,Français,M,8,0.8,86.50042899,0.06283499
65498af02717744d9946615d,39,0,2024-02-28T14:40:07.265Z,french_314.wav,0,pull,939,31,4,5,Français,M,9,0.9,-30.62380752,0.69763895
65498af02717744d9946615d,39,0,2024-02-28T14:40:07.265Z,french_314.wav,0,pull,939,31,4,5,Français,M,10,1.0,68.66999994,1.73674877
65498af02717744d9946615d,39,0,2024-02-28T14:40:07.265Z,french_314.wav,0,pull,939,31,4,5,Français,M,11,1.1,18.64968658,1.35552755
65498af02717744d9946615d,39,0,2024-02-28T14:40:07.265Z,french_314.wav,0,pull,939,31,4,5,Français,M,12,1.14141667,83.99037415,1.19565214
65498af02717744d9946615d,40,0,2024-02-28T14:40:07.265Z,french_115.wav,0,poule,166,31,4,5,Français,M,0,0.0,-7.18110588,0.85847517
65498af02717744d9946615d,40,0,2024-02-28T14:40:07.265Z,french_115.wav,0,poule,166,31,4,5,Français,M,1,0.1,94.79075027,1.5812933
65498af02717744d9946615d,40,0,2024-02-28T14:40:07.265Z,french_115.wav,0,poule,166,31,4,5,Français,M,2,0.2,65.03196098,1.03622674
65498af02717744d9946615d,40,0,2024-02-28T14:40:07.265Z,french_115.wav,0,poule,166,31,4,5,Français,M,3,0.3,-37.28428702,0.04767573
65498af02717744d9946615d,40,0,2024-02-28T14:40:07.265Z,french_115.wav,0,poule,166,31,4,5,Français,M,4,0.4,27.28588317,1.4264155
65498af02717744d9946615d,40,0,2024-02-28T14:40:07.265Z,french_115.wav,0,poule,166,31,4,5,Français,M,5,0.5,-35.83942865,1.7631052
65498af02717744d9946615d,40,0,2024-02-28T14:40:07.265Z,french_115.wav,0,poule,166,31,4,5,Français,M,6,0.6,-2.59487555,1.23587648
65498af02717744d9946615d,40,0,2024-02-28T14:40:07.265Z,french_115.wav,0,poule,166,31,4,5,Français,M,7,0.7,-7.83871927,0.84823926
65498af02717744d9946615d,40,0,2024-02-28T14:40:07.265Z,french_115.wav,0,poule,166,31,4,5,Français,M,8,0.8,11.84669574,0.19047812
65498af02717744d9946615d,40,0,2024-02-28T14:40:07.265Z,french_115.wav,0,poule,166,31,4,5,Français,M,9,0.9,15.04268327,1.24298013
65498af02717744d9946615d,40,0,2024-02-28T14:40:07.265Z,french_115.wav,0,poule,166,31,4,5,Français,M,10,1.0,-33.08503387,1.00705755
65498af02717744d9946615d,40,0,2024-02-28T14:40:07.265Z,french_115.wav,0,poule,166,31,4,5,Français,M,11,1.1,-37.02592644,0.82373643
65498af02717744d9946615d,40,0,2024-02-28T14:40:07.265Z,french_115.wav,0,poule,166,31,4,5,Français,M,12,1.14141667,81.06738924,1.84378912
65498af02717744d9946615d,41,0,2024-02-28T14:40:07.265Z,french_96.wav,0,poule,232,31,4,5,Français,M,0,0.0,53.78639377,1.90346106
65498af02717744d9946615d,41,0,2024-02-28T14:40:07.265Z,french_96.wav,0,poule,232,31,4,5,Français,M,1,0.1,31.41586523,0.15220772
65498af02717744d9946615d,41,0,2024-02-28T14:40:07.265Z,french_96.wav,0,poule,232,31,4,5,Français,M,2,0.2,98.80733332,0.53950268
65498af02717744d9946615d,41,0,2024-02-28T14:40:07.265Z,french_96.wav,0,poule,232,31,4,5,Français,M,3,0.3,53.44519875,0.63349693
65498af02717744d9946615d,41,0,2024-02-28T14:40:07.265Z,french_96.wav,0,poule,232,31,4,5,Français,M,4,0.4,95.61439284,0.57290588
65498af02717744d9946615d,41,0,2024-02-28T14:40:07.265Z,french_96.wav,0,poule,232,31,4,5,Français,M,5,0.5,77.20225202,0.42649721
65498af02717744d9946615d,41,0,2024-02-28T14:40:07.265Z,french_96.wav,0,poule,232,31,4,5,Français,M,6,0.6,52.03252285,1.12105265
65498af02717744d9946615d,41,0,2024-02-28T14:40:07.265Z,french_96.wav,0,poule,232,31,4,5,Français,M,7,0.7,81.26088067,0.61167248
65498af02717744d9946615d,41,0,2024-02-28T14:40:07.265Z,french_96.wav,0,poule,232,31,4,5,Français,M,8,0.8,61.75854177,1.55092745
65498af02717744d9946615d,41,0,2024-02-28T14:40:07.265Z,french_96.wav,0,poule,232,31,4,5,Français,M,9,0.9,-97.80195669,1.53777106
65498af02717744d9946615d,41,0,2024-02-28T14:40:07.265Z,french_96.wav,0,poule,232,31,4,5,Français,M,10,1.0,-30.26366105,1.41658213
65498af02717744d9946615d,41,0,2024-02-28T14:40:07.265Z,french_96.wav,0,poule,232,31,4,5,Français,M,11,1.1,17.72455957,0.75969362
65498af02717744d9946615d,41,0,2024-02-28T14:40:07.265Z,french_96.wav,0,poule,232,31,4,5,Français,M,12,1.14141667,64.44839673,0.51672597
65498af02717744d9946615d,42,0,2024-02-28T14:40:07.265Z,french_202.wav,0,poule,2015,31,4,5,Français,M,0,0.0,-17.04430056,0.85322679
65498af02717744d9946615d,42,0,2024-02-28T14:40:07.265Z,french_202.wav,0,poule,2015,31,4,5,Français,M,1,0.1,-39.59352405,1.90558069
65498af02717744d9946615d,42,0,2024-02-28T14:40:07.265Z,french_202.wav,0,poule,2015,31,4,5,Français,M,2,0.2,-50.32219172,0.57660663
65498af02717744d9946615d,42,0,2024-02-28T14:40:07.265Z,french_202.wav,0,poule,2015,31,4,5,Français,M,3,0.3,-86.25811675,0.53517989
65498af02717744d9946615d,42,0,2024-02-28T14:40:07.265Z,french_202.wav,0,poule,2015,31,4,5,Français,M,4,0.4,0.56208373,1.3075328
65498af02717744d9946615d,42,0,2024-02-28T14:40:07.265Z,french_202.wav,0,poule,2015,31,4,5,Français,M,5,0.5,12.13136617,0.65532662
65498af02717744d9946615d,42,0,2024-02-28T14:40:07.265Z,french_202.wav,0,poule,2015,31,4,5,Français,M,6,0.6,-9.09694351,0.58470433
65498af02717744d9946615d,42,0,2024-02-28T14:40:07.265Z,french_202.wav,0,poule,2015,31,4,5,Français,M,7,0.7,-34.01550811,1.41307701
65498af02717744d9946615d,42,0,2024-02-28T14:40:07.265Z,french_202.wav,0,poule,2015,31,4,5,Français,M,8,0.8,-50.44375165,0.21256409
65498af02717744d9946615d,42,0,2024-02-28T14:40:07.265Z,french_202.wav,0,poule,2015,31,4,5,Français,M,9,0.9,45.46201631,1.38233641
65498af02717744d9946615d,42,0,2024-02-28T14:40:07.265Z,french_202.wav,0,poule,2015,31,4,5,Français,M,10,1.0,32.9446266,1.86150004
65498af02717744d9946615d,42,0,2024-02-28T14:40:07.265Z,french_202.wav,0,poule,2015,31,4,5,Français,M,11,1.1,-83.35470967,1.834538
65498af02717744d9946615d,42,0,2024-02-28T14:40:07.265Z,french_202.wav,0,poule,2015,31,4,5,Français,M,12,1.14141667,64.06448626,1.65956504
65498af02717744d9946615d,43,0,2024-02-28T14:40:07.265Z,french_29.wav,0,poule,279,31,4,5,Français,M,0,0.0,21.77688976,1.0440217
65498af02717744d9946615d,43,0,2024-02-28T14:40:07.265Z,french_29.wav,0,poule,279,31,4,5,Français,M,1,0.1,24.23496893,1.09015273
65498af02717744d9946615d,43,0,2024-02-28T14:40:07.265Z,french_29.wav,0,poule,279,31,4,5,Français,M,2,0.2,-77.17155219,1.90323548
65498af02717744d9946615d,43,0,2024-02-28T14:40:07.265Z,french_29.wav,0,poule,279,31,4,5,Français,M,3,0.3,-60.073072,1.85202453
65498af02717744d9946615d,43,0,2024-02-28T14:40:07.265Z,french_29.wav,0,poule,279,31,4,5,Français,M,4,0.4,-50.13575325,0.8874885
65498af02717744d9946615d,43,0,2024-02-28T14:40:07.265Z,french_29.wav,0,poule,279,31,4,5,Français,M,5,0.5,-77.43985725,1.8117264
65498af02717744d9946615d,43,0,2024-02-28T14:40:07.265Z,french_29.wav,0,poule,279,31,4,5,Français,M,6,0.6,10.83492936,1.39622978
65498af02717744d9946615d,43,0,2024-02-28T14:40:07.265Z,french_29.wav,0,poule,279,31,4,5,Français,M,7,0.7,41.96864578,0.35259402
65498af02717744d9946615d,43,0,2024-02-28T14:40:07.265Z,french_29.wav,0,poule,279,31,4,5,Français,M,8,0.8,24.15001974,1.18506837
65498af02717744d9946615d,43,0,2024-02-28T14:40:07.265Z,french_29.wav,0,poule,279,31,4,5,Français,M,9,0.9,36.26552414,1.17740145
65498af02717744d9946615d,43,0,2024-02-28T14:40:07.265Z,french_29.wav,0,poule,279,31,4,5,Français,M,10,1.0,52.90736108,1.00535822
65498af02717744d9946615d,43,0,2024-02-28T14:40:07.265Z,french_29.wav,0,poule,279,31,4,5,Français,M,11,1.1,63.28977691,0.9642083
65498af02717744d9946615d,43,0,2024-02-28T14:40:07.265Z,french_29.wav,0,poule,279,31,4,5,Français,M,12,1.14141667,-48.15622319,1.23423226
65498af02717744d9946615d,44,0,2024-02-28T14:40:07.265Z,french_460.wav,0,pull,745,31,4,5,Français,M,0,0.0,-12.29879205,0.06969059
65498af02717744d9946615d,44,0,2024-02-28T14:40:07.265Z,french_460.wav,0,pull,745,31,4,5,Français,M,1,0.1,3.28349047,1.96066133
65498af02717744d9946615d,44,0,2024-02-28T14:40:07.265Z,french_460.wav,0,pull,745,31,4,5,Français,M,2,0.2,-34.86567737,0.93300362
65498af02717744d9946615d,44,0,2024-02-28T14:40:07.265Z,french_460.wav,0,pull,745,31,4,5,Français,M,3,0.3,9.67806793,0.19701258
65498af02717744d9946615d,44,0,2024-02-28T14:40:07.265Z,french_460.wav,0,pull,745,31,4,5,Français,M,4,0.4,-75.55665199,0.26225633
65498af02717744d9946615d,44,0,2024-02-28T14:40:07.265Z,french_460.wav,0,pull,745,31,4,5,Français,M,5,0.5,69.98691691,0.30574944
65498af02717744d9946615d,44,0,2024-02-28T14:40:07.265Z,french_460.wav,0,pull,745,31,4,5,Français,M,6,0.6,19.57836313,0.84522049
65498af02717744d9946615d,44,0,2024-02-28T14:40:07.265Z,french_460.wav,0,pull,745,31,4,5,Français,M,7,0.7,26.31608571,0.46797796
65498af02717744d9946615d,44,0,2024-02-28T14:40:07.265Z,french_460.wav,0,pull,745,31,4,5,Français,M,8,0.8,-43.07931808,1.27967898
65498af02717744d9946615d,44,0,2024-02-28T14:40:07.265Z,french_460.wav,0,pull,745,31,4,5,Français,M,9,0.9,-53.20570228,1.87003329
65498af02717744d9946615d,44,0,2024-02-28T14:40:07.265Z,french_460.wav,0,pull,745,31,4,5,Français,M,10,1.0,17.19509414,1.1042613
65498af02717744d9946615d,44,0,2024-02-28T14:40:07.265Z,french_460.wav,0,pull,745,31,4,5,Français,M,11,1.1,-79.4382763,1.82314088
65498af02717744d9946615d,44,0,2024-02-28T14:40:07.265Z,french_460.wav,0,pull,745,31,4,5,Français,M,12,1.14141667,17.73784443,1.96864876
65498af02717744d9946615d,45,0,2024-02-28T14:40:07.265Z,french_617.wav,0,poule,512,31,4,5,Français,M,0,0.0,41.18921531,0.91184006
65498af02717744d9946615d,45,0,2024-02-28T14:40:07.265Z,french_617.wav,0,poule,512,31,4,5,Français,M,1,0.1,-35.03636924,1.24340801
65498af02717744d9946615d,45,0,2024-02-28T14:40:07.265Z,french_617.wav,0,poule,512,31,4,5,Français,M,2,0.2,-74.98228457,1.94725418
65498af02717744d9946615d,45,0,2024-02-28T14:40:07.265Z,french_617.wav,0,poule,512,31,4,5,Français,M,3,0.3,-36.51435822,0.5653448
65498af02717744d9946615d,45,0,2024-02-28T14:40:07.265Z,french_617.wav,0,poule,512,31,4,5,Français,M,4,0.4,-95.32464294,1.52373912
65498af02717744d9946615d,45,0,2024-02-28T14:40:07.265Z,french_617.wav,0,poule,512,31,4,5,Français,M,5,0.5,84.01929298,1.56026974
65498af02717744d9946615d,45,0,2024-02-28T14:40:07.265Z,french_617.wav,0,poule,512,31,4,5,Français,M,6,0.6,32.67157622,0.19851572
65498af02717744d9946615d,45,0,2024-02-28T14:40:07.265Z,french_617.wav,0,poule,512,31,4,5,Français,M,7,0.7,-71.7342706,1.89713844
65498af02717744d9946615d,45,0,2024-02-28T14:40:07.265Z,french_617.wav,0,poule,512,31,4,5,Français,M,8,0.8,-45.86213667,1.81378599
65498af02717744d9946615d,45,0,2024-02-28T14:40:07.265Z,french_617.wav,0,poule,512,31,4,5,Français,M,9,0.9,87.19566362,1.31045157
65498af02717744d9946615d,45,0,2024-02-28T14:40:07.265Z,french_617.wav,0,poule,512,31,4,5,Français,M,10,1.0,-47.72681817,0.66805601
65498af02717744d9946615d,45,0,2024-02-28T14:40:07.265Z,french_617.wav,0,poule,512,31,4,5,Français,M,11,1.1,15.937344,0.14648847
65498af02717744d9946615d,45,0,2024-02-28T14:40:07.265Z,french_617.wav,0,poule,512,31,4,5,Français,M,12,1.14141667,72.65175015,0.64127007
65498af02717744d9946615d,46,0,2024-02-28T14:40:07.265Z,french_779.wav,0,poule,384,31,4,5,Français,M,0,0.0,-38.28425878,1.14466513
65498af02717744d9946615d,46,0,2024-02-28T14:40:07.265Z,french_779.wav,0,poule,384,31,4,5,Français,M,1,0.1,-19.73299362,1.60046318
65498af02717744d9946615d,46,0,2024-02-28T14:40:07.265Z,french_779.wav,0,poule,384,31,4,5,Français,M,2,0.2,-1.63971334,0.66760831
65498af02717744d9946615d,46,0,2024-02-28T14:40:07.265Z,french_779.wav,0,poule,384,31,4,5,Français,M,3,0.3,-13.00341001,1.70247529
65498af02717744d9946615d,46,0,2024-02-28T14:40:07.265Z,french_779.wav,0,poule,384,31,4,5,Français,M,4,0.4,-18.58635516,0.17241517
65498af02717744d9946615d,46,0,2024-02-28T14:40:07.265Z,french_779.wav,0,poule,384,31,4,5,Français,M,5,0.5,-89.98694193,1.76793656
65498af02717744d9946615d,46,0,2024-02-28T14:40:07.265Z,french_779.wav,0,poule,384,31,4,5,Français,M,6,0.6,92.32758461,1.36679993
65498af02717744d9946615d,46,0,2024-02-28T14:40:07.265Z,french_779.wav,0,poule,384,31,4,5,Français,M,7,0.7,-57.54469246,0.7012445
65498af02717744d9946615d,46,0,2024-02-28T14:40:07.265Z,french_779.wav,0,poule,384,31,4,5,Français,M,8,0.8,-77.17429957,1.36817327
65498af02717744d9946615d,46,0,2024-02-28T14:40:07.265Z,french_779.wav,0,poule,384,31,4,5,Français,M,9,0.9,-5.46434537,0.41680341
65498af02717744d9946615d,46,0,2024-02-28T14:40:07.265Z,french_779.wav,0,poule,384,31,4,5,Français,M,10,1.0,-18.50514079,0.28529805
65498af02717744d9946615d,46,0,2024-02-28T14:40:07.265Z,french_779.wav,0,poule,384,31,4,5,Français,M,11,1.1,-7.2649165,1.0076311
65498af02717744d9946615d,46,0,2024-02-28T14:40:07.265Z,french_779.wav,0,poule,384,31,4,5,Français,M,12,1.14141667,-3.97761041,1.26738641
65498af02717744d9946615d,47,0,2024-02-28T14:40:07.265Z,french_394.wav,0,poule,262,31,4,5,Français,M,0,0.0,95.60851421,0.31080056
65498af02717744d9946615d,47,0,2024-02-28T14:40:07.265Z,french_394.wav,0,poule,262,31,4,5,Français,M,1,0.1,10.27807308,0.60684058
65498af02717744d9946615d,47,0,2024-02-28T14:40:07.265Z,french_394.wav,0,poule,262,31,4,5,Français,M,2,0.2,4.0500478,1.51269297
65498af02717744d9946615d,47,0,2024-02-28T14:40:07.265Z,french_394.wav,0,poule,262,31,4,5,Français,M,3,0.3,98.54662712,0.34211461
65498af02717744d9946615d,47,0,2024-02-28T14:40:07.265Z,french_394.wav,0,poule,262,31,4,5,Français,M,4,0.4,-55.47052681,1.48307249
65498af02717744d9946615d,47,0,2024-02-28T14:40:07.265Z,french_394.wav,0,poule,262,31,4,5,Français,M,5,0.5,32.45246937,0.87806102
65498af02717744d9946615d,47,0,2024-02-28T14:40:07.265Z,french_394.wav,0,poule,262,31,4,5,Français,M,6,0.6,57.72330653,0.67676213
65498af02717744d9946615d,47,0,2024-02-28T14:40:07.265Z,french_394.wav,0,poule,262,31,4,5,Français,M,7,0.7,-40.98154309,1.11559136
65498af02717744d9946615d,47,0,2024-02-28T14:40:07.265Z,french_394.wav,0,poule,262,31,4,5,Français,M,8,0.8,-66.31000253,0.1280295
65498af02717744d9946615d,47,0,2024-02-28T14:40:07.265Z,french_394.wav,0,poule,262,31,4,5,Français,M,9,0.9,-0.754791,1.10962347
65498af02717744d9946615d,47,0,2024-02-28T14:40:07.265Z,french_394.wav,0,poule,262,31,4,5,Français,M,10,1.0,-67.7279764,0.74190709
65498af02717744d9946615d,47,0,2024-02-28T14:40:07.265Z,french_394.wav,0,poule,262,31,4,5,Français,M,11,1.1,-66.85938958,0.49223717
65498af02717744d9946615d,47,0,2024-02-28T14:40:07.265Z,french_394.wav,0,poule,262,31,4,5,Français,M,12,1.14141667,60.10561607,0.29130713
65498af02717744d9946615d,48,0,2024-02-28T14:40:07.265Z,french_445.wav,0,poule,6238,31,4,5,Français,M,0,0.0,-13.69643402,0.73484181
65498af02717744d9946615d,48,0,2024-02-28T14:40:07.265Z,french_445.wav,0,poule,6238,31,4,5,Français,M,1,0.1,36.92445062,1.41360661
65498af02717744d9946615d,48,0,2024-02-28T14:40:07.265Z,french_445.wav,0,poule,6238,31,4,5,Français,M,2,0.2,21.43114689,0.52466555
65498af02717744d9946615d,48,0,2024-02-28T14:40:07.265Z,french_445.wav,0,poule,6238,31,4,5,Français,M,3,0.3,24.77090101,1.58726839
65498af02717744d9946615d,48,0,2024-02-28T14:40:07.265Z,french_445.wav,0,poule,6238,31,4,5,Français,M,4,0.4,77.265015,1.42575361
65498af02717744d9946615d,48,0,2024-02-28T14:40:07.265Z,french_445.wav,0,poule,6238,31,4,5,Français,M,5,0.5,28.30807518,1.55292683
65498af02717744d9946615d,48,0,2024-02-28T14:40:07.265Z,french_445.wav,0,poule,6238,31,4,5,Français,M,6,0.6,18.43259479,0.02964328
65498af02717744d9946615d,48,0,2024-02-28T14:40:07.265Z,french_445.wav,0,poule,6238,31,4,5,Français,M,7,0.7,-79.61204071,1.36780768
65498af02717744d9946615d,48,0,2024-02-28T14:40:07.265Z,french_445.wav,0,poule,6238,31,4,5,Français,M,8,0.8,80.96656343,0.02073761
65498af02717744d9946615d,48,0,2024-02-28T14:40:07.265Z,french_445.wav,0,poule,6238,31,4,5,Français,M,9,0.9,-8.33056755,0.3007781
65498af02717744d9946615d,48,0,2024-02-28T14:40:07.265Z,french_445.wav,0,poule,6238,31,4,5,Français,M,10,1.0,-7.46638384,0.17343981
65498af02717744d9946615d,48,0,2024-02-28T14:40:07.265Z,french_445.wav,0,poule,6238,31,4,5,Français,M,11,1.1,-0.65732392,0.65758319
65498af02717744d9946615d,48,0,2024-02-28T14:40:07.265Z,french_445.wav,0,poule,6238,31,4,5,Français,M,12,1.14141667,-17.80379885,0.41522681
65498af02717744d9946615d,49,0,2024-02-28T14:40:07.265Z,french_555.wav,0,poule,656,31,4,5,Français,M,0,0.0,-3.46399268,0.19423897
65498af02717744d9946615d,49,0,2024-02-28T14:40:07.265Z,french_555.wav,0,poule,656,31,4,5,Français,M,1,0.1,-21.80392372,0.1631659
65498af02717744d9946615d,49,0,2024-02-28T14:40:07.265Z,french_555.wav,0,poule,656,31,4,5,Français,M,2,0.2,36.25335474,0.66154436
65498af02717744d9946615d,49,0,2024-02-28T14:40:07.265Z,french_555.wav,0,poule,656,31,4,5,Français,M,3,0.3,-89.69667544,1.05269583
65498af02717744d9946615d,49,0,2024-02-28T14:40:07.265Z,french_555.wav,0,poule,656,31,4,5,Français,M,4,0.4,8.30678336,0.42912872
65498af02717744d9946615d,49,0,2024-02-28T14:40:07.265Z,french_555.wav,0,poule,656,31,4,5,Français,M,5,0.5,-74.14807153,1.13233144
65498af02717744d9946615d,49,0,2024-02-28T14:40:07.265Z,french_555.wav,0,poule,656,31,4,5,Français,M,6,0.6,-86.71487403,0.81035092
65498af02717744d9946615d,49,0,2024-02-28T14:40:07.265Z,french_555.wav,0,poule,656,31,4,5,Français,M,7,0.7,46.6406954,1.18976626
65498af02717744d9946615d,49,0,2024-02-28T14:40:07.265Z,french_555.wav,0,poule,656,31,4,5,Français,M,8,0.8,-18.6357847,0.82772239
65498af02717744d9946615d,49,0,2024-02-28T14:40:07.265Z,french_555.wav,0,poule,656,31,4,5,Français,M,9,0.9,-71.67552903,0.85953916
65498af02717744d9946615d,49,0,2024-02-28T14:40:07.265Z,french_555.wav,0,poule,656,31,4,5,Français,M,10,1.0,-61.54832496,0.46780601
65498af02717744d9946615d,49,0,2024-02-28T14:40:07.265Z,french_555.wav,0,poule,656,31,4,5,Français,M,11,1.1,-2.65496266,1.89093077
65498af02717744d9946615d,49,0,2024-02-28T14:40:07.265Z,french_555.wav,0,poule,656,31,4,5,Français,M,12,1.14141667,-59.32822584,1.10123879
65498af02717744d9946615d,50,1,2024-02-28T14:45:09.539Z,french_367.wav,0,poule,993,31,4,5,Français,M,0,0.0,-19.33050099,0.32588684
65498af02717744d9946615d,50,1,2024-02-28T14:45:09.539Z,french_367.wav,0,poule,993,31,4,5,Français,M,1,0.1,-1.29300582,1.20079268
65498af02717744d9946615d,50,1,2024-02-28T14:45:09.539Z,french_367.wav,0,poule,993,31,4,5,Français,M,2,0.2,-53.6628535,1.68961812
65498af02717744d9946615d,50,1,2024-02-28T14:45:09.539Z,french_367.wav,0,poule,993,31,4,5,Français,M,3,0.3,-26.30205028,0.18361897
65498af02717744d9946615d,50,1,2024-02-28T14:45:09.539Z,french_367.wav,0,poule,993,31,4,5,Français,M,4,0.4,-63.4363173,0.97466933
65498af02717744d9946615d,50,1,2024-02-28T14:45:09.539Z,french_367.wav,0,poule,993,31,4,5,Français,M,5,0.5,6.39307262,1.38512788
65498af02717744d9946615d,50,1,2024-02-28T14:45:09.539Z,french_367.wav,0,poule,993,31,4,5,Français,M,6,0.6,-64.6682597,0.02274579
65498af02717744d9946615d,50,1,2024-02-28T14:45:09.539Z,french_367.wav,0,poule,993,31,4,5,Français,M,7,0.7,29.77195728,0.18668815
65498af02717744d9946615d,50,1,2024-02-28T14:45:09.539Z,french_367.wav,0,poule,993,31,4,5,Français,M,8,0.8,57.14519673,0.42667984
65498af02717744d9946615d,50,1,2024-02-28T14:45:09.539Z,french_367.wav,0,poule,993,31,4,5,Français,M,9,0.9,-3.13638169,0.48752638
65498af02717744d9946615d,50,1,2024-02-28T14:45:09.539Z,french_367.wav,0,poule,993,31,4,5,Français,M,10,1.0,29.03856774,0.21358708
65498af02717744d9946615d,50,1,2024-02-28T14:45:09.539Z,french_367.wav,0,poule,993,31,4,5,Français,M,11,1.1,-14.77542226,0.34158708
65498af02717744d9946615d,50,1,2024-02-28T14:45:09.539Z,french_367.wav,0,poule,993,31,4,5,Français,M,12,1.14141667,-39.4710146,1.96821169
65498af02717744d9946615d,51,1,2024-02-28T14:45:09.539Z,french_678.wav,0,poule,1841,31,4,5,Français,M,0,0.0,24.19483128,0.81436077
65498af02717744d9946615d,51,1,2024-02-28T14:45:09.539Z,french_678.wav,0,poule,1841,31,4,5,Français,M,1,0.1,-47.51642543,1.1125399
65498af02717744d9946615d,51,1,2024-02-28T14:45:09.539Z,french_678.wav,0,poule,1841,31,4,5,Français,M,2,0.2,-3.91811007,1.61070048
65498af02717744d9946615d,51,1,2024-02-28T14:45:09.539Z,french_678.wav,0,poule,1841,31,4,5,Français,M,3,0.3,32.18517105,1.15077733
65498af02717744d9946615d,51,1,2024-02-28T14:45:09.539Z,french_678.wav,0,poule,1841,31,4,5,Français,M,4,0.4,-21.87097974,1.20781999
65498af02717744d9946615d,51,1,2024-02-28T14:45:09.539Z,french_678.wav,0,poule,1841,31,4,5,Français,M,5,0.5,28.51645426,0.74457904
65498af02717744d9946615d,51,1,2024-02-28T14:45:09.539Z,french_678.wav,0,poule,1841,31,4,5,Français,M,6,0.6,52.47804835,1.7292018
65498af02717744d9946615d,51,1,2024-02-28T14:45:09.539Z,french_678.wav,0,poule,1841,31,4,5,Français,M,7,0.7,10.55383211,1.1823552
65498af02717744d9946615d,51,1,2024-02-28T14:45:09.539Z,french_678.wav,0,poule,1841,31,4,5,Français,M,8,0.8,89.68033024,1.55182719
65498af02717744d9946615d,51,1,2024-02-28T14:45:09.539Z,french_678.wav,0,poule,1841,31,4,5,Français,M,9,0.9,-20.04322085,0.17890882
65498af02717744d9946615d,51,1,2024-02-28T14:45:09.539Z,french_678.wav,0,poule,1841,31,4,5,Français,M,10,1.0,-64.98612207,0.04333149
65498af02717744d9946615d,51,1,2024-02-28T14:45:09.539Z,french_678.wav,0,poule,1841,31,4,5,Français,M,11,1.1,75.98214859,1.23856993
65498af02717744d9946615d,51,1,2024-02-28T14:45:09.539Z,french_678.wav,0,poule,1841,31,4,5,Français,M,12,1.14141667,82.29835908,1.33756429
65498af02717744d9946615d,52,1,2024-02-28T14:45:09.539Z,french_679.wav,0,poule,291,31,4,5,Français,M,0,0.0,-14.70734509,1.46597583
65498af02717744d9946615d,52,1,2024-02-28T14:45:09.539Z,french_679.wav,0,poule,291,31,4,5,Français,M,1,0.1,-71.06769053,1.54510521
65498af02717744d9946615d,52,1,2024-02-28T14:45:09.539Z,french_679.wav,0,poule,291,31,4,5,Français,M,2,0.2,0.78593543,0.85896876
65498af02717744d9946615d,52,1,2024-02-28T14:45:09.539Z,french_679.wav,0,poule,291,31,4,5,Français,M,3,0.3,21.61945259,0.42109755
65498af02717744d9946615d,52,1,2024-02-28T14:45:09.539Z,french_679.wav,0,poule,291,31,4,5,Français,M,4,0.4,-93.25434466,0.86545886
65498af02717744d9946615d,52,1,2024-02-28T14:45:09.539Z,french_679.wav,0,poule,291,31,4,5,Français,M,5,0.5,-11.67449827,0.11204976
65498af02717744d9946615d,52,1,2024-02-28T14:45:09.539Z,french_679.wav,0,poule,291,31,4,5,Français,M,6,0.6,-39.79898507,1.27761458
65498af02717744d9946615d,52,1,2024-02-28T14:45:09.539Z,french_679.wav,0,poule,291,31,4,5,Français,M,7,0.7,-44.77239166,1.34435357
65498af02717744d9946615d,52,1,2024-02-28T14:45:09.539Z,french_679.wav,0,poule,291,31,4,5,Français,M,8,0.8,-59.78561396,0.62354184
65498af02717744d9946615d,52,1,2024-02-28T14:45:09.539Z,french_679.wav,0,poule,291,31,4,5,Français,M,9,0.9,18.05772854,0.28507196
65498af02717744d9946615d,52,1,2024-02-28T14:45:09.539Z,french_679.wav,0,poule,291,31,4,5,Français,M,10,1.0,47.53619055,1.41472683
65498af02717744d9946615d,52,1,2024-02-28T14:45:09.539Z,french_679.wav,0,poule,291,31,4,5,Français,M,11,1.1,9.35196461,0.97298944
65498af02717744d9946615d,52,1,2024-02-28T14:45:09.539Z,french_679.wav,0,poule,291,31,4,5,Français,M,12,1.14141667,-39.99964019,0.81950462
65498af02717744d9946615d,53,1,2024-02-28T14:45:09.539Z,french_64.wav,0,poule,98,31,4,5,Français,M,0,0.0,81.21142121,1.90047577
65498af02717744d9946615d,53,1,2024-02-28T14:45:09.539Z,french_64.wav,0,poule,98,31,4,5,Français,M,1,0.1,52.51696492,0.82684284
65498af02717744d9946615d,53,1,2024-02-28T14:45:09.539Z,french_64.wav,0,poule,98,31,4,5,Français,M,2,0.2,-39.17561774,1.63922719
65498af02717744d9946615d,53,1,2024-02-28T14:45:09.539Z,french_64.wav,0,poule,98,31,4,5,Français,M,3,0.3,-2.55926089,1.09796892
65498af02717744d9946615d,53,1,2024-02-28T14:45:09.539Z,french_64.wav,0,poule,98,31,4,5,Français,M,4,0.4,-19.82016782,1.84824586
65498af02717744d9946615d,53,1,2024-02-28T14:45:09.539Z,french_64.wav,0,poule,98,31,4,5,Français,M,5,0.5,-96.27205137,0.08398419
65498af02717744d9946615d,53,1,2024-02-28T14:45:09.539Z,french_64.wav,0,poule,98,31,4,5,Français,M,6,0.6,-91.08602274,1.68744275
65498af02717744d9946615d,53,1,2024-02-28T14:45:09.539Z,french_64.wav,0,poule,98,31,4,5,Français,M,7,0.7,21.95313621,1.11317645
65498af02717744d9946615d,53,1,2024-02-28T14:45:09.539Z,french_64.wav,0,poule,98,31,4,5,Français,M,8,0.8,-83.87757175,0.69266869
65498af02717744d9946615d,53,1,2024-02-28T14:45:09.539Z,french_64.wav,0,poule,98,31,4,5,Français,M,9,0.9,-15.46224959,1.31844382
65498af02717744d9946615d,53,1,2024-02-28T14:45:09.539Z,french_64.wav,0,poule,98,31,4,5,Français,M,10,1.0,99.28922275,1.05971477
65498af02717744d9946615d,53,1,2024-02-28T14:45:09.539Z,french_64.wav,0,poule,98,31,4,5,Français,M,11,1.1,-34.89576086,1.50408115
65498af02717744d9946615d,53,1,2024-02-28T14:45:09.539Z,french_64.wav,0,poule,98,31,4,5,Français,M,12,1.14141667,-88.74649368,0.80519135
65498af02717744d9946615d,54,1,2024-02-28T14:45:09.539Z,french_2.wav,0,poule,388,31,4,5,Français,M,0,0.0,-86.87483072,0.90329499
65498af02717744d9946615d,54,1,2024-02-28T14:45:09.539Z,french_2.wav,0,poule,388,31,4,5,Français,M,1,0.1,30.88471,1.75440235
65498af02717744d9946615d,54,1,2024-02-28T14:45:09.539Z,french_2.wav,0,poule,388,31,4,5,Français,M,2,0.2,-63.05424844,0.77448186
65498af02717744d9946615d,54,1,2024-02-28T14:45:09.539Z,french_2.wav,0,poule,388,31,4,5,Français,M,3,0.3,51.55101831,0.99965543
65498af02717744d9946615d,54,1,2024-02-28T14:45:09.539Z,french_2.wav,0,poule,388,31,4,5,Français,M,4,0.4,-97.82970137,0.9023396
65498af02717744d9946615d,54,1,2024-02-28T14:45:09.539Z,french_2.wav,0,poule,388,31,4,5,Français,M,5,0.5,51.42109266,1.28884098
65498af02717744d9946615d,54,1,2024-02-28T14:45:09.539Z,french_2.wav,0,poule,388,31,4,5,Français,M,6,0.6,-29.2060834,1.83503208
65498af02717744d9946615d,54,1,2024-02-28T14:45:09.539Z,french_2.wav,0,poule,388,31,4,5,Français,M,7,0.7,90.68379187,0.07032507
65498af02717744d9946615d,54,1,2024-02-28T14:45:09.539Z,french_2.wav,0,poule,388,31,4,5,Français,M,8,0.8,-68.59815448,1.25711652
65498af02717744d9946615d,54,1,2024-02-28T14:45:09.539Z,french_2.wav,0,poule,388,31,4,5,Français,M,9,0.9,51.41543925,1.0016667
65498af02717744d9946615d,54,1,2024-02-28T14:45:09.539Z,french_2.wav,0,poule,388,31,4,5,Français,M,10,1.0,-33.48006024,0.4903742
65498af02717744d9946615d,54,1,2024-02-28T14:45:09.539Z,french_2.wav,0,poule,388,31,4,5,Français,M,11,1.1,2.14765409,1.09021934
65498af02717744d9946615d,54,1,2024-02-28T14:45:09.539Z,french_2.wav,0,poule,388,31,4,5,Français,M,12,1.14141667,40.23091812,0.46007065
65498af02717744d9946615d,55,1,2024-02-28T14:45:09.539Z,french_565.wav,0,poule,534,31,4,5,Français,M,0,0.0,0.585165,0.26159772
65498af02717744d9946615d,55,1,2024-02-28T14:45:09.539Z,french_565.wav,0,poule,534,31,4,5,Français,M,1,0.1,-99.74430453,1.35463958
65498af02717744d9946615d,55,1,2024-02-28T14:45:09.539Z,french_565.wav,0,poule,534,31,4,5,Français,M,2,0.2,73.97300907,0.79800853
65498af02717744d9946615d,55,1,2024-02-28T14:45:09.539Z,french_565.wav,0,poule,534,31,4,5,Français,M,3,0.3,76.14302968,0.70220334
65498af02717744d9946615d,55,1,2024-02-28T14:45:09.539Z,french_565.wav,0,poule,534,31,4,5,Français,M,4,0.4,-25.912968,0.38968447
65498af02717744d9946615d,55,1,2024-02-28T14:45:09.539Z,french_565.wav,0,poule,534,31,4,5,Français,M,5,0.5,88.19313139,1.44406164
65498af02717744d9946615d,55,1,2024-02-28T14:45:09.539Z,french_565.wav,0,poule,534,31,4,5,Français,M,6,0.6,23.1864268,0.77293029
65498af02717744d9946615d,55,1,2024-02-28T14:45:09.539Z,french_565.wav,0,poule,534,31,4,5,Français,M,7,0.7,-74.78081936,1.12629863
65498af02717744d9946615d,55,1,2024-02-28T14:45:09.539Z,french_565.wav,0,poule,534,31,4,5,Français,M,8,0.8,-34.15972358,0.82303267
65498af02717744d9946615d,55,1,2024-02-28T14:45:09.539Z,french_565.wav,0,poule,534,31,4,5,Français,M,9,0.9,90.90613763,0.79000813
65498af02717744d9946615d,55,1,2024-02-28T14:45:09.539Z,french_565.wav,0,poule,534,31,4,5,Français,M,10,1.0,37.81791402,0.32691118
65498af02717744d9946615d,55,1,2024-02-28T14:45:09.539Z,french_565.wav,0,poule,534,31,4,5,Français,M,11,1.1,82.39926491,1.78972447
65498af02717744d9946615d,55,1,2024-02-28T14:45:09.539Z,french_565.wav,0,poule,534,31,4,5,Français,M,12,1.14141667,-44.95242237,1.24039757
65498af02717744d9946615d,56,1,2024-02-28T14:45:09.539Z,french_284.wav,0,poule,686,31,4,5,Français,M,0,0.0,16.48622703,0.51717934
65498af02717744d9946615d,56,1,2024-02-28T14:45:09.539Z,french_284.wav,0,poule,686,31,4,5,Français,M,1,0.1,2.26495014,1.60229173
65498af02717744d9946615d,56,1,2024-02-28T14:45:09.539Z,french_284.wav,0,poule,686,31,4,5,Français,M,2,0.2,18.12009667,1.8758053
65498af02717744d9946615d,56,1,2024-02-28T14:45:09.539Z,french_284.wav,0,poule,686,31,4,5,Français,M,3,0.3,62.57261775,1.66078305
65498af02717744d9946615d,56,1,2024-02-28T14:45:09.539Z,french_284.wav,0,poule,686,31,4,5,Français,M,4,0.4,38.21878831,0.36271544
65498af02717744d9946615d,56,1,2024-02-28T14:45:09.539Z,french_284.wav,0,poule,686,31,4,5,Français,M,5,0.5,-10.58729406,0.67338252
65498af02717744d9946615d,56,1,2024-02-28T14:45:09.539Z,french_284.wav,0,poule,686,31,4,5,Français,M,6,0.6,-28.71227124,0.95589202
65498af02717744d9946615d,56,1,2024-02-28T14:45:09.539Z,french_284.wav,0,poule,686,31,4,5,Français,M,7,0.7,33.18992905,0.48081388
65498af02717744d9946615d,56,1,2024-02-28T14:45:09.539Z,french_284.wav,0,poule,686,31,4,5,Français,M,8,0.8,42.51171858,1.37144398
65498af02717744d9946615d,56,1,2024-02-28T14:45:09.539Z,french_284.wav,0,poule,686,31,4,5,Français,M,9,0.9,-0.53891245,0.67164097
65498af02717744d9946615d,56,1,2024-02-28T14:45:09.539Z,french_284.wav,0,poule,686,31,4,5,Français,M,10,1.0,-90.42609214,0.62108777
65498af02717744d9946615d,56,1,2024-02-28T14:45:09.539Z,french_284.wav,0,poule,686,31,4,5,Français,M,11,1.1,29.69063186,0.42350623
65498af02717744d9946615d,56,1,2024-02-28T14:45:09.539Z,french_284.wav,0,poule,686,31,4,5,Français,M,12,1.14141667,74.07567772,1.43401958
65498af02717744d9946615d,57,1,2024-02-28T14:45:09.539Z,french_1000.wav,0,poule,588,31,4,5,Français,M,0,0.0,-73.98132077,1.64837678
65498af02717744d9946615d,57,1,2024-02-28T14:45:09.539Z,french_1000.wav,0,poule,588,31,4,5,Français,M,1,0.1,-83.83733432,1.32001696
65498af02717744d9946615d,57,1,2024-02-28T14:45:09.539Z,french_1000.wav,0,poule,588,31,4,5,Français,M,2,0.2,-83.30675493,0.03425321
65498af02717744d9946615d,57,1,2024-02-28T14:45:09.539Z,french_1000.wav,0,poule,588,31,4,5,Français,M,3,0.3,-49.21206924,0.20047346
65498af02717744d9946615d,57,1,2024-02-28T14:45:09.539Z,french_1000.wav,0,poule,588,31,4,5,Français,M,4,0.4,-37.38094521,0.89388677
65498af02717744d9946615d,57,1,2024-02-28T14:45:09.539Z,french_1000.wav,0,poule,588,31,4,5,Français,M,5,0.5,-61.96244664,0.07979432
65498af02717744d9946615d,57,1,2024-02-28T14:45:09.539Z,french_1000.wav,0,poule,588,31,4,5,Français,M,6,0.6,40.57719873,0.5706929
65498af02717744d9946615d,57,1,2024-02-28T14:45:09.539Z,french_1000.wav,0,poule,588,31,4,5,Français,M,7,0.7,45.24625978,1.02426669
65498af02717744d9946615d,57,1,2024-02-28T14:45:09.539Z,french_1000.wav,0,poule,588,31,4,5,Français,M,8,0.8,29.16975885,0.29678573
65498af02717744d9946615d,57,1,2024-02-28T14:45:09.539Z,french_1000.wav,0,poule,588,31,4,5,Français,M,9,0.9,53.55403055,1.45432924
65498af02717744d9946615d,57,1,2024-02-28T14:45:09.539Z,french_1000.wav,0,poule,588,31,4,5,Français,M,10,1.0,28.77440397,1.18477249
65498af02717744d9946615d,57,1,2024-02-28T14:45:09.539Z,french_1000.wav,0,poule,588,31,4,5,Français,M,11,1.1,66.56850724,1.17453204
65498af02717744d9946615d,57,1,2024-02-28T14:45:09.539Z,french_1000.wav,0,poule,588,31,4,5,Français,M,12,1.14141667,38.69421955,1.53712703
65498af02717744d9946615d,58,1,2024-02-28T14:45:09.539Z,french_249.wav,0,poule,1285,31,4,5,Français,M,0,0.0,60.2084808,0.86559925
65498af02717744d9946615d,58,1,2024-02-28T14:45:09.539Z,french_249.wav,0,poule,1285,31,4,5,Français,M,1,0.1,33.79766745,1.55064503
65498af02717744d9946615d,58,1,2024-02-28T14:45:09.539Z,french_249.wav,0,poule,1285,31,4,5,Français,M,2,0.2,-67.19130294,1.44078258
65498af02717744d9946615d,58,1,2024-02-28T14:45:09.539Z,french_249.wav,0,poule,1285,31,4,5,Français,M,3,0.3,-89.07860563,1.18134184
65498af02717744d9946615d,58,1,2024-02-28T14:45:09.539Z,french_249.wav,0,poule,1285,31,4,5,Français,M,4,0.4,55.46525036,1.70386756
65498af02717744d9946615d,58,1,2024-02-28T14:45:09.539Z,french_249.wav,0,poule,1285,31,4,5,Français,M,5,0.5,-26.3415238,0.52002409
65498af02717744d9946615d,58,1,2024-02-28T14:45:09.539Z,french_249.wav,0,poule,1285,31,4,5,Français,M,6,0.6,51.34404516,1.32158866
65498af02717744d9946615d,58,1,2024-02-28T14:45:09.539Z,french_249.wav,0,poule,1285,31,4,5,Français,M,7,0.7,-29.32821096,1.15452897
65498af02717744d9946615d,58,1,2024-02-28T14:45:09.539Z,french_249.wav,0,poule,1285,31,4,5,Français,M,8,0.8,50.27991968,0.19271394
65498af02717744d9946615d,58,1,2024-02-28T14:45:09.539Z,french_249.wav,0,poule,1285,31,4,5,Français,M,9,0.9,-10.43676988,1.46688151
65498af02717744d9946615d,58,1,2024-02-28T14:45:09.539Z,french_249.wav,0,poule,1285,31,4,5,Français,M,10,1.0,5.00839112,0.5650028
65498af02717744d9946615d,58,1,2024-02-28T14:45:09.539Z,french_249.wav,0,poule,1285,31,4,5,Français,M,11,1.1,24.89196533,0.4009333
65498af02717744d9946615d,58,1,2024-02-28T14:45:09.539Z,french_249.wav,0,poule,1285,31,4,5,Français,M,12,1.14141667,1.54565791,0.66216287
65498af02717744d9946615d,59,1,2024-02-28T14:45:09.539Z,french_927.wav,0,poule,198,31,4,5,Français,M,0,0.0,-46.05593581,0.51738485
65498af02717744d9946615d,59,1,2024-02-28T14:45:09.539Z,french_927.wav,0,poule,198,31,4,5,Français,M,1,0.1,62.22976421,1.31954079
