subj,trial,block,date,stim,stim_order,response,rt,age,english,french,language,sex,param_index,segment,pitch,stretch
5ca1196fffab4a00149a02a9,0,0,2024-02-27T11:17:25.331Z,french_976.wav,0,pull,2760,27,4,5,franças,f,0,0.0,-62.96972063,0.28137182
5ca1196fffab4a00149a02a9,0,0,2024-02-27T11:17:25.331Z,french_976.wav,0,pull,2760,27,4,5,franças,f,1,0.1,-26.61167246,1.36324422
5ca1196fffab4a00149a02a9,0,0,2024-02-27T11:17:25.331Z,french_976.wav,0,pull,2760,27,4,5,franças,f,2,0.2,44.65744226,0.73559884
5ca1196fffab4a00149a02a9,0,0,2024-02-27T11:17:25.331Z,french_976.wav,0,pull,2760,27,4,5,franças,f,3,0.3,-45.10081954,0.69765519
5ca1196fffab4a00149a02a9,0,0,2024-02-27T11:17:25.331Z,french_976.wav,0,pull,2760,27,4,5,franças,f,4,0.4,-19.39771586,1.05398301
5ca1196fffab4a00149a02a9,0,0,2024-02-27T11:17:25.331Z,french_976.wav,0,pull,2760,27,4,5,franças,f,5,0.5,-6.74330021,0.92767004
5ca1196fffab4a00149a02a9,0,0,2024-02-27T11:17:25.331Z,french_976.wav,0,pull,2760,27,4,5,franças,f,6,0.6,-92.2188675,1.8670127
5ca1196fffab4a00149a02a9,0,0,2024-02-27T11:17:25.331Z,french_976.wav,0,pull,2760,27,4,5,franças,f,7,0.7,3.8955825,0.42732482
5ca1196fffab4a00149a02a9,0,0,2024-02-27T11:17:25.331Z,french_976.wav,0,pull,2760,27,4,5,franças,f,8,0.8,-58.18459979,1.04518319
5ca1196fffab4a00149a02a9,0,0,2024-02-27T11:17:25.331Z,french_976.wav,0,pull,2760,27,4,5,franças,f,9,0.9,47.27824977,0.19121007
5ca1196fffab4a00149a02a9,0,0,2024-02-27T11:17:25.331Z,french_976.wav,0,pull,2760,27,4,5,franças,f,10,1.0,21.78065118,0.50101639
5ca1196fffab4a00149a02a9,0,0,2024-02-27T11:17:25.331Z,french_976.wav,0,pull,2760,27,4,5,franças,f,11,1.1,-34.33033459,0.92471972
5ca1196fffab4a00149a02a9,0,0,2024-02-27T11:17:25.331Z,french_976.wav,0,pull,2760,27,4,5,franças,f,12,1.14141667,59.55841944,0.33119465
5ca1196fffab4a00149a02a9,1,0,2024-02-27T11:17:25.331Z,french_914.wav,0,poule,252,27,4,5,franças,f,0,0.0,79.95241149,1.70123976
5ca1196fffab4a00149a02a9,1,0,2024-02-27T11:17:25.331Z,french_914.wav,0,poule,252,27,4,5,franças,f,1,0.1,-65.45578173,1.16294222
5ca1196fffab4a00149a02a9,1,0,2024-02-27T11:17:25.331Z,french_914.wav,0,poule,252,27,4,5,franças,f,2,0.2,-34.41519325,1.81604524
5ca1196fffab4a00149a02a9,1,0,2024-02-27T11:17:25.331Z,french_914.wav,0,poule,252,27,4,5,franças,f,3,0.3,38.48230949,0.26183363
5ca1196fffab4a00149a02a9,1,0,2024-02-27T11:17:25.331Z,french_914.wav,0,poule,252,27,4,5,franças,f,4,0.4,64.05646687,1.16023808
5ca1196fffab4a00149a02a9,1,0,2024-02-27T11:17:25.331Z,french_914.wav,0,poule,252,27,4,5,franças,f,5,0.5,42.76609293,0.78601448
5ca1196fffab4a00149a02a9,1,0,2024-02-27T11:17:25.331Z,french_914.wav,0,poule,252,27,4,5,franças,f,6,0.6,43.76059306,0.22240252
5ca1196fffab4a00149a02a9,1,0,2024-02-27T11:17:25.331Z,french_914.wav,0,poule,252,27,4,5,franças,f,7,0.7,-40.85862295,0.92550901
5ca1196fffab4a00149a02a9,1,0,2024-02-27T11:17:25.331Z,french_914.wav,0,poule,252,27,4,5,franças,f,8,0.8,-7.68978463,1.56491044
5ca1196fffab4a00149a02a9,1,0,2024-02-27T11:17:25.331Z,french_914.wav,0,poule,252,27,4,5,franças,f,9,0.9,-34.17758246,1.71737079
5ca1196fffab4a00149a02a9,1,0,2024-02-27T11:17:25.331Z,french_914.wav,0,poule,252,27,4,5,franças,f,10,1.0,-15.53383771,1.35150503
5ca1196fffab4a00149a02a9,1,0,2024-02-27T11:17:25.331Z,french_914.wav,0,poule,252,27,4,5,franças,f,11,1.1,40.53193297,0.89943186
5ca1196fffab4a00149a02a9,1,0,2024-02-27T11:17:25.331Z,french_914.wav,0,poule,252,27,4,5,franças,f,12,1.14141667,27.68989524,1.16382615
5ca1196fffab4a00149a02a9,2,0,2024-02-27T11:17:25.331Z,french_69.wav,0,poule,161,27,4,5,franças,f,0,0.0,-36.62351927,0.71535059
5ca1196fffab4a00149a02a9,2,0,2024-02-27T11:17:25.331Z,french_69.wav,0,poule,161,27,4,5,franças,f,1,0.1,4.01465427,1.17148796
5ca1196fffab4a00149a02a9,2,0,2024-02-27T11:17:25.331Z,french_69.wav,0,poule,161,27,4,5,franças,f,2,0.2,27.63080147,0.35560456
5ca1196fffab4a00149a02a9,2,0,2024-02-27T11:17:25.331Z,french_69.wav,0,poule,161,27,4,5,franças,f,3,0.3,-92.04388741,0.7069056
5ca1196fffab4a00149a02a9,2,0,2024-02-27T11:17:25.331Z,french_69.wav,0,poule,161,27,4,5,franças,f,4,0.4,-59.31042768,0.9774701
5ca1196fffab4a00149a02a9,2,0,2024-02-27T11:17:25.331Z,french_69.wav,0,poule,161,27,4,5,franças,f,5,0.5,43.60815293,0.2035579
5ca1196fffab4a00149a02a9,2,0,2024-02-27T11:17:25.331Z,french_69.wav,0,poule,161,27,4,5,franças,f,6,0.6,-63.68314416,0.16150137
5ca1196fffab4a00149a02a9,2,0,2024-02-27T11:17:25.331Z,french_69.wav,0,poule,161,27,4,5,franças,f,7,0.7,-73.22650439,1.58821877
5ca1196fffab4a00149a02a9,2,0,2024-02-27T11:17:25.331Z,french_69.wav,0,poule,161,27,4,5,franças,f,8,0.8,-84.37177593,0.45505702
5ca1196fffab4a00149a02a9,2,0,2024-02-27T11:17:25.331Z,french_69.wav,0,poule,161,27,4,5,franças,f,9,0.9,-63.66539126,1.13448396
5ca1196fffab4a00149a02a9,2,0,2024-02-27T11:17:25.331Z,french_69.wav,0,poule,161,27,4,5,franças,f,10,1.0,-82.4132666,0.20707812
5ca1196fffab4a00149a02a9,2,0,2024-02-27T11:17:25.331Z,french_69.wav,0,poule,161,27,4,5,franças,f,11,1.1,92.98635378,1.81964904
5ca1196fffab4a00149a02a9,2,0,2024-02-27T11:17:25.331Z,french_69.wav,0,poule,161,27,4,5,franças,f,12,1.14141667,19.17845997,1.19989054
5ca1196fffab4a00149a02a9,3,0,2024-02-27T11:17:25.331Z,french_75.wav,0,pull,214,27,4,5,franças,f,0,0.0,-31.46725126,0.18788062
5ca1196fffab4a00149a02a9,3,0,2024-02-27T11:17:25.331Z,french_75.wav,0,pull,214,27,4,5,franças,f,1,0.1,-34.17215403,0.31152777
5ca1196fffab4a00149a02a9,3,0,2024-02-27T11:17:25.331Z,french_75.wav,0,pull,214,27,4,5,franças,f,2,0.2,8.45821843,1.12489201
5ca1196fffab4a00149a02a9,3,0,2024-02-27T11:17:25.331Z,french_75.wav,0,pull,214,27,4,5,franças,f,3,0.3,-14.15557124,0.40173542
5ca1196fffab4a00149a02a9,3,0,2024-02-27T11:17:25.331Z,french_75.wav,0,pull,214,27,4,5,franças,f,4,0.4,-1.12003523,1.76453227
5ca1196fffab4a00149a02a9,3,0,2024-02-27T11:17:25.331Z,french_75.wav,0,pull,214,27,4,5,franças,f,5,0.5,64.22912093,0.50596543
5ca1196fffab4a00149a02a9,3,0,2024-02-27T11:17:25.331Z,french_75.wav,0,pull,214,27,4,5,franças,f,6,0.6,15.15529712,1.35509753
5ca1196fffab4a00149a02a9,3,0,2024-02-27T11:17:25.331Z,french_75.wav,0,pull,214,27,4,5,franças,f,7,0.7,52.79547505,1.81718532
5ca1196fffab4a00149a02a9,3,0,2024-02-27T11:17:25.331Z,french_75.wav,0,pull,214,27,4,5,franças,f,8,0.8,-1.57925774,0.01325032
5ca1196fffab4a00149a02a9,3,0,2024-02-27T11:17:25.331Z,french_75.wav,0,pull,214,27,4,5,franças,f,9,0.9,-73.8150831,0.90639085
5ca1196fffab4a00149a02a9,3,0,2024-02-27T11:17:25.331Z,french_75.wav,0,pull,214,27,4,5,franças,f,10,1.0,72.48639601,1.40519245
5ca1196fffab4a00149a02a9,3,0,2024-02-27T11:17:25.331Z,french_75.wav,0,pull,214,27,4,5,franças,f,11,1.1,-67.8673094,1.96824695
5ca1196fffab4a00149a02a9,3,0,2024-02-27T11:17:25.331Z,french_75.wav,0,pull,214,27,4,5,franças,f,12,1.14141667,-33.85568045,0.97531331
5ca1196fffab4a00149a02a9,4,0,2024-02-27T11:17:25.331Z,french_210.wav,0,pull,253,27,4,5,franças,f,0,0.0,46.17077018,0.5132537
5ca1196fffab4a00149a02a9,4,0,2024-02-27T11:17:25.331Z,french_210.wav,0,pull,253,27,4,5,franças,f,1,0.1,25.55565597,0.67749198
5ca1196fffab4a00149a02a9,4,0,2024-02-27T11:17:25.331Z,french_210.wav,0,pull,253,27,4,5,franças,f,2,0.2,36.32492907,1.14472202
5ca1196fffab4a00149a02a9,4,0,2024-02-27T11:17:25.331Z,french_210.wav,0,pull,253,27,4,5,franças,f,3,0.3,-9.73563195,1.55169683
5ca1196fffab4a00149a02a9,4,0,2024-02-27T11:17:25.331Z,french_210.wav,0,pull,253,27,4,5,franças,f,4,0.4,51.38553925,0.41542617
5ca1196fffab4a00149a02a9,4,0,2024-02-27T11:17:25.331Z,french_210.wav,0,pull,253,27,4,5,franças,f,5,0.5,-7.69265437,1.65520704
5ca1196fffab4a00149a02a9,4,0,2024-02-27T11:17:25.331Z,french_210.wav,0,pull,253,27,4,5,franças,f,6,0.6,-6.88231676,0.27196657
5ca1196fffab4a00149a02a9,4,0,2024-02-27T11:17:25.331Z,french_210.wav,0,pull,253,27,4,5,franças,f,7,0.7,-70.20980639,0.37685367
5ca1196fffab4a00149a02a9,4,0,2024-02-27T11:17:25.331Z,french_210.wav,0,pull,253,27,4,5,franças,f,8,0.8,-38.00293126,0.10674289
5ca1196fffab4a00149a02a9,4,0,2024-02-27T11:17:25.331Z,french_210.wav,0,pull,253,27,4,5,franças,f,9,0.9,31.75411594,0.64849757
5ca1196fffab4a00149a02a9,4,0,2024-02-27T11:17:25.331Z,french_210.wav,0,pull,253,27,4,5,franças,f,10,1.0,72.77428796,1.72661409
5ca1196fffab4a00149a02a9,4,0,2024-02-27T11:17:25.331Z,french_210.wav,0,pull,253,27,4,5,franças,f,11,1.1,-58.88778719,1.75041049
5ca1196fffab4a00149a02a9,4,0,2024-02-27T11:17:25.331Z,french_210.wav,0,pull,253,27,4,5,franças,f,12,1.14141667,3.90767487,0.37160501
5ca1196fffab4a00149a02a9,5,0,2024-02-27T11:17:25.331Z,french_331.wav,0,pull,408,27,4,5,franças,f,0,0.0,-5.76763244,0.44927082
5ca1196fffab4a00149a02a9,5,0,2024-02-27T11:17:25.331Z,french_331.wav,0,pull,408,27,4,5,franças,f,1,0.1,-52.64550288,0.18129642
5ca1196fffab4a00149a02a9,5,0,2024-02-27T11:17:25.331Z,french_331.wav,0,pull,408,27,4,5,franças,f,2,0.2,33.91369618,1.34006101
5ca1196fffab4a00149a02a9,5,0,2024-02-27T11:17:25.331Z,french_331.wav,0,pull,408,27,4,5,franças,f,3,0.3,2.76494439,1.82406292
5ca1196fffab4a00149a02a9,5,0,2024-02-27T11:17:25.331Z,french_331.wav,0,pull,408,27,4,5,franças,f,4,0.4,28.25566851,0.80324024
5ca1196fffab4a00149a02a9,5,0,2024-02-27T11:17:25.331Z,french_331.wav,0,pull,408,27,4,5,franças,f,5,0.5,-26.62339469,0.48532471
5ca1196fffab4a00149a02a9,5,0,2024-02-27T11:17:25.331Z,french_331.wav,0,pull,408,27,4,5,franças,f,6,0.6,-38.99536657,0.16806237
5ca1196fffab4a00149a02a9,5,0,2024-02-27T11:17:25.331Z,french_331.wav,0,pull,408,27,4,5,franças,f,7,0.7,-41.39460314,1.79111184
5ca1196fffab4a00149a02a9,5,0,2024-02-27T11:17:25.331Z,french_331.wav,0,pull,408,27,4,5,franças,f,8,0.8,-52.63700737,0.66376549
5ca1196fffab4a00149a02a9,5,0,2024-02-27T11:17:25.331Z,french_331.wav,0,pull,408,27,4,5,franças,f,9,0.9,-41.88182254,0.25387795
5ca1196fffab4a00149a02a9,5,0,2024-02-27T11:17:25.331Z,french_331.wav,0,pull,408,27,4,5,franças,f,10,1.0,28.65752822,0.21815643
5ca1196fffab4a00149a02a9,5,0,2024-02-27T11:17:25.331Z,french_331.wav,0,pull,408,27,4,5,franças,f,11,1.1,11.07498327,1.03351958
5ca1196fffab4a00149a02a9,5,0,2024-02-27T11:17:25.331Z,french_331.wav,0,pull,408,27,4,5,franças,f,12,1.14141667,-55.36680151,0.55793758
5ca1196fffab4a00149a02a9,6,0,2024-02-27T11:17:25.331Z,french_978.wav,0,pull,353,27,4,5,franças,f,0,0.0,40.36214047,1.71110023
5ca1196fffab4a00149a02a9,6,0,2024-02-27T11:17:25.331Z,french_978.wav,0,pull,353,27,4,5,franças,f,1,0.1,27.48362985,0.87420818
5ca1196fffab4a00149a02a9,6,0,2024-02-27T11:17:25.331Z,french_978.wav,0,pull,353,27,4,5,franças,f,2,0.2,40.29852831,1.60194799
5ca1196fffab4a00149a02a9,6,0,2024-02-27T11:17:25.331Z,french_978.wav,0,pull,353,27,4,5,franças,f,3,0.3,-43.85061163,1.28609491
5ca1196fffab4a00149a02a9,6,0,2024-02-27T11:17:25.331Z,french_978.wav,0,pull,353,27,4,5,franças,f,4,0.4,67.88325766,1.65987261
5ca1196fffab4a00149a02a9,6,0,2024-02-27T11:17:25.331Z,french_978.wav,0,pull,353,27,4,5,franças,f,5,0.5,-16.70318953,1.36246258
5ca1196fffab4a00149a02a9,6,0,2024-02-27T11:17:25.331Z,french_978.wav,0,pull,353,27,4,5,franças,f,6,0.6,-33.19947882,1.20639467
5ca1196fffab4a00149a02a9,6,0,2024-02-27T11:17:25.331Z,french_978.wav,0,pull,353,27,4,5,franças,f,7,0.7,50.84300547,0.49083377
5ca1196fffab4a00149a02a9,6,0,2024-02-27T11:17:25.331Z,french_978.wav,0,pull,353,27,4,5,franças,f,8,0.8,85.59312257,0.35642981
5ca1196fffab4a00149a02a9,6,0,2024-02-27T11:17:25.331Z,french_978.wav,0,pull,353,27,4,5,franças,f,9,0.9,-72.45512146,1.25854162
5ca1196fffab4a00149a02a9,6,0,2024-02-27T11:17:25.331Z,french_978.wav,0,pull,353,27,4,5,franças,f,10,1.0,-13.92502552,1.89656772
5ca1196fffab4a00149a02a9,6,0,2024-02-27T11:17:25.331Z,french_978.wav,0,pull,353,27,4,5,franças,f,11,1.1,24.95517316,1.25997973
5ca1196fffab4a00149a02a9,6,0,2024-02-27T11:17:25.331Z,french_978.wav,0,pull,353,27,4,5,franças,f,12,1.14141667,-51.28447362,1.23391695
5ca1196fffab4a00149a02a9,7,0,2024-02-27T11:17:25.331Z,french_426.wav,0,pull,726,27,4,5,franças,f,0,0.0,-6.32763113,1.69747545
5ca1196fffab4a00149a02a9,7,0,2024-02-27T11:17:25.331Z,french_426.wav,0,pull,726,27,4,5,franças,f,1,0.1,52.57695115,0.44356632
5ca1196fffab4a00149a02a9,7,0,2024-02-27T11:17:25.331Z,french_426.wav,0,pull,726,27,4,5,franças,f,2,0.2,41.60389797,0.19149228
5ca1196fffab4a00149a02a9,7,0,2024-02-27T11:17:25.331Z,french_426.wav,0,pull,726,27,4,5,franças,f,3,0.3,-8.66153644,0.04934427
5ca1196fffab4a00149a02a9,7,0,2024-02-27T11:17:25.331Z,french_426.wav,0,pull,726,27,4,5,franças,f,4,0.4,21.98741159,1.95400703
5ca1196fffab4a00149a02a9,7,0,2024-02-27T11:17:25.331Z,french_426.wav,0,pull,726,27,4,5,franças,f,5,0.5,7.59234245,0.49820864
5ca1196fffab4a00149a02a9,7,0,2024-02-27T11:17:25.331Z,french_426.wav,0,pull,726,27,4,5,franças,f,6,0.6,70.82755328,0.51266747
5ca1196fffab4a00149a02a9,7,0,2024-02-27T11:17:25.331Z,french_426.wav,0,pull,726,27,4,5,franças,f,7,0.7,17.66979404,1.86795174
5ca1196fffab4a00149a02a9,7,0,2024-02-27T11:17:25.331Z,french_426.wav,0,pull,726,27,4,5,franças,f,8,0.8,-65.60181314,1.30935529
5ca1196fffab4a00149a02a9,7,0,2024-02-27T11:17:25.331Z,french_426.wav,0,pull,726,27,4,5,franças,f,9,0.9,-44.40728826,0.05861012
5ca1196fffab4a00149a02a9,7,0,2024-02-27T11:17:25.331Z,french_426.wav,0,pull,726,27,4,5,franças,f,10,1.0,-52.60669598,1.40782227
5ca1196fffab4a00149a02a9,7,0,2024-02-27T11:17:25.331Z,french_426.wav,0,pull,726,27,4,5,franças,f,11,1.1,-70.77145759,1.0203891
5ca1196fffab4a00149a02a9,7,0,2024-02-27T11:17:25.331Z,french_426.wav,0,pull,726,27,4,5,franças,f,12,1.14141667,-30.0338136,1.4169691
5ca1196fffab4a00149a02a9,8,0,2024-02-27T11:17:25.331Z,french_301.wav,0,poule,94,27,4,5,franças,f,0,0.0,-74.8330041,0.40422749
5ca1196fffab4a00149a02a9,8,0,2024-02-27T11:17:25.331Z,french_301.wav,0,poule,94,27,4,5,franças,f,1,0.1,-42.36556256,1.31557611
5ca1196fffab4a00149a02a9,8,0,2024-02-27T11:17:25.331Z,french_301.wav,0,poule,94,27,4,5,franças,f,2,0.2,29.77910085,1.74086911
5ca1196fffab4a00149a02a9,8,0,2024-02-27T11:17:25.331Z,french_301.wav,0,poule,94,27,4,5,franças,f,3,0.3,-74.81431941,1.69431103
5ca1196fffab4a00149a02a9,8,0,2024-02-27T11:17:25.331Z,french_301.wav,0,poule,94,27,4,5,franças,f,4,0.4,-25.28944569,1.37868954
5ca1196fffab4a00149a02a9,8,0,2024-02-27T11:17:25.331Z,french_301.wav,0,poule,94,27,4,5,franças,f,5,0.5,29.0029515,0.28360309
5ca1196fffab4a00149a02a9,8,0,2024-02-27T11:17:25.331Z,french_301.wav,0,poule,94,27,4,5,franças,f,6,0.6,34.72693125,0.61767447
5ca1196fffab4a00149a02a9,8,0,2024-02-27T11:17:25.331Z,french_301.wav,0,poule,94,27,4,5,franças,f,7,0.7,-16.79004454,1.75045889
5ca1196fffab4a00149a02a9,8,0,2024-02-27T11:17:25.331Z,french_301.wav,0,poule,94,27,4,5,franças,f,8,0.8,26.35678136,0.53263814
5ca1196fffab4a00149a02a9,8,0,2024-02-27T11:17:25.331Z,french_301.wav,0,poule,94,27,4,5,franças,f,9,0.9,86.40053407,1.81954283
5ca1196fffab4a00149a02a9,8,0,2024-02-27T11:17:25.331Z,french_301.wav,0,poule,94,27,4,5,franças,f,10,1.0,77.92366582,1.29035585
5ca1196fffab4a00149a02a9,8,0,2024-02-27T11:17:25.331Z,french_301.wav,0,poule,94,27,4,5,franças,f,11,1.1,26.81960796,0.14228037
5ca1196fffab4a00149a02a9,8,0,2024-02-27T11:17:25.331Z,french_301.wav,0,poule,94,27,4,5,franças,f,12,1.14141667,-13.29895884,0.79617371
5ca1196fffab4a00149a02a9,9,0,2024-02-27T11:17:25.331Z,french_459.wav,0,pull,382,27,4,5,franças,f,0,0.0,4.61060923,0.63045471
5ca1196fffab4a00149a02a9,9,0,2024-02-27T11:17:25.331Z,french_459.wav,0,pull,382,27,4,5,franças,f,1,0.1,56.90661814,0.25838891
5ca1196fffab4a00149a02a9,9,0,2024-02-27T11:17:25.331Z,french_459.wav,0,pull,382,27,4,5,franças,f,2,0.2,-64.88787295,1.34944263
5ca1196fffab4a00149a02a9,9,0,2024-02-27T11:17:25.331Z,french_459.wav,0,pull,382,27,4,5,franças,f,3,0.3,60.80306931,0.3412609
5ca1196fffab4a00149a02a9,9,0,2024-02-27T11:17:25.331Z,french_459.wav,0,pull,382,27,4,5,franças,f,4,0.4,-72.51163358,0.8026416
5ca1196fffab4a00149a02a9,9,0,2024-02-27T11:17:25.331Z,french_459.wav,0,pull,382,27,4,5,franças,f,5,0.5,-58.97655872,0.15800619
5ca1196fffab4a00149a02a9,9,0,2024-02-27T11:17:25.331Z,french_459.wav,0,pull,382,27,4,5,franças,f,6,0.6,-57.13693888,1.38177294
5ca1196fffab4a00149a02a9,9,0,2024-02-27T11:17:25.331Z,french_459.wav,0,pull,382,27,4,5,franças,f,7,0.7,91.43327587,1.01516397
5ca1196fffab4a00149a02a9,9,0,2024-02-27T11:17:25.331Z,french_459.wav,0,pull,382,27,4,5,franças,f,8,0.8,27.92334317,0.04958646
5ca1196fffab4a00149a02a9,9,0,2024-02-27T11:17:25.331Z,french_459.wav,0,pull,382,27,4,5,franças,f,9,0.9,-16.1495518,0.060326
5ca1196fffab4a00149a02a9,9,0,2024-02-27T11:17:25.331Z,french_459.wav,0,pull,382,27,4,5,franças,f,10,1.0,-49.8689815,1.65536428
5ca1196fffab4a00149a02a9,9,0,2024-02-27T11:17:25.331Z,french_459.wav,0,pull,382,27,4,5,franças,f,11,1.1,77.63620877,0.43368978
5ca1196fffab4a00149a02a9,9,0,2024-02-27T11:17:25.331Z,french_459.wav,0,pull,382,27,4,5,franças,f,12,1.14141667,-4.58738982,1.3723531
5ca1196fffab4a00149a02a9,10,0,2024-02-27T11:17:25.331Z,french_540.wav,0,pull,697,27,4,5,franças,f,0,0.0,31.52597312,1.25975377
5ca1196fffab4a00149a02a9,10,0,2024-02-27T11:17:25.331Z,french_540.wav,0,pull,697,27,4,5,franças,f,1,0.1,-1.25149155,1.40968559
5ca1196fffab4a00149a02a9,10,0,2024-02-27T11:17:25.331Z,french_540.wav,0,pull,697,27,4,5,franças,f,2,0.2,-73.66629191,0.44233903
5ca1196fffab4a00149a02a9,10,0,2024-02-27T11:17:25.331Z,french_540.wav,0,pull,697,27,4,5,franças,f,3,0.3,-22.64766564,0.80840944
5ca1196fffab4a00149a02a9,10,0,2024-02-27T11:17:25.331Z,french_540.wav,0,pull,697,27,4,5,franças,f,4,0.4,-99.62555954,0.2410145
5ca1196fffab4a00149a02a9,10,0,2024-02-27T11:17:25.331Z,french_540.wav,0,pull,697,27,4,5,franças,f,5,0.5,16.96824428,0.92564841
5ca1196fffab4a00149a02a9,10,0,2024-02-27T11:17:25.331Z,french_540.wav,0,pull,697,27,4,5,franças,f,6,0.6,87.0103995,1.23012294
5ca1196fffab4a00149a02a9,10,0,2024-02-27T11:17:25.331Z,french_540.wav,0,pull,697,27,4,5,franças,f,7,0.7,40.33133886,1.75550661
5ca1196fffab4a00149a02a9,10,0,2024-02-27T11:17:25.331Z,french_540.wav,0,pull,697,27,4,5,franças,f,8,0.8,20.73958679,1.48031201
5ca1196fffab4a00149a02a9,10,0,2024-02-27T11:17:25.331Z,french_540.wav,0,pull,697,27,4,5,franças,f,9,0.9,42.51308569,0.50269543
5ca1196fffab4a00149a02a9,10,0,2024-02-27T11:17:25.331Z,french_540.wav,0,pull,697,27,4,5,franças,f,10,1.0,-2.19499318,0.37203423
5ca1196fffab4a00149a02a9,10,0,2024-02-27T11:17:25.331Z,french_540.wav,0,pull,697,27,4,5,franças,f,11,1.1,-32.36810626,0.07986375
5ca1196fffab4a00149a02a9,10,0,2024-02-27T11:17:25.331Z,french_540.wav,0,pull,697,27,4,5,franças,f,12,1.14141667,-26.20670126,1.98266687
5ca1196fffab4a00149a02a9,11,0,2024-02-27T11:17:25.331Z,french_850.wav,0,pull,328,27,4,5,franças,f,0,0.0,83.89022354,0.75444994
5ca1196fffab4a00149a02a9,11,0,2024-02-27T11:17:25.331Z,french_850.wav,0,pull,328,27,4,5,franças,f,1,0.1,-91.48292869,0.08414002
5ca1196fffab4a00149a02a9,11,0,2024-02-27T11:17:25.331Z,french_850.wav,0,pull,328,27,4,5,franças,f,2,0.2,-85.43257021,1.98876362
5ca1196fffab4a00149a02a9,11,0,2024-02-27T11:17:25.331Z,french_850.wav,0,pull,328,27,4,5,franças,f,3,0.3,33.3216797,0.53734291
5ca1196fffab4a00149a02a9,11,0,2024-02-27T11:17:25.331Z,french_850.wav,0,pull,328,27,4,5,franças,f,4,0.4,-80.91674155,0.86020053
5ca1196fffab4a00149a02a9,11,0,2024-02-27T11:17:25.331Z,french_850.wav,0,pull,328,27,4,5,franças,f,5,0.5,5.50987792,1.84317431
5ca1196fffab4a00149a02a9,11,0,2024-02-27T11:17:25.331Z,french_850.wav,0,pull,328,27,4,5,franças,f,6,0.6,-68.13891682,0.47710357
5ca1196fffab4a00149a02a9,11,0,2024-02-27T11:17:25.331Z,french_850.wav,0,pull,328,27,4,5,franças,f,7,0.7,-59.47143547,0.67931634
5ca1196fffab4a00149a02a9,11,0,2024-02-27T11:17:25.331Z,french_850.wav,0,pull,328,27,4,5,franças,f,8,0.8,47.36151996,0.65720594
5ca1196fffab4a00149a02a9,11,0,2024-02-27T11:17:25.331Z,french_850.wav,0,pull,328,27,4,5,franças,f,9,0.9,77.95447851,0.45182468
5ca1196fffab4a00149a02a9,11,0,2024-02-27T11:17:25.331Z,french_850.wav,0,pull,328,27,4,5,franças,f,10,1.0,-10.13374149,1.62062477
5ca1196fffab4a00149a02a9,11,0,2024-02-27T11:17:25.331Z,french_850.wav,0,pull,328,27,4,5,franças,f,11,1.1,61.1546657,0.64094519
5ca1196fffab4a00149a02a9,11,0,2024-02-27T11:17:25.331Z,french_850.wav,0,pull,328,27,4,5,franças,f,12,1.14141667,81.37081475,0.74789128
5ca1196fffab4a00149a02a9,12,0,2024-02-27T11:17:25.331Z,french_172.wav,0,poule,581,27,4,5,franças,f,0,0.0,52.55822797,1.64690449
5ca1196fffab4a00149a02a9,12,0,2024-02-27T11:17:25.331Z,french_172.wav,0,poule,581,27,4,5,franças,f,1,0.1,36.03304437,1.13416013
5ca1196fffab4a00149a02a9,12,0,2024-02-27T11:17:25.331Z,french_172.wav,0,poule,581,27,4,5,franças,f,2,0.2,87.57540256,0.18828869
5ca1196fffab4a00149a02a9,12,0,2024-02-27T11:17:25.331Z,french_172.wav,0,poule,581,27,4,5,franças,f,3,0.3,-1.02225297,1.03936139
5ca1196fffab4a00149a02a9,12,0,2024-02-27T11:17:25.331Z,french_172.wav,0,poule,581,27,4,5,franças,f,4,0.4,-45.72834283,1.57744061
5ca1196fffab4a00149a02a9,12,0,2024-02-27T11:17:25.331Z,french_172.wav,0,poule,581,27,4,5,franças,f,5,0.5,-78.07098029,0.88465221
5ca1196fffab4a00149a02a9,12,0,2024-02-27T11:17:25.331Z,french_172.wav,0,poule,581,27,4,5,franças,f,6,0.6,66.92119406,1.26318424
5ca1196fffab4a00149a02a9,12,0,2024-02-27T11:17:25.331Z,french_172.wav,0,poule,581,27,4,5,franças,f,7,0.7,54.13458116,0.93894817
5ca1196fffab4a00149a02a9,12,0,2024-02-27T11:17:25.331Z,french_172.wav,0,poule,581,27,4,5,franças,f,8,0.8,9.25383275,1.37261227
5ca1196fffab4a00149a02a9,12,0,2024-02-27T11:17:25.331Z,french_172.wav,0,poule,581,27,4,5,franças,f,9,0.9,84.2289997,0.51589031
5ca1196fffab4a00149a02a9,12,0,2024-02-27T11:17:25.331Z,french_172.wav,0,poule,581,27,4,5,franças,f,10,1.0,-92.0852474,0.04731792
5ca1196fffab4a00149a02a9,12,0,2024-02-27T11:17:25.331Z,french_172.wav,0,poule,581,27,4,5,franças,f,11,1.1,-58.15058713,0.7131693
5ca1196fffab4a00149a02a9,12,0,2024-02-27T11:17:25.331Z,french_172.wav,0,poule,581,27,4,5,franças,f,12,1.14141667,-93.51230148,0.70039891
5ca1196fffab4a00149a02a9,13,0,2024-02-27T11:17:25.331Z,french_345.wav,0,poule,372,27,4,5,franças,f,0,0.0,13.09525802,1.99053131
5ca1196fffab4a00149a02a9,13,0,2024-02-27T11:17:25.331Z,french_345.wav,0,poule,372,27,4,5,franças,f,1,0.1,-30.73655165,0.8293688
5ca1196fffab4a00149a02a9,13,0,2024-02-27T11:17:25.331Z,french_345.wav,0,poule,372,27,4,5,franças,f,2,0.2,-41.41787841,1.36131847
5ca1196fffab4a00149a02a9,13,0,2024-02-27T11:17:25.331Z,french_345.wav,0,poule,372,27,4,5,franças,f,3,0.3,-27.41607462,0.38116236
5ca1196fffab4a00149a02a9,13,0,2024-02-27T11:17:25.331Z,french_345.wav,0,poule,372,27,4,5,franças,f,4,0.4,65.96264987,0.42669187
5ca1196fffab4a00149a02a9,13,0,2024-02-27T11:17:25.331Z,french_345.wav,0,poule,372,27,4,5,franças,f,5,0.5,-12.5205808,0.21770013
5ca1196fffab4a00149a02a9,13,0,2024-02-27T11:17:25.331Z,french_345.wav,0,poule,372,27,4,5,franças,f,6,0.6,23.42963683,0.18330203
5ca1196fffab4a00149a02a9,13,0,2024-02-27T11:17:25.331Z,french_345.wav,0,poule,372,27,4,5,franças,f,7,0.7,17.17324325,0.90437628
5ca1196fffab4a00149a02a9,13,0,2024-02-27T11:17:25.331Z,french_345.wav,0,poule,372,27,4,5,franças,f,8,0.8,50.15361308,0.95975331
5ca1196fffab4a00149a02a9,13,0,2024-02-27T11:17:25.331Z,french_345.wav,0,poule,372,27,4,5,franças,f,9,0.9,-38.8739224,1.62391323
5ca1196fffab4a00149a02a9,13,0,2024-02-27T11:17:25.331Z,french_345.wav,0,poule,372,27,4,5,franças,f,10,1.0,89.36825946,1.55285479
5ca1196fffab4a00149a02a9,13,0,2024-02-27T11:17:25.331Z,french_345.wav,0,poule,372,27,4,5,franças,f,11,1.1,-15.68002415,1.85322211
5ca1196fffab4a00149a02a9,13,0,2024-02-27T11:17:25.331Z,french_345.wav,0,poule,372,27,4,5,franças,f,12,1.14141667,48.64961952,1.01370759
5ca1196fffab4a00149a02a9,14,0,2024-02-27T11:17:25.331Z,french_975.wav,0,poule,1174,27,4,5,franças,f,0,0.0,-88.53042028,0.13201947
5ca1196fffab4a00149a02a9,14,0,2024-02-27T11:17:25.331Z,french_975.wav,0,poule,1174,27,4,5,franças,f,1,0.1,-18.98709815,0.70048062
5ca1196fffab4a00149a02a9,14,0,2024-02-27T11:17:25.331Z,french_975.wav,0,poule,1174,27,4,5,franças,f,2,0.2,89.84049157,1.40324141
5ca1196fffab4a00149a02a9,14,0,2024-02-27T11:17:25.331Z,french_975.wav,0,poule,1174,27,4,5,franças,f,3,0.3,-15.87088094,1.12025436
5ca1196fffab4a00149a02a9,14,0,2024-02-27T11:17:25.331Z,french_975.wav,0,poule,1174,27,4,5,franças,f,4,0.4,0.60706282,0.85353049
5ca1196fffab4a00149a02a9,14,0,2024-02-27T11:17:25.331Z,french_975.wav,0,poule,1174,27,4,5,franças,f,5,0.5,91.81069187,0.31979877
5ca1196fffab4a00149a02a9,14,0,2024-02-27T11:17:25.331Z,french_975.wav,0,poule,1174,27,4,5,franças,f,6,0.6,16.30435991,1.60578457
5ca1196fffab4a00149a02a9,14,0,2024-02-27T11:17:25.331Z,french_975.wav,0,poule,1174,27,4,5,franças,f,7,0.7,65.54957274,1.36555735
5ca1196fffab4a00149a02a9,14,0,2024-02-27T11:17:25.331Z,french_975.wav,0,poule,1174,27,4,5,franças,f,8,0.8,-94.63254312,0.45907697
5ca1196fffab4a00149a02a9,14,0,2024-02-27T11:17:25.331Z,french_975.wav,0,poule,1174,27,4,5,franças,f,9,0.9,4.99318405,0.83713991
5ca1196fffab4a00149a02a9,14,0,2024-02-27T11:17:25.331Z,french_975.wav,0,poule,1174,27,4,5,franças,f,10,1.0,-83.68519221,0.75605832
5ca1196fffab4a00149a02a9,14,0,2024-02-27T11:17:25.331Z,french_975.wav,0,poule,1174,27,4,5,franças,f,11,1.1,16.66024344,0.95006227
5ca1196fffab4a00149a02a9,14,0,2024-02-27T11:17:25.331Z,french_975.wav,0,poule,1174,27,4,5,franças,f,12,1.14141667,49.25794234,1.61796802
5ca1196fffab4a00149a02a9,15,0,2024-02-27T11:17:25.331Z,french_308.wav,0,pull,1235,27,4,5,franças,f,0,0.0,-24.76470346,1.59064555
5ca1196fffab4a00149a02a9,15,0,2024-02-27T11:17:25.331Z,french_308.wav,0,pull,1235,27,4,5,franças,f,1,0.1,-75.39031031,1.09884897
5ca1196fffab4a00149a02a9,15,0,2024-02-27T11:17:25.331Z,french_308.wav,0,pull,1235,27,4,5,franças,f,2,0.2,-67.15595446,1.36958326
5ca1196fffab4a00149a02a9,15,0,2024-02-27T11:17:25.331Z,french_308.wav,0,pull,1235,27,4,5,franças,f,3,0.3,73.28346942,0.49848866
5ca1196fffab4a00149a02a9,15,0,2024-02-27T11:17:25.331Z,french_308.wav,0,pull,1235,27,4,5,franças,f,4,0.4,-63.76474969,0.29216268
5ca1196fffab4a00149a02a9,15,0,2024-02-27T11:17:25.331Z,french_308.wav,0,pull,1235,27,4,5,franças,f,5,0.5,10.17114781,0.8224921
5ca1196fffab4a00149a02a9,15,0,2024-02-27T11:17:25.331Z,french_308.wav,0,pull,1235,27,4,5,franças,f,6,0.6,4.96018727,1.0263182
5ca1196fffab4a00149a02a9,15,0,2024-02-27T11:17:25.331Z,french_308.wav,0,pull,1235,27,4,5,franças,f,7,0.7,-80.99576467,1.21407391
5ca1196fffab4a00149a02a9,15,0,2024-02-27T11:17:25.331Z,french_308.wav,0,pull,1235,27,4,5,franças,f,8,0.8,5.85848448,0.36326554
5ca1196fffab4a00149a02a9,15,0,2024-02-27T11:17:25.331Z,french_308.wav,0,pull,1235,27,4,5,franças,f,9,0.9,-81.91810292,1.1553967
5ca1196fffab4a00149a02a9,15,0,2024-02-27T11:17:25.331Z,french_308.wav,0,pull,1235,27,4,5,franças,f,10,1.0,-78.18540506,0.19027312
5ca1196fffab4a00149a02a9,15,0,2024-02-27T11:17:25.331Z,french_308.wav,0,pull,1235,27,4,5,franças,f,11,1.1,-63.38399377,0.38270044
5ca1196fffab4a00149a02a9,15,0,2024-02-27T11:17:25.331Z,french_308.wav,0,pull,1235,27,4,5,franças,f,12,1.14141667,-3.56177279,1.55093722
5ca1196fffab4a00149a02a9,16,0,2024-02-27T11:17:25.331Z,french_294.wav,0,pull,606,27,4,5,franças,f,0,0.0,46.81190633,0.85502539
5ca1196fffab4a00149a02a9,16,0,2024-02-27T11:17:25.331Z,french_294.wav,0,pull,606,27,4,5,franças,f,1,0.1,-55.55833329,0.73187702
5ca1196fffab4a00149a02a9,16,0,2024-02-27T11:17:25.331Z,french_294.wav,0,pull,606,27,4,5,franças,f,2,0.2,-78.93236635,1.40827844
5ca1196fffab4a00149a02a9,16,0,2024-02-27T11:17:25.331Z,french_294.wav,0,pull,606,27,4,5,franças,f,3,0.3,80.59595566,1.8594958
5ca1196fffab4a00149a02a9,16,0,2024-02-27T11:17:25.331Z,french_294.wav,0,pull,606,27,4,5,franças,f,4,0.4,54.71021816,1.03951107
5ca1196fffab4a00149a02a9,16,0,2024-02-27T11:17:25.331Z,french_294.wav,0,pull,606,27,4,5,franças,f,5,0.5,-35.95549528,0.90602699
5ca1196fffab4a00149a02a9,16,0,2024-02-27T11:17:25.331Z,french_294.wav,0,pull,606,27,4,5,franças,f,6,0.6,90.04358931,0.40420579
5ca1196fffab4a00149a02a9,16,0,2024-02-27T11:17:25.331Z,french_294.wav,0,pull,606,27,4,5,franças,f,7,0.7,48.97978382,0.11158967
5ca1196fffab4a00149a02a9,16,0,2024-02-27T11:17:25.331Z,french_294.wav,0,pull,606,27,4,5,franças,f,8,0.8,85.35893159,1.1950669
5ca1196fffab4a00149a02a9,16,0,2024-02-27T11:17:25.331Z,french_294.wav,0,pull,606,27,4,5,franças,f,9,0.9,37.71160702,0.53171982
5ca1196fffab4a00149a02a9,16,0,2024-02-27T11:17:25.331Z,french_294.wav,0,pull,606,27,4,5,franças,f,10,1.0,-84.35185751,0.12056925
5ca1196fffab4a00149a02a9,16,0,2024-02-27T11:17:25.331Z,french_294.wav,0,pull,606,27,4,5,franças,f,11,1.1,-45.28301264,1.01856401
5ca1196fffab4a00149a02a9,16,0,2024-02-27T11:17:25.331Z,french_294.wav,0,pull,606,27,4,5,franças,f,12,1.14141667,78.04325437,1.12267397
5ca1196fffab4a00149a02a9,17,0,2024-02-27T11:17:25.331Z,french_8.wav,0,poule,553,27,4,5,franças,f,0,0.0,29.87385678,1.00961104
5ca1196fffab4a00149a02a9,17,0,2024-02-27T11:17:25.331Z,french_8.wav,0,poule,553,27,4,5,franças,f,1,0.1,-3.65385888,0.57995768
5ca1196fffab4a00149a02a9,17,0,2024-02-27T11:17:25.331Z,french_8.wav,0,poule,553,27,4,5,franças,f,2,0.2,20.76458152,0.32179014
5ca1196fffab4a00149a02a9,17,0,2024-02-27T11:17:25.331Z,french_8.wav,0,poule,553,27,4,5,franças,f,3,0.3,-24.72434665,1.30213617
5ca1196fffab4a00149a02a9,17,0,2024-02-27T11:17:25.331Z,french_8.wav,0,poule,553,27,4,5,franças,f,4,0.4,94.1074102,0.70211569
5ca1196fffab4a00149a02a9,17,0,2024-02-27T11:17:25.331Z,french_8.wav,0,poule,553,27,4,5,franças,f,5,0.5,-73.60935749,1.57277834
5ca1196fffab4a00149a02a9,17,0,2024-02-27T11:17:25.331Z,french_8.wav,0,poule,553,27,4,5,franças,f,6,0.6,79.05229915,0.53451743
5ca1196fffab4a00149a02a9,17,0,2024-02-27T11:17:25.331Z,french_8.wav,0,poule,553,27,4,5,franças,f,7,0.7,-23.70127853,0.94827227
5ca1196fffab4a00149a02a9,17,0,2024-02-27T11:17:25.331Z,french_8.wav,0,poule,553,27,4,5,franças,f,8,0.8,-24.8003351,0.73750596
5ca1196fffab4a00149a02a9,17,0,2024-02-27T11:17:25.331Z,french_8.wav,0,poule,553,27,4,5,franças,f,9,0.9,-11.25394398,1.88096631
5ca1196fffab4a00149a02a9,17,0,2024-02-27T11:17:25.331Z,french_8.wav,0,poule,553,27,4,5,franças,f,10,1.0,-86.90808114,1.57496214
5ca1196fffab4a00149a02a9,17,0,2024-02-27T11:17:25.331Z,french_8.wav,0,poule,553,27,4,5,franças,f,11,1.1,19.56164583,1.34018823
5ca1196fffab4a00149a02a9,17,0,2024-02-27T11:17:25.331Z,french_8.wav,0,poule,553,27,4,5,franças,f,12,1.14141667,97.75645862,0.99774717
5ca1196fffab4a00149a02a9,18,0,2024-02-27T11:17:25.331Z,french_11.wav,0,poule,275,27,4,5,franças,f,0,0.0,-53.97722238,1.09610164
5ca1196fffab4a00149a02a9,18,0,2024-02-27T11:17:25.331Z,french_11.wav,0,poule,275,27,4,5,franças,f,1,0.1,-31.21118385,0.22350944
5ca1196fffab4a00149a02a9,18,0,2024-02-27T11:17:25.331Z,french_11.wav,0,poule,275,27,4,5,franças,f,2,0.2,-36.80951357,1.00123418
5ca1196fffab4a00149a02a9,18,0,2024-02-27T11:17:25.331Z,french_11.wav,0,poule,275,27,4,5,franças,f,3,0.3,-95.45532381,0.87401162
5ca1196fffab4a00149a02a9,18,0,2024-02-27T11:17:25.331Z,french_11.wav,0,poule,275,27,4,5,franças,f,4,0.4,58.15480481,0.20703956
5ca1196fffab4a00149a02a9,18,0,2024-02-27T11:17:25.331Z,french_11.wav,0,poule,275,27,4,5,franças,f,5,0.5,71.015522,0.5150991
5ca1196fffab4a00149a02a9,18,0,2024-02-27T11:17:25.331Z,french_11.wav,0,poule,275,27,4,5,franças,f,6,0.6,65.59713254,1.3674314
5ca1196fffab4a00149a02a9,18,0,2024-02-27T11:17:25.331Z,french_11.wav,0,poule,275,27,4,5,franças,f,7,0.7,10.73762905,0.96376634
5ca1196fffab4a00149a02a9,18,0,2024-02-27T11:17:25.331Z,french_11.wav,0,poule,275,27,4,5,franças,f,8,0.8,28.00448009,0.85790612
5ca1196fffab4a00149a02a9,18,0,2024-02-27T11:17:25.331Z,french_11.wav,0,poule,275,27,4,5,franças,f,9,0.9,-7.76276887,1.59940673
5ca1196fffab4a00149a02a9,18,0,2024-02-27T11:17:25.331Z,french_11.wav,0,poule,275,27,4,5,franças,f,10,1.0,39.23656931,0.40281071
5ca1196fffab4a00149a02a9,18,0,2024-02-27T11:17:25.331Z,french_11.wav,0,poule,275,27,4,5,franças,f,11,1.1,-90.22036196,1.59018171
5ca1196fffab4a00149a02a9,18,0,2024-02-27T11:17:25.331Z,french_11.wav,0,poule,275,27,4,5,franças,f,12,1.14141667,-39.83688041,1.67678977
5ca1196fffab4a00149a02a9,19,0,2024-02-27T11:17:25.331Z,french_436.wav,0,pull,561,27,4,5,franças,f,0,0.0,-88.6105585,1.07573924
5ca1196fffab4a00149a02a9,19,0,2024-02-27T11:17:25.331Z,french_436.wav,0,pull,561,27,4,5,franças,f,1,0.1,-16.22122401,1.88781057
5ca1196fffab4a00149a02a9,19,0,2024-02-27T11:17:25.331Z,french_436.wav,0,pull,561,27,4,5,franças,f,2,0.2,-3.49923583,1.26933634
5ca1196fffab4a00149a02a9,19,0,2024-02-27T11:17:25.331Z,french_436.wav,0,pull,561,27,4,5,franças,f,3,0.3,-16.01802375,0.08671344
5ca1196fffab4a00149a02a9,19,0,2024-02-27T11:17:25.331Z,french_436.wav,0,pull,561,27,4,5,franças,f,4,0.4,-58.39418693,0.65535741
5ca1196fffab4a00149a02a9,19,0,2024-02-27T11:17:25.331Z,french_436.wav,0,pull,561,27,4,5,franças,f,5,0.5,-53.8564813,1.05284505
5ca1196fffab4a00149a02a9,19,0,2024-02-27T11:17:25.331Z,french_436.wav,0,pull,561,27,4,5,franças,f,6,0.6,24.35754888,0.14070405
5ca1196fffab4a00149a02a9,19,0,2024-02-27T11:17:25.331Z,french_436.wav,0,pull,561,27,4,5,franças,f,7,0.7,-50.18804261,0.38482967
5ca1196fffab4a00149a02a9,19,0,2024-02-27T11:17:25.331Z,french_436.wav,0,pull,561,27,4,5,franças,f,8,0.8,55.18515934,1.2504881
5ca1196fffab4a00149a02a9,19,0,2024-02-27T11:17:25.331Z,french_436.wav,0,pull,561,27,4,5,franças,f,9,0.9,-65.43663779,0.44304844
5ca1196fffab4a00149a02a9,19,0,2024-02-27T11:17:25.331Z,french_436.wav,0,pull,561,27,4,5,franças,f,10,1.0,44.03721159,1.10568067
5ca1196fffab4a00149a02a9,19,0,2024-02-27T11:17:25.331Z,french_436.wav,0,pull,561,27,4,5,franças,f,11,1.1,73.79038044,0.33165054
5ca1196fffab4a00149a02a9,19,0,2024-02-27T11:17:25.331Z,french_436.wav,0,pull,561,27,4,5,franças,f,12,1.14141667,28.76066382,1.91057616
5ca1196fffab4a00149a02a9,20,0,2024-02-27T11:17:25.331Z,french_344.wav,0,poule,242,27,4,5,franças,f,0,0.0,96.07480186,0.58479992
5ca1196fffab4a00149a02a9,20,0,2024-02-27T11:17:25.331Z,french_344.wav,0,poule,242,27,4,5,franças,f,1,0.1,-21.67597909,0.94801026
5ca1196fffab4a00149a02a9,20,0,2024-02-27T11:17:25.331Z,french_344.wav,0,poule,242,27,4,5,franças,f,2,0.2,1.76564063,0.48766352
5ca1196fffab4a00149a02a9,20,0,2024-02-27T11:17:25.331Z,french_344.wav,0,poule,242,27,4,5,franças,f,3,0.3,52.19208065,0.58210606
5ca1196fffab4a00149a02a9,20,0,2024-02-27T11:17:25.331Z,french_344.wav,0,poule,242,27,4,5,franças,f,4,0.4,-48.97734346,1.63747349
5ca1196fffab4a00149a02a9,20,0,2024-02-27T11:17:25.331Z,french_344.wav,0,poule,242,27,4,5,franças,f,5,0.5,8.52034332,0.76958472
5ca1196fffab4a00149a02a9,20,0,2024-02-27T11:17:25.331Z,french_344.wav,0,poule,242,27,4,5,franças,f,6,0.6,76.79242076,1.51679811
5ca1196fffab4a00149a02a9,20,0,2024-02-27T11:17:25.331Z,french_344.wav,0,poule,242,27,4,5,franças,f,7,0.7,-46.49970146,0.4990454
5ca1196fffab4a00149a02a9,20,0,2024-02-27T11:17:25.331Z,french_344.wav,0,poule,242,27,4,5,franças,f,8,0.8,41.91318913,1.79245635
5ca1196fffab4a00149a02a9,20,0,2024-02-27T11:17:25.331Z,french_344.wav,0,poule,242,27,4,5,franças,f,9,0.9,-58.70585391,1.42432783
5ca1196fffab4a00149a02a9,20,0,2024-02-27T11:17:25.331Z,french_344.wav,0,poule,242,27,4,5,franças,f,10,1.0,-5.86032919,0.02463932
5ca1196fffab4a00149a02a9,20,0,2024-02-27T11:17:25.331Z,french_344.wav,0,poule,242,27,4,5,franças,f,11,1.1,3.04602069,1.38926004
5ca1196fffab4a00149a02a9,20,0,2024-02-27T11:17:25.331Z,french_344.wav,0,poule,242,27,4,5,franças,f,12,1.14141667,9.91868565,0.39424777
5ca1196fffab4a00149a02a9,21,0,2024-02-27T11:17:25.331Z,french_16.wav,0,pull,507,27,4,5,franças,f,0,0.0,82.07579611,1.07310586
5ca1196fffab4a00149a02a9,21,0,2024-02-27T11:17:25.331Z,french_16.wav,0,pull,507,27,4,5,franças,f,1,0.1,-32.83094823,1.45317336
5ca1196fffab4a00149a02a9,21,0,2024-02-27T11:17:25.331Z,french_16.wav,0,pull,507,27,4,5,franças,f,2,0.2,41.28040727,0.46166585
5ca1196fffab4a00149a02a9,21,0,2024-02-27T11:17:25.331Z,french_16.wav,0,pull,507,27,4,5,franças,f,3,0.3,90.77692627,0.56449572
5ca1196fffab4a00149a02a9,21,0,2024-02-27T11:17:25.331Z,french_16.wav,0,pull,507,27,4,5,franças,f,4,0.4,73.94831714,0.90966038
5ca1196fffab4a00149a02a9,21,0,2024-02-27T11:17:25.331Z,french_16.wav,0,pull,507,27,4,5,franças,f,5,0.5,-88.41542948,0.09547685
5ca1196fffab4a00149a02a9,21,0,2024-02-27T11:17:25.331Z,french_16.wav,0,pull,507,27,4,5,franças,f,6,0.6,4.37289538,0.22269855
5ca1196fffab4a00149a02a9,21,0,2024-02-27T11:17:25.331Z,french_16.wav,0,pull,507,27,4,5,franças,f,7,0.7,77.79051447,0.49251914
5ca1196fffab4a00149a02a9,21,0,2024-02-27T11:17:25.331Z,french_16.wav,0,pull,507,27,4,5,franças,f,8,0.8,71.33775497,1.29029618
5ca1196fffab4a00149a02a9,21,0,2024-02-27T11:17:25.331Z,french_16.wav,0,pull,507,27,4,5,franças,f,9,0.9,-23.77305366,0.28261848
5ca1196fffab4a00149a02a9,21,0,2024-02-27T11:17:25.331Z,french_16.wav,0,pull,507,27,4,5,franças,f,10,1.0,69.50638407,0.13786232
5ca1196fffab4a00149a02a9,21,0,2024-02-27T11:17:25.331Z,french_16.wav,0,pull,507,27,4,5,franças,f,11,1.1,7.9375364,0.88824907
5ca1196fffab4a00149a02a9,21,0,2024-02-27T11:17:25.331Z,french_16.wav,0,pull,507,27,4,5,franças,f,12,1.14141667,-53.70826654,1.57250049
5ca1196fffab4a00149a02a9,22,0,2024-02-27T11:17:25.331Z,french_431.wav,0,pull,287,27,4,5,franças,f,0,0.0,-96.46600651,1.54464496
5ca1196fffab4a00149a02a9,22,0,2024-02-27T11:17:25.331Z,french_431.wav,0,pull,287,27,4,5,franças,f,1,0.1,-23.28140162,0.36629413
5ca1196fffab4a00149a02a9,22,0,2024-02-27T11:17:25.331Z,french_431.wav,0,pull,287,27,4,5,franças,f,2,0.2,85.48818596,1.51270847
5ca1196fffab4a00149a02a9,22,0,2024-02-27T11:17:25.331Z,french_431.wav,0,pull,287,27,4,5,franças,f,3,0.3,73.49265298,1.99092223
5ca1196fffab4a00149a02a9,22,0,2024-02-27T11:17:25.331Z,french_431.wav,0,pull,287,27,4,5,franças,f,4,0.4,38.7002008,1.14324987
5ca1196fffab4a00149a02a9,22,0,2024-02-27T11:17:25.331Z,french_431.wav,0,pull,287,27,4,5,franças,f,5,0.5,18.90003165,1.31996998
5ca1196fffab4a00149a02a9,22,0,2024-02-27T11:17:25.331Z,french_431.wav,0,pull,287,27,4,5,franças,f,6,0.6,27.43188712,1.7759732
5ca1196fffab4a00149a02a9,22,0,2024-02-27T11:17:25.331Z,french_431.wav,0,pull,287,27,4,5,franças,f,7,0.7,-91.05581927,1.57530669
5ca1196fffab4a00149a02a9,22,0,2024-02-27T11:17:25.331Z,french_431.wav,0,pull,287,27,4,5,franças,f,8,0.8,-44.52669984,1.94282823
5ca1196fffab4a00149a02a9,22,0,2024-02-27T11:17:25.331Z,french_431.wav,0,pull,287,27,4,5,franças,f,9,0.9,79.68397794,0.21600784
5ca1196fffab4a00149a02a9,22,0,2024-02-27T11:17:25.331Z,french_431.wav,0,pull,287,27,4,5,franças,f,10,1.0,78.15410054,1.61421717
5ca1196fffab4a00149a02a9,22,0,2024-02-27T11:17:25.331Z,french_431.wav,0,pull,287,27,4,5,franças,f,11,1.1,10.90379077,1.44824139
5ca1196fffab4a00149a02a9,22,0,2024-02-27T11:17:25.331Z,french_431.wav,0,pull,287,27,4,5,franças,f,12,1.14141667,-66.30427155,0.06362757
5ca1196fffab4a00149a02a9,23,0,2024-02-27T11:17:25.331Z,french_208.wav,0,pull,449,27,4,5,franças,f,0,0.0,22.05412131,0.76725809
5ca1196fffab4a00149a02a9,23,0,2024-02-27T11:17:25.331Z,french_208.wav,0,pull,449,27,4,5,franças,f,1,0.1,-81.24093625,1.19895138
5ca1196fffab4a00149a02a9,23,0,2024-02-27T11:17:25.331Z,french_208.wav,0,pull,449,27,4,5,franças,f,2,0.2,-56.8023019,1.75036409
5ca1196fffab4a00149a02a9,23,0,2024-02-27T11:17:25.331Z,french_208.wav,0,pull,449,27,4,5,franças,f,3,0.3,42.11803464,1.11519781
5ca1196fffab4a00149a02a9,23,0,2024-02-27T11:17:25.331Z,french_208.wav,0,pull,449,27,4,5,franças,f,4,0.4,-62.30011739,0.53587167
5ca1196fffab4a00149a02a9,23,0,2024-02-27T11:17:25.331Z,french_208.wav,0,pull,449,27,4,5,franças,f,5,0.5,-54.22793596,0.06074171
5ca1196fffab4a00149a02a9,23,0,2024-02-27T11:17:25.331Z,french_208.wav,0,pull,449,27,4,5,franças,f,6,0.6,-22.54029576,0.24306128
5ca1196fffab4a00149a02a9,23,0,2024-02-27T11:17:25.331Z,french_208.wav,0,pull,449,27,4,5,franças,f,7,0.7,3.64260812,0.45122919
5ca1196fffab4a00149a02a9,23,0,2024-02-27T11:17:25.331Z,french_208.wav,0,pull,449,27,4,5,franças,f,8,0.8,34.77853372,0.41059711
5ca1196fffab4a00149a02a9,23,0,2024-02-27T11:17:25.331Z,french_208.wav,0,pull,449,27,4,5,franças,f,9,0.9,-69.5924933,0.57249987
5ca1196fffab4a00149a02a9,23,0,2024-02-27T11:17:25.331Z,french_208.wav,0,pull,449,27,4,5,franças,f,10,1.0,-81.19588074,1.0921966
5ca1196fffab4a00149a02a9,23,0,2024-02-27T11:17:25.331Z,french_208.wav,0,pull,449,27,4,5,franças,f,11,1.1,-23.61160916,1.04543031
5ca1196fffab4a00149a02a9,23,0,2024-02-27T11:17:25.331Z,french_208.wav,0,pull,449,27,4,5,franças,f,12,1.14141667,-3.35496918,1.92109129
5ca1196fffab4a00149a02a9,24,0,2024-02-27T11:17:25.331Z,french_557.wav,0,poule,346,27,4,5,franças,f,0,0.0,87.75716143,1.51726274
5ca1196fffab4a00149a02a9,24,0,2024-02-27T11:17:25.331Z,french_557.wav,0,poule,346,27,4,5,franças,f,1,0.1,75.58973606,0.82672788
5ca1196fffab4a00149a02a9,24,0,2024-02-27T11:17:25.331Z,french_557.wav,0,poule,346,27,4,5,franças,f,2,0.2,-10.41118754,0.29594779
5ca1196fffab4a00149a02a9,24,0,2024-02-27T11:17:25.331Z,french_557.wav,0,poule,346,27,4,5,franças,f,3,0.3,-48.91892045,1.45862429
5ca1196fffab4a00149a02a9,24,0,2024-02-27T11:17:25.331Z,french_557.wav,0,poule,346,27,4,5,franças,f,4,0.4,-17.3468807,0.77182158
5ca1196fffab4a00149a02a9,24,0,2024-02-27T11:17:25.331Z,french_557.wav,0,poule,346,27,4,5,franças,f,5,0.5,34.22726799,0.29571527
5ca1196fffab4a00149a02a9,24,0,2024-02-27T11:17:25.331Z,french_557.wav,0,poule,346,27,4,5,franças,f,6,0.6,-77.53700308,1.00868641
5ca1196fffab4a00149a02a9,24,0,2024-02-27T11:17:25.331Z,french_557.wav,0,poule,346,27,4,5,franças,f,7,0.7,78.68416949,0.49328713
5ca1196fffab4a00149a02a9,24,0,2024-02-27T11:17:25.331Z,french_557.wav,0,poule,346,27,4,5,franças,f,8,0.8,-43.34644419,0.40883898
5ca1196fffab4a00149a02a9,24,0,2024-02-27T11:17:25.331Z,french_557.wav,0,poule,346,27,4,5,franças,f,9,0.9,68.78190397,1.05980011
5ca1196fffab4a00149a02a9,24,0,2024-02-27T11:17:25.331Z,french_557.wav,0,poule,346,27,4,5,franças,f,10,1.0,-59.83661076,1.00265193
5ca1196fffab4a00149a02a9,24,0,2024-02-27T11:17:25.331Z,french_557.wav,0,poule,346,27,4,5,franças,f,11,1.1,-25.29215861,0.2775648
5ca1196fffab4a00149a02a9,24,0,2024-02-27T11:17:25.331Z,french_557.wav,0,poule,346,27,4,5,franças,f,12,1.14141667,62.84029703,0.76714815
5ca1196fffab4a00149a02a9,25,0,2024-02-27T11:17:25.331Z,french_449.wav,0,poule,1024,27,4,5,franças,f,0,0.0,48.07237211,1.574298
5ca1196fffab4a00149a02a9,25,0,2024-02-27T11:17:25.331Z,french_449.wav,0,poule,1024,27,4,5,franças,f,1,0.1,10.50044698,0.465888
5ca1196fffab4a00149a02a9,25,0,2024-02-27T11:17:25.331Z,french_449.wav,0,poule,1024,27,4,5,franças,f,2,0.2,99.10264915,1.49470087
5ca1196fffab4a00149a02a9,25,0,2024-02-27T11:17:25.331Z,french_449.wav,0,poule,1024,27,4,5,franças,f,3,0.3,44.97033086,1.26780995
5ca1196fffab4a00149a02a9,25,0,2024-02-27T11:17:25.331Z,french_449.wav,0,poule,1024,27,4,5,franças,f,4,0.4,-41.32684653,0.48746737
5ca1196fffab4a00149a02a9,25,0,2024-02-27T11:17:25.331Z,french_449.wav,0,poule,1024,27,4,5,franças,f,5,0.5,-79.7525466,0.73531069
5ca1196fffab4a00149a02a9,25,0,2024-02-27T11:17:25.331Z,french_449.wav,0,poule,1024,27,4,5,franças,f,6,0.6,50.40932694,0.94941626
5ca1196fffab4a00149a02a9,25,0,2024-02-27T11:17:25.331Z,french_449.wav,0,poule,1024,27,4,5,franças,f,7,0.7,52.6193965,1.08611184
5ca1196fffab4a00149a02a9,25,0,2024-02-27T11:17:25.331Z,french_449.wav,0,poule,1024,27,4,5,franças,f,8,0.8,-15.31474709,0.81949253
5ca1196fffab4a00149a02a9,25,0,2024-02-27T11:17:25.331Z,french_449.wav,0,poule,1024,27,4,5,franças,f,9,0.9,-28.04173939,1.27162102
5ca1196fffab4a00149a02a9,25,0,2024-02-27T11:17:25.331Z,french_449.wav,0,poule,1024,27,4,5,franças,f,10,1.0,9.78914311,1.38692301
5ca1196fffab4a00149a02a9,25,0,2024-02-27T11:17:25.331Z,french_449.wav,0,poule,1024,27,4,5,franças,f,11,1.1,-78.00931625,0.89469579
5ca1196fffab4a00149a02a9,25,0,2024-02-27T11:17:25.331Z,french_449.wav,0,poule,1024,27,4,5,franças,f,12,1.14141667,-11.66917093,1.6806745
5ca1196fffab4a00149a02a9,26,0,2024-02-27T11:17:25.331Z,french_340.wav,0,poule,308,27,4,5,franças,f,0,0.0,48.26419712,1.63856122
5ca1196fffab4a00149a02a9,26,0,2024-02-27T11:17:25.331Z,french_340.wav,0,poule,308,27,4,5,franças,f,1,0.1,-47.83724463,0.51084521
5ca1196fffab4a00149a02a9,26,0,2024-02-27T11:17:25.331Z,french_340.wav,0,poule,308,27,4,5,franças,f,2,0.2,-59.94167293,0.1611518
5ca1196fffab4a00149a02a9,26,0,2024-02-27T11:17:25.331Z,french_340.wav,0,poule,308,27,4,5,franças,f,3,0.3,-2.10646815,1.89193476
5ca1196fffab4a00149a02a9,26,0,2024-02-27T11:17:25.331Z,french_340.wav,0,poule,308,27,4,5,franças,f,4,0.4,56.22787301,0.23206424
5ca1196fffab4a00149a02a9,26,0,2024-02-27T11:17:25.331Z,french_340.wav,0,poule,308,27,4,5,franças,f,5,0.5,3.63875835,1.58271765
5ca1196fffab4a00149a02a9,26,0,2024-02-27T11:17:25.331Z,french_340.wav,0,poule,308,27,4,5,franças,f,6,0.6,68.19322982,1.2112833
5ca1196fffab4a00149a02a9,26,0,2024-02-27T11:17:25.331Z,french_340.wav,0,poule,308,27,4,5,franças,f,7,0.7,-66.226353,0.17687379
5ca1196fffab4a00149a02a9,26,0,2024-02-27T11:17:25.331Z,french_340.wav,0,poule,308,27,4,5,franças,f,8,0.8,25.57175498,1.37975362
5ca1196fffab4a00149a02a9,26,0,2024-02-27T11:17:25.331Z,french_340.wav,0,poule,308,27,4,5,franças,f,9,0.9,-56.45976612,1.62884382
5ca1196fffab4a00149a02a9,26,0,2024-02-27T11:17:25.331Z,french_340.wav,0,poule,308,27,4,5,franças,f,10,1.0,-49.28125995,0.75620984
5ca1196fffab4a00149a02a9,26,0,2024-02-27T11:17:25.331Z,french_340.wav,0,poule,308,27,4,5,franças,f,11,1.1,72.50645078,0.70269726
5ca1196fffab4a00149a02a9,26,0,2024-02-27T11:17:25.331Z,french_340.wav,0,poule,308,27,4,5,franças,f,12,1.14141667,-9.1064747,1.66380659
5ca1196fffab4a00149a02a9,27,0,2024-02-27T11:17:25.331Z,french_776.wav,0,poule,271,27,4,5,franças,f,0,0.0,-48.17423645,0.77631494
5ca1196fffab4a00149a02a9,27,0,2024-02-27T11:17:25.331Z,french_776.wav,0,poule,271,27,4,5,franças,f,1,0.1,70.47241533,0.30206355
5ca1196fffab4a00149a02a9,27,0,2024-02-27T11:17:25.331Z,french_776.wav,0,poule,271,27,4,5,franças,f,2,0.2,-25.19523269,0.58442509
5ca1196fffab4a00149a02a9,27,0,2024-02-27T11:17:25.331Z,french_776.wav,0,poule,271,27,4,5,franças,f,3,0.3,87.43097705,1.0473267
5ca1196fffab4a00149a02a9,27,0,2024-02-27T11:17:25.331Z,french_776.wav,0,poule,271,27,4,5,franças,f,4,0.4,-31.8700143,1.39697119
5ca1196fffab4a00149a02a9,27,0,2024-02-27T11:17:25.331Z,french_776.wav,0,poule,271,27,4,5,franças,f,5,0.5,85.54136389,1.2447418
5ca1196fffab4a00149a02a9,27,0,2024-02-27T11:17:25.331Z,french_776.wav,0,poule,271,27,4,5,franças,f,6,0.6,-67.05238836,1.41470132
5ca1196fffab4a00149a02a9,27,0,2024-02-27T11:17:25.331Z,french_776.wav,0,poule,271,27,4,5,franças,f,7,0.7,63.29487245,0.48396717
5ca1196fffab4a00149a02a9,27,0,2024-02-27T11:17:25.331Z,french_776.wav,0,poule,271,27,4,5,franças,f,8,0.8,-91.58850078,0.48226026
5ca1196fffab4a00149a02a9,27,0,2024-02-27T11:17:25.331Z,french_776.wav,0,poule,271,27,4,5,franças,f,9,0.9,-92.53289931,1.44155104
5ca1196fffab4a00149a02a9,27,0,2024-02-27T11:17:25.331Z,french_776.wav,0,poule,271,27,4,5,franças,f,10,1.0,-7.51119873,1.57581197
5ca1196fffab4a00149a02a9,27,0,2024-02-27T11:17:25.331Z,french_776.wav,0,poule,271,27,4,5,franças,f,11,1.1,-98.58910198,1.16160073
5ca1196fffab4a00149a02a9,27,0,2024-02-27T11:17:25.331Z,french_776.wav,0,poule,271,27,4,5,franças,f,12,1.14141667,-80.10890934,0.05324504
5ca1196fffab4a00149a02a9,28,0,2024-02-27T11:17:25.331Z,french_272.wav,0,poule,215,27,4,5,franças,f,0,0.0,42.6629916,0.82181087
5ca1196fffab4a00149a02a9,28,0,2024-02-27T11:17:25.331Z,french_272.wav,0,poule,215,27,4,5,franças,f,1,0.1,-44.58032128,1.24121052
5ca1196fffab4a00149a02a9,28,0,2024-02-27T11:17:25.331Z,french_272.wav,0,poule,215,27,4,5,franças,f,2,0.2,-63.79515668,1.18763114
5ca1196fffab4a00149a02a9,28,0,2024-02-27T11:17:25.331Z,french_272.wav,0,poule,215,27,4,5,franças,f,3,0.3,65.68552079,1.12080473
5ca1196fffab4a00149a02a9,28,0,2024-02-27T11:17:25.331Z,french_272.wav,0,poule,215,27,4,5,franças,f,4,0.4,-73.43471872,0.3216303
5ca1196fffab4a00149a02a9,28,0,2024-02-27T11:17:25.331Z,french_272.wav,0,poule,215,27,4,5,franças,f,5,0.5,-9.94342822,1.28123666
5ca1196fffab4a00149a02a9,28,0,2024-02-27T11:17:25.331Z,french_272.wav,0,poule,215,27,4,5,franças,f,6,0.6,-63.79991276,1.07872971
5ca1196fffab4a00149a02a9,28,0,2024-02-27T11:17:25.331Z,french_272.wav,0,poule,215,27,4,5,franças,f,7,0.7,10.2914571,1.60584441
5ca1196fffab4a00149a02a9,28,0,2024-02-27T11:17:25.331Z,french_272.wav,0,poule,215,27,4,5,franças,f,8,0.8,44.90388393,1.61709033
5ca1196fffab4a00149a02a9,28,0,2024-02-27T11:17:25.331Z,french_272.wav,0,poule,215,27,4,5,franças,f,9,0.9,11.26467692,0.76221234
5ca1196fffab4a00149a02a9,28,0,2024-02-27T11:17:25.331Z,french_272.wav,0,poule,215,27,4,5,franças,f,10,1.0,-19.2327242,1.01212213
5ca1196fffab4a00149a02a9,28,0,2024-02-27T11:17:25.331Z,french_272.wav,0,poule,215,27,4,5,franças,f,11,1.1,-57.17946334,0.46924284
5ca1196fffab4a00149a02a9,28,0,2024-02-27T11:17:25.331Z,french_272.wav,0,poule,215,27,4,5,franças,f,12,1.14141667,-5.9395339,0.6492678
5ca1196fffab4a00149a02a9,29,0,2024-02-27T11:17:25.331Z,french_513.wav,0,pull,459,27,4,5,franças,f,0,0.0,65.19779345,0.10751353
5ca1196fffab4a00149a02a9,29,0,2024-02-27T11:17:25.331Z,french_513.wav,0,pull,459,27,4,5,franças,f,1,0.1,-53.85269578,1.47062647
5ca1196fffab4a00149a02a9,29,0,2024-02-27T11:17:25.331Z,french_513.wav,0,pull,459,27,4,5,franças,f,2,0.2,82.41545201,1.29367767
5ca1196fffab4a00149a02a9,29,0,2024-02-27T11:17:25.331Z,french_513.wav,0,pull,459,27,4,5,franças,f,3,0.3,50.60713048,1.84832062
5ca1196fffab4a00149a02a9,29,0,2024-02-27T11:17:25.331Z,french_513.wav,0,pull,459,27,4,5,franças,f,4,0.4,7.11945043,1.72946214
5ca1196fffab4a00149a02a9,29,0,2024-02-27T11:17:25.331Z,french_513.wav,0,pull,459,27,4,5,franças,f,5,0.5,91.42493583,0.50039447
5ca1196fffab4a00149a02a9,29,0,2024-02-27T11:17:25.331Z,french_513.wav,0,pull,459,27,4,5,franças,f,6,0.6,-85.42924685,0.46361625
5ca1196fffab4a00149a02a9,29,0,2024-02-27T11:17:25.331Z,french_513.wav,0,pull,459,27,4,5,franças,f,7,0.7,-8.28829678,0.32923248
5ca1196fffab4a00149a02a9,29,0,2024-02-27T11:17:25.331Z,french_513.wav,0,pull,459,27,4,5,franças,f,8,0.8,14.83211799,1.36965494
5ca1196fffab4a00149a02a9,29,0,2024-02-27T11:17:25.331Z,french_513.wav,0,pull,459,27,4,5,franças,f,9,0.9,76.72765657,0.90778718
5ca1196fffab4a00149a02a9,29,0,2024-02-27T11:17:25.331Z,french_513.wav,0,pull,459,27,4,5,franças,f,10,1.0,-52.57682729,1.26672765
5ca1196fffab4a00149a02a9,29,0,2024-02-27T11:17:25.331Z,french_513.wav,0,pull,459,27,4,5,franças,f,11,1.1,-94.50783694,0.74549941
5ca1196fffab4a00149a02a9,29,0,2024-02-27T11:17:25.331Z,french_513.wav,0,pull,459,27,4,5,franças,f,12,1.14141667,-21.60549074,0.4783076
5ca1196fffab4a00149a02a9,30,0,2024-02-27T11:17:25.331Z,french_448.wav,0,poule,585,27,4,5,franças,f,0,0.0,-49.41608192,0.77831595
5ca1196fffab4a00149a02a9,30,0,2024-02-27T11:17:25.331Z,french_448.wav,0,poule,585,27,4,5,franças,f,1,0.1,-30.3512703,1.71978765
5ca1196fffab4a00149a02a9,30,0,2024-02-27T11:17:25.331Z,french_448.wav,0,poule,585,27,4,5,franças,f,2,0.2,67.54613393,0.27102863
5ca1196fffab4a00149a02a9,30,0,2024-02-27T11:17:25.331Z,french_448.wav,0,poule,585,27,4,5,franças,f,3,0.3,-93.47597167,1.6891978
5ca1196fffab4a00149a02a9,30,0,2024-02-27T11:17:25.331Z,french_448.wav,0,poule,585,27,4,5,franças,f,4,0.4,23.22725928,1.07215267
5ca1196fffab4a00149a02a9,30,0,2024-02-27T11:17:25.331Z,french_448.wav,0,poule,585,27,4,5,franças,f,5,0.5,60.03248628,0.57646816
5ca1196fffab4a00149a02a9,30,0,2024-02-27T11:17:25.331Z,french_448.wav,0,poule,585,27,4,5,franças,f,6,0.6,26.16426079,0.14253766
5ca1196fffab4a00149a02a9,30,0,2024-02-27T11:17:25.331Z,french_448.wav,0,poule,585,27,4,5,franças,f,7,0.7,19.22865529,1.98223022
5ca1196fffab4a00149a02a9,30,0,2024-02-27T11:17:25.331Z,french_448.wav,0,poule,585,27,4,5,franças,f,8,0.8,-91.4658834,0.38558498
5ca1196fffab4a00149a02a9,30,0,2024-02-27T11:17:25.331Z,french_448.wav,0,poule,585,27,4,5,franças,f,9,0.9,-80.8404627,0.04175319
5ca1196fffab4a00149a02a9,30,0,2024-02-27T11:17:25.331Z,french_448.wav,0,poule,585,27,4,5,franças,f,10,1.0,-14.65228926,0.76552701
5ca1196fffab4a00149a02a9,30,0,2024-02-27T11:17:25.331Z,french_448.wav,0,poule,585,27,4,5,franças,f,11,1.1,-63.24456299,1.41782634
5ca1196fffab4a00149a02a9,30,0,2024-02-27T11:17:25.331Z,french_448.wav,0,poule,585,27,4,5,franças,f,12,1.14141667,-10.86817626,0.38733853
5ca1196fffab4a00149a02a9,31,0,2024-02-27T11:17:25.331Z,french_162.wav,0,poule,204,27,4,5,franças,f,0,0.0,-38.96167212,1.55026416
5ca1196fffab4a00149a02a9,31,0,2024-02-27T11:17:25.331Z,french_162.wav,0,poule,204,27,4,5,franças,f,1,0.1,80.18092811,0.24674033
5ca1196fffab4a00149a02a9,31,0,2024-02-27T11:17:25.331Z,french_162.wav,0,poule,204,27,4,5,franças,f,2,0.2,-81.06113279,1.21482423
5ca1196fffab4a00149a02a9,31,0,2024-02-27T11:17:25.331Z,french_162.wav,0,poule,204,27,4,5,franças,f,3,0.3,-42.28565504,1.28297285
5ca1196fffab4a00149a02a9,31,0,2024-02-27T11:17:25.331Z,french_162.wav,0,poule,204,27,4,5,franças,f,4,0.4,30.67134652,1.65504156
5ca1196fffab4a00149a02a9,31,0,2024-02-27T11:17:25.331Z,french_162.wav,0,poule,204,27,4,5,franças,f,5,0.5,87.51356995,1.51108296
5ca1196fffab4a00149a02a9,31,0,2024-02-27T11:17:25.331Z,french_162.wav,0,poule,204,27,4,5,franças,f,6,0.6,-33.64216401,0.42676112
5ca1196fffab4a00149a02a9,31,0,2024-02-27T11:17:25.331Z,french_162.wav,0,poule,204,27,4,5,franças,f,7,0.7,-59.84183097,0.47582994
5ca1196fffab4a00149a02a9,31,0,2024-02-27T11:17:25.331Z,french_162.wav,0,poule,204,27,4,5,franças,f,8,0.8,-15.77228678,0.9990467
5ca1196fffab4a00149a02a9,31,0,2024-02-27T11:17:25.331Z,french_162.wav,0,poule,204,27,4,5,franças,f,9,0.9,-13.63731809,1.04340837
5ca1196fffab4a00149a02a9,31,0,2024-02-27T11:17:25.331Z,french_162.wav,0,poule,204,27,4,5,franças,f,10,1.0,-26.93891473,1.47233289
5ca1196fffab4a00149a02a9,31,0,2024-02-27T11:17:25.331Z,french_162.wav,0,poule,204,27,4,5,franças,f,11,1.1,-89.32964059,0.19163643
5ca1196fffab4a00149a02a9,31,0,2024-02-27T11:17:25.331Z,french_162.wav,0,poule,204,27,4,5,franças,f,12,1.14141667,-46.59860418,0.92983005
5ca1196fffab4a00149a02a9,32,0,2024-02-27T11:17:25.331Z,french_12.wav,0,pull,564,27,4,5,franças,f,0,0.0,-48.68172333,0.07655503
5ca1196fffab4a00149a02a9,32,0,2024-02-27T11:17:25.331Z,french_12.wav,0,pull,564,27,4,5,franças,f,1,0.1,70.91397052,0.75975218
5ca1196fffab4a00149a02a9,32,0,2024-02-27T11:17:25.331Z,french_12.wav,0,pull,564,27,4,5,franças,f,2,0.2,-17.86739247,0.97135406
5ca1196fffab4a00149a02a9,32,0,2024-02-27T11:17:25.331Z,french_12.wav,0,pull,564,27,4,5,franças,f,3,0.3,-14.73225587,1.230876
5ca1196fffab4a00149a02a9,32,0,2024-02-27T11:17:25.331Z,french_12.wav,0,pull,564,27,4,5,franças,f,4,0.4,75.23392581,0.11397004
5ca1196fffab4a00149a02a9,32,0,2024-02-27T11:17:25.331Z,french_12.wav,0,pull,564,27,4,5,franças,f,5,0.5,-0.38538353,0.1757259
5ca1196fffab4a00149a02a9,32,0,2024-02-27T11:17:25.331Z,french_12.wav,0,pull,564,27,4,5,franças,f,6,0.6,-22.9614484,0.21281103
5ca1196fffab4a00149a02a9,32,0,2024-02-27T11:17:25.331Z,french_12.wav,0,pull,564,27,4,5,franças,f,7,0.7,16.8886563,0.16946373
5ca1196fffab4a00149a02a9,32,0,2024-02-27T11:17:25.331Z,french_12.wav,0,pull,564,27,4,5,franças,f,8,0.8,33.5798334,0.97186419
5ca1196fffab4a00149a02a9,32,0,2024-02-27T11:17:25.331Z,french_12.wav,0,pull,564,27,4,5,franças,f,9,0.9,-4.41287917,0.8719393
5ca1196fffab4a00149a02a9,32,0,2024-02-27T11:17:25.331Z,french_12.wav,0,pull,564,27,4,5,franças,f,10,1.0,-95.96681656,1.93533156
5ca1196fffab4a00149a02a9,32,0,2024-02-27T11:17:25.331Z,french_12.wav,0,pull,564,27,4,5,franças,f,11,1.1,26.54904609,1.01102189
5ca1196fffab4a00149a02a9,32,0,2024-02-27T11:17:25.331Z,french_12.wav,0,pull,564,27,4,5,franças,f,12,1.14141667,-64.50952247,1.51400696
5ca1196fffab4a00149a02a9,33,0,2024-02-27T11:17:25.331Z,french_903.wav,0,poule,852,27,4,5,franças,f,0,0.0,-30.9940869,1.1028355
5ca1196fffab4a00149a02a9,33,0,2024-02-27T11:17:25.331Z,french_903.wav,0,poule,852,27,4,5,franças,f,1,0.1,-51.85288644,1.41515079
5ca1196fffab4a00149a02a9,33,0,2024-02-27T11:17:25.331Z,french_903.wav,0,poule,852,27,4,5,franças,f,2,0.2,9.37565232,0.09010735
5ca1196fffab4a00149a02a9,33,0,2024-02-27T11:17:25.331Z,french_903.wav,0,poule,852,27,4,5,franças,f,3,0.3,-65.56040136,0.80440488
5ca1196fffab4a00149a02a9,33,0,2024-02-27T11:17:25.331Z,french_903.wav,0,poule,852,27,4,5,franças,f,4,0.4,-20.59983465,1.66392086
5ca1196fffab4a00149a02a9,33,0,2024-02-27T11:17:25.331Z,french_903.wav,0,poule,852,27,4,5,franças,f,5,0.5,-81.87958144,1.51454605
5ca1196fffab4a00149a02a9,33,0,2024-02-27T11:17:25.331Z,french_903.wav,0,poule,852,27,4,5,franças,f,6,0.6,-2.02758668,1.51747342
5ca1196fffab4a00149a02a9,33,0,2024-02-27T11:17:25.331Z,french_903.wav,0,poule,852,27,4,5,franças,f,7,0.7,-50.52631335,1.16263681
5ca1196fffab4a00149a02a9,33,0,2024-02-27T11:17:25.331Z,french_903.wav,0,poule,852,27,4,5,franças,f,8,0.8,61.79138453,0.22680531
5ca1196fffab4a00149a02a9,33,0,2024-02-27T11:17:25.331Z,french_903.wav,0,poule,852,27,4,5,franças,f,9,0.9,14.74849978,1.67852395
5ca1196fffab4a00149a02a9,33,0,2024-02-27T11:17:25.331Z,french_903.wav,0,poule,852,27,4,5,franças,f,10,1.0,90.51411256,1.15648316
5ca1196fffab4a00149a02a9,33,0,2024-02-27T11:17:25.331Z,french_903.wav,0,poule,852,27,4,5,franças,f,11,1.1,21.53536294,0.37061547
5ca1196fffab4a00149a02a9,33,0,2024-02-27T11:17:25.331Z,french_903.wav,0,poule,852,27,4,5,franças,f,12,1.14141667,-52.68287573,1.51798738
5ca1196fffab4a00149a02a9,34,0,2024-02-27T11:17:25.331Z,french_472.wav,0,pull,360,27,4,5,franças,f,0,0.0,-31.33353593,0.89232459
5ca1196fffab4a00149a02a9,34,0,2024-02-27T11:17:25.331Z,french_472.wav,0,pull,360,27,4,5,franças,f,1,0.1,-49.49917903,0.0337069
5ca1196fffab4a00149a02a9,34,0,2024-02-27T11:17:25.331Z,french_472.wav,0,pull,360,27,4,5,franças,f,2,0.2,-71.21753347,1.85491701
5ca1196fffab4a00149a02a9,34,0,2024-02-27T11:17:25.331Z,french_472.wav,0,pull,360,27,4,5,franças,f,3,0.3,93.90241079,1.04793629
5ca1196fffab4a00149a02a9,34,0,2024-02-27T11:17:25.331Z,french_472.wav,0,pull,360,27,4,5,franças,f,4,0.4,-15.9291914,0.66120859
5ca1196fffab4a00149a02a9,34,0,2024-02-27T11:17:25.331Z,french_472.wav,0,pull,360,27,4,5,franças,f,5,0.5,-17.91277509,1.31546264
5ca1196fffab4a00149a02a9,34,0,2024-02-27T11:17:25.331Z,french_472.wav,0,pull,360,27,4,5,franças,f,6,0.6,-92.82206414,0.75122354
5ca1196fffab4a00149a02a9,34,0,2024-02-27T11:17:25.331Z,french_472.wav,0,pull,360,27,4,5,franças,f,7,0.7,9.95802513,0.85681732
5ca1196fffab4a00149a02a9,34,0,2024-02-27T11:17:25.331Z,french_472.wav,0,pull,360,27,4,5,franças,f,8,0.8,2.63305448,1.03382488
5ca1196fffab4a00149a02a9,34,0,2024-02-27T11:17:25.331Z,french_472.wav,0,pull,360,27,4,5,franças,f,9,0.9,-21.84239236,0.59134372
5ca1196fffab4a00149a02a9,34,0,2024-02-27T11:17:25.331Z,french_472.wav,0,pull,360,27,4,5,franças,f,10,1.0,8.18231827,1.03865283
5ca1196fffab4a00149a02a9,34,0,2024-02-27T11:17:25.331Z,french_472.wav,0,pull,360,27,4,5,franças,f,11,1.1,-31.98207743,0.08528466
5ca1196fffab4a00149a02a9,34,0,2024-02-27T11:17:25.331Z,french_472.wav,0,pull,360,27,4,5,franças,f,12,1.14141667,-51.9330912,1.61155129
5ca1196fffab4a00149a02a9,35,0,2024-02-27T11:17:25.331Z,french_347.wav,0,poule,240,27,4,5,franças,f,0,0.0,57.05528949,1.64220356
5ca1196fffab4a00149a02a9,35,0,2024-02-27T11:17:25.331Z,french_347.wav,0,poule,240,27,4,5,franças,f,1,0.1,-48.19665941,1.82332469
5ca1196fffab4a00149a02a9,35,0,2024-02-27T11:17:25.331Z,french_347.wav,0,poule,240,27,4,5,franças,f,2,0.2,91.45679685,0.22099974
5ca1196fffab4a00149a02a9,35,0,2024-02-27T11:17:25.331Z,french_347.wav,0,poule,240,27,4,5,franças,f,3,0.3,-29.31586745,1.13825501
5ca1196fffab4a00149a02a9,35,0,2024-02-27T11:17:25.331Z,french_347.wav,0,poule,240,27,4,5,franças,f,4,0.4,9.10002374,1.767798
5ca1196fffab4a00149a02a9,35,0,2024-02-27T11:17:25.331Z,french_347.wav,0,poule,240,27,4,5,franças,f,5,0.5,53.01721292,0.7433021
5ca1196fffab4a00149a02a9,35,0,2024-02-27T11:17:25.331Z,french_347.wav,0,poule,240,27,4,5,franças,f,6,0.6,-22.03928677,0.36890647
5ca1196fffab4a00149a02a9,35,0,2024-02-27T11:17:25.331Z,french_347.wav,0,poule,240,27,4,5,franças,f,7,0.7,-73.006405,1.31994173
5ca1196fffab4a00149a02a9,35,0,2024-02-27T11:17:25.331Z,french_347.wav,0,poule,240,27,4,5,franças,f,8,0.8,20.29301957,1.10139997
5ca1196fffab4a00149a02a9,35,0,2024-02-27T11:17:25.331Z,french_347.wav,0,poule,240,27,4,5,franças,f,9,0.9,19.10492943,1.91392068
5ca1196fffab4a00149a02a9,35,0,2024-02-27T11:17:25.331Z,french_347.wav,0,poule,240,27,4,5,franças,f,10,1.0,52.95636206,0.92491324
5ca1196fffab4a00149a02a9,35,0,2024-02-27T11:17:25.331Z,french_347.wav,0,poule,240,27,4,5,franças,f,11,1.1,30.9365932,0.81438983
5ca1196fffab4a00149a02a9,35,0,2024-02-27T11:17:25.331Z,french_347.wav,0,poule,240,27,4,5,franças,f,12,1.14141667,45.55083793,0.15118447
5ca1196fffab4a00149a02a9,36,0,2024-02-27T11:17:25.331Z,french_957.wav,0,pull,314,27,4,5,franças,f,0,0.0,12.88644625,0.94965628
5ca1196fffab4a00149a02a9,36,0,2024-02-27T11:17:25.331Z,french_957.wav,0,pull,314,27,4,5,franças,f,1,0.1,18.70253323,0.59858398
5ca1196fffab4a00149a02a9,36,0,2024-02-27T11:17:25.331Z,french_957.wav,0,pull,314,27,4,5,franças,f,2,0.2,63.85450626,0.52603788
5ca1196fffab4a00149a02a9,36,0,2024-02-27T11:17:25.331Z,french_957.wav,0,pull,314,27,4,5,franças,f,3,0.3,-60.64060755,1.4306776
5ca1196fffab4a00149a02a9,36,0,2024-02-27T11:17:25.331Z,french_957.wav,0,pull,314,27,4,5,franças,f,4,0.4,-90.62123275,1.89873251
5ca1196fffab4a00149a02a9,36,0,2024-02-27T11:17:25.331Z,french_957.wav,0,pull,314,27,4,5,franças,f,5,0.5,24.73093513,1.80457899
5ca1196fffab4a00149a02a9,36,0,2024-02-27T11:17:25.331Z,french_957.wav,0,pull,314,27,4,5,franças,f,6,0.6,-79.40998292,0.32316389
5ca1196fffab4a00149a02a9,36,0,2024-02-27T11:17:25.331Z,french_957.wav,0,pull,314,27,4,5,franças,f,7,0.7,99.89533842,0.77051068
5ca1196fffab4a00149a02a9,36,0,2024-02-27T11:17:25.331Z,french_957.wav,0,pull,314,27,4,5,franças,f,8,0.8,-82.08813401,0.69662658
5ca1196fffab4a00149a02a9,36,0,2024-02-27T11:17:25.331Z,french_957.wav,0,pull,314,27,4,5,franças,f,9,0.9,-46.39069699,0.26903226
5ca1196fffab4a00149a02a9,36,0,2024-02-27T11:17:25.331Z,french_957.wav,0,pull,314,27,4,5,franças,f,10,1.0,-76.81702111,0.24465655
5ca1196fffab4a00149a02a9,36,0,2024-02-27T11:17:25.331Z,french_957.wav,0,pull,314,27,4,5,franças,f,11,1.1,65.90507306,1.35119799
5ca1196fffab4a00149a02a9,36,0,2024-02-27T11:17:25.331Z,french_957.wav,0,pull,314,27,4,5,franças,f,12,1.14141667,15.50319114,1.75217446
5ca1196fffab4a00149a02a9,37,0,2024-02-27T11:17:25.331Z,french_530.wav,0,pull,255,27,4,5,franças,f,0,0.0,-19.54532034,0.34679573
5ca1196fffab4a00149a02a9,37,0,2024-02-27T11:17:25.331Z,french_530.wav,0,pull,255,27,4,5,franças,f,1,0.1,14.05064237,1.94208709
5ca1196fffab4a00149a02a9,37,0,2024-02-27T11:17:25.331Z,french_530.wav,0,pull,255,27,4,5,franças,f,2,0.2,-4.28719519,0.85640382
5ca1196fffab4a00149a02a9,37,0,2024-02-27T11:17:25.331Z,french_530.wav,0,pull,255,27,4,5,franças,f,3,0.3,19.85899102,0.90119464
5ca1196fffab4a00149a02a9,37,0,2024-02-27T11:17:25.331Z,french_530.wav,0,pull,255,27,4,5,franças,f,4,0.4,-38.64583351,1.56090172
5ca1196fffab4a00149a02a9,37,0,2024-02-27T11:17:25.331Z,french_530.wav,0,pull,255,27,4,5,franças,f,5,0.5,-79.11829367,1.85535128
5ca1196fffab4a00149a02a9,37,0,2024-02-27T11:17:25.331Z,french_530.wav,0,pull,255,27,4,5,franças,f,6,0.6,60.711198,1.68425563
5ca1196fffab4a00149a02a9,37,0,2024-02-27T11:17:25.331Z,french_530.wav,0,pull,255,27,4,5,franças,f,7,0.7,-5.6168249,0.78685771
5ca1196fffab4a00149a02a9,37,0,2024-02-27T11:17:25.331Z,french_530.wav,0,pull,255,27,4,5,franças,f,8,0.8,80.65968589,1.17779403
5ca1196fffab4a00149a02a9,37,0,2024-02-27T11:17:25.331Z,french_530.wav,0,pull,255,27,4,5,franças,f,9,0.9,-41.24747481,0.23085455
5ca1196fffab4a00149a02a9,37,0,2024-02-27T11:17:25.331Z,french_530.wav,0,pull,255,27,4,5,franças,f,10,1.0,27.78155806,1.18446225
5ca1196fffab4a00149a02a9,37,0,2024-02-27T11:17:25.331Z,french_530.wav,0,pull,255,27,4,5,franças,f,11,1.1,-10.91699521,1.46392077
5ca1196fffab4a00149a02a9,37,0,2024-02-27T11:17:25.331Z,french_530.wav,0,pull,255,27,4,5,franças,f,12,1.14141667,73.68517157,0.22350715
5ca1196fffab4a00149a02a9,38,0,2024-02-27T11:17:25.331Z,french_442.wav,0,poule,286,27,4,5,franças,f,0,0.0,59.89348182,1.93338354
5ca1196fffab4a00149a02a9,38,0,2024-02-27T11:17:25.331Z,french_442.wav,0,poule,286,27,4,5,franças,f,1,0.1,-90.19745983,0.1221368
5ca1196fffab4a00149a02a9,38,0,2024-02-27T11:17:25.331Z,french_442.wav,0,poule,286,27,4,5,franças,f,2,0.2,34.97525188,1.40375233
5ca1196fffab4a00149a02a9,38,0,2024-02-27T11:17:25.331Z,french_442.wav,0,poule,286,27,4,5,franças,f,3,0.3,-60.10498495,0.23715052
5ca1196fffab4a00149a02a9,38,0,2024-02-27T11:17:25.331Z,french_442.wav,0,poule,286,27,4,5,franças,f,4,0.4,-52.20535883,0.86935067
5ca1196fffab4a00149a02a9,38,0,2024-02-27T11:17:25.331Z,french_442.wav,0,poule,286,27,4,5,franças,f,5,0.5,33.32923329,1.40007492
5ca1196fffab4a00149a02a9,38,0,2024-02-27T11:17:25.331Z,french_442.wav,0,poule,286,27,4,5,franças,f,6,0.6,-72.02089693,1.87875592
5ca1196fffab4a00149a02a9,38,0,2024-02-27T11:17:25.331Z,french_442.wav,0,poule,286,27,4,5,franças,f,7,0.7,15.91732192,1.15703728
5ca1196fffab4a00149a02a9,38,0,2024-02-27T11:17:25.331Z,french_442.wav,0,poule,286,27,4,5,franças,f,8,0.8,49.50947125,1.45583236
5ca1196fffab4a00149a02a9,38,0,2024-02-27T11:17:25.331Z,french_442.wav,0,poule,286,27,4,5,franças,f,9,0.9,-96.72595223,0.52053121
5ca1196fffab4a00149a02a9,38,0,2024-02-27T11:17:25.331Z,french_442.wav,0,poule,286,27,4,5,franças,f,10,1.0,12.6942829,0.18849311
5ca1196fffab4a00149a02a9,38,0,2024-02-27T11:17:25.331Z,french_442.wav,0,poule,286,27,4,5,franças,f,11,1.1,-57.11899111,1.67578542
5ca1196fffab4a00149a02a9,38,0,2024-02-27T11:17:25.331Z,french_442.wav,0,poule,286,27,4,5,franças,f,12,1.14141667,36.89213251,0.36635536
5ca1196fffab4a00149a02a9,39,0,2024-02-27T11:17:25.331Z,french_964.wav,0,poule,869,27,4,5,franças,f,0,0.0,33.09242733,0.20768895
5ca1196fffab4a00149a02a9,39,0,2024-02-27T11:17:25.331Z,french_964.wav,0,poule,869,27,4,5,franças,f,1,0.1,35.00965651,1.10634372
5ca1196fffab4a00149a02a9,39,0,2024-02-27T11:17:25.331Z,french_964.wav,0,poule,869,27,4,5,franças,f,2,0.2,-84.27771788,1.24458485
5ca1196fffab4a00149a02a9,39,0,2024-02-27T11:17:25.331Z,french_964.wav,0,poule,869,27,4,5,franças,f,3,0.3,-43.99991395,0.46794756
5ca1196fffab4a00149a02a9,39,0,2024-02-27T11:17:25.331Z,french_964.wav,0,poule,869,27,4,5,franças,f,4,0.4,85.17461764,1.27301034
5ca1196fffab4a00149a02a9,39,0,2024-02-27T11:17:25.331Z,french_964.wav,0,poule,869,27,4,5,franças,f,5,0.5,34.90610351,1.24864597
5ca1196fffab4a00149a02a9,39,0,2024-02-27T11:17:25.331Z,french_964.wav,0,poule,869,27,4,5,franças,f,6,0.6,44.52556005,1.11074861
5ca1196fffab4a00149a02a9,39,0,2024-02-27T11:17:25.331Z,french_964.wav,0,poule,869,27,4,5,franças,f,7,0.7,-39.35993347,0.2163569
5ca1196fffab4a00149a02a9,39,0,2024-02-27T11:17:25.331Z,french_964.wav,0,poule,869,27,4,5,franças,f,8,0.8,-59.26827617,1.15029488
5ca1196fffab4a00149a02a9,39,0,2024-02-27T11:17:25.331Z,french_964.wav,0,poule,869,27,4,5,franças,f,9,0.9,-0.13276326,1.41986014
5ca1196fffab4a00149a02a9,39,0,2024-02-27T11:17:25.331Z,french_964.wav,0,poule,869,27,4,5,franças,f,10,1.0,-52.7984183,1.68989998
5ca1196fffab4a00149a02a9,39,0,2024-02-27T11:17:25.331Z,french_964.wav,0,poule,869,27,4,5,franças,f,11,1.1,-26.03331608,0.52518862
5ca1196fffab4a00149a02a9,39,0,2024-02-27T11:17:25.331Z,french_964.wav,0,poule,869,27,4,5,franças,f,12,1.14141667,-25.25531547,0.94660827
5ca1196fffab4a00149a02a9,40,0,2024-02-27T11:17:25.331Z,french_281.wav,0,pull,189,27,4,5,franças,f,0,0.0,-95.80336327,0.76183862
5ca1196fffab4a00149a02a9,40,0,2024-02-27T11:17:25.331Z,french_281.wav,0,pull,189,27,4,5,franças,f,1,0.1,13.19102034,1.51704684
5ca1196fffab4a00149a02a9,40,0,2024-02-27T11:17:25.331Z,french_281.wav,0,pull,189,27,4,5,franças,f,2,0.2,42.62860053,0.9408124
5ca1196fffab4a00149a02a9,40,0,2024-02-27T11:17:25.331Z,french_281.wav,0,pull,189,27,4,5,franças,f,3,0.3,21.92016727,0.14797413
5ca1196fffab4a00149a02a9,40,0,2024-02-27T11:17:25.331Z,french_281.wav,0,pull,189,27,4,5,franças,f,4,0.4,-2.97694346,0.97581102
5ca1196fffab4a00149a02a9,40,0,2024-02-27T11:17:25.331Z,french_281.wav,0,pull,189,27,4,5,franças,f,5,0.5,-3.56004014,0.67546432
5ca1196fffab4a00149a02a9,40,0,2024-02-27T11:17:25.331Z,french_281.wav,0,pull,189,27,4,5,franças,f,6,0.6,-28.69548466,0.35656679
5ca1196fffab4a00149a02a9,40,0,2024-02-27T11:17:25.331Z,french_281.wav,0,pull,189,27,4,5,franças,f,7,0.7,-9.16727504,1.28503381
5ca1196fffab4a00149a02a9,40,0,2024-02-27T11:17:25.331Z,french_281.wav,0,pull,189,27,4,5,franças,f,8,0.8,7.86062341,0.91616519
5ca1196fffab4a00149a02a9,40,0,2024-02-27T11:17:25.331Z,french_281.wav,0,pull,189,27,4,5,franças,f,9,0.9,-95.03668578,1.72740892
5ca1196fffab4a00149a02a9,40,0,2024-02-27T11:17:25.331Z,french_281.wav,0,pull,189,27,4,5,franças,f,10,1.0,-83.63952968,0.79466522
5ca1196fffab4a00149a02a9,40,0,2024-02-27T11:17:25.331Z,french_281.wav,0,pull,189,27,4,5,franças,f,11,1.1,74.11931798,0.92967992
5ca1196fffab4a00149a02a9,40,0,2024-02-27T11:17:25.331Z,french_281.wav,0,pull,189,27,4,5,franças,f,12,1.14141667,32.00428404,1.54385024
5ca1196fffab4a00149a02a9,41,0,2024-02-27T11:17:25.331Z,french_536.wav,0,pull,195,27,4,5,franças,f,0,0.0,-52.4206548,0.67962867
5ca1196fffab4a00149a02a9,41,0,2024-02-27T11:17:25.331Z,french_536.wav,0,pull,195,27,4,5,franças,f,1,0.1,-74.26891648,0.63540929
5ca1196fffab4a00149a02a9,41,0,2024-02-27T11:17:25.331Z,french_536.wav,0,pull,195,27,4,5,franças,f,2,0.2,11.31126048,0.83661694
5ca1196fffab4a00149a02a9,41,0,2024-02-27T11:17:25.331Z,french_536.wav,0,pull,195,27,4,5,franças,f,3,0.3,-21.61900245,1.85383119
5ca1196fffab4a00149a02a9,41,0,2024-02-27T11:17:25.331Z,french_536.wav,0,pull,195,27,4,5,franças,f,4,0.4,-94.98146832,1.07036792
5ca1196fffab4a00149a02a9,41,0,2024-02-27T11:17:25.331Z,french_536.wav,0,pull,195,27,4,5,franças,f,5,0.5,99.95155671,1.52468216
5ca1196fffab4a00149a02a9,41,0,2024-02-27T11:17:25.331Z,french_536.wav,0,pull,195,27,4,5,franças,f,6,0.6,-88.3367002,1.55319614
5ca1196fffab4a00149a02a9,41,0,2024-02-27T11:17:25.331Z,french_536.wav,0,pull,195,27,4,5,franças,f,7,0.7,-23.8710155,1.12341702
5ca1196fffab4a00149a02a9,41,0,2024-02-27T11:17:25.331Z,french_536.wav,0,pull,195,27,4,5,franças,f,8,0.8,43.41576253,1.5546784
5ca1196fffab4a00149a02a9,41,0,2024-02-27T11:17:25.331Z,french_536.wav,0,pull,195,27,4,5,franças,f,9,0.9,40.55887391,0.54178369
5ca1196fffab4a00149a02a9,41,0,2024-02-27T11:17:25.331Z,french_536.wav,0,pull,195,27,4,5,franças,f,10,1.0,34.47455049,1.26113571
5ca1196fffab4a00149a02a9,41,0,2024-02-27T11:17:25.331Z,french_536.wav,0,pull,195,27,4,5,franças,f,11,1.1,-52.8153809,1.84040785
5ca1196fffab4a00149a02a9,41,0,2024-02-27T11:17:25.331Z,french_536.wav,0,pull,195,27,4,5,franças,f,12,1.14141667,-3.00855762,1.97764464
5ca1196fffab4a00149a02a9,42,0,2024-02-27T11:17:25.331Z,french_561.wav,0,pull,374,27,4,5,franças,f,0,0.0,67.40101017,0.645078
5ca1196fffab4a00149a02a9,42,0,2024-02-27T11:17:25.331Z,french_561.wav,0,pull,374,27,4,5,franças,f,1,0.1,36.60368445,0.26756066
5ca1196fffab4a00149a02a9,42,0,2024-02-27T11:17:25.331Z,french_561.wav,0,pull,374,27,4,5,franças,f,2,0.2,39.55672366,0.69254265
5ca1196fffab4a00149a02a9,42,0,2024-02-27T11:17:25.331Z,french_561.wav,0,pull,374,27,4,5,franças,f,3,0.3,54.30102721,1.32198922
5ca1196fffab4a00149a02a9,42,0,2024-02-27T11:17:25.331Z,french_561.wav,0,pull,374,27,4,5,franças,f,4,0.4,20.03392426,1.02700149
5ca1196fffab4a00149a02a9,42,0,2024-02-27T11:17:25.331Z,french_561.wav,0,pull,374,27,4,5,franças,f,5,0.5,-29.68246873,0.98226919
5ca1196fffab4a00149a02a9,42,0,2024-02-27T11:17:25.331Z,french_561.wav,0,pull,374,27,4,5,franças,f,6,0.6,22.40430281,0.81279805
5ca1196fffab4a00149a02a9,42,0,2024-02-27T11:17:25.331Z,french_561.wav,0,pull,374,27,4,5,franças,f,7,0.7,-74.48697664,0.24367369
5ca1196fffab4a00149a02a9,42,0,2024-02-27T11:17:25.331Z,french_561.wav,0,pull,374,27,4,5,franças,f,8,0.8,13.2806252,0.57451136
5ca1196fffab4a00149a02a9,42,0,2024-02-27T11:17:25.331Z,french_561.wav,0,pull,374,27,4,5,franças,f,9,0.9,44.09035723,0.58440629
5ca1196fffab4a00149a02a9,42,0,2024-02-27T11:17:25.331Z,french_561.wav,0,pull,374,27,4,5,franças,f,10,1.0,-8.48015654,1.65336997
5ca1196fffab4a00149a02a9,42,0,2024-02-27T11:17:25.331Z,french_561.wav,0,pull,374,27,4,5,franças,f,11,1.1,45.0458021,1.04192986
5ca1196fffab4a00149a02a9,42,0,2024-02-27T11:17:25.331Z,french_561.wav,0,pull,374,27,4,5,franças,f,12,1.14141667,-93.39742635,0.23712889
5ca1196fffab4a00149a02a9,43,0,2024-02-27T11:17:25.331Z,french_919.wav,0,poule,211,27,4,5,franças,f,0,0.0,-1.20086157,1.82372542
5ca1196fffab4a00149a02a9,43,0,2024-02-27T11:17:25.331Z,french_919.wav,0,poule,211,27,4,5,franças,f,1,0.1,23.70683085,1.2747469
5ca1196fffab4a00149a02a9,43,0,2024-02-27T11:17:25.331Z,french_919.wav,0,poule,211,27,4,5,franças,f,2,0.2,57.81380223,1.5717064
5ca1196fffab4a00149a02a9,43,0,2024-02-27T11:17:25.331Z,french_919.wav,0,poule,211,27,4,5,franças,f,3,0.3,-35.3373876,0.75801577
5ca1196fffab4a00149a02a9,43,0,2024-02-27T11:17:25.331Z,french_919.wav,0,poule,211,27,4,5,franças,f,4,0.4,-47.40127712,0.41520743
5ca1196fffab4a00149a02a9,43,0,2024-02-27T11:17:25.331Z,french_919.wav,0,poule,211,27,4,5,franças,f,5,0.5,30.8485682,0.28163439
5ca1196fffab4a00149a02a9,43,0,2024-02-27T11:17:25.331Z,french_919.wav,0,poule,211,27,4,5,franças,f,6,0.6,-65.35395561,0.64408251
5ca1196fffab4a00149a02a9,43,0,2024-02-27T11:17:25.331Z,french_919.wav,0,poule,211,27,4,5,franças,f,7,0.7,85.95532588,0.95994637
5ca1196fffab4a00149a02a9,43,0,2024-02-27T11:17:25.331Z,french_919.wav,0,poule,211,27,4,5,franças,f,8,0.8,92.08322147,0.70005391
5ca1196fffab4a00149a02a9,43,0,2024-02-27T11:17:25.331Z,french_919.wav,0,poule,211,27,4,5,franças,f,9,0.9,-41.94331802,0.9468388
5ca1196fffab4a00149a02a9,43,0,2024-02-27T11:17:25.331Z,french_919.wav,0,poule,211,27,4,5,franças,f,10,1.0,52.33310805,0.21391183
5ca1196fffab4a00149a02a9,43,0,2024-02-27T11:17:25.331Z,french_919.wav,0,poule,211,27,4,5,franças,f,11,1.1,-64.04027042,1.54895117
5ca1196fffab4a00149a02a9,43,0,2024-02-27T11:17:25.331Z,french_919.wav,0,poule,211,27,4,5,franças,f,12,1.14141667,-13.37988962,0.55798758
5ca1196fffab4a00149a02a9,44,0,2024-02-27T11:17:25.331Z,french_21.wav,0,poule,488,27,4,5,franças,f,0,0.0,89.54651409,0.36254109
5ca1196fffab4a00149a02a9,44,0,2024-02-27T11:17:25.331Z,french_21.wav,0,poule,488,27,4,5,franças,f,1,0.1,-43.13982713,1.70389464
5ca1196fffab4a00149a02a9,44,0,2024-02-27T11:17:25.331Z,french_21.wav,0,poule,488,27,4,5,franças,f,2,0.2,71.08225809,0.45266141
5ca1196fffab4a00149a02a9,44,0,2024-02-27T11:17:25.331Z,french_21.wav,0,poule,488,27,4,5,franças,f,3,0.3,66.72411138,0.68695224
5ca1196fffab4a00149a02a9,44,0,2024-02-27T11:17:25.331Z,french_21.wav,0,poule,488,27,4,5,franças,f,4,0.4,-4.95779125,0.40977221
5ca1196fffab4a00149a02a9,44,0,2024-02-27T11:17:25.331Z,french_21.wav,0,poule,488,27,4,5,franças,f,5,0.5,13.2875092,1.79948557
5ca1196fffab4a00149a02a9,44,0,2024-02-27T11:17:25.331Z,french_21.wav,0,poule,488,27,4,5,franças,f,6,0.6,-95.26212626,0.6776
5ca1196fffab4a00149a02a9,44,0,2024-02-27T11:17:25.331Z,french_21.wav,0,poule,488,27,4,5,franças,f,7,0.7,94.64042379,1.02790109
5ca1196fffab4a00149a02a9,44,0,2024-02-27T11:17:25.331Z,french_21.wav,0,poule,488,27,4,5,franças,f,8,0.8,26.48775337,0.46813845
5ca1196fffab4a00149a02a9,44,0,2024-02-27T11:17:25.331Z,french_21.wav,0,poule,488,27,4,5,franças,f,9,0.9,-84.36990972,1.37572316
5ca1196fffab4a00149a02a9,44,0,2024-02-27T11:17:25.331Z,french_21.wav,0,poule,488,27,4,5,franças,f,10,1.0,-76.89735733,0.32495597
5ca1196fffab4a00149a02a9,44,0,2024-02-27T11:17:25.331Z,french_21.wav,0,poule,488,27,4,5,franças,f,11,1.1,5.2136775,0.67097563
5ca1196fffab4a00149a02a9,44,0,2024-02-27T11:17:25.331Z,french_21.wav,0,poule,488,27,4,5,franças,f,12,1.14141667,50.56825865,1.70226652
5ca1196fffab4a00149a02a9,45,0,2024-02-27T11:17:25.331Z,french_18.wav,0,pull,415,27,4,5,franças,f,0,0.0,93.52743688,0.76387958
5ca1196fffab4a00149a02a9,45,0,2024-02-27T11:17:25.331Z,french_18.wav,0,pull,415,27,4,5,franças,f,1,0.1,75.80838578,1.75297182
5ca1196fffab4a00149a02a9,45,0,2024-02-27T11:17:25.331Z,french_18.wav,0,pull,415,27,4,5,franças,f,2,0.2,-9.29580861,0.15580834
5ca1196fffab4a00149a02a9,45,0,2024-02-27T11:17:25.331Z,french_18.wav,0,pull,415,27,4,5,franças,f,3,0.3,-14.85608386,1.56760651
5ca1196fffab4a00149a02a9,45,0,2024-02-27T11:17:25.331Z,french_18.wav,0,pull,415,27,4,5,franças,f,4,0.4,47.7084462,0.03729265
5ca1196fffab4a00149a02a9,45,0,2024-02-27T11:17:25.331Z,french_18.wav,0,pull,415,27,4,5,franças,f,5,0.5,-86.34780257,1.22925424
5ca1196fffab4a00149a02a9,45,0,2024-02-27T11:17:25.331Z,french_18.wav,0,pull,415,27,4,5,franças,f,6,0.6,56.10837569,0.55659065
5ca1196fffab4a00149a02a9,45,0,2024-02-27T11:17:25.331Z,french_18.wav,0,pull,415,27,4,5,franças,f,7,0.7,-52.07621897,1.75613793
5ca1196fffab4a00149a02a9,45,0,2024-02-27T11:17:25.331Z,french_18.wav,0,pull,415,27,4,5,franças,f,8,0.8,35.05417357,0.81523904
5ca1196fffab4a00149a02a9,45,0,2024-02-27T11:17:25.331Z,french_18.wav,0,pull,415,27,4,5,franças,f,9,0.9,46.67766368,0.36189217
5ca1196fffab4a00149a02a9,45,0,2024-02-27T11:17:25.331Z,french_18.wav,0,pull,415,27,4,5,franças,f,10,1.0,-74.34797605,1.53764015
5ca1196fffab4a00149a02a9,45,0,2024-02-27T11:17:25.331Z,french_18.wav,0,pull,415,27,4,5,franças,f,11,1.1,-14.43524118,1.56618903
5ca1196fffab4a00149a02a9,45,0,2024-02-27T11:17:25.331Z,french_18.wav,0,pull,415,27,4,5,franças,f,12,1.14141667,27.72939281,1.06338948
5ca1196fffab4a00149a02a9,46,0,2024-02-27T11:17:25.331Z,french_807.wav,0,pull,244,27,4,5,franças,f,0,0.0,-80.44919657,1.01791128
5ca1196fffab4a00149a02a9,46,0,2024-02-27T11:17:25.331Z,french_807.wav,0,pull,244,27,4,5,franças,f,1,0.1,-34.48727533,0.51127266
5ca1196fffab4a00149a02a9,46,0,2024-02-27T11:17:25.331Z,french_807.wav,0,pull,244,27,4,5,franças,f,2,0.2,-27.85444657,1.03770419
5ca1196fffab4a00149a02a9,46,0,2024-02-27T11:17:25.331Z,french_807.wav,0,pull,244,27,4,5,franças,f,3,0.3,-0.73618666,1.5684914
5ca1196fffab4a00149a02a9,46,0,2024-02-27T11:17:25.331Z,french_807.wav,0,pull,244,27,4,5,franças,f,4,0.4,0.77626811,0.83417196
5ca1196fffab4a00149a02a9,46,0,2024-02-27T11:17:25.331Z,french_807.wav,0,pull,244,27,4,5,franças,f,5,0.5,-75.08426277,0.04387423
5ca1196fffab4a00149a02a9,46,0,2024-02-27T11:17:25.331Z,french_807.wav,0,pull,244,27,4,5,franças,f,6,0.6,20.03798274,0.37017036
5ca1196fffab4a00149a02a9,46,0,2024-02-27T11:17:25.331Z,french_807.wav,0,pull,244,27,4,5,franças,f,7,0.7,46.24294154,1.90217427
5ca1196fffab4a00149a02a9,46,0,2024-02-27T11:17:25.331Z,french_807.wav,0,pull,244,27,4,5,franças,f,8,0.8,22.03140958,0.74355786
5ca1196fffab4a00149a02a9,46,0,2024-02-27T11:17:25.331Z,french_807.wav,0,pull,244,27,4,5,franças,f,9,0.9,26.33483047,0.1834128
5ca1196fffab4a00149a02a9,46,0,2024-02-27T11:17:25.331Z,french_807.wav,0,pull,244,27,4,5,franças,f,10,1.0,-51.28476198,1.60996589
5ca1196fffab4a00149a02a9,46,0,2024-02-27T11:17:25.331Z,french_807.wav,0,pull,244,27,4,5,franças,f,11,1.1,-29.39920635,1.08150991
5ca1196fffab4a00149a02a9,46,0,2024-02-27T11:17:25.331Z,french_807.wav,0,pull,244,27,4,5,franças,f,12,1.14141667,1.31536819,0.63923462
5ca1196fffab4a00149a02a9,47,0,2024-02-27T11:17:25.331Z,french_729.wav,0,poule,650,27,4,5,franças,f,0,0.0,6.02970532,1.61080248
5ca1196fffab4a00149a02a9,47,0,2024-02-27T11:17:25.331Z,french_729.wav,0,poule,650,27,4,5,franças,f,1,0.1,-58.23115064,1.8035096
5ca1196fffab4a00149a02a9,47,0,2024-02-27T11:17:25.331Z,french_729.wav,0,poule,650,27,4,5,franças,f,2,0.2,-79.4524648,1.53819495
5ca1196fffab4a00149a02a9,47,0,2024-02-27T11:17:25.331Z,french_729.wav,0,poule,650,27,4,5,franças,f,3,0.3,25.31289493,0.27769673
5ca1196fffab4a00149a02a9,47,0,2024-02-27T11:17:25.331Z,french_729.wav,0,poule,650,27,4,5,franças,f,4,0.4,-60.34707627,0.7897534
5ca1196fffab4a00149a02a9,47,0,2024-02-27T11:17:25.331Z,french_729.wav,0,poule,650,27,4,5,franças,f,5,0.5,-88.40589566,0.63490444
5ca1196fffab4a00149a02a9,47,0,2024-02-27T11:17:25.331Z,french_729.wav,0,poule,650,27,4,5,franças,f,6,0.6,51.21957515,0.80684979
5ca1196fffab4a00149a02a9,47,0,2024-02-27T11:17:25.331Z,french_729.wav,0,poule,650,27,4,5,franças,f,7,0.7,27.50218474,1.59337723
5ca1196fffab4a00149a02a9,47,0,2024-02-27T11:17:25.331Z,french_729.wav,0,poule,650,27,4,5,franças,f,8,0.8,-8.138588,1.66290077
5ca1196fffab4a00149a02a9,47,0,2024-02-27T11:17:25.331Z,french_729.wav,0,poule,650,27,4,5,franças,f,9,0.9,-7.03673711,1.10338309
5ca1196fffab4a00149a02a9,47,0,2024-02-27T11:17:25.331Z,french_729.wav,0,poule,650,27,4,5,franças,f,10,1.0,94.92373652,1.7929398
5ca1196fffab4a00149a02a9,47,0,2024-02-27T11:17:25.331Z,french_729.wav,0,poule,650,27,4,5,franças,f,11,1.1,-56.45846908,1.95609229
5ca1196fffab4a00149a02a9,47,0,2024-02-27T11:17:25.331Z,french_729.wav,0,poule,650,27,4,5,franças,f,12,1.14141667,-5.25957002,1.67314896
5ca1196fffab4a00149a02a9,48,0,2024-02-27T11:17:25.331Z,french_512.wav,0,poule,119,27,4,5,franças,f,0,0.0,37.65487649,1.15800946
5ca1196fffab4a00149a02a9,48,0,2024-02-27T11:17:25.331Z,french_512.wav,0,poule,119,27,4,5,franças,f,1,0.1,19.59725659,1.13669249
5ca1196fffab4a00149a02a9,48,0,2024-02-27T11:17:25.331Z,french_512.wav,0,poule,119,27,4,5,franças,f,2,0.2,66.12533615,0.06946332
5ca1196fffab4a00149a02a9,48,0,2024-02-27T11:17:25.331Z,french_512.wav,0,poule,119,27,4,5,franças,f,3,0.3,2.99860898,1.10145514
5ca1196fffab4a00149a02a9,48,0,2024-02-27T11:17:25.331Z,french_512.wav,0,poule,119,27,4,5,franças,f,4,0.4,53.37969101,0.57961702
5ca1196fffab4a00149a02a9,48,0,2024-02-27T11:17:25.331Z,french_512.wav,0,poule,119,27,4,5,franças,f,5,0.5,-65.92131523,1.67107236
5ca1196fffab4a00149a02a9,48,0,2024-02-27T11:17:25.331Z,french_512.wav,0,poule,119,27,4,5,franças,f,6,0.6,58.20808948,0.14844498
5ca1196fffab4a00149a02a9,48,0,2024-02-27T11:17:25.331Z,french_512.wav,0,poule,119,27,4,5,franças,f,7,0.7,34.20702101,0.48083565
5ca1196fffab4a00149a02a9,48,0,2024-02-27T11:17:25.331Z,french_512.wav,0,poule,119,27,4,5,franças,f,8,0.8,-20.74517351,0.08331464
5ca1196fffab4a00149a02a9,48,0,2024-02-27T11:17:25.331Z,french_512.wav,0,poule,119,27,4,5,franças,f,9,0.9,-63.04688108,1.76726214
5ca1196fffab4a00149a02a9,48,0,2024-02-27T11:17:25.331Z,french_512.wav,0,poule,119,27,4,5,franças,f,10,1.0,18.16483101,1.53557922
5ca1196fffab4a00149a02a9,48,0,2024-02-27T11:17:25.331Z,french_512.wav,0,poule,119,27,4,5,franças,f,11,1.1,-6.33441314,0.72276914
5ca1196fffab4a00149a02a9,48,0,2024-02-27T11:17:25.331Z,french_512.wav,0,poule,119,27,4,5,franças,f,12,1.14141667,-27.85231134,0.3785017
5ca1196fffab4a00149a02a9,49,0,2024-02-27T11:17:25.331Z,french_159.wav,0,poule,207,27,4,5,franças,f,0,0.0,-75.26707913,1.42182251
5ca1196fffab4a00149a02a9,49,0,2024-02-27T11:17:25.331Z,french_159.wav,0,poule,207,27,4,5,franças,f,1,0.1,24.36236862,1.44721174
5ca1196fffab4a00149a02a9,49,0,2024-02-27T11:17:25.331Z,french_159.wav,0,poule,207,27,4,5,franças,f,2,0.2,57.04083772,1.15596856
5ca1196fffab4a00149a02a9,49,0,2024-02-27T11:17:25.331Z,french_159.wav,0,poule,207,27,4,5,franças,f,3,0.3,86.28397832,1.33799884
5ca1196fffab4a00149a02a9,49,0,2024-02-27T11:17:25.331Z,french_159.wav,0,poule,207,27,4,5,franças,f,4,0.4,99.16850794,0.6870117
5ca1196fffab4a00149a02a9,49,0,2024-02-27T11:17:25.331Z,french_159.wav,0,poule,207,27,4,5,franças,f,5,0.5,-28.81536698,0.7829488
5ca1196fffab4a00149a02a9,49,0,2024-02-27T11:17:25.331Z,french_159.wav,0,poule,207,27,4,5,franças,f,6,0.6,-21.67334244,1.95382977
5ca1196fffab4a00149a02a9,49,0,2024-02-27T11:17:25.331Z,french_159.wav,0,poule,207,27,4,5,franças,f,7,0.7,-12.75520878,1.06661863
5ca1196fffab4a00149a02a9,49,0,2024-02-27T11:17:25.331Z,french_159.wav,0,poule,207,27,4,5,franças,f,8,0.8,-19.64335039,1.17304922
5ca1196fffab4a00149a02a9,49,0,2024-02-27T11:17:25.331Z,french_159.wav,0,poule,207,27,4,5,franças,f,9,0.9,1.35904981,1.62643454
5ca1196fffab4a00149a02a9,49,0,2024-02-27T11:17:25.331Z,french_159.wav,0,poule,207,27,4,5,franças,f,10,1.0,-65.86832752,0.23889029
5ca1196fffab4a00149a02a9,49,0,2024-02-27T11:17:25.331Z,french_159.wav,0,poule,207,27,4,5,franças,f,11,1.1,2.6789327,0.74888657
5ca1196fffab4a00149a02a9,49,0,2024-02-27T11:17:25.331Z,french_159.wav,0,poule,207,27,4,5,franças,f,12,1.14141667,-93.36606105,0.44007072
5ca1196fffab4a00149a02a9,50,1,2024-02-27T11:17:25.331Z,french_588.wav,0,poule,253,27,4,5,franças,f,0,0.0,80.11124336,0.91903139
5ca1196fffab4a00149a02a9,50,1,2024-02-27T11:17:25.331Z,french_588.wav,0,poule,253,27,4,5,franças,f,1,0.1,-9.60415228,1.75302379
5ca1196fffab4a00149a02a9,50,1,2024-02-27T11:17:25.331Z,french_588.wav,0,poule,253,27,4,5,franças,f,2,0.2,-98.33491382,1.95019279
5ca1196fffab4a00149a02a9,50,1,2024-02-27T11:17:25.331Z,french_588.wav,0,poule,253,27,4,5,franças,f,3,0.3,-16.26514488,0.86486634
5ca1196fffab4a00149a02a9,50,1,2024-02-27T11:17:25.331Z,french_588.wav,0,poule,253,27,4,5,franças,f,4,0.4,-90.16609663,0.04555032
5ca1196fffab4a00149a02a9,50,1,2024-02-27T11:17:25.331Z,french_588.wav,0,poule,253,27,4,5,franças,f,5,0.5,-6.08584828,0.65069663
5ca1196fffab4a00149a02a9,50,1,2024-02-27T11:17:25.331Z,french_588.wav,0,poule,253,27,4,5,franças,f,6,0.6,-25.80594889,0.87516436
5ca1196fffab4a00149a02a9,50,1,2024-02-27T11:17:25.331Z,french_588.wav,0,poule,253,27,4,5,franças,f,7,0.7,-25.08652089,0.98178697
5ca1196fffab4a00149a02a9,50,1,2024-02-27T11:17:25.331Z,french_588.wav,0,poule,253,27,4,5,franças,f,8,0.8,-98.80611815,1.45894707
5ca1196fffab4a00149a02a9,50,1,2024-02-27T11:17:25.331Z,french_588.wav,0,poule,253,27,4,5,franças,f,9,0.9,17.08532713,1.15328594
5ca1196fffab4a00149a02a9,50,1,2024-02-27T11:17:25.331Z,french_588.wav,0,poule,253,27,4,5,franças,f,10,1.0,0.80863561,0.14560994
5ca1196fffab4a00149a02a9,50,1,2024-02-27T11:17:25.331Z,french_588.wav,0,poule,253,27,4,5,franças,f,11,1.1,-86.5783891,1.58594883
5ca1196fffab4a00149a02a9,50,1,2024-02-27T11:17:25.331Z,french_588.wav,0,poule,253,27,4,5,franças,f,12,1.14141667,-56.09457121,1.71291016
5ca1196fffab4a00149a02a9,51,1,2024-02-27T11:17:25.331Z,french_87.wav,0,poule,214,27,4,5,franças,f,0,0.0,92.4660963,0.46305834
5ca1196fffab4a00149a02a9,51,1,2024-02-27T11:17:25.331Z,french_87.wav,0,poule,214,27,4,5,franças,f,1,0.1,15.06427617,1.65512059
5ca1196fffab4a00149a02a9,51,1,2024-02-27T11:17:25.331Z,french_87.wav,0,poule,214,27,4,5,franças,f,2,0.2,19.88587698,1.47687397
5ca1196fffab4a00149a02a9,51,1,2024-02-27T11:17:25.331Z,french_87.wav,0,poule,214,27,4,5,franças,f,3,0.3,19.16381268,1.98465726
5ca1196fffab4a00149a02a9,51,1,2024-02-27T11:17:25.331Z,french_87.wav,0,poule,214,27,4,5,franças,f,4,0.4,-43.83456388,0.88568527
5ca1196fffab4a00149a02a9,51,1,2024-02-27T11:17:25.331Z,french_87.wav,0,poule,214,27,4,5,franças,f,5,0.5,-75.19485474,0.59200872
5ca1196fffab4a00149a02a9,51,1,2024-02-27T11:17:25.331Z,french_87.wav,0,poule,214,27,4,5,franças,f,6,0.6,-41.9677828,1.00282805
5ca1196fffab4a00149a02a9,51,1,2024-02-27T11:17:25.331Z,french_87.wav,0,poule,214,27,4,5,franças,f,7,0.7,48.89631163,0.36234637
5ca1196fffab4a00149a02a9,51,1,2024-02-27T11:17:25.331Z,french_87.wav,0,poule,214,27,4,5,franças,f,8,0.8,59.57141731,1.86287014
5ca1196fffab4a00149a02a9,51,1,2024-02-27T11:17:25.331Z,french_87.wav,0,poule,214,27,4,5,franças,f,9,0.9,-7.29688456,0.55653028
5ca1196fffab4a00149a02a9,51,1,2024-02-27T11:17:25.331Z,french_87.wav,0,poule,214,27,4,5,franças,f,10,1.0,-56.30540489,1.69420603
5ca1196fffab4a00149a02a9,51,1,2024-02-27T11:17:25.331Z,french_87.wav,0,poule,214,27,4,5,franças,f,11,1.1,-92.5665511,0.74268973
5ca1196fffab4a00149a02a9,51,1,2024-02-27T11:17:25.331Z,french_87.wav,0,poule,214,27,4,5,franças,f,12,1.14141667,7.04899103,0.9328285
5ca1196fffab4a00149a02a9,52,1,2024-02-27T11:17:25.331Z,french_612.wav,0,poule,298,27,4,5,franças,f,0,0.0,-47.07678459,0.11615232
5ca1196fffab4a00149a02a9,52,1,2024-02-27T11:17:25.331Z,french_612.wav,0,poule,298,27,4,5,franças,f,1,0.1,3.63425246,0.47093102
5ca1196fffab4a00149a02a9,52,1,2024-02-27T11:17:25.331Z,french_612.wav,0,poule,298,27,4,5,franças,f,2,0.2,31.48917189,0.45807262
5ca1196fffab4a00149a02a9,52,1,2024-02-27T11:17:25.331Z,french_612.wav,0,poule,298,27,4,5,franças,f,3,0.3,44.38742484,0.81161175
5ca1196fffab4a00149a02a9,52,1,2024-02-27T11:17:25.331Z,french_612.wav,0,poule,298,27,4,5,franças,f,4,0.4,15.5069451,1.0193018
5ca1196fffab4a00149a02a9,52,1,2024-02-27T11:17:25.331Z,french_612.wav,0,poule,298,27,4,5,franças,f,5,0.5,-51.49122096,1.66697075
5ca1196fffab4a00149a02a9,52,1,2024-02-27T11:17:25.331Z,french_612.wav,0,poule,298,27,4,5,franças,f,6,0.6,-1.02254843,0.50056041
5ca1196fffab4a00149a02a9,52,1,2024-02-27T11:17:25.331Z,french_612.wav,0,poule,298,27,4,5,franças,f,7,0.7,12.87739328,0.70368677
5ca1196fffab4a00149a02a9,52,1,2024-02-27T11:17:25.331Z,french_612.wav,0,poule,298,27,4,5,franças,f,8,0.8,-63.80282001,1.91892506
5ca1196fffab4a00149a02a9,52,1,2024-02-27T11:17:25.331Z,french_612.wav,0,poule,298,27,4,5,franças,f,9,0.9,-37.54711338,1.2931891
5ca1196fffab4a00149a02a9,52,1,2024-02-27T11:17:25.331Z,french_612.wav,0,poule,298,27,4,5,franças,f,10,1.0,40.2162033,0.20059311
5ca1196fffab4a00149a02a9,52,1,2024-02-27T11:17:25.331Z,french_612.wav,0,poule,298,27,4,5,franças,f,11,1.1,-4.31624045,0.09557344
5ca1196fffab4a00149a02a9,52,1,2024-02-27T11:17:25.331Z,french_612.wav,0,poule,298,27,4,5,franças,f,12,1.14141667,64.58566043,1.97325213
5ca1196fffab4a00149a02a9,53,1,2024-02-27T11:17:25.331Z,french_380.wav,0,poule,109,27,4,5,franças,f,0,0.0,50.45877981,0.75315413
5ca1196fffab4a00149a02a9,53,1,2024-02-27T11:17:25.331Z,french_380.wav,0,poule,109,27,4,5,franças,f,1,0.1,27.88432033,0.97702905
5ca1196fffab4a00149a02a9,53,1,2024-02-27T11:17:25.331Z,french_380.wav,0,poule,109,27,4,5,franças,f,2,0.2,-34.53723027,0.7048892
5ca1196fffab4a00149a02a9,53,1,2024-02-27T11:17:25.331Z,french_380.wav,0,poule,109,27,4,5,franças,f,3,0.3,-69.55895419,1.70478002
5ca1196fffab4a00149a02a9,53,1,2024-02-27T11:17:25.331Z,french_380.wav,0,poule,109,27,4,5,franças,f,4,0.4,-28.41605157,1.71824888
5ca1196fffab4a00149a02a9,53,1,2024-02-27T11:17:25.331Z,french_380.wav,0,poule,109,27,4,5,franças,f,5,0.5,25.67592844,1.0555026
5ca1196fffab4a00149a02a9,53,1,2024-02-27T11:17:25.331Z,french_380.wav,0,poule,109,27,4,5,franças,f,6,0.6,-84.53806724,0.83070263
5ca1196fffab4a00149a02a9,53,1,2024-02-27T11:17:25.331Z,french_380.wav,0,poule,109,27,4,5,franças,f,7,0.7,-49.89975605,0.38580216
5ca1196fffab4a00149a02a9,53,1,2024-02-27T11:17:25.331Z,french_380.wav,0,poule,109,27,4,5,franças,f,8,0.8,75.71000255,1.32561889
5ca1196fffab4a00149a02a9,53,1,2024-02-27T11:17:25.331Z,french_380.wav,0,poule,109,27,4,5,franças,f,9,0.9,30.16060778,0.45811506
5ca1196fffab4a00149a02a9,53,1,2024-02-27T11:17:25.331Z,french_380.wav,0,poule,109,27,4,5,franças,f,10,1.0,-57.98795284,1.65372558
5ca1196fffab4a00149a02a9,53,1,2024-02-27T11:17:25.331Z,french_380.wav,0,poule,109,27,4,5,franças,f,11,1.1,-9.14146098,0.02023169
5ca1196fffab4a00149a02a9,53,1,2024-02-27T11:17:25.331Z,french_380.wav,0,poule,109,27,4,5,franças,f,12,1.14141667,61.49544023,0.39090817
5ca1196fffab4a00149a02a9,54,1,2024-02-27T11:17:25.331Z,french_470.wav,0,pull,261,27,4,5,franças,f,0,0.0,-35.19014481,1.94208233
5ca1196fffab4a00149a02a9,54,1,2024-02-27T11:17:25.331Z,french_470.wav,0,pull,261,27,4,5,franças,f,1,0.1,-11.1101007,1.24726807
5ca1196fffab4a00149a02a9,54,1,2024-02-27T11:17:25.331Z,french_470.wav,0,pull,261,27,4,5,franças,f,2,0.2,-73.86570158,1.04117415
5ca1196fffab4a00149a02a9,54,1,2024-02-27T11:17:25.331Z,french_470.wav,0,pull,261,27,4,5,franças,f,3,0.3,-1.44470238,1.14948121
5ca1196fffab4a00149a02a9,54,1,2024-02-27T11:17:25.331Z,french_470.wav,0,pull,261,27,4,5,franças,f,4,0.4,-96.07839084,0.66081228
5ca1196fffab4a00149a02a9,54,1,2024-02-27T11:17:25.331Z,french_470.wav,0,pull,261,27,4,5,franças,f,5,0.5,70.99649813,0.84071929
5ca1196fffab4a00149a02a9,54,1,2024-02-27T11:17:25.331Z,french_470.wav,0,pull,261,27,4,5,franças,f,6,0.6,55.77361877,1.10459164
5ca1196fffab4a00149a02a9,54,1,2024-02-27T11:17:25.331Z,french_470.wav,0,pull,261,27,4,5,franças,f,7,0.7,-22.19728159,0.42902866
5ca1196fffab4a00149a02a9,54,1,2024-02-27T11:17:25.331Z,french_470.wav,0,pull,261,27,4,5,franças,f,8,0.8,-72.44437958,1.72163831
5ca1196fffab4a00149a02a9,54,1,2024-02-27T11:17:25.331Z,french_470.wav,0,pull,261,27,4,5,franças,f,9,0.9,80.41886886,1.68101907
5ca1196fffab4a00149a02a9,54,1,2024-02-27T11:17:25.331Z,french_470.wav,0,pull,261,27,4,5,franças,f,10,1.0,-11.71477961,0.03811178
5ca1196fffab4a00149a02a9,54,1,2024-02-27T11:17:25.331Z,french_470.wav,0,pull,261,27,4,5,franças,f,11,1.1,-62.42849441,1.9717108
5ca1196fffab4a00149a02a9,54,1,2024-02-27T11:17:25.331Z,french_470.wav,0,pull,261,27,4,5,franças,f,12,1.14141667,98.36646491,0.38277799
5ca1196fffab4a00149a02a9,55,1,2024-02-27T11:17:25.331Z,french_772.wav,0,pull,270,27,4,5,franças,f,0,0.0,91.87661816,1.17079927
5ca1196fffab4a00149a02a9,55,1,2024-02-27T11:17:25.331Z,french_772.wav,0,pull,270,27,4,5,franças,f,1,0.1,50.83330394,0.64172524
5ca1196fffab4a00149a02a9,55,1,2024-02-27T11:17:25.331Z,french_772.wav,0,pull,270,27,4,5,franças,f,2,0.2,18.34519554,1.40609386
5ca1196fffab4a00149a02a9,55,1,2024-02-27T11:17:25.331Z,french_772.wav,0,pull,270,27,4,5,franças,f,3,0.3,22.30074764,0.90388327
5ca1196fffab4a00149a02a9,55,1,2024-02-27T11:17:25.331Z,french_772.wav,0,pull,270,27,4,5,franças,f,4,0.4,95.20498412,0.79397784
5ca1196fffab4a00149a02a9,55,1,2024-02-27T11:17:25.331Z,french_772.wav,0,pull,270,27,4,5,franças,f,5,0.5,72.76337394,1.81598784
5ca1196fffab4a00149a02a9,55,1,2024-02-27T11:17:25.331Z,french_772.wav,0,pull,270,27,4,5,franças,f,6,0.6,-55.2554668,0.92460727
5ca1196fffab4a00149a02a9,55,1,2024-02-27T11:17:25.331Z,french_772.wav,0,pull,270,27,4,5,franças,f,7,0.7,40.41956934,0.47491525
5ca1196fffab4a00149a02a9,55,1,2024-02-27T11:17:25.331Z,french_772.wav,0,pull,270,27,4,5,franças,f,8,0.8,33.49782038,1.81149804
5ca1196fffab4a00149a02a9,55,1,2024-02-27T11:17:25.331Z,french_772.wav,0,pull,270,27,4,5,franças,f,9,0.9,54.50185549,1.46034495
5ca1196fffab4a00149a02a9,55,1,2024-02-27T11:17:25.331Z,french_772.wav,0,pull,270,27,4,5,franças,f,10,1.0,97.73664267,0.9010875
5ca1196fffab4a00149a02a9,55,1,2024-02-27T11:17:25.331Z,french_772.wav,0,pull,270,27,4,5,franças,f,11,1.1,-94.13406364,1.73722797
5ca1196fffab4a00149a02a9,55,1,2024-02-27T11:17:25.331Z,french_772.wav,0,pull,270,27,4,5,franças,f,12,1.14141667,-2.98004272,1.32105832
5ca1196fffab4a00149a02a9,56,1,2024-02-27T11:17:25.331Z,french_100.wav,0,pull,707,27,4,5,franças,f,0,0.0,45.30319637,0.4266363
5ca1196fffab4a00149a02a9,56,1,2024-02-27T11:17:25.331Z,french_100.wav,0,pull,707,27,4,5,franças,f,1,0.1,47.12815282,0.41166499
5ca1196fffab4a00149a02a9,56,1,2024-02-27T11:17:25.331Z,french_100.wav,0,pull,707,27,4,5,franças,f,2,0.2,67.48521917,0.75850186
5ca1196fffab4a00149a02a9,56,1,2024-02-27T11:17:25.331Z,french_100.wav,0,pull,707,27,4,5,franças,f,3,0.3,23.61125392,1.79094973
5ca1196fffab4a00149a02a9,56,1,2024-02-27T11:17:25.331Z,french_100.wav,0,pull,707,27,4,5,franças,f,4,0.4,20.77565094,1.79636496
5ca1196fffab4a00149a02a9,56,1,2024-02-27T11:17:25.331Z,french_100.wav,0,pull,707,27,4,5,franças,f,5,0.5,-96.44964023,1.36246425
5ca1196fffab4a00149a02a9,56,1,2024-02-27T11:17:25.331Z,french_100.wav,0,pull,707,27,4,5,franças,f,6,0.6,-27.30276741,0.7383114
5ca1196fffab4a00149a02a9,56,1,2024-02-27T11:17:25.331Z,french_100.wav,0,pull,707,27,4,5,franças,f,7,0.7,7.85228196,1.2886492
5ca1196fffab4a00149a02a9,56,1,2024-02-27T11:17:25.331Z,french_100.wav,0,pull,707,27,4,5,franças,f,8,0.8,68.83602268,0.63858011
5ca1196fffab4a00149a02a9,56,1,2024-02-27T11:17:25.331Z,french_100.wav,0,pull,707,27,4,5,franças,f,9,0.9,42.76775799,0.54144566
5ca1196fffab4a00149a02a9,56,1,2024-02-27T11:17:25.331Z,french_100.wav,0,pull,707,27,4,5,franças,f,10,1.0,54.32509685,0.22455782
5ca1196fffab4a00149a02a9,56,1,2024-02-27T11:17:25.331Z,french_100.wav,0,pull,707,27,4,5,franças,f,11,1.1,-78.45035325,0.1039249
5ca1196fffab4a00149a02a9,56,1,2024-02-27T11:17:25.331Z,french_100.wav,0,pull,707,27,4,5,franças,f,12,1.14141667,25.20581813,0.78301344
5ca1196fffab4a00149a02a9,57,1,2024-02-27T11:17:25.331Z,french_862.wav,0,pull,574,27,4,5,franças,f,0,0.0,-14.63662445,0.11578422
5ca1196fffab4a00149a02a9,57,1,2024-02-27T11:17:25.331Z,french_862.wav,0,pull,574,27,4,5,franças,f,1,0.1,28.45864879,0.2814116
5ca1196fffab4a00149a02a9,57,1,2024-02-27T11:17:25.331Z,french_862.wav,0,pull,574,27,4,5,franças,f,2,0.2,-0.68000434,0.85291147
5ca1196fffab4a00149a02a9,57,1,2024-02-27T11:17:25.331Z,french_862.wav,0,pull,574,27,4,5,franças,f,3,0.3,-26.73602813,1.69973262
5ca1196fffab4a00149a02a9,57,1,2024-02-27T11:17:25.331Z,french_862.wav,0,pull,574,27,4,5,franças,f,4,0.4,-7.71050008,1.01442459
5ca1196fffab4a00149a02a9,57,1,2024-02-27T11:17:25.331Z,french_862.wav,0,pull,574,27,4,5,franças,f,5,0.5,33.14788708,1.55366455
5ca1196fffab4a00149a02a9,57,1,2024-02-27T11:17:25.331Z,french_862.wav,0,pull,574,27,4,5,franças,f,6,0.6,78.18456635,0.0771969
5ca1196fffab4a00149a02a9,57,1,2024-02-27T11:17:25.331Z,french_862.wav,0,pull,574,27,4,5,franças,f,7,0.7,24.14901592,1.35224055
5ca1196fffab4a00149a02a9,57,1,2024-02-27T11:17:25.331Z,french_862.wav,0,pull,574,27,4,5,franças,f,8,0.8,45.35031598,0.5357761
5ca1196fffab4a00149a02a9,57,1,2024-02-27T11:17:25.331Z,french_862.wav,0,pull,574,27,4,5,franças,f,9,0.9,65.59077206,0.6562808
5ca1196fffab4a00149a02a9,57,1,2024-02-27T11:17:25.331Z,french_862.wav,0,pull,574,27,4,5,franças,f,10,1.0,11.68649512,0.44961624
5ca1196fffab4a00149a02a9,57,1,2024-02-27T11:17:25.331Z,french_862.wav,0,pull,574,27,4,5,franças,f,11,1.1,25.97419467,0.01039806
5ca1196fffab4a00149a02a9,57,1,2024-02-27T11:17:25.331Z,french_862.wav,0,pull,574,27,4,5,franças,f,12,1.14141667,-65.02919288,0.96489683
5ca1196fffab4a00149a02a9,58,1,2024-02-27T11:17:25.331Z,french_985.wav,0,poule,545,27,4,5,franças,f,0,0.0,-59.37353255,1.26289608
5ca1196fffab4a00149a02a9,58,1,2024-02-27T11:17:25.331Z,french_985.wav,0,poule,545,27,4,5,franças,f,1,0.1,40.25583685,1.7636238
5ca1196fffab4a00149a02a9,58,1,2024-02-27T11:17:25.331Z,french_985.wav,0,poule,545,27,4,5,franças,f,2,0.2,80.59080254,0.23232194
5ca1196fffab4a00149a02a9,58,1,2024-02-27T11:17:25.331Z,french_985.wav,0,poule,545,27,4,5,franças,f,3,0.3,40.93847923,0.4110335
5ca1196fffab4a00149a02a9,58,1,2024-02-27T11:17:25.331Z,french_985.wav,0,poule,545,27,4,5,franças,f,4,0.4,-36.56577189,1.43128616
5ca1196fffab4a00149a02a9,58,1,2024-02-27T11:17:25.331Z,french_985.wav,0,poule,545,27,4,5,franças,f,5,0.5,35.51460066,0.65384514
5ca1196fffab4a00149a02a9,58,1,2024-02-27T11:17:25.331Z,french_985.wav,0,poule,545,27,4,5,franças,f,6,0.6,54.7926899,0.38929396
5ca1196fffab4a00149a02a9,58,1,2024-02-27T11:17:25.331Z,french_985.wav,0,poule,545,27,4,5,franças,f,7,0.7,78.93834027,0.45559426
5ca1196fffab4a00149a02a9,58,1,2024-02-27T11:17:25.331Z,french_985.wav,0,poule,545,27,4,5,franças,f,8,0.8,-92.8627388,1.69671004
5ca1196fffab4a00149a02a9,58,1,2024-02-27T11:17:25.331Z,french_985.wav,0,poule,545,27,4,5,franças,f,9,0.9,-52.89775391,1.41051885
5ca1196fffab4a00149a02a9,58,1,2024-02-27T11:17:25.331Z,french_985.wav,0,poule,545,27,4,5,franças,f,10,1.0,25.49077528,1.92248776
5ca1196fffab4a00149a02a9,58,1,2024-02-27T11:17:25.331Z,french_985.wav,0,poule,545,27,4,5,franças,f,11,1.1,10.48793814,1.77523192
5ca1196fffab4a00149a02a9,58,1,2024-02-27T11:17:25.331Z,french_985.wav,0,poule,545,27,4,5,franças,f,12,1.14141667,80.61221093,0.82877362
5ca1196fffab4a00149a02a9,59,1,2024-02-27T11:17:25.331Z,french_912.wav,0,pull,380,27,4,5,franças,f,0,0.0,80.68071625,0.60833614
5ca1196fffab4a00149a02a9,59,1,2024-02-27T11:17:25.331Z,french_912.wav,0,pull,380,27,4,5,franças,f,1,0.1,-74.6096102,1.31673181
5ca1196fffab4a00149a02a9,59,1,2024-02-27T11:17:25.331Z,french_912.wav,0,pull,380,27,4,5,franças,f,2,0.2,73.86411106,0.17478281
5ca1196fffab4a00149a02a9,59,1,2024-02-27T11:17:25.331Z,french_912.wav,0,pull,380,27,4,5,franças,f,3,0.3,64.55158236,0.08969123
5ca1196fffab4a00149a02a9,59,1,2024-02-27T11:17:25.331Z,french_912.wav,0,pull,380,27,4,5,franças,f,4,0.4,65.90025627,1.187561
5ca1196fffab4a00149a02a9,59,1,2024-02-27T11:17:25.331Z,french_912.wav,0,pull,380,27,4,5,franças,f,5,0.5,50.81800611,1.86233101
5ca1196fffab4a00149a02a9,59,1,2024-02-27T11:17:25.331Z,french_912.wav,0,pull,380,27,4,5,franças,f,6,0.6,47.81573035,0.98705671
5ca1196fffab4a00149a02a9,59,1,2024-02-27T11:17:25.331Z,french_912.wav,0,pull,380,27,4,5,franças,f,7,0.7,62.25019961,0.81508534
5ca1196fffab4a00149a02a9,59,1,2024-02-27T11:17:25.331Z,french_912.wav,0,pull,380,27,4,5,franças,f,8,0.8,-33.502047,0.24174061
5ca1196fffab4a00149a02a9,59,1,2024-02-27T11:17:25.331Z,french_912.wav,0,pull,380,27,4,5,franças,f,9,0.9,54.29227419,0.06561792
5ca1196fffab4a00149a02a9,59,1,2024-02-27T11:17:25.331Z,french_912.wav,0,pull,380,27,4,5,franças,f,10,1.0,-31.85955495,1.83275675
5ca1196fffab4a00149a02a9,59,1,2024-02-27T11:17:25.331Z,french_912.wav,0,pull,380,27,4,5,franças,f,11,1.1,-34.2401342,0.04646604
