subj,trial,block,date,stim,stim_order,response,rt,age,english,french,language,sex,param_index,segment,pitch,stretch
5c3fa4c5b1b52400013ba707,0,0,2024-02-27T11:21:00.747Z,french_844.wav,0,poule,3034,24,4,5,français,m,0,0.0,-70.63137892,0.57712906
5c3fa4c5b1b52400013ba707,0,0,2024-02-27T11:21:00.747Z,french_844.wav,0,poule,3034,24,4,5,français,m,1,0.1,-48.65912271,0.64179226
5c3fa4c5b1b52400013ba707,0,0,2024-02-27T11:21:00.747Z,french_844.wav,0,poule,3034,24,4,5,français,m,2,0.2,89.22528551,0.93495251
5c3fa4c5b1b52400013ba707,0,0,2024-02-27T11:21:00.747Z,french_844.wav,0,poule,3034,24,4,5,français,m,3,0.3,39.89743481,1.43041086
5c3fa4c5b1b52400013ba707,0,0,2024-02-27T11:21:00.747Z,french_844.wav,0,poule,3034,24,4,5,français,m,4,0.4,13.73778231,0.06710414
5c3fa4c5b1b52400013ba707,0,0,2024-02-27T11:21:00.747Z,french_844.wav,0,poule,3034,24,4,5,français,m,5,0.5,-74.47605916,1.67555193
5c3fa4c5b1b52400013ba707,0,0,2024-02-27T11:21:00.747Z,french_844.wav,0,poule,3034,24,4,5,français,m,6,0.6,20.87072452,0.64111611
5c3fa4c5b1b52400013ba707,0,0,2024-02-27T11:21:00.747Z,french_844.wav,0,poule,3034,24,4,5,français,m,7,0.7,-58.29608737,1.81341651
5c3fa4c5b1b52400013ba707,0,0,2024-02-27T11:21:00.747Z,french_844.wav,0,poule,3034,24,4,5,français,m,8,0.8,20.27856511,0.09233996
5c3fa4c5b1b52400013ba707,0,0,2024-02-27T11:21:00.747Z,french_844.wav,0,poule,3034,24,4,5,français,m,9,0.9,66.76249813,1.88938409
5c3fa4c5b1b52400013ba707,0,0,2024-02-27T11:21:00.747Z,french_844.wav,0,poule,3034,24,4,5,français,m,10,1.0,44.27022345,0.03776745
5c3fa4c5b1b52400013ba707,0,0,2024-02-27T11:21:00.747Z,french_844.wav,0,poule,3034,24,4,5,français,m,11,1.1,-46.89913949,1.5874268
5c3fa4c5b1b52400013ba707,0,0,2024-02-27T11:21:00.747Z,french_844.wav,0,poule,3034,24,4,5,français,m,12,1.14141667,-14.10655115,1.53774134
5c3fa4c5b1b52400013ba707,1,0,2024-02-27T11:21:00.747Z,french_595.wav,0,pull,890,24,4,5,français,m,0,0.0,-70.69376547,0.5937093
5c3fa4c5b1b52400013ba707,1,0,2024-02-27T11:21:00.747Z,french_595.wav,0,pull,890,24,4,5,français,m,1,0.1,-50.11639821,1.78382872
5c3fa4c5b1b52400013ba707,1,0,2024-02-27T11:21:00.747Z,french_595.wav,0,pull,890,24,4,5,français,m,2,0.2,-6.2723957,1.40733247
5c3fa4c5b1b52400013ba707,1,0,2024-02-27T11:21:00.747Z,french_595.wav,0,pull,890,24,4,5,français,m,3,0.3,-33.93276808,1.23314244
5c3fa4c5b1b52400013ba707,1,0,2024-02-27T11:21:00.747Z,french_595.wav,0,pull,890,24,4,5,français,m,4,0.4,92.50522591,1.42187118
5c3fa4c5b1b52400013ba707,1,0,2024-02-27T11:21:00.747Z,french_595.wav,0,pull,890,24,4,5,français,m,5,0.5,39.9302952,0.04595084
5c3fa4c5b1b52400013ba707,1,0,2024-02-27T11:21:00.747Z,french_595.wav,0,pull,890,24,4,5,français,m,6,0.6,99.18879624,0.91948044
5c3fa4c5b1b52400013ba707,1,0,2024-02-27T11:21:00.747Z,french_595.wav,0,pull,890,24,4,5,français,m,7,0.7,17.01840136,1.80816794
5c3fa4c5b1b52400013ba707,1,0,2024-02-27T11:21:00.747Z,french_595.wav,0,pull,890,24,4,5,français,m,8,0.8,-73.22332104,0.94704484
5c3fa4c5b1b52400013ba707,1,0,2024-02-27T11:21:00.747Z,french_595.wav,0,pull,890,24,4,5,français,m,9,0.9,-96.45958217,0.51792418
5c3fa4c5b1b52400013ba707,1,0,2024-02-27T11:21:00.747Z,french_595.wav,0,pull,890,24,4,5,français,m,10,1.0,-51.08931395,1.59601312
5c3fa4c5b1b52400013ba707,1,0,2024-02-27T11:21:00.747Z,french_595.wav,0,pull,890,24,4,5,français,m,11,1.1,-94.29101271,0.14628659
5c3fa4c5b1b52400013ba707,1,0,2024-02-27T11:21:00.747Z,french_595.wav,0,pull,890,24,4,5,français,m,12,1.14141667,47.61863403,0.48120357
5c3fa4c5b1b52400013ba707,2,0,2024-02-27T11:21:00.747Z,french_505.wav,0,pull,3724,24,4,5,français,m,0,0.0,10.6062499,0.41232335
5c3fa4c5b1b52400013ba707,2,0,2024-02-27T11:21:00.747Z,french_505.wav,0,pull,3724,24,4,5,français,m,1,0.1,-76.99802141,1.02211306
5c3fa4c5b1b52400013ba707,2,0,2024-02-27T11:21:00.747Z,french_505.wav,0,pull,3724,24,4,5,français,m,2,0.2,62.62271049,1.14367437
5c3fa4c5b1b52400013ba707,2,0,2024-02-27T11:21:00.747Z,french_505.wav,0,pull,3724,24,4,5,français,m,3,0.3,49.75584692,1.86001892
5c3fa4c5b1b52400013ba707,2,0,2024-02-27T11:21:00.747Z,french_505.wav,0,pull,3724,24,4,5,français,m,4,0.4,-44.42824919,0.03497776
5c3fa4c5b1b52400013ba707,2,0,2024-02-27T11:21:00.747Z,french_505.wav,0,pull,3724,24,4,5,français,m,5,0.5,8.97017494,1.27001275
5c3fa4c5b1b52400013ba707,2,0,2024-02-27T11:21:00.747Z,french_505.wav,0,pull,3724,24,4,5,français,m,6,0.6,-88.28080052,1.49153702
5c3fa4c5b1b52400013ba707,2,0,2024-02-27T11:21:00.747Z,french_505.wav,0,pull,3724,24,4,5,français,m,7,0.7,-13.73778208,0.88366965
5c3fa4c5b1b52400013ba707,2,0,2024-02-27T11:21:00.747Z,french_505.wav,0,pull,3724,24,4,5,français,m,8,0.8,73.13104705,1.06271418
5c3fa4c5b1b52400013ba707,2,0,2024-02-27T11:21:00.747Z,french_505.wav,0,pull,3724,24,4,5,français,m,9,0.9,-45.97620248,0.40464318
5c3fa4c5b1b52400013ba707,2,0,2024-02-27T11:21:00.747Z,french_505.wav,0,pull,3724,24,4,5,français,m,10,1.0,-85.27177326,0.55194696
5c3fa4c5b1b52400013ba707,2,0,2024-02-27T11:21:00.747Z,french_505.wav,0,pull,3724,24,4,5,français,m,11,1.1,1.99886584,0.30087529
5c3fa4c5b1b52400013ba707,2,0,2024-02-27T11:21:00.747Z,french_505.wav,0,pull,3724,24,4,5,français,m,12,1.14141667,-57.73402289,1.54564481
5c3fa4c5b1b52400013ba707,3,0,2024-02-27T11:21:00.747Z,french_863.wav,0,poule,791,24,4,5,français,m,0,0.0,50.77342544,0.93550892
5c3fa4c5b1b52400013ba707,3,0,2024-02-27T11:21:00.747Z,french_863.wav,0,poule,791,24,4,5,français,m,1,0.1,-97.70321946,0.64505388
5c3fa4c5b1b52400013ba707,3,0,2024-02-27T11:21:00.747Z,french_863.wav,0,poule,791,24,4,5,français,m,2,0.2,-1.18541723,0.94585453
5c3fa4c5b1b52400013ba707,3,0,2024-02-27T11:21:00.747Z,french_863.wav,0,poule,791,24,4,5,français,m,3,0.3,-45.09950091,0.69723049
5c3fa4c5b1b52400013ba707,3,0,2024-02-27T11:21:00.747Z,french_863.wav,0,poule,791,24,4,5,français,m,4,0.4,-69.59494908,0.77036715
5c3fa4c5b1b52400013ba707,3,0,2024-02-27T11:21:00.747Z,french_863.wav,0,poule,791,24,4,5,français,m,5,0.5,86.27470407,0.28013797
5c3fa4c5b1b52400013ba707,3,0,2024-02-27T11:21:00.747Z,french_863.wav,0,poule,791,24,4,5,français,m,6,0.6,-28.73893601,1.05013391
5c3fa4c5b1b52400013ba707,3,0,2024-02-27T11:21:00.747Z,french_863.wav,0,poule,791,24,4,5,français,m,7,0.7,-52.09259609,1.91965154
5c3fa4c5b1b52400013ba707,3,0,2024-02-27T11:21:00.747Z,french_863.wav,0,poule,791,24,4,5,français,m,8,0.8,36.31844789,0.72883716
5c3fa4c5b1b52400013ba707,3,0,2024-02-27T11:21:00.747Z,french_863.wav,0,poule,791,24,4,5,français,m,9,0.9,-73.2210636,0.81903439
5c3fa4c5b1b52400013ba707,3,0,2024-02-27T11:21:00.747Z,french_863.wav,0,poule,791,24,4,5,français,m,10,1.0,90.73733334,0.23587725
5c3fa4c5b1b52400013ba707,3,0,2024-02-27T11:21:00.747Z,french_863.wav,0,poule,791,24,4,5,français,m,11,1.1,58.21757398,1.52886581
5c3fa4c5b1b52400013ba707,3,0,2024-02-27T11:21:00.747Z,french_863.wav,0,poule,791,24,4,5,français,m,12,1.14141667,56.00262149,1.3743652
5c3fa4c5b1b52400013ba707,4,0,2024-02-27T11:21:00.747Z,french_87.wav,0,pull,2341,24,4,5,français,m,0,0.0,92.4660963,0.46305834
5c3fa4c5b1b52400013ba707,4,0,2024-02-27T11:21:00.747Z,french_87.wav,0,pull,2341,24,4,5,français,m,1,0.1,15.06427617,1.65512059
5c3fa4c5b1b52400013ba707,4,0,2024-02-27T11:21:00.747Z,french_87.wav,0,pull,2341,24,4,5,français,m,2,0.2,19.88587698,1.47687397
5c3fa4c5b1b52400013ba707,4,0,2024-02-27T11:21:00.747Z,french_87.wav,0,pull,2341,24,4,5,français,m,3,0.3,19.16381268,1.98465726
5c3fa4c5b1b52400013ba707,4,0,2024-02-27T11:21:00.747Z,french_87.wav,0,pull,2341,24,4,5,français,m,4,0.4,-43.83456388,0.88568527
5c3fa4c5b1b52400013ba707,4,0,2024-02-27T11:21:00.747Z,french_87.wav,0,pull,2341,24,4,5,français,m,5,0.5,-75.19485474,0.59200872
5c3fa4c5b1b52400013ba707,4,0,2024-02-27T11:21:00.747Z,french_87.wav,0,pull,2341,24,4,5,français,m,6,0.6,-41.9677828,1.00282805
5c3fa4c5b1b52400013ba707,4,0,2024-02-27T11:21:00.747Z,french_87.wav,0,pull,2341,24,4,5,français,m,7,0.7,48.89631163,0.36234637
5c3fa4c5b1b52400013ba707,4,0,2024-02-27T11:21:00.747Z,french_87.wav,0,pull,2341,24,4,5,français,m,8,0.8,59.57141731,1.86287014
5c3fa4c5b1b52400013ba707,4,0,2024-02-27T11:21:00.747Z,french_87.wav,0,pull,2341,24,4,5,français,m,9,0.9,-7.29688456,0.55653028
5c3fa4c5b1b52400013ba707,4,0,2024-02-27T11:21:00.747Z,french_87.wav,0,pull,2341,24,4,5,français,m,10,1.0,-56.30540489,1.69420603
5c3fa4c5b1b52400013ba707,4,0,2024-02-27T11:21:00.747Z,french_87.wav,0,pull,2341,24,4,5,français,m,11,1.1,-92.5665511,0.74268973
5c3fa4c5b1b52400013ba707,4,0,2024-02-27T11:21:00.747Z,french_87.wav,0,pull,2341,24,4,5,français,m,12,1.14141667,7.04899103,0.9328285
5c3fa4c5b1b52400013ba707,5,0,2024-02-27T11:21:00.747Z,french_853.wav,0,poule,632,24,4,5,français,m,0,0.0,-35.85509781,0.87912281
5c3fa4c5b1b52400013ba707,5,0,2024-02-27T11:21:00.747Z,french_853.wav,0,poule,632,24,4,5,français,m,1,0.1,-85.16852279,1.60362916
5c3fa4c5b1b52400013ba707,5,0,2024-02-27T11:21:00.747Z,french_853.wav,0,poule,632,24,4,5,français,m,2,0.2,43.35151906,0.05367398
5c3fa4c5b1b52400013ba707,5,0,2024-02-27T11:21:00.747Z,french_853.wav,0,poule,632,24,4,5,français,m,3,0.3,-36.27408381,1.0932021
5c3fa4c5b1b52400013ba707,5,0,2024-02-27T11:21:00.747Z,french_853.wav,0,poule,632,24,4,5,français,m,4,0.4,48.36174943,0.145173
5c3fa4c5b1b52400013ba707,5,0,2024-02-27T11:21:00.747Z,french_853.wav,0,poule,632,24,4,5,français,m,5,0.5,15.35458122,0.56043792
5c3fa4c5b1b52400013ba707,5,0,2024-02-27T11:21:00.747Z,french_853.wav,0,poule,632,24,4,5,français,m,6,0.6,90.63917047,0.33756351
5c3fa4c5b1b52400013ba707,5,0,2024-02-27T11:21:00.747Z,french_853.wav,0,poule,632,24,4,5,français,m,7,0.7,-25.85237464,1.25653162
5c3fa4c5b1b52400013ba707,5,0,2024-02-27T11:21:00.747Z,french_853.wav,0,poule,632,24,4,5,français,m,8,0.8,70.77908005,0.37110217
5c3fa4c5b1b52400013ba707,5,0,2024-02-27T11:21:00.747Z,french_853.wav,0,poule,632,24,4,5,français,m,9,0.9,38.87803449,0.9869935
5c3fa4c5b1b52400013ba707,5,0,2024-02-27T11:21:00.747Z,french_853.wav,0,poule,632,24,4,5,français,m,10,1.0,-78.6315789,1.45701755
5c3fa4c5b1b52400013ba707,5,0,2024-02-27T11:21:00.747Z,french_853.wav,0,poule,632,24,4,5,français,m,11,1.1,-2.04968734,1.50454965
5c3fa4c5b1b52400013ba707,5,0,2024-02-27T11:21:00.747Z,french_853.wav,0,poule,632,24,4,5,français,m,12,1.14141667,-46.31602044,1.33087312
5c3fa4c5b1b52400013ba707,6,0,2024-02-27T11:21:00.747Z,french_832.wav,0,pull,1380,24,4,5,français,m,0,0.0,91.0527066,0.72562781
5c3fa4c5b1b52400013ba707,6,0,2024-02-27T11:21:00.747Z,french_832.wav,0,pull,1380,24,4,5,français,m,1,0.1,81.34489264,1.2636831
5c3fa4c5b1b52400013ba707,6,0,2024-02-27T11:21:00.747Z,french_832.wav,0,pull,1380,24,4,5,français,m,2,0.2,-86.56561318,1.27276517
5c3fa4c5b1b52400013ba707,6,0,2024-02-27T11:21:00.747Z,french_832.wav,0,pull,1380,24,4,5,français,m,3,0.3,-43.6384995,1.32313041
5c3fa4c5b1b52400013ba707,6,0,2024-02-27T11:21:00.747Z,french_832.wav,0,pull,1380,24,4,5,français,m,4,0.4,-3.86140287,0.50543619
5c3fa4c5b1b52400013ba707,6,0,2024-02-27T11:21:00.747Z,french_832.wav,0,pull,1380,24,4,5,français,m,5,0.5,-46.47584724,1.67911748
5c3fa4c5b1b52400013ba707,6,0,2024-02-27T11:21:00.747Z,french_832.wav,0,pull,1380,24,4,5,français,m,6,0.6,26.21054023,0.57077104
5c3fa4c5b1b52400013ba707,6,0,2024-02-27T11:21:00.747Z,french_832.wav,0,pull,1380,24,4,5,français,m,7,0.7,-7.97620619,0.53964491
5c3fa4c5b1b52400013ba707,6,0,2024-02-27T11:21:00.747Z,french_832.wav,0,pull,1380,24,4,5,français,m,8,0.8,-44.06854856,0.54391344
5c3fa4c5b1b52400013ba707,6,0,2024-02-27T11:21:00.747Z,french_832.wav,0,pull,1380,24,4,5,français,m,9,0.9,67.56057024,0.84820335
5c3fa4c5b1b52400013ba707,6,0,2024-02-27T11:21:00.747Z,french_832.wav,0,pull,1380,24,4,5,français,m,10,1.0,18.72374301,0.25451187
5c3fa4c5b1b52400013ba707,6,0,2024-02-27T11:21:00.747Z,french_832.wav,0,pull,1380,24,4,5,français,m,11,1.1,63.82788243,0.43623373
5c3fa4c5b1b52400013ba707,6,0,2024-02-27T11:21:00.747Z,french_832.wav,0,pull,1380,24,4,5,français,m,12,1.14141667,39.42882806,1.51526849
5c3fa4c5b1b52400013ba707,7,0,2024-02-27T11:21:00.747Z,french_891.wav,0,poule,612,24,4,5,français,m,0,0.0,-99.04712605,1.87208337
5c3fa4c5b1b52400013ba707,7,0,2024-02-27T11:21:00.747Z,french_891.wav,0,poule,612,24,4,5,français,m,1,0.1,17.3799724,1.3828509
5c3fa4c5b1b52400013ba707,7,0,2024-02-27T11:21:00.747Z,french_891.wav,0,poule,612,24,4,5,français,m,2,0.2,-1.30355006,1.47231184
5c3fa4c5b1b52400013ba707,7,0,2024-02-27T11:21:00.747Z,french_891.wav,0,poule,612,24,4,5,français,m,3,0.3,11.66108417,1.45618748
5c3fa4c5b1b52400013ba707,7,0,2024-02-27T11:21:00.747Z,french_891.wav,0,poule,612,24,4,5,français,m,4,0.4,6.35761676,1.81540908
5c3fa4c5b1b52400013ba707,7,0,2024-02-27T11:21:00.747Z,french_891.wav,0,poule,612,24,4,5,français,m,5,0.5,-71.86971473,0.63041518
5c3fa4c5b1b52400013ba707,7,0,2024-02-27T11:21:00.747Z,french_891.wav,0,poule,612,24,4,5,français,m,6,0.6,20.94588527,0.92124801
5c3fa4c5b1b52400013ba707,7,0,2024-02-27T11:21:00.747Z,french_891.wav,0,poule,612,24,4,5,français,m,7,0.7,-13.59137079,0.65821591
5c3fa4c5b1b52400013ba707,7,0,2024-02-27T11:21:00.747Z,french_891.wav,0,poule,612,24,4,5,français,m,8,0.8,62.37473981,0.6468689
5c3fa4c5b1b52400013ba707,7,0,2024-02-27T11:21:00.747Z,french_891.wav,0,poule,612,24,4,5,français,m,9,0.9,64.47380957,0.86634815
5c3fa4c5b1b52400013ba707,7,0,2024-02-27T11:21:00.747Z,french_891.wav,0,poule,612,24,4,5,français,m,10,1.0,-7.95126825,0.44006572
5c3fa4c5b1b52400013ba707,7,0,2024-02-27T11:21:00.747Z,french_891.wav,0,poule,612,24,4,5,français,m,11,1.1,-34.88253316,1.52894565
5c3fa4c5b1b52400013ba707,7,0,2024-02-27T11:21:00.747Z,french_891.wav,0,poule,612,24,4,5,français,m,12,1.14141667,95.31191198,0.84584339
5c3fa4c5b1b52400013ba707,8,0,2024-02-27T11:21:00.747Z,french_185.wav,0,poule,1105,24,4,5,français,m,0,0.0,61.9665111,1.15780668
5c3fa4c5b1b52400013ba707,8,0,2024-02-27T11:21:00.747Z,french_185.wav,0,poule,1105,24,4,5,français,m,1,0.1,-9.67528114,0.19130474
5c3fa4c5b1b52400013ba707,8,0,2024-02-27T11:21:00.747Z,french_185.wav,0,poule,1105,24,4,5,français,m,2,0.2,-24.43848461,1.67912463
5c3fa4c5b1b52400013ba707,8,0,2024-02-27T11:21:00.747Z,french_185.wav,0,poule,1105,24,4,5,français,m,3,0.3,-22.73400218,1.52519722
5c3fa4c5b1b52400013ba707,8,0,2024-02-27T11:21:00.747Z,french_185.wav,0,poule,1105,24,4,5,français,m,4,0.4,-50.73837077,1.17122727
5c3fa4c5b1b52400013ba707,8,0,2024-02-27T11:21:00.747Z,french_185.wav,0,poule,1105,24,4,5,français,m,5,0.5,-80.54747318,1.8849469
5c3fa4c5b1b52400013ba707,8,0,2024-02-27T11:21:00.747Z,french_185.wav,0,poule,1105,24,4,5,français,m,6,0.6,-0.20993652,0.65476649
5c3fa4c5b1b52400013ba707,8,0,2024-02-27T11:21:00.747Z,french_185.wav,0,poule,1105,24,4,5,français,m,7,0.7,68.84584459,0.97463014
5c3fa4c5b1b52400013ba707,8,0,2024-02-27T11:21:00.747Z,french_185.wav,0,poule,1105,24,4,5,français,m,8,0.8,-15.95665439,0.30159856
5c3fa4c5b1b52400013ba707,8,0,2024-02-27T11:21:00.747Z,french_185.wav,0,poule,1105,24,4,5,français,m,9,0.9,-80.30357234,1.31654976
5c3fa4c5b1b52400013ba707,8,0,2024-02-27T11:21:00.747Z,french_185.wav,0,poule,1105,24,4,5,français,m,10,1.0,-6.00916241,0.73291132
5c3fa4c5b1b52400013ba707,8,0,2024-02-27T11:21:00.747Z,french_185.wav,0,poule,1105,24,4,5,français,m,11,1.1,80.5457673,1.88613253
5c3fa4c5b1b52400013ba707,8,0,2024-02-27T11:21:00.747Z,french_185.wav,0,poule,1105,24,4,5,français,m,12,1.14141667,-0.48922047,1.34322598
5c3fa4c5b1b52400013ba707,9,0,2024-02-27T11:21:00.747Z,french_280.wav,0,poule,746,24,4,5,français,m,0,0.0,63.30706177,0.51067849
5c3fa4c5b1b52400013ba707,9,0,2024-02-27T11:21:00.747Z,french_280.wav,0,poule,746,24,4,5,français,m,1,0.1,92.39258817,0.94358364
5c3fa4c5b1b52400013ba707,9,0,2024-02-27T11:21:00.747Z,french_280.wav,0,poule,746,24,4,5,français,m,2,0.2,-13.48987657,0.25640873
5c3fa4c5b1b52400013ba707,9,0,2024-02-27T11:21:00.747Z,french_280.wav,0,poule,746,24,4,5,français,m,3,0.3,-67.72828589,0.58771016
5c3fa4c5b1b52400013ba707,9,0,2024-02-27T11:21:00.747Z,french_280.wav,0,poule,746,24,4,5,français,m,4,0.4,-32.88602624,1.52289813
5c3fa4c5b1b52400013ba707,9,0,2024-02-27T11:21:00.747Z,french_280.wav,0,poule,746,24,4,5,français,m,5,0.5,-21.74757727,1.41394509
5c3fa4c5b1b52400013ba707,9,0,2024-02-27T11:21:00.747Z,french_280.wav,0,poule,746,24,4,5,français,m,6,0.6,-67.91477632,1.11303104
5c3fa4c5b1b52400013ba707,9,0,2024-02-27T11:21:00.747Z,french_280.wav,0,poule,746,24,4,5,français,m,7,0.7,-71.89099465,1.98467364
5c3fa4c5b1b52400013ba707,9,0,2024-02-27T11:21:00.747Z,french_280.wav,0,poule,746,24,4,5,français,m,8,0.8,-96.77863544,0.54349304
5c3fa4c5b1b52400013ba707,9,0,2024-02-27T11:21:00.747Z,french_280.wav,0,poule,746,24,4,5,français,m,9,0.9,-70.31079297,0.98875815
5c3fa4c5b1b52400013ba707,9,0,2024-02-27T11:21:00.747Z,french_280.wav,0,poule,746,24,4,5,français,m,10,1.0,-73.46248332,1.32929539
5c3fa4c5b1b52400013ba707,9,0,2024-02-27T11:21:00.747Z,french_280.wav,0,poule,746,24,4,5,français,m,11,1.1,-28.24261777,0.86616119
5c3fa4c5b1b52400013ba707,9,0,2024-02-27T11:21:00.747Z,french_280.wav,0,poule,746,24,4,5,français,m,12,1.14141667,19.33217049,0.54483998
5c3fa4c5b1b52400013ba707,10,0,2024-02-27T11:21:00.747Z,french_93.wav,0,poule,963,24,4,5,français,m,0,0.0,20.12555519,0.33059304
5c3fa4c5b1b52400013ba707,10,0,2024-02-27T11:21:00.747Z,french_93.wav,0,poule,963,24,4,5,français,m,1,0.1,-29.60221473,0.821528
5c3fa4c5b1b52400013ba707,10,0,2024-02-27T11:21:00.747Z,french_93.wav,0,poule,963,24,4,5,français,m,2,0.2,-87.78134606,0.89984912
5c3fa4c5b1b52400013ba707,10,0,2024-02-27T11:21:00.747Z,french_93.wav,0,poule,963,24,4,5,français,m,3,0.3,-82.8001552,1.12923164
5c3fa4c5b1b52400013ba707,10,0,2024-02-27T11:21:00.747Z,french_93.wav,0,poule,963,24,4,5,français,m,4,0.4,-57.45805653,1.13487329
5c3fa4c5b1b52400013ba707,10,0,2024-02-27T11:21:00.747Z,french_93.wav,0,poule,963,24,4,5,français,m,5,0.5,38.45207173,0.95181736
5c3fa4c5b1b52400013ba707,10,0,2024-02-27T11:21:00.747Z,french_93.wav,0,poule,963,24,4,5,français,m,6,0.6,-82.31024106,1.68020883
5c3fa4c5b1b52400013ba707,10,0,2024-02-27T11:21:00.747Z,french_93.wav,0,poule,963,24,4,5,français,m,7,0.7,-81.5108822,0.87273764
5c3fa4c5b1b52400013ba707,10,0,2024-02-27T11:21:00.747Z,french_93.wav,0,poule,963,24,4,5,français,m,8,0.8,-21.35638597,1.29787472
5c3fa4c5b1b52400013ba707,10,0,2024-02-27T11:21:00.747Z,french_93.wav,0,poule,963,24,4,5,français,m,9,0.9,39.31235358,0.99595228
5c3fa4c5b1b52400013ba707,10,0,2024-02-27T11:21:00.747Z,french_93.wav,0,poule,963,24,4,5,français,m,10,1.0,19.94378015,1.18578276
5c3fa4c5b1b52400013ba707,10,0,2024-02-27T11:21:00.747Z,french_93.wav,0,poule,963,24,4,5,français,m,11,1.1,26.49572393,1.21468356
5c3fa4c5b1b52400013ba707,10,0,2024-02-27T11:21:00.747Z,french_93.wav,0,poule,963,24,4,5,français,m,12,1.14141667,77.06361833,1.4676797
5c3fa4c5b1b52400013ba707,11,0,2024-02-27T11:21:00.747Z,french_812.wav,0,pull,893,24,4,5,français,m,0,0.0,-42.66002827,0.44619032
5c3fa4c5b1b52400013ba707,11,0,2024-02-27T11:21:00.747Z,french_812.wav,0,pull,893,24,4,5,français,m,1,0.1,-63.45257727,1.09752053
5c3fa4c5b1b52400013ba707,11,0,2024-02-27T11:21:00.747Z,french_812.wav,0,pull,893,24,4,5,français,m,2,0.2,-17.55899299,1.94483115
5c3fa4c5b1b52400013ba707,11,0,2024-02-27T11:21:00.747Z,french_812.wav,0,pull,893,24,4,5,français,m,3,0.3,-6.53827268,1.6322026
5c3fa4c5b1b52400013ba707,11,0,2024-02-27T11:21:00.747Z,french_812.wav,0,pull,893,24,4,5,français,m,4,0.4,82.73159926,1.42964573
5c3fa4c5b1b52400013ba707,11,0,2024-02-27T11:21:00.747Z,french_812.wav,0,pull,893,24,4,5,français,m,5,0.5,13.20285819,1.82803278
5c3fa4c5b1b52400013ba707,11,0,2024-02-27T11:21:00.747Z,french_812.wav,0,pull,893,24,4,5,français,m,6,0.6,-12.96734249,1.23610149
5c3fa4c5b1b52400013ba707,11,0,2024-02-27T11:21:00.747Z,french_812.wav,0,pull,893,24,4,5,français,m,7,0.7,-74.04565338,1.25749674
5c3fa4c5b1b52400013ba707,11,0,2024-02-27T11:21:00.747Z,french_812.wav,0,pull,893,24,4,5,français,m,8,0.8,43.93001564,1.19337031
5c3fa4c5b1b52400013ba707,11,0,2024-02-27T11:21:00.747Z,french_812.wav,0,pull,893,24,4,5,français,m,9,0.9,-5.48619498,0.21250901
5c3fa4c5b1b52400013ba707,11,0,2024-02-27T11:21:00.747Z,french_812.wav,0,pull,893,24,4,5,français,m,10,1.0,51.20549239,1.32924457
5c3fa4c5b1b52400013ba707,11,0,2024-02-27T11:21:00.747Z,french_812.wav,0,pull,893,24,4,5,français,m,11,1.1,48.53876007,0.52399169
5c3fa4c5b1b52400013ba707,11,0,2024-02-27T11:21:00.747Z,french_812.wav,0,pull,893,24,4,5,français,m,12,1.14141667,-70.42678673,0.252725
5c3fa4c5b1b52400013ba707,12,0,2024-02-27T11:21:00.747Z,french_249.wav,0,pull,975,24,4,5,français,m,0,0.0,60.2084808,0.86559925
5c3fa4c5b1b52400013ba707,12,0,2024-02-27T11:21:00.747Z,french_249.wav,0,pull,975,24,4,5,français,m,1,0.1,33.79766745,1.55064503
5c3fa4c5b1b52400013ba707,12,0,2024-02-27T11:21:00.747Z,french_249.wav,0,pull,975,24,4,5,français,m,2,0.2,-67.19130294,1.44078258
5c3fa4c5b1b52400013ba707,12,0,2024-02-27T11:21:00.747Z,french_249.wav,0,pull,975,24,4,5,français,m,3,0.3,-89.07860563,1.18134184
5c3fa4c5b1b52400013ba707,12,0,2024-02-27T11:21:00.747Z,french_249.wav,0,pull,975,24,4,5,français,m,4,0.4,55.46525036,1.70386756
5c3fa4c5b1b52400013ba707,12,0,2024-02-27T11:21:00.747Z,french_249.wav,0,pull,975,24,4,5,français,m,5,0.5,-26.3415238,0.52002409
5c3fa4c5b1b52400013ba707,12,0,2024-02-27T11:21:00.747Z,french_249.wav,0,pull,975,24,4,5,français,m,6,0.6,51.34404516,1.32158866
5c3fa4c5b1b52400013ba707,12,0,2024-02-27T11:21:00.747Z,french_249.wav,0,pull,975,24,4,5,français,m,7,0.7,-29.32821096,1.15452897
5c3fa4c5b1b52400013ba707,12,0,2024-02-27T11:21:00.747Z,french_249.wav,0,pull,975,24,4,5,français,m,8,0.8,50.27991968,0.19271394
5c3fa4c5b1b52400013ba707,12,0,2024-02-27T11:21:00.747Z,french_249.wav,0,pull,975,24,4,5,français,m,9,0.9,-10.43676988,1.46688151
5c3fa4c5b1b52400013ba707,12,0,2024-02-27T11:21:00.747Z,french_249.wav,0,pull,975,24,4,5,français,m,10,1.0,5.00839112,0.5650028
5c3fa4c5b1b52400013ba707,12,0,2024-02-27T11:21:00.747Z,french_249.wav,0,pull,975,24,4,5,français,m,11,1.1,24.89196533,0.4009333
5c3fa4c5b1b52400013ba707,12,0,2024-02-27T11:21:00.747Z,french_249.wav,0,pull,975,24,4,5,français,m,12,1.14141667,1.54565791,0.66216287
5c3fa4c5b1b52400013ba707,13,0,2024-02-27T11:21:00.747Z,french_47.wav,0,pull,737,24,4,5,français,m,0,0.0,-14.02980735,0.41273058
5c3fa4c5b1b52400013ba707,13,0,2024-02-27T11:21:00.747Z,french_47.wav,0,pull,737,24,4,5,français,m,1,0.1,-27.44393002,1.9976669
5c3fa4c5b1b52400013ba707,13,0,2024-02-27T11:21:00.747Z,french_47.wav,0,pull,737,24,4,5,français,m,2,0.2,-7.74092544,0.8780454
5c3fa4c5b1b52400013ba707,13,0,2024-02-27T11:21:00.747Z,french_47.wav,0,pull,737,24,4,5,français,m,3,0.3,23.23546009,0.54969456
5c3fa4c5b1b52400013ba707,13,0,2024-02-27T11:21:00.747Z,french_47.wav,0,pull,737,24,4,5,français,m,4,0.4,-3.3039543,0.45135339
5c3fa4c5b1b52400013ba707,13,0,2024-02-27T11:21:00.747Z,french_47.wav,0,pull,737,24,4,5,français,m,5,0.5,-33.76060907,1.74264661
5c3fa4c5b1b52400013ba707,13,0,2024-02-27T11:21:00.747Z,french_47.wav,0,pull,737,24,4,5,français,m,6,0.6,68.62519386,1.65837301
5c3fa4c5b1b52400013ba707,13,0,2024-02-27T11:21:00.747Z,french_47.wav,0,pull,737,24,4,5,français,m,7,0.7,-38.89599759,0.45381726
5c3fa4c5b1b52400013ba707,13,0,2024-02-27T11:21:00.747Z,french_47.wav,0,pull,737,24,4,5,français,m,8,0.8,-68.28381771,1.24615661
5c3fa4c5b1b52400013ba707,13,0,2024-02-27T11:21:00.747Z,french_47.wav,0,pull,737,24,4,5,français,m,9,0.9,62.34469485,1.9071721
5c3fa4c5b1b52400013ba707,13,0,2024-02-27T11:21:00.747Z,french_47.wav,0,pull,737,24,4,5,français,m,10,1.0,25.674394,0.93114074
5c3fa4c5b1b52400013ba707,13,0,2024-02-27T11:21:00.747Z,french_47.wav,0,pull,737,24,4,5,français,m,11,1.1,-12.7548133,0.50867237
5c3fa4c5b1b52400013ba707,13,0,2024-02-27T11:21:00.747Z,french_47.wav,0,pull,737,24,4,5,français,m,12,1.14141667,0.14092954,1.64097535
5c3fa4c5b1b52400013ba707,14,0,2024-02-27T11:21:00.747Z,french_104.wav,0,pull,1003,24,4,5,français,m,0,0.0,-10.82069804,0.1966368
5c3fa4c5b1b52400013ba707,14,0,2024-02-27T11:21:00.747Z,french_104.wav,0,pull,1003,24,4,5,français,m,1,0.1,-46.9179638,1.84976789
5c3fa4c5b1b52400013ba707,14,0,2024-02-27T11:21:00.747Z,french_104.wav,0,pull,1003,24,4,5,français,m,2,0.2,-54.48570272,1.33623315
5c3fa4c5b1b52400013ba707,14,0,2024-02-27T11:21:00.747Z,french_104.wav,0,pull,1003,24,4,5,français,m,3,0.3,3.05404722,1.29159713
5c3fa4c5b1b52400013ba707,14,0,2024-02-27T11:21:00.747Z,french_104.wav,0,pull,1003,24,4,5,français,m,4,0.4,53.05029039,0.83782165
5c3fa4c5b1b52400013ba707,14,0,2024-02-27T11:21:00.747Z,french_104.wav,0,pull,1003,24,4,5,français,m,5,0.5,41.93888619,1.8090238
5c3fa4c5b1b52400013ba707,14,0,2024-02-27T11:21:00.747Z,french_104.wav,0,pull,1003,24,4,5,français,m,6,0.6,38.59618791,0.45654873
5c3fa4c5b1b52400013ba707,14,0,2024-02-27T11:21:00.747Z,french_104.wav,0,pull,1003,24,4,5,français,m,7,0.7,19.43152578,1.50843582
5c3fa4c5b1b52400013ba707,14,0,2024-02-27T11:21:00.747Z,french_104.wav,0,pull,1003,24,4,5,français,m,8,0.8,77.35445073,0.98312763
5c3fa4c5b1b52400013ba707,14,0,2024-02-27T11:21:00.747Z,french_104.wav,0,pull,1003,24,4,5,français,m,9,0.9,32.46536794,0.62069846
5c3fa4c5b1b52400013ba707,14,0,2024-02-27T11:21:00.747Z,french_104.wav,0,pull,1003,24,4,5,français,m,10,1.0,-22.38343672,0.12277995
5c3fa4c5b1b52400013ba707,14,0,2024-02-27T11:21:00.747Z,french_104.wav,0,pull,1003,24,4,5,français,m,11,1.1,12.24635973,0.0590951
5c3fa4c5b1b52400013ba707,14,0,2024-02-27T11:21:00.747Z,french_104.wav,0,pull,1003,24,4,5,français,m,12,1.14141667,-33.54926905,0.80794126
5c3fa4c5b1b52400013ba707,15,0,2024-02-27T11:21:00.747Z,french_44.wav,0,poule,636,24,4,5,français,m,0,0.0,43.32765963,1.51920685
5c3fa4c5b1b52400013ba707,15,0,2024-02-27T11:21:00.747Z,french_44.wav,0,poule,636,24,4,5,français,m,1,0.1,45.76153083,0.42836727
5c3fa4c5b1b52400013ba707,15,0,2024-02-27T11:21:00.747Z,french_44.wav,0,poule,636,24,4,5,français,m,2,0.2,-62.16242608,0.56843373
5c3fa4c5b1b52400013ba707,15,0,2024-02-27T11:21:00.747Z,french_44.wav,0,poule,636,24,4,5,français,m,3,0.3,-30.84709198,1.83816406
5c3fa4c5b1b52400013ba707,15,0,2024-02-27T11:21:00.747Z,french_44.wav,0,poule,636,24,4,5,français,m,4,0.4,-15.32148538,1.01193494
5c3fa4c5b1b52400013ba707,15,0,2024-02-27T11:21:00.747Z,french_44.wav,0,poule,636,24,4,5,français,m,5,0.5,-3.92861786,1.55400373
5c3fa4c5b1b52400013ba707,15,0,2024-02-27T11:21:00.747Z,french_44.wav,0,poule,636,24,4,5,français,m,6,0.6,-94.5437235,1.12707216
5c3fa4c5b1b52400013ba707,15,0,2024-02-27T11:21:00.747Z,french_44.wav,0,poule,636,24,4,5,français,m,7,0.7,-29.55734016,0.27197114
5c3fa4c5b1b52400013ba707,15,0,2024-02-27T11:21:00.747Z,french_44.wav,0,poule,636,24,4,5,français,m,8,0.8,16.52036557,0.90252007
5c3fa4c5b1b52400013ba707,15,0,2024-02-27T11:21:00.747Z,french_44.wav,0,poule,636,24,4,5,français,m,9,0.9,-55.91925225,1.1595464
5c3fa4c5b1b52400013ba707,15,0,2024-02-27T11:21:00.747Z,french_44.wav,0,poule,636,24,4,5,français,m,10,1.0,28.88142595,0.95634361
5c3fa4c5b1b52400013ba707,15,0,2024-02-27T11:21:00.747Z,french_44.wav,0,poule,636,24,4,5,français,m,11,1.1,-24.47239612,1.55784051
5c3fa4c5b1b52400013ba707,15,0,2024-02-27T11:21:00.747Z,french_44.wav,0,poule,636,24,4,5,français,m,12,1.14141667,-15.15983636,1.24371342
5c3fa4c5b1b52400013ba707,16,0,2024-02-27T11:21:00.747Z,french_197.wav,0,pull,740,24,4,5,français,m,0,0.0,-32.22739451,1.51686325
5c3fa4c5b1b52400013ba707,16,0,2024-02-27T11:21:00.747Z,french_197.wav,0,pull,740,24,4,5,français,m,1,0.1,-62.71984809,0.24201413
5c3fa4c5b1b52400013ba707,16,0,2024-02-27T11:21:00.747Z,french_197.wav,0,pull,740,24,4,5,français,m,2,0.2,74.98952372,0.91229046
5c3fa4c5b1b52400013ba707,16,0,2024-02-27T11:21:00.747Z,french_197.wav,0,pull,740,24,4,5,français,m,3,0.3,45.74615237,1.18910292
5c3fa4c5b1b52400013ba707,16,0,2024-02-27T11:21:00.747Z,french_197.wav,0,pull,740,24,4,5,français,m,4,0.4,-90.51519145,0.62237854
5c3fa4c5b1b52400013ba707,16,0,2024-02-27T11:21:00.747Z,french_197.wav,0,pull,740,24,4,5,français,m,5,0.5,-55.57177481,1.52029181
5c3fa4c5b1b52400013ba707,16,0,2024-02-27T11:21:00.747Z,french_197.wav,0,pull,740,24,4,5,français,m,6,0.6,29.61889111,0.64553376
5c3fa4c5b1b52400013ba707,16,0,2024-02-27T11:21:00.747Z,french_197.wav,0,pull,740,24,4,5,français,m,7,0.7,-22.23442676,0.69050991
5c3fa4c5b1b52400013ba707,16,0,2024-02-27T11:21:00.747Z,french_197.wav,0,pull,740,24,4,5,français,m,8,0.8,-2.38421375,1.96622619
5c3fa4c5b1b52400013ba707,16,0,2024-02-27T11:21:00.747Z,french_197.wav,0,pull,740,24,4,5,français,m,9,0.9,20.49896048,1.79065794
5c3fa4c5b1b52400013ba707,16,0,2024-02-27T11:21:00.747Z,french_197.wav,0,pull,740,24,4,5,français,m,10,1.0,-44.60269007,0.97033515
5c3fa4c5b1b52400013ba707,16,0,2024-02-27T11:21:00.747Z,french_197.wav,0,pull,740,24,4,5,français,m,11,1.1,76.8804822,0.66551295
5c3fa4c5b1b52400013ba707,16,0,2024-02-27T11:21:00.747Z,french_197.wav,0,pull,740,24,4,5,français,m,12,1.14141667,16.68296349,0.45334556
5c3fa4c5b1b52400013ba707,17,0,2024-02-27T11:21:00.747Z,french_807.wav,0,poule,1932,24,4,5,français,m,0,0.0,-80.44919657,1.01791128
5c3fa4c5b1b52400013ba707,17,0,2024-02-27T11:21:00.747Z,french_807.wav,0,poule,1932,24,4,5,français,m,1,0.1,-34.48727533,0.51127266
5c3fa4c5b1b52400013ba707,17,0,2024-02-27T11:21:00.747Z,french_807.wav,0,poule,1932,24,4,5,français,m,2,0.2,-27.85444657,1.03770419
5c3fa4c5b1b52400013ba707,17,0,2024-02-27T11:21:00.747Z,french_807.wav,0,poule,1932,24,4,5,français,m,3,0.3,-0.73618666,1.5684914
5c3fa4c5b1b52400013ba707,17,0,2024-02-27T11:21:00.747Z,french_807.wav,0,poule,1932,24,4,5,français,m,4,0.4,0.77626811,0.83417196
5c3fa4c5b1b52400013ba707,17,0,2024-02-27T11:21:00.747Z,french_807.wav,0,poule,1932,24,4,5,français,m,5,0.5,-75.08426277,0.04387423
5c3fa4c5b1b52400013ba707,17,0,2024-02-27T11:21:00.747Z,french_807.wav,0,poule,1932,24,4,5,français,m,6,0.6,20.03798274,0.37017036
5c3fa4c5b1b52400013ba707,17,0,2024-02-27T11:21:00.747Z,french_807.wav,0,poule,1932,24,4,5,français,m,7,0.7,46.24294154,1.90217427
5c3fa4c5b1b52400013ba707,17,0,2024-02-27T11:21:00.747Z,french_807.wav,0,poule,1932,24,4,5,français,m,8,0.8,22.03140958,0.74355786
5c3fa4c5b1b52400013ba707,17,0,2024-02-27T11:21:00.747Z,french_807.wav,0,poule,1932,24,4,5,français,m,9,0.9,26.33483047,0.1834128
5c3fa4c5b1b52400013ba707,17,0,2024-02-27T11:21:00.747Z,french_807.wav,0,poule,1932,24,4,5,français,m,10,1.0,-51.28476198,1.60996589
5c3fa4c5b1b52400013ba707,17,0,2024-02-27T11:21:00.747Z,french_807.wav,0,poule,1932,24,4,5,français,m,11,1.1,-29.39920635,1.08150991
5c3fa4c5b1b52400013ba707,17,0,2024-02-27T11:21:00.747Z,french_807.wav,0,poule,1932,24,4,5,français,m,12,1.14141667,1.31536819,0.63923462
5c3fa4c5b1b52400013ba707,18,0,2024-02-27T11:21:00.747Z,french_271.wav,0,pull,1071,24,4,5,français,m,0,0.0,-4.26084728,0.95664408
5c3fa4c5b1b52400013ba707,18,0,2024-02-27T11:21:00.747Z,french_271.wav,0,pull,1071,24,4,5,français,m,1,0.1,-66.22674374,1.64199905
5c3fa4c5b1b52400013ba707,18,0,2024-02-27T11:21:00.747Z,french_271.wav,0,pull,1071,24,4,5,français,m,2,0.2,50.59493008,0.62402053
5c3fa4c5b1b52400013ba707,18,0,2024-02-27T11:21:00.747Z,french_271.wav,0,pull,1071,24,4,5,français,m,3,0.3,93.97669366,1.98710423
5c3fa4c5b1b52400013ba707,18,0,2024-02-27T11:21:00.747Z,french_271.wav,0,pull,1071,24,4,5,français,m,4,0.4,59.96084063,0.39456056
5c3fa4c5b1b52400013ba707,18,0,2024-02-27T11:21:00.747Z,french_271.wav,0,pull,1071,24,4,5,français,m,5,0.5,-86.11772004,1.16329707
5c3fa4c5b1b52400013ba707,18,0,2024-02-27T11:21:00.747Z,french_271.wav,0,pull,1071,24,4,5,français,m,6,0.6,-2.09396449,0.57946499
5c3fa4c5b1b52400013ba707,18,0,2024-02-27T11:21:00.747Z,french_271.wav,0,pull,1071,24,4,5,français,m,7,0.7,-84.13135866,1.05634416
5c3fa4c5b1b52400013ba707,18,0,2024-02-27T11:21:00.747Z,french_271.wav,0,pull,1071,24,4,5,français,m,8,0.8,23.5667552,1.20321017
5c3fa4c5b1b52400013ba707,18,0,2024-02-27T11:21:00.747Z,french_271.wav,0,pull,1071,24,4,5,français,m,9,0.9,-21.96388567,0.23833217
5c3fa4c5b1b52400013ba707,18,0,2024-02-27T11:21:00.747Z,french_271.wav,0,pull,1071,24,4,5,français,m,10,1.0,6.84620378,0.26201816
5c3fa4c5b1b52400013ba707,18,0,2024-02-27T11:21:00.747Z,french_271.wav,0,pull,1071,24,4,5,français,m,11,1.1,-67.33014585,0.15969444
5c3fa4c5b1b52400013ba707,18,0,2024-02-27T11:21:00.747Z,french_271.wav,0,pull,1071,24,4,5,français,m,12,1.14141667,5.99974644,1.56436883
5c3fa4c5b1b52400013ba707,19,0,2024-02-27T11:21:00.747Z,french_368.wav,0,poule,845,24,4,5,français,m,0,0.0,-34.05995953,1.98885057
5c3fa4c5b1b52400013ba707,19,0,2024-02-27T11:21:00.747Z,french_368.wav,0,poule,845,24,4,5,français,m,1,0.1,-93.16055168,1.8191466
5c3fa4c5b1b52400013ba707,19,0,2024-02-27T11:21:00.747Z,french_368.wav,0,poule,845,24,4,5,français,m,2,0.2,-60.93696761,0.28885181
5c3fa4c5b1b52400013ba707,19,0,2024-02-27T11:21:00.747Z,french_368.wav,0,poule,845,24,4,5,français,m,3,0.3,30.13139622,0.75605437
5c3fa4c5b1b52400013ba707,19,0,2024-02-27T11:21:00.747Z,french_368.wav,0,poule,845,24,4,5,français,m,4,0.4,49.35617641,0.66072092
5c3fa4c5b1b52400013ba707,19,0,2024-02-27T11:21:00.747Z,french_368.wav,0,poule,845,24,4,5,français,m,5,0.5,-82.11558789,1.65450461
5c3fa4c5b1b52400013ba707,19,0,2024-02-27T11:21:00.747Z,french_368.wav,0,poule,845,24,4,5,français,m,6,0.6,-57.30474897,1.03070567
5c3fa4c5b1b52400013ba707,19,0,2024-02-27T11:21:00.747Z,french_368.wav,0,poule,845,24,4,5,français,m,7,0.7,-48.21332277,1.62140549
5c3fa4c5b1b52400013ba707,19,0,2024-02-27T11:21:00.747Z,french_368.wav,0,poule,845,24,4,5,français,m,8,0.8,-56.69268049,0.80391253
5c3fa4c5b1b52400013ba707,19,0,2024-02-27T11:21:00.747Z,french_368.wav,0,poule,845,24,4,5,français,m,9,0.9,-86.28342847,1.6620924
5c3fa4c5b1b52400013ba707,19,0,2024-02-27T11:21:00.747Z,french_368.wav,0,poule,845,24,4,5,français,m,10,1.0,85.16098195,1.83973139
5c3fa4c5b1b52400013ba707,19,0,2024-02-27T11:21:00.747Z,french_368.wav,0,poule,845,24,4,5,français,m,11,1.1,-42.27806875,1.17500156
5c3fa4c5b1b52400013ba707,19,0,2024-02-27T11:21:00.747Z,french_368.wav,0,poule,845,24,4,5,français,m,12,1.14141667,-53.54239336,0.31003115
5c3fa4c5b1b52400013ba707,20,0,2024-02-27T11:21:00.747Z,french_681.wav,0,poule,717,24,4,5,français,m,0,0.0,-97.30934459,0.68826213
5c3fa4c5b1b52400013ba707,20,0,2024-02-27T11:21:00.747Z,french_681.wav,0,poule,717,24,4,5,français,m,1,0.1,-35.19724747,0.18573935
5c3fa4c5b1b52400013ba707,20,0,2024-02-27T11:21:00.747Z,french_681.wav,0,poule,717,24,4,5,français,m,2,0.2,-21.51950238,0.87968151
5c3fa4c5b1b52400013ba707,20,0,2024-02-27T11:21:00.747Z,french_681.wav,0,poule,717,24,4,5,français,m,3,0.3,-52.55201926,1.42391909
5c3fa4c5b1b52400013ba707,20,0,2024-02-27T11:21:00.747Z,french_681.wav,0,poule,717,24,4,5,français,m,4,0.4,62.39918701,1.43099487
5c3fa4c5b1b52400013ba707,20,0,2024-02-27T11:21:00.747Z,french_681.wav,0,poule,717,24,4,5,français,m,5,0.5,37.22710343,1.13641153
5c3fa4c5b1b52400013ba707,20,0,2024-02-27T11:21:00.747Z,french_681.wav,0,poule,717,24,4,5,français,m,6,0.6,37.61564457,0.01922596
5c3fa4c5b1b52400013ba707,20,0,2024-02-27T11:21:00.747Z,french_681.wav,0,poule,717,24,4,5,français,m,7,0.7,-58.93821482,1.86928285
5c3fa4c5b1b52400013ba707,20,0,2024-02-27T11:21:00.747Z,french_681.wav,0,poule,717,24,4,5,français,m,8,0.8,91.17894054,0.97464305
5c3fa4c5b1b52400013ba707,20,0,2024-02-27T11:21:00.747Z,french_681.wav,0,poule,717,24,4,5,français,m,9,0.9,-46.6625886,1.3387681
5c3fa4c5b1b52400013ba707,20,0,2024-02-27T11:21:00.747Z,french_681.wav,0,poule,717,24,4,5,français,m,10,1.0,-13.36336259,0.7264955
5c3fa4c5b1b52400013ba707,20,0,2024-02-27T11:21:00.747Z,french_681.wav,0,poule,717,24,4,5,français,m,11,1.1,-2.63692555,1.20739743
5c3fa4c5b1b52400013ba707,20,0,2024-02-27T11:21:00.747Z,french_681.wav,0,poule,717,24,4,5,français,m,12,1.14141667,-49.79155462,0.86539132
5c3fa4c5b1b52400013ba707,21,0,2024-02-27T11:21:00.747Z,french_798.wav,0,poule,545,24,4,5,français,m,0,0.0,23.18820736,0.75158349
5c3fa4c5b1b52400013ba707,21,0,2024-02-27T11:21:00.747Z,french_798.wav,0,poule,545,24,4,5,français,m,1,0.1,-2.07958128,0.71454604
5c3fa4c5b1b52400013ba707,21,0,2024-02-27T11:21:00.747Z,french_798.wav,0,poule,545,24,4,5,français,m,2,0.2,-48.02591884,1.54456255
5c3fa4c5b1b52400013ba707,21,0,2024-02-27T11:21:00.747Z,french_798.wav,0,poule,545,24,4,5,français,m,3,0.3,38.59927327,1.20944344
5c3fa4c5b1b52400013ba707,21,0,2024-02-27T11:21:00.747Z,french_798.wav,0,poule,545,24,4,5,français,m,4,0.4,-86.07746365,0.78904319
5c3fa4c5b1b52400013ba707,21,0,2024-02-27T11:21:00.747Z,french_798.wav,0,poule,545,24,4,5,français,m,5,0.5,-70.90704765,0.83495851
5c3fa4c5b1b52400013ba707,21,0,2024-02-27T11:21:00.747Z,french_798.wav,0,poule,545,24,4,5,français,m,6,0.6,9.89404779,1.17214468
5c3fa4c5b1b52400013ba707,21,0,2024-02-27T11:21:00.747Z,french_798.wav,0,poule,545,24,4,5,français,m,7,0.7,-7.32021634,0.33508719
5c3fa4c5b1b52400013ba707,21,0,2024-02-27T11:21:00.747Z,french_798.wav,0,poule,545,24,4,5,français,m,8,0.8,-83.58554005,1.87108409
5c3fa4c5b1b52400013ba707,21,0,2024-02-27T11:21:00.747Z,french_798.wav,0,poule,545,24,4,5,français,m,9,0.9,47.48195997,0.79690586
5c3fa4c5b1b52400013ba707,21,0,2024-02-27T11:21:00.747Z,french_798.wav,0,poule,545,24,4,5,français,m,10,1.0,-68.72637468,0.98942151
5c3fa4c5b1b52400013ba707,21,0,2024-02-27T11:21:00.747Z,french_798.wav,0,poule,545,24,4,5,français,m,11,1.1,-14.54172487,1.50469392
5c3fa4c5b1b52400013ba707,21,0,2024-02-27T11:21:00.747Z,french_798.wav,0,poule,545,24,4,5,français,m,12,1.14141667,-5.31366148,0.42081668
5c3fa4c5b1b52400013ba707,22,0,2024-02-27T11:21:00.747Z,french_212.wav,0,poule,953,24,4,5,français,m,0,0.0,90.88102294,1.19203637
5c3fa4c5b1b52400013ba707,22,0,2024-02-27T11:21:00.747Z,french_212.wav,0,poule,953,24,4,5,français,m,1,0.1,-35.14561703,1.89782901
5c3fa4c5b1b52400013ba707,22,0,2024-02-27T11:21:00.747Z,french_212.wav,0,poule,953,24,4,5,français,m,2,0.2,14.79271583,1.86865655
5c3fa4c5b1b52400013ba707,22,0,2024-02-27T11:21:00.747Z,french_212.wav,0,poule,953,24,4,5,français,m,3,0.3,-88.21899913,1.6473075
5c3fa4c5b1b52400013ba707,22,0,2024-02-27T11:21:00.747Z,french_212.wav,0,poule,953,24,4,5,français,m,4,0.4,92.67503614,1.53763625
5c3fa4c5b1b52400013ba707,22,0,2024-02-27T11:21:00.747Z,french_212.wav,0,poule,953,24,4,5,français,m,5,0.5,23.16298662,0.83064548
5c3fa4c5b1b52400013ba707,22,0,2024-02-27T11:21:00.747Z,french_212.wav,0,poule,953,24,4,5,français,m,6,0.6,48.09904427,0.60296104
5c3fa4c5b1b52400013ba707,22,0,2024-02-27T11:21:00.747Z,french_212.wav,0,poule,953,24,4,5,français,m,7,0.7,21.94712123,1.07417589
5c3fa4c5b1b52400013ba707,22,0,2024-02-27T11:21:00.747Z,french_212.wav,0,poule,953,24,4,5,français,m,8,0.8,-62.00364596,1.14958956
5c3fa4c5b1b52400013ba707,22,0,2024-02-27T11:21:00.747Z,french_212.wav,0,poule,953,24,4,5,français,m,9,0.9,-26.3637586,0.04243199
5c3fa4c5b1b52400013ba707,22,0,2024-02-27T11:21:00.747Z,french_212.wav,0,poule,953,24,4,5,français,m,10,1.0,-48.35693482,0.92355121
5c3fa4c5b1b52400013ba707,22,0,2024-02-27T11:21:00.747Z,french_212.wav,0,poule,953,24,4,5,français,m,11,1.1,41.70852202,0.52672923
5c3fa4c5b1b52400013ba707,22,0,2024-02-27T11:21:00.747Z,french_212.wav,0,poule,953,24,4,5,français,m,12,1.14141667,38.71450678,1.31846494
5c3fa4c5b1b52400013ba707,23,0,2024-02-27T11:21:00.747Z,french_721.wav,0,poule,719,24,4,5,français,m,0,0.0,71.4664996,0.49308796
5c3fa4c5b1b52400013ba707,23,0,2024-02-27T11:21:00.747Z,french_721.wav,0,poule,719,24,4,5,français,m,1,0.1,-29.81516222,1.93963897
5c3fa4c5b1b52400013ba707,23,0,2024-02-27T11:21:00.747Z,french_721.wav,0,poule,719,24,4,5,français,m,2,0.2,-91.01314813,0.90556613
5c3fa4c5b1b52400013ba707,23,0,2024-02-27T11:21:00.747Z,french_721.wav,0,poule,719,24,4,5,français,m,3,0.3,-6.30659731,1.77056041
5c3fa4c5b1b52400013ba707,23,0,2024-02-27T11:21:00.747Z,french_721.wav,0,poule,719,24,4,5,français,m,4,0.4,-44.23104163,0.67637582
5c3fa4c5b1b52400013ba707,23,0,2024-02-27T11:21:00.747Z,french_721.wav,0,poule,719,24,4,5,français,m,5,0.5,-43.35271237,1.12060168
5c3fa4c5b1b52400013ba707,23,0,2024-02-27T11:21:00.747Z,french_721.wav,0,poule,719,24,4,5,français,m,6,0.6,-49.65472851,0.71280726
5c3fa4c5b1b52400013ba707,23,0,2024-02-27T11:21:00.747Z,french_721.wav,0,poule,719,24,4,5,français,m,7,0.7,-29.63657547,0.31790622
5c3fa4c5b1b52400013ba707,23,0,2024-02-27T11:21:00.747Z,french_721.wav,0,poule,719,24,4,5,français,m,8,0.8,85.39925536,0.19195943
5c3fa4c5b1b52400013ba707,23,0,2024-02-27T11:21:00.747Z,french_721.wav,0,poule,719,24,4,5,français,m,9,0.9,-83.16878764,1.42167074
5c3fa4c5b1b52400013ba707,23,0,2024-02-27T11:21:00.747Z,french_721.wav,0,poule,719,24,4,5,français,m,10,1.0,-25.08819563,1.95663452
5c3fa4c5b1b52400013ba707,23,0,2024-02-27T11:21:00.747Z,french_721.wav,0,poule,719,24,4,5,français,m,11,1.1,38.2926067,1.90504851
5c3fa4c5b1b52400013ba707,23,0,2024-02-27T11:21:00.747Z,french_721.wav,0,poule,719,24,4,5,français,m,12,1.14141667,77.35172581,0.04583032
5c3fa4c5b1b52400013ba707,24,0,2024-02-27T11:21:00.747Z,french_447.wav,0,poule,689,24,4,5,français,m,0,0.0,6.04355082,1.02628558
5c3fa4c5b1b52400013ba707,24,0,2024-02-27T11:21:00.747Z,french_447.wav,0,poule,689,24,4,5,français,m,1,0.1,-1.04855661,1.77610809
5c3fa4c5b1b52400013ba707,24,0,2024-02-27T11:21:00.747Z,french_447.wav,0,poule,689,24,4,5,français,m,2,0.2,-47.12815284,1.47367835
5c3fa4c5b1b52400013ba707,24,0,2024-02-27T11:21:00.747Z,french_447.wav,0,poule,689,24,4,5,français,m,3,0.3,68.61131291,1.43120021
5c3fa4c5b1b52400013ba707,24,0,2024-02-27T11:21:00.747Z,french_447.wav,0,poule,689,24,4,5,français,m,4,0.4,29.55521304,1.37358307
5c3fa4c5b1b52400013ba707,24,0,2024-02-27T11:21:00.747Z,french_447.wav,0,poule,689,24,4,5,français,m,5,0.5,83.19468183,0.28035321
5c3fa4c5b1b52400013ba707,24,0,2024-02-27T11:21:00.747Z,french_447.wav,0,poule,689,24,4,5,français,m,6,0.6,32.28964421,1.18002936
5c3fa4c5b1b52400013ba707,24,0,2024-02-27T11:21:00.747Z,french_447.wav,0,poule,689,24,4,5,français,m,7,0.7,-30.56201849,1.27636641
5c3fa4c5b1b52400013ba707,24,0,2024-02-27T11:21:00.747Z,french_447.wav,0,poule,689,24,4,5,français,m,8,0.8,-62.10694836,1.80740879
5c3fa4c5b1b52400013ba707,24,0,2024-02-27T11:21:00.747Z,french_447.wav,0,poule,689,24,4,5,français,m,9,0.9,-56.07346139,0.54939497
5c3fa4c5b1b52400013ba707,24,0,2024-02-27T11:21:00.747Z,french_447.wav,0,poule,689,24,4,5,français,m,10,1.0,-91.28980729,1.34706634
5c3fa4c5b1b52400013ba707,24,0,2024-02-27T11:21:00.747Z,french_447.wav,0,poule,689,24,4,5,français,m,11,1.1,35.15873918,1.19033731
5c3fa4c5b1b52400013ba707,24,0,2024-02-27T11:21:00.747Z,french_447.wav,0,poule,689,24,4,5,français,m,12,1.14141667,28.83992247,0.41831697
5c3fa4c5b1b52400013ba707,25,0,2024-02-27T11:21:00.747Z,french_388.wav,0,poule,1007,24,4,5,français,m,0,0.0,51.38523504,1.22268
5c3fa4c5b1b52400013ba707,25,0,2024-02-27T11:21:00.747Z,french_388.wav,0,poule,1007,24,4,5,français,m,1,0.1,16.84654268,0.96085759
5c3fa4c5b1b52400013ba707,25,0,2024-02-27T11:21:00.747Z,french_388.wav,0,poule,1007,24,4,5,français,m,2,0.2,27.64589009,1.34778523
5c3fa4c5b1b52400013ba707,25,0,2024-02-27T11:21:00.747Z,french_388.wav,0,poule,1007,24,4,5,français,m,3,0.3,20.31498529,1.21706837
5c3fa4c5b1b52400013ba707,25,0,2024-02-27T11:21:00.747Z,french_388.wav,0,poule,1007,24,4,5,français,m,4,0.4,-14.78120843,0.40166194
5c3fa4c5b1b52400013ba707,25,0,2024-02-27T11:21:00.747Z,french_388.wav,0,poule,1007,24,4,5,français,m,5,0.5,-38.11065211,0.26725699
5c3fa4c5b1b52400013ba707,25,0,2024-02-27T11:21:00.747Z,french_388.wav,0,poule,1007,24,4,5,français,m,6,0.6,-7.62875956,1.14583508
5c3fa4c5b1b52400013ba707,25,0,2024-02-27T11:21:00.747Z,french_388.wav,0,poule,1007,24,4,5,français,m,7,0.7,70.58051557,1.83126524
5c3fa4c5b1b52400013ba707,25,0,2024-02-27T11:21:00.747Z,french_388.wav,0,poule,1007,24,4,5,français,m,8,0.8,86.07102247,0.29461616
5c3fa4c5b1b52400013ba707,25,0,2024-02-27T11:21:00.747Z,french_388.wav,0,poule,1007,24,4,5,français,m,9,0.9,96.81537136,0.52751132
5c3fa4c5b1b52400013ba707,25,0,2024-02-27T11:21:00.747Z,french_388.wav,0,poule,1007,24,4,5,français,m,10,1.0,-7.45149672,0.97817889
5c3fa4c5b1b52400013ba707,25,0,2024-02-27T11:21:00.747Z,french_388.wav,0,poule,1007,24,4,5,français,m,11,1.1,-64.0629032,1.4699613
5c3fa4c5b1b52400013ba707,25,0,2024-02-27T11:21:00.747Z,french_388.wav,0,poule,1007,24,4,5,français,m,12,1.14141667,-27.28943077,0.97022458
5c3fa4c5b1b52400013ba707,26,0,2024-02-27T11:21:00.747Z,french_952.wav,0,pull,1121,24,4,5,français,m,0,0.0,-16.04149759,1.63363299
5c3fa4c5b1b52400013ba707,26,0,2024-02-27T11:21:00.747Z,french_952.wav,0,pull,1121,24,4,5,français,m,1,0.1,46.67121849,0.65674372
5c3fa4c5b1b52400013ba707,26,0,2024-02-27T11:21:00.747Z,french_952.wav,0,pull,1121,24,4,5,français,m,2,0.2,-7.75723509,0.94426956
5c3fa4c5b1b52400013ba707,26,0,2024-02-27T11:21:00.747Z,french_952.wav,0,pull,1121,24,4,5,français,m,3,0.3,25.03407062,0.96418077
5c3fa4c5b1b52400013ba707,26,0,2024-02-27T11:21:00.747Z,french_952.wav,0,pull,1121,24,4,5,français,m,4,0.4,58.48775829,1.76592992
5c3fa4c5b1b52400013ba707,26,0,2024-02-27T11:21:00.747Z,french_952.wav,0,pull,1121,24,4,5,français,m,5,0.5,71.77333472,1.79494342
5c3fa4c5b1b52400013ba707,26,0,2024-02-27T11:21:00.747Z,french_952.wav,0,pull,1121,24,4,5,français,m,6,0.6,88.64449387,1.63409215
5c3fa4c5b1b52400013ba707,26,0,2024-02-27T11:21:00.747Z,french_952.wav,0,pull,1121,24,4,5,français,m,7,0.7,-10.04237369,1.58467162
5c3fa4c5b1b52400013ba707,26,0,2024-02-27T11:21:00.747Z,french_952.wav,0,pull,1121,24,4,5,français,m,8,0.8,53.30903822,1.58753119
5c3fa4c5b1b52400013ba707,26,0,2024-02-27T11:21:00.747Z,french_952.wav,0,pull,1121,24,4,5,français,m,9,0.9,77.56829483,0.34334886
5c3fa4c5b1b52400013ba707,26,0,2024-02-27T11:21:00.747Z,french_952.wav,0,pull,1121,24,4,5,français,m,10,1.0,70.17417278,0.58364948
5c3fa4c5b1b52400013ba707,26,0,2024-02-27T11:21:00.747Z,french_952.wav,0,pull,1121,24,4,5,français,m,11,1.1,-41.2052464,0.18580202
5c3fa4c5b1b52400013ba707,26,0,2024-02-27T11:21:00.747Z,french_952.wav,0,pull,1121,24,4,5,français,m,12,1.14141667,70.81168009,1.37774726
5c3fa4c5b1b52400013ba707,27,0,2024-02-27T11:21:00.747Z,french_204.wav,0,poule,764,24,4,5,français,m,0,0.0,-97.54424604,0.84357782
5c3fa4c5b1b52400013ba707,27,0,2024-02-27T11:21:00.747Z,french_204.wav,0,poule,764,24,4,5,français,m,1,0.1,-75.45987253,1.86814554
5c3fa4c5b1b52400013ba707,27,0,2024-02-27T11:21:00.747Z,french_204.wav,0,poule,764,24,4,5,français,m,2,0.2,-45.23023412,0.72033873
5c3fa4c5b1b52400013ba707,27,0,2024-02-27T11:21:00.747Z,french_204.wav,0,poule,764,24,4,5,français,m,3,0.3,-36.48297354,0.94694734
5c3fa4c5b1b52400013ba707,27,0,2024-02-27T11:21:00.747Z,french_204.wav,0,poule,764,24,4,5,français,m,4,0.4,90.93714811,1.41055146
5c3fa4c5b1b52400013ba707,27,0,2024-02-27T11:21:00.747Z,french_204.wav,0,poule,764,24,4,5,français,m,5,0.5,8.51204829,1.86444056
5c3fa4c5b1b52400013ba707,27,0,2024-02-27T11:21:00.747Z,french_204.wav,0,poule,764,24,4,5,français,m,6,0.6,-18.08952278,0.86787291
5c3fa4c5b1b52400013ba707,27,0,2024-02-27T11:21:00.747Z,french_204.wav,0,poule,764,24,4,5,français,m,7,0.7,-30.86608274,0.05470733
5c3fa4c5b1b52400013ba707,27,0,2024-02-27T11:21:00.747Z,french_204.wav,0,poule,764,24,4,5,français,m,8,0.8,9.52121427,0.89406548
5c3fa4c5b1b52400013ba707,27,0,2024-02-27T11:21:00.747Z,french_204.wav,0,poule,764,24,4,5,français,m,9,0.9,32.93587108,0.95464127
5c3fa4c5b1b52400013ba707,27,0,2024-02-27T11:21:00.747Z,french_204.wav,0,poule,764,24,4,5,français,m,10,1.0,4.3572217,1.5370853
5c3fa4c5b1b52400013ba707,27,0,2024-02-27T11:21:00.747Z,french_204.wav,0,poule,764,24,4,5,français,m,11,1.1,48.01606994,0.95273062
5c3fa4c5b1b52400013ba707,27,0,2024-02-27T11:21:00.747Z,french_204.wav,0,poule,764,24,4,5,français,m,12,1.14141667,-31.34314553,1.18622343
5c3fa4c5b1b52400013ba707,28,0,2024-02-27T11:21:00.747Z,french_237.wav,0,poule,796,24,4,5,français,m,0,0.0,31.70987786,1.31590513
5c3fa4c5b1b52400013ba707,28,0,2024-02-27T11:21:00.747Z,french_237.wav,0,poule,796,24,4,5,français,m,1,0.1,44.65820907,0.84112054
5c3fa4c5b1b52400013ba707,28,0,2024-02-27T11:21:00.747Z,french_237.wav,0,poule,796,24,4,5,français,m,2,0.2,13.3186434,0.69527524
5c3fa4c5b1b52400013ba707,28,0,2024-02-27T11:21:00.747Z,french_237.wav,0,poule,796,24,4,5,français,m,3,0.3,66.1783484,1.26135679
5c3fa4c5b1b52400013ba707,28,0,2024-02-27T11:21:00.747Z,french_237.wav,0,poule,796,24,4,5,français,m,4,0.4,9.82166226,1.98640285
5c3fa4c5b1b52400013ba707,28,0,2024-02-27T11:21:00.747Z,french_237.wav,0,poule,796,24,4,5,français,m,5,0.5,-28.83229096,0.12218975
5c3fa4c5b1b52400013ba707,28,0,2024-02-27T11:21:00.747Z,french_237.wav,0,poule,796,24,4,5,français,m,6,0.6,76.24548925,0.73409952
5c3fa4c5b1b52400013ba707,28,0,2024-02-27T11:21:00.747Z,french_237.wav,0,poule,796,24,4,5,français,m,7,0.7,34.63949689,1.11406015
5c3fa4c5b1b52400013ba707,28,0,2024-02-27T11:21:00.747Z,french_237.wav,0,poule,796,24,4,5,français,m,8,0.8,-48.33331205,1.16947058
5c3fa4c5b1b52400013ba707,28,0,2024-02-27T11:21:00.747Z,french_237.wav,0,poule,796,24,4,5,français,m,9,0.9,50.34000449,0.6556194
5c3fa4c5b1b52400013ba707,28,0,2024-02-27T11:21:00.747Z,french_237.wav,0,poule,796,24,4,5,français,m,10,1.0,49.76225002,1.40941557
5c3fa4c5b1b52400013ba707,28,0,2024-02-27T11:21:00.747Z,french_237.wav,0,poule,796,24,4,5,français,m,11,1.1,67.38211301,0.44515823
5c3fa4c5b1b52400013ba707,28,0,2024-02-27T11:21:00.747Z,french_237.wav,0,poule,796,24,4,5,français,m,12,1.14141667,80.88052333,0.0317855
5c3fa4c5b1b52400013ba707,29,0,2024-02-27T11:21:00.747Z,french_430.wav,0,poule,1533,24,4,5,français,m,0,0.0,-1.11673428,1.80235128
5c3fa4c5b1b52400013ba707,29,0,2024-02-27T11:21:00.747Z,french_430.wav,0,poule,1533,24,4,5,français,m,1,0.1,-18.8770791,0.96013589
5c3fa4c5b1b52400013ba707,29,0,2024-02-27T11:21:00.747Z,french_430.wav,0,poule,1533,24,4,5,français,m,2,0.2,-96.59150857,0.2329428
5c3fa4c5b1b52400013ba707,29,0,2024-02-27T11:21:00.747Z,french_430.wav,0,poule,1533,24,4,5,français,m,3,0.3,29.45958003,1.61417388
5c3fa4c5b1b52400013ba707,29,0,2024-02-27T11:21:00.747Z,french_430.wav,0,poule,1533,24,4,5,français,m,4,0.4,72.32030407,0.49435869
5c3fa4c5b1b52400013ba707,29,0,2024-02-27T11:21:00.747Z,french_430.wav,0,poule,1533,24,4,5,français,m,5,0.5,33.72712723,1.27401148
5c3fa4c5b1b52400013ba707,29,0,2024-02-27T11:21:00.747Z,french_430.wav,0,poule,1533,24,4,5,français,m,6,0.6,-52.79580087,0.53143616
5c3fa4c5b1b52400013ba707,29,0,2024-02-27T11:21:00.747Z,french_430.wav,0,poule,1533,24,4,5,français,m,7,0.7,56.33228176,1.64780083
5c3fa4c5b1b52400013ba707,29,0,2024-02-27T11:21:00.747Z,french_430.wav,0,poule,1533,24,4,5,français,m,8,0.8,65.21499831,1.13381855
5c3fa4c5b1b52400013ba707,29,0,2024-02-27T11:21:00.747Z,french_430.wav,0,poule,1533,24,4,5,français,m,9,0.9,-25.51107946,1.32115129
5c3fa4c5b1b52400013ba707,29,0,2024-02-27T11:21:00.747Z,french_430.wav,0,poule,1533,24,4,5,français,m,10,1.0,-97.21664481,1.76113448
5c3fa4c5b1b52400013ba707,29,0,2024-02-27T11:21:00.747Z,french_430.wav,0,poule,1533,24,4,5,français,m,11,1.1,50.77898767,1.5165456
5c3fa4c5b1b52400013ba707,29,0,2024-02-27T11:21:00.747Z,french_430.wav,0,poule,1533,24,4,5,français,m,12,1.14141667,-26.61928039,1.29628567
5c3fa4c5b1b52400013ba707,30,0,2024-02-27T11:21:00.747Z,french_612.wav,0,pull,807,24,4,5,français,m,0,0.0,-47.07678459,0.11615232
5c3fa4c5b1b52400013ba707,30,0,2024-02-27T11:21:00.747Z,french_612.wav,0,pull,807,24,4,5,français,m,1,0.1,3.63425246,0.47093102
5c3fa4c5b1b52400013ba707,30,0,2024-02-27T11:21:00.747Z,french_612.wav,0,pull,807,24,4,5,français,m,2,0.2,31.48917189,0.45807262
5c3fa4c5b1b52400013ba707,30,0,2024-02-27T11:21:00.747Z,french_612.wav,0,pull,807,24,4,5,français,m,3,0.3,44.38742484,0.81161175
5c3fa4c5b1b52400013ba707,30,0,2024-02-27T11:21:00.747Z,french_612.wav,0,pull,807,24,4,5,français,m,4,0.4,15.5069451,1.0193018
5c3fa4c5b1b52400013ba707,30,0,2024-02-27T11:21:00.747Z,french_612.wav,0,pull,807,24,4,5,français,m,5,0.5,-51.49122096,1.66697075
5c3fa4c5b1b52400013ba707,30,0,2024-02-27T11:21:00.747Z,french_612.wav,0,pull,807,24,4,5,français,m,6,0.6,-1.02254843,0.50056041
5c3fa4c5b1b52400013ba707,30,0,2024-02-27T11:21:00.747Z,french_612.wav,0,pull,807,24,4,5,français,m,7,0.7,12.87739328,0.70368677
5c3fa4c5b1b52400013ba707,30,0,2024-02-27T11:21:00.747Z,french_612.wav,0,pull,807,24,4,5,français,m,8,0.8,-63.80282001,1.91892506
5c3fa4c5b1b52400013ba707,30,0,2024-02-27T11:21:00.747Z,french_612.wav,0,pull,807,24,4,5,français,m,9,0.9,-37.54711338,1.2931891
5c3fa4c5b1b52400013ba707,30,0,2024-02-27T11:21:00.747Z,french_612.wav,0,pull,807,24,4,5,français,m,10,1.0,40.2162033,0.20059311
5c3fa4c5b1b52400013ba707,30,0,2024-02-27T11:21:00.747Z,french_612.wav,0,pull,807,24,4,5,français,m,11,1.1,-4.31624045,0.09557344
5c3fa4c5b1b52400013ba707,30,0,2024-02-27T11:21:00.747Z,french_612.wav,0,pull,807,24,4,5,français,m,12,1.14141667,64.58566043,1.97325213
5c3fa4c5b1b52400013ba707,31,0,2024-02-27T11:21:00.747Z,french_548.wav,0,poule,551,24,4,5,français,m,0,0.0,54.86314065,1.81744547
5c3fa4c5b1b52400013ba707,31,0,2024-02-27T11:21:00.747Z,french_548.wav,0,poule,551,24,4,5,français,m,1,0.1,-70.60670497,0.33721892
5c3fa4c5b1b52400013ba707,31,0,2024-02-27T11:21:00.747Z,french_548.wav,0,poule,551,24,4,5,français,m,2,0.2,55.69352869,1.2286075
5c3fa4c5b1b52400013ba707,31,0,2024-02-27T11:21:00.747Z,french_548.wav,0,poule,551,24,4,5,français,m,3,0.3,-61.47878925,0.67541423
5c3fa4c5b1b52400013ba707,31,0,2024-02-27T11:21:00.747Z,french_548.wav,0,poule,551,24,4,5,français,m,4,0.4,-11.97900613,1.75778453
5c3fa4c5b1b52400013ba707,31,0,2024-02-27T11:21:00.747Z,french_548.wav,0,poule,551,24,4,5,français,m,5,0.5,18.14617596,1.03239779
5c3fa4c5b1b52400013ba707,31,0,2024-02-27T11:21:00.747Z,french_548.wav,0,poule,551,24,4,5,français,m,6,0.6,80.02860728,1.13159617
5c3fa4c5b1b52400013ba707,31,0,2024-02-27T11:21:00.747Z,french_548.wav,0,poule,551,24,4,5,français,m,7,0.7,-44.1411094,1.06156024
5c3fa4c5b1b52400013ba707,31,0,2024-02-27T11:21:00.747Z,french_548.wav,0,poule,551,24,4,5,français,m,8,0.8,-45.71218284,1.283306
5c3fa4c5b1b52400013ba707,31,0,2024-02-27T11:21:00.747Z,french_548.wav,0,poule,551,24,4,5,français,m,9,0.9,63.93029421,0.64876388
5c3fa4c5b1b52400013ba707,31,0,2024-02-27T11:21:00.747Z,french_548.wav,0,poule,551,24,4,5,français,m,10,1.0,-1.52565372,0.73723592
5c3fa4c5b1b52400013ba707,31,0,2024-02-27T11:21:00.747Z,french_548.wav,0,poule,551,24,4,5,français,m,11,1.1,-65.11467392,1.25903075
5c3fa4c5b1b52400013ba707,31,0,2024-02-27T11:21:00.747Z,french_548.wav,0,poule,551,24,4,5,français,m,12,1.14141667,11.82578627,0.35535235
5c3fa4c5b1b52400013ba707,32,0,2024-02-27T11:21:00.747Z,french_568.wav,0,pull,2053,24,4,5,français,m,0,0.0,-19.1846252,1.39555406
5c3fa4c5b1b52400013ba707,32,0,2024-02-27T11:21:00.747Z,french_568.wav,0,pull,2053,24,4,5,français,m,1,0.1,99.622552,0.82188043
5c3fa4c5b1b52400013ba707,32,0,2024-02-27T11:21:00.747Z,french_568.wav,0,pull,2053,24,4,5,français,m,2,0.2,37.3998315,0.47747641
5c3fa4c5b1b52400013ba707,32,0,2024-02-27T11:21:00.747Z,french_568.wav,0,pull,2053,24,4,5,français,m,3,0.3,50.6611477,0.85657267
5c3fa4c5b1b52400013ba707,32,0,2024-02-27T11:21:00.747Z,french_568.wav,0,pull,2053,24,4,5,français,m,4,0.4,-41.739615,1.18677841
5c3fa4c5b1b52400013ba707,32,0,2024-02-27T11:21:00.747Z,french_568.wav,0,pull,2053,24,4,5,français,m,5,0.5,-20.4713766,0.27067874
5c3fa4c5b1b52400013ba707,32,0,2024-02-27T11:21:00.747Z,french_568.wav,0,pull,2053,24,4,5,français,m,6,0.6,-60.5267324,1.01580547
5c3fa4c5b1b52400013ba707,32,0,2024-02-27T11:21:00.747Z,french_568.wav,0,pull,2053,24,4,5,français,m,7,0.7,-3.05790796,1.88258485
5c3fa4c5b1b52400013ba707,32,0,2024-02-27T11:21:00.747Z,french_568.wav,0,pull,2053,24,4,5,français,m,8,0.8,-0.0194333881,1.54499722
5c3fa4c5b1b52400013ba707,32,0,2024-02-27T11:21:00.747Z,french_568.wav,0,pull,2053,24,4,5,français,m,9,0.9,-43.2141855,1.96475796
5c3fa4c5b1b52400013ba707,32,0,2024-02-27T11:21:00.747Z,french_568.wav,0,pull,2053,24,4,5,français,m,10,1.0,-71.49699,1.68647767
5c3fa4c5b1b52400013ba707,32,0,2024-02-27T11:21:00.747Z,french_568.wav,0,pull,2053,24,4,5,français,m,11,1.1,59.4482406,1.5210489
5c3fa4c5b1b52400013ba707,32,0,2024-02-27T11:21:00.747Z,french_568.wav,0,pull,2053,24,4,5,français,m,12,1.14141667,-64.2949054,1.34194102
5c3fa4c5b1b52400013ba707,33,0,2024-02-27T11:21:00.747Z,french_949.wav,0,pull,2107,24,4,5,français,m,0,0.0,-19.05595024,0.68019134
5c3fa4c5b1b52400013ba707,33,0,2024-02-27T11:21:00.747Z,french_949.wav,0,pull,2107,24,4,5,français,m,1,0.1,-75.2439284,1.48812532
5c3fa4c5b1b52400013ba707,33,0,2024-02-27T11:21:00.747Z,french_949.wav,0,pull,2107,24,4,5,français,m,2,0.2,73.58371037,1.47426358
5c3fa4c5b1b52400013ba707,33,0,2024-02-27T11:21:00.747Z,french_949.wav,0,pull,2107,24,4,5,français,m,3,0.3,72.8422127,1.18227817
5c3fa4c5b1b52400013ba707,33,0,2024-02-27T11:21:00.747Z,french_949.wav,0,pull,2107,24,4,5,français,m,4,0.4,87.31483881,0.74535438
5c3fa4c5b1b52400013ba707,33,0,2024-02-27T11:21:00.747Z,french_949.wav,0,pull,2107,24,4,5,français,m,5,0.5,88.67402032,0.76739834
5c3fa4c5b1b52400013ba707,33,0,2024-02-27T11:21:00.747Z,french_949.wav,0,pull,2107,24,4,5,français,m,6,0.6,91.38706715,0.06667957
5c3fa4c5b1b52400013ba707,33,0,2024-02-27T11:21:00.747Z,french_949.wav,0,pull,2107,24,4,5,français,m,7,0.7,90.60838166,1.82416942
5c3fa4c5b1b52400013ba707,33,0,2024-02-27T11:21:00.747Z,french_949.wav,0,pull,2107,24,4,5,français,m,8,0.8,-56.24221492,0.37839273
5c3fa4c5b1b52400013ba707,33,0,2024-02-27T11:21:00.747Z,french_949.wav,0,pull,2107,24,4,5,français,m,9,0.9,-99.28918443,1.88338523
5c3fa4c5b1b52400013ba707,33,0,2024-02-27T11:21:00.747Z,french_949.wav,0,pull,2107,24,4,5,français,m,10,1.0,35.48222753,1.00153988
5c3fa4c5b1b52400013ba707,33,0,2024-02-27T11:21:00.747Z,french_949.wav,0,pull,2107,24,4,5,français,m,11,1.1,31.92310883,0.82891918
5c3fa4c5b1b52400013ba707,33,0,2024-02-27T11:21:00.747Z,french_949.wav,0,pull,2107,24,4,5,français,m,12,1.14141667,-76.51594679,0.92801119
5c3fa4c5b1b52400013ba707,34,0,2024-02-27T11:21:00.747Z,french_178.wav,0,pull,1467,24,4,5,français,m,0,0.0,1.25806955,0.89128158
5c3fa4c5b1b52400013ba707,34,0,2024-02-27T11:21:00.747Z,french_178.wav,0,pull,1467,24,4,5,français,m,1,0.1,-13.8642171,1.6677011
5c3fa4c5b1b52400013ba707,34,0,2024-02-27T11:21:00.747Z,french_178.wav,0,pull,1467,24,4,5,français,m,2,0.2,44.0189021,0.73084068
5c3fa4c5b1b52400013ba707,34,0,2024-02-27T11:21:00.747Z,french_178.wav,0,pull,1467,24,4,5,français,m,3,0.3,2.43111128,1.41049643
5c3fa4c5b1b52400013ba707,34,0,2024-02-27T11:21:00.747Z,french_178.wav,0,pull,1467,24,4,5,français,m,4,0.4,-48.6924027,1.67583375
5c3fa4c5b1b52400013ba707,34,0,2024-02-27T11:21:00.747Z,french_178.wav,0,pull,1467,24,4,5,français,m,5,0.5,29.7252579,1.72049068
5c3fa4c5b1b52400013ba707,34,0,2024-02-27T11:21:00.747Z,french_178.wav,0,pull,1467,24,4,5,français,m,6,0.6,44.4385102,1.15643203
5c3fa4c5b1b52400013ba707,34,0,2024-02-27T11:21:00.747Z,french_178.wav,0,pull,1467,24,4,5,français,m,7,0.7,-16.6976583,0.31867551
5c3fa4c5b1b52400013ba707,34,0,2024-02-27T11:21:00.747Z,french_178.wav,0,pull,1467,24,4,5,français,m,8,0.8,67.5232857,0.18824388
5c3fa4c5b1b52400013ba707,34,0,2024-02-27T11:21:00.747Z,french_178.wav,0,pull,1467,24,4,5,français,m,9,0.9,0.0428345745,1.73114113
5c3fa4c5b1b52400013ba707,34,0,2024-02-27T11:21:00.747Z,french_178.wav,0,pull,1467,24,4,5,français,m,10,1.0,-2.65708451,1.1905138
5c3fa4c5b1b52400013ba707,34,0,2024-02-27T11:21:00.747Z,french_178.wav,0,pull,1467,24,4,5,français,m,11,1.1,9.45326319,0.45619335
5c3fa4c5b1b52400013ba707,34,0,2024-02-27T11:21:00.747Z,french_178.wav,0,pull,1467,24,4,5,français,m,12,1.14141667,-24.2555423,0.98502832
5c3fa4c5b1b52400013ba707,35,0,2024-02-27T11:21:00.747Z,french_504.wav,0,poule,970,24,4,5,français,m,0,0.0,-41.82140768,1.84770239
5c3fa4c5b1b52400013ba707,35,0,2024-02-27T11:21:00.747Z,french_504.wav,0,poule,970,24,4,5,français,m,1,0.1,97.07530933,0.49171838
5c3fa4c5b1b52400013ba707,35,0,2024-02-27T11:21:00.747Z,french_504.wav,0,poule,970,24,4,5,français,m,2,0.2,61.02388002,0.47472033
5c3fa4c5b1b52400013ba707,35,0,2024-02-27T11:21:00.747Z,french_504.wav,0,poule,970,24,4,5,français,m,3,0.3,-27.18611965,1.44367117
5c3fa4c5b1b52400013ba707,35,0,2024-02-27T11:21:00.747Z,french_504.wav,0,poule,970,24,4,5,français,m,4,0.4,-58.17917059,0.04505535
5c3fa4c5b1b52400013ba707,35,0,2024-02-27T11:21:00.747Z,french_504.wav,0,poule,970,24,4,5,français,m,5,0.5,9.56156567,0.75389127
5c3fa4c5b1b52400013ba707,35,0,2024-02-27T11:21:00.747Z,french_504.wav,0,poule,970,24,4,5,français,m,6,0.6,98.52665159,1.37136318
5c3fa4c5b1b52400013ba707,35,0,2024-02-27T11:21:00.747Z,french_504.wav,0,poule,970,24,4,5,français,m,7,0.7,98.98825478,0.89733916
5c3fa4c5b1b52400013ba707,35,0,2024-02-27T11:21:00.747Z,french_504.wav,0,poule,970,24,4,5,français,m,8,0.8,94.82792761,1.83341516
5c3fa4c5b1b52400013ba707,35,0,2024-02-27T11:21:00.747Z,french_504.wav,0,poule,970,24,4,5,français,m,9,0.9,75.17568326,0.71992929
5c3fa4c5b1b52400013ba707,35,0,2024-02-27T11:21:00.747Z,french_504.wav,0,poule,970,24,4,5,français,m,10,1.0,-46.15164739,0.35031196
5c3fa4c5b1b52400013ba707,35,0,2024-02-27T11:21:00.747Z,french_504.wav,0,poule,970,24,4,5,français,m,11,1.1,73.71983811,0.61578475
5c3fa4c5b1b52400013ba707,35,0,2024-02-27T11:21:00.747Z,french_504.wav,0,poule,970,24,4,5,français,m,12,1.14141667,48.12743652,0.73246634
5c3fa4c5b1b52400013ba707,36,0,2024-02-27T11:21:00.747Z,french_370.wav,0,poule,1198,24,4,5,français,m,0,0.0,94.69193791,1.31620058
5c3fa4c5b1b52400013ba707,36,0,2024-02-27T11:21:00.747Z,french_370.wav,0,poule,1198,24,4,5,français,m,1,0.1,-34.36771105,1.0910653
5c3fa4c5b1b52400013ba707,36,0,2024-02-27T11:21:00.747Z,french_370.wav,0,poule,1198,24,4,5,français,m,2,0.2,55.68663638,1.59108786
5c3fa4c5b1b52400013ba707,36,0,2024-02-27T11:21:00.747Z,french_370.wav,0,poule,1198,24,4,5,français,m,3,0.3,86.0282476,0.66651246
5c3fa4c5b1b52400013ba707,36,0,2024-02-27T11:21:00.747Z,french_370.wav,0,poule,1198,24,4,5,français,m,4,0.4,-27.64418732,0.77217464
5c3fa4c5b1b52400013ba707,36,0,2024-02-27T11:21:00.747Z,french_370.wav,0,poule,1198,24,4,5,français,m,5,0.5,2.79773792,1.2458794
5c3fa4c5b1b52400013ba707,36,0,2024-02-27T11:21:00.747Z,french_370.wav,0,poule,1198,24,4,5,français,m,6,0.6,23.29524749,0.78783747
5c3fa4c5b1b52400013ba707,36,0,2024-02-27T11:21:00.747Z,french_370.wav,0,poule,1198,24,4,5,français,m,7,0.7,19.50655052,1.5969386
5c3fa4c5b1b52400013ba707,36,0,2024-02-27T11:21:00.747Z,french_370.wav,0,poule,1198,24,4,5,français,m,8,0.8,27.94648957,0.07582998
5c3fa4c5b1b52400013ba707,36,0,2024-02-27T11:21:00.747Z,french_370.wav,0,poule,1198,24,4,5,français,m,9,0.9,-49.49366589,1.5026642
5c3fa4c5b1b52400013ba707,36,0,2024-02-27T11:21:00.747Z,french_370.wav,0,poule,1198,24,4,5,français,m,10,1.0,76.55940537,1.33889054
5c3fa4c5b1b52400013ba707,36,0,2024-02-27T11:21:00.747Z,french_370.wav,0,poule,1198,24,4,5,français,m,11,1.1,64.74077084,1.0242803
5c3fa4c5b1b52400013ba707,36,0,2024-02-27T11:21:00.747Z,french_370.wav,0,poule,1198,24,4,5,français,m,12,1.14141667,-14.36009756,1.81581141
5c3fa4c5b1b52400013ba707,37,0,2024-02-27T11:21:00.747Z,french_480.wav,0,poule,906,24,4,5,français,m,0,0.0,97.66630041,1.18828574
5c3fa4c5b1b52400013ba707,37,0,2024-02-27T11:21:00.747Z,french_480.wav,0,poule,906,24,4,5,français,m,1,0.1,-79.64204264,0.75698947
5c3fa4c5b1b52400013ba707,37,0,2024-02-27T11:21:00.747Z,french_480.wav,0,poule,906,24,4,5,français,m,2,0.2,24.53990437,1.02849864
5c3fa4c5b1b52400013ba707,37,0,2024-02-27T11:21:00.747Z,french_480.wav,0,poule,906,24,4,5,français,m,3,0.3,57.16937352,1.04831748
5c3fa4c5b1b52400013ba707,37,0,2024-02-27T11:21:00.747Z,french_480.wav,0,poule,906,24,4,5,français,m,4,0.4,-49.5727771,0.01270645
5c3fa4c5b1b52400013ba707,37,0,2024-02-27T11:21:00.747Z,french_480.wav,0,poule,906,24,4,5,français,m,5,0.5,20.93938074,0.22737289
5c3fa4c5b1b52400013ba707,37,0,2024-02-27T11:21:00.747Z,french_480.wav,0,poule,906,24,4,5,français,m,6,0.6,-18.76856636,1.19517064
5c3fa4c5b1b52400013ba707,37,0,2024-02-27T11:21:00.747Z,french_480.wav,0,poule,906,24,4,5,français,m,7,0.7,-13.01913145,1.96735092
5c3fa4c5b1b52400013ba707,37,0,2024-02-27T11:21:00.747Z,french_480.wav,0,poule,906,24,4,5,français,m,8,0.8,-32.81669271,1.02544343
5c3fa4c5b1b52400013ba707,37,0,2024-02-27T11:21:00.747Z,french_480.wav,0,poule,906,24,4,5,français,m,9,0.9,-8.39241944,0.41084546
5c3fa4c5b1b52400013ba707,37,0,2024-02-27T11:21:00.747Z,french_480.wav,0,poule,906,24,4,5,français,m,10,1.0,49.55967768,1.65917595
5c3fa4c5b1b52400013ba707,37,0,2024-02-27T11:21:00.747Z,french_480.wav,0,poule,906,24,4,5,français,m,11,1.1,-59.93050537,1.87241821
5c3fa4c5b1b52400013ba707,37,0,2024-02-27T11:21:00.747Z,french_480.wav,0,poule,906,24,4,5,français,m,12,1.14141667,85.43104854,1.8838
5c3fa4c5b1b52400013ba707,38,0,2024-02-27T11:21:00.747Z,french_674.wav,0,poule,1685,24,4,5,français,m,0,0.0,13.4877762,1.49229311
5c3fa4c5b1b52400013ba707,38,0,2024-02-27T11:21:00.747Z,french_674.wav,0,poule,1685,24,4,5,français,m,1,0.1,-72.71286041,0.38255489
5c3fa4c5b1b52400013ba707,38,0,2024-02-27T11:21:00.747Z,french_674.wav,0,poule,1685,24,4,5,français,m,2,0.2,25.25285257,1.8939445
5c3fa4c5b1b52400013ba707,38,0,2024-02-27T11:21:00.747Z,french_674.wav,0,poule,1685,24,4,5,français,m,3,0.3,-18.45415803,1.35404975
5c3fa4c5b1b52400013ba707,38,0,2024-02-27T11:21:00.747Z,french_674.wav,0,poule,1685,24,4,5,français,m,4,0.4,-57.71656378,1.2879641
5c3fa4c5b1b52400013ba707,38,0,2024-02-27T11:21:00.747Z,french_674.wav,0,poule,1685,24,4,5,français,m,5,0.5,-73.49162441,1.75487552
5c3fa4c5b1b52400013ba707,38,0,2024-02-27T11:21:00.747Z,french_674.wav,0,poule,1685,24,4,5,français,m,6,0.6,-1.85504026,0.89488389
5c3fa4c5b1b52400013ba707,38,0,2024-02-27T11:21:00.747Z,french_674.wav,0,poule,1685,24,4,5,français,m,7,0.7,-87.1412738,0.66012514
5c3fa4c5b1b52400013ba707,38,0,2024-02-27T11:21:00.747Z,french_674.wav,0,poule,1685,24,4,5,français,m,8,0.8,-35.96348726,0.42860271
5c3fa4c5b1b52400013ba707,38,0,2024-02-27T11:21:00.747Z,french_674.wav,0,poule,1685,24,4,5,français,m,9,0.9,-95.42427093,0.95081491
5c3fa4c5b1b52400013ba707,38,0,2024-02-27T11:21:00.747Z,french_674.wav,0,poule,1685,24,4,5,français,m,10,1.0,-14.54067517,1.48593936
5c3fa4c5b1b52400013ba707,38,0,2024-02-27T11:21:00.747Z,french_674.wav,0,poule,1685,24,4,5,français,m,11,1.1,-75.28735124,0.17038498
5c3fa4c5b1b52400013ba707,38,0,2024-02-27T11:21:00.747Z,french_674.wav,0,poule,1685,24,4,5,français,m,12,1.14141667,-11.45770391,1.04908179
5c3fa4c5b1b52400013ba707,39,0,2024-02-27T11:21:00.747Z,french_74.wav,0,poule,1002,24,4,5,français,m,0,0.0,84.74621133,0.15482924
5c3fa4c5b1b52400013ba707,39,0,2024-02-27T11:21:00.747Z,french_74.wav,0,poule,1002,24,4,5,français,m,1,0.1,92.18246646,0.90780051
5c3fa4c5b1b52400013ba707,39,0,2024-02-27T11:21:00.747Z,french_74.wav,0,poule,1002,24,4,5,français,m,2,0.2,-59.5459939,1.42386573
5c3fa4c5b1b52400013ba707,39,0,2024-02-27T11:21:00.747Z,french_74.wav,0,poule,1002,24,4,5,français,m,3,0.3,-98.70399026,1.79795319
5c3fa4c5b1b52400013ba707,39,0,2024-02-27T11:21:00.747Z,french_74.wav,0,poule,1002,24,4,5,français,m,4,0.4,-95.53423626,0.68328648
5c3fa4c5b1b52400013ba707,39,0,2024-02-27T11:21:00.747Z,french_74.wav,0,poule,1002,24,4,5,français,m,5,0.5,-57.56578286,1.03595689
5c3fa4c5b1b52400013ba707,39,0,2024-02-27T11:21:00.747Z,french_74.wav,0,poule,1002,24,4,5,français,m,6,0.6,-23.70931613,0.55161363
5c3fa4c5b1b52400013ba707,39,0,2024-02-27T11:21:00.747Z,french_74.wav,0,poule,1002,24,4,5,français,m,7,0.7,59.8421939,0.09331541
5c3fa4c5b1b52400013ba707,39,0,2024-02-27T11:21:00.747Z,french_74.wav,0,poule,1002,24,4,5,français,m,8,0.8,-90.10462767,0.72998265
5c3fa4c5b1b52400013ba707,39,0,2024-02-27T11:21:00.747Z,french_74.wav,0,poule,1002,24,4,5,français,m,9,0.9,-16.09842749,1.18746687
5c3fa4c5b1b52400013ba707,39,0,2024-02-27T11:21:00.747Z,french_74.wav,0,poule,1002,24,4,5,français,m,10,1.0,62.6860723,1.32035057
5c3fa4c5b1b52400013ba707,39,0,2024-02-27T11:21:00.747Z,french_74.wav,0,poule,1002,24,4,5,français,m,11,1.1,-21.10074863,0.35098378
5c3fa4c5b1b52400013ba707,39,0,2024-02-27T11:21:00.747Z,french_74.wav,0,poule,1002,24,4,5,français,m,12,1.14141667,19.46279158,0.11551636
5c3fa4c5b1b52400013ba707,40,0,2024-02-27T11:21:00.747Z,french_433.wav,0,pull,778,24,4,5,français,m,0,0.0,13.65936781,1.51229861
5c3fa4c5b1b52400013ba707,40,0,2024-02-27T11:21:00.747Z,french_433.wav,0,pull,778,24,4,5,français,m,1,0.1,59.19964003,0.95952734
5c3fa4c5b1b52400013ba707,40,0,2024-02-27T11:21:00.747Z,french_433.wav,0,pull,778,24,4,5,français,m,2,0.2,-16.88317101,1.86428533
5c3fa4c5b1b52400013ba707,40,0,2024-02-27T11:21:00.747Z,french_433.wav,0,pull,778,24,4,5,français,m,3,0.3,-29.25697853,1.71002057
5c3fa4c5b1b52400013ba707,40,0,2024-02-27T11:21:00.747Z,french_433.wav,0,pull,778,24,4,5,français,m,4,0.4,-20.47261371,1.4823254
5c3fa4c5b1b52400013ba707,40,0,2024-02-27T11:21:00.747Z,french_433.wav,0,pull,778,24,4,5,français,m,5,0.5,-95.33210222,1.31199137
5c3fa4c5b1b52400013ba707,40,0,2024-02-27T11:21:00.747Z,french_433.wav,0,pull,778,24,4,5,français,m,6,0.6,-87.63836787,1.53917366
5c3fa4c5b1b52400013ba707,40,0,2024-02-27T11:21:00.747Z,french_433.wav,0,pull,778,24,4,5,français,m,7,0.7,-87.59004626,0.27400767
5c3fa4c5b1b52400013ba707,40,0,2024-02-27T11:21:00.747Z,french_433.wav,0,pull,778,24,4,5,français,m,8,0.8,-36.63017932,0.2344453
5c3fa4c5b1b52400013ba707,40,0,2024-02-27T11:21:00.747Z,french_433.wav,0,pull,778,24,4,5,français,m,9,0.9,23.01049222,1.76474922
5c3fa4c5b1b52400013ba707,40,0,2024-02-27T11:21:00.747Z,french_433.wav,0,pull,778,24,4,5,français,m,10,1.0,-37.6607371,1.98224239
5c3fa4c5b1b52400013ba707,40,0,2024-02-27T11:21:00.747Z,french_433.wav,0,pull,778,24,4,5,français,m,11,1.1,-63.45582253,0.32973237
5c3fa4c5b1b52400013ba707,40,0,2024-02-27T11:21:00.747Z,french_433.wav,0,pull,778,24,4,5,français,m,12,1.14141667,-21.18055498,0.42672881
5c3fa4c5b1b52400013ba707,41,0,2024-02-27T11:21:00.747Z,french_648.wav,0,poule,621,24,4,5,français,m,0,0.0,-53.51170013,1.23930721
5c3fa4c5b1b52400013ba707,41,0,2024-02-27T11:21:00.747Z,french_648.wav,0,poule,621,24,4,5,français,m,1,0.1,22.43069403,1.87824365
5c3fa4c5b1b52400013ba707,41,0,2024-02-27T11:21:00.747Z,french_648.wav,0,poule,621,24,4,5,français,m,2,0.2,76.49850355,1.04540565
5c3fa4c5b1b52400013ba707,41,0,2024-02-27T11:21:00.747Z,french_648.wav,0,poule,621,24,4,5,français,m,3,0.3,-26.04467818,0.74804464
5c3fa4c5b1b52400013ba707,41,0,2024-02-27T11:21:00.747Z,french_648.wav,0,poule,621,24,4,5,français,m,4,0.4,10.21052213,1.02623151
5c3fa4c5b1b52400013ba707,41,0,2024-02-27T11:21:00.747Z,french_648.wav,0,poule,621,24,4,5,français,m,5,0.5,-33.91239394,0.44701704
5c3fa4c5b1b52400013ba707,41,0,2024-02-27T11:21:00.747Z,french_648.wav,0,poule,621,24,4,5,français,m,6,0.6,-37.39906136,1.30919953
5c3fa4c5b1b52400013ba707,41,0,2024-02-27T11:21:00.747Z,french_648.wav,0,poule,621,24,4,5,français,m,7,0.7,-15.74853616,0.18736923
5c3fa4c5b1b52400013ba707,41,0,2024-02-27T11:21:00.747Z,french_648.wav,0,poule,621,24,4,5,français,m,8,0.8,-76.74234048,0.18564871
5c3fa4c5b1b52400013ba707,41,0,2024-02-27T11:21:00.747Z,french_648.wav,0,poule,621,24,4,5,français,m,9,0.9,-48.3260074,1.17609684
5c3fa4c5b1b52400013ba707,41,0,2024-02-27T11:21:00.747Z,french_648.wav,0,poule,621,24,4,5,français,m,10,1.0,5.27584724,1.34947555
5c3fa4c5b1b52400013ba707,41,0,2024-02-27T11:21:00.747Z,french_648.wav,0,poule,621,24,4,5,français,m,11,1.1,-21.29877932,1.84245713
5c3fa4c5b1b52400013ba707,41,0,2024-02-27T11:21:00.747Z,french_648.wav,0,poule,621,24,4,5,français,m,12,1.14141667,-7.48629225,1.719326
5c3fa4c5b1b52400013ba707,42,0,2024-02-27T11:21:00.747Z,french_543.wav,0,poule,815,24,4,5,français,m,0,0.0,-44.87823344,1.22092405
5c3fa4c5b1b52400013ba707,42,0,2024-02-27T11:21:00.747Z,french_543.wav,0,poule,815,24,4,5,français,m,1,0.1,-85.25635594,0.90741811
5c3fa4c5b1b52400013ba707,42,0,2024-02-27T11:21:00.747Z,french_543.wav,0,poule,815,24,4,5,français,m,2,0.2,77.65163946,1.977523
5c3fa4c5b1b52400013ba707,42,0,2024-02-27T11:21:00.747Z,french_543.wav,0,poule,815,24,4,5,français,m,3,0.3,35.41596957,1.08318728
5c3fa4c5b1b52400013ba707,42,0,2024-02-27T11:21:00.747Z,french_543.wav,0,poule,815,24,4,5,français,m,4,0.4,96.96992015,0.30163476
5c3fa4c5b1b52400013ba707,42,0,2024-02-27T11:21:00.747Z,french_543.wav,0,poule,815,24,4,5,français,m,5,0.5,30.99132482,0.77672099
5c3fa4c5b1b52400013ba707,42,0,2024-02-27T11:21:00.747Z,french_543.wav,0,poule,815,24,4,5,français,m,6,0.6,27.1908954,0.66664394
5c3fa4c5b1b52400013ba707,42,0,2024-02-27T11:21:00.747Z,french_543.wav,0,poule,815,24,4,5,français,m,7,0.7,-73.42015814,1.22725994
5c3fa4c5b1b52400013ba707,42,0,2024-02-27T11:21:00.747Z,french_543.wav,0,poule,815,24,4,5,français,m,8,0.8,72.47089611,1.04026949
5c3fa4c5b1b52400013ba707,42,0,2024-02-27T11:21:00.747Z,french_543.wav,0,poule,815,24,4,5,français,m,9,0.9,-89.08509908,0.57432911
5c3fa4c5b1b52400013ba707,42,0,2024-02-27T11:21:00.747Z,french_543.wav,0,poule,815,24,4,5,français,m,10,1.0,-49.62569554,1.03178191
5c3fa4c5b1b52400013ba707,42,0,2024-02-27T11:21:00.747Z,french_543.wav,0,poule,815,24,4,5,français,m,11,1.1,25.36303007,1.3294638
5c3fa4c5b1b52400013ba707,42,0,2024-02-27T11:21:00.747Z,french_543.wav,0,poule,815,24,4,5,français,m,12,1.14141667,86.26803899,1.02742546
5c3fa4c5b1b52400013ba707,43,0,2024-02-27T11:21:00.747Z,french_655.wav,0,poule,763,24,4,5,français,m,0,0.0,22.05732479,1.22083149
5c3fa4c5b1b52400013ba707,43,0,2024-02-27T11:21:00.747Z,french_655.wav,0,poule,763,24,4,5,français,m,1,0.1,-7.34283646,0.90628978
5c3fa4c5b1b52400013ba707,43,0,2024-02-27T11:21:00.747Z,french_655.wav,0,poule,763,24,4,5,français,m,2,0.2,-16.71216694,0.64111829
5c3fa4c5b1b52400013ba707,43,0,2024-02-27T11:21:00.747Z,french_655.wav,0,poule,763,24,4,5,français,m,3,0.3,82.87197114,0.38986932
5c3fa4c5b1b52400013ba707,43,0,2024-02-27T11:21:00.747Z,french_655.wav,0,poule,763,24,4,5,français,m,4,0.4,-13.73801988,0.61791891
5c3fa4c5b1b52400013ba707,43,0,2024-02-27T11:21:00.747Z,french_655.wav,0,poule,763,24,4,5,français,m,5,0.5,78.78238984,1.61257293
5c3fa4c5b1b52400013ba707,43,0,2024-02-27T11:21:00.747Z,french_655.wav,0,poule,763,24,4,5,français,m,6,0.6,15.74802992,1.14120276
5c3fa4c5b1b52400013ba707,43,0,2024-02-27T11:21:00.747Z,french_655.wav,0,poule,763,24,4,5,français,m,7,0.7,7.99289062,1.85994401
5c3fa4c5b1b52400013ba707,43,0,2024-02-27T11:21:00.747Z,french_655.wav,0,poule,763,24,4,5,français,m,8,0.8,64.26189844,0.1773239
5c3fa4c5b1b52400013ba707,43,0,2024-02-27T11:21:00.747Z,french_655.wav,0,poule,763,24,4,5,français,m,9,0.9,-76.33286274,1.26191456
5c3fa4c5b1b52400013ba707,43,0,2024-02-27T11:21:00.747Z,french_655.wav,0,poule,763,24,4,5,français,m,10,1.0,-6.92462562,1.18778905
5c3fa4c5b1b52400013ba707,43,0,2024-02-27T11:21:00.747Z,french_655.wav,0,poule,763,24,4,5,français,m,11,1.1,-66.84426621,1.26114912
5c3fa4c5b1b52400013ba707,43,0,2024-02-27T11:21:00.747Z,french_655.wav,0,poule,763,24,4,5,français,m,12,1.14141667,91.19399293,0.56570488
5c3fa4c5b1b52400013ba707,44,0,2024-02-27T11:21:00.747Z,french_763.wav,0,poule,925,24,4,5,français,m,0,0.0,13.80814112,1.2271562
5c3fa4c5b1b52400013ba707,44,0,2024-02-27T11:21:00.747Z,french_763.wav,0,poule,925,24,4,5,français,m,1,0.1,19.46844734,1.61118861
5c3fa4c5b1b52400013ba707,44,0,2024-02-27T11:21:00.747Z,french_763.wav,0,poule,925,24,4,5,français,m,2,0.2,5.44159656,0.15248074
5c3fa4c5b1b52400013ba707,44,0,2024-02-27T11:21:00.747Z,french_763.wav,0,poule,925,24,4,5,français,m,3,0.3,-30.10347892,0.72176975
5c3fa4c5b1b52400013ba707,44,0,2024-02-27T11:21:00.747Z,french_763.wav,0,poule,925,24,4,5,français,m,4,0.4,18.89004006,0.85736007
5c3fa4c5b1b52400013ba707,44,0,2024-02-27T11:21:00.747Z,french_763.wav,0,poule,925,24,4,5,français,m,5,0.5,-41.56620467,0.93541907
5c3fa4c5b1b52400013ba707,44,0,2024-02-27T11:21:00.747Z,french_763.wav,0,poule,925,24,4,5,français,m,6,0.6,78.21333882,0.88345852
5c3fa4c5b1b52400013ba707,44,0,2024-02-27T11:21:00.747Z,french_763.wav,0,poule,925,24,4,5,français,m,7,0.7,-2.20389314,0.73881895
5c3fa4c5b1b52400013ba707,44,0,2024-02-27T11:21:00.747Z,french_763.wav,0,poule,925,24,4,5,français,m,8,0.8,42.46944935,1.15712901
5c3fa4c5b1b52400013ba707,44,0,2024-02-27T11:21:00.747Z,french_763.wav,0,poule,925,24,4,5,français,m,9,0.9,7.43342861,0.43903082
5c3fa4c5b1b52400013ba707,44,0,2024-02-27T11:21:00.747Z,french_763.wav,0,poule,925,24,4,5,français,m,10,1.0,7.65664638,1.76731761
5c3fa4c5b1b52400013ba707,44,0,2024-02-27T11:21:00.747Z,french_763.wav,0,poule,925,24,4,5,français,m,11,1.1,-28.82008034,0.22544414
5c3fa4c5b1b52400013ba707,44,0,2024-02-27T11:21:00.747Z,french_763.wav,0,poule,925,24,4,5,français,m,12,1.14141667,6.75912925,1.35522594
5c3fa4c5b1b52400013ba707,45,0,2024-02-27T11:21:00.747Z,french_420.wav,0,pull,462,24,4,5,français,m,0,0.0,-18.88007076,0.77898817
5c3fa4c5b1b52400013ba707,45,0,2024-02-27T11:21:00.747Z,french_420.wav,0,pull,462,24,4,5,français,m,1,0.1,85.38106336,0.94651873
5c3fa4c5b1b52400013ba707,45,0,2024-02-27T11:21:00.747Z,french_420.wav,0,pull,462,24,4,5,français,m,2,0.2,93.67996173,0.16609342
5c3fa4c5b1b52400013ba707,45,0,2024-02-27T11:21:00.747Z,french_420.wav,0,pull,462,24,4,5,français,m,3,0.3,-59.60168974,1.88772727
5c3fa4c5b1b52400013ba707,45,0,2024-02-27T11:21:00.747Z,french_420.wav,0,pull,462,24,4,5,français,m,4,0.4,-63.09071902,0.52202044
5c3fa4c5b1b52400013ba707,45,0,2024-02-27T11:21:00.747Z,french_420.wav,0,pull,462,24,4,5,français,m,5,0.5,-3.42049192,0.19259521
5c3fa4c5b1b52400013ba707,45,0,2024-02-27T11:21:00.747Z,french_420.wav,0,pull,462,24,4,5,français,m,6,0.6,3.82145816,0.85413524
5c3fa4c5b1b52400013ba707,45,0,2024-02-27T11:21:00.747Z,french_420.wav,0,pull,462,24,4,5,français,m,7,0.7,-46.57323204,0.3417564
5c3fa4c5b1b52400013ba707,45,0,2024-02-27T11:21:00.747Z,french_420.wav,0,pull,462,24,4,5,français,m,8,0.8,43.35773063,1.89293485
5c3fa4c5b1b52400013ba707,45,0,2024-02-27T11:21:00.747Z,french_420.wav,0,pull,462,24,4,5,français,m,9,0.9,-41.3853357,1.49847299
5c3fa4c5b1b52400013ba707,45,0,2024-02-27T11:21:00.747Z,french_420.wav,0,pull,462,24,4,5,français,m,10,1.0,-80.49552294,1.43768421
5c3fa4c5b1b52400013ba707,45,0,2024-02-27T11:21:00.747Z,french_420.wav,0,pull,462,24,4,5,français,m,11,1.1,11.88219307,1.60937112
5c3fa4c5b1b52400013ba707,45,0,2024-02-27T11:21:00.747Z,french_420.wav,0,pull,462,24,4,5,français,m,12,1.14141667,-51.63626854,1.40472667
5c3fa4c5b1b52400013ba707,46,0,2024-02-27T11:21:00.747Z,french_213.wav,0,poule,617,24,4,5,français,m,0,0.0,60.90519411,1.2142025
5c3fa4c5b1b52400013ba707,46,0,2024-02-27T11:21:00.747Z,french_213.wav,0,poule,617,24,4,5,français,m,1,0.1,55.95280779,1.85099482
5c3fa4c5b1b52400013ba707,46,0,2024-02-27T11:21:00.747Z,french_213.wav,0,poule,617,24,4,5,français,m,2,0.2,48.46758666,1.16231079
5c3fa4c5b1b52400013ba707,46,0,2024-02-27T11:21:00.747Z,french_213.wav,0,poule,617,24,4,5,français,m,3,0.3,-14.18062666,1.54399184
5c3fa4c5b1b52400013ba707,46,0,2024-02-27T11:21:00.747Z,french_213.wav,0,poule,617,24,4,5,français,m,4,0.4,-51.30201563,1.40754046
5c3fa4c5b1b52400013ba707,46,0,2024-02-27T11:21:00.747Z,french_213.wav,0,poule,617,24,4,5,français,m,5,0.5,-37.99009317,0.99181023
5c3fa4c5b1b52400013ba707,46,0,2024-02-27T11:21:00.747Z,french_213.wav,0,poule,617,24,4,5,français,m,6,0.6,88.99546092,0.96000188
5c3fa4c5b1b52400013ba707,46,0,2024-02-27T11:21:00.747Z,french_213.wav,0,poule,617,24,4,5,français,m,7,0.7,-11.08339747,0.55983951
5c3fa4c5b1b52400013ba707,46,0,2024-02-27T11:21:00.747Z,french_213.wav,0,poule,617,24,4,5,français,m,8,0.8,54.53278866,1.35940292
5c3fa4c5b1b52400013ba707,46,0,2024-02-27T11:21:00.747Z,french_213.wav,0,poule,617,24,4,5,français,m,9,0.9,-23.49573744,0.29880455
5c3fa4c5b1b52400013ba707,46,0,2024-02-27T11:21:00.747Z,french_213.wav,0,poule,617,24,4,5,français,m,10,1.0,28.30492548,1.73467682
5c3fa4c5b1b52400013ba707,46,0,2024-02-27T11:21:00.747Z,french_213.wav,0,poule,617,24,4,5,français,m,11,1.1,68.04425842,0.57935772
5c3fa4c5b1b52400013ba707,46,0,2024-02-27T11:21:00.747Z,french_213.wav,0,poule,617,24,4,5,français,m,12,1.14141667,-9.70039934,1.18792355
5c3fa4c5b1b52400013ba707,47,0,2024-02-27T11:21:00.747Z,french_933.wav,0,pull,762,24,4,5,français,m,0,0.0,-37.43352781,0.98661175
5c3fa4c5b1b52400013ba707,47,0,2024-02-27T11:21:00.747Z,french_933.wav,0,pull,762,24,4,5,français,m,1,0.1,15.82558876,1.72794901
5c3fa4c5b1b52400013ba707,47,0,2024-02-27T11:21:00.747Z,french_933.wav,0,pull,762,24,4,5,français,m,2,0.2,11.44233804,1.10536982
5c3fa4c5b1b52400013ba707,47,0,2024-02-27T11:21:00.747Z,french_933.wav,0,pull,762,24,4,5,français,m,3,0.3,86.94047545,1.85590912
5c3fa4c5b1b52400013ba707,47,0,2024-02-27T11:21:00.747Z,french_933.wav,0,pull,762,24,4,5,français,m,4,0.4,37.92501629,1.60290293
5c3fa4c5b1b52400013ba707,47,0,2024-02-27T11:21:00.747Z,french_933.wav,0,pull,762,24,4,5,français,m,5,0.5,-35.56187113,0.81732851
5c3fa4c5b1b52400013ba707,47,0,2024-02-27T11:21:00.747Z,french_933.wav,0,pull,762,24,4,5,français,m,6,0.6,59.84524001,1.28262622
5c3fa4c5b1b52400013ba707,47,0,2024-02-27T11:21:00.747Z,french_933.wav,0,pull,762,24,4,5,français,m,7,0.7,24.35368068,1.01556076
5c3fa4c5b1b52400013ba707,47,0,2024-02-27T11:21:00.747Z,french_933.wav,0,pull,762,24,4,5,français,m,8,0.8,67.82444353,0.86505333
5c3fa4c5b1b52400013ba707,47,0,2024-02-27T11:21:00.747Z,french_933.wav,0,pull,762,24,4,5,français,m,9,0.9,-52.71000344,1.28433396
5c3fa4c5b1b52400013ba707,47,0,2024-02-27T11:21:00.747Z,french_933.wav,0,pull,762,24,4,5,français,m,10,1.0,-54.70339119,0.40007403
5c3fa4c5b1b52400013ba707,47,0,2024-02-27T11:21:00.747Z,french_933.wav,0,pull,762,24,4,5,français,m,11,1.1,-41.48635512,0.04539202
5c3fa4c5b1b52400013ba707,47,0,2024-02-27T11:21:00.747Z,french_933.wav,0,pull,762,24,4,5,français,m,12,1.14141667,11.82766033,0.17405222
5c3fa4c5b1b52400013ba707,48,0,2024-02-27T11:21:00.747Z,french_208.wav,0,poule,657,24,4,5,français,m,0,0.0,22.05412131,0.76725809
5c3fa4c5b1b52400013ba707,48,0,2024-02-27T11:21:00.747Z,french_208.wav,0,poule,657,24,4,5,français,m,1,0.1,-81.24093625,1.19895138
5c3fa4c5b1b52400013ba707,48,0,2024-02-27T11:21:00.747Z,french_208.wav,0,poule,657,24,4,5,français,m,2,0.2,-56.8023019,1.75036409
5c3fa4c5b1b52400013ba707,48,0,2024-02-27T11:21:00.747Z,french_208.wav,0,poule,657,24,4,5,français,m,3,0.3,42.11803464,1.11519781
5c3fa4c5b1b52400013ba707,48,0,2024-02-27T11:21:00.747Z,french_208.wav,0,poule,657,24,4,5,français,m,4,0.4,-62.30011739,0.53587167
5c3fa4c5b1b52400013ba707,48,0,2024-02-27T11:21:00.747Z,french_208.wav,0,poule,657,24,4,5,français,m,5,0.5,-54.22793596,0.06074171
5c3fa4c5b1b52400013ba707,48,0,2024-02-27T11:21:00.747Z,french_208.wav,0,poule,657,24,4,5,français,m,6,0.6,-22.54029576,0.24306128
5c3fa4c5b1b52400013ba707,48,0,2024-02-27T11:21:00.747Z,french_208.wav,0,poule,657,24,4,5,français,m,7,0.7,3.64260812,0.45122919
5c3fa4c5b1b52400013ba707,48,0,2024-02-27T11:21:00.747Z,french_208.wav,0,poule,657,24,4,5,français,m,8,0.8,34.77853372,0.41059711
5c3fa4c5b1b52400013ba707,48,0,2024-02-27T11:21:00.747Z,french_208.wav,0,poule,657,24,4,5,français,m,9,0.9,-69.5924933,0.57249987
5c3fa4c5b1b52400013ba707,48,0,2024-02-27T11:21:00.747Z,french_208.wav,0,poule,657,24,4,5,français,m,10,1.0,-81.19588074,1.0921966
5c3fa4c5b1b52400013ba707,48,0,2024-02-27T11:21:00.747Z,french_208.wav,0,poule,657,24,4,5,français,m,11,1.1,-23.61160916,1.04543031
5c3fa4c5b1b52400013ba707,48,0,2024-02-27T11:21:00.747Z,french_208.wav,0,poule,657,24,4,5,français,m,12,1.14141667,-3.35496918,1.92109129
5c3fa4c5b1b52400013ba707,49,0,2024-02-27T11:21:00.747Z,french_913.wav,0,poule,751,24,4,5,français,m,0,0.0,-47.25134073,0.04335797
5c3fa4c5b1b52400013ba707,49,0,2024-02-27T11:21:00.747Z,french_913.wav,0,poule,751,24,4,5,français,m,1,0.1,-82.39617775,1.67103064
5c3fa4c5b1b52400013ba707,49,0,2024-02-27T11:21:00.747Z,french_913.wav,0,poule,751,24,4,5,français,m,2,0.2,-49.77107224,0.81708714
5c3fa4c5b1b52400013ba707,49,0,2024-02-27T11:21:00.747Z,french_913.wav,0,poule,751,24,4,5,français,m,3,0.3,-65.18926328,1.28520765
5c3fa4c5b1b52400013ba707,49,0,2024-02-27T11:21:00.747Z,french_913.wav,0,poule,751,24,4,5,français,m,4,0.4,-21.76681249,1.7369454
5c3fa4c5b1b52400013ba707,49,0,2024-02-27T11:21:00.747Z,french_913.wav,0,poule,751,24,4,5,français,m,5,0.5,25.27312638,1.03142804
5c3fa4c5b1b52400013ba707,49,0,2024-02-27T11:21:00.747Z,french_913.wav,0,poule,751,24,4,5,français,m,6,0.6,55.78406259,0.74912627
5c3fa4c5b1b52400013ba707,49,0,2024-02-27T11:21:00.747Z,french_913.wav,0,poule,751,24,4,5,français,m,7,0.7,-27.8783869,1.88947917
5c3fa4c5b1b52400013ba707,49,0,2024-02-27T11:21:00.747Z,french_913.wav,0,poule,751,24,4,5,français,m,8,0.8,-52.69419859,0.39822081
5c3fa4c5b1b52400013ba707,49,0,2024-02-27T11:21:00.747Z,french_913.wav,0,poule,751,24,4,5,français,m,9,0.9,99.44571929,0.52497493
5c3fa4c5b1b52400013ba707,49,0,2024-02-27T11:21:00.747Z,french_913.wav,0,poule,751,24,4,5,français,m,10,1.0,87.33615919,1.60117884
5c3fa4c5b1b52400013ba707,49,0,2024-02-27T11:21:00.747Z,french_913.wav,0,poule,751,24,4,5,français,m,11,1.1,46.22614126,1.53649436
5c3fa4c5b1b52400013ba707,49,0,2024-02-27T11:21:00.747Z,french_913.wav,0,poule,751,24,4,5,français,m,12,1.14141667,-71.95970705,0.49650592
5c3fa4c5b1b52400013ba707,50,1,2024-02-27T11:21:00.747Z,french_155.wav,0,poule,1177,24,4,5,français,m,0,0.0,-92.78133148,0.96654008
5c3fa4c5b1b52400013ba707,50,1,2024-02-27T11:21:00.747Z,french_155.wav,0,poule,1177,24,4,5,français,m,1,0.1,20.93258494,1.69709924
5c3fa4c5b1b52400013ba707,50,1,2024-02-27T11:21:00.747Z,french_155.wav,0,poule,1177,24,4,5,français,m,2,0.2,-47.18952132,1.53182227
5c3fa4c5b1b52400013ba707,50,1,2024-02-27T11:21:00.747Z,french_155.wav,0,poule,1177,24,4,5,français,m,3,0.3,87.6623856,0.2401229
5c3fa4c5b1b52400013ba707,50,1,2024-02-27T11:21:00.747Z,french_155.wav,0,poule,1177,24,4,5,français,m,4,0.4,53.55190164,0.46921424
5c3fa4c5b1b52400013ba707,50,1,2024-02-27T11:21:00.747Z,french_155.wav,0,poule,1177,24,4,5,français,m,5,0.5,73.72044222,1.76971401
5c3fa4c5b1b52400013ba707,50,1,2024-02-27T11:21:00.747Z,french_155.wav,0,poule,1177,24,4,5,français,m,6,0.6,13.17734525,0.8491776
5c3fa4c5b1b52400013ba707,50,1,2024-02-27T11:21:00.747Z,french_155.wav,0,poule,1177,24,4,5,français,m,7,0.7,33.07505579,1.18179357
5c3fa4c5b1b52400013ba707,50,1,2024-02-27T11:21:00.747Z,french_155.wav,0,poule,1177,24,4,5,français,m,8,0.8,11.21533307,0.90499885
5c3fa4c5b1b52400013ba707,50,1,2024-02-27T11:21:00.747Z,french_155.wav,0,poule,1177,24,4,5,français,m,9,0.9,-11.15187706,0.79006401
5c3fa4c5b1b52400013ba707,50,1,2024-02-27T11:21:00.747Z,french_155.wav,0,poule,1177,24,4,5,français,m,10,1.0,62.83057895,1.00554233
5c3fa4c5b1b52400013ba707,50,1,2024-02-27T11:21:00.747Z,french_155.wav,0,poule,1177,24,4,5,français,m,11,1.1,5.84907356,1.3461564
5c3fa4c5b1b52400013ba707,50,1,2024-02-27T11:21:00.747Z,french_155.wav,0,poule,1177,24,4,5,français,m,12,1.14141667,-41.38043494,0.10111809
5c3fa4c5b1b52400013ba707,51,1,2024-02-27T11:21:00.747Z,french_79.wav,0,poule,926,24,4,5,français,m,0,0.0,-40.8979474,0.83878745
5c3fa4c5b1b52400013ba707,51,1,2024-02-27T11:21:00.747Z,french_79.wav,0,poule,926,24,4,5,français,m,1,0.1,0.0839153168,0.7600464
5c3fa4c5b1b52400013ba707,51,1,2024-02-27T11:21:00.747Z,french_79.wav,0,poule,926,24,4,5,français,m,2,0.2,-16.0356857,1.5875147
5c3fa4c5b1b52400013ba707,51,1,2024-02-27T11:21:00.747Z,french_79.wav,0,poule,926,24,4,5,français,m,3,0.3,54.9421964,1.0726748
5c3fa4c5b1b52400013ba707,51,1,2024-02-27T11:21:00.747Z,french_79.wav,0,poule,926,24,4,5,français,m,4,0.4,3.63782829,1.28120337
5c3fa4c5b1b52400013ba707,51,1,2024-02-27T11:21:00.747Z,french_79.wav,0,poule,926,24,4,5,français,m,5,0.5,74.6888662,1.64347059
5c3fa4c5b1b52400013ba707,51,1,2024-02-27T11:21:00.747Z,french_79.wav,0,poule,926,24,4,5,français,m,6,0.6,-91.795429,1.79846317
5c3fa4c5b1b52400013ba707,51,1,2024-02-27T11:21:00.747Z,french_79.wav,0,poule,926,24,4,5,français,m,7,0.7,-57.9262364,0.90335206
5c3fa4c5b1b52400013ba707,51,1,2024-02-27T11:21:00.747Z,french_79.wav,0,poule,926,24,4,5,français,m,8,0.8,9.91334894,0.89108182
5c3fa4c5b1b52400013ba707,51,1,2024-02-27T11:21:00.747Z,french_79.wav,0,poule,926,24,4,5,français,m,9,0.9,-21.9596642,0.5309996
5c3fa4c5b1b52400013ba707,51,1,2024-02-27T11:21:00.747Z,french_79.wav,0,poule,926,24,4,5,français,m,10,1.0,46.5249262,0.74356319
5c3fa4c5b1b52400013ba707,51,1,2024-02-27T11:21:00.747Z,french_79.wav,0,poule,926,24,4,5,français,m,11,1.1,-31.2450706,1.12312207
5c3fa4c5b1b52400013ba707,51,1,2024-02-27T11:21:00.747Z,french_79.wav,0,poule,926,24,4,5,français,m,12,1.14141667,-9.1986533,0.4961803
5c3fa4c5b1b52400013ba707,52,1,2024-02-27T11:21:00.747Z,french_365.wav,0,pull,1036,24,4,5,français,m,0,0.0,31.61059752,1.42310817
5c3fa4c5b1b52400013ba707,52,1,2024-02-27T11:21:00.747Z,french_365.wav,0,pull,1036,24,4,5,français,m,1,0.1,-20.95390516,1.52633282
5c3fa4c5b1b52400013ba707,52,1,2024-02-27T11:21:00.747Z,french_365.wav,0,pull,1036,24,4,5,français,m,2,0.2,91.80675495,1.22938312
5c3fa4c5b1b52400013ba707,52,1,2024-02-27T11:21:00.747Z,french_365.wav,0,pull,1036,24,4,5,français,m,3,0.3,67.5510561,1.26382278
5c3fa4c5b1b52400013ba707,52,1,2024-02-27T11:21:00.747Z,french_365.wav,0,pull,1036,24,4,5,français,m,4,0.4,-93.71218293,1.53091844
5c3fa4c5b1b52400013ba707,52,1,2024-02-27T11:21:00.747Z,french_365.wav,0,pull,1036,24,4,5,français,m,5,0.5,45.32858601,0.15378173
5c3fa4c5b1b52400013ba707,52,1,2024-02-27T11:21:00.747Z,french_365.wav,0,pull,1036,24,4,5,français,m,6,0.6,84.27621414,0.48106393
5c3fa4c5b1b52400013ba707,52,1,2024-02-27T11:21:00.747Z,french_365.wav,0,pull,1036,24,4,5,français,m,7,0.7,28.03701536,1.79415704
5c3fa4c5b1b52400013ba707,52,1,2024-02-27T11:21:00.747Z,french_365.wav,0,pull,1036,24,4,5,français,m,8,0.8,-71.05958582,1.6034925
5c3fa4c5b1b52400013ba707,52,1,2024-02-27T11:21:00.747Z,french_365.wav,0,pull,1036,24,4,5,français,m,9,0.9,-23.72094953,1.30852528
5c3fa4c5b1b52400013ba707,52,1,2024-02-27T11:21:00.747Z,french_365.wav,0,pull,1036,24,4,5,français,m,10,1.0,18.29479384,0.76895664
5c3fa4c5b1b52400013ba707,52,1,2024-02-27T11:21:00.747Z,french_365.wav,0,pull,1036,24,4,5,français,m,11,1.1,-12.82863724,0.54165009
5c3fa4c5b1b52400013ba707,52,1,2024-02-27T11:21:00.747Z,french_365.wav,0,pull,1036,24,4,5,français,m,12,1.14141667,67.22118203,0.4698946
5c3fa4c5b1b52400013ba707,53,1,2024-02-27T11:21:00.747Z,french_486.wav,0,poule,988,24,4,5,français,m,0,0.0,-98.02817501,1.75569009
5c3fa4c5b1b52400013ba707,53,1,2024-02-27T11:21:00.747Z,french_486.wav,0,poule,988,24,4,5,français,m,1,0.1,65.33144032,1.7050464
5c3fa4c5b1b52400013ba707,53,1,2024-02-27T11:21:00.747Z,french_486.wav,0,poule,988,24,4,5,français,m,2,0.2,61.38493925,0.61683653
5c3fa4c5b1b52400013ba707,53,1,2024-02-27T11:21:00.747Z,french_486.wav,0,poule,988,24,4,5,français,m,3,0.3,96.45925622,1.35566853
5c3fa4c5b1b52400013ba707,53,1,2024-02-27T11:21:00.747Z,french_486.wav,0,poule,988,24,4,5,français,m,4,0.4,5.96921881,0.89727466
5c3fa4c5b1b52400013ba707,53,1,2024-02-27T11:21:00.747Z,french_486.wav,0,poule,988,24,4,5,français,m,5,0.5,30.65383736,1.1713147
5c3fa4c5b1b52400013ba707,53,1,2024-02-27T11:21:00.747Z,french_486.wav,0,poule,988,24,4,5,français,m,6,0.6,-44.15981347,1.99548871
5c3fa4c5b1b52400013ba707,53,1,2024-02-27T11:21:00.747Z,french_486.wav,0,poule,988,24,4,5,français,m,7,0.7,31.03879088,0.16009728
5c3fa4c5b1b52400013ba707,53,1,2024-02-27T11:21:00.747Z,french_486.wav,0,poule,988,24,4,5,français,m,8,0.8,51.75647773,0.88389912
5c3fa4c5b1b52400013ba707,53,1,2024-02-27T11:21:00.747Z,french_486.wav,0,poule,988,24,4,5,français,m,9,0.9,-98.74797635,0.14376531
5c3fa4c5b1b52400013ba707,53,1,2024-02-27T11:21:00.747Z,french_486.wav,0,poule,988,24,4,5,français,m,10,1.0,42.51271204,0.54659097
5c3fa4c5b1b52400013ba707,53,1,2024-02-27T11:21:00.747Z,french_486.wav,0,poule,988,24,4,5,français,m,11,1.1,63.21062453,1.09027863
5c3fa4c5b1b52400013ba707,53,1,2024-02-27T11:21:00.747Z,french_486.wav,0,poule,988,24,4,5,français,m,12,1.14141667,-77.59539186,0.71851787
5c3fa4c5b1b52400013ba707,54,1,2024-02-27T11:21:00.747Z,french_519.wav,0,pull,2014,24,4,5,français,m,0,0.0,38.95071941,0.15710705
5c3fa4c5b1b52400013ba707,54,1,2024-02-27T11:21:00.747Z,french_519.wav,0,pull,2014,24,4,5,français,m,1,0.1,-98.16248953,1.65075873
5c3fa4c5b1b52400013ba707,54,1,2024-02-27T11:21:00.747Z,french_519.wav,0,pull,2014,24,4,5,français,m,2,0.2,-8.53351214,0.59061529
5c3fa4c5b1b52400013ba707,54,1,2024-02-27T11:21:00.747Z,french_519.wav,0,pull,2014,24,4,5,français,m,3,0.3,-29.96278714,0.34046239
5c3fa4c5b1b52400013ba707,54,1,2024-02-27T11:21:00.747Z,french_519.wav,0,pull,2014,24,4,5,français,m,4,0.4,-57.19313365,0.44125755
5c3fa4c5b1b52400013ba707,54,1,2024-02-27T11:21:00.747Z,french_519.wav,0,pull,2014,24,4,5,français,m,5,0.5,-14.84533872,1.00043078
5c3fa4c5b1b52400013ba707,54,1,2024-02-27T11:21:00.747Z,french_519.wav,0,pull,2014,24,4,5,français,m,6,0.6,65.33729063,1.54523625
5c3fa4c5b1b52400013ba707,54,1,2024-02-27T11:21:00.747Z,french_519.wav,0,pull,2014,24,4,5,français,m,7,0.7,2.08710226,1.08213469
5c3fa4c5b1b52400013ba707,54,1,2024-02-27T11:21:00.747Z,french_519.wav,0,pull,2014,24,4,5,français,m,8,0.8,-14.97633343,0.71331726
5c3fa4c5b1b52400013ba707,54,1,2024-02-27T11:21:00.747Z,french_519.wav,0,pull,2014,24,4,5,français,m,9,0.9,84.22736014,0.21863186
5c3fa4c5b1b52400013ba707,54,1,2024-02-27T11:21:00.747Z,french_519.wav,0,pull,2014,24,4,5,français,m,10,1.0,-86.65839452,0.07702422
5c3fa4c5b1b52400013ba707,54,1,2024-02-27T11:21:00.747Z,french_519.wav,0,pull,2014,24,4,5,français,m,11,1.1,-25.38298956,0.09511301
5c3fa4c5b1b52400013ba707,54,1,2024-02-27T11:21:00.747Z,french_519.wav,0,pull,2014,24,4,5,français,m,12,1.14141667,-47.75612145,1.11047356
5c3fa4c5b1b52400013ba707,55,1,2024-02-27T11:21:00.747Z,french_620.wav,0,poule,1309,24,4,5,français,m,0,0.0,81.23981072,0.49867824
5c3fa4c5b1b52400013ba707,55,1,2024-02-27T11:21:00.747Z,french_620.wav,0,poule,1309,24,4,5,français,m,1,0.1,59.042463,0.00451098
5c3fa4c5b1b52400013ba707,55,1,2024-02-27T11:21:00.747Z,french_620.wav,0,poule,1309,24,4,5,français,m,2,0.2,63.56884277,0.27971017
5c3fa4c5b1b52400013ba707,55,1,2024-02-27T11:21:00.747Z,french_620.wav,0,poule,1309,24,4,5,français,m,3,0.3,18.30431865,1.7801653
5c3fa4c5b1b52400013ba707,55,1,2024-02-27T11:21:00.747Z,french_620.wav,0,poule,1309,24,4,5,français,m,4,0.4,3.28014676,0.68268275
5c3fa4c5b1b52400013ba707,55,1,2024-02-27T11:21:00.747Z,french_620.wav,0,poule,1309,24,4,5,français,m,5,0.5,-50.25769465,1.40391779
5c3fa4c5b1b52400013ba707,55,1,2024-02-27T11:21:00.747Z,french_620.wav,0,poule,1309,24,4,5,français,m,6,0.6,34.04173203,1.9419564
5c3fa4c5b1b52400013ba707,55,1,2024-02-27T11:21:00.747Z,french_620.wav,0,poule,1309,24,4,5,français,m,7,0.7,-89.91812475,1.23232489
5c3fa4c5b1b52400013ba707,55,1,2024-02-27T11:21:00.747Z,french_620.wav,0,poule,1309,24,4,5,français,m,8,0.8,-91.12000534,1.04769521
5c3fa4c5b1b52400013ba707,55,1,2024-02-27T11:21:00.747Z,french_620.wav,0,poule,1309,24,4,5,français,m,9,0.9,-56.90768545,0.51522296
5c3fa4c5b1b52400013ba707,55,1,2024-02-27T11:21:00.747Z,french_620.wav,0,poule,1309,24,4,5,français,m,10,1.0,56.81289128,0.60047706
5c3fa4c5b1b52400013ba707,55,1,2024-02-27T11:21:00.747Z,french_620.wav,0,poule,1309,24,4,5,français,m,11,1.1,52.75650998,0.1927266
5c3fa4c5b1b52400013ba707,55,1,2024-02-27T11:21:00.747Z,french_620.wav,0,poule,1309,24,4,5,français,m,12,1.14141667,-1.02091794,0.76689439
5c3fa4c5b1b52400013ba707,56,1,2024-02-27T11:21:00.747Z,french_228.wav,0,poule,930,24,4,5,français,m,0,0.0,-68.55425801,1.32878562
5c3fa4c5b1b52400013ba707,56,1,2024-02-27T11:21:00.747Z,french_228.wav,0,poule,930,24,4,5,français,m,1,0.1,-12.659075,0.71563941
5c3fa4c5b1b52400013ba707,56,1,2024-02-27T11:21:00.747Z,french_228.wav,0,poule,930,24,4,5,français,m,2,0.2,46.11717447,1.86195608
5c3fa4c5b1b52400013ba707,56,1,2024-02-27T11:21:00.747Z,french_228.wav,0,poule,930,24,4,5,français,m,3,0.3,-3.32601783,1.5457402
5c3fa4c5b1b52400013ba707,56,1,2024-02-27T11:21:00.747Z,french_228.wav,0,poule,930,24,4,5,français,m,4,0.4,37.19546204,1.42420373
5c3fa4c5b1b52400013ba707,56,1,2024-02-27T11:21:00.747Z,french_228.wav,0,poule,930,24,4,5,français,m,5,0.5,18.15940432,1.40142186
5c3fa4c5b1b52400013ba707,56,1,2024-02-27T11:21:00.747Z,french_228.wav,0,poule,930,24,4,5,français,m,6,0.6,-38.00714293,0.56168045
5c3fa4c5b1b52400013ba707,56,1,2024-02-27T11:21:00.747Z,french_228.wav,0,poule,930,24,4,5,français,m,7,0.7,-79.44898634,1.15931683
5c3fa4c5b1b52400013ba707,56,1,2024-02-27T11:21:00.747Z,french_228.wav,0,poule,930,24,4,5,français,m,8,0.8,-89.52725335,0.78633348
5c3fa4c5b1b52400013ba707,56,1,2024-02-27T11:21:00.747Z,french_228.wav,0,poule,930,24,4,5,français,m,9,0.9,20.61907431,0.54003465
5c3fa4c5b1b52400013ba707,56,1,2024-02-27T11:21:00.747Z,french_228.wav,0,poule,930,24,4,5,français,m,10,1.0,17.51827588,1.09725578
5c3fa4c5b1b52400013ba707,56,1,2024-02-27T11:21:00.747Z,french_228.wav,0,poule,930,24,4,5,français,m,11,1.1,-0.11031039,1.17739203
5c3fa4c5b1b52400013ba707,56,1,2024-02-27T11:21:00.747Z,french_228.wav,0,poule,930,24,4,5,français,m,12,1.14141667,-67.85277231,1.00093445
5c3fa4c5b1b52400013ba707,57,1,2024-02-27T11:21:00.747Z,french_881.wav,0,poule,676,24,4,5,français,m,0,0.0,16.58830358,0.85011258
5c3fa4c5b1b52400013ba707,57,1,2024-02-27T11:21:00.747Z,french_881.wav,0,poule,676,24,4,5,français,m,1,0.1,86.70271672,0.58038793
5c3fa4c5b1b52400013ba707,57,1,2024-02-27T11:21:00.747Z,french_881.wav,0,poule,676,24,4,5,français,m,2,0.2,7.39568317,1.77728033
5c3fa4c5b1b52400013ba707,57,1,2024-02-27T11:21:00.747Z,french_881.wav,0,poule,676,24,4,5,français,m,3,0.3,-63.95685009,1.63086827
5c3fa4c5b1b52400013ba707,57,1,2024-02-27T11:21:00.747Z,french_881.wav,0,poule,676,24,4,5,français,m,4,0.4,-73.69764964,1.60787708
5c3fa4c5b1b52400013ba707,57,1,2024-02-27T11:21:00.747Z,french_881.wav,0,poule,676,24,4,5,français,m,5,0.5,-37.16981433,1.90725685
5c3fa4c5b1b52400013ba707,57,1,2024-02-27T11:21:00.747Z,french_881.wav,0,poule,676,24,4,5,français,m,6,0.6,-82.20650712,1.21839285
5c3fa4c5b1b52400013ba707,57,1,2024-02-27T11:21:00.747Z,french_881.wav,0,poule,676,24,4,5,français,m,7,0.7,45.06880241,0.94960476
5c3fa4c5b1b52400013ba707,57,1,2024-02-27T11:21:00.747Z,french_881.wav,0,poule,676,24,4,5,français,m,8,0.8,48.0758912,1.84873141
5c3fa4c5b1b52400013ba707,57,1,2024-02-27T11:21:00.747Z,french_881.wav,0,poule,676,24,4,5,français,m,9,0.9,-90.22787257,1.92079983
5c3fa4c5b1b52400013ba707,57,1,2024-02-27T11:21:00.747Z,french_881.wav,0,poule,676,24,4,5,français,m,10,1.0,28.44813995,0.80582495
5c3fa4c5b1b52400013ba707,57,1,2024-02-27T11:21:00.747Z,french_881.wav,0,poule,676,24,4,5,français,m,11,1.1,53.90222373,1.4150163
5c3fa4c5b1b52400013ba707,57,1,2024-02-27T11:21:00.747Z,french_881.wav,0,poule,676,24,4,5,français,m,12,1.14141667,88.34687342,1.80467918
5c3fa4c5b1b52400013ba707,58,1,2024-02-27T11:21:00.747Z,french_257.wav,0,pull,1057,24,4,5,français,m,0,0.0,-14.7165903,1.26655031
5c3fa4c5b1b52400013ba707,58,1,2024-02-27T11:21:00.747Z,french_257.wav,0,pull,1057,24,4,5,français,m,1,0.1,9.77195576,0.00191174
5c3fa4c5b1b52400013ba707,58,1,2024-02-27T11:21:00.747Z,french_257.wav,0,pull,1057,24,4,5,français,m,2,0.2,47.03230766,0.31291214
5c3fa4c5b1b52400013ba707,58,1,2024-02-27T11:21:00.747Z,french_257.wav,0,pull,1057,24,4,5,français,m,3,0.3,47.2421719,1.22624264
5c3fa4c5b1b52400013ba707,58,1,2024-02-27T11:21:00.747Z,french_257.wav,0,pull,1057,24,4,5,français,m,4,0.4,-71.97278452,0.54105763
5c3fa4c5b1b52400013ba707,58,1,2024-02-27T11:21:00.747Z,french_257.wav,0,pull,1057,24,4,5,français,m,5,0.5,-76.50169217,0.78287954
5c3fa4c5b1b52400013ba707,58,1,2024-02-27T11:21:00.747Z,french_257.wav,0,pull,1057,24,4,5,français,m,6,0.6,-66.41112258,1.330985
5c3fa4c5b1b52400013ba707,58,1,2024-02-27T11:21:00.747Z,french_257.wav,0,pull,1057,24,4,5,français,m,7,0.7,-22.67062318,1.35261468
5c3fa4c5b1b52400013ba707,58,1,2024-02-27T11:21:00.747Z,french_257.wav,0,pull,1057,24,4,5,français,m,8,0.8,-29.5884482,1.03978063
5c3fa4c5b1b52400013ba707,58,1,2024-02-27T11:21:00.747Z,french_257.wav,0,pull,1057,24,4,5,français,m,9,0.9,81.81742087,0.00659695
5c3fa4c5b1b52400013ba707,58,1,2024-02-27T11:21:00.747Z,french_257.wav,0,pull,1057,24,4,5,français,m,10,1.0,85.72452131,1.34378574
5c3fa4c5b1b52400013ba707,58,1,2024-02-27T11:21:00.747Z,french_257.wav,0,pull,1057,24,4,5,français,m,11,1.1,35.03898879,0.36395481
5c3fa4c5b1b52400013ba707,58,1,2024-02-27T11:21:00.747Z,french_257.wav,0,pull,1057,24,4,5,français,m,12,1.14141667,32.51985641,0.94728688
5c3fa4c5b1b52400013ba707,59,1,2024-02-27T11:21:00.747Z,french_126.wav,0,poule,778,24,4,5,français,m,0,0.0,-47.50319365,1.7258072
5c3fa4c5b1b52400013ba707,59,1,2024-02-27T11:21:00.747Z,french_126.wav,0,poule,778,24,4,5,français,m,1,0.1,7.1744106,1.03228838
5c3fa4c5b1b52400013ba707,59,1,2024-02-27T11:21:00.747Z,french_126.wav,0,poule,778,24,4,5,français,m,2,0.2,-57.32327794,0.24012817
