subj,trial,block,date,stim,stim_order,response,rt,age,english,french,language,sex,param_index,segment,pitch,stretch
61334a37ecf0f837ea7d4e74,0,0,2024-02-28T14:56:13.914Z,french_591.wav,0,pull,5742,38,3,5,français,m,0,0.0,-5.82682539,0.88855192
61334a37ecf0f837ea7d4e74,0,0,2024-02-28T14:56:13.914Z,french_591.wav,0,pull,5742,38,3,5,français,m,1,0.1,-81.3701121,1.90878683
61334a37ecf0f837ea7d4e74,0,0,2024-02-28T14:56:13.914Z,french_591.wav,0,pull,5742,38,3,5,français,m,2,0.2,-37.81307084,1.23278863
61334a37ecf0f837ea7d4e74,0,0,2024-02-28T14:56:13.914Z,french_591.wav,0,pull,5742,38,3,5,français,m,3,0.3,-54.8531106,0.97291582
61334a37ecf0f837ea7d4e74,0,0,2024-02-28T14:56:13.914Z,french_591.wav,0,pull,5742,38,3,5,français,m,4,0.4,-95.72600512,0.20433373
61334a37ecf0f837ea7d4e74,0,0,2024-02-28T14:56:13.914Z,french_591.wav,0,pull,5742,38,3,5,français,m,5,0.5,-64.2370476,0.04434128
61334a37ecf0f837ea7d4e74,0,0,2024-02-28T14:56:13.914Z,french_591.wav,0,pull,5742,38,3,5,français,m,6,0.6,-10.02239509,0.78703084
61334a37ecf0f837ea7d4e74,0,0,2024-02-28T14:56:13.914Z,french_591.wav,0,pull,5742,38,3,5,français,m,7,0.7,7.04740233,1.11175391
61334a37ecf0f837ea7d4e74,0,0,2024-02-28T14:56:13.914Z,french_591.wav,0,pull,5742,38,3,5,français,m,8,0.8,-22.95032107,1.30696314
61334a37ecf0f837ea7d4e74,0,0,2024-02-28T14:56:13.914Z,french_591.wav,0,pull,5742,38,3,5,français,m,9,0.9,-34.18626931,1.87549286
61334a37ecf0f837ea7d4e74,0,0,2024-02-28T14:56:13.914Z,french_591.wav,0,pull,5742,38,3,5,français,m,10,1.0,-3.98772991,0.82720637
61334a37ecf0f837ea7d4e74,0,0,2024-02-28T14:56:13.914Z,french_591.wav,0,pull,5742,38,3,5,français,m,11,1.1,57.60407051,0.42168684
61334a37ecf0f837ea7d4e74,0,0,2024-02-28T14:56:13.914Z,french_591.wav,0,pull,5742,38,3,5,français,m,12,1.14141667,-76.01985318,1.24091325
61334a37ecf0f837ea7d4e74,1,0,2024-02-28T14:56:13.914Z,french_925.wav,0,poule,1524,38,3,5,français,m,0,0.0,73.88745487,1.96679667
61334a37ecf0f837ea7d4e74,1,0,2024-02-28T14:56:13.914Z,french_925.wav,0,poule,1524,38,3,5,français,m,1,0.1,83.3595035,0.21639966
61334a37ecf0f837ea7d4e74,1,0,2024-02-28T14:56:13.914Z,french_925.wav,0,poule,1524,38,3,5,français,m,2,0.2,-42.88917359,1.23278099
61334a37ecf0f837ea7d4e74,1,0,2024-02-28T14:56:13.914Z,french_925.wav,0,poule,1524,38,3,5,français,m,3,0.3,-35.82813145,0.20280842
61334a37ecf0f837ea7d4e74,1,0,2024-02-28T14:56:13.914Z,french_925.wav,0,poule,1524,38,3,5,français,m,4,0.4,-27.03224602,0.87893423
61334a37ecf0f837ea7d4e74,1,0,2024-02-28T14:56:13.914Z,french_925.wav,0,poule,1524,38,3,5,français,m,5,0.5,-60.70994671,0.75442075
61334a37ecf0f837ea7d4e74,1,0,2024-02-28T14:56:13.914Z,french_925.wav,0,poule,1524,38,3,5,français,m,6,0.6,-49.85711526,0.59399175
61334a37ecf0f837ea7d4e74,1,0,2024-02-28T14:56:13.914Z,french_925.wav,0,poule,1524,38,3,5,français,m,7,0.7,-19.23215183,0.40076308
61334a37ecf0f837ea7d4e74,1,0,2024-02-28T14:56:13.914Z,french_925.wav,0,poule,1524,38,3,5,français,m,8,0.8,-49.95485849,1.00046488
61334a37ecf0f837ea7d4e74,1,0,2024-02-28T14:56:13.914Z,french_925.wav,0,poule,1524,38,3,5,français,m,9,0.9,-32.44147055,1.09763798
61334a37ecf0f837ea7d4e74,1,0,2024-02-28T14:56:13.914Z,french_925.wav,0,poule,1524,38,3,5,français,m,10,1.0,8.88866296,0.22831424
61334a37ecf0f837ea7d4e74,1,0,2024-02-28T14:56:13.914Z,french_925.wav,0,poule,1524,38,3,5,français,m,11,1.1,63.17058803,0.14700243
61334a37ecf0f837ea7d4e74,1,0,2024-02-28T14:56:13.914Z,french_925.wav,0,poule,1524,38,3,5,français,m,12,1.14141667,77.96070842,0.04831054
61334a37ecf0f837ea7d4e74,2,0,2024-02-28T14:56:13.914Z,french_286.wav,0,pull,1569,38,3,5,français,m,0,0.0,-91.05268085,1.46856287
61334a37ecf0f837ea7d4e74,2,0,2024-02-28T14:56:13.914Z,french_286.wav,0,pull,1569,38,3,5,français,m,1,0.1,-23.35186071,1.00691584
61334a37ecf0f837ea7d4e74,2,0,2024-02-28T14:56:13.914Z,french_286.wav,0,pull,1569,38,3,5,français,m,2,0.2,77.20107387,0.46780603
61334a37ecf0f837ea7d4e74,2,0,2024-02-28T14:56:13.914Z,french_286.wav,0,pull,1569,38,3,5,français,m,3,0.3,-92.81003859,1.70781954
61334a37ecf0f837ea7d4e74,2,0,2024-02-28T14:56:13.914Z,french_286.wav,0,pull,1569,38,3,5,français,m,4,0.4,-53.33460968,0.99550458
61334a37ecf0f837ea7d4e74,2,0,2024-02-28T14:56:13.914Z,french_286.wav,0,pull,1569,38,3,5,français,m,5,0.5,62.91812057,0.7172163
61334a37ecf0f837ea7d4e74,2,0,2024-02-28T14:56:13.914Z,french_286.wav,0,pull,1569,38,3,5,français,m,6,0.6,16.16077368,1.39130844
61334a37ecf0f837ea7d4e74,2,0,2024-02-28T14:56:13.914Z,french_286.wav,0,pull,1569,38,3,5,français,m,7,0.7,69.38476605,0.60440693
61334a37ecf0f837ea7d4e74,2,0,2024-02-28T14:56:13.914Z,french_286.wav,0,pull,1569,38,3,5,français,m,8,0.8,-57.13655676,1.66516304
61334a37ecf0f837ea7d4e74,2,0,2024-02-28T14:56:13.914Z,french_286.wav,0,pull,1569,38,3,5,français,m,9,0.9,-15.81173514,1.68938028
61334a37ecf0f837ea7d4e74,2,0,2024-02-28T14:56:13.914Z,french_286.wav,0,pull,1569,38,3,5,français,m,10,1.0,-9.63797078,1.74581604
61334a37ecf0f837ea7d4e74,2,0,2024-02-28T14:56:13.914Z,french_286.wav,0,pull,1569,38,3,5,français,m,11,1.1,-63.31208094,1.61756959
61334a37ecf0f837ea7d4e74,2,0,2024-02-28T14:56:13.914Z,french_286.wav,0,pull,1569,38,3,5,français,m,12,1.14141667,-26.04631218,1.66119384
61334a37ecf0f837ea7d4e74,3,0,2024-02-28T14:56:13.914Z,french_367.wav,0,pull,7039,38,3,5,français,m,0,0.0,-19.33050099,0.32588684
61334a37ecf0f837ea7d4e74,3,0,2024-02-28T14:56:13.914Z,french_367.wav,0,pull,7039,38,3,5,français,m,1,0.1,-1.29300582,1.20079268
61334a37ecf0f837ea7d4e74,3,0,2024-02-28T14:56:13.914Z,french_367.wav,0,pull,7039,38,3,5,français,m,2,0.2,-53.6628535,1.68961812
61334a37ecf0f837ea7d4e74,3,0,2024-02-28T14:56:13.914Z,french_367.wav,0,pull,7039,38,3,5,français,m,3,0.3,-26.30205028,0.18361897
61334a37ecf0f837ea7d4e74,3,0,2024-02-28T14:56:13.914Z,french_367.wav,0,pull,7039,38,3,5,français,m,4,0.4,-63.4363173,0.97466933
61334a37ecf0f837ea7d4e74,3,0,2024-02-28T14:56:13.914Z,french_367.wav,0,pull,7039,38,3,5,français,m,5,0.5,6.39307262,1.38512788
61334a37ecf0f837ea7d4e74,3,0,2024-02-28T14:56:13.914Z,french_367.wav,0,pull,7039,38,3,5,français,m,6,0.6,-64.6682597,0.02274579
61334a37ecf0f837ea7d4e74,3,0,2024-02-28T14:56:13.914Z,french_367.wav,0,pull,7039,38,3,5,français,m,7,0.7,29.77195728,0.18668815
61334a37ecf0f837ea7d4e74,3,0,2024-02-28T14:56:13.914Z,french_367.wav,0,pull,7039,38,3,5,français,m,8,0.8,57.14519673,0.42667984
61334a37ecf0f837ea7d4e74,3,0,2024-02-28T14:56:13.914Z,french_367.wav,0,pull,7039,38,3,5,français,m,9,0.9,-3.13638169,0.48752638
61334a37ecf0f837ea7d4e74,3,0,2024-02-28T14:56:13.914Z,french_367.wav,0,pull,7039,38,3,5,français,m,10,1.0,29.03856774,0.21358708
61334a37ecf0f837ea7d4e74,3,0,2024-02-28T14:56:13.914Z,french_367.wav,0,pull,7039,38,3,5,français,m,11,1.1,-14.77542226,0.34158708
61334a37ecf0f837ea7d4e74,3,0,2024-02-28T14:56:13.914Z,french_367.wav,0,pull,7039,38,3,5,français,m,12,1.14141667,-39.4710146,1.96821169
61334a37ecf0f837ea7d4e74,4,0,2024-02-28T14:56:13.914Z,french_492.wav,0,poule,1293,38,3,5,français,m,0,0.0,62.67168513,0.43911588
61334a37ecf0f837ea7d4e74,4,0,2024-02-28T14:56:13.914Z,french_492.wav,0,poule,1293,38,3,5,français,m,1,0.1,94.72344934,1.05025764
61334a37ecf0f837ea7d4e74,4,0,2024-02-28T14:56:13.914Z,french_492.wav,0,poule,1293,38,3,5,français,m,2,0.2,-60.35828135,1.43296606
61334a37ecf0f837ea7d4e74,4,0,2024-02-28T14:56:13.914Z,french_492.wav,0,poule,1293,38,3,5,français,m,3,0.3,-88.06504121,1.08587419
61334a37ecf0f837ea7d4e74,4,0,2024-02-28T14:56:13.914Z,french_492.wav,0,poule,1293,38,3,5,français,m,4,0.4,-6.78932349,1.96972539
61334a37ecf0f837ea7d4e74,4,0,2024-02-28T14:56:13.914Z,french_492.wav,0,poule,1293,38,3,5,français,m,5,0.5,-47.82180806,1.20621652
61334a37ecf0f837ea7d4e74,4,0,2024-02-28T14:56:13.914Z,french_492.wav,0,poule,1293,38,3,5,français,m,6,0.6,-8.91064001,1.316574
61334a37ecf0f837ea7d4e74,4,0,2024-02-28T14:56:13.914Z,french_492.wav,0,poule,1293,38,3,5,français,m,7,0.7,-28.60266993,0.03749259
61334a37ecf0f837ea7d4e74,4,0,2024-02-28T14:56:13.914Z,french_492.wav,0,poule,1293,38,3,5,français,m,8,0.8,-48.68723624,1.11329037
61334a37ecf0f837ea7d4e74,4,0,2024-02-28T14:56:13.914Z,french_492.wav,0,poule,1293,38,3,5,français,m,9,0.9,18.57877233,1.67425831
61334a37ecf0f837ea7d4e74,4,0,2024-02-28T14:56:13.914Z,french_492.wav,0,poule,1293,38,3,5,français,m,10,1.0,39.49699981,0.64760106
61334a37ecf0f837ea7d4e74,4,0,2024-02-28T14:56:13.914Z,french_492.wav,0,poule,1293,38,3,5,français,m,11,1.1,-66.80023278,1.35920659
61334a37ecf0f837ea7d4e74,4,0,2024-02-28T14:56:13.914Z,french_492.wav,0,poule,1293,38,3,5,français,m,12,1.14141667,52.77539511,1.38166489
61334a37ecf0f837ea7d4e74,5,0,2024-02-28T14:56:13.914Z,french_226.wav,0,pull,1715,38,3,5,français,m,0,0.0,-89.5654403,0.58902414
61334a37ecf0f837ea7d4e74,5,0,2024-02-28T14:56:13.914Z,french_226.wav,0,pull,1715,38,3,5,français,m,1,0.1,22.6491102,1.07347561
61334a37ecf0f837ea7d4e74,5,0,2024-02-28T14:56:13.914Z,french_226.wav,0,pull,1715,38,3,5,français,m,2,0.2,-98.1829822,0.10029967
61334a37ecf0f837ea7d4e74,5,0,2024-02-28T14:56:13.914Z,french_226.wav,0,pull,1715,38,3,5,français,m,3,0.3,90.0677545,1.58545922
61334a37ecf0f837ea7d4e74,5,0,2024-02-28T14:56:13.914Z,french_226.wav,0,pull,1715,38,3,5,français,m,4,0.4,76.6949101,0.62840151
61334a37ecf0f837ea7d4e74,5,0,2024-02-28T14:56:13.914Z,french_226.wav,0,pull,1715,38,3,5,français,m,5,0.5,-16.5739388,1.47484594
61334a37ecf0f837ea7d4e74,5,0,2024-02-28T14:56:13.914Z,french_226.wav,0,pull,1715,38,3,5,français,m,6,0.6,79.5444963,1.47385209
61334a37ecf0f837ea7d4e74,5,0,2024-02-28T14:56:13.914Z,french_226.wav,0,pull,1715,38,3,5,français,m,7,0.7,-64.5918564,0.37637466
61334a37ecf0f837ea7d4e74,5,0,2024-02-28T14:56:13.914Z,french_226.wav,0,pull,1715,38,3,5,français,m,8,0.8,-15.773904,0.13457703
61334a37ecf0f837ea7d4e74,5,0,2024-02-28T14:56:13.914Z,french_226.wav,0,pull,1715,38,3,5,français,m,9,0.9,2.27312472,1.1026559
61334a37ecf0f837ea7d4e74,5,0,2024-02-28T14:56:13.914Z,french_226.wav,0,pull,1715,38,3,5,français,m,10,1.0,-19.5846244,1.06735265
61334a37ecf0f837ea7d4e74,5,0,2024-02-28T14:56:13.914Z,french_226.wav,0,pull,1715,38,3,5,français,m,11,1.1,-33.3610299,1.0785035
61334a37ecf0f837ea7d4e74,5,0,2024-02-28T14:56:13.914Z,french_226.wav,0,pull,1715,38,3,5,français,m,12,1.14141667,0.0777115779,0.45867653
61334a37ecf0f837ea7d4e74,6,0,2024-02-28T14:56:13.914Z,french_826.wav,0,pull,944,38,3,5,français,m,0,0.0,-27.70685096,1.07533498
61334a37ecf0f837ea7d4e74,6,0,2024-02-28T14:56:13.914Z,french_826.wav,0,pull,944,38,3,5,français,m,1,0.1,36.31877293,0.55576396
61334a37ecf0f837ea7d4e74,6,0,2024-02-28T14:56:13.914Z,french_826.wav,0,pull,944,38,3,5,français,m,2,0.2,99.33133992,1.66285071
61334a37ecf0f837ea7d4e74,6,0,2024-02-28T14:56:13.914Z,french_826.wav,0,pull,944,38,3,5,français,m,3,0.3,-36.19061988,1.98350428
61334a37ecf0f837ea7d4e74,6,0,2024-02-28T14:56:13.914Z,french_826.wav,0,pull,944,38,3,5,français,m,4,0.4,-21.30822949,0.31520787
61334a37ecf0f837ea7d4e74,6,0,2024-02-28T14:56:13.914Z,french_826.wav,0,pull,944,38,3,5,français,m,5,0.5,-30.35356855,0.91676488
61334a37ecf0f837ea7d4e74,6,0,2024-02-28T14:56:13.914Z,french_826.wav,0,pull,944,38,3,5,français,m,6,0.6,5.26136658,1.04496559
61334a37ecf0f837ea7d4e74,6,0,2024-02-28T14:56:13.914Z,french_826.wav,0,pull,944,38,3,5,français,m,7,0.7,66.93678647,0.81384805
61334a37ecf0f837ea7d4e74,6,0,2024-02-28T14:56:13.914Z,french_826.wav,0,pull,944,38,3,5,français,m,8,0.8,7.468886,1.33717272
61334a37ecf0f837ea7d4e74,6,0,2024-02-28T14:56:13.914Z,french_826.wav,0,pull,944,38,3,5,français,m,9,0.9,8.24023811,0.5120121
61334a37ecf0f837ea7d4e74,6,0,2024-02-28T14:56:13.914Z,french_826.wav,0,pull,944,38,3,5,français,m,10,1.0,24.59744458,0.50996017
61334a37ecf0f837ea7d4e74,6,0,2024-02-28T14:56:13.914Z,french_826.wav,0,pull,944,38,3,5,français,m,11,1.1,-27.97862072,0.52289829
61334a37ecf0f837ea7d4e74,6,0,2024-02-28T14:56:13.914Z,french_826.wav,0,pull,944,38,3,5,français,m,12,1.14141667,80.34340576,0.11079891
61334a37ecf0f837ea7d4e74,7,0,2024-02-28T14:56:13.914Z,french_770.wav,0,pull,823,38,3,5,français,m,0,0.0,-6.4888623,1.58204947
61334a37ecf0f837ea7d4e74,7,0,2024-02-28T14:56:13.914Z,french_770.wav,0,pull,823,38,3,5,français,m,1,0.1,10.25935382,0.75621705
61334a37ecf0f837ea7d4e74,7,0,2024-02-28T14:56:13.914Z,french_770.wav,0,pull,823,38,3,5,français,m,2,0.2,-98.41393192,0.6737112
61334a37ecf0f837ea7d4e74,7,0,2024-02-28T14:56:13.914Z,french_770.wav,0,pull,823,38,3,5,français,m,3,0.3,-40.92801907,1.47717622
61334a37ecf0f837ea7d4e74,7,0,2024-02-28T14:56:13.914Z,french_770.wav,0,pull,823,38,3,5,français,m,4,0.4,66.22295087,1.33888104
61334a37ecf0f837ea7d4e74,7,0,2024-02-28T14:56:13.914Z,french_770.wav,0,pull,823,38,3,5,français,m,5,0.5,-30.24910195,0.77255852
61334a37ecf0f837ea7d4e74,7,0,2024-02-28T14:56:13.914Z,french_770.wav,0,pull,823,38,3,5,français,m,6,0.6,47.10720128,1.63339195
61334a37ecf0f837ea7d4e74,7,0,2024-02-28T14:56:13.914Z,french_770.wav,0,pull,823,38,3,5,français,m,7,0.7,4.7507049,1.91064047
61334a37ecf0f837ea7d4e74,7,0,2024-02-28T14:56:13.914Z,french_770.wav,0,pull,823,38,3,5,français,m,8,0.8,-40.48688364,1.54599539
61334a37ecf0f837ea7d4e74,7,0,2024-02-28T14:56:13.914Z,french_770.wav,0,pull,823,38,3,5,français,m,9,0.9,-47.0079054,0.48737493
61334a37ecf0f837ea7d4e74,7,0,2024-02-28T14:56:13.914Z,french_770.wav,0,pull,823,38,3,5,français,m,10,1.0,2.83601634,1.73547944
61334a37ecf0f837ea7d4e74,7,0,2024-02-28T14:56:13.914Z,french_770.wav,0,pull,823,38,3,5,français,m,11,1.1,10.67776144,0.45897774
61334a37ecf0f837ea7d4e74,7,0,2024-02-28T14:56:13.914Z,french_770.wav,0,pull,823,38,3,5,français,m,12,1.14141667,45.53025902,0.90041339
61334a37ecf0f837ea7d4e74,8,0,2024-02-28T14:56:13.914Z,french_14.wav,0,pull,1802,38,3,5,français,m,0,0.0,47.89955795,0.26613935
61334a37ecf0f837ea7d4e74,8,0,2024-02-28T14:56:13.914Z,french_14.wav,0,pull,1802,38,3,5,français,m,1,0.1,61.35134247,1.19318983
61334a37ecf0f837ea7d4e74,8,0,2024-02-28T14:56:13.914Z,french_14.wav,0,pull,1802,38,3,5,français,m,2,0.2,25.97351418,1.52071117
61334a37ecf0f837ea7d4e74,8,0,2024-02-28T14:56:13.914Z,french_14.wav,0,pull,1802,38,3,5,français,m,3,0.3,96.79201142,1.8410781
61334a37ecf0f837ea7d4e74,8,0,2024-02-28T14:56:13.914Z,french_14.wav,0,pull,1802,38,3,5,français,m,4,0.4,-2.49416278,0.83400601
61334a37ecf0f837ea7d4e74,8,0,2024-02-28T14:56:13.914Z,french_14.wav,0,pull,1802,38,3,5,français,m,5,0.5,-48.27662198,0.10945672
61334a37ecf0f837ea7d4e74,8,0,2024-02-28T14:56:13.914Z,french_14.wav,0,pull,1802,38,3,5,français,m,6,0.6,40.76261572,0.75420347
61334a37ecf0f837ea7d4e74,8,0,2024-02-28T14:56:13.914Z,french_14.wav,0,pull,1802,38,3,5,français,m,7,0.7,-77.78715279,0.00356081
61334a37ecf0f837ea7d4e74,8,0,2024-02-28T14:56:13.914Z,french_14.wav,0,pull,1802,38,3,5,français,m,8,0.8,1.01884087,0.62198197
61334a37ecf0f837ea7d4e74,8,0,2024-02-28T14:56:13.914Z,french_14.wav,0,pull,1802,38,3,5,français,m,9,0.9,-46.10217397,0.23306124
61334a37ecf0f837ea7d4e74,8,0,2024-02-28T14:56:13.914Z,french_14.wav,0,pull,1802,38,3,5,français,m,10,1.0,68.50309763,1.67852962
61334a37ecf0f837ea7d4e74,8,0,2024-02-28T14:56:13.914Z,french_14.wav,0,pull,1802,38,3,5,français,m,11,1.1,54.05400046,1.90740001
61334a37ecf0f837ea7d4e74,8,0,2024-02-28T14:56:13.914Z,french_14.wav,0,pull,1802,38,3,5,français,m,12,1.14141667,12.0764648,0.55424844
61334a37ecf0f837ea7d4e74,9,0,2024-02-28T14:56:13.914Z,french_675.wav,0,poule,414,38,3,5,français,m,0,0.0,-99.9073227,0.81298374
61334a37ecf0f837ea7d4e74,9,0,2024-02-28T14:56:13.914Z,french_675.wav,0,poule,414,38,3,5,français,m,1,0.1,6.02560795,0.95778594
61334a37ecf0f837ea7d4e74,9,0,2024-02-28T14:56:13.914Z,french_675.wav,0,poule,414,38,3,5,français,m,2,0.2,-87.21608726,0.60056575
61334a37ecf0f837ea7d4e74,9,0,2024-02-28T14:56:13.914Z,french_675.wav,0,poule,414,38,3,5,français,m,3,0.3,16.166159,1.16566092
61334a37ecf0f837ea7d4e74,9,0,2024-02-28T14:56:13.914Z,french_675.wav,0,poule,414,38,3,5,français,m,4,0.4,22.01437498,0.76727261
61334a37ecf0f837ea7d4e74,9,0,2024-02-28T14:56:13.914Z,french_675.wav,0,poule,414,38,3,5,français,m,5,0.5,-87.69710294,1.13257272
61334a37ecf0f837ea7d4e74,9,0,2024-02-28T14:56:13.914Z,french_675.wav,0,poule,414,38,3,5,français,m,6,0.6,54.53045846,0.2283252
61334a37ecf0f837ea7d4e74,9,0,2024-02-28T14:56:13.914Z,french_675.wav,0,poule,414,38,3,5,français,m,7,0.7,55.67753159,0.43844238
61334a37ecf0f837ea7d4e74,9,0,2024-02-28T14:56:13.914Z,french_675.wav,0,poule,414,38,3,5,français,m,8,0.8,-4.29051955,0.63329176
61334a37ecf0f837ea7d4e74,9,0,2024-02-28T14:56:13.914Z,french_675.wav,0,poule,414,38,3,5,français,m,9,0.9,-19.73606801,0.92733574
61334a37ecf0f837ea7d4e74,9,0,2024-02-28T14:56:13.914Z,french_675.wav,0,poule,414,38,3,5,français,m,10,1.0,35.95779255,1.01468224
61334a37ecf0f837ea7d4e74,9,0,2024-02-28T14:56:13.914Z,french_675.wav,0,poule,414,38,3,5,français,m,11,1.1,2.62132668,0.86622933
61334a37ecf0f837ea7d4e74,9,0,2024-02-28T14:56:13.914Z,french_675.wav,0,poule,414,38,3,5,français,m,12,1.14141667,32.43607348,0.89275337
61334a37ecf0f837ea7d4e74,10,0,2024-02-28T14:56:13.914Z,french_485.wav,0,poule,238,38,3,5,français,m,0,0.0,-32.72393911,1.22977984
61334a37ecf0f837ea7d4e74,10,0,2024-02-28T14:56:13.914Z,french_485.wav,0,poule,238,38,3,5,français,m,1,0.1,80.82307242,1.23405783
61334a37ecf0f837ea7d4e74,10,0,2024-02-28T14:56:13.914Z,french_485.wav,0,poule,238,38,3,5,français,m,2,0.2,57.31331333,0.86608886
61334a37ecf0f837ea7d4e74,10,0,2024-02-28T14:56:13.914Z,french_485.wav,0,poule,238,38,3,5,français,m,3,0.3,48.72087878,0.52599403
61334a37ecf0f837ea7d4e74,10,0,2024-02-28T14:56:13.914Z,french_485.wav,0,poule,238,38,3,5,français,m,4,0.4,67.57779619,1.47744611
61334a37ecf0f837ea7d4e74,10,0,2024-02-28T14:56:13.914Z,french_485.wav,0,poule,238,38,3,5,français,m,5,0.5,-63.19645997,1.32987449
61334a37ecf0f837ea7d4e74,10,0,2024-02-28T14:56:13.914Z,french_485.wav,0,poule,238,38,3,5,français,m,6,0.6,1.81636455,0.58593864
61334a37ecf0f837ea7d4e74,10,0,2024-02-28T14:56:13.914Z,french_485.wav,0,poule,238,38,3,5,français,m,7,0.7,-75.79477779,0.98960333
61334a37ecf0f837ea7d4e74,10,0,2024-02-28T14:56:13.914Z,french_485.wav,0,poule,238,38,3,5,français,m,8,0.8,29.75420726,0.53553397
61334a37ecf0f837ea7d4e74,10,0,2024-02-28T14:56:13.914Z,french_485.wav,0,poule,238,38,3,5,français,m,9,0.9,22.42069032,0.8020386
61334a37ecf0f837ea7d4e74,10,0,2024-02-28T14:56:13.914Z,french_485.wav,0,poule,238,38,3,5,français,m,10,1.0,18.39827523,1.39729728
61334a37ecf0f837ea7d4e74,10,0,2024-02-28T14:56:13.914Z,french_485.wav,0,poule,238,38,3,5,français,m,11,1.1,83.2380207,0.57653841
61334a37ecf0f837ea7d4e74,10,0,2024-02-28T14:56:13.914Z,french_485.wav,0,poule,238,38,3,5,français,m,12,1.14141667,50.25973786,1.79465784
61334a37ecf0f837ea7d4e74,11,0,2024-02-28T14:56:13.914Z,french_820.wav,0,poule,339,38,3,5,français,m,0,0.0,2.20805213,0.81178605
61334a37ecf0f837ea7d4e74,11,0,2024-02-28T14:56:13.914Z,french_820.wav,0,poule,339,38,3,5,français,m,1,0.1,-90.51492195,0.34105584
61334a37ecf0f837ea7d4e74,11,0,2024-02-28T14:56:13.914Z,french_820.wav,0,poule,339,38,3,5,français,m,2,0.2,14.37438706,1.03419156
61334a37ecf0f837ea7d4e74,11,0,2024-02-28T14:56:13.914Z,french_820.wav,0,poule,339,38,3,5,français,m,3,0.3,48.7691056,1.3222317
61334a37ecf0f837ea7d4e74,11,0,2024-02-28T14:56:13.914Z,french_820.wav,0,poule,339,38,3,5,français,m,4,0.4,-26.19278003,0.6377532
61334a37ecf0f837ea7d4e74,11,0,2024-02-28T14:56:13.914Z,french_820.wav,0,poule,339,38,3,5,français,m,5,0.5,18.08357323,1.39628768
61334a37ecf0f837ea7d4e74,11,0,2024-02-28T14:56:13.914Z,french_820.wav,0,poule,339,38,3,5,français,m,6,0.6,82.28583292,1.53457958
61334a37ecf0f837ea7d4e74,11,0,2024-02-28T14:56:13.914Z,french_820.wav,0,poule,339,38,3,5,français,m,7,0.7,69.03631189,1.68460853
61334a37ecf0f837ea7d4e74,11,0,2024-02-28T14:56:13.914Z,french_820.wav,0,poule,339,38,3,5,français,m,8,0.8,27.35509958,1.6036494
61334a37ecf0f837ea7d4e74,11,0,2024-02-28T14:56:13.914Z,french_820.wav,0,poule,339,38,3,5,français,m,9,0.9,27.52320107,1.49572357
61334a37ecf0f837ea7d4e74,11,0,2024-02-28T14:56:13.914Z,french_820.wav,0,poule,339,38,3,5,français,m,10,1.0,-3.99788557,0.7318371
61334a37ecf0f837ea7d4e74,11,0,2024-02-28T14:56:13.914Z,french_820.wav,0,poule,339,38,3,5,français,m,11,1.1,54.09103587,0.77038849
61334a37ecf0f837ea7d4e74,11,0,2024-02-28T14:56:13.914Z,french_820.wav,0,poule,339,38,3,5,français,m,12,1.14141667,22.53021971,0.80738652
61334a37ecf0f837ea7d4e74,12,0,2024-02-28T14:56:13.914Z,french_724.wav,0,poule,143,38,3,5,français,m,0,0.0,-42.7356975,0.85167994
61334a37ecf0f837ea7d4e74,12,0,2024-02-28T14:56:13.914Z,french_724.wav,0,poule,143,38,3,5,français,m,1,0.1,79.1515089,1.58951064
61334a37ecf0f837ea7d4e74,12,0,2024-02-28T14:56:13.914Z,french_724.wav,0,poule,143,38,3,5,français,m,2,0.2,64.9302742,0.60770722
61334a37ecf0f837ea7d4e74,12,0,2024-02-28T14:56:13.914Z,french_724.wav,0,poule,143,38,3,5,français,m,3,0.3,-85.1878267,0.75189335
61334a37ecf0f837ea7d4e74,12,0,2024-02-28T14:56:13.914Z,french_724.wav,0,poule,143,38,3,5,français,m,4,0.4,-34.3526203,0.90807039
61334a37ecf0f837ea7d4e74,12,0,2024-02-28T14:56:13.914Z,french_724.wav,0,poule,143,38,3,5,français,m,5,0.5,-4.99910648,0.50960695
61334a37ecf0f837ea7d4e74,12,0,2024-02-28T14:56:13.914Z,french_724.wav,0,poule,143,38,3,5,français,m,6,0.6,0.044891932,0.49994716
61334a37ecf0f837ea7d4e74,12,0,2024-02-28T14:56:13.914Z,french_724.wav,0,poule,143,38,3,5,français,m,7,0.7,7.78511592,1.52976277
61334a37ecf0f837ea7d4e74,12,0,2024-02-28T14:56:13.914Z,french_724.wav,0,poule,143,38,3,5,français,m,8,0.8,20.6697314,1.0388534
61334a37ecf0f837ea7d4e74,12,0,2024-02-28T14:56:13.914Z,french_724.wav,0,poule,143,38,3,5,français,m,9,0.9,94.4830377,1.27328061
61334a37ecf0f837ea7d4e74,12,0,2024-02-28T14:56:13.914Z,french_724.wav,0,poule,143,38,3,5,français,m,10,1.0,1.93406873,1.00280062
61334a37ecf0f837ea7d4e74,12,0,2024-02-28T14:56:13.914Z,french_724.wav,0,poule,143,38,3,5,français,m,11,1.1,65.5163276,1.51647705
61334a37ecf0f837ea7d4e74,12,0,2024-02-28T14:56:13.914Z,french_724.wav,0,poule,143,38,3,5,français,m,12,1.14141667,36.432613,1.50732266
61334a37ecf0f837ea7d4e74,13,0,2024-02-28T14:56:13.914Z,french_983.wav,0,pull,323,38,3,5,français,m,0,0.0,-58.740306,1.29800401
61334a37ecf0f837ea7d4e74,13,0,2024-02-28T14:56:13.914Z,french_983.wav,0,pull,323,38,3,5,français,m,1,0.1,86.62100381,0.11364498
61334a37ecf0f837ea7d4e74,13,0,2024-02-28T14:56:13.914Z,french_983.wav,0,pull,323,38,3,5,français,m,2,0.2,72.28686739,1.04246937
61334a37ecf0f837ea7d4e74,13,0,2024-02-28T14:56:13.914Z,french_983.wav,0,pull,323,38,3,5,français,m,3,0.3,40.58051416,0.31985263
61334a37ecf0f837ea7d4e74,13,0,2024-02-28T14:56:13.914Z,french_983.wav,0,pull,323,38,3,5,français,m,4,0.4,-24.25700788,0.23068067
61334a37ecf0f837ea7d4e74,13,0,2024-02-28T14:56:13.914Z,french_983.wav,0,pull,323,38,3,5,français,m,5,0.5,71.71663195,1.2336031
61334a37ecf0f837ea7d4e74,13,0,2024-02-28T14:56:13.914Z,french_983.wav,0,pull,323,38,3,5,français,m,6,0.6,-12.96137505,1.36252466
61334a37ecf0f837ea7d4e74,13,0,2024-02-28T14:56:13.914Z,french_983.wav,0,pull,323,38,3,5,français,m,7,0.7,-82.1836976,1.78793687
61334a37ecf0f837ea7d4e74,13,0,2024-02-28T14:56:13.914Z,french_983.wav,0,pull,323,38,3,5,français,m,8,0.8,-24.9069762,0.590606
61334a37ecf0f837ea7d4e74,13,0,2024-02-28T14:56:13.914Z,french_983.wav,0,pull,323,38,3,5,français,m,9,0.9,55.25058614,0.99616144
61334a37ecf0f837ea7d4e74,13,0,2024-02-28T14:56:13.914Z,french_983.wav,0,pull,323,38,3,5,français,m,10,1.0,73.77815743,0.61804154
61334a37ecf0f837ea7d4e74,13,0,2024-02-28T14:56:13.914Z,french_983.wav,0,pull,323,38,3,5,français,m,11,1.1,32.70068021,1.49661667
61334a37ecf0f837ea7d4e74,13,0,2024-02-28T14:56:13.914Z,french_983.wav,0,pull,323,38,3,5,français,m,12,1.14141667,-94.39337182,0.91742292
61334a37ecf0f837ea7d4e74,14,0,2024-02-28T14:56:13.914Z,french_503.wav,0,pull,796,38,3,5,français,m,0,0.0,89.71427056,1.01776628
61334a37ecf0f837ea7d4e74,14,0,2024-02-28T14:56:13.914Z,french_503.wav,0,pull,796,38,3,5,français,m,1,0.1,-70.51005578,1.96713819
61334a37ecf0f837ea7d4e74,14,0,2024-02-28T14:56:13.914Z,french_503.wav,0,pull,796,38,3,5,français,m,2,0.2,75.84374713,1.27326549
61334a37ecf0f837ea7d4e74,14,0,2024-02-28T14:56:13.914Z,french_503.wav,0,pull,796,38,3,5,français,m,3,0.3,-65.96801952,1.01915637
61334a37ecf0f837ea7d4e74,14,0,2024-02-28T14:56:13.914Z,french_503.wav,0,pull,796,38,3,5,français,m,4,0.4,-99.12862023,1.08509297
61334a37ecf0f837ea7d4e74,14,0,2024-02-28T14:56:13.914Z,french_503.wav,0,pull,796,38,3,5,français,m,5,0.5,42.18807517,1.85501182
61334a37ecf0f837ea7d4e74,14,0,2024-02-28T14:56:13.914Z,french_503.wav,0,pull,796,38,3,5,français,m,6,0.6,25.95406096,1.3585005
61334a37ecf0f837ea7d4e74,14,0,2024-02-28T14:56:13.914Z,french_503.wav,0,pull,796,38,3,5,français,m,7,0.7,-40.09314125,0.2752787
61334a37ecf0f837ea7d4e74,14,0,2024-02-28T14:56:13.914Z,french_503.wav,0,pull,796,38,3,5,français,m,8,0.8,44.47277883,0.00986065
61334a37ecf0f837ea7d4e74,14,0,2024-02-28T14:56:13.914Z,french_503.wav,0,pull,796,38,3,5,français,m,9,0.9,16.62214307,1.75352346
61334a37ecf0f837ea7d4e74,14,0,2024-02-28T14:56:13.914Z,french_503.wav,0,pull,796,38,3,5,français,m,10,1.0,77.66452295,0.69056339
61334a37ecf0f837ea7d4e74,14,0,2024-02-28T14:56:13.914Z,french_503.wav,0,pull,796,38,3,5,français,m,11,1.1,-63.87625715,1.66617346
61334a37ecf0f837ea7d4e74,14,0,2024-02-28T14:56:13.914Z,french_503.wav,0,pull,796,38,3,5,français,m,12,1.14141667,-12.54613401,1.22968396
61334a37ecf0f837ea7d4e74,15,0,2024-02-28T14:56:13.914Z,french_579.wav,0,pull,616,38,3,5,français,m,0,0.0,-44.9724905,1.96822281
61334a37ecf0f837ea7d4e74,15,0,2024-02-28T14:56:13.914Z,french_579.wav,0,pull,616,38,3,5,français,m,1,0.1,0.83845953,0.71149274
61334a37ecf0f837ea7d4e74,15,0,2024-02-28T14:56:13.914Z,french_579.wav,0,pull,616,38,3,5,français,m,2,0.2,93.06026355,0.47444189
61334a37ecf0f837ea7d4e74,15,0,2024-02-28T14:56:13.914Z,french_579.wav,0,pull,616,38,3,5,français,m,3,0.3,-62.41374452,1.30095402
61334a37ecf0f837ea7d4e74,15,0,2024-02-28T14:56:13.914Z,french_579.wav,0,pull,616,38,3,5,français,m,4,0.4,20.02213112,1.46488426
61334a37ecf0f837ea7d4e74,15,0,2024-02-28T14:56:13.914Z,french_579.wav,0,pull,616,38,3,5,français,m,5,0.5,-38.5151373,0.97233373
61334a37ecf0f837ea7d4e74,15,0,2024-02-28T14:56:13.914Z,french_579.wav,0,pull,616,38,3,5,français,m,6,0.6,22.08241798,0.80064838
61334a37ecf0f837ea7d4e74,15,0,2024-02-28T14:56:13.914Z,french_579.wav,0,pull,616,38,3,5,français,m,7,0.7,-58.17924339,0.70983162
61334a37ecf0f837ea7d4e74,15,0,2024-02-28T14:56:13.914Z,french_579.wav,0,pull,616,38,3,5,français,m,8,0.8,-33.23197636,0.45331315
61334a37ecf0f837ea7d4e74,15,0,2024-02-28T14:56:13.914Z,french_579.wav,0,pull,616,38,3,5,français,m,9,0.9,46.73979954,0.98403406
61334a37ecf0f837ea7d4e74,15,0,2024-02-28T14:56:13.914Z,french_579.wav,0,pull,616,38,3,5,français,m,10,1.0,-1.66986987,1.54220588
61334a37ecf0f837ea7d4e74,15,0,2024-02-28T14:56:13.914Z,french_579.wav,0,pull,616,38,3,5,français,m,11,1.1,-43.99049691,0.41959049
61334a37ecf0f837ea7d4e74,15,0,2024-02-28T14:56:13.914Z,french_579.wav,0,pull,616,38,3,5,français,m,12,1.14141667,-39.65764058,1.4912741
61334a37ecf0f837ea7d4e74,16,0,2024-02-28T14:56:13.914Z,french_150.wav,0,poule,193,38,3,5,français,m,0,0.0,49.5830128,1.20991715
61334a37ecf0f837ea7d4e74,16,0,2024-02-28T14:56:13.914Z,french_150.wav,0,poule,193,38,3,5,français,m,1,0.1,11.27491146,1.43342457
61334a37ecf0f837ea7d4e74,16,0,2024-02-28T14:56:13.914Z,french_150.wav,0,poule,193,38,3,5,français,m,2,0.2,-23.33006334,0.44319554
61334a37ecf0f837ea7d4e74,16,0,2024-02-28T14:56:13.914Z,french_150.wav,0,poule,193,38,3,5,français,m,3,0.3,-79.70222292,0.38788298
61334a37ecf0f837ea7d4e74,16,0,2024-02-28T14:56:13.914Z,french_150.wav,0,poule,193,38,3,5,français,m,4,0.4,78.5259979,1.68474188
61334a37ecf0f837ea7d4e74,16,0,2024-02-28T14:56:13.914Z,french_150.wav,0,poule,193,38,3,5,français,m,5,0.5,42.68414732,1.76934829
61334a37ecf0f837ea7d4e74,16,0,2024-02-28T14:56:13.914Z,french_150.wav,0,poule,193,38,3,5,français,m,6,0.6,3.3170919,1.49107737
61334a37ecf0f837ea7d4e74,16,0,2024-02-28T14:56:13.914Z,french_150.wav,0,poule,193,38,3,5,français,m,7,0.7,28.43555109,0.95892531
61334a37ecf0f837ea7d4e74,16,0,2024-02-28T14:56:13.914Z,french_150.wav,0,poule,193,38,3,5,français,m,8,0.8,-7.39447574,0.5717496
61334a37ecf0f837ea7d4e74,16,0,2024-02-28T14:56:13.914Z,french_150.wav,0,poule,193,38,3,5,français,m,9,0.9,-98.28221983,1.66411652
61334a37ecf0f837ea7d4e74,16,0,2024-02-28T14:56:13.914Z,french_150.wav,0,poule,193,38,3,5,français,m,10,1.0,46.55565122,0.38718647
61334a37ecf0f837ea7d4e74,16,0,2024-02-28T14:56:13.914Z,french_150.wav,0,poule,193,38,3,5,français,m,11,1.1,-53.12881325,0.22387981
61334a37ecf0f837ea7d4e74,16,0,2024-02-28T14:56:13.914Z,french_150.wav,0,poule,193,38,3,5,français,m,12,1.14141667,87.9365903,1.83499264
61334a37ecf0f837ea7d4e74,17,0,2024-02-28T14:56:13.914Z,french_828.wav,0,poule,373,38,3,5,français,m,0,0.0,8.39332358,0.2673607
61334a37ecf0f837ea7d4e74,17,0,2024-02-28T14:56:13.914Z,french_828.wav,0,poule,373,38,3,5,français,m,1,0.1,80.61990911,0.02283728
61334a37ecf0f837ea7d4e74,17,0,2024-02-28T14:56:13.914Z,french_828.wav,0,poule,373,38,3,5,français,m,2,0.2,48.28656508,0.41985512
61334a37ecf0f837ea7d4e74,17,0,2024-02-28T14:56:13.914Z,french_828.wav,0,poule,373,38,3,5,français,m,3,0.3,15.74168285,0.75217509
61334a37ecf0f837ea7d4e74,17,0,2024-02-28T14:56:13.914Z,french_828.wav,0,poule,373,38,3,5,français,m,4,0.4,27.97157711,0.80736638
61334a37ecf0f837ea7d4e74,17,0,2024-02-28T14:56:13.914Z,french_828.wav,0,poule,373,38,3,5,français,m,5,0.5,-41.85579768,1.11613612
61334a37ecf0f837ea7d4e74,17,0,2024-02-28T14:56:13.914Z,french_828.wav,0,poule,373,38,3,5,français,m,6,0.6,-26.49030235,1.72554015
61334a37ecf0f837ea7d4e74,17,0,2024-02-28T14:56:13.914Z,french_828.wav,0,poule,373,38,3,5,français,m,7,0.7,-37.35033456,1.05250691
61334a37ecf0f837ea7d4e74,17,0,2024-02-28T14:56:13.914Z,french_828.wav,0,poule,373,38,3,5,français,m,8,0.8,-62.87739189,1.13782655
61334a37ecf0f837ea7d4e74,17,0,2024-02-28T14:56:13.914Z,french_828.wav,0,poule,373,38,3,5,français,m,9,0.9,-75.88832024,0.74529135
61334a37ecf0f837ea7d4e74,17,0,2024-02-28T14:56:13.914Z,french_828.wav,0,poule,373,38,3,5,français,m,10,1.0,-30.16406284,1.00224145
61334a37ecf0f837ea7d4e74,17,0,2024-02-28T14:56:13.914Z,french_828.wav,0,poule,373,38,3,5,français,m,11,1.1,-77.81460251,1.25785084
61334a37ecf0f837ea7d4e74,17,0,2024-02-28T14:56:13.914Z,french_828.wav,0,poule,373,38,3,5,français,m,12,1.14141667,-26.11803054,1.77489324
61334a37ecf0f837ea7d4e74,18,0,2024-02-28T14:56:13.914Z,french_538.wav,0,pull,768,38,3,5,français,m,0,0.0,20.57677794,1.38711038
61334a37ecf0f837ea7d4e74,18,0,2024-02-28T14:56:13.914Z,french_538.wav,0,pull,768,38,3,5,français,m,1,0.1,-39.61392236,0.72793815
61334a37ecf0f837ea7d4e74,18,0,2024-02-28T14:56:13.914Z,french_538.wav,0,pull,768,38,3,5,français,m,2,0.2,-45.04759687,0.58138665
61334a37ecf0f837ea7d4e74,18,0,2024-02-28T14:56:13.914Z,french_538.wav,0,pull,768,38,3,5,français,m,3,0.3,13.02336847,0.36012253
61334a37ecf0f837ea7d4e74,18,0,2024-02-28T14:56:13.914Z,french_538.wav,0,pull,768,38,3,5,français,m,4,0.4,90.60925013,1.75461796
61334a37ecf0f837ea7d4e74,18,0,2024-02-28T14:56:13.914Z,french_538.wav,0,pull,768,38,3,5,français,m,5,0.5,-75.04739637,0.9845207
61334a37ecf0f837ea7d4e74,18,0,2024-02-28T14:56:13.914Z,french_538.wav,0,pull,768,38,3,5,français,m,6,0.6,-17.92101924,1.10875334
61334a37ecf0f837ea7d4e74,18,0,2024-02-28T14:56:13.914Z,french_538.wav,0,pull,768,38,3,5,français,m,7,0.7,-84.21353272,1.78005401
61334a37ecf0f837ea7d4e74,18,0,2024-02-28T14:56:13.914Z,french_538.wav,0,pull,768,38,3,5,français,m,8,0.8,47.2379497,0.26796674
61334a37ecf0f837ea7d4e74,18,0,2024-02-28T14:56:13.914Z,french_538.wav,0,pull,768,38,3,5,français,m,9,0.9,-5.11712126,0.97835653
61334a37ecf0f837ea7d4e74,18,0,2024-02-28T14:56:13.914Z,french_538.wav,0,pull,768,38,3,5,français,m,10,1.0,-51.87175563,1.7494376
61334a37ecf0f837ea7d4e74,18,0,2024-02-28T14:56:13.914Z,french_538.wav,0,pull,768,38,3,5,français,m,11,1.1,-23.54809706,0.19527395
61334a37ecf0f837ea7d4e74,18,0,2024-02-28T14:56:13.914Z,french_538.wav,0,pull,768,38,3,5,français,m,12,1.14141667,-19.60047968,0.35274247
61334a37ecf0f837ea7d4e74,19,0,2024-02-28T14:56:13.914Z,french_622.wav,0,poule,235,38,3,5,français,m,0,0.0,21.84597138,0.32027384
61334a37ecf0f837ea7d4e74,19,0,2024-02-28T14:56:13.914Z,french_622.wav,0,poule,235,38,3,5,français,m,1,0.1,20.37277034,1.27666265
61334a37ecf0f837ea7d4e74,19,0,2024-02-28T14:56:13.914Z,french_622.wav,0,poule,235,38,3,5,français,m,2,0.2,-38.05647077,0.76778972
61334a37ecf0f837ea7d4e74,19,0,2024-02-28T14:56:13.914Z,french_622.wav,0,poule,235,38,3,5,français,m,3,0.3,83.17133122,0.10012893
61334a37ecf0f837ea7d4e74,19,0,2024-02-28T14:56:13.914Z,french_622.wav,0,poule,235,38,3,5,français,m,4,0.4,-82.18280061,0.47887233
61334a37ecf0f837ea7d4e74,19,0,2024-02-28T14:56:13.914Z,french_622.wav,0,poule,235,38,3,5,français,m,5,0.5,-51.21955322,1.03838134
61334a37ecf0f837ea7d4e74,19,0,2024-02-28T14:56:13.914Z,french_622.wav,0,poule,235,38,3,5,français,m,6,0.6,49.78945812,0.07555661
61334a37ecf0f837ea7d4e74,19,0,2024-02-28T14:56:13.914Z,french_622.wav,0,poule,235,38,3,5,français,m,7,0.7,-40.51378494,0.75483578
61334a37ecf0f837ea7d4e74,19,0,2024-02-28T14:56:13.914Z,french_622.wav,0,poule,235,38,3,5,français,m,8,0.8,1.41973713,0.71745983
61334a37ecf0f837ea7d4e74,19,0,2024-02-28T14:56:13.914Z,french_622.wav,0,poule,235,38,3,5,français,m,9,0.9,81.5294399,1.47800475
61334a37ecf0f837ea7d4e74,19,0,2024-02-28T14:56:13.914Z,french_622.wav,0,poule,235,38,3,5,français,m,10,1.0,-99.24358897,0.97240811
61334a37ecf0f837ea7d4e74,19,0,2024-02-28T14:56:13.914Z,french_622.wav,0,poule,235,38,3,5,français,m,11,1.1,-33.65546455,0.19261346
61334a37ecf0f837ea7d4e74,19,0,2024-02-28T14:56:13.914Z,french_622.wav,0,poule,235,38,3,5,français,m,12,1.14141667,60.69238013,0.72595773
61334a37ecf0f837ea7d4e74,20,0,2024-02-28T14:56:13.914Z,french_131.wav,0,pull,968,38,3,5,français,m,0,0.0,43.89869303,1.60661373
61334a37ecf0f837ea7d4e74,20,0,2024-02-28T14:56:13.914Z,french_131.wav,0,pull,968,38,3,5,français,m,1,0.1,1.87533794,1.45479188
61334a37ecf0f837ea7d4e74,20,0,2024-02-28T14:56:13.914Z,french_131.wav,0,pull,968,38,3,5,français,m,2,0.2,22.29443787,0.2596898
61334a37ecf0f837ea7d4e74,20,0,2024-02-28T14:56:13.914Z,french_131.wav,0,pull,968,38,3,5,français,m,3,0.3,80.0665813,0.92411688
61334a37ecf0f837ea7d4e74,20,0,2024-02-28T14:56:13.914Z,french_131.wav,0,pull,968,38,3,5,français,m,4,0.4,34.98439119,1.59995731
61334a37ecf0f837ea7d4e74,20,0,2024-02-28T14:56:13.914Z,french_131.wav,0,pull,968,38,3,5,français,m,5,0.5,-5.43009148,1.70569439
61334a37ecf0f837ea7d4e74,20,0,2024-02-28T14:56:13.914Z,french_131.wav,0,pull,968,38,3,5,français,m,6,0.6,51.77910051,0.57553958
61334a37ecf0f837ea7d4e74,20,0,2024-02-28T14:56:13.914Z,french_131.wav,0,pull,968,38,3,5,français,m,7,0.7,16.33164281,0.89044664
61334a37ecf0f837ea7d4e74,20,0,2024-02-28T14:56:13.914Z,french_131.wav,0,pull,968,38,3,5,français,m,8,0.8,2.69660121,0.56880668
61334a37ecf0f837ea7d4e74,20,0,2024-02-28T14:56:13.914Z,french_131.wav,0,pull,968,38,3,5,français,m,9,0.9,67.97713521,0.83892608
61334a37ecf0f837ea7d4e74,20,0,2024-02-28T14:56:13.914Z,french_131.wav,0,pull,968,38,3,5,français,m,10,1.0,-78.89064935,1.1265108
61334a37ecf0f837ea7d4e74,20,0,2024-02-28T14:56:13.914Z,french_131.wav,0,pull,968,38,3,5,français,m,11,1.1,3.66517483,0.22006075
61334a37ecf0f837ea7d4e74,20,0,2024-02-28T14:56:13.914Z,french_131.wav,0,pull,968,38,3,5,français,m,12,1.14141667,28.89118946,0.49062162
61334a37ecf0f837ea7d4e74,21,0,2024-02-28T14:56:13.914Z,french_979.wav,0,poule,336,38,3,5,français,m,0,0.0,-24.59442458,0.55171516
61334a37ecf0f837ea7d4e74,21,0,2024-02-28T14:56:13.914Z,french_979.wav,0,poule,336,38,3,5,français,m,1,0.1,-15.8657423,0.19158122
61334a37ecf0f837ea7d4e74,21,0,2024-02-28T14:56:13.914Z,french_979.wav,0,poule,336,38,3,5,français,m,2,0.2,97.78119819,0.68068188
61334a37ecf0f837ea7d4e74,21,0,2024-02-28T14:56:13.914Z,french_979.wav,0,poule,336,38,3,5,français,m,3,0.3,35.01579285,0.93038859
61334a37ecf0f837ea7d4e74,21,0,2024-02-28T14:56:13.914Z,french_979.wav,0,poule,336,38,3,5,français,m,4,0.4,-50.00154484,0.2451014
61334a37ecf0f837ea7d4e74,21,0,2024-02-28T14:56:13.914Z,french_979.wav,0,poule,336,38,3,5,français,m,5,0.5,-42.29600698,0.21384975
61334a37ecf0f837ea7d4e74,21,0,2024-02-28T14:56:13.914Z,french_979.wav,0,poule,336,38,3,5,français,m,6,0.6,-7.08735451,0.29453199
61334a37ecf0f837ea7d4e74,21,0,2024-02-28T14:56:13.914Z,french_979.wav,0,poule,336,38,3,5,français,m,7,0.7,39.71117799,0.3222649
61334a37ecf0f837ea7d4e74,21,0,2024-02-28T14:56:13.914Z,french_979.wav,0,poule,336,38,3,5,français,m,8,0.8,-78.33069579,0.32976465
61334a37ecf0f837ea7d4e74,21,0,2024-02-28T14:56:13.914Z,french_979.wav,0,poule,336,38,3,5,français,m,9,0.9,42.29148017,1.36759546
61334a37ecf0f837ea7d4e74,21,0,2024-02-28T14:56:13.914Z,french_979.wav,0,poule,336,38,3,5,français,m,10,1.0,-54.65442385,1.78708045
61334a37ecf0f837ea7d4e74,21,0,2024-02-28T14:56:13.914Z,french_979.wav,0,poule,336,38,3,5,français,m,11,1.1,96.05241264,1.41932108
61334a37ecf0f837ea7d4e74,21,0,2024-02-28T14:56:13.914Z,french_979.wav,0,poule,336,38,3,5,français,m,12,1.14141667,-91.35915117,1.03513559
61334a37ecf0f837ea7d4e74,22,0,2024-02-28T14:56:13.914Z,french_754.wav,0,poule,917,38,3,5,français,m,0,0.0,-84.307761,1.73493973
61334a37ecf0f837ea7d4e74,22,0,2024-02-28T14:56:13.914Z,french_754.wav,0,poule,917,38,3,5,français,m,1,0.1,-47.62124767,1.3102964
61334a37ecf0f837ea7d4e74,22,0,2024-02-28T14:56:13.914Z,french_754.wav,0,poule,917,38,3,5,français,m,2,0.2,-12.79145766,0.59352597
61334a37ecf0f837ea7d4e74,22,0,2024-02-28T14:56:13.914Z,french_754.wav,0,poule,917,38,3,5,français,m,3,0.3,-31.8164057,1.7032681
61334a37ecf0f837ea7d4e74,22,0,2024-02-28T14:56:13.914Z,french_754.wav,0,poule,917,38,3,5,français,m,4,0.4,-8.66758057,0.18685858
61334a37ecf0f837ea7d4e74,22,0,2024-02-28T14:56:13.914Z,french_754.wav,0,poule,917,38,3,5,français,m,5,0.5,-39.98987583,0.87140851
61334a37ecf0f837ea7d4e74,22,0,2024-02-28T14:56:13.914Z,french_754.wav,0,poule,917,38,3,5,français,m,6,0.6,85.58862918,1.09552436
61334a37ecf0f837ea7d4e74,22,0,2024-02-28T14:56:13.914Z,french_754.wav,0,poule,917,38,3,5,français,m,7,0.7,28.85356743,0.38483895
61334a37ecf0f837ea7d4e74,22,0,2024-02-28T14:56:13.914Z,french_754.wav,0,poule,917,38,3,5,français,m,8,0.8,8.72964996,1.64570353
61334a37ecf0f837ea7d4e74,22,0,2024-02-28T14:56:13.914Z,french_754.wav,0,poule,917,38,3,5,français,m,9,0.9,-60.08793264,1.67708663
61334a37ecf0f837ea7d4e74,22,0,2024-02-28T14:56:13.914Z,french_754.wav,0,poule,917,38,3,5,français,m,10,1.0,51.79044132,0.3181758
61334a37ecf0f837ea7d4e74,22,0,2024-02-28T14:56:13.914Z,french_754.wav,0,poule,917,38,3,5,français,m,11,1.1,91.281273,0.66657575
61334a37ecf0f837ea7d4e74,22,0,2024-02-28T14:56:13.914Z,french_754.wav,0,poule,917,38,3,5,français,m,12,1.14141667,-82.03639439,1.25795178
61334a37ecf0f837ea7d4e74,23,0,2024-02-28T14:56:13.914Z,french_553.wav,0,pull,495,38,3,5,français,m,0,0.0,57.11997381,0.90900436
61334a37ecf0f837ea7d4e74,23,0,2024-02-28T14:56:13.914Z,french_553.wav,0,pull,495,38,3,5,français,m,1,0.1,-32.53722502,1.02881702
61334a37ecf0f837ea7d4e74,23,0,2024-02-28T14:56:13.914Z,french_553.wav,0,pull,495,38,3,5,français,m,2,0.2,-87.28109772,1.91577474
61334a37ecf0f837ea7d4e74,23,0,2024-02-28T14:56:13.914Z,french_553.wav,0,pull,495,38,3,5,français,m,3,0.3,-27.51150216,1.84689949
61334a37ecf0f837ea7d4e74,23,0,2024-02-28T14:56:13.914Z,french_553.wav,0,pull,495,38,3,5,français,m,4,0.4,82.51849705,0.82658903
61334a37ecf0f837ea7d4e74,23,0,2024-02-28T14:56:13.914Z,french_553.wav,0,pull,495,38,3,5,français,m,5,0.5,-2.05823162,0.12969693
61334a37ecf0f837ea7d4e74,23,0,2024-02-28T14:56:13.914Z,french_553.wav,0,pull,495,38,3,5,français,m,6,0.6,87.22176329,0.8683285
61334a37ecf0f837ea7d4e74,23,0,2024-02-28T14:56:13.914Z,french_553.wav,0,pull,495,38,3,5,français,m,7,0.7,21.26654891,0.55394795
61334a37ecf0f837ea7d4e74,23,0,2024-02-28T14:56:13.914Z,french_553.wav,0,pull,495,38,3,5,français,m,8,0.8,5.0205633,0.61832745
61334a37ecf0f837ea7d4e74,23,0,2024-02-28T14:56:13.914Z,french_553.wav,0,pull,495,38,3,5,français,m,9,0.9,-15.12387939,0.27087234
61334a37ecf0f837ea7d4e74,23,0,2024-02-28T14:56:13.914Z,french_553.wav,0,pull,495,38,3,5,français,m,10,1.0,-30.58863074,0.73142715
61334a37ecf0f837ea7d4e74,23,0,2024-02-28T14:56:13.914Z,french_553.wav,0,pull,495,38,3,5,français,m,11,1.1,-22.19258408,1.63938035
61334a37ecf0f837ea7d4e74,23,0,2024-02-28T14:56:13.914Z,french_553.wav,0,pull,495,38,3,5,français,m,12,1.14141667,11.14114277,0.86419781
61334a37ecf0f837ea7d4e74,24,0,2024-02-28T14:56:13.914Z,french_112.wav,0,pull,511,38,3,5,français,m,0,0.0,-8.67519004,0.05511238
61334a37ecf0f837ea7d4e74,24,0,2024-02-28T14:56:13.914Z,french_112.wav,0,pull,511,38,3,5,français,m,1,0.1,92.32686685,0.5303996
61334a37ecf0f837ea7d4e74,24,0,2024-02-28T14:56:13.914Z,french_112.wav,0,pull,511,38,3,5,français,m,2,0.2,-90.11400299,1.12381403
61334a37ecf0f837ea7d4e74,24,0,2024-02-28T14:56:13.914Z,french_112.wav,0,pull,511,38,3,5,français,m,3,0.3,-70.26652749,0.96995279
61334a37ecf0f837ea7d4e74,24,0,2024-02-28T14:56:13.914Z,french_112.wav,0,pull,511,38,3,5,français,m,4,0.4,90.1952046,1.443926
61334a37ecf0f837ea7d4e74,24,0,2024-02-28T14:56:13.914Z,french_112.wav,0,pull,511,38,3,5,français,m,5,0.5,-18.57411381,0.7152831
61334a37ecf0f837ea7d4e74,24,0,2024-02-28T14:56:13.914Z,french_112.wav,0,pull,511,38,3,5,français,m,6,0.6,87.02651396,1.98165732
61334a37ecf0f837ea7d4e74,24,0,2024-02-28T14:56:13.914Z,french_112.wav,0,pull,511,38,3,5,français,m,7,0.7,74.95745067,1.64696502
61334a37ecf0f837ea7d4e74,24,0,2024-02-28T14:56:13.914Z,french_112.wav,0,pull,511,38,3,5,français,m,8,0.8,-76.86566846,0.33650489
61334a37ecf0f837ea7d4e74,24,0,2024-02-28T14:56:13.914Z,french_112.wav,0,pull,511,38,3,5,français,m,9,0.9,-17.37300567,0.64053091
61334a37ecf0f837ea7d4e74,24,0,2024-02-28T14:56:13.914Z,french_112.wav,0,pull,511,38,3,5,français,m,10,1.0,66.02082776,1.69815657
61334a37ecf0f837ea7d4e74,24,0,2024-02-28T14:56:13.914Z,french_112.wav,0,pull,511,38,3,5,français,m,11,1.1,74.04162453,1.28891834
61334a37ecf0f837ea7d4e74,24,0,2024-02-28T14:56:13.914Z,french_112.wav,0,pull,511,38,3,5,français,m,12,1.14141667,30.79891374,1.86060704
61334a37ecf0f837ea7d4e74,25,0,2024-02-28T14:56:13.914Z,french_614.wav,0,poule,262,38,3,5,français,m,0,0.0,-98.91219047,0.85030025
61334a37ecf0f837ea7d4e74,25,0,2024-02-28T14:56:13.914Z,french_614.wav,0,poule,262,38,3,5,français,m,1,0.1,22.70180807,1.54641479
61334a37ecf0f837ea7d4e74,25,0,2024-02-28T14:56:13.914Z,french_614.wav,0,poule,262,38,3,5,français,m,2,0.2,-50.76605046,1.59021247
61334a37ecf0f837ea7d4e74,25,0,2024-02-28T14:56:13.914Z,french_614.wav,0,poule,262,38,3,5,français,m,3,0.3,-65.24359314,0.79354452
61334a37ecf0f837ea7d4e74,25,0,2024-02-28T14:56:13.914Z,french_614.wav,0,poule,262,38,3,5,français,m,4,0.4,-49.3351696,0.96259511
61334a37ecf0f837ea7d4e74,25,0,2024-02-28T14:56:13.914Z,french_614.wav,0,poule,262,38,3,5,français,m,5,0.5,24.21080922,1.67132683
61334a37ecf0f837ea7d4e74,25,0,2024-02-28T14:56:13.914Z,french_614.wav,0,poule,262,38,3,5,français,m,6,0.6,3.43966526,0.01415487
61334a37ecf0f837ea7d4e74,25,0,2024-02-28T14:56:13.914Z,french_614.wav,0,poule,262,38,3,5,français,m,7,0.7,-58.56128696,1.9665878
61334a37ecf0f837ea7d4e74,25,0,2024-02-28T14:56:13.914Z,french_614.wav,0,poule,262,38,3,5,français,m,8,0.8,66.77342814,0.8584981
61334a37ecf0f837ea7d4e74,25,0,2024-02-28T14:56:13.914Z,french_614.wav,0,poule,262,38,3,5,français,m,9,0.9,-64.90742311,1.31118079
61334a37ecf0f837ea7d4e74,25,0,2024-02-28T14:56:13.914Z,french_614.wav,0,poule,262,38,3,5,français,m,10,1.0,10.51346609,1.27811354
61334a37ecf0f837ea7d4e74,25,0,2024-02-28T14:56:13.914Z,french_614.wav,0,poule,262,38,3,5,français,m,11,1.1,-68.79164896,1.21751263
61334a37ecf0f837ea7d4e74,25,0,2024-02-28T14:56:13.914Z,french_614.wav,0,poule,262,38,3,5,français,m,12,1.14141667,34.78402703,0.04843522
61334a37ecf0f837ea7d4e74,26,0,2024-02-28T14:56:13.914Z,french_526.wav,0,poule,163,38,3,5,français,m,0,0.0,-3.34213948,0.40974575
61334a37ecf0f837ea7d4e74,26,0,2024-02-28T14:56:13.914Z,french_526.wav,0,poule,163,38,3,5,français,m,1,0.1,-38.63024981,0.80270001
61334a37ecf0f837ea7d4e74,26,0,2024-02-28T14:56:13.914Z,french_526.wav,0,poule,163,38,3,5,français,m,2,0.2,93.21737658,0.74121325
61334a37ecf0f837ea7d4e74,26,0,2024-02-28T14:56:13.914Z,french_526.wav,0,poule,163,38,3,5,français,m,3,0.3,-71.56714532,1.50939527
61334a37ecf0f837ea7d4e74,26,0,2024-02-28T14:56:13.914Z,french_526.wav,0,poule,163,38,3,5,français,m,4,0.4,55.55298997,0.92463097
61334a37ecf0f837ea7d4e74,26,0,2024-02-28T14:56:13.914Z,french_526.wav,0,poule,163,38,3,5,français,m,5,0.5,-90.65516394,1.64741989
61334a37ecf0f837ea7d4e74,26,0,2024-02-28T14:56:13.914Z,french_526.wav,0,poule,163,38,3,5,français,m,6,0.6,67.30065147,0.25308429
61334a37ecf0f837ea7d4e74,26,0,2024-02-28T14:56:13.914Z,french_526.wav,0,poule,163,38,3,5,français,m,7,0.7,-92.19460914,0.31675775
61334a37ecf0f837ea7d4e74,26,0,2024-02-28T14:56:13.914Z,french_526.wav,0,poule,163,38,3,5,français,m,8,0.8,-61.42846186,1.60624507
61334a37ecf0f837ea7d4e74,26,0,2024-02-28T14:56:13.914Z,french_526.wav,0,poule,163,38,3,5,français,m,9,0.9,-71.57092401,1.37847828
61334a37ecf0f837ea7d4e74,26,0,2024-02-28T14:56:13.914Z,french_526.wav,0,poule,163,38,3,5,français,m,10,1.0,-1.13377121,1.26755978
61334a37ecf0f837ea7d4e74,26,0,2024-02-28T14:56:13.914Z,french_526.wav,0,poule,163,38,3,5,français,m,11,1.1,79.13585044,1.65811532
61334a37ecf0f837ea7d4e74,26,0,2024-02-28T14:56:13.914Z,french_526.wav,0,poule,163,38,3,5,français,m,12,1.14141667,-60.54584427,1.5361609
61334a37ecf0f837ea7d4e74,27,0,2024-02-28T14:56:13.914Z,french_821.wav,0,pull,1615,38,3,5,français,m,0,0.0,29.40484442,0.95426299
61334a37ecf0f837ea7d4e74,27,0,2024-02-28T14:56:13.914Z,french_821.wav,0,pull,1615,38,3,5,français,m,1,0.1,-82.9706924,1.5819304
61334a37ecf0f837ea7d4e74,27,0,2024-02-28T14:56:13.914Z,french_821.wav,0,pull,1615,38,3,5,français,m,2,0.2,-20.36055848,0.87869467
61334a37ecf0f837ea7d4e74,27,0,2024-02-28T14:56:13.914Z,french_821.wav,0,pull,1615,38,3,5,français,m,3,0.3,70.67916019,1.08099797
61334a37ecf0f837ea7d4e74,27,0,2024-02-28T14:56:13.914Z,french_821.wav,0,pull,1615,38,3,5,français,m,4,0.4,97.39088207,0.67073914
61334a37ecf0f837ea7d4e74,27,0,2024-02-28T14:56:13.914Z,french_821.wav,0,pull,1615,38,3,5,français,m,5,0.5,-30.70591252,0.41474844
61334a37ecf0f837ea7d4e74,27,0,2024-02-28T14:56:13.914Z,french_821.wav,0,pull,1615,38,3,5,français,m,6,0.6,-3.37730477,1.79777915
61334a37ecf0f837ea7d4e74,27,0,2024-02-28T14:56:13.914Z,french_821.wav,0,pull,1615,38,3,5,français,m,7,0.7,-0.47603145,0.30685212
61334a37ecf0f837ea7d4e74,27,0,2024-02-28T14:56:13.914Z,french_821.wav,0,pull,1615,38,3,5,français,m,8,0.8,-91.88596282,1.93131035
61334a37ecf0f837ea7d4e74,27,0,2024-02-28T14:56:13.914Z,french_821.wav,0,pull,1615,38,3,5,français,m,9,0.9,98.16537349,0.96154714
61334a37ecf0f837ea7d4e74,27,0,2024-02-28T14:56:13.914Z,french_821.wav,0,pull,1615,38,3,5,français,m,10,1.0,-18.87996809,1.35337515
61334a37ecf0f837ea7d4e74,27,0,2024-02-28T14:56:13.914Z,french_821.wav,0,pull,1615,38,3,5,français,m,11,1.1,-47.32913681,1.56630163
61334a37ecf0f837ea7d4e74,27,0,2024-02-28T14:56:13.914Z,french_821.wav,0,pull,1615,38,3,5,français,m,12,1.14141667,-49.13726548,0.77030274
61334a37ecf0f837ea7d4e74,28,0,2024-02-28T14:56:13.914Z,french_285.wav,0,poule,145,38,3,5,français,m,0,0.0,-67.57072599,0.37904843
61334a37ecf0f837ea7d4e74,28,0,2024-02-28T14:56:13.914Z,french_285.wav,0,poule,145,38,3,5,français,m,1,0.1,84.43540763,0.12399617
61334a37ecf0f837ea7d4e74,28,0,2024-02-28T14:56:13.914Z,french_285.wav,0,poule,145,38,3,5,français,m,2,0.2,85.85677823,0.94810797
61334a37ecf0f837ea7d4e74,28,0,2024-02-28T14:56:13.914Z,french_285.wav,0,poule,145,38,3,5,français,m,3,0.3,-51.1358312,0.32864625
61334a37ecf0f837ea7d4e74,28,0,2024-02-28T14:56:13.914Z,french_285.wav,0,poule,145,38,3,5,français,m,4,0.4,1.86504598,1.19097279
61334a37ecf0f837ea7d4e74,28,0,2024-02-28T14:56:13.914Z,french_285.wav,0,poule,145,38,3,5,français,m,5,0.5,-60.64566772,1.05097031
61334a37ecf0f837ea7d4e74,28,0,2024-02-28T14:56:13.914Z,french_285.wav,0,poule,145,38,3,5,français,m,6,0.6,99.34914542,0.36311382
61334a37ecf0f837ea7d4e74,28,0,2024-02-28T14:56:13.914Z,french_285.wav,0,poule,145,38,3,5,français,m,7,0.7,7.44874037,0.61278289
61334a37ecf0f837ea7d4e74,28,0,2024-02-28T14:56:13.914Z,french_285.wav,0,poule,145,38,3,5,français,m,8,0.8,-82.24182328,1.20299316
61334a37ecf0f837ea7d4e74,28,0,2024-02-28T14:56:13.914Z,french_285.wav,0,poule,145,38,3,5,français,m,9,0.9,24.56172418,1.09809905
61334a37ecf0f837ea7d4e74,28,0,2024-02-28T14:56:13.914Z,french_285.wav,0,poule,145,38,3,5,français,m,10,1.0,8.87987036,1.68130662
61334a37ecf0f837ea7d4e74,28,0,2024-02-28T14:56:13.914Z,french_285.wav,0,poule,145,38,3,5,français,m,11,1.1,12.90602373,0.87422743
61334a37ecf0f837ea7d4e74,28,0,2024-02-28T14:56:13.914Z,french_285.wav,0,poule,145,38,3,5,français,m,12,1.14141667,72.88869787,1.98915228
61334a37ecf0f837ea7d4e74,29,0,2024-02-28T14:56:13.914Z,french_333.wav,0,poule,2039,38,3,5,français,m,0,0.0,-20.77044182,1.43629895
61334a37ecf0f837ea7d4e74,29,0,2024-02-28T14:56:13.914Z,french_333.wav,0,poule,2039,38,3,5,français,m,1,0.1,26.03274788,0.14363016
61334a37ecf0f837ea7d4e74,29,0,2024-02-28T14:56:13.914Z,french_333.wav,0,poule,2039,38,3,5,français,m,2,0.2,44.25680739,0.99533055
61334a37ecf0f837ea7d4e74,29,0,2024-02-28T14:56:13.914Z,french_333.wav,0,poule,2039,38,3,5,français,m,3,0.3,54.84607734,1.58313255
61334a37ecf0f837ea7d4e74,29,0,2024-02-28T14:56:13.914Z,french_333.wav,0,poule,2039,38,3,5,français,m,4,0.4,-84.70319837,0.87601018
61334a37ecf0f837ea7d4e74,29,0,2024-02-28T14:56:13.914Z,french_333.wav,0,poule,2039,38,3,5,français,m,5,0.5,50.88930926,1.3608632
61334a37ecf0f837ea7d4e74,29,0,2024-02-28T14:56:13.914Z,french_333.wav,0,poule,2039,38,3,5,français,m,6,0.6,91.49561161,1.05674693
61334a37ecf0f837ea7d4e74,29,0,2024-02-28T14:56:13.914Z,french_333.wav,0,poule,2039,38,3,5,français,m,7,0.7,-79.27192118,0.56286184
61334a37ecf0f837ea7d4e74,29,0,2024-02-28T14:56:13.914Z,french_333.wav,0,poule,2039,38,3,5,français,m,8,0.8,-16.30652355,1.24047364
61334a37ecf0f837ea7d4e74,29,0,2024-02-28T14:56:13.914Z,french_333.wav,0,poule,2039,38,3,5,français,m,9,0.9,-46.58669152,0.80209834
61334a37ecf0f837ea7d4e74,29,0,2024-02-28T14:56:13.914Z,french_333.wav,0,poule,2039,38,3,5,français,m,10,1.0,92.33152656,0.198323
61334a37ecf0f837ea7d4e74,29,0,2024-02-28T14:56:13.914Z,french_333.wav,0,poule,2039,38,3,5,français,m,11,1.1,53.35128711,1.38035768
61334a37ecf0f837ea7d4e74,29,0,2024-02-28T14:56:13.914Z,french_333.wav,0,poule,2039,38,3,5,français,m,12,1.14141667,-31.95559671,0.94952553
61334a37ecf0f837ea7d4e74,30,0,2024-02-28T14:56:13.914Z,french_847.wav,0,pull,947,38,3,5,français,m,0,0.0,24.30464293,1.42157188
61334a37ecf0f837ea7d4e74,30,0,2024-02-28T14:56:13.914Z,french_847.wav,0,pull,947,38,3,5,français,m,1,0.1,80.06267567,1.72679545
61334a37ecf0f837ea7d4e74,30,0,2024-02-28T14:56:13.914Z,french_847.wav,0,pull,947,38,3,5,français,m,2,0.2,49.14872517,0.73959124
61334a37ecf0f837ea7d4e74,30,0,2024-02-28T14:56:13.914Z,french_847.wav,0,pull,947,38,3,5,français,m,3,0.3,31.44422606,1.62606871
61334a37ecf0f837ea7d4e74,30,0,2024-02-28T14:56:13.914Z,french_847.wav,0,pull,947,38,3,5,français,m,4,0.4,-22.08154628,1.12324288
61334a37ecf0f837ea7d4e74,30,0,2024-02-28T14:56:13.914Z,french_847.wav,0,pull,947,38,3,5,français,m,5,0.5,-28.01893953,1.49566705
61334a37ecf0f837ea7d4e74,30,0,2024-02-28T14:56:13.914Z,french_847.wav,0,pull,947,38,3,5,français,m,6,0.6,20.29474352,0.91317844
61334a37ecf0f837ea7d4e74,30,0,2024-02-28T14:56:13.914Z,french_847.wav,0,pull,947,38,3,5,français,m,7,0.7,-48.19032453,0.576592
61334a37ecf0f837ea7d4e74,30,0,2024-02-28T14:56:13.914Z,french_847.wav,0,pull,947,38,3,5,français,m,8,0.8,85.37090763,0.46825986
61334a37ecf0f837ea7d4e74,30,0,2024-02-28T14:56:13.914Z,french_847.wav,0,pull,947,38,3,5,français,m,9,0.9,76.48288011,0.69487608
61334a37ecf0f837ea7d4e74,30,0,2024-02-28T14:56:13.914Z,french_847.wav,0,pull,947,38,3,5,français,m,10,1.0,31.27306086,1.75885754
61334a37ecf0f837ea7d4e74,30,0,2024-02-28T14:56:13.914Z,french_847.wav,0,pull,947,38,3,5,français,m,11,1.1,-93.83311369,0.02337565
61334a37ecf0f837ea7d4e74,30,0,2024-02-28T14:56:13.914Z,french_847.wav,0,pull,947,38,3,5,français,m,12,1.14141667,62.38115445,0.25458074
61334a37ecf0f837ea7d4e74,31,0,2024-02-28T14:56:13.914Z,french_621.wav,0,poule,651,38,3,5,français,m,0,0.0,-83.30768606,1.07149665
61334a37ecf0f837ea7d4e74,31,0,2024-02-28T14:56:13.914Z,french_621.wav,0,poule,651,38,3,5,français,m,1,0.1,62.12996189,0.08142527
61334a37ecf0f837ea7d4e74,31,0,2024-02-28T14:56:13.914Z,french_621.wav,0,poule,651,38,3,5,français,m,2,0.2,-3.96879709,0.69078224
61334a37ecf0f837ea7d4e74,31,0,2024-02-28T14:56:13.914Z,french_621.wav,0,poule,651,38,3,5,français,m,3,0.3,-28.68467377,1.63834532
61334a37ecf0f837ea7d4e74,31,0,2024-02-28T14:56:13.914Z,french_621.wav,0,poule,651,38,3,5,français,m,4,0.4,64.37913974,0.65746959
61334a37ecf0f837ea7d4e74,31,0,2024-02-28T14:56:13.914Z,french_621.wav,0,poule,651,38,3,5,français,m,5,0.5,-24.77979547,1.44089833
61334a37ecf0f837ea7d4e74,31,0,2024-02-28T14:56:13.914Z,french_621.wav,0,poule,651,38,3,5,français,m,6,0.6,-57.28233071,1.05836731
61334a37ecf0f837ea7d4e74,31,0,2024-02-28T14:56:13.914Z,french_621.wav,0,poule,651,38,3,5,français,m,7,0.7,26.41618361,1.09302896
61334a37ecf0f837ea7d4e74,31,0,2024-02-28T14:56:13.914Z,french_621.wav,0,poule,651,38,3,5,français,m,8,0.8,-28.5927545,0.67374417
61334a37ecf0f837ea7d4e74,31,0,2024-02-28T14:56:13.914Z,french_621.wav,0,poule,651,38,3,5,français,m,9,0.9,50.0436783,0.87992825
61334a37ecf0f837ea7d4e74,31,0,2024-02-28T14:56:13.914Z,french_621.wav,0,poule,651,38,3,5,français,m,10,1.0,-83.09259596,1.11179321
61334a37ecf0f837ea7d4e74,31,0,2024-02-28T14:56:13.914Z,french_621.wav,0,poule,651,38,3,5,français,m,11,1.1,6.81134339,0.15174121
61334a37ecf0f837ea7d4e74,31,0,2024-02-28T14:56:13.914Z,french_621.wav,0,poule,651,38,3,5,français,m,12,1.14141667,-67.94941219,0.96307082
61334a37ecf0f837ea7d4e74,32,0,2024-02-28T14:56:13.914Z,french_626.wav,0,pull,498,38,3,5,français,m,0,0.0,10.19360292,0.93552428
61334a37ecf0f837ea7d4e74,32,0,2024-02-28T14:56:13.914Z,french_626.wav,0,pull,498,38,3,5,français,m,1,0.1,82.13961964,1.5639108
61334a37ecf0f837ea7d4e74,32,0,2024-02-28T14:56:13.914Z,french_626.wav,0,pull,498,38,3,5,français,m,2,0.2,-91.88565353,0.54149797
61334a37ecf0f837ea7d4e74,32,0,2024-02-28T14:56:13.914Z,french_626.wav,0,pull,498,38,3,5,français,m,3,0.3,-30.24557652,1.77619129
61334a37ecf0f837ea7d4e74,32,0,2024-02-28T14:56:13.914Z,french_626.wav,0,pull,498,38,3,5,français,m,4,0.4,-43.59153267,1.46344574
61334a37ecf0f837ea7d4e74,32,0,2024-02-28T14:56:13.914Z,french_626.wav,0,pull,498,38,3,5,français,m,5,0.5,-15.21775232,0.20286753
61334a37ecf0f837ea7d4e74,32,0,2024-02-28T14:56:13.914Z,french_626.wav,0,pull,498,38,3,5,français,m,6,0.6,37.21649368,1.6090377
61334a37ecf0f837ea7d4e74,32,0,2024-02-28T14:56:13.914Z,french_626.wav,0,pull,498,38,3,5,français,m,7,0.7,57.1809589,1.90666988
61334a37ecf0f837ea7d4e74,32,0,2024-02-28T14:56:13.914Z,french_626.wav,0,pull,498,38,3,5,français,m,8,0.8,-44.2684999,1.70214312
61334a37ecf0f837ea7d4e74,32,0,2024-02-28T14:56:13.914Z,french_626.wav,0,pull,498,38,3,5,français,m,9,0.9,16.56515744,0.19372922
61334a37ecf0f837ea7d4e74,32,0,2024-02-28T14:56:13.914Z,french_626.wav,0,pull,498,38,3,5,français,m,10,1.0,-45.54877222,0.55446441
61334a37ecf0f837ea7d4e74,32,0,2024-02-28T14:56:13.914Z,french_626.wav,0,pull,498,38,3,5,français,m,11,1.1,41.50051327,0.42094173
61334a37ecf0f837ea7d4e74,32,0,2024-02-28T14:56:13.914Z,french_626.wav,0,pull,498,38,3,5,français,m,12,1.14141667,-53.34907956,1.23447696
61334a37ecf0f837ea7d4e74,33,0,2024-02-28T14:56:13.914Z,french_466.wav,0,poule,255,38,3,5,français,m,0,0.0,-23.27991826,1.52804132
61334a37ecf0f837ea7d4e74,33,0,2024-02-28T14:56:13.914Z,french_466.wav,0,poule,255,38,3,5,français,m,1,0.1,97.23850922,0.01047206
61334a37ecf0f837ea7d4e74,33,0,2024-02-28T14:56:13.914Z,french_466.wav,0,poule,255,38,3,5,français,m,2,0.2,-96.9465149,1.6544422
61334a37ecf0f837ea7d4e74,33,0,2024-02-28T14:56:13.914Z,french_466.wav,0,poule,255,38,3,5,français,m,3,0.3,-86.96925433,1.82991551
61334a37ecf0f837ea7d4e74,33,0,2024-02-28T14:56:13.914Z,french_466.wav,0,poule,255,38,3,5,français,m,4,0.4,2.85783603,0.86899364
61334a37ecf0f837ea7d4e74,33,0,2024-02-28T14:56:13.914Z,french_466.wav,0,poule,255,38,3,5,français,m,5,0.5,95.91347723,1.25331213
61334a37ecf0f837ea7d4e74,33,0,2024-02-28T14:56:13.914Z,french_466.wav,0,poule,255,38,3,5,français,m,6,0.6,-63.35172498,1.68509567
61334a37ecf0f837ea7d4e74,33,0,2024-02-28T14:56:13.914Z,french_466.wav,0,poule,255,38,3,5,français,m,7,0.7,-25.95383213,1.20636117
61334a37ecf0f837ea7d4e74,33,0,2024-02-28T14:56:13.914Z,french_466.wav,0,poule,255,38,3,5,français,m,8,0.8,-52.59375309,0.84252752
61334a37ecf0f837ea7d4e74,33,0,2024-02-28T14:56:13.914Z,french_466.wav,0,poule,255,38,3,5,français,m,9,0.9,-70.79178645,1.91154977
61334a37ecf0f837ea7d4e74,33,0,2024-02-28T14:56:13.914Z,french_466.wav,0,poule,255,38,3,5,français,m,10,1.0,-29.48964846,0.45592683
61334a37ecf0f837ea7d4e74,33,0,2024-02-28T14:56:13.914Z,french_466.wav,0,poule,255,38,3,5,français,m,11,1.1,-52.94204961,0.35898479
61334a37ecf0f837ea7d4e74,33,0,2024-02-28T14:56:13.914Z,french_466.wav,0,poule,255,38,3,5,français,m,12,1.14141667,46.57113475,1.03194217
61334a37ecf0f837ea7d4e74,34,0,2024-02-28T14:56:13.914Z,french_853.wav,0,poule,287,38,3,5,français,m,0,0.0,-35.85509781,0.87912281
61334a37ecf0f837ea7d4e74,34,0,2024-02-28T14:56:13.914Z,french_853.wav,0,poule,287,38,3,5,français,m,1,0.1,-85.16852279,1.60362916
61334a37ecf0f837ea7d4e74,34,0,2024-02-28T14:56:13.914Z,french_853.wav,0,poule,287,38,3,5,français,m,2,0.2,43.35151906,0.05367398
61334a37ecf0f837ea7d4e74,34,0,2024-02-28T14:56:13.914Z,french_853.wav,0,poule,287,38,3,5,français,m,3,0.3,-36.27408381,1.0932021
61334a37ecf0f837ea7d4e74,34,0,2024-02-28T14:56:13.914Z,french_853.wav,0,poule,287,38,3,5,français,m,4,0.4,48.36174943,0.145173
61334a37ecf0f837ea7d4e74,34,0,2024-02-28T14:56:13.914Z,french_853.wav,0,poule,287,38,3,5,français,m,5,0.5,15.35458122,0.56043792
61334a37ecf0f837ea7d4e74,34,0,2024-02-28T14:56:13.914Z,french_853.wav,0,poule,287,38,3,5,français,m,6,0.6,90.63917047,0.33756351
61334a37ecf0f837ea7d4e74,34,0,2024-02-28T14:56:13.914Z,french_853.wav,0,poule,287,38,3,5,français,m,7,0.7,-25.85237464,1.25653162
61334a37ecf0f837ea7d4e74,34,0,2024-02-28T14:56:13.914Z,french_853.wav,0,poule,287,38,3,5,français,m,8,0.8,70.77908005,0.37110217
61334a37ecf0f837ea7d4e74,34,0,2024-02-28T14:56:13.914Z,french_853.wav,0,poule,287,38,3,5,français,m,9,0.9,38.87803449,0.9869935
61334a37ecf0f837ea7d4e74,34,0,2024-02-28T14:56:13.914Z,french_853.wav,0,poule,287,38,3,5,français,m,10,1.0,-78.6315789,1.45701755
61334a37ecf0f837ea7d4e74,34,0,2024-02-28T14:56:13.914Z,french_853.wav,0,poule,287,38,3,5,français,m,11,1.1,-2.04968734,1.50454965
61334a37ecf0f837ea7d4e74,34,0,2024-02-28T14:56:13.914Z,french_853.wav,0,poule,287,38,3,5,français,m,12,1.14141667,-46.31602044,1.33087312
61334a37ecf0f837ea7d4e74,35,0,2024-02-28T14:56:13.914Z,french_545.wav,0,pull,1224,38,3,5,français,m,0,0.0,11.59350968,0.78726405
61334a37ecf0f837ea7d4e74,35,0,2024-02-28T14:56:13.914Z,french_545.wav,0,pull,1224,38,3,5,français,m,1,0.1,40.81107613,1.79331487
61334a37ecf0f837ea7d4e74,35,0,2024-02-28T14:56:13.914Z,french_545.wav,0,pull,1224,38,3,5,français,m,2,0.2,-15.1904996,0.91103842
61334a37ecf0f837ea7d4e74,35,0,2024-02-28T14:56:13.914Z,french_545.wav,0,pull,1224,38,3,5,français,m,3,0.3,89.24451679,1.66546006
61334a37ecf0f837ea7d4e74,35,0,2024-02-28T14:56:13.914Z,french_545.wav,0,pull,1224,38,3,5,français,m,4,0.4,-35.68541546,0.53464919
61334a37ecf0f837ea7d4e74,35,0,2024-02-28T14:56:13.914Z,french_545.wav,0,pull,1224,38,3,5,français,m,5,0.5,92.69842634,1.51644435
61334a37ecf0f837ea7d4e74,35,0,2024-02-28T14:56:13.914Z,french_545.wav,0,pull,1224,38,3,5,français,m,6,0.6,-52.28509248,0.98448653
61334a37ecf0f837ea7d4e74,35,0,2024-02-28T14:56:13.914Z,french_545.wav,0,pull,1224,38,3,5,français,m,7,0.7,1.93852767,1.205197
61334a37ecf0f837ea7d4e74,35,0,2024-02-28T14:56:13.914Z,french_545.wav,0,pull,1224,38,3,5,français,m,8,0.8,-10.33641694,0.28061757
61334a37ecf0f837ea7d4e74,35,0,2024-02-28T14:56:13.914Z,french_545.wav,0,pull,1224,38,3,5,français,m,9,0.9,34.36690201,0.51699626
61334a37ecf0f837ea7d4e74,35,0,2024-02-28T14:56:13.914Z,french_545.wav,0,pull,1224,38,3,5,français,m,10,1.0,-77.64706819,0.47222197
61334a37ecf0f837ea7d4e74,35,0,2024-02-28T14:56:13.914Z,french_545.wav,0,pull,1224,38,3,5,français,m,11,1.1,76.32096038,0.79708902
61334a37ecf0f837ea7d4e74,35,0,2024-02-28T14:56:13.914Z,french_545.wav,0,pull,1224,38,3,5,français,m,12,1.14141667,40.38883179,0.55336356
61334a37ecf0f837ea7d4e74,36,0,2024-02-28T14:56:13.914Z,french_990.wav,0,poule,909,38,3,5,français,m,0,0.0,22.28546117,1.71774701
61334a37ecf0f837ea7d4e74,36,0,2024-02-28T14:56:13.914Z,french_990.wav,0,poule,909,38,3,5,français,m,1,0.1,-71.06453153,1.39266075
61334a37ecf0f837ea7d4e74,36,0,2024-02-28T14:56:13.914Z,french_990.wav,0,poule,909,38,3,5,français,m,2,0.2,-2.96842317,1.88952817
61334a37ecf0f837ea7d4e74,36,0,2024-02-28T14:56:13.914Z,french_990.wav,0,poule,909,38,3,5,français,m,3,0.3,-38.75715458,1.20515326
61334a37ecf0f837ea7d4e74,36,0,2024-02-28T14:56:13.914Z,french_990.wav,0,poule,909,38,3,5,français,m,4,0.4,-38.96833995,1.57307133
61334a37ecf0f837ea7d4e74,36,0,2024-02-28T14:56:13.914Z,french_990.wav,0,poule,909,38,3,5,français,m,5,0.5,-55.35962897,1.01912695
61334a37ecf0f837ea7d4e74,36,0,2024-02-28T14:56:13.914Z,french_990.wav,0,poule,909,38,3,5,français,m,6,0.6,74.74908097,0.48659369
61334a37ecf0f837ea7d4e74,36,0,2024-02-28T14:56:13.914Z,french_990.wav,0,poule,909,38,3,5,français,m,7,0.7,-79.31452591,0.16077225
61334a37ecf0f837ea7d4e74,36,0,2024-02-28T14:56:13.914Z,french_990.wav,0,poule,909,38,3,5,français,m,8,0.8,83.49012267,1.8206286
61334a37ecf0f837ea7d4e74,36,0,2024-02-28T14:56:13.914Z,french_990.wav,0,poule,909,38,3,5,français,m,9,0.9,82.3920515,0.6752075
61334a37ecf0f837ea7d4e74,36,0,2024-02-28T14:56:13.914Z,french_990.wav,0,poule,909,38,3,5,français,m,10,1.0,-75.96724533,1.19173339
61334a37ecf0f837ea7d4e74,36,0,2024-02-28T14:56:13.914Z,french_990.wav,0,poule,909,38,3,5,français,m,11,1.1,-9.23832865,0.6319672
61334a37ecf0f837ea7d4e74,36,0,2024-02-28T14:56:13.914Z,french_990.wav,0,poule,909,38,3,5,français,m,12,1.14141667,6.54194372,1.17413209
61334a37ecf0f837ea7d4e74,37,0,2024-02-28T14:56:13.914Z,french_618.wav,0,poule,153,38,3,5,français,m,0,0.0,20.05983972,0.17568044
61334a37ecf0f837ea7d4e74,37,0,2024-02-28T14:56:13.914Z,french_618.wav,0,poule,153,38,3,5,français,m,1,0.1,58.91310592,0.80933432
61334a37ecf0f837ea7d4e74,37,0,2024-02-28T14:56:13.914Z,french_618.wav,0,poule,153,38,3,5,français,m,2,0.2,6.72731042,1.75957191
61334a37ecf0f837ea7d4e74,37,0,2024-02-28T14:56:13.914Z,french_618.wav,0,poule,153,38,3,5,français,m,3,0.3,-78.89679785,1.21569199
61334a37ecf0f837ea7d4e74,37,0,2024-02-28T14:56:13.914Z,french_618.wav,0,poule,153,38,3,5,français,m,4,0.4,-8.33733298,0.08695144
61334a37ecf0f837ea7d4e74,37,0,2024-02-28T14:56:13.914Z,french_618.wav,0,poule,153,38,3,5,français,m,5,0.5,65.10342581,0.71252573
61334a37ecf0f837ea7d4e74,37,0,2024-02-28T14:56:13.914Z,french_618.wav,0,poule,153,38,3,5,français,m,6,0.6,-94.00807668,1.00569246
61334a37ecf0f837ea7d4e74,37,0,2024-02-28T14:56:13.914Z,french_618.wav,0,poule,153,38,3,5,français,m,7,0.7,82.41977933,1.1966004
61334a37ecf0f837ea7d4e74,37,0,2024-02-28T14:56:13.914Z,french_618.wav,0,poule,153,38,3,5,français,m,8,0.8,21.24581957,1.80975739
61334a37ecf0f837ea7d4e74,37,0,2024-02-28T14:56:13.914Z,french_618.wav,0,poule,153,38,3,5,français,m,9,0.9,66.30338575,1.67881476
61334a37ecf0f837ea7d4e74,37,0,2024-02-28T14:56:13.914Z,french_618.wav,0,poule,153,38,3,5,français,m,10,1.0,35.04204865,1.40354146
61334a37ecf0f837ea7d4e74,37,0,2024-02-28T14:56:13.914Z,french_618.wav,0,poule,153,38,3,5,français,m,11,1.1,4.02018466,1.74539239
61334a37ecf0f837ea7d4e74,37,0,2024-02-28T14:56:13.914Z,french_618.wav,0,poule,153,38,3,5,français,m,12,1.14141667,-34.41646074,1.86292193
61334a37ecf0f837ea7d4e74,38,0,2024-02-28T14:56:13.914Z,french_314.wav,0,pull,494,38,3,5,français,m,0,0.0,98.47852425,0.84050002
61334a37ecf0f837ea7d4e74,38,0,2024-02-28T14:56:13.914Z,french_314.wav,0,pull,494,38,3,5,français,m,1,0.1,-4.76765087,1.9178096
61334a37ecf0f837ea7d4e74,38,0,2024-02-28T14:56:13.914Z,french_314.wav,0,pull,494,38,3,5,français,m,2,0.2,98.99563551,1.48544664
61334a37ecf0f837ea7d4e74,38,0,2024-02-28T14:56:13.914Z,french_314.wav,0,pull,494,38,3,5,français,m,3,0.3,-26.02974157,0.28338038
61334a37ecf0f837ea7d4e74,38,0,2024-02-28T14:56:13.914Z,french_314.wav,0,pull,494,38,3,5,français,m,4,0.4,3.57072729,1.67118839
61334a37ecf0f837ea7d4e74,38,0,2024-02-28T14:56:13.914Z,french_314.wav,0,pull,494,38,3,5,français,m,5,0.5,-27.39105802,0.9666753
61334a37ecf0f837ea7d4e74,38,0,2024-02-28T14:56:13.914Z,french_314.wav,0,pull,494,38,3,5,français,m,6,0.6,-34.46329074,0.67276738
61334a37ecf0f837ea7d4e74,38,0,2024-02-28T14:56:13.914Z,french_314.wav,0,pull,494,38,3,5,français,m,7,0.7,-19.61563284,1.19975177
61334a37ecf0f837ea7d4e74,38,0,2024-02-28T14:56:13.914Z,french_314.wav,0,pull,494,38,3,5,français,m,8,0.8,86.50042899,0.06283499
61334a37ecf0f837ea7d4e74,38,0,2024-02-28T14:56:13.914Z,french_314.wav,0,pull,494,38,3,5,français,m,9,0.9,-30.62380752,0.69763895
61334a37ecf0f837ea7d4e74,38,0,2024-02-28T14:56:13.914Z,french_314.wav,0,pull,494,38,3,5,français,m,10,1.0,68.66999994,1.73674877
61334a37ecf0f837ea7d4e74,38,0,2024-02-28T14:56:13.914Z,french_314.wav,0,pull,494,38,3,5,français,m,11,1.1,18.64968658,1.35552755
61334a37ecf0f837ea7d4e74,38,0,2024-02-28T14:56:13.914Z,french_314.wav,0,pull,494,38,3,5,français,m,12,1.14141667,83.99037415,1.19565214
61334a37ecf0f837ea7d4e74,39,0,2024-02-28T14:56:13.914Z,french_263.wav,0,pull,333,38,3,5,français,m,0,0.0,-35.6234396,0.41942748
61334a37ecf0f837ea7d4e74,39,0,2024-02-28T14:56:13.914Z,french_263.wav,0,pull,333,38,3,5,français,m,1,0.1,80.58342714,0.86466593
61334a37ecf0f837ea7d4e74,39,0,2024-02-28T14:56:13.914Z,french_263.wav,0,pull,333,38,3,5,français,m,2,0.2,26.9247896,0.90258842
61334a37ecf0f837ea7d4e74,39,0,2024-02-28T14:56:13.914Z,french_263.wav,0,pull,333,38,3,5,français,m,3,0.3,-64.28881536,0.30940464
61334a37ecf0f837ea7d4e74,39,0,2024-02-28T14:56:13.914Z,french_263.wav,0,pull,333,38,3,5,français,m,4,0.4,71.8745562,0.49132319
61334a37ecf0f837ea7d4e74,39,0,2024-02-28T14:56:13.914Z,french_263.wav,0,pull,333,38,3,5,français,m,5,0.5,-24.24365063,0.18866759
61334a37ecf0f837ea7d4e74,39,0,2024-02-28T14:56:13.914Z,french_263.wav,0,pull,333,38,3,5,français,m,6,0.6,67.89663748,1.09978722
61334a37ecf0f837ea7d4e74,39,0,2024-02-28T14:56:13.914Z,french_263.wav,0,pull,333,38,3,5,français,m,7,0.7,5.62822954,0.81261586
61334a37ecf0f837ea7d4e74,39,0,2024-02-28T14:56:13.914Z,french_263.wav,0,pull,333,38,3,5,français,m,8,0.8,8.21920478,0.42151921
61334a37ecf0f837ea7d4e74,39,0,2024-02-28T14:56:13.914Z,french_263.wav,0,pull,333,38,3,5,français,m,9,0.9,-4.84660323,0.86223793
61334a37ecf0f837ea7d4e74,39,0,2024-02-28T14:56:13.914Z,french_263.wav,0,pull,333,38,3,5,français,m,10,1.0,92.2995778,0.83361364
61334a37ecf0f837ea7d4e74,39,0,2024-02-28T14:56:13.914Z,french_263.wav,0,pull,333,38,3,5,français,m,11,1.1,5.29993653,0.95375213
61334a37ecf0f837ea7d4e74,39,0,2024-02-28T14:56:13.914Z,french_263.wav,0,pull,333,38,3,5,français,m,12,1.14141667,-11.24406753,0.43274193
61334a37ecf0f837ea7d4e74,40,0,2024-02-28T14:56:13.914Z,french_181.wav,0,poule,342,38,3,5,français,m,0,0.0,-95.95313982,0.44165639
61334a37ecf0f837ea7d4e74,40,0,2024-02-28T14:56:13.914Z,french_181.wav,0,poule,342,38,3,5,français,m,1,0.1,91.63677354,1.91213413
61334a37ecf0f837ea7d4e74,40,0,2024-02-28T14:56:13.914Z,french_181.wav,0,poule,342,38,3,5,français,m,2,0.2,-91.79980108,1.20479938
61334a37ecf0f837ea7d4e74,40,0,2024-02-28T14:56:13.914Z,french_181.wav,0,poule,342,38,3,5,français,m,3,0.3,95.40210499,1.03854449
61334a37ecf0f837ea7d4e74,40,0,2024-02-28T14:56:13.914Z,french_181.wav,0,poule,342,38,3,5,français,m,4,0.4,68.17989767,0.34466606
61334a37ecf0f837ea7d4e74,40,0,2024-02-28T14:56:13.914Z,french_181.wav,0,poule,342,38,3,5,français,m,5,0.5,91.86803384,1.08947615
61334a37ecf0f837ea7d4e74,40,0,2024-02-28T14:56:13.914Z,french_181.wav,0,poule,342,38,3,5,français,m,6,0.6,20.20115402,0.89950013
61334a37ecf0f837ea7d4e74,40,0,2024-02-28T14:56:13.914Z,french_181.wav,0,poule,342,38,3,5,français,m,7,0.7,-36.24540979,1.58660506
61334a37ecf0f837ea7d4e74,40,0,2024-02-28T14:56:13.914Z,french_181.wav,0,poule,342,38,3,5,français,m,8,0.8,20.77489363,1.10035668
61334a37ecf0f837ea7d4e74,40,0,2024-02-28T14:56:13.914Z,french_181.wav,0,poule,342,38,3,5,français,m,9,0.9,-36.30620857,1.78772501
61334a37ecf0f837ea7d4e74,40,0,2024-02-28T14:56:13.914Z,french_181.wav,0,poule,342,38,3,5,français,m,10,1.0,-52.43059698,0.45092467
61334a37ecf0f837ea7d4e74,40,0,2024-02-28T14:56:13.914Z,french_181.wav,0,poule,342,38,3,5,français,m,11,1.1,-66.44451369,1.08205846
61334a37ecf0f837ea7d4e74,40,0,2024-02-28T14:56:13.914Z,french_181.wav,0,poule,342,38,3,5,français,m,12,1.14141667,-36.9073082,1.12829283
61334a37ecf0f837ea7d4e74,41,0,2024-02-28T14:56:13.914Z,french_685.wav,0,pull,311,38,3,5,français,m,0,0.0,15.72275415,0.3186228
61334a37ecf0f837ea7d4e74,41,0,2024-02-28T14:56:13.914Z,french_685.wav,0,pull,311,38,3,5,français,m,1,0.1,-17.98823356,0.55293097
61334a37ecf0f837ea7d4e74,41,0,2024-02-28T14:56:13.914Z,french_685.wav,0,pull,311,38,3,5,français,m,2,0.2,65.15130869,1.61552047
61334a37ecf0f837ea7d4e74,41,0,2024-02-28T14:56:13.914Z,french_685.wav,0,pull,311,38,3,5,français,m,3,0.3,-29.09849503,1.16824703
61334a37ecf0f837ea7d4e74,41,0,2024-02-28T14:56:13.914Z,french_685.wav,0,pull,311,38,3,5,français,m,4,0.4,80.3913755,1.52008085
61334a37ecf0f837ea7d4e74,41,0,2024-02-28T14:56:13.914Z,french_685.wav,0,pull,311,38,3,5,français,m,5,0.5,69.16437222,0.87763706
61334a37ecf0f837ea7d4e74,41,0,2024-02-28T14:56:13.914Z,french_685.wav,0,pull,311,38,3,5,français,m,6,0.6,94.4311828,1.87993666
61334a37ecf0f837ea7d4e74,41,0,2024-02-28T14:56:13.914Z,french_685.wav,0,pull,311,38,3,5,français,m,7,0.7,-34.30157349,1.65434325
61334a37ecf0f837ea7d4e74,41,0,2024-02-28T14:56:13.914Z,french_685.wav,0,pull,311,38,3,5,français,m,8,0.8,54.54653623,0.05536448
61334a37ecf0f837ea7d4e74,41,0,2024-02-28T14:56:13.914Z,french_685.wav,0,pull,311,38,3,5,français,m,9,0.9,70.83768359,1.1397735
61334a37ecf0f837ea7d4e74,41,0,2024-02-28T14:56:13.914Z,french_685.wav,0,pull,311,38,3,5,français,m,10,1.0,85.61297077,0.83672501
61334a37ecf0f837ea7d4e74,41,0,2024-02-28T14:56:13.914Z,french_685.wav,0,pull,311,38,3,5,français,m,11,1.1,27.81589557,0.56110169
61334a37ecf0f837ea7d4e74,41,0,2024-02-28T14:56:13.914Z,french_685.wav,0,pull,311,38,3,5,français,m,12,1.14141667,-9.10708793,0.81567385
61334a37ecf0f837ea7d4e74,42,0,2024-02-28T14:56:13.914Z,french_509.wav,0,pull,748,38,3,5,français,m,0,0.0,-79.28359824,1.76643555
61334a37ecf0f837ea7d4e74,42,0,2024-02-28T14:56:13.914Z,french_509.wav,0,pull,748,38,3,5,français,m,1,0.1,-85.11040144,0.57920492
61334a37ecf0f837ea7d4e74,42,0,2024-02-28T14:56:13.914Z,french_509.wav,0,pull,748,38,3,5,français,m,2,0.2,58.20689337,0.89396937
61334a37ecf0f837ea7d4e74,42,0,2024-02-28T14:56:13.914Z,french_509.wav,0,pull,748,38,3,5,français,m,3,0.3,-53.07212842,0.80048379
61334a37ecf0f837ea7d4e74,42,0,2024-02-28T14:56:13.914Z,french_509.wav,0,pull,748,38,3,5,français,m,4,0.4,14.54054596,1.05618514
61334a37ecf0f837ea7d4e74,42,0,2024-02-28T14:56:13.914Z,french_509.wav,0,pull,748,38,3,5,français,m,5,0.5,38.89832363,0.5299581
61334a37ecf0f837ea7d4e74,42,0,2024-02-28T14:56:13.914Z,french_509.wav,0,pull,748,38,3,5,français,m,6,0.6,-59.04867319,1.30906386
61334a37ecf0f837ea7d4e74,42,0,2024-02-28T14:56:13.914Z,french_509.wav,0,pull,748,38,3,5,français,m,7,0.7,-18.19891129,0.47184047
61334a37ecf0f837ea7d4e74,42,0,2024-02-28T14:56:13.914Z,french_509.wav,0,pull,748,38,3,5,français,m,8,0.8,-73.30058077,0.61756094
61334a37ecf0f837ea7d4e74,42,0,2024-02-28T14:56:13.914Z,french_509.wav,0,pull,748,38,3,5,français,m,9,0.9,9.43722615,0.62383509
61334a37ecf0f837ea7d4e74,42,0,2024-02-28T14:56:13.914Z,french_509.wav,0,pull,748,38,3,5,français,m,10,1.0,2.35167022,1.37177888
61334a37ecf0f837ea7d4e74,42,0,2024-02-28T14:56:13.914Z,french_509.wav,0,pull,748,38,3,5,français,m,11,1.1,-85.32824264,0.23324254
61334a37ecf0f837ea7d4e74,42,0,2024-02-28T14:56:13.914Z,french_509.wav,0,pull,748,38,3,5,français,m,12,1.14141667,19.13063021,0.91376092
61334a37ecf0f837ea7d4e74,43,0,2024-02-28T14:56:13.914Z,french_251.wav,0,pull,417,38,3,5,français,m,0,0.0,-6.10327237,0.87476983
61334a37ecf0f837ea7d4e74,43,0,2024-02-28T14:56:13.914Z,french_251.wav,0,pull,417,38,3,5,français,m,1,0.1,-31.81812212,0.20851018
61334a37ecf0f837ea7d4e74,43,0,2024-02-28T14:56:13.914Z,french_251.wav,0,pull,417,38,3,5,français,m,2,0.2,1.49653309,1.45345917
61334a37ecf0f837ea7d4e74,43,0,2024-02-28T14:56:13.914Z,french_251.wav,0,pull,417,38,3,5,français,m,3,0.3,36.35816444,1.96312617
61334a37ecf0f837ea7d4e74,43,0,2024-02-28T14:56:13.914Z,french_251.wav,0,pull,417,38,3,5,français,m,4,0.4,-9.41951006,1.04651376
61334a37ecf0f837ea7d4e74,43,0,2024-02-28T14:56:13.914Z,french_251.wav,0,pull,417,38,3,5,français,m,5,0.5,-36.93530582,1.9610622
61334a37ecf0f837ea7d4e74,43,0,2024-02-28T14:56:13.914Z,french_251.wav,0,pull,417,38,3,5,français,m,6,0.6,-25.41473519,1.3492542
61334a37ecf0f837ea7d4e74,43,0,2024-02-28T14:56:13.914Z,french_251.wav,0,pull,417,38,3,5,français,m,7,0.7,56.15025122,1.04795193
61334a37ecf0f837ea7d4e74,43,0,2024-02-28T14:56:13.914Z,french_251.wav,0,pull,417,38,3,5,français,m,8,0.8,-13.30142445,0.20627276
61334a37ecf0f837ea7d4e74,43,0,2024-02-28T14:56:13.914Z,french_251.wav,0,pull,417,38,3,5,français,m,9,0.9,-95.55635491,0.33014387
61334a37ecf0f837ea7d4e74,43,0,2024-02-28T14:56:13.914Z,french_251.wav,0,pull,417,38,3,5,français,m,10,1.0,-99.65392401,1.62301135
61334a37ecf0f837ea7d4e74,43,0,2024-02-28T14:56:13.914Z,french_251.wav,0,pull,417,38,3,5,français,m,11,1.1,-3.55054731,1.19927307
61334a37ecf0f837ea7d4e74,43,0,2024-02-28T14:56:13.914Z,french_251.wav,0,pull,417,38,3,5,français,m,12,1.14141667,-37.18224503,1.67752435
61334a37ecf0f837ea7d4e74,44,0,2024-02-28T14:56:13.914Z,french_343.wav,0,poule,354,38,3,5,français,m,0,0.0,55.30820306,1.58034267
61334a37ecf0f837ea7d4e74,44,0,2024-02-28T14:56:13.914Z,french_343.wav,0,poule,354,38,3,5,français,m,1,0.1,-11.48156173,1.0596038
61334a37ecf0f837ea7d4e74,44,0,2024-02-28T14:56:13.914Z,french_343.wav,0,poule,354,38,3,5,français,m,2,0.2,-61.33934281,1.28163155
61334a37ecf0f837ea7d4e74,44,0,2024-02-28T14:56:13.914Z,french_343.wav,0,poule,354,38,3,5,français,m,3,0.3,-78.79796184,0.20032202
61334a37ecf0f837ea7d4e74,44,0,2024-02-28T14:56:13.914Z,french_343.wav,0,poule,354,38,3,5,français,m,4,0.4,-3.55277636,1.05316587
61334a37ecf0f837ea7d4e74,44,0,2024-02-28T14:56:13.914Z,french_343.wav,0,poule,354,38,3,5,français,m,5,0.5,40.8675343,0.79348198
61334a37ecf0f837ea7d4e74,44,0,2024-02-28T14:56:13.914Z,french_343.wav,0,poule,354,38,3,5,français,m,6,0.6,88.78635161,0.11297715
61334a37ecf0f837ea7d4e74,44,0,2024-02-28T14:56:13.914Z,french_343.wav,0,poule,354,38,3,5,français,m,7,0.7,-70.07472114,1.23835329
61334a37ecf0f837ea7d4e74,44,0,2024-02-28T14:56:13.914Z,french_343.wav,0,poule,354,38,3,5,français,m,8,0.8,-79.01069817,1.37036254
61334a37ecf0f837ea7d4e74,44,0,2024-02-28T14:56:13.914Z,french_343.wav,0,poule,354,38,3,5,français,m,9,0.9,-38.36075722,1.08523433
61334a37ecf0f837ea7d4e74,44,0,2024-02-28T14:56:13.914Z,french_343.wav,0,poule,354,38,3,5,français,m,10,1.0,-74.7385536,0.49176562
61334a37ecf0f837ea7d4e74,44,0,2024-02-28T14:56:13.914Z,french_343.wav,0,poule,354,38,3,5,français,m,11,1.1,67.32009961,1.89620137
61334a37ecf0f837ea7d4e74,44,0,2024-02-28T14:56:13.914Z,french_343.wav,0,poule,354,38,3,5,français,m,12,1.14141667,18.80940086,0.66544547
61334a37ecf0f837ea7d4e74,45,0,2024-02-28T14:56:13.914Z,french_500.wav,0,pull,621,38,3,5,français,m,0,0.0,7.43144337,1.70321207
61334a37ecf0f837ea7d4e74,45,0,2024-02-28T14:56:13.914Z,french_500.wav,0,pull,621,38,3,5,français,m,1,0.1,-35.20316303,0.94738908
61334a37ecf0f837ea7d4e74,45,0,2024-02-28T14:56:13.914Z,french_500.wav,0,pull,621,38,3,5,français,m,2,0.2,-86.49449875,1.55349161
61334a37ecf0f837ea7d4e74,45,0,2024-02-28T14:56:13.914Z,french_500.wav,0,pull,621,38,3,5,français,m,3,0.3,-0.12776336,0.88197897
61334a37ecf0f837ea7d4e74,45,0,2024-02-28T14:56:13.914Z,french_500.wav,0,pull,621,38,3,5,français,m,4,0.4,6.50689126,0.49120289
61334a37ecf0f837ea7d4e74,45,0,2024-02-28T14:56:13.914Z,french_500.wav,0,pull,621,38,3,5,français,m,5,0.5,-86.34225386,0.35466995
61334a37ecf0f837ea7d4e74,45,0,2024-02-28T14:56:13.914Z,french_500.wav,0,pull,621,38,3,5,français,m,6,0.6,-39.45730104,1.04896921
61334a37ecf0f837ea7d4e74,45,0,2024-02-28T14:56:13.914Z,french_500.wav,0,pull,621,38,3,5,français,m,7,0.7,-8.71502258,0.785406
61334a37ecf0f837ea7d4e74,45,0,2024-02-28T14:56:13.914Z,french_500.wav,0,pull,621,38,3,5,français,m,8,0.8,32.85935892,0.13798401
61334a37ecf0f837ea7d4e74,45,0,2024-02-28T14:56:13.914Z,french_500.wav,0,pull,621,38,3,5,français,m,9,0.9,34.48879389,0.74289626
61334a37ecf0f837ea7d4e74,45,0,2024-02-28T14:56:13.914Z,french_500.wav,0,pull,621,38,3,5,français,m,10,1.0,70.98288836,0.68775101
61334a37ecf0f837ea7d4e74,45,0,2024-02-28T14:56:13.914Z,french_500.wav,0,pull,621,38,3,5,français,m,11,1.1,58.88080584,0.86634312
61334a37ecf0f837ea7d4e74,45,0,2024-02-28T14:56:13.914Z,french_500.wav,0,pull,621,38,3,5,français,m,12,1.14141667,78.935145,1.71646254
61334a37ecf0f837ea7d4e74,46,0,2024-02-28T14:56:13.914Z,french_605.wav,0,poule,354,38,3,5,français,m,0,0.0,-4.59270946,0.96600392
61334a37ecf0f837ea7d4e74,46,0,2024-02-28T14:56:13.914Z,french_605.wav,0,poule,354,38,3,5,français,m,1,0.1,87.12148448,0.37352176
61334a37ecf0f837ea7d4e74,46,0,2024-02-28T14:56:13.914Z,french_605.wav,0,poule,354,38,3,5,français,m,2,0.2,-1.03135673,1.4847994
61334a37ecf0f837ea7d4e74,46,0,2024-02-28T14:56:13.914Z,french_605.wav,0,poule,354,38,3,5,français,m,3,0.3,18.20955088,0.74275765
61334a37ecf0f837ea7d4e74,46,0,2024-02-28T14:56:13.914Z,french_605.wav,0,poule,354,38,3,5,français,m,4,0.4,-35.26567146,1.11817965
61334a37ecf0f837ea7d4e74,46,0,2024-02-28T14:56:13.914Z,french_605.wav,0,poule,354,38,3,5,français,m,5,0.5,48.20040324,0.19607771
61334a37ecf0f837ea7d4e74,46,0,2024-02-28T14:56:13.914Z,french_605.wav,0,poule,354,38,3,5,français,m,6,0.6,-62.48303314,1.4536673
61334a37ecf0f837ea7d4e74,46,0,2024-02-28T14:56:13.914Z,french_605.wav,0,poule,354,38,3,5,français,m,7,0.7,-26.20926228,1.28644453
61334a37ecf0f837ea7d4e74,46,0,2024-02-28T14:56:13.914Z,french_605.wav,0,poule,354,38,3,5,français,m,8,0.8,82.63879423,1.57088446
61334a37ecf0f837ea7d4e74,46,0,2024-02-28T14:56:13.914Z,french_605.wav,0,poule,354,38,3,5,français,m,9,0.9,-38.684924,1.0364094
61334a37ecf0f837ea7d4e74,46,0,2024-02-28T14:56:13.914Z,french_605.wav,0,poule,354,38,3,5,français,m,10,1.0,55.23852166,0.92106483
61334a37ecf0f837ea7d4e74,46,0,2024-02-28T14:56:13.914Z,french_605.wav,0,poule,354,38,3,5,français,m,11,1.1,-91.44946661,0.53277404
61334a37ecf0f837ea7d4e74,46,0,2024-02-28T14:56:13.914Z,french_605.wav,0,poule,354,38,3,5,français,m,12,1.14141667,47.35020577,0.90465351
61334a37ecf0f837ea7d4e74,47,0,2024-02-28T14:56:13.914Z,french_136.wav,0,poule,264,38,3,5,français,m,0,0.0,-0.93982829,1.18112725
61334a37ecf0f837ea7d4e74,47,0,2024-02-28T14:56:13.914Z,french_136.wav,0,poule,264,38,3,5,français,m,1,0.1,-11.50989173,1.4876912
61334a37ecf0f837ea7d4e74,47,0,2024-02-28T14:56:13.914Z,french_136.wav,0,poule,264,38,3,5,français,m,2,0.2,-44.36955216,1.55378385
61334a37ecf0f837ea7d4e74,47,0,2024-02-28T14:56:13.914Z,french_136.wav,0,poule,264,38,3,5,français,m,3,0.3,66.25490653,0.32679305
61334a37ecf0f837ea7d4e74,47,0,2024-02-28T14:56:13.914Z,french_136.wav,0,poule,264,38,3,5,français,m,4,0.4,76.3056731,0.30628123
61334a37ecf0f837ea7d4e74,47,0,2024-02-28T14:56:13.914Z,french_136.wav,0,poule,264,38,3,5,français,m,5,0.5,-53.64019494,1.28210854
61334a37ecf0f837ea7d4e74,47,0,2024-02-28T14:56:13.914Z,french_136.wav,0,poule,264,38,3,5,français,m,6,0.6,72.7758556,0.14420429
61334a37ecf0f837ea7d4e74,47,0,2024-02-28T14:56:13.914Z,french_136.wav,0,poule,264,38,3,5,français,m,7,0.7,-38.40056364,0.03042669
61334a37ecf0f837ea7d4e74,47,0,2024-02-28T14:56:13.914Z,french_136.wav,0,poule,264,38,3,5,français,m,8,0.8,-83.94600904,1.12471325
61334a37ecf0f837ea7d4e74,47,0,2024-02-28T14:56:13.914Z,french_136.wav,0,poule,264,38,3,5,français,m,9,0.9,60.40561717,1.12043075
61334a37ecf0f837ea7d4e74,47,0,2024-02-28T14:56:13.914Z,french_136.wav,0,poule,264,38,3,5,français,m,10,1.0,72.86364806,0.82934503
61334a37ecf0f837ea7d4e74,47,0,2024-02-28T14:56:13.914Z,french_136.wav,0,poule,264,38,3,5,français,m,11,1.1,-58.86585407,1.5410961
61334a37ecf0f837ea7d4e74,47,0,2024-02-28T14:56:13.914Z,french_136.wav,0,poule,264,38,3,5,français,m,12,1.14141667,-45.29061382,0.1982647
61334a37ecf0f837ea7d4e74,48,0,2024-02-28T14:56:13.914Z,french_649.wav,0,poule,196,38,3,5,français,m,0,0.0,-14.63575946,1.48016251
61334a37ecf0f837ea7d4e74,48,0,2024-02-28T14:56:13.914Z,french_649.wav,0,poule,196,38,3,5,français,m,1,0.1,87.90447506,1.99171813
61334a37ecf0f837ea7d4e74,48,0,2024-02-28T14:56:13.914Z,french_649.wav,0,poule,196,38,3,5,français,m,2,0.2,16.67284582,0.37897864
61334a37ecf0f837ea7d4e74,48,0,2024-02-28T14:56:13.914Z,french_649.wav,0,poule,196,38,3,5,français,m,3,0.3,66.15245768,1.28017908
61334a37ecf0f837ea7d4e74,48,0,2024-02-28T14:56:13.914Z,french_649.wav,0,poule,196,38,3,5,français,m,4,0.4,-20.15560471,0.5887237
61334a37ecf0f837ea7d4e74,48,0,2024-02-28T14:56:13.914Z,french_649.wav,0,poule,196,38,3,5,français,m,5,0.5,-60.0326813,1.90797715
61334a37ecf0f837ea7d4e74,48,0,2024-02-28T14:56:13.914Z,french_649.wav,0,poule,196,38,3,5,français,m,6,0.6,31.72800587,0.19529448
61334a37ecf0f837ea7d4e74,48,0,2024-02-28T14:56:13.914Z,french_649.wav,0,poule,196,38,3,5,français,m,7,0.7,-60.07829106,1.64301184
61334a37ecf0f837ea7d4e74,48,0,2024-02-28T14:56:13.914Z,french_649.wav,0,poule,196,38,3,5,français,m,8,0.8,15.50516257,1.80534623
61334a37ecf0f837ea7d4e74,48,0,2024-02-28T14:56:13.914Z,french_649.wav,0,poule,196,38,3,5,français,m,9,0.9,-42.6229878,0.7062957
61334a37ecf0f837ea7d4e74,48,0,2024-02-28T14:56:13.914Z,french_649.wav,0,poule,196,38,3,5,français,m,10,1.0,78.15416518,1.55899311
61334a37ecf0f837ea7d4e74,48,0,2024-02-28T14:56:13.914Z,french_649.wav,0,poule,196,38,3,5,français,m,11,1.1,46.83392995,1.39425951
61334a37ecf0f837ea7d4e74,48,0,2024-02-28T14:56:13.914Z,french_649.wav,0,poule,196,38,3,5,français,m,12,1.14141667,39.79631616,1.94277347
61334a37ecf0f837ea7d4e74,49,0,2024-02-28T14:56:13.914Z,french_975.wav,0,poule,339,38,3,5,français,m,0,0.0,-88.53042028,0.13201947
61334a37ecf0f837ea7d4e74,49,0,2024-02-28T14:56:13.914Z,french_975.wav,0,poule,339,38,3,5,français,m,1,0.1,-18.98709815,0.70048062
61334a37ecf0f837ea7d4e74,49,0,2024-02-28T14:56:13.914Z,french_975.wav,0,poule,339,38,3,5,français,m,2,0.2,89.84049157,1.40324141
61334a37ecf0f837ea7d4e74,49,0,2024-02-28T14:56:13.914Z,french_975.wav,0,poule,339,38,3,5,français,m,3,0.3,-15.87088094,1.12025436
61334a37ecf0f837ea7d4e74,49,0,2024-02-28T14:56:13.914Z,french_975.wav,0,poule,339,38,3,5,français,m,4,0.4,0.60706282,0.85353049
61334a37ecf0f837ea7d4e74,49,0,2024-02-28T14:56:13.914Z,french_975.wav,0,poule,339,38,3,5,français,m,5,0.5,91.81069187,0.31979877
61334a37ecf0f837ea7d4e74,49,0,2024-02-28T14:56:13.914Z,french_975.wav,0,poule,339,38,3,5,français,m,6,0.6,16.30435991,1.60578457
61334a37ecf0f837ea7d4e74,49,0,2024-02-28T14:56:13.914Z,french_975.wav,0,poule,339,38,3,5,français,m,7,0.7,65.54957274,1.36555735
61334a37ecf0f837ea7d4e74,49,0,2024-02-28T14:56:13.914Z,french_975.wav,0,poule,339,38,3,5,français,m,8,0.8,-94.63254312,0.45907697
61334a37ecf0f837ea7d4e74,49,0,2024-02-28T14:56:13.914Z,french_975.wav,0,poule,339,38,3,5,français,m,9,0.9,4.99318405,0.83713991
61334a37ecf0f837ea7d4e74,49,0,2024-02-28T14:56:13.914Z,french_975.wav,0,poule,339,38,3,5,français,m,10,1.0,-83.68519221,0.75605832
61334a37ecf0f837ea7d4e74,49,0,2024-02-28T14:56:13.914Z,french_975.wav,0,poule,339,38,3,5,français,m,11,1.1,16.66024344,0.95006227
61334a37ecf0f837ea7d4e74,49,0,2024-02-28T14:56:13.914Z,french_975.wav,0,poule,339,38,3,5,français,m,12,1.14141667,49.25794234,1.61796802
61334a37ecf0f837ea7d4e74,50,1,2024-02-28T14:59:31.664Z,french_964.wav,0,poule,991,38,3,5,français,m,0,0.0,33.09242733,0.20768895
61334a37ecf0f837ea7d4e74,50,1,2024-02-28T14:59:31.664Z,french_964.wav,0,poule,991,38,3,5,français,m,1,0.1,35.00965651,1.10634372
61334a37ecf0f837ea7d4e74,50,1,2024-02-28T14:59:31.664Z,french_964.wav,0,poule,991,38,3,5,français,m,2,0.2,-84.27771788,1.24458485
61334a37ecf0f837ea7d4e74,50,1,2024-02-28T14:59:31.664Z,french_964.wav,0,poule,991,38,3,5,français,m,3,0.3,-43.99991395,0.46794756
61334a37ecf0f837ea7d4e74,50,1,2024-02-28T14:59:31.664Z,french_964.wav,0,poule,991,38,3,5,français,m,4,0.4,85.17461764,1.27301034
61334a37ecf0f837ea7d4e74,50,1,2024-02-28T14:59:31.664Z,french_964.wav,0,poule,991,38,3,5,français,m,5,0.5,34.90610351,1.24864597
61334a37ecf0f837ea7d4e74,50,1,2024-02-28T14:59:31.664Z,french_964.wav,0,poule,991,38,3,5,français,m,6,0.6,44.52556005,1.11074861
61334a37ecf0f837ea7d4e74,50,1,2024-02-28T14:59:31.664Z,french_964.wav,0,poule,991,38,3,5,français,m,7,0.7,-39.35993347,0.2163569
61334a37ecf0f837ea7d4e74,50,1,2024-02-28T14:59:31.664Z,french_964.wav,0,poule,991,38,3,5,français,m,8,0.8,-59.26827617,1.15029488
61334a37ecf0f837ea7d4e74,50,1,2024-02-28T14:59:31.664Z,french_964.wav,0,poule,991,38,3,5,français,m,9,0.9,-0.13276326,1.41986014
61334a37ecf0f837ea7d4e74,50,1,2024-02-28T14:59:31.664Z,french_964.wav,0,poule,991,38,3,5,français,m,10,1.0,-52.7984183,1.68989998
61334a37ecf0f837ea7d4e74,50,1,2024-02-28T14:59:31.664Z,french_964.wav,0,poule,991,38,3,5,français,m,11,1.1,-26.03331608,0.52518862
61334a37ecf0f837ea7d4e74,50,1,2024-02-28T14:59:31.664Z,french_964.wav,0,poule,991,38,3,5,français,m,12,1.14141667,-25.25531547,0.94660827
61334a37ecf0f837ea7d4e74,51,1,2024-02-28T14:59:31.664Z,french_577.wav,0,poule,348,38,3,5,français,m,0,0.0,-44.02512983,0.10131103
61334a37ecf0f837ea7d4e74,51,1,2024-02-28T14:59:31.664Z,french_577.wav,0,poule,348,38,3,5,français,m,1,0.1,79.52844358,0.08673011
61334a37ecf0f837ea7d4e74,51,1,2024-02-28T14:59:31.664Z,french_577.wav,0,poule,348,38,3,5,français,m,2,0.2,-30.76875615,1.23793804
61334a37ecf0f837ea7d4e74,51,1,2024-02-28T14:59:31.664Z,french_577.wav,0,poule,348,38,3,5,français,m,3,0.3,62.04397715,0.97250203
61334a37ecf0f837ea7d4e74,51,1,2024-02-28T14:59:31.664Z,french_577.wav,0,poule,348,38,3,5,français,m,4,0.4,-20.62747291,1.96102451
61334a37ecf0f837ea7d4e74,51,1,2024-02-28T14:59:31.664Z,french_577.wav,0,poule,348,38,3,5,français,m,5,0.5,-72.06215839,1.89275958
61334a37ecf0f837ea7d4e74,51,1,2024-02-28T14:59:31.664Z,french_577.wav,0,poule,348,38,3,5,français,m,6,0.6,41.90336004,1.02687128
61334a37ecf0f837ea7d4e74,51,1,2024-02-28T14:59:31.664Z,french_577.wav,0,poule,348,38,3,5,français,m,7,0.7,-56.13737693,0.83313949
61334a37ecf0f837ea7d4e74,51,1,2024-02-28T14:59:31.664Z,french_577.wav,0,poule,348,38,3,5,français,m,8,0.8,-35.59284276,0.98993041
61334a37ecf0f837ea7d4e74,51,1,2024-02-28T14:59:31.664Z,french_577.wav,0,poule,348,38,3,5,français,m,9,0.9,-69.77348759,1.32841377
61334a37ecf0f837ea7d4e74,51,1,2024-02-28T14:59:31.664Z,french_577.wav,0,poule,348,38,3,5,français,m,10,1.0,53.84749563,0.380118
61334a37ecf0f837ea7d4e74,51,1,2024-02-28T14:59:31.664Z,french_577.wav,0,poule,348,38,3,5,français,m,11,1.1,-66.15472085,1.50340399
61334a37ecf0f837ea7d4e74,51,1,2024-02-28T14:59:31.664Z,french_577.wav,0,poule,348,38,3,5,français,m,12,1.14141667,45.95016177,0.25097841
61334a37ecf0f837ea7d4e74,52,1,2024-02-28T14:59:31.664Z,french_141.wav,0,poule,166,38,3,5,français,m,0,0.0,50.77854553,0.77150913
61334a37ecf0f837ea7d4e74,52,1,2024-02-28T14:59:31.664Z,french_141.wav,0,poule,166,38,3,5,français,m,1,0.1,62.4846239,0.80042086
61334a37ecf0f837ea7d4e74,52,1,2024-02-28T14:59:31.664Z,french_141.wav,0,poule,166,38,3,5,français,m,2,0.2,53.33295606,1.34936636
61334a37ecf0f837ea7d4e74,52,1,2024-02-28T14:59:31.664Z,french_141.wav,0,poule,166,38,3,5,français,m,3,0.3,-52.02414926,0.44055471
61334a37ecf0f837ea7d4e74,52,1,2024-02-28T14:59:31.664Z,french_141.wav,0,poule,166,38,3,5,français,m,4,0.4,10.15219449,0.22220555
61334a37ecf0f837ea7d4e74,52,1,2024-02-28T14:59:31.664Z,french_141.wav,0,poule,166,38,3,5,français,m,5,0.5,-82.96237539,1.01088521
61334a37ecf0f837ea7d4e74,52,1,2024-02-28T14:59:31.664Z,french_141.wav,0,poule,166,38,3,5,français,m,6,0.6,56.83251075,1.2821399
61334a37ecf0f837ea7d4e74,52,1,2024-02-28T14:59:31.664Z,french_141.wav,0,poule,166,38,3,5,français,m,7,0.7,25.37878708,0.14022379
61334a37ecf0f837ea7d4e74,52,1,2024-02-28T14:59:31.664Z,french_141.wav,0,poule,166,38,3,5,français,m,8,0.8,-79.56203594,1.88106801
61334a37ecf0f837ea7d4e74,52,1,2024-02-28T14:59:31.664Z,french_141.wav,0,poule,166,38,3,5,français,m,9,0.9,-55.34997376,1.82863649
61334a37ecf0f837ea7d4e74,52,1,2024-02-28T14:59:31.664Z,french_141.wav,0,poule,166,38,3,5,français,m,10,1.0,-38.4333982,1.4626143
61334a37ecf0f837ea7d4e74,52,1,2024-02-28T14:59:31.664Z,french_141.wav,0,poule,166,38,3,5,français,m,11,1.1,-50.4363817,0.56183734
61334a37ecf0f837ea7d4e74,52,1,2024-02-28T14:59:31.664Z,french_141.wav,0,poule,166,38,3,5,français,m,12,1.14141667,30.17077865,1.2348867
61334a37ecf0f837ea7d4e74,53,1,2024-02-28T14:59:31.664Z,french_355.wav,0,pull,657,38,3,5,français,m,0,0.0,27.09635225,1.7893255
61334a37ecf0f837ea7d4e74,53,1,2024-02-28T14:59:31.664Z,french_355.wav,0,pull,657,38,3,5,français,m,1,0.1,-6.29632598,0.04304725
61334a37ecf0f837ea7d4e74,53,1,2024-02-28T14:59:31.664Z,french_355.wav,0,pull,657,38,3,5,français,m,2,0.2,-7.47224107,1.71755797
61334a37ecf0f837ea7d4e74,53,1,2024-02-28T14:59:31.664Z,french_355.wav,0,pull,657,38,3,5,français,m,3,0.3,-49.75069509,0.85848381
61334a37ecf0f837ea7d4e74,53,1,2024-02-28T14:59:31.664Z,french_355.wav,0,pull,657,38,3,5,français,m,4,0.4,-10.14072205,0.71063264
61334a37ecf0f837ea7d4e74,53,1,2024-02-28T14:59:31.664Z,french_355.wav,0,pull,657,38,3,5,français,m,5,0.5,76.48140099,0.26215974
61334a37ecf0f837ea7d4e74,53,1,2024-02-28T14:59:31.664Z,french_355.wav,0,pull,657,38,3,5,français,m,6,0.6,23.53863424,0.54805903
61334a37ecf0f837ea7d4e74,53,1,2024-02-28T14:59:31.664Z,french_355.wav,0,pull,657,38,3,5,français,m,7,0.7,-44.61102767,0.54170824
61334a37ecf0f837ea7d4e74,53,1,2024-02-28T14:59:31.664Z,french_355.wav,0,pull,657,38,3,5,français,m,8,0.8,-78.52892661,1.88709492
61334a37ecf0f837ea7d4e74,53,1,2024-02-28T14:59:31.664Z,french_355.wav,0,pull,657,38,3,5,français,m,9,0.9,53.26847569,0.37999428
61334a37ecf0f837ea7d4e74,53,1,2024-02-28T14:59:31.664Z,french_355.wav,0,pull,657,38,3,5,français,m,10,1.0,-36.05053095,0.14766966
61334a37ecf0f837ea7d4e74,53,1,2024-02-28T14:59:31.664Z,french_355.wav,0,pull,657,38,3,5,français,m,11,1.1,73.84862681,1.40974217
61334a37ecf0f837ea7d4e74,53,1,2024-02-28T14:59:31.664Z,french_355.wav,0,pull,657,38,3,5,français,m,12,1.14141667,30.67572751,0.15847185
61334a37ecf0f837ea7d4e74,54,1,2024-02-28T14:59:31.664Z,french_955.wav,0,poule,239,38,3,5,français,m,0,0.0,-94.25756264,0.84151631
61334a37ecf0f837ea7d4e74,54,1,2024-02-28T14:59:31.664Z,french_955.wav,0,poule,239,38,3,5,français,m,1,0.1,-34.03260107,0.64154244
61334a37ecf0f837ea7d4e74,54,1,2024-02-28T14:59:31.664Z,french_955.wav,0,poule,239,38,3,5,français,m,2,0.2,-13.41635507,0.7407158
61334a37ecf0f837ea7d4e74,54,1,2024-02-28T14:59:31.664Z,french_955.wav,0,poule,239,38,3,5,français,m,3,0.3,-71.54807008,0.93666894
61334a37ecf0f837ea7d4e74,54,1,2024-02-28T14:59:31.664Z,french_955.wav,0,poule,239,38,3,5,français,m,4,0.4,-77.331913,1.77494387
61334a37ecf0f837ea7d4e74,54,1,2024-02-28T14:59:31.664Z,french_955.wav,0,poule,239,38,3,5,français,m,5,0.5,-50.91677929,1.86091326
61334a37ecf0f837ea7d4e74,54,1,2024-02-28T14:59:31.664Z,french_955.wav,0,poule,239,38,3,5,français,m,6,0.6,-49.3272692,0.93752328
61334a37ecf0f837ea7d4e74,54,1,2024-02-28T14:59:31.664Z,french_955.wav,0,poule,239,38,3,5,français,m,7,0.7,14.98823062,1.66003137
61334a37ecf0f837ea7d4e74,54,1,2024-02-28T14:59:31.664Z,french_955.wav,0,poule,239,38,3,5,français,m,8,0.8,-92.82474453,0.78633884
61334a37ecf0f837ea7d4e74,54,1,2024-02-28T14:59:31.664Z,french_955.wav,0,poule,239,38,3,5,français,m,9,0.9,52.03391348,1.69754994
61334a37ecf0f837ea7d4e74,54,1,2024-02-28T14:59:31.664Z,french_955.wav,0,poule,239,38,3,5,français,m,10,1.0,-96.34521909,1.91328734
61334a37ecf0f837ea7d4e74,54,1,2024-02-28T14:59:31.664Z,french_955.wav,0,poule,239,38,3,5,français,m,11,1.1,-2.783526,0.45528324
61334a37ecf0f837ea7d4e74,54,1,2024-02-28T14:59:31.664Z,french_955.wav,0,poule,239,38,3,5,français,m,12,1.14141667,38.46492665,0.73678697
61334a37ecf0f837ea7d4e74,55,1,2024-02-28T14:59:31.664Z,french_101.wav,0,pull,706,38,3,5,français,m,0,0.0,-65.46087388,1.12241829
61334a37ecf0f837ea7d4e74,55,1,2024-02-28T14:59:31.664Z,french_101.wav,0,pull,706,38,3,5,français,m,1,0.1,63.59656018,0.33793213
61334a37ecf0f837ea7d4e74,55,1,2024-02-28T14:59:31.664Z,french_101.wav,0,pull,706,38,3,5,français,m,2,0.2,54.14288835,1.19927572
61334a37ecf0f837ea7d4e74,55,1,2024-02-28T14:59:31.664Z,french_101.wav,0,pull,706,38,3,5,français,m,3,0.3,22.15338449,1.19891661
61334a37ecf0f837ea7d4e74,55,1,2024-02-28T14:59:31.664Z,french_101.wav,0,pull,706,38,3,5,français,m,4,0.4,9.44966108,1.16356615
61334a37ecf0f837ea7d4e74,55,1,2024-02-28T14:59:31.664Z,french_101.wav,0,pull,706,38,3,5,français,m,5,0.5,62.3405883,1.8094662
61334a37ecf0f837ea7d4e74,55,1,2024-02-28T14:59:31.664Z,french_101.wav,0,pull,706,38,3,5,français,m,6,0.6,35.08854145,1.21572763
61334a37ecf0f837ea7d4e74,55,1,2024-02-28T14:59:31.664Z,french_101.wav,0,pull,706,38,3,5,français,m,7,0.7,90.28352707,1.20829502
61334a37ecf0f837ea7d4e74,55,1,2024-02-28T14:59:31.664Z,french_101.wav,0,pull,706,38,3,5,français,m,8,0.8,32.40917648,0.2048106
61334a37ecf0f837ea7d4e74,55,1,2024-02-28T14:59:31.664Z,french_101.wav,0,pull,706,38,3,5,français,m,9,0.9,45.65146214,0.15870555
61334a37ecf0f837ea7d4e74,55,1,2024-02-28T14:59:31.664Z,french_101.wav,0,pull,706,38,3,5,français,m,10,1.0,26.68572675,0.85858703
61334a37ecf0f837ea7d4e74,55,1,2024-02-28T14:59:31.664Z,french_101.wav,0,pull,706,38,3,5,français,m,11,1.1,-28.95615297,0.96045603
61334a37ecf0f837ea7d4e74,55,1,2024-02-28T14:59:31.664Z,french_101.wav,0,pull,706,38,3,5,français,m,12,1.14141667,65.42086227,0.41262817
61334a37ecf0f837ea7d4e74,56,1,2024-02-28T14:59:31.664Z,french_569.wav,0,poule,293,38,3,5,français,m,0,0.0,40.60139036,1.33844242
61334a37ecf0f837ea7d4e74,56,1,2024-02-28T14:59:31.664Z,french_569.wav,0,poule,293,38,3,5,français,m,1,0.1,-15.15147128,1.76501112
61334a37ecf0f837ea7d4e74,56,1,2024-02-28T14:59:31.664Z,french_569.wav,0,poule,293,38,3,5,français,m,2,0.2,-0.95888134,0.94211994
61334a37ecf0f837ea7d4e74,56,1,2024-02-28T14:59:31.664Z,french_569.wav,0,poule,293,38,3,5,français,m,3,0.3,44.12601478,0.15427666
61334a37ecf0f837ea7d4e74,56,1,2024-02-28T14:59:31.664Z,french_569.wav,0,poule,293,38,3,5,français,m,4,0.4,-57.82031804,1.07164182
61334a37ecf0f837ea7d4e74,56,1,2024-02-28T14:59:31.664Z,french_569.wav,0,poule,293,38,3,5,français,m,5,0.5,64.27680708,1.5909132
61334a37ecf0f837ea7d4e74,56,1,2024-02-28T14:59:31.664Z,french_569.wav,0,poule,293,38,3,5,français,m,6,0.6,-63.61731308,1.21963001
61334a37ecf0f837ea7d4e74,56,1,2024-02-28T14:59:31.664Z,french_569.wav,0,poule,293,38,3,5,français,m,7,0.7,77.98248538,0.17925278
61334a37ecf0f837ea7d4e74,56,1,2024-02-28T14:59:31.664Z,french_569.wav,0,poule,293,38,3,5,français,m,8,0.8,-85.02373468,1.54369257
61334a37ecf0f837ea7d4e74,56,1,2024-02-28T14:59:31.664Z,french_569.wav,0,poule,293,38,3,5,français,m,9,0.9,23.7771992,1.35763688
61334a37ecf0f837ea7d4e74,56,1,2024-02-28T14:59:31.664Z,french_569.wav,0,poule,293,38,3,5,français,m,10,1.0,61.80066761,1.46111522
61334a37ecf0f837ea7d4e74,56,1,2024-02-28T14:59:31.664Z,french_569.wav,0,poule,293,38,3,5,français,m,11,1.1,-41.94387,0.95375882
61334a37ecf0f837ea7d4e74,56,1,2024-02-28T14:59:31.664Z,french_569.wav,0,poule,293,38,3,5,français,m,12,1.14141667,60.59433976,0.23927558
61334a37ecf0f837ea7d4e74,57,1,2024-02-28T14:59:31.664Z,french_381.wav,0,pull,623,38,3,5,français,m,0,0.0,16.77547757,1.57552779
61334a37ecf0f837ea7d4e74,57,1,2024-02-28T14:59:31.664Z,french_381.wav,0,pull,623,38,3,5,français,m,1,0.1,17.23505451,0.79968926
61334a37ecf0f837ea7d4e74,57,1,2024-02-28T14:59:31.664Z,french_381.wav,0,pull,623,38,3,5,français,m,2,0.2,81.55975147,0.97870808
61334a37ecf0f837ea7d4e74,57,1,2024-02-28T14:59:31.664Z,french_381.wav,0,pull,623,38,3,5,français,m,3,0.3,66.33872026,1.32218964
61334a37ecf0f837ea7d4e74,57,1,2024-02-28T14:59:31.664Z,french_381.wav,0,pull,623,38,3,5,français,m,4,0.4,33.03818018,1.91491421
61334a37ecf0f837ea7d4e74,57,1,2024-02-28T14:59:31.664Z,french_381.wav,0,pull,623,38,3,5,français,m,5,0.5,-27.31689891,1.55764182
61334a37ecf0f837ea7d4e74,57,1,2024-02-28T14:59:31.664Z,french_381.wav,0,pull,623,38,3,5,français,m,6,0.6,23.16804454,1.56469583
61334a37ecf0f837ea7d4e74,57,1,2024-02-28T14:59:31.664Z,french_381.wav,0,pull,623,38,3,5,français,m,7,0.7,-22.15418729,0.99557265
61334a37ecf0f837ea7d4e74,57,1,2024-02-28T14:59:31.664Z,french_381.wav,0,pull,623,38,3,5,français,m,8,0.8,17.55346965,0.5982603
61334a37ecf0f837ea7d4e74,57,1,2024-02-28T14:59:31.664Z,french_381.wav,0,pull,623,38,3,5,français,m,9,0.9,-25.58605951,0.02411044
61334a37ecf0f837ea7d4e74,57,1,2024-02-28T14:59:31.664Z,french_381.wav,0,pull,623,38,3,5,français,m,10,1.0,-85.31796448,0.77366774
61334a37ecf0f837ea7d4e74,57,1,2024-02-28T14:59:31.664Z,french_381.wav,0,pull,623,38,3,5,français,m,11,1.1,-83.45042571,0.9088508
61334a37ecf0f837ea7d4e74,57,1,2024-02-28T14:59:31.664Z,french_381.wav,0,pull,623,38,3,5,français,m,12,1.14141667,12.63282515,1.14991204
61334a37ecf0f837ea7d4e74,58,1,2024-02-28T14:59:31.664Z,french_788.wav,0,poule,243,38,3,5,français,m,0,0.0,84.88181246,0.03175168
61334a37ecf0f837ea7d4e74,58,1,2024-02-28T14:59:31.664Z,french_788.wav,0,poule,243,38,3,5,français,m,1,0.1,-53.361196,0.85169606
61334a37ecf0f837ea7d4e74,58,1,2024-02-28T14:59:31.664Z,french_788.wav,0,poule,243,38,3,5,français,m,2,0.2,-79.83183492,1.06249642
61334a37ecf0f837ea7d4e74,58,1,2024-02-28T14:59:31.664Z,french_788.wav,0,poule,243,38,3,5,français,m,3,0.3,-81.43667249,0.33118056
61334a37ecf0f837ea7d4e74,58,1,2024-02-28T14:59:31.664Z,french_788.wav,0,poule,243,38,3,5,français,m,4,0.4,-84.26984857,0.56264905
61334a37ecf0f837ea7d4e74,58,1,2024-02-28T14:59:31.664Z,french_788.wav,0,poule,243,38,3,5,français,m,5,0.5,-6.78913133,1.04297642
61334a37ecf0f837ea7d4e74,58,1,2024-02-28T14:59:31.664Z,french_788.wav,0,poule,243,38,3,5,français,m,6,0.6,-92.03119161,0.21097219
61334a37ecf0f837ea7d4e74,58,1,2024-02-28T14:59:31.664Z,french_788.wav,0,poule,243,38,3,5,français,m,7,0.7,-49.77310548,0.74540568
61334a37ecf0f837ea7d4e74,58,1,2024-02-28T14:59:31.664Z,french_788.wav,0,poule,243,38,3,5,français,m,8,0.8,-47.02560552,0.91078692
61334a37ecf0f837ea7d4e74,58,1,2024-02-28T14:59:31.664Z,french_788.wav,0,poule,243,38,3,5,français,m,9,0.9,-18.72561961,1.76633496
61334a37ecf0f837ea7d4e74,58,1,2024-02-28T14:59:31.664Z,french_788.wav,0,poule,243,38,3,5,français,m,10,1.0,-17.58583792,0.74480247
61334a37ecf0f837ea7d4e74,58,1,2024-02-28T14:59:31.664Z,french_788.wav,0,poule,243,38,3,5,français,m,11,1.1,-51.68507601,0.45106358
61334a37ecf0f837ea7d4e74,58,1,2024-02-28T14:59:31.664Z,french_788.wav,0,poule,243,38,3,5,français,m,12,1.14141667,-51.32861943,1.35846838
61334a37ecf0f837ea7d4e74,59,1,2024-02-28T14:59:31.664Z,french_189.wav,0,pull,499,38,3,5,français,m,0,0.0,28.35724915,1.71415681
61334a37ecf0f837ea7d4e74,59,1,2024-02-28T14:59:31.664Z,french_189.wav,0,pull,499,38,3,5,français,m,1,0.1,26.38493171,0.18459313
61334a37ecf0f837ea7d4e74,59,1,2024-02-28T14:59:31.664Z,french_189.wav,0,pull,499,38,3,5,français,m,2,0.2,8.90779244,0.47305151
61334a37ecf0f837ea7d4e74,59,1,2024-02-28T14:59:31.664Z,french_189.wav,0,pull,499,38,3,5,français,m,3,0.3,-34.13241848,1.92043918
