subj,trial,block,date,stim,stim_order,response,rt,age,english,french,language,sex,param_index,segment,pitch,stretch
640095c783a33710a484adee,0,0,2024-02-28T14:47:43.210Z,french_355.wav,0,pull,2723,60,5,5,français,m,0,0.0,27.09635225,1.7893255
640095c783a33710a484adee,0,0,2024-02-28T14:47:43.210Z,french_355.wav,0,pull,2723,60,5,5,français,m,1,0.1,-6.29632598,0.04304725
640095c783a33710a484adee,0,0,2024-02-28T14:47:43.210Z,french_355.wav,0,pull,2723,60,5,5,français,m,2,0.2,-7.47224107,1.71755797
640095c783a33710a484adee,0,0,2024-02-28T14:47:43.210Z,french_355.wav,0,pull,2723,60,5,5,français,m,3,0.3,-49.75069509,0.85848381
640095c783a33710a484adee,0,0,2024-02-28T14:47:43.210Z,french_355.wav,0,pull,2723,60,5,5,français,m,4,0.4,-10.14072205,0.71063264
640095c783a33710a484adee,0,0,2024-02-28T14:47:43.210Z,french_355.wav,0,pull,2723,60,5,5,français,m,5,0.5,76.48140099,0.26215974
640095c783a33710a484adee,0,0,2024-02-28T14:47:43.210Z,french_355.wav,0,pull,2723,60,5,5,français,m,6,0.6,23.53863424,0.54805903
640095c783a33710a484adee,0,0,2024-02-28T14:47:43.210Z,french_355.wav,0,pull,2723,60,5,5,français,m,7,0.7,-44.61102767,0.54170824
640095c783a33710a484adee,0,0,2024-02-28T14:47:43.210Z,french_355.wav,0,pull,2723,60,5,5,français,m,8,0.8,-78.52892661,1.88709492
640095c783a33710a484adee,0,0,2024-02-28T14:47:43.210Z,french_355.wav,0,pull,2723,60,5,5,français,m,9,0.9,53.26847569,0.37999428
640095c783a33710a484adee,0,0,2024-02-28T14:47:43.210Z,french_355.wav,0,pull,2723,60,5,5,français,m,10,1.0,-36.05053095,0.14766966
640095c783a33710a484adee,0,0,2024-02-28T14:47:43.210Z,french_355.wav,0,pull,2723,60,5,5,français,m,11,1.1,73.84862681,1.40974217
640095c783a33710a484adee,0,0,2024-02-28T14:47:43.210Z,french_355.wav,0,pull,2723,60,5,5,français,m,12,1.14141667,30.67572751,0.15847185
640095c783a33710a484adee,1,0,2024-02-28T14:47:43.210Z,french_147.wav,0,poule,395,60,5,5,français,m,0,0.0,43.59768472,0.75883139
640095c783a33710a484adee,1,0,2024-02-28T14:47:43.210Z,french_147.wav,0,poule,395,60,5,5,français,m,1,0.1,5.27615481,0.68857604
640095c783a33710a484adee,1,0,2024-02-28T14:47:43.210Z,french_147.wav,0,poule,395,60,5,5,français,m,2,0.2,-44.61195544,1.03649149
640095c783a33710a484adee,1,0,2024-02-28T14:47:43.210Z,french_147.wav,0,poule,395,60,5,5,français,m,3,0.3,-76.96509144,1.25844465
640095c783a33710a484adee,1,0,2024-02-28T14:47:43.210Z,french_147.wav,0,poule,395,60,5,5,français,m,4,0.4,-32.44980634,0.35823479
640095c783a33710a484adee,1,0,2024-02-28T14:47:43.210Z,french_147.wav,0,poule,395,60,5,5,français,m,5,0.5,70.43396506,1.36921243
640095c783a33710a484adee,1,0,2024-02-28T14:47:43.210Z,french_147.wav,0,poule,395,60,5,5,français,m,6,0.6,-38.3254351,1.21356569
640095c783a33710a484adee,1,0,2024-02-28T14:47:43.210Z,french_147.wav,0,poule,395,60,5,5,français,m,7,0.7,52.08578881,0.98986047
640095c783a33710a484adee,1,0,2024-02-28T14:47:43.210Z,french_147.wav,0,poule,395,60,5,5,français,m,8,0.8,-28.17308576,1.9051095
640095c783a33710a484adee,1,0,2024-02-28T14:47:43.210Z,french_147.wav,0,poule,395,60,5,5,français,m,9,0.9,-10.89832162,1.35815009
640095c783a33710a484adee,1,0,2024-02-28T14:47:43.210Z,french_147.wav,0,poule,395,60,5,5,français,m,10,1.0,75.90492901,1.54610858
640095c783a33710a484adee,1,0,2024-02-28T14:47:43.210Z,french_147.wav,0,poule,395,60,5,5,français,m,11,1.1,18.84686186,1.77017923
640095c783a33710a484adee,1,0,2024-02-28T14:47:43.210Z,french_147.wav,0,poule,395,60,5,5,français,m,12,1.14141667,-70.82963066,1.1558003
640095c783a33710a484adee,2,0,2024-02-28T14:47:43.210Z,french_762.wav,0,poule,288,60,5,5,français,m,0,0.0,-58.12229052,0.21129852
640095c783a33710a484adee,2,0,2024-02-28T14:47:43.210Z,french_762.wav,0,poule,288,60,5,5,français,m,1,0.1,-14.77350677,0.91239865
640095c783a33710a484adee,2,0,2024-02-28T14:47:43.210Z,french_762.wav,0,poule,288,60,5,5,français,m,2,0.2,54.6713271,1.23280243
640095c783a33710a484adee,2,0,2024-02-28T14:47:43.210Z,french_762.wav,0,poule,288,60,5,5,français,m,3,0.3,-40.90961907,1.70520871
640095c783a33710a484adee,2,0,2024-02-28T14:47:43.210Z,french_762.wav,0,poule,288,60,5,5,français,m,4,0.4,-58.09703168,1.68630109
640095c783a33710a484adee,2,0,2024-02-28T14:47:43.210Z,french_762.wav,0,poule,288,60,5,5,français,m,5,0.5,69.97242743,1.73739259
640095c783a33710a484adee,2,0,2024-02-28T14:47:43.210Z,french_762.wav,0,poule,288,60,5,5,français,m,6,0.6,16.84172576,1.78407027
640095c783a33710a484adee,2,0,2024-02-28T14:47:43.210Z,french_762.wav,0,poule,288,60,5,5,français,m,7,0.7,75.48068622,1.90214956
640095c783a33710a484adee,2,0,2024-02-28T14:47:43.210Z,french_762.wav,0,poule,288,60,5,5,français,m,8,0.8,-58.94157604,1.23208501
640095c783a33710a484adee,2,0,2024-02-28T14:47:43.210Z,french_762.wav,0,poule,288,60,5,5,français,m,9,0.9,44.93279187,1.10717751
640095c783a33710a484adee,2,0,2024-02-28T14:47:43.210Z,french_762.wav,0,poule,288,60,5,5,français,m,10,1.0,-70.94196175,1.38101187
640095c783a33710a484adee,2,0,2024-02-28T14:47:43.210Z,french_762.wav,0,poule,288,60,5,5,français,m,11,1.1,-49.70042392,1.55049932
640095c783a33710a484adee,2,0,2024-02-28T14:47:43.210Z,french_762.wav,0,poule,288,60,5,5,français,m,12,1.14141667,20.69121196,0.62647488
640095c783a33710a484adee,3,0,2024-02-28T14:47:43.210Z,french_238.wav,0,pull,534,60,5,5,français,m,0,0.0,11.33876858,1.57793391
640095c783a33710a484adee,3,0,2024-02-28T14:47:43.210Z,french_238.wav,0,pull,534,60,5,5,français,m,1,0.1,60.4886843,0.5338128
640095c783a33710a484adee,3,0,2024-02-28T14:47:43.210Z,french_238.wav,0,pull,534,60,5,5,français,m,2,0.2,62.61816742,0.71153002
640095c783a33710a484adee,3,0,2024-02-28T14:47:43.210Z,french_238.wav,0,pull,534,60,5,5,français,m,3,0.3,-58.2929198,0.52960248
640095c783a33710a484adee,3,0,2024-02-28T14:47:43.210Z,french_238.wav,0,pull,534,60,5,5,français,m,4,0.4,-87.34277879,1.00617454
640095c783a33710a484adee,3,0,2024-02-28T14:47:43.210Z,french_238.wav,0,pull,534,60,5,5,français,m,5,0.5,-26.6303728,0.81851938
640095c783a33710a484adee,3,0,2024-02-28T14:47:43.210Z,french_238.wav,0,pull,534,60,5,5,français,m,6,0.6,91.01553739,0.92366448
640095c783a33710a484adee,3,0,2024-02-28T14:47:43.210Z,french_238.wav,0,pull,534,60,5,5,français,m,7,0.7,16.48997416,0.72259943
640095c783a33710a484adee,3,0,2024-02-28T14:47:43.210Z,french_238.wav,0,pull,534,60,5,5,français,m,8,0.8,-33.13671934,0.36894476
640095c783a33710a484adee,3,0,2024-02-28T14:47:43.210Z,french_238.wav,0,pull,534,60,5,5,français,m,9,0.9,39.47811592,0.86774156
640095c783a33710a484adee,3,0,2024-02-28T14:47:43.210Z,french_238.wav,0,pull,534,60,5,5,français,m,10,1.0,-82.2057662,1.1038755
640095c783a33710a484adee,3,0,2024-02-28T14:47:43.210Z,french_238.wav,0,pull,534,60,5,5,français,m,11,1.1,-87.16985017,1.20164054
640095c783a33710a484adee,3,0,2024-02-28T14:47:43.210Z,french_238.wav,0,pull,534,60,5,5,français,m,12,1.14141667,-97.56990307,1.5425577
640095c783a33710a484adee,4,0,2024-02-28T14:47:43.210Z,french_27.wav,0,pull,880,60,5,5,français,m,0,0.0,-1.50377204,0.3104196
640095c783a33710a484adee,4,0,2024-02-28T14:47:43.210Z,french_27.wav,0,pull,880,60,5,5,français,m,1,0.1,7.47875837,0.09567804
640095c783a33710a484adee,4,0,2024-02-28T14:47:43.210Z,french_27.wav,0,pull,880,60,5,5,français,m,2,0.2,-50.14128102,0.85087588
640095c783a33710a484adee,4,0,2024-02-28T14:47:43.210Z,french_27.wav,0,pull,880,60,5,5,français,m,3,0.3,-88.39961719,1.45265647
640095c783a33710a484adee,4,0,2024-02-28T14:47:43.210Z,french_27.wav,0,pull,880,60,5,5,français,m,4,0.4,-49.33965182,1.34800208
640095c783a33710a484adee,4,0,2024-02-28T14:47:43.210Z,french_27.wav,0,pull,880,60,5,5,français,m,5,0.5,-68.54669644,1.04395523
640095c783a33710a484adee,4,0,2024-02-28T14:47:43.210Z,french_27.wav,0,pull,880,60,5,5,français,m,6,0.6,-12.90156587,1.29844977
640095c783a33710a484adee,4,0,2024-02-28T14:47:43.210Z,french_27.wav,0,pull,880,60,5,5,français,m,7,0.7,70.78738425,0.13763237
640095c783a33710a484adee,4,0,2024-02-28T14:47:43.210Z,french_27.wav,0,pull,880,60,5,5,français,m,8,0.8,-85.06905441,1.23467997
640095c783a33710a484adee,4,0,2024-02-28T14:47:43.210Z,french_27.wav,0,pull,880,60,5,5,français,m,9,0.9,-13.50869681,0.09749829
640095c783a33710a484adee,4,0,2024-02-28T14:47:43.210Z,french_27.wav,0,pull,880,60,5,5,français,m,10,1.0,34.30290891,0.14969302
640095c783a33710a484adee,4,0,2024-02-28T14:47:43.210Z,french_27.wav,0,pull,880,60,5,5,français,m,11,1.1,-41.23505264,0.43290894
640095c783a33710a484adee,4,0,2024-02-28T14:47:43.210Z,french_27.wav,0,pull,880,60,5,5,français,m,12,1.14141667,12.46163778,0.76657439
640095c783a33710a484adee,5,0,2024-02-28T14:47:43.210Z,french_912.wav,0,pull,1961,60,5,5,français,m,0,0.0,80.68071625,0.60833614
640095c783a33710a484adee,5,0,2024-02-28T14:47:43.210Z,french_912.wav,0,pull,1961,60,5,5,français,m,1,0.1,-74.6096102,1.31673181
640095c783a33710a484adee,5,0,2024-02-28T14:47:43.210Z,french_912.wav,0,pull,1961,60,5,5,français,m,2,0.2,73.86411106,0.17478281
640095c783a33710a484adee,5,0,2024-02-28T14:47:43.210Z,french_912.wav,0,pull,1961,60,5,5,français,m,3,0.3,64.55158236,0.08969123
640095c783a33710a484adee,5,0,2024-02-28T14:47:43.210Z,french_912.wav,0,pull,1961,60,5,5,français,m,4,0.4,65.90025627,1.187561
640095c783a33710a484adee,5,0,2024-02-28T14:47:43.210Z,french_912.wav,0,pull,1961,60,5,5,français,m,5,0.5,50.81800611,1.86233101
640095c783a33710a484adee,5,0,2024-02-28T14:47:43.210Z,french_912.wav,0,pull,1961,60,5,5,français,m,6,0.6,47.81573035,0.98705671
640095c783a33710a484adee,5,0,2024-02-28T14:47:43.210Z,french_912.wav,0,pull,1961,60,5,5,français,m,7,0.7,62.25019961,0.81508534
640095c783a33710a484adee,5,0,2024-02-28T14:47:43.210Z,french_912.wav,0,pull,1961,60,5,5,français,m,8,0.8,-33.502047,0.24174061
640095c783a33710a484adee,5,0,2024-02-28T14:47:43.210Z,french_912.wav,0,pull,1961,60,5,5,français,m,9,0.9,54.29227419,0.06561792
640095c783a33710a484adee,5,0,2024-02-28T14:47:43.210Z,french_912.wav,0,pull,1961,60,5,5,français,m,10,1.0,-31.85955495,1.83275675
640095c783a33710a484adee,5,0,2024-02-28T14:47:43.210Z,french_912.wav,0,pull,1961,60,5,5,français,m,11,1.1,-34.2401342,0.04646604
640095c783a33710a484adee,5,0,2024-02-28T14:47:43.210Z,french_912.wav,0,pull,1961,60,5,5,français,m,12,1.14141667,83.50219834,1.51289562
640095c783a33710a484adee,6,0,2024-02-28T14:47:43.210Z,french_767.wav,0,poule,715,60,5,5,français,m,0,0.0,31.24966423,0.89200081
640095c783a33710a484adee,6,0,2024-02-28T14:47:43.210Z,french_767.wav,0,poule,715,60,5,5,français,m,1,0.1,-33.74972246,0.44980231
640095c783a33710a484adee,6,0,2024-02-28T14:47:43.210Z,french_767.wav,0,poule,715,60,5,5,français,m,2,0.2,71.56049833,0.50688559
640095c783a33710a484adee,6,0,2024-02-28T14:47:43.210Z,french_767.wav,0,poule,715,60,5,5,français,m,3,0.3,62.17111584,1.0886013
640095c783a33710a484adee,6,0,2024-02-28T14:47:43.210Z,french_767.wav,0,poule,715,60,5,5,français,m,4,0.4,35.54545248,1.84098668
640095c783a33710a484adee,6,0,2024-02-28T14:47:43.210Z,french_767.wav,0,poule,715,60,5,5,français,m,5,0.5,68.28182606,1.57490731
640095c783a33710a484adee,6,0,2024-02-28T14:47:43.210Z,french_767.wav,0,poule,715,60,5,5,français,m,6,0.6,-85.55401335,0.92975639
640095c783a33710a484adee,6,0,2024-02-28T14:47:43.210Z,french_767.wav,0,poule,715,60,5,5,français,m,7,0.7,-59.71070843,1.27612781
640095c783a33710a484adee,6,0,2024-02-28T14:47:43.210Z,french_767.wav,0,poule,715,60,5,5,français,m,8,0.8,46.66690446,1.46786923
640095c783a33710a484adee,6,0,2024-02-28T14:47:43.210Z,french_767.wav,0,poule,715,60,5,5,français,m,9,0.9,-33.16116599,0.72434396
640095c783a33710a484adee,6,0,2024-02-28T14:47:43.210Z,french_767.wav,0,poule,715,60,5,5,français,m,10,1.0,9.56946316,0.62492348
640095c783a33710a484adee,6,0,2024-02-28T14:47:43.210Z,french_767.wav,0,poule,715,60,5,5,français,m,11,1.1,-24.73907556,1.30557
640095c783a33710a484adee,6,0,2024-02-28T14:47:43.210Z,french_767.wav,0,poule,715,60,5,5,français,m,12,1.14141667,-56.92984188,0.8430712
640095c783a33710a484adee,7,0,2024-02-28T14:47:43.210Z,french_853.wav,0,pull,301,60,5,5,français,m,0,0.0,-35.85509781,0.87912281
640095c783a33710a484adee,7,0,2024-02-28T14:47:43.210Z,french_853.wav,0,pull,301,60,5,5,français,m,1,0.1,-85.16852279,1.60362916
640095c783a33710a484adee,7,0,2024-02-28T14:47:43.210Z,french_853.wav,0,pull,301,60,5,5,français,m,2,0.2,43.35151906,0.05367398
640095c783a33710a484adee,7,0,2024-02-28T14:47:43.210Z,french_853.wav,0,pull,301,60,5,5,français,m,3,0.3,-36.27408381,1.0932021
640095c783a33710a484adee,7,0,2024-02-28T14:47:43.210Z,french_853.wav,0,pull,301,60,5,5,français,m,4,0.4,48.36174943,0.145173
640095c783a33710a484adee,7,0,2024-02-28T14:47:43.210Z,french_853.wav,0,pull,301,60,5,5,français,m,5,0.5,15.35458122,0.56043792
640095c783a33710a484adee,7,0,2024-02-28T14:47:43.210Z,french_853.wav,0,pull,301,60,5,5,français,m,6,0.6,90.63917047,0.33756351
640095c783a33710a484adee,7,0,2024-02-28T14:47:43.210Z,french_853.wav,0,pull,301,60,5,5,français,m,7,0.7,-25.85237464,1.25653162
640095c783a33710a484adee,7,0,2024-02-28T14:47:43.210Z,french_853.wav,0,pull,301,60,5,5,français,m,8,0.8,70.77908005,0.37110217
640095c783a33710a484adee,7,0,2024-02-28T14:47:43.210Z,french_853.wav,0,pull,301,60,5,5,français,m,9,0.9,38.87803449,0.9869935
640095c783a33710a484adee,7,0,2024-02-28T14:47:43.210Z,french_853.wav,0,pull,301,60,5,5,français,m,10,1.0,-78.6315789,1.45701755
640095c783a33710a484adee,7,0,2024-02-28T14:47:43.210Z,french_853.wav,0,pull,301,60,5,5,français,m,11,1.1,-2.04968734,1.50454965
640095c783a33710a484adee,7,0,2024-02-28T14:47:43.210Z,french_853.wav,0,pull,301,60,5,5,français,m,12,1.14141667,-46.31602044,1.33087312
640095c783a33710a484adee,8,0,2024-02-28T14:47:43.210Z,french_495.wav,0,poule,534,60,5,5,français,m,0,0.0,-91.99726694,1.53002415
640095c783a33710a484adee,8,0,2024-02-28T14:47:43.210Z,french_495.wav,0,poule,534,60,5,5,français,m,1,0.1,-66.79130223,0.64514092
640095c783a33710a484adee,8,0,2024-02-28T14:47:43.210Z,french_495.wav,0,poule,534,60,5,5,français,m,2,0.2,-8.36482549,1.58667926
640095c783a33710a484adee,8,0,2024-02-28T14:47:43.210Z,french_495.wav,0,poule,534,60,5,5,français,m,3,0.3,95.35890334,1.46230705
640095c783a33710a484adee,8,0,2024-02-28T14:47:43.210Z,french_495.wav,0,poule,534,60,5,5,français,m,4,0.4,-20.18702894,0.54635544
640095c783a33710a484adee,8,0,2024-02-28T14:47:43.210Z,french_495.wav,0,poule,534,60,5,5,français,m,5,0.5,43.83113564,1.9891978
640095c783a33710a484adee,8,0,2024-02-28T14:47:43.210Z,french_495.wav,0,poule,534,60,5,5,français,m,6,0.6,-8.49792617,1.16341373
640095c783a33710a484adee,8,0,2024-02-28T14:47:43.210Z,french_495.wav,0,poule,534,60,5,5,français,m,7,0.7,96.19657116,0.67108355
640095c783a33710a484adee,8,0,2024-02-28T14:47:43.210Z,french_495.wav,0,poule,534,60,5,5,français,m,8,0.8,99.68717769,1.01244937
640095c783a33710a484adee,8,0,2024-02-28T14:47:43.210Z,french_495.wav,0,poule,534,60,5,5,français,m,9,0.9,-40.51827139,1.13461177
640095c783a33710a484adee,8,0,2024-02-28T14:47:43.210Z,french_495.wav,0,poule,534,60,5,5,français,m,10,1.0,56.21408407,1.92790356
640095c783a33710a484adee,8,0,2024-02-28T14:47:43.210Z,french_495.wav,0,poule,534,60,5,5,français,m,11,1.1,-73.65370102,1.79484219
640095c783a33710a484adee,8,0,2024-02-28T14:47:43.210Z,french_495.wav,0,poule,534,60,5,5,français,m,12,1.14141667,92.3588171,0.14203711
640095c783a33710a484adee,9,0,2024-02-28T14:47:43.210Z,french_592.wav,0,poule,1096,60,5,5,français,m,0,0.0,70.81103316,0.54665666
640095c783a33710a484adee,9,0,2024-02-28T14:47:43.210Z,french_592.wav,0,poule,1096,60,5,5,français,m,1,0.1,-26.4080383,0.88508354
640095c783a33710a484adee,9,0,2024-02-28T14:47:43.210Z,french_592.wav,0,poule,1096,60,5,5,français,m,2,0.2,-0.21646814,1.19588417
640095c783a33710a484adee,9,0,2024-02-28T14:47:43.210Z,french_592.wav,0,poule,1096,60,5,5,français,m,3,0.3,5.07209888,0.17214274
640095c783a33710a484adee,9,0,2024-02-28T14:47:43.210Z,french_592.wav,0,poule,1096,60,5,5,français,m,4,0.4,0.60727661,0.84375355
640095c783a33710a484adee,9,0,2024-02-28T14:47:43.210Z,french_592.wav,0,poule,1096,60,5,5,français,m,5,0.5,-4.25807997,1.80777341
640095c783a33710a484adee,9,0,2024-02-28T14:47:43.210Z,french_592.wav,0,poule,1096,60,5,5,français,m,6,0.6,-57.11909805,0.71388549
640095c783a33710a484adee,9,0,2024-02-28T14:47:43.210Z,french_592.wav,0,poule,1096,60,5,5,français,m,7,0.7,-40.92130442,1.31000832
640095c783a33710a484adee,9,0,2024-02-28T14:47:43.210Z,french_592.wav,0,poule,1096,60,5,5,français,m,8,0.8,57.21863493,0.43276947
640095c783a33710a484adee,9,0,2024-02-28T14:47:43.210Z,french_592.wav,0,poule,1096,60,5,5,français,m,9,0.9,70.04761432,1.73827866
640095c783a33710a484adee,9,0,2024-02-28T14:47:43.210Z,french_592.wav,0,poule,1096,60,5,5,français,m,10,1.0,-50.9301359,0.70932726
640095c783a33710a484adee,9,0,2024-02-28T14:47:43.210Z,french_592.wav,0,poule,1096,60,5,5,français,m,11,1.1,-84.24132436,0.23430707
640095c783a33710a484adee,9,0,2024-02-28T14:47:43.210Z,french_592.wav,0,poule,1096,60,5,5,français,m,12,1.14141667,-46.29341041,1.11453021
640095c783a33710a484adee,10,0,2024-02-28T14:47:43.210Z,french_374.wav,0,pull,482,60,5,5,français,m,0,0.0,-73.36770619,1.8243985
640095c783a33710a484adee,10,0,2024-02-28T14:47:43.210Z,french_374.wav,0,pull,482,60,5,5,français,m,1,0.1,36.09124315,0.19967439
640095c783a33710a484adee,10,0,2024-02-28T14:47:43.210Z,french_374.wav,0,pull,482,60,5,5,français,m,2,0.2,30.41930424,0.45303578
640095c783a33710a484adee,10,0,2024-02-28T14:47:43.210Z,french_374.wav,0,pull,482,60,5,5,français,m,3,0.3,3.27623503,0.80405214
640095c783a33710a484adee,10,0,2024-02-28T14:47:43.210Z,french_374.wav,0,pull,482,60,5,5,français,m,4,0.4,-73.34149579,1.42028051
640095c783a33710a484adee,10,0,2024-02-28T14:47:43.210Z,french_374.wav,0,pull,482,60,5,5,français,m,5,0.5,86.86435605,1.98711767
640095c783a33710a484adee,10,0,2024-02-28T14:47:43.210Z,french_374.wav,0,pull,482,60,5,5,français,m,6,0.6,24.4857118,1.99384715
640095c783a33710a484adee,10,0,2024-02-28T14:47:43.210Z,french_374.wav,0,pull,482,60,5,5,français,m,7,0.7,-69.31227427,1.54038495
640095c783a33710a484adee,10,0,2024-02-28T14:47:43.210Z,french_374.wav,0,pull,482,60,5,5,français,m,8,0.8,-24.89700854,1.02830185
640095c783a33710a484adee,10,0,2024-02-28T14:47:43.210Z,french_374.wav,0,pull,482,60,5,5,français,m,9,0.9,-28.99159538,1.86032293
640095c783a33710a484adee,10,0,2024-02-28T14:47:43.210Z,french_374.wav,0,pull,482,60,5,5,français,m,10,1.0,90.51139416,0.94233535
640095c783a33710a484adee,10,0,2024-02-28T14:47:43.210Z,french_374.wav,0,pull,482,60,5,5,français,m,11,1.1,-31.91151107,1.17580502
640095c783a33710a484adee,10,0,2024-02-28T14:47:43.210Z,french_374.wav,0,pull,482,60,5,5,français,m,12,1.14141667,-3.72146175,0.33217699
640095c783a33710a484adee,11,0,2024-02-28T14:47:43.210Z,french_108.wav,0,pull,958,60,5,5,français,m,0,0.0,-15.71044219,1.73834837
640095c783a33710a484adee,11,0,2024-02-28T14:47:43.210Z,french_108.wav,0,pull,958,60,5,5,français,m,1,0.1,-24.07766933,0.57132816
640095c783a33710a484adee,11,0,2024-02-28T14:47:43.210Z,french_108.wav,0,pull,958,60,5,5,français,m,2,0.2,54.15275115,0.58357142
640095c783a33710a484adee,11,0,2024-02-28T14:47:43.210Z,french_108.wav,0,pull,958,60,5,5,français,m,3,0.3,-63.07502063,1.80514009
640095c783a33710a484adee,11,0,2024-02-28T14:47:43.210Z,french_108.wav,0,pull,958,60,5,5,français,m,4,0.4,24.68553203,0.34682793
640095c783a33710a484adee,11,0,2024-02-28T14:47:43.210Z,french_108.wav,0,pull,958,60,5,5,français,m,5,0.5,-82.74094911,1.15494377
640095c783a33710a484adee,11,0,2024-02-28T14:47:43.210Z,french_108.wav,0,pull,958,60,5,5,français,m,6,0.6,-79.1722737,0.83484864
640095c783a33710a484adee,11,0,2024-02-28T14:47:43.210Z,french_108.wav,0,pull,958,60,5,5,français,m,7,0.7,41.74110491,0.32346488
640095c783a33710a484adee,11,0,2024-02-28T14:47:43.210Z,french_108.wav,0,pull,958,60,5,5,français,m,8,0.8,95.04343592,0.4811934
640095c783a33710a484adee,11,0,2024-02-28T14:47:43.210Z,french_108.wav,0,pull,958,60,5,5,français,m,9,0.9,-75.98698192,1.39829932
640095c783a33710a484adee,11,0,2024-02-28T14:47:43.210Z,french_108.wav,0,pull,958,60,5,5,français,m,10,1.0,-28.48511945,0.07997607
640095c783a33710a484adee,11,0,2024-02-28T14:47:43.210Z,french_108.wav,0,pull,958,60,5,5,français,m,11,1.1,81.70330103,0.5267169
640095c783a33710a484adee,11,0,2024-02-28T14:47:43.210Z,french_108.wav,0,pull,958,60,5,5,français,m,12,1.14141667,-76.43032585,0.46271263
640095c783a33710a484adee,12,0,2024-02-28T14:47:43.210Z,french_498.wav,0,pull,1468,60,5,5,français,m,0,0.0,-74.21506938,1.57035706
640095c783a33710a484adee,12,0,2024-02-28T14:47:43.210Z,french_498.wav,0,pull,1468,60,5,5,français,m,1,0.1,45.43383025,1.13989377
640095c783a33710a484adee,12,0,2024-02-28T14:47:43.210Z,french_498.wav,0,pull,1468,60,5,5,français,m,2,0.2,1.12815535,1.20975959
640095c783a33710a484adee,12,0,2024-02-28T14:47:43.210Z,french_498.wav,0,pull,1468,60,5,5,français,m,3,0.3,43.90579244,1.4621483
640095c783a33710a484adee,12,0,2024-02-28T14:47:43.210Z,french_498.wav,0,pull,1468,60,5,5,français,m,4,0.4,-44.65185704,1.80543681
640095c783a33710a484adee,12,0,2024-02-28T14:47:43.210Z,french_498.wav,0,pull,1468,60,5,5,français,m,5,0.5,-30.05431109,0.94375912
640095c783a33710a484adee,12,0,2024-02-28T14:47:43.210Z,french_498.wav,0,pull,1468,60,5,5,français,m,6,0.6,3.76580736,0.61619731
640095c783a33710a484adee,12,0,2024-02-28T14:47:43.210Z,french_498.wav,0,pull,1468,60,5,5,français,m,7,0.7,14.97201551,0.58171647
640095c783a33710a484adee,12,0,2024-02-28T14:47:43.210Z,french_498.wav,0,pull,1468,60,5,5,français,m,8,0.8,-73.99463239,0.30670665
640095c783a33710a484adee,12,0,2024-02-28T14:47:43.210Z,french_498.wav,0,pull,1468,60,5,5,français,m,9,0.9,52.14411397,1.23149127
640095c783a33710a484adee,12,0,2024-02-28T14:47:43.210Z,french_498.wav,0,pull,1468,60,5,5,français,m,10,1.0,-35.13239516,0.14479137
640095c783a33710a484adee,12,0,2024-02-28T14:47:43.210Z,french_498.wav,0,pull,1468,60,5,5,français,m,11,1.1,-15.67196842,0.69176192
640095c783a33710a484adee,12,0,2024-02-28T14:47:43.210Z,french_498.wav,0,pull,1468,60,5,5,français,m,12,1.14141667,-23.74164462,1.69964256
640095c783a33710a484adee,13,0,2024-02-28T14:47:43.210Z,french_900.wav,0,pull,1801,60,5,5,français,m,0,0.0,17.12559696,0.28086039
640095c783a33710a484adee,13,0,2024-02-28T14:47:43.210Z,french_900.wav,0,pull,1801,60,5,5,français,m,1,0.1,-56.5671441,0.25898492
640095c783a33710a484adee,13,0,2024-02-28T14:47:43.210Z,french_900.wav,0,pull,1801,60,5,5,français,m,2,0.2,14.51884338,0.73738281
640095c783a33710a484adee,13,0,2024-02-28T14:47:43.210Z,french_900.wav,0,pull,1801,60,5,5,français,m,3,0.3,-18.58724125,0.53194872
640095c783a33710a484adee,13,0,2024-02-28T14:47:43.210Z,french_900.wav,0,pull,1801,60,5,5,français,m,4,0.4,60.24825847,1.1731198
640095c783a33710a484adee,13,0,2024-02-28T14:47:43.210Z,french_900.wav,0,pull,1801,60,5,5,français,m,5,0.5,37.11732505,1.44096814
640095c783a33710a484adee,13,0,2024-02-28T14:47:43.210Z,french_900.wav,0,pull,1801,60,5,5,français,m,6,0.6,64.67645387,1.04426766
640095c783a33710a484adee,13,0,2024-02-28T14:47:43.210Z,french_900.wav,0,pull,1801,60,5,5,français,m,7,0.7,-71.32739236,1.30561608
640095c783a33710a484adee,13,0,2024-02-28T14:47:43.210Z,french_900.wav,0,pull,1801,60,5,5,français,m,8,0.8,-29.12352211,0.38583175
640095c783a33710a484adee,13,0,2024-02-28T14:47:43.210Z,french_900.wav,0,pull,1801,60,5,5,français,m,9,0.9,-23.92624308,1.06522554
640095c783a33710a484adee,13,0,2024-02-28T14:47:43.210Z,french_900.wav,0,pull,1801,60,5,5,français,m,10,1.0,-44.03405283,1.24631605
640095c783a33710a484adee,13,0,2024-02-28T14:47:43.210Z,french_900.wav,0,pull,1801,60,5,5,français,m,11,1.1,-24.43123867,0.11257647
640095c783a33710a484adee,13,0,2024-02-28T14:47:43.210Z,french_900.wav,0,pull,1801,60,5,5,français,m,12,1.14141667,85.71719888,1.16173008
640095c783a33710a484adee,14,0,2024-02-28T14:47:43.210Z,french_261.wav,0,pull,971,60,5,5,français,m,0,0.0,12.34576995,0.50310042
640095c783a33710a484adee,14,0,2024-02-28T14:47:43.210Z,french_261.wav,0,pull,971,60,5,5,français,m,1,0.1,25.47601384,0.25268449
640095c783a33710a484adee,14,0,2024-02-28T14:47:43.210Z,french_261.wav,0,pull,971,60,5,5,français,m,2,0.2,-67.0906301,0.7627603
640095c783a33710a484adee,14,0,2024-02-28T14:47:43.210Z,french_261.wav,0,pull,971,60,5,5,français,m,3,0.3,-13.09856908,1.52142005
640095c783a33710a484adee,14,0,2024-02-28T14:47:43.210Z,french_261.wav,0,pull,971,60,5,5,français,m,4,0.4,68.1575105,1.92904385
640095c783a33710a484adee,14,0,2024-02-28T14:47:43.210Z,french_261.wav,0,pull,971,60,5,5,français,m,5,0.5,-2.34833931,0.33812634
640095c783a33710a484adee,14,0,2024-02-28T14:47:43.210Z,french_261.wav,0,pull,971,60,5,5,français,m,6,0.6,-56.25265887,1.12365674
640095c783a33710a484adee,14,0,2024-02-28T14:47:43.210Z,french_261.wav,0,pull,971,60,5,5,français,m,7,0.7,99.24314725,0.56685205
640095c783a33710a484adee,14,0,2024-02-28T14:47:43.210Z,french_261.wav,0,pull,971,60,5,5,français,m,8,0.8,97.55208396,1.813104
640095c783a33710a484adee,14,0,2024-02-28T14:47:43.210Z,french_261.wav,0,pull,971,60,5,5,français,m,9,0.9,-44.49919777,1.56800569
640095c783a33710a484adee,14,0,2024-02-28T14:47:43.210Z,french_261.wav,0,pull,971,60,5,5,français,m,10,1.0,-9.98862023,0.34584513
640095c783a33710a484adee,14,0,2024-02-28T14:47:43.210Z,french_261.wav,0,pull,971,60,5,5,français,m,11,1.1,12.33371854,0.48440501
640095c783a33710a484adee,14,0,2024-02-28T14:47:43.210Z,french_261.wav,0,pull,971,60,5,5,français,m,12,1.14141667,0.5455691,1.72005323
640095c783a33710a484adee,15,0,2024-02-28T14:47:43.210Z,french_873.wav,0,pull,1391,60,5,5,français,m,0,0.0,72.03003954,1.83410118
640095c783a33710a484adee,15,0,2024-02-28T14:47:43.210Z,french_873.wav,0,pull,1391,60,5,5,français,m,1,0.1,-23.30621714,1.9626168
640095c783a33710a484adee,15,0,2024-02-28T14:47:43.210Z,french_873.wav,0,pull,1391,60,5,5,français,m,2,0.2,-35.89141319,0.81420051
640095c783a33710a484adee,15,0,2024-02-28T14:47:43.210Z,french_873.wav,0,pull,1391,60,5,5,français,m,3,0.3,67.68024677,1.63047329
640095c783a33710a484adee,15,0,2024-02-28T14:47:43.210Z,french_873.wav,0,pull,1391,60,5,5,français,m,4,0.4,21.20717598,1.57956601
640095c783a33710a484adee,15,0,2024-02-28T14:47:43.210Z,french_873.wav,0,pull,1391,60,5,5,français,m,5,0.5,-50.70040168,1.84719914
640095c783a33710a484adee,15,0,2024-02-28T14:47:43.210Z,french_873.wav,0,pull,1391,60,5,5,français,m,6,0.6,-71.51050021,0.36709049
640095c783a33710a484adee,15,0,2024-02-28T14:47:43.210Z,french_873.wav,0,pull,1391,60,5,5,français,m,7,0.7,34.37852202,0.904759
640095c783a33710a484adee,15,0,2024-02-28T14:47:43.210Z,french_873.wav,0,pull,1391,60,5,5,français,m,8,0.8,30.83728681,1.75590546
640095c783a33710a484adee,15,0,2024-02-28T14:47:43.210Z,french_873.wav,0,pull,1391,60,5,5,français,m,9,0.9,-76.87739592,1.02149993
640095c783a33710a484adee,15,0,2024-02-28T14:47:43.210Z,french_873.wav,0,pull,1391,60,5,5,français,m,10,1.0,42.37175398,0.76391448
640095c783a33710a484adee,15,0,2024-02-28T14:47:43.210Z,french_873.wav,0,pull,1391,60,5,5,français,m,11,1.1,70.77163958,0.00404813
640095c783a33710a484adee,15,0,2024-02-28T14:47:43.210Z,french_873.wav,0,pull,1391,60,5,5,français,m,12,1.14141667,15.85245945,0.16931054
640095c783a33710a484adee,16,0,2024-02-28T14:47:43.210Z,french_165.wav,0,pull,775,60,5,5,français,m,0,0.0,-30.57242851,0.37315661
640095c783a33710a484adee,16,0,2024-02-28T14:47:43.210Z,french_165.wav,0,pull,775,60,5,5,français,m,1,0.1,14.97931662,1.05022762
640095c783a33710a484adee,16,0,2024-02-28T14:47:43.210Z,french_165.wav,0,pull,775,60,5,5,français,m,2,0.2,-12.73059909,1.01492906
640095c783a33710a484adee,16,0,2024-02-28T14:47:43.210Z,french_165.wav,0,pull,775,60,5,5,français,m,3,0.3,-76.6340538,1.93408877
640095c783a33710a484adee,16,0,2024-02-28T14:47:43.210Z,french_165.wav,0,pull,775,60,5,5,français,m,4,0.4,-39.77201686,1.23235421
640095c783a33710a484adee,16,0,2024-02-28T14:47:43.210Z,french_165.wav,0,pull,775,60,5,5,français,m,5,0.5,71.31806432,1.09863872
640095c783a33710a484adee,16,0,2024-02-28T14:47:43.210Z,french_165.wav,0,pull,775,60,5,5,français,m,6,0.6,10.64683686,1.73842976
640095c783a33710a484adee,16,0,2024-02-28T14:47:43.210Z,french_165.wav,0,pull,775,60,5,5,français,m,7,0.7,-39.62288549,1.7696099
640095c783a33710a484adee,16,0,2024-02-28T14:47:43.210Z,french_165.wav,0,pull,775,60,5,5,français,m,8,0.8,30.96552198,0.64569778
640095c783a33710a484adee,16,0,2024-02-28T14:47:43.210Z,french_165.wav,0,pull,775,60,5,5,français,m,9,0.9,-10.22867333,0.76121888
640095c783a33710a484adee,16,0,2024-02-28T14:47:43.210Z,french_165.wav,0,pull,775,60,5,5,français,m,10,1.0,10.06380936,1.37138018
640095c783a33710a484adee,16,0,2024-02-28T14:47:43.210Z,french_165.wav,0,pull,775,60,5,5,français,m,11,1.1,46.55251325,0.47603266
640095c783a33710a484adee,16,0,2024-02-28T14:47:43.210Z,french_165.wav,0,pull,775,60,5,5,français,m,12,1.14141667,-68.18565714,0.62197503
640095c783a33710a484adee,17,0,2024-02-28T14:47:43.210Z,french_991.wav,0,poule,564,60,5,5,français,m,0,0.0,36.75935394,0.61757489
640095c783a33710a484adee,17,0,2024-02-28T14:47:43.210Z,french_991.wav,0,poule,564,60,5,5,français,m,1,0.1,62.37590306,0.91218426
640095c783a33710a484adee,17,0,2024-02-28T14:47:43.210Z,french_991.wav,0,poule,564,60,5,5,français,m,2,0.2,-79.10366799,1.22140569
640095c783a33710a484adee,17,0,2024-02-28T14:47:43.210Z,french_991.wav,0,poule,564,60,5,5,français,m,3,0.3,15.61361167,1.31629718
640095c783a33710a484adee,17,0,2024-02-28T14:47:43.210Z,french_991.wav,0,poule,564,60,5,5,français,m,4,0.4,40.29353687,0.79411693
640095c783a33710a484adee,17,0,2024-02-28T14:47:43.210Z,french_991.wav,0,poule,564,60,5,5,français,m,5,0.5,2.12234517,0.73057303
640095c783a33710a484adee,17,0,2024-02-28T14:47:43.210Z,french_991.wav,0,poule,564,60,5,5,français,m,6,0.6,12.50359996,0.23343818
640095c783a33710a484adee,17,0,2024-02-28T14:47:43.210Z,french_991.wav,0,poule,564,60,5,5,français,m,7,0.7,-82.50426771,0.74035026
640095c783a33710a484adee,17,0,2024-02-28T14:47:43.210Z,french_991.wav,0,poule,564,60,5,5,français,m,8,0.8,24.690563,1.16659072
640095c783a33710a484adee,17,0,2024-02-28T14:47:43.210Z,french_991.wav,0,poule,564,60,5,5,français,m,9,0.9,-26.86058419,0.34867732
640095c783a33710a484adee,17,0,2024-02-28T14:47:43.210Z,french_991.wav,0,poule,564,60,5,5,français,m,10,1.0,-14.63831272,1.71373813
640095c783a33710a484adee,17,0,2024-02-28T14:47:43.210Z,french_991.wav,0,poule,564,60,5,5,français,m,11,1.1,68.03313278,1.49834332
640095c783a33710a484adee,17,0,2024-02-28T14:47:43.210Z,french_991.wav,0,poule,564,60,5,5,français,m,12,1.14141667,-76.23493294,0.08304986
640095c783a33710a484adee,18,0,2024-02-28T14:47:43.210Z,french_929.wav,0,poule,305,60,5,5,français,m,0,0.0,0.19628559,1.2735275
640095c783a33710a484adee,18,0,2024-02-28T14:47:43.210Z,french_929.wav,0,poule,305,60,5,5,français,m,1,0.1,-65.19269942,1.04239801
640095c783a33710a484adee,18,0,2024-02-28T14:47:43.210Z,french_929.wav,0,poule,305,60,5,5,français,m,2,0.2,85.79365551,1.14016966
640095c783a33710a484adee,18,0,2024-02-28T14:47:43.210Z,french_929.wav,0,poule,305,60,5,5,français,m,3,0.3,-49.06561831,1.26076885
640095c783a33710a484adee,18,0,2024-02-28T14:47:43.210Z,french_929.wav,0,poule,305,60,5,5,français,m,4,0.4,-14.51529051,1.79864451
640095c783a33710a484adee,18,0,2024-02-28T14:47:43.210Z,french_929.wav,0,poule,305,60,5,5,français,m,5,0.5,-95.48834235,0.45349568
640095c783a33710a484adee,18,0,2024-02-28T14:47:43.210Z,french_929.wav,0,poule,305,60,5,5,français,m,6,0.6,-33.23898354,0.33561818
640095c783a33710a484adee,18,0,2024-02-28T14:47:43.210Z,french_929.wav,0,poule,305,60,5,5,français,m,7,0.7,41.75408234,0.17319501
640095c783a33710a484adee,18,0,2024-02-28T14:47:43.210Z,french_929.wav,0,poule,305,60,5,5,français,m,8,0.8,37.64227738,1.78715813
640095c783a33710a484adee,18,0,2024-02-28T14:47:43.210Z,french_929.wav,0,poule,305,60,5,5,français,m,9,0.9,-32.44919392,1.8240929
640095c783a33710a484adee,18,0,2024-02-28T14:47:43.210Z,french_929.wav,0,poule,305,60,5,5,français,m,10,1.0,89.54900566,1.61299985
640095c783a33710a484adee,18,0,2024-02-28T14:47:43.210Z,french_929.wav,0,poule,305,60,5,5,français,m,11,1.1,-65.51395412,1.74226988
640095c783a33710a484adee,18,0,2024-02-28T14:47:43.210Z,french_929.wav,0,poule,305,60,5,5,français,m,12,1.14141667,73.05695709,1.79803329
640095c783a33710a484adee,19,0,2024-02-28T14:47:43.210Z,french_423.wav,0,pull,591,60,5,5,français,m,0,0.0,28.73087971,0.32492293
640095c783a33710a484adee,19,0,2024-02-28T14:47:43.210Z,french_423.wav,0,pull,591,60,5,5,français,m,1,0.1,-27.11331038,1.97824147
640095c783a33710a484adee,19,0,2024-02-28T14:47:43.210Z,french_423.wav,0,pull,591,60,5,5,français,m,2,0.2,13.5133657,1.46204006
640095c783a33710a484adee,19,0,2024-02-28T14:47:43.210Z,french_423.wav,0,pull,591,60,5,5,français,m,3,0.3,-59.33175602,1.75401387
640095c783a33710a484adee,19,0,2024-02-28T14:47:43.210Z,french_423.wav,0,pull,591,60,5,5,français,m,4,0.4,40.20716764,0.34583971
640095c783a33710a484adee,19,0,2024-02-28T14:47:43.210Z,french_423.wav,0,pull,591,60,5,5,français,m,5,0.5,17.77914232,0.74752054
640095c783a33710a484adee,19,0,2024-02-28T14:47:43.210Z,french_423.wav,0,pull,591,60,5,5,français,m,6,0.6,8.74509024,0.09109889
640095c783a33710a484adee,19,0,2024-02-28T14:47:43.210Z,french_423.wav,0,pull,591,60,5,5,français,m,7,0.7,35.8225074,1.40612117
640095c783a33710a484adee,19,0,2024-02-28T14:47:43.210Z,french_423.wav,0,pull,591,60,5,5,français,m,8,0.8,56.6713151,1.23903719
640095c783a33710a484adee,19,0,2024-02-28T14:47:43.210Z,french_423.wav,0,pull,591,60,5,5,français,m,9,0.9,-81.2259765,1.96913751
640095c783a33710a484adee,19,0,2024-02-28T14:47:43.210Z,french_423.wav,0,pull,591,60,5,5,français,m,10,1.0,71.576048,0.35667904
640095c783a33710a484adee,19,0,2024-02-28T14:47:43.210Z,french_423.wav,0,pull,591,60,5,5,français,m,11,1.1,-90.10734063,0.95482335
640095c783a33710a484adee,19,0,2024-02-28T14:47:43.210Z,french_423.wav,0,pull,591,60,5,5,français,m,12,1.14141667,62.7755843,1.55174946
640095c783a33710a484adee,20,0,2024-02-28T14:47:43.210Z,french_947.wav,0,pull,387,60,5,5,français,m,0,0.0,74.11181953,0.64731536
640095c783a33710a484adee,20,0,2024-02-28T14:47:43.210Z,french_947.wav,0,pull,387,60,5,5,français,m,1,0.1,77.13369973,1.23227619
640095c783a33710a484adee,20,0,2024-02-28T14:47:43.210Z,french_947.wav,0,pull,387,60,5,5,français,m,2,0.2,88.17713228,1.55440327
640095c783a33710a484adee,20,0,2024-02-28T14:47:43.210Z,french_947.wav,0,pull,387,60,5,5,français,m,3,0.3,-23.55252616,1.09655338
640095c783a33710a484adee,20,0,2024-02-28T14:47:43.210Z,french_947.wav,0,pull,387,60,5,5,français,m,4,0.4,29.65801923,0.55037335
640095c783a33710a484adee,20,0,2024-02-28T14:47:43.210Z,french_947.wav,0,pull,387,60,5,5,français,m,5,0.5,-69.01848253,1.05019014
640095c783a33710a484adee,20,0,2024-02-28T14:47:43.210Z,french_947.wav,0,pull,387,60,5,5,français,m,6,0.6,-28.7020507,1.09970152
640095c783a33710a484adee,20,0,2024-02-28T14:47:43.210Z,french_947.wav,0,pull,387,60,5,5,français,m,7,0.7,-92.17619984,0.0368249
640095c783a33710a484adee,20,0,2024-02-28T14:47:43.210Z,french_947.wav,0,pull,387,60,5,5,français,m,8,0.8,-36.30210181,1.66906697
640095c783a33710a484adee,20,0,2024-02-28T14:47:43.210Z,french_947.wav,0,pull,387,60,5,5,français,m,9,0.9,21.44134056,1.08042493
640095c783a33710a484adee,20,0,2024-02-28T14:47:43.210Z,french_947.wav,0,pull,387,60,5,5,français,m,10,1.0,-89.45827175,1.58321133
640095c783a33710a484adee,20,0,2024-02-28T14:47:43.210Z,french_947.wav,0,pull,387,60,5,5,français,m,11,1.1,-96.98494763,0.55777652
640095c783a33710a484adee,20,0,2024-02-28T14:47:43.210Z,french_947.wav,0,pull,387,60,5,5,français,m,12,1.14141667,-8.8786906,0.9557999
640095c783a33710a484adee,21,0,2024-02-28T14:47:43.210Z,french_486.wav,0,pull,1959,60,5,5,français,m,0,0.0,-98.02817501,1.75569009
640095c783a33710a484adee,21,0,2024-02-28T14:47:43.210Z,french_486.wav,0,pull,1959,60,5,5,français,m,1,0.1,65.33144032,1.7050464
640095c783a33710a484adee,21,0,2024-02-28T14:47:43.210Z,french_486.wav,0,pull,1959,60,5,5,français,m,2,0.2,61.38493925,0.61683653
640095c783a33710a484adee,21,0,2024-02-28T14:47:43.210Z,french_486.wav,0,pull,1959,60,5,5,français,m,3,0.3,96.45925622,1.35566853
640095c783a33710a484adee,21,0,2024-02-28T14:47:43.210Z,french_486.wav,0,pull,1959,60,5,5,français,m,4,0.4,5.96921881,0.89727466
640095c783a33710a484adee,21,0,2024-02-28T14:47:43.210Z,french_486.wav,0,pull,1959,60,5,5,français,m,5,0.5,30.65383736,1.1713147
640095c783a33710a484adee,21,0,2024-02-28T14:47:43.210Z,french_486.wav,0,pull,1959,60,5,5,français,m,6,0.6,-44.15981347,1.99548871
640095c783a33710a484adee,21,0,2024-02-28T14:47:43.210Z,french_486.wav,0,pull,1959,60,5,5,français,m,7,0.7,31.03879088,0.16009728
640095c783a33710a484adee,21,0,2024-02-28T14:47:43.210Z,french_486.wav,0,pull,1959,60,5,5,français,m,8,0.8,51.75647773,0.88389912
640095c783a33710a484adee,21,0,2024-02-28T14:47:43.210Z,french_486.wav,0,pull,1959,60,5,5,français,m,9,0.9,-98.74797635,0.14376531
640095c783a33710a484adee,21,0,2024-02-28T14:47:43.210Z,french_486.wav,0,pull,1959,60,5,5,français,m,10,1.0,42.51271204,0.54659097
640095c783a33710a484adee,21,0,2024-02-28T14:47:43.210Z,french_486.wav,0,pull,1959,60,5,5,français,m,11,1.1,63.21062453,1.09027863
640095c783a33710a484adee,21,0,2024-02-28T14:47:43.210Z,french_486.wav,0,pull,1959,60,5,5,français,m,12,1.14141667,-77.59539186,0.71851787
640095c783a33710a484adee,22,0,2024-02-28T14:47:43.210Z,french_805.wav,0,pull,769,60,5,5,français,m,0,0.0,-44.55735502,0.30537306
640095c783a33710a484adee,22,0,2024-02-28T14:47:43.210Z,french_805.wav,0,pull,769,60,5,5,français,m,1,0.1,-15.81782327,0.95683225
640095c783a33710a484adee,22,0,2024-02-28T14:47:43.210Z,french_805.wav,0,pull,769,60,5,5,français,m,2,0.2,-60.55488751,1.47185568
640095c783a33710a484adee,22,0,2024-02-28T14:47:43.210Z,french_805.wav,0,pull,769,60,5,5,français,m,3,0.3,-22.03480197,0.27583044
640095c783a33710a484adee,22,0,2024-02-28T14:47:43.210Z,french_805.wav,0,pull,769,60,5,5,français,m,4,0.4,-82.42416276,1.40306371
640095c783a33710a484adee,22,0,2024-02-28T14:47:43.210Z,french_805.wav,0,pull,769,60,5,5,français,m,5,0.5,26.6793054,0.29904003
640095c783a33710a484adee,22,0,2024-02-28T14:47:43.210Z,french_805.wav,0,pull,769,60,5,5,français,m,6,0.6,-90.86223061,0.10571209
640095c783a33710a484adee,22,0,2024-02-28T14:47:43.210Z,french_805.wav,0,pull,769,60,5,5,français,m,7,0.7,-32.61383863,1.80090028
640095c783a33710a484adee,22,0,2024-02-28T14:47:43.210Z,french_805.wav,0,pull,769,60,5,5,français,m,8,0.8,-25.8862389,1.4046027
640095c783a33710a484adee,22,0,2024-02-28T14:47:43.210Z,french_805.wav,0,pull,769,60,5,5,français,m,9,0.9,-83.72221214,1.0925065
640095c783a33710a484adee,22,0,2024-02-28T14:47:43.210Z,french_805.wav,0,pull,769,60,5,5,français,m,10,1.0,9.78399033,0.78385676
640095c783a33710a484adee,22,0,2024-02-28T14:47:43.210Z,french_805.wav,0,pull,769,60,5,5,français,m,11,1.1,-75.28148503,0.24940616
640095c783a33710a484adee,22,0,2024-02-28T14:47:43.210Z,french_805.wav,0,pull,769,60,5,5,français,m,12,1.14141667,-45.84381211,0.58218615
640095c783a33710a484adee,23,0,2024-02-28T14:47:43.210Z,french_386.wav,0,poule,464,60,5,5,français,m,0,0.0,0.78430489,0.59169825
640095c783a33710a484adee,23,0,2024-02-28T14:47:43.210Z,french_386.wav,0,poule,464,60,5,5,français,m,1,0.1,13.87766625,1.1288047
640095c783a33710a484adee,23,0,2024-02-28T14:47:43.210Z,french_386.wav,0,poule,464,60,5,5,français,m,2,0.2,-53.9186669,1.52123219
640095c783a33710a484adee,23,0,2024-02-28T14:47:43.210Z,french_386.wav,0,poule,464,60,5,5,français,m,3,0.3,-0.65622809,0.54949769
640095c783a33710a484adee,23,0,2024-02-28T14:47:43.210Z,french_386.wav,0,poule,464,60,5,5,français,m,4,0.4,-79.12810333,0.20623394
640095c783a33710a484adee,23,0,2024-02-28T14:47:43.210Z,french_386.wav,0,poule,464,60,5,5,français,m,5,0.5,84.24951195,1.13251054
640095c783a33710a484adee,23,0,2024-02-28T14:47:43.210Z,french_386.wav,0,poule,464,60,5,5,français,m,6,0.6,-76.27796842,0.81791972
640095c783a33710a484adee,23,0,2024-02-28T14:47:43.210Z,french_386.wav,0,poule,464,60,5,5,français,m,7,0.7,-35.34111523,1.23104671
640095c783a33710a484adee,23,0,2024-02-28T14:47:43.210Z,french_386.wav,0,poule,464,60,5,5,français,m,8,0.8,11.2375659,1.83380782
640095c783a33710a484adee,23,0,2024-02-28T14:47:43.210Z,french_386.wav,0,poule,464,60,5,5,français,m,9,0.9,58.35016227,1.80502663
640095c783a33710a484adee,23,0,2024-02-28T14:47:43.210Z,french_386.wav,0,poule,464,60,5,5,français,m,10,1.0,-48.14486205,1.74198324
640095c783a33710a484adee,23,0,2024-02-28T14:47:43.210Z,french_386.wav,0,poule,464,60,5,5,français,m,11,1.1,32.95340606,0.89805375
640095c783a33710a484adee,23,0,2024-02-28T14:47:43.210Z,french_386.wav,0,poule,464,60,5,5,français,m,12,1.14141667,8.70227109,1.16860367
640095c783a33710a484adee,24,0,2024-02-28T14:47:43.210Z,french_610.wav,0,pull,671,60,5,5,français,m,0,0.0,47.1860399,1.33803609
640095c783a33710a484adee,24,0,2024-02-28T14:47:43.210Z,french_610.wav,0,pull,671,60,5,5,français,m,1,0.1,-96.06014479,0.47296881
640095c783a33710a484adee,24,0,2024-02-28T14:47:43.210Z,french_610.wav,0,pull,671,60,5,5,français,m,2,0.2,-81.77505762,0.09802014
640095c783a33710a484adee,24,0,2024-02-28T14:47:43.210Z,french_610.wav,0,pull,671,60,5,5,français,m,3,0.3,35.16188142,0.2417997
640095c783a33710a484adee,24,0,2024-02-28T14:47:43.210Z,french_610.wav,0,pull,671,60,5,5,français,m,4,0.4,95.26049293,0.91420719
640095c783a33710a484adee,24,0,2024-02-28T14:47:43.210Z,french_610.wav,0,pull,671,60,5,5,français,m,5,0.5,-89.00178187,0.06740769
640095c783a33710a484adee,24,0,2024-02-28T14:47:43.210Z,french_610.wav,0,pull,671,60,5,5,français,m,6,0.6,-22.334568,1.13982749
640095c783a33710a484adee,24,0,2024-02-28T14:47:43.210Z,french_610.wav,0,pull,671,60,5,5,français,m,7,0.7,-38.7408441,1.6854513
640095c783a33710a484adee,24,0,2024-02-28T14:47:43.210Z,french_610.wav,0,pull,671,60,5,5,français,m,8,0.8,-9.79495772,1.43854832
640095c783a33710a484adee,24,0,2024-02-28T14:47:43.210Z,french_610.wav,0,pull,671,60,5,5,français,m,9,0.9,-2.0016606,0.94209986
640095c783a33710a484adee,24,0,2024-02-28T14:47:43.210Z,french_610.wav,0,pull,671,60,5,5,français,m,10,1.0,-3.52855837,0.49469701
640095c783a33710a484adee,24,0,2024-02-28T14:47:43.210Z,french_610.wav,0,pull,671,60,5,5,français,m,11,1.1,27.22191873,0.27592944
640095c783a33710a484adee,24,0,2024-02-28T14:47:43.210Z,french_610.wav,0,pull,671,60,5,5,français,m,12,1.14141667,-19.56542136,0.89824845
640095c783a33710a484adee,25,0,2024-02-28T14:47:43.210Z,french_319.wav,0,poule,1920,60,5,5,français,m,0,0.0,-75.17146498,1.089409
640095c783a33710a484adee,25,0,2024-02-28T14:47:43.210Z,french_319.wav,0,poule,1920,60,5,5,français,m,1,0.1,46.33935976,1.6263792
640095c783a33710a484adee,25,0,2024-02-28T14:47:43.210Z,french_319.wav,0,poule,1920,60,5,5,français,m,2,0.2,-45.77559624,1.21732858
640095c783a33710a484adee,25,0,2024-02-28T14:47:43.210Z,french_319.wav,0,poule,1920,60,5,5,français,m,3,0.3,9.72100852,1.37490977
640095c783a33710a484adee,25,0,2024-02-28T14:47:43.210Z,french_319.wav,0,poule,1920,60,5,5,français,m,4,0.4,-30.50694127,0.6324598
640095c783a33710a484adee,25,0,2024-02-28T14:47:43.210Z,french_319.wav,0,poule,1920,60,5,5,français,m,5,0.5,-94.17429558,1.7974238
640095c783a33710a484adee,25,0,2024-02-28T14:47:43.210Z,french_319.wav,0,poule,1920,60,5,5,français,m,6,0.6,-28.13617215,0.57188639
640095c783a33710a484adee,25,0,2024-02-28T14:47:43.210Z,french_319.wav,0,poule,1920,60,5,5,français,m,7,0.7,-28.4188466,1.86268987
640095c783a33710a484adee,25,0,2024-02-28T14:47:43.210Z,french_319.wav,0,poule,1920,60,5,5,français,m,8,0.8,-90.88658969,0.77070175
640095c783a33710a484adee,25,0,2024-02-28T14:47:43.210Z,french_319.wav,0,poule,1920,60,5,5,français,m,9,0.9,-86.52176531,0.98256413
640095c783a33710a484adee,25,0,2024-02-28T14:47:43.210Z,french_319.wav,0,poule,1920,60,5,5,français,m,10,1.0,-71.77832171,1.81058431
640095c783a33710a484adee,25,0,2024-02-28T14:47:43.210Z,french_319.wav,0,poule,1920,60,5,5,français,m,11,1.1,-45.71816919,0.40934231
640095c783a33710a484adee,25,0,2024-02-28T14:47:43.210Z,french_319.wav,0,poule,1920,60,5,5,français,m,12,1.14141667,-83.07448419,1.33989868
640095c783a33710a484adee,26,0,2024-02-28T14:47:43.210Z,french_287.wav,0,pull,652,60,5,5,français,m,0,0.0,24.91246091,0.55628619
640095c783a33710a484adee,26,0,2024-02-28T14:47:43.210Z,french_287.wav,0,pull,652,60,5,5,français,m,1,0.1,67.7832239,0.6662612
640095c783a33710a484adee,26,0,2024-02-28T14:47:43.210Z,french_287.wav,0,pull,652,60,5,5,français,m,2,0.2,45.53981298,1.36903667
640095c783a33710a484adee,26,0,2024-02-28T14:47:43.210Z,french_287.wav,0,pull,652,60,5,5,français,m,3,0.3,-34.40875305,0.2836932
640095c783a33710a484adee,26,0,2024-02-28T14:47:43.210Z,french_287.wav,0,pull,652,60,5,5,français,m,4,0.4,15.18631391,1.18401113
640095c783a33710a484adee,26,0,2024-02-28T14:47:43.210Z,french_287.wav,0,pull,652,60,5,5,français,m,5,0.5,-31.03447886,0.95699151
640095c783a33710a484adee,26,0,2024-02-28T14:47:43.210Z,french_287.wav,0,pull,652,60,5,5,français,m,6,0.6,-58.473992,1.42939471
640095c783a33710a484adee,26,0,2024-02-28T14:47:43.210Z,french_287.wav,0,pull,652,60,5,5,français,m,7,0.7,5.63880144,0.68329905
640095c783a33710a484adee,26,0,2024-02-28T14:47:43.210Z,french_287.wav,0,pull,652,60,5,5,français,m,8,0.8,-88.66742404,1.80121068
640095c783a33710a484adee,26,0,2024-02-28T14:47:43.210Z,french_287.wav,0,pull,652,60,5,5,français,m,9,0.9,-39.07529751,1.9139007
640095c783a33710a484adee,26,0,2024-02-28T14:47:43.210Z,french_287.wav,0,pull,652,60,5,5,français,m,10,1.0,-4.11446779,0.02395004
640095c783a33710a484adee,26,0,2024-02-28T14:47:43.210Z,french_287.wav,0,pull,652,60,5,5,français,m,11,1.1,-59.02603501,0.8859273
640095c783a33710a484adee,26,0,2024-02-28T14:47:43.210Z,french_287.wav,0,pull,652,60,5,5,français,m,12,1.14141667,11.416303,1.12262587
640095c783a33710a484adee,27,0,2024-02-28T14:47:43.210Z,french_38.wav,0,poule,517,60,5,5,français,m,0,0.0,40.69692625,0.35088988
640095c783a33710a484adee,27,0,2024-02-28T14:47:43.210Z,french_38.wav,0,poule,517,60,5,5,français,m,1,0.1,83.11806361,0.52815391
640095c783a33710a484adee,27,0,2024-02-28T14:47:43.210Z,french_38.wav,0,poule,517,60,5,5,français,m,2,0.2,18.12214919,0.42903125
640095c783a33710a484adee,27,0,2024-02-28T14:47:43.210Z,french_38.wav,0,poule,517,60,5,5,français,m,3,0.3,-19.25038889,1.56660171
640095c783a33710a484adee,27,0,2024-02-28T14:47:43.210Z,french_38.wav,0,poule,517,60,5,5,français,m,4,0.4,76.29170631,1.50314168
640095c783a33710a484adee,27,0,2024-02-28T14:47:43.210Z,french_38.wav,0,poule,517,60,5,5,français,m,5,0.5,-93.04323891,0.64027928
640095c783a33710a484adee,27,0,2024-02-28T14:47:43.210Z,french_38.wav,0,poule,517,60,5,5,français,m,6,0.6,29.67195094,1.95048915
640095c783a33710a484adee,27,0,2024-02-28T14:47:43.210Z,french_38.wav,0,poule,517,60,5,5,français,m,7,0.7,-14.70137235,1.01169212
640095c783a33710a484adee,27,0,2024-02-28T14:47:43.210Z,french_38.wav,0,poule,517,60,5,5,français,m,8,0.8,85.48410819,0.30617126
640095c783a33710a484adee,27,0,2024-02-28T14:47:43.210Z,french_38.wav,0,poule,517,60,5,5,français,m,9,0.9,68.26582685,1.37718683
640095c783a33710a484adee,27,0,2024-02-28T14:47:43.210Z,french_38.wav,0,poule,517,60,5,5,français,m,10,1.0,-29.21602996,1.41030957
640095c783a33710a484adee,27,0,2024-02-28T14:47:43.210Z,french_38.wav,0,poule,517,60,5,5,français,m,11,1.1,-39.50968765,1.24571364
640095c783a33710a484adee,27,0,2024-02-28T14:47:43.210Z,french_38.wav,0,poule,517,60,5,5,français,m,12,1.14141667,48.64216134,1.9075345
640095c783a33710a484adee,28,0,2024-02-28T14:47:43.210Z,french_941.wav,0,pull,793,60,5,5,français,m,0,0.0,12.71352542,1.95653793
640095c783a33710a484adee,28,0,2024-02-28T14:47:43.210Z,french_941.wav,0,pull,793,60,5,5,français,m,1,0.1,-51.14532839,0.17041659
640095c783a33710a484adee,28,0,2024-02-28T14:47:43.210Z,french_941.wav,0,pull,793,60,5,5,français,m,2,0.2,81.02604724,0.4421366
640095c783a33710a484adee,28,0,2024-02-28T14:47:43.210Z,french_941.wav,0,pull,793,60,5,5,français,m,3,0.3,-13.46587663,0.0592036
640095c783a33710a484adee,28,0,2024-02-28T14:47:43.210Z,french_941.wav,0,pull,793,60,5,5,français,m,4,0.4,65.75240794,0.23397067
640095c783a33710a484adee,28,0,2024-02-28T14:47:43.210Z,french_941.wav,0,pull,793,60,5,5,français,m,5,0.5,7.20435309,0.08731653
640095c783a33710a484adee,28,0,2024-02-28T14:47:43.210Z,french_941.wav,0,pull,793,60,5,5,français,m,6,0.6,14.75981975,0.00308342
640095c783a33710a484adee,28,0,2024-02-28T14:47:43.210Z,french_941.wav,0,pull,793,60,5,5,français,m,7,0.7,-19.14841244,1.15000304
640095c783a33710a484adee,28,0,2024-02-28T14:47:43.210Z,french_941.wav,0,pull,793,60,5,5,français,m,8,0.8,80.51273253,1.41865084
640095c783a33710a484adee,28,0,2024-02-28T14:47:43.210Z,french_941.wav,0,pull,793,60,5,5,français,m,9,0.9,-14.36108603,1.30569353
640095c783a33710a484adee,28,0,2024-02-28T14:47:43.210Z,french_941.wav,0,pull,793,60,5,5,français,m,10,1.0,-1.28463364,1.07408693
640095c783a33710a484adee,28,0,2024-02-28T14:47:43.210Z,french_941.wav,0,pull,793,60,5,5,français,m,11,1.1,-80.06594385,1.69135614
640095c783a33710a484adee,28,0,2024-02-28T14:47:43.210Z,french_941.wav,0,pull,793,60,5,5,français,m,12,1.14141667,3.50926186,0.25602014
640095c783a33710a484adee,29,0,2024-02-28T14:47:43.210Z,french_722.wav,0,poule,1536,60,5,5,français,m,0,0.0,33.60432941,1.8577899
640095c783a33710a484adee,29,0,2024-02-28T14:47:43.210Z,french_722.wav,0,poule,1536,60,5,5,français,m,1,0.1,-11.93537629,0.16730472
640095c783a33710a484adee,29,0,2024-02-28T14:47:43.210Z,french_722.wav,0,poule,1536,60,5,5,français,m,2,0.2,-88.14292606,1.51968538
640095c783a33710a484adee,29,0,2024-02-28T14:47:43.210Z,french_722.wav,0,poule,1536,60,5,5,français,m,3,0.3,63.03464746,1.10766377
640095c783a33710a484adee,29,0,2024-02-28T14:47:43.210Z,french_722.wav,0,poule,1536,60,5,5,français,m,4,0.4,22.71231254,0.03649714
640095c783a33710a484adee,29,0,2024-02-28T14:47:43.210Z,french_722.wav,0,poule,1536,60,5,5,français,m,5,0.5,16.47127626,0.86655357
640095c783a33710a484adee,29,0,2024-02-28T14:47:43.210Z,french_722.wav,0,poule,1536,60,5,5,français,m,6,0.6,-84.57391125,1.9734912
640095c783a33710a484adee,29,0,2024-02-28T14:47:43.210Z,french_722.wav,0,poule,1536,60,5,5,français,m,7,0.7,-10.08636896,1.42286059
640095c783a33710a484adee,29,0,2024-02-28T14:47:43.210Z,french_722.wav,0,poule,1536,60,5,5,français,m,8,0.8,29.84658458,0.4534392
640095c783a33710a484adee,29,0,2024-02-28T14:47:43.210Z,french_722.wav,0,poule,1536,60,5,5,français,m,9,0.9,-34.50712381,0.31083088
640095c783a33710a484adee,29,0,2024-02-28T14:47:43.210Z,french_722.wav,0,poule,1536,60,5,5,français,m,10,1.0,48.55411412,0.20534641
640095c783a33710a484adee,29,0,2024-02-28T14:47:43.210Z,french_722.wav,0,poule,1536,60,5,5,français,m,11,1.1,22.41705079,1.4074105
640095c783a33710a484adee,29,0,2024-02-28T14:47:43.210Z,french_722.wav,0,poule,1536,60,5,5,français,m,12,1.14141667,-36.09101224,0.81493516
640095c783a33710a484adee,30,0,2024-02-28T14:47:43.210Z,french_185.wav,0,poule,1633,60,5,5,français,m,0,0.0,61.9665111,1.15780668
640095c783a33710a484adee,30,0,2024-02-28T14:47:43.210Z,french_185.wav,0,poule,1633,60,5,5,français,m,1,0.1,-9.67528114,0.19130474
640095c783a33710a484adee,30,0,2024-02-28T14:47:43.210Z,french_185.wav,0,poule,1633,60,5,5,français,m,2,0.2,-24.43848461,1.67912463
640095c783a33710a484adee,30,0,2024-02-28T14:47:43.210Z,french_185.wav,0,poule,1633,60,5,5,français,m,3,0.3,-22.73400218,1.52519722
640095c783a33710a484adee,30,0,2024-02-28T14:47:43.210Z,french_185.wav,0,poule,1633,60,5,5,français,m,4,0.4,-50.73837077,1.17122727
640095c783a33710a484adee,30,0,2024-02-28T14:47:43.210Z,french_185.wav,0,poule,1633,60,5,5,français,m,5,0.5,-80.54747318,1.8849469
640095c783a33710a484adee,30,0,2024-02-28T14:47:43.210Z,french_185.wav,0,poule,1633,60,5,5,français,m,6,0.6,-0.20993652,0.65476649
640095c783a33710a484adee,30,0,2024-02-28T14:47:43.210Z,french_185.wav,0,poule,1633,60,5,5,français,m,7,0.7,68.84584459,0.97463014
640095c783a33710a484adee,30,0,2024-02-28T14:47:43.210Z,french_185.wav,0,poule,1633,60,5,5,français,m,8,0.8,-15.95665439,0.30159856
640095c783a33710a484adee,30,0,2024-02-28T14:47:43.210Z,french_185.wav,0,poule,1633,60,5,5,français,m,9,0.9,-80.30357234,1.31654976
640095c783a33710a484adee,30,0,2024-02-28T14:47:43.210Z,french_185.wav,0,poule,1633,60,5,5,français,m,10,1.0,-6.00916241,0.73291132
640095c783a33710a484adee,30,0,2024-02-28T14:47:43.210Z,french_185.wav,0,poule,1633,60,5,5,français,m,11,1.1,80.5457673,1.88613253
640095c783a33710a484adee,30,0,2024-02-28T14:47:43.210Z,french_185.wav,0,poule,1633,60,5,5,français,m,12,1.14141667,-0.48922047,1.34322598
640095c783a33710a484adee,31,0,2024-02-28T14:47:43.210Z,french_926.wav,0,poule,938,60,5,5,français,m,0,0.0,82.71261068,1.80195096
640095c783a33710a484adee,31,0,2024-02-28T14:47:43.210Z,french_926.wav,0,poule,938,60,5,5,français,m,1,0.1,-55.96659811,0.46752784
640095c783a33710a484adee,31,0,2024-02-28T14:47:43.210Z,french_926.wav,0,poule,938,60,5,5,français,m,2,0.2,-72.37457463,1.05477084
640095c783a33710a484adee,31,0,2024-02-28T14:47:43.210Z,french_926.wav,0,poule,938,60,5,5,français,m,3,0.3,-15.30458951,1.39878598
640095c783a33710a484adee,31,0,2024-02-28T14:47:43.210Z,french_926.wav,0,poule,938,60,5,5,français,m,4,0.4,20.67761401,0.31498475
640095c783a33710a484adee,31,0,2024-02-28T14:47:43.210Z,french_926.wav,0,poule,938,60,5,5,français,m,5,0.5,18.6980718,0.85551615
640095c783a33710a484adee,31,0,2024-02-28T14:47:43.210Z,french_926.wav,0,poule,938,60,5,5,français,m,6,0.6,-91.19443073,1.02079306
640095c783a33710a484adee,31,0,2024-02-28T14:47:43.210Z,french_926.wav,0,poule,938,60,5,5,français,m,7,0.7,71.76662966,0.0461454
640095c783a33710a484adee,31,0,2024-02-28T14:47:43.210Z,french_926.wav,0,poule,938,60,5,5,français,m,8,0.8,83.9953023,0.16629359
640095c783a33710a484adee,31,0,2024-02-28T14:47:43.210Z,french_926.wav,0,poule,938,60,5,5,français,m,9,0.9,10.98057347,0.14214334
640095c783a33710a484adee,31,0,2024-02-28T14:47:43.210Z,french_926.wav,0,poule,938,60,5,5,français,m,10,1.0,-67.58217883,1.85570309
640095c783a33710a484adee,31,0,2024-02-28T14:47:43.210Z,french_926.wav,0,poule,938,60,5,5,français,m,11,1.1,20.17649568,0.62429443
640095c783a33710a484adee,31,0,2024-02-28T14:47:43.210Z,french_926.wav,0,poule,938,60,5,5,français,m,12,1.14141667,-42.27007138,0.91137713
640095c783a33710a484adee,32,0,2024-02-28T14:47:43.210Z,french_617.wav,0,pull,465,60,5,5,français,m,0,0.0,41.18921531,0.91184006
640095c783a33710a484adee,32,0,2024-02-28T14:47:43.210Z,french_617.wav,0,pull,465,60,5,5,français,m,1,0.1,-35.03636924,1.24340801
640095c783a33710a484adee,32,0,2024-02-28T14:47:43.210Z,french_617.wav,0,pull,465,60,5,5,français,m,2,0.2,-74.98228457,1.94725418
640095c783a33710a484adee,32,0,2024-02-28T14:47:43.210Z,french_617.wav,0,pull,465,60,5,5,français,m,3,0.3,-36.51435822,0.5653448
640095c783a33710a484adee,32,0,2024-02-28T14:47:43.210Z,french_617.wav,0,pull,465,60,5,5,français,m,4,0.4,-95.32464294,1.52373912
640095c783a33710a484adee,32,0,2024-02-28T14:47:43.210Z,french_617.wav,0,pull,465,60,5,5,français,m,5,0.5,84.01929298,1.56026974
640095c783a33710a484adee,32,0,2024-02-28T14:47:43.210Z,french_617.wav,0,pull,465,60,5,5,français,m,6,0.6,32.67157622,0.19851572
640095c783a33710a484adee,32,0,2024-02-28T14:47:43.210Z,french_617.wav,0,pull,465,60,5,5,français,m,7,0.7,-71.7342706,1.89713844
640095c783a33710a484adee,32,0,2024-02-28T14:47:43.210Z,french_617.wav,0,pull,465,60,5,5,français,m,8,0.8,-45.86213667,1.81378599
640095c783a33710a484adee,32,0,2024-02-28T14:47:43.210Z,french_617.wav,0,pull,465,60,5,5,français,m,9,0.9,87.19566362,1.31045157
640095c783a33710a484adee,32,0,2024-02-28T14:47:43.210Z,french_617.wav,0,pull,465,60,5,5,français,m,10,1.0,-47.72681817,0.66805601
640095c783a33710a484adee,32,0,2024-02-28T14:47:43.210Z,french_617.wav,0,pull,465,60,5,5,français,m,11,1.1,15.937344,0.14648847
640095c783a33710a484adee,32,0,2024-02-28T14:47:43.210Z,french_617.wav,0,pull,465,60,5,5,français,m,12,1.14141667,72.65175015,0.64127007
640095c783a33710a484adee,33,0,2024-02-28T14:47:43.210Z,french_33.wav,0,pull,1235,60,5,5,français,m,0,0.0,-73.97774923,1.19939349
640095c783a33710a484adee,33,0,2024-02-28T14:47:43.210Z,french_33.wav,0,pull,1235,60,5,5,français,m,1,0.1,-36.06885346,0.62157126
640095c783a33710a484adee,33,0,2024-02-28T14:47:43.210Z,french_33.wav,0,pull,1235,60,5,5,français,m,2,0.2,-90.19934184,0.91970763
640095c783a33710a484adee,33,0,2024-02-28T14:47:43.210Z,french_33.wav,0,pull,1235,60,5,5,français,m,3,0.3,0.39936716,1.47370084
640095c783a33710a484adee,33,0,2024-02-28T14:47:43.210Z,french_33.wav,0,pull,1235,60,5,5,français,m,4,0.4,96.52672865,1.0541108
640095c783a33710a484adee,33,0,2024-02-28T14:47:43.210Z,french_33.wav,0,pull,1235,60,5,5,français,m,5,0.5,63.74011165,0.90431886
640095c783a33710a484adee,33,0,2024-02-28T14:47:43.210Z,french_33.wav,0,pull,1235,60,5,5,français,m,6,0.6,31.44503744,1.27813504
640095c783a33710a484adee,33,0,2024-02-28T14:47:43.210Z,french_33.wav,0,pull,1235,60,5,5,français,m,7,0.7,14.04693027,1.74599993
640095c783a33710a484adee,33,0,2024-02-28T14:47:43.210Z,french_33.wav,0,pull,1235,60,5,5,français,m,8,0.8,-77.85077502,1.73098361
640095c783a33710a484adee,33,0,2024-02-28T14:47:43.210Z,french_33.wav,0,pull,1235,60,5,5,français,m,9,0.9,68.67883666,1.17206891
640095c783a33710a484adee,33,0,2024-02-28T14:47:43.210Z,french_33.wav,0,pull,1235,60,5,5,français,m,10,1.0,74.94832397,1.57344571
640095c783a33710a484adee,33,0,2024-02-28T14:47:43.210Z,french_33.wav,0,pull,1235,60,5,5,français,m,11,1.1,69.92169069,0.28570847
640095c783a33710a484adee,33,0,2024-02-28T14:47:43.210Z,french_33.wav,0,pull,1235,60,5,5,français,m,12,1.14141667,18.14392296,1.15456632
640095c783a33710a484adee,34,0,2024-02-28T14:47:43.210Z,french_667.wav,0,poule,1892,60,5,5,français,m,0,0.0,-3.23073543,0.36346463
640095c783a33710a484adee,34,0,2024-02-28T14:47:43.210Z,french_667.wav,0,poule,1892,60,5,5,français,m,1,0.1,12.95388382,0.76986808
640095c783a33710a484adee,34,0,2024-02-28T14:47:43.210Z,french_667.wav,0,poule,1892,60,5,5,français,m,2,0.2,-81.94464558,1.34448265
640095c783a33710a484adee,34,0,2024-02-28T14:47:43.210Z,french_667.wav,0,poule,1892,60,5,5,français,m,3,0.3,-49.94767422,0.75161854
640095c783a33710a484adee,34,0,2024-02-28T14:47:43.210Z,french_667.wav,0,poule,1892,60,5,5,français,m,4,0.4,55.78567477,0.06445757
640095c783a33710a484adee,34,0,2024-02-28T14:47:43.210Z,french_667.wav,0,poule,1892,60,5,5,français,m,5,0.5,79.02111133,1.86844951
640095c783a33710a484adee,34,0,2024-02-28T14:47:43.210Z,french_667.wav,0,poule,1892,60,5,5,français,m,6,0.6,-5.77186949,0.16436936
640095c783a33710a484adee,34,0,2024-02-28T14:47:43.210Z,french_667.wav,0,poule,1892,60,5,5,français,m,7,0.7,53.00308605,0.4200212
640095c783a33710a484adee,34,0,2024-02-28T14:47:43.210Z,french_667.wav,0,poule,1892,60,5,5,français,m,8,0.8,58.82898183,0.54306015
640095c783a33710a484adee,34,0,2024-02-28T14:47:43.210Z,french_667.wav,0,poule,1892,60,5,5,français,m,9,0.9,46.90110707,0.49338547
640095c783a33710a484adee,34,0,2024-02-28T14:47:43.210Z,french_667.wav,0,poule,1892,60,5,5,français,m,10,1.0,27.42439554,1.57738821
640095c783a33710a484adee,34,0,2024-02-28T14:47:43.210Z,french_667.wav,0,poule,1892,60,5,5,français,m,11,1.1,-19.01601979,1.23039294
640095c783a33710a484adee,34,0,2024-02-28T14:47:43.210Z,french_667.wav,0,poule,1892,60,5,5,français,m,12,1.14141667,63.4895526,1.7787343
640095c783a33710a484adee,35,0,2024-02-28T14:47:43.210Z,french_534.wav,0,pull,388,60,5,5,français,m,0,0.0,-15.28338531,1.64226686
640095c783a33710a484adee,35,0,2024-02-28T14:47:43.210Z,french_534.wav,0,pull,388,60,5,5,français,m,1,0.1,78.02953545,0.3938212
640095c783a33710a484adee,35,0,2024-02-28T14:47:43.210Z,french_534.wav,0,pull,388,60,5,5,français,m,2,0.2,56.06185369,0.23843056
640095c783a33710a484adee,35,0,2024-02-28T14:47:43.210Z,french_534.wav,0,pull,388,60,5,5,français,m,3,0.3,-88.22904754,0.60135969
640095c783a33710a484adee,35,0,2024-02-28T14:47:43.210Z,french_534.wav,0,pull,388,60,5,5,français,m,4,0.4,64.61339654,1.21076955
640095c783a33710a484adee,35,0,2024-02-28T14:47:43.210Z,french_534.wav,0,pull,388,60,5,5,français,m,5,0.5,-30.71044568,1.07436413
640095c783a33710a484adee,35,0,2024-02-28T14:47:43.210Z,french_534.wav,0,pull,388,60,5,5,français,m,6,0.6,14.1855631,1.61739365
640095c783a33710a484adee,35,0,2024-02-28T14:47:43.210Z,french_534.wav,0,pull,388,60,5,5,français,m,7,0.7,78.82962117,1.68323929
640095c783a33710a484adee,35,0,2024-02-28T14:47:43.210Z,french_534.wav,0,pull,388,60,5,5,français,m,8,0.8,32.43672353,1.54652057
640095c783a33710a484adee,35,0,2024-02-28T14:47:43.210Z,french_534.wav,0,pull,388,60,5,5,français,m,9,0.9,94.02234406,0.7059435
640095c783a33710a484adee,35,0,2024-02-28T14:47:43.210Z,french_534.wav,0,pull,388,60,5,5,français,m,10,1.0,-42.45395563,0.83665441
640095c783a33710a484adee,35,0,2024-02-28T14:47:43.210Z,french_534.wav,0,pull,388,60,5,5,français,m,11,1.1,-83.33513244,1.30268562
640095c783a33710a484adee,35,0,2024-02-28T14:47:43.210Z,french_534.wav,0,pull,388,60,5,5,français,m,12,1.14141667,95.31234504,1.46841429
640095c783a33710a484adee,36,0,2024-02-28T14:47:43.210Z,french_228.wav,0,pull,702,60,5,5,français,m,0,0.0,-68.55425801,1.32878562
640095c783a33710a484adee,36,0,2024-02-28T14:47:43.210Z,french_228.wav,0,pull,702,60,5,5,français,m,1,0.1,-12.659075,0.71563941
640095c783a33710a484adee,36,0,2024-02-28T14:47:43.210Z,french_228.wav,0,pull,702,60,5,5,français,m,2,0.2,46.11717447,1.86195608
640095c783a33710a484adee,36,0,2024-02-28T14:47:43.210Z,french_228.wav,0,pull,702,60,5,5,français,m,3,0.3,-3.32601783,1.5457402
640095c783a33710a484adee,36,0,2024-02-28T14:47:43.210Z,french_228.wav,0,pull,702,60,5,5,français,m,4,0.4,37.19546204,1.42420373
640095c783a33710a484adee,36,0,2024-02-28T14:47:43.210Z,french_228.wav,0,pull,702,60,5,5,français,m,5,0.5,18.15940432,1.40142186
640095c783a33710a484adee,36,0,2024-02-28T14:47:43.210Z,french_228.wav,0,pull,702,60,5,5,français,m,6,0.6,-38.00714293,0.56168045
640095c783a33710a484adee,36,0,2024-02-28T14:47:43.210Z,french_228.wav,0,pull,702,60,5,5,français,m,7,0.7,-79.44898634,1.15931683
640095c783a33710a484adee,36,0,2024-02-28T14:47:43.210Z,french_228.wav,0,pull,702,60,5,5,français,m,8,0.8,-89.52725335,0.78633348
640095c783a33710a484adee,36,0,2024-02-28T14:47:43.210Z,french_228.wav,0,pull,702,60,5,5,français,m,9,0.9,20.61907431,0.54003465
640095c783a33710a484adee,36,0,2024-02-28T14:47:43.210Z,french_228.wav,0,pull,702,60,5,5,français,m,10,1.0,17.51827588,1.09725578
640095c783a33710a484adee,36,0,2024-02-28T14:47:43.210Z,french_228.wav,0,pull,702,60,5,5,français,m,11,1.1,-0.11031039,1.17739203
640095c783a33710a484adee,36,0,2024-02-28T14:47:43.210Z,french_228.wav,0,pull,702,60,5,5,français,m,12,1.14141667,-67.85277231,1.00093445
640095c783a33710a484adee,37,0,2024-02-28T14:47:43.210Z,french_17.wav,0,pull,1276,60,5,5,français,m,0,0.0,-71.55402429,0.5785157
640095c783a33710a484adee,37,0,2024-02-28T14:47:43.210Z,french_17.wav,0,pull,1276,60,5,5,français,m,1,0.1,56.29343934,1.90036265
640095c783a33710a484adee,37,0,2024-02-28T14:47:43.210Z,french_17.wav,0,pull,1276,60,5,5,français,m,2,0.2,20.79261224,1.44471121
640095c783a33710a484adee,37,0,2024-02-28T14:47:43.210Z,french_17.wav,0,pull,1276,60,5,5,français,m,3,0.3,-90.11025679,1.565227
640095c783a33710a484adee,37,0,2024-02-28T14:47:43.210Z,french_17.wav,0,pull,1276,60,5,5,français,m,4,0.4,6.70427818,0.33054676
640095c783a33710a484adee,37,0,2024-02-28T14:47:43.210Z,french_17.wav,0,pull,1276,60,5,5,français,m,5,0.5,6.61311772,1.03998894
640095c783a33710a484adee,37,0,2024-02-28T14:47:43.210Z,french_17.wav,0,pull,1276,60,5,5,français,m,6,0.6,12.56869907,1.28428477
640095c783a33710a484adee,37,0,2024-02-28T14:47:43.210Z,french_17.wav,0,pull,1276,60,5,5,français,m,7,0.7,12.55137567,1.1424972
640095c783a33710a484adee,37,0,2024-02-28T14:47:43.210Z,french_17.wav,0,pull,1276,60,5,5,français,m,8,0.8,-95.46150143,0.50274776
640095c783a33710a484adee,37,0,2024-02-28T14:47:43.210Z,french_17.wav,0,pull,1276,60,5,5,français,m,9,0.9,49.81790086,1.25594358
640095c783a33710a484adee,37,0,2024-02-28T14:47:43.210Z,french_17.wav,0,pull,1276,60,5,5,français,m,10,1.0,16.6905365,1.98482543
640095c783a33710a484adee,37,0,2024-02-28T14:47:43.210Z,french_17.wav,0,pull,1276,60,5,5,français,m,11,1.1,-37.04715418,0.15414972
640095c783a33710a484adee,37,0,2024-02-28T14:47:43.210Z,french_17.wav,0,pull,1276,60,5,5,français,m,12,1.14141667,50.55014442,1.03942219
640095c783a33710a484adee,38,0,2024-02-28T14:47:43.210Z,french_754.wav,0,pull,647,60,5,5,français,m,0,0.0,-84.307761,1.73493973
640095c783a33710a484adee,38,0,2024-02-28T14:47:43.210Z,french_754.wav,0,pull,647,60,5,5,français,m,1,0.1,-47.62124767,1.3102964
640095c783a33710a484adee,38,0,2024-02-28T14:47:43.210Z,french_754.wav,0,pull,647,60,5,5,français,m,2,0.2,-12.79145766,0.59352597
640095c783a33710a484adee,38,0,2024-02-28T14:47:43.210Z,french_754.wav,0,pull,647,60,5,5,français,m,3,0.3,-31.8164057,1.7032681
640095c783a33710a484adee,38,0,2024-02-28T14:47:43.210Z,french_754.wav,0,pull,647,60,5,5,français,m,4,0.4,-8.66758057,0.18685858
640095c783a33710a484adee,38,0,2024-02-28T14:47:43.210Z,french_754.wav,0,pull,647,60,5,5,français,m,5,0.5,-39.98987583,0.87140851
640095c783a33710a484adee,38,0,2024-02-28T14:47:43.210Z,french_754.wav,0,pull,647,60,5,5,français,m,6,0.6,85.58862918,1.09552436
640095c783a33710a484adee,38,0,2024-02-28T14:47:43.210Z,french_754.wav,0,pull,647,60,5,5,français,m,7,0.7,28.85356743,0.38483895
640095c783a33710a484adee,38,0,2024-02-28T14:47:43.210Z,french_754.wav,0,pull,647,60,5,5,français,m,8,0.8,8.72964996,1.64570353
640095c783a33710a484adee,38,0,2024-02-28T14:47:43.210Z,french_754.wav,0,pull,647,60,5,5,français,m,9,0.9,-60.08793264,1.67708663
640095c783a33710a484adee,38,0,2024-02-28T14:47:43.210Z,french_754.wav,0,pull,647,60,5,5,français,m,10,1.0,51.79044132,0.3181758
640095c783a33710a484adee,38,0,2024-02-28T14:47:43.210Z,french_754.wav,0,pull,647,60,5,5,français,m,11,1.1,91.281273,0.66657575
640095c783a33710a484adee,38,0,2024-02-28T14:47:43.210Z,french_754.wav,0,pull,647,60,5,5,français,m,12,1.14141667,-82.03639439,1.25795178
640095c783a33710a484adee,39,0,2024-02-28T14:47:43.210Z,french_699.wav,0,pull,1169,60,5,5,français,m,0,0.0,-12.30067292,1.22115216
640095c783a33710a484adee,39,0,2024-02-28T14:47:43.210Z,french_699.wav,0,pull,1169,60,5,5,français,m,1,0.1,36.78977735,0.46578941
640095c783a33710a484adee,39,0,2024-02-28T14:47:43.210Z,french_699.wav,0,pull,1169,60,5,5,français,m,2,0.2,-92.85505099,0.7393451
640095c783a33710a484adee,39,0,2024-02-28T14:47:43.210Z,french_699.wav,0,pull,1169,60,5,5,français,m,3,0.3,79.08429956,1.0436156
640095c783a33710a484adee,39,0,2024-02-28T14:47:43.210Z,french_699.wav,0,pull,1169,60,5,5,français,m,4,0.4,-94.45731791,1.85215008
640095c783a33710a484adee,39,0,2024-02-28T14:47:43.210Z,french_699.wav,0,pull,1169,60,5,5,français,m,5,0.5,86.94372215,1.35426274
640095c783a33710a484adee,39,0,2024-02-28T14:47:43.210Z,french_699.wav,0,pull,1169,60,5,5,français,m,6,0.6,64.87909745,0.90062394
640095c783a33710a484adee,39,0,2024-02-28T14:47:43.210Z,french_699.wav,0,pull,1169,60,5,5,français,m,7,0.7,-10.59653747,1.19660978
640095c783a33710a484adee,39,0,2024-02-28T14:47:43.210Z,french_699.wav,0,pull,1169,60,5,5,français,m,8,0.8,-13.88055644,1.64484137
640095c783a33710a484adee,39,0,2024-02-28T14:47:43.210Z,french_699.wav,0,pull,1169,60,5,5,français,m,9,0.9,-79.28505603,1.90071567
640095c783a33710a484adee,39,0,2024-02-28T14:47:43.210Z,french_699.wav,0,pull,1169,60,5,5,français,m,10,1.0,85.40525959,0.68624617
640095c783a33710a484adee,39,0,2024-02-28T14:47:43.210Z,french_699.wav,0,pull,1169,60,5,5,français,m,11,1.1,37.59232623,0.4882198
640095c783a33710a484adee,39,0,2024-02-28T14:47:43.210Z,french_699.wav,0,pull,1169,60,5,5,français,m,12,1.14141667,-13.77587954,0.37805744
640095c783a33710a484adee,40,0,2024-02-28T14:47:43.210Z,french_744.wav,0,pull,744,60,5,5,français,m,0,0.0,-91.48661439,1.85846096
640095c783a33710a484adee,40,0,2024-02-28T14:47:43.210Z,french_744.wav,0,pull,744,60,5,5,français,m,1,0.1,18.65355246,1.31941604
640095c783a33710a484adee,40,0,2024-02-28T14:47:43.210Z,french_744.wav,0,pull,744,60,5,5,français,m,2,0.2,-47.54496018,1.09691526
640095c783a33710a484adee,40,0,2024-02-28T14:47:43.210Z,french_744.wav,0,pull,744,60,5,5,français,m,3,0.3,17.95212516,0.82238675
640095c783a33710a484adee,40,0,2024-02-28T14:47:43.210Z,french_744.wav,0,pull,744,60,5,5,français,m,4,0.4,-62.8659354,1.59275608
640095c783a33710a484adee,40,0,2024-02-28T14:47:43.210Z,french_744.wav,0,pull,744,60,5,5,français,m,5,0.5,-61.59142109,1.03229624
640095c783a33710a484adee,40,0,2024-02-28T14:47:43.210Z,french_744.wav,0,pull,744,60,5,5,français,m,6,0.6,-6.96150758,1.01361934
640095c783a33710a484adee,40,0,2024-02-28T14:47:43.210Z,french_744.wav,0,pull,744,60,5,5,français,m,7,0.7,44.5539527,0.71415112
640095c783a33710a484adee,40,0,2024-02-28T14:47:43.210Z,french_744.wav,0,pull,744,60,5,5,français,m,8,0.8,61.79622069,0.72291552
640095c783a33710a484adee,40,0,2024-02-28T14:47:43.210Z,french_744.wav,0,pull,744,60,5,5,français,m,9,0.9,15.75993473,0.48078155
640095c783a33710a484adee,40,0,2024-02-28T14:47:43.210Z,french_744.wav,0,pull,744,60,5,5,français,m,10,1.0,73.30241855,0.68305792
640095c783a33710a484adee,40,0,2024-02-28T14:47:43.210Z,french_744.wav,0,pull,744,60,5,5,français,m,11,1.1,32.92483065,0.69994656
640095c783a33710a484adee,40,0,2024-02-28T14:47:43.210Z,french_744.wav,0,pull,744,60,5,5,français,m,12,1.14141667,-20.87758002,0.74534068
640095c783a33710a484adee,41,0,2024-02-28T14:47:43.210Z,french_312.wav,0,poule,1679,60,5,5,français,m,0,0.0,69.30449707,0.68235651
640095c783a33710a484adee,41,0,2024-02-28T14:47:43.210Z,french_312.wav,0,poule,1679,60,5,5,français,m,1,0.1,28.8122594,0.49968612
640095c783a33710a484adee,41,0,2024-02-28T14:47:43.210Z,french_312.wav,0,poule,1679,60,5,5,français,m,2,0.2,79.52564985,0.10826386
640095c783a33710a484adee,41,0,2024-02-28T14:47:43.210Z,french_312.wav,0,poule,1679,60,5,5,français,m,3,0.3,23.03240233,1.87669154
640095c783a33710a484adee,41,0,2024-02-28T14:47:43.210Z,french_312.wav,0,poule,1679,60,5,5,français,m,4,0.4,-48.5690178,1.01808413
640095c783a33710a484adee,41,0,2024-02-28T14:47:43.210Z,french_312.wav,0,poule,1679,60,5,5,français,m,5,0.5,61.96316276,1.08622218
640095c783a33710a484adee,41,0,2024-02-28T14:47:43.210Z,french_312.wav,0,poule,1679,60,5,5,français,m,6,0.6,-40.84069724,0.31784093
640095c783a33710a484adee,41,0,2024-02-28T14:47:43.210Z,french_312.wav,0,poule,1679,60,5,5,français,m,7,0.7,-21.82800046,0.771822
640095c783a33710a484adee,41,0,2024-02-28T14:47:43.210Z,french_312.wav,0,poule,1679,60,5,5,français,m,8,0.8,-77.10722565,0.59210928
640095c783a33710a484adee,41,0,2024-02-28T14:47:43.210Z,french_312.wav,0,poule,1679,60,5,5,français,m,9,0.9,18.67755044,0.28258662
640095c783a33710a484adee,41,0,2024-02-28T14:47:43.210Z,french_312.wav,0,poule,1679,60,5,5,français,m,10,1.0,0.10322115,0.93032185
640095c783a33710a484adee,41,0,2024-02-28T14:47:43.210Z,french_312.wav,0,poule,1679,60,5,5,français,m,11,1.1,38.28305127,0.32298369
640095c783a33710a484adee,41,0,2024-02-28T14:47:43.210Z,french_312.wav,0,poule,1679,60,5,5,français,m,12,1.14141667,17.56298431,1.36564277
640095c783a33710a484adee,42,0,2024-02-28T14:47:43.210Z,french_946.wav,0,poule,1993,60,5,5,français,m,0,0.0,-55.67612518,0.4439597
640095c783a33710a484adee,42,0,2024-02-28T14:47:43.210Z,french_946.wav,0,poule,1993,60,5,5,français,m,1,0.1,-16.03559422,0.03929623
640095c783a33710a484adee,42,0,2024-02-28T14:47:43.210Z,french_946.wav,0,poule,1993,60,5,5,français,m,2,0.2,-53.91064696,1.70924034
640095c783a33710a484adee,42,0,2024-02-28T14:47:43.210Z,french_946.wav,0,poule,1993,60,5,5,français,m,3,0.3,-54.26086959,1.28648534
640095c783a33710a484adee,42,0,2024-02-28T14:47:43.210Z,french_946.wav,0,poule,1993,60,5,5,français,m,4,0.4,-68.76085781,1.86835463
640095c783a33710a484adee,42,0,2024-02-28T14:47:43.210Z,french_946.wav,0,poule,1993,60,5,5,français,m,5,0.5,59.18925829,1.39467098
640095c783a33710a484adee,42,0,2024-02-28T14:47:43.210Z,french_946.wav,0,poule,1993,60,5,5,français,m,6,0.6,63.61101254,0.62769918
640095c783a33710a484adee,42,0,2024-02-28T14:47:43.210Z,french_946.wav,0,poule,1993,60,5,5,français,m,7,0.7,87.82589692,0.63219143
640095c783a33710a484adee,42,0,2024-02-28T14:47:43.210Z,french_946.wav,0,poule,1993,60,5,5,français,m,8,0.8,30.01203982,0.36165151
640095c783a33710a484adee,42,0,2024-02-28T14:47:43.210Z,french_946.wav,0,poule,1993,60,5,5,français,m,9,0.9,-24.26556885,0.01038162
640095c783a33710a484adee,42,0,2024-02-28T14:47:43.210Z,french_946.wav,0,poule,1993,60,5,5,français,m,10,1.0,-42.07057407,1.38502095
640095c783a33710a484adee,42,0,2024-02-28T14:47:43.210Z,french_946.wav,0,poule,1993,60,5,5,français,m,11,1.1,-49.30472811,0.34691407
640095c783a33710a484adee,42,0,2024-02-28T14:47:43.210Z,french_946.wav,0,poule,1993,60,5,5,français,m,12,1.14141667,9.32164167,1.3196907
640095c783a33710a484adee,43,0,2024-02-28T14:47:43.210Z,french_930.wav,0,pull,718,60,5,5,français,m,0,0.0,-19.87682244,1.26137433
640095c783a33710a484adee,43,0,2024-02-28T14:47:43.210Z,french_930.wav,0,pull,718,60,5,5,français,m,1,0.1,33.32374643,1.39217721
640095c783a33710a484adee,43,0,2024-02-28T14:47:43.210Z,french_930.wav,0,pull,718,60,5,5,français,m,2,0.2,-3.87894318,0.64379498
640095c783a33710a484adee,43,0,2024-02-28T14:47:43.210Z,french_930.wav,0,pull,718,60,5,5,français,m,3,0.3,29.76228245,0.20991032
640095c783a33710a484adee,43,0,2024-02-28T14:47:43.210Z,french_930.wav,0,pull,718,60,5,5,français,m,4,0.4,51.30696026,0.92641495
640095c783a33710a484adee,43,0,2024-02-28T14:47:43.210Z,french_930.wav,0,pull,718,60,5,5,français,m,5,0.5,-78.80141905,1.10165323
640095c783a33710a484adee,43,0,2024-02-28T14:47:43.210Z,french_930.wav,0,pull,718,60,5,5,français,m,6,0.6,-63.85822427,0.79329942
640095c783a33710a484adee,43,0,2024-02-28T14:47:43.210Z,french_930.wav,0,pull,718,60,5,5,français,m,7,0.7,42.50280172,1.85994667
640095c783a33710a484adee,43,0,2024-02-28T14:47:43.210Z,french_930.wav,0,pull,718,60,5,5,français,m,8,0.8,-6.05328021,0.58419589
640095c783a33710a484adee,43,0,2024-02-28T14:47:43.210Z,french_930.wav,0,pull,718,60,5,5,français,m,9,0.9,-43.35461535,0.82252221
640095c783a33710a484adee,43,0,2024-02-28T14:47:43.210Z,french_930.wav,0,pull,718,60,5,5,français,m,10,1.0,-40.42814,0.37530869
640095c783a33710a484adee,43,0,2024-02-28T14:47:43.210Z,french_930.wav,0,pull,718,60,5,5,français,m,11,1.1,43.1107058,1.62426313
640095c783a33710a484adee,43,0,2024-02-28T14:47:43.210Z,french_930.wav,0,pull,718,60,5,5,français,m,12,1.14141667,48.8884653,0.25399184
640095c783a33710a484adee,44,0,2024-02-28T14:47:43.210Z,french_468.wav,0,pull,543,60,5,5,français,m,0,0.0,-13.58676493,1.61786678
640095c783a33710a484adee,44,0,2024-02-28T14:47:43.210Z,french_468.wav,0,pull,543,60,5,5,français,m,1,0.1,72.6058515,0.87941828
640095c783a33710a484adee,44,0,2024-02-28T14:47:43.210Z,french_468.wav,0,pull,543,60,5,5,français,m,2,0.2,-32.02129576,1.83091307
640095c783a33710a484adee,44,0,2024-02-28T14:47:43.210Z,french_468.wav,0,pull,543,60,5,5,français,m,3,0.3,52.20448247,0.55022133
640095c783a33710a484adee,44,0,2024-02-28T14:47:43.210Z,french_468.wav,0,pull,543,60,5,5,français,m,4,0.4,81.43032914,1.31843468
640095c783a33710a484adee,44,0,2024-02-28T14:47:43.210Z,french_468.wav,0,pull,543,60,5,5,français,m,5,0.5,-46.64724356,0.27128196
640095c783a33710a484adee,44,0,2024-02-28T14:47:43.210Z,french_468.wav,0,pull,543,60,5,5,français,m,6,0.6,-9.87779487,1.45996143
640095c783a33710a484adee,44,0,2024-02-28T14:47:43.210Z,french_468.wav,0,pull,543,60,5,5,français,m,7,0.7,-19.54175122,1.9285159
640095c783a33710a484adee,44,0,2024-02-28T14:47:43.210Z,french_468.wav,0,pull,543,60,5,5,français,m,8,0.8,-49.98241499,0.92372557
640095c783a33710a484adee,44,0,2024-02-28T14:47:43.210Z,french_468.wav,0,pull,543,60,5,5,français,m,9,0.9,-13.16351875,0.96002264
640095c783a33710a484adee,44,0,2024-02-28T14:47:43.210Z,french_468.wav,0,pull,543,60,5,5,français,m,10,1.0,-96.83623885,0.2797337
640095c783a33710a484adee,44,0,2024-02-28T14:47:43.210Z,french_468.wav,0,pull,543,60,5,5,français,m,11,1.1,49.6134393,0.59117932
640095c783a33710a484adee,44,0,2024-02-28T14:47:43.210Z,french_468.wav,0,pull,543,60,5,5,français,m,12,1.14141667,15.95148808,0.63965457
640095c783a33710a484adee,45,0,2024-02-28T14:47:43.210Z,french_674.wav,0,poule,1306,60,5,5,français,m,0,0.0,13.4877762,1.49229311
640095c783a33710a484adee,45,0,2024-02-28T14:47:43.210Z,french_674.wav,0,poule,1306,60,5,5,français,m,1,0.1,-72.71286041,0.38255489
640095c783a33710a484adee,45,0,2024-02-28T14:47:43.210Z,french_674.wav,0,poule,1306,60,5,5,français,m,2,0.2,25.25285257,1.8939445
640095c783a33710a484adee,45,0,2024-02-28T14:47:43.210Z,french_674.wav,0,poule,1306,60,5,5,français,m,3,0.3,-18.45415803,1.35404975
640095c783a33710a484adee,45,0,2024-02-28T14:47:43.210Z,french_674.wav,0,poule,1306,60,5,5,français,m,4,0.4,-57.71656378,1.2879641
640095c783a33710a484adee,45,0,2024-02-28T14:47:43.210Z,french_674.wav,0,poule,1306,60,5,5,français,m,5,0.5,-73.49162441,1.75487552
640095c783a33710a484adee,45,0,2024-02-28T14:47:43.210Z,french_674.wav,0,poule,1306,60,5,5,français,m,6,0.6,-1.85504026,0.89488389
640095c783a33710a484adee,45,0,2024-02-28T14:47:43.210Z,french_674.wav,0,poule,1306,60,5,5,français,m,7,0.7,-87.1412738,0.66012514
640095c783a33710a484adee,45,0,2024-02-28T14:47:43.210Z,french_674.wav,0,poule,1306,60,5,5,français,m,8,0.8,-35.96348726,0.42860271
640095c783a33710a484adee,45,0,2024-02-28T14:47:43.210Z,french_674.wav,0,poule,1306,60,5,5,français,m,9,0.9,-95.42427093,0.95081491
640095c783a33710a484adee,45,0,2024-02-28T14:47:43.210Z,french_674.wav,0,poule,1306,60,5,5,français,m,10,1.0,-14.54067517,1.48593936
640095c783a33710a484adee,45,0,2024-02-28T14:47:43.210Z,french_674.wav,0,poule,1306,60,5,5,français,m,11,1.1,-75.28735124,0.17038498
640095c783a33710a484adee,45,0,2024-02-28T14:47:43.210Z,french_674.wav,0,poule,1306,60,5,5,français,m,12,1.14141667,-11.45770391,1.04908179
640095c783a33710a484adee,46,0,2024-02-28T14:47:43.210Z,french_627.wav,0,pull,487,60,5,5,français,m,0,0.0,-16.75461083,1.95083346
640095c783a33710a484adee,46,0,2024-02-28T14:47:43.210Z,french_627.wav,0,pull,487,60,5,5,français,m,1,0.1,96.68168603,0.13048675
640095c783a33710a484adee,46,0,2024-02-28T14:47:43.210Z,french_627.wav,0,pull,487,60,5,5,français,m,2,0.2,48.99544256,1.72232558
640095c783a33710a484adee,46,0,2024-02-28T14:47:43.210Z,french_627.wav,0,pull,487,60,5,5,français,m,3,0.3,0.76904268,0.90654128
640095c783a33710a484adee,46,0,2024-02-28T14:47:43.210Z,french_627.wav,0,pull,487,60,5,5,français,m,4,0.4,87.66540715,1.62595787
640095c783a33710a484adee,46,0,2024-02-28T14:47:43.210Z,french_627.wav,0,pull,487,60,5,5,français,m,5,0.5,-64.38324185,1.92320359
640095c783a33710a484adee,46,0,2024-02-28T14:47:43.210Z,french_627.wav,0,pull,487,60,5,5,français,m,6,0.6,8.96877637,1.99291341
640095c783a33710a484adee,46,0,2024-02-28T14:47:43.210Z,french_627.wav,0,pull,487,60,5,5,français,m,7,0.7,95.71714798,0.90201811
640095c783a33710a484adee,46,0,2024-02-28T14:47:43.210Z,french_627.wav,0,pull,487,60,5,5,français,m,8,0.8,81.75759789,1.76576748
640095c783a33710a484adee,46,0,2024-02-28T14:47:43.210Z,french_627.wav,0,pull,487,60,5,5,français,m,9,0.9,-61.95503167,0.88798876
640095c783a33710a484adee,46,0,2024-02-28T14:47:43.210Z,french_627.wav,0,pull,487,60,5,5,français,m,10,1.0,-55.56251199,1.6846147
640095c783a33710a484adee,46,0,2024-02-28T14:47:43.210Z,french_627.wav,0,pull,487,60,5,5,français,m,11,1.1,-58.25099621,0.34329039
640095c783a33710a484adee,46,0,2024-02-28T14:47:43.210Z,french_627.wav,0,pull,487,60,5,5,français,m,12,1.14141667,8.35767044,1.96569685
640095c783a33710a484adee,47,0,2024-02-28T14:47:43.210Z,french_577.wav,0,pull,513,60,5,5,français,m,0,0.0,-44.02512983,0.10131103
640095c783a33710a484adee,47,0,2024-02-28T14:47:43.210Z,french_577.wav,0,pull,513,60,5,5,français,m,1,0.1,79.52844358,0.08673011
640095c783a33710a484adee,47,0,2024-02-28T14:47:43.210Z,french_577.wav,0,pull,513,60,5,5,français,m,2,0.2,-30.76875615,1.23793804
640095c783a33710a484adee,47,0,2024-02-28T14:47:43.210Z,french_577.wav,0,pull,513,60,5,5,français,m,3,0.3,62.04397715,0.97250203
640095c783a33710a484adee,47,0,2024-02-28T14:47:43.210Z,french_577.wav,0,pull,513,60,5,5,français,m,4,0.4,-20.62747291,1.96102451
640095c783a33710a484adee,47,0,2024-02-28T14:47:43.210Z,french_577.wav,0,pull,513,60,5,5,français,m,5,0.5,-72.06215839,1.89275958
640095c783a33710a484adee,47,0,2024-02-28T14:47:43.210Z,french_577.wav,0,pull,513,60,5,5,français,m,6,0.6,41.90336004,1.02687128
640095c783a33710a484adee,47,0,2024-02-28T14:47:43.210Z,french_577.wav,0,pull,513,60,5,5,français,m,7,0.7,-56.13737693,0.83313949
640095c783a33710a484adee,47,0,2024-02-28T14:47:43.210Z,french_577.wav,0,pull,513,60,5,5,français,m,8,0.8,-35.59284276,0.98993041
640095c783a33710a484adee,47,0,2024-02-28T14:47:43.210Z,french_577.wav,0,pull,513,60,5,5,français,m,9,0.9,-69.77348759,1.32841377
640095c783a33710a484adee,47,0,2024-02-28T14:47:43.210Z,french_577.wav,0,pull,513,60,5,5,français,m,10,1.0,53.84749563,0.380118
640095c783a33710a484adee,47,0,2024-02-28T14:47:43.210Z,french_577.wav,0,pull,513,60,5,5,français,m,11,1.1,-66.15472085,1.50340399
640095c783a33710a484adee,47,0,2024-02-28T14:47:43.210Z,french_577.wav,0,pull,513,60,5,5,français,m,12,1.14141667,45.95016177,0.25097841
640095c783a33710a484adee,48,0,2024-02-28T14:47:43.210Z,french_463.wav,0,pull,432,60,5,5,français,m,0,0.0,-28.25289602,0.03820079
640095c783a33710a484adee,48,0,2024-02-28T14:47:43.210Z,french_463.wav,0,pull,432,60,5,5,français,m,1,0.1,-29.96157941,1.06701123
640095c783a33710a484adee,48,0,2024-02-28T14:47:43.210Z,french_463.wav,0,pull,432,60,5,5,français,m,2,0.2,-35.61602773,1.17367249
640095c783a33710a484adee,48,0,2024-02-28T14:47:43.210Z,french_463.wav,0,pull,432,60,5,5,français,m,3,0.3,64.20990909,0.16492654
640095c783a33710a484adee,48,0,2024-02-28T14:47:43.210Z,french_463.wav,0,pull,432,60,5,5,français,m,4,0.4,-63.83515399,0.16398837
640095c783a33710a484adee,48,0,2024-02-28T14:47:43.210Z,french_463.wav,0,pull,432,60,5,5,français,m,5,0.5,71.59997763,1.39593521
640095c783a33710a484adee,48,0,2024-02-28T14:47:43.210Z,french_463.wav,0,pull,432,60,5,5,français,m,6,0.6,89.31755347,1.25797632
640095c783a33710a484adee,48,0,2024-02-28T14:47:43.210Z,french_463.wav,0,pull,432,60,5,5,français,m,7,0.7,-98.14659704,0.35849906
640095c783a33710a484adee,48,0,2024-02-28T14:47:43.210Z,french_463.wav,0,pull,432,60,5,5,français,m,8,0.8,33.66167072,0.72596435
640095c783a33710a484adee,48,0,2024-02-28T14:47:43.210Z,french_463.wav,0,pull,432,60,5,5,français,m,9,0.9,67.16249153,1.46059629
640095c783a33710a484adee,48,0,2024-02-28T14:47:43.210Z,french_463.wav,0,pull,432,60,5,5,français,m,10,1.0,-48.02468866,0.19516894
640095c783a33710a484adee,48,0,2024-02-28T14:47:43.210Z,french_463.wav,0,pull,432,60,5,5,français,m,11,1.1,0.355648,1.55106472
640095c783a33710a484adee,48,0,2024-02-28T14:47:43.210Z,french_463.wav,0,pull,432,60,5,5,français,m,12,1.14141667,-15.74672825,1.61627541
640095c783a33710a484adee,49,0,2024-02-28T14:47:43.210Z,french_30.wav,0,pull,508,60,5,5,français,m,0,0.0,26.66622304,1.24018819
640095c783a33710a484adee,49,0,2024-02-28T14:47:43.210Z,french_30.wav,0,pull,508,60,5,5,français,m,1,0.1,44.7756476,0.12283153
640095c783a33710a484adee,49,0,2024-02-28T14:47:43.210Z,french_30.wav,0,pull,508,60,5,5,français,m,2,0.2,-11.3520596,0.97062851
640095c783a33710a484adee,49,0,2024-02-28T14:47:43.210Z,french_30.wav,0,pull,508,60,5,5,français,m,3,0.3,-4.87681606,1.26015405
640095c783a33710a484adee,49,0,2024-02-28T14:47:43.210Z,french_30.wav,0,pull,508,60,5,5,français,m,4,0.4,-42.57857896,1.61652027
640095c783a33710a484adee,49,0,2024-02-28T14:47:43.210Z,french_30.wav,0,pull,508,60,5,5,français,m,5,0.5,67.17876782,0.83922535
640095c783a33710a484adee,49,0,2024-02-28T14:47:43.210Z,french_30.wav,0,pull,508,60,5,5,français,m,6,0.6,-3.30215246,0.38120587
640095c783a33710a484adee,49,0,2024-02-28T14:47:43.210Z,french_30.wav,0,pull,508,60,5,5,français,m,7,0.7,-9.17249919,0.02314929
640095c783a33710a484adee,49,0,2024-02-28T14:47:43.210Z,french_30.wav,0,pull,508,60,5,5,français,m,8,0.8,29.45097785,1.31693882
640095c783a33710a484adee,49,0,2024-02-28T14:47:43.210Z,french_30.wav,0,pull,508,60,5,5,français,m,9,0.9,-60.52095677,1.24941809
640095c783a33710a484adee,49,0,2024-02-28T14:47:43.210Z,french_30.wav,0,pull,508,60,5,5,français,m,10,1.0,96.53383837,1.21139656
640095c783a33710a484adee,49,0,2024-02-28T14:47:43.210Z,french_30.wav,0,pull,508,60,5,5,français,m,11,1.1,84.89885576,0.90389111
640095c783a33710a484adee,49,0,2024-02-28T14:47:43.210Z,french_30.wav,0,pull,508,60,5,5,français,m,12,1.14141667,70.14672622,1.73450765
640095c783a33710a484adee,50,1,2024-02-28T14:47:43.210Z,french_995.wav,0,poule,733,60,5,5,français,m,0,0.0,-7.96170134,0.38046684
640095c783a33710a484adee,50,1,2024-02-28T14:47:43.210Z,french_995.wav,0,poule,733,60,5,5,français,m,1,0.1,16.92823204,1.97441067
640095c783a33710a484adee,50,1,2024-02-28T14:47:43.210Z,french_995.wav,0,poule,733,60,5,5,français,m,2,0.2,-40.54890316,1.70137584
640095c783a33710a484adee,50,1,2024-02-28T14:47:43.210Z,french_995.wav,0,poule,733,60,5,5,français,m,3,0.3,-71.09270346,0.49841536
640095c783a33710a484adee,50,1,2024-02-28T14:47:43.210Z,french_995.wav,0,poule,733,60,5,5,français,m,4,0.4,46.54513782,1.82989671
640095c783a33710a484adee,50,1,2024-02-28T14:47:43.210Z,french_995.wav,0,poule,733,60,5,5,français,m,5,0.5,59.06901586,1.58130205
640095c783a33710a484adee,50,1,2024-02-28T14:47:43.210Z,french_995.wav,0,poule,733,60,5,5,français,m,6,0.6,-58.22637358,1.51644627
640095c783a33710a484adee,50,1,2024-02-28T14:47:43.210Z,french_995.wav,0,poule,733,60,5,5,français,m,7,0.7,-29.07251542,1.82310545
640095c783a33710a484adee,50,1,2024-02-28T14:47:43.210Z,french_995.wav,0,poule,733,60,5,5,français,m,8,0.8,84.28421244,1.6943219
640095c783a33710a484adee,50,1,2024-02-28T14:47:43.210Z,french_995.wav,0,poule,733,60,5,5,français,m,9,0.9,-60.55841307,1.78542911
640095c783a33710a484adee,50,1,2024-02-28T14:47:43.210Z,french_995.wav,0,poule,733,60,5,5,français,m,10,1.0,-85.37373366,1.55666291
640095c783a33710a484adee,50,1,2024-02-28T14:47:43.210Z,french_995.wav,0,poule,733,60,5,5,français,m,11,1.1,74.0830088,1.22590756
640095c783a33710a484adee,50,1,2024-02-28T14:47:43.210Z,french_995.wav,0,poule,733,60,5,5,français,m,12,1.14141667,-94.4877363,1.8324788
640095c783a33710a484adee,51,1,2024-02-28T14:47:43.210Z,french_36.wav,0,poule,311,60,5,5,français,m,0,0.0,-11.07319695,0.23275599
640095c783a33710a484adee,51,1,2024-02-28T14:47:43.210Z,french_36.wav,0,poule,311,60,5,5,français,m,1,0.1,-25.71224467,1.71731214
640095c783a33710a484adee,51,1,2024-02-28T14:47:43.210Z,french_36.wav,0,poule,311,60,5,5,français,m,2,0.2,-96.57480527,0.39984068
640095c783a33710a484adee,51,1,2024-02-28T14:47:43.210Z,french_36.wav,0,poule,311,60,5,5,français,m,3,0.3,93.32142105,0.82158745
640095c783a33710a484adee,51,1,2024-02-28T14:47:43.210Z,french_36.wav,0,poule,311,60,5,5,français,m,4,0.4,17.7749858,1.37135508
640095c783a33710a484adee,51,1,2024-02-28T14:47:43.210Z,french_36.wav,0,poule,311,60,5,5,français,m,5,0.5,-73.30096507,1.36933286
640095c783a33710a484adee,51,1,2024-02-28T14:47:43.210Z,french_36.wav,0,poule,311,60,5,5,français,m,6,0.6,-46.23339782,0.23667526
640095c783a33710a484adee,51,1,2024-02-28T14:47:43.210Z,french_36.wav,0,poule,311,60,5,5,français,m,7,0.7,-83.63624017,0.96954284
640095c783a33710a484adee,51,1,2024-02-28T14:47:43.210Z,french_36.wav,0,poule,311,60,5,5,français,m,8,0.8,-33.60594302,1.15800278
640095c783a33710a484adee,51,1,2024-02-28T14:47:43.210Z,french_36.wav,0,poule,311,60,5,5,français,m,9,0.9,8.42036978,1.66574798
640095c783a33710a484adee,51,1,2024-02-28T14:47:43.210Z,french_36.wav,0,poule,311,60,5,5,français,m,10,1.0,36.75587817,1.99186971
640095c783a33710a484adee,51,1,2024-02-28T14:47:43.210Z,french_36.wav,0,poule,311,60,5,5,français,m,11,1.1,-32.43019278,1.21078933
640095c783a33710a484adee,51,1,2024-02-28T14:47:43.210Z,french_36.wav,0,poule,311,60,5,5,français,m,12,1.14141667,30.15808511,1.78246496
640095c783a33710a484adee,52,1,2024-02-28T14:47:43.210Z,french_688.wav,0,pull,706,60,5,5,français,m,0,0.0,91.54391251,1.81466251
640095c783a33710a484adee,52,1,2024-02-28T14:47:43.210Z,french_688.wav,0,pull,706,60,5,5,français,m,1,0.1,78.06416421,1.53337533
640095c783a33710a484adee,52,1,2024-02-28T14:47:43.210Z,french_688.wav,0,pull,706,60,5,5,français,m,2,0.2,-58.48067555,0.98967466
640095c783a33710a484adee,52,1,2024-02-28T14:47:43.210Z,french_688.wav,0,pull,706,60,5,5,français,m,3,0.3,-90.2136996,1.42275833
640095c783a33710a484adee,52,1,2024-02-28T14:47:43.210Z,french_688.wav,0,pull,706,60,5,5,français,m,4,0.4,-50.08146281,1.74242441
640095c783a33710a484adee,52,1,2024-02-28T14:47:43.210Z,french_688.wav,0,pull,706,60,5,5,français,m,5,0.5,0.90253223,1.11374005
640095c783a33710a484adee,52,1,2024-02-28T14:47:43.210Z,french_688.wav,0,pull,706,60,5,5,français,m,6,0.6,-14.71129545,0.56963487
640095c783a33710a484adee,52,1,2024-02-28T14:47:43.210Z,french_688.wav,0,pull,706,60,5,5,français,m,7,0.7,-23.6898362,0.82081927
640095c783a33710a484adee,52,1,2024-02-28T14:47:43.210Z,french_688.wav,0,pull,706,60,5,5,français,m,8,0.8,31.11024133,1.73481969
640095c783a33710a484adee,52,1,2024-02-28T14:47:43.210Z,french_688.wav,0,pull,706,60,5,5,français,m,9,0.9,-14.23643957,0.39687116
640095c783a33710a484adee,52,1,2024-02-28T14:47:43.210Z,french_688.wav,0,pull,706,60,5,5,français,m,10,1.0,63.67411618,0.09343869
640095c783a33710a484adee,52,1,2024-02-28T14:47:43.210Z,french_688.wav,0,pull,706,60,5,5,français,m,11,1.1,62.83310166,0.28087028
640095c783a33710a484adee,52,1,2024-02-28T14:47:43.210Z,french_688.wav,0,pull,706,60,5,5,français,m,12,1.14141667,-7.71472793,0.17948475
640095c783a33710a484adee,53,1,2024-02-28T14:47:43.210Z,french_666.wav,0,pull,419,60,5,5,français,m,0,0.0,92.96865197,0.97097631
640095c783a33710a484adee,53,1,2024-02-28T14:47:43.210Z,french_666.wav,0,pull,419,60,5,5,français,m,1,0.1,83.19708081,1.21196334
640095c783a33710a484adee,53,1,2024-02-28T14:47:43.210Z,french_666.wav,0,pull,419,60,5,5,français,m,2,0.2,-93.00429792,0.21493139
640095c783a33710a484adee,53,1,2024-02-28T14:47:43.210Z,french_666.wav,0,pull,419,60,5,5,français,m,3,0.3,90.20261319,0.41981713
640095c783a33710a484adee,53,1,2024-02-28T14:47:43.210Z,french_666.wav,0,pull,419,60,5,5,français,m,4,0.4,-87.15662035,1.50078267
640095c783a33710a484adee,53,1,2024-02-28T14:47:43.210Z,french_666.wav,0,pull,419,60,5,5,français,m,5,0.5,-47.24627787,1.52836047
640095c783a33710a484adee,53,1,2024-02-28T14:47:43.210Z,french_666.wav,0,pull,419,60,5,5,français,m,6,0.6,59.30035154,0.33218379
640095c783a33710a484adee,53,1,2024-02-28T14:47:43.210Z,french_666.wav,0,pull,419,60,5,5,français,m,7,0.7,-15.62578407,0.67593379
640095c783a33710a484adee,53,1,2024-02-28T14:47:43.210Z,french_666.wav,0,pull,419,60,5,5,français,m,8,0.8,-24.02578561,0.65338916
640095c783a33710a484adee,53,1,2024-02-28T14:47:43.210Z,french_666.wav,0,pull,419,60,5,5,français,m,9,0.9,-81.73454308,1.43079887
640095c783a33710a484adee,53,1,2024-02-28T14:47:43.210Z,french_666.wav,0,pull,419,60,5,5,français,m,10,1.0,8.5752321,0.1051972
640095c783a33710a484adee,53,1,2024-02-28T14:47:43.210Z,french_666.wav,0,pull,419,60,5,5,français,m,11,1.1,81.49647055,1.769445
640095c783a33710a484adee,53,1,2024-02-28T14:47:43.210Z,french_666.wav,0,pull,419,60,5,5,français,m,12,1.14141667,-18.83163279,0.88398821
640095c783a33710a484adee,54,1,2024-02-28T14:47:43.210Z,french_724.wav,0,poule,460,60,5,5,français,m,0,0.0,-42.7356975,0.85167994
640095c783a33710a484adee,54,1,2024-02-28T14:47:43.210Z,french_724.wav,0,poule,460,60,5,5,français,m,1,0.1,79.1515089,1.58951064
640095c783a33710a484adee,54,1,2024-02-28T14:47:43.210Z,french_724.wav,0,poule,460,60,5,5,français,m,2,0.2,64.9302742,0.60770722
640095c783a33710a484adee,54,1,2024-02-28T14:47:43.210Z,french_724.wav,0,poule,460,60,5,5,français,m,3,0.3,-85.1878267,0.75189335
640095c783a33710a484adee,54,1,2024-02-28T14:47:43.210Z,french_724.wav,0,poule,460,60,5,5,français,m,4,0.4,-34.3526203,0.90807039
640095c783a33710a484adee,54,1,2024-02-28T14:47:43.210Z,french_724.wav,0,poule,460,60,5,5,français,m,5,0.5,-4.99910648,0.50960695
640095c783a33710a484adee,54,1,2024-02-28T14:47:43.210Z,french_724.wav,0,poule,460,60,5,5,français,m,6,0.6,0.044891932,0.49994716
640095c783a33710a484adee,54,1,2024-02-28T14:47:43.210Z,french_724.wav,0,poule,460,60,5,5,français,m,7,0.7,7.78511592,1.52976277
640095c783a33710a484adee,54,1,2024-02-28T14:47:43.210Z,french_724.wav,0,poule,460,60,5,5,français,m,8,0.8,20.6697314,1.0388534
640095c783a33710a484adee,54,1,2024-02-28T14:47:43.210Z,french_724.wav,0,poule,460,60,5,5,français,m,9,0.9,94.4830377,1.27328061
640095c783a33710a484adee,54,1,2024-02-28T14:47:43.210Z,french_724.wav,0,poule,460,60,5,5,français,m,10,1.0,1.93406873,1.00280062
640095c783a33710a484adee,54,1,2024-02-28T14:47:43.210Z,french_724.wav,0,poule,460,60,5,5,français,m,11,1.1,65.5163276,1.51647705
640095c783a33710a484adee,54,1,2024-02-28T14:47:43.210Z,french_724.wav,0,poule,460,60,5,5,français,m,12,1.14141667,36.432613,1.50732266
640095c783a33710a484adee,55,1,2024-02-28T14:47:43.210Z,french_338.wav,0,poule,1851,60,5,5,français,m,0,0.0,32.43640694,1.33040513
640095c783a33710a484adee,55,1,2024-02-28T14:47:43.210Z,french_338.wav,0,poule,1851,60,5,5,français,m,1,0.1,-96.15534081,1.37265774
640095c783a33710a484adee,55,1,2024-02-28T14:47:43.210Z,french_338.wav,0,poule,1851,60,5,5,français,m,2,0.2,71.74391232,0.97045392
640095c783a33710a484adee,55,1,2024-02-28T14:47:43.210Z,french_338.wav,0,poule,1851,60,5,5,français,m,3,0.3,66.77138204,0.15859567
640095c783a33710a484adee,55,1,2024-02-28T14:47:43.210Z,french_338.wav,0,poule,1851,60,5,5,français,m,4,0.4,15.01497933,0.06667266
640095c783a33710a484adee,55,1,2024-02-28T14:47:43.210Z,french_338.wav,0,poule,1851,60,5,5,français,m,5,0.5,92.69089604,0.24915734
640095c783a33710a484adee,55,1,2024-02-28T14:47:43.210Z,french_338.wav,0,poule,1851,60,5,5,français,m,6,0.6,43.1424087,1.15855491
640095c783a33710a484adee,55,1,2024-02-28T14:47:43.210Z,french_338.wav,0,poule,1851,60,5,5,français,m,7,0.7,-30.37149924,1.05458836
640095c783a33710a484adee,55,1,2024-02-28T14:47:43.210Z,french_338.wav,0,poule,1851,60,5,5,français,m,8,0.8,46.68539141,0.40093841
640095c783a33710a484adee,55,1,2024-02-28T14:47:43.210Z,french_338.wav,0,poule,1851,60,5,5,français,m,9,0.9,93.80986052,0.20402843
640095c783a33710a484adee,55,1,2024-02-28T14:47:43.210Z,french_338.wav,0,poule,1851,60,5,5,français,m,10,1.0,81.72582501,0.60947965
640095c783a33710a484adee,55,1,2024-02-28T14:47:43.210Z,french_338.wav,0,poule,1851,60,5,5,français,m,11,1.1,64.92591282,0.10143299
640095c783a33710a484adee,55,1,2024-02-28T14:47:43.210Z,french_338.wav,0,poule,1851,60,5,5,français,m,12,1.14141667,81.2294196,0.26247097
640095c783a33710a484adee,56,1,2024-02-28T14:47:43.210Z,french_364.wav,0,poule,872,60,5,5,français,m,0,0.0,-97.50154986,1.39662883
640095c783a33710a484adee,56,1,2024-02-28T14:47:43.210Z,french_364.wav,0,poule,872,60,5,5,français,m,1,0.1,-96.75823036,0.95608776
640095c783a33710a484adee,56,1,2024-02-28T14:47:43.210Z,french_364.wav,0,poule,872,60,5,5,français,m,2,0.2,-47.50259118,1.52513334
640095c783a33710a484adee,56,1,2024-02-28T14:47:43.210Z,french_364.wav,0,poule,872,60,5,5,français,m,3,0.3,-0.40626285,1.08680296
640095c783a33710a484adee,56,1,2024-02-28T14:47:43.210Z,french_364.wav,0,poule,872,60,5,5,français,m,4,0.4,-80.16470195,0.33609261
640095c783a33710a484adee,56,1,2024-02-28T14:47:43.210Z,french_364.wav,0,poule,872,60,5,5,français,m,5,0.5,-95.76954551,0.74984016
640095c783a33710a484adee,56,1,2024-02-28T14:47:43.210Z,french_364.wav,0,poule,872,60,5,5,français,m,6,0.6,71.28277546,0.21907723
640095c783a33710a484adee,56,1,2024-02-28T14:47:43.210Z,french_364.wav,0,poule,872,60,5,5,français,m,7,0.7,17.11664647,0.46362163
640095c783a33710a484adee,56,1,2024-02-28T14:47:43.210Z,french_364.wav,0,poule,872,60,5,5,français,m,8,0.8,-50.68078516,1.89095405
640095c783a33710a484adee,56,1,2024-02-28T14:47:43.210Z,french_364.wav,0,poule,872,60,5,5,français,m,9,0.9,84.91146996,0.52755349
640095c783a33710a484adee,56,1,2024-02-28T14:47:43.210Z,french_364.wav,0,poule,872,60,5,5,français,m,10,1.0,-28.74408439,1.92916741
640095c783a33710a484adee,56,1,2024-02-28T14:47:43.210Z,french_364.wav,0,poule,872,60,5,5,français,m,11,1.1,-16.57627289,0.73615902
640095c783a33710a484adee,56,1,2024-02-28T14:47:43.210Z,french_364.wav,0,poule,872,60,5,5,français,m,12,1.14141667,15.97601044,0.40543275
640095c783a33710a484adee,57,1,2024-02-28T14:47:43.210Z,french_48.wav,0,pull,477,60,5,5,français,m,0,0.0,31.83556995,0.04637149
640095c783a33710a484adee,57,1,2024-02-28T14:47:43.210Z,french_48.wav,0,pull,477,60,5,5,français,m,1,0.1,16.95000218,0.30680375
640095c783a33710a484adee,57,1,2024-02-28T14:47:43.210Z,french_48.wav,0,pull,477,60,5,5,français,m,2,0.2,-22.15992406,0.29895669
640095c783a33710a484adee,57,1,2024-02-28T14:47:43.210Z,french_48.wav,0,pull,477,60,5,5,français,m,3,0.3,68.06463316,0.33382903
640095c783a33710a484adee,57,1,2024-02-28T14:47:43.210Z,french_48.wav,0,pull,477,60,5,5,français,m,4,0.4,-34.30390919,1.04076391
640095c783a33710a484adee,57,1,2024-02-28T14:47:43.210Z,french_48.wav,0,pull,477,60,5,5,français,m,5,0.5,-90.33439148,1.43771341
640095c783a33710a484adee,57,1,2024-02-28T14:47:43.210Z,french_48.wav,0,pull,477,60,5,5,français,m,6,0.6,8.13738726,1.66730846
640095c783a33710a484adee,57,1,2024-02-28T14:47:43.210Z,french_48.wav,0,pull,477,60,5,5,français,m,7,0.7,-59.30021177,0.0809311
640095c783a33710a484adee,57,1,2024-02-28T14:47:43.210Z,french_48.wav,0,pull,477,60,5,5,français,m,8,0.8,-33.68412198,0.42468959
640095c783a33710a484adee,57,1,2024-02-28T14:47:43.210Z,french_48.wav,0,pull,477,60,5,5,français,m,9,0.9,-51.99918374,1.60564516
640095c783a33710a484adee,57,1,2024-02-28T14:47:43.210Z,french_48.wav,0,pull,477,60,5,5,français,m,10,1.0,-46.08867443,1.33122089
640095c783a33710a484adee,57,1,2024-02-28T14:47:43.210Z,french_48.wav,0,pull,477,60,5,5,français,m,11,1.1,17.238227,0.39324532
640095c783a33710a484adee,57,1,2024-02-28T14:47:43.210Z,french_48.wav,0,pull,477,60,5,5,français,m,12,1.14141667,43.67753982,1.35169292
640095c783a33710a484adee,58,1,2024-02-28T14:47:43.210Z,french_234.wav,0,poule,636,60,5,5,français,m,0,0.0,88.22307588,1.89855189
640095c783a33710a484adee,58,1,2024-02-28T14:47:43.210Z,french_234.wav,0,poule,636,60,5,5,français,m,1,0.1,57.26575683,1.27116008
640095c783a33710a484adee,58,1,2024-02-28T14:47:43.210Z,french_234.wav,0,poule,636,60,5,5,français,m,2,0.2,25.52563425,1.59337458
640095c783a33710a484adee,58,1,2024-02-28T14:47:43.210Z,french_234.wav,0,poule,636,60,5,5,français,m,3,0.3,-25.05527829,0.76927451
640095c783a33710a484adee,58,1,2024-02-28T14:47:43.210Z,french_234.wav,0,poule,636,60,5,5,français,m,4,0.4,-99.71798475,1.24054911
640095c783a33710a484adee,58,1,2024-02-28T14:47:43.210Z,french_234.wav,0,poule,636,60,5,5,français,m,5,0.5,-43.38981996,0.19501713
640095c783a33710a484adee,58,1,2024-02-28T14:47:43.210Z,french_234.wav,0,poule,636,60,5,5,français,m,6,0.6,-62.87626662,0.83885203
640095c783a33710a484adee,58,1,2024-02-28T14:47:43.210Z,french_234.wav,0,poule,636,60,5,5,français,m,7,0.7,-4.76781776,0.58437892
640095c783a33710a484adee,58,1,2024-02-28T14:47:43.210Z,french_234.wav,0,poule,636,60,5,5,français,m,8,0.8,56.90959429,0.42895921
640095c783a33710a484adee,58,1,2024-02-28T14:47:43.210Z,french_234.wav,0,poule,636,60,5,5,français,m,9,0.9,88.67981641,1.25749201
640095c783a33710a484adee,58,1,2024-02-28T14:47:43.210Z,french_234.wav,0,poule,636,60,5,5,français,m,10,1.0,-76.52776347,1.61503786
640095c783a33710a484adee,58,1,2024-02-28T14:47:43.210Z,french_234.wav,0,poule,636,60,5,5,français,m,11,1.1,-30.37754575,0.54685298
640095c783a33710a484adee,58,1,2024-02-28T14:47:43.210Z,french_234.wav,0,poule,636,60,5,5,français,m,12,1.14141667,5.71933253,1.35699627
640095c783a33710a484adee,59,1,2024-02-28T14:47:43.210Z,french_195.wav,0,pull,414,60,5,5,français,m,0,0.0,-94.44814465,1.01221837
640095c783a33710a484adee,59,1,2024-02-28T14:47:43.210Z,french_195.wav,0,pull,414,60,5,5,français,m,1,0.1,-8.36271039,1.79960209
640095c783a33710a484adee,59,1,2024-02-28T14:47:43.210Z,french_195.wav,0,pull,414,60,5,5,français,m,2,0.2,-97.87108345,1.85291705
640095c783a33710a484adee,59,1,2024-02-28T14:47:43.210Z,french_195.wav,0,pull,414,60,5,5,français,m,3,0.3,9.38810088,0.83034956
640095c783a33710a484adee,59,1,2024-02-28T14:47:43.210Z,french_195.wav,0,pull,414,60,5,5,français,m,4,0.4,-5.68639094,0.73814621
