subj,trial,block,date,stim,stim_order,response,rt,age,english,french,language,sex,param_index,segment,pitch,stretch
65bfaace4062b6540bf95077,0,0,2024-02-28T16:04:27.725Z,french_979.wav,0,poule,6579,24,5,5,Francais,m,0,0.0,-24.59442458,0.55171516
65bfaace4062b6540bf95077,0,0,2024-02-28T16:04:27.725Z,french_979.wav,0,poule,6579,24,5,5,Francais,m,1,0.1,-15.8657423,0.19158122
65bfaace4062b6540bf95077,0,0,2024-02-28T16:04:27.725Z,french_979.wav,0,poule,6579,24,5,5,Francais,m,2,0.2,97.78119819,0.68068188
65bfaace4062b6540bf95077,0,0,2024-02-28T16:04:27.725Z,french_979.wav,0,poule,6579,24,5,5,Francais,m,3,0.3,35.01579285,0.93038859
65bfaace4062b6540bf95077,0,0,2024-02-28T16:04:27.725Z,french_979.wav,0,poule,6579,24,5,5,Francais,m,4,0.4,-50.00154484,0.2451014
65bfaace4062b6540bf95077,0,0,2024-02-28T16:04:27.725Z,french_979.wav,0,poule,6579,24,5,5,Francais,m,5,0.5,-42.29600698,0.21384975
65bfaace4062b6540bf95077,0,0,2024-02-28T16:04:27.725Z,french_979.wav,0,poule,6579,24,5,5,Francais,m,6,0.6,-7.08735451,0.29453199
65bfaace4062b6540bf95077,0,0,2024-02-28T16:04:27.725Z,french_979.wav,0,poule,6579,24,5,5,Francais,m,7,0.7,39.71117799,0.3222649
65bfaace4062b6540bf95077,0,0,2024-02-28T16:04:27.725Z,french_979.wav,0,poule,6579,24,5,5,Francais,m,8,0.8,-78.33069579,0.32976465
65bfaace4062b6540bf95077,0,0,2024-02-28T16:04:27.725Z,french_979.wav,0,poule,6579,24,5,5,Francais,m,9,0.9,42.29148017,1.36759546
65bfaace4062b6540bf95077,0,0,2024-02-28T16:04:27.725Z,french_979.wav,0,poule,6579,24,5,5,Francais,m,10,1.0,-54.65442385,1.78708045
65bfaace4062b6540bf95077,0,0,2024-02-28T16:04:27.725Z,french_979.wav,0,poule,6579,24,5,5,Francais,m,11,1.1,96.05241264,1.41932108
65bfaace4062b6540bf95077,0,0,2024-02-28T16:04:27.725Z,french_979.wav,0,poule,6579,24,5,5,Francais,m,12,1.14141667,-91.35915117,1.03513559
65bfaace4062b6540bf95077,1,0,2024-02-28T16:04:27.725Z,french_527.wav,0,poule,4294,24,5,5,Francais,m,0,0.0,82.21391649,0.16629569
65bfaace4062b6540bf95077,1,0,2024-02-28T16:04:27.725Z,french_527.wav,0,poule,4294,24,5,5,Francais,m,1,0.1,8.23446924,0.53206339
65bfaace4062b6540bf95077,1,0,2024-02-28T16:04:27.725Z,french_527.wav,0,poule,4294,24,5,5,Francais,m,2,0.2,-66.78536599,0.7302175
65bfaace4062b6540bf95077,1,0,2024-02-28T16:04:27.725Z,french_527.wav,0,poule,4294,24,5,5,Francais,m,3,0.3,91.71269389,1.32409314
65bfaace4062b6540bf95077,1,0,2024-02-28T16:04:27.725Z,french_527.wav,0,poule,4294,24,5,5,Francais,m,4,0.4,38.34506198,0.73265348
65bfaace4062b6540bf95077,1,0,2024-02-28T16:04:27.725Z,french_527.wav,0,poule,4294,24,5,5,Francais,m,5,0.5,11.54452605,1.69253874
65bfaace4062b6540bf95077,1,0,2024-02-28T16:04:27.725Z,french_527.wav,0,poule,4294,24,5,5,Francais,m,6,0.6,96.28222232,1.17892536
65bfaace4062b6540bf95077,1,0,2024-02-28T16:04:27.725Z,french_527.wav,0,poule,4294,24,5,5,Francais,m,7,0.7,-47.65455755,0.38924981
65bfaace4062b6540bf95077,1,0,2024-02-28T16:04:27.725Z,french_527.wav,0,poule,4294,24,5,5,Francais,m,8,0.8,-79.10134883,1.19695385
65bfaace4062b6540bf95077,1,0,2024-02-28T16:04:27.725Z,french_527.wav,0,poule,4294,24,5,5,Francais,m,9,0.9,28.80832425,0.99788434
65bfaace4062b6540bf95077,1,0,2024-02-28T16:04:27.725Z,french_527.wav,0,poule,4294,24,5,5,Francais,m,10,1.0,42.88340192,1.07124619
65bfaace4062b6540bf95077,1,0,2024-02-28T16:04:27.725Z,french_527.wav,0,poule,4294,24,5,5,Francais,m,11,1.1,-29.0066371,1.45535326
65bfaace4062b6540bf95077,1,0,2024-02-28T16:04:27.725Z,french_527.wav,0,poule,4294,24,5,5,Francais,m,12,1.14141667,-55.47213333,1.05284773
65bfaace4062b6540bf95077,2,0,2024-02-28T16:04:27.725Z,french_618.wav,0,poule,1202,24,5,5,Francais,m,0,0.0,20.05983972,0.17568044
65bfaace4062b6540bf95077,2,0,2024-02-28T16:04:27.725Z,french_618.wav,0,poule,1202,24,5,5,Francais,m,1,0.1,58.91310592,0.80933432
65bfaace4062b6540bf95077,2,0,2024-02-28T16:04:27.725Z,french_618.wav,0,poule,1202,24,5,5,Francais,m,2,0.2,6.72731042,1.75957191
65bfaace4062b6540bf95077,2,0,2024-02-28T16:04:27.725Z,french_618.wav,0,poule,1202,24,5,5,Francais,m,3,0.3,-78.89679785,1.21569199
65bfaace4062b6540bf95077,2,0,2024-02-28T16:04:27.725Z,french_618.wav,0,poule,1202,24,5,5,Francais,m,4,0.4,-8.33733298,0.08695144
65bfaace4062b6540bf95077,2,0,2024-02-28T16:04:27.725Z,french_618.wav,0,poule,1202,24,5,5,Francais,m,5,0.5,65.10342581,0.71252573
65bfaace4062b6540bf95077,2,0,2024-02-28T16:04:27.725Z,french_618.wav,0,poule,1202,24,5,5,Francais,m,6,0.6,-94.00807668,1.00569246
65bfaace4062b6540bf95077,2,0,2024-02-28T16:04:27.725Z,french_618.wav,0,poule,1202,24,5,5,Francais,m,7,0.7,82.41977933,1.1966004
65bfaace4062b6540bf95077,2,0,2024-02-28T16:04:27.725Z,french_618.wav,0,poule,1202,24,5,5,Francais,m,8,0.8,21.24581957,1.80975739
65bfaace4062b6540bf95077,2,0,2024-02-28T16:04:27.725Z,french_618.wav,0,poule,1202,24,5,5,Francais,m,9,0.9,66.30338575,1.67881476
65bfaace4062b6540bf95077,2,0,2024-02-28T16:04:27.725Z,french_618.wav,0,poule,1202,24,5,5,Francais,m,10,1.0,35.04204865,1.40354146
65bfaace4062b6540bf95077,2,0,2024-02-28T16:04:27.725Z,french_618.wav,0,poule,1202,24,5,5,Francais,m,11,1.1,4.02018466,1.74539239
65bfaace4062b6540bf95077,2,0,2024-02-28T16:04:27.725Z,french_618.wav,0,poule,1202,24,5,5,Francais,m,12,1.14141667,-34.41646074,1.86292193
65bfaace4062b6540bf95077,3,0,2024-02-28T16:04:27.725Z,french_745.wav,0,pull,1639,24,5,5,Francais,m,0,0.0,-8.32888314,1.09732397
65bfaace4062b6540bf95077,3,0,2024-02-28T16:04:27.725Z,french_745.wav,0,pull,1639,24,5,5,Francais,m,1,0.1,-6.05023993,1.87088692
65bfaace4062b6540bf95077,3,0,2024-02-28T16:04:27.725Z,french_745.wav,0,pull,1639,24,5,5,Francais,m,2,0.2,14.20117391,1.54181536
65bfaace4062b6540bf95077,3,0,2024-02-28T16:04:27.725Z,french_745.wav,0,pull,1639,24,5,5,Francais,m,3,0.3,9.72422027,0.66469183
65bfaace4062b6540bf95077,3,0,2024-02-28T16:04:27.725Z,french_745.wav,0,pull,1639,24,5,5,Francais,m,4,0.4,61.94285409,0.06080466
65bfaace4062b6540bf95077,3,0,2024-02-28T16:04:27.725Z,french_745.wav,0,pull,1639,24,5,5,Francais,m,5,0.5,16.9242065,0.4761387
65bfaace4062b6540bf95077,3,0,2024-02-28T16:04:27.725Z,french_745.wav,0,pull,1639,24,5,5,Francais,m,6,0.6,-73.99150176,0.98624315
65bfaace4062b6540bf95077,3,0,2024-02-28T16:04:27.725Z,french_745.wav,0,pull,1639,24,5,5,Francais,m,7,0.7,-68.75802198,1.75579455
65bfaace4062b6540bf95077,3,0,2024-02-28T16:04:27.725Z,french_745.wav,0,pull,1639,24,5,5,Francais,m,8,0.8,30.41524691,0.49603864
65bfaace4062b6540bf95077,3,0,2024-02-28T16:04:27.725Z,french_745.wav,0,pull,1639,24,5,5,Francais,m,9,0.9,-73.26315303,1.28396811
65bfaace4062b6540bf95077,3,0,2024-02-28T16:04:27.725Z,french_745.wav,0,pull,1639,24,5,5,Francais,m,10,1.0,67.07087991,1.04819189
65bfaace4062b6540bf95077,3,0,2024-02-28T16:04:27.725Z,french_745.wav,0,pull,1639,24,5,5,Francais,m,11,1.1,37.63567308,1.07853657
65bfaace4062b6540bf95077,3,0,2024-02-28T16:04:27.725Z,french_745.wav,0,pull,1639,24,5,5,Francais,m,12,1.14141667,72.47019106,1.51225642
65bfaace4062b6540bf95077,4,0,2024-02-28T16:04:27.725Z,french_91.wav,0,pull,2467,24,5,5,Francais,m,0,0.0,-4.38928225,1.35402237
65bfaace4062b6540bf95077,4,0,2024-02-28T16:04:27.725Z,french_91.wav,0,pull,2467,24,5,5,Francais,m,1,0.1,-4.65746262,0.85910671
65bfaace4062b6540bf95077,4,0,2024-02-28T16:04:27.725Z,french_91.wav,0,pull,2467,24,5,5,Francais,m,2,0.2,38.3551302,1.03408634
65bfaace4062b6540bf95077,4,0,2024-02-28T16:04:27.725Z,french_91.wav,0,pull,2467,24,5,5,Francais,m,3,0.3,32.4405862,1.08579464
65bfaace4062b6540bf95077,4,0,2024-02-28T16:04:27.725Z,french_91.wav,0,pull,2467,24,5,5,Francais,m,4,0.4,81.49673945,0.75561593
65bfaace4062b6540bf95077,4,0,2024-02-28T16:04:27.725Z,french_91.wav,0,pull,2467,24,5,5,Francais,m,5,0.5,81.25342016,1.00495207
65bfaace4062b6540bf95077,4,0,2024-02-28T16:04:27.725Z,french_91.wav,0,pull,2467,24,5,5,Francais,m,6,0.6,56.57176785,1.98726576
65bfaace4062b6540bf95077,4,0,2024-02-28T16:04:27.725Z,french_91.wav,0,pull,2467,24,5,5,Francais,m,7,0.7,75.06735921,1.85537264
65bfaace4062b6540bf95077,4,0,2024-02-28T16:04:27.725Z,french_91.wav,0,pull,2467,24,5,5,Francais,m,8,0.8,-0.66184624,1.75011325
65bfaace4062b6540bf95077,4,0,2024-02-28T16:04:27.725Z,french_91.wav,0,pull,2467,24,5,5,Francais,m,9,0.9,76.72282053,0.48868788
65bfaace4062b6540bf95077,4,0,2024-02-28T16:04:27.725Z,french_91.wav,0,pull,2467,24,5,5,Francais,m,10,1.0,-60.33019501,1.20303721
65bfaace4062b6540bf95077,4,0,2024-02-28T16:04:27.725Z,french_91.wav,0,pull,2467,24,5,5,Francais,m,11,1.1,-28.16928775,0.40883522
65bfaace4062b6540bf95077,4,0,2024-02-28T16:04:27.725Z,french_91.wav,0,pull,2467,24,5,5,Francais,m,12,1.14141667,29.01698887,0.8124878
65bfaace4062b6540bf95077,5,0,2024-02-28T16:04:27.725Z,french_959.wav,0,pull,1201,24,5,5,Francais,m,0,0.0,-38.78716583,1.01136346
65bfaace4062b6540bf95077,5,0,2024-02-28T16:04:27.725Z,french_959.wav,0,pull,1201,24,5,5,Francais,m,1,0.1,83.97538875,0.01517065
65bfaace4062b6540bf95077,5,0,2024-02-28T16:04:27.725Z,french_959.wav,0,pull,1201,24,5,5,Francais,m,2,0.2,-68.1228649,1.90257515
65bfaace4062b6540bf95077,5,0,2024-02-28T16:04:27.725Z,french_959.wav,0,pull,1201,24,5,5,Francais,m,3,0.3,-41.95368962,1.59883642
65bfaace4062b6540bf95077,5,0,2024-02-28T16:04:27.725Z,french_959.wav,0,pull,1201,24,5,5,Francais,m,4,0.4,-64.50673754,1.27442348
65bfaace4062b6540bf95077,5,0,2024-02-28T16:04:27.725Z,french_959.wav,0,pull,1201,24,5,5,Francais,m,5,0.5,14.64173949,0.72016077
65bfaace4062b6540bf95077,5,0,2024-02-28T16:04:27.725Z,french_959.wav,0,pull,1201,24,5,5,Francais,m,6,0.6,37.29610472,1.68485577
65bfaace4062b6540bf95077,5,0,2024-02-28T16:04:27.725Z,french_959.wav,0,pull,1201,24,5,5,Francais,m,7,0.7,17.36432076,0.42613864
65bfaace4062b6540bf95077,5,0,2024-02-28T16:04:27.725Z,french_959.wav,0,pull,1201,24,5,5,Francais,m,8,0.8,64.63054237,1.15064148
65bfaace4062b6540bf95077,5,0,2024-02-28T16:04:27.725Z,french_959.wav,0,pull,1201,24,5,5,Francais,m,9,0.9,-0.55714174,0.20086001
65bfaace4062b6540bf95077,5,0,2024-02-28T16:04:27.725Z,french_959.wav,0,pull,1201,24,5,5,Francais,m,10,1.0,-86.63903478,0.91350004
65bfaace4062b6540bf95077,5,0,2024-02-28T16:04:27.725Z,french_959.wav,0,pull,1201,24,5,5,Francais,m,11,1.1,9.24896972,0.49375307
65bfaace4062b6540bf95077,5,0,2024-02-28T16:04:27.725Z,french_959.wav,0,pull,1201,24,5,5,Francais,m,12,1.14141667,-57.53848842,1.06538265
65bfaace4062b6540bf95077,6,0,2024-02-28T16:04:27.725Z,french_851.wav,0,pull,2577,24,5,5,Francais,m,0,0.0,-20.43320762,0.66016838
65bfaace4062b6540bf95077,6,0,2024-02-28T16:04:27.725Z,french_851.wav,0,pull,2577,24,5,5,Francais,m,1,0.1,60.62921103,0.93704057
65bfaace4062b6540bf95077,6,0,2024-02-28T16:04:27.725Z,french_851.wav,0,pull,2577,24,5,5,Francais,m,2,0.2,-69.4758562,0.40844528
65bfaace4062b6540bf95077,6,0,2024-02-28T16:04:27.725Z,french_851.wav,0,pull,2577,24,5,5,Francais,m,3,0.3,99.68608968,1.49162955
65bfaace4062b6540bf95077,6,0,2024-02-28T16:04:27.725Z,french_851.wav,0,pull,2577,24,5,5,Francais,m,4,0.4,52.60808316,0.63347234
65bfaace4062b6540bf95077,6,0,2024-02-28T16:04:27.725Z,french_851.wav,0,pull,2577,24,5,5,Francais,m,5,0.5,82.00432386,0.2494998
65bfaace4062b6540bf95077,6,0,2024-02-28T16:04:27.725Z,french_851.wav,0,pull,2577,24,5,5,Francais,m,6,0.6,-29.12456254,0.63171599
65bfaace4062b6540bf95077,6,0,2024-02-28T16:04:27.725Z,french_851.wav,0,pull,2577,24,5,5,Francais,m,7,0.7,-55.27967683,0.50436253
65bfaace4062b6540bf95077,6,0,2024-02-28T16:04:27.725Z,french_851.wav,0,pull,2577,24,5,5,Francais,m,8,0.8,15.90179394,1.51392072
65bfaace4062b6540bf95077,6,0,2024-02-28T16:04:27.725Z,french_851.wav,0,pull,2577,24,5,5,Francais,m,9,0.9,34.1769329,0.06484652
65bfaace4062b6540bf95077,6,0,2024-02-28T16:04:27.725Z,french_851.wav,0,pull,2577,24,5,5,Francais,m,10,1.0,72.64427384,0.08572939
65bfaace4062b6540bf95077,6,0,2024-02-28T16:04:27.725Z,french_851.wav,0,pull,2577,24,5,5,Francais,m,11,1.1,81.38750215,0.38713991
65bfaace4062b6540bf95077,6,0,2024-02-28T16:04:27.725Z,french_851.wav,0,pull,2577,24,5,5,Francais,m,12,1.14141667,96.27916325,0.0705022
65bfaace4062b6540bf95077,7,0,2024-02-28T16:04:27.725Z,french_809.wav,0,poule,354,24,5,5,Francais,m,0,0.0,-97.7648991,0.21825072
65bfaace4062b6540bf95077,7,0,2024-02-28T16:04:27.725Z,french_809.wav,0,poule,354,24,5,5,Francais,m,1,0.1,-16.18124336,0.34685571
65bfaace4062b6540bf95077,7,0,2024-02-28T16:04:27.725Z,french_809.wav,0,poule,354,24,5,5,Francais,m,2,0.2,-71.88539975,1.98263416
65bfaace4062b6540bf95077,7,0,2024-02-28T16:04:27.725Z,french_809.wav,0,poule,354,24,5,5,Francais,m,3,0.3,-75.84617329,0.64349693
65bfaace4062b6540bf95077,7,0,2024-02-28T16:04:27.725Z,french_809.wav,0,poule,354,24,5,5,Francais,m,4,0.4,-56.68697986,1.61870407
65bfaace4062b6540bf95077,7,0,2024-02-28T16:04:27.725Z,french_809.wav,0,poule,354,24,5,5,Francais,m,5,0.5,17.73104693,0.29134017
65bfaace4062b6540bf95077,7,0,2024-02-28T16:04:27.725Z,french_809.wav,0,poule,354,24,5,5,Francais,m,6,0.6,-2.03944779,0.74693677
65bfaace4062b6540bf95077,7,0,2024-02-28T16:04:27.725Z,french_809.wav,0,poule,354,24,5,5,Francais,m,7,0.7,-23.40421354,1.6892509
65bfaace4062b6540bf95077,7,0,2024-02-28T16:04:27.725Z,french_809.wav,0,poule,354,24,5,5,Francais,m,8,0.8,79.78220222,0.75730555
65bfaace4062b6540bf95077,7,0,2024-02-28T16:04:27.725Z,french_809.wav,0,poule,354,24,5,5,Francais,m,9,0.9,49.19641655,1.52241905
65bfaace4062b6540bf95077,7,0,2024-02-28T16:04:27.725Z,french_809.wav,0,poule,354,24,5,5,Francais,m,10,1.0,6.2438068,0.50964644
65bfaace4062b6540bf95077,7,0,2024-02-28T16:04:27.725Z,french_809.wav,0,poule,354,24,5,5,Francais,m,11,1.1,-8.92121489,1.05106393
65bfaace4062b6540bf95077,7,0,2024-02-28T16:04:27.725Z,french_809.wav,0,poule,354,24,5,5,Francais,m,12,1.14141667,-7.95185914,0.92890258
65bfaace4062b6540bf95077,8,0,2024-02-28T16:04:27.725Z,french_396.wav,0,poule,665,24,5,5,Francais,m,0,0.0,-45.49492926,0.69968975
65bfaace4062b6540bf95077,8,0,2024-02-28T16:04:27.725Z,french_396.wav,0,poule,665,24,5,5,Francais,m,1,0.1,-79.39567585,0.84208503
65bfaace4062b6540bf95077,8,0,2024-02-28T16:04:27.725Z,french_396.wav,0,poule,665,24,5,5,Francais,m,2,0.2,70.30463602,0.36939373
65bfaace4062b6540bf95077,8,0,2024-02-28T16:04:27.725Z,french_396.wav,0,poule,665,24,5,5,Francais,m,3,0.3,41.7348925,0.87235796
65bfaace4062b6540bf95077,8,0,2024-02-28T16:04:27.725Z,french_396.wav,0,poule,665,24,5,5,Francais,m,4,0.4,-16.74018029,1.01475681
65bfaace4062b6540bf95077,8,0,2024-02-28T16:04:27.725Z,french_396.wav,0,poule,665,24,5,5,Francais,m,5,0.5,14.98459267,0.8634885
65bfaace4062b6540bf95077,8,0,2024-02-28T16:04:27.725Z,french_396.wav,0,poule,665,24,5,5,Francais,m,6,0.6,98.37909733,0.42462927
65bfaace4062b6540bf95077,8,0,2024-02-28T16:04:27.725Z,french_396.wav,0,poule,665,24,5,5,Francais,m,7,0.7,-91.48636378,1.02834343
65bfaace4062b6540bf95077,8,0,2024-02-28T16:04:27.725Z,french_396.wav,0,poule,665,24,5,5,Francais,m,8,0.8,45.62246713,1.462662
65bfaace4062b6540bf95077,8,0,2024-02-28T16:04:27.725Z,french_396.wav,0,poule,665,24,5,5,Francais,m,9,0.9,85.58615573,0.07610889
65bfaace4062b6540bf95077,8,0,2024-02-28T16:04:27.725Z,french_396.wav,0,poule,665,24,5,5,Francais,m,10,1.0,-62.37907768,1.01240942
65bfaace4062b6540bf95077,8,0,2024-02-28T16:04:27.725Z,french_396.wav,0,poule,665,24,5,5,Francais,m,11,1.1,38.5434193,1.04813518
65bfaace4062b6540bf95077,8,0,2024-02-28T16:04:27.725Z,french_396.wav,0,poule,665,24,5,5,Francais,m,12,1.14141667,-22.80714646,1.50333112
65bfaace4062b6540bf95077,9,0,2024-02-28T16:04:27.725Z,french_60.wav,0,pull,994,24,5,5,Francais,m,0,0.0,25.7464911,0.06694524
65bfaace4062b6540bf95077,9,0,2024-02-28T16:04:27.725Z,french_60.wav,0,pull,994,24,5,5,Francais,m,1,0.1,87.20203986,0.46077619
65bfaace4062b6540bf95077,9,0,2024-02-28T16:04:27.725Z,french_60.wav,0,pull,994,24,5,5,Francais,m,2,0.2,-50.39394843,0.31765056
65bfaace4062b6540bf95077,9,0,2024-02-28T16:04:27.725Z,french_60.wav,0,pull,994,24,5,5,Francais,m,3,0.3,25.74193782,1.59141486
65bfaace4062b6540bf95077,9,0,2024-02-28T16:04:27.725Z,french_60.wav,0,pull,994,24,5,5,Francais,m,4,0.4,-54.44783211,1.96325213
65bfaace4062b6540bf95077,9,0,2024-02-28T16:04:27.725Z,french_60.wav,0,pull,994,24,5,5,Francais,m,5,0.5,90.0512119,1.28413586
65bfaace4062b6540bf95077,9,0,2024-02-28T16:04:27.725Z,french_60.wav,0,pull,994,24,5,5,Francais,m,6,0.6,5.68380106,0.29715599
65bfaace4062b6540bf95077,9,0,2024-02-28T16:04:27.725Z,french_60.wav,0,pull,994,24,5,5,Francais,m,7,0.7,-25.02380081,0.87811315
65bfaace4062b6540bf95077,9,0,2024-02-28T16:04:27.725Z,french_60.wav,0,pull,994,24,5,5,Francais,m,8,0.8,38.66759697,0.78303972
65bfaace4062b6540bf95077,9,0,2024-02-28T16:04:27.725Z,french_60.wav,0,pull,994,24,5,5,Francais,m,9,0.9,81.62641489,0.28172983
65bfaace4062b6540bf95077,9,0,2024-02-28T16:04:27.725Z,french_60.wav,0,pull,994,24,5,5,Francais,m,10,1.0,-24.74806571,1.81446766
65bfaace4062b6540bf95077,9,0,2024-02-28T16:04:27.725Z,french_60.wav,0,pull,994,24,5,5,Francais,m,11,1.1,-67.37189758,1.67994295
65bfaace4062b6540bf95077,9,0,2024-02-28T16:04:27.725Z,french_60.wav,0,pull,994,24,5,5,Francais,m,12,1.14141667,-53.83275741,1.25768325
65bfaace4062b6540bf95077,10,0,2024-02-28T16:04:27.725Z,french_812.wav,0,pull,897,24,5,5,Francais,m,0,0.0,-42.66002827,0.44619032
65bfaace4062b6540bf95077,10,0,2024-02-28T16:04:27.725Z,french_812.wav,0,pull,897,24,5,5,Francais,m,1,0.1,-63.45257727,1.09752053
65bfaace4062b6540bf95077,10,0,2024-02-28T16:04:27.725Z,french_812.wav,0,pull,897,24,5,5,Francais,m,2,0.2,-17.55899299,1.94483115
65bfaace4062b6540bf95077,10,0,2024-02-28T16:04:27.725Z,french_812.wav,0,pull,897,24,5,5,Francais,m,3,0.3,-6.53827268,1.6322026
65bfaace4062b6540bf95077,10,0,2024-02-28T16:04:27.725Z,french_812.wav,0,pull,897,24,5,5,Francais,m,4,0.4,82.73159926,1.42964573
65bfaace4062b6540bf95077,10,0,2024-02-28T16:04:27.725Z,french_812.wav,0,pull,897,24,5,5,Francais,m,5,0.5,13.20285819,1.82803278
65bfaace4062b6540bf95077,10,0,2024-02-28T16:04:27.725Z,french_812.wav,0,pull,897,24,5,5,Francais,m,6,0.6,-12.96734249,1.23610149
65bfaace4062b6540bf95077,10,0,2024-02-28T16:04:27.725Z,french_812.wav,0,pull,897,24,5,5,Francais,m,7,0.7,-74.04565338,1.25749674
65bfaace4062b6540bf95077,10,0,2024-02-28T16:04:27.725Z,french_812.wav,0,pull,897,24,5,5,Francais,m,8,0.8,43.93001564,1.19337031
65bfaace4062b6540bf95077,10,0,2024-02-28T16:04:27.725Z,french_812.wav,0,pull,897,24,5,5,Francais,m,9,0.9,-5.48619498,0.21250901
65bfaace4062b6540bf95077,10,0,2024-02-28T16:04:27.725Z,french_812.wav,0,pull,897,24,5,5,Francais,m,10,1.0,51.20549239,1.32924457
65bfaace4062b6540bf95077,10,0,2024-02-28T16:04:27.725Z,french_812.wav,0,pull,897,24,5,5,Francais,m,11,1.1,48.53876007,0.52399169
65bfaace4062b6540bf95077,10,0,2024-02-28T16:04:27.725Z,french_812.wav,0,pull,897,24,5,5,Francais,m,12,1.14141667,-70.42678673,0.252725
65bfaace4062b6540bf95077,11,0,2024-02-28T16:04:27.725Z,french_951.wav,0,poule,365,24,5,5,Francais,m,0,0.0,-59.18192022,1.45916036
65bfaace4062b6540bf95077,11,0,2024-02-28T16:04:27.725Z,french_951.wav,0,poule,365,24,5,5,Francais,m,1,0.1,-27.92655099,1.48383107
65bfaace4062b6540bf95077,11,0,2024-02-28T16:04:27.725Z,french_951.wav,0,poule,365,24,5,5,Francais,m,2,0.2,-5.73022688,1.25689949
65bfaace4062b6540bf95077,11,0,2024-02-28T16:04:27.725Z,french_951.wav,0,poule,365,24,5,5,Francais,m,3,0.3,68.45966422,1.56218682
65bfaace4062b6540bf95077,11,0,2024-02-28T16:04:27.725Z,french_951.wav,0,poule,365,24,5,5,Francais,m,4,0.4,-37.23530529,0.00736189
65bfaace4062b6540bf95077,11,0,2024-02-28T16:04:27.725Z,french_951.wav,0,poule,365,24,5,5,Francais,m,5,0.5,-77.25496344,0.83394895
65bfaace4062b6540bf95077,11,0,2024-02-28T16:04:27.725Z,french_951.wav,0,poule,365,24,5,5,Francais,m,6,0.6,54.9841058,0.9452294
65bfaace4062b6540bf95077,11,0,2024-02-28T16:04:27.725Z,french_951.wav,0,poule,365,24,5,5,Francais,m,7,0.7,51.16492363,0.27979743
65bfaace4062b6540bf95077,11,0,2024-02-28T16:04:27.725Z,french_951.wav,0,poule,365,24,5,5,Francais,m,8,0.8,91.66668886,1.94616702
65bfaace4062b6540bf95077,11,0,2024-02-28T16:04:27.725Z,french_951.wav,0,poule,365,24,5,5,Francais,m,9,0.9,-74.79679848,1.12844722
65bfaace4062b6540bf95077,11,0,2024-02-28T16:04:27.725Z,french_951.wav,0,poule,365,24,5,5,Francais,m,10,1.0,-52.80636313,0.91078071
65bfaace4062b6540bf95077,11,0,2024-02-28T16:04:27.725Z,french_951.wav,0,poule,365,24,5,5,Francais,m,11,1.1,-7.64221064,1.05806406
65bfaace4062b6540bf95077,11,0,2024-02-28T16:04:27.725Z,french_951.wav,0,poule,365,24,5,5,Francais,m,12,1.14141667,79.03906119,0.62563609
65bfaace4062b6540bf95077,12,0,2024-02-28T16:04:27.725Z,french_333.wav,0,poule,841,24,5,5,Francais,m,0,0.0,-20.77044182,1.43629895
65bfaace4062b6540bf95077,12,0,2024-02-28T16:04:27.725Z,french_333.wav,0,poule,841,24,5,5,Francais,m,1,0.1,26.03274788,0.14363016
65bfaace4062b6540bf95077,12,0,2024-02-28T16:04:27.725Z,french_333.wav,0,poule,841,24,5,5,Francais,m,2,0.2,44.25680739,0.99533055
65bfaace4062b6540bf95077,12,0,2024-02-28T16:04:27.725Z,french_333.wav,0,poule,841,24,5,5,Francais,m,3,0.3,54.84607734,1.58313255
65bfaace4062b6540bf95077,12,0,2024-02-28T16:04:27.725Z,french_333.wav,0,poule,841,24,5,5,Francais,m,4,0.4,-84.70319837,0.87601018
65bfaace4062b6540bf95077,12,0,2024-02-28T16:04:27.725Z,french_333.wav,0,poule,841,24,5,5,Francais,m,5,0.5,50.88930926,1.3608632
65bfaace4062b6540bf95077,12,0,2024-02-28T16:04:27.725Z,french_333.wav,0,poule,841,24,5,5,Francais,m,6,0.6,91.49561161,1.05674693
65bfaace4062b6540bf95077,12,0,2024-02-28T16:04:27.725Z,french_333.wav,0,poule,841,24,5,5,Francais,m,7,0.7,-79.27192118,0.56286184
65bfaace4062b6540bf95077,12,0,2024-02-28T16:04:27.725Z,french_333.wav,0,poule,841,24,5,5,Francais,m,8,0.8,-16.30652355,1.24047364
65bfaace4062b6540bf95077,12,0,2024-02-28T16:04:27.725Z,french_333.wav,0,poule,841,24,5,5,Francais,m,9,0.9,-46.58669152,0.80209834
65bfaace4062b6540bf95077,12,0,2024-02-28T16:04:27.725Z,french_333.wav,0,poule,841,24,5,5,Francais,m,10,1.0,92.33152656,0.198323
65bfaace4062b6540bf95077,12,0,2024-02-28T16:04:27.725Z,french_333.wav,0,poule,841,24,5,5,Francais,m,11,1.1,53.35128711,1.38035768
65bfaace4062b6540bf95077,12,0,2024-02-28T16:04:27.725Z,french_333.wav,0,poule,841,24,5,5,Francais,m,12,1.14141667,-31.95559671,0.94952553
65bfaace4062b6540bf95077,13,0,2024-02-28T16:04:27.725Z,french_470.wav,0,poule,587,24,5,5,Francais,m,0,0.0,-35.19014481,1.94208233
65bfaace4062b6540bf95077,13,0,2024-02-28T16:04:27.725Z,french_470.wav,0,poule,587,24,5,5,Francais,m,1,0.1,-11.1101007,1.24726807
65bfaace4062b6540bf95077,13,0,2024-02-28T16:04:27.725Z,french_470.wav,0,poule,587,24,5,5,Francais,m,2,0.2,-73.86570158,1.04117415
65bfaace4062b6540bf95077,13,0,2024-02-28T16:04:27.725Z,french_470.wav,0,poule,587,24,5,5,Francais,m,3,0.3,-1.44470238,1.14948121
65bfaace4062b6540bf95077,13,0,2024-02-28T16:04:27.725Z,french_470.wav,0,poule,587,24,5,5,Francais,m,4,0.4,-96.07839084,0.66081228
65bfaace4062b6540bf95077,13,0,2024-02-28T16:04:27.725Z,french_470.wav,0,poule,587,24,5,5,Francais,m,5,0.5,70.99649813,0.84071929
65bfaace4062b6540bf95077,13,0,2024-02-28T16:04:27.725Z,french_470.wav,0,poule,587,24,5,5,Francais,m,6,0.6,55.77361877,1.10459164
65bfaace4062b6540bf95077,13,0,2024-02-28T16:04:27.725Z,french_470.wav,0,poule,587,24,5,5,Francais,m,7,0.7,-22.19728159,0.42902866
65bfaace4062b6540bf95077,13,0,2024-02-28T16:04:27.725Z,french_470.wav,0,poule,587,24,5,5,Francais,m,8,0.8,-72.44437958,1.72163831
65bfaace4062b6540bf95077,13,0,2024-02-28T16:04:27.725Z,french_470.wav,0,poule,587,24,5,5,Francais,m,9,0.9,80.41886886,1.68101907
65bfaace4062b6540bf95077,13,0,2024-02-28T16:04:27.725Z,french_470.wav,0,poule,587,24,5,5,Francais,m,10,1.0,-11.71477961,0.03811178
65bfaace4062b6540bf95077,13,0,2024-02-28T16:04:27.725Z,french_470.wav,0,poule,587,24,5,5,Francais,m,11,1.1,-62.42849441,1.9717108
65bfaace4062b6540bf95077,13,0,2024-02-28T16:04:27.725Z,french_470.wav,0,poule,587,24,5,5,Francais,m,12,1.14141667,98.36646491,0.38277799
65bfaace4062b6540bf95077,14,0,2024-02-28T16:04:27.725Z,french_790.wav,0,poule,497,24,5,5,Francais,m,0,0.0,-57.89390183,1.82865837
65bfaace4062b6540bf95077,14,0,2024-02-28T16:04:27.725Z,french_790.wav,0,poule,497,24,5,5,Francais,m,1,0.1,79.17034047,0.89920795
65bfaace4062b6540bf95077,14,0,2024-02-28T16:04:27.725Z,french_790.wav,0,poule,497,24,5,5,Francais,m,2,0.2,61.93580685,1.70315706
65bfaace4062b6540bf95077,14,0,2024-02-28T16:04:27.725Z,french_790.wav,0,poule,497,24,5,5,Francais,m,3,0.3,73.83766419,0.63562482
65bfaace4062b6540bf95077,14,0,2024-02-28T16:04:27.725Z,french_790.wav,0,poule,497,24,5,5,Francais,m,4,0.4,12.23224582,1.66129943
65bfaace4062b6540bf95077,14,0,2024-02-28T16:04:27.725Z,french_790.wav,0,poule,497,24,5,5,Francais,m,5,0.5,-36.20570809,1.84264673
65bfaace4062b6540bf95077,14,0,2024-02-28T16:04:27.725Z,french_790.wav,0,poule,497,24,5,5,Francais,m,6,0.6,-35.80418352,1.991074
65bfaace4062b6540bf95077,14,0,2024-02-28T16:04:27.725Z,french_790.wav,0,poule,497,24,5,5,Francais,m,7,0.7,69.07593122,1.03555826
65bfaace4062b6540bf95077,14,0,2024-02-28T16:04:27.725Z,french_790.wav,0,poule,497,24,5,5,Francais,m,8,0.8,53.97673234,1.17116983
65bfaace4062b6540bf95077,14,0,2024-02-28T16:04:27.725Z,french_790.wav,0,poule,497,24,5,5,Francais,m,9,0.9,5.33736996,0.91705366
65bfaace4062b6540bf95077,14,0,2024-02-28T16:04:27.725Z,french_790.wav,0,poule,497,24,5,5,Francais,m,10,1.0,-61.7851313,0.69782623
65bfaace4062b6540bf95077,14,0,2024-02-28T16:04:27.725Z,french_790.wav,0,poule,497,24,5,5,Francais,m,11,1.1,-57.04830132,0.3273665
65bfaace4062b6540bf95077,14,0,2024-02-28T16:04:27.725Z,french_790.wav,0,poule,497,24,5,5,Francais,m,12,1.14141667,-40.58679678,1.69019386
65bfaace4062b6540bf95077,15,0,2024-02-28T16:04:27.725Z,french_787.wav,0,poule,417,24,5,5,Francais,m,0,0.0,79.17712948,0.1163321
65bfaace4062b6540bf95077,15,0,2024-02-28T16:04:27.725Z,french_787.wav,0,poule,417,24,5,5,Francais,m,1,0.1,-73.07775463,1.90835001
65bfaace4062b6540bf95077,15,0,2024-02-28T16:04:27.725Z,french_787.wav,0,poule,417,24,5,5,Francais,m,2,0.2,-37.59236331,1.9055926
65bfaace4062b6540bf95077,15,0,2024-02-28T16:04:27.725Z,french_787.wav,0,poule,417,24,5,5,Francais,m,3,0.3,-95.60780002,1.66008027
65bfaace4062b6540bf95077,15,0,2024-02-28T16:04:27.725Z,french_787.wav,0,poule,417,24,5,5,Francais,m,4,0.4,-67.52212669,0.73855665
65bfaace4062b6540bf95077,15,0,2024-02-28T16:04:27.725Z,french_787.wav,0,poule,417,24,5,5,Francais,m,5,0.5,-72.3853784,0.63713084
65bfaace4062b6540bf95077,15,0,2024-02-28T16:04:27.725Z,french_787.wav,0,poule,417,24,5,5,Francais,m,6,0.6,55.41129583,1.4880735
65bfaace4062b6540bf95077,15,0,2024-02-28T16:04:27.725Z,french_787.wav,0,poule,417,24,5,5,Francais,m,7,0.7,-20.28029725,0.64813036
65bfaace4062b6540bf95077,15,0,2024-02-28T16:04:27.725Z,french_787.wav,0,poule,417,24,5,5,Francais,m,8,0.8,-85.08323843,1.12873134
65bfaace4062b6540bf95077,15,0,2024-02-28T16:04:27.725Z,french_787.wav,0,poule,417,24,5,5,Francais,m,9,0.9,93.86210994,1.32091412
65bfaace4062b6540bf95077,15,0,2024-02-28T16:04:27.725Z,french_787.wav,0,poule,417,24,5,5,Francais,m,10,1.0,-64.51549876,0.48515729
65bfaace4062b6540bf95077,15,0,2024-02-28T16:04:27.725Z,french_787.wav,0,poule,417,24,5,5,Francais,m,11,1.1,-56.22239298,0.45260231
65bfaace4062b6540bf95077,15,0,2024-02-28T16:04:27.725Z,french_787.wav,0,poule,417,24,5,5,Francais,m,12,1.14141667,-87.31995502,0.83170694
65bfaace4062b6540bf95077,16,0,2024-02-28T16:04:27.725Z,french_420.wav,0,poule,257,24,5,5,Francais,m,0,0.0,-18.88007076,0.77898817
65bfaace4062b6540bf95077,16,0,2024-02-28T16:04:27.725Z,french_420.wav,0,poule,257,24,5,5,Francais,m,1,0.1,85.38106336,0.94651873
65bfaace4062b6540bf95077,16,0,2024-02-28T16:04:27.725Z,french_420.wav,0,poule,257,24,5,5,Francais,m,2,0.2,93.67996173,0.16609342
65bfaace4062b6540bf95077,16,0,2024-02-28T16:04:27.725Z,french_420.wav,0,poule,257,24,5,5,Francais,m,3,0.3,-59.60168974,1.88772727
65bfaace4062b6540bf95077,16,0,2024-02-28T16:04:27.725Z,french_420.wav,0,poule,257,24,5,5,Francais,m,4,0.4,-63.09071902,0.52202044
65bfaace4062b6540bf95077,16,0,2024-02-28T16:04:27.725Z,french_420.wav,0,poule,257,24,5,5,Francais,m,5,0.5,-3.42049192,0.19259521
65bfaace4062b6540bf95077,16,0,2024-02-28T16:04:27.725Z,french_420.wav,0,poule,257,24,5,5,Francais,m,6,0.6,3.82145816,0.85413524
65bfaace4062b6540bf95077,16,0,2024-02-28T16:04:27.725Z,french_420.wav,0,poule,257,24,5,5,Francais,m,7,0.7,-46.57323204,0.3417564
65bfaace4062b6540bf95077,16,0,2024-02-28T16:04:27.725Z,french_420.wav,0,poule,257,24,5,5,Francais,m,8,0.8,43.35773063,1.89293485
65bfaace4062b6540bf95077,16,0,2024-02-28T16:04:27.725Z,french_420.wav,0,poule,257,24,5,5,Francais,m,9,0.9,-41.3853357,1.49847299
65bfaace4062b6540bf95077,16,0,2024-02-28T16:04:27.725Z,french_420.wav,0,poule,257,24,5,5,Francais,m,10,1.0,-80.49552294,1.43768421
65bfaace4062b6540bf95077,16,0,2024-02-28T16:04:27.725Z,french_420.wav,0,poule,257,24,5,5,Francais,m,11,1.1,11.88219307,1.60937112
65bfaace4062b6540bf95077,16,0,2024-02-28T16:04:27.725Z,french_420.wav,0,poule,257,24,5,5,Francais,m,12,1.14141667,-51.63626854,1.40472667
65bfaace4062b6540bf95077,17,0,2024-02-28T16:04:27.725Z,french_869.wav,0,pull,485,24,5,5,Francais,m,0,0.0,10.06964707,1.17340434
65bfaace4062b6540bf95077,17,0,2024-02-28T16:04:27.725Z,french_869.wav,0,pull,485,24,5,5,Francais,m,1,0.1,72.3514197,1.36922426
65bfaace4062b6540bf95077,17,0,2024-02-28T16:04:27.725Z,french_869.wav,0,pull,485,24,5,5,Francais,m,2,0.2,-78.73472109,0.77161299
65bfaace4062b6540bf95077,17,0,2024-02-28T16:04:27.725Z,french_869.wav,0,pull,485,24,5,5,Francais,m,3,0.3,-40.67674689,1.34525353
65bfaace4062b6540bf95077,17,0,2024-02-28T16:04:27.725Z,french_869.wav,0,pull,485,24,5,5,Francais,m,4,0.4,-17.02344132,0.7584047
65bfaace4062b6540bf95077,17,0,2024-02-28T16:04:27.725Z,french_869.wav,0,pull,485,24,5,5,Francais,m,5,0.5,-95.32428519,0.4736501
65bfaace4062b6540bf95077,17,0,2024-02-28T16:04:27.725Z,french_869.wav,0,pull,485,24,5,5,Francais,m,6,0.6,70.62566531,0.80990329
65bfaace4062b6540bf95077,17,0,2024-02-28T16:04:27.725Z,french_869.wav,0,pull,485,24,5,5,Francais,m,7,0.7,26.98173134,0.73249988
65bfaace4062b6540bf95077,17,0,2024-02-28T16:04:27.725Z,french_869.wav,0,pull,485,24,5,5,Francais,m,8,0.8,-17.49912211,0.54315522
65bfaace4062b6540bf95077,17,0,2024-02-28T16:04:27.725Z,french_869.wav,0,pull,485,24,5,5,Francais,m,9,0.9,-24.96981158,0.1746071
65bfaace4062b6540bf95077,17,0,2024-02-28T16:04:27.725Z,french_869.wav,0,pull,485,24,5,5,Francais,m,10,1.0,73.4310681,0.90375101
65bfaace4062b6540bf95077,17,0,2024-02-28T16:04:27.725Z,french_869.wav,0,pull,485,24,5,5,Francais,m,11,1.1,-31.18993398,1.67173749
65bfaace4062b6540bf95077,17,0,2024-02-28T16:04:27.725Z,french_869.wav,0,pull,485,24,5,5,Francais,m,12,1.14141667,11.94019487,0.91185421
65bfaace4062b6540bf95077,18,0,2024-02-28T16:04:27.725Z,french_533.wav,0,poule,861,24,5,5,Francais,m,0,0.0,-12.37696907,0.2803327
65bfaace4062b6540bf95077,18,0,2024-02-28T16:04:27.725Z,french_533.wav,0,poule,861,24,5,5,Francais,m,1,0.1,-74.33992567,1.88376036
65bfaace4062b6540bf95077,18,0,2024-02-28T16:04:27.725Z,french_533.wav,0,poule,861,24,5,5,Francais,m,2,0.2,25.53493321,0.91026639
65bfaace4062b6540bf95077,18,0,2024-02-28T16:04:27.725Z,french_533.wav,0,poule,861,24,5,5,Francais,m,3,0.3,83.26189229,1.17113821
65bfaace4062b6540bf95077,18,0,2024-02-28T16:04:27.725Z,french_533.wav,0,poule,861,24,5,5,Francais,m,4,0.4,-45.64831235,1.71821817
65bfaace4062b6540bf95077,18,0,2024-02-28T16:04:27.725Z,french_533.wav,0,poule,861,24,5,5,Francais,m,5,0.5,-99.77349357,0.17657146
65bfaace4062b6540bf95077,18,0,2024-02-28T16:04:27.725Z,french_533.wav,0,poule,861,24,5,5,Francais,m,6,0.6,-74.31887281,1.49030567
65bfaace4062b6540bf95077,18,0,2024-02-28T16:04:27.725Z,french_533.wav,0,poule,861,24,5,5,Francais,m,7,0.7,75.20945209,1.8602258
65bfaace4062b6540bf95077,18,0,2024-02-28T16:04:27.725Z,french_533.wav,0,poule,861,24,5,5,Francais,m,8,0.8,-51.81750424,0.64574509
65bfaace4062b6540bf95077,18,0,2024-02-28T16:04:27.725Z,french_533.wav,0,poule,861,24,5,5,Francais,m,9,0.9,18.32650768,0.88825981
65bfaace4062b6540bf95077,18,0,2024-02-28T16:04:27.725Z,french_533.wav,0,poule,861,24,5,5,Francais,m,10,1.0,73.15349763,0.88956097
65bfaace4062b6540bf95077,18,0,2024-02-28T16:04:27.725Z,french_533.wav,0,poule,861,24,5,5,Francais,m,11,1.1,-1.80688698,1.29590222
65bfaace4062b6540bf95077,18,0,2024-02-28T16:04:27.725Z,french_533.wav,0,poule,861,24,5,5,Francais,m,12,1.14141667,90.12383701,0.60373453
65bfaace4062b6540bf95077,19,0,2024-02-28T16:04:27.725Z,french_312.wav,0,poule,631,24,5,5,Francais,m,0,0.0,69.30449707,0.68235651
65bfaace4062b6540bf95077,19,0,2024-02-28T16:04:27.725Z,french_312.wav,0,poule,631,24,5,5,Francais,m,1,0.1,28.8122594,0.49968612
65bfaace4062b6540bf95077,19,0,2024-02-28T16:04:27.725Z,french_312.wav,0,poule,631,24,5,5,Francais,m,2,0.2,79.52564985,0.10826386
65bfaace4062b6540bf95077,19,0,2024-02-28T16:04:27.725Z,french_312.wav,0,poule,631,24,5,5,Francais,m,3,0.3,23.03240233,1.87669154
65bfaace4062b6540bf95077,19,0,2024-02-28T16:04:27.725Z,french_312.wav,0,poule,631,24,5,5,Francais,m,4,0.4,-48.5690178,1.01808413
65bfaace4062b6540bf95077,19,0,2024-02-28T16:04:27.725Z,french_312.wav,0,poule,631,24,5,5,Francais,m,5,0.5,61.96316276,1.08622218
65bfaace4062b6540bf95077,19,0,2024-02-28T16:04:27.725Z,french_312.wav,0,poule,631,24,5,5,Francais,m,6,0.6,-40.84069724,0.31784093
65bfaace4062b6540bf95077,19,0,2024-02-28T16:04:27.725Z,french_312.wav,0,poule,631,24,5,5,Francais,m,7,0.7,-21.82800046,0.771822
65bfaace4062b6540bf95077,19,0,2024-02-28T16:04:27.725Z,french_312.wav,0,poule,631,24,5,5,Francais,m,8,0.8,-77.10722565,0.59210928
65bfaace4062b6540bf95077,19,0,2024-02-28T16:04:27.725Z,french_312.wav,0,poule,631,24,5,5,Francais,m,9,0.9,18.67755044,0.28258662
65bfaace4062b6540bf95077,19,0,2024-02-28T16:04:27.725Z,french_312.wav,0,poule,631,24,5,5,Francais,m,10,1.0,0.10322115,0.93032185
65bfaace4062b6540bf95077,19,0,2024-02-28T16:04:27.725Z,french_312.wav,0,poule,631,24,5,5,Francais,m,11,1.1,38.28305127,0.32298369
65bfaace4062b6540bf95077,19,0,2024-02-28T16:04:27.725Z,french_312.wav,0,poule,631,24,5,5,Francais,m,12,1.14141667,17.56298431,1.36564277
65bfaace4062b6540bf95077,20,0,2024-02-28T16:04:27.725Z,french_731.wav,0,poule,1289,24,5,5,Francais,m,0,0.0,-58.69377393,0.50859349
65bfaace4062b6540bf95077,20,0,2024-02-28T16:04:27.725Z,french_731.wav,0,poule,1289,24,5,5,Francais,m,1,0.1,32.88622417,1.73752804
65bfaace4062b6540bf95077,20,0,2024-02-28T16:04:27.725Z,french_731.wav,0,poule,1289,24,5,5,Francais,m,2,0.2,7.24894178,1.36581258
65bfaace4062b6540bf95077,20,0,2024-02-28T16:04:27.725Z,french_731.wav,0,poule,1289,24,5,5,Francais,m,3,0.3,94.91420779,1.00409723
65bfaace4062b6540bf95077,20,0,2024-02-28T16:04:27.725Z,french_731.wav,0,poule,1289,24,5,5,Francais,m,4,0.4,-71.75206553,0.77805611
65bfaace4062b6540bf95077,20,0,2024-02-28T16:04:27.725Z,french_731.wav,0,poule,1289,24,5,5,Francais,m,5,0.5,-65.23871465,1.77016953
65bfaace4062b6540bf95077,20,0,2024-02-28T16:04:27.725Z,french_731.wav,0,poule,1289,24,5,5,Francais,m,6,0.6,-4.42462865,1.81727941
65bfaace4062b6540bf95077,20,0,2024-02-28T16:04:27.725Z,french_731.wav,0,poule,1289,24,5,5,Francais,m,7,0.7,-75.60919522,0.9776794
65bfaace4062b6540bf95077,20,0,2024-02-28T16:04:27.725Z,french_731.wav,0,poule,1289,24,5,5,Francais,m,8,0.8,96.57391487,1.84916321
65bfaace4062b6540bf95077,20,0,2024-02-28T16:04:27.725Z,french_731.wav,0,poule,1289,24,5,5,Francais,m,9,0.9,88.67857867,0.71669736
65bfaace4062b6540bf95077,20,0,2024-02-28T16:04:27.725Z,french_731.wav,0,poule,1289,24,5,5,Francais,m,10,1.0,-45.98442242,1.96322979
65bfaace4062b6540bf95077,20,0,2024-02-28T16:04:27.725Z,french_731.wav,0,poule,1289,24,5,5,Francais,m,11,1.1,-0.58254583,1.42519618
65bfaace4062b6540bf95077,20,0,2024-02-28T16:04:27.725Z,french_731.wav,0,poule,1289,24,5,5,Francais,m,12,1.14141667,58.15677769,1.35630124
65bfaace4062b6540bf95077,21,0,2024-02-28T16:04:27.725Z,french_748.wav,0,poule,499,24,5,5,Francais,m,0,0.0,21.06287569,1.43701335
65bfaace4062b6540bf95077,21,0,2024-02-28T16:04:27.725Z,french_748.wav,0,poule,499,24,5,5,Francais,m,1,0.1,15.36105543,1.59777978
65bfaace4062b6540bf95077,21,0,2024-02-28T16:04:27.725Z,french_748.wav,0,poule,499,24,5,5,Francais,m,2,0.2,-30.59586006,0.73016849
65bfaace4062b6540bf95077,21,0,2024-02-28T16:04:27.725Z,french_748.wav,0,poule,499,24,5,5,Francais,m,3,0.3,79.94920558,0.61979898
65bfaace4062b6540bf95077,21,0,2024-02-28T16:04:27.725Z,french_748.wav,0,poule,499,24,5,5,Francais,m,4,0.4,-61.07313039,0.89579179
65bfaace4062b6540bf95077,21,0,2024-02-28T16:04:27.725Z,french_748.wav,0,poule,499,24,5,5,Francais,m,5,0.5,-45.04655322,0.56474332
65bfaace4062b6540bf95077,21,0,2024-02-28T16:04:27.725Z,french_748.wav,0,poule,499,24,5,5,Francais,m,6,0.6,-50.58543561,1.20782806
65bfaace4062b6540bf95077,21,0,2024-02-28T16:04:27.725Z,french_748.wav,0,poule,499,24,5,5,Francais,m,7,0.7,1.01417539,0.1338859
65bfaace4062b6540bf95077,21,0,2024-02-28T16:04:27.725Z,french_748.wav,0,poule,499,24,5,5,Francais,m,8,0.8,-5.64267087,0.84409368
65bfaace4062b6540bf95077,21,0,2024-02-28T16:04:27.725Z,french_748.wav,0,poule,499,24,5,5,Francais,m,9,0.9,-45.78723347,0.94921143
65bfaace4062b6540bf95077,21,0,2024-02-28T16:04:27.725Z,french_748.wav,0,poule,499,24,5,5,Francais,m,10,1.0,-89.41556612,1.42685707
65bfaace4062b6540bf95077,21,0,2024-02-28T16:04:27.725Z,french_748.wav,0,poule,499,24,5,5,Francais,m,11,1.1,-62.55272039,0.52153694
65bfaace4062b6540bf95077,21,0,2024-02-28T16:04:27.725Z,french_748.wav,0,poule,499,24,5,5,Francais,m,12,1.14141667,-65.25853362,0.03253725
65bfaace4062b6540bf95077,22,0,2024-02-28T16:04:27.725Z,french_181.wav,0,poule,632,24,5,5,Francais,m,0,0.0,-95.95313982,0.44165639
65bfaace4062b6540bf95077,22,0,2024-02-28T16:04:27.725Z,french_181.wav,0,poule,632,24,5,5,Francais,m,1,0.1,91.63677354,1.91213413
65bfaace4062b6540bf95077,22,0,2024-02-28T16:04:27.725Z,french_181.wav,0,poule,632,24,5,5,Francais,m,2,0.2,-91.79980108,1.20479938
65bfaace4062b6540bf95077,22,0,2024-02-28T16:04:27.725Z,french_181.wav,0,poule,632,24,5,5,Francais,m,3,0.3,95.40210499,1.03854449
65bfaace4062b6540bf95077,22,0,2024-02-28T16:04:27.725Z,french_181.wav,0,poule,632,24,5,5,Francais,m,4,0.4,68.17989767,0.34466606
65bfaace4062b6540bf95077,22,0,2024-02-28T16:04:27.725Z,french_181.wav,0,poule,632,24,5,5,Francais,m,5,0.5,91.86803384,1.08947615
65bfaace4062b6540bf95077,22,0,2024-02-28T16:04:27.725Z,french_181.wav,0,poule,632,24,5,5,Francais,m,6,0.6,20.20115402,0.89950013
65bfaace4062b6540bf95077,22,0,2024-02-28T16:04:27.725Z,french_181.wav,0,poule,632,24,5,5,Francais,m,7,0.7,-36.24540979,1.58660506
65bfaace4062b6540bf95077,22,0,2024-02-28T16:04:27.725Z,french_181.wav,0,poule,632,24,5,5,Francais,m,8,0.8,20.77489363,1.10035668
65bfaace4062b6540bf95077,22,0,2024-02-28T16:04:27.725Z,french_181.wav,0,poule,632,24,5,5,Francais,m,9,0.9,-36.30620857,1.78772501
65bfaace4062b6540bf95077,22,0,2024-02-28T16:04:27.725Z,french_181.wav,0,poule,632,24,5,5,Francais,m,10,1.0,-52.43059698,0.45092467
65bfaace4062b6540bf95077,22,0,2024-02-28T16:04:27.725Z,french_181.wav,0,poule,632,24,5,5,Francais,m,11,1.1,-66.44451369,1.08205846
65bfaace4062b6540bf95077,22,0,2024-02-28T16:04:27.725Z,french_181.wav,0,poule,632,24,5,5,Francais,m,12,1.14141667,-36.9073082,1.12829283
65bfaace4062b6540bf95077,23,0,2024-02-28T16:04:27.725Z,french_528.wav,0,poule,395,24,5,5,Francais,m,0,0.0,-45.24651192,0.08021547
65bfaace4062b6540bf95077,23,0,2024-02-28T16:04:27.725Z,french_528.wav,0,poule,395,24,5,5,Francais,m,1,0.1,-22.79683557,0.12970445
65bfaace4062b6540bf95077,23,0,2024-02-28T16:04:27.725Z,french_528.wav,0,poule,395,24,5,5,Francais,m,2,0.2,25.30211498,1.13419208
65bfaace4062b6540bf95077,23,0,2024-02-28T16:04:27.725Z,french_528.wav,0,poule,395,24,5,5,Francais,m,3,0.3,-13.71578583,1.1130053
65bfaace4062b6540bf95077,23,0,2024-02-28T16:04:27.725Z,french_528.wav,0,poule,395,24,5,5,Francais,m,4,0.4,-2.25404313,1.24506484
65bfaace4062b6540bf95077,23,0,2024-02-28T16:04:27.725Z,french_528.wav,0,poule,395,24,5,5,Francais,m,5,0.5,83.84073609,1.8093004
65bfaace4062b6540bf95077,23,0,2024-02-28T16:04:27.725Z,french_528.wav,0,poule,395,24,5,5,Francais,m,6,0.6,-69.16068434,1.70569865
65bfaace4062b6540bf95077,23,0,2024-02-28T16:04:27.725Z,french_528.wav,0,poule,395,24,5,5,Francais,m,7,0.7,-28.27736662,0.10762221
65bfaace4062b6540bf95077,23,0,2024-02-28T16:04:27.725Z,french_528.wav,0,poule,395,24,5,5,Francais,m,8,0.8,-11.17926251,1.58260006
65bfaace4062b6540bf95077,23,0,2024-02-28T16:04:27.725Z,french_528.wav,0,poule,395,24,5,5,Francais,m,9,0.9,-41.84531138,0.5079295
65bfaace4062b6540bf95077,23,0,2024-02-28T16:04:27.725Z,french_528.wav,0,poule,395,24,5,5,Francais,m,10,1.0,78.74165038,0.6918907
65bfaace4062b6540bf95077,23,0,2024-02-28T16:04:27.725Z,french_528.wav,0,poule,395,24,5,5,Francais,m,11,1.1,-14.12084883,1.44056131
65bfaace4062b6540bf95077,23,0,2024-02-28T16:04:27.725Z,french_528.wav,0,poule,395,24,5,5,Francais,m,12,1.14141667,8.7411314,1.29096722
65bfaace4062b6540bf95077,24,0,2024-02-28T16:04:27.725Z,french_435.wav,0,poule,1641,24,5,5,Francais,m,0,0.0,81.5425699,0.93712121
65bfaace4062b6540bf95077,24,0,2024-02-28T16:04:27.725Z,french_435.wav,0,poule,1641,24,5,5,Francais,m,1,0.1,-48.84484952,1.49338777
65bfaace4062b6540bf95077,24,0,2024-02-28T16:04:27.725Z,french_435.wav,0,poule,1641,24,5,5,Francais,m,2,0.2,39.71151192,0.34387239
65bfaace4062b6540bf95077,24,0,2024-02-28T16:04:27.725Z,french_435.wav,0,poule,1641,24,5,5,Francais,m,3,0.3,29.28112411,1.76749626
65bfaace4062b6540bf95077,24,0,2024-02-28T16:04:27.725Z,french_435.wav,0,poule,1641,24,5,5,Francais,m,4,0.4,-65.26037108,0.97806384
65bfaace4062b6540bf95077,24,0,2024-02-28T16:04:27.725Z,french_435.wav,0,poule,1641,24,5,5,Francais,m,5,0.5,70.68569274,1.32932034
65bfaace4062b6540bf95077,24,0,2024-02-28T16:04:27.725Z,french_435.wav,0,poule,1641,24,5,5,Francais,m,6,0.6,31.94362707,1.36671189
65bfaace4062b6540bf95077,24,0,2024-02-28T16:04:27.725Z,french_435.wav,0,poule,1641,24,5,5,Francais,m,7,0.7,17.61291347,0.96349
65bfaace4062b6540bf95077,24,0,2024-02-28T16:04:27.725Z,french_435.wav,0,poule,1641,24,5,5,Francais,m,8,0.8,-39.1197626,0.60128096
65bfaace4062b6540bf95077,24,0,2024-02-28T16:04:27.725Z,french_435.wav,0,poule,1641,24,5,5,Francais,m,9,0.9,-5.35175447,1.42042138
65bfaace4062b6540bf95077,24,0,2024-02-28T16:04:27.725Z,french_435.wav,0,poule,1641,24,5,5,Francais,m,10,1.0,24.45778649,1.76902262
65bfaace4062b6540bf95077,24,0,2024-02-28T16:04:27.725Z,french_435.wav,0,poule,1641,24,5,5,Francais,m,11,1.1,-46.14976355,1.00188526
65bfaace4062b6540bf95077,24,0,2024-02-28T16:04:27.725Z,french_435.wav,0,poule,1641,24,5,5,Francais,m,12,1.14141667,-26.15718061,0.52918618
65bfaace4062b6540bf95077,25,0,2024-02-28T16:04:27.725Z,french_981.wav,0,poule,571,24,5,5,Francais,m,0,0.0,-38.08669269,1.67776231
65bfaace4062b6540bf95077,25,0,2024-02-28T16:04:27.725Z,french_981.wav,0,poule,571,24,5,5,Francais,m,1,0.1,-73.93088907,1.4500739
65bfaace4062b6540bf95077,25,0,2024-02-28T16:04:27.725Z,french_981.wav,0,poule,571,24,5,5,Francais,m,2,0.2,-88.32473941,1.60115886
65bfaace4062b6540bf95077,25,0,2024-02-28T16:04:27.725Z,french_981.wav,0,poule,571,24,5,5,Francais,m,3,0.3,60.7364341,1.60462547
65bfaace4062b6540bf95077,25,0,2024-02-28T16:04:27.725Z,french_981.wav,0,poule,571,24,5,5,Francais,m,4,0.4,-16.1524086,0.69020142
65bfaace4062b6540bf95077,25,0,2024-02-28T16:04:27.725Z,french_981.wav,0,poule,571,24,5,5,Francais,m,5,0.5,-93.43340089,0.54737899
65bfaace4062b6540bf95077,25,0,2024-02-28T16:04:27.725Z,french_981.wav,0,poule,571,24,5,5,Francais,m,6,0.6,-45.31120126,0.19731947
65bfaace4062b6540bf95077,25,0,2024-02-28T16:04:27.725Z,french_981.wav,0,poule,571,24,5,5,Francais,m,7,0.7,-79.13047949,1.35276023
65bfaace4062b6540bf95077,25,0,2024-02-28T16:04:27.725Z,french_981.wav,0,poule,571,24,5,5,Francais,m,8,0.8,72.11880398,0.09347094
65bfaace4062b6540bf95077,25,0,2024-02-28T16:04:27.725Z,french_981.wav,0,poule,571,24,5,5,Francais,m,9,0.9,-24.42160512,0.88261019
65bfaace4062b6540bf95077,25,0,2024-02-28T16:04:27.725Z,french_981.wav,0,poule,571,24,5,5,Francais,m,10,1.0,-37.42455043,0.20373219
65bfaace4062b6540bf95077,25,0,2024-02-28T16:04:27.725Z,french_981.wav,0,poule,571,24,5,5,Francais,m,11,1.1,1.64695246,1.67203558
65bfaace4062b6540bf95077,25,0,2024-02-28T16:04:27.725Z,french_981.wav,0,poule,571,24,5,5,Francais,m,12,1.14141667,92.37141996,1.72330196
65bfaace4062b6540bf95077,26,0,2024-02-28T16:04:27.725Z,french_811.wav,0,poule,405,24,5,5,Francais,m,0,0.0,81.29896276,1.84653902
65bfaace4062b6540bf95077,26,0,2024-02-28T16:04:27.725Z,french_811.wav,0,poule,405,24,5,5,Francais,m,1,0.1,10.36603333,0.13478562
65bfaace4062b6540bf95077,26,0,2024-02-28T16:04:27.725Z,french_811.wav,0,poule,405,24,5,5,Francais,m,2,0.2,8.35324856,0.94963174
65bfaace4062b6540bf95077,26,0,2024-02-28T16:04:27.725Z,french_811.wav,0,poule,405,24,5,5,Francais,m,3,0.3,-66.51351758,1.29333262
65bfaace4062b6540bf95077,26,0,2024-02-28T16:04:27.725Z,french_811.wav,0,poule,405,24,5,5,Francais,m,4,0.4,-19.45806563,1.48753389
65bfaace4062b6540bf95077,26,0,2024-02-28T16:04:27.725Z,french_811.wav,0,poule,405,24,5,5,Francais,m,5,0.5,-58.39785432,0.87507315
65bfaace4062b6540bf95077,26,0,2024-02-28T16:04:27.725Z,french_811.wav,0,poule,405,24,5,5,Francais,m,6,0.6,46.12503886,0.81797836
65bfaace4062b6540bf95077,26,0,2024-02-28T16:04:27.725Z,french_811.wav,0,poule,405,24,5,5,Francais,m,7,0.7,62.56502679,0.19667337
65bfaace4062b6540bf95077,26,0,2024-02-28T16:04:27.725Z,french_811.wav,0,poule,405,24,5,5,Francais,m,8,0.8,-52.99701324,1.45215497
65bfaace4062b6540bf95077,26,0,2024-02-28T16:04:27.725Z,french_811.wav,0,poule,405,24,5,5,Francais,m,9,0.9,-33.6735275,0.65007173
65bfaace4062b6540bf95077,26,0,2024-02-28T16:04:27.725Z,french_811.wav,0,poule,405,24,5,5,Francais,m,10,1.0,-78.87268894,0.20219426
65bfaace4062b6540bf95077,26,0,2024-02-28T16:04:27.725Z,french_811.wav,0,poule,405,24,5,5,Francais,m,11,1.1,47.87204517,1.36792015
65bfaace4062b6540bf95077,26,0,2024-02-28T16:04:27.725Z,french_811.wav,0,poule,405,24,5,5,Francais,m,12,1.14141667,74.99011566,0.90297384
65bfaace4062b6540bf95077,27,0,2024-02-28T16:04:27.725Z,french_38.wav,0,poule,542,24,5,5,Francais,m,0,0.0,40.69692625,0.35088988
65bfaace4062b6540bf95077,27,0,2024-02-28T16:04:27.725Z,french_38.wav,0,poule,542,24,5,5,Francais,m,1,0.1,83.11806361,0.52815391
65bfaace4062b6540bf95077,27,0,2024-02-28T16:04:27.725Z,french_38.wav,0,poule,542,24,5,5,Francais,m,2,0.2,18.12214919,0.42903125
65bfaace4062b6540bf95077,27,0,2024-02-28T16:04:27.725Z,french_38.wav,0,poule,542,24,5,5,Francais,m,3,0.3,-19.25038889,1.56660171
65bfaace4062b6540bf95077,27,0,2024-02-28T16:04:27.725Z,french_38.wav,0,poule,542,24,5,5,Francais,m,4,0.4,76.29170631,1.50314168
65bfaace4062b6540bf95077,27,0,2024-02-28T16:04:27.725Z,french_38.wav,0,poule,542,24,5,5,Francais,m,5,0.5,-93.04323891,0.64027928
65bfaace4062b6540bf95077,27,0,2024-02-28T16:04:27.725Z,french_38.wav,0,poule,542,24,5,5,Francais,m,6,0.6,29.67195094,1.95048915
65bfaace4062b6540bf95077,27,0,2024-02-28T16:04:27.725Z,french_38.wav,0,poule,542,24,5,5,Francais,m,7,0.7,-14.70137235,1.01169212
65bfaace4062b6540bf95077,27,0,2024-02-28T16:04:27.725Z,french_38.wav,0,poule,542,24,5,5,Francais,m,8,0.8,85.48410819,0.30617126
65bfaace4062b6540bf95077,27,0,2024-02-28T16:04:27.725Z,french_38.wav,0,poule,542,24,5,5,Francais,m,9,0.9,68.26582685,1.37718683
65bfaace4062b6540bf95077,27,0,2024-02-28T16:04:27.725Z,french_38.wav,0,poule,542,24,5,5,Francais,m,10,1.0,-29.21602996,1.41030957
65bfaace4062b6540bf95077,27,0,2024-02-28T16:04:27.725Z,french_38.wav,0,poule,542,24,5,5,Francais,m,11,1.1,-39.50968765,1.24571364
65bfaace4062b6540bf95077,27,0,2024-02-28T16:04:27.725Z,french_38.wav,0,poule,542,24,5,5,Francais,m,12,1.14141667,48.64216134,1.9075345
65bfaace4062b6540bf95077,28,0,2024-02-28T16:04:27.725Z,french_401.wav,0,poule,3909,24,5,5,Francais,m,0,0.0,-7.60998306,0.15669588
65bfaace4062b6540bf95077,28,0,2024-02-28T16:04:27.725Z,french_401.wav,0,poule,3909,24,5,5,Francais,m,1,0.1,49.24268399,1.26966849
65bfaace4062b6540bf95077,28,0,2024-02-28T16:04:27.725Z,french_401.wav,0,poule,3909,24,5,5,Francais,m,2,0.2,-14.79637539,1.70141129
65bfaace4062b6540bf95077,28,0,2024-02-28T16:04:27.725Z,french_401.wav,0,poule,3909,24,5,5,Francais,m,3,0.3,72.88593464,0.39327529
65bfaace4062b6540bf95077,28,0,2024-02-28T16:04:27.725Z,french_401.wav,0,poule,3909,24,5,5,Francais,m,4,0.4,-98.49561517,1.22367072
65bfaace4062b6540bf95077,28,0,2024-02-28T16:04:27.725Z,french_401.wav,0,poule,3909,24,5,5,Francais,m,5,0.5,-60.8939001,1.1170169
65bfaace4062b6540bf95077,28,0,2024-02-28T16:04:27.725Z,french_401.wav,0,poule,3909,24,5,5,Francais,m,6,0.6,32.63233263,1.5139571
65bfaace4062b6540bf95077,28,0,2024-02-28T16:04:27.725Z,french_401.wav,0,poule,3909,24,5,5,Francais,m,7,0.7,-55.97134542,1.3547448
65bfaace4062b6540bf95077,28,0,2024-02-28T16:04:27.725Z,french_401.wav,0,poule,3909,24,5,5,Francais,m,8,0.8,39.70722097,0.57513348
65bfaace4062b6540bf95077,28,0,2024-02-28T16:04:27.725Z,french_401.wav,0,poule,3909,24,5,5,Francais,m,9,0.9,68.29525005,1.18430789
65bfaace4062b6540bf95077,28,0,2024-02-28T16:04:27.725Z,french_401.wav,0,poule,3909,24,5,5,Francais,m,10,1.0,56.75484748,0.55199782
65bfaace4062b6540bf95077,28,0,2024-02-28T16:04:27.725Z,french_401.wav,0,poule,3909,24,5,5,Francais,m,11,1.1,-66.7261144,0.76232347
65bfaace4062b6540bf95077,28,0,2024-02-28T16:04:27.725Z,french_401.wav,0,poule,3909,24,5,5,Francais,m,12,1.14141667,62.31424057,0.18818323
65bfaace4062b6540bf95077,29,0,2024-02-28T16:04:27.725Z,french_400.wav,0,pull,1335,24,5,5,Francais,m,0,0.0,-88.7641604,0.39961666
65bfaace4062b6540bf95077,29,0,2024-02-28T16:04:27.725Z,french_400.wav,0,pull,1335,24,5,5,Francais,m,1,0.1,38.97629482,1.26870127
65bfaace4062b6540bf95077,29,0,2024-02-28T16:04:27.725Z,french_400.wav,0,pull,1335,24,5,5,Francais,m,2,0.2,12.50030117,0.32037944
65bfaace4062b6540bf95077,29,0,2024-02-28T16:04:27.725Z,french_400.wav,0,pull,1335,24,5,5,Francais,m,3,0.3,56.00968509,0.09730503
65bfaace4062b6540bf95077,29,0,2024-02-28T16:04:27.725Z,french_400.wav,0,pull,1335,24,5,5,Francais,m,4,0.4,-31.24455859,0.78902453
65bfaace4062b6540bf95077,29,0,2024-02-28T16:04:27.725Z,french_400.wav,0,pull,1335,24,5,5,Francais,m,5,0.5,-72.55550381,0.78590924
65bfaace4062b6540bf95077,29,0,2024-02-28T16:04:27.725Z,french_400.wav,0,pull,1335,24,5,5,Francais,m,6,0.6,35.98414257,0.44916275
65bfaace4062b6540bf95077,29,0,2024-02-28T16:04:27.725Z,french_400.wav,0,pull,1335,24,5,5,Francais,m,7,0.7,72.57136852,0.40242325
65bfaace4062b6540bf95077,29,0,2024-02-28T16:04:27.725Z,french_400.wav,0,pull,1335,24,5,5,Francais,m,8,0.8,-11.32934593,0.33933548
65bfaace4062b6540bf95077,29,0,2024-02-28T16:04:27.725Z,french_400.wav,0,pull,1335,24,5,5,Francais,m,9,0.9,-46.40511645,0.56145484
65bfaace4062b6540bf95077,29,0,2024-02-28T16:04:27.725Z,french_400.wav,0,pull,1335,24,5,5,Francais,m,10,1.0,-68.71252184,0.26747814
65bfaace4062b6540bf95077,29,0,2024-02-28T16:04:27.725Z,french_400.wav,0,pull,1335,24,5,5,Francais,m,11,1.1,75.69788429,0.93231975
65bfaace4062b6540bf95077,29,0,2024-02-28T16:04:27.725Z,french_400.wav,0,pull,1335,24,5,5,Francais,m,12,1.14141667,88.08833091,1.15525068
65bfaace4062b6540bf95077,30,0,2024-02-28T16:04:27.725Z,french_891.wav,0,pull,1537,24,5,5,Francais,m,0,0.0,-99.04712605,1.87208337
65bfaace4062b6540bf95077,30,0,2024-02-28T16:04:27.725Z,french_891.wav,0,pull,1537,24,5,5,Francais,m,1,0.1,17.3799724,1.3828509
65bfaace4062b6540bf95077,30,0,2024-02-28T16:04:27.725Z,french_891.wav,0,pull,1537,24,5,5,Francais,m,2,0.2,-1.30355006,1.47231184
65bfaace4062b6540bf95077,30,0,2024-02-28T16:04:27.725Z,french_891.wav,0,pull,1537,24,5,5,Francais,m,3,0.3,11.66108417,1.45618748
65bfaace4062b6540bf95077,30,0,2024-02-28T16:04:27.725Z,french_891.wav,0,pull,1537,24,5,5,Francais,m,4,0.4,6.35761676,1.81540908
65bfaace4062b6540bf95077,30,0,2024-02-28T16:04:27.725Z,french_891.wav,0,pull,1537,24,5,5,Francais,m,5,0.5,-71.86971473,0.63041518
65bfaace4062b6540bf95077,30,0,2024-02-28T16:04:27.725Z,french_891.wav,0,pull,1537,24,5,5,Francais,m,6,0.6,20.94588527,0.92124801
65bfaace4062b6540bf95077,30,0,2024-02-28T16:04:27.725Z,french_891.wav,0,pull,1537,24,5,5,Francais,m,7,0.7,-13.59137079,0.65821591
65bfaace4062b6540bf95077,30,0,2024-02-28T16:04:27.725Z,french_891.wav,0,pull,1537,24,5,5,Francais,m,8,0.8,62.37473981,0.6468689
65bfaace4062b6540bf95077,30,0,2024-02-28T16:04:27.725Z,french_891.wav,0,pull,1537,24,5,5,Francais,m,9,0.9,64.47380957,0.86634815
65bfaace4062b6540bf95077,30,0,2024-02-28T16:04:27.725Z,french_891.wav,0,pull,1537,24,5,5,Francais,m,10,1.0,-7.95126825,0.44006572
65bfaace4062b6540bf95077,30,0,2024-02-28T16:04:27.725Z,french_891.wav,0,pull,1537,24,5,5,Francais,m,11,1.1,-34.88253316,1.52894565
65bfaace4062b6540bf95077,30,0,2024-02-28T16:04:27.725Z,french_891.wav,0,pull,1537,24,5,5,Francais,m,12,1.14141667,95.31191198,0.84584339
65bfaace4062b6540bf95077,31,0,2024-02-28T16:04:27.725Z,french_362.wav,0,poule,487,24,5,5,Francais,m,0,0.0,41.03273498,1.17434259
65bfaace4062b6540bf95077,31,0,2024-02-28T16:04:27.725Z,french_362.wav,0,poule,487,24,5,5,Francais,m,1,0.1,9.58147449,1.0161357
65bfaace4062b6540bf95077,31,0,2024-02-28T16:04:27.725Z,french_362.wav,0,poule,487,24,5,5,Francais,m,2,0.2,-32.18625516,1.58908251
65bfaace4062b6540bf95077,31,0,2024-02-28T16:04:27.725Z,french_362.wav,0,poule,487,24,5,5,Francais,m,3,0.3,28.50669793,0.746627
65bfaace4062b6540bf95077,31,0,2024-02-28T16:04:27.725Z,french_362.wav,0,poule,487,24,5,5,Francais,m,4,0.4,-88.53670297,0.02412489
65bfaace4062b6540bf95077,31,0,2024-02-28T16:04:27.725Z,french_362.wav,0,poule,487,24,5,5,Francais,m,5,0.5,-15.43899097,0.5408358
65bfaace4062b6540bf95077,31,0,2024-02-28T16:04:27.725Z,french_362.wav,0,poule,487,24,5,5,Francais,m,6,0.6,-14.99208648,1.97473796
65bfaace4062b6540bf95077,31,0,2024-02-28T16:04:27.725Z,french_362.wav,0,poule,487,24,5,5,Francais,m,7,0.7,30.73544721,0.60459965
65bfaace4062b6540bf95077,31,0,2024-02-28T16:04:27.725Z,french_362.wav,0,poule,487,24,5,5,Francais,m,8,0.8,-77.16176604,1.44502859
65bfaace4062b6540bf95077,31,0,2024-02-28T16:04:27.725Z,french_362.wav,0,poule,487,24,5,5,Francais,m,9,0.9,-8.39157052,1.27495293
65bfaace4062b6540bf95077,31,0,2024-02-28T16:04:27.725Z,french_362.wav,0,poule,487,24,5,5,Francais,m,10,1.0,-0.4008465,0.65103499
65bfaace4062b6540bf95077,31,0,2024-02-28T16:04:27.725Z,french_362.wav,0,poule,487,24,5,5,Francais,m,11,1.1,4.11299021,0.57126771
65bfaace4062b6540bf95077,31,0,2024-02-28T16:04:27.725Z,french_362.wav,0,poule,487,24,5,5,Francais,m,12,1.14141667,49.09310712,1.60326381
65bfaace4062b6540bf95077,32,0,2024-02-28T16:04:27.725Z,french_670.wav,0,poule,503,24,5,5,Francais,m,0,0.0,-19.68619325,1.03147718
65bfaace4062b6540bf95077,32,0,2024-02-28T16:04:27.725Z,french_670.wav,0,poule,503,24,5,5,Francais,m,1,0.1,-87.11615832,0.42572581
65bfaace4062b6540bf95077,32,0,2024-02-28T16:04:27.725Z,french_670.wav,0,poule,503,24,5,5,Francais,m,2,0.2,-95.93801111,0.42961524
65bfaace4062b6540bf95077,32,0,2024-02-28T16:04:27.725Z,french_670.wav,0,poule,503,24,5,5,Francais,m,3,0.3,-36.11130254,0.83502292
65bfaace4062b6540bf95077,32,0,2024-02-28T16:04:27.725Z,french_670.wav,0,poule,503,24,5,5,Francais,m,4,0.4,44.26071217,0.03473652
65bfaace4062b6540bf95077,32,0,2024-02-28T16:04:27.725Z,french_670.wav,0,poule,503,24,5,5,Francais,m,5,0.5,-39.2988483,1.20822798
65bfaace4062b6540bf95077,32,0,2024-02-28T16:04:27.725Z,french_670.wav,0,poule,503,24,5,5,Francais,m,6,0.6,62.48778593,1.18718182
65bfaace4062b6540bf95077,32,0,2024-02-28T16:04:27.725Z,french_670.wav,0,poule,503,24,5,5,Francais,m,7,0.7,52.37424386,1.97278033
65bfaace4062b6540bf95077,32,0,2024-02-28T16:04:27.725Z,french_670.wav,0,poule,503,24,5,5,Francais,m,8,0.8,-0.1573475,0.95899662
65bfaace4062b6540bf95077,32,0,2024-02-28T16:04:27.725Z,french_670.wav,0,poule,503,24,5,5,Francais,m,9,0.9,-27.30900442,1.95617549
65bfaace4062b6540bf95077,32,0,2024-02-28T16:04:27.725Z,french_670.wav,0,poule,503,24,5,5,Francais,m,10,1.0,64.437364,1.1037214
65bfaace4062b6540bf95077,32,0,2024-02-28T16:04:27.725Z,french_670.wav,0,poule,503,24,5,5,Francais,m,11,1.1,-54.68999944,0.03680944
65bfaace4062b6540bf95077,32,0,2024-02-28T16:04:27.725Z,french_670.wav,0,poule,503,24,5,5,Francais,m,12,1.14141667,18.07624972,0.86571474
65bfaace4062b6540bf95077,33,0,2024-02-28T16:04:27.725Z,french_723.wav,0,poule,416,24,5,5,Francais,m,0,0.0,22.19465048,0.67419904
65bfaace4062b6540bf95077,33,0,2024-02-28T16:04:27.725Z,french_723.wav,0,poule,416,24,5,5,Francais,m,1,0.1,23.964481,1.58262399
65bfaace4062b6540bf95077,33,0,2024-02-28T16:04:27.725Z,french_723.wav,0,poule,416,24,5,5,Francais,m,2,0.2,-20.78401632,1.30108669
65bfaace4062b6540bf95077,33,0,2024-02-28T16:04:27.725Z,french_723.wav,0,poule,416,24,5,5,Francais,m,3,0.3,-42.88976611,1.6401937
65bfaace4062b6540bf95077,33,0,2024-02-28T16:04:27.725Z,french_723.wav,0,poule,416,24,5,5,Francais,m,4,0.4,-14.55295397,1.79809459
65bfaace4062b6540bf95077,33,0,2024-02-28T16:04:27.725Z,french_723.wav,0,poule,416,24,5,5,Francais,m,5,0.5,-35.12687869,1.10487247
65bfaace4062b6540bf95077,33,0,2024-02-28T16:04:27.725Z,french_723.wav,0,poule,416,24,5,5,Francais,m,6,0.6,-97.73060339,1.45372595
65bfaace4062b6540bf95077,33,0,2024-02-28T16:04:27.725Z,french_723.wav,0,poule,416,24,5,5,Francais,m,7,0.7,3.95473766,0.61161136
65bfaace4062b6540bf95077,33,0,2024-02-28T16:04:27.725Z,french_723.wav,0,poule,416,24,5,5,Francais,m,8,0.8,78.03718234,0.17526252
65bfaace4062b6540bf95077,33,0,2024-02-28T16:04:27.725Z,french_723.wav,0,poule,416,24,5,5,Francais,m,9,0.9,-10.33119837,1.7787348
65bfaace4062b6540bf95077,33,0,2024-02-28T16:04:27.725Z,french_723.wav,0,poule,416,24,5,5,Francais,m,10,1.0,83.18845617,1.55366011
65bfaace4062b6540bf95077,33,0,2024-02-28T16:04:27.725Z,french_723.wav,0,poule,416,24,5,5,Francais,m,11,1.1,83.83218314,1.79647341
65bfaace4062b6540bf95077,33,0,2024-02-28T16:04:27.725Z,french_723.wav,0,poule,416,24,5,5,Francais,m,12,1.14141667,-82.60655124,0.62892068
65bfaace4062b6540bf95077,34,0,2024-02-28T16:04:27.725Z,french_13.wav,0,poule,570,24,5,5,Francais,m,0,0.0,28.79040646,1.71683998
65bfaace4062b6540bf95077,34,0,2024-02-28T16:04:27.725Z,french_13.wav,0,poule,570,24,5,5,Francais,m,1,0.1,1.43639251,1.51392947
65bfaace4062b6540bf95077,34,0,2024-02-28T16:04:27.725Z,french_13.wav,0,poule,570,24,5,5,Francais,m,2,0.2,8.93741283,1.95012388
65bfaace4062b6540bf95077,34,0,2024-02-28T16:04:27.725Z,french_13.wav,0,poule,570,24,5,5,Francais,m,3,0.3,-45.23678971,1.24720578
65bfaace4062b6540bf95077,34,0,2024-02-28T16:04:27.725Z,french_13.wav,0,poule,570,24,5,5,Francais,m,4,0.4,-36.64568284,0.6748638
65bfaace4062b6540bf95077,34,0,2024-02-28T16:04:27.725Z,french_13.wav,0,poule,570,24,5,5,Francais,m,5,0.5,95.08006425,0.64178438
65bfaace4062b6540bf95077,34,0,2024-02-28T16:04:27.725Z,french_13.wav,0,poule,570,24,5,5,Francais,m,6,0.6,-25.15383894,1.78067585
65bfaace4062b6540bf95077,34,0,2024-02-28T16:04:27.725Z,french_13.wav,0,poule,570,24,5,5,Francais,m,7,0.7,20.22064469,0.73379373
65bfaace4062b6540bf95077,34,0,2024-02-28T16:04:27.725Z,french_13.wav,0,poule,570,24,5,5,Francais,m,8,0.8,4.43008543,0.8008251
65bfaace4062b6540bf95077,34,0,2024-02-28T16:04:27.725Z,french_13.wav,0,poule,570,24,5,5,Francais,m,9,0.9,31.96842926,1.62083082
65bfaace4062b6540bf95077,34,0,2024-02-28T16:04:27.725Z,french_13.wav,0,poule,570,24,5,5,Francais,m,10,1.0,59.17290693,0.40737704
65bfaace4062b6540bf95077,34,0,2024-02-28T16:04:27.725Z,french_13.wav,0,poule,570,24,5,5,Francais,m,11,1.1,3.48956858,0.59465297
65bfaace4062b6540bf95077,34,0,2024-02-28T16:04:27.725Z,french_13.wav,0,poule,570,24,5,5,Francais,m,12,1.14141667,-39.55658578,0.57584179
65bfaace4062b6540bf95077,35,0,2024-02-28T16:04:27.725Z,french_866.wav,0,poule,644,24,5,5,Francais,m,0,0.0,-74.48272892,0.05604521
65bfaace4062b6540bf95077,35,0,2024-02-28T16:04:27.725Z,french_866.wav,0,poule,644,24,5,5,Francais,m,1,0.1,-3.325332,0.3442437
65bfaace4062b6540bf95077,35,0,2024-02-28T16:04:27.725Z,french_866.wav,0,poule,644,24,5,5,Francais,m,2,0.2,44.03556359,0.52317916
65bfaace4062b6540bf95077,35,0,2024-02-28T16:04:27.725Z,french_866.wav,0,poule,644,24,5,5,Francais,m,3,0.3,-90.00855988,1.52290836
65bfaace4062b6540bf95077,35,0,2024-02-28T16:04:27.725Z,french_866.wav,0,poule,644,24,5,5,Francais,m,4,0.4,95.4115093,0.47551036
65bfaace4062b6540bf95077,35,0,2024-02-28T16:04:27.725Z,french_866.wav,0,poule,644,24,5,5,Francais,m,5,0.5,48.47873323,0.56031323
65bfaace4062b6540bf95077,35,0,2024-02-28T16:04:27.725Z,french_866.wav,0,poule,644,24,5,5,Francais,m,6,0.6,7.86523273,0.63842577
65bfaace4062b6540bf95077,35,0,2024-02-28T16:04:27.725Z,french_866.wav,0,poule,644,24,5,5,Francais,m,7,0.7,78.21260838,1.48152306
65bfaace4062b6540bf95077,35,0,2024-02-28T16:04:27.725Z,french_866.wav,0,poule,644,24,5,5,Francais,m,8,0.8,66.91391565,0.38501329
65bfaace4062b6540bf95077,35,0,2024-02-28T16:04:27.725Z,french_866.wav,0,poule,644,24,5,5,Francais,m,9,0.9,21.69873169,0.68635955
65bfaace4062b6540bf95077,35,0,2024-02-28T16:04:27.725Z,french_866.wav,0,poule,644,24,5,5,Francais,m,10,1.0,-58.03775714,1.77227289
65bfaace4062b6540bf95077,35,0,2024-02-28T16:04:27.725Z,french_866.wav,0,poule,644,24,5,5,Francais,m,11,1.1,99.81207273,0.24826514
65bfaace4062b6540bf95077,35,0,2024-02-28T16:04:27.725Z,french_866.wav,0,poule,644,24,5,5,Francais,m,12,1.14141667,-30.83024602,1.76047341
65bfaace4062b6540bf95077,36,0,2024-02-28T16:04:27.725Z,french_511.wav,0,poule,269,24,5,5,Francais,m,0,0.0,68.45765267,0.68906271
65bfaace4062b6540bf95077,36,0,2024-02-28T16:04:27.725Z,french_511.wav,0,poule,269,24,5,5,Francais,m,1,0.1,-8.95520239,1.35083961
65bfaace4062b6540bf95077,36,0,2024-02-28T16:04:27.725Z,french_511.wav,0,poule,269,24,5,5,Francais,m,2,0.2,44.78754761,0.86739012
65bfaace4062b6540bf95077,36,0,2024-02-28T16:04:27.725Z,french_511.wav,0,poule,269,24,5,5,Francais,m,3,0.3,48.7554288,0.74272649
65bfaace4062b6540bf95077,36,0,2024-02-28T16:04:27.725Z,french_511.wav,0,poule,269,24,5,5,Francais,m,4,0.4,41.20564236,1.27472163
65bfaace4062b6540bf95077,36,0,2024-02-28T16:04:27.725Z,french_511.wav,0,poule,269,24,5,5,Francais,m,5,0.5,74.46096489,0.69400452
65bfaace4062b6540bf95077,36,0,2024-02-28T16:04:27.725Z,french_511.wav,0,poule,269,24,5,5,Francais,m,6,0.6,-92.19481722,0.63157953
65bfaace4062b6540bf95077,36,0,2024-02-28T16:04:27.725Z,french_511.wav,0,poule,269,24,5,5,Francais,m,7,0.7,70.54554277,1.62489355
65bfaace4062b6540bf95077,36,0,2024-02-28T16:04:27.725Z,french_511.wav,0,poule,269,24,5,5,Francais,m,8,0.8,-89.98216972,1.1631817
65bfaace4062b6540bf95077,36,0,2024-02-28T16:04:27.725Z,french_511.wav,0,poule,269,24,5,5,Francais,m,9,0.9,96.36310752,1.80808524
65bfaace4062b6540bf95077,36,0,2024-02-28T16:04:27.725Z,french_511.wav,0,poule,269,24,5,5,Francais,m,10,1.0,-57.15318896,1.87485338
65bfaace4062b6540bf95077,36,0,2024-02-28T16:04:27.725Z,french_511.wav,0,poule,269,24,5,5,Francais,m,11,1.1,-15.3628732,0.63700297
65bfaace4062b6540bf95077,36,0,2024-02-28T16:04:27.725Z,french_511.wav,0,poule,269,24,5,5,Francais,m,12,1.14141667,-40.17140688,1.56626139
65bfaace4062b6540bf95077,37,0,2024-02-28T16:04:27.725Z,french_584.wav,0,poule,374,24,5,5,Francais,m,0,0.0,-53.64248655,1.38891122
65bfaace4062b6540bf95077,37,0,2024-02-28T16:04:27.725Z,french_584.wav,0,poule,374,24,5,5,Francais,m,1,0.1,87.73837185,0.52599003
65bfaace4062b6540bf95077,37,0,2024-02-28T16:04:27.725Z,french_584.wav,0,poule,374,24,5,5,Francais,m,2,0.2,-76.07432913,0.86644444
65bfaace4062b6540bf95077,37,0,2024-02-28T16:04:27.725Z,french_584.wav,0,poule,374,24,5,5,Francais,m,3,0.3,-82.64271669,0.7067956
65bfaace4062b6540bf95077,37,0,2024-02-28T16:04:27.725Z,french_584.wav,0,poule,374,24,5,5,Francais,m,4,0.4,95.13100452,0.85039222
65bfaace4062b6540bf95077,37,0,2024-02-28T16:04:27.725Z,french_584.wav,0,poule,374,24,5,5,Francais,m,5,0.5,0.46314255,1.91311542
65bfaace4062b6540bf95077,37,0,2024-02-28T16:04:27.725Z,french_584.wav,0,poule,374,24,5,5,Francais,m,6,0.6,84.32306812,1.87701513
65bfaace4062b6540bf95077,37,0,2024-02-28T16:04:27.725Z,french_584.wav,0,poule,374,24,5,5,Francais,m,7,0.7,-11.04836818,0.4258787
65bfaace4062b6540bf95077,37,0,2024-02-28T16:04:27.725Z,french_584.wav,0,poule,374,24,5,5,Francais,m,8,0.8,-2.39275169,1.64061013
65bfaace4062b6540bf95077,37,0,2024-02-28T16:04:27.725Z,french_584.wav,0,poule,374,24,5,5,Francais,m,9,0.9,-87.18946495,0.64403551
65bfaace4062b6540bf95077,37,0,2024-02-28T16:04:27.725Z,french_584.wav,0,poule,374,24,5,5,Francais,m,10,1.0,31.75007249,0.40232597
65bfaace4062b6540bf95077,37,0,2024-02-28T16:04:27.725Z,french_584.wav,0,poule,374,24,5,5,Francais,m,11,1.1,-75.12996198,1.36523835
65bfaace4062b6540bf95077,37,0,2024-02-28T16:04:27.725Z,french_584.wav,0,poule,374,24,5,5,Francais,m,12,1.14141667,89.37224699,1.64588011
65bfaace4062b6540bf95077,38,0,2024-02-28T16:04:27.725Z,french_921.wav,0,pull,1220,24,5,5,Francais,m,0,0.0,-22.48407438,0.56788331
65bfaace4062b6540bf95077,38,0,2024-02-28T16:04:27.725Z,french_921.wav,0,pull,1220,24,5,5,Francais,m,1,0.1,96.20023213,0.48037084
65bfaace4062b6540bf95077,38,0,2024-02-28T16:04:27.725Z,french_921.wav,0,pull,1220,24,5,5,Francais,m,2,0.2,-26.96111018,1.28513603
65bfaace4062b6540bf95077,38,0,2024-02-28T16:04:27.725Z,french_921.wav,0,pull,1220,24,5,5,Francais,m,3,0.3,-4.61285821,0.47395862
65bfaace4062b6540bf95077,38,0,2024-02-28T16:04:27.725Z,french_921.wav,0,pull,1220,24,5,5,Francais,m,4,0.4,-41.60418228,1.80498459
65bfaace4062b6540bf95077,38,0,2024-02-28T16:04:27.725Z,french_921.wav,0,pull,1220,24,5,5,Francais,m,5,0.5,16.2616983,1.788566
65bfaace4062b6540bf95077,38,0,2024-02-28T16:04:27.725Z,french_921.wav,0,pull,1220,24,5,5,Francais,m,6,0.6,40.35336686,0.45002982
65bfaace4062b6540bf95077,38,0,2024-02-28T16:04:27.725Z,french_921.wav,0,pull,1220,24,5,5,Francais,m,7,0.7,-44.63732317,0.17970155
65bfaace4062b6540bf95077,38,0,2024-02-28T16:04:27.725Z,french_921.wav,0,pull,1220,24,5,5,Francais,m,8,0.8,58.4442517,0.55049439
65bfaace4062b6540bf95077,38,0,2024-02-28T16:04:27.725Z,french_921.wav,0,pull,1220,24,5,5,Francais,m,9,0.9,9.84257376,0.16897134
65bfaace4062b6540bf95077,38,0,2024-02-28T16:04:27.725Z,french_921.wav,0,pull,1220,24,5,5,Francais,m,10,1.0,41.47094552,0.81111626
65bfaace4062b6540bf95077,38,0,2024-02-28T16:04:27.725Z,french_921.wav,0,pull,1220,24,5,5,Francais,m,11,1.1,-30.9925565,1.40036405
65bfaace4062b6540bf95077,38,0,2024-02-28T16:04:27.725Z,french_921.wav,0,pull,1220,24,5,5,Francais,m,12,1.14141667,23.41632399,1.37522971
65bfaace4062b6540bf95077,39,0,2024-02-28T16:04:27.725Z,french_822.wav,0,pull,704,24,5,5,Francais,m,0,0.0,52.54147999,0.93325917
65bfaace4062b6540bf95077,39,0,2024-02-28T16:04:27.725Z,french_822.wav,0,pull,704,24,5,5,Francais,m,1,0.1,-34.80076399,1.09362596
65bfaace4062b6540bf95077,39,0,2024-02-28T16:04:27.725Z,french_822.wav,0,pull,704,24,5,5,Francais,m,2,0.2,-60.83755875,0.48727308
65bfaace4062b6540bf95077,39,0,2024-02-28T16:04:27.725Z,french_822.wav,0,pull,704,24,5,5,Francais,m,3,0.3,-65.01212878,0.00395146
65bfaace4062b6540bf95077,39,0,2024-02-28T16:04:27.725Z,french_822.wav,0,pull,704,24,5,5,Francais,m,4,0.4,13.01315272,0.5790212
65bfaace4062b6540bf95077,39,0,2024-02-28T16:04:27.725Z,french_822.wav,0,pull,704,24,5,5,Francais,m,5,0.5,-34.10316227,0.49917348
65bfaace4062b6540bf95077,39,0,2024-02-28T16:04:27.725Z,french_822.wav,0,pull,704,24,5,5,Francais,m,6,0.6,19.83997407,0.91219053
65bfaace4062b6540bf95077,39,0,2024-02-28T16:04:27.725Z,french_822.wav,0,pull,704,24,5,5,Francais,m,7,0.7,54.70956781,0.51258571
65bfaace4062b6540bf95077,39,0,2024-02-28T16:04:27.725Z,french_822.wav,0,pull,704,24,5,5,Francais,m,8,0.8,73.16282267,1.36837206
65bfaace4062b6540bf95077,39,0,2024-02-28T16:04:27.725Z,french_822.wav,0,pull,704,24,5,5,Francais,m,9,0.9,86.27533908,1.46633967
65bfaace4062b6540bf95077,39,0,2024-02-28T16:04:27.725Z,french_822.wav,0,pull,704,24,5,5,Francais,m,10,1.0,-4.69139147,0.46786351
65bfaace4062b6540bf95077,39,0,2024-02-28T16:04:27.725Z,french_822.wav,0,pull,704,24,5,5,Francais,m,11,1.1,4.7864382,1.33976917
65bfaace4062b6540bf95077,39,0,2024-02-28T16:04:27.725Z,french_822.wav,0,pull,704,24,5,5,Francais,m,12,1.14141667,-72.38058155,1.00243629
65bfaace4062b6540bf95077,40,0,2024-02-28T16:04:27.725Z,french_621.wav,0,poule,339,24,5,5,Francais,m,0,0.0,-83.30768606,1.07149665
65bfaace4062b6540bf95077,40,0,2024-02-28T16:04:27.725Z,french_621.wav,0,poule,339,24,5,5,Francais,m,1,0.1,62.12996189,0.08142527
65bfaace4062b6540bf95077,40,0,2024-02-28T16:04:27.725Z,french_621.wav,0,poule,339,24,5,5,Francais,m,2,0.2,-3.96879709,0.69078224
65bfaace4062b6540bf95077,40,0,2024-02-28T16:04:27.725Z,french_621.wav,0,poule,339,24,5,5,Francais,m,3,0.3,-28.68467377,1.63834532
65bfaace4062b6540bf95077,40,0,2024-02-28T16:04:27.725Z,french_621.wav,0,poule,339,24,5,5,Francais,m,4,0.4,64.37913974,0.65746959
65bfaace4062b6540bf95077,40,0,2024-02-28T16:04:27.725Z,french_621.wav,0,poule,339,24,5,5,Francais,m,5,0.5,-24.77979547,1.44089833
65bfaace4062b6540bf95077,40,0,2024-02-28T16:04:27.725Z,french_621.wav,0,poule,339,24,5,5,Francais,m,6,0.6,-57.28233071,1.05836731
65bfaace4062b6540bf95077,40,0,2024-02-28T16:04:27.725Z,french_621.wav,0,poule,339,24,5,5,Francais,m,7,0.7,26.41618361,1.09302896
65bfaace4062b6540bf95077,40,0,2024-02-28T16:04:27.725Z,french_621.wav,0,poule,339,24,5,5,Francais,m,8,0.8,-28.5927545,0.67374417
65bfaace4062b6540bf95077,40,0,2024-02-28T16:04:27.725Z,french_621.wav,0,poule,339,24,5,5,Francais,m,9,0.9,50.0436783,0.87992825
65bfaace4062b6540bf95077,40,0,2024-02-28T16:04:27.725Z,french_621.wav,0,poule,339,24,5,5,Francais,m,10,1.0,-83.09259596,1.11179321
65bfaace4062b6540bf95077,40,0,2024-02-28T16:04:27.725Z,french_621.wav,0,poule,339,24,5,5,Francais,m,11,1.1,6.81134339,0.15174121
65bfaace4062b6540bf95077,40,0,2024-02-28T16:04:27.725Z,french_621.wav,0,poule,339,24,5,5,Francais,m,12,1.14141667,-67.94941219,0.96307082
65bfaace4062b6540bf95077,41,0,2024-02-28T16:04:27.725Z,french_419.wav,0,poule,450,24,5,5,Francais,m,0,0.0,40.58520075,0.58190194
65bfaace4062b6540bf95077,41,0,2024-02-28T16:04:27.725Z,french_419.wav,0,poule,450,24,5,5,Francais,m,1,0.1,70.57222365,0.48424411
65bfaace4062b6540bf95077,41,0,2024-02-28T16:04:27.725Z,french_419.wav,0,poule,450,24,5,5,Francais,m,2,0.2,69.27547246,1.14946849
65bfaace4062b6540bf95077,41,0,2024-02-28T16:04:27.725Z,french_419.wav,0,poule,450,24,5,5,Francais,m,3,0.3,13.01026316,1.05002848
65bfaace4062b6540bf95077,41,0,2024-02-28T16:04:27.725Z,french_419.wav,0,poule,450,24,5,5,Francais,m,4,0.4,-86.96432775,0.56529053
65bfaace4062b6540bf95077,41,0,2024-02-28T16:04:27.725Z,french_419.wav,0,poule,450,24,5,5,Francais,m,5,0.5,-28.12777227,1.42245746
65bfaace4062b6540bf95077,41,0,2024-02-28T16:04:27.725Z,french_419.wav,0,poule,450,24,5,5,Francais,m,6,0.6,-77.3052971,0.39921231
65bfaace4062b6540bf95077,41,0,2024-02-28T16:04:27.725Z,french_419.wav,0,poule,450,24,5,5,Francais,m,7,0.7,-4.39988688,0.67389644
65bfaace4062b6540bf95077,41,0,2024-02-28T16:04:27.725Z,french_419.wav,0,poule,450,24,5,5,Francais,m,8,0.8,-13.43420627,0.69782841
65bfaace4062b6540bf95077,41,0,2024-02-28T16:04:27.725Z,french_419.wav,0,poule,450,24,5,5,Francais,m,9,0.9,-18.15540347,1.51600011
65bfaace4062b6540bf95077,41,0,2024-02-28T16:04:27.725Z,french_419.wav,0,poule,450,24,5,5,Francais,m,10,1.0,-15.3428643,0.91352501
65bfaace4062b6540bf95077,41,0,2024-02-28T16:04:27.725Z,french_419.wav,0,poule,450,24,5,5,Francais,m,11,1.1,-79.03113674,1.39266727
65bfaace4062b6540bf95077,41,0,2024-02-28T16:04:27.725Z,french_419.wav,0,poule,450,24,5,5,Francais,m,12,1.14141667,-15.39593272,0.36520872
65bfaace4062b6540bf95077,42,0,2024-02-28T16:04:27.725Z,french_726.wav,0,poule,586,24,5,5,Francais,m,0,0.0,48.76420557,1.37300974
65bfaace4062b6540bf95077,42,0,2024-02-28T16:04:27.725Z,french_726.wav,0,poule,586,24,5,5,Francais,m,1,0.1,5.12155157,1.49926665
65bfaace4062b6540bf95077,42,0,2024-02-28T16:04:27.725Z,french_726.wav,0,poule,586,24,5,5,Francais,m,2,0.2,-72.9890042,0.85512206
65bfaace4062b6540bf95077,42,0,2024-02-28T16:04:27.725Z,french_726.wav,0,poule,586,24,5,5,Francais,m,3,0.3,75.78946978,0.29572074
65bfaace4062b6540bf95077,42,0,2024-02-28T16:04:27.725Z,french_726.wav,0,poule,586,24,5,5,Francais,m,4,0.4,8.27508281,1.38748174
65bfaace4062b6540bf95077,42,0,2024-02-28T16:04:27.725Z,french_726.wav,0,poule,586,24,5,5,Francais,m,5,0.5,89.78169524,0.62022839
65bfaace4062b6540bf95077,42,0,2024-02-28T16:04:27.725Z,french_726.wav,0,poule,586,24,5,5,Francais,m,6,0.6,3.99556136,1.06740061
65bfaace4062b6540bf95077,42,0,2024-02-28T16:04:27.725Z,french_726.wav,0,poule,586,24,5,5,Francais,m,7,0.7,1.99959163,0.59805381
65bfaace4062b6540bf95077,42,0,2024-02-28T16:04:27.725Z,french_726.wav,0,poule,586,24,5,5,Francais,m,8,0.8,-13.64347367,1.70561407
65bfaace4062b6540bf95077,42,0,2024-02-28T16:04:27.725Z,french_726.wav,0,poule,586,24,5,5,Francais,m,9,0.9,30.90068593,0.37953026
65bfaace4062b6540bf95077,42,0,2024-02-28T16:04:27.725Z,french_726.wav,0,poule,586,24,5,5,Francais,m,10,1.0,28.17986697,1.21262206
65bfaace4062b6540bf95077,42,0,2024-02-28T16:04:27.725Z,french_726.wav,0,poule,586,24,5,5,Francais,m,11,1.1,-67.51414293,1.83341573
65bfaace4062b6540bf95077,42,0,2024-02-28T16:04:27.725Z,french_726.wav,0,poule,586,24,5,5,Francais,m,12,1.14141667,-25.39302441,0.05128479
65bfaace4062b6540bf95077,43,0,2024-02-28T16:04:27.725Z,french_357.wav,0,poule,1150,24,5,5,Francais,m,0,0.0,86.82276174,1.92268893
65bfaace4062b6540bf95077,43,0,2024-02-28T16:04:27.725Z,french_357.wav,0,poule,1150,24,5,5,Francais,m,1,0.1,61.01952575,0.3802524
65bfaace4062b6540bf95077,43,0,2024-02-28T16:04:27.725Z,french_357.wav,0,poule,1150,24,5,5,Francais,m,2,0.2,-60.75226359,0.64366911
65bfaace4062b6540bf95077,43,0,2024-02-28T16:04:27.725Z,french_357.wav,0,poule,1150,24,5,5,Francais,m,3,0.3,85.98471719,0.42839795
65bfaace4062b6540bf95077,43,0,2024-02-28T16:04:27.725Z,french_357.wav,0,poule,1150,24,5,5,Francais,m,4,0.4,-69.86147068,0.00748054
65bfaace4062b6540bf95077,43,0,2024-02-28T16:04:27.725Z,french_357.wav,0,poule,1150,24,5,5,Francais,m,5,0.5,9.94695166,1.08678504
65bfaace4062b6540bf95077,43,0,2024-02-28T16:04:27.725Z,french_357.wav,0,poule,1150,24,5,5,Francais,m,6,0.6,18.79769535,1.81857945
65bfaace4062b6540bf95077,43,0,2024-02-28T16:04:27.725Z,french_357.wav,0,poule,1150,24,5,5,Francais,m,7,0.7,32.56379866,0.88876944
65bfaace4062b6540bf95077,43,0,2024-02-28T16:04:27.725Z,french_357.wav,0,poule,1150,24,5,5,Francais,m,8,0.8,-63.36176939,0.00755284
65bfaace4062b6540bf95077,43,0,2024-02-28T16:04:27.725Z,french_357.wav,0,poule,1150,24,5,5,Francais,m,9,0.9,-52.11840686,1.32717317
65bfaace4062b6540bf95077,43,0,2024-02-28T16:04:27.725Z,french_357.wav,0,poule,1150,24,5,5,Francais,m,10,1.0,-62.81838888,1.11144187
65bfaace4062b6540bf95077,43,0,2024-02-28T16:04:27.725Z,french_357.wav,0,poule,1150,24,5,5,Francais,m,11,1.1,-46.10611579,1.48923739
65bfaace4062b6540bf95077,43,0,2024-02-28T16:04:27.725Z,french_357.wav,0,poule,1150,24,5,5,Francais,m,12,1.14141667,30.76289331,0.80153076
65bfaace4062b6540bf95077,44,0,2024-02-28T16:04:27.725Z,french_583.wav,0,poule,430,24,5,5,Francais,m,0,0.0,26.44085031,0.31061179
65bfaace4062b6540bf95077,44,0,2024-02-28T16:04:27.725Z,french_583.wav,0,poule,430,24,5,5,Francais,m,1,0.1,14.41399243,0.85478015
65bfaace4062b6540bf95077,44,0,2024-02-28T16:04:27.725Z,french_583.wav,0,poule,430,24,5,5,Francais,m,2,0.2,-44.04798398,0.56023647
65bfaace4062b6540bf95077,44,0,2024-02-28T16:04:27.725Z,french_583.wav,0,poule,430,24,5,5,Francais,m,3,0.3,50.00895276,0.81245
65bfaace4062b6540bf95077,44,0,2024-02-28T16:04:27.725Z,french_583.wav,0,poule,430,24,5,5,Francais,m,4,0.4,19.39525308,1.75738507
65bfaace4062b6540bf95077,44,0,2024-02-28T16:04:27.725Z,french_583.wav,0,poule,430,24,5,5,Francais,m,5,0.5,-25.1077287,0.57873184
65bfaace4062b6540bf95077,44,0,2024-02-28T16:04:27.725Z,french_583.wav,0,poule,430,24,5,5,Francais,m,6,0.6,78.46877294,0.13356268
65bfaace4062b6540bf95077,44,0,2024-02-28T16:04:27.725Z,french_583.wav,0,poule,430,24,5,5,Francais,m,7,0.7,9.01865163,0.57025844
65bfaace4062b6540bf95077,44,0,2024-02-28T16:04:27.725Z,french_583.wav,0,poule,430,24,5,5,Francais,m,8,0.8,53.79896315,0.66409288
65bfaace4062b6540bf95077,44,0,2024-02-28T16:04:27.725Z,french_583.wav,0,poule,430,24,5,5,Francais,m,9,0.9,-34.8052192,0.72593729
65bfaace4062b6540bf95077,44,0,2024-02-28T16:04:27.725Z,french_583.wav,0,poule,430,24,5,5,Francais,m,10,1.0,-44.31336501,1.39487215
65bfaace4062b6540bf95077,44,0,2024-02-28T16:04:27.725Z,french_583.wav,0,poule,430,24,5,5,Francais,m,11,1.1,39.98165615,1.47926175
65bfaace4062b6540bf95077,44,0,2024-02-28T16:04:27.725Z,french_583.wav,0,poule,430,24,5,5,Francais,m,12,1.14141667,86.9176988,1.39400974
65bfaace4062b6540bf95077,45,0,2024-02-28T16:04:27.725Z,french_86.wav,0,poule,191,24,5,5,Francais,m,0,0.0,90.66907536,1.99403643
65bfaace4062b6540bf95077,45,0,2024-02-28T16:04:27.725Z,french_86.wav,0,poule,191,24,5,5,Francais,m,1,0.1,72.1103631,1.04548327
65bfaace4062b6540bf95077,45,0,2024-02-28T16:04:27.725Z,french_86.wav,0,poule,191,24,5,5,Francais,m,2,0.2,26.87452534,1.50586628
65bfaace4062b6540bf95077,45,0,2024-02-28T16:04:27.725Z,french_86.wav,0,poule,191,24,5,5,Francais,m,3,0.3,6.75702651,0.53204978
65bfaace4062b6540bf95077,45,0,2024-02-28T16:04:27.725Z,french_86.wav,0,poule,191,24,5,5,Francais,m,4,0.4,23.23177759,1.50109817
65bfaace4062b6540bf95077,45,0,2024-02-28T16:04:27.725Z,french_86.wav,0,poule,191,24,5,5,Francais,m,5,0.5,30.56866271,1.68700691
65bfaace4062b6540bf95077,45,0,2024-02-28T16:04:27.725Z,french_86.wav,0,poule,191,24,5,5,Francais,m,6,0.6,57.20013944,1.22814782
65bfaace4062b6540bf95077,45,0,2024-02-28T16:04:27.725Z,french_86.wav,0,poule,191,24,5,5,Francais,m,7,0.7,-0.22903735,0.68677654
65bfaace4062b6540bf95077,45,0,2024-02-28T16:04:27.725Z,french_86.wav,0,poule,191,24,5,5,Francais,m,8,0.8,-52.83374868,0.16935265
65bfaace4062b6540bf95077,45,0,2024-02-28T16:04:27.725Z,french_86.wav,0,poule,191,24,5,5,Francais,m,9,0.9,17.90238633,1.6413624
65bfaace4062b6540bf95077,45,0,2024-02-28T16:04:27.725Z,french_86.wav,0,poule,191,24,5,5,Francais,m,10,1.0,-5.19579317,0.78947627
65bfaace4062b6540bf95077,45,0,2024-02-28T16:04:27.725Z,french_86.wav,0,poule,191,24,5,5,Francais,m,11,1.1,32.18274643,1.67130665
65bfaace4062b6540bf95077,45,0,2024-02-28T16:04:27.725Z,french_86.wav,0,poule,191,24,5,5,Francais,m,12,1.14141667,-41.41608864,0.60178735
65bfaace4062b6540bf95077,46,0,2024-02-28T16:04:27.725Z,french_906.wav,0,poule,330,24,5,5,Francais,m,0,0.0,94.19134076,1.81442497
65bfaace4062b6540bf95077,46,0,2024-02-28T16:04:27.725Z,french_906.wav,0,poule,330,24,5,5,Francais,m,1,0.1,-33.3914726,0.92341441
65bfaace4062b6540bf95077,46,0,2024-02-28T16:04:27.725Z,french_906.wav,0,poule,330,24,5,5,Francais,m,2,0.2,89.0954816,0.20593764
65bfaace4062b6540bf95077,46,0,2024-02-28T16:04:27.725Z,french_906.wav,0,poule,330,24,5,5,Francais,m,3,0.3,33.95372214,0.6664786
65bfaace4062b6540bf95077,46,0,2024-02-28T16:04:27.725Z,french_906.wav,0,poule,330,24,5,5,Francais,m,4,0.4,39.46652721,1.04326326
65bfaace4062b6540bf95077,46,0,2024-02-28T16:04:27.725Z,french_906.wav,0,poule,330,24,5,5,Francais,m,5,0.5,-59.34550424,1.00260981
65bfaace4062b6540bf95077,46,0,2024-02-28T16:04:27.725Z,french_906.wav,0,poule,330,24,5,5,Francais,m,6,0.6,82.89634223,1.70924615
65bfaace4062b6540bf95077,46,0,2024-02-28T16:04:27.725Z,french_906.wav,0,poule,330,24,5,5,Francais,m,7,0.7,65.83754994,1.32883795
65bfaace4062b6540bf95077,46,0,2024-02-28T16:04:27.725Z,french_906.wav,0,poule,330,24,5,5,Francais,m,8,0.8,79.03979174,1.05343215
65bfaace4062b6540bf95077,46,0,2024-02-28T16:04:27.725Z,french_906.wav,0,poule,330,24,5,5,Francais,m,9,0.9,-5.26869148,0.85234764
65bfaace4062b6540bf95077,46,0,2024-02-28T16:04:27.725Z,french_906.wav,0,poule,330,24,5,5,Francais,m,10,1.0,-11.60722286,0.70456839
65bfaace4062b6540bf95077,46,0,2024-02-28T16:04:27.725Z,french_906.wav,0,poule,330,24,5,5,Francais,m,11,1.1,-90.04101612,0.28255596
65bfaace4062b6540bf95077,46,0,2024-02-28T16:04:27.725Z,french_906.wav,0,poule,330,24,5,5,Francais,m,12,1.14141667,92.05953945,1.51531647
65bfaace4062b6540bf95077,47,0,2024-02-28T16:04:27.725Z,french_557.wav,0,poule,290,24,5,5,Francais,m,0,0.0,87.75716143,1.51726274
65bfaace4062b6540bf95077,47,0,2024-02-28T16:04:27.725Z,french_557.wav,0,poule,290,24,5,5,Francais,m,1,0.1,75.58973606,0.82672788
65bfaace4062b6540bf95077,47,0,2024-02-28T16:04:27.725Z,french_557.wav,0,poule,290,24,5,5,Francais,m,2,0.2,-10.41118754,0.29594779
65bfaace4062b6540bf95077,47,0,2024-02-28T16:04:27.725Z,french_557.wav,0,poule,290,24,5,5,Francais,m,3,0.3,-48.91892045,1.45862429
65bfaace4062b6540bf95077,47,0,2024-02-28T16:04:27.725Z,french_557.wav,0,poule,290,24,5,5,Francais,m,4,0.4,-17.3468807,0.77182158
65bfaace4062b6540bf95077,47,0,2024-02-28T16:04:27.725Z,french_557.wav,0,poule,290,24,5,5,Francais,m,5,0.5,34.22726799,0.29571527
65bfaace4062b6540bf95077,47,0,2024-02-28T16:04:27.725Z,french_557.wav,0,poule,290,24,5,5,Francais,m,6,0.6,-77.53700308,1.00868641
65bfaace4062b6540bf95077,47,0,2024-02-28T16:04:27.725Z,french_557.wav,0,poule,290,24,5,5,Francais,m,7,0.7,78.68416949,0.49328713
65bfaace4062b6540bf95077,47,0,2024-02-28T16:04:27.725Z,french_557.wav,0,poule,290,24,5,5,Francais,m,8,0.8,-43.34644419,0.40883898
65bfaace4062b6540bf95077,47,0,2024-02-28T16:04:27.725Z,french_557.wav,0,poule,290,24,5,5,Francais,m,9,0.9,68.78190397,1.05980011
65bfaace4062b6540bf95077,47,0,2024-02-28T16:04:27.725Z,french_557.wav,0,poule,290,24,5,5,Francais,m,10,1.0,-59.83661076,1.00265193
65bfaace4062b6540bf95077,47,0,2024-02-28T16:04:27.725Z,french_557.wav,0,poule,290,24,5,5,Francais,m,11,1.1,-25.29215861,0.2775648
65bfaace4062b6540bf95077,47,0,2024-02-28T16:04:27.725Z,french_557.wav,0,poule,290,24,5,5,Francais,m,12,1.14141667,62.84029703,0.76714815
65bfaace4062b6540bf95077,48,0,2024-02-28T16:04:27.725Z,french_691.wav,0,poule,307,24,5,5,Francais,m,0,0.0,-53.29117551,1.10181202
65bfaace4062b6540bf95077,48,0,2024-02-28T16:04:27.725Z,french_691.wav,0,poule,307,24,5,5,Francais,m,1,0.1,-43.12784614,0.28907205
65bfaace4062b6540bf95077,48,0,2024-02-28T16:04:27.725Z,french_691.wav,0,poule,307,24,5,5,Francais,m,2,0.2,-84.82989966,1.7388292
65bfaace4062b6540bf95077,48,0,2024-02-28T16:04:27.725Z,french_691.wav,0,poule,307,24,5,5,Francais,m,3,0.3,39.71227421,1.78666224
65bfaace4062b6540bf95077,48,0,2024-02-28T16:04:27.725Z,french_691.wav,0,poule,307,24,5,5,Francais,m,4,0.4,59.63865094,1.87776175
65bfaace4062b6540bf95077,48,0,2024-02-28T16:04:27.725Z,french_691.wav,0,poule,307,24,5,5,Francais,m,5,0.5,-32.9711098,1.68554567
65bfaace4062b6540bf95077,48,0,2024-02-28T16:04:27.725Z,french_691.wav,0,poule,307,24,5,5,Francais,m,6,0.6,1.3247472,1.64523099
65bfaace4062b6540bf95077,48,0,2024-02-28T16:04:27.725Z,french_691.wav,0,poule,307,24,5,5,Francais,m,7,0.7,-50.55695338,1.0611099
65bfaace4062b6540bf95077,48,0,2024-02-28T16:04:27.725Z,french_691.wav,0,poule,307,24,5,5,Francais,m,8,0.8,53.24371519,0.7419427
65bfaace4062b6540bf95077,48,0,2024-02-28T16:04:27.725Z,french_691.wav,0,poule,307,24,5,5,Francais,m,9,0.9,30.60584544,1.06726815
65bfaace4062b6540bf95077,48,0,2024-02-28T16:04:27.725Z,french_691.wav,0,poule,307,24,5,5,Francais,m,10,1.0,-22.917909,1.56845074
65bfaace4062b6540bf95077,48,0,2024-02-28T16:04:27.725Z,french_691.wav,0,poule,307,24,5,5,Francais,m,11,1.1,-32.41553069,0.51496565
65bfaace4062b6540bf95077,48,0,2024-02-28T16:04:27.725Z,french_691.wav,0,poule,307,24,5,5,Francais,m,12,1.14141667,-51.47885944,1.22953203
65bfaace4062b6540bf95077,49,0,2024-02-28T16:04:27.725Z,french_334.wav,0,poule,331,24,5,5,Francais,m,0,0.0,2.91012372,0.60452042
65bfaace4062b6540bf95077,49,0,2024-02-28T16:04:27.725Z,french_334.wav,0,poule,331,24,5,5,Francais,m,1,0.1,-31.38923588,0.2438657
65bfaace4062b6540bf95077,49,0,2024-02-28T16:04:27.725Z,french_334.wav,0,poule,331,24,5,5,Francais,m,2,0.2,-62.72161399,0.70395582
65bfaace4062b6540bf95077,49,0,2024-02-28T16:04:27.725Z,french_334.wav,0,poule,331,24,5,5,Francais,m,3,0.3,52.61572733,1.86925999
65bfaace4062b6540bf95077,49,0,2024-02-28T16:04:27.725Z,french_334.wav,0,poule,331,24,5,5,Francais,m,4,0.4,-26.95407512,1.03540783
65bfaace4062b6540bf95077,49,0,2024-02-28T16:04:27.725Z,french_334.wav,0,poule,331,24,5,5,Francais,m,5,0.5,63.93183967,0.90758676
65bfaace4062b6540bf95077,49,0,2024-02-28T16:04:27.725Z,french_334.wav,0,poule,331,24,5,5,Francais,m,6,0.6,-64.05494497,1.53296808
65bfaace4062b6540bf95077,49,0,2024-02-28T16:04:27.725Z,french_334.wav,0,poule,331,24,5,5,Francais,m,7,0.7,46.67808612,1.6467933
65bfaace4062b6540bf95077,49,0,2024-02-28T16:04:27.725Z,french_334.wav,0,poule,331,24,5,5,Francais,m,8,0.8,-19.68734259,1.90283938
65bfaace4062b6540bf95077,49,0,2024-02-28T16:04:27.725Z,french_334.wav,0,poule,331,24,5,5,Francais,m,9,0.9,94.09878025,0.73856415
65bfaace4062b6540bf95077,49,0,2024-02-28T16:04:27.725Z,french_334.wav,0,poule,331,24,5,5,Francais,m,10,1.0,-47.40754779,1.4477999
65bfaace4062b6540bf95077,49,0,2024-02-28T16:04:27.725Z,french_334.wav,0,poule,331,24,5,5,Francais,m,11,1.1,60.30467736,0.47618592
65bfaace4062b6540bf95077,49,0,2024-02-28T16:04:27.725Z,french_334.wav,0,poule,331,24,5,5,Francais,m,12,1.14141667,72.47412229,0.58909421
65bfaace4062b6540bf95077,50,1,2024-02-28T16:04:27.725Z,french_728.wav,0,poule,2177,24,5,5,Francais,m,0,0.0,36.19394602,0.36420395
65bfaace4062b6540bf95077,50,1,2024-02-28T16:04:27.725Z,french_728.wav,0,poule,2177,24,5,5,Francais,m,1,0.1,-73.58017585,0.94822328
65bfaace4062b6540bf95077,50,1,2024-02-28T16:04:27.725Z,french_728.wav,0,poule,2177,24,5,5,Francais,m,2,0.2,-13.60840916,1.96438719
65bfaace4062b6540bf95077,50,1,2024-02-28T16:04:27.725Z,french_728.wav,0,poule,2177,24,5,5,Francais,m,3,0.3,59.53237068,0.75518897
65bfaace4062b6540bf95077,50,1,2024-02-28T16:04:27.725Z,french_728.wav,0,poule,2177,24,5,5,Francais,m,4,0.4,-6.38475955,1.08379747
65bfaace4062b6540bf95077,50,1,2024-02-28T16:04:27.725Z,french_728.wav,0,poule,2177,24,5,5,Francais,m,5,0.5,-32.17285733,0.48742841
65bfaace4062b6540bf95077,50,1,2024-02-28T16:04:27.725Z,french_728.wav,0,poule,2177,24,5,5,Francais,m,6,0.6,19.92579679,1.13498694
65bfaace4062b6540bf95077,50,1,2024-02-28T16:04:27.725Z,french_728.wav,0,poule,2177,24,5,5,Francais,m,7,0.7,78.69154245,0.24377884
65bfaace4062b6540bf95077,50,1,2024-02-28T16:04:27.725Z,french_728.wav,0,poule,2177,24,5,5,Francais,m,8,0.8,-81.82481124,0.82900777
65bfaace4062b6540bf95077,50,1,2024-02-28T16:04:27.725Z,french_728.wav,0,poule,2177,24,5,5,Francais,m,9,0.9,83.13379327,1.92330551
65bfaace4062b6540bf95077,50,1,2024-02-28T16:04:27.725Z,french_728.wav,0,poule,2177,24,5,5,Francais,m,10,1.0,-52.25888881,1.47531987
65bfaace4062b6540bf95077,50,1,2024-02-28T16:04:27.725Z,french_728.wav,0,poule,2177,24,5,5,Francais,m,11,1.1,-24.90356469,1.48816537
65bfaace4062b6540bf95077,50,1,2024-02-28T16:04:27.725Z,french_728.wav,0,poule,2177,24,5,5,Francais,m,12,1.14141667,-29.75125127,0.68517296
65bfaace4062b6540bf95077,51,1,2024-02-28T16:04:27.725Z,french_823.wav,0,pull,990,24,5,5,Francais,m,0,0.0,33.60636133,1.03422818
65bfaace4062b6540bf95077,51,1,2024-02-28T16:04:27.725Z,french_823.wav,0,pull,990,24,5,5,Francais,m,1,0.1,28.32505989,0.27134212
65bfaace4062b6540bf95077,51,1,2024-02-28T16:04:27.725Z,french_823.wav,0,pull,990,24,5,5,Francais,m,2,0.2,6.84878966,0.81254045
65bfaace4062b6540bf95077,51,1,2024-02-28T16:04:27.725Z,french_823.wav,0,pull,990,24,5,5,Francais,m,3,0.3,1.62925135,1.53264239
65bfaace4062b6540bf95077,51,1,2024-02-28T16:04:27.725Z,french_823.wav,0,pull,990,24,5,5,Francais,m,4,0.4,6.79149524,0.20675282
65bfaace4062b6540bf95077,51,1,2024-02-28T16:04:27.725Z,french_823.wav,0,pull,990,24,5,5,Francais,m,5,0.5,-99.23050369,1.63728817
65bfaace4062b6540bf95077,51,1,2024-02-28T16:04:27.725Z,french_823.wav,0,pull,990,24,5,5,Francais,m,6,0.6,-8.74190219,1.02628114
65bfaace4062b6540bf95077,51,1,2024-02-28T16:04:27.725Z,french_823.wav,0,pull,990,24,5,5,Francais,m,7,0.7,-66.40036877,1.14617269
65bfaace4062b6540bf95077,51,1,2024-02-28T16:04:27.725Z,french_823.wav,0,pull,990,24,5,5,Francais,m,8,0.8,11.35961345,1.64918993
65bfaace4062b6540bf95077,51,1,2024-02-28T16:04:27.725Z,french_823.wav,0,pull,990,24,5,5,Francais,m,9,0.9,61.07242385,0.64370947
65bfaace4062b6540bf95077,51,1,2024-02-28T16:04:27.725Z,french_823.wav,0,pull,990,24,5,5,Francais,m,10,1.0,40.94049127,0.90766668
65bfaace4062b6540bf95077,51,1,2024-02-28T16:04:27.725Z,french_823.wav,0,pull,990,24,5,5,Francais,m,11,1.1,0.31731975,0.4362808
65bfaace4062b6540bf95077,51,1,2024-02-28T16:04:27.725Z,french_823.wav,0,pull,990,24,5,5,Francais,m,12,1.14141667,25.56156842,0.90441355
65bfaace4062b6540bf95077,52,1,2024-02-28T16:04:27.725Z,french_100.wav,0,pull,675,24,5,5,Francais,m,0,0.0,45.30319637,0.4266363
65bfaace4062b6540bf95077,52,1,2024-02-28T16:04:27.725Z,french_100.wav,0,pull,675,24,5,5,Francais,m,1,0.1,47.12815282,0.41166499
65bfaace4062b6540bf95077,52,1,2024-02-28T16:04:27.725Z,french_100.wav,0,pull,675,24,5,5,Francais,m,2,0.2,67.48521917,0.75850186
65bfaace4062b6540bf95077,52,1,2024-02-28T16:04:27.725Z,french_100.wav,0,pull,675,24,5,5,Francais,m,3,0.3,23.61125392,1.79094973
65bfaace4062b6540bf95077,52,1,2024-02-28T16:04:27.725Z,french_100.wav,0,pull,675,24,5,5,Francais,m,4,0.4,20.77565094,1.79636496
65bfaace4062b6540bf95077,52,1,2024-02-28T16:04:27.725Z,french_100.wav,0,pull,675,24,5,5,Francais,m,5,0.5,-96.44964023,1.36246425
65bfaace4062b6540bf95077,52,1,2024-02-28T16:04:27.725Z,french_100.wav,0,pull,675,24,5,5,Francais,m,6,0.6,-27.30276741,0.7383114
65bfaace4062b6540bf95077,52,1,2024-02-28T16:04:27.725Z,french_100.wav,0,pull,675,24,5,5,Francais,m,7,0.7,7.85228196,1.2886492
65bfaace4062b6540bf95077,52,1,2024-02-28T16:04:27.725Z,french_100.wav,0,pull,675,24,5,5,Francais,m,8,0.8,68.83602268,0.63858011
65bfaace4062b6540bf95077,52,1,2024-02-28T16:04:27.725Z,french_100.wav,0,pull,675,24,5,5,Francais,m,9,0.9,42.76775799,0.54144566
65bfaace4062b6540bf95077,52,1,2024-02-28T16:04:27.725Z,french_100.wav,0,pull,675,24,5,5,Francais,m,10,1.0,54.32509685,0.22455782
65bfaace4062b6540bf95077,52,1,2024-02-28T16:04:27.725Z,french_100.wav,0,pull,675,24,5,5,Francais,m,11,1.1,-78.45035325,0.1039249
65bfaace4062b6540bf95077,52,1,2024-02-28T16:04:27.725Z,french_100.wav,0,pull,675,24,5,5,Francais,m,12,1.14141667,25.20581813,0.78301344
65bfaace4062b6540bf95077,53,1,2024-02-28T16:04:27.725Z,french_879.wav,0,poule,507,24,5,5,Francais,m,0,0.0,88.66120866,1.49948929
65bfaace4062b6540bf95077,53,1,2024-02-28T16:04:27.725Z,french_879.wav,0,poule,507,24,5,5,Francais,m,1,0.1,35.12225603,1.15624611
65bfaace4062b6540bf95077,53,1,2024-02-28T16:04:27.725Z,french_879.wav,0,poule,507,24,5,5,Francais,m,2,0.2,-2.93703308,1.75956272
65bfaace4062b6540bf95077,53,1,2024-02-28T16:04:27.725Z,french_879.wav,0,poule,507,24,5,5,Francais,m,3,0.3,61.37727631,0.82855874
65bfaace4062b6540bf95077,53,1,2024-02-28T16:04:27.725Z,french_879.wav,0,poule,507,24,5,5,Francais,m,4,0.4,2.53929299,0.63351831
65bfaace4062b6540bf95077,53,1,2024-02-28T16:04:27.725Z,french_879.wav,0,poule,507,24,5,5,Francais,m,5,0.5,65.24070343,1.6138796
65bfaace4062b6540bf95077,53,1,2024-02-28T16:04:27.725Z,french_879.wav,0,poule,507,24,5,5,Francais,m,6,0.6,-80.11136653,0.6895417
65bfaace4062b6540bf95077,53,1,2024-02-28T16:04:27.725Z,french_879.wav,0,poule,507,24,5,5,Francais,m,7,0.7,13.22088752,0.19108086
65bfaace4062b6540bf95077,53,1,2024-02-28T16:04:27.725Z,french_879.wav,0,poule,507,24,5,5,Francais,m,8,0.8,64.64970231,0.37453166
65bfaace4062b6540bf95077,53,1,2024-02-28T16:04:27.725Z,french_879.wav,0,poule,507,24,5,5,Francais,m,9,0.9,13.00456611,1.83756867
65bfaace4062b6540bf95077,53,1,2024-02-28T16:04:27.725Z,french_879.wav,0,poule,507,24,5,5,Francais,m,10,1.0,-81.8213386,1.05634914
65bfaace4062b6540bf95077,53,1,2024-02-28T16:04:27.725Z,french_879.wav,0,poule,507,24,5,5,Francais,m,11,1.1,-91.24943387,0.80697989
65bfaace4062b6540bf95077,53,1,2024-02-28T16:04:27.725Z,french_879.wav,0,poule,507,24,5,5,Francais,m,12,1.14141667,94.81116576,0.78800282
65bfaace4062b6540bf95077,54,1,2024-02-28T16:04:27.725Z,french_343.wav,0,poule,514,24,5,5,Francais,m,0,0.0,55.30820306,1.58034267
65bfaace4062b6540bf95077,54,1,2024-02-28T16:04:27.725Z,french_343.wav,0,poule,514,24,5,5,Francais,m,1,0.1,-11.48156173,1.0596038
65bfaace4062b6540bf95077,54,1,2024-02-28T16:04:27.725Z,french_343.wav,0,poule,514,24,5,5,Francais,m,2,0.2,-61.33934281,1.28163155
65bfaace4062b6540bf95077,54,1,2024-02-28T16:04:27.725Z,french_343.wav,0,poule,514,24,5,5,Francais,m,3,0.3,-78.79796184,0.20032202
65bfaace4062b6540bf95077,54,1,2024-02-28T16:04:27.725Z,french_343.wav,0,poule,514,24,5,5,Francais,m,4,0.4,-3.55277636,1.05316587
65bfaace4062b6540bf95077,54,1,2024-02-28T16:04:27.725Z,french_343.wav,0,poule,514,24,5,5,Francais,m,5,0.5,40.8675343,0.79348198
65bfaace4062b6540bf95077,54,1,2024-02-28T16:04:27.725Z,french_343.wav,0,poule,514,24,5,5,Francais,m,6,0.6,88.78635161,0.11297715
65bfaace4062b6540bf95077,54,1,2024-02-28T16:04:27.725Z,french_343.wav,0,poule,514,24,5,5,Francais,m,7,0.7,-70.07472114,1.23835329
65bfaace4062b6540bf95077,54,1,2024-02-28T16:04:27.725Z,french_343.wav,0,poule,514,24,5,5,Francais,m,8,0.8,-79.01069817,1.37036254
65bfaace4062b6540bf95077,54,1,2024-02-28T16:04:27.725Z,french_343.wav,0,poule,514,24,5,5,Francais,m,9,0.9,-38.36075722,1.08523433
65bfaace4062b6540bf95077,54,1,2024-02-28T16:04:27.725Z,french_343.wav,0,poule,514,24,5,5,Francais,m,10,1.0,-74.7385536,0.49176562
65bfaace4062b6540bf95077,54,1,2024-02-28T16:04:27.725Z,french_343.wav,0,poule,514,24,5,5,Francais,m,11,1.1,67.32009961,1.89620137
65bfaace4062b6540bf95077,54,1,2024-02-28T16:04:27.725Z,french_343.wav,0,poule,514,24,5,5,Francais,m,12,1.14141667,18.80940086,0.66544547
65bfaace4062b6540bf95077,55,1,2024-02-28T16:04:27.725Z,french_29.wav,0,poule,529,24,5,5,Francais,m,0,0.0,21.77688976,1.0440217
65bfaace4062b6540bf95077,55,1,2024-02-28T16:04:27.725Z,french_29.wav,0,poule,529,24,5,5,Francais,m,1,0.1,24.23496893,1.09015273
65bfaace4062b6540bf95077,55,1,2024-02-28T16:04:27.725Z,french_29.wav,0,poule,529,24,5,5,Francais,m,2,0.2,-77.17155219,1.90323548
65bfaace4062b6540bf95077,55,1,2024-02-28T16:04:27.725Z,french_29.wav,0,poule,529,24,5,5,Francais,m,3,0.3,-60.073072,1.85202453
65bfaace4062b6540bf95077,55,1,2024-02-28T16:04:27.725Z,french_29.wav,0,poule,529,24,5,5,Francais,m,4,0.4,-50.13575325,0.8874885
65bfaace4062b6540bf95077,55,1,2024-02-28T16:04:27.725Z,french_29.wav,0,poule,529,24,5,5,Francais,m,5,0.5,-77.43985725,1.8117264
65bfaace4062b6540bf95077,55,1,2024-02-28T16:04:27.725Z,french_29.wav,0,poule,529,24,5,5,Francais,m,6,0.6,10.83492936,1.39622978
65bfaace4062b6540bf95077,55,1,2024-02-28T16:04:27.725Z,french_29.wav,0,poule,529,24,5,5,Francais,m,7,0.7,41.96864578,0.35259402
65bfaace4062b6540bf95077,55,1,2024-02-28T16:04:27.725Z,french_29.wav,0,poule,529,24,5,5,Francais,m,8,0.8,24.15001974,1.18506837
65bfaace4062b6540bf95077,55,1,2024-02-28T16:04:27.725Z,french_29.wav,0,poule,529,24,5,5,Francais,m,9,0.9,36.26552414,1.17740145
65bfaace4062b6540bf95077,55,1,2024-02-28T16:04:27.725Z,french_29.wav,0,poule,529,24,5,5,Francais,m,10,1.0,52.90736108,1.00535822
65bfaace4062b6540bf95077,55,1,2024-02-28T16:04:27.725Z,french_29.wav,0,poule,529,24,5,5,Francais,m,11,1.1,63.28977691,0.9642083
65bfaace4062b6540bf95077,55,1,2024-02-28T16:04:27.725Z,french_29.wav,0,poule,529,24,5,5,Francais,m,12,1.14141667,-48.15622319,1.23423226
65bfaace4062b6540bf95077,56,1,2024-02-28T16:04:27.725Z,french_163.wav,0,pull,908,24,5,5,Francais,m,0,0.0,-54.18087261,1.1359435
65bfaace4062b6540bf95077,56,1,2024-02-28T16:04:27.725Z,french_163.wav,0,pull,908,24,5,5,Francais,m,1,0.1,16.52339616,0.63765305
65bfaace4062b6540bf95077,56,1,2024-02-28T16:04:27.725Z,french_163.wav,0,pull,908,24,5,5,Francais,m,2,0.2,-81.79229621,1.13865233
65bfaace4062b6540bf95077,56,1,2024-02-28T16:04:27.725Z,french_163.wav,0,pull,908,24,5,5,Francais,m,3,0.3,-16.22352484,0.41075248
65bfaace4062b6540bf95077,56,1,2024-02-28T16:04:27.725Z,french_163.wav,0,pull,908,24,5,5,Francais,m,4,0.4,58.55115093,1.28098279
65bfaace4062b6540bf95077,56,1,2024-02-28T16:04:27.725Z,french_163.wav,0,pull,908,24,5,5,Francais,m,5,0.5,66.43980446,1.3514993
65bfaace4062b6540bf95077,56,1,2024-02-28T16:04:27.725Z,french_163.wav,0,pull,908,24,5,5,Francais,m,6,0.6,70.08690973,1.92825974
65bfaace4062b6540bf95077,56,1,2024-02-28T16:04:27.725Z,french_163.wav,0,pull,908,24,5,5,Francais,m,7,0.7,0.21359559,1.1981292
65bfaace4062b6540bf95077,56,1,2024-02-28T16:04:27.725Z,french_163.wav,0,pull,908,24,5,5,Francais,m,8,0.8,-1.74176691,0.77184811
65bfaace4062b6540bf95077,56,1,2024-02-28T16:04:27.725Z,french_163.wav,0,pull,908,24,5,5,Francais,m,9,0.9,-18.30540854,1.15917036
65bfaace4062b6540bf95077,56,1,2024-02-28T16:04:27.725Z,french_163.wav,0,pull,908,24,5,5,Francais,m,10,1.0,-46.68759163,0.4764557
65bfaace4062b6540bf95077,56,1,2024-02-28T16:04:27.725Z,french_163.wav,0,pull,908,24,5,5,Francais,m,11,1.1,-9.78920497,0.00915949
65bfaace4062b6540bf95077,56,1,2024-02-28T16:04:27.725Z,french_163.wav,0,pull,908,24,5,5,Francais,m,12,1.14141667,74.28807409,1.50578286
65bfaace4062b6540bf95077,57,1,2024-02-28T16:04:27.725Z,french_629.wav,0,poule,955,24,5,5,Francais,m,0,0.0,5.98508215,0.06445834
65bfaace4062b6540bf95077,57,1,2024-02-28T16:04:27.725Z,french_629.wav,0,poule,955,24,5,5,Francais,m,1,0.1,99.19738459,1.43064101
65bfaace4062b6540bf95077,57,1,2024-02-28T16:04:27.725Z,french_629.wav,0,poule,955,24,5,5,Francais,m,2,0.2,-25.60726918,0.97062544
65bfaace4062b6540bf95077,57,1,2024-02-28T16:04:27.725Z,french_629.wav,0,poule,955,24,5,5,Francais,m,3,0.3,-26.1182931,0.94934806
65bfaace4062b6540bf95077,57,1,2024-02-28T16:04:27.725Z,french_629.wav,0,poule,955,24,5,5,Francais,m,4,0.4,-54.19966731,0.4330015
65bfaace4062b6540bf95077,57,1,2024-02-28T16:04:27.725Z,french_629.wav,0,poule,955,24,5,5,Francais,m,5,0.5,-29.12110138,1.79179318
65bfaace4062b6540bf95077,57,1,2024-02-28T16:04:27.725Z,french_629.wav,0,poule,955,24,5,5,Francais,m,6,0.6,11.81276868,0.5927928
65bfaace4062b6540bf95077,57,1,2024-02-28T16:04:27.725Z,french_629.wav,0,poule,955,24,5,5,Francais,m,7,0.7,64.60926562,1.92834464
65bfaace4062b6540bf95077,57,1,2024-02-28T16:04:27.725Z,french_629.wav,0,poule,955,24,5,5,Francais,m,8,0.8,-90.82568408,1.42833582
65bfaace4062b6540bf95077,57,1,2024-02-28T16:04:27.725Z,french_629.wav,0,poule,955,24,5,5,Francais,m,9,0.9,1.57809304,1.02511423
65bfaace4062b6540bf95077,57,1,2024-02-28T16:04:27.725Z,french_629.wav,0,poule,955,24,5,5,Francais,m,10,1.0,-36.67521205,1.4168199
65bfaace4062b6540bf95077,57,1,2024-02-28T16:04:27.725Z,french_629.wav,0,poule,955,24,5,5,Francais,m,11,1.1,-30.40407259,0.13133008
65bfaace4062b6540bf95077,57,1,2024-02-28T16:04:27.725Z,french_629.wav,0,poule,955,24,5,5,Francais,m,12,1.14141667,-57.84923793,0.89615645
65bfaace4062b6540bf95077,58,1,2024-02-28T16:04:27.725Z,french_773.wav,0,poule,521,24,5,5,Francais,m,0,0.0,90.88397921,1.06737054
65bfaace4062b6540bf95077,58,1,2024-02-28T16:04:27.725Z,french_773.wav,0,poule,521,24,5,5,Francais,m,1,0.1,-97.74548221,0.14530111
65bfaace4062b6540bf95077,58,1,2024-02-28T16:04:27.725Z,french_773.wav,0,poule,521,24,5,5,Francais,m,2,0.2,-81.77453318,1.50560224
65bfaace4062b6540bf95077,58,1,2024-02-28T16:04:27.725Z,french_773.wav,0,poule,521,24,5,5,Francais,m,3,0.3,-60.4929378,1.01956339
65bfaace4062b6540bf95077,58,1,2024-02-28T16:04:27.725Z,french_773.wav,0,poule,521,24,5,5,Francais,m,4,0.4,14.2654909,1.222014
65bfaace4062b6540bf95077,58,1,2024-02-28T16:04:27.725Z,french_773.wav,0,poule,521,24,5,5,Francais,m,5,0.5,13.48693384,0.55664854
65bfaace4062b6540bf95077,58,1,2024-02-28T16:04:27.725Z,french_773.wav,0,poule,521,24,5,5,Francais,m,6,0.6,-78.61444355,0.94800925
65bfaace4062b6540bf95077,58,1,2024-02-28T16:04:27.725Z,french_773.wav,0,poule,521,24,5,5,Francais,m,7,0.7,52.86531268,0.50565971
65bfaace4062b6540bf95077,58,1,2024-02-28T16:04:27.725Z,french_773.wav,0,poule,521,24,5,5,Francais,m,8,0.8,17.19518197,0.02729331
65bfaace4062b6540bf95077,58,1,2024-02-28T16:04:27.725Z,french_773.wav,0,poule,521,24,5,5,Francais,m,9,0.9,-49.96848683,1.80400274
65bfaace4062b6540bf95077,58,1,2024-02-28T16:04:27.725Z,french_773.wav,0,poule,521,24,5,5,Francais,m,10,1.0,-36.06899071,0.44266383
65bfaace4062b6540bf95077,58,1,2024-02-28T16:04:27.725Z,french_773.wav,0,poule,521,24,5,5,Francais,m,11,1.1,-4.80556283,0.36556726
65bfaace4062b6540bf95077,58,1,2024-02-28T16:04:27.725Z,french_773.wav,0,poule,521,24,5,5,Francais,m,12,1.14141667,-57.10011079,0.33818106
65bfaace4062b6540bf95077,59,1,2024-02-28T16:04:27.725Z,french_897.wav,0,poule,672,24,5,5,Francais,m,0,0.0,-26.22801359,1.74666581
65bfaace4062b6540bf95077,59,1,2024-02-28T16:04:27.725Z,french_897.wav,0,poule,672,24,5,5,Francais,m,1,0.1,54.88249524,0.37705953
65bfaace4062b6540bf95077,59,1,2024-02-28T16:04:27.725Z,french_897.wav,0,poule,672,24,5,5,Francais,m,2,0.2,-61.89999753,1.97260084
