subj,trial,block,date,stim,stim_order,response,rt,age,english,french,language,sex,param_index,segment,pitch,stretch
5bc8dccd0f10750001d70a1c,0,0,2024-02-27T11:05:45.707Z,french_6.wav,0,poule,3512,40,3,5,français,m,0,0.0,27.45592216,0.54844543
5bc8dccd0f10750001d70a1c,0,0,2024-02-27T11:05:45.707Z,french_6.wav,0,poule,3512,40,3,5,français,m,1,0.1,-62.22353357,0.8427617
5bc8dccd0f10750001d70a1c,0,0,2024-02-27T11:05:45.707Z,french_6.wav,0,poule,3512,40,3,5,français,m,2,0.2,-92.28039871,0.90079623
5bc8dccd0f10750001d70a1c,0,0,2024-02-27T11:05:45.707Z,french_6.wav,0,poule,3512,40,3,5,français,m,3,0.3,-45.49726298,0.58973995
5bc8dccd0f10750001d70a1c,0,0,2024-02-27T11:05:45.707Z,french_6.wav,0,poule,3512,40,3,5,français,m,4,0.4,60.23001679,1.03996406
5bc8dccd0f10750001d70a1c,0,0,2024-02-27T11:05:45.707Z,french_6.wav,0,poule,3512,40,3,5,français,m,5,0.5,43.00364091,0.42947422
5bc8dccd0f10750001d70a1c,0,0,2024-02-27T11:05:45.707Z,french_6.wav,0,poule,3512,40,3,5,français,m,6,0.6,-93.39074753,1.03262215
5bc8dccd0f10750001d70a1c,0,0,2024-02-27T11:05:45.707Z,french_6.wav,0,poule,3512,40,3,5,français,m,7,0.7,58.97930401,0.82620221
5bc8dccd0f10750001d70a1c,0,0,2024-02-27T11:05:45.707Z,french_6.wav,0,poule,3512,40,3,5,français,m,8,0.8,83.76733066,1.23487026
5bc8dccd0f10750001d70a1c,0,0,2024-02-27T11:05:45.707Z,french_6.wav,0,poule,3512,40,3,5,français,m,9,0.9,8.08054163,1.14585448
5bc8dccd0f10750001d70a1c,0,0,2024-02-27T11:05:45.707Z,french_6.wav,0,poule,3512,40,3,5,français,m,10,1.0,43.76190446,0.53858988
5bc8dccd0f10750001d70a1c,0,0,2024-02-27T11:05:45.707Z,french_6.wav,0,poule,3512,40,3,5,français,m,11,1.1,-1.37823078,0.26561002
5bc8dccd0f10750001d70a1c,0,0,2024-02-27T11:05:45.707Z,french_6.wav,0,poule,3512,40,3,5,français,m,12,1.14141667,-31.12824275,1.58779407
5bc8dccd0f10750001d70a1c,1,0,2024-02-27T11:05:45.707Z,french_923.wav,0,pull,1580,40,3,5,français,m,0,0.0,-7.04216505,1.22183085
5bc8dccd0f10750001d70a1c,1,0,2024-02-27T11:05:45.707Z,french_923.wav,0,pull,1580,40,3,5,français,m,1,0.1,-11.87234916,1.49208882
5bc8dccd0f10750001d70a1c,1,0,2024-02-27T11:05:45.707Z,french_923.wav,0,pull,1580,40,3,5,français,m,2,0.2,-44.2803311,1.66594676
5bc8dccd0f10750001d70a1c,1,0,2024-02-27T11:05:45.707Z,french_923.wav,0,pull,1580,40,3,5,français,m,3,0.3,-33.48539095,1.20857206
5bc8dccd0f10750001d70a1c,1,0,2024-02-27T11:05:45.707Z,french_923.wav,0,pull,1580,40,3,5,français,m,4,0.4,-30.66632825,1.55100571
5bc8dccd0f10750001d70a1c,1,0,2024-02-27T11:05:45.707Z,french_923.wav,0,pull,1580,40,3,5,français,m,5,0.5,5.12098552,1.20066823
5bc8dccd0f10750001d70a1c,1,0,2024-02-27T11:05:45.707Z,french_923.wav,0,pull,1580,40,3,5,français,m,6,0.6,76.31297074,0.51155743
5bc8dccd0f10750001d70a1c,1,0,2024-02-27T11:05:45.707Z,french_923.wav,0,pull,1580,40,3,5,français,m,7,0.7,-95.75714611,1.22623112
5bc8dccd0f10750001d70a1c,1,0,2024-02-27T11:05:45.707Z,french_923.wav,0,pull,1580,40,3,5,français,m,8,0.8,-15.0883645,1.3067619
5bc8dccd0f10750001d70a1c,1,0,2024-02-27T11:05:45.707Z,french_923.wav,0,pull,1580,40,3,5,français,m,9,0.9,-66.51821809,0.27321929
5bc8dccd0f10750001d70a1c,1,0,2024-02-27T11:05:45.707Z,french_923.wav,0,pull,1580,40,3,5,français,m,10,1.0,24.92927073,1.50495187
5bc8dccd0f10750001d70a1c,1,0,2024-02-27T11:05:45.707Z,french_923.wav,0,pull,1580,40,3,5,français,m,11,1.1,28.15773493,0.60510891
5bc8dccd0f10750001d70a1c,1,0,2024-02-27T11:05:45.707Z,french_923.wav,0,pull,1580,40,3,5,français,m,12,1.14141667,-73.78496191,0.95799251
5bc8dccd0f10750001d70a1c,2,0,2024-02-27T11:05:45.707Z,french_12.wav,0,poule,791,40,3,5,français,m,0,0.0,-48.68172333,0.07655503
5bc8dccd0f10750001d70a1c,2,0,2024-02-27T11:05:45.707Z,french_12.wav,0,poule,791,40,3,5,français,m,1,0.1,70.91397052,0.75975218
5bc8dccd0f10750001d70a1c,2,0,2024-02-27T11:05:45.707Z,french_12.wav,0,poule,791,40,3,5,français,m,2,0.2,-17.86739247,0.97135406
5bc8dccd0f10750001d70a1c,2,0,2024-02-27T11:05:45.707Z,french_12.wav,0,poule,791,40,3,5,français,m,3,0.3,-14.73225587,1.230876
5bc8dccd0f10750001d70a1c,2,0,2024-02-27T11:05:45.707Z,french_12.wav,0,poule,791,40,3,5,français,m,4,0.4,75.23392581,0.11397004
5bc8dccd0f10750001d70a1c,2,0,2024-02-27T11:05:45.707Z,french_12.wav,0,poule,791,40,3,5,français,m,5,0.5,-0.38538353,0.1757259
5bc8dccd0f10750001d70a1c,2,0,2024-02-27T11:05:45.707Z,french_12.wav,0,poule,791,40,3,5,français,m,6,0.6,-22.9614484,0.21281103
5bc8dccd0f10750001d70a1c,2,0,2024-02-27T11:05:45.707Z,french_12.wav,0,poule,791,40,3,5,français,m,7,0.7,16.8886563,0.16946373
5bc8dccd0f10750001d70a1c,2,0,2024-02-27T11:05:45.707Z,french_12.wav,0,poule,791,40,3,5,français,m,8,0.8,33.5798334,0.97186419
5bc8dccd0f10750001d70a1c,2,0,2024-02-27T11:05:45.707Z,french_12.wav,0,poule,791,40,3,5,français,m,9,0.9,-4.41287917,0.8719393
5bc8dccd0f10750001d70a1c,2,0,2024-02-27T11:05:45.707Z,french_12.wav,0,poule,791,40,3,5,français,m,10,1.0,-95.96681656,1.93533156
5bc8dccd0f10750001d70a1c,2,0,2024-02-27T11:05:45.707Z,french_12.wav,0,poule,791,40,3,5,français,m,11,1.1,26.54904609,1.01102189
5bc8dccd0f10750001d70a1c,2,0,2024-02-27T11:05:45.707Z,french_12.wav,0,poule,791,40,3,5,français,m,12,1.14141667,-64.50952247,1.51400696
5bc8dccd0f10750001d70a1c,3,0,2024-02-27T11:05:45.707Z,french_934.wav,0,pull,2266,40,3,5,français,m,0,0.0,40.53181797,0.21292602
5bc8dccd0f10750001d70a1c,3,0,2024-02-27T11:05:45.707Z,french_934.wav,0,pull,2266,40,3,5,français,m,1,0.1,-79.79622597,0.44319206
5bc8dccd0f10750001d70a1c,3,0,2024-02-27T11:05:45.707Z,french_934.wav,0,pull,2266,40,3,5,français,m,2,0.2,21.49735674,1.24358812
5bc8dccd0f10750001d70a1c,3,0,2024-02-27T11:05:45.707Z,french_934.wav,0,pull,2266,40,3,5,français,m,3,0.3,-55.73934916,1.8690662
5bc8dccd0f10750001d70a1c,3,0,2024-02-27T11:05:45.707Z,french_934.wav,0,pull,2266,40,3,5,français,m,4,0.4,23.20661572,0.54697535
5bc8dccd0f10750001d70a1c,3,0,2024-02-27T11:05:45.707Z,french_934.wav,0,pull,2266,40,3,5,français,m,5,0.5,41.97074765,1.30478826
5bc8dccd0f10750001d70a1c,3,0,2024-02-27T11:05:45.707Z,french_934.wav,0,pull,2266,40,3,5,français,m,6,0.6,52.27145184,0.63048123
5bc8dccd0f10750001d70a1c,3,0,2024-02-27T11:05:45.707Z,french_934.wav,0,pull,2266,40,3,5,français,m,7,0.7,93.05733645,0.02951906
5bc8dccd0f10750001d70a1c,3,0,2024-02-27T11:05:45.707Z,french_934.wav,0,pull,2266,40,3,5,français,m,8,0.8,-66.29005128,0.85764237
5bc8dccd0f10750001d70a1c,3,0,2024-02-27T11:05:45.707Z,french_934.wav,0,pull,2266,40,3,5,français,m,9,0.9,33.10891926,0.24417151
5bc8dccd0f10750001d70a1c,3,0,2024-02-27T11:05:45.707Z,french_934.wav,0,pull,2266,40,3,5,français,m,10,1.0,32.34405322,0.30221595
5bc8dccd0f10750001d70a1c,3,0,2024-02-27T11:05:45.707Z,french_934.wav,0,pull,2266,40,3,5,français,m,11,1.1,-79.37829408,0.36799269
5bc8dccd0f10750001d70a1c,3,0,2024-02-27T11:05:45.707Z,french_934.wav,0,pull,2266,40,3,5,français,m,12,1.14141667,-10.98356943,0.09235364
5bc8dccd0f10750001d70a1c,4,0,2024-02-27T11:05:45.707Z,french_547.wav,0,poule,378,40,3,5,français,m,0,0.0,80.48601898,0.18503281
5bc8dccd0f10750001d70a1c,4,0,2024-02-27T11:05:45.707Z,french_547.wav,0,poule,378,40,3,5,français,m,1,0.1,-82.50913866,0.81881683
5bc8dccd0f10750001d70a1c,4,0,2024-02-27T11:05:45.707Z,french_547.wav,0,poule,378,40,3,5,français,m,2,0.2,6.00601262,1.8365813
5bc8dccd0f10750001d70a1c,4,0,2024-02-27T11:05:45.707Z,french_547.wav,0,poule,378,40,3,5,français,m,3,0.3,-52.03089001,0.68261836
5bc8dccd0f10750001d70a1c,4,0,2024-02-27T11:05:45.707Z,french_547.wav,0,poule,378,40,3,5,français,m,4,0.4,10.6301769,0.68706525
5bc8dccd0f10750001d70a1c,4,0,2024-02-27T11:05:45.707Z,french_547.wav,0,poule,378,40,3,5,français,m,5,0.5,-9.22890069,0.06025487
5bc8dccd0f10750001d70a1c,4,0,2024-02-27T11:05:45.707Z,french_547.wav,0,poule,378,40,3,5,français,m,6,0.6,-53.07196993,1.71512608
5bc8dccd0f10750001d70a1c,4,0,2024-02-27T11:05:45.707Z,french_547.wav,0,poule,378,40,3,5,français,m,7,0.7,61.54832929,0.13023203
5bc8dccd0f10750001d70a1c,4,0,2024-02-27T11:05:45.707Z,french_547.wav,0,poule,378,40,3,5,français,m,8,0.8,29.36466098,1.42209591
5bc8dccd0f10750001d70a1c,4,0,2024-02-27T11:05:45.707Z,french_547.wav,0,poule,378,40,3,5,français,m,9,0.9,23.32136868,1.17584739
5bc8dccd0f10750001d70a1c,4,0,2024-02-27T11:05:45.707Z,french_547.wav,0,poule,378,40,3,5,français,m,10,1.0,-8.53674855,0.5237891
5bc8dccd0f10750001d70a1c,4,0,2024-02-27T11:05:45.707Z,french_547.wav,0,poule,378,40,3,5,français,m,11,1.1,-34.18000373,0.91325729
5bc8dccd0f10750001d70a1c,4,0,2024-02-27T11:05:45.707Z,french_547.wav,0,poule,378,40,3,5,français,m,12,1.14141667,-4.42974974,0.09221967
5bc8dccd0f10750001d70a1c,5,0,2024-02-27T11:05:45.707Z,french_596.wav,0,pull,371,40,3,5,français,m,0,0.0,25.32476691,0.41173588
5bc8dccd0f10750001d70a1c,5,0,2024-02-27T11:05:45.707Z,french_596.wav,0,pull,371,40,3,5,français,m,1,0.1,44.36074842,1.74625808
5bc8dccd0f10750001d70a1c,5,0,2024-02-27T11:05:45.707Z,french_596.wav,0,pull,371,40,3,5,français,m,2,0.2,-34.00000172,0.12743898
5bc8dccd0f10750001d70a1c,5,0,2024-02-27T11:05:45.707Z,french_596.wav,0,pull,371,40,3,5,français,m,3,0.3,-83.97211332,1.08814614
5bc8dccd0f10750001d70a1c,5,0,2024-02-27T11:05:45.707Z,french_596.wav,0,pull,371,40,3,5,français,m,4,0.4,-67.81285243,1.40676606
5bc8dccd0f10750001d70a1c,5,0,2024-02-27T11:05:45.707Z,french_596.wav,0,pull,371,40,3,5,français,m,5,0.5,-47.23063602,1.58344919
5bc8dccd0f10750001d70a1c,5,0,2024-02-27T11:05:45.707Z,french_596.wav,0,pull,371,40,3,5,français,m,6,0.6,16.74337834,1.02150308
5bc8dccd0f10750001d70a1c,5,0,2024-02-27T11:05:45.707Z,french_596.wav,0,pull,371,40,3,5,français,m,7,0.7,8.70571627,0.52497255
5bc8dccd0f10750001d70a1c,5,0,2024-02-27T11:05:45.707Z,french_596.wav,0,pull,371,40,3,5,français,m,8,0.8,-11.2153712,1.52228575
5bc8dccd0f10750001d70a1c,5,0,2024-02-27T11:05:45.707Z,french_596.wav,0,pull,371,40,3,5,français,m,9,0.9,-38.44147327,0.06700932
5bc8dccd0f10750001d70a1c,5,0,2024-02-27T11:05:45.707Z,french_596.wav,0,pull,371,40,3,5,français,m,10,1.0,57.69114878,1.44433383
5bc8dccd0f10750001d70a1c,5,0,2024-02-27T11:05:45.707Z,french_596.wav,0,pull,371,40,3,5,français,m,11,1.1,50.03997699,0.49967239
5bc8dccd0f10750001d70a1c,5,0,2024-02-27T11:05:45.707Z,french_596.wav,0,pull,371,40,3,5,français,m,12,1.14141667,-17.41619031,0.57328506
5bc8dccd0f10750001d70a1c,6,0,2024-02-27T11:05:45.707Z,french_284.wav,0,poule,308,40,3,5,français,m,0,0.0,16.48622703,0.51717934
5bc8dccd0f10750001d70a1c,6,0,2024-02-27T11:05:45.707Z,french_284.wav,0,poule,308,40,3,5,français,m,1,0.1,2.26495014,1.60229173
5bc8dccd0f10750001d70a1c,6,0,2024-02-27T11:05:45.707Z,french_284.wav,0,poule,308,40,3,5,français,m,2,0.2,18.12009667,1.8758053
5bc8dccd0f10750001d70a1c,6,0,2024-02-27T11:05:45.707Z,french_284.wav,0,poule,308,40,3,5,français,m,3,0.3,62.57261775,1.66078305
5bc8dccd0f10750001d70a1c,6,0,2024-02-27T11:05:45.707Z,french_284.wav,0,poule,308,40,3,5,français,m,4,0.4,38.21878831,0.36271544
5bc8dccd0f10750001d70a1c,6,0,2024-02-27T11:05:45.707Z,french_284.wav,0,poule,308,40,3,5,français,m,5,0.5,-10.58729406,0.67338252
5bc8dccd0f10750001d70a1c,6,0,2024-02-27T11:05:45.707Z,french_284.wav,0,poule,308,40,3,5,français,m,6,0.6,-28.71227124,0.95589202
5bc8dccd0f10750001d70a1c,6,0,2024-02-27T11:05:45.707Z,french_284.wav,0,poule,308,40,3,5,français,m,7,0.7,33.18992905,0.48081388
5bc8dccd0f10750001d70a1c,6,0,2024-02-27T11:05:45.707Z,french_284.wav,0,poule,308,40,3,5,français,m,8,0.8,42.51171858,1.37144398
5bc8dccd0f10750001d70a1c,6,0,2024-02-27T11:05:45.707Z,french_284.wav,0,poule,308,40,3,5,français,m,9,0.9,-0.53891245,0.67164097
5bc8dccd0f10750001d70a1c,6,0,2024-02-27T11:05:45.707Z,french_284.wav,0,poule,308,40,3,5,français,m,10,1.0,-90.42609214,0.62108777
5bc8dccd0f10750001d70a1c,6,0,2024-02-27T11:05:45.707Z,french_284.wav,0,poule,308,40,3,5,français,m,11,1.1,29.69063186,0.42350623
5bc8dccd0f10750001d70a1c,6,0,2024-02-27T11:05:45.707Z,french_284.wav,0,poule,308,40,3,5,français,m,12,1.14141667,74.07567772,1.43401958
5bc8dccd0f10750001d70a1c,7,0,2024-02-27T11:05:45.707Z,french_538.wav,0,poule,405,40,3,5,français,m,0,0.0,20.57677794,1.38711038
5bc8dccd0f10750001d70a1c,7,0,2024-02-27T11:05:45.707Z,french_538.wav,0,poule,405,40,3,5,français,m,1,0.1,-39.61392236,0.72793815
5bc8dccd0f10750001d70a1c,7,0,2024-02-27T11:05:45.707Z,french_538.wav,0,poule,405,40,3,5,français,m,2,0.2,-45.04759687,0.58138665
5bc8dccd0f10750001d70a1c,7,0,2024-02-27T11:05:45.707Z,french_538.wav,0,poule,405,40,3,5,français,m,3,0.3,13.02336847,0.36012253
5bc8dccd0f10750001d70a1c,7,0,2024-02-27T11:05:45.707Z,french_538.wav,0,poule,405,40,3,5,français,m,4,0.4,90.60925013,1.75461796
5bc8dccd0f10750001d70a1c,7,0,2024-02-27T11:05:45.707Z,french_538.wav,0,poule,405,40,3,5,français,m,5,0.5,-75.04739637,0.9845207
5bc8dccd0f10750001d70a1c,7,0,2024-02-27T11:05:45.707Z,french_538.wav,0,poule,405,40,3,5,français,m,6,0.6,-17.92101924,1.10875334
5bc8dccd0f10750001d70a1c,7,0,2024-02-27T11:05:45.707Z,french_538.wav,0,poule,405,40,3,5,français,m,7,0.7,-84.21353272,1.78005401
5bc8dccd0f10750001d70a1c,7,0,2024-02-27T11:05:45.707Z,french_538.wav,0,poule,405,40,3,5,français,m,8,0.8,47.2379497,0.26796674
5bc8dccd0f10750001d70a1c,7,0,2024-02-27T11:05:45.707Z,french_538.wav,0,poule,405,40,3,5,français,m,9,0.9,-5.11712126,0.97835653
5bc8dccd0f10750001d70a1c,7,0,2024-02-27T11:05:45.707Z,french_538.wav,0,poule,405,40,3,5,français,m,10,1.0,-51.87175563,1.7494376
5bc8dccd0f10750001d70a1c,7,0,2024-02-27T11:05:45.707Z,french_538.wav,0,poule,405,40,3,5,français,m,11,1.1,-23.54809706,0.19527395
5bc8dccd0f10750001d70a1c,7,0,2024-02-27T11:05:45.707Z,french_538.wav,0,poule,405,40,3,5,français,m,12,1.14141667,-19.60047968,0.35274247
5bc8dccd0f10750001d70a1c,8,0,2024-02-27T11:05:45.707Z,french_169.wav,0,poule,185,40,3,5,français,m,0,0.0,59.42185537,0.83159375
5bc8dccd0f10750001d70a1c,8,0,2024-02-27T11:05:45.707Z,french_169.wav,0,poule,185,40,3,5,français,m,1,0.1,88.63481017,1.38556946
5bc8dccd0f10750001d70a1c,8,0,2024-02-27T11:05:45.707Z,french_169.wav,0,poule,185,40,3,5,français,m,2,0.2,-30.81317289,0.96575103
5bc8dccd0f10750001d70a1c,8,0,2024-02-27T11:05:45.707Z,french_169.wav,0,poule,185,40,3,5,français,m,3,0.3,8.8361544,1.88843059
5bc8dccd0f10750001d70a1c,8,0,2024-02-27T11:05:45.707Z,french_169.wav,0,poule,185,40,3,5,français,m,4,0.4,33.34891954,1.15602215
5bc8dccd0f10750001d70a1c,8,0,2024-02-27T11:05:45.707Z,french_169.wav,0,poule,185,40,3,5,français,m,5,0.5,19.12772392,1.03022827
5bc8dccd0f10750001d70a1c,8,0,2024-02-27T11:05:45.707Z,french_169.wav,0,poule,185,40,3,5,français,m,6,0.6,-29.4196349,1.76601862
5bc8dccd0f10750001d70a1c,8,0,2024-02-27T11:05:45.707Z,french_169.wav,0,poule,185,40,3,5,français,m,7,0.7,-66.8991604,0.44859055
5bc8dccd0f10750001d70a1c,8,0,2024-02-27T11:05:45.707Z,french_169.wav,0,poule,185,40,3,5,français,m,8,0.8,-49.84424897,0.70503729
5bc8dccd0f10750001d70a1c,8,0,2024-02-27T11:05:45.707Z,french_169.wav,0,poule,185,40,3,5,français,m,9,0.9,55.00508098,1.09617092
5bc8dccd0f10750001d70a1c,8,0,2024-02-27T11:05:45.707Z,french_169.wav,0,poule,185,40,3,5,français,m,10,1.0,-98.33346696,1.2567147
5bc8dccd0f10750001d70a1c,8,0,2024-02-27T11:05:45.707Z,french_169.wav,0,poule,185,40,3,5,français,m,11,1.1,3.91350931,1.30128277
5bc8dccd0f10750001d70a1c,8,0,2024-02-27T11:05:45.707Z,french_169.wav,0,poule,185,40,3,5,français,m,12,1.14141667,24.90935392,0.9045641
5bc8dccd0f10750001d70a1c,9,0,2024-02-27T11:05:45.707Z,french_696.wav,0,poule,708,40,3,5,français,m,0,0.0,51.12204974,1.11836261
5bc8dccd0f10750001d70a1c,9,0,2024-02-27T11:05:45.707Z,french_696.wav,0,poule,708,40,3,5,français,m,1,0.1,69.11763205,1.63755327
5bc8dccd0f10750001d70a1c,9,0,2024-02-27T11:05:45.707Z,french_696.wav,0,poule,708,40,3,5,français,m,2,0.2,-22.4683762,1.2576873
5bc8dccd0f10750001d70a1c,9,0,2024-02-27T11:05:45.707Z,french_696.wav,0,poule,708,40,3,5,français,m,3,0.3,63.09030841,0.1375584
5bc8dccd0f10750001d70a1c,9,0,2024-02-27T11:05:45.707Z,french_696.wav,0,poule,708,40,3,5,français,m,4,0.4,-30.45237328,0.47559054
5bc8dccd0f10750001d70a1c,9,0,2024-02-27T11:05:45.707Z,french_696.wav,0,poule,708,40,3,5,français,m,5,0.5,-17.83971395,0.61695793
5bc8dccd0f10750001d70a1c,9,0,2024-02-27T11:05:45.707Z,french_696.wav,0,poule,708,40,3,5,français,m,6,0.6,68.11299439,0.97640565
5bc8dccd0f10750001d70a1c,9,0,2024-02-27T11:05:45.707Z,french_696.wav,0,poule,708,40,3,5,français,m,7,0.7,1.59231253,0.92305677
5bc8dccd0f10750001d70a1c,9,0,2024-02-27T11:05:45.707Z,french_696.wav,0,poule,708,40,3,5,français,m,8,0.8,-13.09725485,1.6424137
5bc8dccd0f10750001d70a1c,9,0,2024-02-27T11:05:45.707Z,french_696.wav,0,poule,708,40,3,5,français,m,9,0.9,78.70207297,0.49270595
5bc8dccd0f10750001d70a1c,9,0,2024-02-27T11:05:45.707Z,french_696.wav,0,poule,708,40,3,5,français,m,10,1.0,17.85202969,1.57010511
5bc8dccd0f10750001d70a1c,9,0,2024-02-27T11:05:45.707Z,french_696.wav,0,poule,708,40,3,5,français,m,11,1.1,-86.86055992,1.08101666
5bc8dccd0f10750001d70a1c,9,0,2024-02-27T11:05:45.707Z,french_696.wav,0,poule,708,40,3,5,français,m,12,1.14141667,64.43187647,0.10478366
5bc8dccd0f10750001d70a1c,10,0,2024-02-27T11:05:45.707Z,french_592.wav,0,poule,427,40,3,5,français,m,0,0.0,70.81103316,0.54665666
5bc8dccd0f10750001d70a1c,10,0,2024-02-27T11:05:45.707Z,french_592.wav,0,poule,427,40,3,5,français,m,1,0.1,-26.4080383,0.88508354
5bc8dccd0f10750001d70a1c,10,0,2024-02-27T11:05:45.707Z,french_592.wav,0,poule,427,40,3,5,français,m,2,0.2,-0.21646814,1.19588417
5bc8dccd0f10750001d70a1c,10,0,2024-02-27T11:05:45.707Z,french_592.wav,0,poule,427,40,3,5,français,m,3,0.3,5.07209888,0.17214274
5bc8dccd0f10750001d70a1c,10,0,2024-02-27T11:05:45.707Z,french_592.wav,0,poule,427,40,3,5,français,m,4,0.4,0.60727661,0.84375355
5bc8dccd0f10750001d70a1c,10,0,2024-02-27T11:05:45.707Z,french_592.wav,0,poule,427,40,3,5,français,m,5,0.5,-4.25807997,1.80777341
5bc8dccd0f10750001d70a1c,10,0,2024-02-27T11:05:45.707Z,french_592.wav,0,poule,427,40,3,5,français,m,6,0.6,-57.11909805,0.71388549
5bc8dccd0f10750001d70a1c,10,0,2024-02-27T11:05:45.707Z,french_592.wav,0,poule,427,40,3,5,français,m,7,0.7,-40.92130442,1.31000832
5bc8dccd0f10750001d70a1c,10,0,2024-02-27T11:05:45.707Z,french_592.wav,0,poule,427,40,3,5,français,m,8,0.8,57.21863493,0.43276947
5bc8dccd0f10750001d70a1c,10,0,2024-02-27T11:05:45.707Z,french_592.wav,0,poule,427,40,3,5,français,m,9,0.9,70.04761432,1.73827866
5bc8dccd0f10750001d70a1c,10,0,2024-02-27T11:05:45.707Z,french_592.wav,0,poule,427,40,3,5,français,m,10,1.0,-50.9301359,0.70932726
5bc8dccd0f10750001d70a1c,10,0,2024-02-27T11:05:45.707Z,french_592.wav,0,poule,427,40,3,5,français,m,11,1.1,-84.24132436,0.23430707
5bc8dccd0f10750001d70a1c,10,0,2024-02-27T11:05:45.707Z,french_592.wav,0,poule,427,40,3,5,français,m,12,1.14141667,-46.29341041,1.11453021
5bc8dccd0f10750001d70a1c,11,0,2024-02-27T11:05:45.707Z,french_361.wav,0,poule,363,40,3,5,français,m,0,0.0,23.29794896,1.11856981
5bc8dccd0f10750001d70a1c,11,0,2024-02-27T11:05:45.707Z,french_361.wav,0,poule,363,40,3,5,français,m,1,0.1,-48.63531672,1.10976385
5bc8dccd0f10750001d70a1c,11,0,2024-02-27T11:05:45.707Z,french_361.wav,0,poule,363,40,3,5,français,m,2,0.2,-2.5255531,0.50841861
5bc8dccd0f10750001d70a1c,11,0,2024-02-27T11:05:45.707Z,french_361.wav,0,poule,363,40,3,5,français,m,3,0.3,8.23722274,1.92928184
5bc8dccd0f10750001d70a1c,11,0,2024-02-27T11:05:45.707Z,french_361.wav,0,poule,363,40,3,5,français,m,4,0.4,34.47158893,0.0595701
5bc8dccd0f10750001d70a1c,11,0,2024-02-27T11:05:45.707Z,french_361.wav,0,poule,363,40,3,5,français,m,5,0.5,70.14095267,1.017167
5bc8dccd0f10750001d70a1c,11,0,2024-02-27T11:05:45.707Z,french_361.wav,0,poule,363,40,3,5,français,m,6,0.6,70.11175255,1.17369511
5bc8dccd0f10750001d70a1c,11,0,2024-02-27T11:05:45.707Z,french_361.wav,0,poule,363,40,3,5,français,m,7,0.7,-68.72089611,1.20889033
5bc8dccd0f10750001d70a1c,11,0,2024-02-27T11:05:45.707Z,french_361.wav,0,poule,363,40,3,5,français,m,8,0.8,-76.42640532,0.48912562
5bc8dccd0f10750001d70a1c,11,0,2024-02-27T11:05:45.707Z,french_361.wav,0,poule,363,40,3,5,français,m,9,0.9,-24.66588818,1.44370577
5bc8dccd0f10750001d70a1c,11,0,2024-02-27T11:05:45.707Z,french_361.wav,0,poule,363,40,3,5,français,m,10,1.0,-16.02796708,1.15037108
5bc8dccd0f10750001d70a1c,11,0,2024-02-27T11:05:45.707Z,french_361.wav,0,poule,363,40,3,5,français,m,11,1.1,-1.89725955,0.53403618
5bc8dccd0f10750001d70a1c,11,0,2024-02-27T11:05:45.707Z,french_361.wav,0,poule,363,40,3,5,français,m,12,1.14141667,-29.04015326,0.0482166
5bc8dccd0f10750001d70a1c,12,0,2024-02-27T11:05:45.707Z,french_302.wav,0,poule,300,40,3,5,français,m,0,0.0,-33.52028632,1.20247244
5bc8dccd0f10750001d70a1c,12,0,2024-02-27T11:05:45.707Z,french_302.wav,0,poule,300,40,3,5,français,m,1,0.1,14.06293771,0.59103421
5bc8dccd0f10750001d70a1c,12,0,2024-02-27T11:05:45.707Z,french_302.wav,0,poule,300,40,3,5,français,m,2,0.2,-53.22339511,0.70543363
5bc8dccd0f10750001d70a1c,12,0,2024-02-27T11:05:45.707Z,french_302.wav,0,poule,300,40,3,5,français,m,3,0.3,84.66079963,1.47264463
5bc8dccd0f10750001d70a1c,12,0,2024-02-27T11:05:45.707Z,french_302.wav,0,poule,300,40,3,5,français,m,4,0.4,56.53078776,1.52121196
5bc8dccd0f10750001d70a1c,12,0,2024-02-27T11:05:45.707Z,french_302.wav,0,poule,300,40,3,5,français,m,5,0.5,52.09924325,0.90612389
5bc8dccd0f10750001d70a1c,12,0,2024-02-27T11:05:45.707Z,french_302.wav,0,poule,300,40,3,5,français,m,6,0.6,36.68626461,1.68691492
5bc8dccd0f10750001d70a1c,12,0,2024-02-27T11:05:45.707Z,french_302.wav,0,poule,300,40,3,5,français,m,7,0.7,-22.67460192,1.01798697
5bc8dccd0f10750001d70a1c,12,0,2024-02-27T11:05:45.707Z,french_302.wav,0,poule,300,40,3,5,français,m,8,0.8,43.78011135,0.90734577
5bc8dccd0f10750001d70a1c,12,0,2024-02-27T11:05:45.707Z,french_302.wav,0,poule,300,40,3,5,français,m,9,0.9,-34.77035128,1.35012392
5bc8dccd0f10750001d70a1c,12,0,2024-02-27T11:05:45.707Z,french_302.wav,0,poule,300,40,3,5,français,m,10,1.0,51.90159777,1.01237919
5bc8dccd0f10750001d70a1c,12,0,2024-02-27T11:05:45.707Z,french_302.wav,0,poule,300,40,3,5,français,m,11,1.1,37.64911617,0.20910983
5bc8dccd0f10750001d70a1c,12,0,2024-02-27T11:05:45.707Z,french_302.wav,0,poule,300,40,3,5,français,m,12,1.14141667,19.69656895,0.68199001
5bc8dccd0f10750001d70a1c,13,0,2024-02-27T11:05:45.707Z,french_54.wav,0,poule,240,40,3,5,français,m,0,0.0,65.38135872,1.51489365
5bc8dccd0f10750001d70a1c,13,0,2024-02-27T11:05:45.707Z,french_54.wav,0,poule,240,40,3,5,français,m,1,0.1,87.66268427,1.36114109
5bc8dccd0f10750001d70a1c,13,0,2024-02-27T11:05:45.707Z,french_54.wav,0,poule,240,40,3,5,français,m,2,0.2,48.01938001,1.27392763
5bc8dccd0f10750001d70a1c,13,0,2024-02-27T11:05:45.707Z,french_54.wav,0,poule,240,40,3,5,français,m,3,0.3,95.6781076,0.37365582
5bc8dccd0f10750001d70a1c,13,0,2024-02-27T11:05:45.707Z,french_54.wav,0,poule,240,40,3,5,français,m,4,0.4,83.7615857,0.57928793
5bc8dccd0f10750001d70a1c,13,0,2024-02-27T11:05:45.707Z,french_54.wav,0,poule,240,40,3,5,français,m,5,0.5,11.81086524,1.19146661
5bc8dccd0f10750001d70a1c,13,0,2024-02-27T11:05:45.707Z,french_54.wav,0,poule,240,40,3,5,français,m,6,0.6,54.72443313,0.84258764
5bc8dccd0f10750001d70a1c,13,0,2024-02-27T11:05:45.707Z,french_54.wav,0,poule,240,40,3,5,français,m,7,0.7,-43.28759443,0.59608046
5bc8dccd0f10750001d70a1c,13,0,2024-02-27T11:05:45.707Z,french_54.wav,0,poule,240,40,3,5,français,m,8,0.8,11.61193327,1.21200491
5bc8dccd0f10750001d70a1c,13,0,2024-02-27T11:05:45.707Z,french_54.wav,0,poule,240,40,3,5,français,m,9,0.9,-9.00260431,1.1607486
5bc8dccd0f10750001d70a1c,13,0,2024-02-27T11:05:45.707Z,french_54.wav,0,poule,240,40,3,5,français,m,10,1.0,-76.33349787,1.92715168
5bc8dccd0f10750001d70a1c,13,0,2024-02-27T11:05:45.707Z,french_54.wav,0,poule,240,40,3,5,français,m,11,1.1,-92.33705605,1.75114444
5bc8dccd0f10750001d70a1c,13,0,2024-02-27T11:05:45.707Z,french_54.wav,0,poule,240,40,3,5,français,m,12,1.14141667,-53.33676465,0.97911129
5bc8dccd0f10750001d70a1c,14,0,2024-02-27T11:05:45.707Z,french_909.wav,0,poule,348,40,3,5,français,m,0,0.0,-64.5782484,1.76379527
5bc8dccd0f10750001d70a1c,14,0,2024-02-27T11:05:45.707Z,french_909.wav,0,poule,348,40,3,5,français,m,1,0.1,-95.21268442,1.79782836
5bc8dccd0f10750001d70a1c,14,0,2024-02-27T11:05:45.707Z,french_909.wav,0,poule,348,40,3,5,français,m,2,0.2,-61.56262693,1.19138868
5bc8dccd0f10750001d70a1c,14,0,2024-02-27T11:05:45.707Z,french_909.wav,0,poule,348,40,3,5,français,m,3,0.3,-34.31563602,0.3364028
5bc8dccd0f10750001d70a1c,14,0,2024-02-27T11:05:45.707Z,french_909.wav,0,poule,348,40,3,5,français,m,4,0.4,34.69813289,1.85790827
5bc8dccd0f10750001d70a1c,14,0,2024-02-27T11:05:45.707Z,french_909.wav,0,poule,348,40,3,5,français,m,5,0.5,-19.20312526,1.04934312
5bc8dccd0f10750001d70a1c,14,0,2024-02-27T11:05:45.707Z,french_909.wav,0,poule,348,40,3,5,français,m,6,0.6,-58.93366075,1.33665727
5bc8dccd0f10750001d70a1c,14,0,2024-02-27T11:05:45.707Z,french_909.wav,0,poule,348,40,3,5,français,m,7,0.7,-0.21005651,1.34926899
5bc8dccd0f10750001d70a1c,14,0,2024-02-27T11:05:45.707Z,french_909.wav,0,poule,348,40,3,5,français,m,8,0.8,20.08088994,0.04343107
5bc8dccd0f10750001d70a1c,14,0,2024-02-27T11:05:45.707Z,french_909.wav,0,poule,348,40,3,5,français,m,9,0.9,-22.20564,1.26601971
5bc8dccd0f10750001d70a1c,14,0,2024-02-27T11:05:45.707Z,french_909.wav,0,poule,348,40,3,5,français,m,10,1.0,28.75495026,1.47988988
5bc8dccd0f10750001d70a1c,14,0,2024-02-27T11:05:45.707Z,french_909.wav,0,poule,348,40,3,5,français,m,11,1.1,-38.48195906,0.95787887
5bc8dccd0f10750001d70a1c,14,0,2024-02-27T11:05:45.707Z,french_909.wav,0,poule,348,40,3,5,français,m,12,1.14141667,-66.99076148,1.1698671
5bc8dccd0f10750001d70a1c,15,0,2024-02-27T11:05:45.707Z,french_456.wav,0,pull,298,40,3,5,français,m,0,0.0,-2.26654668,0.86240832
5bc8dccd0f10750001d70a1c,15,0,2024-02-27T11:05:45.707Z,french_456.wav,0,pull,298,40,3,5,français,m,1,0.1,-20.96535275,0.10770288
5bc8dccd0f10750001d70a1c,15,0,2024-02-27T11:05:45.707Z,french_456.wav,0,pull,298,40,3,5,français,m,2,0.2,-92.77471831,0.29391464
5bc8dccd0f10750001d70a1c,15,0,2024-02-27T11:05:45.707Z,french_456.wav,0,pull,298,40,3,5,français,m,3,0.3,-41.09891514,0.90200695
5bc8dccd0f10750001d70a1c,15,0,2024-02-27T11:05:45.707Z,french_456.wav,0,pull,298,40,3,5,français,m,4,0.4,21.41579928,0.53087956
5bc8dccd0f10750001d70a1c,15,0,2024-02-27T11:05:45.707Z,french_456.wav,0,pull,298,40,3,5,français,m,5,0.5,84.32473672,0.6185453
5bc8dccd0f10750001d70a1c,15,0,2024-02-27T11:05:45.707Z,french_456.wav,0,pull,298,40,3,5,français,m,6,0.6,-7.32763276,1.44054295
5bc8dccd0f10750001d70a1c,15,0,2024-02-27T11:05:45.707Z,french_456.wav,0,pull,298,40,3,5,français,m,7,0.7,52.18499563,0.32966842
5bc8dccd0f10750001d70a1c,15,0,2024-02-27T11:05:45.707Z,french_456.wav,0,pull,298,40,3,5,français,m,8,0.8,-68.20477543,1.53912075
5bc8dccd0f10750001d70a1c,15,0,2024-02-27T11:05:45.707Z,french_456.wav,0,pull,298,40,3,5,français,m,9,0.9,-22.99427194,0.23010323
5bc8dccd0f10750001d70a1c,15,0,2024-02-27T11:05:45.707Z,french_456.wav,0,pull,298,40,3,5,français,m,10,1.0,66.06872795,1.59369
5bc8dccd0f10750001d70a1c,15,0,2024-02-27T11:05:45.707Z,french_456.wav,0,pull,298,40,3,5,français,m,11,1.1,60.52269561,1.29137405
5bc8dccd0f10750001d70a1c,15,0,2024-02-27T11:05:45.707Z,french_456.wav,0,pull,298,40,3,5,français,m,12,1.14141667,-21.51058351,0.33848916
5bc8dccd0f10750001d70a1c,16,0,2024-02-27T11:05:45.707Z,french_280.wav,0,poule,275,40,3,5,français,m,0,0.0,63.30706177,0.51067849
5bc8dccd0f10750001d70a1c,16,0,2024-02-27T11:05:45.707Z,french_280.wav,0,poule,275,40,3,5,français,m,1,0.1,92.39258817,0.94358364
5bc8dccd0f10750001d70a1c,16,0,2024-02-27T11:05:45.707Z,french_280.wav,0,poule,275,40,3,5,français,m,2,0.2,-13.48987657,0.25640873
5bc8dccd0f10750001d70a1c,16,0,2024-02-27T11:05:45.707Z,french_280.wav,0,poule,275,40,3,5,français,m,3,0.3,-67.72828589,0.58771016
5bc8dccd0f10750001d70a1c,16,0,2024-02-27T11:05:45.707Z,french_280.wav,0,poule,275,40,3,5,français,m,4,0.4,-32.88602624,1.52289813
5bc8dccd0f10750001d70a1c,16,0,2024-02-27T11:05:45.707Z,french_280.wav,0,poule,275,40,3,5,français,m,5,0.5,-21.74757727,1.41394509
5bc8dccd0f10750001d70a1c,16,0,2024-02-27T11:05:45.707Z,french_280.wav,0,poule,275,40,3,5,français,m,6,0.6,-67.91477632,1.11303104
5bc8dccd0f10750001d70a1c,16,0,2024-02-27T11:05:45.707Z,french_280.wav,0,poule,275,40,3,5,français,m,7,0.7,-71.89099465,1.98467364
5bc8dccd0f10750001d70a1c,16,0,2024-02-27T11:05:45.707Z,french_280.wav,0,poule,275,40,3,5,français,m,8,0.8,-96.77863544,0.54349304
5bc8dccd0f10750001d70a1c,16,0,2024-02-27T11:05:45.707Z,french_280.wav,0,poule,275,40,3,5,français,m,9,0.9,-70.31079297,0.98875815
5bc8dccd0f10750001d70a1c,16,0,2024-02-27T11:05:45.707Z,french_280.wav,0,poule,275,40,3,5,français,m,10,1.0,-73.46248332,1.32929539
5bc8dccd0f10750001d70a1c,16,0,2024-02-27T11:05:45.707Z,french_280.wav,0,poule,275,40,3,5,français,m,11,1.1,-28.24261777,0.86616119
5bc8dccd0f10750001d70a1c,16,0,2024-02-27T11:05:45.707Z,french_280.wav,0,poule,275,40,3,5,français,m,12,1.14141667,19.33217049,0.54483998
5bc8dccd0f10750001d70a1c,17,0,2024-02-27T11:05:45.707Z,french_515.wav,0,pull,586,40,3,5,français,m,0,0.0,-4.32286311,1.75814959
5bc8dccd0f10750001d70a1c,17,0,2024-02-27T11:05:45.707Z,french_515.wav,0,pull,586,40,3,5,français,m,1,0.1,-44.33537701,1.20576492
5bc8dccd0f10750001d70a1c,17,0,2024-02-27T11:05:45.707Z,french_515.wav,0,pull,586,40,3,5,français,m,2,0.2,15.78127792,1.64200762
5bc8dccd0f10750001d70a1c,17,0,2024-02-27T11:05:45.707Z,french_515.wav,0,pull,586,40,3,5,français,m,3,0.3,-89.02885546,0.90394207
5bc8dccd0f10750001d70a1c,17,0,2024-02-27T11:05:45.707Z,french_515.wav,0,pull,586,40,3,5,français,m,4,0.4,79.00729914,1.94318296
5bc8dccd0f10750001d70a1c,17,0,2024-02-27T11:05:45.707Z,french_515.wav,0,pull,586,40,3,5,français,m,5,0.5,-35.30094338,1.3687061
5bc8dccd0f10750001d70a1c,17,0,2024-02-27T11:05:45.707Z,french_515.wav,0,pull,586,40,3,5,français,m,6,0.6,62.21827851,1.17175752
5bc8dccd0f10750001d70a1c,17,0,2024-02-27T11:05:45.707Z,french_515.wav,0,pull,586,40,3,5,français,m,7,0.7,-89.96956463,0.52620308
5bc8dccd0f10750001d70a1c,17,0,2024-02-27T11:05:45.707Z,french_515.wav,0,pull,586,40,3,5,français,m,8,0.8,-47.13344598,1.4204562
5bc8dccd0f10750001d70a1c,17,0,2024-02-27T11:05:45.707Z,french_515.wav,0,pull,586,40,3,5,français,m,9,0.9,36.11915177,0.03677736
5bc8dccd0f10750001d70a1c,17,0,2024-02-27T11:05:45.707Z,french_515.wav,0,pull,586,40,3,5,français,m,10,1.0,91.92450568,0.6940855
5bc8dccd0f10750001d70a1c,17,0,2024-02-27T11:05:45.707Z,french_515.wav,0,pull,586,40,3,5,français,m,11,1.1,-64.59862943,1.106084
5bc8dccd0f10750001d70a1c,17,0,2024-02-27T11:05:45.707Z,french_515.wav,0,pull,586,40,3,5,français,m,12,1.14141667,-64.9632151,1.16695411
5bc8dccd0f10750001d70a1c,18,0,2024-02-27T11:05:45.707Z,french_316.wav,0,pull,326,40,3,5,français,m,0,0.0,-12.35150473,1.31203929
5bc8dccd0f10750001d70a1c,18,0,2024-02-27T11:05:45.707Z,french_316.wav,0,pull,326,40,3,5,français,m,1,0.1,-57.71955323,1.95651638
5bc8dccd0f10750001d70a1c,18,0,2024-02-27T11:05:45.707Z,french_316.wav,0,pull,326,40,3,5,français,m,2,0.2,-23.70518109,0.28891018
5bc8dccd0f10750001d70a1c,18,0,2024-02-27T11:05:45.707Z,french_316.wav,0,pull,326,40,3,5,français,m,3,0.3,-30.25273583,0.36356292
5bc8dccd0f10750001d70a1c,18,0,2024-02-27T11:05:45.707Z,french_316.wav,0,pull,326,40,3,5,français,m,4,0.4,-1.94999705,0.0390578
5bc8dccd0f10750001d70a1c,18,0,2024-02-27T11:05:45.707Z,french_316.wav,0,pull,326,40,3,5,français,m,5,0.5,31.73989536,1.33065027
5bc8dccd0f10750001d70a1c,18,0,2024-02-27T11:05:45.707Z,french_316.wav,0,pull,326,40,3,5,français,m,6,0.6,-85.31776934,1.4200316
5bc8dccd0f10750001d70a1c,18,0,2024-02-27T11:05:45.707Z,french_316.wav,0,pull,326,40,3,5,français,m,7,0.7,10.96594736,0.11141775
5bc8dccd0f10750001d70a1c,18,0,2024-02-27T11:05:45.707Z,french_316.wav,0,pull,326,40,3,5,français,m,8,0.8,-63.85009412,1.65984218
5bc8dccd0f10750001d70a1c,18,0,2024-02-27T11:05:45.707Z,french_316.wav,0,pull,326,40,3,5,français,m,9,0.9,-24.55332766,0.45014395
5bc8dccd0f10750001d70a1c,18,0,2024-02-27T11:05:45.707Z,french_316.wav,0,pull,326,40,3,5,français,m,10,1.0,11.20080051,0.76494991
5bc8dccd0f10750001d70a1c,18,0,2024-02-27T11:05:45.707Z,french_316.wav,0,pull,326,40,3,5,français,m,11,1.1,59.4445927,1.39303247
5bc8dccd0f10750001d70a1c,18,0,2024-02-27T11:05:45.707Z,french_316.wav,0,pull,326,40,3,5,français,m,12,1.14141667,51.5786605,1.44009832
5bc8dccd0f10750001d70a1c,19,0,2024-02-27T11:05:45.707Z,french_39.wav,0,pull,363,40,3,5,français,m,0,0.0,-4.83126405,0.34625523
5bc8dccd0f10750001d70a1c,19,0,2024-02-27T11:05:45.707Z,french_39.wav,0,pull,363,40,3,5,français,m,1,0.1,-93.27719348,1.84955679
5bc8dccd0f10750001d70a1c,19,0,2024-02-27T11:05:45.707Z,french_39.wav,0,pull,363,40,3,5,français,m,2,0.2,6.86097489,1.652821
5bc8dccd0f10750001d70a1c,19,0,2024-02-27T11:05:45.707Z,french_39.wav,0,pull,363,40,3,5,français,m,3,0.3,-20.15926332,0.99362385
5bc8dccd0f10750001d70a1c,19,0,2024-02-27T11:05:45.707Z,french_39.wav,0,pull,363,40,3,5,français,m,4,0.4,33.74441491,1.06732755
5bc8dccd0f10750001d70a1c,19,0,2024-02-27T11:05:45.707Z,french_39.wav,0,pull,363,40,3,5,français,m,5,0.5,22.90616984,1.07307504
5bc8dccd0f10750001d70a1c,19,0,2024-02-27T11:05:45.707Z,french_39.wav,0,pull,363,40,3,5,français,m,6,0.6,-16.31202743,1.93615989
5bc8dccd0f10750001d70a1c,19,0,2024-02-27T11:05:45.707Z,french_39.wav,0,pull,363,40,3,5,français,m,7,0.7,85.71450865,1.40760145
5bc8dccd0f10750001d70a1c,19,0,2024-02-27T11:05:45.707Z,french_39.wav,0,pull,363,40,3,5,français,m,8,0.8,-47.16815434,1.81782779
5bc8dccd0f10750001d70a1c,19,0,2024-02-27T11:05:45.707Z,french_39.wav,0,pull,363,40,3,5,français,m,9,0.9,-3.29174574,0.44143398
5bc8dccd0f10750001d70a1c,19,0,2024-02-27T11:05:45.707Z,french_39.wav,0,pull,363,40,3,5,français,m,10,1.0,-12.85211307,1.64365759
5bc8dccd0f10750001d70a1c,19,0,2024-02-27T11:05:45.707Z,french_39.wav,0,pull,363,40,3,5,français,m,11,1.1,-36.64290563,0.38497075
5bc8dccd0f10750001d70a1c,19,0,2024-02-27T11:05:45.707Z,french_39.wav,0,pull,363,40,3,5,français,m,12,1.14141667,43.40200967,0.9148272
5bc8dccd0f10750001d70a1c,20,0,2024-02-27T11:05:45.707Z,french_58.wav,0,poule,376,40,3,5,français,m,0,0.0,94.28482513,1.90438259
5bc8dccd0f10750001d70a1c,20,0,2024-02-27T11:05:45.707Z,french_58.wav,0,poule,376,40,3,5,français,m,1,0.1,-8.41544404,0.61487331
5bc8dccd0f10750001d70a1c,20,0,2024-02-27T11:05:45.707Z,french_58.wav,0,poule,376,40,3,5,français,m,2,0.2,-62.96182624,1.646554
5bc8dccd0f10750001d70a1c,20,0,2024-02-27T11:05:45.707Z,french_58.wav,0,poule,376,40,3,5,français,m,3,0.3,60.34405866,1.52491918
5bc8dccd0f10750001d70a1c,20,0,2024-02-27T11:05:45.707Z,french_58.wav,0,poule,376,40,3,5,français,m,4,0.4,32.40128414,1.13010084
5bc8dccd0f10750001d70a1c,20,0,2024-02-27T11:05:45.707Z,french_58.wav,0,poule,376,40,3,5,français,m,5,0.5,-68.51454301,1.89433528
5bc8dccd0f10750001d70a1c,20,0,2024-02-27T11:05:45.707Z,french_58.wav,0,poule,376,40,3,5,français,m,6,0.6,29.82130445,0.760668
5bc8dccd0f10750001d70a1c,20,0,2024-02-27T11:05:45.707Z,french_58.wav,0,poule,376,40,3,5,français,m,7,0.7,-4.63475932,0.49529271
5bc8dccd0f10750001d70a1c,20,0,2024-02-27T11:05:45.707Z,french_58.wav,0,poule,376,40,3,5,français,m,8,0.8,-63.03753655,0.89196999
5bc8dccd0f10750001d70a1c,20,0,2024-02-27T11:05:45.707Z,french_58.wav,0,poule,376,40,3,5,français,m,9,0.9,88.63401009,0.8973393
5bc8dccd0f10750001d70a1c,20,0,2024-02-27T11:05:45.707Z,french_58.wav,0,poule,376,40,3,5,français,m,10,1.0,21.784489,0.72401301
5bc8dccd0f10750001d70a1c,20,0,2024-02-27T11:05:45.707Z,french_58.wav,0,poule,376,40,3,5,français,m,11,1.1,78.48150349,0.46484617
5bc8dccd0f10750001d70a1c,20,0,2024-02-27T11:05:45.707Z,french_58.wav,0,poule,376,40,3,5,français,m,12,1.14141667,-36.70796852,1.22177947
5bc8dccd0f10750001d70a1c,21,0,2024-02-27T11:05:45.707Z,french_861.wav,0,poule,147,40,3,5,français,m,0,0.0,-29.59207834,1.26213784
5bc8dccd0f10750001d70a1c,21,0,2024-02-27T11:05:45.707Z,french_861.wav,0,poule,147,40,3,5,français,m,1,0.1,-3.20070046,1.09688129
5bc8dccd0f10750001d70a1c,21,0,2024-02-27T11:05:45.707Z,french_861.wav,0,poule,147,40,3,5,français,m,2,0.2,-58.32537362,1.67288948
5bc8dccd0f10750001d70a1c,21,0,2024-02-27T11:05:45.707Z,french_861.wav,0,poule,147,40,3,5,français,m,3,0.3,-24.52531727,1.55651392
5bc8dccd0f10750001d70a1c,21,0,2024-02-27T11:05:45.707Z,french_861.wav,0,poule,147,40,3,5,français,m,4,0.4,4.47991904,0.60089382
5bc8dccd0f10750001d70a1c,21,0,2024-02-27T11:05:45.707Z,french_861.wav,0,poule,147,40,3,5,français,m,5,0.5,77.73095921,1.00142535
5bc8dccd0f10750001d70a1c,21,0,2024-02-27T11:05:45.707Z,french_861.wav,0,poule,147,40,3,5,français,m,6,0.6,-9.72754814,1.64754174
5bc8dccd0f10750001d70a1c,21,0,2024-02-27T11:05:45.707Z,french_861.wav,0,poule,147,40,3,5,français,m,7,0.7,78.69297703,1.0190621
5bc8dccd0f10750001d70a1c,21,0,2024-02-27T11:05:45.707Z,french_861.wav,0,poule,147,40,3,5,français,m,8,0.8,89.59895789,1.92978713
5bc8dccd0f10750001d70a1c,21,0,2024-02-27T11:05:45.707Z,french_861.wav,0,poule,147,40,3,5,français,m,9,0.9,-74.88966418,1.64032652
5bc8dccd0f10750001d70a1c,21,0,2024-02-27T11:05:45.707Z,french_861.wav,0,poule,147,40,3,5,français,m,10,1.0,-8.41302054,1.1947634
5bc8dccd0f10750001d70a1c,21,0,2024-02-27T11:05:45.707Z,french_861.wav,0,poule,147,40,3,5,français,m,11,1.1,-83.1329049,1.60781283
5bc8dccd0f10750001d70a1c,21,0,2024-02-27T11:05:45.707Z,french_861.wav,0,poule,147,40,3,5,français,m,12,1.14141667,45.5691638,0.53617129
5bc8dccd0f10750001d70a1c,22,0,2024-02-27T11:05:45.707Z,french_380.wav,0,poule,195,40,3,5,français,m,0,0.0,50.45877981,0.75315413
5bc8dccd0f10750001d70a1c,22,0,2024-02-27T11:05:45.707Z,french_380.wav,0,poule,195,40,3,5,français,m,1,0.1,27.88432033,0.97702905
5bc8dccd0f10750001d70a1c,22,0,2024-02-27T11:05:45.707Z,french_380.wav,0,poule,195,40,3,5,français,m,2,0.2,-34.53723027,0.7048892
5bc8dccd0f10750001d70a1c,22,0,2024-02-27T11:05:45.707Z,french_380.wav,0,poule,195,40,3,5,français,m,3,0.3,-69.55895419,1.70478002
5bc8dccd0f10750001d70a1c,22,0,2024-02-27T11:05:45.707Z,french_380.wav,0,poule,195,40,3,5,français,m,4,0.4,-28.41605157,1.71824888
5bc8dccd0f10750001d70a1c,22,0,2024-02-27T11:05:45.707Z,french_380.wav,0,poule,195,40,3,5,français,m,5,0.5,25.67592844,1.0555026
5bc8dccd0f10750001d70a1c,22,0,2024-02-27T11:05:45.707Z,french_380.wav,0,poule,195,40,3,5,français,m,6,0.6,-84.53806724,0.83070263
5bc8dccd0f10750001d70a1c,22,0,2024-02-27T11:05:45.707Z,french_380.wav,0,poule,195,40,3,5,français,m,7,0.7,-49.89975605,0.38580216
5bc8dccd0f10750001d70a1c,22,0,2024-02-27T11:05:45.707Z,french_380.wav,0,poule,195,40,3,5,français,m,8,0.8,75.71000255,1.32561889
5bc8dccd0f10750001d70a1c,22,0,2024-02-27T11:05:45.707Z,french_380.wav,0,poule,195,40,3,5,français,m,9,0.9,30.16060778,0.45811506
5bc8dccd0f10750001d70a1c,22,0,2024-02-27T11:05:45.707Z,french_380.wav,0,poule,195,40,3,5,français,m,10,1.0,-57.98795284,1.65372558
5bc8dccd0f10750001d70a1c,22,0,2024-02-27T11:05:45.707Z,french_380.wav,0,poule,195,40,3,5,français,m,11,1.1,-9.14146098,0.02023169
5bc8dccd0f10750001d70a1c,22,0,2024-02-27T11:05:45.707Z,french_380.wav,0,poule,195,40,3,5,français,m,12,1.14141667,61.49544023,0.39090817
5bc8dccd0f10750001d70a1c,23,0,2024-02-27T11:05:45.707Z,french_24.wav,0,poule,1978,40,3,5,français,m,0,0.0,5.31497869,0.05163285
5bc8dccd0f10750001d70a1c,23,0,2024-02-27T11:05:45.707Z,french_24.wav,0,poule,1978,40,3,5,français,m,1,0.1,-26.8625117,1.69751723
5bc8dccd0f10750001d70a1c,23,0,2024-02-27T11:05:45.707Z,french_24.wav,0,poule,1978,40,3,5,français,m,2,0.2,58.97663957,1.0154946
5bc8dccd0f10750001d70a1c,23,0,2024-02-27T11:05:45.707Z,french_24.wav,0,poule,1978,40,3,5,français,m,3,0.3,51.69210178,0.2245849
5bc8dccd0f10750001d70a1c,23,0,2024-02-27T11:05:45.707Z,french_24.wav,0,poule,1978,40,3,5,français,m,4,0.4,81.05661537,0.62964931
5bc8dccd0f10750001d70a1c,23,0,2024-02-27T11:05:45.707Z,french_24.wav,0,poule,1978,40,3,5,français,m,5,0.5,65.07233235,1.32161931
5bc8dccd0f10750001d70a1c,23,0,2024-02-27T11:05:45.707Z,french_24.wav,0,poule,1978,40,3,5,français,m,6,0.6,76.62421962,1.5556039
5bc8dccd0f10750001d70a1c,23,0,2024-02-27T11:05:45.707Z,french_24.wav,0,poule,1978,40,3,5,français,m,7,0.7,59.88439987,1.39639667
5bc8dccd0f10750001d70a1c,23,0,2024-02-27T11:05:45.707Z,french_24.wav,0,poule,1978,40,3,5,français,m,8,0.8,11.60739883,1.45125742
5bc8dccd0f10750001d70a1c,23,0,2024-02-27T11:05:45.707Z,french_24.wav,0,poule,1978,40,3,5,français,m,9,0.9,-31.04604082,0.73211906
5bc8dccd0f10750001d70a1c,23,0,2024-02-27T11:05:45.707Z,french_24.wav,0,poule,1978,40,3,5,français,m,10,1.0,4.7112785,1.04041435
5bc8dccd0f10750001d70a1c,23,0,2024-02-27T11:05:45.707Z,french_24.wav,0,poule,1978,40,3,5,français,m,11,1.1,82.50060059,1.11274362
5bc8dccd0f10750001d70a1c,23,0,2024-02-27T11:05:45.707Z,french_24.wav,0,poule,1978,40,3,5,français,m,12,1.14141667,-13.18326267,0.74288089
5bc8dccd0f10750001d70a1c,24,0,2024-02-27T11:05:45.707Z,french_293.wav,0,poule,434,40,3,5,français,m,0,0.0,13.88157175,0.60053573
5bc8dccd0f10750001d70a1c,24,0,2024-02-27T11:05:45.707Z,french_293.wav,0,poule,434,40,3,5,français,m,1,0.1,2.23867218,1.35819194
5bc8dccd0f10750001d70a1c,24,0,2024-02-27T11:05:45.707Z,french_293.wav,0,poule,434,40,3,5,français,m,2,0.2,-40.7386732,0.02818672
5bc8dccd0f10750001d70a1c,24,0,2024-02-27T11:05:45.707Z,french_293.wav,0,poule,434,40,3,5,français,m,3,0.3,6.10244728,1.13378846
5bc8dccd0f10750001d70a1c,24,0,2024-02-27T11:05:45.707Z,french_293.wav,0,poule,434,40,3,5,français,m,4,0.4,32.8477373,1.04896096
5bc8dccd0f10750001d70a1c,24,0,2024-02-27T11:05:45.707Z,french_293.wav,0,poule,434,40,3,5,français,m,5,0.5,-60.22275726,1.31947449
5bc8dccd0f10750001d70a1c,24,0,2024-02-27T11:05:45.707Z,french_293.wav,0,poule,434,40,3,5,français,m,6,0.6,-73.78584082,0.64719086
5bc8dccd0f10750001d70a1c,24,0,2024-02-27T11:05:45.707Z,french_293.wav,0,poule,434,40,3,5,français,m,7,0.7,-39.23060497,1.73705065
5bc8dccd0f10750001d70a1c,24,0,2024-02-27T11:05:45.707Z,french_293.wav,0,poule,434,40,3,5,français,m,8,0.8,13.36329351,1.2092819
5bc8dccd0f10750001d70a1c,24,0,2024-02-27T11:05:45.707Z,french_293.wav,0,poule,434,40,3,5,français,m,9,0.9,16.41932854,0.87930659
5bc8dccd0f10750001d70a1c,24,0,2024-02-27T11:05:45.707Z,french_293.wav,0,poule,434,40,3,5,français,m,10,1.0,44.79400967,1.38260782
5bc8dccd0f10750001d70a1c,24,0,2024-02-27T11:05:45.707Z,french_293.wav,0,poule,434,40,3,5,français,m,11,1.1,34.65582677,1.24528476
5bc8dccd0f10750001d70a1c,24,0,2024-02-27T11:05:45.707Z,french_293.wav,0,poule,434,40,3,5,français,m,12,1.14141667,28.28906565,1.87043564
5bc8dccd0f10750001d70a1c,25,0,2024-02-27T11:05:45.707Z,french_336.wav,0,poule,239,40,3,5,français,m,0,0.0,-3.49855302,0.87245658
5bc8dccd0f10750001d70a1c,25,0,2024-02-27T11:05:45.707Z,french_336.wav,0,poule,239,40,3,5,français,m,1,0.1,77.11244702,0.41744938
5bc8dccd0f10750001d70a1c,25,0,2024-02-27T11:05:45.707Z,french_336.wav,0,poule,239,40,3,5,français,m,2,0.2,49.3584771,0.20457178
5bc8dccd0f10750001d70a1c,25,0,2024-02-27T11:05:45.707Z,french_336.wav,0,poule,239,40,3,5,français,m,3,0.3,99.07893896,0.55253263
5bc8dccd0f10750001d70a1c,25,0,2024-02-27T11:05:45.707Z,french_336.wav,0,poule,239,40,3,5,français,m,4,0.4,80.33145926,1.25203629
5bc8dccd0f10750001d70a1c,25,0,2024-02-27T11:05:45.707Z,french_336.wav,0,poule,239,40,3,5,français,m,5,0.5,-72.33983633,1.71356084
5bc8dccd0f10750001d70a1c,25,0,2024-02-27T11:05:45.707Z,french_336.wav,0,poule,239,40,3,5,français,m,6,0.6,-12.14115992,0.2889277
5bc8dccd0f10750001d70a1c,25,0,2024-02-27T11:05:45.707Z,french_336.wav,0,poule,239,40,3,5,français,m,7,0.7,19.51190225,0.30300203
5bc8dccd0f10750001d70a1c,25,0,2024-02-27T11:05:45.707Z,french_336.wav,0,poule,239,40,3,5,français,m,8,0.8,-68.21572205,0.49317088
5bc8dccd0f10750001d70a1c,25,0,2024-02-27T11:05:45.707Z,french_336.wav,0,poule,239,40,3,5,français,m,9,0.9,31.67720139,1.98398172
5bc8dccd0f10750001d70a1c,25,0,2024-02-27T11:05:45.707Z,french_336.wav,0,poule,239,40,3,5,français,m,10,1.0,3.5194692,0.93143584
5bc8dccd0f10750001d70a1c,25,0,2024-02-27T11:05:45.707Z,french_336.wav,0,poule,239,40,3,5,français,m,11,1.1,24.82934542,1.56744208
5bc8dccd0f10750001d70a1c,25,0,2024-02-27T11:05:45.707Z,french_336.wav,0,poule,239,40,3,5,français,m,12,1.14141667,-15.89202508,0.9198954
5bc8dccd0f10750001d70a1c,26,0,2024-02-27T11:05:45.707Z,french_646.wav,0,pull,303,40,3,5,français,m,0,0.0,-32.43143983,1.18722539
5bc8dccd0f10750001d70a1c,26,0,2024-02-27T11:05:45.707Z,french_646.wav,0,pull,303,40,3,5,français,m,1,0.1,-20.41835458,0.476043
5bc8dccd0f10750001d70a1c,26,0,2024-02-27T11:05:45.707Z,french_646.wav,0,pull,303,40,3,5,français,m,2,0.2,-23.46449975,0.53944986
5bc8dccd0f10750001d70a1c,26,0,2024-02-27T11:05:45.707Z,french_646.wav,0,pull,303,40,3,5,français,m,3,0.3,-28.22000656,1.36165305
5bc8dccd0f10750001d70a1c,26,0,2024-02-27T11:05:45.707Z,french_646.wav,0,pull,303,40,3,5,français,m,4,0.4,34.30663797,0.64577602
5bc8dccd0f10750001d70a1c,26,0,2024-02-27T11:05:45.707Z,french_646.wav,0,pull,303,40,3,5,français,m,5,0.5,99.4482396,0.2941201
5bc8dccd0f10750001d70a1c,26,0,2024-02-27T11:05:45.707Z,french_646.wav,0,pull,303,40,3,5,français,m,6,0.6,-36.38215405,1.422169
5bc8dccd0f10750001d70a1c,26,0,2024-02-27T11:05:45.707Z,french_646.wav,0,pull,303,40,3,5,français,m,7,0.7,49.55620727,1.662807
5bc8dccd0f10750001d70a1c,26,0,2024-02-27T11:05:45.707Z,french_646.wav,0,pull,303,40,3,5,français,m,8,0.8,-18.32655594,0.51246929
5bc8dccd0f10750001d70a1c,26,0,2024-02-27T11:05:45.707Z,french_646.wav,0,pull,303,40,3,5,français,m,9,0.9,20.02447228,0.10300487
5bc8dccd0f10750001d70a1c,26,0,2024-02-27T11:05:45.707Z,french_646.wav,0,pull,303,40,3,5,français,m,10,1.0,-53.74882494,1.90875747
5bc8dccd0f10750001d70a1c,26,0,2024-02-27T11:05:45.707Z,french_646.wav,0,pull,303,40,3,5,français,m,11,1.1,-51.62942979,1.30651096
5bc8dccd0f10750001d70a1c,26,0,2024-02-27T11:05:45.707Z,french_646.wav,0,pull,303,40,3,5,français,m,12,1.14141667,-32.65363837,0.46104985
5bc8dccd0f10750001d70a1c,27,0,2024-02-27T11:05:45.707Z,french_36.wav,0,poule,96,40,3,5,français,m,0,0.0,-11.07319695,0.23275599
5bc8dccd0f10750001d70a1c,27,0,2024-02-27T11:05:45.707Z,french_36.wav,0,poule,96,40,3,5,français,m,1,0.1,-25.71224467,1.71731214
5bc8dccd0f10750001d70a1c,27,0,2024-02-27T11:05:45.707Z,french_36.wav,0,poule,96,40,3,5,français,m,2,0.2,-96.57480527,0.39984068
5bc8dccd0f10750001d70a1c,27,0,2024-02-27T11:05:45.707Z,french_36.wav,0,poule,96,40,3,5,français,m,3,0.3,93.32142105,0.82158745
5bc8dccd0f10750001d70a1c,27,0,2024-02-27T11:05:45.707Z,french_36.wav,0,poule,96,40,3,5,français,m,4,0.4,17.7749858,1.37135508
5bc8dccd0f10750001d70a1c,27,0,2024-02-27T11:05:45.707Z,french_36.wav,0,poule,96,40,3,5,français,m,5,0.5,-73.30096507,1.36933286
5bc8dccd0f10750001d70a1c,27,0,2024-02-27T11:05:45.707Z,french_36.wav,0,poule,96,40,3,5,français,m,6,0.6,-46.23339782,0.23667526
5bc8dccd0f10750001d70a1c,27,0,2024-02-27T11:05:45.707Z,french_36.wav,0,poule,96,40,3,5,français,m,7,0.7,-83.63624017,0.96954284
5bc8dccd0f10750001d70a1c,27,0,2024-02-27T11:05:45.707Z,french_36.wav,0,poule,96,40,3,5,français,m,8,0.8,-33.60594302,1.15800278
5bc8dccd0f10750001d70a1c,27,0,2024-02-27T11:05:45.707Z,french_36.wav,0,poule,96,40,3,5,français,m,9,0.9,8.42036978,1.66574798
5bc8dccd0f10750001d70a1c,27,0,2024-02-27T11:05:45.707Z,french_36.wav,0,poule,96,40,3,5,français,m,10,1.0,36.75587817,1.99186971
5bc8dccd0f10750001d70a1c,27,0,2024-02-27T11:05:45.707Z,french_36.wav,0,poule,96,40,3,5,français,m,11,1.1,-32.43019278,1.21078933
5bc8dccd0f10750001d70a1c,27,0,2024-02-27T11:05:45.707Z,french_36.wav,0,poule,96,40,3,5,français,m,12,1.14141667,30.15808511,1.78246496
5bc8dccd0f10750001d70a1c,28,0,2024-02-27T11:05:45.707Z,french_702.wav,0,poule,213,40,3,5,français,m,0,0.0,26.32047113,0.49645865
5bc8dccd0f10750001d70a1c,28,0,2024-02-27T11:05:45.707Z,french_702.wav,0,poule,213,40,3,5,français,m,1,0.1,33.56503539,1.57950196
5bc8dccd0f10750001d70a1c,28,0,2024-02-27T11:05:45.707Z,french_702.wav,0,poule,213,40,3,5,français,m,2,0.2,-13.32899181,1.71930356
5bc8dccd0f10750001d70a1c,28,0,2024-02-27T11:05:45.707Z,french_702.wav,0,poule,213,40,3,5,français,m,3,0.3,-92.77430448,0.44513477
5bc8dccd0f10750001d70a1c,28,0,2024-02-27T11:05:45.707Z,french_702.wav,0,poule,213,40,3,5,français,m,4,0.4,55.50813545,0.90179218
5bc8dccd0f10750001d70a1c,28,0,2024-02-27T11:05:45.707Z,french_702.wav,0,poule,213,40,3,5,français,m,5,0.5,-64.42128049,1.66921342
5bc8dccd0f10750001d70a1c,28,0,2024-02-27T11:05:45.707Z,french_702.wav,0,poule,213,40,3,5,français,m,6,0.6,-93.19419433,0.28360175
5bc8dccd0f10750001d70a1c,28,0,2024-02-27T11:05:45.707Z,french_702.wav,0,poule,213,40,3,5,français,m,7,0.7,47.86603083,1.17825667
5bc8dccd0f10750001d70a1c,28,0,2024-02-27T11:05:45.707Z,french_702.wav,0,poule,213,40,3,5,français,m,8,0.8,2.57404089,1.90745253
5bc8dccd0f10750001d70a1c,28,0,2024-02-27T11:05:45.707Z,french_702.wav,0,poule,213,40,3,5,français,m,9,0.9,8.38316132,1.47535418
5bc8dccd0f10750001d70a1c,28,0,2024-02-27T11:05:45.707Z,french_702.wav,0,poule,213,40,3,5,français,m,10,1.0,27.09531385,1.20087323
5bc8dccd0f10750001d70a1c,28,0,2024-02-27T11:05:45.707Z,french_702.wav,0,poule,213,40,3,5,français,m,11,1.1,53.99806352,1.42749806
5bc8dccd0f10750001d70a1c,28,0,2024-02-27T11:05:45.707Z,french_702.wav,0,poule,213,40,3,5,français,m,12,1.14141667,-2.40011534,0.48284837
5bc8dccd0f10750001d70a1c,29,0,2024-02-27T11:05:45.707Z,french_125.wav,0,pull,539,40,3,5,français,m,0,0.0,5.05175171,0.77303096
5bc8dccd0f10750001d70a1c,29,0,2024-02-27T11:05:45.707Z,french_125.wav,0,pull,539,40,3,5,français,m,1,0.1,32.7558224,0.49150881
5bc8dccd0f10750001d70a1c,29,0,2024-02-27T11:05:45.707Z,french_125.wav,0,pull,539,40,3,5,français,m,2,0.2,-9.61553278,1.82272203
5bc8dccd0f10750001d70a1c,29,0,2024-02-27T11:05:45.707Z,french_125.wav,0,pull,539,40,3,5,français,m,3,0.3,-33.04402315,0.85863994
5bc8dccd0f10750001d70a1c,29,0,2024-02-27T11:05:45.707Z,french_125.wav,0,pull,539,40,3,5,français,m,4,0.4,91.14528802,0.43062264
5bc8dccd0f10750001d70a1c,29,0,2024-02-27T11:05:45.707Z,french_125.wav,0,pull,539,40,3,5,français,m,5,0.5,27.38257131,1.85723762
5bc8dccd0f10750001d70a1c,29,0,2024-02-27T11:05:45.707Z,french_125.wav,0,pull,539,40,3,5,français,m,6,0.6,-82.19183228,1.66103806
5bc8dccd0f10750001d70a1c,29,0,2024-02-27T11:05:45.707Z,french_125.wav,0,pull,539,40,3,5,français,m,7,0.7,66.88134461,1.40886995
5bc8dccd0f10750001d70a1c,29,0,2024-02-27T11:05:45.707Z,french_125.wav,0,pull,539,40,3,5,français,m,8,0.8,1.81029464,0.35681271
5bc8dccd0f10750001d70a1c,29,0,2024-02-27T11:05:45.707Z,french_125.wav,0,pull,539,40,3,5,français,m,9,0.9,-28.86524108,0.15053676
5bc8dccd0f10750001d70a1c,29,0,2024-02-27T11:05:45.707Z,french_125.wav,0,pull,539,40,3,5,français,m,10,1.0,-14.95175418,1.22850652
5bc8dccd0f10750001d70a1c,29,0,2024-02-27T11:05:45.707Z,french_125.wav,0,pull,539,40,3,5,français,m,11,1.1,-6.66227035,0.0913017
5bc8dccd0f10750001d70a1c,29,0,2024-02-27T11:05:45.707Z,french_125.wav,0,pull,539,40,3,5,français,m,12,1.14141667,-70.41501392,1.41072005
5bc8dccd0f10750001d70a1c,30,0,2024-02-27T11:05:45.707Z,french_265.wav,0,poule,275,40,3,5,français,m,0,0.0,51.12321039,1.83707991
5bc8dccd0f10750001d70a1c,30,0,2024-02-27T11:05:45.707Z,french_265.wav,0,poule,275,40,3,5,français,m,1,0.1,25.63642893,0.35732668
5bc8dccd0f10750001d70a1c,30,0,2024-02-27T11:05:45.707Z,french_265.wav,0,poule,275,40,3,5,français,m,2,0.2,51.41042146,0.46346134
5bc8dccd0f10750001d70a1c,30,0,2024-02-27T11:05:45.707Z,french_265.wav,0,poule,275,40,3,5,français,m,3,0.3,41.43142455,1.31922243
5bc8dccd0f10750001d70a1c,30,0,2024-02-27T11:05:45.707Z,french_265.wav,0,poule,275,40,3,5,français,m,4,0.4,67.26871967,0.70844164
5bc8dccd0f10750001d70a1c,30,0,2024-02-27T11:05:45.707Z,french_265.wav,0,poule,275,40,3,5,français,m,5,0.5,28.986247,0.91765005
5bc8dccd0f10750001d70a1c,30,0,2024-02-27T11:05:45.707Z,french_265.wav,0,poule,275,40,3,5,français,m,6,0.6,-50.80665467,0.03872645
5bc8dccd0f10750001d70a1c,30,0,2024-02-27T11:05:45.707Z,french_265.wav,0,poule,275,40,3,5,français,m,7,0.7,47.93412809,0.81186732
5bc8dccd0f10750001d70a1c,30,0,2024-02-27T11:05:45.707Z,french_265.wav,0,poule,275,40,3,5,français,m,8,0.8,79.27569203,1.77854118
5bc8dccd0f10750001d70a1c,30,0,2024-02-27T11:05:45.707Z,french_265.wav,0,poule,275,40,3,5,français,m,9,0.9,-10.679964,1.70627077
5bc8dccd0f10750001d70a1c,30,0,2024-02-27T11:05:45.707Z,french_265.wav,0,poule,275,40,3,5,français,m,10,1.0,-80.98397082,0.07811215
5bc8dccd0f10750001d70a1c,30,0,2024-02-27T11:05:45.707Z,french_265.wav,0,poule,275,40,3,5,français,m,11,1.1,62.80866113,1.71393006
5bc8dccd0f10750001d70a1c,30,0,2024-02-27T11:05:45.707Z,french_265.wav,0,poule,275,40,3,5,français,m,12,1.14141667,40.63542143,0.14370024
5bc8dccd0f10750001d70a1c,31,0,2024-02-27T11:05:45.707Z,french_748.wav,0,poule,265,40,3,5,français,m,0,0.0,21.06287569,1.43701335
5bc8dccd0f10750001d70a1c,31,0,2024-02-27T11:05:45.707Z,french_748.wav,0,poule,265,40,3,5,français,m,1,0.1,15.36105543,1.59777978
5bc8dccd0f10750001d70a1c,31,0,2024-02-27T11:05:45.707Z,french_748.wav,0,poule,265,40,3,5,français,m,2,0.2,-30.59586006,0.73016849
5bc8dccd0f10750001d70a1c,31,0,2024-02-27T11:05:45.707Z,french_748.wav,0,poule,265,40,3,5,français,m,3,0.3,79.94920558,0.61979898
5bc8dccd0f10750001d70a1c,31,0,2024-02-27T11:05:45.707Z,french_748.wav,0,poule,265,40,3,5,français,m,4,0.4,-61.07313039,0.89579179
5bc8dccd0f10750001d70a1c,31,0,2024-02-27T11:05:45.707Z,french_748.wav,0,poule,265,40,3,5,français,m,5,0.5,-45.04655322,0.56474332
5bc8dccd0f10750001d70a1c,31,0,2024-02-27T11:05:45.707Z,french_748.wav,0,poule,265,40,3,5,français,m,6,0.6,-50.58543561,1.20782806
5bc8dccd0f10750001d70a1c,31,0,2024-02-27T11:05:45.707Z,french_748.wav,0,poule,265,40,3,5,français,m,7,0.7,1.01417539,0.1338859
5bc8dccd0f10750001d70a1c,31,0,2024-02-27T11:05:45.707Z,french_748.wav,0,poule,265,40,3,5,français,m,8,0.8,-5.64267087,0.84409368
5bc8dccd0f10750001d70a1c,31,0,2024-02-27T11:05:45.707Z,french_748.wav,0,poule,265,40,3,5,français,m,9,0.9,-45.78723347,0.94921143
5bc8dccd0f10750001d70a1c,31,0,2024-02-27T11:05:45.707Z,french_748.wav,0,poule,265,40,3,5,français,m,10,1.0,-89.41556612,1.42685707
5bc8dccd0f10750001d70a1c,31,0,2024-02-27T11:05:45.707Z,french_748.wav,0,poule,265,40,3,5,français,m,11,1.1,-62.55272039,0.52153694
5bc8dccd0f10750001d70a1c,31,0,2024-02-27T11:05:45.707Z,french_748.wav,0,poule,265,40,3,5,français,m,12,1.14141667,-65.25853362,0.03253725
5bc8dccd0f10750001d70a1c,32,0,2024-02-27T11:05:45.707Z,french_150.wav,0,poule,217,40,3,5,français,m,0,0.0,49.5830128,1.20991715
5bc8dccd0f10750001d70a1c,32,0,2024-02-27T11:05:45.707Z,french_150.wav,0,poule,217,40,3,5,français,m,1,0.1,11.27491146,1.43342457
5bc8dccd0f10750001d70a1c,32,0,2024-02-27T11:05:45.707Z,french_150.wav,0,poule,217,40,3,5,français,m,2,0.2,-23.33006334,0.44319554
5bc8dccd0f10750001d70a1c,32,0,2024-02-27T11:05:45.707Z,french_150.wav,0,poule,217,40,3,5,français,m,3,0.3,-79.70222292,0.38788298
5bc8dccd0f10750001d70a1c,32,0,2024-02-27T11:05:45.707Z,french_150.wav,0,poule,217,40,3,5,français,m,4,0.4,78.5259979,1.68474188
5bc8dccd0f10750001d70a1c,32,0,2024-02-27T11:05:45.707Z,french_150.wav,0,poule,217,40,3,5,français,m,5,0.5,42.68414732,1.76934829
5bc8dccd0f10750001d70a1c,32,0,2024-02-27T11:05:45.707Z,french_150.wav,0,poule,217,40,3,5,français,m,6,0.6,3.3170919,1.49107737
5bc8dccd0f10750001d70a1c,32,0,2024-02-27T11:05:45.707Z,french_150.wav,0,poule,217,40,3,5,français,m,7,0.7,28.43555109,0.95892531
5bc8dccd0f10750001d70a1c,32,0,2024-02-27T11:05:45.707Z,french_150.wav,0,poule,217,40,3,5,français,m,8,0.8,-7.39447574,0.5717496
5bc8dccd0f10750001d70a1c,32,0,2024-02-27T11:05:45.707Z,french_150.wav,0,poule,217,40,3,5,français,m,9,0.9,-98.28221983,1.66411652
5bc8dccd0f10750001d70a1c,32,0,2024-02-27T11:05:45.707Z,french_150.wav,0,poule,217,40,3,5,français,m,10,1.0,46.55565122,0.38718647
5bc8dccd0f10750001d70a1c,32,0,2024-02-27T11:05:45.707Z,french_150.wav,0,poule,217,40,3,5,français,m,11,1.1,-53.12881325,0.22387981
5bc8dccd0f10750001d70a1c,32,0,2024-02-27T11:05:45.707Z,french_150.wav,0,poule,217,40,3,5,français,m,12,1.14141667,87.9365903,1.83499264
5bc8dccd0f10750001d70a1c,33,0,2024-02-27T11:05:45.707Z,french_613.wav,0,poule,843,40,3,5,français,m,0,0.0,-79.12321817,0.47548878
5bc8dccd0f10750001d70a1c,33,0,2024-02-27T11:05:45.707Z,french_613.wav,0,poule,843,40,3,5,français,m,1,0.1,-7.41492532,0.76860871
5bc8dccd0f10750001d70a1c,33,0,2024-02-27T11:05:45.707Z,french_613.wav,0,poule,843,40,3,5,français,m,2,0.2,-83.26616323,0.13725989
5bc8dccd0f10750001d70a1c,33,0,2024-02-27T11:05:45.707Z,french_613.wav,0,poule,843,40,3,5,français,m,3,0.3,76.11721718,1.43493141
5bc8dccd0f10750001d70a1c,33,0,2024-02-27T11:05:45.707Z,french_613.wav,0,poule,843,40,3,5,français,m,4,0.4,-86.02724826,0.64104135
5bc8dccd0f10750001d70a1c,33,0,2024-02-27T11:05:45.707Z,french_613.wav,0,poule,843,40,3,5,français,m,5,0.5,-21.97136908,0.69636711
5bc8dccd0f10750001d70a1c,33,0,2024-02-27T11:05:45.707Z,french_613.wav,0,poule,843,40,3,5,français,m,6,0.6,-20.66842631,0.03283489
5bc8dccd0f10750001d70a1c,33,0,2024-02-27T11:05:45.707Z,french_613.wav,0,poule,843,40,3,5,français,m,7,0.7,-18.6862133,1.11684822
5bc8dccd0f10750001d70a1c,33,0,2024-02-27T11:05:45.707Z,french_613.wav,0,poule,843,40,3,5,français,m,8,0.8,93.72513797,0.70396807
5bc8dccd0f10750001d70a1c,33,0,2024-02-27T11:05:45.707Z,french_613.wav,0,poule,843,40,3,5,français,m,9,0.9,-61.43949343,0.51356951
5bc8dccd0f10750001d70a1c,33,0,2024-02-27T11:05:45.707Z,french_613.wav,0,poule,843,40,3,5,français,m,10,1.0,-85.97992137,0.02840793
5bc8dccd0f10750001d70a1c,33,0,2024-02-27T11:05:45.707Z,french_613.wav,0,poule,843,40,3,5,français,m,11,1.1,65.40328987,0.75953201
5bc8dccd0f10750001d70a1c,33,0,2024-02-27T11:05:45.707Z,french_613.wav,0,poule,843,40,3,5,français,m,12,1.14141667,-7.08798818,0.90179979
5bc8dccd0f10750001d70a1c,34,0,2024-02-27T11:05:45.707Z,french_118.wav,0,pull,3503,40,3,5,français,m,0,0.0,-96.89524713,0.51514653
5bc8dccd0f10750001d70a1c,34,0,2024-02-27T11:05:45.707Z,french_118.wav,0,pull,3503,40,3,5,français,m,1,0.1,-12.33811894,1.29037692
5bc8dccd0f10750001d70a1c,34,0,2024-02-27T11:05:45.707Z,french_118.wav,0,pull,3503,40,3,5,français,m,2,0.2,-2.11216318,1.8067557
5bc8dccd0f10750001d70a1c,34,0,2024-02-27T11:05:45.707Z,french_118.wav,0,pull,3503,40,3,5,français,m,3,0.3,-12.48268153,1.39149235
5bc8dccd0f10750001d70a1c,34,0,2024-02-27T11:05:45.707Z,french_118.wav,0,pull,3503,40,3,5,français,m,4,0.4,89.54609484,0.43426832
5bc8dccd0f10750001d70a1c,34,0,2024-02-27T11:05:45.707Z,french_118.wav,0,pull,3503,40,3,5,français,m,5,0.5,-37.3390086,0.26481751
5bc8dccd0f10750001d70a1c,34,0,2024-02-27T11:05:45.707Z,french_118.wav,0,pull,3503,40,3,5,français,m,6,0.6,-22.96318145,0.54020893
5bc8dccd0f10750001d70a1c,34,0,2024-02-27T11:05:45.707Z,french_118.wav,0,pull,3503,40,3,5,français,m,7,0.7,-54.71729638,1.52449902
5bc8dccd0f10750001d70a1c,34,0,2024-02-27T11:05:45.707Z,french_118.wav,0,pull,3503,40,3,5,français,m,8,0.8,-29.11157273,0.97377588
5bc8dccd0f10750001d70a1c,34,0,2024-02-27T11:05:45.707Z,french_118.wav,0,pull,3503,40,3,5,français,m,9,0.9,-67.79713671,0.00562259
5bc8dccd0f10750001d70a1c,34,0,2024-02-27T11:05:45.707Z,french_118.wav,0,pull,3503,40,3,5,français,m,10,1.0,4.25513412,0.25067962
5bc8dccd0f10750001d70a1c,34,0,2024-02-27T11:05:45.707Z,french_118.wav,0,pull,3503,40,3,5,français,m,11,1.1,-69.57535636,1.24716668
5bc8dccd0f10750001d70a1c,34,0,2024-02-27T11:05:45.707Z,french_118.wav,0,pull,3503,40,3,5,français,m,12,1.14141667,46.98328983,0.51037043
5bc8dccd0f10750001d70a1c,35,0,2024-02-27T11:05:45.707Z,french_269.wav,0,poule,503,40,3,5,français,m,0,0.0,-54.46681575,0.14617917
5bc8dccd0f10750001d70a1c,35,0,2024-02-27T11:05:45.707Z,french_269.wav,0,poule,503,40,3,5,français,m,1,0.1,40.48652867,1.23122751
5bc8dccd0f10750001d70a1c,35,0,2024-02-27T11:05:45.707Z,french_269.wav,0,poule,503,40,3,5,français,m,2,0.2,23.52786486,1.6621536
5bc8dccd0f10750001d70a1c,35,0,2024-02-27T11:05:45.707Z,french_269.wav,0,poule,503,40,3,5,français,m,3,0.3,-2.9574454,1.2319681
5bc8dccd0f10750001d70a1c,35,0,2024-02-27T11:05:45.707Z,french_269.wav,0,poule,503,40,3,5,français,m,4,0.4,-10.10362515,0.6831451
5bc8dccd0f10750001d70a1c,35,0,2024-02-27T11:05:45.707Z,french_269.wav,0,poule,503,40,3,5,français,m,5,0.5,-29.51615189,0.23334627
5bc8dccd0f10750001d70a1c,35,0,2024-02-27T11:05:45.707Z,french_269.wav,0,poule,503,40,3,5,français,m,6,0.6,-9.00744172,0.55635706
5bc8dccd0f10750001d70a1c,35,0,2024-02-27T11:05:45.707Z,french_269.wav,0,poule,503,40,3,5,français,m,7,0.7,20.65779738,0.94920478
5bc8dccd0f10750001d70a1c,35,0,2024-02-27T11:05:45.707Z,french_269.wav,0,poule,503,40,3,5,français,m,8,0.8,-2.21401948,0.83951845
5bc8dccd0f10750001d70a1c,35,0,2024-02-27T11:05:45.707Z,french_269.wav,0,poule,503,40,3,5,français,m,9,0.9,-19.8598657,0.61186305
5bc8dccd0f10750001d70a1c,35,0,2024-02-27T11:05:45.707Z,french_269.wav,0,poule,503,40,3,5,français,m,10,1.0,-89.62311782,0.18517136
5bc8dccd0f10750001d70a1c,35,0,2024-02-27T11:05:45.707Z,french_269.wav,0,poule,503,40,3,5,français,m,11,1.1,-1.41224571,1.59243868
5bc8dccd0f10750001d70a1c,35,0,2024-02-27T11:05:45.707Z,french_269.wav,0,poule,503,40,3,5,français,m,12,1.14141667,75.71209492,0.66484659
5bc8dccd0f10750001d70a1c,36,0,2024-02-27T11:05:45.707Z,french_771.wav,0,poule,194,40,3,5,français,m,0,0.0,10.14205054,0.57898689
5bc8dccd0f10750001d70a1c,36,0,2024-02-27T11:05:45.707Z,french_771.wav,0,poule,194,40,3,5,français,m,1,0.1,14.3317902,1.67899679
5bc8dccd0f10750001d70a1c,36,0,2024-02-27T11:05:45.707Z,french_771.wav,0,poule,194,40,3,5,français,m,2,0.2,13.88278029,0.37616214
5bc8dccd0f10750001d70a1c,36,0,2024-02-27T11:05:45.707Z,french_771.wav,0,poule,194,40,3,5,français,m,3,0.3,-60.54024748,1.4737865
5bc8dccd0f10750001d70a1c,36,0,2024-02-27T11:05:45.707Z,french_771.wav,0,poule,194,40,3,5,français,m,4,0.4,53.93566508,0.40945874
5bc8dccd0f10750001d70a1c,36,0,2024-02-27T11:05:45.707Z,french_771.wav,0,poule,194,40,3,5,français,m,5,0.5,35.11564719,1.07675123
5bc8dccd0f10750001d70a1c,36,0,2024-02-27T11:05:45.707Z,french_771.wav,0,poule,194,40,3,5,français,m,6,0.6,19.66283226,1.54958043
5bc8dccd0f10750001d70a1c,36,0,2024-02-27T11:05:45.707Z,french_771.wav,0,poule,194,40,3,5,français,m,7,0.7,68.53997152,1.22758448
5bc8dccd0f10750001d70a1c,36,0,2024-02-27T11:05:45.707Z,french_771.wav,0,poule,194,40,3,5,français,m,8,0.8,-62.55324327,1.96215938
5bc8dccd0f10750001d70a1c,36,0,2024-02-27T11:05:45.707Z,french_771.wav,0,poule,194,40,3,5,français,m,9,0.9,-55.18291591,1.69292096
5bc8dccd0f10750001d70a1c,36,0,2024-02-27T11:05:45.707Z,french_771.wav,0,poule,194,40,3,5,français,m,10,1.0,72.9743266,0.50909353
5bc8dccd0f10750001d70a1c,36,0,2024-02-27T11:05:45.707Z,french_771.wav,0,poule,194,40,3,5,français,m,11,1.1,85.13995014,1.76686526
5bc8dccd0f10750001d70a1c,36,0,2024-02-27T11:05:45.707Z,french_771.wav,0,poule,194,40,3,5,français,m,12,1.14141667,-84.73790953,1.66223723
5bc8dccd0f10750001d70a1c,37,0,2024-02-27T11:05:45.707Z,french_722.wav,0,pull,573,40,3,5,français,m,0,0.0,33.60432941,1.8577899
5bc8dccd0f10750001d70a1c,37,0,2024-02-27T11:05:45.707Z,french_722.wav,0,pull,573,40,3,5,français,m,1,0.1,-11.93537629,0.16730472
5bc8dccd0f10750001d70a1c,37,0,2024-02-27T11:05:45.707Z,french_722.wav,0,pull,573,40,3,5,français,m,2,0.2,-88.14292606,1.51968538
5bc8dccd0f10750001d70a1c,37,0,2024-02-27T11:05:45.707Z,french_722.wav,0,pull,573,40,3,5,français,m,3,0.3,63.03464746,1.10766377
5bc8dccd0f10750001d70a1c,37,0,2024-02-27T11:05:45.707Z,french_722.wav,0,pull,573,40,3,5,français,m,4,0.4,22.71231254,0.03649714
5bc8dccd0f10750001d70a1c,37,0,2024-02-27T11:05:45.707Z,french_722.wav,0,pull,573,40,3,5,français,m,5,0.5,16.47127626,0.86655357
5bc8dccd0f10750001d70a1c,37,0,2024-02-27T11:05:45.707Z,french_722.wav,0,pull,573,40,3,5,français,m,6,0.6,-84.57391125,1.9734912
5bc8dccd0f10750001d70a1c,37,0,2024-02-27T11:05:45.707Z,french_722.wav,0,pull,573,40,3,5,français,m,7,0.7,-10.08636896,1.42286059
5bc8dccd0f10750001d70a1c,37,0,2024-02-27T11:05:45.707Z,french_722.wav,0,pull,573,40,3,5,français,m,8,0.8,29.84658458,0.4534392
5bc8dccd0f10750001d70a1c,37,0,2024-02-27T11:05:45.707Z,french_722.wav,0,pull,573,40,3,5,français,m,9,0.9,-34.50712381,0.31083088
5bc8dccd0f10750001d70a1c,37,0,2024-02-27T11:05:45.707Z,french_722.wav,0,pull,573,40,3,5,français,m,10,1.0,48.55411412,0.20534641
5bc8dccd0f10750001d70a1c,37,0,2024-02-27T11:05:45.707Z,french_722.wav,0,pull,573,40,3,5,français,m,11,1.1,22.41705079,1.4074105
5bc8dccd0f10750001d70a1c,37,0,2024-02-27T11:05:45.707Z,french_722.wav,0,pull,573,40,3,5,français,m,12,1.14141667,-36.09101224,0.81493516
5bc8dccd0f10750001d70a1c,38,0,2024-02-27T11:05:45.707Z,french_726.wav,0,pull,288,40,3,5,français,m,0,0.0,48.76420557,1.37300974
5bc8dccd0f10750001d70a1c,38,0,2024-02-27T11:05:45.707Z,french_726.wav,0,pull,288,40,3,5,français,m,1,0.1,5.12155157,1.49926665
5bc8dccd0f10750001d70a1c,38,0,2024-02-27T11:05:45.707Z,french_726.wav,0,pull,288,40,3,5,français,m,2,0.2,-72.9890042,0.85512206
5bc8dccd0f10750001d70a1c,38,0,2024-02-27T11:05:45.707Z,french_726.wav,0,pull,288,40,3,5,français,m,3,0.3,75.78946978,0.29572074
5bc8dccd0f10750001d70a1c,38,0,2024-02-27T11:05:45.707Z,french_726.wav,0,pull,288,40,3,5,français,m,4,0.4,8.27508281,1.38748174
5bc8dccd0f10750001d70a1c,38,0,2024-02-27T11:05:45.707Z,french_726.wav,0,pull,288,40,3,5,français,m,5,0.5,89.78169524,0.62022839
5bc8dccd0f10750001d70a1c,38,0,2024-02-27T11:05:45.707Z,french_726.wav,0,pull,288,40,3,5,français,m,6,0.6,3.99556136,1.06740061
5bc8dccd0f10750001d70a1c,38,0,2024-02-27T11:05:45.707Z,french_726.wav,0,pull,288,40,3,5,français,m,7,0.7,1.99959163,0.59805381
5bc8dccd0f10750001d70a1c,38,0,2024-02-27T11:05:45.707Z,french_726.wav,0,pull,288,40,3,5,français,m,8,0.8,-13.64347367,1.70561407
5bc8dccd0f10750001d70a1c,38,0,2024-02-27T11:05:45.707Z,french_726.wav,0,pull,288,40,3,5,français,m,9,0.9,30.90068593,0.37953026
5bc8dccd0f10750001d70a1c,38,0,2024-02-27T11:05:45.707Z,french_726.wav,0,pull,288,40,3,5,français,m,10,1.0,28.17986697,1.21262206
5bc8dccd0f10750001d70a1c,38,0,2024-02-27T11:05:45.707Z,french_726.wav,0,pull,288,40,3,5,français,m,11,1.1,-67.51414293,1.83341573
5bc8dccd0f10750001d70a1c,38,0,2024-02-27T11:05:45.707Z,french_726.wav,0,pull,288,40,3,5,français,m,12,1.14141667,-25.39302441,0.05128479
5bc8dccd0f10750001d70a1c,39,0,2024-02-27T11:05:45.707Z,french_354.wav,0,poule,217,40,3,5,français,m,0,0.0,-59.30427207,1.42108763
5bc8dccd0f10750001d70a1c,39,0,2024-02-27T11:05:45.707Z,french_354.wav,0,poule,217,40,3,5,français,m,1,0.1,79.91145527,0.12998909
5bc8dccd0f10750001d70a1c,39,0,2024-02-27T11:05:45.707Z,french_354.wav,0,poule,217,40,3,5,français,m,2,0.2,-1.5051974,1.34324907
5bc8dccd0f10750001d70a1c,39,0,2024-02-27T11:05:45.707Z,french_354.wav,0,poule,217,40,3,5,français,m,3,0.3,-45.6248448,1.56989782
5bc8dccd0f10750001d70a1c,39,0,2024-02-27T11:05:45.707Z,french_354.wav,0,poule,217,40,3,5,français,m,4,0.4,40.65998782,0.75541958
5bc8dccd0f10750001d70a1c,39,0,2024-02-27T11:05:45.707Z,french_354.wav,0,poule,217,40,3,5,français,m,5,0.5,-87.75757377,0.95768708
5bc8dccd0f10750001d70a1c,39,0,2024-02-27T11:05:45.707Z,french_354.wav,0,poule,217,40,3,5,français,m,6,0.6,92.52575954,1.70871899
5bc8dccd0f10750001d70a1c,39,0,2024-02-27T11:05:45.707Z,french_354.wav,0,poule,217,40,3,5,français,m,7,0.7,-30.48325009,1.54335891
5bc8dccd0f10750001d70a1c,39,0,2024-02-27T11:05:45.707Z,french_354.wav,0,poule,217,40,3,5,français,m,8,0.8,18.19454969,0.39580898
5bc8dccd0f10750001d70a1c,39,0,2024-02-27T11:05:45.707Z,french_354.wav,0,poule,217,40,3,5,français,m,9,0.9,-2.58461677,1.36502039
5bc8dccd0f10750001d70a1c,39,0,2024-02-27T11:05:45.707Z,french_354.wav,0,poule,217,40,3,5,français,m,10,1.0,-70.76135363,1.03896879
5bc8dccd0f10750001d70a1c,39,0,2024-02-27T11:05:45.707Z,french_354.wav,0,poule,217,40,3,5,français,m,11,1.1,70.06864497,1.2657434
5bc8dccd0f10750001d70a1c,39,0,2024-02-27T11:05:45.707Z,french_354.wav,0,poule,217,40,3,5,français,m,12,1.14141667,36.19538716,1.59524238
5bc8dccd0f10750001d70a1c,40,0,2024-02-27T11:05:45.707Z,french_890.wav,0,poule,229,40,3,5,français,m,0,0.0,37.66035755,1.19799643
5bc8dccd0f10750001d70a1c,40,0,2024-02-27T11:05:45.707Z,french_890.wav,0,poule,229,40,3,5,français,m,1,0.1,-62.4198419,1.95985133
5bc8dccd0f10750001d70a1c,40,0,2024-02-27T11:05:45.707Z,french_890.wav,0,poule,229,40,3,5,français,m,2,0.2,22.14011597,6.34751795e-05
5bc8dccd0f10750001d70a1c,40,0,2024-02-27T11:05:45.707Z,french_890.wav,0,poule,229,40,3,5,français,m,3,0.3,-19.28433509,0.467547013
5bc8dccd0f10750001d70a1c,40,0,2024-02-27T11:05:45.707Z,french_890.wav,0,poule,229,40,3,5,français,m,4,0.4,58.02680792,0.379118242
5bc8dccd0f10750001d70a1c,40,0,2024-02-27T11:05:45.707Z,french_890.wav,0,poule,229,40,3,5,français,m,5,0.5,26.36088305,0.398106844
5bc8dccd0f10750001d70a1c,40,0,2024-02-27T11:05:45.707Z,french_890.wav,0,poule,229,40,3,5,français,m,6,0.6,-2.96553475,1.90521091
5bc8dccd0f10750001d70a1c,40,0,2024-02-27T11:05:45.707Z,french_890.wav,0,poule,229,40,3,5,français,m,7,0.7,18.82025548,0.228927516
5bc8dccd0f10750001d70a1c,40,0,2024-02-27T11:05:45.707Z,french_890.wav,0,poule,229,40,3,5,français,m,8,0.8,-71.77019801,0.850400434
5bc8dccd0f10750001d70a1c,40,0,2024-02-27T11:05:45.707Z,french_890.wav,0,poule,229,40,3,5,français,m,9,0.9,-33.53163,0.845624976
5bc8dccd0f10750001d70a1c,40,0,2024-02-27T11:05:45.707Z,french_890.wav,0,poule,229,40,3,5,français,m,10,1.0,-66.53266587,1.47438703
5bc8dccd0f10750001d70a1c,40,0,2024-02-27T11:05:45.707Z,french_890.wav,0,poule,229,40,3,5,français,m,11,1.1,-68.49556875,1.89174641
5bc8dccd0f10750001d70a1c,40,0,2024-02-27T11:05:45.707Z,french_890.wav,0,poule,229,40,3,5,français,m,12,1.14141667,37.72443789,1.26260731
5bc8dccd0f10750001d70a1c,41,0,2024-02-27T11:05:45.707Z,french_100.wav,0,pull,490,40,3,5,français,m,0,0.0,45.30319637,0.4266363
5bc8dccd0f10750001d70a1c,41,0,2024-02-27T11:05:45.707Z,french_100.wav,0,pull,490,40,3,5,français,m,1,0.1,47.12815282,0.41166499
5bc8dccd0f10750001d70a1c,41,0,2024-02-27T11:05:45.707Z,french_100.wav,0,pull,490,40,3,5,français,m,2,0.2,67.48521917,0.75850186
5bc8dccd0f10750001d70a1c,41,0,2024-02-27T11:05:45.707Z,french_100.wav,0,pull,490,40,3,5,français,m,3,0.3,23.61125392,1.79094973
5bc8dccd0f10750001d70a1c,41,0,2024-02-27T11:05:45.707Z,french_100.wav,0,pull,490,40,3,5,français,m,4,0.4,20.77565094,1.79636496
5bc8dccd0f10750001d70a1c,41,0,2024-02-27T11:05:45.707Z,french_100.wav,0,pull,490,40,3,5,français,m,5,0.5,-96.44964023,1.36246425
5bc8dccd0f10750001d70a1c,41,0,2024-02-27T11:05:45.707Z,french_100.wav,0,pull,490,40,3,5,français,m,6,0.6,-27.30276741,0.7383114
5bc8dccd0f10750001d70a1c,41,0,2024-02-27T11:05:45.707Z,french_100.wav,0,pull,490,40,3,5,français,m,7,0.7,7.85228196,1.2886492
5bc8dccd0f10750001d70a1c,41,0,2024-02-27T11:05:45.707Z,french_100.wav,0,pull,490,40,3,5,français,m,8,0.8,68.83602268,0.63858011
5bc8dccd0f10750001d70a1c,41,0,2024-02-27T11:05:45.707Z,french_100.wav,0,pull,490,40,3,5,français,m,9,0.9,42.76775799,0.54144566
5bc8dccd0f10750001d70a1c,41,0,2024-02-27T11:05:45.707Z,french_100.wav,0,pull,490,40,3,5,français,m,10,1.0,54.32509685,0.22455782
5bc8dccd0f10750001d70a1c,41,0,2024-02-27T11:05:45.707Z,french_100.wav,0,pull,490,40,3,5,français,m,11,1.1,-78.45035325,0.1039249
5bc8dccd0f10750001d70a1c,41,0,2024-02-27T11:05:45.707Z,french_100.wav,0,pull,490,40,3,5,français,m,12,1.14141667,25.20581813,0.78301344
5bc8dccd0f10750001d70a1c,42,0,2024-02-27T11:05:45.707Z,french_920.wav,0,pull,830,40,3,5,français,m,0,0.0,-19.30176094,0.60193283
5bc8dccd0f10750001d70a1c,42,0,2024-02-27T11:05:45.707Z,french_920.wav,0,pull,830,40,3,5,français,m,1,0.1,42.24966406,0.7358632
5bc8dccd0f10750001d70a1c,42,0,2024-02-27T11:05:45.707Z,french_920.wav,0,pull,830,40,3,5,français,m,2,0.2,4.59844531,0.13299168
5bc8dccd0f10750001d70a1c,42,0,2024-02-27T11:05:45.707Z,french_920.wav,0,pull,830,40,3,5,français,m,3,0.3,-50.26112208,0.59112751
5bc8dccd0f10750001d70a1c,42,0,2024-02-27T11:05:45.707Z,french_920.wav,0,pull,830,40,3,5,français,m,4,0.4,47.39747576,1.45544303
5bc8dccd0f10750001d70a1c,42,0,2024-02-27T11:05:45.707Z,french_920.wav,0,pull,830,40,3,5,français,m,5,0.5,27.93582477,0.40873773
5bc8dccd0f10750001d70a1c,42,0,2024-02-27T11:05:45.707Z,french_920.wav,0,pull,830,40,3,5,français,m,6,0.6,-38.24165331,0.52359377
5bc8dccd0f10750001d70a1c,42,0,2024-02-27T11:05:45.707Z,french_920.wav,0,pull,830,40,3,5,français,m,7,0.7,79.50072261,0.61254304
5bc8dccd0f10750001d70a1c,42,0,2024-02-27T11:05:45.707Z,french_920.wav,0,pull,830,40,3,5,français,m,8,0.8,-91.19546582,1.38763095
5bc8dccd0f10750001d70a1c,42,0,2024-02-27T11:05:45.707Z,french_920.wav,0,pull,830,40,3,5,français,m,9,0.9,-20.42037276,0.18569195
5bc8dccd0f10750001d70a1c,42,0,2024-02-27T11:05:45.707Z,french_920.wav,0,pull,830,40,3,5,français,m,10,1.0,91.97225273,0.6972115
5bc8dccd0f10750001d70a1c,42,0,2024-02-27T11:05:45.707Z,french_920.wav,0,pull,830,40,3,5,français,m,11,1.1,-48.93345242,0.62343363
5bc8dccd0f10750001d70a1c,42,0,2024-02-27T11:05:45.707Z,french_920.wav,0,pull,830,40,3,5,français,m,12,1.14141667,95.20886409,1.83344131
5bc8dccd0f10750001d70a1c,43,0,2024-02-27T11:05:45.707Z,french_263.wav,0,pull,532,40,3,5,français,m,0,0.0,-35.6234396,0.41942748
5bc8dccd0f10750001d70a1c,43,0,2024-02-27T11:05:45.707Z,french_263.wav,0,pull,532,40,3,5,français,m,1,0.1,80.58342714,0.86466593
5bc8dccd0f10750001d70a1c,43,0,2024-02-27T11:05:45.707Z,french_263.wav,0,pull,532,40,3,5,français,m,2,0.2,26.9247896,0.90258842
5bc8dccd0f10750001d70a1c,43,0,2024-02-27T11:05:45.707Z,french_263.wav,0,pull,532,40,3,5,français,m,3,0.3,-64.28881536,0.30940464
5bc8dccd0f10750001d70a1c,43,0,2024-02-27T11:05:45.707Z,french_263.wav,0,pull,532,40,3,5,français,m,4,0.4,71.8745562,0.49132319
5bc8dccd0f10750001d70a1c,43,0,2024-02-27T11:05:45.707Z,french_263.wav,0,pull,532,40,3,5,français,m,5,0.5,-24.24365063,0.18866759
5bc8dccd0f10750001d70a1c,43,0,2024-02-27T11:05:45.707Z,french_263.wav,0,pull,532,40,3,5,français,m,6,0.6,67.89663748,1.09978722
5bc8dccd0f10750001d70a1c,43,0,2024-02-27T11:05:45.707Z,french_263.wav,0,pull,532,40,3,5,français,m,7,0.7,5.62822954,0.81261586
5bc8dccd0f10750001d70a1c,43,0,2024-02-27T11:05:45.707Z,french_263.wav,0,pull,532,40,3,5,français,m,8,0.8,8.21920478,0.42151921
5bc8dccd0f10750001d70a1c,43,0,2024-02-27T11:05:45.707Z,french_263.wav,0,pull,532,40,3,5,français,m,9,0.9,-4.84660323,0.86223793
5bc8dccd0f10750001d70a1c,43,0,2024-02-27T11:05:45.707Z,french_263.wav,0,pull,532,40,3,5,français,m,10,1.0,92.2995778,0.83361364
5bc8dccd0f10750001d70a1c,43,0,2024-02-27T11:05:45.707Z,french_263.wav,0,pull,532,40,3,5,français,m,11,1.1,5.29993653,0.95375213
5bc8dccd0f10750001d70a1c,43,0,2024-02-27T11:05:45.707Z,french_263.wav,0,pull,532,40,3,5,français,m,12,1.14141667,-11.24406753,0.43274193
5bc8dccd0f10750001d70a1c,44,0,2024-02-27T11:05:45.707Z,french_981.wav,0,poule,391,40,3,5,français,m,0,0.0,-38.08669269,1.67776231
5bc8dccd0f10750001d70a1c,44,0,2024-02-27T11:05:45.707Z,french_981.wav,0,poule,391,40,3,5,français,m,1,0.1,-73.93088907,1.4500739
5bc8dccd0f10750001d70a1c,44,0,2024-02-27T11:05:45.707Z,french_981.wav,0,poule,391,40,3,5,français,m,2,0.2,-88.32473941,1.60115886
5bc8dccd0f10750001d70a1c,44,0,2024-02-27T11:05:45.707Z,french_981.wav,0,poule,391,40,3,5,français,m,3,0.3,60.7364341,1.60462547
5bc8dccd0f10750001d70a1c,44,0,2024-02-27T11:05:45.707Z,french_981.wav,0,poule,391,40,3,5,français,m,4,0.4,-16.1524086,0.69020142
5bc8dccd0f10750001d70a1c,44,0,2024-02-27T11:05:45.707Z,french_981.wav,0,poule,391,40,3,5,français,m,5,0.5,-93.43340089,0.54737899
5bc8dccd0f10750001d70a1c,44,0,2024-02-27T11:05:45.707Z,french_981.wav,0,poule,391,40,3,5,français,m,6,0.6,-45.31120126,0.19731947
5bc8dccd0f10750001d70a1c,44,0,2024-02-27T11:05:45.707Z,french_981.wav,0,poule,391,40,3,5,français,m,7,0.7,-79.13047949,1.35276023
5bc8dccd0f10750001d70a1c,44,0,2024-02-27T11:05:45.707Z,french_981.wav,0,poule,391,40,3,5,français,m,8,0.8,72.11880398,0.09347094
5bc8dccd0f10750001d70a1c,44,0,2024-02-27T11:05:45.707Z,french_981.wav,0,poule,391,40,3,5,français,m,9,0.9,-24.42160512,0.88261019
5bc8dccd0f10750001d70a1c,44,0,2024-02-27T11:05:45.707Z,french_981.wav,0,poule,391,40,3,5,français,m,10,1.0,-37.42455043,0.20373219
5bc8dccd0f10750001d70a1c,44,0,2024-02-27T11:05:45.707Z,french_981.wav,0,poule,391,40,3,5,français,m,11,1.1,1.64695246,1.67203558
5bc8dccd0f10750001d70a1c,44,0,2024-02-27T11:05:45.707Z,french_981.wav,0,poule,391,40,3,5,français,m,12,1.14141667,92.37141996,1.72330196
5bc8dccd0f10750001d70a1c,45,0,2024-02-27T11:05:45.707Z,french_204.wav,0,poule,148,40,3,5,français,m,0,0.0,-97.54424604,0.84357782
5bc8dccd0f10750001d70a1c,45,0,2024-02-27T11:05:45.707Z,french_204.wav,0,poule,148,40,3,5,français,m,1,0.1,-75.45987253,1.86814554
5bc8dccd0f10750001d70a1c,45,0,2024-02-27T11:05:45.707Z,french_204.wav,0,poule,148,40,3,5,français,m,2,0.2,-45.23023412,0.72033873
5bc8dccd0f10750001d70a1c,45,0,2024-02-27T11:05:45.707Z,french_204.wav,0,poule,148,40,3,5,français,m,3,0.3,-36.48297354,0.94694734
5bc8dccd0f10750001d70a1c,45,0,2024-02-27T11:05:45.707Z,french_204.wav,0,poule,148,40,3,5,français,m,4,0.4,90.93714811,1.41055146
5bc8dccd0f10750001d70a1c,45,0,2024-02-27T11:05:45.707Z,french_204.wav,0,poule,148,40,3,5,français,m,5,0.5,8.51204829,1.86444056
5bc8dccd0f10750001d70a1c,45,0,2024-02-27T11:05:45.707Z,french_204.wav,0,poule,148,40,3,5,français,m,6,0.6,-18.08952278,0.86787291
5bc8dccd0f10750001d70a1c,45,0,2024-02-27T11:05:45.707Z,french_204.wav,0,poule,148,40,3,5,français,m,7,0.7,-30.86608274,0.05470733
5bc8dccd0f10750001d70a1c,45,0,2024-02-27T11:05:45.707Z,french_204.wav,0,poule,148,40,3,5,français,m,8,0.8,9.52121427,0.89406548
5bc8dccd0f10750001d70a1c,45,0,2024-02-27T11:05:45.707Z,french_204.wav,0,poule,148,40,3,5,français,m,9,0.9,32.93587108,0.95464127
5bc8dccd0f10750001d70a1c,45,0,2024-02-27T11:05:45.707Z,french_204.wav,0,poule,148,40,3,5,français,m,10,1.0,4.3572217,1.5370853
5bc8dccd0f10750001d70a1c,45,0,2024-02-27T11:05:45.707Z,french_204.wav,0,poule,148,40,3,5,français,m,11,1.1,48.01606994,0.95273062
5bc8dccd0f10750001d70a1c,45,0,2024-02-27T11:05:45.707Z,french_204.wav,0,poule,148,40,3,5,français,m,12,1.14141667,-31.34314553,1.18622343
5bc8dccd0f10750001d70a1c,46,0,2024-02-27T11:05:45.707Z,french_568.wav,0,poule,150,40,3,5,français,m,0,0.0,-19.1846252,1.39555406
5bc8dccd0f10750001d70a1c,46,0,2024-02-27T11:05:45.707Z,french_568.wav,0,poule,150,40,3,5,français,m,1,0.1,99.622552,0.82188043
5bc8dccd0f10750001d70a1c,46,0,2024-02-27T11:05:45.707Z,french_568.wav,0,poule,150,40,3,5,français,m,2,0.2,37.3998315,0.47747641
5bc8dccd0f10750001d70a1c,46,0,2024-02-27T11:05:45.707Z,french_568.wav,0,poule,150,40,3,5,français,m,3,0.3,50.6611477,0.85657267
5bc8dccd0f10750001d70a1c,46,0,2024-02-27T11:05:45.707Z,french_568.wav,0,poule,150,40,3,5,français,m,4,0.4,-41.739615,1.18677841
5bc8dccd0f10750001d70a1c,46,0,2024-02-27T11:05:45.707Z,french_568.wav,0,poule,150,40,3,5,français,m,5,0.5,-20.4713766,0.27067874
5bc8dccd0f10750001d70a1c,46,0,2024-02-27T11:05:45.707Z,french_568.wav,0,poule,150,40,3,5,français,m,6,0.6,-60.5267324,1.01580547
5bc8dccd0f10750001d70a1c,46,0,2024-02-27T11:05:45.707Z,french_568.wav,0,poule,150,40,3,5,français,m,7,0.7,-3.05790796,1.88258485
5bc8dccd0f10750001d70a1c,46,0,2024-02-27T11:05:45.707Z,french_568.wav,0,poule,150,40,3,5,français,m,8,0.8,-0.0194333881,1.54499722
5bc8dccd0f10750001d70a1c,46,0,2024-02-27T11:05:45.707Z,french_568.wav,0,poule,150,40,3,5,français,m,9,0.9,-43.2141855,1.96475796
5bc8dccd0f10750001d70a1c,46,0,2024-02-27T11:05:45.707Z,french_568.wav,0,poule,150,40,3,5,français,m,10,1.0,-71.49699,1.68647767
5bc8dccd0f10750001d70a1c,46,0,2024-02-27T11:05:45.707Z,french_568.wav,0,poule,150,40,3,5,français,m,11,1.1,59.4482406,1.5210489
5bc8dccd0f10750001d70a1c,46,0,2024-02-27T11:05:45.707Z,french_568.wav,0,poule,150,40,3,5,français,m,12,1.14141667,-64.2949054,1.34194102
5bc8dccd0f10750001d70a1c,47,0,2024-02-27T11:05:45.707Z,french_735.wav,0,poule,192,40,3,5,français,m,0,0.0,60.52400958,1.5599289
5bc8dccd0f10750001d70a1c,47,0,2024-02-27T11:05:45.707Z,french_735.wav,0,poule,192,40,3,5,français,m,1,0.1,-17.91600836,0.29111111
5bc8dccd0f10750001d70a1c,47,0,2024-02-27T11:05:45.707Z,french_735.wav,0,poule,192,40,3,5,français,m,2,0.2,-46.91299441,0.33864527
5bc8dccd0f10750001d70a1c,47,0,2024-02-27T11:05:45.707Z,french_735.wav,0,poule,192,40,3,5,français,m,3,0.3,-30.29267527,1.13979288
5bc8dccd0f10750001d70a1c,47,0,2024-02-27T11:05:45.707Z,french_735.wav,0,poule,192,40,3,5,français,m,4,0.4,83.45572609,1.3417947
5bc8dccd0f10750001d70a1c,47,0,2024-02-27T11:05:45.707Z,french_735.wav,0,poule,192,40,3,5,français,m,5,0.5,18.59891183,0.20120288
5bc8dccd0f10750001d70a1c,47,0,2024-02-27T11:05:45.707Z,french_735.wav,0,poule,192,40,3,5,français,m,6,0.6,-0.20062731,0.67247106
5bc8dccd0f10750001d70a1c,47,0,2024-02-27T11:05:45.707Z,french_735.wav,0,poule,192,40,3,5,français,m,7,0.7,57.94821105,1.77306787
5bc8dccd0f10750001d70a1c,47,0,2024-02-27T11:05:45.707Z,french_735.wav,0,poule,192,40,3,5,français,m,8,0.8,-62.87783799,0.23048887
5bc8dccd0f10750001d70a1c,47,0,2024-02-27T11:05:45.707Z,french_735.wav,0,poule,192,40,3,5,français,m,9,0.9,58.4025126,1.53469278
5bc8dccd0f10750001d70a1c,47,0,2024-02-27T11:05:45.707Z,french_735.wav,0,poule,192,40,3,5,français,m,10,1.0,41.21120949,1.04962427
5bc8dccd0f10750001d70a1c,47,0,2024-02-27T11:05:45.707Z,french_735.wav,0,poule,192,40,3,5,français,m,11,1.1,-35.08644508,1.07883208
5bc8dccd0f10750001d70a1c,47,0,2024-02-27T11:05:45.707Z,french_735.wav,0,poule,192,40,3,5,français,m,12,1.14141667,70.16707056,0.16131969
5bc8dccd0f10750001d70a1c,48,0,2024-02-27T11:05:45.707Z,french_46.wav,0,poule,229,40,3,5,français,m,0,0.0,99.81614434,1.0866831
5bc8dccd0f10750001d70a1c,48,0,2024-02-27T11:05:45.707Z,french_46.wav,0,poule,229,40,3,5,français,m,1,0.1,-48.37285262,1.95885299
5bc8dccd0f10750001d70a1c,48,0,2024-02-27T11:05:45.707Z,french_46.wav,0,poule,229,40,3,5,français,m,2,0.2,-15.289429,1.4446691
5bc8dccd0f10750001d70a1c,48,0,2024-02-27T11:05:45.707Z,french_46.wav,0,poule,229,40,3,5,français,m,3,0.3,-32.07575043,0.38447547
5bc8dccd0f10750001d70a1c,48,0,2024-02-27T11:05:45.707Z,french_46.wav,0,poule,229,40,3,5,français,m,4,0.4,40.1498227,1.15577076
5bc8dccd0f10750001d70a1c,48,0,2024-02-27T11:05:45.707Z,french_46.wav,0,poule,229,40,3,5,français,m,5,0.5,-84.01004503,0.29139366
5bc8dccd0f10750001d70a1c,48,0,2024-02-27T11:05:45.707Z,french_46.wav,0,poule,229,40,3,5,français,m,6,0.6,93.21658911,1.72530213
5bc8dccd0f10750001d70a1c,48,0,2024-02-27T11:05:45.707Z,french_46.wav,0,poule,229,40,3,5,français,m,7,0.7,4.91881419,1.52355964
5bc8dccd0f10750001d70a1c,48,0,2024-02-27T11:05:45.707Z,french_46.wav,0,poule,229,40,3,5,français,m,8,0.8,57.5716667,0.25788511
5bc8dccd0f10750001d70a1c,48,0,2024-02-27T11:05:45.707Z,french_46.wav,0,poule,229,40,3,5,français,m,9,0.9,42.88371802,1.60513185
5bc8dccd0f10750001d70a1c,48,0,2024-02-27T11:05:45.707Z,french_46.wav,0,poule,229,40,3,5,français,m,10,1.0,-86.43270606,0.1017556
5bc8dccd0f10750001d70a1c,48,0,2024-02-27T11:05:45.707Z,french_46.wav,0,poule,229,40,3,5,français,m,11,1.1,91.49267578,1.36747558
5bc8dccd0f10750001d70a1c,48,0,2024-02-27T11:05:45.707Z,french_46.wav,0,poule,229,40,3,5,français,m,12,1.14141667,-10.51058417,0.66277577
5bc8dccd0f10750001d70a1c,49,0,2024-02-27T11:05:45.707Z,french_761.wav,0,poule,187,40,3,5,français,m,0,0.0,-4.65368555,1.68992553
5bc8dccd0f10750001d70a1c,49,0,2024-02-27T11:05:45.707Z,french_761.wav,0,poule,187,40,3,5,français,m,1,0.1,-95.02047891,1.90989282
5bc8dccd0f10750001d70a1c,49,0,2024-02-27T11:05:45.707Z,french_761.wav,0,poule,187,40,3,5,français,m,2,0.2,-46.13477508,1.32561582
5bc8dccd0f10750001d70a1c,49,0,2024-02-27T11:05:45.707Z,french_761.wav,0,poule,187,40,3,5,français,m,3,0.3,44.60720678,1.43060887
5bc8dccd0f10750001d70a1c,49,0,2024-02-27T11:05:45.707Z,french_761.wav,0,poule,187,40,3,5,français,m,4,0.4,-56.15470629,0.29002682
5bc8dccd0f10750001d70a1c,49,0,2024-02-27T11:05:45.707Z,french_761.wav,0,poule,187,40,3,5,français,m,5,0.5,-5.62885822,1.48383664
5bc8dccd0f10750001d70a1c,49,0,2024-02-27T11:05:45.707Z,french_761.wav,0,poule,187,40,3,5,français,m,6,0.6,16.04939415,0.48742164
5bc8dccd0f10750001d70a1c,49,0,2024-02-27T11:05:45.707Z,french_761.wav,0,poule,187,40,3,5,français,m,7,0.7,-7.40448264,0.57849003
5bc8dccd0f10750001d70a1c,49,0,2024-02-27T11:05:45.707Z,french_761.wav,0,poule,187,40,3,5,français,m,8,0.8,-49.19151668,0.03179743
5bc8dccd0f10750001d70a1c,49,0,2024-02-27T11:05:45.707Z,french_761.wav,0,poule,187,40,3,5,français,m,9,0.9,-21.58992812,1.574395
5bc8dccd0f10750001d70a1c,49,0,2024-02-27T11:05:45.707Z,french_761.wav,0,poule,187,40,3,5,français,m,10,1.0,97.9984375,1.21779741
5bc8dccd0f10750001d70a1c,49,0,2024-02-27T11:05:45.707Z,french_761.wav,0,poule,187,40,3,5,français,m,11,1.1,-54.45281711,1.83689478
5bc8dccd0f10750001d70a1c,49,0,2024-02-27T11:05:45.707Z,french_761.wav,0,poule,187,40,3,5,français,m,12,1.14141667,96.15058985,0.73963704
5bc8dccd0f10750001d70a1c,50,1,2024-02-27T11:05:45.707Z,french_868.wav,0,poule,279,40,3,5,français,m,0,0.0,21.75364705,1.22135982
5bc8dccd0f10750001d70a1c,50,1,2024-02-27T11:05:45.707Z,french_868.wav,0,poule,279,40,3,5,français,m,1,0.1,39.13898411,0.45068815
5bc8dccd0f10750001d70a1c,50,1,2024-02-27T11:05:45.707Z,french_868.wav,0,poule,279,40,3,5,français,m,2,0.2,-6.36020837,0.45536775
5bc8dccd0f10750001d70a1c,50,1,2024-02-27T11:05:45.707Z,french_868.wav,0,poule,279,40,3,5,français,m,3,0.3,-75.1690358,1.09222167
5bc8dccd0f10750001d70a1c,50,1,2024-02-27T11:05:45.707Z,french_868.wav,0,poule,279,40,3,5,français,m,4,0.4,-40.50969181,1.19786422
5bc8dccd0f10750001d70a1c,50,1,2024-02-27T11:05:45.707Z,french_868.wav,0,poule,279,40,3,5,français,m,5,0.5,73.36588878,1.65811533
5bc8dccd0f10750001d70a1c,50,1,2024-02-27T11:05:45.707Z,french_868.wav,0,poule,279,40,3,5,français,m,6,0.6,58.00285261,1.1326438
5bc8dccd0f10750001d70a1c,50,1,2024-02-27T11:05:45.707Z,french_868.wav,0,poule,279,40,3,5,français,m,7,0.7,-7.78630182,0.35406026
5bc8dccd0f10750001d70a1c,50,1,2024-02-27T11:05:45.707Z,french_868.wav,0,poule,279,40,3,5,français,m,8,0.8,0.49140151,0.20870274
5bc8dccd0f10750001d70a1c,50,1,2024-02-27T11:05:45.707Z,french_868.wav,0,poule,279,40,3,5,français,m,9,0.9,-75.3340621,1.59273358
5bc8dccd0f10750001d70a1c,50,1,2024-02-27T11:05:45.707Z,french_868.wav,0,poule,279,40,3,5,français,m,10,1.0,4.19679742,0.29740146
5bc8dccd0f10750001d70a1c,50,1,2024-02-27T11:05:45.707Z,french_868.wav,0,poule,279,40,3,5,français,m,11,1.1,-42.11878941,0.88262511
5bc8dccd0f10750001d70a1c,50,1,2024-02-27T11:05:45.707Z,french_868.wav,0,poule,279,40,3,5,français,m,12,1.14141667,-77.23937445,0.84119303
5bc8dccd0f10750001d70a1c,51,1,2024-02-27T11:05:45.707Z,french_768.wav,0,pull,523,40,3,5,français,m,0,0.0,-90.25998479,0.74075575
5bc8dccd0f10750001d70a1c,51,1,2024-02-27T11:05:45.707Z,french_768.wav,0,pull,523,40,3,5,français,m,1,0.1,34.21415615,0.17866259
5bc8dccd0f10750001d70a1c,51,1,2024-02-27T11:05:45.707Z,french_768.wav,0,pull,523,40,3,5,français,m,2,0.2,-52.71140353,1.12012438
5bc8dccd0f10750001d70a1c,51,1,2024-02-27T11:05:45.707Z,french_768.wav,0,pull,523,40,3,5,français,m,3,0.3,-0.87917212,1.6540895
5bc8dccd0f10750001d70a1c,51,1,2024-02-27T11:05:45.707Z,french_768.wav,0,pull,523,40,3,5,français,m,4,0.4,16.13384172,0.5612472
5bc8dccd0f10750001d70a1c,51,1,2024-02-27T11:05:45.707Z,french_768.wav,0,pull,523,40,3,5,français,m,5,0.5,40.42476131,0.6068206
5bc8dccd0f10750001d70a1c,51,1,2024-02-27T11:05:45.707Z,french_768.wav,0,pull,523,40,3,5,français,m,6,0.6,89.24687933,0.74654886
5bc8dccd0f10750001d70a1c,51,1,2024-02-27T11:05:45.707Z,french_768.wav,0,pull,523,40,3,5,français,m,7,0.7,-96.15596273,0.53936952
5bc8dccd0f10750001d70a1c,51,1,2024-02-27T11:05:45.707Z,french_768.wav,0,pull,523,40,3,5,français,m,8,0.8,-38.29186897,1.70646715
5bc8dccd0f10750001d70a1c,51,1,2024-02-27T11:05:45.707Z,french_768.wav,0,pull,523,40,3,5,français,m,9,0.9,-17.48626228,0.70300524
5bc8dccd0f10750001d70a1c,51,1,2024-02-27T11:05:45.707Z,french_768.wav,0,pull,523,40,3,5,français,m,10,1.0,19.34641069,1.33185606
5bc8dccd0f10750001d70a1c,51,1,2024-02-27T11:05:45.707Z,french_768.wav,0,pull,523,40,3,5,français,m,11,1.1,11.56546597,0.71915286
5bc8dccd0f10750001d70a1c,51,1,2024-02-27T11:05:45.707Z,french_768.wav,0,pull,523,40,3,5,français,m,12,1.14141667,81.99709235,0.49042586
5bc8dccd0f10750001d70a1c,52,1,2024-02-27T11:05:45.707Z,french_715.wav,0,poule,144,40,3,5,français,m,0,0.0,29.09235338,0.68387868
5bc8dccd0f10750001d70a1c,52,1,2024-02-27T11:05:45.707Z,french_715.wav,0,poule,144,40,3,5,français,m,1,0.1,61.36228021,0.41187782
5bc8dccd0f10750001d70a1c,52,1,2024-02-27T11:05:45.707Z,french_715.wav,0,poule,144,40,3,5,français,m,2,0.2,10.6031568,0.00341507
5bc8dccd0f10750001d70a1c,52,1,2024-02-27T11:05:45.707Z,french_715.wav,0,poule,144,40,3,5,français,m,3,0.3,56.69704228,1.41549819
5bc8dccd0f10750001d70a1c,52,1,2024-02-27T11:05:45.707Z,french_715.wav,0,poule,144,40,3,5,français,m,4,0.4,27.32467936,1.88841919
5bc8dccd0f10750001d70a1c,52,1,2024-02-27T11:05:45.707Z,french_715.wav,0,poule,144,40,3,5,français,m,5,0.5,-48.62858271,0.8974375
5bc8dccd0f10750001d70a1c,52,1,2024-02-27T11:05:45.707Z,french_715.wav,0,poule,144,40,3,5,français,m,6,0.6,-3.68134428,1.39682713
5bc8dccd0f10750001d70a1c,52,1,2024-02-27T11:05:45.707Z,french_715.wav,0,poule,144,40,3,5,français,m,7,0.7,-64.08054683,1.82228558
5bc8dccd0f10750001d70a1c,52,1,2024-02-27T11:05:45.707Z,french_715.wav,0,poule,144,40,3,5,français,m,8,0.8,-70.8412554,1.0908324
5bc8dccd0f10750001d70a1c,52,1,2024-02-27T11:05:45.707Z,french_715.wav,0,poule,144,40,3,5,français,m,9,0.9,62.36119478,1.21742769
5bc8dccd0f10750001d70a1c,52,1,2024-02-27T11:05:45.707Z,french_715.wav,0,poule,144,40,3,5,français,m,10,1.0,-44.29367688,1.23238319
5bc8dccd0f10750001d70a1c,52,1,2024-02-27T11:05:45.707Z,french_715.wav,0,poule,144,40,3,5,français,m,11,1.1,-5.43460081,0.68481682
5bc8dccd0f10750001d70a1c,52,1,2024-02-27T11:05:45.707Z,french_715.wav,0,poule,144,40,3,5,français,m,12,1.14141667,43.03867708,1.9656601
5bc8dccd0f10750001d70a1c,53,1,2024-02-27T11:05:45.707Z,french_64.wav,0,poule,247,40,3,5,français,m,0,0.0,81.21142121,1.90047577
5bc8dccd0f10750001d70a1c,53,1,2024-02-27T11:05:45.707Z,french_64.wav,0,poule,247,40,3,5,français,m,1,0.1,52.51696492,0.82684284
5bc8dccd0f10750001d70a1c,53,1,2024-02-27T11:05:45.707Z,french_64.wav,0,poule,247,40,3,5,français,m,2,0.2,-39.17561774,1.63922719
5bc8dccd0f10750001d70a1c,53,1,2024-02-27T11:05:45.707Z,french_64.wav,0,poule,247,40,3,5,français,m,3,0.3,-2.55926089,1.09796892
5bc8dccd0f10750001d70a1c,53,1,2024-02-27T11:05:45.707Z,french_64.wav,0,poule,247,40,3,5,français,m,4,0.4,-19.82016782,1.84824586
5bc8dccd0f10750001d70a1c,53,1,2024-02-27T11:05:45.707Z,french_64.wav,0,poule,247,40,3,5,français,m,5,0.5,-96.27205137,0.08398419
5bc8dccd0f10750001d70a1c,53,1,2024-02-27T11:05:45.707Z,french_64.wav,0,poule,247,40,3,5,français,m,6,0.6,-91.08602274,1.68744275
5bc8dccd0f10750001d70a1c,53,1,2024-02-27T11:05:45.707Z,french_64.wav,0,poule,247,40,3,5,français,m,7,0.7,21.95313621,1.11317645
5bc8dccd0f10750001d70a1c,53,1,2024-02-27T11:05:45.707Z,french_64.wav,0,poule,247,40,3,5,français,m,8,0.8,-83.87757175,0.69266869
5bc8dccd0f10750001d70a1c,53,1,2024-02-27T11:05:45.707Z,french_64.wav,0,poule,247,40,3,5,français,m,9,0.9,-15.46224959,1.31844382
5bc8dccd0f10750001d70a1c,53,1,2024-02-27T11:05:45.707Z,french_64.wav,0,poule,247,40,3,5,français,m,10,1.0,99.28922275,1.05971477
5bc8dccd0f10750001d70a1c,53,1,2024-02-27T11:05:45.707Z,french_64.wav,0,poule,247,40,3,5,français,m,11,1.1,-34.89576086,1.50408115
5bc8dccd0f10750001d70a1c,53,1,2024-02-27T11:05:45.707Z,french_64.wav,0,poule,247,40,3,5,français,m,12,1.14141667,-88.74649368,0.80519135
5bc8dccd0f10750001d70a1c,54,1,2024-02-27T11:05:45.707Z,french_653.wav,0,poule,632,40,3,5,français,m,0,0.0,-16.6650237,0.6514058
5bc8dccd0f10750001d70a1c,54,1,2024-02-27T11:05:45.707Z,french_653.wav,0,poule,632,40,3,5,français,m,1,0.1,-8.50735594,0.80912236
5bc8dccd0f10750001d70a1c,54,1,2024-02-27T11:05:45.707Z,french_653.wav,0,poule,632,40,3,5,français,m,2,0.2,59.74245416,1.05565194
5bc8dccd0f10750001d70a1c,54,1,2024-02-27T11:05:45.707Z,french_653.wav,0,poule,632,40,3,5,français,m,3,0.3,-64.86263645,1.59567426
5bc8dccd0f10750001d70a1c,54,1,2024-02-27T11:05:45.707Z,french_653.wav,0,poule,632,40,3,5,français,m,4,0.4,-59.72264617,1.49585524
5bc8dccd0f10750001d70a1c,54,1,2024-02-27T11:05:45.707Z,french_653.wav,0,poule,632,40,3,5,français,m,5,0.5,-38.42409471,0.43064882
5bc8dccd0f10750001d70a1c,54,1,2024-02-27T11:05:45.707Z,french_653.wav,0,poule,632,40,3,5,français,m,6,0.6,-66.71222224,0.29035008
5bc8dccd0f10750001d70a1c,54,1,2024-02-27T11:05:45.707Z,french_653.wav,0,poule,632,40,3,5,français,m,7,0.7,-1.64153682,1.70426818
5bc8dccd0f10750001d70a1c,54,1,2024-02-27T11:05:45.707Z,french_653.wav,0,poule,632,40,3,5,français,m,8,0.8,-58.84034728,0.82836214
5bc8dccd0f10750001d70a1c,54,1,2024-02-27T11:05:45.707Z,french_653.wav,0,poule,632,40,3,5,français,m,9,0.9,24.2211282,0.71951004
5bc8dccd0f10750001d70a1c,54,1,2024-02-27T11:05:45.707Z,french_653.wav,0,poule,632,40,3,5,français,m,10,1.0,2.29759393,0.36282723
5bc8dccd0f10750001d70a1c,54,1,2024-02-27T11:05:45.707Z,french_653.wav,0,poule,632,40,3,5,français,m,11,1.1,-18.37494867,0.47770594
5bc8dccd0f10750001d70a1c,54,1,2024-02-27T11:05:45.707Z,french_653.wav,0,poule,632,40,3,5,français,m,12,1.14141667,-14.47262819,1.04977426
5bc8dccd0f10750001d70a1c,55,1,2024-02-27T11:05:45.707Z,french_645.wav,0,pull,530,40,3,5,français,m,0,0.0,72.31495758,0.48297352
5bc8dccd0f10750001d70a1c,55,1,2024-02-27T11:05:45.707Z,french_645.wav,0,pull,530,40,3,5,français,m,1,0.1,33.02660592,0.83233139
5bc8dccd0f10750001d70a1c,55,1,2024-02-27T11:05:45.707Z,french_645.wav,0,pull,530,40,3,5,français,m,2,0.2,34.75230783,1.71239538
5bc8dccd0f10750001d70a1c,55,1,2024-02-27T11:05:45.707Z,french_645.wav,0,pull,530,40,3,5,français,m,3,0.3,-18.56661781,1.40195872
5bc8dccd0f10750001d70a1c,55,1,2024-02-27T11:05:45.707Z,french_645.wav,0,pull,530,40,3,5,français,m,4,0.4,8.74487048,1.61832293
5bc8dccd0f10750001d70a1c,55,1,2024-02-27T11:05:45.707Z,french_645.wav,0,pull,530,40,3,5,français,m,5,0.5,-10.39866584,1.2979752
5bc8dccd0f10750001d70a1c,55,1,2024-02-27T11:05:45.707Z,french_645.wav,0,pull,530,40,3,5,français,m,6,0.6,-2.65155949,0.96060036
5bc8dccd0f10750001d70a1c,55,1,2024-02-27T11:05:45.707Z,french_645.wav,0,pull,530,40,3,5,français,m,7,0.7,60.61639305,0.64913106
5bc8dccd0f10750001d70a1c,55,1,2024-02-27T11:05:45.707Z,french_645.wav,0,pull,530,40,3,5,français,m,8,0.8,59.13088836,1.1310807
5bc8dccd0f10750001d70a1c,55,1,2024-02-27T11:05:45.707Z,french_645.wav,0,pull,530,40,3,5,français,m,9,0.9,-78.24987601,0.33061151
5bc8dccd0f10750001d70a1c,55,1,2024-02-27T11:05:45.707Z,french_645.wav,0,pull,530,40,3,5,français,m,10,1.0,10.94023696,1.5971495
5bc8dccd0f10750001d70a1c,55,1,2024-02-27T11:05:45.707Z,french_645.wav,0,pull,530,40,3,5,français,m,11,1.1,75.3572766,0.19394904
5bc8dccd0f10750001d70a1c,55,1,2024-02-27T11:05:45.707Z,french_645.wav,0,pull,530,40,3,5,français,m,12,1.14141667,-5.37493528,0.40379368
5bc8dccd0f10750001d70a1c,56,1,2024-02-27T11:05:45.707Z,french_967.wav,0,pull,705,40,3,5,français,m,0,0.0,-71.34607959,1.03552624
5bc8dccd0f10750001d70a1c,56,1,2024-02-27T11:05:45.707Z,french_967.wav,0,pull,705,40,3,5,français,m,1,0.1,-35.65819027,0.70466862
5bc8dccd0f10750001d70a1c,56,1,2024-02-27T11:05:45.707Z,french_967.wav,0,pull,705,40,3,5,français,m,2,0.2,-68.20202891,1.43535484
5bc8dccd0f10750001d70a1c,56,1,2024-02-27T11:05:45.707Z,french_967.wav,0,pull,705,40,3,5,français,m,3,0.3,-57.58758282,1.6501514
5bc8dccd0f10750001d70a1c,56,1,2024-02-27T11:05:45.707Z,french_967.wav,0,pull,705,40,3,5,français,m,4,0.4,70.48380742,0.3504388
5bc8dccd0f10750001d70a1c,56,1,2024-02-27T11:05:45.707Z,french_967.wav,0,pull,705,40,3,5,français,m,5,0.5,95.19228037,0.93193126
5bc8dccd0f10750001d70a1c,56,1,2024-02-27T11:05:45.707Z,french_967.wav,0,pull,705,40,3,5,français,m,6,0.6,-39.65708514,0.84411513
5bc8dccd0f10750001d70a1c,56,1,2024-02-27T11:05:45.707Z,french_967.wav,0,pull,705,40,3,5,français,m,7,0.7,-83.522521,1.24684146
5bc8dccd0f10750001d70a1c,56,1,2024-02-27T11:05:45.707Z,french_967.wav,0,pull,705,40,3,5,français,m,8,0.8,80.27349765,0.46592488
5bc8dccd0f10750001d70a1c,56,1,2024-02-27T11:05:45.707Z,french_967.wav,0,pull,705,40,3,5,français,m,9,0.9,71.24042066,1.15667054
5bc8dccd0f10750001d70a1c,56,1,2024-02-27T11:05:45.707Z,french_967.wav,0,pull,705,40,3,5,français,m,10,1.0,65.47365617,1.88512118
5bc8dccd0f10750001d70a1c,56,1,2024-02-27T11:05:45.707Z,french_967.wav,0,pull,705,40,3,5,français,m,11,1.1,-37.87916856,0.13959958
5bc8dccd0f10750001d70a1c,56,1,2024-02-27T11:05:45.707Z,french_967.wav,0,pull,705,40,3,5,français,m,12,1.14141667,-5.33917093,0.65218631
5bc8dccd0f10750001d70a1c,57,1,2024-02-27T11:05:45.707Z,french_502.wav,0,poule,175,40,3,5,français,m,0,0.0,-11.4543729,1.77169865
5bc8dccd0f10750001d70a1c,57,1,2024-02-27T11:05:45.707Z,french_502.wav,0,poule,175,40,3,5,français,m,1,0.1,-12.17896381,0.29167806
5bc8dccd0f10750001d70a1c,57,1,2024-02-27T11:05:45.707Z,french_502.wav,0,poule,175,40,3,5,français,m,2,0.2,-48.87403032,1.41232328
5bc8dccd0f10750001d70a1c,57,1,2024-02-27T11:05:45.707Z,french_502.wav,0,poule,175,40,3,5,français,m,3,0.3,-0.23226325,0.78511054
5bc8dccd0f10750001d70a1c,57,1,2024-02-27T11:05:45.707Z,french_502.wav,0,poule,175,40,3,5,français,m,4,0.4,39.39265286,1.65701815
5bc8dccd0f10750001d70a1c,57,1,2024-02-27T11:05:45.707Z,french_502.wav,0,poule,175,40,3,5,français,m,5,0.5,69.41626591,1.20660202
5bc8dccd0f10750001d70a1c,57,1,2024-02-27T11:05:45.707Z,french_502.wav,0,poule,175,40,3,5,français,m,6,0.6,-11.96295955,1.43326672
5bc8dccd0f10750001d70a1c,57,1,2024-02-27T11:05:45.707Z,french_502.wav,0,poule,175,40,3,5,français,m,7,0.7,-21.04513411,1.53062685
5bc8dccd0f10750001d70a1c,57,1,2024-02-27T11:05:45.707Z,french_502.wav,0,poule,175,40,3,5,français,m,8,0.8,55.87157954,1.71764437
5bc8dccd0f10750001d70a1c,57,1,2024-02-27T11:05:45.707Z,french_502.wav,0,poule,175,40,3,5,français,m,9,0.9,22.29735048,1.18231357
5bc8dccd0f10750001d70a1c,57,1,2024-02-27T11:05:45.707Z,french_502.wav,0,poule,175,40,3,5,français,m,10,1.0,92.74541313,1.70094513
5bc8dccd0f10750001d70a1c,57,1,2024-02-27T11:05:45.707Z,french_502.wav,0,poule,175,40,3,5,français,m,11,1.1,59.88842098,1.38297596
5bc8dccd0f10750001d70a1c,57,1,2024-02-27T11:05:45.707Z,french_502.wav,0,poule,175,40,3,5,français,m,12,1.14141667,69.69061872,0.39008766
5bc8dccd0f10750001d70a1c,58,1,2024-02-27T11:05:45.707Z,french_283.wav,0,pull,374,40,3,5,français,m,0,0.0,85.09524946,1.18974262
5bc8dccd0f10750001d70a1c,58,1,2024-02-27T11:05:45.707Z,french_283.wav,0,pull,374,40,3,5,français,m,1,0.1,-97.54308337,0.87209609
5bc8dccd0f10750001d70a1c,58,1,2024-02-27T11:05:45.707Z,french_283.wav,0,pull,374,40,3,5,français,m,2,0.2,-40.85204681,1.85393105
5bc8dccd0f10750001d70a1c,58,1,2024-02-27T11:05:45.707Z,french_283.wav,0,pull,374,40,3,5,français,m,3,0.3,-2.35384301,0.12748359
5bc8dccd0f10750001d70a1c,58,1,2024-02-27T11:05:45.707Z,french_283.wav,0,pull,374,40,3,5,français,m,4,0.4,-31.68218734,0.27016739
5bc8dccd0f10750001d70a1c,58,1,2024-02-27T11:05:45.707Z,french_283.wav,0,pull,374,40,3,5,français,m,5,0.5,-91.02321919,0.64146537
5bc8dccd0f10750001d70a1c,58,1,2024-02-27T11:05:45.707Z,french_283.wav,0,pull,374,40,3,5,français,m,6,0.6,44.13360811,0.80126796
5bc8dccd0f10750001d70a1c,58,1,2024-02-27T11:05:45.707Z,french_283.wav,0,pull,374,40,3,5,français,m,7,0.7,-68.52408845,0.44632746
5bc8dccd0f10750001d70a1c,58,1,2024-02-27T11:05:45.707Z,french_283.wav,0,pull,374,40,3,5,français,m,8,0.8,17.15846586,1.0554532
5bc8dccd0f10750001d70a1c,58,1,2024-02-27T11:05:45.707Z,french_283.wav,0,pull,374,40,3,5,français,m,9,0.9,-35.58743883,0.31893528
5bc8dccd0f10750001d70a1c,58,1,2024-02-27T11:05:45.707Z,french_283.wav,0,pull,374,40,3,5,français,m,10,1.0,89.20732919,0.28549057
5bc8dccd0f10750001d70a1c,58,1,2024-02-27T11:05:45.707Z,french_283.wav,0,pull,374,40,3,5,français,m,11,1.1,-57.32248704,1.83484261
5bc8dccd0f10750001d70a1c,58,1,2024-02-27T11:05:45.707Z,french_283.wav,0,pull,374,40,3,5,français,m,12,1.14141667,28.07262427,1.84086056
5bc8dccd0f10750001d70a1c,59,1,2024-02-27T11:05:45.707Z,french_625.wav,0,poule,170,40,3,5,français,m,0,0.0,-52.31869124,1.63379894
5bc8dccd0f10750001d70a1c,59,1,2024-02-27T11:05:45.707Z,french_625.wav,0,poule,170,40,3,5,français,m,1,0.1,-25.23577265,0.38535148
5bc8dccd0f10750001d70a1c,59,1,2024-02-27T11:05:45.707Z,french_625.wav,0,poule,170,40,3,5,français,m,2,0.2,-60.75977445,1.4410786
5bc8dccd0f10750001d70a1c,59,1,2024-02-27T11:05:45.707Z,french_625.wav,0,poule,170,40,3,5,français,m,3,0.3,-3.59619095,0.29355574
5bc8dccd0f10750001d70a1c,59,1,2024-02-27T11:05:45.707Z,french_625.wav,0,poule,170,40,3,5,français,m,4,0.4,-51.44020573,1.40834543
