subj,trial,block,date,stim,stim_order,response,rt,age,english,french,language,sex,param_index,segment,pitch,stretch
5d726b8a0c3f0f0017cdfcf7,0,0,2024-02-27T11:24:43.680Z,french_272.wav,0,pull,2746,33,4,5,Français,m,0,0.0,42.6629916,0.82181087
5d726b8a0c3f0f0017cdfcf7,0,0,2024-02-27T11:24:43.680Z,french_272.wav,0,pull,2746,33,4,5,Français,m,1,0.1,-44.58032128,1.24121052
5d726b8a0c3f0f0017cdfcf7,0,0,2024-02-27T11:24:43.680Z,french_272.wav,0,pull,2746,33,4,5,Français,m,2,0.2,-63.79515668,1.18763114
5d726b8a0c3f0f0017cdfcf7,0,0,2024-02-27T11:24:43.680Z,french_272.wav,0,pull,2746,33,4,5,Français,m,3,0.3,65.68552079,1.12080473
5d726b8a0c3f0f0017cdfcf7,0,0,2024-02-27T11:24:43.680Z,french_272.wav,0,pull,2746,33,4,5,Français,m,4,0.4,-73.43471872,0.3216303
5d726b8a0c3f0f0017cdfcf7,0,0,2024-02-27T11:24:43.680Z,french_272.wav,0,pull,2746,33,4,5,Français,m,5,0.5,-9.94342822,1.28123666
5d726b8a0c3f0f0017cdfcf7,0,0,2024-02-27T11:24:43.680Z,french_272.wav,0,pull,2746,33,4,5,Français,m,6,0.6,-63.79991276,1.07872971
5d726b8a0c3f0f0017cdfcf7,0,0,2024-02-27T11:24:43.680Z,french_272.wav,0,pull,2746,33,4,5,Français,m,7,0.7,10.2914571,1.60584441
5d726b8a0c3f0f0017cdfcf7,0,0,2024-02-27T11:24:43.680Z,french_272.wav,0,pull,2746,33,4,5,Français,m,8,0.8,44.90388393,1.61709033
5d726b8a0c3f0f0017cdfcf7,0,0,2024-02-27T11:24:43.680Z,french_272.wav,0,pull,2746,33,4,5,Français,m,9,0.9,11.26467692,0.76221234
5d726b8a0c3f0f0017cdfcf7,0,0,2024-02-27T11:24:43.680Z,french_272.wav,0,pull,2746,33,4,5,Français,m,10,1.0,-19.2327242,1.01212213
5d726b8a0c3f0f0017cdfcf7,0,0,2024-02-27T11:24:43.680Z,french_272.wav,0,pull,2746,33,4,5,Français,m,11,1.1,-57.17946334,0.46924284
5d726b8a0c3f0f0017cdfcf7,0,0,2024-02-27T11:24:43.680Z,french_272.wav,0,pull,2746,33,4,5,Français,m,12,1.14141667,-5.9395339,0.6492678
5d726b8a0c3f0f0017cdfcf7,1,0,2024-02-27T11:24:43.680Z,french_563.wav,0,pull,2613,33,4,5,Français,m,0,0.0,-18.48690039,1.01817279
5d726b8a0c3f0f0017cdfcf7,1,0,2024-02-27T11:24:43.680Z,french_563.wav,0,pull,2613,33,4,5,Français,m,1,0.1,2.00658383,1.07027472
5d726b8a0c3f0f0017cdfcf7,1,0,2024-02-27T11:24:43.680Z,french_563.wav,0,pull,2613,33,4,5,Français,m,2,0.2,-2.94190468,1.8363238
5d726b8a0c3f0f0017cdfcf7,1,0,2024-02-27T11:24:43.680Z,french_563.wav,0,pull,2613,33,4,5,Français,m,3,0.3,-70.41816724,1.54493363
5d726b8a0c3f0f0017cdfcf7,1,0,2024-02-27T11:24:43.680Z,french_563.wav,0,pull,2613,33,4,5,Français,m,4,0.4,42.499536,1.83513374
5d726b8a0c3f0f0017cdfcf7,1,0,2024-02-27T11:24:43.680Z,french_563.wav,0,pull,2613,33,4,5,Français,m,5,0.5,-25.6895716,1.43442208
5d726b8a0c3f0f0017cdfcf7,1,0,2024-02-27T11:24:43.680Z,french_563.wav,0,pull,2613,33,4,5,Français,m,6,0.6,24.56038129,0.46610817
5d726b8a0c3f0f0017cdfcf7,1,0,2024-02-27T11:24:43.680Z,french_563.wav,0,pull,2613,33,4,5,Français,m,7,0.7,59.83625403,0.92581496
5d726b8a0c3f0f0017cdfcf7,1,0,2024-02-27T11:24:43.680Z,french_563.wav,0,pull,2613,33,4,5,Français,m,8,0.8,-85.83359491,0.79367703
5d726b8a0c3f0f0017cdfcf7,1,0,2024-02-27T11:24:43.680Z,french_563.wav,0,pull,2613,33,4,5,Français,m,9,0.9,39.11680953,0.597416
5d726b8a0c3f0f0017cdfcf7,1,0,2024-02-27T11:24:43.680Z,french_563.wav,0,pull,2613,33,4,5,Français,m,10,1.0,30.08122272,0.36055565
5d726b8a0c3f0f0017cdfcf7,1,0,2024-02-27T11:24:43.680Z,french_563.wav,0,pull,2613,33,4,5,Français,m,11,1.1,-5.29636358,1.2213186
5d726b8a0c3f0f0017cdfcf7,1,0,2024-02-27T11:24:43.680Z,french_563.wav,0,pull,2613,33,4,5,Français,m,12,1.14141667,-4.96320047,0.37525838
5d726b8a0c3f0f0017cdfcf7,2,0,2024-02-27T11:24:43.680Z,french_132.wav,0,poule,452,33,4,5,Français,m,0,0.0,-39.49992325,1.25715362
5d726b8a0c3f0f0017cdfcf7,2,0,2024-02-27T11:24:43.680Z,french_132.wav,0,poule,452,33,4,5,Français,m,1,0.1,12.56464433,1.38299609
5d726b8a0c3f0f0017cdfcf7,2,0,2024-02-27T11:24:43.680Z,french_132.wav,0,poule,452,33,4,5,Français,m,2,0.2,-19.66121961,1.31353323
5d726b8a0c3f0f0017cdfcf7,2,0,2024-02-27T11:24:43.680Z,french_132.wav,0,poule,452,33,4,5,Français,m,3,0.3,17.53643983,0.57903675
5d726b8a0c3f0f0017cdfcf7,2,0,2024-02-27T11:24:43.680Z,french_132.wav,0,poule,452,33,4,5,Français,m,4,0.4,-30.93006167,0.433016
5d726b8a0c3f0f0017cdfcf7,2,0,2024-02-27T11:24:43.680Z,french_132.wav,0,poule,452,33,4,5,Français,m,5,0.5,94.6587443,1.86936927
5d726b8a0c3f0f0017cdfcf7,2,0,2024-02-27T11:24:43.680Z,french_132.wav,0,poule,452,33,4,5,Français,m,6,0.6,-17.81116059,1.74080781
5d726b8a0c3f0f0017cdfcf7,2,0,2024-02-27T11:24:43.680Z,french_132.wav,0,poule,452,33,4,5,Français,m,7,0.7,-55.25606882,0.26557052
5d726b8a0c3f0f0017cdfcf7,2,0,2024-02-27T11:24:43.680Z,french_132.wav,0,poule,452,33,4,5,Français,m,8,0.8,-83.71334373,1.15851722
5d726b8a0c3f0f0017cdfcf7,2,0,2024-02-27T11:24:43.680Z,french_132.wav,0,poule,452,33,4,5,Français,m,9,0.9,-64.39924359,1.13892556
5d726b8a0c3f0f0017cdfcf7,2,0,2024-02-27T11:24:43.680Z,french_132.wav,0,poule,452,33,4,5,Français,m,10,1.0,-5.39233106,0.881703
5d726b8a0c3f0f0017cdfcf7,2,0,2024-02-27T11:24:43.680Z,french_132.wav,0,poule,452,33,4,5,Français,m,11,1.1,-83.89184369,0.12509231
5d726b8a0c3f0f0017cdfcf7,2,0,2024-02-27T11:24:43.680Z,french_132.wav,0,poule,452,33,4,5,Français,m,12,1.14141667,20.67053146,1.62422028
5d726b8a0c3f0f0017cdfcf7,3,0,2024-02-27T11:24:43.680Z,french_684.wav,0,pull,1531,33,4,5,Français,m,0,0.0,-88.96240825,1.78476448
5d726b8a0c3f0f0017cdfcf7,3,0,2024-02-27T11:24:43.680Z,french_684.wav,0,pull,1531,33,4,5,Français,m,1,0.1,-54.37508207,0.02576857
5d726b8a0c3f0f0017cdfcf7,3,0,2024-02-27T11:24:43.680Z,french_684.wav,0,pull,1531,33,4,5,Français,m,2,0.2,-91.57905397,1.04724647
5d726b8a0c3f0f0017cdfcf7,3,0,2024-02-27T11:24:43.680Z,french_684.wav,0,pull,1531,33,4,5,Français,m,3,0.3,-58.85501017,0.76694618
5d726b8a0c3f0f0017cdfcf7,3,0,2024-02-27T11:24:43.680Z,french_684.wav,0,pull,1531,33,4,5,Français,m,4,0.4,44.82481671,0.80269361
5d726b8a0c3f0f0017cdfcf7,3,0,2024-02-27T11:24:43.680Z,french_684.wav,0,pull,1531,33,4,5,Français,m,5,0.5,-70.60806513,0.84512097
5d726b8a0c3f0f0017cdfcf7,3,0,2024-02-27T11:24:43.680Z,french_684.wav,0,pull,1531,33,4,5,Français,m,6,0.6,94.32148608,0.97813642
5d726b8a0c3f0f0017cdfcf7,3,0,2024-02-27T11:24:43.680Z,french_684.wav,0,pull,1531,33,4,5,Français,m,7,0.7,-17.32520236,0.54666182
5d726b8a0c3f0f0017cdfcf7,3,0,2024-02-27T11:24:43.680Z,french_684.wav,0,pull,1531,33,4,5,Français,m,8,0.8,29.06027198,0.58446507
5d726b8a0c3f0f0017cdfcf7,3,0,2024-02-27T11:24:43.680Z,french_684.wav,0,pull,1531,33,4,5,Français,m,9,0.9,-57.57833097,0.42247579
5d726b8a0c3f0f0017cdfcf7,3,0,2024-02-27T11:24:43.680Z,french_684.wav,0,pull,1531,33,4,5,Français,m,10,1.0,-48.20877129,0.8068102
5d726b8a0c3f0f0017cdfcf7,3,0,2024-02-27T11:24:43.680Z,french_684.wav,0,pull,1531,33,4,5,Français,m,11,1.1,58.87949866,0.07609372
5d726b8a0c3f0f0017cdfcf7,3,0,2024-02-27T11:24:43.680Z,french_684.wav,0,pull,1531,33,4,5,Français,m,12,1.14141667,-11.47571774,1.952562
5d726b8a0c3f0f0017cdfcf7,4,0,2024-02-27T11:24:43.680Z,french_360.wav,0,poule,274,33,4,5,Français,m,0,0.0,80.67919688,0.20606147
5d726b8a0c3f0f0017cdfcf7,4,0,2024-02-27T11:24:43.680Z,french_360.wav,0,poule,274,33,4,5,Français,m,1,0.1,-27.94865849,1.11725372
5d726b8a0c3f0f0017cdfcf7,4,0,2024-02-27T11:24:43.680Z,french_360.wav,0,poule,274,33,4,5,Français,m,2,0.2,22.32787623,0.05039174
5d726b8a0c3f0f0017cdfcf7,4,0,2024-02-27T11:24:43.680Z,french_360.wav,0,poule,274,33,4,5,Français,m,3,0.3,45.22188439,1.66716796
5d726b8a0c3f0f0017cdfcf7,4,0,2024-02-27T11:24:43.680Z,french_360.wav,0,poule,274,33,4,5,Français,m,4,0.4,-7.80157648,0.33872424
5d726b8a0c3f0f0017cdfcf7,4,0,2024-02-27T11:24:43.680Z,french_360.wav,0,poule,274,33,4,5,Français,m,5,0.5,86.06729103,1.77425049
5d726b8a0c3f0f0017cdfcf7,4,0,2024-02-27T11:24:43.680Z,french_360.wav,0,poule,274,33,4,5,Français,m,6,0.6,-43.84449169,0.57660507
5d726b8a0c3f0f0017cdfcf7,4,0,2024-02-27T11:24:43.680Z,french_360.wav,0,poule,274,33,4,5,Français,m,7,0.7,41.33735645,1.5995083
5d726b8a0c3f0f0017cdfcf7,4,0,2024-02-27T11:24:43.680Z,french_360.wav,0,poule,274,33,4,5,Français,m,8,0.8,-33.22134049,0.05507617
5d726b8a0c3f0f0017cdfcf7,4,0,2024-02-27T11:24:43.680Z,french_360.wav,0,poule,274,33,4,5,Français,m,9,0.9,24.39834814,1.78566
5d726b8a0c3f0f0017cdfcf7,4,0,2024-02-27T11:24:43.680Z,french_360.wav,0,poule,274,33,4,5,Français,m,10,1.0,-32.3038852,0.95403795
5d726b8a0c3f0f0017cdfcf7,4,0,2024-02-27T11:24:43.680Z,french_360.wav,0,poule,274,33,4,5,Français,m,11,1.1,18.07242607,1.61112926
5d726b8a0c3f0f0017cdfcf7,4,0,2024-02-27T11:24:43.680Z,french_360.wav,0,poule,274,33,4,5,Français,m,12,1.14141667,-15.85341792,1.37482411
5d726b8a0c3f0f0017cdfcf7,5,0,2024-02-27T11:24:43.680Z,french_713.wav,0,poule,1014,33,4,5,Français,m,0,0.0,-37.43474567,1.24372469
5d726b8a0c3f0f0017cdfcf7,5,0,2024-02-27T11:24:43.680Z,french_713.wav,0,poule,1014,33,4,5,Français,m,1,0.1,99.965975,0.93707229
5d726b8a0c3f0f0017cdfcf7,5,0,2024-02-27T11:24:43.680Z,french_713.wav,0,poule,1014,33,4,5,Français,m,2,0.2,59.45839073,1.24132484
5d726b8a0c3f0f0017cdfcf7,5,0,2024-02-27T11:24:43.680Z,french_713.wav,0,poule,1014,33,4,5,Français,m,3,0.3,-25.31478906,0.8696724
5d726b8a0c3f0f0017cdfcf7,5,0,2024-02-27T11:24:43.680Z,french_713.wav,0,poule,1014,33,4,5,Français,m,4,0.4,5.71723288,1.68662747
5d726b8a0c3f0f0017cdfcf7,5,0,2024-02-27T11:24:43.680Z,french_713.wav,0,poule,1014,33,4,5,Français,m,5,0.5,36.1118223,0.63259997
5d726b8a0c3f0f0017cdfcf7,5,0,2024-02-27T11:24:43.680Z,french_713.wav,0,poule,1014,33,4,5,Français,m,6,0.6,-56.37110024,1.92165301
5d726b8a0c3f0f0017cdfcf7,5,0,2024-02-27T11:24:43.680Z,french_713.wav,0,poule,1014,33,4,5,Français,m,7,0.7,-24.52303614,1.34711854
5d726b8a0c3f0f0017cdfcf7,5,0,2024-02-27T11:24:43.680Z,french_713.wav,0,poule,1014,33,4,5,Français,m,8,0.8,-2.49025769,0.32122443
5d726b8a0c3f0f0017cdfcf7,5,0,2024-02-27T11:24:43.680Z,french_713.wav,0,poule,1014,33,4,5,Français,m,9,0.9,21.24369228,0.60636845
5d726b8a0c3f0f0017cdfcf7,5,0,2024-02-27T11:24:43.680Z,french_713.wav,0,poule,1014,33,4,5,Français,m,10,1.0,-2.82246083,1.76664037
5d726b8a0c3f0f0017cdfcf7,5,0,2024-02-27T11:24:43.680Z,french_713.wav,0,poule,1014,33,4,5,Français,m,11,1.1,-3.3969212,1.5841005
5d726b8a0c3f0f0017cdfcf7,5,0,2024-02-27T11:24:43.680Z,french_713.wav,0,poule,1014,33,4,5,Français,m,12,1.14141667,-49.20963854,1.28542725
5d726b8a0c3f0f0017cdfcf7,6,0,2024-02-27T11:24:43.680Z,french_692.wav,0,poule,252,33,4,5,Français,m,0,0.0,-3.63018758,1.78860692
5d726b8a0c3f0f0017cdfcf7,6,0,2024-02-27T11:24:43.680Z,french_692.wav,0,poule,252,33,4,5,Français,m,1,0.1,-68.16293379,0.86300874
5d726b8a0c3f0f0017cdfcf7,6,0,2024-02-27T11:24:43.680Z,french_692.wav,0,poule,252,33,4,5,Français,m,2,0.2,94.54361928,1.08735966
5d726b8a0c3f0f0017cdfcf7,6,0,2024-02-27T11:24:43.680Z,french_692.wav,0,poule,252,33,4,5,Français,m,3,0.3,25.0958546,0.96562877
5d726b8a0c3f0f0017cdfcf7,6,0,2024-02-27T11:24:43.680Z,french_692.wav,0,poule,252,33,4,5,Français,m,4,0.4,-99.12905949,1.65441916
5d726b8a0c3f0f0017cdfcf7,6,0,2024-02-27T11:24:43.680Z,french_692.wav,0,poule,252,33,4,5,Français,m,5,0.5,-47.00596257,1.19889603
5d726b8a0c3f0f0017cdfcf7,6,0,2024-02-27T11:24:43.680Z,french_692.wav,0,poule,252,33,4,5,Français,m,6,0.6,-38.46033818,0.04010608
5d726b8a0c3f0f0017cdfcf7,6,0,2024-02-27T11:24:43.680Z,french_692.wav,0,poule,252,33,4,5,Français,m,7,0.7,-52.37005629,0.99288232
5d726b8a0c3f0f0017cdfcf7,6,0,2024-02-27T11:24:43.680Z,french_692.wav,0,poule,252,33,4,5,Français,m,8,0.8,29.27180561,1.70634134
5d726b8a0c3f0f0017cdfcf7,6,0,2024-02-27T11:24:43.680Z,french_692.wav,0,poule,252,33,4,5,Français,m,9,0.9,-18.83326647,0.96715022
5d726b8a0c3f0f0017cdfcf7,6,0,2024-02-27T11:24:43.680Z,french_692.wav,0,poule,252,33,4,5,Français,m,10,1.0,-60.91466225,1.75736357
5d726b8a0c3f0f0017cdfcf7,6,0,2024-02-27T11:24:43.680Z,french_692.wav,0,poule,252,33,4,5,Français,m,11,1.1,-20.82797719,1.93453934
5d726b8a0c3f0f0017cdfcf7,6,0,2024-02-27T11:24:43.680Z,french_692.wav,0,poule,252,33,4,5,Français,m,12,1.14141667,-55.17315813,0.43289188
5d726b8a0c3f0f0017cdfcf7,7,0,2024-02-27T11:24:43.680Z,french_444.wav,0,pull,513,33,4,5,Français,m,0,0.0,87.77909642,0.96730071
5d726b8a0c3f0f0017cdfcf7,7,0,2024-02-27T11:24:43.680Z,french_444.wav,0,pull,513,33,4,5,Français,m,1,0.1,6.94972025,1.64754835
5d726b8a0c3f0f0017cdfcf7,7,0,2024-02-27T11:24:43.680Z,french_444.wav,0,pull,513,33,4,5,Français,m,2,0.2,98.20857903,0.34232644
5d726b8a0c3f0f0017cdfcf7,7,0,2024-02-27T11:24:43.680Z,french_444.wav,0,pull,513,33,4,5,Français,m,3,0.3,-35.32566364,0.90396438
5d726b8a0c3f0f0017cdfcf7,7,0,2024-02-27T11:24:43.680Z,french_444.wav,0,pull,513,33,4,5,Français,m,4,0.4,-66.21920686,1.59193054
5d726b8a0c3f0f0017cdfcf7,7,0,2024-02-27T11:24:43.680Z,french_444.wav,0,pull,513,33,4,5,Français,m,5,0.5,-74.00275706,1.69980703
5d726b8a0c3f0f0017cdfcf7,7,0,2024-02-27T11:24:43.680Z,french_444.wav,0,pull,513,33,4,5,Français,m,6,0.6,-89.76463472,0.62529401
5d726b8a0c3f0f0017cdfcf7,7,0,2024-02-27T11:24:43.680Z,french_444.wav,0,pull,513,33,4,5,Français,m,7,0.7,90.23942867,0.0404836
5d726b8a0c3f0f0017cdfcf7,7,0,2024-02-27T11:24:43.680Z,french_444.wav,0,pull,513,33,4,5,Français,m,8,0.8,-81.90686285,0.34890232
5d726b8a0c3f0f0017cdfcf7,7,0,2024-02-27T11:24:43.680Z,french_444.wav,0,pull,513,33,4,5,Français,m,9,0.9,5.03977492,1.70546998
5d726b8a0c3f0f0017cdfcf7,7,0,2024-02-27T11:24:43.680Z,french_444.wav,0,pull,513,33,4,5,Français,m,10,1.0,94.83681906,1.15170641
5d726b8a0c3f0f0017cdfcf7,7,0,2024-02-27T11:24:43.680Z,french_444.wav,0,pull,513,33,4,5,Français,m,11,1.1,-46.16486493,0.22788225
5d726b8a0c3f0f0017cdfcf7,7,0,2024-02-27T11:24:43.680Z,french_444.wav,0,pull,513,33,4,5,Français,m,12,1.14141667,7.32353635,1.99633075
5d726b8a0c3f0f0017cdfcf7,8,0,2024-02-27T11:24:43.680Z,french_741.wav,0,poule,508,33,4,5,Français,m,0,0.0,14.15097335,0.41697978
5d726b8a0c3f0f0017cdfcf7,8,0,2024-02-27T11:24:43.680Z,french_741.wav,0,poule,508,33,4,5,Français,m,1,0.1,-32.15615978,0.82705056
5d726b8a0c3f0f0017cdfcf7,8,0,2024-02-27T11:24:43.680Z,french_741.wav,0,poule,508,33,4,5,Français,m,2,0.2,0.97880502,0.21383898
5d726b8a0c3f0f0017cdfcf7,8,0,2024-02-27T11:24:43.680Z,french_741.wav,0,poule,508,33,4,5,Français,m,3,0.3,62.8807323,0.34603532
5d726b8a0c3f0f0017cdfcf7,8,0,2024-02-27T11:24:43.680Z,french_741.wav,0,poule,508,33,4,5,Français,m,4,0.4,14.95483835,0.81976538
5d726b8a0c3f0f0017cdfcf7,8,0,2024-02-27T11:24:43.680Z,french_741.wav,0,poule,508,33,4,5,Français,m,5,0.5,-47.52261373,0.42184555
5d726b8a0c3f0f0017cdfcf7,8,0,2024-02-27T11:24:43.680Z,french_741.wav,0,poule,508,33,4,5,Français,m,6,0.6,40.92949838,0.62052888
5d726b8a0c3f0f0017cdfcf7,8,0,2024-02-27T11:24:43.680Z,french_741.wav,0,poule,508,33,4,5,Français,m,7,0.7,-35.15475222,0.04672478
5d726b8a0c3f0f0017cdfcf7,8,0,2024-02-27T11:24:43.680Z,french_741.wav,0,poule,508,33,4,5,Français,m,8,0.8,0.88649301,0.17050367
5d726b8a0c3f0f0017cdfcf7,8,0,2024-02-27T11:24:43.680Z,french_741.wav,0,poule,508,33,4,5,Français,m,9,0.9,-1.68344265,0.32486831
5d726b8a0c3f0f0017cdfcf7,8,0,2024-02-27T11:24:43.680Z,french_741.wav,0,poule,508,33,4,5,Français,m,10,1.0,-73.2966165,1.96245172
5d726b8a0c3f0f0017cdfcf7,8,0,2024-02-27T11:24:43.680Z,french_741.wav,0,poule,508,33,4,5,Français,m,11,1.1,0.32925838,1.95075609
5d726b8a0c3f0f0017cdfcf7,8,0,2024-02-27T11:24:43.680Z,french_741.wav,0,poule,508,33,4,5,Français,m,12,1.14141667,57.70395775,1.58857603
5d726b8a0c3f0f0017cdfcf7,9,0,2024-02-27T11:24:43.680Z,french_180.wav,0,poule,247,33,4,5,Français,m,0,0.0,-94.33074212,0.66828426
5d726b8a0c3f0f0017cdfcf7,9,0,2024-02-27T11:24:43.680Z,french_180.wav,0,poule,247,33,4,5,Français,m,1,0.1,-88.75540816,0.270347
5d726b8a0c3f0f0017cdfcf7,9,0,2024-02-27T11:24:43.680Z,french_180.wav,0,poule,247,33,4,5,Français,m,2,0.2,35.4515549,1.41211261
5d726b8a0c3f0f0017cdfcf7,9,0,2024-02-27T11:24:43.680Z,french_180.wav,0,poule,247,33,4,5,Français,m,3,0.3,-70.24654404,1.720614
5d726b8a0c3f0f0017cdfcf7,9,0,2024-02-27T11:24:43.680Z,french_180.wav,0,poule,247,33,4,5,Français,m,4,0.4,-80.62349998,0.19744688
5d726b8a0c3f0f0017cdfcf7,9,0,2024-02-27T11:24:43.680Z,french_180.wav,0,poule,247,33,4,5,Français,m,5,0.5,10.1901521,1.72287748
5d726b8a0c3f0f0017cdfcf7,9,0,2024-02-27T11:24:43.680Z,french_180.wav,0,poule,247,33,4,5,Français,m,6,0.6,-93.62933165,0.04161496
5d726b8a0c3f0f0017cdfcf7,9,0,2024-02-27T11:24:43.680Z,french_180.wav,0,poule,247,33,4,5,Français,m,7,0.7,-99.65138407,0.57709104
5d726b8a0c3f0f0017cdfcf7,9,0,2024-02-27T11:24:43.680Z,french_180.wav,0,poule,247,33,4,5,Français,m,8,0.8,71.51249138,0.44049612
5d726b8a0c3f0f0017cdfcf7,9,0,2024-02-27T11:24:43.680Z,french_180.wav,0,poule,247,33,4,5,Français,m,9,0.9,86.80537689,1.57955325
5d726b8a0c3f0f0017cdfcf7,9,0,2024-02-27T11:24:43.680Z,french_180.wav,0,poule,247,33,4,5,Français,m,10,1.0,20.55789836,1.82404096
5d726b8a0c3f0f0017cdfcf7,9,0,2024-02-27T11:24:43.680Z,french_180.wav,0,poule,247,33,4,5,Français,m,11,1.1,44.56065294,1.69390772
5d726b8a0c3f0f0017cdfcf7,9,0,2024-02-27T11:24:43.680Z,french_180.wav,0,poule,247,33,4,5,Français,m,12,1.14141667,-59.76617214,0.25601673
5d726b8a0c3f0f0017cdfcf7,10,0,2024-02-27T11:24:43.680Z,french_768.wav,0,poule,1931,33,4,5,Français,m,0,0.0,-90.25998479,0.74075575
5d726b8a0c3f0f0017cdfcf7,10,0,2024-02-27T11:24:43.680Z,french_768.wav,0,poule,1931,33,4,5,Français,m,1,0.1,34.21415615,0.17866259
5d726b8a0c3f0f0017cdfcf7,10,0,2024-02-27T11:24:43.680Z,french_768.wav,0,poule,1931,33,4,5,Français,m,2,0.2,-52.71140353,1.12012438
5d726b8a0c3f0f0017cdfcf7,10,0,2024-02-27T11:24:43.680Z,french_768.wav,0,poule,1931,33,4,5,Français,m,3,0.3,-0.87917212,1.6540895
5d726b8a0c3f0f0017cdfcf7,10,0,2024-02-27T11:24:43.680Z,french_768.wav,0,poule,1931,33,4,5,Français,m,4,0.4,16.13384172,0.5612472
5d726b8a0c3f0f0017cdfcf7,10,0,2024-02-27T11:24:43.680Z,french_768.wav,0,poule,1931,33,4,5,Français,m,5,0.5,40.42476131,0.6068206
5d726b8a0c3f0f0017cdfcf7,10,0,2024-02-27T11:24:43.680Z,french_768.wav,0,poule,1931,33,4,5,Français,m,6,0.6,89.24687933,0.74654886
5d726b8a0c3f0f0017cdfcf7,10,0,2024-02-27T11:24:43.680Z,french_768.wav,0,poule,1931,33,4,5,Français,m,7,0.7,-96.15596273,0.53936952
5d726b8a0c3f0f0017cdfcf7,10,0,2024-02-27T11:24:43.680Z,french_768.wav,0,poule,1931,33,4,5,Français,m,8,0.8,-38.29186897,1.70646715
5d726b8a0c3f0f0017cdfcf7,10,0,2024-02-27T11:24:43.680Z,french_768.wav,0,poule,1931,33,4,5,Français,m,9,0.9,-17.48626228,0.70300524
5d726b8a0c3f0f0017cdfcf7,10,0,2024-02-27T11:24:43.680Z,french_768.wav,0,poule,1931,33,4,5,Français,m,10,1.0,19.34641069,1.33185606
5d726b8a0c3f0f0017cdfcf7,10,0,2024-02-27T11:24:43.680Z,french_768.wav,0,poule,1931,33,4,5,Français,m,11,1.1,11.56546597,0.71915286
5d726b8a0c3f0f0017cdfcf7,10,0,2024-02-27T11:24:43.680Z,french_768.wav,0,poule,1931,33,4,5,Français,m,12,1.14141667,81.99709235,0.49042586
5d726b8a0c3f0f0017cdfcf7,11,0,2024-02-27T11:24:43.680Z,french_397.wav,0,poule,509,33,4,5,Français,m,0,0.0,-85.38502006,1.9856843
5d726b8a0c3f0f0017cdfcf7,11,0,2024-02-27T11:24:43.680Z,french_397.wav,0,poule,509,33,4,5,Français,m,1,0.1,34.92223357,0.56062318
5d726b8a0c3f0f0017cdfcf7,11,0,2024-02-27T11:24:43.680Z,french_397.wav,0,poule,509,33,4,5,Français,m,2,0.2,-71.66551154,0.42097575
5d726b8a0c3f0f0017cdfcf7,11,0,2024-02-27T11:24:43.680Z,french_397.wav,0,poule,509,33,4,5,Français,m,3,0.3,-17.9053527,1.97088475
5d726b8a0c3f0f0017cdfcf7,11,0,2024-02-27T11:24:43.680Z,french_397.wav,0,poule,509,33,4,5,Français,m,4,0.4,78.38950628,0.52227494
5d726b8a0c3f0f0017cdfcf7,11,0,2024-02-27T11:24:43.680Z,french_397.wav,0,poule,509,33,4,5,Français,m,5,0.5,54.19336725,0.88329217
5d726b8a0c3f0f0017cdfcf7,11,0,2024-02-27T11:24:43.680Z,french_397.wav,0,poule,509,33,4,5,Français,m,6,0.6,-11.24053552,1.60057527
5d726b8a0c3f0f0017cdfcf7,11,0,2024-02-27T11:24:43.680Z,french_397.wav,0,poule,509,33,4,5,Français,m,7,0.7,37.03077056,0.29723422
5d726b8a0c3f0f0017cdfcf7,11,0,2024-02-27T11:24:43.680Z,french_397.wav,0,poule,509,33,4,5,Français,m,8,0.8,-81.36815514,0.5759232
5d726b8a0c3f0f0017cdfcf7,11,0,2024-02-27T11:24:43.680Z,french_397.wav,0,poule,509,33,4,5,Français,m,9,0.9,-30.90065257,1.31717543
5d726b8a0c3f0f0017cdfcf7,11,0,2024-02-27T11:24:43.680Z,french_397.wav,0,poule,509,33,4,5,Français,m,10,1.0,-19.65353997,1.378999
5d726b8a0c3f0f0017cdfcf7,11,0,2024-02-27T11:24:43.680Z,french_397.wav,0,poule,509,33,4,5,Français,m,11,1.1,-7.76524695,0.052171
5d726b8a0c3f0f0017cdfcf7,11,0,2024-02-27T11:24:43.680Z,french_397.wav,0,poule,509,33,4,5,Français,m,12,1.14141667,48.47655245,1.47911639
5d726b8a0c3f0f0017cdfcf7,12,0,2024-02-27T11:24:43.680Z,french_539.wav,0,poule,343,33,4,5,Français,m,0,0.0,48.58834425,0.55713702
5d726b8a0c3f0f0017cdfcf7,12,0,2024-02-27T11:24:43.680Z,french_539.wav,0,poule,343,33,4,5,Français,m,1,0.1,-56.64619482,0.83408519
5d726b8a0c3f0f0017cdfcf7,12,0,2024-02-27T11:24:43.680Z,french_539.wav,0,poule,343,33,4,5,Français,m,2,0.2,12.72257351,0.22105139
5d726b8a0c3f0f0017cdfcf7,12,0,2024-02-27T11:24:43.680Z,french_539.wav,0,poule,343,33,4,5,Français,m,3,0.3,14.57779112,1.24631237
5d726b8a0c3f0f0017cdfcf7,12,0,2024-02-27T11:24:43.680Z,french_539.wav,0,poule,343,33,4,5,Français,m,4,0.4,-53.79115146,1.80108834
5d726b8a0c3f0f0017cdfcf7,12,0,2024-02-27T11:24:43.680Z,french_539.wav,0,poule,343,33,4,5,Français,m,5,0.5,-9.39809755,0.10826692
5d726b8a0c3f0f0017cdfcf7,12,0,2024-02-27T11:24:43.680Z,french_539.wav,0,poule,343,33,4,5,Français,m,6,0.6,67.43376648,1.35746598
5d726b8a0c3f0f0017cdfcf7,12,0,2024-02-27T11:24:43.680Z,french_539.wav,0,poule,343,33,4,5,Français,m,7,0.7,-72.51273076,0.14156413
5d726b8a0c3f0f0017cdfcf7,12,0,2024-02-27T11:24:43.680Z,french_539.wav,0,poule,343,33,4,5,Français,m,8,0.8,3.43276355,0.59340931
5d726b8a0c3f0f0017cdfcf7,12,0,2024-02-27T11:24:43.680Z,french_539.wav,0,poule,343,33,4,5,Français,m,9,0.9,40.14425687,0.46199534
5d726b8a0c3f0f0017cdfcf7,12,0,2024-02-27T11:24:43.680Z,french_539.wav,0,poule,343,33,4,5,Français,m,10,1.0,54.85231258,1.89990392
5d726b8a0c3f0f0017cdfcf7,12,0,2024-02-27T11:24:43.680Z,french_539.wav,0,poule,343,33,4,5,Français,m,11,1.1,-17.29716808,0.79928212
5d726b8a0c3f0f0017cdfcf7,12,0,2024-02-27T11:24:43.680Z,french_539.wav,0,poule,343,33,4,5,Français,m,12,1.14141667,36.80649937,0.04454349
5d726b8a0c3f0f0017cdfcf7,13,0,2024-02-27T11:24:43.680Z,french_576.wav,0,poule,247,33,4,5,Français,m,0,0.0,-35.22249623,0.53434723
5d726b8a0c3f0f0017cdfcf7,13,0,2024-02-27T11:24:43.680Z,french_576.wav,0,poule,247,33,4,5,Français,m,1,0.1,92.91804811,1.6832489
5d726b8a0c3f0f0017cdfcf7,13,0,2024-02-27T11:24:43.680Z,french_576.wav,0,poule,247,33,4,5,Français,m,2,0.2,14.59888727,0.18828374
5d726b8a0c3f0f0017cdfcf7,13,0,2024-02-27T11:24:43.680Z,french_576.wav,0,poule,247,33,4,5,Français,m,3,0.3,-68.19590077,1.37837483
5d726b8a0c3f0f0017cdfcf7,13,0,2024-02-27T11:24:43.680Z,french_576.wav,0,poule,247,33,4,5,Français,m,4,0.4,52.21316696,1.79475925
5d726b8a0c3f0f0017cdfcf7,13,0,2024-02-27T11:24:43.680Z,french_576.wav,0,poule,247,33,4,5,Français,m,5,0.5,14.92193752,1.60751943
5d726b8a0c3f0f0017cdfcf7,13,0,2024-02-27T11:24:43.680Z,french_576.wav,0,poule,247,33,4,5,Français,m,6,0.6,-2.54989891,1.27401164
5d726b8a0c3f0f0017cdfcf7,13,0,2024-02-27T11:24:43.680Z,french_576.wav,0,poule,247,33,4,5,Français,m,7,0.7,-61.75801356,1.12679718
5d726b8a0c3f0f0017cdfcf7,13,0,2024-02-27T11:24:43.680Z,french_576.wav,0,poule,247,33,4,5,Français,m,8,0.8,-64.3663367,0.78491819
5d726b8a0c3f0f0017cdfcf7,13,0,2024-02-27T11:24:43.680Z,french_576.wav,0,poule,247,33,4,5,Français,m,9,0.9,-54.016617,0.78342671
5d726b8a0c3f0f0017cdfcf7,13,0,2024-02-27T11:24:43.680Z,french_576.wav,0,poule,247,33,4,5,Français,m,10,1.0,23.77391071,0.50591009
5d726b8a0c3f0f0017cdfcf7,13,0,2024-02-27T11:24:43.680Z,french_576.wav,0,poule,247,33,4,5,Français,m,11,1.1,16.13387818,1.89137454
5d726b8a0c3f0f0017cdfcf7,13,0,2024-02-27T11:24:43.680Z,french_576.wav,0,poule,247,33,4,5,Français,m,12,1.14141667,16.53892652,1.34464609
5d726b8a0c3f0f0017cdfcf7,14,0,2024-02-27T11:24:43.680Z,french_655.wav,0,poule,698,33,4,5,Français,m,0,0.0,22.05732479,1.22083149
5d726b8a0c3f0f0017cdfcf7,14,0,2024-02-27T11:24:43.680Z,french_655.wav,0,poule,698,33,4,5,Français,m,1,0.1,-7.34283646,0.90628978
5d726b8a0c3f0f0017cdfcf7,14,0,2024-02-27T11:24:43.680Z,french_655.wav,0,poule,698,33,4,5,Français,m,2,0.2,-16.71216694,0.64111829
5d726b8a0c3f0f0017cdfcf7,14,0,2024-02-27T11:24:43.680Z,french_655.wav,0,poule,698,33,4,5,Français,m,3,0.3,82.87197114,0.38986932
5d726b8a0c3f0f0017cdfcf7,14,0,2024-02-27T11:24:43.680Z,french_655.wav,0,poule,698,33,4,5,Français,m,4,0.4,-13.73801988,0.61791891
5d726b8a0c3f0f0017cdfcf7,14,0,2024-02-27T11:24:43.680Z,french_655.wav,0,poule,698,33,4,5,Français,m,5,0.5,78.78238984,1.61257293
5d726b8a0c3f0f0017cdfcf7,14,0,2024-02-27T11:24:43.680Z,french_655.wav,0,poule,698,33,4,5,Français,m,6,0.6,15.74802992,1.14120276
5d726b8a0c3f0f0017cdfcf7,14,0,2024-02-27T11:24:43.680Z,french_655.wav,0,poule,698,33,4,5,Français,m,7,0.7,7.99289062,1.85994401
5d726b8a0c3f0f0017cdfcf7,14,0,2024-02-27T11:24:43.680Z,french_655.wav,0,poule,698,33,4,5,Français,m,8,0.8,64.26189844,0.1773239
5d726b8a0c3f0f0017cdfcf7,14,0,2024-02-27T11:24:43.680Z,french_655.wav,0,poule,698,33,4,5,Français,m,9,0.9,-76.33286274,1.26191456
5d726b8a0c3f0f0017cdfcf7,14,0,2024-02-27T11:24:43.680Z,french_655.wav,0,poule,698,33,4,5,Français,m,10,1.0,-6.92462562,1.18778905
5d726b8a0c3f0f0017cdfcf7,14,0,2024-02-27T11:24:43.680Z,french_655.wav,0,poule,698,33,4,5,Français,m,11,1.1,-66.84426621,1.26114912
5d726b8a0c3f0f0017cdfcf7,14,0,2024-02-27T11:24:43.680Z,french_655.wav,0,poule,698,33,4,5,Français,m,12,1.14141667,91.19399293,0.56570488
5d726b8a0c3f0f0017cdfcf7,15,0,2024-02-27T11:24:43.680Z,french_430.wav,0,poule,678,33,4,5,Français,m,0,0.0,-1.11673428,1.80235128
5d726b8a0c3f0f0017cdfcf7,15,0,2024-02-27T11:24:43.680Z,french_430.wav,0,poule,678,33,4,5,Français,m,1,0.1,-18.8770791,0.96013589
5d726b8a0c3f0f0017cdfcf7,15,0,2024-02-27T11:24:43.680Z,french_430.wav,0,poule,678,33,4,5,Français,m,2,0.2,-96.59150857,0.2329428
5d726b8a0c3f0f0017cdfcf7,15,0,2024-02-27T11:24:43.680Z,french_430.wav,0,poule,678,33,4,5,Français,m,3,0.3,29.45958003,1.61417388
5d726b8a0c3f0f0017cdfcf7,15,0,2024-02-27T11:24:43.680Z,french_430.wav,0,poule,678,33,4,5,Français,m,4,0.4,72.32030407,0.49435869
5d726b8a0c3f0f0017cdfcf7,15,0,2024-02-27T11:24:43.680Z,french_430.wav,0,poule,678,33,4,5,Français,m,5,0.5,33.72712723,1.27401148
5d726b8a0c3f0f0017cdfcf7,15,0,2024-02-27T11:24:43.680Z,french_430.wav,0,poule,678,33,4,5,Français,m,6,0.6,-52.79580087,0.53143616
5d726b8a0c3f0f0017cdfcf7,15,0,2024-02-27T11:24:43.680Z,french_430.wav,0,poule,678,33,4,5,Français,m,7,0.7,56.33228176,1.64780083
5d726b8a0c3f0f0017cdfcf7,15,0,2024-02-27T11:24:43.680Z,french_430.wav,0,poule,678,33,4,5,Français,m,8,0.8,65.21499831,1.13381855
5d726b8a0c3f0f0017cdfcf7,15,0,2024-02-27T11:24:43.680Z,french_430.wav,0,poule,678,33,4,5,Français,m,9,0.9,-25.51107946,1.32115129
5d726b8a0c3f0f0017cdfcf7,15,0,2024-02-27T11:24:43.680Z,french_430.wav,0,poule,678,33,4,5,Français,m,10,1.0,-97.21664481,1.76113448
5d726b8a0c3f0f0017cdfcf7,15,0,2024-02-27T11:24:43.680Z,french_430.wav,0,poule,678,33,4,5,Français,m,11,1.1,50.77898767,1.5165456
5d726b8a0c3f0f0017cdfcf7,15,0,2024-02-27T11:24:43.680Z,french_430.wav,0,poule,678,33,4,5,Français,m,12,1.14141667,-26.61928039,1.29628567
5d726b8a0c3f0f0017cdfcf7,16,0,2024-02-27T11:24:43.680Z,french_459.wav,0,pull,491,33,4,5,Français,m,0,0.0,4.61060923,0.63045471
5d726b8a0c3f0f0017cdfcf7,16,0,2024-02-27T11:24:43.680Z,french_459.wav,0,pull,491,33,4,5,Français,m,1,0.1,56.90661814,0.25838891
5d726b8a0c3f0f0017cdfcf7,16,0,2024-02-27T11:24:43.680Z,french_459.wav,0,pull,491,33,4,5,Français,m,2,0.2,-64.88787295,1.34944263
5d726b8a0c3f0f0017cdfcf7,16,0,2024-02-27T11:24:43.680Z,french_459.wav,0,pull,491,33,4,5,Français,m,3,0.3,60.80306931,0.3412609
5d726b8a0c3f0f0017cdfcf7,16,0,2024-02-27T11:24:43.680Z,french_459.wav,0,pull,491,33,4,5,Français,m,4,0.4,-72.51163358,0.8026416
5d726b8a0c3f0f0017cdfcf7,16,0,2024-02-27T11:24:43.680Z,french_459.wav,0,pull,491,33,4,5,Français,m,5,0.5,-58.97655872,0.15800619
5d726b8a0c3f0f0017cdfcf7,16,0,2024-02-27T11:24:43.680Z,french_459.wav,0,pull,491,33,4,5,Français,m,6,0.6,-57.13693888,1.38177294
5d726b8a0c3f0f0017cdfcf7,16,0,2024-02-27T11:24:43.680Z,french_459.wav,0,pull,491,33,4,5,Français,m,7,0.7,91.43327587,1.01516397
5d726b8a0c3f0f0017cdfcf7,16,0,2024-02-27T11:24:43.680Z,french_459.wav,0,pull,491,33,4,5,Français,m,8,0.8,27.92334317,0.04958646
5d726b8a0c3f0f0017cdfcf7,16,0,2024-02-27T11:24:43.680Z,french_459.wav,0,pull,491,33,4,5,Français,m,9,0.9,-16.1495518,0.060326
5d726b8a0c3f0f0017cdfcf7,16,0,2024-02-27T11:24:43.680Z,french_459.wav,0,pull,491,33,4,5,Français,m,10,1.0,-49.8689815,1.65536428
5d726b8a0c3f0f0017cdfcf7,16,0,2024-02-27T11:24:43.680Z,french_459.wav,0,pull,491,33,4,5,Français,m,11,1.1,77.63620877,0.43368978
5d726b8a0c3f0f0017cdfcf7,16,0,2024-02-27T11:24:43.680Z,french_459.wav,0,pull,491,33,4,5,Français,m,12,1.14141667,-4.58738982,1.3723531
5d726b8a0c3f0f0017cdfcf7,17,0,2024-02-27T11:24:43.680Z,french_138.wav,0,poule,256,33,4,5,Français,m,0,0.0,90.87559603,1.31380593
5d726b8a0c3f0f0017cdfcf7,17,0,2024-02-27T11:24:43.680Z,french_138.wav,0,poule,256,33,4,5,Français,m,1,0.1,-31.50555988,0.3112117
5d726b8a0c3f0f0017cdfcf7,17,0,2024-02-27T11:24:43.680Z,french_138.wav,0,poule,256,33,4,5,Français,m,2,0.2,16.26612274,1.21831042
5d726b8a0c3f0f0017cdfcf7,17,0,2024-02-27T11:24:43.680Z,french_138.wav,0,poule,256,33,4,5,Français,m,3,0.3,13.45581331,1.42179216
5d726b8a0c3f0f0017cdfcf7,17,0,2024-02-27T11:24:43.680Z,french_138.wav,0,poule,256,33,4,5,Français,m,4,0.4,42.54624351,0.91524639
5d726b8a0c3f0f0017cdfcf7,17,0,2024-02-27T11:24:43.680Z,french_138.wav,0,poule,256,33,4,5,Français,m,5,0.5,-41.09672991,0.09030598
5d726b8a0c3f0f0017cdfcf7,17,0,2024-02-27T11:24:43.680Z,french_138.wav,0,poule,256,33,4,5,Français,m,6,0.6,-9.99308677,1.61752646
5d726b8a0c3f0f0017cdfcf7,17,0,2024-02-27T11:24:43.680Z,french_138.wav,0,poule,256,33,4,5,Français,m,7,0.7,-86.14231224,1.29252527
5d726b8a0c3f0f0017cdfcf7,17,0,2024-02-27T11:24:43.680Z,french_138.wav,0,poule,256,33,4,5,Français,m,8,0.8,-55.70451473,1.50457459
5d726b8a0c3f0f0017cdfcf7,17,0,2024-02-27T11:24:43.680Z,french_138.wav,0,poule,256,33,4,5,Français,m,9,0.9,-54.94693119,1.45678409
5d726b8a0c3f0f0017cdfcf7,17,0,2024-02-27T11:24:43.680Z,french_138.wav,0,poule,256,33,4,5,Français,m,10,1.0,3.17361449,0.72155144
5d726b8a0c3f0f0017cdfcf7,17,0,2024-02-27T11:24:43.680Z,french_138.wav,0,poule,256,33,4,5,Français,m,11,1.1,10.38339878,1.81729999
5d726b8a0c3f0f0017cdfcf7,17,0,2024-02-27T11:24:43.680Z,french_138.wav,0,poule,256,33,4,5,Français,m,12,1.14141667,63.42143348,0.54572478
5d726b8a0c3f0f0017cdfcf7,18,0,2024-02-27T11:24:43.680Z,french_819.wav,0,poule,1339,33,4,5,Français,m,0,0.0,3.5433124,0.69924153
5d726b8a0c3f0f0017cdfcf7,18,0,2024-02-27T11:24:43.680Z,french_819.wav,0,poule,1339,33,4,5,Français,m,1,0.1,34.67580474,0.59233338
5d726b8a0c3f0f0017cdfcf7,18,0,2024-02-27T11:24:43.680Z,french_819.wav,0,poule,1339,33,4,5,Français,m,2,0.2,52.06096148,0.10786683
5d726b8a0c3f0f0017cdfcf7,18,0,2024-02-27T11:24:43.680Z,french_819.wav,0,poule,1339,33,4,5,Français,m,3,0.3,-11.68829783,0.82052849
5d726b8a0c3f0f0017cdfcf7,18,0,2024-02-27T11:24:43.680Z,french_819.wav,0,poule,1339,33,4,5,Français,m,4,0.4,-55.43273777,0.57964387
5d726b8a0c3f0f0017cdfcf7,18,0,2024-02-27T11:24:43.680Z,french_819.wav,0,poule,1339,33,4,5,Français,m,5,0.5,-69.12141051,1.16428723
5d726b8a0c3f0f0017cdfcf7,18,0,2024-02-27T11:24:43.680Z,french_819.wav,0,poule,1339,33,4,5,Français,m,6,0.6,-6.92352796,0.35573096
5d726b8a0c3f0f0017cdfcf7,18,0,2024-02-27T11:24:43.680Z,french_819.wav,0,poule,1339,33,4,5,Français,m,7,0.7,-30.91883779,1.23577296
5d726b8a0c3f0f0017cdfcf7,18,0,2024-02-27T11:24:43.680Z,french_819.wav,0,poule,1339,33,4,5,Français,m,8,0.8,65.5281881,0.83715517
5d726b8a0c3f0f0017cdfcf7,18,0,2024-02-27T11:24:43.680Z,french_819.wav,0,poule,1339,33,4,5,Français,m,9,0.9,-41.62316532,1.18768042
5d726b8a0c3f0f0017cdfcf7,18,0,2024-02-27T11:24:43.680Z,french_819.wav,0,poule,1339,33,4,5,Français,m,10,1.0,-72.0133608,1.9698724
5d726b8a0c3f0f0017cdfcf7,18,0,2024-02-27T11:24:43.680Z,french_819.wav,0,poule,1339,33,4,5,Français,m,11,1.1,34.83208876,0.40899085
5d726b8a0c3f0f0017cdfcf7,18,0,2024-02-27T11:24:43.680Z,french_819.wav,0,poule,1339,33,4,5,Français,m,12,1.14141667,-43.5569199,1.30290544
5d726b8a0c3f0f0017cdfcf7,19,0,2024-02-27T11:24:43.680Z,french_485.wav,0,poule,1466,33,4,5,Français,m,0,0.0,-32.72393911,1.22977984
5d726b8a0c3f0f0017cdfcf7,19,0,2024-02-27T11:24:43.680Z,french_485.wav,0,poule,1466,33,4,5,Français,m,1,0.1,80.82307242,1.23405783
5d726b8a0c3f0f0017cdfcf7,19,0,2024-02-27T11:24:43.680Z,french_485.wav,0,poule,1466,33,4,5,Français,m,2,0.2,57.31331333,0.86608886
5d726b8a0c3f0f0017cdfcf7,19,0,2024-02-27T11:24:43.680Z,french_485.wav,0,poule,1466,33,4,5,Français,m,3,0.3,48.72087878,0.52599403
5d726b8a0c3f0f0017cdfcf7,19,0,2024-02-27T11:24:43.680Z,french_485.wav,0,poule,1466,33,4,5,Français,m,4,0.4,67.57779619,1.47744611
5d726b8a0c3f0f0017cdfcf7,19,0,2024-02-27T11:24:43.680Z,french_485.wav,0,poule,1466,33,4,5,Français,m,5,0.5,-63.19645997,1.32987449
5d726b8a0c3f0f0017cdfcf7,19,0,2024-02-27T11:24:43.680Z,french_485.wav,0,poule,1466,33,4,5,Français,m,6,0.6,1.81636455,0.58593864
5d726b8a0c3f0f0017cdfcf7,19,0,2024-02-27T11:24:43.680Z,french_485.wav,0,poule,1466,33,4,5,Français,m,7,0.7,-75.79477779,0.98960333
5d726b8a0c3f0f0017cdfcf7,19,0,2024-02-27T11:24:43.680Z,french_485.wav,0,poule,1466,33,4,5,Français,m,8,0.8,29.75420726,0.53553397
5d726b8a0c3f0f0017cdfcf7,19,0,2024-02-27T11:24:43.680Z,french_485.wav,0,poule,1466,33,4,5,Français,m,9,0.9,22.42069032,0.8020386
5d726b8a0c3f0f0017cdfcf7,19,0,2024-02-27T11:24:43.680Z,french_485.wav,0,poule,1466,33,4,5,Français,m,10,1.0,18.39827523,1.39729728
5d726b8a0c3f0f0017cdfcf7,19,0,2024-02-27T11:24:43.680Z,french_485.wav,0,poule,1466,33,4,5,Français,m,11,1.1,83.2380207,0.57653841
5d726b8a0c3f0f0017cdfcf7,19,0,2024-02-27T11:24:43.680Z,french_485.wav,0,poule,1466,33,4,5,Français,m,12,1.14141667,50.25973786,1.79465784
5d726b8a0c3f0f0017cdfcf7,20,0,2024-02-27T11:24:43.680Z,french_89.wav,0,poule,1942,33,4,5,Français,m,0,0.0,66.45714599,1.99246972
5d726b8a0c3f0f0017cdfcf7,20,0,2024-02-27T11:24:43.680Z,french_89.wav,0,poule,1942,33,4,5,Français,m,1,0.1,-43.91073727,1.14692892
5d726b8a0c3f0f0017cdfcf7,20,0,2024-02-27T11:24:43.680Z,french_89.wav,0,poule,1942,33,4,5,Français,m,2,0.2,38.18454175,0.69182846
5d726b8a0c3f0f0017cdfcf7,20,0,2024-02-27T11:24:43.680Z,french_89.wav,0,poule,1942,33,4,5,Français,m,3,0.3,12.76341897,0.36850309
5d726b8a0c3f0f0017cdfcf7,20,0,2024-02-27T11:24:43.680Z,french_89.wav,0,poule,1942,33,4,5,Français,m,4,0.4,-28.97123442,0.8209905
5d726b8a0c3f0f0017cdfcf7,20,0,2024-02-27T11:24:43.680Z,french_89.wav,0,poule,1942,33,4,5,Français,m,5,0.5,-77.22066985,1.22421195
5d726b8a0c3f0f0017cdfcf7,20,0,2024-02-27T11:24:43.680Z,french_89.wav,0,poule,1942,33,4,5,Français,m,6,0.6,15.72584642,0.90867746
5d726b8a0c3f0f0017cdfcf7,20,0,2024-02-27T11:24:43.680Z,french_89.wav,0,poule,1942,33,4,5,Français,m,7,0.7,-81.27571941,1.53760429
5d726b8a0c3f0f0017cdfcf7,20,0,2024-02-27T11:24:43.680Z,french_89.wav,0,poule,1942,33,4,5,Français,m,8,0.8,31.32588377,1.94244475
5d726b8a0c3f0f0017cdfcf7,20,0,2024-02-27T11:24:43.680Z,french_89.wav,0,poule,1942,33,4,5,Français,m,9,0.9,5.46961873,0.96701139
5d726b8a0c3f0f0017cdfcf7,20,0,2024-02-27T11:24:43.680Z,french_89.wav,0,poule,1942,33,4,5,Français,m,10,1.0,4.85385368,1.58743517
5d726b8a0c3f0f0017cdfcf7,20,0,2024-02-27T11:24:43.680Z,french_89.wav,0,poule,1942,33,4,5,Français,m,11,1.1,35.12567761,1.46146622
5d726b8a0c3f0f0017cdfcf7,20,0,2024-02-27T11:24:43.680Z,french_89.wav,0,poule,1942,33,4,5,Français,m,12,1.14141667,-3.62363786,1.20579233
5d726b8a0c3f0f0017cdfcf7,21,0,2024-02-27T11:24:43.680Z,french_747.wav,0,pull,2924,33,4,5,Français,m,0,0.0,22.35129755,0.57573124
5d726b8a0c3f0f0017cdfcf7,21,0,2024-02-27T11:24:43.680Z,french_747.wav,0,pull,2924,33,4,5,Français,m,1,0.1,31.28985519,0.11622931
5d726b8a0c3f0f0017cdfcf7,21,0,2024-02-27T11:24:43.680Z,french_747.wav,0,pull,2924,33,4,5,Français,m,2,0.2,73.11219061,0.36140746
5d726b8a0c3f0f0017cdfcf7,21,0,2024-02-27T11:24:43.680Z,french_747.wav,0,pull,2924,33,4,5,Français,m,3,0.3,-79.87541576,1.71551135
5d726b8a0c3f0f0017cdfcf7,21,0,2024-02-27T11:24:43.680Z,french_747.wav,0,pull,2924,33,4,5,Français,m,4,0.4,3.72751683,0.85918253
5d726b8a0c3f0f0017cdfcf7,21,0,2024-02-27T11:24:43.680Z,french_747.wav,0,pull,2924,33,4,5,Français,m,5,0.5,48.71311284,1.08200139
5d726b8a0c3f0f0017cdfcf7,21,0,2024-02-27T11:24:43.680Z,french_747.wav,0,pull,2924,33,4,5,Français,m,6,0.6,-74.27621697,0.68704186
5d726b8a0c3f0f0017cdfcf7,21,0,2024-02-27T11:24:43.680Z,french_747.wav,0,pull,2924,33,4,5,Français,m,7,0.7,44.77745099,0.29142073
5d726b8a0c3f0f0017cdfcf7,21,0,2024-02-27T11:24:43.680Z,french_747.wav,0,pull,2924,33,4,5,Français,m,8,0.8,13.39337719,0.81449994
5d726b8a0c3f0f0017cdfcf7,21,0,2024-02-27T11:24:43.680Z,french_747.wav,0,pull,2924,33,4,5,Français,m,9,0.9,17.18472002,1.55479788
5d726b8a0c3f0f0017cdfcf7,21,0,2024-02-27T11:24:43.680Z,french_747.wav,0,pull,2924,33,4,5,Français,m,10,1.0,54.20026422,0.75726735
5d726b8a0c3f0f0017cdfcf7,21,0,2024-02-27T11:24:43.680Z,french_747.wav,0,pull,2924,33,4,5,Français,m,11,1.1,-55.52225966,1.34917771
5d726b8a0c3f0f0017cdfcf7,21,0,2024-02-27T11:24:43.680Z,french_747.wav,0,pull,2924,33,4,5,Français,m,12,1.14141667,28.09696307,1.09340112
5d726b8a0c3f0f0017cdfcf7,22,0,2024-02-27T11:24:43.680Z,french_261.wav,0,pull,671,33,4,5,Français,m,0,0.0,12.34576995,0.50310042
5d726b8a0c3f0f0017cdfcf7,22,0,2024-02-27T11:24:43.680Z,french_261.wav,0,pull,671,33,4,5,Français,m,1,0.1,25.47601384,0.25268449
5d726b8a0c3f0f0017cdfcf7,22,0,2024-02-27T11:24:43.680Z,french_261.wav,0,pull,671,33,4,5,Français,m,2,0.2,-67.0906301,0.7627603
5d726b8a0c3f0f0017cdfcf7,22,0,2024-02-27T11:24:43.680Z,french_261.wav,0,pull,671,33,4,5,Français,m,3,0.3,-13.09856908,1.52142005
5d726b8a0c3f0f0017cdfcf7,22,0,2024-02-27T11:24:43.680Z,french_261.wav,0,pull,671,33,4,5,Français,m,4,0.4,68.1575105,1.92904385
5d726b8a0c3f0f0017cdfcf7,22,0,2024-02-27T11:24:43.680Z,french_261.wav,0,pull,671,33,4,5,Français,m,5,0.5,-2.34833931,0.33812634
5d726b8a0c3f0f0017cdfcf7,22,0,2024-02-27T11:24:43.680Z,french_261.wav,0,pull,671,33,4,5,Français,m,6,0.6,-56.25265887,1.12365674
5d726b8a0c3f0f0017cdfcf7,22,0,2024-02-27T11:24:43.680Z,french_261.wav,0,pull,671,33,4,5,Français,m,7,0.7,99.24314725,0.56685205
5d726b8a0c3f0f0017cdfcf7,22,0,2024-02-27T11:24:43.680Z,french_261.wav,0,pull,671,33,4,5,Français,m,8,0.8,97.55208396,1.813104
5d726b8a0c3f0f0017cdfcf7,22,0,2024-02-27T11:24:43.680Z,french_261.wav,0,pull,671,33,4,5,Français,m,9,0.9,-44.49919777,1.56800569
5d726b8a0c3f0f0017cdfcf7,22,0,2024-02-27T11:24:43.680Z,french_261.wav,0,pull,671,33,4,5,Français,m,10,1.0,-9.98862023,0.34584513
5d726b8a0c3f0f0017cdfcf7,22,0,2024-02-27T11:24:43.680Z,french_261.wav,0,pull,671,33,4,5,Français,m,11,1.1,12.33371854,0.48440501
5d726b8a0c3f0f0017cdfcf7,22,0,2024-02-27T11:24:43.680Z,french_261.wav,0,pull,671,33,4,5,Français,m,12,1.14141667,0.5455691,1.72005323
5d726b8a0c3f0f0017cdfcf7,23,0,2024-02-27T11:24:43.680Z,french_707.wav,0,poule,1642,33,4,5,Français,m,0,0.0,-64.93442834,1.46804089
5d726b8a0c3f0f0017cdfcf7,23,0,2024-02-27T11:24:43.680Z,french_707.wav,0,poule,1642,33,4,5,Français,m,1,0.1,-72.2221748,0.58492239
5d726b8a0c3f0f0017cdfcf7,23,0,2024-02-27T11:24:43.680Z,french_707.wav,0,poule,1642,33,4,5,Français,m,2,0.2,13.62014708,1.16417946
5d726b8a0c3f0f0017cdfcf7,23,0,2024-02-27T11:24:43.680Z,french_707.wav,0,poule,1642,33,4,5,Français,m,3,0.3,47.83259261,1.23796764
5d726b8a0c3f0f0017cdfcf7,23,0,2024-02-27T11:24:43.680Z,french_707.wav,0,poule,1642,33,4,5,Français,m,4,0.4,-95.31398354,1.82345274
5d726b8a0c3f0f0017cdfcf7,23,0,2024-02-27T11:24:43.680Z,french_707.wav,0,poule,1642,33,4,5,Français,m,5,0.5,1.08562873,0.65758585
5d726b8a0c3f0f0017cdfcf7,23,0,2024-02-27T11:24:43.680Z,french_707.wav,0,poule,1642,33,4,5,Français,m,6,0.6,-4.48837622,1.01551763
5d726b8a0c3f0f0017cdfcf7,23,0,2024-02-27T11:24:43.680Z,french_707.wav,0,poule,1642,33,4,5,Français,m,7,0.7,-51.75801518,1.22021008
5d726b8a0c3f0f0017cdfcf7,23,0,2024-02-27T11:24:43.680Z,french_707.wav,0,poule,1642,33,4,5,Français,m,8,0.8,-21.80654722,1.86240461
5d726b8a0c3f0f0017cdfcf7,23,0,2024-02-27T11:24:43.680Z,french_707.wav,0,poule,1642,33,4,5,Français,m,9,0.9,75.81447714,1.61294549
5d726b8a0c3f0f0017cdfcf7,23,0,2024-02-27T11:24:43.680Z,french_707.wav,0,poule,1642,33,4,5,Français,m,10,1.0,-46.65505287,0.22226257
5d726b8a0c3f0f0017cdfcf7,23,0,2024-02-27T11:24:43.680Z,french_707.wav,0,poule,1642,33,4,5,Français,m,11,1.1,-66.28006481,0.137127
5d726b8a0c3f0f0017cdfcf7,23,0,2024-02-27T11:24:43.680Z,french_707.wav,0,poule,1642,33,4,5,Français,m,12,1.14141667,14.37031086,1.66241642
5d726b8a0c3f0f0017cdfcf7,24,0,2024-02-27T11:24:43.680Z,french_921.wav,0,poule,1068,33,4,5,Français,m,0,0.0,-22.48407438,0.56788331
5d726b8a0c3f0f0017cdfcf7,24,0,2024-02-27T11:24:43.680Z,french_921.wav,0,poule,1068,33,4,5,Français,m,1,0.1,96.20023213,0.48037084
5d726b8a0c3f0f0017cdfcf7,24,0,2024-02-27T11:24:43.680Z,french_921.wav,0,poule,1068,33,4,5,Français,m,2,0.2,-26.96111018,1.28513603
5d726b8a0c3f0f0017cdfcf7,24,0,2024-02-27T11:24:43.680Z,french_921.wav,0,poule,1068,33,4,5,Français,m,3,0.3,-4.61285821,0.47395862
5d726b8a0c3f0f0017cdfcf7,24,0,2024-02-27T11:24:43.680Z,french_921.wav,0,poule,1068,33,4,5,Français,m,4,0.4,-41.60418228,1.80498459
5d726b8a0c3f0f0017cdfcf7,24,0,2024-02-27T11:24:43.680Z,french_921.wav,0,poule,1068,33,4,5,Français,m,5,0.5,16.2616983,1.788566
5d726b8a0c3f0f0017cdfcf7,24,0,2024-02-27T11:24:43.680Z,french_921.wav,0,poule,1068,33,4,5,Français,m,6,0.6,40.35336686,0.45002982
5d726b8a0c3f0f0017cdfcf7,24,0,2024-02-27T11:24:43.680Z,french_921.wav,0,poule,1068,33,4,5,Français,m,7,0.7,-44.63732317,0.17970155
5d726b8a0c3f0f0017cdfcf7,24,0,2024-02-27T11:24:43.680Z,french_921.wav,0,poule,1068,33,4,5,Français,m,8,0.8,58.4442517,0.55049439
5d726b8a0c3f0f0017cdfcf7,24,0,2024-02-27T11:24:43.680Z,french_921.wav,0,poule,1068,33,4,5,Français,m,9,0.9,9.84257376,0.16897134
5d726b8a0c3f0f0017cdfcf7,24,0,2024-02-27T11:24:43.680Z,french_921.wav,0,poule,1068,33,4,5,Français,m,10,1.0,41.47094552,0.81111626
5d726b8a0c3f0f0017cdfcf7,24,0,2024-02-27T11:24:43.680Z,french_921.wav,0,poule,1068,33,4,5,Français,m,11,1.1,-30.9925565,1.40036405
5d726b8a0c3f0f0017cdfcf7,24,0,2024-02-27T11:24:43.680Z,french_921.wav,0,poule,1068,33,4,5,Français,m,12,1.14141667,23.41632399,1.37522971
5d726b8a0c3f0f0017cdfcf7,25,0,2024-02-27T11:24:43.680Z,french_476.wav,0,pull,808,33,4,5,Français,m,0,0.0,2.7094507,1.35860471
5d726b8a0c3f0f0017cdfcf7,25,0,2024-02-27T11:24:43.680Z,french_476.wav,0,pull,808,33,4,5,Français,m,1,0.1,-87.7280692,0.99732338
5d726b8a0c3f0f0017cdfcf7,25,0,2024-02-27T11:24:43.680Z,french_476.wav,0,pull,808,33,4,5,Français,m,2,0.2,73.10097617,0.39475379
5d726b8a0c3f0f0017cdfcf7,25,0,2024-02-27T11:24:43.680Z,french_476.wav,0,pull,808,33,4,5,Français,m,3,0.3,-39.94037221,1.23972907
5d726b8a0c3f0f0017cdfcf7,25,0,2024-02-27T11:24:43.680Z,french_476.wav,0,pull,808,33,4,5,Français,m,4,0.4,-70.77067891,1.89359737
5d726b8a0c3f0f0017cdfcf7,25,0,2024-02-27T11:24:43.680Z,french_476.wav,0,pull,808,33,4,5,Français,m,5,0.5,-69.51890588,1.35568455
5d726b8a0c3f0f0017cdfcf7,25,0,2024-02-27T11:24:43.680Z,french_476.wav,0,pull,808,33,4,5,Français,m,6,0.6,14.97450783,0.10717939
5d726b8a0c3f0f0017cdfcf7,25,0,2024-02-27T11:24:43.680Z,french_476.wav,0,pull,808,33,4,5,Français,m,7,0.7,11.8314824,1.73146134
5d726b8a0c3f0f0017cdfcf7,25,0,2024-02-27T11:24:43.680Z,french_476.wav,0,pull,808,33,4,5,Français,m,8,0.8,-94.87528551,1.80986266
5d726b8a0c3f0f0017cdfcf7,25,0,2024-02-27T11:24:43.680Z,french_476.wav,0,pull,808,33,4,5,Français,m,9,0.9,-47.21116186,0.67970101
5d726b8a0c3f0f0017cdfcf7,25,0,2024-02-27T11:24:43.680Z,french_476.wav,0,pull,808,33,4,5,Français,m,10,1.0,77.98956327,0.57105332
5d726b8a0c3f0f0017cdfcf7,25,0,2024-02-27T11:24:43.680Z,french_476.wav,0,pull,808,33,4,5,Français,m,11,1.1,27.75596283,0.99269413
5d726b8a0c3f0f0017cdfcf7,25,0,2024-02-27T11:24:43.680Z,french_476.wav,0,pull,808,33,4,5,Français,m,12,1.14141667,-30.59689751,0.74836079
5d726b8a0c3f0f0017cdfcf7,26,0,2024-02-27T11:24:43.680Z,french_812.wav,0,poule,1304,33,4,5,Français,m,0,0.0,-42.66002827,0.44619032
5d726b8a0c3f0f0017cdfcf7,26,0,2024-02-27T11:24:43.680Z,french_812.wav,0,poule,1304,33,4,5,Français,m,1,0.1,-63.45257727,1.09752053
5d726b8a0c3f0f0017cdfcf7,26,0,2024-02-27T11:24:43.680Z,french_812.wav,0,poule,1304,33,4,5,Français,m,2,0.2,-17.55899299,1.94483115
5d726b8a0c3f0f0017cdfcf7,26,0,2024-02-27T11:24:43.680Z,french_812.wav,0,poule,1304,33,4,5,Français,m,3,0.3,-6.53827268,1.6322026
5d726b8a0c3f0f0017cdfcf7,26,0,2024-02-27T11:24:43.680Z,french_812.wav,0,poule,1304,33,4,5,Français,m,4,0.4,82.73159926,1.42964573
5d726b8a0c3f0f0017cdfcf7,26,0,2024-02-27T11:24:43.680Z,french_812.wav,0,poule,1304,33,4,5,Français,m,5,0.5,13.20285819,1.82803278
5d726b8a0c3f0f0017cdfcf7,26,0,2024-02-27T11:24:43.680Z,french_812.wav,0,poule,1304,33,4,5,Français,m,6,0.6,-12.96734249,1.23610149
5d726b8a0c3f0f0017cdfcf7,26,0,2024-02-27T11:24:43.680Z,french_812.wav,0,poule,1304,33,4,5,Français,m,7,0.7,-74.04565338,1.25749674
5d726b8a0c3f0f0017cdfcf7,26,0,2024-02-27T11:24:43.680Z,french_812.wav,0,poule,1304,33,4,5,Français,m,8,0.8,43.93001564,1.19337031
5d726b8a0c3f0f0017cdfcf7,26,0,2024-02-27T11:24:43.680Z,french_812.wav,0,poule,1304,33,4,5,Français,m,9,0.9,-5.48619498,0.21250901
5d726b8a0c3f0f0017cdfcf7,26,0,2024-02-27T11:24:43.680Z,french_812.wav,0,poule,1304,33,4,5,Français,m,10,1.0,51.20549239,1.32924457
5d726b8a0c3f0f0017cdfcf7,26,0,2024-02-27T11:24:43.680Z,french_812.wav,0,poule,1304,33,4,5,Français,m,11,1.1,48.53876007,0.52399169
5d726b8a0c3f0f0017cdfcf7,26,0,2024-02-27T11:24:43.680Z,french_812.wav,0,poule,1304,33,4,5,Français,m,12,1.14141667,-70.42678673,0.252725
5d726b8a0c3f0f0017cdfcf7,27,0,2024-02-27T11:24:43.680Z,french_510.wav,0,pull,1274,33,4,5,Français,m,0,0.0,2.5827445,1.20035409
5d726b8a0c3f0f0017cdfcf7,27,0,2024-02-27T11:24:43.680Z,french_510.wav,0,pull,1274,33,4,5,Français,m,1,0.1,34.14748066,1.5836089
5d726b8a0c3f0f0017cdfcf7,27,0,2024-02-27T11:24:43.680Z,french_510.wav,0,pull,1274,33,4,5,Français,m,2,0.2,19.6904355,0.29484574
5d726b8a0c3f0f0017cdfcf7,27,0,2024-02-27T11:24:43.680Z,french_510.wav,0,pull,1274,33,4,5,Français,m,3,0.3,68.79602602,0.62506133
5d726b8a0c3f0f0017cdfcf7,27,0,2024-02-27T11:24:43.680Z,french_510.wav,0,pull,1274,33,4,5,Français,m,4,0.4,23.1262233,0.53994538
5d726b8a0c3f0f0017cdfcf7,27,0,2024-02-27T11:24:43.680Z,french_510.wav,0,pull,1274,33,4,5,Français,m,5,0.5,-73.53138037,1.49375352
5d726b8a0c3f0f0017cdfcf7,27,0,2024-02-27T11:24:43.680Z,french_510.wav,0,pull,1274,33,4,5,Français,m,6,0.6,24.41962913,1.10233577
5d726b8a0c3f0f0017cdfcf7,27,0,2024-02-27T11:24:43.680Z,french_510.wav,0,pull,1274,33,4,5,Français,m,7,0.7,17.96835179,1.90421879
5d726b8a0c3f0f0017cdfcf7,27,0,2024-02-27T11:24:43.680Z,french_510.wav,0,pull,1274,33,4,5,Français,m,8,0.8,-67.32328085,1.01477718
5d726b8a0c3f0f0017cdfcf7,27,0,2024-02-27T11:24:43.680Z,french_510.wav,0,pull,1274,33,4,5,Français,m,9,0.9,75.89669315,1.7885059
5d726b8a0c3f0f0017cdfcf7,27,0,2024-02-27T11:24:43.680Z,french_510.wav,0,pull,1274,33,4,5,Français,m,10,1.0,90.53362858,0.32789368
5d726b8a0c3f0f0017cdfcf7,27,0,2024-02-27T11:24:43.680Z,french_510.wav,0,pull,1274,33,4,5,Français,m,11,1.1,10.95226784,0.60361192
5d726b8a0c3f0f0017cdfcf7,27,0,2024-02-27T11:24:43.680Z,french_510.wav,0,pull,1274,33,4,5,Français,m,12,1.14141667,-78.35504449,0.98506187
5d726b8a0c3f0f0017cdfcf7,28,0,2024-02-27T11:24:43.680Z,french_566.wav,0,poule,214,33,4,5,Français,m,0,0.0,-16.96845305,1.17622885
5d726b8a0c3f0f0017cdfcf7,28,0,2024-02-27T11:24:43.680Z,french_566.wav,0,poule,214,33,4,5,Français,m,1,0.1,84.38851632,1.73242098
5d726b8a0c3f0f0017cdfcf7,28,0,2024-02-27T11:24:43.680Z,french_566.wav,0,poule,214,33,4,5,Français,m,2,0.2,41.85960526,0.81564824
5d726b8a0c3f0f0017cdfcf7,28,0,2024-02-27T11:24:43.680Z,french_566.wav,0,poule,214,33,4,5,Français,m,3,0.3,-39.90379286,1.52203287
5d726b8a0c3f0f0017cdfcf7,28,0,2024-02-27T11:24:43.680Z,french_566.wav,0,poule,214,33,4,5,Français,m,4,0.4,20.08999337,1.59966219
5d726b8a0c3f0f0017cdfcf7,28,0,2024-02-27T11:24:43.680Z,french_566.wav,0,poule,214,33,4,5,Français,m,5,0.5,-6.78108425,1.81966132
5d726b8a0c3f0f0017cdfcf7,28,0,2024-02-27T11:24:43.680Z,french_566.wav,0,poule,214,33,4,5,Français,m,6,0.6,72.17198407,0.1494381
5d726b8a0c3f0f0017cdfcf7,28,0,2024-02-27T11:24:43.680Z,french_566.wav,0,poule,214,33,4,5,Français,m,7,0.7,9.98770154,0.70489318
5d726b8a0c3f0f0017cdfcf7,28,0,2024-02-27T11:24:43.680Z,french_566.wav,0,poule,214,33,4,5,Français,m,8,0.8,-19.58429309,0.97523256
5d726b8a0c3f0f0017cdfcf7,28,0,2024-02-27T11:24:43.680Z,french_566.wav,0,poule,214,33,4,5,Français,m,9,0.9,-9.24609078,1.39455087
5d726b8a0c3f0f0017cdfcf7,28,0,2024-02-27T11:24:43.680Z,french_566.wav,0,poule,214,33,4,5,Français,m,10,1.0,-71.96197816,1.80039842
5d726b8a0c3f0f0017cdfcf7,28,0,2024-02-27T11:24:43.680Z,french_566.wav,0,poule,214,33,4,5,Français,m,11,1.1,93.08203499,1.02671829
5d726b8a0c3f0f0017cdfcf7,28,0,2024-02-27T11:24:43.680Z,french_566.wav,0,poule,214,33,4,5,Français,m,12,1.14141667,-67.92077118,0.56763023
5d726b8a0c3f0f0017cdfcf7,29,0,2024-02-27T11:24:43.680Z,french_770.wav,0,pull,3313,33,4,5,Français,m,0,0.0,-6.4888623,1.58204947
5d726b8a0c3f0f0017cdfcf7,29,0,2024-02-27T11:24:43.680Z,french_770.wav,0,pull,3313,33,4,5,Français,m,1,0.1,10.25935382,0.75621705
5d726b8a0c3f0f0017cdfcf7,29,0,2024-02-27T11:24:43.680Z,french_770.wav,0,pull,3313,33,4,5,Français,m,2,0.2,-98.41393192,0.6737112
5d726b8a0c3f0f0017cdfcf7,29,0,2024-02-27T11:24:43.680Z,french_770.wav,0,pull,3313,33,4,5,Français,m,3,0.3,-40.92801907,1.47717622
5d726b8a0c3f0f0017cdfcf7,29,0,2024-02-27T11:24:43.680Z,french_770.wav,0,pull,3313,33,4,5,Français,m,4,0.4,66.22295087,1.33888104
5d726b8a0c3f0f0017cdfcf7,29,0,2024-02-27T11:24:43.680Z,french_770.wav,0,pull,3313,33,4,5,Français,m,5,0.5,-30.24910195,0.77255852
5d726b8a0c3f0f0017cdfcf7,29,0,2024-02-27T11:24:43.680Z,french_770.wav,0,pull,3313,33,4,5,Français,m,6,0.6,47.10720128,1.63339195
5d726b8a0c3f0f0017cdfcf7,29,0,2024-02-27T11:24:43.680Z,french_770.wav,0,pull,3313,33,4,5,Français,m,7,0.7,4.7507049,1.91064047
5d726b8a0c3f0f0017cdfcf7,29,0,2024-02-27T11:24:43.680Z,french_770.wav,0,pull,3313,33,4,5,Français,m,8,0.8,-40.48688364,1.54599539
5d726b8a0c3f0f0017cdfcf7,29,0,2024-02-27T11:24:43.680Z,french_770.wav,0,pull,3313,33,4,5,Français,m,9,0.9,-47.0079054,0.48737493
5d726b8a0c3f0f0017cdfcf7,29,0,2024-02-27T11:24:43.680Z,french_770.wav,0,pull,3313,33,4,5,Français,m,10,1.0,2.83601634,1.73547944
5d726b8a0c3f0f0017cdfcf7,29,0,2024-02-27T11:24:43.680Z,french_770.wav,0,pull,3313,33,4,5,Français,m,11,1.1,10.67776144,0.45897774
5d726b8a0c3f0f0017cdfcf7,29,0,2024-02-27T11:24:43.680Z,french_770.wav,0,pull,3313,33,4,5,Français,m,12,1.14141667,45.53025902,0.90041339
5d726b8a0c3f0f0017cdfcf7,30,0,2024-02-27T11:24:43.680Z,french_597.wav,0,pull,939,33,4,5,Français,m,0,0.0,3.81117618,0.64425147
5d726b8a0c3f0f0017cdfcf7,30,0,2024-02-27T11:24:43.680Z,french_597.wav,0,pull,939,33,4,5,Français,m,1,0.1,1.65290583,1.80851034
5d726b8a0c3f0f0017cdfcf7,30,0,2024-02-27T11:24:43.680Z,french_597.wav,0,pull,939,33,4,5,Français,m,2,0.2,75.20334273,0.13064714
5d726b8a0c3f0f0017cdfcf7,30,0,2024-02-27T11:24:43.680Z,french_597.wav,0,pull,939,33,4,5,Français,m,3,0.3,-31.80520796,1.14595158
5d726b8a0c3f0f0017cdfcf7,30,0,2024-02-27T11:24:43.680Z,french_597.wav,0,pull,939,33,4,5,Français,m,4,0.4,47.06388339,1.20714689
5d726b8a0c3f0f0017cdfcf7,30,0,2024-02-27T11:24:43.680Z,french_597.wav,0,pull,939,33,4,5,Français,m,5,0.5,-12.18502222,1.21300166
5d726b8a0c3f0f0017cdfcf7,30,0,2024-02-27T11:24:43.680Z,french_597.wav,0,pull,939,33,4,5,Français,m,6,0.6,16.00653048,1.59786204
5d726b8a0c3f0f0017cdfcf7,30,0,2024-02-27T11:24:43.680Z,french_597.wav,0,pull,939,33,4,5,Français,m,7,0.7,-1.06509013,1.5777009
5d726b8a0c3f0f0017cdfcf7,30,0,2024-02-27T11:24:43.680Z,french_597.wav,0,pull,939,33,4,5,Français,m,8,0.8,-88.67460342,1.85046757
5d726b8a0c3f0f0017cdfcf7,30,0,2024-02-27T11:24:43.680Z,french_597.wav,0,pull,939,33,4,5,Français,m,9,0.9,79.23096379,0.15850725
5d726b8a0c3f0f0017cdfcf7,30,0,2024-02-27T11:24:43.680Z,french_597.wav,0,pull,939,33,4,5,Français,m,10,1.0,-37.6385831,0.67581982
5d726b8a0c3f0f0017cdfcf7,30,0,2024-02-27T11:24:43.680Z,french_597.wav,0,pull,939,33,4,5,Français,m,11,1.1,-82.3453721,0.97379481
5d726b8a0c3f0f0017cdfcf7,30,0,2024-02-27T11:24:43.680Z,french_597.wav,0,pull,939,33,4,5,Français,m,12,1.14141667,50.39965119,1.28226838
5d726b8a0c3f0f0017cdfcf7,31,0,2024-02-27T11:24:43.680Z,french_282.wav,0,pull,1262,33,4,5,Français,m,0,0.0,28.02282509,1.0912119
5d726b8a0c3f0f0017cdfcf7,31,0,2024-02-27T11:24:43.680Z,french_282.wav,0,pull,1262,33,4,5,Français,m,1,0.1,67.2501468,0.20405477
5d726b8a0c3f0f0017cdfcf7,31,0,2024-02-27T11:24:43.680Z,french_282.wav,0,pull,1262,33,4,5,Français,m,2,0.2,93.9816164,1.91146091
5d726b8a0c3f0f0017cdfcf7,31,0,2024-02-27T11:24:43.680Z,french_282.wav,0,pull,1262,33,4,5,Français,m,3,0.3,-97.54085303,1.80081272
5d726b8a0c3f0f0017cdfcf7,31,0,2024-02-27T11:24:43.680Z,french_282.wav,0,pull,1262,33,4,5,Français,m,4,0.4,33.49018191,1.44786669
5d726b8a0c3f0f0017cdfcf7,31,0,2024-02-27T11:24:43.680Z,french_282.wav,0,pull,1262,33,4,5,Français,m,5,0.5,17.0509321,1.13344756
5d726b8a0c3f0f0017cdfcf7,31,0,2024-02-27T11:24:43.680Z,french_282.wav,0,pull,1262,33,4,5,Français,m,6,0.6,26.45613826,0.31385296
5d726b8a0c3f0f0017cdfcf7,31,0,2024-02-27T11:24:43.680Z,french_282.wav,0,pull,1262,33,4,5,Français,m,7,0.7,51.40945909,1.39043822
5d726b8a0c3f0f0017cdfcf7,31,0,2024-02-27T11:24:43.680Z,french_282.wav,0,pull,1262,33,4,5,Français,m,8,0.8,17.98116381,0.22424719
5d726b8a0c3f0f0017cdfcf7,31,0,2024-02-27T11:24:43.680Z,french_282.wav,0,pull,1262,33,4,5,Français,m,9,0.9,51.09259465,0.50632788
5d726b8a0c3f0f0017cdfcf7,31,0,2024-02-27T11:24:43.680Z,french_282.wav,0,pull,1262,33,4,5,Français,m,10,1.0,64.32650722,0.63678076
5d726b8a0c3f0f0017cdfcf7,31,0,2024-02-27T11:24:43.680Z,french_282.wav,0,pull,1262,33,4,5,Français,m,11,1.1,85.88377636,1.37629793
5d726b8a0c3f0f0017cdfcf7,31,0,2024-02-27T11:24:43.680Z,french_282.wav,0,pull,1262,33,4,5,Français,m,12,1.14141667,-27.47476,1.78255014
5d726b8a0c3f0f0017cdfcf7,32,0,2024-02-27T11:24:43.680Z,french_357.wav,0,poule,300,33,4,5,Français,m,0,0.0,86.82276174,1.92268893
5d726b8a0c3f0f0017cdfcf7,32,0,2024-02-27T11:24:43.680Z,french_357.wav,0,poule,300,33,4,5,Français,m,1,0.1,61.01952575,0.3802524
5d726b8a0c3f0f0017cdfcf7,32,0,2024-02-27T11:24:43.680Z,french_357.wav,0,poule,300,33,4,5,Français,m,2,0.2,-60.75226359,0.64366911
5d726b8a0c3f0f0017cdfcf7,32,0,2024-02-27T11:24:43.680Z,french_357.wav,0,poule,300,33,4,5,Français,m,3,0.3,85.98471719,0.42839795
5d726b8a0c3f0f0017cdfcf7,32,0,2024-02-27T11:24:43.680Z,french_357.wav,0,poule,300,33,4,5,Français,m,4,0.4,-69.86147068,0.00748054
5d726b8a0c3f0f0017cdfcf7,32,0,2024-02-27T11:24:43.680Z,french_357.wav,0,poule,300,33,4,5,Français,m,5,0.5,9.94695166,1.08678504
5d726b8a0c3f0f0017cdfcf7,32,0,2024-02-27T11:24:43.680Z,french_357.wav,0,poule,300,33,4,5,Français,m,6,0.6,18.79769535,1.81857945
5d726b8a0c3f0f0017cdfcf7,32,0,2024-02-27T11:24:43.680Z,french_357.wav,0,poule,300,33,4,5,Français,m,7,0.7,32.56379866,0.88876944
5d726b8a0c3f0f0017cdfcf7,32,0,2024-02-27T11:24:43.680Z,french_357.wav,0,poule,300,33,4,5,Français,m,8,0.8,-63.36176939,0.00755284
5d726b8a0c3f0f0017cdfcf7,32,0,2024-02-27T11:24:43.680Z,french_357.wav,0,poule,300,33,4,5,Français,m,9,0.9,-52.11840686,1.32717317
5d726b8a0c3f0f0017cdfcf7,32,0,2024-02-27T11:24:43.680Z,french_357.wav,0,poule,300,33,4,5,Français,m,10,1.0,-62.81838888,1.11144187
5d726b8a0c3f0f0017cdfcf7,32,0,2024-02-27T11:24:43.680Z,french_357.wav,0,poule,300,33,4,5,Français,m,11,1.1,-46.10611579,1.48923739
5d726b8a0c3f0f0017cdfcf7,32,0,2024-02-27T11:24:43.680Z,french_357.wav,0,poule,300,33,4,5,Français,m,12,1.14141667,30.76289331,0.80153076
5d726b8a0c3f0f0017cdfcf7,33,0,2024-02-27T11:24:43.680Z,french_879.wav,0,poule,580,33,4,5,Français,m,0,0.0,88.66120866,1.49948929
5d726b8a0c3f0f0017cdfcf7,33,0,2024-02-27T11:24:43.680Z,french_879.wav,0,poule,580,33,4,5,Français,m,1,0.1,35.12225603,1.15624611
5d726b8a0c3f0f0017cdfcf7,33,0,2024-02-27T11:24:43.680Z,french_879.wav,0,poule,580,33,4,5,Français,m,2,0.2,-2.93703308,1.75956272
5d726b8a0c3f0f0017cdfcf7,33,0,2024-02-27T11:24:43.680Z,french_879.wav,0,poule,580,33,4,5,Français,m,3,0.3,61.37727631,0.82855874
5d726b8a0c3f0f0017cdfcf7,33,0,2024-02-27T11:24:43.680Z,french_879.wav,0,poule,580,33,4,5,Français,m,4,0.4,2.53929299,0.63351831
5d726b8a0c3f0f0017cdfcf7,33,0,2024-02-27T11:24:43.680Z,french_879.wav,0,poule,580,33,4,5,Français,m,5,0.5,65.24070343,1.6138796
5d726b8a0c3f0f0017cdfcf7,33,0,2024-02-27T11:24:43.680Z,french_879.wav,0,poule,580,33,4,5,Français,m,6,0.6,-80.11136653,0.6895417
5d726b8a0c3f0f0017cdfcf7,33,0,2024-02-27T11:24:43.680Z,french_879.wav,0,poule,580,33,4,5,Français,m,7,0.7,13.22088752,0.19108086
5d726b8a0c3f0f0017cdfcf7,33,0,2024-02-27T11:24:43.680Z,french_879.wav,0,poule,580,33,4,5,Français,m,8,0.8,64.64970231,0.37453166
5d726b8a0c3f0f0017cdfcf7,33,0,2024-02-27T11:24:43.680Z,french_879.wav,0,poule,580,33,4,5,Français,m,9,0.9,13.00456611,1.83756867
5d726b8a0c3f0f0017cdfcf7,33,0,2024-02-27T11:24:43.680Z,french_879.wav,0,poule,580,33,4,5,Français,m,10,1.0,-81.8213386,1.05634914
5d726b8a0c3f0f0017cdfcf7,33,0,2024-02-27T11:24:43.680Z,french_879.wav,0,poule,580,33,4,5,Français,m,11,1.1,-91.24943387,0.80697989
5d726b8a0c3f0f0017cdfcf7,33,0,2024-02-27T11:24:43.680Z,french_879.wav,0,poule,580,33,4,5,Français,m,12,1.14141667,94.81116576,0.78800282
5d726b8a0c3f0f0017cdfcf7,34,0,2024-02-27T11:24:43.680Z,french_79.wav,0,poule,541,33,4,5,Français,m,0,0.0,-40.8979474,0.83878745
5d726b8a0c3f0f0017cdfcf7,34,0,2024-02-27T11:24:43.680Z,french_79.wav,0,poule,541,33,4,5,Français,m,1,0.1,0.0839153168,0.7600464
5d726b8a0c3f0f0017cdfcf7,34,0,2024-02-27T11:24:43.680Z,french_79.wav,0,poule,541,33,4,5,Français,m,2,0.2,-16.0356857,1.5875147
5d726b8a0c3f0f0017cdfcf7,34,0,2024-02-27T11:24:43.680Z,french_79.wav,0,poule,541,33,4,5,Français,m,3,0.3,54.9421964,1.0726748
5d726b8a0c3f0f0017cdfcf7,34,0,2024-02-27T11:24:43.680Z,french_79.wav,0,poule,541,33,4,5,Français,m,4,0.4,3.63782829,1.28120337
5d726b8a0c3f0f0017cdfcf7,34,0,2024-02-27T11:24:43.680Z,french_79.wav,0,poule,541,33,4,5,Français,m,5,0.5,74.6888662,1.64347059
5d726b8a0c3f0f0017cdfcf7,34,0,2024-02-27T11:24:43.680Z,french_79.wav,0,poule,541,33,4,5,Français,m,6,0.6,-91.795429,1.79846317
5d726b8a0c3f0f0017cdfcf7,34,0,2024-02-27T11:24:43.680Z,french_79.wav,0,poule,541,33,4,5,Français,m,7,0.7,-57.9262364,0.90335206
5d726b8a0c3f0f0017cdfcf7,34,0,2024-02-27T11:24:43.680Z,french_79.wav,0,poule,541,33,4,5,Français,m,8,0.8,9.91334894,0.89108182
5d726b8a0c3f0f0017cdfcf7,34,0,2024-02-27T11:24:43.680Z,french_79.wav,0,poule,541,33,4,5,Français,m,9,0.9,-21.9596642,0.5309996
5d726b8a0c3f0f0017cdfcf7,34,0,2024-02-27T11:24:43.680Z,french_79.wav,0,poule,541,33,4,5,Français,m,10,1.0,46.5249262,0.74356319
5d726b8a0c3f0f0017cdfcf7,34,0,2024-02-27T11:24:43.680Z,french_79.wav,0,poule,541,33,4,5,Français,m,11,1.1,-31.2450706,1.12312207
5d726b8a0c3f0f0017cdfcf7,34,0,2024-02-27T11:24:43.680Z,french_79.wav,0,poule,541,33,4,5,Français,m,12,1.14141667,-9.1986533,0.4961803
5d726b8a0c3f0f0017cdfcf7,35,0,2024-02-27T11:24:43.680Z,french_247.wav,0,poule,409,33,4,5,Français,m,0,0.0,87.28160699,1.75163706
5d726b8a0c3f0f0017cdfcf7,35,0,2024-02-27T11:24:43.680Z,french_247.wav,0,poule,409,33,4,5,Français,m,1,0.1,54.41631338,0.7463051
5d726b8a0c3f0f0017cdfcf7,35,0,2024-02-27T11:24:43.680Z,french_247.wav,0,poule,409,33,4,5,Français,m,2,0.2,37.94276377,0.54290341
5d726b8a0c3f0f0017cdfcf7,35,0,2024-02-27T11:24:43.680Z,french_247.wav,0,poule,409,33,4,5,Français,m,3,0.3,-67.22196437,0.62982968
5d726b8a0c3f0f0017cdfcf7,35,0,2024-02-27T11:24:43.680Z,french_247.wav,0,poule,409,33,4,5,Français,m,4,0.4,-92.34211051,1.66450544
5d726b8a0c3f0f0017cdfcf7,35,0,2024-02-27T11:24:43.680Z,french_247.wav,0,poule,409,33,4,5,Français,m,5,0.5,78.48957529,0.11949556
5d726b8a0c3f0f0017cdfcf7,35,0,2024-02-27T11:24:43.680Z,french_247.wav,0,poule,409,33,4,5,Français,m,6,0.6,-77.60666308,0.59857061
5d726b8a0c3f0f0017cdfcf7,35,0,2024-02-27T11:24:43.680Z,french_247.wav,0,poule,409,33,4,5,Français,m,7,0.7,89.04290108,1.16504801
5d726b8a0c3f0f0017cdfcf7,35,0,2024-02-27T11:24:43.680Z,french_247.wav,0,poule,409,33,4,5,Français,m,8,0.8,95.38463118,1.98824202
5d726b8a0c3f0f0017cdfcf7,35,0,2024-02-27T11:24:43.680Z,french_247.wav,0,poule,409,33,4,5,Français,m,9,0.9,-13.6171851,1.58326229
5d726b8a0c3f0f0017cdfcf7,35,0,2024-02-27T11:24:43.680Z,french_247.wav,0,poule,409,33,4,5,Français,m,10,1.0,-62.96426983,1.7730941
5d726b8a0c3f0f0017cdfcf7,35,0,2024-02-27T11:24:43.680Z,french_247.wav,0,poule,409,33,4,5,Français,m,11,1.1,10.74028895,1.01142382
5d726b8a0c3f0f0017cdfcf7,35,0,2024-02-27T11:24:43.680Z,french_247.wav,0,poule,409,33,4,5,Français,m,12,1.14141667,30.61570069,1.22213948
5d726b8a0c3f0f0017cdfcf7,36,0,2024-02-27T11:24:43.680Z,french_706.wav,0,poule,1709,33,4,5,Français,m,0,0.0,-4.29945195,1.10902177
5d726b8a0c3f0f0017cdfcf7,36,0,2024-02-27T11:24:43.680Z,french_706.wav,0,poule,1709,33,4,5,Français,m,1,0.1,91.26357726,1.34575
5d726b8a0c3f0f0017cdfcf7,36,0,2024-02-27T11:24:43.680Z,french_706.wav,0,poule,1709,33,4,5,Français,m,2,0.2,-89.32127847,0.99129006
5d726b8a0c3f0f0017cdfcf7,36,0,2024-02-27T11:24:43.680Z,french_706.wav,0,poule,1709,33,4,5,Français,m,3,0.3,-31.33294301,1.08600835
5d726b8a0c3f0f0017cdfcf7,36,0,2024-02-27T11:24:43.680Z,french_706.wav,0,poule,1709,33,4,5,Français,m,4,0.4,81.84070308,1.21225631
5d726b8a0c3f0f0017cdfcf7,36,0,2024-02-27T11:24:43.680Z,french_706.wav,0,poule,1709,33,4,5,Français,m,5,0.5,9.00834169,0.60946037
5d726b8a0c3f0f0017cdfcf7,36,0,2024-02-27T11:24:43.680Z,french_706.wav,0,poule,1709,33,4,5,Français,m,6,0.6,49.15289871,1.05762036
5d726b8a0c3f0f0017cdfcf7,36,0,2024-02-27T11:24:43.680Z,french_706.wav,0,poule,1709,33,4,5,Français,m,7,0.7,-60.13889413,1.78979046
5d726b8a0c3f0f0017cdfcf7,36,0,2024-02-27T11:24:43.680Z,french_706.wav,0,poule,1709,33,4,5,Français,m,8,0.8,50.31698907,1.12295234
5d726b8a0c3f0f0017cdfcf7,36,0,2024-02-27T11:24:43.680Z,french_706.wav,0,poule,1709,33,4,5,Français,m,9,0.9,65.2262025,0.95447208
5d726b8a0c3f0f0017cdfcf7,36,0,2024-02-27T11:24:43.680Z,french_706.wav,0,poule,1709,33,4,5,Français,m,10,1.0,52.91538256,1.23063114
5d726b8a0c3f0f0017cdfcf7,36,0,2024-02-27T11:24:43.680Z,french_706.wav,0,poule,1709,33,4,5,Français,m,11,1.1,47.79032085,0.12943509
5d726b8a0c3f0f0017cdfcf7,36,0,2024-02-27T11:24:43.680Z,french_706.wav,0,poule,1709,33,4,5,Français,m,12,1.14141667,-11.17597076,1.0490617
5d726b8a0c3f0f0017cdfcf7,37,0,2024-02-27T11:24:43.680Z,french_967.wav,0,poule,907,33,4,5,Français,m,0,0.0,-71.34607959,1.03552624
5d726b8a0c3f0f0017cdfcf7,37,0,2024-02-27T11:24:43.680Z,french_967.wav,0,poule,907,33,4,5,Français,m,1,0.1,-35.65819027,0.70466862
5d726b8a0c3f0f0017cdfcf7,37,0,2024-02-27T11:24:43.680Z,french_967.wav,0,poule,907,33,4,5,Français,m,2,0.2,-68.20202891,1.43535484
5d726b8a0c3f0f0017cdfcf7,37,0,2024-02-27T11:24:43.680Z,french_967.wav,0,poule,907,33,4,5,Français,m,3,0.3,-57.58758282,1.6501514
5d726b8a0c3f0f0017cdfcf7,37,0,2024-02-27T11:24:43.680Z,french_967.wav,0,poule,907,33,4,5,Français,m,4,0.4,70.48380742,0.3504388
5d726b8a0c3f0f0017cdfcf7,37,0,2024-02-27T11:24:43.680Z,french_967.wav,0,poule,907,33,4,5,Français,m,5,0.5,95.19228037,0.93193126
5d726b8a0c3f0f0017cdfcf7,37,0,2024-02-27T11:24:43.680Z,french_967.wav,0,poule,907,33,4,5,Français,m,6,0.6,-39.65708514,0.84411513
5d726b8a0c3f0f0017cdfcf7,37,0,2024-02-27T11:24:43.680Z,french_967.wav,0,poule,907,33,4,5,Français,m,7,0.7,-83.522521,1.24684146
5d726b8a0c3f0f0017cdfcf7,37,0,2024-02-27T11:24:43.680Z,french_967.wav,0,poule,907,33,4,5,Français,m,8,0.8,80.27349765,0.46592488
5d726b8a0c3f0f0017cdfcf7,37,0,2024-02-27T11:24:43.680Z,french_967.wav,0,poule,907,33,4,5,Français,m,9,0.9,71.24042066,1.15667054
5d726b8a0c3f0f0017cdfcf7,37,0,2024-02-27T11:24:43.680Z,french_967.wav,0,poule,907,33,4,5,Français,m,10,1.0,65.47365617,1.88512118
5d726b8a0c3f0f0017cdfcf7,37,0,2024-02-27T11:24:43.680Z,french_967.wav,0,poule,907,33,4,5,Français,m,11,1.1,-37.87916856,0.13959958
5d726b8a0c3f0f0017cdfcf7,37,0,2024-02-27T11:24:43.680Z,french_967.wav,0,poule,907,33,4,5,Français,m,12,1.14141667,-5.33917093,0.65218631
5d726b8a0c3f0f0017cdfcf7,38,0,2024-02-27T11:24:43.680Z,french_200.wav,0,poule,396,33,4,5,Français,m,0,0.0,10.66473812,1.15832736
5d726b8a0c3f0f0017cdfcf7,38,0,2024-02-27T11:24:43.680Z,french_200.wav,0,poule,396,33,4,5,Français,m,1,0.1,-23.10865754,0.48233726
5d726b8a0c3f0f0017cdfcf7,38,0,2024-02-27T11:24:43.680Z,french_200.wav,0,poule,396,33,4,5,Français,m,2,0.2,-26.94851482,0.16521916
5d726b8a0c3f0f0017cdfcf7,38,0,2024-02-27T11:24:43.680Z,french_200.wav,0,poule,396,33,4,5,Français,m,3,0.3,-33.10340519,0.50966441
5d726b8a0c3f0f0017cdfcf7,38,0,2024-02-27T11:24:43.680Z,french_200.wav,0,poule,396,33,4,5,Français,m,4,0.4,49.54751917,0.60857897
5d726b8a0c3f0f0017cdfcf7,38,0,2024-02-27T11:24:43.680Z,french_200.wav,0,poule,396,33,4,5,Français,m,5,0.5,-36.16101415,0.8415653
5d726b8a0c3f0f0017cdfcf7,38,0,2024-02-27T11:24:43.680Z,french_200.wav,0,poule,396,33,4,5,Français,m,6,0.6,69.93456636,1.89309681
5d726b8a0c3f0f0017cdfcf7,38,0,2024-02-27T11:24:43.680Z,french_200.wav,0,poule,396,33,4,5,Français,m,7,0.7,-11.46588409,1.76792236
5d726b8a0c3f0f0017cdfcf7,38,0,2024-02-27T11:24:43.680Z,french_200.wav,0,poule,396,33,4,5,Français,m,8,0.8,-34.69840246,0.32179511
5d726b8a0c3f0f0017cdfcf7,38,0,2024-02-27T11:24:43.680Z,french_200.wav,0,poule,396,33,4,5,Français,m,9,0.9,30.23959847,1.57618572
5d726b8a0c3f0f0017cdfcf7,38,0,2024-02-27T11:24:43.680Z,french_200.wav,0,poule,396,33,4,5,Français,m,10,1.0,-25.32995204,1.69305609
5d726b8a0c3f0f0017cdfcf7,38,0,2024-02-27T11:24:43.680Z,french_200.wav,0,poule,396,33,4,5,Français,m,11,1.1,23.48875346,0.93398883
5d726b8a0c3f0f0017cdfcf7,38,0,2024-02-27T11:24:43.680Z,french_200.wav,0,poule,396,33,4,5,Français,m,12,1.14141667,-45.42969725,0.80903223
5d726b8a0c3f0f0017cdfcf7,39,0,2024-02-27T11:24:43.680Z,french_733.wav,0,pull,2885,33,4,5,Français,m,0,0.0,-28.30259207,0.49045242
5d726b8a0c3f0f0017cdfcf7,39,0,2024-02-27T11:24:43.680Z,french_733.wav,0,pull,2885,33,4,5,Français,m,1,0.1,-20.51655877,0.41105181
5d726b8a0c3f0f0017cdfcf7,39,0,2024-02-27T11:24:43.680Z,french_733.wav,0,pull,2885,33,4,5,Français,m,2,0.2,32.67834183,0.51992236
5d726b8a0c3f0f0017cdfcf7,39,0,2024-02-27T11:24:43.680Z,french_733.wav,0,pull,2885,33,4,5,Français,m,3,0.3,6.62547625,0.5442563
5d726b8a0c3f0f0017cdfcf7,39,0,2024-02-27T11:24:43.680Z,french_733.wav,0,pull,2885,33,4,5,Français,m,4,0.4,-74.88223305,1.50191258
5d726b8a0c3f0f0017cdfcf7,39,0,2024-02-27T11:24:43.680Z,french_733.wav,0,pull,2885,33,4,5,Français,m,5,0.5,78.7904108,0.7960124
5d726b8a0c3f0f0017cdfcf7,39,0,2024-02-27T11:24:43.680Z,french_733.wav,0,pull,2885,33,4,5,Français,m,6,0.6,92.741833,1.55647812
5d726b8a0c3f0f0017cdfcf7,39,0,2024-02-27T11:24:43.680Z,french_733.wav,0,pull,2885,33,4,5,Français,m,7,0.7,-51.74379755,0.75813018
5d726b8a0c3f0f0017cdfcf7,39,0,2024-02-27T11:24:43.680Z,french_733.wav,0,pull,2885,33,4,5,Français,m,8,0.8,0.26100759,1.97775979
5d726b8a0c3f0f0017cdfcf7,39,0,2024-02-27T11:24:43.680Z,french_733.wav,0,pull,2885,33,4,5,Français,m,9,0.9,80.00528442,1.24266335
5d726b8a0c3f0f0017cdfcf7,39,0,2024-02-27T11:24:43.680Z,french_733.wav,0,pull,2885,33,4,5,Français,m,10,1.0,-20.98835091,0.70545845
5d726b8a0c3f0f0017cdfcf7,39,0,2024-02-27T11:24:43.680Z,french_733.wav,0,pull,2885,33,4,5,Français,m,11,1.1,-67.79194344,0.86751529
5d726b8a0c3f0f0017cdfcf7,39,0,2024-02-27T11:24:43.680Z,french_733.wav,0,pull,2885,33,4,5,Français,m,12,1.14141667,20.39044297,1.05140742
5d726b8a0c3f0f0017cdfcf7,40,0,2024-02-27T11:24:43.680Z,french_94.wav,0,pull,504,33,4,5,Français,m,0,0.0,36.17630989,1.30255272
5d726b8a0c3f0f0017cdfcf7,40,0,2024-02-27T11:24:43.680Z,french_94.wav,0,pull,504,33,4,5,Français,m,1,0.1,14.66761443,0.32896771
5d726b8a0c3f0f0017cdfcf7,40,0,2024-02-27T11:24:43.680Z,french_94.wav,0,pull,504,33,4,5,Français,m,2,0.2,-38.42754405,1.71559629
5d726b8a0c3f0f0017cdfcf7,40,0,2024-02-27T11:24:43.680Z,french_94.wav,0,pull,504,33,4,5,Français,m,3,0.3,-13.35310679,0.63050452
5d726b8a0c3f0f0017cdfcf7,40,0,2024-02-27T11:24:43.680Z,french_94.wav,0,pull,504,33,4,5,Français,m,4,0.4,26.57810187,0.36223899
5d726b8a0c3f0f0017cdfcf7,40,0,2024-02-27T11:24:43.680Z,french_94.wav,0,pull,504,33,4,5,Français,m,5,0.5,28.67841296,1.65127257
5d726b8a0c3f0f0017cdfcf7,40,0,2024-02-27T11:24:43.680Z,french_94.wav,0,pull,504,33,4,5,Français,m,6,0.6,22.87282504,0.67205642
5d726b8a0c3f0f0017cdfcf7,40,0,2024-02-27T11:24:43.680Z,french_94.wav,0,pull,504,33,4,5,Français,m,7,0.7,-73.37852096,0.93955545
5d726b8a0c3f0f0017cdfcf7,40,0,2024-02-27T11:24:43.680Z,french_94.wav,0,pull,504,33,4,5,Français,m,8,0.8,-41.71162889,1.15247084
5d726b8a0c3f0f0017cdfcf7,40,0,2024-02-27T11:24:43.680Z,french_94.wav,0,pull,504,33,4,5,Français,m,9,0.9,-14.22920007,1.35681846
5d726b8a0c3f0f0017cdfcf7,40,0,2024-02-27T11:24:43.680Z,french_94.wav,0,pull,504,33,4,5,Français,m,10,1.0,-28.00054225,0.73658188
5d726b8a0c3f0f0017cdfcf7,40,0,2024-02-27T11:24:43.680Z,french_94.wav,0,pull,504,33,4,5,Français,m,11,1.1,-65.6003802,0.24655426
5d726b8a0c3f0f0017cdfcf7,40,0,2024-02-27T11:24:43.680Z,french_94.wav,0,pull,504,33,4,5,Français,m,12,1.14141667,32.63192122,0.38371321
5d726b8a0c3f0f0017cdfcf7,41,0,2024-02-27T11:24:43.680Z,french_136.wav,0,poule,368,33,4,5,Français,m,0,0.0,-0.93982829,1.18112725
5d726b8a0c3f0f0017cdfcf7,41,0,2024-02-27T11:24:43.680Z,french_136.wav,0,poule,368,33,4,5,Français,m,1,0.1,-11.50989173,1.4876912
5d726b8a0c3f0f0017cdfcf7,41,0,2024-02-27T11:24:43.680Z,french_136.wav,0,poule,368,33,4,5,Français,m,2,0.2,-44.36955216,1.55378385
5d726b8a0c3f0f0017cdfcf7,41,0,2024-02-27T11:24:43.680Z,french_136.wav,0,poule,368,33,4,5,Français,m,3,0.3,66.25490653,0.32679305
5d726b8a0c3f0f0017cdfcf7,41,0,2024-02-27T11:24:43.680Z,french_136.wav,0,poule,368,33,4,5,Français,m,4,0.4,76.3056731,0.30628123
5d726b8a0c3f0f0017cdfcf7,41,0,2024-02-27T11:24:43.680Z,french_136.wav,0,poule,368,33,4,5,Français,m,5,0.5,-53.64019494,1.28210854
5d726b8a0c3f0f0017cdfcf7,41,0,2024-02-27T11:24:43.680Z,french_136.wav,0,poule,368,33,4,5,Français,m,6,0.6,72.7758556,0.14420429
5d726b8a0c3f0f0017cdfcf7,41,0,2024-02-27T11:24:43.680Z,french_136.wav,0,poule,368,33,4,5,Français,m,7,0.7,-38.40056364,0.03042669
5d726b8a0c3f0f0017cdfcf7,41,0,2024-02-27T11:24:43.680Z,french_136.wav,0,poule,368,33,4,5,Français,m,8,0.8,-83.94600904,1.12471325
5d726b8a0c3f0f0017cdfcf7,41,0,2024-02-27T11:24:43.680Z,french_136.wav,0,poule,368,33,4,5,Français,m,9,0.9,60.40561717,1.12043075
5d726b8a0c3f0f0017cdfcf7,41,0,2024-02-27T11:24:43.680Z,french_136.wav,0,poule,368,33,4,5,Français,m,10,1.0,72.86364806,0.82934503
5d726b8a0c3f0f0017cdfcf7,41,0,2024-02-27T11:24:43.680Z,french_136.wav,0,poule,368,33,4,5,Français,m,11,1.1,-58.86585407,1.5410961
5d726b8a0c3f0f0017cdfcf7,41,0,2024-02-27T11:24:43.680Z,french_136.wav,0,poule,368,33,4,5,Français,m,12,1.14141667,-45.29061382,0.1982647
5d726b8a0c3f0f0017cdfcf7,42,0,2024-02-27T11:24:43.680Z,french_373.wav,0,poule,498,33,4,5,Français,m,0,0.0,-19.00823309,0.61729131
5d726b8a0c3f0f0017cdfcf7,42,0,2024-02-27T11:24:43.680Z,french_373.wav,0,poule,498,33,4,5,Français,m,1,0.1,-20.01708078,1.01940371
5d726b8a0c3f0f0017cdfcf7,42,0,2024-02-27T11:24:43.680Z,french_373.wav,0,poule,498,33,4,5,Français,m,2,0.2,-59.01936034,1.15362396
5d726b8a0c3f0f0017cdfcf7,42,0,2024-02-27T11:24:43.680Z,french_373.wav,0,poule,498,33,4,5,Français,m,3,0.3,89.73735508,1.64179084
5d726b8a0c3f0f0017cdfcf7,42,0,2024-02-27T11:24:43.680Z,french_373.wav,0,poule,498,33,4,5,Français,m,4,0.4,62.13320779,0.75224656
5d726b8a0c3f0f0017cdfcf7,42,0,2024-02-27T11:24:43.680Z,french_373.wav,0,poule,498,33,4,5,Français,m,5,0.5,52.97479545,1.16586274
5d726b8a0c3f0f0017cdfcf7,42,0,2024-02-27T11:24:43.680Z,french_373.wav,0,poule,498,33,4,5,Français,m,6,0.6,-6.74329887,0.01386647
5d726b8a0c3f0f0017cdfcf7,42,0,2024-02-27T11:24:43.680Z,french_373.wav,0,poule,498,33,4,5,Français,m,7,0.7,27.2712617,0.58835344
5d726b8a0c3f0f0017cdfcf7,42,0,2024-02-27T11:24:43.680Z,french_373.wav,0,poule,498,33,4,5,Français,m,8,0.8,-73.55107905,0.56225182
5d726b8a0c3f0f0017cdfcf7,42,0,2024-02-27T11:24:43.680Z,french_373.wav,0,poule,498,33,4,5,Français,m,9,0.9,-71.0486175,1.16946431
5d726b8a0c3f0f0017cdfcf7,42,0,2024-02-27T11:24:43.680Z,french_373.wav,0,poule,498,33,4,5,Français,m,10,1.0,19.59643173,0.84473904
5d726b8a0c3f0f0017cdfcf7,42,0,2024-02-27T11:24:43.680Z,french_373.wav,0,poule,498,33,4,5,Français,m,11,1.1,54.76394447,1.10005173
5d726b8a0c3f0f0017cdfcf7,42,0,2024-02-27T11:24:43.680Z,french_373.wav,0,poule,498,33,4,5,Français,m,12,1.14141667,-39.43230923,0.72757016
5d726b8a0c3f0f0017cdfcf7,43,0,2024-02-27T11:24:43.680Z,french_732.wav,0,poule,417,33,4,5,Français,m,0,0.0,-70.63652138,0.50644446
5d726b8a0c3f0f0017cdfcf7,43,0,2024-02-27T11:24:43.680Z,french_732.wav,0,poule,417,33,4,5,Français,m,1,0.1,74.94740029,0.52417177
5d726b8a0c3f0f0017cdfcf7,43,0,2024-02-27T11:24:43.680Z,french_732.wav,0,poule,417,33,4,5,Français,m,2,0.2,-68.01034885,1.08346926
5d726b8a0c3f0f0017cdfcf7,43,0,2024-02-27T11:24:43.680Z,french_732.wav,0,poule,417,33,4,5,Français,m,3,0.3,-51.20619296,0.58321107
5d726b8a0c3f0f0017cdfcf7,43,0,2024-02-27T11:24:43.680Z,french_732.wav,0,poule,417,33,4,5,Français,m,4,0.4,26.1436221,0.01328247
5d726b8a0c3f0f0017cdfcf7,43,0,2024-02-27T11:24:43.680Z,french_732.wav,0,poule,417,33,4,5,Français,m,5,0.5,83.39781629,0.60567381
5d726b8a0c3f0f0017cdfcf7,43,0,2024-02-27T11:24:43.680Z,french_732.wav,0,poule,417,33,4,5,Français,m,6,0.6,-65.97851273,0.20881444
5d726b8a0c3f0f0017cdfcf7,43,0,2024-02-27T11:24:43.680Z,french_732.wav,0,poule,417,33,4,5,Français,m,7,0.7,58.08888626,1.3772371
5d726b8a0c3f0f0017cdfcf7,43,0,2024-02-27T11:24:43.680Z,french_732.wav,0,poule,417,33,4,5,Français,m,8,0.8,58.72916245,1.44843636
5d726b8a0c3f0f0017cdfcf7,43,0,2024-02-27T11:24:43.680Z,french_732.wav,0,poule,417,33,4,5,Français,m,9,0.9,-29.18485422,1.25039606
5d726b8a0c3f0f0017cdfcf7,43,0,2024-02-27T11:24:43.680Z,french_732.wav,0,poule,417,33,4,5,Français,m,10,1.0,94.40341255,0.46179151
5d726b8a0c3f0f0017cdfcf7,43,0,2024-02-27T11:24:43.680Z,french_732.wav,0,poule,417,33,4,5,Français,m,11,1.1,59.9673363,1.87303499
5d726b8a0c3f0f0017cdfcf7,43,0,2024-02-27T11:24:43.680Z,french_732.wav,0,poule,417,33,4,5,Français,m,12,1.14141667,82.14207773,0.75452983
5d726b8a0c3f0f0017cdfcf7,44,0,2024-02-27T11:24:43.680Z,french_358.wav,0,pull,825,33,4,5,Français,m,0,0.0,34.29012756,1.73708892
5d726b8a0c3f0f0017cdfcf7,44,0,2024-02-27T11:24:43.680Z,french_358.wav,0,pull,825,33,4,5,Français,m,1,0.1,-35.48435174,1.26172634
5d726b8a0c3f0f0017cdfcf7,44,0,2024-02-27T11:24:43.680Z,french_358.wav,0,pull,825,33,4,5,Français,m,2,0.2,-50.59229414,1.08413964
5d726b8a0c3f0f0017cdfcf7,44,0,2024-02-27T11:24:43.680Z,french_358.wav,0,pull,825,33,4,5,Français,m,3,0.3,39.90001516,0.15090374
5d726b8a0c3f0f0017cdfcf7,44,0,2024-02-27T11:24:43.680Z,french_358.wav,0,pull,825,33,4,5,Français,m,4,0.4,88.92181701,1.16341938
5d726b8a0c3f0f0017cdfcf7,44,0,2024-02-27T11:24:43.680Z,french_358.wav,0,pull,825,33,4,5,Français,m,5,0.5,-72.87547056,0.75677187
5d726b8a0c3f0f0017cdfcf7,44,0,2024-02-27T11:24:43.680Z,french_358.wav,0,pull,825,33,4,5,Français,m,6,0.6,-42.92546752,1.3104823
5d726b8a0c3f0f0017cdfcf7,44,0,2024-02-27T11:24:43.680Z,french_358.wav,0,pull,825,33,4,5,Français,m,7,0.7,-26.49502583,0.21102579
5d726b8a0c3f0f0017cdfcf7,44,0,2024-02-27T11:24:43.680Z,french_358.wav,0,pull,825,33,4,5,Français,m,8,0.8,-61.94486174,0.35280682
5d726b8a0c3f0f0017cdfcf7,44,0,2024-02-27T11:24:43.680Z,french_358.wav,0,pull,825,33,4,5,Français,m,9,0.9,-97.88892453,0.79925635
5d726b8a0c3f0f0017cdfcf7,44,0,2024-02-27T11:24:43.680Z,french_358.wav,0,pull,825,33,4,5,Français,m,10,1.0,9.51760158,0.71049545
5d726b8a0c3f0f0017cdfcf7,44,0,2024-02-27T11:24:43.680Z,french_358.wav,0,pull,825,33,4,5,Français,m,11,1.1,56.53420341,0.08224149
5d726b8a0c3f0f0017cdfcf7,44,0,2024-02-27T11:24:43.680Z,french_358.wav,0,pull,825,33,4,5,Français,m,12,1.14141667,-75.83910057,1.68511416
5d726b8a0c3f0f0017cdfcf7,45,0,2024-02-27T11:24:43.680Z,french_17.wav,0,poule,370,33,4,5,Français,m,0,0.0,-71.55402429,0.5785157
5d726b8a0c3f0f0017cdfcf7,45,0,2024-02-27T11:24:43.680Z,french_17.wav,0,poule,370,33,4,5,Français,m,1,0.1,56.29343934,1.90036265
5d726b8a0c3f0f0017cdfcf7,45,0,2024-02-27T11:24:43.680Z,french_17.wav,0,poule,370,33,4,5,Français,m,2,0.2,20.79261224,1.44471121
5d726b8a0c3f0f0017cdfcf7,45,0,2024-02-27T11:24:43.680Z,french_17.wav,0,poule,370,33,4,5,Français,m,3,0.3,-90.11025679,1.565227
5d726b8a0c3f0f0017cdfcf7,45,0,2024-02-27T11:24:43.680Z,french_17.wav,0,poule,370,33,4,5,Français,m,4,0.4,6.70427818,0.33054676
5d726b8a0c3f0f0017cdfcf7,45,0,2024-02-27T11:24:43.680Z,french_17.wav,0,poule,370,33,4,5,Français,m,5,0.5,6.61311772,1.03998894
5d726b8a0c3f0f0017cdfcf7,45,0,2024-02-27T11:24:43.680Z,french_17.wav,0,poule,370,33,4,5,Français,m,6,0.6,12.56869907,1.28428477
5d726b8a0c3f0f0017cdfcf7,45,0,2024-02-27T11:24:43.680Z,french_17.wav,0,poule,370,33,4,5,Français,m,7,0.7,12.55137567,1.1424972
5d726b8a0c3f0f0017cdfcf7,45,0,2024-02-27T11:24:43.680Z,french_17.wav,0,poule,370,33,4,5,Français,m,8,0.8,-95.46150143,0.50274776
5d726b8a0c3f0f0017cdfcf7,45,0,2024-02-27T11:24:43.680Z,french_17.wav,0,poule,370,33,4,5,Français,m,9,0.9,49.81790086,1.25594358
5d726b8a0c3f0f0017cdfcf7,45,0,2024-02-27T11:24:43.680Z,french_17.wav,0,poule,370,33,4,5,Français,m,10,1.0,16.6905365,1.98482543
5d726b8a0c3f0f0017cdfcf7,45,0,2024-02-27T11:24:43.680Z,french_17.wav,0,poule,370,33,4,5,Français,m,11,1.1,-37.04715418,0.15414972
5d726b8a0c3f0f0017cdfcf7,45,0,2024-02-27T11:24:43.680Z,french_17.wav,0,poule,370,33,4,5,Français,m,12,1.14141667,50.55014442,1.03942219
5d726b8a0c3f0f0017cdfcf7,46,0,2024-02-27T11:24:43.680Z,french_572.wav,0,poule,314,33,4,5,Français,m,0,0.0,80.73678316,1.6999436
5d726b8a0c3f0f0017cdfcf7,46,0,2024-02-27T11:24:43.680Z,french_572.wav,0,poule,314,33,4,5,Français,m,1,0.1,-23.27448365,0.98259769
5d726b8a0c3f0f0017cdfcf7,46,0,2024-02-27T11:24:43.680Z,french_572.wav,0,poule,314,33,4,5,Français,m,2,0.2,-6.4033247,0.22058864
5d726b8a0c3f0f0017cdfcf7,46,0,2024-02-27T11:24:43.680Z,french_572.wav,0,poule,314,33,4,5,Français,m,3,0.3,-21.51480068,1.57552372
5d726b8a0c3f0f0017cdfcf7,46,0,2024-02-27T11:24:43.680Z,french_572.wav,0,poule,314,33,4,5,Français,m,4,0.4,-23.17709403,1.16662567
5d726b8a0c3f0f0017cdfcf7,46,0,2024-02-27T11:24:43.680Z,french_572.wav,0,poule,314,33,4,5,Français,m,5,0.5,-16.39338242,0.33871722
5d726b8a0c3f0f0017cdfcf7,46,0,2024-02-27T11:24:43.680Z,french_572.wav,0,poule,314,33,4,5,Français,m,6,0.6,-25.06757564,1.16530793
5d726b8a0c3f0f0017cdfcf7,46,0,2024-02-27T11:24:43.680Z,french_572.wav,0,poule,314,33,4,5,Français,m,7,0.7,-29.26685238,0.52650663
5d726b8a0c3f0f0017cdfcf7,46,0,2024-02-27T11:24:43.680Z,french_572.wav,0,poule,314,33,4,5,Français,m,8,0.8,-87.48148555,0.8714082
5d726b8a0c3f0f0017cdfcf7,46,0,2024-02-27T11:24:43.680Z,french_572.wav,0,poule,314,33,4,5,Français,m,9,0.9,-64.25549842,1.09019316
5d726b8a0c3f0f0017cdfcf7,46,0,2024-02-27T11:24:43.680Z,french_572.wav,0,poule,314,33,4,5,Français,m,10,1.0,40.51352953,0.83858713
5d726b8a0c3f0f0017cdfcf7,46,0,2024-02-27T11:24:43.680Z,french_572.wav,0,poule,314,33,4,5,Français,m,11,1.1,45.12554912,1.2000092
5d726b8a0c3f0f0017cdfcf7,46,0,2024-02-27T11:24:43.680Z,french_572.wav,0,poule,314,33,4,5,Français,m,12,1.14141667,-31.72850353,1.29324569
5d726b8a0c3f0f0017cdfcf7,47,0,2024-02-27T11:24:43.680Z,french_58.wav,0,pull,1269,33,4,5,Français,m,0,0.0,94.28482513,1.90438259
5d726b8a0c3f0f0017cdfcf7,47,0,2024-02-27T11:24:43.680Z,french_58.wav,0,pull,1269,33,4,5,Français,m,1,0.1,-8.41544404,0.61487331
5d726b8a0c3f0f0017cdfcf7,47,0,2024-02-27T11:24:43.680Z,french_58.wav,0,pull,1269,33,4,5,Français,m,2,0.2,-62.96182624,1.646554
5d726b8a0c3f0f0017cdfcf7,47,0,2024-02-27T11:24:43.680Z,french_58.wav,0,pull,1269,33,4,5,Français,m,3,0.3,60.34405866,1.52491918
5d726b8a0c3f0f0017cdfcf7,47,0,2024-02-27T11:24:43.680Z,french_58.wav,0,pull,1269,33,4,5,Français,m,4,0.4,32.40128414,1.13010084
5d726b8a0c3f0f0017cdfcf7,47,0,2024-02-27T11:24:43.680Z,french_58.wav,0,pull,1269,33,4,5,Français,m,5,0.5,-68.51454301,1.89433528
5d726b8a0c3f0f0017cdfcf7,47,0,2024-02-27T11:24:43.680Z,french_58.wav,0,pull,1269,33,4,5,Français,m,6,0.6,29.82130445,0.760668
5d726b8a0c3f0f0017cdfcf7,47,0,2024-02-27T11:24:43.680Z,french_58.wav,0,pull,1269,33,4,5,Français,m,7,0.7,-4.63475932,0.49529271
5d726b8a0c3f0f0017cdfcf7,47,0,2024-02-27T11:24:43.680Z,french_58.wav,0,pull,1269,33,4,5,Français,m,8,0.8,-63.03753655,0.89196999
5d726b8a0c3f0f0017cdfcf7,47,0,2024-02-27T11:24:43.680Z,french_58.wav,0,pull,1269,33,4,5,Français,m,9,0.9,88.63401009,0.8973393
5d726b8a0c3f0f0017cdfcf7,47,0,2024-02-27T11:24:43.680Z,french_58.wav,0,pull,1269,33,4,5,Français,m,10,1.0,21.784489,0.72401301
5d726b8a0c3f0f0017cdfcf7,47,0,2024-02-27T11:24:43.680Z,french_58.wav,0,pull,1269,33,4,5,Français,m,11,1.1,78.48150349,0.46484617
5d726b8a0c3f0f0017cdfcf7,47,0,2024-02-27T11:24:43.680Z,french_58.wav,0,pull,1269,33,4,5,Français,m,12,1.14141667,-36.70796852,1.22177947
5d726b8a0c3f0f0017cdfcf7,48,0,2024-02-27T11:24:43.680Z,french_668.wav,0,poule,399,33,4,5,Français,m,0,0.0,29.27228259,0.3188214
5d726b8a0c3f0f0017cdfcf7,48,0,2024-02-27T11:24:43.680Z,french_668.wav,0,poule,399,33,4,5,Français,m,1,0.1,44.61886338,0.83567332
5d726b8a0c3f0f0017cdfcf7,48,0,2024-02-27T11:24:43.680Z,french_668.wav,0,poule,399,33,4,5,Français,m,2,0.2,-99.37151223,1.37479397
5d726b8a0c3f0f0017cdfcf7,48,0,2024-02-27T11:24:43.680Z,french_668.wav,0,poule,399,33,4,5,Français,m,3,0.3,-43.50012214,1.52422833
5d726b8a0c3f0f0017cdfcf7,48,0,2024-02-27T11:24:43.680Z,french_668.wav,0,poule,399,33,4,5,Français,m,4,0.4,-59.48264573,1.47592496
5d726b8a0c3f0f0017cdfcf7,48,0,2024-02-27T11:24:43.680Z,french_668.wav,0,poule,399,33,4,5,Français,m,5,0.5,-9.75520018,0.98185706
5d726b8a0c3f0f0017cdfcf7,48,0,2024-02-27T11:24:43.680Z,french_668.wav,0,poule,399,33,4,5,Français,m,6,0.6,-11.86740044,0.8144327
5d726b8a0c3f0f0017cdfcf7,48,0,2024-02-27T11:24:43.680Z,french_668.wav,0,poule,399,33,4,5,Français,m,7,0.7,74.75745741,0.15769834
5d726b8a0c3f0f0017cdfcf7,48,0,2024-02-27T11:24:43.680Z,french_668.wav,0,poule,399,33,4,5,Français,m,8,0.8,57.50233643,0.61225333
5d726b8a0c3f0f0017cdfcf7,48,0,2024-02-27T11:24:43.680Z,french_668.wav,0,poule,399,33,4,5,Français,m,9,0.9,-23.1818058,0.30532124
5d726b8a0c3f0f0017cdfcf7,48,0,2024-02-27T11:24:43.680Z,french_668.wav,0,poule,399,33,4,5,Français,m,10,1.0,30.6351759,0.84973926
5d726b8a0c3f0f0017cdfcf7,48,0,2024-02-27T11:24:43.680Z,french_668.wav,0,poule,399,33,4,5,Français,m,11,1.1,-64.15483503,1.73680039
5d726b8a0c3f0f0017cdfcf7,48,0,2024-02-27T11:24:43.680Z,french_668.wav,0,poule,399,33,4,5,Français,m,12,1.14141667,-17.76472581,1.07000134
5d726b8a0c3f0f0017cdfcf7,49,0,2024-02-27T11:24:43.680Z,french_331.wav,0,poule,723,33,4,5,Français,m,0,0.0,-5.76763244,0.44927082
5d726b8a0c3f0f0017cdfcf7,49,0,2024-02-27T11:24:43.680Z,french_331.wav,0,poule,723,33,4,5,Français,m,1,0.1,-52.64550288,0.18129642
5d726b8a0c3f0f0017cdfcf7,49,0,2024-02-27T11:24:43.680Z,french_331.wav,0,poule,723,33,4,5,Français,m,2,0.2,33.91369618,1.34006101
5d726b8a0c3f0f0017cdfcf7,49,0,2024-02-27T11:24:43.680Z,french_331.wav,0,poule,723,33,4,5,Français,m,3,0.3,2.76494439,1.82406292
5d726b8a0c3f0f0017cdfcf7,49,0,2024-02-27T11:24:43.680Z,french_331.wav,0,poule,723,33,4,5,Français,m,4,0.4,28.25566851,0.80324024
5d726b8a0c3f0f0017cdfcf7,49,0,2024-02-27T11:24:43.680Z,french_331.wav,0,poule,723,33,4,5,Français,m,5,0.5,-26.62339469,0.48532471
5d726b8a0c3f0f0017cdfcf7,49,0,2024-02-27T11:24:43.680Z,french_331.wav,0,poule,723,33,4,5,Français,m,6,0.6,-38.99536657,0.16806237
5d726b8a0c3f0f0017cdfcf7,49,0,2024-02-27T11:24:43.680Z,french_331.wav,0,poule,723,33,4,5,Français,m,7,0.7,-41.39460314,1.79111184
5d726b8a0c3f0f0017cdfcf7,49,0,2024-02-27T11:24:43.680Z,french_331.wav,0,poule,723,33,4,5,Français,m,8,0.8,-52.63700737,0.66376549
5d726b8a0c3f0f0017cdfcf7,49,0,2024-02-27T11:24:43.680Z,french_331.wav,0,poule,723,33,4,5,Français,m,9,0.9,-41.88182254,0.25387795
5d726b8a0c3f0f0017cdfcf7,49,0,2024-02-27T11:24:43.680Z,french_331.wav,0,poule,723,33,4,5,Français,m,10,1.0,28.65752822,0.21815643
5d726b8a0c3f0f0017cdfcf7,49,0,2024-02-27T11:24:43.680Z,french_331.wav,0,poule,723,33,4,5,Français,m,11,1.1,11.07498327,1.03351958
5d726b8a0c3f0f0017cdfcf7,49,0,2024-02-27T11:24:43.680Z,french_331.wav,0,poule,723,33,4,5,Français,m,12,1.14141667,-55.36680151,0.55793758
5d726b8a0c3f0f0017cdfcf7,50,1,2024-02-27T11:24:43.680Z,french_526.wav,0,poule,291,33,4,5,Français,m,0,0.0,-3.34213948,0.40974575
5d726b8a0c3f0f0017cdfcf7,50,1,2024-02-27T11:24:43.680Z,french_526.wav,0,poule,291,33,4,5,Français,m,1,0.1,-38.63024981,0.80270001
5d726b8a0c3f0f0017cdfcf7,50,1,2024-02-27T11:24:43.680Z,french_526.wav,0,poule,291,33,4,5,Français,m,2,0.2,93.21737658,0.74121325
5d726b8a0c3f0f0017cdfcf7,50,1,2024-02-27T11:24:43.680Z,french_526.wav,0,poule,291,33,4,5,Français,m,3,0.3,-71.56714532,1.50939527
5d726b8a0c3f0f0017cdfcf7,50,1,2024-02-27T11:24:43.680Z,french_526.wav,0,poule,291,33,4,5,Français,m,4,0.4,55.55298997,0.92463097
5d726b8a0c3f0f0017cdfcf7,50,1,2024-02-27T11:24:43.680Z,french_526.wav,0,poule,291,33,4,5,Français,m,5,0.5,-90.65516394,1.64741989
5d726b8a0c3f0f0017cdfcf7,50,1,2024-02-27T11:24:43.680Z,french_526.wav,0,poule,291,33,4,5,Français,m,6,0.6,67.30065147,0.25308429
5d726b8a0c3f0f0017cdfcf7,50,1,2024-02-27T11:24:43.680Z,french_526.wav,0,poule,291,33,4,5,Français,m,7,0.7,-92.19460914,0.31675775
5d726b8a0c3f0f0017cdfcf7,50,1,2024-02-27T11:24:43.680Z,french_526.wav,0,poule,291,33,4,5,Français,m,8,0.8,-61.42846186,1.60624507
5d726b8a0c3f0f0017cdfcf7,50,1,2024-02-27T11:24:43.680Z,french_526.wav,0,poule,291,33,4,5,Français,m,9,0.9,-71.57092401,1.37847828
5d726b8a0c3f0f0017cdfcf7,50,1,2024-02-27T11:24:43.680Z,french_526.wav,0,poule,291,33,4,5,Français,m,10,1.0,-1.13377121,1.26755978
5d726b8a0c3f0f0017cdfcf7,50,1,2024-02-27T11:24:43.680Z,french_526.wav,0,poule,291,33,4,5,Français,m,11,1.1,79.13585044,1.65811532
5d726b8a0c3f0f0017cdfcf7,50,1,2024-02-27T11:24:43.680Z,french_526.wav,0,poule,291,33,4,5,Français,m,12,1.14141667,-60.54584427,1.5361609
5d726b8a0c3f0f0017cdfcf7,51,1,2024-02-27T11:24:43.680Z,french_292.wav,0,pull,1080,33,4,5,Français,m,0,0.0,-65.21663055,1.02426511
5d726b8a0c3f0f0017cdfcf7,51,1,2024-02-27T11:24:43.680Z,french_292.wav,0,pull,1080,33,4,5,Français,m,1,0.1,34.24982767,1.12889875
5d726b8a0c3f0f0017cdfcf7,51,1,2024-02-27T11:24:43.680Z,french_292.wav,0,pull,1080,33,4,5,Français,m,2,0.2,-92.63295305,1.50148233
5d726b8a0c3f0f0017cdfcf7,51,1,2024-02-27T11:24:43.680Z,french_292.wav,0,pull,1080,33,4,5,Français,m,3,0.3,-77.59900382,1.82420462
5d726b8a0c3f0f0017cdfcf7,51,1,2024-02-27T11:24:43.680Z,french_292.wav,0,pull,1080,33,4,5,Français,m,4,0.4,14.83333959,1.7438412
5d726b8a0c3f0f0017cdfcf7,51,1,2024-02-27T11:24:43.680Z,french_292.wav,0,pull,1080,33,4,5,Français,m,5,0.5,11.34419051,0.42400938
5d726b8a0c3f0f0017cdfcf7,51,1,2024-02-27T11:24:43.680Z,french_292.wav,0,pull,1080,33,4,5,Français,m,6,0.6,5.22580578,0.47297633
5d726b8a0c3f0f0017cdfcf7,51,1,2024-02-27T11:24:43.680Z,french_292.wav,0,pull,1080,33,4,5,Français,m,7,0.7,9.90915295,0.69162899
5d726b8a0c3f0f0017cdfcf7,51,1,2024-02-27T11:24:43.680Z,french_292.wav,0,pull,1080,33,4,5,Français,m,8,0.8,98.66536814,0.37166542
5d726b8a0c3f0f0017cdfcf7,51,1,2024-02-27T11:24:43.680Z,french_292.wav,0,pull,1080,33,4,5,Français,m,9,0.9,-61.20859902,0.73651314
5d726b8a0c3f0f0017cdfcf7,51,1,2024-02-27T11:24:43.680Z,french_292.wav,0,pull,1080,33,4,5,Français,m,10,1.0,-91.20285571,1.19119341
5d726b8a0c3f0f0017cdfcf7,51,1,2024-02-27T11:24:43.680Z,french_292.wav,0,pull,1080,33,4,5,Français,m,11,1.1,77.92662302,0.13786686
5d726b8a0c3f0f0017cdfcf7,51,1,2024-02-27T11:24:43.680Z,french_292.wav,0,pull,1080,33,4,5,Français,m,12,1.14141667,-48.25371816,1.01945383
5d726b8a0c3f0f0017cdfcf7,52,1,2024-02-27T11:24:43.680Z,french_947.wav,0,poule,285,33,4,5,Français,m,0,0.0,74.11181953,0.64731536
5d726b8a0c3f0f0017cdfcf7,52,1,2024-02-27T11:24:43.680Z,french_947.wav,0,poule,285,33,4,5,Français,m,1,0.1,77.13369973,1.23227619
5d726b8a0c3f0f0017cdfcf7,52,1,2024-02-27T11:24:43.680Z,french_947.wav,0,poule,285,33,4,5,Français,m,2,0.2,88.17713228,1.55440327
5d726b8a0c3f0f0017cdfcf7,52,1,2024-02-27T11:24:43.680Z,french_947.wav,0,poule,285,33,4,5,Français,m,3,0.3,-23.55252616,1.09655338
5d726b8a0c3f0f0017cdfcf7,52,1,2024-02-27T11:24:43.680Z,french_947.wav,0,poule,285,33,4,5,Français,m,4,0.4,29.65801923,0.55037335
5d726b8a0c3f0f0017cdfcf7,52,1,2024-02-27T11:24:43.680Z,french_947.wav,0,poule,285,33,4,5,Français,m,5,0.5,-69.01848253,1.05019014
5d726b8a0c3f0f0017cdfcf7,52,1,2024-02-27T11:24:43.680Z,french_947.wav,0,poule,285,33,4,5,Français,m,6,0.6,-28.7020507,1.09970152
5d726b8a0c3f0f0017cdfcf7,52,1,2024-02-27T11:24:43.680Z,french_947.wav,0,poule,285,33,4,5,Français,m,7,0.7,-92.17619984,0.0368249
5d726b8a0c3f0f0017cdfcf7,52,1,2024-02-27T11:24:43.680Z,french_947.wav,0,poule,285,33,4,5,Français,m,8,0.8,-36.30210181,1.66906697
5d726b8a0c3f0f0017cdfcf7,52,1,2024-02-27T11:24:43.680Z,french_947.wav,0,poule,285,33,4,5,Français,m,9,0.9,21.44134056,1.08042493
5d726b8a0c3f0f0017cdfcf7,52,1,2024-02-27T11:24:43.680Z,french_947.wav,0,poule,285,33,4,5,Français,m,10,1.0,-89.45827175,1.58321133
5d726b8a0c3f0f0017cdfcf7,52,1,2024-02-27T11:24:43.680Z,french_947.wav,0,poule,285,33,4,5,Français,m,11,1.1,-96.98494763,0.55777652
5d726b8a0c3f0f0017cdfcf7,52,1,2024-02-27T11:24:43.680Z,french_947.wav,0,poule,285,33,4,5,Français,m,12,1.14141667,-8.8786906,0.9557999
5d726b8a0c3f0f0017cdfcf7,53,1,2024-02-27T11:24:43.680Z,french_717.wav,0,poule,341,33,4,5,Français,m,0,0.0,88.73376651,1.29630211
5d726b8a0c3f0f0017cdfcf7,53,1,2024-02-27T11:24:43.680Z,french_717.wav,0,poule,341,33,4,5,Français,m,1,0.1,-23.7422393,1.17583122
5d726b8a0c3f0f0017cdfcf7,53,1,2024-02-27T11:24:43.680Z,french_717.wav,0,poule,341,33,4,5,Français,m,2,0.2,22.24358049,1.44825889
5d726b8a0c3f0f0017cdfcf7,53,1,2024-02-27T11:24:43.680Z,french_717.wav,0,poule,341,33,4,5,Français,m,3,0.3,26.02776154,1.42597369
5d726b8a0c3f0f0017cdfcf7,53,1,2024-02-27T11:24:43.680Z,french_717.wav,0,poule,341,33,4,5,Français,m,4,0.4,50.50523033,1.28997601
5d726b8a0c3f0f0017cdfcf7,53,1,2024-02-27T11:24:43.680Z,french_717.wav,0,poule,341,33,4,5,Français,m,5,0.5,45.16605907,0.7579775
5d726b8a0c3f0f0017cdfcf7,53,1,2024-02-27T11:24:43.680Z,french_717.wav,0,poule,341,33,4,5,Français,m,6,0.6,-17.9098931,0.85921403
5d726b8a0c3f0f0017cdfcf7,53,1,2024-02-27T11:24:43.680Z,french_717.wav,0,poule,341,33,4,5,Français,m,7,0.7,27.24171503,0.93590594
5d726b8a0c3f0f0017cdfcf7,53,1,2024-02-27T11:24:43.680Z,french_717.wav,0,poule,341,33,4,5,Français,m,8,0.8,39.79598032,1.9839492
5d726b8a0c3f0f0017cdfcf7,53,1,2024-02-27T11:24:43.680Z,french_717.wav,0,poule,341,33,4,5,Français,m,9,0.9,78.66410709,1.89122416
5d726b8a0c3f0f0017cdfcf7,53,1,2024-02-27T11:24:43.680Z,french_717.wav,0,poule,341,33,4,5,Français,m,10,1.0,-6.40706689,0.26643504
5d726b8a0c3f0f0017cdfcf7,53,1,2024-02-27T11:24:43.680Z,french_717.wav,0,poule,341,33,4,5,Français,m,11,1.1,-55.33048838,1.55483627
5d726b8a0c3f0f0017cdfcf7,53,1,2024-02-27T11:24:43.680Z,french_717.wav,0,poule,341,33,4,5,Français,m,12,1.14141667,93.60559785,1.84443801
5d726b8a0c3f0f0017cdfcf7,54,1,2024-02-27T11:24:43.680Z,french_872.wav,0,poule,631,33,4,5,Français,m,0,0.0,2.19876004,0.46410816
5d726b8a0c3f0f0017cdfcf7,54,1,2024-02-27T11:24:43.680Z,french_872.wav,0,poule,631,33,4,5,Français,m,1,0.1,-16.2984572,0.5045086
5d726b8a0c3f0f0017cdfcf7,54,1,2024-02-27T11:24:43.680Z,french_872.wav,0,poule,631,33,4,5,Français,m,2,0.2,44.28395799,0.19071962
5d726b8a0c3f0f0017cdfcf7,54,1,2024-02-27T11:24:43.680Z,french_872.wav,0,poule,631,33,4,5,Français,m,3,0.3,68.79186239,0.93182485
5d726b8a0c3f0f0017cdfcf7,54,1,2024-02-27T11:24:43.680Z,french_872.wav,0,poule,631,33,4,5,Français,m,4,0.4,23.95752233,1.89135345
5d726b8a0c3f0f0017cdfcf7,54,1,2024-02-27T11:24:43.680Z,french_872.wav,0,poule,631,33,4,5,Français,m,5,0.5,-82.67226961,0.19504501
5d726b8a0c3f0f0017cdfcf7,54,1,2024-02-27T11:24:43.680Z,french_872.wav,0,poule,631,33,4,5,Français,m,6,0.6,-19.37076915,0.68749833
5d726b8a0c3f0f0017cdfcf7,54,1,2024-02-27T11:24:43.680Z,french_872.wav,0,poule,631,33,4,5,Français,m,7,0.7,-45.1199493,1.72623495
5d726b8a0c3f0f0017cdfcf7,54,1,2024-02-27T11:24:43.680Z,french_872.wav,0,poule,631,33,4,5,Français,m,8,0.8,44.55633457,0.60263364
5d726b8a0c3f0f0017cdfcf7,54,1,2024-02-27T11:24:43.680Z,french_872.wav,0,poule,631,33,4,5,Français,m,9,0.9,-98.88107629,1.41115138
5d726b8a0c3f0f0017cdfcf7,54,1,2024-02-27T11:24:43.680Z,french_872.wav,0,poule,631,33,4,5,Français,m,10,1.0,-37.42508294,0.80513214
5d726b8a0c3f0f0017cdfcf7,54,1,2024-02-27T11:24:43.680Z,french_872.wav,0,poule,631,33,4,5,Français,m,11,1.1,-90.62049671,0.91253729
5d726b8a0c3f0f0017cdfcf7,54,1,2024-02-27T11:24:43.680Z,french_872.wav,0,poule,631,33,4,5,Français,m,12,1.14141667,-57.38745573,1.53911211
5d726b8a0c3f0f0017cdfcf7,55,1,2024-02-27T11:24:43.680Z,french_98.wav,0,poule,260,33,4,5,Français,m,0,0.0,27.92501493,1.51631653
5d726b8a0c3f0f0017cdfcf7,55,1,2024-02-27T11:24:43.680Z,french_98.wav,0,poule,260,33,4,5,Français,m,1,0.1,59.24114929,0.28885009
5d726b8a0c3f0f0017cdfcf7,55,1,2024-02-27T11:24:43.680Z,french_98.wav,0,poule,260,33,4,5,Français,m,2,0.2,-68.02156992,0.05176143
5d726b8a0c3f0f0017cdfcf7,55,1,2024-02-27T11:24:43.680Z,french_98.wav,0,poule,260,33,4,5,Français,m,3,0.3,5.60235983,1.90669743
5d726b8a0c3f0f0017cdfcf7,55,1,2024-02-27T11:24:43.680Z,french_98.wav,0,poule,260,33,4,5,Français,m,4,0.4,2.69393326,1.86364642
5d726b8a0c3f0f0017cdfcf7,55,1,2024-02-27T11:24:43.680Z,french_98.wav,0,poule,260,33,4,5,Français,m,5,0.5,90.0176611,0.90725653
5d726b8a0c3f0f0017cdfcf7,55,1,2024-02-27T11:24:43.680Z,french_98.wav,0,poule,260,33,4,5,Français,m,6,0.6,41.09060442,0.95347669
5d726b8a0c3f0f0017cdfcf7,55,1,2024-02-27T11:24:43.680Z,french_98.wav,0,poule,260,33,4,5,Français,m,7,0.7,62.7475479,0.30246882
5d726b8a0c3f0f0017cdfcf7,55,1,2024-02-27T11:24:43.680Z,french_98.wav,0,poule,260,33,4,5,Français,m,8,0.8,66.62159186,0.88737081
5d726b8a0c3f0f0017cdfcf7,55,1,2024-02-27T11:24:43.680Z,french_98.wav,0,poule,260,33,4,5,Français,m,9,0.9,14.67969687,1.21320472
5d726b8a0c3f0f0017cdfcf7,55,1,2024-02-27T11:24:43.680Z,french_98.wav,0,poule,260,33,4,5,Français,m,10,1.0,69.55311158,1.54236415
5d726b8a0c3f0f0017cdfcf7,55,1,2024-02-27T11:24:43.680Z,french_98.wav,0,poule,260,33,4,5,Français,m,11,1.1,90.37756358,0.74421088
5d726b8a0c3f0f0017cdfcf7,55,1,2024-02-27T11:24:43.680Z,french_98.wav,0,poule,260,33,4,5,Français,m,12,1.14141667,17.28405695,1.15025617
5d726b8a0c3f0f0017cdfcf7,56,1,2024-02-27T11:24:43.680Z,french_220.wav,0,poule,541,33,4,5,Français,m,0,0.0,-47.86203104,0.17649175
5d726b8a0c3f0f0017cdfcf7,56,1,2024-02-27T11:24:43.680Z,french_220.wav,0,poule,541,33,4,5,Français,m,1,0.1,-2.12019525,0.55844568
5d726b8a0c3f0f0017cdfcf7,56,1,2024-02-27T11:24:43.680Z,french_220.wav,0,poule,541,33,4,5,Français,m,2,0.2,11.33443683,0.51968643
5d726b8a0c3f0f0017cdfcf7,56,1,2024-02-27T11:24:43.680Z,french_220.wav,0,poule,541,33,4,5,Français,m,3,0.3,26.73426002,0.91323903
5d726b8a0c3f0f0017cdfcf7,56,1,2024-02-27T11:24:43.680Z,french_220.wav,0,poule,541,33,4,5,Français,m,4,0.4,-20.00864526,1.83941424
5d726b8a0c3f0f0017cdfcf7,56,1,2024-02-27T11:24:43.680Z,french_220.wav,0,poule,541,33,4,5,Français,m,5,0.5,66.4142843,1.66792491
5d726b8a0c3f0f0017cdfcf7,56,1,2024-02-27T11:24:43.680Z,french_220.wav,0,poule,541,33,4,5,Français,m,6,0.6,-25.00808868,1.72207121
5d726b8a0c3f0f0017cdfcf7,56,1,2024-02-27T11:24:43.680Z,french_220.wav,0,poule,541,33,4,5,Français,m,7,0.7,-40.0848978,0.69900455
5d726b8a0c3f0f0017cdfcf7,56,1,2024-02-27T11:24:43.680Z,french_220.wav,0,poule,541,33,4,5,Français,m,8,0.8,72.97244598,1.89129623
5d726b8a0c3f0f0017cdfcf7,56,1,2024-02-27T11:24:43.680Z,french_220.wav,0,poule,541,33,4,5,Français,m,9,0.9,77.81836091,1.89462756
5d726b8a0c3f0f0017cdfcf7,56,1,2024-02-27T11:24:43.680Z,french_220.wav,0,poule,541,33,4,5,Français,m,10,1.0,14.03709177,1.13767499
5d726b8a0c3f0f0017cdfcf7,56,1,2024-02-27T11:24:43.680Z,french_220.wav,0,poule,541,33,4,5,Français,m,11,1.1,33.22448401,0.48678829
5d726b8a0c3f0f0017cdfcf7,56,1,2024-02-27T11:24:43.680Z,french_220.wav,0,poule,541,33,4,5,Français,m,12,1.14141667,8.56507439,1.85900383
5d726b8a0c3f0f0017cdfcf7,57,1,2024-02-27T11:24:43.680Z,french_588.wav,0,poule,282,33,4,5,Français,m,0,0.0,80.11124336,0.91903139
5d726b8a0c3f0f0017cdfcf7,57,1,2024-02-27T11:24:43.680Z,french_588.wav,0,poule,282,33,4,5,Français,m,1,0.1,-9.60415228,1.75302379
5d726b8a0c3f0f0017cdfcf7,57,1,2024-02-27T11:24:43.680Z,french_588.wav,0,poule,282,33,4,5,Français,m,2,0.2,-98.33491382,1.95019279
5d726b8a0c3f0f0017cdfcf7,57,1,2024-02-27T11:24:43.680Z,french_588.wav,0,poule,282,33,4,5,Français,m,3,0.3,-16.26514488,0.86486634
5d726b8a0c3f0f0017cdfcf7,57,1,2024-02-27T11:24:43.680Z,french_588.wav,0,poule,282,33,4,5,Français,m,4,0.4,-90.16609663,0.04555032
5d726b8a0c3f0f0017cdfcf7,57,1,2024-02-27T11:24:43.680Z,french_588.wav,0,poule,282,33,4,5,Français,m,5,0.5,-6.08584828,0.65069663
5d726b8a0c3f0f0017cdfcf7,57,1,2024-02-27T11:24:43.680Z,french_588.wav,0,poule,282,33,4,5,Français,m,6,0.6,-25.80594889,0.87516436
5d726b8a0c3f0f0017cdfcf7,57,1,2024-02-27T11:24:43.680Z,french_588.wav,0,poule,282,33,4,5,Français,m,7,0.7,-25.08652089,0.98178697
5d726b8a0c3f0f0017cdfcf7,57,1,2024-02-27T11:24:43.680Z,french_588.wav,0,poule,282,33,4,5,Français,m,8,0.8,-98.80611815,1.45894707
5d726b8a0c3f0f0017cdfcf7,57,1,2024-02-27T11:24:43.680Z,french_588.wav,0,poule,282,33,4,5,Français,m,9,0.9,17.08532713,1.15328594
5d726b8a0c3f0f0017cdfcf7,57,1,2024-02-27T11:24:43.680Z,french_588.wav,0,poule,282,33,4,5,Français,m,10,1.0,0.80863561,0.14560994
5d726b8a0c3f0f0017cdfcf7,57,1,2024-02-27T11:24:43.680Z,french_588.wav,0,poule,282,33,4,5,Français,m,11,1.1,-86.5783891,1.58594883
5d726b8a0c3f0f0017cdfcf7,57,1,2024-02-27T11:24:43.680Z,french_588.wav,0,poule,282,33,4,5,Français,m,12,1.14141667,-56.09457121,1.71291016
5d726b8a0c3f0f0017cdfcf7,58,1,2024-02-27T11:24:43.680Z,french_176.wav,0,poule,301,33,4,5,Français,m,0,0.0,17.42683987,0.67887999
5d726b8a0c3f0f0017cdfcf7,58,1,2024-02-27T11:24:43.680Z,french_176.wav,0,poule,301,33,4,5,Français,m,1,0.1,-69.24605077,1.61684562
5d726b8a0c3f0f0017cdfcf7,58,1,2024-02-27T11:24:43.680Z,french_176.wav,0,poule,301,33,4,5,Français,m,2,0.2,-6.34428043,0.9525789
5d726b8a0c3f0f0017cdfcf7,58,1,2024-02-27T11:24:43.680Z,french_176.wav,0,poule,301,33,4,5,Français,m,3,0.3,75.15972611,1.10949226
5d726b8a0c3f0f0017cdfcf7,58,1,2024-02-27T11:24:43.680Z,french_176.wav,0,poule,301,33,4,5,Français,m,4,0.4,-10.39495746,1.71567696
5d726b8a0c3f0f0017cdfcf7,58,1,2024-02-27T11:24:43.680Z,french_176.wav,0,poule,301,33,4,5,Français,m,5,0.5,13.88146309,1.28276813
5d726b8a0c3f0f0017cdfcf7,58,1,2024-02-27T11:24:43.680Z,french_176.wav,0,poule,301,33,4,5,Français,m,6,0.6,18.31316109,1.19506457
5d726b8a0c3f0f0017cdfcf7,58,1,2024-02-27T11:24:43.680Z,french_176.wav,0,poule,301,33,4,5,Français,m,7,0.7,-69.45072477,1.14753905
5d726b8a0c3f0f0017cdfcf7,58,1,2024-02-27T11:24:43.680Z,french_176.wav,0,poule,301,33,4,5,Français,m,8,0.8,-49.21604106,1.86893975
5d726b8a0c3f0f0017cdfcf7,58,1,2024-02-27T11:24:43.680Z,french_176.wav,0,poule,301,33,4,5,Français,m,9,0.9,-57.97216,0.76398554
5d726b8a0c3f0f0017cdfcf7,58,1,2024-02-27T11:24:43.680Z,french_176.wav,0,poule,301,33,4,5,Français,m,10,1.0,70.54547072,1.21135923
5d726b8a0c3f0f0017cdfcf7,58,1,2024-02-27T11:24:43.680Z,french_176.wav,0,poule,301,33,4,5,Français,m,11,1.1,20.83211188,1.97943211
5d726b8a0c3f0f0017cdfcf7,58,1,2024-02-27T11:24:43.680Z,french_176.wav,0,poule,301,33,4,5,Français,m,12,1.14141667,11.47002735,0.36114949
5d726b8a0c3f0f0017cdfcf7,59,1,2024-02-27T11:24:43.680Z,french_479.wav,0,poule,305,33,4,5,Français,m,0,0.0,-1.20230986,0.20404821
5d726b8a0c3f0f0017cdfcf7,59,1,2024-02-27T11:24:43.680Z,french_479.wav,0,poule,305,33,4,5,Français,m,1,0.1,-97.64332549,1.69681
5d726b8a0c3f0f0017cdfcf7,59,1,2024-02-27T11:24:43.680Z,french_479.wav,0,poule,305,33,4,5,Français,m,2,0.2,-86.19449335,0.56198468
