subj,trial,block,date,stim,stim_order,response,rt,age,english,french,language,sex,param_index,segment,pitch,stretch
6115892e44c1cdef81dc4902,0,0,2024-02-27T11:06:42.275Z,french_384.wav,0,poule,8298,24,4,5,français,f,0,0.0,-26.33962447,0.73205954
6115892e44c1cdef81dc4902,0,0,2024-02-27T11:06:42.275Z,french_384.wav,0,poule,8298,24,4,5,français,f,1,0.1,90.14414926,1.21722748
6115892e44c1cdef81dc4902,0,0,2024-02-27T11:06:42.275Z,french_384.wav,0,poule,8298,24,4,5,français,f,2,0.2,36.49157083,0.48830962
6115892e44c1cdef81dc4902,0,0,2024-02-27T11:06:42.275Z,french_384.wav,0,poule,8298,24,4,5,français,f,3,0.3,0.20485884,0.00253956
6115892e44c1cdef81dc4902,0,0,2024-02-27T11:06:42.275Z,french_384.wav,0,poule,8298,24,4,5,français,f,4,0.4,2.73533424,1.70776767
6115892e44c1cdef81dc4902,0,0,2024-02-27T11:06:42.275Z,french_384.wav,0,poule,8298,24,4,5,français,f,5,0.5,-61.29276224,0.02952435
6115892e44c1cdef81dc4902,0,0,2024-02-27T11:06:42.275Z,french_384.wav,0,poule,8298,24,4,5,français,f,6,0.6,-95.66702586,1.54669239
6115892e44c1cdef81dc4902,0,0,2024-02-27T11:06:42.275Z,french_384.wav,0,poule,8298,24,4,5,français,f,7,0.7,-35.26576559,0.99240925
6115892e44c1cdef81dc4902,0,0,2024-02-27T11:06:42.275Z,french_384.wav,0,poule,8298,24,4,5,français,f,8,0.8,-94.7492639,1.04883532
6115892e44c1cdef81dc4902,0,0,2024-02-27T11:06:42.275Z,french_384.wav,0,poule,8298,24,4,5,français,f,9,0.9,89.80577362,0.00446768
6115892e44c1cdef81dc4902,0,0,2024-02-27T11:06:42.275Z,french_384.wav,0,poule,8298,24,4,5,français,f,10,1.0,-92.63573748,0.13464005
6115892e44c1cdef81dc4902,0,0,2024-02-27T11:06:42.275Z,french_384.wav,0,poule,8298,24,4,5,français,f,11,1.1,74.70238882,0.53686539
6115892e44c1cdef81dc4902,0,0,2024-02-27T11:06:42.275Z,french_384.wav,0,poule,8298,24,4,5,français,f,12,1.14141667,79.78054673,0.78008915
6115892e44c1cdef81dc4902,1,0,2024-02-27T11:06:42.275Z,french_751.wav,0,poule,1714,24,4,5,français,f,0,0.0,-53.65501636,0.39280002
6115892e44c1cdef81dc4902,1,0,2024-02-27T11:06:42.275Z,french_751.wav,0,poule,1714,24,4,5,français,f,1,0.1,-57.87906463,1.10814523
6115892e44c1cdef81dc4902,1,0,2024-02-27T11:06:42.275Z,french_751.wav,0,poule,1714,24,4,5,français,f,2,0.2,-0.82566028,1.51148642
6115892e44c1cdef81dc4902,1,0,2024-02-27T11:06:42.275Z,french_751.wav,0,poule,1714,24,4,5,français,f,3,0.3,-77.31457628,1.64295454
6115892e44c1cdef81dc4902,1,0,2024-02-27T11:06:42.275Z,french_751.wav,0,poule,1714,24,4,5,français,f,4,0.4,-35.09433893,0.27420827
6115892e44c1cdef81dc4902,1,0,2024-02-27T11:06:42.275Z,french_751.wav,0,poule,1714,24,4,5,français,f,5,0.5,-15.70401626,0.92339785
6115892e44c1cdef81dc4902,1,0,2024-02-27T11:06:42.275Z,french_751.wav,0,poule,1714,24,4,5,français,f,6,0.6,-38.79526926,1.61669488
6115892e44c1cdef81dc4902,1,0,2024-02-27T11:06:42.275Z,french_751.wav,0,poule,1714,24,4,5,français,f,7,0.7,67.92736975,0.84098062
6115892e44c1cdef81dc4902,1,0,2024-02-27T11:06:42.275Z,french_751.wav,0,poule,1714,24,4,5,français,f,8,0.8,36.51373284,0.94117021
6115892e44c1cdef81dc4902,1,0,2024-02-27T11:06:42.275Z,french_751.wav,0,poule,1714,24,4,5,français,f,9,0.9,-45.40608101,1.18438584
6115892e44c1cdef81dc4902,1,0,2024-02-27T11:06:42.275Z,french_751.wav,0,poule,1714,24,4,5,français,f,10,1.0,98.20599699,0.46277716
6115892e44c1cdef81dc4902,1,0,2024-02-27T11:06:42.275Z,french_751.wav,0,poule,1714,24,4,5,français,f,11,1.1,-73.08267469,1.11077822
6115892e44c1cdef81dc4902,1,0,2024-02-27T11:06:42.275Z,french_751.wav,0,poule,1714,24,4,5,français,f,12,1.14141667,90.55001698,0.9464581
6115892e44c1cdef81dc4902,2,0,2024-02-27T11:06:42.275Z,french_58.wav,0,poule,1399,24,4,5,français,f,0,0.0,94.28482513,1.90438259
6115892e44c1cdef81dc4902,2,0,2024-02-27T11:06:42.275Z,french_58.wav,0,poule,1399,24,4,5,français,f,1,0.1,-8.41544404,0.61487331
6115892e44c1cdef81dc4902,2,0,2024-02-27T11:06:42.275Z,french_58.wav,0,poule,1399,24,4,5,français,f,2,0.2,-62.96182624,1.646554
6115892e44c1cdef81dc4902,2,0,2024-02-27T11:06:42.275Z,french_58.wav,0,poule,1399,24,4,5,français,f,3,0.3,60.34405866,1.52491918
6115892e44c1cdef81dc4902,2,0,2024-02-27T11:06:42.275Z,french_58.wav,0,poule,1399,24,4,5,français,f,4,0.4,32.40128414,1.13010084
6115892e44c1cdef81dc4902,2,0,2024-02-27T11:06:42.275Z,french_58.wav,0,poule,1399,24,4,5,français,f,5,0.5,-68.51454301,1.89433528
6115892e44c1cdef81dc4902,2,0,2024-02-27T11:06:42.275Z,french_58.wav,0,poule,1399,24,4,5,français,f,6,0.6,29.82130445,0.760668
6115892e44c1cdef81dc4902,2,0,2024-02-27T11:06:42.275Z,french_58.wav,0,poule,1399,24,4,5,français,f,7,0.7,-4.63475932,0.49529271
6115892e44c1cdef81dc4902,2,0,2024-02-27T11:06:42.275Z,french_58.wav,0,poule,1399,24,4,5,français,f,8,0.8,-63.03753655,0.89196999
6115892e44c1cdef81dc4902,2,0,2024-02-27T11:06:42.275Z,french_58.wav,0,poule,1399,24,4,5,français,f,9,0.9,88.63401009,0.8973393
6115892e44c1cdef81dc4902,2,0,2024-02-27T11:06:42.275Z,french_58.wav,0,poule,1399,24,4,5,français,f,10,1.0,21.784489,0.72401301
6115892e44c1cdef81dc4902,2,0,2024-02-27T11:06:42.275Z,french_58.wav,0,poule,1399,24,4,5,français,f,11,1.1,78.48150349,0.46484617
6115892e44c1cdef81dc4902,2,0,2024-02-27T11:06:42.275Z,french_58.wav,0,poule,1399,24,4,5,français,f,12,1.14141667,-36.70796852,1.22177947
6115892e44c1cdef81dc4902,3,0,2024-02-27T11:06:42.275Z,french_784.wav,0,pull,1582,24,4,5,français,f,0,0.0,61.11498845,1.50235293
6115892e44c1cdef81dc4902,3,0,2024-02-27T11:06:42.275Z,french_784.wav,0,pull,1582,24,4,5,français,f,1,0.1,-29.92995469,1.73489079
6115892e44c1cdef81dc4902,3,0,2024-02-27T11:06:42.275Z,french_784.wav,0,pull,1582,24,4,5,français,f,2,0.2,-11.47288059,1.30865034
6115892e44c1cdef81dc4902,3,0,2024-02-27T11:06:42.275Z,french_784.wav,0,pull,1582,24,4,5,français,f,3,0.3,24.29652182,1.74024805
6115892e44c1cdef81dc4902,3,0,2024-02-27T11:06:42.275Z,french_784.wav,0,pull,1582,24,4,5,français,f,4,0.4,23.69329687,1.67016595
6115892e44c1cdef81dc4902,3,0,2024-02-27T11:06:42.275Z,french_784.wav,0,pull,1582,24,4,5,français,f,5,0.5,-60.43771724,1.47687168
6115892e44c1cdef81dc4902,3,0,2024-02-27T11:06:42.275Z,french_784.wav,0,pull,1582,24,4,5,français,f,6,0.6,51.46473444,0.10283272
6115892e44c1cdef81dc4902,3,0,2024-02-27T11:06:42.275Z,french_784.wav,0,pull,1582,24,4,5,français,f,7,0.7,-70.458016,1.58951588
6115892e44c1cdef81dc4902,3,0,2024-02-27T11:06:42.275Z,french_784.wav,0,pull,1582,24,4,5,français,f,8,0.8,54.70634978,1.92784082
6115892e44c1cdef81dc4902,3,0,2024-02-27T11:06:42.275Z,french_784.wav,0,pull,1582,24,4,5,français,f,9,0.9,2.52650198,0.25893121
6115892e44c1cdef81dc4902,3,0,2024-02-27T11:06:42.275Z,french_784.wav,0,pull,1582,24,4,5,français,f,10,1.0,-74.58359756,1.24634981
6115892e44c1cdef81dc4902,3,0,2024-02-27T11:06:42.275Z,french_784.wav,0,pull,1582,24,4,5,français,f,11,1.1,25.39507774,1.22289809
6115892e44c1cdef81dc4902,3,0,2024-02-27T11:06:42.275Z,french_784.wav,0,pull,1582,24,4,5,français,f,12,1.14141667,-77.24745826,1.21192196
6115892e44c1cdef81dc4902,4,0,2024-02-27T11:06:42.275Z,french_969.wav,0,pull,1161,24,4,5,français,f,0,0.0,22.17068129,1.32316238
6115892e44c1cdef81dc4902,4,0,2024-02-27T11:06:42.275Z,french_969.wav,0,pull,1161,24,4,5,français,f,1,0.1,82.31860936,1.1146701
6115892e44c1cdef81dc4902,4,0,2024-02-27T11:06:42.275Z,french_969.wav,0,pull,1161,24,4,5,français,f,2,0.2,-63.54455884,0.19703215
6115892e44c1cdef81dc4902,4,0,2024-02-27T11:06:42.275Z,french_969.wav,0,pull,1161,24,4,5,français,f,3,0.3,-68.90387667,1.63679826
6115892e44c1cdef81dc4902,4,0,2024-02-27T11:06:42.275Z,french_969.wav,0,pull,1161,24,4,5,français,f,4,0.4,49.62721502,0.55421872
6115892e44c1cdef81dc4902,4,0,2024-02-27T11:06:42.275Z,french_969.wav,0,pull,1161,24,4,5,français,f,5,0.5,-90.63801554,0.55706611
6115892e44c1cdef81dc4902,4,0,2024-02-27T11:06:42.275Z,french_969.wav,0,pull,1161,24,4,5,français,f,6,0.6,80.96576477,1.25072913
6115892e44c1cdef81dc4902,4,0,2024-02-27T11:06:42.275Z,french_969.wav,0,pull,1161,24,4,5,français,f,7,0.7,-85.10063866,0.28877795
6115892e44c1cdef81dc4902,4,0,2024-02-27T11:06:42.275Z,french_969.wav,0,pull,1161,24,4,5,français,f,8,0.8,-75.97737791,1.03481903
6115892e44c1cdef81dc4902,4,0,2024-02-27T11:06:42.275Z,french_969.wav,0,pull,1161,24,4,5,français,f,9,0.9,64.4884669,0.27862271
6115892e44c1cdef81dc4902,4,0,2024-02-27T11:06:42.275Z,french_969.wav,0,pull,1161,24,4,5,français,f,10,1.0,64.22581041,1.8256645
6115892e44c1cdef81dc4902,4,0,2024-02-27T11:06:42.275Z,french_969.wav,0,pull,1161,24,4,5,français,f,11,1.1,-87.91439878,0.22710133
6115892e44c1cdef81dc4902,4,0,2024-02-27T11:06:42.275Z,french_969.wav,0,pull,1161,24,4,5,français,f,12,1.14141667,-30.16775952,0.58430827
6115892e44c1cdef81dc4902,5,0,2024-02-27T11:06:42.275Z,french_153.wav,0,poule,1826,24,4,5,français,f,0,0.0,-42.01574029,0.84439614
6115892e44c1cdef81dc4902,5,0,2024-02-27T11:06:42.275Z,french_153.wav,0,poule,1826,24,4,5,français,f,1,0.1,-90.00143585,0.44297776
6115892e44c1cdef81dc4902,5,0,2024-02-27T11:06:42.275Z,french_153.wav,0,poule,1826,24,4,5,français,f,2,0.2,-43.7259183,0.69214518
6115892e44c1cdef81dc4902,5,0,2024-02-27T11:06:42.275Z,french_153.wav,0,poule,1826,24,4,5,français,f,3,0.3,11.44022212,1.09273238
6115892e44c1cdef81dc4902,5,0,2024-02-27T11:06:42.275Z,french_153.wav,0,poule,1826,24,4,5,français,f,4,0.4,88.748088,0.54928819
6115892e44c1cdef81dc4902,5,0,2024-02-27T11:06:42.275Z,french_153.wav,0,poule,1826,24,4,5,français,f,5,0.5,-52.31400469,0.96507272
6115892e44c1cdef81dc4902,5,0,2024-02-27T11:06:42.275Z,french_153.wav,0,poule,1826,24,4,5,français,f,6,0.6,87.18732736,1.56155988
6115892e44c1cdef81dc4902,5,0,2024-02-27T11:06:42.275Z,french_153.wav,0,poule,1826,24,4,5,français,f,7,0.7,-86.03959727,1.86632658
6115892e44c1cdef81dc4902,5,0,2024-02-27T11:06:42.275Z,french_153.wav,0,poule,1826,24,4,5,français,f,8,0.8,8.69100054,0.92278907
6115892e44c1cdef81dc4902,5,0,2024-02-27T11:06:42.275Z,french_153.wav,0,poule,1826,24,4,5,français,f,9,0.9,62.86212057,0.59982574
6115892e44c1cdef81dc4902,5,0,2024-02-27T11:06:42.275Z,french_153.wav,0,poule,1826,24,4,5,français,f,10,1.0,27.92700795,0.05271929
6115892e44c1cdef81dc4902,5,0,2024-02-27T11:06:42.275Z,french_153.wav,0,poule,1826,24,4,5,français,f,11,1.1,39.59984074,0.68548108
6115892e44c1cdef81dc4902,5,0,2024-02-27T11:06:42.275Z,french_153.wav,0,poule,1826,24,4,5,français,f,12,1.14141667,-14.92872681,1.34366794
6115892e44c1cdef81dc4902,6,0,2024-02-27T11:06:42.275Z,french_950.wav,0,poule,770,24,4,5,français,f,0,0.0,-50.85402978,1.28407017
6115892e44c1cdef81dc4902,6,0,2024-02-27T11:06:42.275Z,french_950.wav,0,poule,770,24,4,5,français,f,1,0.1,15.87357898,1.13515201
6115892e44c1cdef81dc4902,6,0,2024-02-27T11:06:42.275Z,french_950.wav,0,poule,770,24,4,5,français,f,2,0.2,66.25100226,1.57125495
6115892e44c1cdef81dc4902,6,0,2024-02-27T11:06:42.275Z,french_950.wav,0,poule,770,24,4,5,français,f,3,0.3,11.62218315,1.24153692
6115892e44c1cdef81dc4902,6,0,2024-02-27T11:06:42.275Z,french_950.wav,0,poule,770,24,4,5,français,f,4,0.4,61.49883516,1.62386347
6115892e44c1cdef81dc4902,6,0,2024-02-27T11:06:42.275Z,french_950.wav,0,poule,770,24,4,5,français,f,5,0.5,59.30890592,1.41668173
6115892e44c1cdef81dc4902,6,0,2024-02-27T11:06:42.275Z,french_950.wav,0,poule,770,24,4,5,français,f,6,0.6,-94.55512167,0.60916392
6115892e44c1cdef81dc4902,6,0,2024-02-27T11:06:42.275Z,french_950.wav,0,poule,770,24,4,5,français,f,7,0.7,-47.72487457,1.03982307
6115892e44c1cdef81dc4902,6,0,2024-02-27T11:06:42.275Z,french_950.wav,0,poule,770,24,4,5,français,f,8,0.8,-24.06820859,1.97560568
6115892e44c1cdef81dc4902,6,0,2024-02-27T11:06:42.275Z,french_950.wav,0,poule,770,24,4,5,français,f,9,0.9,37.00201055,0.3630601
6115892e44c1cdef81dc4902,6,0,2024-02-27T11:06:42.275Z,french_950.wav,0,poule,770,24,4,5,français,f,10,1.0,24.38983398,1.89790561
6115892e44c1cdef81dc4902,6,0,2024-02-27T11:06:42.275Z,french_950.wav,0,poule,770,24,4,5,français,f,11,1.1,25.31833065,0.70938122
6115892e44c1cdef81dc4902,6,0,2024-02-27T11:06:42.275Z,french_950.wav,0,poule,770,24,4,5,français,f,12,1.14141667,25.86165668,1.71148268
6115892e44c1cdef81dc4902,7,0,2024-02-27T11:06:42.275Z,french_664.wav,0,poule,1460,24,4,5,français,f,0,0.0,-91.74200012,1.5436769
6115892e44c1cdef81dc4902,7,0,2024-02-27T11:06:42.275Z,french_664.wav,0,poule,1460,24,4,5,français,f,1,0.1,67.3163071,1.28396624
6115892e44c1cdef81dc4902,7,0,2024-02-27T11:06:42.275Z,french_664.wav,0,poule,1460,24,4,5,français,f,2,0.2,-14.92110663,0.86320374
6115892e44c1cdef81dc4902,7,0,2024-02-27T11:06:42.275Z,french_664.wav,0,poule,1460,24,4,5,français,f,3,0.3,-15.00532605,1.18530683
6115892e44c1cdef81dc4902,7,0,2024-02-27T11:06:42.275Z,french_664.wav,0,poule,1460,24,4,5,français,f,4,0.4,-71.83608899,0.7104349
6115892e44c1cdef81dc4902,7,0,2024-02-27T11:06:42.275Z,french_664.wav,0,poule,1460,24,4,5,français,f,5,0.5,60.19723794,0.80286179
6115892e44c1cdef81dc4902,7,0,2024-02-27T11:06:42.275Z,french_664.wav,0,poule,1460,24,4,5,français,f,6,0.6,-88.50711363,0.79382779
6115892e44c1cdef81dc4902,7,0,2024-02-27T11:06:42.275Z,french_664.wav,0,poule,1460,24,4,5,français,f,7,0.7,29.2172503,0.16919782
6115892e44c1cdef81dc4902,7,0,2024-02-27T11:06:42.275Z,french_664.wav,0,poule,1460,24,4,5,français,f,8,0.8,46.83116703,1.5381824
6115892e44c1cdef81dc4902,7,0,2024-02-27T11:06:42.275Z,french_664.wav,0,poule,1460,24,4,5,français,f,9,0.9,-16.00706746,1.94367969
6115892e44c1cdef81dc4902,7,0,2024-02-27T11:06:42.275Z,french_664.wav,0,poule,1460,24,4,5,français,f,10,1.0,0.77059242,1.56397286
6115892e44c1cdef81dc4902,7,0,2024-02-27T11:06:42.275Z,french_664.wav,0,poule,1460,24,4,5,français,f,11,1.1,-11.58487906,0.83434339
6115892e44c1cdef81dc4902,7,0,2024-02-27T11:06:42.275Z,french_664.wav,0,poule,1460,24,4,5,français,f,12,1.14141667,-15.46228134,1.77198089
6115892e44c1cdef81dc4902,8,0,2024-02-27T11:06:42.275Z,french_649.wav,0,pull,1831,24,4,5,français,f,0,0.0,-14.63575946,1.48016251
6115892e44c1cdef81dc4902,8,0,2024-02-27T11:06:42.275Z,french_649.wav,0,pull,1831,24,4,5,français,f,1,0.1,87.90447506,1.99171813
6115892e44c1cdef81dc4902,8,0,2024-02-27T11:06:42.275Z,french_649.wav,0,pull,1831,24,4,5,français,f,2,0.2,16.67284582,0.37897864
6115892e44c1cdef81dc4902,8,0,2024-02-27T11:06:42.275Z,french_649.wav,0,pull,1831,24,4,5,français,f,3,0.3,66.15245768,1.28017908
6115892e44c1cdef81dc4902,8,0,2024-02-27T11:06:42.275Z,french_649.wav,0,pull,1831,24,4,5,français,f,4,0.4,-20.15560471,0.5887237
6115892e44c1cdef81dc4902,8,0,2024-02-27T11:06:42.275Z,french_649.wav,0,pull,1831,24,4,5,français,f,5,0.5,-60.0326813,1.90797715
6115892e44c1cdef81dc4902,8,0,2024-02-27T11:06:42.275Z,french_649.wav,0,pull,1831,24,4,5,français,f,6,0.6,31.72800587,0.19529448
6115892e44c1cdef81dc4902,8,0,2024-02-27T11:06:42.275Z,french_649.wav,0,pull,1831,24,4,5,français,f,7,0.7,-60.07829106,1.64301184
6115892e44c1cdef81dc4902,8,0,2024-02-27T11:06:42.275Z,french_649.wav,0,pull,1831,24,4,5,français,f,8,0.8,15.50516257,1.80534623
6115892e44c1cdef81dc4902,8,0,2024-02-27T11:06:42.275Z,french_649.wav,0,pull,1831,24,4,5,français,f,9,0.9,-42.6229878,0.7062957
6115892e44c1cdef81dc4902,8,0,2024-02-27T11:06:42.275Z,french_649.wav,0,pull,1831,24,4,5,français,f,10,1.0,78.15416518,1.55899311
6115892e44c1cdef81dc4902,8,0,2024-02-27T11:06:42.275Z,french_649.wav,0,pull,1831,24,4,5,français,f,11,1.1,46.83392995,1.39425951
6115892e44c1cdef81dc4902,8,0,2024-02-27T11:06:42.275Z,french_649.wav,0,pull,1831,24,4,5,français,f,12,1.14141667,39.79631616,1.94277347
6115892e44c1cdef81dc4902,9,0,2024-02-27T11:06:42.275Z,french_796.wav,0,pull,1070,24,4,5,français,f,0,0.0,-21.64188846,1.54395317
6115892e44c1cdef81dc4902,9,0,2024-02-27T11:06:42.275Z,french_796.wav,0,pull,1070,24,4,5,français,f,1,0.1,-7.10945612,0.2941661
6115892e44c1cdef81dc4902,9,0,2024-02-27T11:06:42.275Z,french_796.wav,0,pull,1070,24,4,5,français,f,2,0.2,-74.39719325,0.97343698
6115892e44c1cdef81dc4902,9,0,2024-02-27T11:06:42.275Z,french_796.wav,0,pull,1070,24,4,5,français,f,3,0.3,-54.61530314,0.96871079
6115892e44c1cdef81dc4902,9,0,2024-02-27T11:06:42.275Z,french_796.wav,0,pull,1070,24,4,5,français,f,4,0.4,-80.73225718,1.80485159
6115892e44c1cdef81dc4902,9,0,2024-02-27T11:06:42.275Z,french_796.wav,0,pull,1070,24,4,5,français,f,5,0.5,9.91679823,0.56868061
6115892e44c1cdef81dc4902,9,0,2024-02-27T11:06:42.275Z,french_796.wav,0,pull,1070,24,4,5,français,f,6,0.6,-97.91364168,1.75772708
6115892e44c1cdef81dc4902,9,0,2024-02-27T11:06:42.275Z,french_796.wav,0,pull,1070,24,4,5,français,f,7,0.7,49.57079751,1.73544483
6115892e44c1cdef81dc4902,9,0,2024-02-27T11:06:42.275Z,french_796.wav,0,pull,1070,24,4,5,français,f,8,0.8,70.95125658,0.94432617
6115892e44c1cdef81dc4902,9,0,2024-02-27T11:06:42.275Z,french_796.wav,0,pull,1070,24,4,5,français,f,9,0.9,31.08280056,1.12597758
6115892e44c1cdef81dc4902,9,0,2024-02-27T11:06:42.275Z,french_796.wav,0,pull,1070,24,4,5,français,f,10,1.0,-13.33346658,0.53392858
6115892e44c1cdef81dc4902,9,0,2024-02-27T11:06:42.275Z,french_796.wav,0,pull,1070,24,4,5,français,f,11,1.1,3.95596596,0.6803009
6115892e44c1cdef81dc4902,9,0,2024-02-27T11:06:42.275Z,french_796.wav,0,pull,1070,24,4,5,français,f,12,1.14141667,-13.99518271,1.42581525
6115892e44c1cdef81dc4902,10,0,2024-02-27T11:06:42.275Z,french_358.wav,0,poule,971,24,4,5,français,f,0,0.0,34.29012756,1.73708892
6115892e44c1cdef81dc4902,10,0,2024-02-27T11:06:42.275Z,french_358.wav,0,poule,971,24,4,5,français,f,1,0.1,-35.48435174,1.26172634
6115892e44c1cdef81dc4902,10,0,2024-02-27T11:06:42.275Z,french_358.wav,0,poule,971,24,4,5,français,f,2,0.2,-50.59229414,1.08413964
6115892e44c1cdef81dc4902,10,0,2024-02-27T11:06:42.275Z,french_358.wav,0,poule,971,24,4,5,français,f,3,0.3,39.90001516,0.15090374
6115892e44c1cdef81dc4902,10,0,2024-02-27T11:06:42.275Z,french_358.wav,0,poule,971,24,4,5,français,f,4,0.4,88.92181701,1.16341938
6115892e44c1cdef81dc4902,10,0,2024-02-27T11:06:42.275Z,french_358.wav,0,poule,971,24,4,5,français,f,5,0.5,-72.87547056,0.75677187
6115892e44c1cdef81dc4902,10,0,2024-02-27T11:06:42.275Z,french_358.wav,0,poule,971,24,4,5,français,f,6,0.6,-42.92546752,1.3104823
6115892e44c1cdef81dc4902,10,0,2024-02-27T11:06:42.275Z,french_358.wav,0,poule,971,24,4,5,français,f,7,0.7,-26.49502583,0.21102579
6115892e44c1cdef81dc4902,10,0,2024-02-27T11:06:42.275Z,french_358.wav,0,poule,971,24,4,5,français,f,8,0.8,-61.94486174,0.35280682
6115892e44c1cdef81dc4902,10,0,2024-02-27T11:06:42.275Z,french_358.wav,0,poule,971,24,4,5,français,f,9,0.9,-97.88892453,0.79925635
6115892e44c1cdef81dc4902,10,0,2024-02-27T11:06:42.275Z,french_358.wav,0,poule,971,24,4,5,français,f,10,1.0,9.51760158,0.71049545
6115892e44c1cdef81dc4902,10,0,2024-02-27T11:06:42.275Z,french_358.wav,0,poule,971,24,4,5,français,f,11,1.1,56.53420341,0.08224149
6115892e44c1cdef81dc4902,10,0,2024-02-27T11:06:42.275Z,french_358.wav,0,poule,971,24,4,5,français,f,12,1.14141667,-75.83910057,1.68511416
6115892e44c1cdef81dc4902,11,0,2024-02-27T11:06:42.275Z,french_43.wav,0,poule,612,24,4,5,français,f,0,0.0,-89.50101467,1.67740663
6115892e44c1cdef81dc4902,11,0,2024-02-27T11:06:42.275Z,french_43.wav,0,poule,612,24,4,5,français,f,1,0.1,-82.78687698,1.50626995
6115892e44c1cdef81dc4902,11,0,2024-02-27T11:06:42.275Z,french_43.wav,0,poule,612,24,4,5,français,f,2,0.2,-41.64789476,0.25237326
6115892e44c1cdef81dc4902,11,0,2024-02-27T11:06:42.275Z,french_43.wav,0,poule,612,24,4,5,français,f,3,0.3,-56.19351183,0.46519309
6115892e44c1cdef81dc4902,11,0,2024-02-27T11:06:42.275Z,french_43.wav,0,poule,612,24,4,5,français,f,4,0.4,-32.72606631,1.32327819
6115892e44c1cdef81dc4902,11,0,2024-02-27T11:06:42.275Z,french_43.wav,0,poule,612,24,4,5,français,f,5,0.5,-24.9923926,0.98582586
6115892e44c1cdef81dc4902,11,0,2024-02-27T11:06:42.275Z,french_43.wav,0,poule,612,24,4,5,français,f,6,0.6,29.61438439,0.41062286
6115892e44c1cdef81dc4902,11,0,2024-02-27T11:06:42.275Z,french_43.wav,0,poule,612,24,4,5,français,f,7,0.7,44.94046319,0.85370095
6115892e44c1cdef81dc4902,11,0,2024-02-27T11:06:42.275Z,french_43.wav,0,poule,612,24,4,5,français,f,8,0.8,-97.22263443,0.70305009
6115892e44c1cdef81dc4902,11,0,2024-02-27T11:06:42.275Z,french_43.wav,0,poule,612,24,4,5,français,f,9,0.9,1.45082334,1.831208
6115892e44c1cdef81dc4902,11,0,2024-02-27T11:06:42.275Z,french_43.wav,0,poule,612,24,4,5,français,f,10,1.0,-5.82604962,1.1101714
6115892e44c1cdef81dc4902,11,0,2024-02-27T11:06:42.275Z,french_43.wav,0,poule,612,24,4,5,français,f,11,1.1,95.81487386,0.61453497
6115892e44c1cdef81dc4902,11,0,2024-02-27T11:06:42.275Z,french_43.wav,0,poule,612,24,4,5,français,f,12,1.14141667,-91.26895404,1.16560772
6115892e44c1cdef81dc4902,12,0,2024-02-27T11:06:42.275Z,french_843.wav,0,poule,4658,24,4,5,français,f,0,0.0,3.16503594,0.09451126
6115892e44c1cdef81dc4902,12,0,2024-02-27T11:06:42.275Z,french_843.wav,0,poule,4658,24,4,5,français,f,1,0.1,26.80395692,1.74509222
6115892e44c1cdef81dc4902,12,0,2024-02-27T11:06:42.275Z,french_843.wav,0,poule,4658,24,4,5,français,f,2,0.2,16.79385543,0.77620576
6115892e44c1cdef81dc4902,12,0,2024-02-27T11:06:42.275Z,french_843.wav,0,poule,4658,24,4,5,français,f,3,0.3,-35.60483384,1.61358005
6115892e44c1cdef81dc4902,12,0,2024-02-27T11:06:42.275Z,french_843.wav,0,poule,4658,24,4,5,français,f,4,0.4,18.52937613,1.57470559
6115892e44c1cdef81dc4902,12,0,2024-02-27T11:06:42.275Z,french_843.wav,0,poule,4658,24,4,5,français,f,5,0.5,37.26610196,0.6926668
6115892e44c1cdef81dc4902,12,0,2024-02-27T11:06:42.275Z,french_843.wav,0,poule,4658,24,4,5,français,f,6,0.6,-80.36118355,0.58242689
6115892e44c1cdef81dc4902,12,0,2024-02-27T11:06:42.275Z,french_843.wav,0,poule,4658,24,4,5,français,f,7,0.7,-87.10510064,1.20976991
6115892e44c1cdef81dc4902,12,0,2024-02-27T11:06:42.275Z,french_843.wav,0,poule,4658,24,4,5,français,f,8,0.8,35.50538366,1.8175096
6115892e44c1cdef81dc4902,12,0,2024-02-27T11:06:42.275Z,french_843.wav,0,poule,4658,24,4,5,français,f,9,0.9,-72.56191372,0.5430267
6115892e44c1cdef81dc4902,12,0,2024-02-27T11:06:42.275Z,french_843.wav,0,poule,4658,24,4,5,français,f,10,1.0,-8.47223635,0.77082682
6115892e44c1cdef81dc4902,12,0,2024-02-27T11:06:42.275Z,french_843.wav,0,poule,4658,24,4,5,français,f,11,1.1,71.58119759,1.76255625
6115892e44c1cdef81dc4902,12,0,2024-02-27T11:06:42.275Z,french_843.wav,0,poule,4658,24,4,5,français,f,12,1.14141667,10.49120463,1.95278824
6115892e44c1cdef81dc4902,13,0,2024-02-27T11:06:42.275Z,french_117.wav,0,poule,1069,24,4,5,français,f,0,0.0,43.60377946,0.26826622
6115892e44c1cdef81dc4902,13,0,2024-02-27T11:06:42.275Z,french_117.wav,0,poule,1069,24,4,5,français,f,1,0.1,88.0380463,1.80635695
6115892e44c1cdef81dc4902,13,0,2024-02-27T11:06:42.275Z,french_117.wav,0,poule,1069,24,4,5,français,f,2,0.2,-1.33010118,0.58773943
6115892e44c1cdef81dc4902,13,0,2024-02-27T11:06:42.275Z,french_117.wav,0,poule,1069,24,4,5,français,f,3,0.3,2.08209637,1.08351647
6115892e44c1cdef81dc4902,13,0,2024-02-27T11:06:42.275Z,french_117.wav,0,poule,1069,24,4,5,français,f,4,0.4,-43.3510715,1.74342001
6115892e44c1cdef81dc4902,13,0,2024-02-27T11:06:42.275Z,french_117.wav,0,poule,1069,24,4,5,français,f,5,0.5,-7.89680038,0.87416801
6115892e44c1cdef81dc4902,13,0,2024-02-27T11:06:42.275Z,french_117.wav,0,poule,1069,24,4,5,français,f,6,0.6,-40.62214755,1.89288011
6115892e44c1cdef81dc4902,13,0,2024-02-27T11:06:42.275Z,french_117.wav,0,poule,1069,24,4,5,français,f,7,0.7,-97.45180065,1.97585967
6115892e44c1cdef81dc4902,13,0,2024-02-27T11:06:42.275Z,french_117.wav,0,poule,1069,24,4,5,français,f,8,0.8,-31.70925374,0.86684516
6115892e44c1cdef81dc4902,13,0,2024-02-27T11:06:42.275Z,french_117.wav,0,poule,1069,24,4,5,français,f,9,0.9,13.12341678,1.06236633
6115892e44c1cdef81dc4902,13,0,2024-02-27T11:06:42.275Z,french_117.wav,0,poule,1069,24,4,5,français,f,10,1.0,31.16574754,1.24093061
6115892e44c1cdef81dc4902,13,0,2024-02-27T11:06:42.275Z,french_117.wav,0,poule,1069,24,4,5,français,f,11,1.1,82.88920444,1.58014354
6115892e44c1cdef81dc4902,13,0,2024-02-27T11:06:42.275Z,french_117.wav,0,poule,1069,24,4,5,français,f,12,1.14141667,26.13773526,1.3395724
6115892e44c1cdef81dc4902,14,0,2024-02-27T11:06:42.275Z,french_316.wav,0,pull,978,24,4,5,français,f,0,0.0,-12.35150473,1.31203929
6115892e44c1cdef81dc4902,14,0,2024-02-27T11:06:42.275Z,french_316.wav,0,pull,978,24,4,5,français,f,1,0.1,-57.71955323,1.95651638
6115892e44c1cdef81dc4902,14,0,2024-02-27T11:06:42.275Z,french_316.wav,0,pull,978,24,4,5,français,f,2,0.2,-23.70518109,0.28891018
6115892e44c1cdef81dc4902,14,0,2024-02-27T11:06:42.275Z,french_316.wav,0,pull,978,24,4,5,français,f,3,0.3,-30.25273583,0.36356292
6115892e44c1cdef81dc4902,14,0,2024-02-27T11:06:42.275Z,french_316.wav,0,pull,978,24,4,5,français,f,4,0.4,-1.94999705,0.0390578
6115892e44c1cdef81dc4902,14,0,2024-02-27T11:06:42.275Z,french_316.wav,0,pull,978,24,4,5,français,f,5,0.5,31.73989536,1.33065027
6115892e44c1cdef81dc4902,14,0,2024-02-27T11:06:42.275Z,french_316.wav,0,pull,978,24,4,5,français,f,6,0.6,-85.31776934,1.4200316
6115892e44c1cdef81dc4902,14,0,2024-02-27T11:06:42.275Z,french_316.wav,0,pull,978,24,4,5,français,f,7,0.7,10.96594736,0.11141775
6115892e44c1cdef81dc4902,14,0,2024-02-27T11:06:42.275Z,french_316.wav,0,pull,978,24,4,5,français,f,8,0.8,-63.85009412,1.65984218
6115892e44c1cdef81dc4902,14,0,2024-02-27T11:06:42.275Z,french_316.wav,0,pull,978,24,4,5,français,f,9,0.9,-24.55332766,0.45014395
6115892e44c1cdef81dc4902,14,0,2024-02-27T11:06:42.275Z,french_316.wav,0,pull,978,24,4,5,français,f,10,1.0,11.20080051,0.76494991
6115892e44c1cdef81dc4902,14,0,2024-02-27T11:06:42.275Z,french_316.wav,0,pull,978,24,4,5,français,f,11,1.1,59.4445927,1.39303247
6115892e44c1cdef81dc4902,14,0,2024-02-27T11:06:42.275Z,french_316.wav,0,pull,978,24,4,5,français,f,12,1.14141667,51.5786605,1.44009832
6115892e44c1cdef81dc4902,15,0,2024-02-27T11:06:42.275Z,french_381.wav,0,pull,1351,24,4,5,français,f,0,0.0,16.77547757,1.57552779
6115892e44c1cdef81dc4902,15,0,2024-02-27T11:06:42.275Z,french_381.wav,0,pull,1351,24,4,5,français,f,1,0.1,17.23505451,0.79968926
6115892e44c1cdef81dc4902,15,0,2024-02-27T11:06:42.275Z,french_381.wav,0,pull,1351,24,4,5,français,f,2,0.2,81.55975147,0.97870808
6115892e44c1cdef81dc4902,15,0,2024-02-27T11:06:42.275Z,french_381.wav,0,pull,1351,24,4,5,français,f,3,0.3,66.33872026,1.32218964
6115892e44c1cdef81dc4902,15,0,2024-02-27T11:06:42.275Z,french_381.wav,0,pull,1351,24,4,5,français,f,4,0.4,33.03818018,1.91491421
6115892e44c1cdef81dc4902,15,0,2024-02-27T11:06:42.275Z,french_381.wav,0,pull,1351,24,4,5,français,f,5,0.5,-27.31689891,1.55764182
6115892e44c1cdef81dc4902,15,0,2024-02-27T11:06:42.275Z,french_381.wav,0,pull,1351,24,4,5,français,f,6,0.6,23.16804454,1.56469583
6115892e44c1cdef81dc4902,15,0,2024-02-27T11:06:42.275Z,french_381.wav,0,pull,1351,24,4,5,français,f,7,0.7,-22.15418729,0.99557265
6115892e44c1cdef81dc4902,15,0,2024-02-27T11:06:42.275Z,french_381.wav,0,pull,1351,24,4,5,français,f,8,0.8,17.55346965,0.5982603
6115892e44c1cdef81dc4902,15,0,2024-02-27T11:06:42.275Z,french_381.wav,0,pull,1351,24,4,5,français,f,9,0.9,-25.58605951,0.02411044
6115892e44c1cdef81dc4902,15,0,2024-02-27T11:06:42.275Z,french_381.wav,0,pull,1351,24,4,5,français,f,10,1.0,-85.31796448,0.77366774
6115892e44c1cdef81dc4902,15,0,2024-02-27T11:06:42.275Z,french_381.wav,0,pull,1351,24,4,5,français,f,11,1.1,-83.45042571,0.9088508
6115892e44c1cdef81dc4902,15,0,2024-02-27T11:06:42.275Z,french_381.wav,0,pull,1351,24,4,5,français,f,12,1.14141667,12.63282515,1.14991204
6115892e44c1cdef81dc4902,16,0,2024-02-27T11:06:42.275Z,french_643.wav,0,pull,982,24,4,5,français,f,0,0.0,73.91884807,1.70558003
6115892e44c1cdef81dc4902,16,0,2024-02-27T11:06:42.275Z,french_643.wav,0,pull,982,24,4,5,français,f,1,0.1,-4.43109792,0.86348917
6115892e44c1cdef81dc4902,16,0,2024-02-27T11:06:42.275Z,french_643.wav,0,pull,982,24,4,5,français,f,2,0.2,-1.1803274,1.37952802
6115892e44c1cdef81dc4902,16,0,2024-02-27T11:06:42.275Z,french_643.wav,0,pull,982,24,4,5,français,f,3,0.3,-41.71220888,1.18502501
6115892e44c1cdef81dc4902,16,0,2024-02-27T11:06:42.275Z,french_643.wav,0,pull,982,24,4,5,français,f,4,0.4,94.20925974,0.88169131
6115892e44c1cdef81dc4902,16,0,2024-02-27T11:06:42.275Z,french_643.wav,0,pull,982,24,4,5,français,f,5,0.5,-88.02698337,1.38963069
6115892e44c1cdef81dc4902,16,0,2024-02-27T11:06:42.275Z,french_643.wav,0,pull,982,24,4,5,français,f,6,0.6,27.05940028,1.01487063
6115892e44c1cdef81dc4902,16,0,2024-02-27T11:06:42.275Z,french_643.wav,0,pull,982,24,4,5,français,f,7,0.7,-90.83448332,1.12640019
6115892e44c1cdef81dc4902,16,0,2024-02-27T11:06:42.275Z,french_643.wav,0,pull,982,24,4,5,français,f,8,0.8,-22.69696081,1.31593489
6115892e44c1cdef81dc4902,16,0,2024-02-27T11:06:42.275Z,french_643.wav,0,pull,982,24,4,5,français,f,9,0.9,-24.03182976,0.18197264
6115892e44c1cdef81dc4902,16,0,2024-02-27T11:06:42.275Z,french_643.wav,0,pull,982,24,4,5,français,f,10,1.0,92.21203229,1.50863552
6115892e44c1cdef81dc4902,16,0,2024-02-27T11:06:42.275Z,french_643.wav,0,pull,982,24,4,5,français,f,11,1.1,48.64996004,0.67746017
6115892e44c1cdef81dc4902,16,0,2024-02-27T11:06:42.275Z,french_643.wav,0,pull,982,24,4,5,français,f,12,1.14141667,-33.54561586,0.44809852
6115892e44c1cdef81dc4902,17,0,2024-02-27T11:06:42.275Z,french_354.wav,0,poule,2670,24,4,5,français,f,0,0.0,-59.30427207,1.42108763
6115892e44c1cdef81dc4902,17,0,2024-02-27T11:06:42.275Z,french_354.wav,0,poule,2670,24,4,5,français,f,1,0.1,79.91145527,0.12998909
6115892e44c1cdef81dc4902,17,0,2024-02-27T11:06:42.275Z,french_354.wav,0,poule,2670,24,4,5,français,f,2,0.2,-1.5051974,1.34324907
6115892e44c1cdef81dc4902,17,0,2024-02-27T11:06:42.275Z,french_354.wav,0,poule,2670,24,4,5,français,f,3,0.3,-45.6248448,1.56989782
6115892e44c1cdef81dc4902,17,0,2024-02-27T11:06:42.275Z,french_354.wav,0,poule,2670,24,4,5,français,f,4,0.4,40.65998782,0.75541958
6115892e44c1cdef81dc4902,17,0,2024-02-27T11:06:42.275Z,french_354.wav,0,poule,2670,24,4,5,français,f,5,0.5,-87.75757377,0.95768708
6115892e44c1cdef81dc4902,17,0,2024-02-27T11:06:42.275Z,french_354.wav,0,poule,2670,24,4,5,français,f,6,0.6,92.52575954,1.70871899
6115892e44c1cdef81dc4902,17,0,2024-02-27T11:06:42.275Z,french_354.wav,0,poule,2670,24,4,5,français,f,7,0.7,-30.48325009,1.54335891
6115892e44c1cdef81dc4902,17,0,2024-02-27T11:06:42.275Z,french_354.wav,0,poule,2670,24,4,5,français,f,8,0.8,18.19454969,0.39580898
6115892e44c1cdef81dc4902,17,0,2024-02-27T11:06:42.275Z,french_354.wav,0,poule,2670,24,4,5,français,f,9,0.9,-2.58461677,1.36502039
6115892e44c1cdef81dc4902,17,0,2024-02-27T11:06:42.275Z,french_354.wav,0,poule,2670,24,4,5,français,f,10,1.0,-70.76135363,1.03896879
6115892e44c1cdef81dc4902,17,0,2024-02-27T11:06:42.275Z,french_354.wav,0,poule,2670,24,4,5,français,f,11,1.1,70.06864497,1.2657434
6115892e44c1cdef81dc4902,17,0,2024-02-27T11:06:42.275Z,french_354.wav,0,poule,2670,24,4,5,français,f,12,1.14141667,36.19538716,1.59524238
6115892e44c1cdef81dc4902,18,0,2024-02-27T11:06:42.275Z,french_741.wav,0,poule,2714,24,4,5,français,f,0,0.0,14.15097335,0.41697978
6115892e44c1cdef81dc4902,18,0,2024-02-27T11:06:42.275Z,french_741.wav,0,poule,2714,24,4,5,français,f,1,0.1,-32.15615978,0.82705056
6115892e44c1cdef81dc4902,18,0,2024-02-27T11:06:42.275Z,french_741.wav,0,poule,2714,24,4,5,français,f,2,0.2,0.97880502,0.21383898
6115892e44c1cdef81dc4902,18,0,2024-02-27T11:06:42.275Z,french_741.wav,0,poule,2714,24,4,5,français,f,3,0.3,62.8807323,0.34603532
6115892e44c1cdef81dc4902,18,0,2024-02-27T11:06:42.275Z,french_741.wav,0,poule,2714,24,4,5,français,f,4,0.4,14.95483835,0.81976538
6115892e44c1cdef81dc4902,18,0,2024-02-27T11:06:42.275Z,french_741.wav,0,poule,2714,24,4,5,français,f,5,0.5,-47.52261373,0.42184555
6115892e44c1cdef81dc4902,18,0,2024-02-27T11:06:42.275Z,french_741.wav,0,poule,2714,24,4,5,français,f,6,0.6,40.92949838,0.62052888
6115892e44c1cdef81dc4902,18,0,2024-02-27T11:06:42.275Z,french_741.wav,0,poule,2714,24,4,5,français,f,7,0.7,-35.15475222,0.04672478
6115892e44c1cdef81dc4902,18,0,2024-02-27T11:06:42.275Z,french_741.wav,0,poule,2714,24,4,5,français,f,8,0.8,0.88649301,0.17050367
6115892e44c1cdef81dc4902,18,0,2024-02-27T11:06:42.275Z,french_741.wav,0,poule,2714,24,4,5,français,f,9,0.9,-1.68344265,0.32486831
6115892e44c1cdef81dc4902,18,0,2024-02-27T11:06:42.275Z,french_741.wav,0,poule,2714,24,4,5,français,f,10,1.0,-73.2966165,1.96245172
6115892e44c1cdef81dc4902,18,0,2024-02-27T11:06:42.275Z,french_741.wav,0,poule,2714,24,4,5,français,f,11,1.1,0.32925838,1.95075609
6115892e44c1cdef81dc4902,18,0,2024-02-27T11:06:42.275Z,french_741.wav,0,poule,2714,24,4,5,français,f,12,1.14141667,57.70395775,1.58857603
6115892e44c1cdef81dc4902,19,0,2024-02-27T11:06:42.275Z,french_96.wav,0,poule,977,24,4,5,français,f,0,0.0,53.78639377,1.90346106
6115892e44c1cdef81dc4902,19,0,2024-02-27T11:06:42.275Z,french_96.wav,0,poule,977,24,4,5,français,f,1,0.1,31.41586523,0.15220772
6115892e44c1cdef81dc4902,19,0,2024-02-27T11:06:42.275Z,french_96.wav,0,poule,977,24,4,5,français,f,2,0.2,98.80733332,0.53950268
6115892e44c1cdef81dc4902,19,0,2024-02-27T11:06:42.275Z,french_96.wav,0,poule,977,24,4,5,français,f,3,0.3,53.44519875,0.63349693
6115892e44c1cdef81dc4902,19,0,2024-02-27T11:06:42.275Z,french_96.wav,0,poule,977,24,4,5,français,f,4,0.4,95.61439284,0.57290588
6115892e44c1cdef81dc4902,19,0,2024-02-27T11:06:42.275Z,french_96.wav,0,poule,977,24,4,5,français,f,5,0.5,77.20225202,0.42649721
6115892e44c1cdef81dc4902,19,0,2024-02-27T11:06:42.275Z,french_96.wav,0,poule,977,24,4,5,français,f,6,0.6,52.03252285,1.12105265
6115892e44c1cdef81dc4902,19,0,2024-02-27T11:06:42.275Z,french_96.wav,0,poule,977,24,4,5,français,f,7,0.7,81.26088067,0.61167248
6115892e44c1cdef81dc4902,19,0,2024-02-27T11:06:42.275Z,french_96.wav,0,poule,977,24,4,5,français,f,8,0.8,61.75854177,1.55092745
6115892e44c1cdef81dc4902,19,0,2024-02-27T11:06:42.275Z,french_96.wav,0,poule,977,24,4,5,français,f,9,0.9,-97.80195669,1.53777106
6115892e44c1cdef81dc4902,19,0,2024-02-27T11:06:42.275Z,french_96.wav,0,poule,977,24,4,5,français,f,10,1.0,-30.26366105,1.41658213
6115892e44c1cdef81dc4902,19,0,2024-02-27T11:06:42.275Z,french_96.wav,0,poule,977,24,4,5,français,f,11,1.1,17.72455957,0.75969362
6115892e44c1cdef81dc4902,19,0,2024-02-27T11:06:42.275Z,french_96.wav,0,poule,977,24,4,5,français,f,12,1.14141667,64.44839673,0.51672597
6115892e44c1cdef81dc4902,20,0,2024-02-27T11:06:42.275Z,french_863.wav,0,poule,2243,24,4,5,français,f,0,0.0,50.77342544,0.93550892
6115892e44c1cdef81dc4902,20,0,2024-02-27T11:06:42.275Z,french_863.wav,0,poule,2243,24,4,5,français,f,1,0.1,-97.70321946,0.64505388
6115892e44c1cdef81dc4902,20,0,2024-02-27T11:06:42.275Z,french_863.wav,0,poule,2243,24,4,5,français,f,2,0.2,-1.18541723,0.94585453
6115892e44c1cdef81dc4902,20,0,2024-02-27T11:06:42.275Z,french_863.wav,0,poule,2243,24,4,5,français,f,3,0.3,-45.09950091,0.69723049
6115892e44c1cdef81dc4902,20,0,2024-02-27T11:06:42.275Z,french_863.wav,0,poule,2243,24,4,5,français,f,4,0.4,-69.59494908,0.77036715
6115892e44c1cdef81dc4902,20,0,2024-02-27T11:06:42.275Z,french_863.wav,0,poule,2243,24,4,5,français,f,5,0.5,86.27470407,0.28013797
6115892e44c1cdef81dc4902,20,0,2024-02-27T11:06:42.275Z,french_863.wav,0,poule,2243,24,4,5,français,f,6,0.6,-28.73893601,1.05013391
6115892e44c1cdef81dc4902,20,0,2024-02-27T11:06:42.275Z,french_863.wav,0,poule,2243,24,4,5,français,f,7,0.7,-52.09259609,1.91965154
6115892e44c1cdef81dc4902,20,0,2024-02-27T11:06:42.275Z,french_863.wav,0,poule,2243,24,4,5,français,f,8,0.8,36.31844789,0.72883716
6115892e44c1cdef81dc4902,20,0,2024-02-27T11:06:42.275Z,french_863.wav,0,poule,2243,24,4,5,français,f,9,0.9,-73.2210636,0.81903439
6115892e44c1cdef81dc4902,20,0,2024-02-27T11:06:42.275Z,french_863.wav,0,poule,2243,24,4,5,français,f,10,1.0,90.73733334,0.23587725
6115892e44c1cdef81dc4902,20,0,2024-02-27T11:06:42.275Z,french_863.wav,0,poule,2243,24,4,5,français,f,11,1.1,58.21757398,1.52886581
6115892e44c1cdef81dc4902,20,0,2024-02-27T11:06:42.275Z,french_863.wav,0,poule,2243,24,4,5,français,f,12,1.14141667,56.00262149,1.3743652
6115892e44c1cdef81dc4902,21,0,2024-02-27T11:06:42.275Z,french_769.wav,0,pull,2193,24,4,5,français,f,0,0.0,-13.36397128,1.58116724
6115892e44c1cdef81dc4902,21,0,2024-02-27T11:06:42.275Z,french_769.wav,0,pull,2193,24,4,5,français,f,1,0.1,-64.48089362,1.15876737
6115892e44c1cdef81dc4902,21,0,2024-02-27T11:06:42.275Z,french_769.wav,0,pull,2193,24,4,5,français,f,2,0.2,58.9023119,1.60731332
6115892e44c1cdef81dc4902,21,0,2024-02-27T11:06:42.275Z,french_769.wav,0,pull,2193,24,4,5,français,f,3,0.3,61.12929075,1.39997134
6115892e44c1cdef81dc4902,21,0,2024-02-27T11:06:42.275Z,french_769.wav,0,pull,2193,24,4,5,français,f,4,0.4,97.98097103,0.84578271
6115892e44c1cdef81dc4902,21,0,2024-02-27T11:06:42.275Z,french_769.wav,0,pull,2193,24,4,5,français,f,5,0.5,-77.00062239,1.25139679
6115892e44c1cdef81dc4902,21,0,2024-02-27T11:06:42.275Z,french_769.wav,0,pull,2193,24,4,5,français,f,6,0.6,59.53320612,0.60224046
6115892e44c1cdef81dc4902,21,0,2024-02-27T11:06:42.275Z,french_769.wav,0,pull,2193,24,4,5,français,f,7,0.7,-14.37943066,1.04948576
6115892e44c1cdef81dc4902,21,0,2024-02-27T11:06:42.275Z,french_769.wav,0,pull,2193,24,4,5,français,f,8,0.8,75.08575961,0.62368881
6115892e44c1cdef81dc4902,21,0,2024-02-27T11:06:42.275Z,french_769.wav,0,pull,2193,24,4,5,français,f,9,0.9,-1.90306473,1.18190657
6115892e44c1cdef81dc4902,21,0,2024-02-27T11:06:42.275Z,french_769.wav,0,pull,2193,24,4,5,français,f,10,1.0,35.59710513,0.32402268
6115892e44c1cdef81dc4902,21,0,2024-02-27T11:06:42.275Z,french_769.wav,0,pull,2193,24,4,5,français,f,11,1.1,-66.64381006,0.29640924
6115892e44c1cdef81dc4902,21,0,2024-02-27T11:06:42.275Z,french_769.wav,0,pull,2193,24,4,5,français,f,12,1.14141667,-84.5225479,1.49866135
6115892e44c1cdef81dc4902,22,0,2024-02-27T11:06:42.275Z,french_288.wav,0,poule,667,24,4,5,français,f,0,0.0,-19.66271306,0.77463997
6115892e44c1cdef81dc4902,22,0,2024-02-27T11:06:42.275Z,french_288.wav,0,poule,667,24,4,5,français,f,1,0.1,-49.95319108,0.15164104
6115892e44c1cdef81dc4902,22,0,2024-02-27T11:06:42.275Z,french_288.wav,0,poule,667,24,4,5,français,f,2,0.2,55.70739253,1.45402293
6115892e44c1cdef81dc4902,22,0,2024-02-27T11:06:42.275Z,french_288.wav,0,poule,667,24,4,5,français,f,3,0.3,-47.82629408,1.49503854
6115892e44c1cdef81dc4902,22,0,2024-02-27T11:06:42.275Z,french_288.wav,0,poule,667,24,4,5,français,f,4,0.4,-30.64427182,0.10701477
6115892e44c1cdef81dc4902,22,0,2024-02-27T11:06:42.275Z,french_288.wav,0,poule,667,24,4,5,français,f,5,0.5,-54.20245769,1.1175781
6115892e44c1cdef81dc4902,22,0,2024-02-27T11:06:42.275Z,french_288.wav,0,poule,667,24,4,5,français,f,6,0.6,94.86326533,0.62210046
6115892e44c1cdef81dc4902,22,0,2024-02-27T11:06:42.275Z,french_288.wav,0,poule,667,24,4,5,français,f,7,0.7,-11.35318876,1.34496978
6115892e44c1cdef81dc4902,22,0,2024-02-27T11:06:42.275Z,french_288.wav,0,poule,667,24,4,5,français,f,8,0.8,-94.65333259,1.0681913
6115892e44c1cdef81dc4902,22,0,2024-02-27T11:06:42.275Z,french_288.wav,0,poule,667,24,4,5,français,f,9,0.9,66.72626026,0.36189635
6115892e44c1cdef81dc4902,22,0,2024-02-27T11:06:42.275Z,french_288.wav,0,poule,667,24,4,5,français,f,10,1.0,-72.10656939,1.98571959
6115892e44c1cdef81dc4902,22,0,2024-02-27T11:06:42.275Z,french_288.wav,0,poule,667,24,4,5,français,f,11,1.1,-87.02340103,1.61383771
6115892e44c1cdef81dc4902,22,0,2024-02-27T11:06:42.275Z,french_288.wav,0,poule,667,24,4,5,français,f,12,1.14141667,-20.80379815,0.2520498
6115892e44c1cdef81dc4902,23,0,2024-02-27T11:06:42.275Z,french_243.wav,0,pull,600,24,4,5,français,f,0,0.0,17.25108473,1.25365904
6115892e44c1cdef81dc4902,23,0,2024-02-27T11:06:42.275Z,french_243.wav,0,pull,600,24,4,5,français,f,1,0.1,-20.33347648,1.14169819
6115892e44c1cdef81dc4902,23,0,2024-02-27T11:06:42.275Z,french_243.wav,0,pull,600,24,4,5,français,f,2,0.2,8.25978245,1.44065481
6115892e44c1cdef81dc4902,23,0,2024-02-27T11:06:42.275Z,french_243.wav,0,pull,600,24,4,5,français,f,3,0.3,14.67718893,0.73865411
6115892e44c1cdef81dc4902,23,0,2024-02-27T11:06:42.275Z,french_243.wav,0,pull,600,24,4,5,français,f,4,0.4,3.62309164,0.87063922
6115892e44c1cdef81dc4902,23,0,2024-02-27T11:06:42.275Z,french_243.wav,0,pull,600,24,4,5,français,f,5,0.5,-26.91202001,0.18666153
6115892e44c1cdef81dc4902,23,0,2024-02-27T11:06:42.275Z,french_243.wav,0,pull,600,24,4,5,français,f,6,0.6,1.76117794,0.86837268
6115892e44c1cdef81dc4902,23,0,2024-02-27T11:06:42.275Z,french_243.wav,0,pull,600,24,4,5,français,f,7,0.7,82.78931534,0.87403497
6115892e44c1cdef81dc4902,23,0,2024-02-27T11:06:42.275Z,french_243.wav,0,pull,600,24,4,5,français,f,8,0.8,-59.58469405,1.44611176
6115892e44c1cdef81dc4902,23,0,2024-02-27T11:06:42.275Z,french_243.wav,0,pull,600,24,4,5,français,f,9,0.9,95.45283724,1.80188065
6115892e44c1cdef81dc4902,23,0,2024-02-27T11:06:42.275Z,french_243.wav,0,pull,600,24,4,5,français,f,10,1.0,-70.387836,0.07283074
6115892e44c1cdef81dc4902,23,0,2024-02-27T11:06:42.275Z,french_243.wav,0,pull,600,24,4,5,français,f,11,1.1,-1.62586928,0.30234458
6115892e44c1cdef81dc4902,23,0,2024-02-27T11:06:42.275Z,french_243.wav,0,pull,600,24,4,5,français,f,12,1.14141667,33.4744353,1.72190596
6115892e44c1cdef81dc4902,24,0,2024-02-27T11:06:42.275Z,french_640.wav,0,poule,1904,24,4,5,français,f,0,0.0,-23.23499115,0.51826373
6115892e44c1cdef81dc4902,24,0,2024-02-27T11:06:42.275Z,french_640.wav,0,poule,1904,24,4,5,français,f,1,0.1,-5.32274666,0.48541717
6115892e44c1cdef81dc4902,24,0,2024-02-27T11:06:42.275Z,french_640.wav,0,poule,1904,24,4,5,français,f,2,0.2,-26.96491629,0.32572671
6115892e44c1cdef81dc4902,24,0,2024-02-27T11:06:42.275Z,french_640.wav,0,poule,1904,24,4,5,français,f,3,0.3,-24.71578064,0.87356407
6115892e44c1cdef81dc4902,24,0,2024-02-27T11:06:42.275Z,french_640.wav,0,poule,1904,24,4,5,français,f,4,0.4,4.92396133,0.06333599
6115892e44c1cdef81dc4902,24,0,2024-02-27T11:06:42.275Z,french_640.wav,0,poule,1904,24,4,5,français,f,5,0.5,79.3437843,0.63173489
6115892e44c1cdef81dc4902,24,0,2024-02-27T11:06:42.275Z,french_640.wav,0,poule,1904,24,4,5,français,f,6,0.6,-37.35644985,0.49522912
6115892e44c1cdef81dc4902,24,0,2024-02-27T11:06:42.275Z,french_640.wav,0,poule,1904,24,4,5,français,f,7,0.7,90.7866094,1.48986997
6115892e44c1cdef81dc4902,24,0,2024-02-27T11:06:42.275Z,french_640.wav,0,poule,1904,24,4,5,français,f,8,0.8,-21.5684971,1.18308083
6115892e44c1cdef81dc4902,24,0,2024-02-27T11:06:42.275Z,french_640.wav,0,poule,1904,24,4,5,français,f,9,0.9,-3.17217866,1.04898469
6115892e44c1cdef81dc4902,24,0,2024-02-27T11:06:42.275Z,french_640.wav,0,poule,1904,24,4,5,français,f,10,1.0,-53.51075281,1.09208336
6115892e44c1cdef81dc4902,24,0,2024-02-27T11:06:42.275Z,french_640.wav,0,poule,1904,24,4,5,français,f,11,1.1,23.72364294,0.03972765
6115892e44c1cdef81dc4902,24,0,2024-02-27T11:06:42.275Z,french_640.wav,0,poule,1904,24,4,5,français,f,12,1.14141667,-59.96309897,0.83305144
6115892e44c1cdef81dc4902,25,0,2024-02-27T11:06:42.275Z,french_560.wav,0,poule,1130,24,4,5,français,f,0,0.0,-11.74144783,1.20996667
6115892e44c1cdef81dc4902,25,0,2024-02-27T11:06:42.275Z,french_560.wav,0,poule,1130,24,4,5,français,f,1,0.1,-0.35641237,0.39351598
6115892e44c1cdef81dc4902,25,0,2024-02-27T11:06:42.275Z,french_560.wav,0,poule,1130,24,4,5,français,f,2,0.2,4.21534923,0.8276889
6115892e44c1cdef81dc4902,25,0,2024-02-27T11:06:42.275Z,french_560.wav,0,poule,1130,24,4,5,français,f,3,0.3,-32.05544241,0.43459246
6115892e44c1cdef81dc4902,25,0,2024-02-27T11:06:42.275Z,french_560.wav,0,poule,1130,24,4,5,français,f,4,0.4,-88.46473304,0.34472109
6115892e44c1cdef81dc4902,25,0,2024-02-27T11:06:42.275Z,french_560.wav,0,poule,1130,24,4,5,français,f,5,0.5,-81.48556818,1.11269407
6115892e44c1cdef81dc4902,25,0,2024-02-27T11:06:42.275Z,french_560.wav,0,poule,1130,24,4,5,français,f,6,0.6,65.45345491,1.51504069
6115892e44c1cdef81dc4902,25,0,2024-02-27T11:06:42.275Z,french_560.wav,0,poule,1130,24,4,5,français,f,7,0.7,-34.34624363,1.97532041
6115892e44c1cdef81dc4902,25,0,2024-02-27T11:06:42.275Z,french_560.wav,0,poule,1130,24,4,5,français,f,8,0.8,-19.91129378,1.15858954
6115892e44c1cdef81dc4902,25,0,2024-02-27T11:06:42.275Z,french_560.wav,0,poule,1130,24,4,5,français,f,9,0.9,-91.92174427,1.16478245
6115892e44c1cdef81dc4902,25,0,2024-02-27T11:06:42.275Z,french_560.wav,0,poule,1130,24,4,5,français,f,10,1.0,-10.81219232,1.17685042
6115892e44c1cdef81dc4902,25,0,2024-02-27T11:06:42.275Z,french_560.wav,0,poule,1130,24,4,5,français,f,11,1.1,76.35325221,1.01088448
6115892e44c1cdef81dc4902,25,0,2024-02-27T11:06:42.275Z,french_560.wav,0,poule,1130,24,4,5,français,f,12,1.14141667,76.66363562,0.00977172
6115892e44c1cdef81dc4902,26,0,2024-02-27T11:06:42.275Z,french_772.wav,0,poule,1155,24,4,5,français,f,0,0.0,91.87661816,1.17079927
6115892e44c1cdef81dc4902,26,0,2024-02-27T11:06:42.275Z,french_772.wav,0,poule,1155,24,4,5,français,f,1,0.1,50.83330394,0.64172524
6115892e44c1cdef81dc4902,26,0,2024-02-27T11:06:42.275Z,french_772.wav,0,poule,1155,24,4,5,français,f,2,0.2,18.34519554,1.40609386
6115892e44c1cdef81dc4902,26,0,2024-02-27T11:06:42.275Z,french_772.wav,0,poule,1155,24,4,5,français,f,3,0.3,22.30074764,0.90388327
6115892e44c1cdef81dc4902,26,0,2024-02-27T11:06:42.275Z,french_772.wav,0,poule,1155,24,4,5,français,f,4,0.4,95.20498412,0.79397784
6115892e44c1cdef81dc4902,26,0,2024-02-27T11:06:42.275Z,french_772.wav,0,poule,1155,24,4,5,français,f,5,0.5,72.76337394,1.81598784
6115892e44c1cdef81dc4902,26,0,2024-02-27T11:06:42.275Z,french_772.wav,0,poule,1155,24,4,5,français,f,6,0.6,-55.2554668,0.92460727
6115892e44c1cdef81dc4902,26,0,2024-02-27T11:06:42.275Z,french_772.wav,0,poule,1155,24,4,5,français,f,7,0.7,40.41956934,0.47491525
6115892e44c1cdef81dc4902,26,0,2024-02-27T11:06:42.275Z,french_772.wav,0,poule,1155,24,4,5,français,f,8,0.8,33.49782038,1.81149804
6115892e44c1cdef81dc4902,26,0,2024-02-27T11:06:42.275Z,french_772.wav,0,poule,1155,24,4,5,français,f,9,0.9,54.50185549,1.46034495
6115892e44c1cdef81dc4902,26,0,2024-02-27T11:06:42.275Z,french_772.wav,0,poule,1155,24,4,5,français,f,10,1.0,97.73664267,0.9010875
6115892e44c1cdef81dc4902,26,0,2024-02-27T11:06:42.275Z,french_772.wav,0,poule,1155,24,4,5,français,f,11,1.1,-94.13406364,1.73722797
6115892e44c1cdef81dc4902,26,0,2024-02-27T11:06:42.275Z,french_772.wav,0,poule,1155,24,4,5,français,f,12,1.14141667,-2.98004272,1.32105832
6115892e44c1cdef81dc4902,27,0,2024-02-27T11:06:42.275Z,french_166.wav,0,poule,494,24,4,5,français,f,0,0.0,-22.8295336,0.98939774
6115892e44c1cdef81dc4902,27,0,2024-02-27T11:06:42.275Z,french_166.wav,0,poule,494,24,4,5,français,f,1,0.1,14.33636562,0.78908761
6115892e44c1cdef81dc4902,27,0,2024-02-27T11:06:42.275Z,french_166.wav,0,poule,494,24,4,5,français,f,2,0.2,-32.76172213,0.51317007
6115892e44c1cdef81dc4902,27,0,2024-02-27T11:06:42.275Z,french_166.wav,0,poule,494,24,4,5,français,f,3,0.3,-7.88397719,0.37283333
6115892e44c1cdef81dc4902,27,0,2024-02-27T11:06:42.275Z,french_166.wav,0,poule,494,24,4,5,français,f,4,0.4,51.92763564,1.97840198
6115892e44c1cdef81dc4902,27,0,2024-02-27T11:06:42.275Z,french_166.wav,0,poule,494,24,4,5,français,f,5,0.5,-54.54324827,0.56612573
6115892e44c1cdef81dc4902,27,0,2024-02-27T11:06:42.275Z,french_166.wav,0,poule,494,24,4,5,français,f,6,0.6,70.56273054,0.83954762
6115892e44c1cdef81dc4902,27,0,2024-02-27T11:06:42.275Z,french_166.wav,0,poule,494,24,4,5,français,f,7,0.7,-69.25364705,1.0329173
6115892e44c1cdef81dc4902,27,0,2024-02-27T11:06:42.275Z,french_166.wav,0,poule,494,24,4,5,français,f,8,0.8,-88.09425491,0.5192872
6115892e44c1cdef81dc4902,27,0,2024-02-27T11:06:42.275Z,french_166.wav,0,poule,494,24,4,5,français,f,9,0.9,14.9037885,1.44412419
6115892e44c1cdef81dc4902,27,0,2024-02-27T11:06:42.275Z,french_166.wav,0,poule,494,24,4,5,français,f,10,1.0,-87.04528153,0.95474057
6115892e44c1cdef81dc4902,27,0,2024-02-27T11:06:42.275Z,french_166.wav,0,poule,494,24,4,5,français,f,11,1.1,18.00160319,1.86178802
6115892e44c1cdef81dc4902,27,0,2024-02-27T11:06:42.275Z,french_166.wav,0,poule,494,24,4,5,français,f,12,1.14141667,52.36923677,1.07082912
6115892e44c1cdef81dc4902,28,0,2024-02-27T11:06:42.275Z,french_203.wav,0,pull,1050,24,4,5,français,f,0,0.0,52.87711121,0.93228593
6115892e44c1cdef81dc4902,28,0,2024-02-27T11:06:42.275Z,french_203.wav,0,pull,1050,24,4,5,français,f,1,0.1,-18.25420171,0.91711051
6115892e44c1cdef81dc4902,28,0,2024-02-27T11:06:42.275Z,french_203.wav,0,pull,1050,24,4,5,français,f,2,0.2,68.04441143,0.18526145
6115892e44c1cdef81dc4902,28,0,2024-02-27T11:06:42.275Z,french_203.wav,0,pull,1050,24,4,5,français,f,3,0.3,43.0636021,1.29727066
6115892e44c1cdef81dc4902,28,0,2024-02-27T11:06:42.275Z,french_203.wav,0,pull,1050,24,4,5,français,f,4,0.4,-82.26648178,1.32533086
6115892e44c1cdef81dc4902,28,0,2024-02-27T11:06:42.275Z,french_203.wav,0,pull,1050,24,4,5,français,f,5,0.5,1.65151901,1.26645136
6115892e44c1cdef81dc4902,28,0,2024-02-27T11:06:42.275Z,french_203.wav,0,pull,1050,24,4,5,français,f,6,0.6,-5.82004213,0.44624286
6115892e44c1cdef81dc4902,28,0,2024-02-27T11:06:42.275Z,french_203.wav,0,pull,1050,24,4,5,français,f,7,0.7,15.24974529,1.16965291
6115892e44c1cdef81dc4902,28,0,2024-02-27T11:06:42.275Z,french_203.wav,0,pull,1050,24,4,5,français,f,8,0.8,-23.68240686,1.35974838
6115892e44c1cdef81dc4902,28,0,2024-02-27T11:06:42.275Z,french_203.wav,0,pull,1050,24,4,5,français,f,9,0.9,-34.12669513,0.72326773
6115892e44c1cdef81dc4902,28,0,2024-02-27T11:06:42.275Z,french_203.wav,0,pull,1050,24,4,5,français,f,10,1.0,-2.95263407,0.40120792
6115892e44c1cdef81dc4902,28,0,2024-02-27T11:06:42.275Z,french_203.wav,0,pull,1050,24,4,5,français,f,11,1.1,42.22723244,0.5927827
6115892e44c1cdef81dc4902,28,0,2024-02-27T11:06:42.275Z,french_203.wav,0,pull,1050,24,4,5,français,f,12,1.14141667,-53.1932723,0.36763071
6115892e44c1cdef81dc4902,29,0,2024-02-27T11:06:42.275Z,french_977.wav,0,poule,3074,24,4,5,français,f,0,0.0,15.40856419,0.53095875
6115892e44c1cdef81dc4902,29,0,2024-02-27T11:06:42.275Z,french_977.wav,0,poule,3074,24,4,5,français,f,1,0.1,81.46805689,0.93360858
6115892e44c1cdef81dc4902,29,0,2024-02-27T11:06:42.275Z,french_977.wav,0,poule,3074,24,4,5,français,f,2,0.2,43.89308042,0.77425644
6115892e44c1cdef81dc4902,29,0,2024-02-27T11:06:42.275Z,french_977.wav,0,poule,3074,24,4,5,français,f,3,0.3,93.35037498,1.11829357
6115892e44c1cdef81dc4902,29,0,2024-02-27T11:06:42.275Z,french_977.wav,0,poule,3074,24,4,5,français,f,4,0.4,3.2681625,0.24977354
6115892e44c1cdef81dc4902,29,0,2024-02-27T11:06:42.275Z,french_977.wav,0,poule,3074,24,4,5,français,f,5,0.5,-75.88947461,0.48867473
6115892e44c1cdef81dc4902,29,0,2024-02-27T11:06:42.275Z,french_977.wav,0,poule,3074,24,4,5,français,f,6,0.6,91.13685184,1.15425488
6115892e44c1cdef81dc4902,29,0,2024-02-27T11:06:42.275Z,french_977.wav,0,poule,3074,24,4,5,français,f,7,0.7,96.09454505,1.86719302
6115892e44c1cdef81dc4902,29,0,2024-02-27T11:06:42.275Z,french_977.wav,0,poule,3074,24,4,5,français,f,8,0.8,78.17173371,0.08278745
6115892e44c1cdef81dc4902,29,0,2024-02-27T11:06:42.275Z,french_977.wav,0,poule,3074,24,4,5,français,f,9,0.9,-80.29188727,1.06191816
6115892e44c1cdef81dc4902,29,0,2024-02-27T11:06:42.275Z,french_977.wav,0,poule,3074,24,4,5,français,f,10,1.0,-46.23088213,0.26096987
6115892e44c1cdef81dc4902,29,0,2024-02-27T11:06:42.275Z,french_977.wav,0,poule,3074,24,4,5,français,f,11,1.1,89.87184488,1.26454875
6115892e44c1cdef81dc4902,29,0,2024-02-27T11:06:42.275Z,french_977.wav,0,poule,3074,24,4,5,français,f,12,1.14141667,6.68151837,1.39517251
6115892e44c1cdef81dc4902,30,0,2024-02-27T11:06:42.275Z,french_261.wav,0,poule,707,24,4,5,français,f,0,0.0,12.34576995,0.50310042
6115892e44c1cdef81dc4902,30,0,2024-02-27T11:06:42.275Z,french_261.wav,0,poule,707,24,4,5,français,f,1,0.1,25.47601384,0.25268449
6115892e44c1cdef81dc4902,30,0,2024-02-27T11:06:42.275Z,french_261.wav,0,poule,707,24,4,5,français,f,2,0.2,-67.0906301,0.7627603
6115892e44c1cdef81dc4902,30,0,2024-02-27T11:06:42.275Z,french_261.wav,0,poule,707,24,4,5,français,f,3,0.3,-13.09856908,1.52142005
6115892e44c1cdef81dc4902,30,0,2024-02-27T11:06:42.275Z,french_261.wav,0,poule,707,24,4,5,français,f,4,0.4,68.1575105,1.92904385
6115892e44c1cdef81dc4902,30,0,2024-02-27T11:06:42.275Z,french_261.wav,0,poule,707,24,4,5,français,f,5,0.5,-2.34833931,0.33812634
6115892e44c1cdef81dc4902,30,0,2024-02-27T11:06:42.275Z,french_261.wav,0,poule,707,24,4,5,français,f,6,0.6,-56.25265887,1.12365674
6115892e44c1cdef81dc4902,30,0,2024-02-27T11:06:42.275Z,french_261.wav,0,poule,707,24,4,5,français,f,7,0.7,99.24314725,0.56685205
6115892e44c1cdef81dc4902,30,0,2024-02-27T11:06:42.275Z,french_261.wav,0,poule,707,24,4,5,français,f,8,0.8,97.55208396,1.813104
6115892e44c1cdef81dc4902,30,0,2024-02-27T11:06:42.275Z,french_261.wav,0,poule,707,24,4,5,français,f,9,0.9,-44.49919777,1.56800569
6115892e44c1cdef81dc4902,30,0,2024-02-27T11:06:42.275Z,french_261.wav,0,poule,707,24,4,5,français,f,10,1.0,-9.98862023,0.34584513
6115892e44c1cdef81dc4902,30,0,2024-02-27T11:06:42.275Z,french_261.wav,0,poule,707,24,4,5,français,f,11,1.1,12.33371854,0.48440501
6115892e44c1cdef81dc4902,30,0,2024-02-27T11:06:42.275Z,french_261.wav,0,poule,707,24,4,5,français,f,12,1.14141667,0.5455691,1.72005323
6115892e44c1cdef81dc4902,31,0,2024-02-27T11:06:42.275Z,french_137.wav,0,poule,1046,24,4,5,français,f,0,0.0,13.84151074,1.03948831
6115892e44c1cdef81dc4902,31,0,2024-02-27T11:06:42.275Z,french_137.wav,0,poule,1046,24,4,5,français,f,1,0.1,30.89109092,0.10685141
6115892e44c1cdef81dc4902,31,0,2024-02-27T11:06:42.275Z,french_137.wav,0,poule,1046,24,4,5,français,f,2,0.2,6.32022174,1.61877291
6115892e44c1cdef81dc4902,31,0,2024-02-27T11:06:42.275Z,french_137.wav,0,poule,1046,24,4,5,français,f,3,0.3,-92.3031882,1.17088534
6115892e44c1cdef81dc4902,31,0,2024-02-27T11:06:42.275Z,french_137.wav,0,poule,1046,24,4,5,français,f,4,0.4,-1.61058663,0.66870039
6115892e44c1cdef81dc4902,31,0,2024-02-27T11:06:42.275Z,french_137.wav,0,poule,1046,24,4,5,français,f,5,0.5,-86.82183705,1.63827949
6115892e44c1cdef81dc4902,31,0,2024-02-27T11:06:42.275Z,french_137.wav,0,poule,1046,24,4,5,français,f,6,0.6,97.0175415,1.01305486
6115892e44c1cdef81dc4902,31,0,2024-02-27T11:06:42.275Z,french_137.wav,0,poule,1046,24,4,5,français,f,7,0.7,3.01255749,0.88385102
6115892e44c1cdef81dc4902,31,0,2024-02-27T11:06:42.275Z,french_137.wav,0,poule,1046,24,4,5,français,f,8,0.8,-19.28567494,0.46725667
6115892e44c1cdef81dc4902,31,0,2024-02-27T11:06:42.275Z,french_137.wav,0,poule,1046,24,4,5,français,f,9,0.9,83.26795694,0.62986207
6115892e44c1cdef81dc4902,31,0,2024-02-27T11:06:42.275Z,french_137.wav,0,poule,1046,24,4,5,français,f,10,1.0,57.309714,0.5153644
6115892e44c1cdef81dc4902,31,0,2024-02-27T11:06:42.275Z,french_137.wav,0,poule,1046,24,4,5,français,f,11,1.1,-65.06221701,0.6314328
6115892e44c1cdef81dc4902,31,0,2024-02-27T11:06:42.275Z,french_137.wav,0,poule,1046,24,4,5,français,f,12,1.14141667,36.56603197,1.91953491
6115892e44c1cdef81dc4902,32,0,2024-02-27T11:06:42.275Z,french_116.wav,0,poule,506,24,4,5,français,f,0,0.0,-36.99991361,0.39103735
6115892e44c1cdef81dc4902,32,0,2024-02-27T11:06:42.275Z,french_116.wav,0,poule,506,24,4,5,français,f,1,0.1,-56.50097299,0.52639994
6115892e44c1cdef81dc4902,32,0,2024-02-27T11:06:42.275Z,french_116.wav,0,poule,506,24,4,5,français,f,2,0.2,-21.98377289,0.98743434
6115892e44c1cdef81dc4902,32,0,2024-02-27T11:06:42.275Z,french_116.wav,0,poule,506,24,4,5,français,f,3,0.3,-42.03621308,1.50732894
6115892e44c1cdef81dc4902,32,0,2024-02-27T11:06:42.275Z,french_116.wav,0,poule,506,24,4,5,français,f,4,0.4,-88.55190861,0.88822468
6115892e44c1cdef81dc4902,32,0,2024-02-27T11:06:42.275Z,french_116.wav,0,poule,506,24,4,5,français,f,5,0.5,-46.74535713,0.3631577
6115892e44c1cdef81dc4902,32,0,2024-02-27T11:06:42.275Z,french_116.wav,0,poule,506,24,4,5,français,f,6,0.6,39.6792949,0.09954352
6115892e44c1cdef81dc4902,32,0,2024-02-27T11:06:42.275Z,french_116.wav,0,poule,506,24,4,5,français,f,7,0.7,23.11771823,1.92445485
6115892e44c1cdef81dc4902,32,0,2024-02-27T11:06:42.275Z,french_116.wav,0,poule,506,24,4,5,français,f,8,0.8,-83.67169345,0.86818207
6115892e44c1cdef81dc4902,32,0,2024-02-27T11:06:42.275Z,french_116.wav,0,poule,506,24,4,5,français,f,9,0.9,-59.64205598,0.94464096
6115892e44c1cdef81dc4902,32,0,2024-02-27T11:06:42.275Z,french_116.wav,0,poule,506,24,4,5,français,f,10,1.0,83.70320104,1.65962345
6115892e44c1cdef81dc4902,32,0,2024-02-27T11:06:42.275Z,french_116.wav,0,poule,506,24,4,5,français,f,11,1.1,-55.10526953,0.87989703
6115892e44c1cdef81dc4902,32,0,2024-02-27T11:06:42.275Z,french_116.wav,0,poule,506,24,4,5,français,f,12,1.14141667,83.73638058,1.38818871
6115892e44c1cdef81dc4902,33,0,2024-02-27T11:06:42.275Z,french_702.wav,0,poule,479,24,4,5,français,f,0,0.0,26.32047113,0.49645865
6115892e44c1cdef81dc4902,33,0,2024-02-27T11:06:42.275Z,french_702.wav,0,poule,479,24,4,5,français,f,1,0.1,33.56503539,1.57950196
6115892e44c1cdef81dc4902,33,0,2024-02-27T11:06:42.275Z,french_702.wav,0,poule,479,24,4,5,français,f,2,0.2,-13.32899181,1.71930356
6115892e44c1cdef81dc4902,33,0,2024-02-27T11:06:42.275Z,french_702.wav,0,poule,479,24,4,5,français,f,3,0.3,-92.77430448,0.44513477
6115892e44c1cdef81dc4902,33,0,2024-02-27T11:06:42.275Z,french_702.wav,0,poule,479,24,4,5,français,f,4,0.4,55.50813545,0.90179218
6115892e44c1cdef81dc4902,33,0,2024-02-27T11:06:42.275Z,french_702.wav,0,poule,479,24,4,5,français,f,5,0.5,-64.42128049,1.66921342
6115892e44c1cdef81dc4902,33,0,2024-02-27T11:06:42.275Z,french_702.wav,0,poule,479,24,4,5,français,f,6,0.6,-93.19419433,0.28360175
6115892e44c1cdef81dc4902,33,0,2024-02-27T11:06:42.275Z,french_702.wav,0,poule,479,24,4,5,français,f,7,0.7,47.86603083,1.17825667
6115892e44c1cdef81dc4902,33,0,2024-02-27T11:06:42.275Z,french_702.wav,0,poule,479,24,4,5,français,f,8,0.8,2.57404089,1.90745253
6115892e44c1cdef81dc4902,33,0,2024-02-27T11:06:42.275Z,french_702.wav,0,poule,479,24,4,5,français,f,9,0.9,8.38316132,1.47535418
6115892e44c1cdef81dc4902,33,0,2024-02-27T11:06:42.275Z,french_702.wav,0,poule,479,24,4,5,français,f,10,1.0,27.09531385,1.20087323
6115892e44c1cdef81dc4902,33,0,2024-02-27T11:06:42.275Z,french_702.wav,0,poule,479,24,4,5,français,f,11,1.1,53.99806352,1.42749806
6115892e44c1cdef81dc4902,33,0,2024-02-27T11:06:42.275Z,french_702.wav,0,poule,479,24,4,5,français,f,12,1.14141667,-2.40011534,0.48284837
6115892e44c1cdef81dc4902,34,0,2024-02-27T11:06:42.275Z,french_929.wav,0,poule,579,24,4,5,français,f,0,0.0,0.19628559,1.2735275
6115892e44c1cdef81dc4902,34,0,2024-02-27T11:06:42.275Z,french_929.wav,0,poule,579,24,4,5,français,f,1,0.1,-65.19269942,1.04239801
6115892e44c1cdef81dc4902,34,0,2024-02-27T11:06:42.275Z,french_929.wav,0,poule,579,24,4,5,français,f,2,0.2,85.79365551,1.14016966
6115892e44c1cdef81dc4902,34,0,2024-02-27T11:06:42.275Z,french_929.wav,0,poule,579,24,4,5,français,f,3,0.3,-49.06561831,1.26076885
6115892e44c1cdef81dc4902,34,0,2024-02-27T11:06:42.275Z,french_929.wav,0,poule,579,24,4,5,français,f,4,0.4,-14.51529051,1.79864451
6115892e44c1cdef81dc4902,34,0,2024-02-27T11:06:42.275Z,french_929.wav,0,poule,579,24,4,5,français,f,5,0.5,-95.48834235,0.45349568
6115892e44c1cdef81dc4902,34,0,2024-02-27T11:06:42.275Z,french_929.wav,0,poule,579,24,4,5,français,f,6,0.6,-33.23898354,0.33561818
6115892e44c1cdef81dc4902,34,0,2024-02-27T11:06:42.275Z,french_929.wav,0,poule,579,24,4,5,français,f,7,0.7,41.75408234,0.17319501
6115892e44c1cdef81dc4902,34,0,2024-02-27T11:06:42.275Z,french_929.wav,0,poule,579,24,4,5,français,f,8,0.8,37.64227738,1.78715813
6115892e44c1cdef81dc4902,34,0,2024-02-27T11:06:42.275Z,french_929.wav,0,poule,579,24,4,5,français,f,9,0.9,-32.44919392,1.8240929
6115892e44c1cdef81dc4902,34,0,2024-02-27T11:06:42.275Z,french_929.wav,0,poule,579,24,4,5,français,f,10,1.0,89.54900566,1.61299985
6115892e44c1cdef81dc4902,34,0,2024-02-27T11:06:42.275Z,french_929.wav,0,poule,579,24,4,5,français,f,11,1.1,-65.51395412,1.74226988
6115892e44c1cdef81dc4902,34,0,2024-02-27T11:06:42.275Z,french_929.wav,0,poule,579,24,4,5,français,f,12,1.14141667,73.05695709,1.79803329
6115892e44c1cdef81dc4902,35,0,2024-02-27T11:06:42.275Z,french_815.wav,0,poule,995,24,4,5,français,f,0,0.0,43.47811109,1.27638717
6115892e44c1cdef81dc4902,35,0,2024-02-27T11:06:42.275Z,french_815.wav,0,poule,995,24,4,5,français,f,1,0.1,-39.69317674,1.25031866
6115892e44c1cdef81dc4902,35,0,2024-02-27T11:06:42.275Z,french_815.wav,0,poule,995,24,4,5,français,f,2,0.2,70.70027906,0.78335521
6115892e44c1cdef81dc4902,35,0,2024-02-27T11:06:42.275Z,french_815.wav,0,poule,995,24,4,5,français,f,3,0.3,-4.04220679,1.7307952
6115892e44c1cdef81dc4902,35,0,2024-02-27T11:06:42.275Z,french_815.wav,0,poule,995,24,4,5,français,f,4,0.4,77.25732101,1.69406415
6115892e44c1cdef81dc4902,35,0,2024-02-27T11:06:42.275Z,french_815.wav,0,poule,995,24,4,5,français,f,5,0.5,-48.82932979,1.17209267
6115892e44c1cdef81dc4902,35,0,2024-02-27T11:06:42.275Z,french_815.wav,0,poule,995,24,4,5,français,f,6,0.6,14.54543285,1.23520838
6115892e44c1cdef81dc4902,35,0,2024-02-27T11:06:42.275Z,french_815.wav,0,poule,995,24,4,5,français,f,7,0.7,23.58613037,0.19395841
6115892e44c1cdef81dc4902,35,0,2024-02-27T11:06:42.275Z,french_815.wav,0,poule,995,24,4,5,français,f,8,0.8,11.08048431,1.25730834
6115892e44c1cdef81dc4902,35,0,2024-02-27T11:06:42.275Z,french_815.wav,0,poule,995,24,4,5,français,f,9,0.9,11.05185943,1.56641554
6115892e44c1cdef81dc4902,35,0,2024-02-27T11:06:42.275Z,french_815.wav,0,poule,995,24,4,5,français,f,10,1.0,49.96011954,0.33329842
6115892e44c1cdef81dc4902,35,0,2024-02-27T11:06:42.275Z,french_815.wav,0,poule,995,24,4,5,français,f,11,1.1,-42.44433744,1.48663226
6115892e44c1cdef81dc4902,35,0,2024-02-27T11:06:42.275Z,french_815.wav,0,poule,995,24,4,5,français,f,12,1.14141667,-96.60163856,0.56490633
6115892e44c1cdef81dc4902,36,0,2024-02-27T11:06:42.275Z,french_827.wav,0,poule,918,24,4,5,français,f,0,0.0,47.61901084,0.78776038
6115892e44c1cdef81dc4902,36,0,2024-02-27T11:06:42.275Z,french_827.wav,0,poule,918,24,4,5,français,f,1,0.1,-12.46162853,1.19255922
6115892e44c1cdef81dc4902,36,0,2024-02-27T11:06:42.275Z,french_827.wav,0,poule,918,24,4,5,français,f,2,0.2,80.2031215,0.63498127
6115892e44c1cdef81dc4902,36,0,2024-02-27T11:06:42.275Z,french_827.wav,0,poule,918,24,4,5,français,f,3,0.3,-17.58711111,0.79514732
6115892e44c1cdef81dc4902,36,0,2024-02-27T11:06:42.275Z,french_827.wav,0,poule,918,24,4,5,français,f,4,0.4,-42.97148834,0.7219145
6115892e44c1cdef81dc4902,36,0,2024-02-27T11:06:42.275Z,french_827.wav,0,poule,918,24,4,5,français,f,5,0.5,91.5700687,0.23829121
6115892e44c1cdef81dc4902,36,0,2024-02-27T11:06:42.275Z,french_827.wav,0,poule,918,24,4,5,français,f,6,0.6,73.27406728,0.56077431
6115892e44c1cdef81dc4902,36,0,2024-02-27T11:06:42.275Z,french_827.wav,0,poule,918,24,4,5,français,f,7,0.7,-33.8931301,1.6060627
6115892e44c1cdef81dc4902,36,0,2024-02-27T11:06:42.275Z,french_827.wav,0,poule,918,24,4,5,français,f,8,0.8,-11.46118568,0.93017276
6115892e44c1cdef81dc4902,36,0,2024-02-27T11:06:42.275Z,french_827.wav,0,poule,918,24,4,5,français,f,9,0.9,24.73344969,1.70918062
6115892e44c1cdef81dc4902,36,0,2024-02-27T11:06:42.275Z,french_827.wav,0,poule,918,24,4,5,français,f,10,1.0,15.31350424,0.85960328
6115892e44c1cdef81dc4902,36,0,2024-02-27T11:06:42.275Z,french_827.wav,0,poule,918,24,4,5,français,f,11,1.1,-53.93717893,0.88873758
6115892e44c1cdef81dc4902,36,0,2024-02-27T11:06:42.275Z,french_827.wav,0,poule,918,24,4,5,français,f,12,1.14141667,7.58981219,0.97933267
6115892e44c1cdef81dc4902,37,0,2024-02-27T11:06:42.275Z,french_50.wav,0,pull,1287,24,4,5,français,f,0,0.0,-7.01386319,1.47331584
6115892e44c1cdef81dc4902,37,0,2024-02-27T11:06:42.275Z,french_50.wav,0,pull,1287,24,4,5,français,f,1,0.1,53.48395865,1.04351856
6115892e44c1cdef81dc4902,37,0,2024-02-27T11:06:42.275Z,french_50.wav,0,pull,1287,24,4,5,français,f,2,0.2,-12.28351801,1.7377743
6115892e44c1cdef81dc4902,37,0,2024-02-27T11:06:42.275Z,french_50.wav,0,pull,1287,24,4,5,français,f,3,0.3,-93.76617938,0.97170395
6115892e44c1cdef81dc4902,37,0,2024-02-27T11:06:42.275Z,french_50.wav,0,pull,1287,24,4,5,français,f,4,0.4,-12.0195374,0.90437843
6115892e44c1cdef81dc4902,37,0,2024-02-27T11:06:42.275Z,french_50.wav,0,pull,1287,24,4,5,français,f,5,0.5,-56.59793281,1.6913567
6115892e44c1cdef81dc4902,37,0,2024-02-27T11:06:42.275Z,french_50.wav,0,pull,1287,24,4,5,français,f,6,0.6,20.61032162,1.252974
6115892e44c1cdef81dc4902,37,0,2024-02-27T11:06:42.275Z,french_50.wav,0,pull,1287,24,4,5,français,f,7,0.7,-1.26901238,0.73770227
6115892e44c1cdef81dc4902,37,0,2024-02-27T11:06:42.275Z,french_50.wav,0,pull,1287,24,4,5,français,f,8,0.8,-30.12626637,0.35408486
6115892e44c1cdef81dc4902,37,0,2024-02-27T11:06:42.275Z,french_50.wav,0,pull,1287,24,4,5,français,f,9,0.9,86.80795076,0.05135998
6115892e44c1cdef81dc4902,37,0,2024-02-27T11:06:42.275Z,french_50.wav,0,pull,1287,24,4,5,français,f,10,1.0,21.12391045,1.97752086
6115892e44c1cdef81dc4902,37,0,2024-02-27T11:06:42.275Z,french_50.wav,0,pull,1287,24,4,5,français,f,11,1.1,72.85975875,1.25509602
6115892e44c1cdef81dc4902,37,0,2024-02-27T11:06:42.275Z,french_50.wav,0,pull,1287,24,4,5,français,f,12,1.14141667,-11.76225522,0.5303538
6115892e44c1cdef81dc4902,38,0,2024-02-27T11:06:42.275Z,french_728.wav,0,poule,510,24,4,5,français,f,0,0.0,36.19394602,0.36420395
6115892e44c1cdef81dc4902,38,0,2024-02-27T11:06:42.275Z,french_728.wav,0,poule,510,24,4,5,français,f,1,0.1,-73.58017585,0.94822328
6115892e44c1cdef81dc4902,38,0,2024-02-27T11:06:42.275Z,french_728.wav,0,poule,510,24,4,5,français,f,2,0.2,-13.60840916,1.96438719
6115892e44c1cdef81dc4902,38,0,2024-02-27T11:06:42.275Z,french_728.wav,0,poule,510,24,4,5,français,f,3,0.3,59.53237068,0.75518897
6115892e44c1cdef81dc4902,38,0,2024-02-27T11:06:42.275Z,french_728.wav,0,poule,510,24,4,5,français,f,4,0.4,-6.38475955,1.08379747
6115892e44c1cdef81dc4902,38,0,2024-02-27T11:06:42.275Z,french_728.wav,0,poule,510,24,4,5,français,f,5,0.5,-32.17285733,0.48742841
6115892e44c1cdef81dc4902,38,0,2024-02-27T11:06:42.275Z,french_728.wav,0,poule,510,24,4,5,français,f,6,0.6,19.92579679,1.13498694
6115892e44c1cdef81dc4902,38,0,2024-02-27T11:06:42.275Z,french_728.wav,0,poule,510,24,4,5,français,f,7,0.7,78.69154245,0.24377884
6115892e44c1cdef81dc4902,38,0,2024-02-27T11:06:42.275Z,french_728.wav,0,poule,510,24,4,5,français,f,8,0.8,-81.82481124,0.82900777
6115892e44c1cdef81dc4902,38,0,2024-02-27T11:06:42.275Z,french_728.wav,0,poule,510,24,4,5,français,f,9,0.9,83.13379327,1.92330551
6115892e44c1cdef81dc4902,38,0,2024-02-27T11:06:42.275Z,french_728.wav,0,poule,510,24,4,5,français,f,10,1.0,-52.25888881,1.47531987
6115892e44c1cdef81dc4902,38,0,2024-02-27T11:06:42.275Z,french_728.wav,0,poule,510,24,4,5,français,f,11,1.1,-24.90356469,1.48816537
6115892e44c1cdef81dc4902,38,0,2024-02-27T11:06:42.275Z,french_728.wav,0,poule,510,24,4,5,français,f,12,1.14141667,-29.75125127,0.68517296
6115892e44c1cdef81dc4902,39,0,2024-02-27T11:06:42.275Z,french_695.wav,0,poule,526,24,4,5,français,f,0,0.0,91.03645015,1.97576794
6115892e44c1cdef81dc4902,39,0,2024-02-27T11:06:42.275Z,french_695.wav,0,poule,526,24,4,5,français,f,1,0.1,-17.31714147,1.557192
6115892e44c1cdef81dc4902,39,0,2024-02-27T11:06:42.275Z,french_695.wav,0,poule,526,24,4,5,français,f,2,0.2,-14.58014364,1.20817895
6115892e44c1cdef81dc4902,39,0,2024-02-27T11:06:42.275Z,french_695.wav,0,poule,526,24,4,5,français,f,3,0.3,-18.9204461,0.21789238
6115892e44c1cdef81dc4902,39,0,2024-02-27T11:06:42.275Z,french_695.wav,0,poule,526,24,4,5,français,f,4,0.4,46.57979365,1.60794008
6115892e44c1cdef81dc4902,39,0,2024-02-27T11:06:42.275Z,french_695.wav,0,poule,526,24,4,5,français,f,5,0.5,-90.24090986,0.78145158
6115892e44c1cdef81dc4902,39,0,2024-02-27T11:06:42.275Z,french_695.wav,0,poule,526,24,4,5,français,f,6,0.6,-0.59110837,1.16957278
6115892e44c1cdef81dc4902,39,0,2024-02-27T11:06:42.275Z,french_695.wav,0,poule,526,24,4,5,français,f,7,0.7,-10.88951476,0.74913415
6115892e44c1cdef81dc4902,39,0,2024-02-27T11:06:42.275Z,french_695.wav,0,poule,526,24,4,5,français,f,8,0.8,-12.64634725,0.14772287
6115892e44c1cdef81dc4902,39,0,2024-02-27T11:06:42.275Z,french_695.wav,0,poule,526,24,4,5,français,f,9,0.9,93.12439983,1.44178523
6115892e44c1cdef81dc4902,39,0,2024-02-27T11:06:42.275Z,french_695.wav,0,poule,526,24,4,5,français,f,10,1.0,-53.03412878,1.23628709
6115892e44c1cdef81dc4902,39,0,2024-02-27T11:06:42.275Z,french_695.wav,0,poule,526,24,4,5,français,f,11,1.1,-32.6093433,1.71888582
6115892e44c1cdef81dc4902,39,0,2024-02-27T11:06:42.275Z,french_695.wav,0,poule,526,24,4,5,français,f,12,1.14141667,-33.49594962,0.08672386
6115892e44c1cdef81dc4902,40,0,2024-02-27T11:06:42.275Z,french_196.wav,0,poule,636,24,4,5,français,f,0,0.0,19.92156454,1.45115921
6115892e44c1cdef81dc4902,40,0,2024-02-27T11:06:42.275Z,french_196.wav,0,poule,636,24,4,5,français,f,1,0.1,50.3730524,1.233132
6115892e44c1cdef81dc4902,40,0,2024-02-27T11:06:42.275Z,french_196.wav,0,poule,636,24,4,5,français,f,2,0.2,-54.66048992,0.22337845
6115892e44c1cdef81dc4902,40,0,2024-02-27T11:06:42.275Z,french_196.wav,0,poule,636,24,4,5,français,f,3,0.3,-16.36439953,1.17450645
6115892e44c1cdef81dc4902,40,0,2024-02-27T11:06:42.275Z,french_196.wav,0,poule,636,24,4,5,français,f,4,0.4,-49.37215717,0.22096997
6115892e44c1cdef81dc4902,40,0,2024-02-27T11:06:42.275Z,french_196.wav,0,poule,636,24,4,5,français,f,5,0.5,73.44732269,0.81463121
6115892e44c1cdef81dc4902,40,0,2024-02-27T11:06:42.275Z,french_196.wav,0,poule,636,24,4,5,français,f,6,0.6,-10.57047355,0.94935983
6115892e44c1cdef81dc4902,40,0,2024-02-27T11:06:42.275Z,french_196.wav,0,poule,636,24,4,5,français,f,7,0.7,-59.11422478,0.41223091
6115892e44c1cdef81dc4902,40,0,2024-02-27T11:06:42.275Z,french_196.wav,0,poule,636,24,4,5,français,f,8,0.8,-87.00574954,0.73586656
6115892e44c1cdef81dc4902,40,0,2024-02-27T11:06:42.275Z,french_196.wav,0,poule,636,24,4,5,français,f,9,0.9,-41.42714545,0.4661352
6115892e44c1cdef81dc4902,40,0,2024-02-27T11:06:42.275Z,french_196.wav,0,poule,636,24,4,5,français,f,10,1.0,-3.65633153,0.31390173
6115892e44c1cdef81dc4902,40,0,2024-02-27T11:06:42.275Z,french_196.wav,0,poule,636,24,4,5,français,f,11,1.1,-26.0043808,1.50812992
6115892e44c1cdef81dc4902,40,0,2024-02-27T11:06:42.275Z,french_196.wav,0,poule,636,24,4,5,français,f,12,1.14141667,10.36886233,1.08431252
6115892e44c1cdef81dc4902,41,0,2024-02-27T11:06:42.275Z,french_636.wav,0,poule,947,24,4,5,français,f,0,0.0,-16.56410436,1.61556097
6115892e44c1cdef81dc4902,41,0,2024-02-27T11:06:42.275Z,french_636.wav,0,poule,947,24,4,5,français,f,1,0.1,70.24595691,0.49219237
6115892e44c1cdef81dc4902,41,0,2024-02-27T11:06:42.275Z,french_636.wav,0,poule,947,24,4,5,français,f,2,0.2,-51.74354505,1.30301808
6115892e44c1cdef81dc4902,41,0,2024-02-27T11:06:42.275Z,french_636.wav,0,poule,947,24,4,5,français,f,3,0.3,88.13406423,0.4471679
6115892e44c1cdef81dc4902,41,0,2024-02-27T11:06:42.275Z,french_636.wav,0,poule,947,24,4,5,français,f,4,0.4,-0.4732484,1.50761006
6115892e44c1cdef81dc4902,41,0,2024-02-27T11:06:42.275Z,french_636.wav,0,poule,947,24,4,5,français,f,5,0.5,57.62411687,1.5251536
6115892e44c1cdef81dc4902,41,0,2024-02-27T11:06:42.275Z,french_636.wav,0,poule,947,24,4,5,français,f,6,0.6,-36.50720668,1.12576917
6115892e44c1cdef81dc4902,41,0,2024-02-27T11:06:42.275Z,french_636.wav,0,poule,947,24,4,5,français,f,7,0.7,-7.60494341,0.79071462
6115892e44c1cdef81dc4902,41,0,2024-02-27T11:06:42.275Z,french_636.wav,0,poule,947,24,4,5,français,f,8,0.8,51.63976734,0.38242199
6115892e44c1cdef81dc4902,41,0,2024-02-27T11:06:42.275Z,french_636.wav,0,poule,947,24,4,5,français,f,9,0.9,-88.08154498,0.44977354
6115892e44c1cdef81dc4902,41,0,2024-02-27T11:06:42.275Z,french_636.wav,0,poule,947,24,4,5,français,f,10,1.0,-37.98759851,1.56154847
6115892e44c1cdef81dc4902,41,0,2024-02-27T11:06:42.275Z,french_636.wav,0,poule,947,24,4,5,français,f,11,1.1,1.76185322,1.40608087
6115892e44c1cdef81dc4902,41,0,2024-02-27T11:06:42.275Z,french_636.wav,0,poule,947,24,4,5,français,f,12,1.14141667,-25.89498673,0.18702721
6115892e44c1cdef81dc4902,42,0,2024-02-27T11:06:42.275Z,french_538.wav,0,poule,543,24,4,5,français,f,0,0.0,20.57677794,1.38711038
6115892e44c1cdef81dc4902,42,0,2024-02-27T11:06:42.275Z,french_538.wav,0,poule,543,24,4,5,français,f,1,0.1,-39.61392236,0.72793815
6115892e44c1cdef81dc4902,42,0,2024-02-27T11:06:42.275Z,french_538.wav,0,poule,543,24,4,5,français,f,2,0.2,-45.04759687,0.58138665
6115892e44c1cdef81dc4902,42,0,2024-02-27T11:06:42.275Z,french_538.wav,0,poule,543,24,4,5,français,f,3,0.3,13.02336847,0.36012253
6115892e44c1cdef81dc4902,42,0,2024-02-27T11:06:42.275Z,french_538.wav,0,poule,543,24,4,5,français,f,4,0.4,90.60925013,1.75461796
6115892e44c1cdef81dc4902,42,0,2024-02-27T11:06:42.275Z,french_538.wav,0,poule,543,24,4,5,français,f,5,0.5,-75.04739637,0.9845207
6115892e44c1cdef81dc4902,42,0,2024-02-27T11:06:42.275Z,french_538.wav,0,poule,543,24,4,5,français,f,6,0.6,-17.92101924,1.10875334
6115892e44c1cdef81dc4902,42,0,2024-02-27T11:06:42.275Z,french_538.wav,0,poule,543,24,4,5,français,f,7,0.7,-84.21353272,1.78005401
6115892e44c1cdef81dc4902,42,0,2024-02-27T11:06:42.275Z,french_538.wav,0,poule,543,24,4,5,français,f,8,0.8,47.2379497,0.26796674
6115892e44c1cdef81dc4902,42,0,2024-02-27T11:06:42.275Z,french_538.wav,0,poule,543,24,4,5,français,f,9,0.9,-5.11712126,0.97835653
6115892e44c1cdef81dc4902,42,0,2024-02-27T11:06:42.275Z,french_538.wav,0,poule,543,24,4,5,français,f,10,1.0,-51.87175563,1.7494376
6115892e44c1cdef81dc4902,42,0,2024-02-27T11:06:42.275Z,french_538.wav,0,poule,543,24,4,5,français,f,11,1.1,-23.54809706,0.19527395
6115892e44c1cdef81dc4902,42,0,2024-02-27T11:06:42.275Z,french_538.wav,0,poule,543,24,4,5,français,f,12,1.14141667,-19.60047968,0.35274247
6115892e44c1cdef81dc4902,43,0,2024-02-27T11:06:42.275Z,french_89.wav,0,poule,497,24,4,5,français,f,0,0.0,66.45714599,1.99246972
6115892e44c1cdef81dc4902,43,0,2024-02-27T11:06:42.275Z,french_89.wav,0,poule,497,24,4,5,français,f,1,0.1,-43.91073727,1.14692892
6115892e44c1cdef81dc4902,43,0,2024-02-27T11:06:42.275Z,french_89.wav,0,poule,497,24,4,5,français,f,2,0.2,38.18454175,0.69182846
6115892e44c1cdef81dc4902,43,0,2024-02-27T11:06:42.275Z,french_89.wav,0,poule,497,24,4,5,français,f,3,0.3,12.76341897,0.36850309
6115892e44c1cdef81dc4902,43,0,2024-02-27T11:06:42.275Z,french_89.wav,0,poule,497,24,4,5,français,f,4,0.4,-28.97123442,0.8209905
6115892e44c1cdef81dc4902,43,0,2024-02-27T11:06:42.275Z,french_89.wav,0,poule,497,24,4,5,français,f,5,0.5,-77.22066985,1.22421195
6115892e44c1cdef81dc4902,43,0,2024-02-27T11:06:42.275Z,french_89.wav,0,poule,497,24,4,5,français,f,6,0.6,15.72584642,0.90867746
6115892e44c1cdef81dc4902,43,0,2024-02-27T11:06:42.275Z,french_89.wav,0,poule,497,24,4,5,français,f,7,0.7,-81.27571941,1.53760429
6115892e44c1cdef81dc4902,43,0,2024-02-27T11:06:42.275Z,french_89.wav,0,poule,497,24,4,5,français,f,8,0.8,31.32588377,1.94244475
6115892e44c1cdef81dc4902,43,0,2024-02-27T11:06:42.275Z,french_89.wav,0,poule,497,24,4,5,français,f,9,0.9,5.46961873,0.96701139
6115892e44c1cdef81dc4902,43,0,2024-02-27T11:06:42.275Z,french_89.wav,0,poule,497,24,4,5,français,f,10,1.0,4.85385368,1.58743517
6115892e44c1cdef81dc4902,43,0,2024-02-27T11:06:42.275Z,french_89.wav,0,poule,497,24,4,5,français,f,11,1.1,35.12567761,1.46146622
6115892e44c1cdef81dc4902,43,0,2024-02-27T11:06:42.275Z,french_89.wav,0,poule,497,24,4,5,français,f,12,1.14141667,-3.62363786,1.20579233
6115892e44c1cdef81dc4902,44,0,2024-02-27T11:06:42.275Z,french_419.wav,0,poule,416,24,4,5,français,f,0,0.0,40.58520075,0.58190194
6115892e44c1cdef81dc4902,44,0,2024-02-27T11:06:42.275Z,french_419.wav,0,poule,416,24,4,5,français,f,1,0.1,70.57222365,0.48424411
6115892e44c1cdef81dc4902,44,0,2024-02-27T11:06:42.275Z,french_419.wav,0,poule,416,24,4,5,français,f,2,0.2,69.27547246,1.14946849
6115892e44c1cdef81dc4902,44,0,2024-02-27T11:06:42.275Z,french_419.wav,0,poule,416,24,4,5,français,f,3,0.3,13.01026316,1.05002848
6115892e44c1cdef81dc4902,44,0,2024-02-27T11:06:42.275Z,french_419.wav,0,poule,416,24,4,5,français,f,4,0.4,-86.96432775,0.56529053
6115892e44c1cdef81dc4902,44,0,2024-02-27T11:06:42.275Z,french_419.wav,0,poule,416,24,4,5,français,f,5,0.5,-28.12777227,1.42245746
6115892e44c1cdef81dc4902,44,0,2024-02-27T11:06:42.275Z,french_419.wav,0,poule,416,24,4,5,français,f,6,0.6,-77.3052971,0.39921231
6115892e44c1cdef81dc4902,44,0,2024-02-27T11:06:42.275Z,french_419.wav,0,poule,416,24,4,5,français,f,7,0.7,-4.39988688,0.67389644
6115892e44c1cdef81dc4902,44,0,2024-02-27T11:06:42.275Z,french_419.wav,0,poule,416,24,4,5,français,f,8,0.8,-13.43420627,0.69782841
6115892e44c1cdef81dc4902,44,0,2024-02-27T11:06:42.275Z,french_419.wav,0,poule,416,24,4,5,français,f,9,0.9,-18.15540347,1.51600011
6115892e44c1cdef81dc4902,44,0,2024-02-27T11:06:42.275Z,french_419.wav,0,poule,416,24,4,5,français,f,10,1.0,-15.3428643,0.91352501
6115892e44c1cdef81dc4902,44,0,2024-02-27T11:06:42.275Z,french_419.wav,0,poule,416,24,4,5,français,f,11,1.1,-79.03113674,1.39266727
6115892e44c1cdef81dc4902,44,0,2024-02-27T11:06:42.275Z,french_419.wav,0,poule,416,24,4,5,français,f,12,1.14141667,-15.39593272,0.36520872
6115892e44c1cdef81dc4902,45,0,2024-02-27T11:06:42.275Z,french_984.wav,0,poule,353,24,4,5,français,f,0,0.0,-17.38025619,1.73327214
6115892e44c1cdef81dc4902,45,0,2024-02-27T11:06:42.275Z,french_984.wav,0,poule,353,24,4,5,français,f,1,0.1,-19.07620661,0.89289922
6115892e44c1cdef81dc4902,45,0,2024-02-27T11:06:42.275Z,french_984.wav,0,poule,353,24,4,5,français,f,2,0.2,86.46381691,1.96255145
6115892e44c1cdef81dc4902,45,0,2024-02-27T11:06:42.275Z,french_984.wav,0,poule,353,24,4,5,français,f,3,0.3,43.70120355,0.81680833
6115892e44c1cdef81dc4902,45,0,2024-02-27T11:06:42.275Z,french_984.wav,0,poule,353,24,4,5,français,f,4,0.4,51.14481307,0.47713757
6115892e44c1cdef81dc4902,45,0,2024-02-27T11:06:42.275Z,french_984.wav,0,poule,353,24,4,5,français,f,5,0.5,-82.44211059,0.6602306
6115892e44c1cdef81dc4902,45,0,2024-02-27T11:06:42.275Z,french_984.wav,0,poule,353,24,4,5,français,f,6,0.6,-70.79413604,0.62785035
6115892e44c1cdef81dc4902,45,0,2024-02-27T11:06:42.275Z,french_984.wav,0,poule,353,24,4,5,français,f,7,0.7,82.20250901,1.08845655
6115892e44c1cdef81dc4902,45,0,2024-02-27T11:06:42.275Z,french_984.wav,0,poule,353,24,4,5,français,f,8,0.8,32.28810594,1.84516423
6115892e44c1cdef81dc4902,45,0,2024-02-27T11:06:42.275Z,french_984.wav,0,poule,353,24,4,5,français,f,9,0.9,96.83082958,1.6910223
6115892e44c1cdef81dc4902,45,0,2024-02-27T11:06:42.275Z,french_984.wav,0,poule,353,24,4,5,français,f,10,1.0,-89.86154654,1.72477601
6115892e44c1cdef81dc4902,45,0,2024-02-27T11:06:42.275Z,french_984.wav,0,poule,353,24,4,5,français,f,11,1.1,76.92233823,0.65480949
6115892e44c1cdef81dc4902,45,0,2024-02-27T11:06:42.275Z,french_984.wav,0,poule,353,24,4,5,français,f,12,1.14141667,4.44348411,0.96028491
6115892e44c1cdef81dc4902,46,0,2024-02-27T11:06:42.275Z,french_748.wav,0,poule,451,24,4,5,français,f,0,0.0,21.06287569,1.43701335
6115892e44c1cdef81dc4902,46,0,2024-02-27T11:06:42.275Z,french_748.wav,0,poule,451,24,4,5,français,f,1,0.1,15.36105543,1.59777978
6115892e44c1cdef81dc4902,46,0,2024-02-27T11:06:42.275Z,french_748.wav,0,poule,451,24,4,5,français,f,2,0.2,-30.59586006,0.73016849
6115892e44c1cdef81dc4902,46,0,2024-02-27T11:06:42.275Z,french_748.wav,0,poule,451,24,4,5,français,f,3,0.3,79.94920558,0.61979898
6115892e44c1cdef81dc4902,46,0,2024-02-27T11:06:42.275Z,french_748.wav,0,poule,451,24,4,5,français,f,4,0.4,-61.07313039,0.89579179
6115892e44c1cdef81dc4902,46,0,2024-02-27T11:06:42.275Z,french_748.wav,0,poule,451,24,4,5,français,f,5,0.5,-45.04655322,0.56474332
6115892e44c1cdef81dc4902,46,0,2024-02-27T11:06:42.275Z,french_748.wav,0,poule,451,24,4,5,français,f,6,0.6,-50.58543561,1.20782806
6115892e44c1cdef81dc4902,46,0,2024-02-27T11:06:42.275Z,french_748.wav,0,poule,451,24,4,5,français,f,7,0.7,1.01417539,0.1338859
6115892e44c1cdef81dc4902,46,0,2024-02-27T11:06:42.275Z,french_748.wav,0,poule,451,24,4,5,français,f,8,0.8,-5.64267087,0.84409368
6115892e44c1cdef81dc4902,46,0,2024-02-27T11:06:42.275Z,french_748.wav,0,poule,451,24,4,5,français,f,9,0.9,-45.78723347,0.94921143
6115892e44c1cdef81dc4902,46,0,2024-02-27T11:06:42.275Z,french_748.wav,0,poule,451,24,4,5,français,f,10,1.0,-89.41556612,1.42685707
6115892e44c1cdef81dc4902,46,0,2024-02-27T11:06:42.275Z,french_748.wav,0,poule,451,24,4,5,français,f,11,1.1,-62.55272039,0.52153694
6115892e44c1cdef81dc4902,46,0,2024-02-27T11:06:42.275Z,french_748.wav,0,poule,451,24,4,5,français,f,12,1.14141667,-65.25853362,0.03253725
6115892e44c1cdef81dc4902,47,0,2024-02-27T11:06:42.275Z,french_944.wav,0,poule,644,24,4,5,français,f,0,0.0,5.90730738,0.22530641
6115892e44c1cdef81dc4902,47,0,2024-02-27T11:06:42.275Z,french_944.wav,0,poule,644,24,4,5,français,f,1,0.1,20.95549988,0.6742477
6115892e44c1cdef81dc4902,47,0,2024-02-27T11:06:42.275Z,french_944.wav,0,poule,644,24,4,5,français,f,2,0.2,10.39827044,1.43871072
6115892e44c1cdef81dc4902,47,0,2024-02-27T11:06:42.275Z,french_944.wav,0,poule,644,24,4,5,français,f,3,0.3,-37.75669253,1.70419916
6115892e44c1cdef81dc4902,47,0,2024-02-27T11:06:42.275Z,french_944.wav,0,poule,644,24,4,5,français,f,4,0.4,-49.22667344,1.47532653
6115892e44c1cdef81dc4902,47,0,2024-02-27T11:06:42.275Z,french_944.wav,0,poule,644,24,4,5,français,f,5,0.5,93.16977427,0.37116111
6115892e44c1cdef81dc4902,47,0,2024-02-27T11:06:42.275Z,french_944.wav,0,poule,644,24,4,5,français,f,6,0.6,-41.75153683,1.12986992
6115892e44c1cdef81dc4902,47,0,2024-02-27T11:06:42.275Z,french_944.wav,0,poule,644,24,4,5,français,f,7,0.7,76.29351329,1.77142708
6115892e44c1cdef81dc4902,47,0,2024-02-27T11:06:42.275Z,french_944.wav,0,poule,644,24,4,5,français,f,8,0.8,-83.23951468,1.06487534
6115892e44c1cdef81dc4902,47,0,2024-02-27T11:06:42.275Z,french_944.wav,0,poule,644,24,4,5,français,f,9,0.9,79.19877778,0.07393278
6115892e44c1cdef81dc4902,47,0,2024-02-27T11:06:42.275Z,french_944.wav,0,poule,644,24,4,5,français,f,10,1.0,-79.96280606,0.93112082
6115892e44c1cdef81dc4902,47,0,2024-02-27T11:06:42.275Z,french_944.wav,0,poule,644,24,4,5,français,f,11,1.1,-35.90278779,0.20805406
6115892e44c1cdef81dc4902,47,0,2024-02-27T11:06:42.275Z,french_944.wav,0,poule,644,24,4,5,français,f,12,1.14141667,-47.06382287,0.24056538
6115892e44c1cdef81dc4902,48,0,2024-02-27T11:06:42.275Z,french_234.wav,0,poule,635,24,4,5,français,f,0,0.0,88.22307588,1.89855189
6115892e44c1cdef81dc4902,48,0,2024-02-27T11:06:42.275Z,french_234.wav,0,poule,635,24,4,5,français,f,1,0.1,57.26575683,1.27116008
6115892e44c1cdef81dc4902,48,0,2024-02-27T11:06:42.275Z,french_234.wav,0,poule,635,24,4,5,français,f,2,0.2,25.52563425,1.59337458
6115892e44c1cdef81dc4902,48,0,2024-02-27T11:06:42.275Z,french_234.wav,0,poule,635,24,4,5,français,f,3,0.3,-25.05527829,0.76927451
6115892e44c1cdef81dc4902,48,0,2024-02-27T11:06:42.275Z,french_234.wav,0,poule,635,24,4,5,français,f,4,0.4,-99.71798475,1.24054911
6115892e44c1cdef81dc4902,48,0,2024-02-27T11:06:42.275Z,french_234.wav,0,poule,635,24,4,5,français,f,5,0.5,-43.38981996,0.19501713
6115892e44c1cdef81dc4902,48,0,2024-02-27T11:06:42.275Z,french_234.wav,0,poule,635,24,4,5,français,f,6,0.6,-62.87626662,0.83885203
6115892e44c1cdef81dc4902,48,0,2024-02-27T11:06:42.275Z,french_234.wav,0,poule,635,24,4,5,français,f,7,0.7,-4.76781776,0.58437892
6115892e44c1cdef81dc4902,48,0,2024-02-27T11:06:42.275Z,french_234.wav,0,poule,635,24,4,5,français,f,8,0.8,56.90959429,0.42895921
6115892e44c1cdef81dc4902,48,0,2024-02-27T11:06:42.275Z,french_234.wav,0,poule,635,24,4,5,français,f,9,0.9,88.67981641,1.25749201
6115892e44c1cdef81dc4902,48,0,2024-02-27T11:06:42.275Z,french_234.wav,0,poule,635,24,4,5,français,f,10,1.0,-76.52776347,1.61503786
6115892e44c1cdef81dc4902,48,0,2024-02-27T11:06:42.275Z,french_234.wav,0,poule,635,24,4,5,français,f,11,1.1,-30.37754575,0.54685298
6115892e44c1cdef81dc4902,48,0,2024-02-27T11:06:42.275Z,french_234.wav,0,poule,635,24,4,5,français,f,12,1.14141667,5.71933253,1.35699627
6115892e44c1cdef81dc4902,49,0,2024-02-27T11:06:42.275Z,french_638.wav,0,poule,438,24,4,5,français,f,0,0.0,24.10332876,1.30118958
6115892e44c1cdef81dc4902,49,0,2024-02-27T11:06:42.275Z,french_638.wav,0,poule,438,24,4,5,français,f,1,0.1,32.02867085,1.62073515
6115892e44c1cdef81dc4902,49,0,2024-02-27T11:06:42.275Z,french_638.wav,0,poule,438,24,4,5,français,f,2,0.2,1.29939719,1.30287272
6115892e44c1cdef81dc4902,49,0,2024-02-27T11:06:42.275Z,french_638.wav,0,poule,438,24,4,5,français,f,3,0.3,-44.40258825,0.74134116
6115892e44c1cdef81dc4902,49,0,2024-02-27T11:06:42.275Z,french_638.wav,0,poule,438,24,4,5,français,f,4,0.4,97.18876934,1.56205412
6115892e44c1cdef81dc4902,49,0,2024-02-27T11:06:42.275Z,french_638.wav,0,poule,438,24,4,5,français,f,5,0.5,-12.30944177,0.56116492
6115892e44c1cdef81dc4902,49,0,2024-02-27T11:06:42.275Z,french_638.wav,0,poule,438,24,4,5,français,f,6,0.6,-48.49998348,1.30243736
6115892e44c1cdef81dc4902,49,0,2024-02-27T11:06:42.275Z,french_638.wav,0,poule,438,24,4,5,français,f,7,0.7,-40.05211121,1.7883874
6115892e44c1cdef81dc4902,49,0,2024-02-27T11:06:42.275Z,french_638.wav,0,poule,438,24,4,5,français,f,8,0.8,-21.78672943,0.99108579
6115892e44c1cdef81dc4902,49,0,2024-02-27T11:06:42.275Z,french_638.wav,0,poule,438,24,4,5,français,f,9,0.9,5.53380977,1.30235669
6115892e44c1cdef81dc4902,49,0,2024-02-27T11:06:42.275Z,french_638.wav,0,poule,438,24,4,5,français,f,10,1.0,70.33014347,1.07221989
6115892e44c1cdef81dc4902,49,0,2024-02-27T11:06:42.275Z,french_638.wav,0,poule,438,24,4,5,français,f,11,1.1,-13.64024382,1.48013576
6115892e44c1cdef81dc4902,49,0,2024-02-27T11:06:42.275Z,french_638.wav,0,poule,438,24,4,5,français,f,12,1.14141667,22.08022903,0.22008977
6115892e44c1cdef81dc4902,50,1,2024-02-27T11:06:42.275Z,french_120.wav,0,poule,540,24,4,5,français,f,0,0.0,-25.39055637,0.67452719
6115892e44c1cdef81dc4902,50,1,2024-02-27T11:06:42.275Z,french_120.wav,0,poule,540,24,4,5,français,f,1,0.1,-52.16988554,0.89530536
6115892e44c1cdef81dc4902,50,1,2024-02-27T11:06:42.275Z,french_120.wav,0,poule,540,24,4,5,français,f,2,0.2,-97.11481736,0.31491033
6115892e44c1cdef81dc4902,50,1,2024-02-27T11:06:42.275Z,french_120.wav,0,poule,540,24,4,5,français,f,3,0.3,-11.4581745,0.92298319
6115892e44c1cdef81dc4902,50,1,2024-02-27T11:06:42.275Z,french_120.wav,0,poule,540,24,4,5,français,f,4,0.4,-45.99069763,0.35602146
6115892e44c1cdef81dc4902,50,1,2024-02-27T11:06:42.275Z,french_120.wav,0,poule,540,24,4,5,français,f,5,0.5,-43.61865699,0.39625722
6115892e44c1cdef81dc4902,50,1,2024-02-27T11:06:42.275Z,french_120.wav,0,poule,540,24,4,5,français,f,6,0.6,-44.83604124,1.05367551
6115892e44c1cdef81dc4902,50,1,2024-02-27T11:06:42.275Z,french_120.wav,0,poule,540,24,4,5,français,f,7,0.7,-8.86769407,1.01432352
6115892e44c1cdef81dc4902,50,1,2024-02-27T11:06:42.275Z,french_120.wav,0,poule,540,24,4,5,français,f,8,0.8,63.33461413,1.39909629
6115892e44c1cdef81dc4902,50,1,2024-02-27T11:06:42.275Z,french_120.wav,0,poule,540,24,4,5,français,f,9,0.9,-71.92792016,1.4024389
6115892e44c1cdef81dc4902,50,1,2024-02-27T11:06:42.275Z,french_120.wav,0,poule,540,24,4,5,français,f,10,1.0,76.65131092,0.62839034
6115892e44c1cdef81dc4902,50,1,2024-02-27T11:06:42.275Z,french_120.wav,0,poule,540,24,4,5,français,f,11,1.1,60.1037415,0.42144028
6115892e44c1cdef81dc4902,50,1,2024-02-27T11:06:42.275Z,french_120.wav,0,poule,540,24,4,5,français,f,12,1.14141667,-22.4064568,0.48383485
6115892e44c1cdef81dc4902,51,1,2024-02-27T11:06:42.275Z,french_340.wav,0,poule,1163,24,4,5,français,f,0,0.0,48.26419712,1.63856122
6115892e44c1cdef81dc4902,51,1,2024-02-27T11:06:42.275Z,french_340.wav,0,poule,1163,24,4,5,français,f,1,0.1,-47.83724463,0.51084521
6115892e44c1cdef81dc4902,51,1,2024-02-27T11:06:42.275Z,french_340.wav,0,poule,1163,24,4,5,français,f,2,0.2,-59.94167293,0.1611518
6115892e44c1cdef81dc4902,51,1,2024-02-27T11:06:42.275Z,french_340.wav,0,poule,1163,24,4,5,français,f,3,0.3,-2.10646815,1.89193476
6115892e44c1cdef81dc4902,51,1,2024-02-27T11:06:42.275Z,french_340.wav,0,poule,1163,24,4,5,français,f,4,0.4,56.22787301,0.23206424
6115892e44c1cdef81dc4902,51,1,2024-02-27T11:06:42.275Z,french_340.wav,0,poule,1163,24,4,5,français,f,5,0.5,3.63875835,1.58271765
6115892e44c1cdef81dc4902,51,1,2024-02-27T11:06:42.275Z,french_340.wav,0,poule,1163,24,4,5,français,f,6,0.6,68.19322982,1.2112833
6115892e44c1cdef81dc4902,51,1,2024-02-27T11:06:42.275Z,french_340.wav,0,poule,1163,24,4,5,français,f,7,0.7,-66.226353,0.17687379
6115892e44c1cdef81dc4902,51,1,2024-02-27T11:06:42.275Z,french_340.wav,0,poule,1163,24,4,5,français,f,8,0.8,25.57175498,1.37975362
6115892e44c1cdef81dc4902,51,1,2024-02-27T11:06:42.275Z,french_340.wav,0,poule,1163,24,4,5,français,f,9,0.9,-56.45976612,1.62884382
6115892e44c1cdef81dc4902,51,1,2024-02-27T11:06:42.275Z,french_340.wav,0,poule,1163,24,4,5,français,f,10,1.0,-49.28125995,0.75620984
6115892e44c1cdef81dc4902,51,1,2024-02-27T11:06:42.275Z,french_340.wav,0,poule,1163,24,4,5,français,f,11,1.1,72.50645078,0.70269726
6115892e44c1cdef81dc4902,51,1,2024-02-27T11:06:42.275Z,french_340.wav,0,poule,1163,24,4,5,français,f,12,1.14141667,-9.1064747,1.66380659
6115892e44c1cdef81dc4902,52,1,2024-02-27T11:06:42.275Z,french_348.wav,0,poule,427,24,4,5,français,f,0,0.0,65.33613143,1.16978451
6115892e44c1cdef81dc4902,52,1,2024-02-27T11:06:42.275Z,french_348.wav,0,poule,427,24,4,5,français,f,1,0.1,42.71102392,0.73810141
6115892e44c1cdef81dc4902,52,1,2024-02-27T11:06:42.275Z,french_348.wav,0,poule,427,24,4,5,français,f,2,0.2,-49.50432257,0.4698039
6115892e44c1cdef81dc4902,52,1,2024-02-27T11:06:42.275Z,french_348.wav,0,poule,427,24,4,5,français,f,3,0.3,-61.26991756,1.26576423
6115892e44c1cdef81dc4902,52,1,2024-02-27T11:06:42.275Z,french_348.wav,0,poule,427,24,4,5,français,f,4,0.4,81.44701614,0.22687112
6115892e44c1cdef81dc4902,52,1,2024-02-27T11:06:42.275Z,french_348.wav,0,poule,427,24,4,5,français,f,5,0.5,-10.05211206,1.91474745
6115892e44c1cdef81dc4902,52,1,2024-02-27T11:06:42.275Z,french_348.wav,0,poule,427,24,4,5,français,f,6,0.6,87.11270269,0.22997797
6115892e44c1cdef81dc4902,52,1,2024-02-27T11:06:42.275Z,french_348.wav,0,poule,427,24,4,5,français,f,7,0.7,90.29193007,0.73541214
6115892e44c1cdef81dc4902,52,1,2024-02-27T11:06:42.275Z,french_348.wav,0,poule,427,24,4,5,français,f,8,0.8,93.39850094,0.50625098
6115892e44c1cdef81dc4902,52,1,2024-02-27T11:06:42.275Z,french_348.wav,0,poule,427,24,4,5,français,f,9,0.9,-79.62417921,0.81926426
6115892e44c1cdef81dc4902,52,1,2024-02-27T11:06:42.275Z,french_348.wav,0,poule,427,24,4,5,français,f,10,1.0,-15.95490787,1.83332922
6115892e44c1cdef81dc4902,52,1,2024-02-27T11:06:42.275Z,french_348.wav,0,poule,427,24,4,5,français,f,11,1.1,-66.82103003,1.98718157
6115892e44c1cdef81dc4902,52,1,2024-02-27T11:06:42.275Z,french_348.wav,0,poule,427,24,4,5,français,f,12,1.14141667,-47.67225362,0.33289995
6115892e44c1cdef81dc4902,53,1,2024-02-27T11:06:42.275Z,french_135.wav,0,poule,779,24,4,5,français,f,0,0.0,-4.48551791,1.91514039
6115892e44c1cdef81dc4902,53,1,2024-02-27T11:06:42.275Z,french_135.wav,0,poule,779,24,4,5,français,f,1,0.1,-89.39520369,1.98977227
6115892e44c1cdef81dc4902,53,1,2024-02-27T11:06:42.275Z,french_135.wav,0,poule,779,24,4,5,français,f,2,0.2,-62.25671273,0.11754105
6115892e44c1cdef81dc4902,53,1,2024-02-27T11:06:42.275Z,french_135.wav,0,poule,779,24,4,5,français,f,3,0.3,7.71889733,0.48283113
6115892e44c1cdef81dc4902,53,1,2024-02-27T11:06:42.275Z,french_135.wav,0,poule,779,24,4,5,français,f,4,0.4,-11.13544352,1.69468672
6115892e44c1cdef81dc4902,53,1,2024-02-27T11:06:42.275Z,french_135.wav,0,poule,779,24,4,5,français,f,5,0.5,8.86500482,1.03348797
6115892e44c1cdef81dc4902,53,1,2024-02-27T11:06:42.275Z,french_135.wav,0,poule,779,24,4,5,français,f,6,0.6,40.83334399,1.01666511
6115892e44c1cdef81dc4902,53,1,2024-02-27T11:06:42.275Z,french_135.wav,0,poule,779,24,4,5,français,f,7,0.7,98.23692367,1.4427273
6115892e44c1cdef81dc4902,53,1,2024-02-27T11:06:42.275Z,french_135.wav,0,poule,779,24,4,5,français,f,8,0.8,31.56709052,0.64151379
6115892e44c1cdef81dc4902,53,1,2024-02-27T11:06:42.275Z,french_135.wav,0,poule,779,24,4,5,français,f,9,0.9,-42.21440335,1.53600092
6115892e44c1cdef81dc4902,53,1,2024-02-27T11:06:42.275Z,french_135.wav,0,poule,779,24,4,5,français,f,10,1.0,53.89223247,1.41516669
6115892e44c1cdef81dc4902,53,1,2024-02-27T11:06:42.275Z,french_135.wav,0,poule,779,24,4,5,français,f,11,1.1,-14.26740384,0.42854653
6115892e44c1cdef81dc4902,53,1,2024-02-27T11:06:42.275Z,french_135.wav,0,poule,779,24,4,5,français,f,12,1.14141667,8.8582073,1.07609304
6115892e44c1cdef81dc4902,54,1,2024-02-27T11:06:42.275Z,french_38.wav,0,poule,494,24,4,5,français,f,0,0.0,40.69692625,0.35088988
6115892e44c1cdef81dc4902,54,1,2024-02-27T11:06:42.275Z,french_38.wav,0,poule,494,24,4,5,français,f,1,0.1,83.11806361,0.52815391
6115892e44c1cdef81dc4902,54,1,2024-02-27T11:06:42.275Z,french_38.wav,0,poule,494,24,4,5,français,f,2,0.2,18.12214919,0.42903125
6115892e44c1cdef81dc4902,54,1,2024-02-27T11:06:42.275Z,french_38.wav,0,poule,494,24,4,5,français,f,3,0.3,-19.25038889,1.56660171
6115892e44c1cdef81dc4902,54,1,2024-02-27T11:06:42.275Z,french_38.wav,0,poule,494,24,4,5,français,f,4,0.4,76.29170631,1.50314168
6115892e44c1cdef81dc4902,54,1,2024-02-27T11:06:42.275Z,french_38.wav,0,poule,494,24,4,5,français,f,5,0.5,-93.04323891,0.64027928
6115892e44c1cdef81dc4902,54,1,2024-02-27T11:06:42.275Z,french_38.wav,0,poule,494,24,4,5,français,f,6,0.6,29.67195094,1.95048915
6115892e44c1cdef81dc4902,54,1,2024-02-27T11:06:42.275Z,french_38.wav,0,poule,494,24,4,5,français,f,7,0.7,-14.70137235,1.01169212
6115892e44c1cdef81dc4902,54,1,2024-02-27T11:06:42.275Z,french_38.wav,0,poule,494,24,4,5,français,f,8,0.8,85.48410819,0.30617126
6115892e44c1cdef81dc4902,54,1,2024-02-27T11:06:42.275Z,french_38.wav,0,poule,494,24,4,5,français,f,9,0.9,68.26582685,1.37718683
6115892e44c1cdef81dc4902,54,1,2024-02-27T11:06:42.275Z,french_38.wav,0,poule,494,24,4,5,français,f,10,1.0,-29.21602996,1.41030957
6115892e44c1cdef81dc4902,54,1,2024-02-27T11:06:42.275Z,french_38.wav,0,poule,494,24,4,5,français,f,11,1.1,-39.50968765,1.24571364
6115892e44c1cdef81dc4902,54,1,2024-02-27T11:06:42.275Z,french_38.wav,0,poule,494,24,4,5,français,f,12,1.14141667,48.64216134,1.9075345
6115892e44c1cdef81dc4902,55,1,2024-02-27T11:06:42.275Z,french_872.wav,0,poule,514,24,4,5,français,f,0,0.0,2.19876004,0.46410816
6115892e44c1cdef81dc4902,55,1,2024-02-27T11:06:42.275Z,french_872.wav,0,poule,514,24,4,5,français,f,1,0.1,-16.2984572,0.5045086
6115892e44c1cdef81dc4902,55,1,2024-02-27T11:06:42.275Z,french_872.wav,0,poule,514,24,4,5,français,f,2,0.2,44.28395799,0.19071962
6115892e44c1cdef81dc4902,55,1,2024-02-27T11:06:42.275Z,french_872.wav,0,poule,514,24,4,5,français,f,3,0.3,68.79186239,0.93182485
6115892e44c1cdef81dc4902,55,1,2024-02-27T11:06:42.275Z,french_872.wav,0,poule,514,24,4,5,français,f,4,0.4,23.95752233,1.89135345
6115892e44c1cdef81dc4902,55,1,2024-02-27T11:06:42.275Z,french_872.wav,0,poule,514,24,4,5,français,f,5,0.5,-82.67226961,0.19504501
6115892e44c1cdef81dc4902,55,1,2024-02-27T11:06:42.275Z,french_872.wav,0,poule,514,24,4,5,français,f,6,0.6,-19.37076915,0.68749833
6115892e44c1cdef81dc4902,55,1,2024-02-27T11:06:42.275Z,french_872.wav,0,poule,514,24,4,5,français,f,7,0.7,-45.1199493,1.72623495
6115892e44c1cdef81dc4902,55,1,2024-02-27T11:06:42.275Z,french_872.wav,0,poule,514,24,4,5,français,f,8,0.8,44.55633457,0.60263364
6115892e44c1cdef81dc4902,55,1,2024-02-27T11:06:42.275Z,french_872.wav,0,poule,514,24,4,5,français,f,9,0.9,-98.88107629,1.41115138
6115892e44c1cdef81dc4902,55,1,2024-02-27T11:06:42.275Z,french_872.wav,0,poule,514,24,4,5,français,f,10,1.0,-37.42508294,0.80513214
6115892e44c1cdef81dc4902,55,1,2024-02-27T11:06:42.275Z,french_872.wav,0,poule,514,24,4,5,français,f,11,1.1,-90.62049671,0.91253729
6115892e44c1cdef81dc4902,55,1,2024-02-27T11:06:42.275Z,french_872.wav,0,poule,514,24,4,5,français,f,12,1.14141667,-57.38745573,1.53911211
6115892e44c1cdef81dc4902,56,1,2024-02-27T11:06:42.275Z,french_156.wav,0,pull,764,24,4,5,français,f,0,0.0,6.24973356,0.42853185
6115892e44c1cdef81dc4902,56,1,2024-02-27T11:06:42.275Z,french_156.wav,0,pull,764,24,4,5,français,f,1,0.1,-59.28869938,0.11783084
6115892e44c1cdef81dc4902,56,1,2024-02-27T11:06:42.275Z,french_156.wav,0,pull,764,24,4,5,français,f,2,0.2,-54.93017369,0.30000134
6115892e44c1cdef81dc4902,56,1,2024-02-27T11:06:42.275Z,french_156.wav,0,pull,764,24,4,5,français,f,3,0.3,70.45865659,1.53849502
6115892e44c1cdef81dc4902,56,1,2024-02-27T11:06:42.275Z,french_156.wav,0,pull,764,24,4,5,français,f,4,0.4,34.41093143,1.35848197
6115892e44c1cdef81dc4902,56,1,2024-02-27T11:06:42.275Z,french_156.wav,0,pull,764,24,4,5,français,f,5,0.5,-22.64644682,1.2667626
6115892e44c1cdef81dc4902,56,1,2024-02-27T11:06:42.275Z,french_156.wav,0,pull,764,24,4,5,français,f,6,0.6,37.82984887,1.77001246
6115892e44c1cdef81dc4902,56,1,2024-02-27T11:06:42.275Z,french_156.wav,0,pull,764,24,4,5,français,f,7,0.7,-84.29242808,0.71439786
6115892e44c1cdef81dc4902,56,1,2024-02-27T11:06:42.275Z,french_156.wav,0,pull,764,24,4,5,français,f,8,0.8,97.70285322,0.64267275
6115892e44c1cdef81dc4902,56,1,2024-02-27T11:06:42.275Z,french_156.wav,0,pull,764,24,4,5,français,f,9,0.9,-99.58855667,0.57389872
6115892e44c1cdef81dc4902,56,1,2024-02-27T11:06:42.275Z,french_156.wav,0,pull,764,24,4,5,français,f,10,1.0,-82.42661109,0.02293924
6115892e44c1cdef81dc4902,56,1,2024-02-27T11:06:42.275Z,french_156.wav,0,pull,764,24,4,5,français,f,11,1.1,26.88226167,0.73273097
6115892e44c1cdef81dc4902,56,1,2024-02-27T11:06:42.275Z,french_156.wav,0,pull,764,24,4,5,français,f,12,1.14141667,65.60234374,1.17460204
6115892e44c1cdef81dc4902,57,1,2024-02-27T11:06:42.275Z,french_176.wav,0,poule,467,24,4,5,français,f,0,0.0,17.42683987,0.67887999
6115892e44c1cdef81dc4902,57,1,2024-02-27T11:06:42.275Z,french_176.wav,0,poule,467,24,4,5,français,f,1,0.1,-69.24605077,1.61684562
6115892e44c1cdef81dc4902,57,1,2024-02-27T11:06:42.275Z,french_176.wav,0,poule,467,24,4,5,français,f,2,0.2,-6.34428043,0.9525789
6115892e44c1cdef81dc4902,57,1,2024-02-27T11:06:42.275Z,french_176.wav,0,poule,467,24,4,5,français,f,3,0.3,75.15972611,1.10949226
6115892e44c1cdef81dc4902,57,1,2024-02-27T11:06:42.275Z,french_176.wav,0,poule,467,24,4,5,français,f,4,0.4,-10.39495746,1.71567696
6115892e44c1cdef81dc4902,57,1,2024-02-27T11:06:42.275Z,french_176.wav,0,poule,467,24,4,5,français,f,5,0.5,13.88146309,1.28276813
6115892e44c1cdef81dc4902,57,1,2024-02-27T11:06:42.275Z,french_176.wav,0,poule,467,24,4,5,français,f,6,0.6,18.31316109,1.19506457
6115892e44c1cdef81dc4902,57,1,2024-02-27T11:06:42.275Z,french_176.wav,0,poule,467,24,4,5,français,f,7,0.7,-69.45072477,1.14753905
6115892e44c1cdef81dc4902,57,1,2024-02-27T11:06:42.275Z,french_176.wav,0,poule,467,24,4,5,français,f,8,0.8,-49.21604106,1.86893975
6115892e44c1cdef81dc4902,57,1,2024-02-27T11:06:42.275Z,french_176.wav,0,poule,467,24,4,5,français,f,9,0.9,-57.97216,0.76398554
6115892e44c1cdef81dc4902,57,1,2024-02-27T11:06:42.275Z,french_176.wav,0,poule,467,24,4,5,français,f,10,1.0,70.54547072,1.21135923
6115892e44c1cdef81dc4902,57,1,2024-02-27T11:06:42.275Z,french_176.wav,0,poule,467,24,4,5,français,f,11,1.1,20.83211188,1.97943211
6115892e44c1cdef81dc4902,57,1,2024-02-27T11:06:42.275Z,french_176.wav,0,poule,467,24,4,5,français,f,12,1.14141667,11.47002735,0.36114949
6115892e44c1cdef81dc4902,58,1,2024-02-27T11:06:42.275Z,french_683.wav,0,poule,525,24,4,5,français,f,0,0.0,-22.25204531,0.10316623
6115892e44c1cdef81dc4902,58,1,2024-02-27T11:06:42.275Z,french_683.wav,0,poule,525,24,4,5,français,f,1,0.1,81.71927807,0.47792981
6115892e44c1cdef81dc4902,58,1,2024-02-27T11:06:42.275Z,french_683.wav,0,poule,525,24,4,5,français,f,2,0.2,-98.89480532,0.12707729
6115892e44c1cdef81dc4902,58,1,2024-02-27T11:06:42.275Z,french_683.wav,0,poule,525,24,4,5,français,f,3,0.3,85.4566245,0.7208162
6115892e44c1cdef81dc4902,58,1,2024-02-27T11:06:42.275Z,french_683.wav,0,poule,525,24,4,5,français,f,4,0.4,-82.68795994,0.12906086
6115892e44c1cdef81dc4902,58,1,2024-02-27T11:06:42.275Z,french_683.wav,0,poule,525,24,4,5,français,f,5,0.5,10.69202358,1.87068598
6115892e44c1cdef81dc4902,58,1,2024-02-27T11:06:42.275Z,french_683.wav,0,poule,525,24,4,5,français,f,6,0.6,18.38320013,1.19195283
6115892e44c1cdef81dc4902,58,1,2024-02-27T11:06:42.275Z,french_683.wav,0,poule,525,24,4,5,français,f,7,0.7,69.93459203,1.81323994
6115892e44c1cdef81dc4902,58,1,2024-02-27T11:06:42.275Z,french_683.wav,0,poule,525,24,4,5,français,f,8,0.8,-27.4597304,0.51750644
6115892e44c1cdef81dc4902,58,1,2024-02-27T11:06:42.275Z,french_683.wav,0,poule,525,24,4,5,français,f,9,0.9,-9.36632986,0.9271707
6115892e44c1cdef81dc4902,58,1,2024-02-27T11:06:42.275Z,french_683.wav,0,poule,525,24,4,5,français,f,10,1.0,-17.95152631,0.88909619
6115892e44c1cdef81dc4902,58,1,2024-02-27T11:06:42.275Z,french_683.wav,0,poule,525,24,4,5,français,f,11,1.1,-74.29185784,1.51432158
6115892e44c1cdef81dc4902,58,1,2024-02-27T11:06:42.275Z,french_683.wav,0,poule,525,24,4,5,français,f,12,1.14141667,17.19346793,0.6228548
6115892e44c1cdef81dc4902,59,1,2024-02-27T11:06:42.275Z,french_979.wav,0,poule,366,24,4,5,français,f,0,0.0,-24.59442458,0.55171516
