subj,trial,block,date,stim,stim_order,response,rt,age,english,french,language,sex,param_index,segment,pitch,stretch
60c7987a11054a60df5ed5f8,0,0,2024-02-28T14:21:51.076Z,french_801.wav,0,poule,3242,26,3,5,français,f,0,0.0,42.05546356,0.94398168
60c7987a11054a60df5ed5f8,0,0,2024-02-28T14:21:51.076Z,french_801.wav,0,poule,3242,26,3,5,français,f,1,0.1,-92.3466124,0.20033669
60c7987a11054a60df5ed5f8,0,0,2024-02-28T14:21:51.076Z,french_801.wav,0,poule,3242,26,3,5,français,f,2,0.2,40.25447593,0.1618081
60c7987a11054a60df5ed5f8,0,0,2024-02-28T14:21:51.076Z,french_801.wav,0,poule,3242,26,3,5,français,f,3,0.3,86.98750178,1.08194555
60c7987a11054a60df5ed5f8,0,0,2024-02-28T14:21:51.076Z,french_801.wav,0,poule,3242,26,3,5,français,f,4,0.4,72.9865192,1.53929443
60c7987a11054a60df5ed5f8,0,0,2024-02-28T14:21:51.076Z,french_801.wav,0,poule,3242,26,3,5,français,f,5,0.5,44.19690026,0.95422302
60c7987a11054a60df5ed5f8,0,0,2024-02-28T14:21:51.076Z,french_801.wav,0,poule,3242,26,3,5,français,f,6,0.6,-18.76468676,1.56487139
60c7987a11054a60df5ed5f8,0,0,2024-02-28T14:21:51.076Z,french_801.wav,0,poule,3242,26,3,5,français,f,7,0.7,-37.75366406,1.79656614
60c7987a11054a60df5ed5f8,0,0,2024-02-28T14:21:51.076Z,french_801.wav,0,poule,3242,26,3,5,français,f,8,0.8,12.99673571,1.22963791
60c7987a11054a60df5ed5f8,0,0,2024-02-28T14:21:51.076Z,french_801.wav,0,poule,3242,26,3,5,français,f,9,0.9,-12.35408716,0.72904385
60c7987a11054a60df5ed5f8,0,0,2024-02-28T14:21:51.076Z,french_801.wav,0,poule,3242,26,3,5,français,f,10,1.0,-69.77608862,1.94753287
60c7987a11054a60df5ed5f8,0,0,2024-02-28T14:21:51.076Z,french_801.wav,0,poule,3242,26,3,5,français,f,11,1.1,65.56794574,0.67352843
60c7987a11054a60df5ed5f8,0,0,2024-02-28T14:21:51.076Z,french_801.wav,0,poule,3242,26,3,5,français,f,12,1.14141667,-58.95035096,1.98504787
60c7987a11054a60df5ed5f8,1,0,2024-02-28T14:21:51.076Z,french_205.wav,0,pull,3659,26,3,5,français,f,0,0.0,78.04866769,1.87984927
60c7987a11054a60df5ed5f8,1,0,2024-02-28T14:21:51.076Z,french_205.wav,0,pull,3659,26,3,5,français,f,1,0.1,-67.75164997,0.01831656
60c7987a11054a60df5ed5f8,1,0,2024-02-28T14:21:51.076Z,french_205.wav,0,pull,3659,26,3,5,français,f,2,0.2,44.60844785,0.73268828
60c7987a11054a60df5ed5f8,1,0,2024-02-28T14:21:51.076Z,french_205.wav,0,pull,3659,26,3,5,français,f,3,0.3,-56.07838497,1.50191554
60c7987a11054a60df5ed5f8,1,0,2024-02-28T14:21:51.076Z,french_205.wav,0,pull,3659,26,3,5,français,f,4,0.4,-46.47786092,0.28985561
60c7987a11054a60df5ed5f8,1,0,2024-02-28T14:21:51.076Z,french_205.wav,0,pull,3659,26,3,5,français,f,5,0.5,-65.17646139,0.41187197
60c7987a11054a60df5ed5f8,1,0,2024-02-28T14:21:51.076Z,french_205.wav,0,pull,3659,26,3,5,français,f,6,0.6,45.23839845,0.10062474
60c7987a11054a60df5ed5f8,1,0,2024-02-28T14:21:51.076Z,french_205.wav,0,pull,3659,26,3,5,français,f,7,0.7,94.47627073,1.54463893
60c7987a11054a60df5ed5f8,1,0,2024-02-28T14:21:51.076Z,french_205.wav,0,pull,3659,26,3,5,français,f,8,0.8,46.03003331,0.02982808
60c7987a11054a60df5ed5f8,1,0,2024-02-28T14:21:51.076Z,french_205.wav,0,pull,3659,26,3,5,français,f,9,0.9,-84.83671843,1.25721957
60c7987a11054a60df5ed5f8,1,0,2024-02-28T14:21:51.076Z,french_205.wav,0,pull,3659,26,3,5,français,f,10,1.0,57.9859844,1.4544164
60c7987a11054a60df5ed5f8,1,0,2024-02-28T14:21:51.076Z,french_205.wav,0,pull,3659,26,3,5,français,f,11,1.1,57.27316607,0.60561771
60c7987a11054a60df5ed5f8,1,0,2024-02-28T14:21:51.076Z,french_205.wav,0,pull,3659,26,3,5,français,f,12,1.14141667,-99.40468877,1.0266889
60c7987a11054a60df5ed5f8,2,0,2024-02-28T14:21:51.076Z,french_613.wav,0,poule,1598,26,3,5,français,f,0,0.0,-79.12321817,0.47548878
60c7987a11054a60df5ed5f8,2,0,2024-02-28T14:21:51.076Z,french_613.wav,0,poule,1598,26,3,5,français,f,1,0.1,-7.41492532,0.76860871
60c7987a11054a60df5ed5f8,2,0,2024-02-28T14:21:51.076Z,french_613.wav,0,poule,1598,26,3,5,français,f,2,0.2,-83.26616323,0.13725989
60c7987a11054a60df5ed5f8,2,0,2024-02-28T14:21:51.076Z,french_613.wav,0,poule,1598,26,3,5,français,f,3,0.3,76.11721718,1.43493141
60c7987a11054a60df5ed5f8,2,0,2024-02-28T14:21:51.076Z,french_613.wav,0,poule,1598,26,3,5,français,f,4,0.4,-86.02724826,0.64104135
60c7987a11054a60df5ed5f8,2,0,2024-02-28T14:21:51.076Z,french_613.wav,0,poule,1598,26,3,5,français,f,5,0.5,-21.97136908,0.69636711
60c7987a11054a60df5ed5f8,2,0,2024-02-28T14:21:51.076Z,french_613.wav,0,poule,1598,26,3,5,français,f,6,0.6,-20.66842631,0.03283489
60c7987a11054a60df5ed5f8,2,0,2024-02-28T14:21:51.076Z,french_613.wav,0,poule,1598,26,3,5,français,f,7,0.7,-18.6862133,1.11684822
60c7987a11054a60df5ed5f8,2,0,2024-02-28T14:21:51.076Z,french_613.wav,0,poule,1598,26,3,5,français,f,8,0.8,93.72513797,0.70396807
60c7987a11054a60df5ed5f8,2,0,2024-02-28T14:21:51.076Z,french_613.wav,0,poule,1598,26,3,5,français,f,9,0.9,-61.43949343,0.51356951
60c7987a11054a60df5ed5f8,2,0,2024-02-28T14:21:51.076Z,french_613.wav,0,poule,1598,26,3,5,français,f,10,1.0,-85.97992137,0.02840793
60c7987a11054a60df5ed5f8,2,0,2024-02-28T14:21:51.076Z,french_613.wav,0,poule,1598,26,3,5,français,f,11,1.1,65.40328987,0.75953201
60c7987a11054a60df5ed5f8,2,0,2024-02-28T14:21:51.076Z,french_613.wav,0,poule,1598,26,3,5,français,f,12,1.14141667,-7.08798818,0.90179979
60c7987a11054a60df5ed5f8,3,0,2024-02-28T14:21:51.076Z,french_342.wav,0,poule,754,26,3,5,français,f,0,0.0,72.08151479,0.02168505
60c7987a11054a60df5ed5f8,3,0,2024-02-28T14:21:51.076Z,french_342.wav,0,poule,754,26,3,5,français,f,1,0.1,45.77778304,1.85239049
60c7987a11054a60df5ed5f8,3,0,2024-02-28T14:21:51.076Z,french_342.wav,0,poule,754,26,3,5,français,f,2,0.2,-82.5276636,1.68256568
60c7987a11054a60df5ed5f8,3,0,2024-02-28T14:21:51.076Z,french_342.wav,0,poule,754,26,3,5,français,f,3,0.3,93.298167,1.54601332
60c7987a11054a60df5ed5f8,3,0,2024-02-28T14:21:51.076Z,french_342.wav,0,poule,754,26,3,5,français,f,4,0.4,93.41383715,0.74917044
60c7987a11054a60df5ed5f8,3,0,2024-02-28T14:21:51.076Z,french_342.wav,0,poule,754,26,3,5,français,f,5,0.5,44.55697815,0.52191063
60c7987a11054a60df5ed5f8,3,0,2024-02-28T14:21:51.076Z,french_342.wav,0,poule,754,26,3,5,français,f,6,0.6,71.09875097,0.75161146
60c7987a11054a60df5ed5f8,3,0,2024-02-28T14:21:51.076Z,french_342.wav,0,poule,754,26,3,5,français,f,7,0.7,-29.64579103,0.91567366
60c7987a11054a60df5ed5f8,3,0,2024-02-28T14:21:51.076Z,french_342.wav,0,poule,754,26,3,5,français,f,8,0.8,20.73326138,0.94859262
60c7987a11054a60df5ed5f8,3,0,2024-02-28T14:21:51.076Z,french_342.wav,0,poule,754,26,3,5,français,f,9,0.9,72.60488573,1.72561772
60c7987a11054a60df5ed5f8,3,0,2024-02-28T14:21:51.076Z,french_342.wav,0,poule,754,26,3,5,français,f,10,1.0,-70.97946128,1.57781657
60c7987a11054a60df5ed5f8,3,0,2024-02-28T14:21:51.076Z,french_342.wav,0,poule,754,26,3,5,français,f,11,1.1,-60.87275594,1.52145589
60c7987a11054a60df5ed5f8,3,0,2024-02-28T14:21:51.076Z,french_342.wav,0,poule,754,26,3,5,français,f,12,1.14141667,-85.57693971,0.47604353
60c7987a11054a60df5ed5f8,4,0,2024-02-28T14:21:51.076Z,french_893.wav,0,pull,466,26,3,5,français,f,0,0.0,-7.27699978,1.51978009
60c7987a11054a60df5ed5f8,4,0,2024-02-28T14:21:51.076Z,french_893.wav,0,pull,466,26,3,5,français,f,1,0.1,-89.77020568,0.73116865
60c7987a11054a60df5ed5f8,4,0,2024-02-28T14:21:51.076Z,french_893.wav,0,pull,466,26,3,5,français,f,2,0.2,-14.57898987,0.67126481
60c7987a11054a60df5ed5f8,4,0,2024-02-28T14:21:51.076Z,french_893.wav,0,pull,466,26,3,5,français,f,3,0.3,17.83631346,1.90896292
60c7987a11054a60df5ed5f8,4,0,2024-02-28T14:21:51.076Z,french_893.wav,0,pull,466,26,3,5,français,f,4,0.4,-1.41603642,0.69510604
60c7987a11054a60df5ed5f8,4,0,2024-02-28T14:21:51.076Z,french_893.wav,0,pull,466,26,3,5,français,f,5,0.5,83.48956913,1.57489321
60c7987a11054a60df5ed5f8,4,0,2024-02-28T14:21:51.076Z,french_893.wav,0,pull,466,26,3,5,français,f,6,0.6,30.8822208,1.47648751
60c7987a11054a60df5ed5f8,4,0,2024-02-28T14:21:51.076Z,french_893.wav,0,pull,466,26,3,5,français,f,7,0.7,-64.37206317,1.31493152
60c7987a11054a60df5ed5f8,4,0,2024-02-28T14:21:51.076Z,french_893.wav,0,pull,466,26,3,5,français,f,8,0.8,-28.39613134,0.56604346
60c7987a11054a60df5ed5f8,4,0,2024-02-28T14:21:51.076Z,french_893.wav,0,pull,466,26,3,5,français,f,9,0.9,-87.01917752,0.26201855
60c7987a11054a60df5ed5f8,4,0,2024-02-28T14:21:51.076Z,french_893.wav,0,pull,466,26,3,5,français,f,10,1.0,40.7229808,0.45307121
60c7987a11054a60df5ed5f8,4,0,2024-02-28T14:21:51.076Z,french_893.wav,0,pull,466,26,3,5,français,f,11,1.1,99.76956112,0.54133615
60c7987a11054a60df5ed5f8,4,0,2024-02-28T14:21:51.076Z,french_893.wav,0,pull,466,26,3,5,français,f,12,1.14141667,-22.42545561,0.07796444
60c7987a11054a60df5ed5f8,5,0,2024-02-28T14:21:51.076Z,french_789.wav,0,poule,305,26,3,5,français,f,0,0.0,69.53612507,0.1529788
60c7987a11054a60df5ed5f8,5,0,2024-02-28T14:21:51.076Z,french_789.wav,0,poule,305,26,3,5,français,f,1,0.1,48.66484312,0.37242119
60c7987a11054a60df5ed5f8,5,0,2024-02-28T14:21:51.076Z,french_789.wav,0,poule,305,26,3,5,français,f,2,0.2,-72.01203103,0.49230089
60c7987a11054a60df5ed5f8,5,0,2024-02-28T14:21:51.076Z,french_789.wav,0,poule,305,26,3,5,français,f,3,0.3,-67.26752296,0.40103962
60c7987a11054a60df5ed5f8,5,0,2024-02-28T14:21:51.076Z,french_789.wav,0,poule,305,26,3,5,français,f,4,0.4,-11.1534243,1.41340534
60c7987a11054a60df5ed5f8,5,0,2024-02-28T14:21:51.076Z,french_789.wav,0,poule,305,26,3,5,français,f,5,0.5,-45.42016811,1.63034897
60c7987a11054a60df5ed5f8,5,0,2024-02-28T14:21:51.076Z,french_789.wav,0,poule,305,26,3,5,français,f,6,0.6,8.72911857,1.56067788
60c7987a11054a60df5ed5f8,5,0,2024-02-28T14:21:51.076Z,french_789.wav,0,poule,305,26,3,5,français,f,7,0.7,94.32168061,0.03921667
60c7987a11054a60df5ed5f8,5,0,2024-02-28T14:21:51.076Z,french_789.wav,0,poule,305,26,3,5,français,f,8,0.8,-32.05571011,1.73882324
60c7987a11054a60df5ed5f8,5,0,2024-02-28T14:21:51.076Z,french_789.wav,0,poule,305,26,3,5,français,f,9,0.9,-53.70986217,0.69818848
60c7987a11054a60df5ed5f8,5,0,2024-02-28T14:21:51.076Z,french_789.wav,0,poule,305,26,3,5,français,f,10,1.0,44.14624596,0.50903081
60c7987a11054a60df5ed5f8,5,0,2024-02-28T14:21:51.076Z,french_789.wav,0,poule,305,26,3,5,français,f,11,1.1,-51.47253769,0.01362261
60c7987a11054a60df5ed5f8,5,0,2024-02-28T14:21:51.076Z,french_789.wav,0,poule,305,26,3,5,français,f,12,1.14141667,-61.00447878,1.34786961
60c7987a11054a60df5ed5f8,6,0,2024-02-28T14:21:51.076Z,french_739.wav,0,poule,315,26,3,5,français,f,0,0.0,9.62782805,0.66553868
60c7987a11054a60df5ed5f8,6,0,2024-02-28T14:21:51.076Z,french_739.wav,0,poule,315,26,3,5,français,f,1,0.1,79.10151541,0.80621355
60c7987a11054a60df5ed5f8,6,0,2024-02-28T14:21:51.076Z,french_739.wav,0,poule,315,26,3,5,français,f,2,0.2,2.55252391,1.84356459
60c7987a11054a60df5ed5f8,6,0,2024-02-28T14:21:51.076Z,french_739.wav,0,poule,315,26,3,5,français,f,3,0.3,-56.26899273,1.90907132
60c7987a11054a60df5ed5f8,6,0,2024-02-28T14:21:51.076Z,french_739.wav,0,poule,315,26,3,5,français,f,4,0.4,-20.92602812,1.21053238
60c7987a11054a60df5ed5f8,6,0,2024-02-28T14:21:51.076Z,french_739.wav,0,poule,315,26,3,5,français,f,5,0.5,57.30249402,1.31456384
60c7987a11054a60df5ed5f8,6,0,2024-02-28T14:21:51.076Z,french_739.wav,0,poule,315,26,3,5,français,f,6,0.6,-47.30475577,0.33014912
60c7987a11054a60df5ed5f8,6,0,2024-02-28T14:21:51.076Z,french_739.wav,0,poule,315,26,3,5,français,f,7,0.7,-1.4643076,1.29331399
60c7987a11054a60df5ed5f8,6,0,2024-02-28T14:21:51.076Z,french_739.wav,0,poule,315,26,3,5,français,f,8,0.8,12.70766327,0.87459396
60c7987a11054a60df5ed5f8,6,0,2024-02-28T14:21:51.076Z,french_739.wav,0,poule,315,26,3,5,français,f,9,0.9,-25.83046899,1.83877511
60c7987a11054a60df5ed5f8,6,0,2024-02-28T14:21:51.076Z,french_739.wav,0,poule,315,26,3,5,français,f,10,1.0,22.405592,1.07204251
60c7987a11054a60df5ed5f8,6,0,2024-02-28T14:21:51.076Z,french_739.wav,0,poule,315,26,3,5,français,f,11,1.1,62.96974848,1.19288608
60c7987a11054a60df5ed5f8,6,0,2024-02-28T14:21:51.076Z,french_739.wav,0,poule,315,26,3,5,français,f,12,1.14141667,46.93445963,0.78930761
60c7987a11054a60df5ed5f8,7,0,2024-02-28T14:21:51.076Z,french_853.wav,0,poule,649,26,3,5,français,f,0,0.0,-35.85509781,0.87912281
60c7987a11054a60df5ed5f8,7,0,2024-02-28T14:21:51.076Z,french_853.wav,0,poule,649,26,3,5,français,f,1,0.1,-85.16852279,1.60362916
60c7987a11054a60df5ed5f8,7,0,2024-02-28T14:21:51.076Z,french_853.wav,0,poule,649,26,3,5,français,f,2,0.2,43.35151906,0.05367398
60c7987a11054a60df5ed5f8,7,0,2024-02-28T14:21:51.076Z,french_853.wav,0,poule,649,26,3,5,français,f,3,0.3,-36.27408381,1.0932021
60c7987a11054a60df5ed5f8,7,0,2024-02-28T14:21:51.076Z,french_853.wav,0,poule,649,26,3,5,français,f,4,0.4,48.36174943,0.145173
60c7987a11054a60df5ed5f8,7,0,2024-02-28T14:21:51.076Z,french_853.wav,0,poule,649,26,3,5,français,f,5,0.5,15.35458122,0.56043792
60c7987a11054a60df5ed5f8,7,0,2024-02-28T14:21:51.076Z,french_853.wav,0,poule,649,26,3,5,français,f,6,0.6,90.63917047,0.33756351
60c7987a11054a60df5ed5f8,7,0,2024-02-28T14:21:51.076Z,french_853.wav,0,poule,649,26,3,5,français,f,7,0.7,-25.85237464,1.25653162
60c7987a11054a60df5ed5f8,7,0,2024-02-28T14:21:51.076Z,french_853.wav,0,poule,649,26,3,5,français,f,8,0.8,70.77908005,0.37110217
60c7987a11054a60df5ed5f8,7,0,2024-02-28T14:21:51.076Z,french_853.wav,0,poule,649,26,3,5,français,f,9,0.9,38.87803449,0.9869935
60c7987a11054a60df5ed5f8,7,0,2024-02-28T14:21:51.076Z,french_853.wav,0,poule,649,26,3,5,français,f,10,1.0,-78.6315789,1.45701755
60c7987a11054a60df5ed5f8,7,0,2024-02-28T14:21:51.076Z,french_853.wav,0,poule,649,26,3,5,français,f,11,1.1,-2.04968734,1.50454965
60c7987a11054a60df5ed5f8,7,0,2024-02-28T14:21:51.076Z,french_853.wav,0,poule,649,26,3,5,français,f,12,1.14141667,-46.31602044,1.33087312
60c7987a11054a60df5ed5f8,8,0,2024-02-28T14:21:51.076Z,french_505.wav,0,pull,428,26,3,5,français,f,0,0.0,10.6062499,0.41232335
60c7987a11054a60df5ed5f8,8,0,2024-02-28T14:21:51.076Z,french_505.wav,0,pull,428,26,3,5,français,f,1,0.1,-76.99802141,1.02211306
60c7987a11054a60df5ed5f8,8,0,2024-02-28T14:21:51.076Z,french_505.wav,0,pull,428,26,3,5,français,f,2,0.2,62.62271049,1.14367437
60c7987a11054a60df5ed5f8,8,0,2024-02-28T14:21:51.076Z,french_505.wav,0,pull,428,26,3,5,français,f,3,0.3,49.75584692,1.86001892
60c7987a11054a60df5ed5f8,8,0,2024-02-28T14:21:51.076Z,french_505.wav,0,pull,428,26,3,5,français,f,4,0.4,-44.42824919,0.03497776
60c7987a11054a60df5ed5f8,8,0,2024-02-28T14:21:51.076Z,french_505.wav,0,pull,428,26,3,5,français,f,5,0.5,8.97017494,1.27001275
60c7987a11054a60df5ed5f8,8,0,2024-02-28T14:21:51.076Z,french_505.wav,0,pull,428,26,3,5,français,f,6,0.6,-88.28080052,1.49153702
60c7987a11054a60df5ed5f8,8,0,2024-02-28T14:21:51.076Z,french_505.wav,0,pull,428,26,3,5,français,f,7,0.7,-13.73778208,0.88366965
60c7987a11054a60df5ed5f8,8,0,2024-02-28T14:21:51.076Z,french_505.wav,0,pull,428,26,3,5,français,f,8,0.8,73.13104705,1.06271418
60c7987a11054a60df5ed5f8,8,0,2024-02-28T14:21:51.076Z,french_505.wav,0,pull,428,26,3,5,français,f,9,0.9,-45.97620248,0.40464318
60c7987a11054a60df5ed5f8,8,0,2024-02-28T14:21:51.076Z,french_505.wav,0,pull,428,26,3,5,français,f,10,1.0,-85.27177326,0.55194696
60c7987a11054a60df5ed5f8,8,0,2024-02-28T14:21:51.076Z,french_505.wav,0,pull,428,26,3,5,français,f,11,1.1,1.99886584,0.30087529
60c7987a11054a60df5ed5f8,8,0,2024-02-28T14:21:51.076Z,french_505.wav,0,pull,428,26,3,5,français,f,12,1.14141667,-57.73402289,1.54564481
60c7987a11054a60df5ed5f8,9,0,2024-02-28T14:21:51.076Z,french_918.wav,0,pull,424,26,3,5,français,f,0,0.0,-2.67893581,1.74350248
60c7987a11054a60df5ed5f8,9,0,2024-02-28T14:21:51.076Z,french_918.wav,0,pull,424,26,3,5,français,f,1,0.1,-86.66912791,1.24019067
60c7987a11054a60df5ed5f8,9,0,2024-02-28T14:21:51.076Z,french_918.wav,0,pull,424,26,3,5,français,f,2,0.2,13.19664365,1.00107396
60c7987a11054a60df5ed5f8,9,0,2024-02-28T14:21:51.076Z,french_918.wav,0,pull,424,26,3,5,français,f,3,0.3,21.91008155,1.28680607
60c7987a11054a60df5ed5f8,9,0,2024-02-28T14:21:51.076Z,french_918.wav,0,pull,424,26,3,5,français,f,4,0.4,45.19898324,0.62507084
60c7987a11054a60df5ed5f8,9,0,2024-02-28T14:21:51.076Z,french_918.wav,0,pull,424,26,3,5,français,f,5,0.5,-61.98176128,0.85364819
60c7987a11054a60df5ed5f8,9,0,2024-02-28T14:21:51.076Z,french_918.wav,0,pull,424,26,3,5,français,f,6,0.6,-32.0210955,0.7136194
60c7987a11054a60df5ed5f8,9,0,2024-02-28T14:21:51.076Z,french_918.wav,0,pull,424,26,3,5,français,f,7,0.7,-56.67296374,0.47996765
60c7987a11054a60df5ed5f8,9,0,2024-02-28T14:21:51.076Z,french_918.wav,0,pull,424,26,3,5,français,f,8,0.8,-69.82955016,1.02040943
60c7987a11054a60df5ed5f8,9,0,2024-02-28T14:21:51.076Z,french_918.wav,0,pull,424,26,3,5,français,f,9,0.9,71.11041844,1.48734385
60c7987a11054a60df5ed5f8,9,0,2024-02-28T14:21:51.076Z,french_918.wav,0,pull,424,26,3,5,français,f,10,1.0,-91.16742521,1.67065693
60c7987a11054a60df5ed5f8,9,0,2024-02-28T14:21:51.076Z,french_918.wav,0,pull,424,26,3,5,français,f,11,1.1,-50.98363321,0.14001191
60c7987a11054a60df5ed5f8,9,0,2024-02-28T14:21:51.076Z,french_918.wav,0,pull,424,26,3,5,français,f,12,1.14141667,10.7461397,0.38979864
60c7987a11054a60df5ed5f8,10,0,2024-02-28T14:21:51.076Z,french_670.wav,0,poule,205,26,3,5,français,f,0,0.0,-19.68619325,1.03147718
60c7987a11054a60df5ed5f8,10,0,2024-02-28T14:21:51.076Z,french_670.wav,0,poule,205,26,3,5,français,f,1,0.1,-87.11615832,0.42572581
60c7987a11054a60df5ed5f8,10,0,2024-02-28T14:21:51.076Z,french_670.wav,0,poule,205,26,3,5,français,f,2,0.2,-95.93801111,0.42961524
60c7987a11054a60df5ed5f8,10,0,2024-02-28T14:21:51.076Z,french_670.wav,0,poule,205,26,3,5,français,f,3,0.3,-36.11130254,0.83502292
60c7987a11054a60df5ed5f8,10,0,2024-02-28T14:21:51.076Z,french_670.wav,0,poule,205,26,3,5,français,f,4,0.4,44.26071217,0.03473652
60c7987a11054a60df5ed5f8,10,0,2024-02-28T14:21:51.076Z,french_670.wav,0,poule,205,26,3,5,français,f,5,0.5,-39.2988483,1.20822798
60c7987a11054a60df5ed5f8,10,0,2024-02-28T14:21:51.076Z,french_670.wav,0,poule,205,26,3,5,français,f,6,0.6,62.48778593,1.18718182
60c7987a11054a60df5ed5f8,10,0,2024-02-28T14:21:51.076Z,french_670.wav,0,poule,205,26,3,5,français,f,7,0.7,52.37424386,1.97278033
60c7987a11054a60df5ed5f8,10,0,2024-02-28T14:21:51.076Z,french_670.wav,0,poule,205,26,3,5,français,f,8,0.8,-0.1573475,0.95899662
60c7987a11054a60df5ed5f8,10,0,2024-02-28T14:21:51.076Z,french_670.wav,0,poule,205,26,3,5,français,f,9,0.9,-27.30900442,1.95617549
60c7987a11054a60df5ed5f8,10,0,2024-02-28T14:21:51.076Z,french_670.wav,0,poule,205,26,3,5,français,f,10,1.0,64.437364,1.1037214
60c7987a11054a60df5ed5f8,10,0,2024-02-28T14:21:51.076Z,french_670.wav,0,poule,205,26,3,5,français,f,11,1.1,-54.68999944,0.03680944
60c7987a11054a60df5ed5f8,10,0,2024-02-28T14:21:51.076Z,french_670.wav,0,poule,205,26,3,5,français,f,12,1.14141667,18.07624972,0.86571474
60c7987a11054a60df5ed5f8,11,0,2024-02-28T14:21:51.076Z,french_548.wav,0,poule,228,26,3,5,français,f,0,0.0,54.86314065,1.81744547
60c7987a11054a60df5ed5f8,11,0,2024-02-28T14:21:51.076Z,french_548.wav,0,poule,228,26,3,5,français,f,1,0.1,-70.60670497,0.33721892
60c7987a11054a60df5ed5f8,11,0,2024-02-28T14:21:51.076Z,french_548.wav,0,poule,228,26,3,5,français,f,2,0.2,55.69352869,1.2286075
60c7987a11054a60df5ed5f8,11,0,2024-02-28T14:21:51.076Z,french_548.wav,0,poule,228,26,3,5,français,f,3,0.3,-61.47878925,0.67541423
60c7987a11054a60df5ed5f8,11,0,2024-02-28T14:21:51.076Z,french_548.wav,0,poule,228,26,3,5,français,f,4,0.4,-11.97900613,1.75778453
60c7987a11054a60df5ed5f8,11,0,2024-02-28T14:21:51.076Z,french_548.wav,0,poule,228,26,3,5,français,f,5,0.5,18.14617596,1.03239779
60c7987a11054a60df5ed5f8,11,0,2024-02-28T14:21:51.076Z,french_548.wav,0,poule,228,26,3,5,français,f,6,0.6,80.02860728,1.13159617
60c7987a11054a60df5ed5f8,11,0,2024-02-28T14:21:51.076Z,french_548.wav,0,poule,228,26,3,5,français,f,7,0.7,-44.1411094,1.06156024
60c7987a11054a60df5ed5f8,11,0,2024-02-28T14:21:51.076Z,french_548.wav,0,poule,228,26,3,5,français,f,8,0.8,-45.71218284,1.283306
60c7987a11054a60df5ed5f8,11,0,2024-02-28T14:21:51.076Z,french_548.wav,0,poule,228,26,3,5,français,f,9,0.9,63.93029421,0.64876388
60c7987a11054a60df5ed5f8,11,0,2024-02-28T14:21:51.076Z,french_548.wav,0,poule,228,26,3,5,français,f,10,1.0,-1.52565372,0.73723592
60c7987a11054a60df5ed5f8,11,0,2024-02-28T14:21:51.076Z,french_548.wav,0,poule,228,26,3,5,français,f,11,1.1,-65.11467392,1.25903075
60c7987a11054a60df5ed5f8,11,0,2024-02-28T14:21:51.076Z,french_548.wav,0,poule,228,26,3,5,français,f,12,1.14141667,11.82578627,0.35535235
60c7987a11054a60df5ed5f8,12,0,2024-02-28T14:21:51.076Z,french_709.wav,0,poule,524,26,3,5,français,f,0,0.0,-53.16296067,1.12002918
60c7987a11054a60df5ed5f8,12,0,2024-02-28T14:21:51.076Z,french_709.wav,0,poule,524,26,3,5,français,f,1,0.1,59.94788803,1.08131943
60c7987a11054a60df5ed5f8,12,0,2024-02-28T14:21:51.076Z,french_709.wav,0,poule,524,26,3,5,français,f,2,0.2,35.87727167,0.76631976
60c7987a11054a60df5ed5f8,12,0,2024-02-28T14:21:51.076Z,french_709.wav,0,poule,524,26,3,5,français,f,3,0.3,-20.5364381,1.69776784
60c7987a11054a60df5ed5f8,12,0,2024-02-28T14:21:51.076Z,french_709.wav,0,poule,524,26,3,5,français,f,4,0.4,34.04594206,0.74557561
60c7987a11054a60df5ed5f8,12,0,2024-02-28T14:21:51.076Z,french_709.wav,0,poule,524,26,3,5,français,f,5,0.5,-79.51255741,1.35674371
60c7987a11054a60df5ed5f8,12,0,2024-02-28T14:21:51.076Z,french_709.wav,0,poule,524,26,3,5,français,f,6,0.6,22.56358256,1.43825325
60c7987a11054a60df5ed5f8,12,0,2024-02-28T14:21:51.076Z,french_709.wav,0,poule,524,26,3,5,français,f,7,0.7,-37.88762672,1.0289102
60c7987a11054a60df5ed5f8,12,0,2024-02-28T14:21:51.076Z,french_709.wav,0,poule,524,26,3,5,français,f,8,0.8,-41.8377988,1.05848076
60c7987a11054a60df5ed5f8,12,0,2024-02-28T14:21:51.076Z,french_709.wav,0,poule,524,26,3,5,français,f,9,0.9,-60.56478502,0.41244704
60c7987a11054a60df5ed5f8,12,0,2024-02-28T14:21:51.076Z,french_709.wav,0,poule,524,26,3,5,français,f,10,1.0,-85.9910607,0.82703914
60c7987a11054a60df5ed5f8,12,0,2024-02-28T14:21:51.076Z,french_709.wav,0,poule,524,26,3,5,français,f,11,1.1,-8.25451984,1.84061657
60c7987a11054a60df5ed5f8,12,0,2024-02-28T14:21:51.076Z,french_709.wav,0,poule,524,26,3,5,français,f,12,1.14141667,-19.34673642,0.86940642
60c7987a11054a60df5ed5f8,13,0,2024-02-28T14:21:51.076Z,french_686.wav,0,pull,868,26,3,5,français,f,0,0.0,-30.40503815,0.97309277
60c7987a11054a60df5ed5f8,13,0,2024-02-28T14:21:51.076Z,french_686.wav,0,pull,868,26,3,5,français,f,1,0.1,-73.80672172,0.09917697
60c7987a11054a60df5ed5f8,13,0,2024-02-28T14:21:51.076Z,french_686.wav,0,pull,868,26,3,5,français,f,2,0.2,-36.51057578,0.40810289
60c7987a11054a60df5ed5f8,13,0,2024-02-28T14:21:51.076Z,french_686.wav,0,pull,868,26,3,5,français,f,3,0.3,84.77586281,0.6490206
60c7987a11054a60df5ed5f8,13,0,2024-02-28T14:21:51.076Z,french_686.wav,0,pull,868,26,3,5,français,f,4,0.4,69.56142823,0.7557536
60c7987a11054a60df5ed5f8,13,0,2024-02-28T14:21:51.076Z,french_686.wav,0,pull,868,26,3,5,français,f,5,0.5,-93.57366391,1.89454364
60c7987a11054a60df5ed5f8,13,0,2024-02-28T14:21:51.076Z,french_686.wav,0,pull,868,26,3,5,français,f,6,0.6,11.39788525,0.22314731
60c7987a11054a60df5ed5f8,13,0,2024-02-28T14:21:51.076Z,french_686.wav,0,pull,868,26,3,5,français,f,7,0.7,95.44252278,0.84063593
60c7987a11054a60df5ed5f8,13,0,2024-02-28T14:21:51.076Z,french_686.wav,0,pull,868,26,3,5,français,f,8,0.8,-21.39471032,0.38261638
60c7987a11054a60df5ed5f8,13,0,2024-02-28T14:21:51.076Z,french_686.wav,0,pull,868,26,3,5,français,f,9,0.9,87.01309218,0.62114466
60c7987a11054a60df5ed5f8,13,0,2024-02-28T14:21:51.076Z,french_686.wav,0,pull,868,26,3,5,français,f,10,1.0,20.85130451,1.40845464
60c7987a11054a60df5ed5f8,13,0,2024-02-28T14:21:51.076Z,french_686.wav,0,pull,868,26,3,5,français,f,11,1.1,9.25388752,1.00026074
60c7987a11054a60df5ed5f8,13,0,2024-02-28T14:21:51.076Z,french_686.wav,0,pull,868,26,3,5,français,f,12,1.14141667,82.17356025,0.21527578
60c7987a11054a60df5ed5f8,14,0,2024-02-28T14:21:51.076Z,french_804.wav,0,pull,556,26,3,5,français,f,0,0.0,-81.48040782,1.72278374
60c7987a11054a60df5ed5f8,14,0,2024-02-28T14:21:51.076Z,french_804.wav,0,pull,556,26,3,5,français,f,1,0.1,-17.45889889,1.09467419
60c7987a11054a60df5ed5f8,14,0,2024-02-28T14:21:51.076Z,french_804.wav,0,pull,556,26,3,5,français,f,2,0.2,30.94703124,1.89284567
60c7987a11054a60df5ed5f8,14,0,2024-02-28T14:21:51.076Z,french_804.wav,0,pull,556,26,3,5,français,f,3,0.3,-59.31638088,0.06467182
60c7987a11054a60df5ed5f8,14,0,2024-02-28T14:21:51.076Z,french_804.wav,0,pull,556,26,3,5,français,f,4,0.4,32.31952964,1.7986491
60c7987a11054a60df5ed5f8,14,0,2024-02-28T14:21:51.076Z,french_804.wav,0,pull,556,26,3,5,français,f,5,0.5,-76.80935002,0.95859736
60c7987a11054a60df5ed5f8,14,0,2024-02-28T14:21:51.076Z,french_804.wav,0,pull,556,26,3,5,français,f,6,0.6,-98.7037282,1.28356637
60c7987a11054a60df5ed5f8,14,0,2024-02-28T14:21:51.076Z,french_804.wav,0,pull,556,26,3,5,français,f,7,0.7,-37.18293781,0.02342821
60c7987a11054a60df5ed5f8,14,0,2024-02-28T14:21:51.076Z,french_804.wav,0,pull,556,26,3,5,français,f,8,0.8,-12.0929561,0.57090294
60c7987a11054a60df5ed5f8,14,0,2024-02-28T14:21:51.076Z,french_804.wav,0,pull,556,26,3,5,français,f,9,0.9,70.86110412,0.54405877
60c7987a11054a60df5ed5f8,14,0,2024-02-28T14:21:51.076Z,french_804.wav,0,pull,556,26,3,5,français,f,10,1.0,-41.4148751,0.67180302
60c7987a11054a60df5ed5f8,14,0,2024-02-28T14:21:51.076Z,french_804.wav,0,pull,556,26,3,5,français,f,11,1.1,34.56454139,1.24764987
60c7987a11054a60df5ed5f8,14,0,2024-02-28T14:21:51.076Z,french_804.wav,0,pull,556,26,3,5,français,f,12,1.14141667,-8.86405782,0.56589089
60c7987a11054a60df5ed5f8,15,0,2024-02-28T14:21:51.076Z,french_865.wav,0,poule,414,26,3,5,français,f,0,0.0,-35.98136802,1.52034056
60c7987a11054a60df5ed5f8,15,0,2024-02-28T14:21:51.076Z,french_865.wav,0,poule,414,26,3,5,français,f,1,0.1,-47.09864116,1.94992054
60c7987a11054a60df5ed5f8,15,0,2024-02-28T14:21:51.076Z,french_865.wav,0,poule,414,26,3,5,français,f,2,0.2,-46.16991186,1.99567133
60c7987a11054a60df5ed5f8,15,0,2024-02-28T14:21:51.076Z,french_865.wav,0,poule,414,26,3,5,français,f,3,0.3,66.92600058,0.0816066
60c7987a11054a60df5ed5f8,15,0,2024-02-28T14:21:51.076Z,french_865.wav,0,poule,414,26,3,5,français,f,4,0.4,58.38978261,1.80097387
60c7987a11054a60df5ed5f8,15,0,2024-02-28T14:21:51.076Z,french_865.wav,0,poule,414,26,3,5,français,f,5,0.5,-6.27861664,1.19034433
60c7987a11054a60df5ed5f8,15,0,2024-02-28T14:21:51.076Z,french_865.wav,0,poule,414,26,3,5,français,f,6,0.6,-65.83636463,1.647248
60c7987a11054a60df5ed5f8,15,0,2024-02-28T14:21:51.076Z,french_865.wav,0,poule,414,26,3,5,français,f,7,0.7,-30.20389067,0.89939103
60c7987a11054a60df5ed5f8,15,0,2024-02-28T14:21:51.076Z,french_865.wav,0,poule,414,26,3,5,français,f,8,0.8,-35.90961147,0.3790929
60c7987a11054a60df5ed5f8,15,0,2024-02-28T14:21:51.076Z,french_865.wav,0,poule,414,26,3,5,français,f,9,0.9,87.06351282,0.26606669
60c7987a11054a60df5ed5f8,15,0,2024-02-28T14:21:51.076Z,french_865.wav,0,poule,414,26,3,5,français,f,10,1.0,-73.61130369,0.3799436
60c7987a11054a60df5ed5f8,15,0,2024-02-28T14:21:51.076Z,french_865.wav,0,poule,414,26,3,5,français,f,11,1.1,-70.4874465,1.04157406
60c7987a11054a60df5ed5f8,15,0,2024-02-28T14:21:51.076Z,french_865.wav,0,poule,414,26,3,5,français,f,12,1.14141667,34.05043966,1.02434748
60c7987a11054a60df5ed5f8,16,0,2024-02-28T14:21:51.076Z,french_982.wav,0,poule,225,26,3,5,français,f,0,0.0,90.22405299,0.52333292
60c7987a11054a60df5ed5f8,16,0,2024-02-28T14:21:51.076Z,french_982.wav,0,poule,225,26,3,5,français,f,1,0.1,-53.16826404,0.32613641
60c7987a11054a60df5ed5f8,16,0,2024-02-28T14:21:51.076Z,french_982.wav,0,poule,225,26,3,5,français,f,2,0.2,57.22063992,1.76832282
60c7987a11054a60df5ed5f8,16,0,2024-02-28T14:21:51.076Z,french_982.wav,0,poule,225,26,3,5,français,f,3,0.3,-51.76708918,1.79419362
60c7987a11054a60df5ed5f8,16,0,2024-02-28T14:21:51.076Z,french_982.wav,0,poule,225,26,3,5,français,f,4,0.4,1.80244,0.6919465
60c7987a11054a60df5ed5f8,16,0,2024-02-28T14:21:51.076Z,french_982.wav,0,poule,225,26,3,5,français,f,5,0.5,69.86508763,0.42050619
60c7987a11054a60df5ed5f8,16,0,2024-02-28T14:21:51.076Z,french_982.wav,0,poule,225,26,3,5,français,f,6,0.6,-65.5276076,1.09922799
60c7987a11054a60df5ed5f8,16,0,2024-02-28T14:21:51.076Z,french_982.wav,0,poule,225,26,3,5,français,f,7,0.7,-9.16192061,0.52950054
60c7987a11054a60df5ed5f8,16,0,2024-02-28T14:21:51.076Z,french_982.wav,0,poule,225,26,3,5,français,f,8,0.8,54.04961977,0.23323956
60c7987a11054a60df5ed5f8,16,0,2024-02-28T14:21:51.076Z,french_982.wav,0,poule,225,26,3,5,français,f,9,0.9,-45.96609797,1.08101777
60c7987a11054a60df5ed5f8,16,0,2024-02-28T14:21:51.076Z,french_982.wav,0,poule,225,26,3,5,français,f,10,1.0,-24.92191699,1.08076033
60c7987a11054a60df5ed5f8,16,0,2024-02-28T14:21:51.076Z,french_982.wav,0,poule,225,26,3,5,français,f,11,1.1,-97.77886586,0.99284908
60c7987a11054a60df5ed5f8,16,0,2024-02-28T14:21:51.076Z,french_982.wav,0,poule,225,26,3,5,français,f,12,1.14141667,85.97808326,1.87727243
60c7987a11054a60df5ed5f8,17,0,2024-02-28T14:21:51.076Z,french_902.wav,0,pull,225,26,3,5,français,f,0,0.0,-59.83898707,1.4884204
60c7987a11054a60df5ed5f8,17,0,2024-02-28T14:21:51.076Z,french_902.wav,0,pull,225,26,3,5,français,f,1,0.1,2.81569072,0.86195341
60c7987a11054a60df5ed5f8,17,0,2024-02-28T14:21:51.076Z,french_902.wav,0,pull,225,26,3,5,français,f,2,0.2,-53.15669969,0.92234706
60c7987a11054a60df5ed5f8,17,0,2024-02-28T14:21:51.076Z,french_902.wav,0,pull,225,26,3,5,français,f,3,0.3,53.66756274,0.8159244
60c7987a11054a60df5ed5f8,17,0,2024-02-28T14:21:51.076Z,french_902.wav,0,pull,225,26,3,5,français,f,4,0.4,-9.57716581,1.39024481
60c7987a11054a60df5ed5f8,17,0,2024-02-28T14:21:51.076Z,french_902.wav,0,pull,225,26,3,5,français,f,5,0.5,33.17943133,0.86390772
60c7987a11054a60df5ed5f8,17,0,2024-02-28T14:21:51.076Z,french_902.wav,0,pull,225,26,3,5,français,f,6,0.6,24.57927277,1.52193383
60c7987a11054a60df5ed5f8,17,0,2024-02-28T14:21:51.076Z,french_902.wav,0,pull,225,26,3,5,français,f,7,0.7,16.44625536,0.8147185
60c7987a11054a60df5ed5f8,17,0,2024-02-28T14:21:51.076Z,french_902.wav,0,pull,225,26,3,5,français,f,8,0.8,23.39904081,0.44423885
60c7987a11054a60df5ed5f8,17,0,2024-02-28T14:21:51.076Z,french_902.wav,0,pull,225,26,3,5,français,f,9,0.9,-30.48387662,1.11070816
60c7987a11054a60df5ed5f8,17,0,2024-02-28T14:21:51.076Z,french_902.wav,0,pull,225,26,3,5,français,f,10,1.0,-1.42450385,0.62020849
60c7987a11054a60df5ed5f8,17,0,2024-02-28T14:21:51.076Z,french_902.wav,0,pull,225,26,3,5,français,f,11,1.1,-54.8338484,1.49306166
60c7987a11054a60df5ed5f8,17,0,2024-02-28T14:21:51.076Z,french_902.wav,0,pull,225,26,3,5,français,f,12,1.14141667,12.56476458,0.57204239
60c7987a11054a60df5ed5f8,18,0,2024-02-28T14:21:51.076Z,french_947.wav,0,poule,291,26,3,5,français,f,0,0.0,74.11181953,0.64731536
60c7987a11054a60df5ed5f8,18,0,2024-02-28T14:21:51.076Z,french_947.wav,0,poule,291,26,3,5,français,f,1,0.1,77.13369973,1.23227619
60c7987a11054a60df5ed5f8,18,0,2024-02-28T14:21:51.076Z,french_947.wav,0,poule,291,26,3,5,français,f,2,0.2,88.17713228,1.55440327
60c7987a11054a60df5ed5f8,18,0,2024-02-28T14:21:51.076Z,french_947.wav,0,poule,291,26,3,5,français,f,3,0.3,-23.55252616,1.09655338
60c7987a11054a60df5ed5f8,18,0,2024-02-28T14:21:51.076Z,french_947.wav,0,poule,291,26,3,5,français,f,4,0.4,29.65801923,0.55037335
60c7987a11054a60df5ed5f8,18,0,2024-02-28T14:21:51.076Z,french_947.wav,0,poule,291,26,3,5,français,f,5,0.5,-69.01848253,1.05019014
60c7987a11054a60df5ed5f8,18,0,2024-02-28T14:21:51.076Z,french_947.wav,0,poule,291,26,3,5,français,f,6,0.6,-28.7020507,1.09970152
60c7987a11054a60df5ed5f8,18,0,2024-02-28T14:21:51.076Z,french_947.wav,0,poule,291,26,3,5,français,f,7,0.7,-92.17619984,0.0368249
60c7987a11054a60df5ed5f8,18,0,2024-02-28T14:21:51.076Z,french_947.wav,0,poule,291,26,3,5,français,f,8,0.8,-36.30210181,1.66906697
60c7987a11054a60df5ed5f8,18,0,2024-02-28T14:21:51.076Z,french_947.wav,0,poule,291,26,3,5,français,f,9,0.9,21.44134056,1.08042493
60c7987a11054a60df5ed5f8,18,0,2024-02-28T14:21:51.076Z,french_947.wav,0,poule,291,26,3,5,français,f,10,1.0,-89.45827175,1.58321133
60c7987a11054a60df5ed5f8,18,0,2024-02-28T14:21:51.076Z,french_947.wav,0,poule,291,26,3,5,français,f,11,1.1,-96.98494763,0.55777652
60c7987a11054a60df5ed5f8,18,0,2024-02-28T14:21:51.076Z,french_947.wav,0,poule,291,26,3,5,français,f,12,1.14141667,-8.8786906,0.9557999
60c7987a11054a60df5ed5f8,19,0,2024-02-28T14:21:51.076Z,french_281.wav,0,poule,653,26,3,5,français,f,0,0.0,-95.80336327,0.76183862
60c7987a11054a60df5ed5f8,19,0,2024-02-28T14:21:51.076Z,french_281.wav,0,poule,653,26,3,5,français,f,1,0.1,13.19102034,1.51704684
60c7987a11054a60df5ed5f8,19,0,2024-02-28T14:21:51.076Z,french_281.wav,0,poule,653,26,3,5,français,f,2,0.2,42.62860053,0.9408124
60c7987a11054a60df5ed5f8,19,0,2024-02-28T14:21:51.076Z,french_281.wav,0,poule,653,26,3,5,français,f,3,0.3,21.92016727,0.14797413
60c7987a11054a60df5ed5f8,19,0,2024-02-28T14:21:51.076Z,french_281.wav,0,poule,653,26,3,5,français,f,4,0.4,-2.97694346,0.97581102
60c7987a11054a60df5ed5f8,19,0,2024-02-28T14:21:51.076Z,french_281.wav,0,poule,653,26,3,5,français,f,5,0.5,-3.56004014,0.67546432
60c7987a11054a60df5ed5f8,19,0,2024-02-28T14:21:51.076Z,french_281.wav,0,poule,653,26,3,5,français,f,6,0.6,-28.69548466,0.35656679
60c7987a11054a60df5ed5f8,19,0,2024-02-28T14:21:51.076Z,french_281.wav,0,poule,653,26,3,5,français,f,7,0.7,-9.16727504,1.28503381
60c7987a11054a60df5ed5f8,19,0,2024-02-28T14:21:51.076Z,french_281.wav,0,poule,653,26,3,5,français,f,8,0.8,7.86062341,0.91616519
60c7987a11054a60df5ed5f8,19,0,2024-02-28T14:21:51.076Z,french_281.wav,0,poule,653,26,3,5,français,f,9,0.9,-95.03668578,1.72740892
60c7987a11054a60df5ed5f8,19,0,2024-02-28T14:21:51.076Z,french_281.wav,0,poule,653,26,3,5,français,f,10,1.0,-83.63952968,0.79466522
60c7987a11054a60df5ed5f8,19,0,2024-02-28T14:21:51.076Z,french_281.wav,0,poule,653,26,3,5,français,f,11,1.1,74.11931798,0.92967992
60c7987a11054a60df5ed5f8,19,0,2024-02-28T14:21:51.076Z,french_281.wav,0,poule,653,26,3,5,français,f,12,1.14141667,32.00428404,1.54385024
60c7987a11054a60df5ed5f8,20,0,2024-02-28T14:21:51.076Z,french_40.wav,0,poule,1365,26,3,5,français,f,0,0.0,-8.12729319,1.33981221
60c7987a11054a60df5ed5f8,20,0,2024-02-28T14:21:51.076Z,french_40.wav,0,poule,1365,26,3,5,français,f,1,0.1,4.45938553,0.58230507
60c7987a11054a60df5ed5f8,20,0,2024-02-28T14:21:51.076Z,french_40.wav,0,poule,1365,26,3,5,français,f,2,0.2,28.58144877,0.45774736
60c7987a11054a60df5ed5f8,20,0,2024-02-28T14:21:51.076Z,french_40.wav,0,poule,1365,26,3,5,français,f,3,0.3,-11.92795435,0.82403207
60c7987a11054a60df5ed5f8,20,0,2024-02-28T14:21:51.076Z,french_40.wav,0,poule,1365,26,3,5,français,f,4,0.4,43.56251257,1.03540986
60c7987a11054a60df5ed5f8,20,0,2024-02-28T14:21:51.076Z,french_40.wav,0,poule,1365,26,3,5,français,f,5,0.5,22.26926875,1.51862285
60c7987a11054a60df5ed5f8,20,0,2024-02-28T14:21:51.076Z,french_40.wav,0,poule,1365,26,3,5,français,f,6,0.6,-14.80375006,1.30207552
60c7987a11054a60df5ed5f8,20,0,2024-02-28T14:21:51.076Z,french_40.wav,0,poule,1365,26,3,5,français,f,7,0.7,-6.02231593,0.76961448
60c7987a11054a60df5ed5f8,20,0,2024-02-28T14:21:51.076Z,french_40.wav,0,poule,1365,26,3,5,français,f,8,0.8,27.11076244,1.12344021
60c7987a11054a60df5ed5f8,20,0,2024-02-28T14:21:51.076Z,french_40.wav,0,poule,1365,26,3,5,français,f,9,0.9,1.30682946,0.05989398
60c7987a11054a60df5ed5f8,20,0,2024-02-28T14:21:51.076Z,french_40.wav,0,poule,1365,26,3,5,français,f,10,1.0,-93.52950678,0.28850959
60c7987a11054a60df5ed5f8,20,0,2024-02-28T14:21:51.076Z,french_40.wav,0,poule,1365,26,3,5,français,f,11,1.1,-66.90804862,0.1338746
60c7987a11054a60df5ed5f8,20,0,2024-02-28T14:21:51.076Z,french_40.wav,0,poule,1365,26,3,5,français,f,12,1.14141667,-0.63154276,1.0832794
60c7987a11054a60df5ed5f8,21,0,2024-02-28T14:21:51.076Z,french_456.wav,0,pull,378,26,3,5,français,f,0,0.0,-2.26654668,0.86240832
60c7987a11054a60df5ed5f8,21,0,2024-02-28T14:21:51.076Z,french_456.wav,0,pull,378,26,3,5,français,f,1,0.1,-20.96535275,0.10770288
60c7987a11054a60df5ed5f8,21,0,2024-02-28T14:21:51.076Z,french_456.wav,0,pull,378,26,3,5,français,f,2,0.2,-92.77471831,0.29391464
60c7987a11054a60df5ed5f8,21,0,2024-02-28T14:21:51.076Z,french_456.wav,0,pull,378,26,3,5,français,f,3,0.3,-41.09891514,0.90200695
60c7987a11054a60df5ed5f8,21,0,2024-02-28T14:21:51.076Z,french_456.wav,0,pull,378,26,3,5,français,f,4,0.4,21.41579928,0.53087956
60c7987a11054a60df5ed5f8,21,0,2024-02-28T14:21:51.076Z,french_456.wav,0,pull,378,26,3,5,français,f,5,0.5,84.32473672,0.6185453
60c7987a11054a60df5ed5f8,21,0,2024-02-28T14:21:51.076Z,french_456.wav,0,pull,378,26,3,5,français,f,6,0.6,-7.32763276,1.44054295
60c7987a11054a60df5ed5f8,21,0,2024-02-28T14:21:51.076Z,french_456.wav,0,pull,378,26,3,5,français,f,7,0.7,52.18499563,0.32966842
60c7987a11054a60df5ed5f8,21,0,2024-02-28T14:21:51.076Z,french_456.wav,0,pull,378,26,3,5,français,f,8,0.8,-68.20477543,1.53912075
60c7987a11054a60df5ed5f8,21,0,2024-02-28T14:21:51.076Z,french_456.wav,0,pull,378,26,3,5,français,f,9,0.9,-22.99427194,0.23010323
60c7987a11054a60df5ed5f8,21,0,2024-02-28T14:21:51.076Z,french_456.wav,0,pull,378,26,3,5,français,f,10,1.0,66.06872795,1.59369
60c7987a11054a60df5ed5f8,21,0,2024-02-28T14:21:51.076Z,french_456.wav,0,pull,378,26,3,5,français,f,11,1.1,60.52269561,1.29137405
60c7987a11054a60df5ed5f8,21,0,2024-02-28T14:21:51.076Z,french_456.wav,0,pull,378,26,3,5,français,f,12,1.14141667,-21.51058351,0.33848916
60c7987a11054a60df5ed5f8,22,0,2024-02-28T14:21:51.076Z,french_827.wav,0,poule,195,26,3,5,français,f,0,0.0,47.61901084,0.78776038
60c7987a11054a60df5ed5f8,22,0,2024-02-28T14:21:51.076Z,french_827.wav,0,poule,195,26,3,5,français,f,1,0.1,-12.46162853,1.19255922
60c7987a11054a60df5ed5f8,22,0,2024-02-28T14:21:51.076Z,french_827.wav,0,poule,195,26,3,5,français,f,2,0.2,80.2031215,0.63498127
60c7987a11054a60df5ed5f8,22,0,2024-02-28T14:21:51.076Z,french_827.wav,0,poule,195,26,3,5,français,f,3,0.3,-17.58711111,0.79514732
60c7987a11054a60df5ed5f8,22,0,2024-02-28T14:21:51.076Z,french_827.wav,0,poule,195,26,3,5,français,f,4,0.4,-42.97148834,0.7219145
60c7987a11054a60df5ed5f8,22,0,2024-02-28T14:21:51.076Z,french_827.wav,0,poule,195,26,3,5,français,f,5,0.5,91.5700687,0.23829121
60c7987a11054a60df5ed5f8,22,0,2024-02-28T14:21:51.076Z,french_827.wav,0,poule,195,26,3,5,français,f,6,0.6,73.27406728,0.56077431
60c7987a11054a60df5ed5f8,22,0,2024-02-28T14:21:51.076Z,french_827.wav,0,poule,195,26,3,5,français,f,7,0.7,-33.8931301,1.6060627
60c7987a11054a60df5ed5f8,22,0,2024-02-28T14:21:51.076Z,french_827.wav,0,poule,195,26,3,5,français,f,8,0.8,-11.46118568,0.93017276
60c7987a11054a60df5ed5f8,22,0,2024-02-28T14:21:51.076Z,french_827.wav,0,poule,195,26,3,5,français,f,9,0.9,24.73344969,1.70918062
60c7987a11054a60df5ed5f8,22,0,2024-02-28T14:21:51.076Z,french_827.wav,0,poule,195,26,3,5,français,f,10,1.0,15.31350424,0.85960328
60c7987a11054a60df5ed5f8,22,0,2024-02-28T14:21:51.076Z,french_827.wav,0,poule,195,26,3,5,français,f,11,1.1,-53.93717893,0.88873758
60c7987a11054a60df5ed5f8,22,0,2024-02-28T14:21:51.076Z,french_827.wav,0,poule,195,26,3,5,français,f,12,1.14141667,7.58981219,0.97933267
60c7987a11054a60df5ed5f8,23,0,2024-02-28T14:21:51.076Z,french_520.wav,0,pull,220,26,3,5,français,f,0,0.0,54.59631185,1.78597268
60c7987a11054a60df5ed5f8,23,0,2024-02-28T14:21:51.076Z,french_520.wav,0,pull,220,26,3,5,français,f,1,0.1,-18.71306674,0.74285754
60c7987a11054a60df5ed5f8,23,0,2024-02-28T14:21:51.076Z,french_520.wav,0,pull,220,26,3,5,français,f,2,0.2,71.20328592,1.19325047
60c7987a11054a60df5ed5f8,23,0,2024-02-28T14:21:51.076Z,french_520.wav,0,pull,220,26,3,5,français,f,3,0.3,-11.6397205,0.1474075
60c7987a11054a60df5ed5f8,23,0,2024-02-28T14:21:51.076Z,french_520.wav,0,pull,220,26,3,5,français,f,4,0.4,16.59314513,0.42865605
60c7987a11054a60df5ed5f8,23,0,2024-02-28T14:21:51.076Z,french_520.wav,0,pull,220,26,3,5,français,f,5,0.5,89.51821443,0.10037667
60c7987a11054a60df5ed5f8,23,0,2024-02-28T14:21:51.076Z,french_520.wav,0,pull,220,26,3,5,français,f,6,0.6,8.22538685,0.90555866
60c7987a11054a60df5ed5f8,23,0,2024-02-28T14:21:51.076Z,french_520.wav,0,pull,220,26,3,5,français,f,7,0.7,99.6824518,0.8436254
60c7987a11054a60df5ed5f8,23,0,2024-02-28T14:21:51.076Z,french_520.wav,0,pull,220,26,3,5,français,f,8,0.8,6.88409597,0.04116239
60c7987a11054a60df5ed5f8,23,0,2024-02-28T14:21:51.076Z,french_520.wav,0,pull,220,26,3,5,français,f,9,0.9,-67.19157404,1.43483218
60c7987a11054a60df5ed5f8,23,0,2024-02-28T14:21:51.076Z,french_520.wav,0,pull,220,26,3,5,français,f,10,1.0,72.30648841,0.75741096
60c7987a11054a60df5ed5f8,23,0,2024-02-28T14:21:51.076Z,french_520.wav,0,pull,220,26,3,5,français,f,11,1.1,-93.79261589,1.45404445
60c7987a11054a60df5ed5f8,23,0,2024-02-28T14:21:51.076Z,french_520.wav,0,pull,220,26,3,5,français,f,12,1.14141667,-78.36877444,0.95774315
60c7987a11054a60df5ed5f8,24,0,2024-02-28T14:21:51.076Z,french_630.wav,0,poule,330,26,3,5,français,f,0,0.0,-11.85609202,1.94260734
60c7987a11054a60df5ed5f8,24,0,2024-02-28T14:21:51.076Z,french_630.wav,0,poule,330,26,3,5,français,f,1,0.1,96.09656475,1.15731247
60c7987a11054a60df5ed5f8,24,0,2024-02-28T14:21:51.076Z,french_630.wav,0,poule,330,26,3,5,français,f,2,0.2,-33.56747365,0.61883627
60c7987a11054a60df5ed5f8,24,0,2024-02-28T14:21:51.076Z,french_630.wav,0,poule,330,26,3,5,français,f,3,0.3,28.74577445,1.63189615
60c7987a11054a60df5ed5f8,24,0,2024-02-28T14:21:51.076Z,french_630.wav,0,poule,330,26,3,5,français,f,4,0.4,2.92872037,0.13310367
60c7987a11054a60df5ed5f8,24,0,2024-02-28T14:21:51.076Z,french_630.wav,0,poule,330,26,3,5,français,f,5,0.5,33.78274033,0.62854349
60c7987a11054a60df5ed5f8,24,0,2024-02-28T14:21:51.076Z,french_630.wav,0,poule,330,26,3,5,français,f,6,0.6,33.00019437,1.95286232
60c7987a11054a60df5ed5f8,24,0,2024-02-28T14:21:51.076Z,french_630.wav,0,poule,330,26,3,5,français,f,7,0.7,47.31284147,0.55695804
60c7987a11054a60df5ed5f8,24,0,2024-02-28T14:21:51.076Z,french_630.wav,0,poule,330,26,3,5,français,f,8,0.8,-99.16635588,0.39433406
60c7987a11054a60df5ed5f8,24,0,2024-02-28T14:21:51.076Z,french_630.wav,0,poule,330,26,3,5,français,f,9,0.9,77.81632981,0.61587688
60c7987a11054a60df5ed5f8,24,0,2024-02-28T14:21:51.076Z,french_630.wav,0,poule,330,26,3,5,français,f,10,1.0,69.4017306,1.15717027
60c7987a11054a60df5ed5f8,24,0,2024-02-28T14:21:51.076Z,french_630.wav,0,poule,330,26,3,5,français,f,11,1.1,18.2284971,0.28159614
60c7987a11054a60df5ed5f8,24,0,2024-02-28T14:21:51.076Z,french_630.wav,0,poule,330,26,3,5,français,f,12,1.14141667,-69.99810241,1.31420192
60c7987a11054a60df5ed5f8,25,0,2024-02-28T14:21:51.076Z,french_111.wav,0,poule,188,26,3,5,français,f,0,0.0,14.77849199,0.705567
60c7987a11054a60df5ed5f8,25,0,2024-02-28T14:21:51.076Z,french_111.wav,0,poule,188,26,3,5,français,f,1,0.1,-93.87823823,1.75025846
60c7987a11054a60df5ed5f8,25,0,2024-02-28T14:21:51.076Z,french_111.wav,0,poule,188,26,3,5,français,f,2,0.2,64.26417709,0.64729838
60c7987a11054a60df5ed5f8,25,0,2024-02-28T14:21:51.076Z,french_111.wav,0,poule,188,26,3,5,français,f,3,0.3,-22.82520637,0.85969061
60c7987a11054a60df5ed5f8,25,0,2024-02-28T14:21:51.076Z,french_111.wav,0,poule,188,26,3,5,français,f,4,0.4,98.98633094,0.27217842
60c7987a11054a60df5ed5f8,25,0,2024-02-28T14:21:51.076Z,french_111.wav,0,poule,188,26,3,5,français,f,5,0.5,61.91694484,1.89781194
60c7987a11054a60df5ed5f8,25,0,2024-02-28T14:21:51.076Z,french_111.wav,0,poule,188,26,3,5,français,f,6,0.6,-14.22171185,0.81989365
60c7987a11054a60df5ed5f8,25,0,2024-02-28T14:21:51.076Z,french_111.wav,0,poule,188,26,3,5,français,f,7,0.7,13.64889923,1.01021301
60c7987a11054a60df5ed5f8,25,0,2024-02-28T14:21:51.076Z,french_111.wav,0,poule,188,26,3,5,français,f,8,0.8,16.45015469,0.3816251
60c7987a11054a60df5ed5f8,25,0,2024-02-28T14:21:51.076Z,french_111.wav,0,poule,188,26,3,5,français,f,9,0.9,68.39985611,1.4301898
60c7987a11054a60df5ed5f8,25,0,2024-02-28T14:21:51.076Z,french_111.wav,0,poule,188,26,3,5,français,f,10,1.0,9.08640089,1.68654452
60c7987a11054a60df5ed5f8,25,0,2024-02-28T14:21:51.076Z,french_111.wav,0,poule,188,26,3,5,français,f,11,1.1,-0.24488945,0.43604245
60c7987a11054a60df5ed5f8,25,0,2024-02-28T14:21:51.076Z,french_111.wav,0,poule,188,26,3,5,français,f,12,1.14141667,-45.33321106,1.24858314
60c7987a11054a60df5ed5f8,26,0,2024-02-28T14:21:51.076Z,french_625.wav,0,pull,288,26,3,5,français,f,0,0.0,-52.31869124,1.63379894
60c7987a11054a60df5ed5f8,26,0,2024-02-28T14:21:51.076Z,french_625.wav,0,pull,288,26,3,5,français,f,1,0.1,-25.23577265,0.38535148
60c7987a11054a60df5ed5f8,26,0,2024-02-28T14:21:51.076Z,french_625.wav,0,pull,288,26,3,5,français,f,2,0.2,-60.75977445,1.4410786
60c7987a11054a60df5ed5f8,26,0,2024-02-28T14:21:51.076Z,french_625.wav,0,pull,288,26,3,5,français,f,3,0.3,-3.59619095,0.29355574
60c7987a11054a60df5ed5f8,26,0,2024-02-28T14:21:51.076Z,french_625.wav,0,pull,288,26,3,5,français,f,4,0.4,-51.44020573,1.40834543
60c7987a11054a60df5ed5f8,26,0,2024-02-28T14:21:51.076Z,french_625.wav,0,pull,288,26,3,5,français,f,5,0.5,-56.50890025,1.57997293
60c7987a11054a60df5ed5f8,26,0,2024-02-28T14:21:51.076Z,french_625.wav,0,pull,288,26,3,5,français,f,6,0.6,-33.258937,0.14193207
60c7987a11054a60df5ed5f8,26,0,2024-02-28T14:21:51.076Z,french_625.wav,0,pull,288,26,3,5,français,f,7,0.7,60.17412763,1.60873566
60c7987a11054a60df5ed5f8,26,0,2024-02-28T14:21:51.076Z,french_625.wav,0,pull,288,26,3,5,français,f,8,0.8,-83.80517284,1.9133151
60c7987a11054a60df5ed5f8,26,0,2024-02-28T14:21:51.076Z,french_625.wav,0,pull,288,26,3,5,français,f,9,0.9,51.66221663,1.29537879
60c7987a11054a60df5ed5f8,26,0,2024-02-28T14:21:51.076Z,french_625.wav,0,pull,288,26,3,5,français,f,10,1.0,-48.90750727,1.20151545
60c7987a11054a60df5ed5f8,26,0,2024-02-28T14:21:51.076Z,french_625.wav,0,pull,288,26,3,5,français,f,11,1.1,-44.74068411,0.64392762
60c7987a11054a60df5ed5f8,26,0,2024-02-28T14:21:51.076Z,french_625.wav,0,pull,288,26,3,5,français,f,12,1.14141667,69.22661346,1.24366186
60c7987a11054a60df5ed5f8,27,0,2024-02-28T14:21:51.076Z,french_733.wav,0,poule,181,26,3,5,français,f,0,0.0,-28.30259207,0.49045242
60c7987a11054a60df5ed5f8,27,0,2024-02-28T14:21:51.076Z,french_733.wav,0,poule,181,26,3,5,français,f,1,0.1,-20.51655877,0.41105181
60c7987a11054a60df5ed5f8,27,0,2024-02-28T14:21:51.076Z,french_733.wav,0,poule,181,26,3,5,français,f,2,0.2,32.67834183,0.51992236
60c7987a11054a60df5ed5f8,27,0,2024-02-28T14:21:51.076Z,french_733.wav,0,poule,181,26,3,5,français,f,3,0.3,6.62547625,0.5442563
60c7987a11054a60df5ed5f8,27,0,2024-02-28T14:21:51.076Z,french_733.wav,0,poule,181,26,3,5,français,f,4,0.4,-74.88223305,1.50191258
60c7987a11054a60df5ed5f8,27,0,2024-02-28T14:21:51.076Z,french_733.wav,0,poule,181,26,3,5,français,f,5,0.5,78.7904108,0.7960124
60c7987a11054a60df5ed5f8,27,0,2024-02-28T14:21:51.076Z,french_733.wav,0,poule,181,26,3,5,français,f,6,0.6,92.741833,1.55647812
60c7987a11054a60df5ed5f8,27,0,2024-02-28T14:21:51.076Z,french_733.wav,0,poule,181,26,3,5,français,f,7,0.7,-51.74379755,0.75813018
60c7987a11054a60df5ed5f8,27,0,2024-02-28T14:21:51.076Z,french_733.wav,0,poule,181,26,3,5,français,f,8,0.8,0.26100759,1.97775979
60c7987a11054a60df5ed5f8,27,0,2024-02-28T14:21:51.076Z,french_733.wav,0,poule,181,26,3,5,français,f,9,0.9,80.00528442,1.24266335
60c7987a11054a60df5ed5f8,27,0,2024-02-28T14:21:51.076Z,french_733.wav,0,poule,181,26,3,5,français,f,10,1.0,-20.98835091,0.70545845
60c7987a11054a60df5ed5f8,27,0,2024-02-28T14:21:51.076Z,french_733.wav,0,poule,181,26,3,5,français,f,11,1.1,-67.79194344,0.86751529
60c7987a11054a60df5ed5f8,27,0,2024-02-28T14:21:51.076Z,french_733.wav,0,poule,181,26,3,5,français,f,12,1.14141667,20.39044297,1.05140742
60c7987a11054a60df5ed5f8,28,0,2024-02-28T14:21:51.076Z,french_309.wav,0,poule,374,26,3,5,français,f,0,0.0,88.86072846,0.49259138
60c7987a11054a60df5ed5f8,28,0,2024-02-28T14:21:51.076Z,french_309.wav,0,poule,374,26,3,5,français,f,1,0.1,-92.30784176,1.03565122
60c7987a11054a60df5ed5f8,28,0,2024-02-28T14:21:51.076Z,french_309.wav,0,poule,374,26,3,5,français,f,2,0.2,82.47612196,1.68879094
60c7987a11054a60df5ed5f8,28,0,2024-02-28T14:21:51.076Z,french_309.wav,0,poule,374,26,3,5,français,f,3,0.3,57.0914166,0.15996054
60c7987a11054a60df5ed5f8,28,0,2024-02-28T14:21:51.076Z,french_309.wav,0,poule,374,26,3,5,français,f,4,0.4,66.45676368,0.58460838
60c7987a11054a60df5ed5f8,28,0,2024-02-28T14:21:51.076Z,french_309.wav,0,poule,374,26,3,5,français,f,5,0.5,72.19100472,1.83489212
60c7987a11054a60df5ed5f8,28,0,2024-02-28T14:21:51.076Z,french_309.wav,0,poule,374,26,3,5,français,f,6,0.6,35.35255388,0.91773079
60c7987a11054a60df5ed5f8,28,0,2024-02-28T14:21:51.076Z,french_309.wav,0,poule,374,26,3,5,français,f,7,0.7,-77.76741336,1.18228681
60c7987a11054a60df5ed5f8,28,0,2024-02-28T14:21:51.076Z,french_309.wav,0,poule,374,26,3,5,français,f,8,0.8,54.34179283,1.82634316
60c7987a11054a60df5ed5f8,28,0,2024-02-28T14:21:51.076Z,french_309.wav,0,poule,374,26,3,5,français,f,9,0.9,-68.94607686,1.45479271
60c7987a11054a60df5ed5f8,28,0,2024-02-28T14:21:51.076Z,french_309.wav,0,poule,374,26,3,5,français,f,10,1.0,31.97810202,1.70391198
60c7987a11054a60df5ed5f8,28,0,2024-02-28T14:21:51.076Z,french_309.wav,0,poule,374,26,3,5,français,f,11,1.1,-11.94966658,1.08327525
60c7987a11054a60df5ed5f8,28,0,2024-02-28T14:21:51.076Z,french_309.wav,0,poule,374,26,3,5,français,f,12,1.14141667,53.65953482,1.25779548
60c7987a11054a60df5ed5f8,29,0,2024-02-28T14:21:51.076Z,french_52.wav,0,poule,1232,26,3,5,français,f,0,0.0,93.38164969,0.21743143
60c7987a11054a60df5ed5f8,29,0,2024-02-28T14:21:51.076Z,french_52.wav,0,poule,1232,26,3,5,français,f,1,0.1,-4.17463196,1.66269787
60c7987a11054a60df5ed5f8,29,0,2024-02-28T14:21:51.076Z,french_52.wav,0,poule,1232,26,3,5,français,f,2,0.2,43.01045584,0.38714673
60c7987a11054a60df5ed5f8,29,0,2024-02-28T14:21:51.076Z,french_52.wav,0,poule,1232,26,3,5,français,f,3,0.3,79.89764716,1.29835481
60c7987a11054a60df5ed5f8,29,0,2024-02-28T14:21:51.076Z,french_52.wav,0,poule,1232,26,3,5,français,f,4,0.4,89.53615732,1.7255644
60c7987a11054a60df5ed5f8,29,0,2024-02-28T14:21:51.076Z,french_52.wav,0,poule,1232,26,3,5,français,f,5,0.5,-1.91048344,0.55155407
60c7987a11054a60df5ed5f8,29,0,2024-02-28T14:21:51.076Z,french_52.wav,0,poule,1232,26,3,5,français,f,6,0.6,-9.63392165,0.27578942
60c7987a11054a60df5ed5f8,29,0,2024-02-28T14:21:51.076Z,french_52.wav,0,poule,1232,26,3,5,français,f,7,0.7,-91.20147798,1.40308441
60c7987a11054a60df5ed5f8,29,0,2024-02-28T14:21:51.076Z,french_52.wav,0,poule,1232,26,3,5,français,f,8,0.8,-22.16876699,1.87234948
60c7987a11054a60df5ed5f8,29,0,2024-02-28T14:21:51.076Z,french_52.wav,0,poule,1232,26,3,5,français,f,9,0.9,26.46243178,1.88038075
60c7987a11054a60df5ed5f8,29,0,2024-02-28T14:21:51.076Z,french_52.wav,0,poule,1232,26,3,5,français,f,10,1.0,-96.25408509,1.06731664
60c7987a11054a60df5ed5f8,29,0,2024-02-28T14:21:51.076Z,french_52.wav,0,poule,1232,26,3,5,français,f,11,1.1,-45.87026752,1.74934034
60c7987a11054a60df5ed5f8,29,0,2024-02-28T14:21:51.076Z,french_52.wav,0,poule,1232,26,3,5,français,f,12,1.14141667,-15.0624862,1.38742842
60c7987a11054a60df5ed5f8,30,0,2024-02-28T14:21:51.076Z,french_469.wav,0,pull,554,26,3,5,français,f,0,0.0,-11.84414354,1.70542515
60c7987a11054a60df5ed5f8,30,0,2024-02-28T14:21:51.076Z,french_469.wav,0,pull,554,26,3,5,français,f,1,0.1,-48.40182789,1.16680679
60c7987a11054a60df5ed5f8,30,0,2024-02-28T14:21:51.076Z,french_469.wav,0,pull,554,26,3,5,français,f,2,0.2,-1.62228667,1.49863903
60c7987a11054a60df5ed5f8,30,0,2024-02-28T14:21:51.076Z,french_469.wav,0,pull,554,26,3,5,français,f,3,0.3,48.75005327,1.41560569
60c7987a11054a60df5ed5f8,30,0,2024-02-28T14:21:51.076Z,french_469.wav,0,pull,554,26,3,5,français,f,4,0.4,-26.14061485,1.39507228
60c7987a11054a60df5ed5f8,30,0,2024-02-28T14:21:51.076Z,french_469.wav,0,pull,554,26,3,5,français,f,5,0.5,92.71891808,0.0638533
60c7987a11054a60df5ed5f8,30,0,2024-02-28T14:21:51.076Z,french_469.wav,0,pull,554,26,3,5,français,f,6,0.6,-16.05969494,0.05359306
60c7987a11054a60df5ed5f8,30,0,2024-02-28T14:21:51.076Z,french_469.wav,0,pull,554,26,3,5,français,f,7,0.7,-24.84536451,1.50590241
60c7987a11054a60df5ed5f8,30,0,2024-02-28T14:21:51.076Z,french_469.wav,0,pull,554,26,3,5,français,f,8,0.8,45.28109884,1.38923205
60c7987a11054a60df5ed5f8,30,0,2024-02-28T14:21:51.076Z,french_469.wav,0,pull,554,26,3,5,français,f,9,0.9,86.67333684,1.69756748
60c7987a11054a60df5ed5f8,30,0,2024-02-28T14:21:51.076Z,french_469.wav,0,pull,554,26,3,5,français,f,10,1.0,-92.87325643,1.98155922
60c7987a11054a60df5ed5f8,30,0,2024-02-28T14:21:51.076Z,french_469.wav,0,pull,554,26,3,5,français,f,11,1.1,4.17895767,1.36025463
60c7987a11054a60df5ed5f8,30,0,2024-02-28T14:21:51.076Z,french_469.wav,0,pull,554,26,3,5,français,f,12,1.14141667,50.19046743,1.37929818
60c7987a11054a60df5ed5f8,31,0,2024-02-28T14:21:51.076Z,french_317.wav,0,pull,696,26,3,5,français,f,0,0.0,40.8685805,0.12762298
60c7987a11054a60df5ed5f8,31,0,2024-02-28T14:21:51.076Z,french_317.wav,0,pull,696,26,3,5,français,f,1,0.1,-18.25010816,0.46117381
60c7987a11054a60df5ed5f8,31,0,2024-02-28T14:21:51.076Z,french_317.wav,0,pull,696,26,3,5,français,f,2,0.2,21.38431057,0.51489794
60c7987a11054a60df5ed5f8,31,0,2024-02-28T14:21:51.076Z,french_317.wav,0,pull,696,26,3,5,français,f,3,0.3,95.9205375,0.84411481
60c7987a11054a60df5ed5f8,31,0,2024-02-28T14:21:51.076Z,french_317.wav,0,pull,696,26,3,5,français,f,4,0.4,38.32089871,0.32765242
60c7987a11054a60df5ed5f8,31,0,2024-02-28T14:21:51.076Z,french_317.wav,0,pull,696,26,3,5,français,f,5,0.5,-21.23529277,0.79138261
60c7987a11054a60df5ed5f8,31,0,2024-02-28T14:21:51.076Z,french_317.wav,0,pull,696,26,3,5,français,f,6,0.6,77.91728969,0.47375235
60c7987a11054a60df5ed5f8,31,0,2024-02-28T14:21:51.076Z,french_317.wav,0,pull,696,26,3,5,français,f,7,0.7,80.74208796,0.7422914
60c7987a11054a60df5ed5f8,31,0,2024-02-28T14:21:51.076Z,french_317.wav,0,pull,696,26,3,5,français,f,8,0.8,7.4329056,0.34355832
60c7987a11054a60df5ed5f8,31,0,2024-02-28T14:21:51.076Z,french_317.wav,0,pull,696,26,3,5,français,f,9,0.9,43.55624299,0.04625658
60c7987a11054a60df5ed5f8,31,0,2024-02-28T14:21:51.076Z,french_317.wav,0,pull,696,26,3,5,français,f,10,1.0,-3.0789023,1.28889799
60c7987a11054a60df5ed5f8,31,0,2024-02-28T14:21:51.076Z,french_317.wav,0,pull,696,26,3,5,français,f,11,1.1,53.49310135,1.94514932
60c7987a11054a60df5ed5f8,31,0,2024-02-28T14:21:51.076Z,french_317.wav,0,pull,696,26,3,5,français,f,12,1.14141667,20.73152809,0.29763753
60c7987a11054a60df5ed5f8,32,0,2024-02-28T14:21:51.076Z,french_217.wav,0,poule,248,26,3,5,français,f,0,0.0,84.06526656,0.64894292
60c7987a11054a60df5ed5f8,32,0,2024-02-28T14:21:51.076Z,french_217.wav,0,poule,248,26,3,5,français,f,1,0.1,-46.35743075,1.09249026
60c7987a11054a60df5ed5f8,32,0,2024-02-28T14:21:51.076Z,french_217.wav,0,poule,248,26,3,5,français,f,2,0.2,-53.95171452,1.10478021
60c7987a11054a60df5ed5f8,32,0,2024-02-28T14:21:51.076Z,french_217.wav,0,poule,248,26,3,5,français,f,3,0.3,59.83825827,1.53269109
60c7987a11054a60df5ed5f8,32,0,2024-02-28T14:21:51.076Z,french_217.wav,0,poule,248,26,3,5,français,f,4,0.4,-26.88805114,0.4736561
60c7987a11054a60df5ed5f8,32,0,2024-02-28T14:21:51.076Z,french_217.wav,0,poule,248,26,3,5,français,f,5,0.5,81.94609504,1.78871286
60c7987a11054a60df5ed5f8,32,0,2024-02-28T14:21:51.076Z,french_217.wav,0,poule,248,26,3,5,français,f,6,0.6,31.29853371,0.02195498
60c7987a11054a60df5ed5f8,32,0,2024-02-28T14:21:51.076Z,french_217.wav,0,poule,248,26,3,5,français,f,7,0.7,48.3535035,0.5845576
60c7987a11054a60df5ed5f8,32,0,2024-02-28T14:21:51.076Z,french_217.wav,0,poule,248,26,3,5,français,f,8,0.8,-35.90836063,0.61325304
60c7987a11054a60df5ed5f8,32,0,2024-02-28T14:21:51.076Z,french_217.wav,0,poule,248,26,3,5,français,f,9,0.9,17.81787017,1.47126121
60c7987a11054a60df5ed5f8,32,0,2024-02-28T14:21:51.076Z,french_217.wav,0,poule,248,26,3,5,français,f,10,1.0,-25.31347858,0.01504833
60c7987a11054a60df5ed5f8,32,0,2024-02-28T14:21:51.076Z,french_217.wav,0,poule,248,26,3,5,français,f,11,1.1,63.89770725,0.61680726
60c7987a11054a60df5ed5f8,32,0,2024-02-28T14:21:51.076Z,french_217.wav,0,poule,248,26,3,5,français,f,12,1.14141667,1.46911639,0.99417778
60c7987a11054a60df5ed5f8,33,0,2024-02-28T14:21:51.076Z,french_249.wav,0,pull,279,26,3,5,français,f,0,0.0,60.2084808,0.86559925
60c7987a11054a60df5ed5f8,33,0,2024-02-28T14:21:51.076Z,french_249.wav,0,pull,279,26,3,5,français,f,1,0.1,33.79766745,1.55064503
60c7987a11054a60df5ed5f8,33,0,2024-02-28T14:21:51.076Z,french_249.wav,0,pull,279,26,3,5,français,f,2,0.2,-67.19130294,1.44078258
60c7987a11054a60df5ed5f8,33,0,2024-02-28T14:21:51.076Z,french_249.wav,0,pull,279,26,3,5,français,f,3,0.3,-89.07860563,1.18134184
60c7987a11054a60df5ed5f8,33,0,2024-02-28T14:21:51.076Z,french_249.wav,0,pull,279,26,3,5,français,f,4,0.4,55.46525036,1.70386756
60c7987a11054a60df5ed5f8,33,0,2024-02-28T14:21:51.076Z,french_249.wav,0,pull,279,26,3,5,français,f,5,0.5,-26.3415238,0.52002409
60c7987a11054a60df5ed5f8,33,0,2024-02-28T14:21:51.076Z,french_249.wav,0,pull,279,26,3,5,français,f,6,0.6,51.34404516,1.32158866
60c7987a11054a60df5ed5f8,33,0,2024-02-28T14:21:51.076Z,french_249.wav,0,pull,279,26,3,5,français,f,7,0.7,-29.32821096,1.15452897
60c7987a11054a60df5ed5f8,33,0,2024-02-28T14:21:51.076Z,french_249.wav,0,pull,279,26,3,5,français,f,8,0.8,50.27991968,0.19271394
60c7987a11054a60df5ed5f8,33,0,2024-02-28T14:21:51.076Z,french_249.wav,0,pull,279,26,3,5,français,f,9,0.9,-10.43676988,1.46688151
60c7987a11054a60df5ed5f8,33,0,2024-02-28T14:21:51.076Z,french_249.wav,0,pull,279,26,3,5,français,f,10,1.0,5.00839112,0.5650028
60c7987a11054a60df5ed5f8,33,0,2024-02-28T14:21:51.076Z,french_249.wav,0,pull,279,26,3,5,français,f,11,1.1,24.89196533,0.4009333
60c7987a11054a60df5ed5f8,33,0,2024-02-28T14:21:51.076Z,french_249.wav,0,pull,279,26,3,5,français,f,12,1.14141667,1.54565791,0.66216287
60c7987a11054a60df5ed5f8,34,0,2024-02-28T14:21:51.076Z,french_424.wav,0,poule,294,26,3,5,français,f,0,0.0,-71.77866376,0.11874292
60c7987a11054a60df5ed5f8,34,0,2024-02-28T14:21:51.076Z,french_424.wav,0,poule,294,26,3,5,français,f,1,0.1,31.13888093,1.79573411
60c7987a11054a60df5ed5f8,34,0,2024-02-28T14:21:51.076Z,french_424.wav,0,poule,294,26,3,5,français,f,2,0.2,6.52825637,0.55389209
60c7987a11054a60df5ed5f8,34,0,2024-02-28T14:21:51.076Z,french_424.wav,0,poule,294,26,3,5,français,f,3,0.3,-35.38131695,0.66942904
60c7987a11054a60df5ed5f8,34,0,2024-02-28T14:21:51.076Z,french_424.wav,0,poule,294,26,3,5,français,f,4,0.4,93.73768065,0.69601265
60c7987a11054a60df5ed5f8,34,0,2024-02-28T14:21:51.076Z,french_424.wav,0,poule,294,26,3,5,français,f,5,0.5,19.60197895,1.68108951
60c7987a11054a60df5ed5f8,34,0,2024-02-28T14:21:51.076Z,french_424.wav,0,poule,294,26,3,5,français,f,6,0.6,-67.98715438,0.40297353
60c7987a11054a60df5ed5f8,34,0,2024-02-28T14:21:51.076Z,french_424.wav,0,poule,294,26,3,5,français,f,7,0.7,-23.21490099,0.05630634
60c7987a11054a60df5ed5f8,34,0,2024-02-28T14:21:51.076Z,french_424.wav,0,poule,294,26,3,5,français,f,8,0.8,50.97427539,0.86039262
60c7987a11054a60df5ed5f8,34,0,2024-02-28T14:21:51.076Z,french_424.wav,0,poule,294,26,3,5,français,f,9,0.9,-25.4059756,0.0495768
60c7987a11054a60df5ed5f8,34,0,2024-02-28T14:21:51.076Z,french_424.wav,0,poule,294,26,3,5,français,f,10,1.0,-40.03457553,0.37368801
60c7987a11054a60df5ed5f8,34,0,2024-02-28T14:21:51.076Z,french_424.wav,0,poule,294,26,3,5,français,f,11,1.1,-86.49108324,0.94382816
60c7987a11054a60df5ed5f8,34,0,2024-02-28T14:21:51.076Z,french_424.wav,0,poule,294,26,3,5,français,f,12,1.14141667,34.72431922,0.33429857
60c7987a11054a60df5ed5f8,35,0,2024-02-28T14:21:51.076Z,french_787.wav,0,poule,184,26,3,5,français,f,0,0.0,79.17712948,0.1163321
60c7987a11054a60df5ed5f8,35,0,2024-02-28T14:21:51.076Z,french_787.wav,0,poule,184,26,3,5,français,f,1,0.1,-73.07775463,1.90835001
60c7987a11054a60df5ed5f8,35,0,2024-02-28T14:21:51.076Z,french_787.wav,0,poule,184,26,3,5,français,f,2,0.2,-37.59236331,1.9055926
60c7987a11054a60df5ed5f8,35,0,2024-02-28T14:21:51.076Z,french_787.wav,0,poule,184,26,3,5,français,f,3,0.3,-95.60780002,1.66008027
60c7987a11054a60df5ed5f8,35,0,2024-02-28T14:21:51.076Z,french_787.wav,0,poule,184,26,3,5,français,f,4,0.4,-67.52212669,0.73855665
60c7987a11054a60df5ed5f8,35,0,2024-02-28T14:21:51.076Z,french_787.wav,0,poule,184,26,3,5,français,f,5,0.5,-72.3853784,0.63713084
60c7987a11054a60df5ed5f8,35,0,2024-02-28T14:21:51.076Z,french_787.wav,0,poule,184,26,3,5,français,f,6,0.6,55.41129583,1.4880735
60c7987a11054a60df5ed5f8,35,0,2024-02-28T14:21:51.076Z,french_787.wav,0,poule,184,26,3,5,français,f,7,0.7,-20.28029725,0.64813036
60c7987a11054a60df5ed5f8,35,0,2024-02-28T14:21:51.076Z,french_787.wav,0,poule,184,26,3,5,français,f,8,0.8,-85.08323843,1.12873134
60c7987a11054a60df5ed5f8,35,0,2024-02-28T14:21:51.076Z,french_787.wav,0,poule,184,26,3,5,français,f,9,0.9,93.86210994,1.32091412
60c7987a11054a60df5ed5f8,35,0,2024-02-28T14:21:51.076Z,french_787.wav,0,poule,184,26,3,5,français,f,10,1.0,-64.51549876,0.48515729
60c7987a11054a60df5ed5f8,35,0,2024-02-28T14:21:51.076Z,french_787.wav,0,poule,184,26,3,5,français,f,11,1.1,-56.22239298,0.45260231
60c7987a11054a60df5ed5f8,35,0,2024-02-28T14:21:51.076Z,french_787.wav,0,poule,184,26,3,5,français,f,12,1.14141667,-87.31995502,0.83170694
60c7987a11054a60df5ed5f8,36,0,2024-02-28T14:21:51.076Z,french_417.wav,0,poule,168,26,3,5,français,f,0,0.0,-32.77068381,1.43807666
60c7987a11054a60df5ed5f8,36,0,2024-02-28T14:21:51.076Z,french_417.wav,0,poule,168,26,3,5,français,f,1,0.1,10.55708239,0.31892394
60c7987a11054a60df5ed5f8,36,0,2024-02-28T14:21:51.076Z,french_417.wav,0,poule,168,26,3,5,français,f,2,0.2,9.91718709,0.85335618
60c7987a11054a60df5ed5f8,36,0,2024-02-28T14:21:51.076Z,french_417.wav,0,poule,168,26,3,5,français,f,3,0.3,-19.65098282,1.09322127
60c7987a11054a60df5ed5f8,36,0,2024-02-28T14:21:51.076Z,french_417.wav,0,poule,168,26,3,5,français,f,4,0.4,78.0410625,1.86029096
60c7987a11054a60df5ed5f8,36,0,2024-02-28T14:21:51.076Z,french_417.wav,0,poule,168,26,3,5,français,f,5,0.5,-63.41834819,1.98490369
60c7987a11054a60df5ed5f8,36,0,2024-02-28T14:21:51.076Z,french_417.wav,0,poule,168,26,3,5,français,f,6,0.6,-12.08890259,0.83094909
60c7987a11054a60df5ed5f8,36,0,2024-02-28T14:21:51.076Z,french_417.wav,0,poule,168,26,3,5,français,f,7,0.7,-70.29934215,1.67039107
60c7987a11054a60df5ed5f8,36,0,2024-02-28T14:21:51.076Z,french_417.wav,0,poule,168,26,3,5,français,f,8,0.8,4.63752128,1.16186805
60c7987a11054a60df5ed5f8,36,0,2024-02-28T14:21:51.076Z,french_417.wav,0,poule,168,26,3,5,français,f,9,0.9,-68.78784985,0.77381791
60c7987a11054a60df5ed5f8,36,0,2024-02-28T14:21:51.076Z,french_417.wav,0,poule,168,26,3,5,français,f,10,1.0,70.79482523,1.82295332
60c7987a11054a60df5ed5f8,36,0,2024-02-28T14:21:51.076Z,french_417.wav,0,poule,168,26,3,5,français,f,11,1.1,-86.94841883,0.89972345
60c7987a11054a60df5ed5f8,36,0,2024-02-28T14:21:51.076Z,french_417.wav,0,poule,168,26,3,5,français,f,12,1.14141667,94.70906792,1.91023493
60c7987a11054a60df5ed5f8,37,0,2024-02-28T14:21:51.076Z,french_726.wav,0,pull,1662,26,3,5,français,f,0,0.0,48.76420557,1.37300974
60c7987a11054a60df5ed5f8,37,0,2024-02-28T14:21:51.076Z,french_726.wav,0,pull,1662,26,3,5,français,f,1,0.1,5.12155157,1.49926665
60c7987a11054a60df5ed5f8,37,0,2024-02-28T14:21:51.076Z,french_726.wav,0,pull,1662,26,3,5,français,f,2,0.2,-72.9890042,0.85512206
60c7987a11054a60df5ed5f8,37,0,2024-02-28T14:21:51.076Z,french_726.wav,0,pull,1662,26,3,5,français,f,3,0.3,75.78946978,0.29572074
60c7987a11054a60df5ed5f8,37,0,2024-02-28T14:21:51.076Z,french_726.wav,0,pull,1662,26,3,5,français,f,4,0.4,8.27508281,1.38748174
60c7987a11054a60df5ed5f8,37,0,2024-02-28T14:21:51.076Z,french_726.wav,0,pull,1662,26,3,5,français,f,5,0.5,89.78169524,0.62022839
60c7987a11054a60df5ed5f8,37,0,2024-02-28T14:21:51.076Z,french_726.wav,0,pull,1662,26,3,5,français,f,6,0.6,3.99556136,1.06740061
60c7987a11054a60df5ed5f8,37,0,2024-02-28T14:21:51.076Z,french_726.wav,0,pull,1662,26,3,5,français,f,7,0.7,1.99959163,0.59805381
60c7987a11054a60df5ed5f8,37,0,2024-02-28T14:21:51.076Z,french_726.wav,0,pull,1662,26,3,5,français,f,8,0.8,-13.64347367,1.70561407
60c7987a11054a60df5ed5f8,37,0,2024-02-28T14:21:51.076Z,french_726.wav,0,pull,1662,26,3,5,français,f,9,0.9,30.90068593,0.37953026
60c7987a11054a60df5ed5f8,37,0,2024-02-28T14:21:51.076Z,french_726.wav,0,pull,1662,26,3,5,français,f,10,1.0,28.17986697,1.21262206
60c7987a11054a60df5ed5f8,37,0,2024-02-28T14:21:51.076Z,french_726.wav,0,pull,1662,26,3,5,français,f,11,1.1,-67.51414293,1.83341573
60c7987a11054a60df5ed5f8,37,0,2024-02-28T14:21:51.076Z,french_726.wav,0,pull,1662,26,3,5,français,f,12,1.14141667,-25.39302441,0.05128479
60c7987a11054a60df5ed5f8,38,0,2024-02-28T14:21:51.076Z,french_466.wav,0,poule,215,26,3,5,français,f,0,0.0,-23.27991826,1.52804132
60c7987a11054a60df5ed5f8,38,0,2024-02-28T14:21:51.076Z,french_466.wav,0,poule,215,26,3,5,français,f,1,0.1,97.23850922,0.01047206
60c7987a11054a60df5ed5f8,38,0,2024-02-28T14:21:51.076Z,french_466.wav,0,poule,215,26,3,5,français,f,2,0.2,-96.9465149,1.6544422
60c7987a11054a60df5ed5f8,38,0,2024-02-28T14:21:51.076Z,french_466.wav,0,poule,215,26,3,5,français,f,3,0.3,-86.96925433,1.82991551
60c7987a11054a60df5ed5f8,38,0,2024-02-28T14:21:51.076Z,french_466.wav,0,poule,215,26,3,5,français,f,4,0.4,2.85783603,0.86899364
60c7987a11054a60df5ed5f8,38,0,2024-02-28T14:21:51.076Z,french_466.wav,0,poule,215,26,3,5,français,f,5,0.5,95.91347723,1.25331213
60c7987a11054a60df5ed5f8,38,0,2024-02-28T14:21:51.076Z,french_466.wav,0,poule,215,26,3,5,français,f,6,0.6,-63.35172498,1.68509567
60c7987a11054a60df5ed5f8,38,0,2024-02-28T14:21:51.076Z,french_466.wav,0,poule,215,26,3,5,français,f,7,0.7,-25.95383213,1.20636117
60c7987a11054a60df5ed5f8,38,0,2024-02-28T14:21:51.076Z,french_466.wav,0,poule,215,26,3,5,français,f,8,0.8,-52.59375309,0.84252752
60c7987a11054a60df5ed5f8,38,0,2024-02-28T14:21:51.076Z,french_466.wav,0,poule,215,26,3,5,français,f,9,0.9,-70.79178645,1.91154977
60c7987a11054a60df5ed5f8,38,0,2024-02-28T14:21:51.076Z,french_466.wav,0,poule,215,26,3,5,français,f,10,1.0,-29.48964846,0.45592683
60c7987a11054a60df5ed5f8,38,0,2024-02-28T14:21:51.076Z,french_466.wav,0,poule,215,26,3,5,français,f,11,1.1,-52.94204961,0.35898479
60c7987a11054a60df5ed5f8,38,0,2024-02-28T14:21:51.076Z,french_466.wav,0,poule,215,26,3,5,français,f,12,1.14141667,46.57113475,1.03194217
60c7987a11054a60df5ed5f8,39,0,2024-02-28T14:21:51.076Z,french_889.wav,0,poule,129,26,3,5,français,f,0,0.0,85.2733813,0.45548566
60c7987a11054a60df5ed5f8,39,0,2024-02-28T14:21:51.076Z,french_889.wav,0,poule,129,26,3,5,français,f,1,0.1,-9.17658369,0.42780618
60c7987a11054a60df5ed5f8,39,0,2024-02-28T14:21:51.076Z,french_889.wav,0,poule,129,26,3,5,français,f,2,0.2,-74.95002821,1.13904578
60c7987a11054a60df5ed5f8,39,0,2024-02-28T14:21:51.076Z,french_889.wav,0,poule,129,26,3,5,français,f,3,0.3,-15.14184609,0.79367721
60c7987a11054a60df5ed5f8,39,0,2024-02-28T14:21:51.076Z,french_889.wav,0,poule,129,26,3,5,français,f,4,0.4,15.16006898,0.33758667
60c7987a11054a60df5ed5f8,39,0,2024-02-28T14:21:51.076Z,french_889.wav,0,poule,129,26,3,5,français,f,5,0.5,-47.48400349,0.33594429
60c7987a11054a60df5ed5f8,39,0,2024-02-28T14:21:51.076Z,french_889.wav,0,poule,129,26,3,5,français,f,6,0.6,-79.05067021,1.05553209
60c7987a11054a60df5ed5f8,39,0,2024-02-28T14:21:51.076Z,french_889.wav,0,poule,129,26,3,5,français,f,7,0.7,36.11246432,1.55353839
60c7987a11054a60df5ed5f8,39,0,2024-02-28T14:21:51.076Z,french_889.wav,0,poule,129,26,3,5,français,f,8,0.8,-10.42928376,0.48612759
60c7987a11054a60df5ed5f8,39,0,2024-02-28T14:21:51.076Z,french_889.wav,0,poule,129,26,3,5,français,f,9,0.9,-38.21466303,1.14132878
60c7987a11054a60df5ed5f8,39,0,2024-02-28T14:21:51.076Z,french_889.wav,0,poule,129,26,3,5,français,f,10,1.0,-74.40390494,1.27612663
60c7987a11054a60df5ed5f8,39,0,2024-02-28T14:21:51.076Z,french_889.wav,0,poule,129,26,3,5,français,f,11,1.1,48.21849642,0.91551084
60c7987a11054a60df5ed5f8,39,0,2024-02-28T14:21:51.076Z,french_889.wav,0,poule,129,26,3,5,français,f,12,1.14141667,70.85826142,1.65751286
60c7987a11054a60df5ed5f8,40,0,2024-02-28T14:21:51.076Z,french_747.wav,0,pull,578,26,3,5,français,f,0,0.0,22.35129755,0.57573124
60c7987a11054a60df5ed5f8,40,0,2024-02-28T14:21:51.076Z,french_747.wav,0,pull,578,26,3,5,français,f,1,0.1,31.28985519,0.11622931
60c7987a11054a60df5ed5f8,40,0,2024-02-28T14:21:51.076Z,french_747.wav,0,pull,578,26,3,5,français,f,2,0.2,73.11219061,0.36140746
60c7987a11054a60df5ed5f8,40,0,2024-02-28T14:21:51.076Z,french_747.wav,0,pull,578,26,3,5,français,f,3,0.3,-79.87541576,1.71551135
60c7987a11054a60df5ed5f8,40,0,2024-02-28T14:21:51.076Z,french_747.wav,0,pull,578,26,3,5,français,f,4,0.4,3.72751683,0.85918253
60c7987a11054a60df5ed5f8,40,0,2024-02-28T14:21:51.076Z,french_747.wav,0,pull,578,26,3,5,français,f,5,0.5,48.71311284,1.08200139
60c7987a11054a60df5ed5f8,40,0,2024-02-28T14:21:51.076Z,french_747.wav,0,pull,578,26,3,5,français,f,6,0.6,-74.27621697,0.68704186
60c7987a11054a60df5ed5f8,40,0,2024-02-28T14:21:51.076Z,french_747.wav,0,pull,578,26,3,5,français,f,7,0.7,44.77745099,0.29142073
60c7987a11054a60df5ed5f8,40,0,2024-02-28T14:21:51.076Z,french_747.wav,0,pull,578,26,3,5,français,f,8,0.8,13.39337719,0.81449994
60c7987a11054a60df5ed5f8,40,0,2024-02-28T14:21:51.076Z,french_747.wav,0,pull,578,26,3,5,français,f,9,0.9,17.18472002,1.55479788
60c7987a11054a60df5ed5f8,40,0,2024-02-28T14:21:51.076Z,french_747.wav,0,pull,578,26,3,5,français,f,10,1.0,54.20026422,0.75726735
60c7987a11054a60df5ed5f8,40,0,2024-02-28T14:21:51.076Z,french_747.wav,0,pull,578,26,3,5,français,f,11,1.1,-55.52225966,1.34917771
60c7987a11054a60df5ed5f8,40,0,2024-02-28T14:21:51.076Z,french_747.wav,0,pull,578,26,3,5,français,f,12,1.14141667,28.09696307,1.09340112
60c7987a11054a60df5ed5f8,41,0,2024-02-28T14:21:51.076Z,french_33.wav,0,poule,230,26,3,5,français,f,0,0.0,-73.97774923,1.19939349
60c7987a11054a60df5ed5f8,41,0,2024-02-28T14:21:51.076Z,french_33.wav,0,poule,230,26,3,5,français,f,1,0.1,-36.06885346,0.62157126
60c7987a11054a60df5ed5f8,41,0,2024-02-28T14:21:51.076Z,french_33.wav,0,poule,230,26,3,5,français,f,2,0.2,-90.19934184,0.91970763
60c7987a11054a60df5ed5f8,41,0,2024-02-28T14:21:51.076Z,french_33.wav,0,poule,230,26,3,5,français,f,3,0.3,0.39936716,1.47370084
60c7987a11054a60df5ed5f8,41,0,2024-02-28T14:21:51.076Z,french_33.wav,0,poule,230,26,3,5,français,f,4,0.4,96.52672865,1.0541108
60c7987a11054a60df5ed5f8,41,0,2024-02-28T14:21:51.076Z,french_33.wav,0,poule,230,26,3,5,français,f,5,0.5,63.74011165,0.90431886
60c7987a11054a60df5ed5f8,41,0,2024-02-28T14:21:51.076Z,french_33.wav,0,poule,230,26,3,5,français,f,6,0.6,31.44503744,1.27813504
60c7987a11054a60df5ed5f8,41,0,2024-02-28T14:21:51.076Z,french_33.wav,0,poule,230,26,3,5,français,f,7,0.7,14.04693027,1.74599993
60c7987a11054a60df5ed5f8,41,0,2024-02-28T14:21:51.076Z,french_33.wav,0,poule,230,26,3,5,français,f,8,0.8,-77.85077502,1.73098361
60c7987a11054a60df5ed5f8,41,0,2024-02-28T14:21:51.076Z,french_33.wav,0,poule,230,26,3,5,français,f,9,0.9,68.67883666,1.17206891
60c7987a11054a60df5ed5f8,41,0,2024-02-28T14:21:51.076Z,french_33.wav,0,poule,230,26,3,5,français,f,10,1.0,74.94832397,1.57344571
60c7987a11054a60df5ed5f8,41,0,2024-02-28T14:21:51.076Z,french_33.wav,0,poule,230,26,3,5,français,f,11,1.1,69.92169069,0.28570847
60c7987a11054a60df5ed5f8,41,0,2024-02-28T14:21:51.076Z,french_33.wav,0,poule,230,26,3,5,français,f,12,1.14141667,18.14392296,1.15456632
60c7987a11054a60df5ed5f8,42,0,2024-02-28T14:21:51.076Z,french_178.wav,0,poule,250,26,3,5,français,f,0,0.0,1.25806955,0.89128158
60c7987a11054a60df5ed5f8,42,0,2024-02-28T14:21:51.076Z,french_178.wav,0,poule,250,26,3,5,français,f,1,0.1,-13.8642171,1.6677011
60c7987a11054a60df5ed5f8,42,0,2024-02-28T14:21:51.076Z,french_178.wav,0,poule,250,26,3,5,français,f,2,0.2,44.0189021,0.73084068
60c7987a11054a60df5ed5f8,42,0,2024-02-28T14:21:51.076Z,french_178.wav,0,poule,250,26,3,5,français,f,3,0.3,2.43111128,1.41049643
60c7987a11054a60df5ed5f8,42,0,2024-02-28T14:21:51.076Z,french_178.wav,0,poule,250,26,3,5,français,f,4,0.4,-48.6924027,1.67583375
60c7987a11054a60df5ed5f8,42,0,2024-02-28T14:21:51.076Z,french_178.wav,0,poule,250,26,3,5,français,f,5,0.5,29.7252579,1.72049068
60c7987a11054a60df5ed5f8,42,0,2024-02-28T14:21:51.076Z,french_178.wav,0,poule,250,26,3,5,français,f,6,0.6,44.4385102,1.15643203
60c7987a11054a60df5ed5f8,42,0,2024-02-28T14:21:51.076Z,french_178.wav,0,poule,250,26,3,5,français,f,7,0.7,-16.6976583,0.31867551
60c7987a11054a60df5ed5f8,42,0,2024-02-28T14:21:51.076Z,french_178.wav,0,poule,250,26,3,5,français,f,8,0.8,67.5232857,0.18824388
60c7987a11054a60df5ed5f8,42,0,2024-02-28T14:21:51.076Z,french_178.wav,0,poule,250,26,3,5,français,f,9,0.9,0.0428345745,1.73114113
60c7987a11054a60df5ed5f8,42,0,2024-02-28T14:21:51.076Z,french_178.wav,0,poule,250,26,3,5,français,f,10,1.0,-2.65708451,1.1905138
60c7987a11054a60df5ed5f8,42,0,2024-02-28T14:21:51.076Z,french_178.wav,0,poule,250,26,3,5,français,f,11,1.1,9.45326319,0.45619335
60c7987a11054a60df5ed5f8,42,0,2024-02-28T14:21:51.076Z,french_178.wav,0,poule,250,26,3,5,français,f,12,1.14141667,-24.2555423,0.98502832
60c7987a11054a60df5ed5f8,43,0,2024-02-28T14:21:51.076Z,french_708.wav,0,poule,473,26,3,5,français,f,0,0.0,-84.32075665,0.145315
60c7987a11054a60df5ed5f8,43,0,2024-02-28T14:21:51.076Z,french_708.wav,0,poule,473,26,3,5,français,f,1,0.1,-90.17684716,0.08552736
60c7987a11054a60df5ed5f8,43,0,2024-02-28T14:21:51.076Z,french_708.wav,0,poule,473,26,3,5,français,f,2,0.2,-72.90155055,1.2667449
60c7987a11054a60df5ed5f8,43,0,2024-02-28T14:21:51.076Z,french_708.wav,0,poule,473,26,3,5,français,f,3,0.3,-65.4180474,0.89572221
60c7987a11054a60df5ed5f8,43,0,2024-02-28T14:21:51.076Z,french_708.wav,0,poule,473,26,3,5,français,f,4,0.4,-30.04110866,0.95885194
60c7987a11054a60df5ed5f8,43,0,2024-02-28T14:21:51.076Z,french_708.wav,0,poule,473,26,3,5,français,f,5,0.5,39.18281852,0.7904969
60c7987a11054a60df5ed5f8,43,0,2024-02-28T14:21:51.076Z,french_708.wav,0,poule,473,26,3,5,français,f,6,0.6,48.81909862,0.45133511
60c7987a11054a60df5ed5f8,43,0,2024-02-28T14:21:51.076Z,french_708.wav,0,poule,473,26,3,5,français,f,7,0.7,17.72071727,0.98870688
60c7987a11054a60df5ed5f8,43,0,2024-02-28T14:21:51.076Z,french_708.wav,0,poule,473,26,3,5,français,f,8,0.8,58.29409041,0.58111582
60c7987a11054a60df5ed5f8,43,0,2024-02-28T14:21:51.076Z,french_708.wav,0,poule,473,26,3,5,français,f,9,0.9,47.29598888,0.53990602
60c7987a11054a60df5ed5f8,43,0,2024-02-28T14:21:51.076Z,french_708.wav,0,poule,473,26,3,5,français,f,10,1.0,34.02381028,0.73597457
60c7987a11054a60df5ed5f8,43,0,2024-02-28T14:21:51.076Z,french_708.wav,0,poule,473,26,3,5,français,f,11,1.1,-77.84616196,0.61967524
60c7987a11054a60df5ed5f8,43,0,2024-02-28T14:21:51.076Z,french_708.wav,0,poule,473,26,3,5,français,f,12,1.14141667,40.78872619,0.80423968
60c7987a11054a60df5ed5f8,44,0,2024-02-28T14:21:51.076Z,french_901.wav,0,pull,397,26,3,5,français,f,0,0.0,-64.95285264,0.77791492
60c7987a11054a60df5ed5f8,44,0,2024-02-28T14:21:51.076Z,french_901.wav,0,pull,397,26,3,5,français,f,1,0.1,70.24180668,0.36162729
60c7987a11054a60df5ed5f8,44,0,2024-02-28T14:21:51.076Z,french_901.wav,0,pull,397,26,3,5,français,f,2,0.2,-78.29925323,0.94854368
60c7987a11054a60df5ed5f8,44,0,2024-02-28T14:21:51.076Z,french_901.wav,0,pull,397,26,3,5,français,f,3,0.3,28.76135856,1.39971828
60c7987a11054a60df5ed5f8,44,0,2024-02-28T14:21:51.076Z,french_901.wav,0,pull,397,26,3,5,français,f,4,0.4,-97.59411089,1.57268317
60c7987a11054a60df5ed5f8,44,0,2024-02-28T14:21:51.076Z,french_901.wav,0,pull,397,26,3,5,français,f,5,0.5,-71.4781857,0.27616247
60c7987a11054a60df5ed5f8,44,0,2024-02-28T14:21:51.076Z,french_901.wav,0,pull,397,26,3,5,français,f,6,0.6,47.50102885,0.74902357
60c7987a11054a60df5ed5f8,44,0,2024-02-28T14:21:51.076Z,french_901.wav,0,pull,397,26,3,5,français,f,7,0.7,74.58875525,1.7211117
60c7987a11054a60df5ed5f8,44,0,2024-02-28T14:21:51.076Z,french_901.wav,0,pull,397,26,3,5,français,f,8,0.8,-64.64530626,0.86441686
60c7987a11054a60df5ed5f8,44,0,2024-02-28T14:21:51.076Z,french_901.wav,0,pull,397,26,3,5,français,f,9,0.9,98.86600436,0.61741345
60c7987a11054a60df5ed5f8,44,0,2024-02-28T14:21:51.076Z,french_901.wav,0,pull,397,26,3,5,français,f,10,1.0,-34.06198226,1.07993442
60c7987a11054a60df5ed5f8,44,0,2024-02-28T14:21:51.076Z,french_901.wav,0,pull,397,26,3,5,français,f,11,1.1,52.9945055,0.68198901
60c7987a11054a60df5ed5f8,44,0,2024-02-28T14:21:51.076Z,french_901.wav,0,pull,397,26,3,5,français,f,12,1.14141667,-27.17874653,0.95785524
60c7987a11054a60df5ed5f8,45,0,2024-02-28T14:21:51.076Z,french_61.wav,0,poule,254,26,3,5,français,f,0,0.0,41.87992751,0.15859946
60c7987a11054a60df5ed5f8,45,0,2024-02-28T14:21:51.076Z,french_61.wav,0,poule,254,26,3,5,français,f,1,0.1,50.01429837,0.0345307
60c7987a11054a60df5ed5f8,45,0,2024-02-28T14:21:51.076Z,french_61.wav,0,poule,254,26,3,5,français,f,2,0.2,78.41281703,1.61149795
60c7987a11054a60df5ed5f8,45,0,2024-02-28T14:21:51.076Z,french_61.wav,0,poule,254,26,3,5,français,f,3,0.3,70.942707,0.93558847
60c7987a11054a60df5ed5f8,45,0,2024-02-28T14:21:51.076Z,french_61.wav,0,poule,254,26,3,5,français,f,4,0.4,6.43514776,0.85490183
60c7987a11054a60df5ed5f8,45,0,2024-02-28T14:21:51.076Z,french_61.wav,0,poule,254,26,3,5,français,f,5,0.5,81.12101614,1.46257569
60c7987a11054a60df5ed5f8,45,0,2024-02-28T14:21:51.076Z,french_61.wav,0,poule,254,26,3,5,français,f,6,0.6,-70.01679423,0.3355041
60c7987a11054a60df5ed5f8,45,0,2024-02-28T14:21:51.076Z,french_61.wav,0,poule,254,26,3,5,français,f,7,0.7,46.72667831,1.1796592
60c7987a11054a60df5ed5f8,45,0,2024-02-28T14:21:51.076Z,french_61.wav,0,poule,254,26,3,5,français,f,8,0.8,-54.13188201,0.85418156
60c7987a11054a60df5ed5f8,45,0,2024-02-28T14:21:51.076Z,french_61.wav,0,poule,254,26,3,5,français,f,9,0.9,-63.1082098,1.72427487
60c7987a11054a60df5ed5f8,45,0,2024-02-28T14:21:51.076Z,french_61.wav,0,poule,254,26,3,5,français,f,10,1.0,9.65318656,1.58200109
60c7987a11054a60df5ed5f8,45,0,2024-02-28T14:21:51.076Z,french_61.wav,0,poule,254,26,3,5,français,f,11,1.1,-4.6968319,0.07311123
60c7987a11054a60df5ed5f8,45,0,2024-02-28T14:21:51.076Z,french_61.wav,0,poule,254,26,3,5,français,f,12,1.14141667,-73.64232026,1.36717067
60c7987a11054a60df5ed5f8,46,0,2024-02-28T14:21:51.076Z,french_300.wav,0,pull,789,26,3,5,français,f,0,0.0,94.68384182,1.20199987
60c7987a11054a60df5ed5f8,46,0,2024-02-28T14:21:51.076Z,french_300.wav,0,pull,789,26,3,5,français,f,1,0.1,43.67173173,1.09384491
60c7987a11054a60df5ed5f8,46,0,2024-02-28T14:21:51.076Z,french_300.wav,0,pull,789,26,3,5,français,f,2,0.2,83.66057135,1.20858856
60c7987a11054a60df5ed5f8,46,0,2024-02-28T14:21:51.076Z,french_300.wav,0,pull,789,26,3,5,français,f,3,0.3,90.66477738,0.61005972
60c7987a11054a60df5ed5f8,46,0,2024-02-28T14:21:51.076Z,french_300.wav,0,pull,789,26,3,5,français,f,4,0.4,33.04822767,0.0949671
60c7987a11054a60df5ed5f8,46,0,2024-02-28T14:21:51.076Z,french_300.wav,0,pull,789,26,3,5,français,f,5,0.5,-39.54628631,1.02227962
60c7987a11054a60df5ed5f8,46,0,2024-02-28T14:21:51.076Z,french_300.wav,0,pull,789,26,3,5,français,f,6,0.6,21.73649473,1.2482894
60c7987a11054a60df5ed5f8,46,0,2024-02-28T14:21:51.076Z,french_300.wav,0,pull,789,26,3,5,français,f,7,0.7,-66.20699618,0.88228821
60c7987a11054a60df5ed5f8,46,0,2024-02-28T14:21:51.076Z,french_300.wav,0,pull,789,26,3,5,français,f,8,0.8,-68.18056654,1.15930732
60c7987a11054a60df5ed5f8,46,0,2024-02-28T14:21:51.076Z,french_300.wav,0,pull,789,26,3,5,français,f,9,0.9,73.28930536,0.69980892
60c7987a11054a60df5ed5f8,46,0,2024-02-28T14:21:51.076Z,french_300.wav,0,pull,789,26,3,5,français,f,10,1.0,74.75815468,1.66502361
60c7987a11054a60df5ed5f8,46,0,2024-02-28T14:21:51.076Z,french_300.wav,0,pull,789,26,3,5,français,f,11,1.1,-48.74741599,1.13907369
60c7987a11054a60df5ed5f8,46,0,2024-02-28T14:21:51.076Z,french_300.wav,0,pull,789,26,3,5,français,f,12,1.14141667,11.42157489,1.94543901
60c7987a11054a60df5ed5f8,47,0,2024-02-28T14:21:51.076Z,french_189.wav,0,pull,507,26,3,5,français,f,0,0.0,28.35724915,1.71415681
60c7987a11054a60df5ed5f8,47,0,2024-02-28T14:21:51.076Z,french_189.wav,0,pull,507,26,3,5,français,f,1,0.1,26.38493171,0.18459313
60c7987a11054a60df5ed5f8,47,0,2024-02-28T14:21:51.076Z,french_189.wav,0,pull,507,26,3,5,français,f,2,0.2,8.90779244,0.47305151
60c7987a11054a60df5ed5f8,47,0,2024-02-28T14:21:51.076Z,french_189.wav,0,pull,507,26,3,5,français,f,3,0.3,-34.13241848,1.92043918
60c7987a11054a60df5ed5f8,47,0,2024-02-28T14:21:51.076Z,french_189.wav,0,pull,507,26,3,5,français,f,4,0.4,-30.2250642,1.31799805
60c7987a11054a60df5ed5f8,47,0,2024-02-28T14:21:51.076Z,french_189.wav,0,pull,507,26,3,5,français,f,5,0.5,60.19050012,1.42118409
60c7987a11054a60df5ed5f8,47,0,2024-02-28T14:21:51.076Z,french_189.wav,0,pull,507,26,3,5,français,f,6,0.6,75.67852572,0.66802023
60c7987a11054a60df5ed5f8,47,0,2024-02-28T14:21:51.076Z,french_189.wav,0,pull,507,26,3,5,français,f,7,0.7,-7.18601105,1.51681652
60c7987a11054a60df5ed5f8,47,0,2024-02-28T14:21:51.076Z,french_189.wav,0,pull,507,26,3,5,français,f,8,0.8,11.94290596,0.60482519
60c7987a11054a60df5ed5f8,47,0,2024-02-28T14:21:51.076Z,french_189.wav,0,pull,507,26,3,5,français,f,9,0.9,44.4176468,0.48366078
60c7987a11054a60df5ed5f8,47,0,2024-02-28T14:21:51.076Z,french_189.wav,0,pull,507,26,3,5,français,f,10,1.0,55.01136248,1.25824198
60c7987a11054a60df5ed5f8,47,0,2024-02-28T14:21:51.076Z,french_189.wav,0,pull,507,26,3,5,français,f,11,1.1,13.02153574,0.90606561
60c7987a11054a60df5ed5f8,47,0,2024-02-28T14:21:51.076Z,french_189.wav,0,pull,507,26,3,5,français,f,12,1.14141667,-20.1322999,1.81389121
60c7987a11054a60df5ed5f8,48,0,2024-02-28T14:21:51.076Z,french_13.wav,0,poule,150,26,3,5,français,f,0,0.0,28.79040646,1.71683998
60c7987a11054a60df5ed5f8,48,0,2024-02-28T14:21:51.076Z,french_13.wav,0,poule,150,26,3,5,français,f,1,0.1,1.43639251,1.51392947
60c7987a11054a60df5ed5f8,48,0,2024-02-28T14:21:51.076Z,french_13.wav,0,poule,150,26,3,5,français,f,2,0.2,8.93741283,1.95012388
60c7987a11054a60df5ed5f8,48,0,2024-02-28T14:21:51.076Z,french_13.wav,0,poule,150,26,3,5,français,f,3,0.3,-45.23678971,1.24720578
60c7987a11054a60df5ed5f8,48,0,2024-02-28T14:21:51.076Z,french_13.wav,0,poule,150,26,3,5,français,f,4,0.4,-36.64568284,0.6748638
60c7987a11054a60df5ed5f8,48,0,2024-02-28T14:21:51.076Z,french_13.wav,0,poule,150,26,3,5,français,f,5,0.5,95.08006425,0.64178438
60c7987a11054a60df5ed5f8,48,0,2024-02-28T14:21:51.076Z,french_13.wav,0,poule,150,26,3,5,français,f,6,0.6,-25.15383894,1.78067585
60c7987a11054a60df5ed5f8,48,0,2024-02-28T14:21:51.076Z,french_13.wav,0,poule,150,26,3,5,français,f,7,0.7,20.22064469,0.73379373
60c7987a11054a60df5ed5f8,48,0,2024-02-28T14:21:51.076Z,french_13.wav,0,poule,150,26,3,5,français,f,8,0.8,4.43008543,0.8008251
60c7987a11054a60df5ed5f8,48,0,2024-02-28T14:21:51.076Z,french_13.wav,0,poule,150,26,3,5,français,f,9,0.9,31.96842926,1.62083082
60c7987a11054a60df5ed5f8,48,0,2024-02-28T14:21:51.076Z,french_13.wav,0,poule,150,26,3,5,français,f,10,1.0,59.17290693,0.40737704
60c7987a11054a60df5ed5f8,48,0,2024-02-28T14:21:51.076Z,french_13.wav,0,poule,150,26,3,5,français,f,11,1.1,3.48956858,0.59465297
60c7987a11054a60df5ed5f8,48,0,2024-02-28T14:21:51.076Z,french_13.wav,0,poule,150,26,3,5,français,f,12,1.14141667,-39.55658578,0.57584179
60c7987a11054a60df5ed5f8,49,0,2024-02-28T14:21:51.076Z,french_108.wav,0,pull,324,26,3,5,français,f,0,0.0,-15.71044219,1.73834837
60c7987a11054a60df5ed5f8,49,0,2024-02-28T14:21:51.076Z,french_108.wav,0,pull,324,26,3,5,français,f,1,0.1,-24.07766933,0.57132816
60c7987a11054a60df5ed5f8,49,0,2024-02-28T14:21:51.076Z,french_108.wav,0,pull,324,26,3,5,français,f,2,0.2,54.15275115,0.58357142
60c7987a11054a60df5ed5f8,49,0,2024-02-28T14:21:51.076Z,french_108.wav,0,pull,324,26,3,5,français,f,3,0.3,-63.07502063,1.80514009
60c7987a11054a60df5ed5f8,49,0,2024-02-28T14:21:51.076Z,french_108.wav,0,pull,324,26,3,5,français,f,4,0.4,24.68553203,0.34682793
60c7987a11054a60df5ed5f8,49,0,2024-02-28T14:21:51.076Z,french_108.wav,0,pull,324,26,3,5,français,f,5,0.5,-82.74094911,1.15494377
60c7987a11054a60df5ed5f8,49,0,2024-02-28T14:21:51.076Z,french_108.wav,0,pull,324,26,3,5,français,f,6,0.6,-79.1722737,0.83484864
60c7987a11054a60df5ed5f8,49,0,2024-02-28T14:21:51.076Z,french_108.wav,0,pull,324,26,3,5,français,f,7,0.7,41.74110491,0.32346488
60c7987a11054a60df5ed5f8,49,0,2024-02-28T14:21:51.076Z,french_108.wav,0,pull,324,26,3,5,français,f,8,0.8,95.04343592,0.4811934
60c7987a11054a60df5ed5f8,49,0,2024-02-28T14:21:51.076Z,french_108.wav,0,pull,324,26,3,5,français,f,9,0.9,-75.98698192,1.39829932
60c7987a11054a60df5ed5f8,49,0,2024-02-28T14:21:51.076Z,french_108.wav,0,pull,324,26,3,5,français,f,10,1.0,-28.48511945,0.07997607
60c7987a11054a60df5ed5f8,49,0,2024-02-28T14:21:51.076Z,french_108.wav,0,pull,324,26,3,5,français,f,11,1.1,81.70330103,0.5267169
60c7987a11054a60df5ed5f8,49,0,2024-02-28T14:21:51.076Z,french_108.wav,0,pull,324,26,3,5,français,f,12,1.14141667,-76.43032585,0.46271263
60c7987a11054a60df5ed5f8,50,1,2024-02-28T14:21:51.076Z,french_905.wav,0,poule,758,26,3,5,français,f,0,0.0,-38.71328765,0.16851996
60c7987a11054a60df5ed5f8,50,1,2024-02-28T14:21:51.076Z,french_905.wav,0,poule,758,26,3,5,français,f,1,0.1,-13.25441968,0.90731449
60c7987a11054a60df5ed5f8,50,1,2024-02-28T14:21:51.076Z,french_905.wav,0,poule,758,26,3,5,français,f,2,0.2,68.23042526,1.02086119
60c7987a11054a60df5ed5f8,50,1,2024-02-28T14:21:51.076Z,french_905.wav,0,poule,758,26,3,5,français,f,3,0.3,-9.07899561,1.91741767
60c7987a11054a60df5ed5f8,50,1,2024-02-28T14:21:51.076Z,french_905.wav,0,poule,758,26,3,5,français,f,4,0.4,23.04374358,0.92707997
60c7987a11054a60df5ed5f8,50,1,2024-02-28T14:21:51.076Z,french_905.wav,0,poule,758,26,3,5,français,f,5,0.5,-34.50239331,0.34846439
60c7987a11054a60df5ed5f8,50,1,2024-02-28T14:21:51.076Z,french_905.wav,0,poule,758,26,3,5,français,f,6,0.6,-88.44622923,1.28024377
60c7987a11054a60df5ed5f8,50,1,2024-02-28T14:21:51.076Z,french_905.wav,0,poule,758,26,3,5,français,f,7,0.7,1.86512392,0.9406567
60c7987a11054a60df5ed5f8,50,1,2024-02-28T14:21:51.076Z,french_905.wav,0,poule,758,26,3,5,français,f,8,0.8,49.982607,0.97954408
60c7987a11054a60df5ed5f8,50,1,2024-02-28T14:21:51.076Z,french_905.wav,0,poule,758,26,3,5,français,f,9,0.9,-74.6664717,1.64343683
60c7987a11054a60df5ed5f8,50,1,2024-02-28T14:21:51.076Z,french_905.wav,0,poule,758,26,3,5,français,f,10,1.0,25.28695903,1.08233256
60c7987a11054a60df5ed5f8,50,1,2024-02-28T14:21:51.076Z,french_905.wav,0,poule,758,26,3,5,français,f,11,1.1,-11.94855431,0.01276583
60c7987a11054a60df5ed5f8,50,1,2024-02-28T14:21:51.076Z,french_905.wav,0,poule,758,26,3,5,français,f,12,1.14141667,83.46177553,0.02193146
60c7987a11054a60df5ed5f8,51,1,2024-02-28T14:21:51.076Z,french_284.wav,0,pull,323,26,3,5,français,f,0,0.0,16.48622703,0.51717934
60c7987a11054a60df5ed5f8,51,1,2024-02-28T14:21:51.076Z,french_284.wav,0,pull,323,26,3,5,français,f,1,0.1,2.26495014,1.60229173
60c7987a11054a60df5ed5f8,51,1,2024-02-28T14:21:51.076Z,french_284.wav,0,pull,323,26,3,5,français,f,2,0.2,18.12009667,1.8758053
60c7987a11054a60df5ed5f8,51,1,2024-02-28T14:21:51.076Z,french_284.wav,0,pull,323,26,3,5,français,f,3,0.3,62.57261775,1.66078305
60c7987a11054a60df5ed5f8,51,1,2024-02-28T14:21:51.076Z,french_284.wav,0,pull,323,26,3,5,français,f,4,0.4,38.21878831,0.36271544
60c7987a11054a60df5ed5f8,51,1,2024-02-28T14:21:51.076Z,french_284.wav,0,pull,323,26,3,5,français,f,5,0.5,-10.58729406,0.67338252
60c7987a11054a60df5ed5f8,51,1,2024-02-28T14:21:51.076Z,french_284.wav,0,pull,323,26,3,5,français,f,6,0.6,-28.71227124,0.95589202
60c7987a11054a60df5ed5f8,51,1,2024-02-28T14:21:51.076Z,french_284.wav,0,pull,323,26,3,5,français,f,7,0.7,33.18992905,0.48081388
60c7987a11054a60df5ed5f8,51,1,2024-02-28T14:21:51.076Z,french_284.wav,0,pull,323,26,3,5,français,f,8,0.8,42.51171858,1.37144398
60c7987a11054a60df5ed5f8,51,1,2024-02-28T14:21:51.076Z,french_284.wav,0,pull,323,26,3,5,français,f,9,0.9,-0.53891245,0.67164097
60c7987a11054a60df5ed5f8,51,1,2024-02-28T14:21:51.076Z,french_284.wav,0,pull,323,26,3,5,français,f,10,1.0,-90.42609214,0.62108777
60c7987a11054a60df5ed5f8,51,1,2024-02-28T14:21:51.076Z,french_284.wav,0,pull,323,26,3,5,français,f,11,1.1,29.69063186,0.42350623
60c7987a11054a60df5ed5f8,51,1,2024-02-28T14:21:51.076Z,french_284.wav,0,pull,323,26,3,5,français,f,12,1.14141667,74.07567772,1.43401958
60c7987a11054a60df5ed5f8,52,1,2024-02-28T14:21:51.076Z,french_85.wav,0,poule,94,26,3,5,français,f,0,0.0,3.08109357,0.79505741
60c7987a11054a60df5ed5f8,52,1,2024-02-28T14:21:51.076Z,french_85.wav,0,poule,94,26,3,5,français,f,1,0.1,-21.54269935,1.39851671
60c7987a11054a60df5ed5f8,52,1,2024-02-28T14:21:51.076Z,french_85.wav,0,poule,94,26,3,5,français,f,2,0.2,58.40468752,1.92719931
60c7987a11054a60df5ed5f8,52,1,2024-02-28T14:21:51.076Z,french_85.wav,0,poule,94,26,3,5,français,f,3,0.3,-44.80508381,0.09306407
60c7987a11054a60df5ed5f8,52,1,2024-02-28T14:21:51.076Z,french_85.wav,0,poule,94,26,3,5,français,f,4,0.4,15.37543313,0.59942855
60c7987a11054a60df5ed5f8,52,1,2024-02-28T14:21:51.076Z,french_85.wav,0,poule,94,26,3,5,français,f,5,0.5,-32.72970915,1.93601007
60c7987a11054a60df5ed5f8,52,1,2024-02-28T14:21:51.076Z,french_85.wav,0,poule,94,26,3,5,français,f,6,0.6,17.52827206,0.67895574
60c7987a11054a60df5ed5f8,52,1,2024-02-28T14:21:51.076Z,french_85.wav,0,poule,94,26,3,5,français,f,7,0.7,-36.57417586,1.40501236
60c7987a11054a60df5ed5f8,52,1,2024-02-28T14:21:51.076Z,french_85.wav,0,poule,94,26,3,5,français,f,8,0.8,-67.33478788,1.20657959
60c7987a11054a60df5ed5f8,52,1,2024-02-28T14:21:51.076Z,french_85.wav,0,poule,94,26,3,5,français,f,9,0.9,-33.90304802,0.3359078
60c7987a11054a60df5ed5f8,52,1,2024-02-28T14:21:51.076Z,french_85.wav,0,poule,94,26,3,5,français,f,10,1.0,66.89588482,1.46542978
60c7987a11054a60df5ed5f8,52,1,2024-02-28T14:21:51.076Z,french_85.wav,0,poule,94,26,3,5,français,f,11,1.1,72.72777812,0.72819859
60c7987a11054a60df5ed5f8,52,1,2024-02-28T14:21:51.076Z,french_85.wav,0,poule,94,26,3,5,français,f,12,1.14141667,23.33179158,0.55736633
60c7987a11054a60df5ed5f8,53,1,2024-02-28T14:21:51.076Z,french_585.wav,0,pull,141,26,3,5,français,f,0,0.0,-33.41252793,1.22101876
60c7987a11054a60df5ed5f8,53,1,2024-02-28T14:21:51.076Z,french_585.wav,0,pull,141,26,3,5,français,f,1,0.1,16.24382037,1.6651648
60c7987a11054a60df5ed5f8,53,1,2024-02-28T14:21:51.076Z,french_585.wav,0,pull,141,26,3,5,français,f,2,0.2,-25.9418489,1.05138066
60c7987a11054a60df5ed5f8,53,1,2024-02-28T14:21:51.076Z,french_585.wav,0,pull,141,26,3,5,français,f,3,0.3,48.33013204,0.61800307
60c7987a11054a60df5ed5f8,53,1,2024-02-28T14:21:51.076Z,french_585.wav,0,pull,141,26,3,5,français,f,4,0.4,45.88405821,0.02764776
60c7987a11054a60df5ed5f8,53,1,2024-02-28T14:21:51.076Z,french_585.wav,0,pull,141,26,3,5,français,f,5,0.5,-88.47894619,1.98662617
60c7987a11054a60df5ed5f8,53,1,2024-02-28T14:21:51.076Z,french_585.wav,0,pull,141,26,3,5,français,f,6,0.6,-34.41723162,1.86386493
60c7987a11054a60df5ed5f8,53,1,2024-02-28T14:21:51.076Z,french_585.wav,0,pull,141,26,3,5,français,f,7,0.7,-9.82400388,1.19111382
60c7987a11054a60df5ed5f8,53,1,2024-02-28T14:21:51.076Z,french_585.wav,0,pull,141,26,3,5,français,f,8,0.8,-22.53248636,1.44448985
60c7987a11054a60df5ed5f8,53,1,2024-02-28T14:21:51.076Z,french_585.wav,0,pull,141,26,3,5,français,f,9,0.9,-27.56128675,1.18212322
60c7987a11054a60df5ed5f8,53,1,2024-02-28T14:21:51.076Z,french_585.wav,0,pull,141,26,3,5,français,f,10,1.0,-40.76907833,1.40875064
60c7987a11054a60df5ed5f8,53,1,2024-02-28T14:21:51.076Z,french_585.wav,0,pull,141,26,3,5,français,f,11,1.1,52.35342205,1.46658809
60c7987a11054a60df5ed5f8,53,1,2024-02-28T14:21:51.076Z,french_585.wav,0,pull,141,26,3,5,français,f,12,1.14141667,48.19576807,1.34688982
60c7987a11054a60df5ed5f8,54,1,2024-02-28T14:21:51.076Z,french_588.wav,0,pull,328,26,3,5,français,f,0,0.0,80.11124336,0.91903139
60c7987a11054a60df5ed5f8,54,1,2024-02-28T14:21:51.076Z,french_588.wav,0,pull,328,26,3,5,français,f,1,0.1,-9.60415228,1.75302379
60c7987a11054a60df5ed5f8,54,1,2024-02-28T14:21:51.076Z,french_588.wav,0,pull,328,26,3,5,français,f,2,0.2,-98.33491382,1.95019279
60c7987a11054a60df5ed5f8,54,1,2024-02-28T14:21:51.076Z,french_588.wav,0,pull,328,26,3,5,français,f,3,0.3,-16.26514488,0.86486634
60c7987a11054a60df5ed5f8,54,1,2024-02-28T14:21:51.076Z,french_588.wav,0,pull,328,26,3,5,français,f,4,0.4,-90.16609663,0.04555032
60c7987a11054a60df5ed5f8,54,1,2024-02-28T14:21:51.076Z,french_588.wav,0,pull,328,26,3,5,français,f,5,0.5,-6.08584828,0.65069663
60c7987a11054a60df5ed5f8,54,1,2024-02-28T14:21:51.076Z,french_588.wav,0,pull,328,26,3,5,français,f,6,0.6,-25.80594889,0.87516436
60c7987a11054a60df5ed5f8,54,1,2024-02-28T14:21:51.076Z,french_588.wav,0,pull,328,26,3,5,français,f,7,0.7,-25.08652089,0.98178697
60c7987a11054a60df5ed5f8,54,1,2024-02-28T14:21:51.076Z,french_588.wav,0,pull,328,26,3,5,français,f,8,0.8,-98.80611815,1.45894707
60c7987a11054a60df5ed5f8,54,1,2024-02-28T14:21:51.076Z,french_588.wav,0,pull,328,26,3,5,français,f,9,0.9,17.08532713,1.15328594
60c7987a11054a60df5ed5f8,54,1,2024-02-28T14:21:51.076Z,french_588.wav,0,pull,328,26,3,5,français,f,10,1.0,0.80863561,0.14560994
60c7987a11054a60df5ed5f8,54,1,2024-02-28T14:21:51.076Z,french_588.wav,0,pull,328,26,3,5,français,f,11,1.1,-86.5783891,1.58594883
60c7987a11054a60df5ed5f8,54,1,2024-02-28T14:21:51.076Z,french_588.wav,0,pull,328,26,3,5,français,f,12,1.14141667,-56.09457121,1.71291016
60c7987a11054a60df5ed5f8,55,1,2024-02-28T14:21:51.076Z,french_895.wav,0,poule,737,26,3,5,français,f,0,0.0,-82.61317698,0.72926476
60c7987a11054a60df5ed5f8,55,1,2024-02-28T14:21:51.076Z,french_895.wav,0,poule,737,26,3,5,français,f,1,0.1,61.08514813,0.45997711
60c7987a11054a60df5ed5f8,55,1,2024-02-28T14:21:51.076Z,french_895.wav,0,poule,737,26,3,5,français,f,2,0.2,81.60336348,1.06624038
60c7987a11054a60df5ed5f8,55,1,2024-02-28T14:21:51.076Z,french_895.wav,0,poule,737,26,3,5,français,f,3,0.3,49.30047411,0.34123055
60c7987a11054a60df5ed5f8,55,1,2024-02-28T14:21:51.076Z,french_895.wav,0,poule,737,26,3,5,français,f,4,0.4,20.19115982,1.31366912
60c7987a11054a60df5ed5f8,55,1,2024-02-28T14:21:51.076Z,french_895.wav,0,poule,737,26,3,5,français,f,5,0.5,4.84484905,1.47334476
60c7987a11054a60df5ed5f8,55,1,2024-02-28T14:21:51.076Z,french_895.wav,0,poule,737,26,3,5,français,f,6,0.6,-6.33725134,0.20442325
60c7987a11054a60df5ed5f8,55,1,2024-02-28T14:21:51.076Z,french_895.wav,0,poule,737,26,3,5,français,f,7,0.7,-50.52881352,0.26254822
60c7987a11054a60df5ed5f8,55,1,2024-02-28T14:21:51.076Z,french_895.wav,0,poule,737,26,3,5,français,f,8,0.8,18.84546957,1.49473913
60c7987a11054a60df5ed5f8,55,1,2024-02-28T14:21:51.076Z,french_895.wav,0,poule,737,26,3,5,français,f,9,0.9,30.02670132,0.11252772
60c7987a11054a60df5ed5f8,55,1,2024-02-28T14:21:51.076Z,french_895.wav,0,poule,737,26,3,5,français,f,10,1.0,-40.28568066,0.43349841
60c7987a11054a60df5ed5f8,55,1,2024-02-28T14:21:51.076Z,french_895.wav,0,poule,737,26,3,5,français,f,11,1.1,-6.50062274,0.539272
60c7987a11054a60df5ed5f8,55,1,2024-02-28T14:21:51.076Z,french_895.wav,0,poule,737,26,3,5,français,f,12,1.14141667,-45.625456,0.44528582
60c7987a11054a60df5ed5f8,56,1,2024-02-28T14:21:51.076Z,french_509.wav,0,pull,539,26,3,5,français,f,0,0.0,-79.28359824,1.76643555
60c7987a11054a60df5ed5f8,56,1,2024-02-28T14:21:51.076Z,french_509.wav,0,pull,539,26,3,5,français,f,1,0.1,-85.11040144,0.57920492
60c7987a11054a60df5ed5f8,56,1,2024-02-28T14:21:51.076Z,french_509.wav,0,pull,539,26,3,5,français,f,2,0.2,58.20689337,0.89396937
60c7987a11054a60df5ed5f8,56,1,2024-02-28T14:21:51.076Z,french_509.wav,0,pull,539,26,3,5,français,f,3,0.3,-53.07212842,0.80048379
60c7987a11054a60df5ed5f8,56,1,2024-02-28T14:21:51.076Z,french_509.wav,0,pull,539,26,3,5,français,f,4,0.4,14.54054596,1.05618514
60c7987a11054a60df5ed5f8,56,1,2024-02-28T14:21:51.076Z,french_509.wav,0,pull,539,26,3,5,français,f,5,0.5,38.89832363,0.5299581
60c7987a11054a60df5ed5f8,56,1,2024-02-28T14:21:51.076Z,french_509.wav,0,pull,539,26,3,5,français,f,6,0.6,-59.04867319,1.30906386
60c7987a11054a60df5ed5f8,56,1,2024-02-28T14:21:51.076Z,french_509.wav,0,pull,539,26,3,5,français,f,7,0.7,-18.19891129,0.47184047
60c7987a11054a60df5ed5f8,56,1,2024-02-28T14:21:51.076Z,french_509.wav,0,pull,539,26,3,5,français,f,8,0.8,-73.30058077,0.61756094
60c7987a11054a60df5ed5f8,56,1,2024-02-28T14:21:51.076Z,french_509.wav,0,pull,539,26,3,5,français,f,9,0.9,9.43722615,0.62383509
60c7987a11054a60df5ed5f8,56,1,2024-02-28T14:21:51.076Z,french_509.wav,0,pull,539,26,3,5,français,f,10,1.0,2.35167022,1.37177888
60c7987a11054a60df5ed5f8,56,1,2024-02-28T14:21:51.076Z,french_509.wav,0,pull,539,26,3,5,français,f,11,1.1,-85.32824264,0.23324254
60c7987a11054a60df5ed5f8,56,1,2024-02-28T14:21:51.076Z,french_509.wav,0,pull,539,26,3,5,français,f,12,1.14141667,19.13063021,0.91376092
60c7987a11054a60df5ed5f8,57,1,2024-02-28T14:21:51.076Z,french_666.wav,0,poule,210,26,3,5,français,f,0,0.0,92.96865197,0.97097631
60c7987a11054a60df5ed5f8,57,1,2024-02-28T14:21:51.076Z,french_666.wav,0,poule,210,26,3,5,français,f,1,0.1,83.19708081,1.21196334
60c7987a11054a60df5ed5f8,57,1,2024-02-28T14:21:51.076Z,french_666.wav,0,poule,210,26,3,5,français,f,2,0.2,-93.00429792,0.21493139
60c7987a11054a60df5ed5f8,57,1,2024-02-28T14:21:51.076Z,french_666.wav,0,poule,210,26,3,5,français,f,3,0.3,90.20261319,0.41981713
60c7987a11054a60df5ed5f8,57,1,2024-02-28T14:21:51.076Z,french_666.wav,0,poule,210,26,3,5,français,f,4,0.4,-87.15662035,1.50078267
60c7987a11054a60df5ed5f8,57,1,2024-02-28T14:21:51.076Z,french_666.wav,0,poule,210,26,3,5,français,f,5,0.5,-47.24627787,1.52836047
60c7987a11054a60df5ed5f8,57,1,2024-02-28T14:21:51.076Z,french_666.wav,0,poule,210,26,3,5,français,f,6,0.6,59.30035154,0.33218379
60c7987a11054a60df5ed5f8,57,1,2024-02-28T14:21:51.076Z,french_666.wav,0,poule,210,26,3,5,français,f,7,0.7,-15.62578407,0.67593379
60c7987a11054a60df5ed5f8,57,1,2024-02-28T14:21:51.076Z,french_666.wav,0,poule,210,26,3,5,français,f,8,0.8,-24.02578561,0.65338916
60c7987a11054a60df5ed5f8,57,1,2024-02-28T14:21:51.076Z,french_666.wav,0,poule,210,26,3,5,français,f,9,0.9,-81.73454308,1.43079887
60c7987a11054a60df5ed5f8,57,1,2024-02-28T14:21:51.076Z,french_666.wav,0,poule,210,26,3,5,français,f,10,1.0,8.5752321,0.1051972
60c7987a11054a60df5ed5f8,57,1,2024-02-28T14:21:51.076Z,french_666.wav,0,poule,210,26,3,5,français,f,11,1.1,81.49647055,1.769445
60c7987a11054a60df5ed5f8,57,1,2024-02-28T14:21:51.076Z,french_666.wav,0,poule,210,26,3,5,français,f,12,1.14141667,-18.83163279,0.88398821
60c7987a11054a60df5ed5f8,58,1,2024-02-28T14:21:51.076Z,french_64.wav,0,poule,46,26,3,5,français,f,0,0.0,81.21142121,1.90047577
60c7987a11054a60df5ed5f8,58,1,2024-02-28T14:21:51.076Z,french_64.wav,0,poule,46,26,3,5,français,f,1,0.1,52.51696492,0.82684284
60c7987a11054a60df5ed5f8,58,1,2024-02-28T14:21:51.076Z,french_64.wav,0,poule,46,26,3,5,français,f,2,0.2,-39.17561774,1.63922719
60c7987a11054a60df5ed5f8,58,1,2024-02-28T14:21:51.076Z,french_64.wav,0,poule,46,26,3,5,français,f,3,0.3,-2.55926089,1.09796892
60c7987a11054a60df5ed5f8,58,1,2024-02-28T14:21:51.076Z,french_64.wav,0,poule,46,26,3,5,français,f,4,0.4,-19.82016782,1.84824586
60c7987a11054a60df5ed5f8,58,1,2024-02-28T14:21:51.076Z,french_64.wav,0,poule,46,26,3,5,français,f,5,0.5,-96.27205137,0.08398419
60c7987a11054a60df5ed5f8,58,1,2024-02-28T14:21:51.076Z,french_64.wav,0,poule,46,26,3,5,français,f,6,0.6,-91.08602274,1.68744275
60c7987a11054a60df5ed5f8,58,1,2024-02-28T14:21:51.076Z,french_64.wav,0,poule,46,26,3,5,français,f,7,0.7,21.95313621,1.11317645
60c7987a11054a60df5ed5f8,58,1,2024-02-28T14:21:51.076Z,french_64.wav,0,poule,46,26,3,5,français,f,8,0.8,-83.87757175,0.69266869
60c7987a11054a60df5ed5f8,58,1,2024-02-28T14:21:51.076Z,french_64.wav,0,poule,46,26,3,5,français,f,9,0.9,-15.46224959,1.31844382
60c7987a11054a60df5ed5f8,58,1,2024-02-28T14:21:51.076Z,french_64.wav,0,poule,46,26,3,5,français,f,10,1.0,99.28922275,1.05971477
60c7987a11054a60df5ed5f8,58,1,2024-02-28T14:21:51.076Z,french_64.wav,0,poule,46,26,3,5,français,f,11,1.1,-34.89576086,1.50408115
60c7987a11054a60df5ed5f8,58,1,2024-02-28T14:21:51.076Z,french_64.wav,0,poule,46,26,3,5,français,f,12,1.14141667,-88.74649368,0.80519135
60c7987a11054a60df5ed5f8,59,1,2024-02-28T14:21:51.076Z,french_30.wav,0,pull,57,26,3,5,français,f,0,0.0,26.66622304,1.24018819
60c7987a11054a60df5ed5f8,59,1,2024-02-28T14:21:51.076Z,french_30.wav,0,pull,57,26,3,5,français,f,1,0.1,44.7756476,0.12283153
60c7987a11054a60df5ed5f8,59,1,2024-02-28T14:21:51.076Z,french_30.wav,0,pull,57,26,3,5,français,f,2,0.2,-11.3520596,0.97062851
60c7987a11054a60df5ed5f8,59,1,2024-02-28T14:21:51.076Z,french_30.wav,0,pull,57,26,3,5,français,f,3,0.3,-4.87681606,1.26015405
60c7987a11054a60df5ed5f8,59,1,2024-02-28T14:21:51.076Z,french_30.wav,0,pull,57,26,3,5,français,f,4,0.4,-42.57857896,1.61652027
