subj,trial,block,date,stim,stim_order,response,rt,age,english,french,language,sex,param_index,segment,pitch,stretch
5ec454e23d68ea32ee554d12,0,0,2024-02-28T14:41:34.944Z,french_436.wav,0,poule,1530,38,4,5,Français,f,0,0.0,-88.6105585,1.07573924
5ec454e23d68ea32ee554d12,0,0,2024-02-28T14:41:34.944Z,french_436.wav,0,poule,1530,38,4,5,Français,f,1,0.1,-16.22122401,1.88781057
5ec454e23d68ea32ee554d12,0,0,2024-02-28T14:41:34.944Z,french_436.wav,0,poule,1530,38,4,5,Français,f,2,0.2,-3.49923583,1.26933634
5ec454e23d68ea32ee554d12,0,0,2024-02-28T14:41:34.944Z,french_436.wav,0,poule,1530,38,4,5,Français,f,3,0.3,-16.01802375,0.08671344
5ec454e23d68ea32ee554d12,0,0,2024-02-28T14:41:34.944Z,french_436.wav,0,poule,1530,38,4,5,Français,f,4,0.4,-58.39418693,0.65535741
5ec454e23d68ea32ee554d12,0,0,2024-02-28T14:41:34.944Z,french_436.wav,0,poule,1530,38,4,5,Français,f,5,0.5,-53.8564813,1.05284505
5ec454e23d68ea32ee554d12,0,0,2024-02-28T14:41:34.944Z,french_436.wav,0,poule,1530,38,4,5,Français,f,6,0.6,24.35754888,0.14070405
5ec454e23d68ea32ee554d12,0,0,2024-02-28T14:41:34.944Z,french_436.wav,0,poule,1530,38,4,5,Français,f,7,0.7,-50.18804261,0.38482967
5ec454e23d68ea32ee554d12,0,0,2024-02-28T14:41:34.944Z,french_436.wav,0,poule,1530,38,4,5,Français,f,8,0.8,55.18515934,1.2504881
5ec454e23d68ea32ee554d12,0,0,2024-02-28T14:41:34.944Z,french_436.wav,0,poule,1530,38,4,5,Français,f,9,0.9,-65.43663779,0.44304844
5ec454e23d68ea32ee554d12,0,0,2024-02-28T14:41:34.944Z,french_436.wav,0,poule,1530,38,4,5,Français,f,10,1.0,44.03721159,1.10568067
5ec454e23d68ea32ee554d12,0,0,2024-02-28T14:41:34.944Z,french_436.wav,0,poule,1530,38,4,5,Français,f,11,1.1,73.79038044,0.33165054
5ec454e23d68ea32ee554d12,0,0,2024-02-28T14:41:34.944Z,french_436.wav,0,poule,1530,38,4,5,Français,f,12,1.14141667,28.76066382,1.91057616
5ec454e23d68ea32ee554d12,1,0,2024-02-28T14:41:34.944Z,french_104.wav,0,poule,537,38,4,5,Français,f,0,0.0,-10.82069804,0.1966368
5ec454e23d68ea32ee554d12,1,0,2024-02-28T14:41:34.944Z,french_104.wav,0,poule,537,38,4,5,Français,f,1,0.1,-46.9179638,1.84976789
5ec454e23d68ea32ee554d12,1,0,2024-02-28T14:41:34.944Z,french_104.wav,0,poule,537,38,4,5,Français,f,2,0.2,-54.48570272,1.33623315
5ec454e23d68ea32ee554d12,1,0,2024-02-28T14:41:34.944Z,french_104.wav,0,poule,537,38,4,5,Français,f,3,0.3,3.05404722,1.29159713
5ec454e23d68ea32ee554d12,1,0,2024-02-28T14:41:34.944Z,french_104.wav,0,poule,537,38,4,5,Français,f,4,0.4,53.05029039,0.83782165
5ec454e23d68ea32ee554d12,1,0,2024-02-28T14:41:34.944Z,french_104.wav,0,poule,537,38,4,5,Français,f,5,0.5,41.93888619,1.8090238
5ec454e23d68ea32ee554d12,1,0,2024-02-28T14:41:34.944Z,french_104.wav,0,poule,537,38,4,5,Français,f,6,0.6,38.59618791,0.45654873
5ec454e23d68ea32ee554d12,1,0,2024-02-28T14:41:34.944Z,french_104.wav,0,poule,537,38,4,5,Français,f,7,0.7,19.43152578,1.50843582
5ec454e23d68ea32ee554d12,1,0,2024-02-28T14:41:34.944Z,french_104.wav,0,poule,537,38,4,5,Français,f,8,0.8,77.35445073,0.98312763
5ec454e23d68ea32ee554d12,1,0,2024-02-28T14:41:34.944Z,french_104.wav,0,poule,537,38,4,5,Français,f,9,0.9,32.46536794,0.62069846
5ec454e23d68ea32ee554d12,1,0,2024-02-28T14:41:34.944Z,french_104.wav,0,poule,537,38,4,5,Français,f,10,1.0,-22.38343672,0.12277995
5ec454e23d68ea32ee554d12,1,0,2024-02-28T14:41:34.944Z,french_104.wav,0,poule,537,38,4,5,Français,f,11,1.1,12.24635973,0.0590951
5ec454e23d68ea32ee554d12,1,0,2024-02-28T14:41:34.944Z,french_104.wav,0,poule,537,38,4,5,Français,f,12,1.14141667,-33.54926905,0.80794126
5ec454e23d68ea32ee554d12,2,0,2024-02-28T14:41:34.944Z,french_387.wav,0,poule,448,38,4,5,Français,f,0,0.0,-24.79004383,0.44030197
5ec454e23d68ea32ee554d12,2,0,2024-02-28T14:41:34.944Z,french_387.wav,0,poule,448,38,4,5,Français,f,1,0.1,-23.52605858,0.70411981
5ec454e23d68ea32ee554d12,2,0,2024-02-28T14:41:34.944Z,french_387.wav,0,poule,448,38,4,5,Français,f,2,0.2,-91.83469308,1.86884396
5ec454e23d68ea32ee554d12,2,0,2024-02-28T14:41:34.944Z,french_387.wav,0,poule,448,38,4,5,Français,f,3,0.3,-8.60515115,0.78103642
5ec454e23d68ea32ee554d12,2,0,2024-02-28T14:41:34.944Z,french_387.wav,0,poule,448,38,4,5,Français,f,4,0.4,66.88839894,0.92101113
5ec454e23d68ea32ee554d12,2,0,2024-02-28T14:41:34.944Z,french_387.wav,0,poule,448,38,4,5,Français,f,5,0.5,25.42600238,0.1569929
5ec454e23d68ea32ee554d12,2,0,2024-02-28T14:41:34.944Z,french_387.wav,0,poule,448,38,4,5,Français,f,6,0.6,-7.40031453,0.56500245
5ec454e23d68ea32ee554d12,2,0,2024-02-28T14:41:34.944Z,french_387.wav,0,poule,448,38,4,5,Français,f,7,0.7,-51.95385071,1.10374922
5ec454e23d68ea32ee554d12,2,0,2024-02-28T14:41:34.944Z,french_387.wav,0,poule,448,38,4,5,Français,f,8,0.8,50.19527583,0.9239354
5ec454e23d68ea32ee554d12,2,0,2024-02-28T14:41:34.944Z,french_387.wav,0,poule,448,38,4,5,Français,f,9,0.9,-38.24502807,0.71980966
5ec454e23d68ea32ee554d12,2,0,2024-02-28T14:41:34.944Z,french_387.wav,0,poule,448,38,4,5,Français,f,10,1.0,-42.80998351,1.05382382
5ec454e23d68ea32ee554d12,2,0,2024-02-28T14:41:34.944Z,french_387.wav,0,poule,448,38,4,5,Français,f,11,1.1,4.14032159,1.68496778
5ec454e23d68ea32ee554d12,2,0,2024-02-28T14:41:34.944Z,french_387.wav,0,poule,448,38,4,5,Français,f,12,1.14141667,-51.51302807,0.50981508
5ec454e23d68ea32ee554d12,3,0,2024-02-28T14:41:34.944Z,french_907.wav,0,poule,234,38,4,5,Français,f,0,0.0,89.78122998,1.44191832
5ec454e23d68ea32ee554d12,3,0,2024-02-28T14:41:34.944Z,french_907.wav,0,poule,234,38,4,5,Français,f,1,0.1,28.80453791,1.11940689
5ec454e23d68ea32ee554d12,3,0,2024-02-28T14:41:34.944Z,french_907.wav,0,poule,234,38,4,5,Français,f,2,0.2,34.19351196,0.95044875
5ec454e23d68ea32ee554d12,3,0,2024-02-28T14:41:34.944Z,french_907.wav,0,poule,234,38,4,5,Français,f,3,0.3,42.13241451,1.03916561
5ec454e23d68ea32ee554d12,3,0,2024-02-28T14:41:34.944Z,french_907.wav,0,poule,234,38,4,5,Français,f,4,0.4,73.79213215,1.14728427
5ec454e23d68ea32ee554d12,3,0,2024-02-28T14:41:34.944Z,french_907.wav,0,poule,234,38,4,5,Français,f,5,0.5,-43.17947434,0.83024238
5ec454e23d68ea32ee554d12,3,0,2024-02-28T14:41:34.944Z,french_907.wav,0,poule,234,38,4,5,Français,f,6,0.6,-81.13135349,1.94896197
5ec454e23d68ea32ee554d12,3,0,2024-02-28T14:41:34.944Z,french_907.wav,0,poule,234,38,4,5,Français,f,7,0.7,1.41751337,0.97370259
5ec454e23d68ea32ee554d12,3,0,2024-02-28T14:41:34.944Z,french_907.wav,0,poule,234,38,4,5,Français,f,8,0.8,-34.04083972,1.96535195
5ec454e23d68ea32ee554d12,3,0,2024-02-28T14:41:34.944Z,french_907.wav,0,poule,234,38,4,5,Français,f,9,0.9,-75.9660399,1.25190046
5ec454e23d68ea32ee554d12,3,0,2024-02-28T14:41:34.944Z,french_907.wav,0,poule,234,38,4,5,Français,f,10,1.0,50.35282734,1.37511157
5ec454e23d68ea32ee554d12,3,0,2024-02-28T14:41:34.944Z,french_907.wav,0,poule,234,38,4,5,Français,f,11,1.1,-60.08377771,1.57534438
5ec454e23d68ea32ee554d12,3,0,2024-02-28T14:41:34.944Z,french_907.wav,0,poule,234,38,4,5,Français,f,12,1.14141667,46.62652621,0.6793901
5ec454e23d68ea32ee554d12,4,0,2024-02-28T14:41:34.944Z,french_845.wav,0,poule,524,38,4,5,Français,f,0,0.0,43.83069693,0.62773071
5ec454e23d68ea32ee554d12,4,0,2024-02-28T14:41:34.944Z,french_845.wav,0,poule,524,38,4,5,Français,f,1,0.1,36.08660709,0.62752315
5ec454e23d68ea32ee554d12,4,0,2024-02-28T14:41:34.944Z,french_845.wav,0,poule,524,38,4,5,Français,f,2,0.2,11.73402285,1.77607494
5ec454e23d68ea32ee554d12,4,0,2024-02-28T14:41:34.944Z,french_845.wav,0,poule,524,38,4,5,Français,f,3,0.3,33.21335204,1.70743846
5ec454e23d68ea32ee554d12,4,0,2024-02-28T14:41:34.944Z,french_845.wav,0,poule,524,38,4,5,Français,f,4,0.4,56.21537951,0.69772842
5ec454e23d68ea32ee554d12,4,0,2024-02-28T14:41:34.944Z,french_845.wav,0,poule,524,38,4,5,Français,f,5,0.5,-43.21710819,0.63224459
5ec454e23d68ea32ee554d12,4,0,2024-02-28T14:41:34.944Z,french_845.wav,0,poule,524,38,4,5,Français,f,6,0.6,-64.50615435,0.85055084
5ec454e23d68ea32ee554d12,4,0,2024-02-28T14:41:34.944Z,french_845.wav,0,poule,524,38,4,5,Français,f,7,0.7,-47.03593913,1.67085547
5ec454e23d68ea32ee554d12,4,0,2024-02-28T14:41:34.944Z,french_845.wav,0,poule,524,38,4,5,Français,f,8,0.8,16.98112056,1.98331283
5ec454e23d68ea32ee554d12,4,0,2024-02-28T14:41:34.944Z,french_845.wav,0,poule,524,38,4,5,Français,f,9,0.9,73.16282743,0.58892035
5ec454e23d68ea32ee554d12,4,0,2024-02-28T14:41:34.944Z,french_845.wav,0,poule,524,38,4,5,Français,f,10,1.0,75.97554589,0.92518369
5ec454e23d68ea32ee554d12,4,0,2024-02-28T14:41:34.944Z,french_845.wav,0,poule,524,38,4,5,Français,f,11,1.1,13.7501935,1.3425114
5ec454e23d68ea32ee554d12,4,0,2024-02-28T14:41:34.944Z,french_845.wav,0,poule,524,38,4,5,Français,f,12,1.14141667,-63.52567951,0.57230124
5ec454e23d68ea32ee554d12,5,0,2024-02-28T14:41:34.944Z,french_63.wav,0,pull,612,38,4,5,Français,f,0,0.0,-22.87702245,0.65309266
5ec454e23d68ea32ee554d12,5,0,2024-02-28T14:41:34.944Z,french_63.wav,0,pull,612,38,4,5,Français,f,1,0.1,25.58321535,1.04568697
5ec454e23d68ea32ee554d12,5,0,2024-02-28T14:41:34.944Z,french_63.wav,0,pull,612,38,4,5,Français,f,2,0.2,70.04495031,1.71369829
5ec454e23d68ea32ee554d12,5,0,2024-02-28T14:41:34.944Z,french_63.wav,0,pull,612,38,4,5,Français,f,3,0.3,20.19201819,1.23026691
5ec454e23d68ea32ee554d12,5,0,2024-02-28T14:41:34.944Z,french_63.wav,0,pull,612,38,4,5,Français,f,4,0.4,-45.12603624,0.56779808
5ec454e23d68ea32ee554d12,5,0,2024-02-28T14:41:34.944Z,french_63.wav,0,pull,612,38,4,5,Français,f,5,0.5,-29.85961331,1.23876582
5ec454e23d68ea32ee554d12,5,0,2024-02-28T14:41:34.944Z,french_63.wav,0,pull,612,38,4,5,Français,f,6,0.6,-58.72052907,1.94602329
5ec454e23d68ea32ee554d12,5,0,2024-02-28T14:41:34.944Z,french_63.wav,0,pull,612,38,4,5,Français,f,7,0.7,85.0092298,1.94372655
5ec454e23d68ea32ee554d12,5,0,2024-02-28T14:41:34.944Z,french_63.wav,0,pull,612,38,4,5,Français,f,8,0.8,-1.09258045,0.0560987
5ec454e23d68ea32ee554d12,5,0,2024-02-28T14:41:34.944Z,french_63.wav,0,pull,612,38,4,5,Français,f,9,0.9,12.39348581,1.80482043
5ec454e23d68ea32ee554d12,5,0,2024-02-28T14:41:34.944Z,french_63.wav,0,pull,612,38,4,5,Français,f,10,1.0,70.37713288,0.77176162
5ec454e23d68ea32ee554d12,5,0,2024-02-28T14:41:34.944Z,french_63.wav,0,pull,612,38,4,5,Français,f,11,1.1,-46.49648461,1.59463619
5ec454e23d68ea32ee554d12,5,0,2024-02-28T14:41:34.944Z,french_63.wav,0,pull,612,38,4,5,Français,f,12,1.14141667,-33.49578267,1.37881471
5ec454e23d68ea32ee554d12,6,0,2024-02-28T14:41:34.944Z,french_584.wav,0,poule,322,38,4,5,Français,f,0,0.0,-53.64248655,1.38891122
5ec454e23d68ea32ee554d12,6,0,2024-02-28T14:41:34.944Z,french_584.wav,0,poule,322,38,4,5,Français,f,1,0.1,87.73837185,0.52599003
5ec454e23d68ea32ee554d12,6,0,2024-02-28T14:41:34.944Z,french_584.wav,0,poule,322,38,4,5,Français,f,2,0.2,-76.07432913,0.86644444
5ec454e23d68ea32ee554d12,6,0,2024-02-28T14:41:34.944Z,french_584.wav,0,poule,322,38,4,5,Français,f,3,0.3,-82.64271669,0.7067956
5ec454e23d68ea32ee554d12,6,0,2024-02-28T14:41:34.944Z,french_584.wav,0,poule,322,38,4,5,Français,f,4,0.4,95.13100452,0.85039222
5ec454e23d68ea32ee554d12,6,0,2024-02-28T14:41:34.944Z,french_584.wav,0,poule,322,38,4,5,Français,f,5,0.5,0.46314255,1.91311542
5ec454e23d68ea32ee554d12,6,0,2024-02-28T14:41:34.944Z,french_584.wav,0,poule,322,38,4,5,Français,f,6,0.6,84.32306812,1.87701513
5ec454e23d68ea32ee554d12,6,0,2024-02-28T14:41:34.944Z,french_584.wav,0,poule,322,38,4,5,Français,f,7,0.7,-11.04836818,0.4258787
5ec454e23d68ea32ee554d12,6,0,2024-02-28T14:41:34.944Z,french_584.wav,0,poule,322,38,4,5,Français,f,8,0.8,-2.39275169,1.64061013
5ec454e23d68ea32ee554d12,6,0,2024-02-28T14:41:34.944Z,french_584.wav,0,poule,322,38,4,5,Français,f,9,0.9,-87.18946495,0.64403551
5ec454e23d68ea32ee554d12,6,0,2024-02-28T14:41:34.944Z,french_584.wav,0,poule,322,38,4,5,Français,f,10,1.0,31.75007249,0.40232597
5ec454e23d68ea32ee554d12,6,0,2024-02-28T14:41:34.944Z,french_584.wav,0,poule,322,38,4,5,Français,f,11,1.1,-75.12996198,1.36523835
5ec454e23d68ea32ee554d12,6,0,2024-02-28T14:41:34.944Z,french_584.wav,0,poule,322,38,4,5,Français,f,12,1.14141667,89.37224699,1.64588011
5ec454e23d68ea32ee554d12,7,0,2024-02-28T14:41:34.944Z,french_168.wav,0,poule,518,38,4,5,Français,f,0,0.0,23.60578837,0.63425727
5ec454e23d68ea32ee554d12,7,0,2024-02-28T14:41:34.944Z,french_168.wav,0,poule,518,38,4,5,Français,f,1,0.1,-3.14983338,1.7754945
5ec454e23d68ea32ee554d12,7,0,2024-02-28T14:41:34.944Z,french_168.wav,0,poule,518,38,4,5,Français,f,2,0.2,-32.92235137,0.84759541
5ec454e23d68ea32ee554d12,7,0,2024-02-28T14:41:34.944Z,french_168.wav,0,poule,518,38,4,5,Français,f,3,0.3,-1.34182542,1.87294824
5ec454e23d68ea32ee554d12,7,0,2024-02-28T14:41:34.944Z,french_168.wav,0,poule,518,38,4,5,Français,f,4,0.4,93.68763921,1.4991828
5ec454e23d68ea32ee554d12,7,0,2024-02-28T14:41:34.944Z,french_168.wav,0,poule,518,38,4,5,Français,f,5,0.5,-85.50777255,1.10660002
5ec454e23d68ea32ee554d12,7,0,2024-02-28T14:41:34.944Z,french_168.wav,0,poule,518,38,4,5,Français,f,6,0.6,-85.09508772,0.8131343
5ec454e23d68ea32ee554d12,7,0,2024-02-28T14:41:34.944Z,french_168.wav,0,poule,518,38,4,5,Français,f,7,0.7,7.18307218,0.28255977
5ec454e23d68ea32ee554d12,7,0,2024-02-28T14:41:34.944Z,french_168.wav,0,poule,518,38,4,5,Français,f,8,0.8,71.4646736,1.69345703
5ec454e23d68ea32ee554d12,7,0,2024-02-28T14:41:34.944Z,french_168.wav,0,poule,518,38,4,5,Français,f,9,0.9,-27.01392426,1.4556034
5ec454e23d68ea32ee554d12,7,0,2024-02-28T14:41:34.944Z,french_168.wav,0,poule,518,38,4,5,Français,f,10,1.0,31.10228405,0.26157835
5ec454e23d68ea32ee554d12,7,0,2024-02-28T14:41:34.944Z,french_168.wav,0,poule,518,38,4,5,Français,f,11,1.1,31.74339728,0.26714034
5ec454e23d68ea32ee554d12,7,0,2024-02-28T14:41:34.944Z,french_168.wav,0,poule,518,38,4,5,Français,f,12,1.14141667,-94.28644022,0.94934419
5ec454e23d68ea32ee554d12,8,0,2024-02-28T14:41:34.944Z,french_155.wav,0,poule,326,38,4,5,Français,f,0,0.0,-92.78133148,0.96654008
5ec454e23d68ea32ee554d12,8,0,2024-02-28T14:41:34.944Z,french_155.wav,0,poule,326,38,4,5,Français,f,1,0.1,20.93258494,1.69709924
5ec454e23d68ea32ee554d12,8,0,2024-02-28T14:41:34.944Z,french_155.wav,0,poule,326,38,4,5,Français,f,2,0.2,-47.18952132,1.53182227
5ec454e23d68ea32ee554d12,8,0,2024-02-28T14:41:34.944Z,french_155.wav,0,poule,326,38,4,5,Français,f,3,0.3,87.6623856,0.2401229
5ec454e23d68ea32ee554d12,8,0,2024-02-28T14:41:34.944Z,french_155.wav,0,poule,326,38,4,5,Français,f,4,0.4,53.55190164,0.46921424
5ec454e23d68ea32ee554d12,8,0,2024-02-28T14:41:34.944Z,french_155.wav,0,poule,326,38,4,5,Français,f,5,0.5,73.72044222,1.76971401
5ec454e23d68ea32ee554d12,8,0,2024-02-28T14:41:34.944Z,french_155.wav,0,poule,326,38,4,5,Français,f,6,0.6,13.17734525,0.8491776
5ec454e23d68ea32ee554d12,8,0,2024-02-28T14:41:34.944Z,french_155.wav,0,poule,326,38,4,5,Français,f,7,0.7,33.07505579,1.18179357
5ec454e23d68ea32ee554d12,8,0,2024-02-28T14:41:34.944Z,french_155.wav,0,poule,326,38,4,5,Français,f,8,0.8,11.21533307,0.90499885
5ec454e23d68ea32ee554d12,8,0,2024-02-28T14:41:34.944Z,french_155.wav,0,poule,326,38,4,5,Français,f,9,0.9,-11.15187706,0.79006401
5ec454e23d68ea32ee554d12,8,0,2024-02-28T14:41:34.944Z,french_155.wav,0,poule,326,38,4,5,Français,f,10,1.0,62.83057895,1.00554233
5ec454e23d68ea32ee554d12,8,0,2024-02-28T14:41:34.944Z,french_155.wav,0,poule,326,38,4,5,Français,f,11,1.1,5.84907356,1.3461564
5ec454e23d68ea32ee554d12,8,0,2024-02-28T14:41:34.944Z,french_155.wav,0,poule,326,38,4,5,Français,f,12,1.14141667,-41.38043494,0.10111809
5ec454e23d68ea32ee554d12,9,0,2024-02-28T14:41:34.944Z,french_871.wav,0,pull,569,38,4,5,Français,f,0,0.0,-87.17332431,1.77173176
5ec454e23d68ea32ee554d12,9,0,2024-02-28T14:41:34.944Z,french_871.wav,0,pull,569,38,4,5,Français,f,1,0.1,-63.09415983,0.67265644
5ec454e23d68ea32ee554d12,9,0,2024-02-28T14:41:34.944Z,french_871.wav,0,pull,569,38,4,5,Français,f,2,0.2,-5.13692517,0.44902259
5ec454e23d68ea32ee554d12,9,0,2024-02-28T14:41:34.944Z,french_871.wav,0,pull,569,38,4,5,Français,f,3,0.3,39.71093195,0.63427398
5ec454e23d68ea32ee554d12,9,0,2024-02-28T14:41:34.944Z,french_871.wav,0,pull,569,38,4,5,Français,f,4,0.4,96.30977603,1.34575671
5ec454e23d68ea32ee554d12,9,0,2024-02-28T14:41:34.944Z,french_871.wav,0,pull,569,38,4,5,Français,f,5,0.5,25.78038163,1.48044625
5ec454e23d68ea32ee554d12,9,0,2024-02-28T14:41:34.944Z,french_871.wav,0,pull,569,38,4,5,Français,f,6,0.6,-32.08428471,1.83651266
5ec454e23d68ea32ee554d12,9,0,2024-02-28T14:41:34.944Z,french_871.wav,0,pull,569,38,4,5,Français,f,7,0.7,-14.27500372,1.53561215
5ec454e23d68ea32ee554d12,9,0,2024-02-28T14:41:34.944Z,french_871.wav,0,pull,569,38,4,5,Français,f,8,0.8,34.81288679,0.30121489
5ec454e23d68ea32ee554d12,9,0,2024-02-28T14:41:34.944Z,french_871.wav,0,pull,569,38,4,5,Français,f,9,0.9,-35.6564535,0.27947142
5ec454e23d68ea32ee554d12,9,0,2024-02-28T14:41:34.944Z,french_871.wav,0,pull,569,38,4,5,Français,f,10,1.0,-22.32235069,1.45080304
5ec454e23d68ea32ee554d12,9,0,2024-02-28T14:41:34.944Z,french_871.wav,0,pull,569,38,4,5,Français,f,11,1.1,65.75387004,0.99601767
5ec454e23d68ea32ee554d12,9,0,2024-02-28T14:41:34.944Z,french_871.wav,0,pull,569,38,4,5,Français,f,12,1.14141667,-54.68805411,0.62533647
5ec454e23d68ea32ee554d12,10,0,2024-02-28T14:41:34.944Z,french_890.wav,0,poule,380,38,4,5,Français,f,0,0.0,37.66035755,1.19799643
5ec454e23d68ea32ee554d12,10,0,2024-02-28T14:41:34.944Z,french_890.wav,0,poule,380,38,4,5,Français,f,1,0.1,-62.4198419,1.95985133
5ec454e23d68ea32ee554d12,10,0,2024-02-28T14:41:34.944Z,french_890.wav,0,poule,380,38,4,5,Français,f,2,0.2,22.14011597,6.34751795e-05
5ec454e23d68ea32ee554d12,10,0,2024-02-28T14:41:34.944Z,french_890.wav,0,poule,380,38,4,5,Français,f,3,0.3,-19.28433509,0.467547013
5ec454e23d68ea32ee554d12,10,0,2024-02-28T14:41:34.944Z,french_890.wav,0,poule,380,38,4,5,Français,f,4,0.4,58.02680792,0.379118242
5ec454e23d68ea32ee554d12,10,0,2024-02-28T14:41:34.944Z,french_890.wav,0,poule,380,38,4,5,Français,f,5,0.5,26.36088305,0.398106844
5ec454e23d68ea32ee554d12,10,0,2024-02-28T14:41:34.944Z,french_890.wav,0,poule,380,38,4,5,Français,f,6,0.6,-2.96553475,1.90521091
5ec454e23d68ea32ee554d12,10,0,2024-02-28T14:41:34.944Z,french_890.wav,0,poule,380,38,4,5,Français,f,7,0.7,18.82025548,0.228927516
5ec454e23d68ea32ee554d12,10,0,2024-02-28T14:41:34.944Z,french_890.wav,0,poule,380,38,4,5,Français,f,8,0.8,-71.77019801,0.850400434
5ec454e23d68ea32ee554d12,10,0,2024-02-28T14:41:34.944Z,french_890.wav,0,poule,380,38,4,5,Français,f,9,0.9,-33.53163,0.845624976
5ec454e23d68ea32ee554d12,10,0,2024-02-28T14:41:34.944Z,french_890.wav,0,poule,380,38,4,5,Français,f,10,1.0,-66.53266587,1.47438703
5ec454e23d68ea32ee554d12,10,0,2024-02-28T14:41:34.944Z,french_890.wav,0,poule,380,38,4,5,Français,f,11,1.1,-68.49556875,1.89174641
5ec454e23d68ea32ee554d12,10,0,2024-02-28T14:41:34.944Z,french_890.wav,0,poule,380,38,4,5,Français,f,12,1.14141667,37.72443789,1.26260731
5ec454e23d68ea32ee554d12,11,0,2024-02-28T14:41:34.944Z,french_212.wav,0,poule,844,38,4,5,Français,f,0,0.0,90.88102294,1.19203637
5ec454e23d68ea32ee554d12,11,0,2024-02-28T14:41:34.944Z,french_212.wav,0,poule,844,38,4,5,Français,f,1,0.1,-35.14561703,1.89782901
5ec454e23d68ea32ee554d12,11,0,2024-02-28T14:41:34.944Z,french_212.wav,0,poule,844,38,4,5,Français,f,2,0.2,14.79271583,1.86865655
5ec454e23d68ea32ee554d12,11,0,2024-02-28T14:41:34.944Z,french_212.wav,0,poule,844,38,4,5,Français,f,3,0.3,-88.21899913,1.6473075
5ec454e23d68ea32ee554d12,11,0,2024-02-28T14:41:34.944Z,french_212.wav,0,poule,844,38,4,5,Français,f,4,0.4,92.67503614,1.53763625
5ec454e23d68ea32ee554d12,11,0,2024-02-28T14:41:34.944Z,french_212.wav,0,poule,844,38,4,5,Français,f,5,0.5,23.16298662,0.83064548
5ec454e23d68ea32ee554d12,11,0,2024-02-28T14:41:34.944Z,french_212.wav,0,poule,844,38,4,5,Français,f,6,0.6,48.09904427,0.60296104
5ec454e23d68ea32ee554d12,11,0,2024-02-28T14:41:34.944Z,french_212.wav,0,poule,844,38,4,5,Français,f,7,0.7,21.94712123,1.07417589
5ec454e23d68ea32ee554d12,11,0,2024-02-28T14:41:34.944Z,french_212.wav,0,poule,844,38,4,5,Français,f,8,0.8,-62.00364596,1.14958956
5ec454e23d68ea32ee554d12,11,0,2024-02-28T14:41:34.944Z,french_212.wav,0,poule,844,38,4,5,Français,f,9,0.9,-26.3637586,0.04243199
5ec454e23d68ea32ee554d12,11,0,2024-02-28T14:41:34.944Z,french_212.wav,0,poule,844,38,4,5,Français,f,10,1.0,-48.35693482,0.92355121
5ec454e23d68ea32ee554d12,11,0,2024-02-28T14:41:34.944Z,french_212.wav,0,poule,844,38,4,5,Français,f,11,1.1,41.70852202,0.52672923
5ec454e23d68ea32ee554d12,11,0,2024-02-28T14:41:34.944Z,french_212.wav,0,poule,844,38,4,5,Français,f,12,1.14141667,38.71450678,1.31846494
5ec454e23d68ea32ee554d12,12,0,2024-02-28T14:41:34.944Z,french_341.wav,0,poule,658,38,4,5,Français,f,0,0.0,73.34356566,0.05237989
5ec454e23d68ea32ee554d12,12,0,2024-02-28T14:41:34.944Z,french_341.wav,0,poule,658,38,4,5,Français,f,1,0.1,32.77796781,0.70693463
5ec454e23d68ea32ee554d12,12,0,2024-02-28T14:41:34.944Z,french_341.wav,0,poule,658,38,4,5,Français,f,2,0.2,-15.17688107,0.15748394
5ec454e23d68ea32ee554d12,12,0,2024-02-28T14:41:34.944Z,french_341.wav,0,poule,658,38,4,5,Français,f,3,0.3,78.83994234,1.29250601
5ec454e23d68ea32ee554d12,12,0,2024-02-28T14:41:34.944Z,french_341.wav,0,poule,658,38,4,5,Français,f,4,0.4,-59.12519669,1.54348183
5ec454e23d68ea32ee554d12,12,0,2024-02-28T14:41:34.944Z,french_341.wav,0,poule,658,38,4,5,Français,f,5,0.5,-87.14456519,1.39462455
5ec454e23d68ea32ee554d12,12,0,2024-02-28T14:41:34.944Z,french_341.wav,0,poule,658,38,4,5,Français,f,6,0.6,49.18423227,0.68979079
5ec454e23d68ea32ee554d12,12,0,2024-02-28T14:41:34.944Z,french_341.wav,0,poule,658,38,4,5,Français,f,7,0.7,65.46333382,0.59150684
5ec454e23d68ea32ee554d12,12,0,2024-02-28T14:41:34.944Z,french_341.wav,0,poule,658,38,4,5,Français,f,8,0.8,12.37255248,1.3961758
5ec454e23d68ea32ee554d12,12,0,2024-02-28T14:41:34.944Z,french_341.wav,0,poule,658,38,4,5,Français,f,9,0.9,-45.01455723,0.15232918
5ec454e23d68ea32ee554d12,12,0,2024-02-28T14:41:34.944Z,french_341.wav,0,poule,658,38,4,5,Français,f,10,1.0,-32.6982037,0.77505127
5ec454e23d68ea32ee554d12,12,0,2024-02-28T14:41:34.944Z,french_341.wav,0,poule,658,38,4,5,Français,f,11,1.1,7.97147121,0.04371277
5ec454e23d68ea32ee554d12,12,0,2024-02-28T14:41:34.944Z,french_341.wav,0,poule,658,38,4,5,Français,f,12,1.14141667,-25.24905662,0.82980002
5ec454e23d68ea32ee554d12,13,0,2024-02-28T14:41:34.944Z,french_287.wav,0,pull,595,38,4,5,Français,f,0,0.0,24.91246091,0.55628619
5ec454e23d68ea32ee554d12,13,0,2024-02-28T14:41:34.944Z,french_287.wav,0,pull,595,38,4,5,Français,f,1,0.1,67.7832239,0.6662612
5ec454e23d68ea32ee554d12,13,0,2024-02-28T14:41:34.944Z,french_287.wav,0,pull,595,38,4,5,Français,f,2,0.2,45.53981298,1.36903667
5ec454e23d68ea32ee554d12,13,0,2024-02-28T14:41:34.944Z,french_287.wav,0,pull,595,38,4,5,Français,f,3,0.3,-34.40875305,0.2836932
5ec454e23d68ea32ee554d12,13,0,2024-02-28T14:41:34.944Z,french_287.wav,0,pull,595,38,4,5,Français,f,4,0.4,15.18631391,1.18401113
5ec454e23d68ea32ee554d12,13,0,2024-02-28T14:41:34.944Z,french_287.wav,0,pull,595,38,4,5,Français,f,5,0.5,-31.03447886,0.95699151
5ec454e23d68ea32ee554d12,13,0,2024-02-28T14:41:34.944Z,french_287.wav,0,pull,595,38,4,5,Français,f,6,0.6,-58.473992,1.42939471
5ec454e23d68ea32ee554d12,13,0,2024-02-28T14:41:34.944Z,french_287.wav,0,pull,595,38,4,5,Français,f,7,0.7,5.63880144,0.68329905
5ec454e23d68ea32ee554d12,13,0,2024-02-28T14:41:34.944Z,french_287.wav,0,pull,595,38,4,5,Français,f,8,0.8,-88.66742404,1.80121068
5ec454e23d68ea32ee554d12,13,0,2024-02-28T14:41:34.944Z,french_287.wav,0,pull,595,38,4,5,Français,f,9,0.9,-39.07529751,1.9139007
5ec454e23d68ea32ee554d12,13,0,2024-02-28T14:41:34.944Z,french_287.wav,0,pull,595,38,4,5,Français,f,10,1.0,-4.11446779,0.02395004
5ec454e23d68ea32ee554d12,13,0,2024-02-28T14:41:34.944Z,french_287.wav,0,pull,595,38,4,5,Français,f,11,1.1,-59.02603501,0.8859273
5ec454e23d68ea32ee554d12,13,0,2024-02-28T14:41:34.944Z,french_287.wav,0,pull,595,38,4,5,Français,f,12,1.14141667,11.416303,1.12262587
5ec454e23d68ea32ee554d12,14,0,2024-02-28T14:41:34.944Z,french_651.wav,0,poule,400,38,4,5,Français,f,0,0.0,-31.7609884,1.50568683
5ec454e23d68ea32ee554d12,14,0,2024-02-28T14:41:34.944Z,french_651.wav,0,poule,400,38,4,5,Français,f,1,0.1,52.52680229,0.67521246
5ec454e23d68ea32ee554d12,14,0,2024-02-28T14:41:34.944Z,french_651.wav,0,poule,400,38,4,5,Français,f,2,0.2,7.85876219,0.9805251
5ec454e23d68ea32ee554d12,14,0,2024-02-28T14:41:34.944Z,french_651.wav,0,poule,400,38,4,5,Français,f,3,0.3,-92.85880299,0.97060286
5ec454e23d68ea32ee554d12,14,0,2024-02-28T14:41:34.944Z,french_651.wav,0,poule,400,38,4,5,Français,f,4,0.4,-32.19396237,1.17347833
5ec454e23d68ea32ee554d12,14,0,2024-02-28T14:41:34.944Z,french_651.wav,0,poule,400,38,4,5,Français,f,5,0.5,-28.65780659,0.21577742
5ec454e23d68ea32ee554d12,14,0,2024-02-28T14:41:34.944Z,french_651.wav,0,poule,400,38,4,5,Français,f,6,0.6,6.85787083,1.38579708
5ec454e23d68ea32ee554d12,14,0,2024-02-28T14:41:34.944Z,french_651.wav,0,poule,400,38,4,5,Français,f,7,0.7,39.81262841,1.21350763
5ec454e23d68ea32ee554d12,14,0,2024-02-28T14:41:34.944Z,french_651.wav,0,poule,400,38,4,5,Français,f,8,0.8,-67.00385353,0.81689615
5ec454e23d68ea32ee554d12,14,0,2024-02-28T14:41:34.944Z,french_651.wav,0,poule,400,38,4,5,Français,f,9,0.9,-43.82258998,0.87721586
5ec454e23d68ea32ee554d12,14,0,2024-02-28T14:41:34.944Z,french_651.wav,0,poule,400,38,4,5,Français,f,10,1.0,24.68405128,0.52438845
5ec454e23d68ea32ee554d12,14,0,2024-02-28T14:41:34.944Z,french_651.wav,0,poule,400,38,4,5,Français,f,11,1.1,-55.05960981,1.4125197
5ec454e23d68ea32ee554d12,14,0,2024-02-28T14:41:34.944Z,french_651.wav,0,poule,400,38,4,5,Français,f,12,1.14141667,-24.80841555,1.30711742
5ec454e23d68ea32ee554d12,15,0,2024-02-28T14:41:34.944Z,french_676.wav,0,poule,962,38,4,5,Français,f,0,0.0,26.20492845,0.17270054
5ec454e23d68ea32ee554d12,15,0,2024-02-28T14:41:34.944Z,french_676.wav,0,poule,962,38,4,5,Français,f,1,0.1,-74.75819941,0.02705382
5ec454e23d68ea32ee554d12,15,0,2024-02-28T14:41:34.944Z,french_676.wav,0,poule,962,38,4,5,Français,f,2,0.2,66.48922001,0.46675355
5ec454e23d68ea32ee554d12,15,0,2024-02-28T14:41:34.944Z,french_676.wav,0,poule,962,38,4,5,Français,f,3,0.3,-68.12291136,1.08918404
5ec454e23d68ea32ee554d12,15,0,2024-02-28T14:41:34.944Z,french_676.wav,0,poule,962,38,4,5,Français,f,4,0.4,-31.90751588,1.08889729
5ec454e23d68ea32ee554d12,15,0,2024-02-28T14:41:34.944Z,french_676.wav,0,poule,962,38,4,5,Français,f,5,0.5,-87.61502744,1.58812935
5ec454e23d68ea32ee554d12,15,0,2024-02-28T14:41:34.944Z,french_676.wav,0,poule,962,38,4,5,Français,f,6,0.6,-96.2186605,0.22234036
5ec454e23d68ea32ee554d12,15,0,2024-02-28T14:41:34.944Z,french_676.wav,0,poule,962,38,4,5,Français,f,7,0.7,-41.587769,1.27368172
5ec454e23d68ea32ee554d12,15,0,2024-02-28T14:41:34.944Z,french_676.wav,0,poule,962,38,4,5,Français,f,8,0.8,-71.33167423,1.65649553
5ec454e23d68ea32ee554d12,15,0,2024-02-28T14:41:34.944Z,french_676.wav,0,poule,962,38,4,5,Français,f,9,0.9,68.40757258,1.77400253
5ec454e23d68ea32ee554d12,15,0,2024-02-28T14:41:34.944Z,french_676.wav,0,poule,962,38,4,5,Français,f,10,1.0,12.45719947,1.14991904
5ec454e23d68ea32ee554d12,15,0,2024-02-28T14:41:34.944Z,french_676.wav,0,poule,962,38,4,5,Français,f,11,1.1,16.4878676,0.18106984
5ec454e23d68ea32ee554d12,15,0,2024-02-28T14:41:34.944Z,french_676.wav,0,poule,962,38,4,5,Français,f,12,1.14141667,83.61600187,1.01468769
5ec454e23d68ea32ee554d12,16,0,2024-02-28T14:41:34.944Z,french_421.wav,0,poule,451,38,4,5,Français,f,0,0.0,45.68225875,1.9538806
5ec454e23d68ea32ee554d12,16,0,2024-02-28T14:41:34.944Z,french_421.wav,0,poule,451,38,4,5,Français,f,1,0.1,20.77412009,0.51850619
5ec454e23d68ea32ee554d12,16,0,2024-02-28T14:41:34.944Z,french_421.wav,0,poule,451,38,4,5,Français,f,2,0.2,12.9169451,0.76737597
5ec454e23d68ea32ee554d12,16,0,2024-02-28T14:41:34.944Z,french_421.wav,0,poule,451,38,4,5,Français,f,3,0.3,53.02430198,0.87704264
5ec454e23d68ea32ee554d12,16,0,2024-02-28T14:41:34.944Z,french_421.wav,0,poule,451,38,4,5,Français,f,4,0.4,83.41126646,0.09013343
5ec454e23d68ea32ee554d12,16,0,2024-02-28T14:41:34.944Z,french_421.wav,0,poule,451,38,4,5,Français,f,5,0.5,27.70162445,1.84345299
5ec454e23d68ea32ee554d12,16,0,2024-02-28T14:41:34.944Z,french_421.wav,0,poule,451,38,4,5,Français,f,6,0.6,-9.39660641,1.84276428
5ec454e23d68ea32ee554d12,16,0,2024-02-28T14:41:34.944Z,french_421.wav,0,poule,451,38,4,5,Français,f,7,0.7,75.75645777,1.09011778
5ec454e23d68ea32ee554d12,16,0,2024-02-28T14:41:34.944Z,french_421.wav,0,poule,451,38,4,5,Français,f,8,0.8,24.8906921,1.12131544
5ec454e23d68ea32ee554d12,16,0,2024-02-28T14:41:34.944Z,french_421.wav,0,poule,451,38,4,5,Français,f,9,0.9,25.41289802,1.94516148
5ec454e23d68ea32ee554d12,16,0,2024-02-28T14:41:34.944Z,french_421.wav,0,poule,451,38,4,5,Français,f,10,1.0,27.36402577,0.42837326
5ec454e23d68ea32ee554d12,16,0,2024-02-28T14:41:34.944Z,french_421.wav,0,poule,451,38,4,5,Français,f,11,1.1,-7.62413192,0.5442249
5ec454e23d68ea32ee554d12,16,0,2024-02-28T14:41:34.944Z,french_421.wav,0,poule,451,38,4,5,Français,f,12,1.14141667,-0.69383243,1.37977126
5ec454e23d68ea32ee554d12,17,0,2024-02-28T14:41:34.944Z,french_690.wav,0,pull,614,38,4,5,Français,f,0,0.0,-15.77794192,0.776264
5ec454e23d68ea32ee554d12,17,0,2024-02-28T14:41:34.944Z,french_690.wav,0,pull,614,38,4,5,Français,f,1,0.1,20.73657668,1.05348149
5ec454e23d68ea32ee554d12,17,0,2024-02-28T14:41:34.944Z,french_690.wav,0,pull,614,38,4,5,Français,f,2,0.2,5.47948765,1.31884557
5ec454e23d68ea32ee554d12,17,0,2024-02-28T14:41:34.944Z,french_690.wav,0,pull,614,38,4,5,Français,f,3,0.3,-23.65899914,1.7112966
5ec454e23d68ea32ee554d12,17,0,2024-02-28T14:41:34.944Z,french_690.wav,0,pull,614,38,4,5,Français,f,4,0.4,-47.44992258,1.21461339
5ec454e23d68ea32ee554d12,17,0,2024-02-28T14:41:34.944Z,french_690.wav,0,pull,614,38,4,5,Français,f,5,0.5,-15.93516049,0.66481507
5ec454e23d68ea32ee554d12,17,0,2024-02-28T14:41:34.944Z,french_690.wav,0,pull,614,38,4,5,Français,f,6,0.6,-89.18707981,1.81328245
5ec454e23d68ea32ee554d12,17,0,2024-02-28T14:41:34.944Z,french_690.wav,0,pull,614,38,4,5,Français,f,7,0.7,-35.2776218,1.44254844
5ec454e23d68ea32ee554d12,17,0,2024-02-28T14:41:34.944Z,french_690.wav,0,pull,614,38,4,5,Français,f,8,0.8,6.20395888,0.19339101
5ec454e23d68ea32ee554d12,17,0,2024-02-28T14:41:34.944Z,french_690.wav,0,pull,614,38,4,5,Français,f,9,0.9,41.59707706,0.10495866
5ec454e23d68ea32ee554d12,17,0,2024-02-28T14:41:34.944Z,french_690.wav,0,pull,614,38,4,5,Français,f,10,1.0,82.2331579,0.77487954
5ec454e23d68ea32ee554d12,17,0,2024-02-28T14:41:34.944Z,french_690.wav,0,pull,614,38,4,5,Français,f,11,1.1,5.21006,0.35725584
5ec454e23d68ea32ee554d12,17,0,2024-02-28T14:41:34.944Z,french_690.wav,0,pull,614,38,4,5,Français,f,12,1.14141667,-56.47896781,0.31922507
5ec454e23d68ea32ee554d12,18,0,2024-02-28T14:41:34.944Z,french_424.wav,0,pull,777,38,4,5,Français,f,0,0.0,-71.77866376,0.11874292
5ec454e23d68ea32ee554d12,18,0,2024-02-28T14:41:34.944Z,french_424.wav,0,pull,777,38,4,5,Français,f,1,0.1,31.13888093,1.79573411
5ec454e23d68ea32ee554d12,18,0,2024-02-28T14:41:34.944Z,french_424.wav,0,pull,777,38,4,5,Français,f,2,0.2,6.52825637,0.55389209
5ec454e23d68ea32ee554d12,18,0,2024-02-28T14:41:34.944Z,french_424.wav,0,pull,777,38,4,5,Français,f,3,0.3,-35.38131695,0.66942904
5ec454e23d68ea32ee554d12,18,0,2024-02-28T14:41:34.944Z,french_424.wav,0,pull,777,38,4,5,Français,f,4,0.4,93.73768065,0.69601265
5ec454e23d68ea32ee554d12,18,0,2024-02-28T14:41:34.944Z,french_424.wav,0,pull,777,38,4,5,Français,f,5,0.5,19.60197895,1.68108951
5ec454e23d68ea32ee554d12,18,0,2024-02-28T14:41:34.944Z,french_424.wav,0,pull,777,38,4,5,Français,f,6,0.6,-67.98715438,0.40297353
5ec454e23d68ea32ee554d12,18,0,2024-02-28T14:41:34.944Z,french_424.wav,0,pull,777,38,4,5,Français,f,7,0.7,-23.21490099,0.05630634
5ec454e23d68ea32ee554d12,18,0,2024-02-28T14:41:34.944Z,french_424.wav,0,pull,777,38,4,5,Français,f,8,0.8,50.97427539,0.86039262
5ec454e23d68ea32ee554d12,18,0,2024-02-28T14:41:34.944Z,french_424.wav,0,pull,777,38,4,5,Français,f,9,0.9,-25.4059756,0.0495768
5ec454e23d68ea32ee554d12,18,0,2024-02-28T14:41:34.944Z,french_424.wav,0,pull,777,38,4,5,Français,f,10,1.0,-40.03457553,0.37368801
5ec454e23d68ea32ee554d12,18,0,2024-02-28T14:41:34.944Z,french_424.wav,0,pull,777,38,4,5,Français,f,11,1.1,-86.49108324,0.94382816
5ec454e23d68ea32ee554d12,18,0,2024-02-28T14:41:34.944Z,french_424.wav,0,pull,777,38,4,5,Français,f,12,1.14141667,34.72431922,0.33429857
5ec454e23d68ea32ee554d12,19,0,2024-02-28T14:41:34.944Z,french_381.wav,0,pull,876,38,4,5,Français,f,0,0.0,16.77547757,1.57552779
5ec454e23d68ea32ee554d12,19,0,2024-02-28T14:41:34.944Z,french_381.wav,0,pull,876,38,4,5,Français,f,1,0.1,17.23505451,0.79968926
5ec454e23d68ea32ee554d12,19,0,2024-02-28T14:41:34.944Z,french_381.wav,0,pull,876,38,4,5,Français,f,2,0.2,81.55975147,0.97870808
5ec454e23d68ea32ee554d12,19,0,2024-02-28T14:41:34.944Z,french_381.wav,0,pull,876,38,4,5,Français,f,3,0.3,66.33872026,1.32218964
5ec454e23d68ea32ee554d12,19,0,2024-02-28T14:41:34.944Z,french_381.wav,0,pull,876,38,4,5,Français,f,4,0.4,33.03818018,1.91491421
5ec454e23d68ea32ee554d12,19,0,2024-02-28T14:41:34.944Z,french_381.wav,0,pull,876,38,4,5,Français,f,5,0.5,-27.31689891,1.55764182
5ec454e23d68ea32ee554d12,19,0,2024-02-28T14:41:34.944Z,french_381.wav,0,pull,876,38,4,5,Français,f,6,0.6,23.16804454,1.56469583
5ec454e23d68ea32ee554d12,19,0,2024-02-28T14:41:34.944Z,french_381.wav,0,pull,876,38,4,5,Français,f,7,0.7,-22.15418729,0.99557265
5ec454e23d68ea32ee554d12,19,0,2024-02-28T14:41:34.944Z,french_381.wav,0,pull,876,38,4,5,Français,f,8,0.8,17.55346965,0.5982603
5ec454e23d68ea32ee554d12,19,0,2024-02-28T14:41:34.944Z,french_381.wav,0,pull,876,38,4,5,Français,f,9,0.9,-25.58605951,0.02411044
5ec454e23d68ea32ee554d12,19,0,2024-02-28T14:41:34.944Z,french_381.wav,0,pull,876,38,4,5,Français,f,10,1.0,-85.31796448,0.77366774
5ec454e23d68ea32ee554d12,19,0,2024-02-28T14:41:34.944Z,french_381.wav,0,pull,876,38,4,5,Français,f,11,1.1,-83.45042571,0.9088508
5ec454e23d68ea32ee554d12,19,0,2024-02-28T14:41:34.944Z,french_381.wav,0,pull,876,38,4,5,Français,f,12,1.14141667,12.63282515,1.14991204
5ec454e23d68ea32ee554d12,20,0,2024-02-28T14:41:34.944Z,french_416.wav,0,poule,524,38,4,5,Français,f,0,0.0,-24.5917535,1.72074826
5ec454e23d68ea32ee554d12,20,0,2024-02-28T14:41:34.944Z,french_416.wav,0,poule,524,38,4,5,Français,f,1,0.1,92.93920815,1.31311704
5ec454e23d68ea32ee554d12,20,0,2024-02-28T14:41:34.944Z,french_416.wav,0,poule,524,38,4,5,Français,f,2,0.2,-43.48613044,1.22529817
5ec454e23d68ea32ee554d12,20,0,2024-02-28T14:41:34.944Z,french_416.wav,0,poule,524,38,4,5,Français,f,3,0.3,22.34438272,0.96386937
5ec454e23d68ea32ee554d12,20,0,2024-02-28T14:41:34.944Z,french_416.wav,0,poule,524,38,4,5,Français,f,4,0.4,-55.5062491,0.05298251
5ec454e23d68ea32ee554d12,20,0,2024-02-28T14:41:34.944Z,french_416.wav,0,poule,524,38,4,5,Français,f,5,0.5,-33.7407387,1.64478666
5ec454e23d68ea32ee554d12,20,0,2024-02-28T14:41:34.944Z,french_416.wav,0,poule,524,38,4,5,Français,f,6,0.6,13.55088473,0.56907947
5ec454e23d68ea32ee554d12,20,0,2024-02-28T14:41:34.944Z,french_416.wav,0,poule,524,38,4,5,Français,f,7,0.7,-86.82043412,1.73567671
5ec454e23d68ea32ee554d12,20,0,2024-02-28T14:41:34.944Z,french_416.wav,0,poule,524,38,4,5,Français,f,8,0.8,-64.82507768,0.1378672
5ec454e23d68ea32ee554d12,20,0,2024-02-28T14:41:34.944Z,french_416.wav,0,poule,524,38,4,5,Français,f,9,0.9,-58.57710626,1.13864961
5ec454e23d68ea32ee554d12,20,0,2024-02-28T14:41:34.944Z,french_416.wav,0,poule,524,38,4,5,Français,f,10,1.0,-0.79294086,0.67164702
5ec454e23d68ea32ee554d12,20,0,2024-02-28T14:41:34.944Z,french_416.wav,0,poule,524,38,4,5,Français,f,11,1.1,60.59997743,1.79788086
5ec454e23d68ea32ee554d12,20,0,2024-02-28T14:41:34.944Z,french_416.wav,0,poule,524,38,4,5,Français,f,12,1.14141667,99.27045787,0.3532116
5ec454e23d68ea32ee554d12,21,0,2024-02-28T14:41:34.944Z,french_13.wav,0,poule,595,38,4,5,Français,f,0,0.0,28.79040646,1.71683998
5ec454e23d68ea32ee554d12,21,0,2024-02-28T14:41:34.944Z,french_13.wav,0,poule,595,38,4,5,Français,f,1,0.1,1.43639251,1.51392947
5ec454e23d68ea32ee554d12,21,0,2024-02-28T14:41:34.944Z,french_13.wav,0,poule,595,38,4,5,Français,f,2,0.2,8.93741283,1.95012388
5ec454e23d68ea32ee554d12,21,0,2024-02-28T14:41:34.944Z,french_13.wav,0,poule,595,38,4,5,Français,f,3,0.3,-45.23678971,1.24720578
5ec454e23d68ea32ee554d12,21,0,2024-02-28T14:41:34.944Z,french_13.wav,0,poule,595,38,4,5,Français,f,4,0.4,-36.64568284,0.6748638
5ec454e23d68ea32ee554d12,21,0,2024-02-28T14:41:34.944Z,french_13.wav,0,poule,595,38,4,5,Français,f,5,0.5,95.08006425,0.64178438
5ec454e23d68ea32ee554d12,21,0,2024-02-28T14:41:34.944Z,french_13.wav,0,poule,595,38,4,5,Français,f,6,0.6,-25.15383894,1.78067585
5ec454e23d68ea32ee554d12,21,0,2024-02-28T14:41:34.944Z,french_13.wav,0,poule,595,38,4,5,Français,f,7,0.7,20.22064469,0.73379373
5ec454e23d68ea32ee554d12,21,0,2024-02-28T14:41:34.944Z,french_13.wav,0,poule,595,38,4,5,Français,f,8,0.8,4.43008543,0.8008251
5ec454e23d68ea32ee554d12,21,0,2024-02-28T14:41:34.944Z,french_13.wav,0,poule,595,38,4,5,Français,f,9,0.9,31.96842926,1.62083082
5ec454e23d68ea32ee554d12,21,0,2024-02-28T14:41:34.944Z,french_13.wav,0,poule,595,38,4,5,Français,f,10,1.0,59.17290693,0.40737704
5ec454e23d68ea32ee554d12,21,0,2024-02-28T14:41:34.944Z,french_13.wav,0,poule,595,38,4,5,Français,f,11,1.1,3.48956858,0.59465297
5ec454e23d68ea32ee554d12,21,0,2024-02-28T14:41:34.944Z,french_13.wav,0,poule,595,38,4,5,Français,f,12,1.14141667,-39.55658578,0.57584179
5ec454e23d68ea32ee554d12,22,0,2024-02-28T14:41:34.944Z,french_395.wav,0,poule,399,38,4,5,Français,f,0,0.0,45.0752434,1.18925621
5ec454e23d68ea32ee554d12,22,0,2024-02-28T14:41:34.944Z,french_395.wav,0,poule,399,38,4,5,Français,f,1,0.1,-93.76597298,0.52454802
5ec454e23d68ea32ee554d12,22,0,2024-02-28T14:41:34.944Z,french_395.wav,0,poule,399,38,4,5,Français,f,2,0.2,46.57087832,1.50660579
5ec454e23d68ea32ee554d12,22,0,2024-02-28T14:41:34.944Z,french_395.wav,0,poule,399,38,4,5,Français,f,3,0.3,59.364027,0.93298366
5ec454e23d68ea32ee554d12,22,0,2024-02-28T14:41:34.944Z,french_395.wav,0,poule,399,38,4,5,Français,f,4,0.4,25.27671277,0.50677812
5ec454e23d68ea32ee554d12,22,0,2024-02-28T14:41:34.944Z,french_395.wav,0,poule,399,38,4,5,Français,f,5,0.5,18.6240562,0.56379423
5ec454e23d68ea32ee554d12,22,0,2024-02-28T14:41:34.944Z,french_395.wav,0,poule,399,38,4,5,Français,f,6,0.6,-12.8872696,1.362377
5ec454e23d68ea32ee554d12,22,0,2024-02-28T14:41:34.944Z,french_395.wav,0,poule,399,38,4,5,Français,f,7,0.7,-38.76560327,1.10820927
5ec454e23d68ea32ee554d12,22,0,2024-02-28T14:41:34.944Z,french_395.wav,0,poule,399,38,4,5,Français,f,8,0.8,-43.15551235,0.83193558
5ec454e23d68ea32ee554d12,22,0,2024-02-28T14:41:34.944Z,french_395.wav,0,poule,399,38,4,5,Français,f,9,0.9,-99.26206563,1.55187087
5ec454e23d68ea32ee554d12,22,0,2024-02-28T14:41:34.944Z,french_395.wav,0,poule,399,38,4,5,Français,f,10,1.0,-7.96649049,1.27801505
5ec454e23d68ea32ee554d12,22,0,2024-02-28T14:41:34.944Z,french_395.wav,0,poule,399,38,4,5,Français,f,11,1.1,38.87039961,1.56525151
5ec454e23d68ea32ee554d12,22,0,2024-02-28T14:41:34.944Z,french_395.wav,0,poule,399,38,4,5,Français,f,12,1.14141667,73.11872685,1.97246425
5ec454e23d68ea32ee554d12,23,0,2024-02-28T14:41:34.944Z,french_896.wav,0,poule,274,38,4,5,Français,f,0,0.0,11.47422231,0.82823049
5ec454e23d68ea32ee554d12,23,0,2024-02-28T14:41:34.944Z,french_896.wav,0,poule,274,38,4,5,Français,f,1,0.1,46.2400026,0.71952712
5ec454e23d68ea32ee554d12,23,0,2024-02-28T14:41:34.944Z,french_896.wav,0,poule,274,38,4,5,Français,f,2,0.2,-24.32057019,0.05991654
5ec454e23d68ea32ee554d12,23,0,2024-02-28T14:41:34.944Z,french_896.wav,0,poule,274,38,4,5,Français,f,3,0.3,-87.2030855,0.82758531
5ec454e23d68ea32ee554d12,23,0,2024-02-28T14:41:34.944Z,french_896.wav,0,poule,274,38,4,5,Français,f,4,0.4,5.78611761,0.66822368
5ec454e23d68ea32ee554d12,23,0,2024-02-28T14:41:34.944Z,french_896.wav,0,poule,274,38,4,5,Français,f,5,0.5,71.23724358,1.72255849
5ec454e23d68ea32ee554d12,23,0,2024-02-28T14:41:34.944Z,french_896.wav,0,poule,274,38,4,5,Français,f,6,0.6,-12.04646094,0.89622967
5ec454e23d68ea32ee554d12,23,0,2024-02-28T14:41:34.944Z,french_896.wav,0,poule,274,38,4,5,Français,f,7,0.7,65.65969456,1.36132994
5ec454e23d68ea32ee554d12,23,0,2024-02-28T14:41:34.944Z,french_896.wav,0,poule,274,38,4,5,Français,f,8,0.8,-71.55601308,0.74243617
5ec454e23d68ea32ee554d12,23,0,2024-02-28T14:41:34.944Z,french_896.wav,0,poule,274,38,4,5,Français,f,9,0.9,-30.47071095,1.96359611
5ec454e23d68ea32ee554d12,23,0,2024-02-28T14:41:34.944Z,french_896.wav,0,poule,274,38,4,5,Français,f,10,1.0,81.31836813,1.07942153
5ec454e23d68ea32ee554d12,23,0,2024-02-28T14:41:34.944Z,french_896.wav,0,poule,274,38,4,5,Français,f,11,1.1,59.00321501,0.72058173
5ec454e23d68ea32ee554d12,23,0,2024-02-28T14:41:34.944Z,french_896.wav,0,poule,274,38,4,5,Français,f,12,1.14141667,-11.27294507,1.33962568
5ec454e23d68ea32ee554d12,24,0,2024-02-28T14:41:34.944Z,french_392.wav,0,pull,635,38,4,5,Français,f,0,0.0,43.99848035,0.24307259
5ec454e23d68ea32ee554d12,24,0,2024-02-28T14:41:34.944Z,french_392.wav,0,pull,635,38,4,5,Français,f,1,0.1,89.37964473,0.78823441
5ec454e23d68ea32ee554d12,24,0,2024-02-28T14:41:34.944Z,french_392.wav,0,pull,635,38,4,5,Français,f,2,0.2,-94.11859464,1.0877562
5ec454e23d68ea32ee554d12,24,0,2024-02-28T14:41:34.944Z,french_392.wav,0,pull,635,38,4,5,Français,f,3,0.3,16.69264068,1.02068891
5ec454e23d68ea32ee554d12,24,0,2024-02-28T14:41:34.944Z,french_392.wav,0,pull,635,38,4,5,Français,f,4,0.4,83.58605823,1.168512
5ec454e23d68ea32ee554d12,24,0,2024-02-28T14:41:34.944Z,french_392.wav,0,pull,635,38,4,5,Français,f,5,0.5,-10.46823154,0.9879619
5ec454e23d68ea32ee554d12,24,0,2024-02-28T14:41:34.944Z,french_392.wav,0,pull,635,38,4,5,Français,f,6,0.6,-50.40581599,0.74539944
5ec454e23d68ea32ee554d12,24,0,2024-02-28T14:41:34.944Z,french_392.wav,0,pull,635,38,4,5,Français,f,7,0.7,-34.67139943,1.04829238
5ec454e23d68ea32ee554d12,24,0,2024-02-28T14:41:34.944Z,french_392.wav,0,pull,635,38,4,5,Français,f,8,0.8,-49.94222818,1.85501319
5ec454e23d68ea32ee554d12,24,0,2024-02-28T14:41:34.944Z,french_392.wav,0,pull,635,38,4,5,Français,f,9,0.9,23.2883478,1.17241546
5ec454e23d68ea32ee554d12,24,0,2024-02-28T14:41:34.944Z,french_392.wav,0,pull,635,38,4,5,Français,f,10,1.0,-13.68434183,0.44164046
5ec454e23d68ea32ee554d12,24,0,2024-02-28T14:41:34.944Z,french_392.wav,0,pull,635,38,4,5,Français,f,11,1.1,-91.50967173,0.8250053
5ec454e23d68ea32ee554d12,24,0,2024-02-28T14:41:34.944Z,french_392.wav,0,pull,635,38,4,5,Français,f,12,1.14141667,19.2925098,0.46893498
5ec454e23d68ea32ee554d12,25,0,2024-02-28T14:41:34.944Z,french_743.wav,0,poule,289,38,4,5,Français,f,0,0.0,-12.23572385,0.34334602
5ec454e23d68ea32ee554d12,25,0,2024-02-28T14:41:34.944Z,french_743.wav,0,poule,289,38,4,5,Français,f,1,0.1,-82.90994455,0.85733528
5ec454e23d68ea32ee554d12,25,0,2024-02-28T14:41:34.944Z,french_743.wav,0,poule,289,38,4,5,Français,f,2,0.2,56.36957641,0.71514815
5ec454e23d68ea32ee554d12,25,0,2024-02-28T14:41:34.944Z,french_743.wav,0,poule,289,38,4,5,Français,f,3,0.3,-80.49353375,0.73179397
5ec454e23d68ea32ee554d12,25,0,2024-02-28T14:41:34.944Z,french_743.wav,0,poule,289,38,4,5,Français,f,4,0.4,-75.92212441,0.65221135
5ec454e23d68ea32ee554d12,25,0,2024-02-28T14:41:34.944Z,french_743.wav,0,poule,289,38,4,5,Français,f,5,0.5,-37.43962458,0.42587516
5ec454e23d68ea32ee554d12,25,0,2024-02-28T14:41:34.944Z,french_743.wav,0,poule,289,38,4,5,Français,f,6,0.6,46.34324225,1.58997971
5ec454e23d68ea32ee554d12,25,0,2024-02-28T14:41:34.944Z,french_743.wav,0,poule,289,38,4,5,Français,f,7,0.7,-97.29246906,1.49839996
5ec454e23d68ea32ee554d12,25,0,2024-02-28T14:41:34.944Z,french_743.wav,0,poule,289,38,4,5,Français,f,8,0.8,27.80864883,0.37447973
5ec454e23d68ea32ee554d12,25,0,2024-02-28T14:41:34.944Z,french_743.wav,0,poule,289,38,4,5,Français,f,9,0.9,19.90668052,1.20970958
5ec454e23d68ea32ee554d12,25,0,2024-02-28T14:41:34.944Z,french_743.wav,0,poule,289,38,4,5,Français,f,10,1.0,79.30735731,1.67146036
5ec454e23d68ea32ee554d12,25,0,2024-02-28T14:41:34.944Z,french_743.wav,0,poule,289,38,4,5,Français,f,11,1.1,87.70980131,0.55378638
5ec454e23d68ea32ee554d12,25,0,2024-02-28T14:41:34.944Z,french_743.wav,0,poule,289,38,4,5,Français,f,12,1.14141667,-17.58921079,1.00046164
5ec454e23d68ea32ee554d12,26,0,2024-02-28T14:41:34.944Z,french_100.wav,0,pull,438,38,4,5,Français,f,0,0.0,45.30319637,0.4266363
5ec454e23d68ea32ee554d12,26,0,2024-02-28T14:41:34.944Z,french_100.wav,0,pull,438,38,4,5,Français,f,1,0.1,47.12815282,0.41166499
5ec454e23d68ea32ee554d12,26,0,2024-02-28T14:41:34.944Z,french_100.wav,0,pull,438,38,4,5,Français,f,2,0.2,67.48521917,0.75850186
5ec454e23d68ea32ee554d12,26,0,2024-02-28T14:41:34.944Z,french_100.wav,0,pull,438,38,4,5,Français,f,3,0.3,23.61125392,1.79094973
5ec454e23d68ea32ee554d12,26,0,2024-02-28T14:41:34.944Z,french_100.wav,0,pull,438,38,4,5,Français,f,4,0.4,20.77565094,1.79636496
5ec454e23d68ea32ee554d12,26,0,2024-02-28T14:41:34.944Z,french_100.wav,0,pull,438,38,4,5,Français,f,5,0.5,-96.44964023,1.36246425
5ec454e23d68ea32ee554d12,26,0,2024-02-28T14:41:34.944Z,french_100.wav,0,pull,438,38,4,5,Français,f,6,0.6,-27.30276741,0.7383114
5ec454e23d68ea32ee554d12,26,0,2024-02-28T14:41:34.944Z,french_100.wav,0,pull,438,38,4,5,Français,f,7,0.7,7.85228196,1.2886492
5ec454e23d68ea32ee554d12,26,0,2024-02-28T14:41:34.944Z,french_100.wav,0,pull,438,38,4,5,Français,f,8,0.8,68.83602268,0.63858011
5ec454e23d68ea32ee554d12,26,0,2024-02-28T14:41:34.944Z,french_100.wav,0,pull,438,38,4,5,Français,f,9,0.9,42.76775799,0.54144566
5ec454e23d68ea32ee554d12,26,0,2024-02-28T14:41:34.944Z,french_100.wav,0,pull,438,38,4,5,Français,f,10,1.0,54.32509685,0.22455782
5ec454e23d68ea32ee554d12,26,0,2024-02-28T14:41:34.944Z,french_100.wav,0,pull,438,38,4,5,Français,f,11,1.1,-78.45035325,0.1039249
5ec454e23d68ea32ee554d12,26,0,2024-02-28T14:41:34.944Z,french_100.wav,0,pull,438,38,4,5,Français,f,12,1.14141667,25.20581813,0.78301344
5ec454e23d68ea32ee554d12,27,0,2024-02-28T14:41:34.944Z,french_756.wav,0,poule,313,38,4,5,Français,f,0,0.0,-40.89918264,0.22647067
5ec454e23d68ea32ee554d12,27,0,2024-02-28T14:41:34.944Z,french_756.wav,0,poule,313,38,4,5,Français,f,1,0.1,-99.52464367,0.83190688
5ec454e23d68ea32ee554d12,27,0,2024-02-28T14:41:34.944Z,french_756.wav,0,poule,313,38,4,5,Français,f,2,0.2,-21.65080484,1.47884544
5ec454e23d68ea32ee554d12,27,0,2024-02-28T14:41:34.944Z,french_756.wav,0,poule,313,38,4,5,Français,f,3,0.3,61.04267157,0.7217285
5ec454e23d68ea32ee554d12,27,0,2024-02-28T14:41:34.944Z,french_756.wav,0,poule,313,38,4,5,Français,f,4,0.4,-86.7981673,1.67647658
5ec454e23d68ea32ee554d12,27,0,2024-02-28T14:41:34.944Z,french_756.wav,0,poule,313,38,4,5,Français,f,5,0.5,-52.98495971,1.95635738
5ec454e23d68ea32ee554d12,27,0,2024-02-28T14:41:34.944Z,french_756.wav,0,poule,313,38,4,5,Français,f,6,0.6,-62.5926211,1.04454085
5ec454e23d68ea32ee554d12,27,0,2024-02-28T14:41:34.944Z,french_756.wav,0,poule,313,38,4,5,Français,f,7,0.7,93.58331773,1.38664818
5ec454e23d68ea32ee554d12,27,0,2024-02-28T14:41:34.944Z,french_756.wav,0,poule,313,38,4,5,Français,f,8,0.8,-85.69814582,1.57780238
5ec454e23d68ea32ee554d12,27,0,2024-02-28T14:41:34.944Z,french_756.wav,0,poule,313,38,4,5,Français,f,9,0.9,79.03573852,1.00453441
5ec454e23d68ea32ee554d12,27,0,2024-02-28T14:41:34.944Z,french_756.wav,0,poule,313,38,4,5,Français,f,10,1.0,-77.37187744,1.82221754
5ec454e23d68ea32ee554d12,27,0,2024-02-28T14:41:34.944Z,french_756.wav,0,poule,313,38,4,5,Français,f,11,1.1,78.34862084,0.38536838
5ec454e23d68ea32ee554d12,27,0,2024-02-28T14:41:34.944Z,french_756.wav,0,poule,313,38,4,5,Français,f,12,1.14141667,-65.43844249,0.09429914
5ec454e23d68ea32ee554d12,28,0,2024-02-28T14:41:34.944Z,french_520.wav,0,poule,294,38,4,5,Français,f,0,0.0,54.59631185,1.78597268
5ec454e23d68ea32ee554d12,28,0,2024-02-28T14:41:34.944Z,french_520.wav,0,poule,294,38,4,5,Français,f,1,0.1,-18.71306674,0.74285754
5ec454e23d68ea32ee554d12,28,0,2024-02-28T14:41:34.944Z,french_520.wav,0,poule,294,38,4,5,Français,f,2,0.2,71.20328592,1.19325047
5ec454e23d68ea32ee554d12,28,0,2024-02-28T14:41:34.944Z,french_520.wav,0,poule,294,38,4,5,Français,f,3,0.3,-11.6397205,0.1474075
5ec454e23d68ea32ee554d12,28,0,2024-02-28T14:41:34.944Z,french_520.wav,0,poule,294,38,4,5,Français,f,4,0.4,16.59314513,0.42865605
5ec454e23d68ea32ee554d12,28,0,2024-02-28T14:41:34.944Z,french_520.wav,0,poule,294,38,4,5,Français,f,5,0.5,89.51821443,0.10037667
5ec454e23d68ea32ee554d12,28,0,2024-02-28T14:41:34.944Z,french_520.wav,0,poule,294,38,4,5,Français,f,6,0.6,8.22538685,0.90555866
5ec454e23d68ea32ee554d12,28,0,2024-02-28T14:41:34.944Z,french_520.wav,0,poule,294,38,4,5,Français,f,7,0.7,99.6824518,0.8436254
5ec454e23d68ea32ee554d12,28,0,2024-02-28T14:41:34.944Z,french_520.wav,0,poule,294,38,4,5,Français,f,8,0.8,6.88409597,0.04116239
5ec454e23d68ea32ee554d12,28,0,2024-02-28T14:41:34.944Z,french_520.wav,0,poule,294,38,4,5,Français,f,9,0.9,-67.19157404,1.43483218
5ec454e23d68ea32ee554d12,28,0,2024-02-28T14:41:34.944Z,french_520.wav,0,poule,294,38,4,5,Français,f,10,1.0,72.30648841,0.75741096
5ec454e23d68ea32ee554d12,28,0,2024-02-28T14:41:34.944Z,french_520.wav,0,poule,294,38,4,5,Français,f,11,1.1,-93.79261589,1.45404445
5ec454e23d68ea32ee554d12,28,0,2024-02-28T14:41:34.944Z,french_520.wav,0,poule,294,38,4,5,Français,f,12,1.14141667,-78.36877444,0.95774315
5ec454e23d68ea32ee554d12,29,0,2024-02-28T14:41:34.944Z,french_339.wav,0,pull,630,38,4,5,Français,f,0,0.0,-91.66719756,0.83274
5ec454e23d68ea32ee554d12,29,0,2024-02-28T14:41:34.944Z,french_339.wav,0,pull,630,38,4,5,Français,f,1,0.1,-40.09978494,1.09275025
5ec454e23d68ea32ee554d12,29,0,2024-02-28T14:41:34.944Z,french_339.wav,0,pull,630,38,4,5,Français,f,2,0.2,-46.90301028,0.95259452
5ec454e23d68ea32ee554d12,29,0,2024-02-28T14:41:34.944Z,french_339.wav,0,pull,630,38,4,5,Français,f,3,0.3,12.45337088,1.57352585
5ec454e23d68ea32ee554d12,29,0,2024-02-28T14:41:34.944Z,french_339.wav,0,pull,630,38,4,5,Français,f,4,0.4,-7.3719957,1.00068358
5ec454e23d68ea32ee554d12,29,0,2024-02-28T14:41:34.944Z,french_339.wav,0,pull,630,38,4,5,Français,f,5,0.5,-38.64502955,1.00260215
5ec454e23d68ea32ee554d12,29,0,2024-02-28T14:41:34.944Z,french_339.wav,0,pull,630,38,4,5,Français,f,6,0.6,-0.41989507,1.95270399
5ec454e23d68ea32ee554d12,29,0,2024-02-28T14:41:34.944Z,french_339.wav,0,pull,630,38,4,5,Français,f,7,0.7,-65.16929213,0.43011904
5ec454e23d68ea32ee554d12,29,0,2024-02-28T14:41:34.944Z,french_339.wav,0,pull,630,38,4,5,Français,f,8,0.8,-43.18579065,0.35215598
5ec454e23d68ea32ee554d12,29,0,2024-02-28T14:41:34.944Z,french_339.wav,0,pull,630,38,4,5,Français,f,9,0.9,25.69839136,0.10684683
5ec454e23d68ea32ee554d12,29,0,2024-02-28T14:41:34.944Z,french_339.wav,0,pull,630,38,4,5,Français,f,10,1.0,84.15479884,0.15211102
5ec454e23d68ea32ee554d12,29,0,2024-02-28T14:41:34.944Z,french_339.wav,0,pull,630,38,4,5,Français,f,11,1.1,10.06988607,1.20317356
5ec454e23d68ea32ee554d12,29,0,2024-02-28T14:41:34.944Z,french_339.wav,0,pull,630,38,4,5,Français,f,12,1.14141667,43.816716,0.84876333
5ec454e23d68ea32ee554d12,30,0,2024-02-28T14:41:34.944Z,french_343.wav,0,poule,263,38,4,5,Français,f,0,0.0,55.30820306,1.58034267
5ec454e23d68ea32ee554d12,30,0,2024-02-28T14:41:34.944Z,french_343.wav,0,poule,263,38,4,5,Français,f,1,0.1,-11.48156173,1.0596038
5ec454e23d68ea32ee554d12,30,0,2024-02-28T14:41:34.944Z,french_343.wav,0,poule,263,38,4,5,Français,f,2,0.2,-61.33934281,1.28163155
5ec454e23d68ea32ee554d12,30,0,2024-02-28T14:41:34.944Z,french_343.wav,0,poule,263,38,4,5,Français,f,3,0.3,-78.79796184,0.20032202
5ec454e23d68ea32ee554d12,30,0,2024-02-28T14:41:34.944Z,french_343.wav,0,poule,263,38,4,5,Français,f,4,0.4,-3.55277636,1.05316587
5ec454e23d68ea32ee554d12,30,0,2024-02-28T14:41:34.944Z,french_343.wav,0,poule,263,38,4,5,Français,f,5,0.5,40.8675343,0.79348198
5ec454e23d68ea32ee554d12,30,0,2024-02-28T14:41:34.944Z,french_343.wav,0,poule,263,38,4,5,Français,f,6,0.6,88.78635161,0.11297715
5ec454e23d68ea32ee554d12,30,0,2024-02-28T14:41:34.944Z,french_343.wav,0,poule,263,38,4,5,Français,f,7,0.7,-70.07472114,1.23835329
5ec454e23d68ea32ee554d12,30,0,2024-02-28T14:41:34.944Z,french_343.wav,0,poule,263,38,4,5,Français,f,8,0.8,-79.01069817,1.37036254
5ec454e23d68ea32ee554d12,30,0,2024-02-28T14:41:34.944Z,french_343.wav,0,poule,263,38,4,5,Français,f,9,0.9,-38.36075722,1.08523433
5ec454e23d68ea32ee554d12,30,0,2024-02-28T14:41:34.944Z,french_343.wav,0,poule,263,38,4,5,Français,f,10,1.0,-74.7385536,0.49176562
5ec454e23d68ea32ee554d12,30,0,2024-02-28T14:41:34.944Z,french_343.wav,0,poule,263,38,4,5,Français,f,11,1.1,67.32009961,1.89620137
5ec454e23d68ea32ee554d12,30,0,2024-02-28T14:41:34.944Z,french_343.wav,0,poule,263,38,4,5,Français,f,12,1.14141667,18.80940086,0.66544547
5ec454e23d68ea32ee554d12,31,0,2024-02-28T14:41:34.944Z,french_945.wav,0,pull,470,38,4,5,Français,f,0,0.0,-58.28277896,0.8421425
5ec454e23d68ea32ee554d12,31,0,2024-02-28T14:41:34.944Z,french_945.wav,0,pull,470,38,4,5,Français,f,1,0.1,27.14985146,1.1142144
5ec454e23d68ea32ee554d12,31,0,2024-02-28T14:41:34.944Z,french_945.wav,0,pull,470,38,4,5,Français,f,2,0.2,94.7720972,0.32042823
5ec454e23d68ea32ee554d12,31,0,2024-02-28T14:41:34.944Z,french_945.wav,0,pull,470,38,4,5,Français,f,3,0.3,-42.41115059,0.61933591
5ec454e23d68ea32ee554d12,31,0,2024-02-28T14:41:34.944Z,french_945.wav,0,pull,470,38,4,5,Français,f,4,0.4,46.08048688,1.24952748
5ec454e23d68ea32ee554d12,31,0,2024-02-28T14:41:34.944Z,french_945.wav,0,pull,470,38,4,5,Français,f,5,0.5,-33.77336262,0.88755445
5ec454e23d68ea32ee554d12,31,0,2024-02-28T14:41:34.944Z,french_945.wav,0,pull,470,38,4,5,Français,f,6,0.6,-35.16914873,1.04604302
5ec454e23d68ea32ee554d12,31,0,2024-02-28T14:41:34.944Z,french_945.wav,0,pull,470,38,4,5,Français,f,7,0.7,-11.94165971,0.17861538
5ec454e23d68ea32ee554d12,31,0,2024-02-28T14:41:34.944Z,french_945.wav,0,pull,470,38,4,5,Français,f,8,0.8,-20.31759637,1.00371171
5ec454e23d68ea32ee554d12,31,0,2024-02-28T14:41:34.944Z,french_945.wav,0,pull,470,38,4,5,Français,f,9,0.9,-53.92015861,0.12895237
5ec454e23d68ea32ee554d12,31,0,2024-02-28T14:41:34.944Z,french_945.wav,0,pull,470,38,4,5,Français,f,10,1.0,-72.61626973,0.96808113
5ec454e23d68ea32ee554d12,31,0,2024-02-28T14:41:34.944Z,french_945.wav,0,pull,470,38,4,5,Français,f,11,1.1,40.14826696,0.46056741
5ec454e23d68ea32ee554d12,31,0,2024-02-28T14:41:34.944Z,french_945.wav,0,pull,470,38,4,5,Français,f,12,1.14141667,-59.3404278,0.41198006
5ec454e23d68ea32ee554d12,32,0,2024-02-28T14:41:34.944Z,french_972.wav,0,poule,347,38,4,5,Français,f,0,0.0,-58.81822017,1.66981598
5ec454e23d68ea32ee554d12,32,0,2024-02-28T14:41:34.944Z,french_972.wav,0,poule,347,38,4,5,Français,f,1,0.1,34.2814858,0.83771232
5ec454e23d68ea32ee554d12,32,0,2024-02-28T14:41:34.944Z,french_972.wav,0,poule,347,38,4,5,Français,f,2,0.2,43.99607496,1.84031443
5ec454e23d68ea32ee554d12,32,0,2024-02-28T14:41:34.944Z,french_972.wav,0,poule,347,38,4,5,Français,f,3,0.3,33.10738459,0.59134414
5ec454e23d68ea32ee554d12,32,0,2024-02-28T14:41:34.944Z,french_972.wav,0,poule,347,38,4,5,Français,f,4,0.4,97.56823967,0.79653586
5ec454e23d68ea32ee554d12,32,0,2024-02-28T14:41:34.944Z,french_972.wav,0,poule,347,38,4,5,Français,f,5,0.5,55.48509594,0.79909451
5ec454e23d68ea32ee554d12,32,0,2024-02-28T14:41:34.944Z,french_972.wav,0,poule,347,38,4,5,Français,f,6,0.6,8.26795873,0.62568008
5ec454e23d68ea32ee554d12,32,0,2024-02-28T14:41:34.944Z,french_972.wav,0,poule,347,38,4,5,Français,f,7,0.7,-94.62638325,1.95315118
5ec454e23d68ea32ee554d12,32,0,2024-02-28T14:41:34.944Z,french_972.wav,0,poule,347,38,4,5,Français,f,8,0.8,-5.39482949,1.30361038
5ec454e23d68ea32ee554d12,32,0,2024-02-28T14:41:34.944Z,french_972.wav,0,poule,347,38,4,5,Français,f,9,0.9,86.45351621,1.20040606
5ec454e23d68ea32ee554d12,32,0,2024-02-28T14:41:34.944Z,french_972.wav,0,poule,347,38,4,5,Français,f,10,1.0,5.06049595,1.77234817
5ec454e23d68ea32ee554d12,32,0,2024-02-28T14:41:34.944Z,french_972.wav,0,poule,347,38,4,5,Français,f,11,1.1,53.29420755,0.02841743
5ec454e23d68ea32ee554d12,32,0,2024-02-28T14:41:34.944Z,french_972.wav,0,poule,347,38,4,5,Français,f,12,1.14141667,35.21157931,0.93331201
5ec454e23d68ea32ee554d12,33,0,2024-02-28T14:41:34.944Z,french_682.wav,0,poule,690,38,4,5,Français,f,0,0.0,-49.14718886,0.39494833
5ec454e23d68ea32ee554d12,33,0,2024-02-28T14:41:34.944Z,french_682.wav,0,poule,690,38,4,5,Français,f,1,0.1,-40.83830255,1.11469071
5ec454e23d68ea32ee554d12,33,0,2024-02-28T14:41:34.944Z,french_682.wav,0,poule,690,38,4,5,Français,f,2,0.2,-50.11270538,1.45079191
5ec454e23d68ea32ee554d12,33,0,2024-02-28T14:41:34.944Z,french_682.wav,0,poule,690,38,4,5,Français,f,3,0.3,-9.39281425,1.42143537
5ec454e23d68ea32ee554d12,33,0,2024-02-28T14:41:34.944Z,french_682.wav,0,poule,690,38,4,5,Français,f,4,0.4,32.70333526,0.63727406
5ec454e23d68ea32ee554d12,33,0,2024-02-28T14:41:34.944Z,french_682.wav,0,poule,690,38,4,5,Français,f,5,0.5,30.26185855,1.95529652
5ec454e23d68ea32ee554d12,33,0,2024-02-28T14:41:34.944Z,french_682.wav,0,poule,690,38,4,5,Français,f,6,0.6,50.24643648,1.27379672
5ec454e23d68ea32ee554d12,33,0,2024-02-28T14:41:34.944Z,french_682.wav,0,poule,690,38,4,5,Français,f,7,0.7,20.1372188,0.99071874
5ec454e23d68ea32ee554d12,33,0,2024-02-28T14:41:34.944Z,french_682.wav,0,poule,690,38,4,5,Français,f,8,0.8,8.99982871,1.53456964
5ec454e23d68ea32ee554d12,33,0,2024-02-28T14:41:34.944Z,french_682.wav,0,poule,690,38,4,5,Français,f,9,0.9,-50.5310939,0.13541683
5ec454e23d68ea32ee554d12,33,0,2024-02-28T14:41:34.944Z,french_682.wav,0,poule,690,38,4,5,Français,f,10,1.0,43.59766176,0.68811152
5ec454e23d68ea32ee554d12,33,0,2024-02-28T14:41:34.944Z,french_682.wav,0,poule,690,38,4,5,Français,f,11,1.1,9.63593845,1.74660873
5ec454e23d68ea32ee554d12,33,0,2024-02-28T14:41:34.944Z,french_682.wav,0,poule,690,38,4,5,Français,f,12,1.14141667,65.38682914,1.18702659
5ec454e23d68ea32ee554d12,34,0,2024-02-28T14:41:34.944Z,french_488.wav,0,poule,437,38,4,5,Français,f,0,0.0,14.8644182,0.74415715
5ec454e23d68ea32ee554d12,34,0,2024-02-28T14:41:34.944Z,french_488.wav,0,poule,437,38,4,5,Français,f,1,0.1,-7.483668,0.55500456
5ec454e23d68ea32ee554d12,34,0,2024-02-28T14:41:34.944Z,french_488.wav,0,poule,437,38,4,5,Français,f,2,0.2,-83.60221028,1.6557028
5ec454e23d68ea32ee554d12,34,0,2024-02-28T14:41:34.944Z,french_488.wav,0,poule,437,38,4,5,Français,f,3,0.3,-35.90165376,1.12101174
5ec454e23d68ea32ee554d12,34,0,2024-02-28T14:41:34.944Z,french_488.wav,0,poule,437,38,4,5,Français,f,4,0.4,88.10278494,0.1765859
5ec454e23d68ea32ee554d12,34,0,2024-02-28T14:41:34.944Z,french_488.wav,0,poule,437,38,4,5,Français,f,5,0.5,-99.58307262,1.5746524
5ec454e23d68ea32ee554d12,34,0,2024-02-28T14:41:34.944Z,french_488.wav,0,poule,437,38,4,5,Français,f,6,0.6,-38.42476237,0.49482731
5ec454e23d68ea32ee554d12,34,0,2024-02-28T14:41:34.944Z,french_488.wav,0,poule,437,38,4,5,Français,f,7,0.7,-6.87639591,0.45509974
5ec454e23d68ea32ee554d12,34,0,2024-02-28T14:41:34.944Z,french_488.wav,0,poule,437,38,4,5,Français,f,8,0.8,-44.17721964,0.28182222
5ec454e23d68ea32ee554d12,34,0,2024-02-28T14:41:34.944Z,french_488.wav,0,poule,437,38,4,5,Français,f,9,0.9,56.25120406,1.54827803
5ec454e23d68ea32ee554d12,34,0,2024-02-28T14:41:34.944Z,french_488.wav,0,poule,437,38,4,5,Français,f,10,1.0,14.79565294,1.58335766
5ec454e23d68ea32ee554d12,34,0,2024-02-28T14:41:34.944Z,french_488.wav,0,poule,437,38,4,5,Français,f,11,1.1,-5.40433378,0.88938806
5ec454e23d68ea32ee554d12,34,0,2024-02-28T14:41:34.944Z,french_488.wav,0,poule,437,38,4,5,Français,f,12,1.14141667,27.01805303,1.25409387
5ec454e23d68ea32ee554d12,35,0,2024-02-28T14:41:34.944Z,french_653.wav,0,pull,648,38,4,5,Français,f,0,0.0,-16.6650237,0.6514058
5ec454e23d68ea32ee554d12,35,0,2024-02-28T14:41:34.944Z,french_653.wav,0,pull,648,38,4,5,Français,f,1,0.1,-8.50735594,0.80912236
5ec454e23d68ea32ee554d12,35,0,2024-02-28T14:41:34.944Z,french_653.wav,0,pull,648,38,4,5,Français,f,2,0.2,59.74245416,1.05565194
5ec454e23d68ea32ee554d12,35,0,2024-02-28T14:41:34.944Z,french_653.wav,0,pull,648,38,4,5,Français,f,3,0.3,-64.86263645,1.59567426
5ec454e23d68ea32ee554d12,35,0,2024-02-28T14:41:34.944Z,french_653.wav,0,pull,648,38,4,5,Français,f,4,0.4,-59.72264617,1.49585524
5ec454e23d68ea32ee554d12,35,0,2024-02-28T14:41:34.944Z,french_653.wav,0,pull,648,38,4,5,Français,f,5,0.5,-38.42409471,0.43064882
5ec454e23d68ea32ee554d12,35,0,2024-02-28T14:41:34.944Z,french_653.wav,0,pull,648,38,4,5,Français,f,6,0.6,-66.71222224,0.29035008
5ec454e23d68ea32ee554d12,35,0,2024-02-28T14:41:34.944Z,french_653.wav,0,pull,648,38,4,5,Français,f,7,0.7,-1.64153682,1.70426818
5ec454e23d68ea32ee554d12,35,0,2024-02-28T14:41:34.944Z,french_653.wav,0,pull,648,38,4,5,Français,f,8,0.8,-58.84034728,0.82836214
5ec454e23d68ea32ee554d12,35,0,2024-02-28T14:41:34.944Z,french_653.wav,0,pull,648,38,4,5,Français,f,9,0.9,24.2211282,0.71951004
5ec454e23d68ea32ee554d12,35,0,2024-02-28T14:41:34.944Z,french_653.wav,0,pull,648,38,4,5,Français,f,10,1.0,2.29759393,0.36282723
5ec454e23d68ea32ee554d12,35,0,2024-02-28T14:41:34.944Z,french_653.wav,0,pull,648,38,4,5,Français,f,11,1.1,-18.37494867,0.47770594
5ec454e23d68ea32ee554d12,35,0,2024-02-28T14:41:34.944Z,french_653.wav,0,pull,648,38,4,5,Français,f,12,1.14141667,-14.47262819,1.04977426
5ec454e23d68ea32ee554d12,36,0,2024-02-28T14:41:34.944Z,french_541.wav,0,poule,421,38,4,5,Français,f,0,0.0,2.74676595,1.22388571
5ec454e23d68ea32ee554d12,36,0,2024-02-28T14:41:34.944Z,french_541.wav,0,poule,421,38,4,5,Français,f,1,0.1,83.23215627,0.59489091
5ec454e23d68ea32ee554d12,36,0,2024-02-28T14:41:34.944Z,french_541.wav,0,poule,421,38,4,5,Français,f,2,0.2,-19.5310813,0.0302362
5ec454e23d68ea32ee554d12,36,0,2024-02-28T14:41:34.944Z,french_541.wav,0,poule,421,38,4,5,Français,f,3,0.3,-37.06653527,1.44440055
5ec454e23d68ea32ee554d12,36,0,2024-02-28T14:41:34.944Z,french_541.wav,0,poule,421,38,4,5,Français,f,4,0.4,10.34316696,0.76671296
5ec454e23d68ea32ee554d12,36,0,2024-02-28T14:41:34.944Z,french_541.wav,0,poule,421,38,4,5,Français,f,5,0.5,-44.77981601,1.21683481
5ec454e23d68ea32ee554d12,36,0,2024-02-28T14:41:34.944Z,french_541.wav,0,poule,421,38,4,5,Français,f,6,0.6,-15.46722486,0.28594328
5ec454e23d68ea32ee554d12,36,0,2024-02-28T14:41:34.944Z,french_541.wav,0,poule,421,38,4,5,Français,f,7,0.7,-30.03274479,1.70659675
5ec454e23d68ea32ee554d12,36,0,2024-02-28T14:41:34.944Z,french_541.wav,0,poule,421,38,4,5,Français,f,8,0.8,32.22050065,0.5056851
5ec454e23d68ea32ee554d12,36,0,2024-02-28T14:41:34.944Z,french_541.wav,0,poule,421,38,4,5,Français,f,9,0.9,-28.45977879,1.08036446
5ec454e23d68ea32ee554d12,36,0,2024-02-28T14:41:34.944Z,french_541.wav,0,poule,421,38,4,5,Français,f,10,1.0,-97.18959003,1.82748837
5ec454e23d68ea32ee554d12,36,0,2024-02-28T14:41:34.944Z,french_541.wav,0,poule,421,38,4,5,Français,f,11,1.1,46.93949027,1.15452478
5ec454e23d68ea32ee554d12,36,0,2024-02-28T14:41:34.944Z,french_541.wav,0,poule,421,38,4,5,Français,f,12,1.14141667,51.98067408,0.582253
5ec454e23d68ea32ee554d12,37,0,2024-02-28T14:41:34.944Z,french_135.wav,0,poule,388,38,4,5,Français,f,0,0.0,-4.48551791,1.91514039
5ec454e23d68ea32ee554d12,37,0,2024-02-28T14:41:34.944Z,french_135.wav,0,poule,388,38,4,5,Français,f,1,0.1,-89.39520369,1.98977227
5ec454e23d68ea32ee554d12,37,0,2024-02-28T14:41:34.944Z,french_135.wav,0,poule,388,38,4,5,Français,f,2,0.2,-62.25671273,0.11754105
5ec454e23d68ea32ee554d12,37,0,2024-02-28T14:41:34.944Z,french_135.wav,0,poule,388,38,4,5,Français,f,3,0.3,7.71889733,0.48283113
5ec454e23d68ea32ee554d12,37,0,2024-02-28T14:41:34.944Z,french_135.wav,0,poule,388,38,4,5,Français,f,4,0.4,-11.13544352,1.69468672
5ec454e23d68ea32ee554d12,37,0,2024-02-28T14:41:34.944Z,french_135.wav,0,poule,388,38,4,5,Français,f,5,0.5,8.86500482,1.03348797
5ec454e23d68ea32ee554d12,37,0,2024-02-28T14:41:34.944Z,french_135.wav,0,poule,388,38,4,5,Français,f,6,0.6,40.83334399,1.01666511
5ec454e23d68ea32ee554d12,37,0,2024-02-28T14:41:34.944Z,french_135.wav,0,poule,388,38,4,5,Français,f,7,0.7,98.23692367,1.4427273
5ec454e23d68ea32ee554d12,37,0,2024-02-28T14:41:34.944Z,french_135.wav,0,poule,388,38,4,5,Français,f,8,0.8,31.56709052,0.64151379
5ec454e23d68ea32ee554d12,37,0,2024-02-28T14:41:34.944Z,french_135.wav,0,poule,388,38,4,5,Français,f,9,0.9,-42.21440335,1.53600092
5ec454e23d68ea32ee554d12,37,0,2024-02-28T14:41:34.944Z,french_135.wav,0,poule,388,38,4,5,Français,f,10,1.0,53.89223247,1.41516669
5ec454e23d68ea32ee554d12,37,0,2024-02-28T14:41:34.944Z,french_135.wav,0,poule,388,38,4,5,Français,f,11,1.1,-14.26740384,0.42854653
5ec454e23d68ea32ee554d12,37,0,2024-02-28T14:41:34.944Z,french_135.wav,0,poule,388,38,4,5,Français,f,12,1.14141667,8.8582073,1.07609304
5ec454e23d68ea32ee554d12,38,0,2024-02-28T14:41:34.944Z,french_466.wav,0,poule,1127,38,4,5,Français,f,0,0.0,-23.27991826,1.52804132
5ec454e23d68ea32ee554d12,38,0,2024-02-28T14:41:34.944Z,french_466.wav,0,poule,1127,38,4,5,Français,f,1,0.1,97.23850922,0.01047206
5ec454e23d68ea32ee554d12,38,0,2024-02-28T14:41:34.944Z,french_466.wav,0,poule,1127,38,4,5,Français,f,2,0.2,-96.9465149,1.6544422
5ec454e23d68ea32ee554d12,38,0,2024-02-28T14:41:34.944Z,french_466.wav,0,poule,1127,38,4,5,Français,f,3,0.3,-86.96925433,1.82991551
5ec454e23d68ea32ee554d12,38,0,2024-02-28T14:41:34.944Z,french_466.wav,0,poule,1127,38,4,5,Français,f,4,0.4,2.85783603,0.86899364
5ec454e23d68ea32ee554d12,38,0,2024-02-28T14:41:34.944Z,french_466.wav,0,poule,1127,38,4,5,Français,f,5,0.5,95.91347723,1.25331213
5ec454e23d68ea32ee554d12,38,0,2024-02-28T14:41:34.944Z,french_466.wav,0,poule,1127,38,4,5,Français,f,6,0.6,-63.35172498,1.68509567
5ec454e23d68ea32ee554d12,38,0,2024-02-28T14:41:34.944Z,french_466.wav,0,poule,1127,38,4,5,Français,f,7,0.7,-25.95383213,1.20636117
5ec454e23d68ea32ee554d12,38,0,2024-02-28T14:41:34.944Z,french_466.wav,0,poule,1127,38,4,5,Français,f,8,0.8,-52.59375309,0.84252752
5ec454e23d68ea32ee554d12,38,0,2024-02-28T14:41:34.944Z,french_466.wav,0,poule,1127,38,4,5,Français,f,9,0.9,-70.79178645,1.91154977
5ec454e23d68ea32ee554d12,38,0,2024-02-28T14:41:34.944Z,french_466.wav,0,poule,1127,38,4,5,Français,f,10,1.0,-29.48964846,0.45592683
5ec454e23d68ea32ee554d12,38,0,2024-02-28T14:41:34.944Z,french_466.wav,0,poule,1127,38,4,5,Français,f,11,1.1,-52.94204961,0.35898479
5ec454e23d68ea32ee554d12,38,0,2024-02-28T14:41:34.944Z,french_466.wav,0,poule,1127,38,4,5,Français,f,12,1.14141667,46.57113475,1.03194217
5ec454e23d68ea32ee554d12,39,0,2024-02-28T14:41:34.944Z,french_677.wav,0,poule,565,38,4,5,Français,f,0,0.0,-81.75795088,1.06306623
5ec454e23d68ea32ee554d12,39,0,2024-02-28T14:41:34.944Z,french_677.wav,0,poule,565,38,4,5,Français,f,1,0.1,54.46173738,0.74930959
5ec454e23d68ea32ee554d12,39,0,2024-02-28T14:41:34.944Z,french_677.wav,0,poule,565,38,4,5,Français,f,2,0.2,6.69922136,0.04838158
5ec454e23d68ea32ee554d12,39,0,2024-02-28T14:41:34.944Z,french_677.wav,0,poule,565,38,4,5,Français,f,3,0.3,67.41624154,0.22301941
5ec454e23d68ea32ee554d12,39,0,2024-02-28T14:41:34.944Z,french_677.wav,0,poule,565,38,4,5,Français,f,4,0.4,66.62029781,0.92539705
5ec454e23d68ea32ee554d12,39,0,2024-02-28T14:41:34.944Z,french_677.wav,0,poule,565,38,4,5,Français,f,5,0.5,-52.78569663,0.35060842
5ec454e23d68ea32ee554d12,39,0,2024-02-28T14:41:34.944Z,french_677.wav,0,poule,565,38,4,5,Français,f,6,0.6,-28.99630628,1.97850281
5ec454e23d68ea32ee554d12,39,0,2024-02-28T14:41:34.944Z,french_677.wav,0,poule,565,38,4,5,Français,f,7,0.7,-33.01266758,0.87949955
5ec454e23d68ea32ee554d12,39,0,2024-02-28T14:41:34.944Z,french_677.wav,0,poule,565,38,4,5,Français,f,8,0.8,50.32019814,1.56889624
5ec454e23d68ea32ee554d12,39,0,2024-02-28T14:41:34.944Z,french_677.wav,0,poule,565,38,4,5,Français,f,9,0.9,70.51424077,1.0179866
5ec454e23d68ea32ee554d12,39,0,2024-02-28T14:41:34.944Z,french_677.wav,0,poule,565,38,4,5,Français,f,10,1.0,80.64360457,0.88988566
5ec454e23d68ea32ee554d12,39,0,2024-02-28T14:41:34.944Z,french_677.wav,0,poule,565,38,4,5,Français,f,11,1.1,31.37722787,0.12807465
5ec454e23d68ea32ee554d12,39,0,2024-02-28T14:41:34.944Z,french_677.wav,0,poule,565,38,4,5,Français,f,12,1.14141667,28.37748626,0.82843843
5ec454e23d68ea32ee554d12,40,0,2024-02-28T14:41:34.944Z,french_243.wav,0,pull,571,38,4,5,Français,f,0,0.0,17.25108473,1.25365904
5ec454e23d68ea32ee554d12,40,0,2024-02-28T14:41:34.944Z,french_243.wav,0,pull,571,38,4,5,Français,f,1,0.1,-20.33347648,1.14169819
5ec454e23d68ea32ee554d12,40,0,2024-02-28T14:41:34.944Z,french_243.wav,0,pull,571,38,4,5,Français,f,2,0.2,8.25978245,1.44065481
5ec454e23d68ea32ee554d12,40,0,2024-02-28T14:41:34.944Z,french_243.wav,0,pull,571,38,4,5,Français,f,3,0.3,14.67718893,0.73865411
5ec454e23d68ea32ee554d12,40,0,2024-02-28T14:41:34.944Z,french_243.wav,0,pull,571,38,4,5,Français,f,4,0.4,3.62309164,0.87063922
5ec454e23d68ea32ee554d12,40,0,2024-02-28T14:41:34.944Z,french_243.wav,0,pull,571,38,4,5,Français,f,5,0.5,-26.91202001,0.18666153
5ec454e23d68ea32ee554d12,40,0,2024-02-28T14:41:34.944Z,french_243.wav,0,pull,571,38,4,5,Français,f,6,0.6,1.76117794,0.86837268
5ec454e23d68ea32ee554d12,40,0,2024-02-28T14:41:34.944Z,french_243.wav,0,pull,571,38,4,5,Français,f,7,0.7,82.78931534,0.87403497
5ec454e23d68ea32ee554d12,40,0,2024-02-28T14:41:34.944Z,french_243.wav,0,pull,571,38,4,5,Français,f,8,0.8,-59.58469405,1.44611176
5ec454e23d68ea32ee554d12,40,0,2024-02-28T14:41:34.944Z,french_243.wav,0,pull,571,38,4,5,Français,f,9,0.9,95.45283724,1.80188065
5ec454e23d68ea32ee554d12,40,0,2024-02-28T14:41:34.944Z,french_243.wav,0,pull,571,38,4,5,Français,f,10,1.0,-70.387836,0.07283074
5ec454e23d68ea32ee554d12,40,0,2024-02-28T14:41:34.944Z,french_243.wav,0,pull,571,38,4,5,Français,f,11,1.1,-1.62586928,0.30234458
5ec454e23d68ea32ee554d12,40,0,2024-02-28T14:41:34.944Z,french_243.wav,0,pull,571,38,4,5,Français,f,12,1.14141667,33.4744353,1.72190596
5ec454e23d68ea32ee554d12,41,0,2024-02-28T14:41:34.944Z,french_553.wav,0,poule,439,38,4,5,Français,f,0,0.0,57.11997381,0.90900436
5ec454e23d68ea32ee554d12,41,0,2024-02-28T14:41:34.944Z,french_553.wav,0,poule,439,38,4,5,Français,f,1,0.1,-32.53722502,1.02881702
5ec454e23d68ea32ee554d12,41,0,2024-02-28T14:41:34.944Z,french_553.wav,0,poule,439,38,4,5,Français,f,2,0.2,-87.28109772,1.91577474
5ec454e23d68ea32ee554d12,41,0,2024-02-28T14:41:34.944Z,french_553.wav,0,poule,439,38,4,5,Français,f,3,0.3,-27.51150216,1.84689949
5ec454e23d68ea32ee554d12,41,0,2024-02-28T14:41:34.944Z,french_553.wav,0,poule,439,38,4,5,Français,f,4,0.4,82.51849705,0.82658903
5ec454e23d68ea32ee554d12,41,0,2024-02-28T14:41:34.944Z,french_553.wav,0,poule,439,38,4,5,Français,f,5,0.5,-2.05823162,0.12969693
5ec454e23d68ea32ee554d12,41,0,2024-02-28T14:41:34.944Z,french_553.wav,0,poule,439,38,4,5,Français,f,6,0.6,87.22176329,0.8683285
5ec454e23d68ea32ee554d12,41,0,2024-02-28T14:41:34.944Z,french_553.wav,0,poule,439,38,4,5,Français,f,7,0.7,21.26654891,0.55394795
5ec454e23d68ea32ee554d12,41,0,2024-02-28T14:41:34.944Z,french_553.wav,0,poule,439,38,4,5,Français,f,8,0.8,5.0205633,0.61832745
5ec454e23d68ea32ee554d12,41,0,2024-02-28T14:41:34.944Z,french_553.wav,0,poule,439,38,4,5,Français,f,9,0.9,-15.12387939,0.27087234
5ec454e23d68ea32ee554d12,41,0,2024-02-28T14:41:34.944Z,french_553.wav,0,poule,439,38,4,5,Français,f,10,1.0,-30.58863074,0.73142715
5ec454e23d68ea32ee554d12,41,0,2024-02-28T14:41:34.944Z,french_553.wav,0,poule,439,38,4,5,Français,f,11,1.1,-22.19258408,1.63938035
5ec454e23d68ea32ee554d12,41,0,2024-02-28T14:41:34.944Z,french_553.wav,0,poule,439,38,4,5,Français,f,12,1.14141667,11.14114277,0.86419781
5ec454e23d68ea32ee554d12,42,0,2024-02-28T14:41:34.944Z,french_740.wav,0,poule,488,38,4,5,Français,f,0,0.0,-23.8561275,1.38106788
5ec454e23d68ea32ee554d12,42,0,2024-02-28T14:41:34.944Z,french_740.wav,0,poule,488,38,4,5,Français,f,1,0.1,12.41197017,0.96449807
5ec454e23d68ea32ee554d12,42,0,2024-02-28T14:41:34.944Z,french_740.wav,0,poule,488,38,4,5,Français,f,2,0.2,-75.22373784,1.81317808
5ec454e23d68ea32ee554d12,42,0,2024-02-28T14:41:34.944Z,french_740.wav,0,poule,488,38,4,5,Français,f,3,0.3,13.95432459,0.48903687
5ec454e23d68ea32ee554d12,42,0,2024-02-28T14:41:34.944Z,french_740.wav,0,poule,488,38,4,5,Français,f,4,0.4,86.43925379,0.89209498
5ec454e23d68ea32ee554d12,42,0,2024-02-28T14:41:34.944Z,french_740.wav,0,poule,488,38,4,5,Français,f,5,0.5,-59.06853257,0.79820054
5ec454e23d68ea32ee554d12,42,0,2024-02-28T14:41:34.944Z,french_740.wav,0,poule,488,38,4,5,Français,f,6,0.6,8.7812543,1.20695925
5ec454e23d68ea32ee554d12,42,0,2024-02-28T14:41:34.944Z,french_740.wav,0,poule,488,38,4,5,Français,f,7,0.7,-81.4658243,0.55003693
5ec454e23d68ea32ee554d12,42,0,2024-02-28T14:41:34.944Z,french_740.wav,0,poule,488,38,4,5,Français,f,8,0.8,-37.53161999,0.44955963
5ec454e23d68ea32ee554d12,42,0,2024-02-28T14:41:34.944Z,french_740.wav,0,poule,488,38,4,5,Français,f,9,0.9,-71.6710365,1.78000651
5ec454e23d68ea32ee554d12,42,0,2024-02-28T14:41:34.944Z,french_740.wav,0,poule,488,38,4,5,Français,f,10,1.0,31.54551497,1.38553911
5ec454e23d68ea32ee554d12,42,0,2024-02-28T14:41:34.944Z,french_740.wav,0,poule,488,38,4,5,Français,f,11,1.1,73.9548309,0.82064893
5ec454e23d68ea32ee554d12,42,0,2024-02-28T14:41:34.944Z,french_740.wav,0,poule,488,38,4,5,Français,f,12,1.14141667,48.2786376,1.09253076
5ec454e23d68ea32ee554d12,43,0,2024-02-28T14:41:34.944Z,french_27.wav,0,pull,1289,38,4,5,Français,f,0,0.0,-1.50377204,0.3104196
5ec454e23d68ea32ee554d12,43,0,2024-02-28T14:41:34.944Z,french_27.wav,0,pull,1289,38,4,5,Français,f,1,0.1,7.47875837,0.09567804
5ec454e23d68ea32ee554d12,43,0,2024-02-28T14:41:34.944Z,french_27.wav,0,pull,1289,38,4,5,Français,f,2,0.2,-50.14128102,0.85087588
5ec454e23d68ea32ee554d12,43,0,2024-02-28T14:41:34.944Z,french_27.wav,0,pull,1289,38,4,5,Français,f,3,0.3,-88.39961719,1.45265647
5ec454e23d68ea32ee554d12,43,0,2024-02-28T14:41:34.944Z,french_27.wav,0,pull,1289,38,4,5,Français,f,4,0.4,-49.33965182,1.34800208
5ec454e23d68ea32ee554d12,43,0,2024-02-28T14:41:34.944Z,french_27.wav,0,pull,1289,38,4,5,Français,f,5,0.5,-68.54669644,1.04395523
5ec454e23d68ea32ee554d12,43,0,2024-02-28T14:41:34.944Z,french_27.wav,0,pull,1289,38,4,5,Français,f,6,0.6,-12.90156587,1.29844977
5ec454e23d68ea32ee554d12,43,0,2024-02-28T14:41:34.944Z,french_27.wav,0,pull,1289,38,4,5,Français,f,7,0.7,70.78738425,0.13763237
5ec454e23d68ea32ee554d12,43,0,2024-02-28T14:41:34.944Z,french_27.wav,0,pull,1289,38,4,5,Français,f,8,0.8,-85.06905441,1.23467997
5ec454e23d68ea32ee554d12,43,0,2024-02-28T14:41:34.944Z,french_27.wav,0,pull,1289,38,4,5,Français,f,9,0.9,-13.50869681,0.09749829
5ec454e23d68ea32ee554d12,43,0,2024-02-28T14:41:34.944Z,french_27.wav,0,pull,1289,38,4,5,Français,f,10,1.0,34.30290891,0.14969302
5ec454e23d68ea32ee554d12,43,0,2024-02-28T14:41:34.944Z,french_27.wav,0,pull,1289,38,4,5,Français,f,11,1.1,-41.23505264,0.43290894
5ec454e23d68ea32ee554d12,43,0,2024-02-28T14:41:34.944Z,french_27.wav,0,pull,1289,38,4,5,Français,f,12,1.14141667,12.46163778,0.76657439
5ec454e23d68ea32ee554d12,44,0,2024-02-28T14:41:34.944Z,french_929.wav,0,poule,448,38,4,5,Français,f,0,0.0,0.19628559,1.2735275
5ec454e23d68ea32ee554d12,44,0,2024-02-28T14:41:34.944Z,french_929.wav,0,poule,448,38,4,5,Français,f,1,0.1,-65.19269942,1.04239801
5ec454e23d68ea32ee554d12,44,0,2024-02-28T14:41:34.944Z,french_929.wav,0,poule,448,38,4,5,Français,f,2,0.2,85.79365551,1.14016966
5ec454e23d68ea32ee554d12,44,0,2024-02-28T14:41:34.944Z,french_929.wav,0,poule,448,38,4,5,Français,f,3,0.3,-49.06561831,1.26076885
5ec454e23d68ea32ee554d12,44,0,2024-02-28T14:41:34.944Z,french_929.wav,0,poule,448,38,4,5,Français,f,4,0.4,-14.51529051,1.79864451
5ec454e23d68ea32ee554d12,44,0,2024-02-28T14:41:34.944Z,french_929.wav,0,poule,448,38,4,5,Français,f,5,0.5,-95.48834235,0.45349568
5ec454e23d68ea32ee554d12,44,0,2024-02-28T14:41:34.944Z,french_929.wav,0,poule,448,38,4,5,Français,f,6,0.6,-33.23898354,0.33561818
5ec454e23d68ea32ee554d12,44,0,2024-02-28T14:41:34.944Z,french_929.wav,0,poule,448,38,4,5,Français,f,7,0.7,41.75408234,0.17319501
5ec454e23d68ea32ee554d12,44,0,2024-02-28T14:41:34.944Z,french_929.wav,0,poule,448,38,4,5,Français,f,8,0.8,37.64227738,1.78715813
5ec454e23d68ea32ee554d12,44,0,2024-02-28T14:41:34.944Z,french_929.wav,0,poule,448,38,4,5,Français,f,9,0.9,-32.44919392,1.8240929
5ec454e23d68ea32ee554d12,44,0,2024-02-28T14:41:34.944Z,french_929.wav,0,poule,448,38,4,5,Français,f,10,1.0,89.54900566,1.61299985
5ec454e23d68ea32ee554d12,44,0,2024-02-28T14:41:34.944Z,french_929.wav,0,poule,448,38,4,5,Français,f,11,1.1,-65.51395412,1.74226988
5ec454e23d68ea32ee554d12,44,0,2024-02-28T14:41:34.944Z,french_929.wav,0,poule,448,38,4,5,Français,f,12,1.14141667,73.05695709,1.79803329
5ec454e23d68ea32ee554d12,45,0,2024-02-28T14:41:34.944Z,french_971.wav,0,poule,480,38,4,5,Français,f,0,0.0,-8.46883655,1.19544877
5ec454e23d68ea32ee554d12,45,0,2024-02-28T14:41:34.944Z,french_971.wav,0,poule,480,38,4,5,Français,f,1,0.1,-12.9534882,1.25532634
5ec454e23d68ea32ee554d12,45,0,2024-02-28T14:41:34.944Z,french_971.wav,0,poule,480,38,4,5,Français,f,2,0.2,62.91682525,0.84653747
5ec454e23d68ea32ee554d12,45,0,2024-02-28T14:41:34.944Z,french_971.wav,0,poule,480,38,4,5,Français,f,3,0.3,-60.44671384,1.79256296
5ec454e23d68ea32ee554d12,45,0,2024-02-28T14:41:34.944Z,french_971.wav,0,poule,480,38,4,5,Français,f,4,0.4,-50.83443349,0.89550305
5ec454e23d68ea32ee554d12,45,0,2024-02-28T14:41:34.944Z,french_971.wav,0,poule,480,38,4,5,Français,f,5,0.5,92.20051938,0.41767694
5ec454e23d68ea32ee554d12,45,0,2024-02-28T14:41:34.944Z,french_971.wav,0,poule,480,38,4,5,Français,f,6,0.6,17.63420524,0.61206963
5ec454e23d68ea32ee554d12,45,0,2024-02-28T14:41:34.944Z,french_971.wav,0,poule,480,38,4,5,Français,f,7,0.7,10.3493947,0.5938552
5ec454e23d68ea32ee554d12,45,0,2024-02-28T14:41:34.944Z,french_971.wav,0,poule,480,38,4,5,Français,f,8,0.8,-44.64530306,1.80141032
5ec454e23d68ea32ee554d12,45,0,2024-02-28T14:41:34.944Z,french_971.wav,0,poule,480,38,4,5,Français,f,9,0.9,-38.65867239,1.57257532
5ec454e23d68ea32ee554d12,45,0,2024-02-28T14:41:34.944Z,french_971.wav,0,poule,480,38,4,5,Français,f,10,1.0,72.80184957,0.31851781
5ec454e23d68ea32ee554d12,45,0,2024-02-28T14:41:34.944Z,french_971.wav,0,poule,480,38,4,5,Français,f,11,1.1,25.85210713,1.34401586
5ec454e23d68ea32ee554d12,45,0,2024-02-28T14:41:34.944Z,french_971.wav,0,poule,480,38,4,5,Français,f,12,1.14141667,2.09813812,0.85754184
5ec454e23d68ea32ee554d12,46,0,2024-02-28T14:41:34.944Z,french_524.wav,0,poule,747,38,4,5,Français,f,0,0.0,55.00709732,0.25824769
5ec454e23d68ea32ee554d12,46,0,2024-02-28T14:41:34.944Z,french_524.wav,0,poule,747,38,4,5,Français,f,1,0.1,-23.89661715,0.7249448
5ec454e23d68ea32ee554d12,46,0,2024-02-28T14:41:34.944Z,french_524.wav,0,poule,747,38,4,5,Français,f,2,0.2,-10.76576396,0.42763347
5ec454e23d68ea32ee554d12,46,0,2024-02-28T14:41:34.944Z,french_524.wav,0,poule,747,38,4,5,Français,f,3,0.3,-89.98073457,1.41980414
5ec454e23d68ea32ee554d12,46,0,2024-02-28T14:41:34.944Z,french_524.wav,0,poule,747,38,4,5,Français,f,4,0.4,90.47688198,1.5691433
5ec454e23d68ea32ee554d12,46,0,2024-02-28T14:41:34.944Z,french_524.wav,0,poule,747,38,4,5,Français,f,5,0.5,-26.69479883,0.22636254
5ec454e23d68ea32ee554d12,46,0,2024-02-28T14:41:34.944Z,french_524.wav,0,poule,747,38,4,5,Français,f,6,0.6,-13.51692626,1.34650289
5ec454e23d68ea32ee554d12,46,0,2024-02-28T14:41:34.944Z,french_524.wav,0,poule,747,38,4,5,Français,f,7,0.7,46.79530299,0.32537739
5ec454e23d68ea32ee554d12,46,0,2024-02-28T14:41:34.944Z,french_524.wav,0,poule,747,38,4,5,Français,f,8,0.8,46.57964201,1.48093397
5ec454e23d68ea32ee554d12,46,0,2024-02-28T14:41:34.944Z,french_524.wav,0,poule,747,38,4,5,Français,f,9,0.9,-91.36020491,0.90980305
5ec454e23d68ea32ee554d12,46,0,2024-02-28T14:41:34.944Z,french_524.wav,0,poule,747,38,4,5,Français,f,10,1.0,-81.359929,1.68039469
5ec454e23d68ea32ee554d12,46,0,2024-02-28T14:41:34.944Z,french_524.wav,0,poule,747,38,4,5,Français,f,11,1.1,91.07291396,0.19928147
5ec454e23d68ea32ee554d12,46,0,2024-02-28T14:41:34.944Z,french_524.wav,0,poule,747,38,4,5,Français,f,12,1.14141667,40.78169996,0.80241369
5ec454e23d68ea32ee554d12,47,0,2024-02-28T14:41:34.944Z,french_116.wav,0,poule,453,38,4,5,Français,f,0,0.0,-36.99991361,0.39103735
5ec454e23d68ea32ee554d12,47,0,2024-02-28T14:41:34.944Z,french_116.wav,0,poule,453,38,4,5,Français,f,1,0.1,-56.50097299,0.52639994
5ec454e23d68ea32ee554d12,47,0,2024-02-28T14:41:34.944Z,french_116.wav,0,poule,453,38,4,5,Français,f,2,0.2,-21.98377289,0.98743434
5ec454e23d68ea32ee554d12,47,0,2024-02-28T14:41:34.944Z,french_116.wav,0,poule,453,38,4,5,Français,f,3,0.3,-42.03621308,1.50732894
5ec454e23d68ea32ee554d12,47,0,2024-02-28T14:41:34.944Z,french_116.wav,0,poule,453,38,4,5,Français,f,4,0.4,-88.55190861,0.88822468
5ec454e23d68ea32ee554d12,47,0,2024-02-28T14:41:34.944Z,french_116.wav,0,poule,453,38,4,5,Français,f,5,0.5,-46.74535713,0.3631577
5ec454e23d68ea32ee554d12,47,0,2024-02-28T14:41:34.944Z,french_116.wav,0,poule,453,38,4,5,Français,f,6,0.6,39.6792949,0.09954352
5ec454e23d68ea32ee554d12,47,0,2024-02-28T14:41:34.944Z,french_116.wav,0,poule,453,38,4,5,Français,f,7,0.7,23.11771823,1.92445485
5ec454e23d68ea32ee554d12,47,0,2024-02-28T14:41:34.944Z,french_116.wav,0,poule,453,38,4,5,Français,f,8,0.8,-83.67169345,0.86818207
5ec454e23d68ea32ee554d12,47,0,2024-02-28T14:41:34.944Z,french_116.wav,0,poule,453,38,4,5,Français,f,9,0.9,-59.64205598,0.94464096
5ec454e23d68ea32ee554d12,47,0,2024-02-28T14:41:34.944Z,french_116.wav,0,poule,453,38,4,5,Français,f,10,1.0,83.70320104,1.65962345
5ec454e23d68ea32ee554d12,47,0,2024-02-28T14:41:34.944Z,french_116.wav,0,poule,453,38,4,5,Français,f,11,1.1,-55.10526953,0.87989703
5ec454e23d68ea32ee554d12,47,0,2024-02-28T14:41:34.944Z,french_116.wav,0,poule,453,38,4,5,Français,f,12,1.14141667,83.73638058,1.38818871
5ec454e23d68ea32ee554d12,48,0,2024-02-28T14:41:34.944Z,french_549.wav,0,poule,393,38,4,5,Français,f,0,0.0,-75.20654592,1.24662129
5ec454e23d68ea32ee554d12,48,0,2024-02-28T14:41:34.944Z,french_549.wav,0,poule,393,38,4,5,Français,f,1,0.1,-31.46313263,0.24120097
5ec454e23d68ea32ee554d12,48,0,2024-02-28T14:41:34.944Z,french_549.wav,0,poule,393,38,4,5,Français,f,2,0.2,63.43023055,1.64296857
5ec454e23d68ea32ee554d12,48,0,2024-02-28T14:41:34.944Z,french_549.wav,0,poule,393,38,4,5,Français,f,3,0.3,-47.83204011,1.68842927
5ec454e23d68ea32ee554d12,48,0,2024-02-28T14:41:34.944Z,french_549.wav,0,poule,393,38,4,5,Français,f,4,0.4,-12.06704185,1.52780869
5ec454e23d68ea32ee554d12,48,0,2024-02-28T14:41:34.944Z,french_549.wav,0,poule,393,38,4,5,Français,f,5,0.5,21.92378147,1.9277995
5ec454e23d68ea32ee554d12,48,0,2024-02-28T14:41:34.944Z,french_549.wav,0,poule,393,38,4,5,Français,f,6,0.6,3.15866922,1.64875421
5ec454e23d68ea32ee554d12,48,0,2024-02-28T14:41:34.944Z,french_549.wav,0,poule,393,38,4,5,Français,f,7,0.7,77.16646097,0.97228607
5ec454e23d68ea32ee554d12,48,0,2024-02-28T14:41:34.944Z,french_549.wav,0,poule,393,38,4,5,Français,f,8,0.8,-55.69194491,1.26011495
5ec454e23d68ea32ee554d12,48,0,2024-02-28T14:41:34.944Z,french_549.wav,0,poule,393,38,4,5,Français,f,9,0.9,59.76392534,0.74800621
5ec454e23d68ea32ee554d12,48,0,2024-02-28T14:41:34.944Z,french_549.wav,0,poule,393,38,4,5,Français,f,10,1.0,5.24846484,0.89870469
5ec454e23d68ea32ee554d12,48,0,2024-02-28T14:41:34.944Z,french_549.wav,0,poule,393,38,4,5,Français,f,11,1.1,17.5272775,1.45858483
5ec454e23d68ea32ee554d12,48,0,2024-02-28T14:41:34.944Z,french_549.wav,0,poule,393,38,4,5,Français,f,12,1.14141667,77.18549428,1.898714
5ec454e23d68ea32ee554d12,49,0,2024-02-28T14:41:34.944Z,french_82.wav,0,poule,857,38,4,5,Français,f,0,0.0,72.0977367,1.01696947
5ec454e23d68ea32ee554d12,49,0,2024-02-28T14:41:34.944Z,french_82.wav,0,poule,857,38,4,5,Français,f,1,0.1,13.70688001,1.97290743
5ec454e23d68ea32ee554d12,49,0,2024-02-28T14:41:34.944Z,french_82.wav,0,poule,857,38,4,5,Français,f,2,0.2,12.2114914,0.08873669
5ec454e23d68ea32ee554d12,49,0,2024-02-28T14:41:34.944Z,french_82.wav,0,poule,857,38,4,5,Français,f,3,0.3,-69.04637283,1.89535476
5ec454e23d68ea32ee554d12,49,0,2024-02-28T14:41:34.944Z,french_82.wav,0,poule,857,38,4,5,Français,f,4,0.4,51.39319656,0.09685831
5ec454e23d68ea32ee554d12,49,0,2024-02-28T14:41:34.944Z,french_82.wav,0,poule,857,38,4,5,Français,f,5,0.5,47.88063171,0.48800994
5ec454e23d68ea32ee554d12,49,0,2024-02-28T14:41:34.944Z,french_82.wav,0,poule,857,38,4,5,Français,f,6,0.6,22.68060335,1.51769172
5ec454e23d68ea32ee554d12,49,0,2024-02-28T14:41:34.944Z,french_82.wav,0,poule,857,38,4,5,Français,f,7,0.7,43.54036569,0.60661005
5ec454e23d68ea32ee554d12,49,0,2024-02-28T14:41:34.944Z,french_82.wav,0,poule,857,38,4,5,Français,f,8,0.8,-1.40002238,0.807753
5ec454e23d68ea32ee554d12,49,0,2024-02-28T14:41:34.944Z,french_82.wav,0,poule,857,38,4,5,Français,f,9,0.9,-44.69291662,1.80168033
5ec454e23d68ea32ee554d12,49,0,2024-02-28T14:41:34.944Z,french_82.wav,0,poule,857,38,4,5,Français,f,10,1.0,-80.67967911,1.61964295
5ec454e23d68ea32ee554d12,49,0,2024-02-28T14:41:34.944Z,french_82.wav,0,poule,857,38,4,5,Français,f,11,1.1,-40.96891049,1.99449381
5ec454e23d68ea32ee554d12,49,0,2024-02-28T14:41:34.944Z,french_82.wav,0,poule,857,38,4,5,Français,f,12,1.14141667,-20.90276353,0.77383177
5ec454e23d68ea32ee554d12,50,1,2024-02-28T14:41:34.944Z,french_345.wav,0,poule,338,38,4,5,Français,f,0,0.0,13.09525802,1.99053131
5ec454e23d68ea32ee554d12,50,1,2024-02-28T14:41:34.944Z,french_345.wav,0,poule,338,38,4,5,Français,f,1,0.1,-30.73655165,0.8293688
5ec454e23d68ea32ee554d12,50,1,2024-02-28T14:41:34.944Z,french_345.wav,0,poule,338,38,4,5,Français,f,2,0.2,-41.41787841,1.36131847
5ec454e23d68ea32ee554d12,50,1,2024-02-28T14:41:34.944Z,french_345.wav,0,poule,338,38,4,5,Français,f,3,0.3,-27.41607462,0.38116236
5ec454e23d68ea32ee554d12,50,1,2024-02-28T14:41:34.944Z,french_345.wav,0,poule,338,38,4,5,Français,f,4,0.4,65.96264987,0.42669187
5ec454e23d68ea32ee554d12,50,1,2024-02-28T14:41:34.944Z,french_345.wav,0,poule,338,38,4,5,Français,f,5,0.5,-12.5205808,0.21770013
5ec454e23d68ea32ee554d12,50,1,2024-02-28T14:41:34.944Z,french_345.wav,0,poule,338,38,4,5,Français,f,6,0.6,23.42963683,0.18330203
5ec454e23d68ea32ee554d12,50,1,2024-02-28T14:41:34.944Z,french_345.wav,0,poule,338,38,4,5,Français,f,7,0.7,17.17324325,0.90437628
5ec454e23d68ea32ee554d12,50,1,2024-02-28T14:41:34.944Z,french_345.wav,0,poule,338,38,4,5,Français,f,8,0.8,50.15361308,0.95975331
5ec454e23d68ea32ee554d12,50,1,2024-02-28T14:41:34.944Z,french_345.wav,0,poule,338,38,4,5,Français,f,9,0.9,-38.8739224,1.62391323
5ec454e23d68ea32ee554d12,50,1,2024-02-28T14:41:34.944Z,french_345.wav,0,poule,338,38,4,5,Français,f,10,1.0,89.36825946,1.55285479
5ec454e23d68ea32ee554d12,50,1,2024-02-28T14:41:34.944Z,french_345.wav,0,poule,338,38,4,5,Français,f,11,1.1,-15.68002415,1.85322211
5ec454e23d68ea32ee554d12,50,1,2024-02-28T14:41:34.944Z,french_345.wav,0,poule,338,38,4,5,Français,f,12,1.14141667,48.64961952,1.01370759
5ec454e23d68ea32ee554d12,51,1,2024-02-28T14:41:34.944Z,french_298.wav,0,pull,1000,38,4,5,Français,f,0,0.0,74.36342959,1.72708448
5ec454e23d68ea32ee554d12,51,1,2024-02-28T14:41:34.944Z,french_298.wav,0,pull,1000,38,4,5,Français,f,1,0.1,-30.85430556,1.83054559
5ec454e23d68ea32ee554d12,51,1,2024-02-28T14:41:34.944Z,french_298.wav,0,pull,1000,38,4,5,Français,f,2,0.2,13.18853344,1.07667785
5ec454e23d68ea32ee554d12,51,1,2024-02-28T14:41:34.944Z,french_298.wav,0,pull,1000,38,4,5,Français,f,3,0.3,-73.4727048,0.33228497
5ec454e23d68ea32ee554d12,51,1,2024-02-28T14:41:34.944Z,french_298.wav,0,pull,1000,38,4,5,Français,f,4,0.4,-60.45191565,1.17453787
5ec454e23d68ea32ee554d12,51,1,2024-02-28T14:41:34.944Z,french_298.wav,0,pull,1000,38,4,5,Français,f,5,0.5,-94.12873808,0.39690451
5ec454e23d68ea32ee554d12,51,1,2024-02-28T14:41:34.944Z,french_298.wav,0,pull,1000,38,4,5,Français,f,6,0.6,-31.82345599,0.26650884
5ec454e23d68ea32ee554d12,51,1,2024-02-28T14:41:34.944Z,french_298.wav,0,pull,1000,38,4,5,Français,f,7,0.7,-60.29460257,1.00925451
5ec454e23d68ea32ee554d12,51,1,2024-02-28T14:41:34.944Z,french_298.wav,0,pull,1000,38,4,5,Français,f,8,0.8,84.08431252,0.39924312
5ec454e23d68ea32ee554d12,51,1,2024-02-28T14:41:34.944Z,french_298.wav,0,pull,1000,38,4,5,Français,f,9,0.9,59.02610937,1.81273618
5ec454e23d68ea32ee554d12,51,1,2024-02-28T14:41:34.944Z,french_298.wav,0,pull,1000,38,4,5,Français,f,10,1.0,-79.41538286,0.80693123
5ec454e23d68ea32ee554d12,51,1,2024-02-28T14:41:34.944Z,french_298.wav,0,pull,1000,38,4,5,Français,f,11,1.1,76.10910119,0.30944745
5ec454e23d68ea32ee554d12,51,1,2024-02-28T14:41:34.944Z,french_298.wav,0,pull,1000,38,4,5,Français,f,12,1.14141667,-73.19197608,0.11210384
5ec454e23d68ea32ee554d12,52,1,2024-02-28T14:41:34.944Z,french_579.wav,0,poule,833,38,4,5,Français,f,0,0.0,-44.9724905,1.96822281
5ec454e23d68ea32ee554d12,52,1,2024-02-28T14:41:34.944Z,french_579.wav,0,poule,833,38,4,5,Français,f,1,0.1,0.83845953,0.71149274
5ec454e23d68ea32ee554d12,52,1,2024-02-28T14:41:34.944Z,french_579.wav,0,poule,833,38,4,5,Français,f,2,0.2,93.06026355,0.47444189
5ec454e23d68ea32ee554d12,52,1,2024-02-28T14:41:34.944Z,french_579.wav,0,poule,833,38,4,5,Français,f,3,0.3,-62.41374452,1.30095402
5ec454e23d68ea32ee554d12,52,1,2024-02-28T14:41:34.944Z,french_579.wav,0,poule,833,38,4,5,Français,f,4,0.4,20.02213112,1.46488426
5ec454e23d68ea32ee554d12,52,1,2024-02-28T14:41:34.944Z,french_579.wav,0,poule,833,38,4,5,Français,f,5,0.5,-38.5151373,0.97233373
5ec454e23d68ea32ee554d12,52,1,2024-02-28T14:41:34.944Z,french_579.wav,0,poule,833,38,4,5,Français,f,6,0.6,22.08241798,0.80064838
5ec454e23d68ea32ee554d12,52,1,2024-02-28T14:41:34.944Z,french_579.wav,0,poule,833,38,4,5,Français,f,7,0.7,-58.17924339,0.70983162
5ec454e23d68ea32ee554d12,52,1,2024-02-28T14:41:34.944Z,french_579.wav,0,poule,833,38,4,5,Français,f,8,0.8,-33.23197636,0.45331315
5ec454e23d68ea32ee554d12,52,1,2024-02-28T14:41:34.944Z,french_579.wav,0,poule,833,38,4,5,Français,f,9,0.9,46.73979954,0.98403406
5ec454e23d68ea32ee554d12,52,1,2024-02-28T14:41:34.944Z,french_579.wav,0,poule,833,38,4,5,Français,f,10,1.0,-1.66986987,1.54220588
5ec454e23d68ea32ee554d12,52,1,2024-02-28T14:41:34.944Z,french_579.wav,0,poule,833,38,4,5,Français,f,11,1.1,-43.99049691,0.41959049
5ec454e23d68ea32ee554d12,52,1,2024-02-28T14:41:34.944Z,french_579.wav,0,poule,833,38,4,5,Français,f,12,1.14141667,-39.65764058,1.4912741
5ec454e23d68ea32ee554d12,53,1,2024-02-28T14:41:34.944Z,french_372.wav,0,poule,918,38,4,5,Français,f,0,0.0,53.83123276,0.9084392
5ec454e23d68ea32ee554d12,53,1,2024-02-28T14:41:34.944Z,french_372.wav,0,poule,918,38,4,5,Français,f,1,0.1,-27.04821844,0.09293525
5ec454e23d68ea32ee554d12,53,1,2024-02-28T14:41:34.944Z,french_372.wav,0,poule,918,38,4,5,Français,f,2,0.2,78.33609214,1.96631007
5ec454e23d68ea32ee554d12,53,1,2024-02-28T14:41:34.944Z,french_372.wav,0,poule,918,38,4,5,Français,f,3,0.3,-78.11586559,1.72866936
5ec454e23d68ea32ee554d12,53,1,2024-02-28T14:41:34.944Z,french_372.wav,0,poule,918,38,4,5,Français,f,4,0.4,-94.60748533,0.92226198
5ec454e23d68ea32ee554d12,53,1,2024-02-28T14:41:34.944Z,french_372.wav,0,poule,918,38,4,5,Français,f,5,0.5,62.83015715,0.25318941
5ec454e23d68ea32ee554d12,53,1,2024-02-28T14:41:34.944Z,french_372.wav,0,poule,918,38,4,5,Français,f,6,0.6,67.82201499,1.49472832
5ec454e23d68ea32ee554d12,53,1,2024-02-28T14:41:34.944Z,french_372.wav,0,poule,918,38,4,5,Français,f,7,0.7,-70.53647708,1.73802722
5ec454e23d68ea32ee554d12,53,1,2024-02-28T14:41:34.944Z,french_372.wav,0,poule,918,38,4,5,Français,f,8,0.8,-76.96545312,1.70359471
5ec454e23d68ea32ee554d12,53,1,2024-02-28T14:41:34.944Z,french_372.wav,0,poule,918,38,4,5,Français,f,9,0.9,-50.42790053,0.97070185
5ec454e23d68ea32ee554d12,53,1,2024-02-28T14:41:34.944Z,french_372.wav,0,poule,918,38,4,5,Français,f,10,1.0,72.8443529,1.23269087
5ec454e23d68ea32ee554d12,53,1,2024-02-28T14:41:34.944Z,french_372.wav,0,poule,918,38,4,5,Français,f,11,1.1,-42.09585527,0.48846866
5ec454e23d68ea32ee554d12,53,1,2024-02-28T14:41:34.944Z,french_372.wav,0,poule,918,38,4,5,Français,f,12,1.14141667,-94.08216846,0.68010024
5ec454e23d68ea32ee554d12,54,1,2024-02-28T14:41:34.944Z,french_96.wav,0,poule,289,38,4,5,Français,f,0,0.0,53.78639377,1.90346106
5ec454e23d68ea32ee554d12,54,1,2024-02-28T14:41:34.944Z,french_96.wav,0,poule,289,38,4,5,Français,f,1,0.1,31.41586523,0.15220772
5ec454e23d68ea32ee554d12,54,1,2024-02-28T14:41:34.944Z,french_96.wav,0,poule,289,38,4,5,Français,f,2,0.2,98.80733332,0.53950268
5ec454e23d68ea32ee554d12,54,1,2024-02-28T14:41:34.944Z,french_96.wav,0,poule,289,38,4,5,Français,f,3,0.3,53.44519875,0.63349693
5ec454e23d68ea32ee554d12,54,1,2024-02-28T14:41:34.944Z,french_96.wav,0,poule,289,38,4,5,Français,f,4,0.4,95.61439284,0.57290588
5ec454e23d68ea32ee554d12,54,1,2024-02-28T14:41:34.944Z,french_96.wav,0,poule,289,38,4,5,Français,f,5,0.5,77.20225202,0.42649721
5ec454e23d68ea32ee554d12,54,1,2024-02-28T14:41:34.944Z,french_96.wav,0,poule,289,38,4,5,Français,f,6,0.6,52.03252285,1.12105265
5ec454e23d68ea32ee554d12,54,1,2024-02-28T14:41:34.944Z,french_96.wav,0,poule,289,38,4,5,Français,f,7,0.7,81.26088067,0.61167248
5ec454e23d68ea32ee554d12,54,1,2024-02-28T14:41:34.944Z,french_96.wav,0,poule,289,38,4,5,Français,f,8,0.8,61.75854177,1.55092745
5ec454e23d68ea32ee554d12,54,1,2024-02-28T14:41:34.944Z,french_96.wav,0,poule,289,38,4,5,Français,f,9,0.9,-97.80195669,1.53777106
5ec454e23d68ea32ee554d12,54,1,2024-02-28T14:41:34.944Z,french_96.wav,0,poule,289,38,4,5,Français,f,10,1.0,-30.26366105,1.41658213
5ec454e23d68ea32ee554d12,54,1,2024-02-28T14:41:34.944Z,french_96.wav,0,poule,289,38,4,5,Français,f,11,1.1,17.72455957,0.75969362
5ec454e23d68ea32ee554d12,54,1,2024-02-28T14:41:34.944Z,french_96.wav,0,poule,289,38,4,5,Français,f,12,1.14141667,64.44839673,0.51672597
5ec454e23d68ea32ee554d12,55,1,2024-02-28T14:41:34.944Z,french_859.wav,0,poule,281,38,4,5,Français,f,0,0.0,1.3379516,1.36958818
5ec454e23d68ea32ee554d12,55,1,2024-02-28T14:41:34.944Z,french_859.wav,0,poule,281,38,4,5,Français,f,1,0.1,-77.14988891,0.72000045
5ec454e23d68ea32ee554d12,55,1,2024-02-28T14:41:34.944Z,french_859.wav,0,poule,281,38,4,5,Français,f,2,0.2,78.55525238,0.35438615
5ec454e23d68ea32ee554d12,55,1,2024-02-28T14:41:34.944Z,french_859.wav,0,poule,281,38,4,5,Français,f,3,0.3,48.96351303,1.87808106
5ec454e23d68ea32ee554d12,55,1,2024-02-28T14:41:34.944Z,french_859.wav,0,poule,281,38,4,5,Français,f,4,0.4,-79.69152109,0.09661352
5ec454e23d68ea32ee554d12,55,1,2024-02-28T14:41:34.944Z,french_859.wav,0,poule,281,38,4,5,Français,f,5,0.5,-84.80889232,0.77016697
5ec454e23d68ea32ee554d12,55,1,2024-02-28T14:41:34.944Z,french_859.wav,0,poule,281,38,4,5,Français,f,6,0.6,51.82772479,1.09697533
5ec454e23d68ea32ee554d12,55,1,2024-02-28T14:41:34.944Z,french_859.wav,0,poule,281,38,4,5,Français,f,7,0.7,44.24285845,1.53057635
5ec454e23d68ea32ee554d12,55,1,2024-02-28T14:41:34.944Z,french_859.wav,0,poule,281,38,4,5,Français,f,8,0.8,-23.46330426,0.58688687
5ec454e23d68ea32ee554d12,55,1,2024-02-28T14:41:34.944Z,french_859.wav,0,poule,281,38,4,5,Français,f,9,0.9,71.97448193,1.83686528
5ec454e23d68ea32ee554d12,55,1,2024-02-28T14:41:34.944Z,french_859.wav,0,poule,281,38,4,5,Français,f,10,1.0,66.15659707,1.24721253
5ec454e23d68ea32ee554d12,55,1,2024-02-28T14:41:34.944Z,french_859.wav,0,poule,281,38,4,5,Français,f,11,1.1,-96.85014514,1.51912792
5ec454e23d68ea32ee554d12,55,1,2024-02-28T14:41:34.944Z,french_859.wav,0,poule,281,38,4,5,Français,f,12,1.14141667,30.23995933,1.23413117
5ec454e23d68ea32ee554d12,56,1,2024-02-28T14:41:34.944Z,french_294.wav,0,pull,809,38,4,5,Français,f,0,0.0,46.81190633,0.85502539
5ec454e23d68ea32ee554d12,56,1,2024-02-28T14:41:34.944Z,french_294.wav,0,pull,809,38,4,5,Français,f,1,0.1,-55.55833329,0.73187702
5ec454e23d68ea32ee554d12,56,1,2024-02-28T14:41:34.944Z,french_294.wav,0,pull,809,38,4,5,Français,f,2,0.2,-78.93236635,1.40827844
5ec454e23d68ea32ee554d12,56,1,2024-02-28T14:41:34.944Z,french_294.wav,0,pull,809,38,4,5,Français,f,3,0.3,80.59595566,1.8594958
5ec454e23d68ea32ee554d12,56,1,2024-02-28T14:41:34.944Z,french_294.wav,0,pull,809,38,4,5,Français,f,4,0.4,54.71021816,1.03951107
5ec454e23d68ea32ee554d12,56,1,2024-02-28T14:41:34.944Z,french_294.wav,0,pull,809,38,4,5,Français,f,5,0.5,-35.95549528,0.90602699
5ec454e23d68ea32ee554d12,56,1,2024-02-28T14:41:34.944Z,french_294.wav,0,pull,809,38,4,5,Français,f,6,0.6,90.04358931,0.40420579
5ec454e23d68ea32ee554d12,56,1,2024-02-28T14:41:34.944Z,french_294.wav,0,pull,809,38,4,5,Français,f,7,0.7,48.97978382,0.11158967
5ec454e23d68ea32ee554d12,56,1,2024-02-28T14:41:34.944Z,french_294.wav,0,pull,809,38,4,5,Français,f,8,0.8,85.35893159,1.1950669
5ec454e23d68ea32ee554d12,56,1,2024-02-28T14:41:34.944Z,french_294.wav,0,pull,809,38,4,5,Français,f,9,0.9,37.71160702,0.53171982
5ec454e23d68ea32ee554d12,56,1,2024-02-28T14:41:34.944Z,french_294.wav,0,pull,809,38,4,5,Français,f,10,1.0,-84.35185751,0.12056925
5ec454e23d68ea32ee554d12,56,1,2024-02-28T14:41:34.944Z,french_294.wav,0,pull,809,38,4,5,Français,f,11,1.1,-45.28301264,1.01856401
5ec454e23d68ea32ee554d12,56,1,2024-02-28T14:41:34.944Z,french_294.wav,0,pull,809,38,4,5,Français,f,12,1.14141667,78.04325437,1.12267397
5ec454e23d68ea32ee554d12,57,1,2024-02-28T14:41:34.944Z,french_889.wav,0,poule,809,38,4,5,Français,f,0,0.0,85.2733813,0.45548566
5ec454e23d68ea32ee554d12,57,1,2024-02-28T14:41:34.944Z,french_889.wav,0,poule,809,38,4,5,Français,f,1,0.1,-9.17658369,0.42780618
5ec454e23d68ea32ee554d12,57,1,2024-02-28T14:41:34.944Z,french_889.wav,0,poule,809,38,4,5,Français,f,2,0.2,-74.95002821,1.13904578
5ec454e23d68ea32ee554d12,57,1,2024-02-28T14:41:34.944Z,french_889.wav,0,poule,809,38,4,5,Français,f,3,0.3,-15.14184609,0.79367721
5ec454e23d68ea32ee554d12,57,1,2024-02-28T14:41:34.944Z,french_889.wav,0,poule,809,38,4,5,Français,f,4,0.4,15.16006898,0.33758667
5ec454e23d68ea32ee554d12,57,1,2024-02-28T14:41:34.944Z,french_889.wav,0,poule,809,38,4,5,Français,f,5,0.5,-47.48400349,0.33594429
5ec454e23d68ea32ee554d12,57,1,2024-02-28T14:41:34.944Z,french_889.wav,0,poule,809,38,4,5,Français,f,6,0.6,-79.05067021,1.05553209
5ec454e23d68ea32ee554d12,57,1,2024-02-28T14:41:34.944Z,french_889.wav,0,poule,809,38,4,5,Français,f,7,0.7,36.11246432,1.55353839
5ec454e23d68ea32ee554d12,57,1,2024-02-28T14:41:34.944Z,french_889.wav,0,poule,809,38,4,5,Français,f,8,0.8,-10.42928376,0.48612759
5ec454e23d68ea32ee554d12,57,1,2024-02-28T14:41:34.944Z,french_889.wav,0,poule,809,38,4,5,Français,f,9,0.9,-38.21466303,1.14132878
5ec454e23d68ea32ee554d12,57,1,2024-02-28T14:41:34.944Z,french_889.wav,0,poule,809,38,4,5,Français,f,10,1.0,-74.40390494,1.27612663
5ec454e23d68ea32ee554d12,57,1,2024-02-28T14:41:34.944Z,french_889.wav,0,poule,809,38,4,5,Français,f,11,1.1,48.21849642,0.91551084
5ec454e23d68ea32ee554d12,57,1,2024-02-28T14:41:34.944Z,french_889.wav,0,poule,809,38,4,5,Français,f,12,1.14141667,70.85826142,1.65751286
5ec454e23d68ea32ee554d12,58,1,2024-02-28T14:41:34.944Z,french_639.wav,0,poule,765,38,4,5,Français,f,0,0.0,-46.25484505,0.30801928
5ec454e23d68ea32ee554d12,58,1,2024-02-28T14:41:34.944Z,french_639.wav,0,poule,765,38,4,5,Français,f,1,0.1,17.34670458,0.40113014
5ec454e23d68ea32ee554d12,58,1,2024-02-28T14:41:34.944Z,french_639.wav,0,poule,765,38,4,5,Français,f,2,0.2,-31.4334136,0.29921145
5ec454e23d68ea32ee554d12,58,1,2024-02-28T14:41:34.944Z,french_639.wav,0,poule,765,38,4,5,Français,f,3,0.3,-78.00985553,1.04613163
5ec454e23d68ea32ee554d12,58,1,2024-02-28T14:41:34.944Z,french_639.wav,0,poule,765,38,4,5,Français,f,4,0.4,-58.5652681,1.01899581
5ec454e23d68ea32ee554d12,58,1,2024-02-28T14:41:34.944Z,french_639.wav,0,poule,765,38,4,5,Français,f,5,0.5,65.66284819,0.95924712
5ec454e23d68ea32ee554d12,58,1,2024-02-28T14:41:34.944Z,french_639.wav,0,poule,765,38,4,5,Français,f,6,0.6,23.63896635,1.60243922
5ec454e23d68ea32ee554d12,58,1,2024-02-28T14:41:34.944Z,french_639.wav,0,poule,765,38,4,5,Français,f,7,0.7,-60.08289753,1.5028757
5ec454e23d68ea32ee554d12,58,1,2024-02-28T14:41:34.944Z,french_639.wav,0,poule,765,38,4,5,Français,f,8,0.8,-88.31823413,1.36364822
5ec454e23d68ea32ee554d12,58,1,2024-02-28T14:41:34.944Z,french_639.wav,0,poule,765,38,4,5,Français,f,9,0.9,-17.26198613,1.69011696
5ec454e23d68ea32ee554d12,58,1,2024-02-28T14:41:34.944Z,french_639.wav,0,poule,765,38,4,5,Français,f,10,1.0,-47.873666,0.9136066
5ec454e23d68ea32ee554d12,58,1,2024-02-28T14:41:34.944Z,french_639.wav,0,poule,765,38,4,5,Français,f,11,1.1,21.197191,0.74346295
5ec454e23d68ea32ee554d12,58,1,2024-02-28T14:41:34.944Z,french_639.wav,0,poule,765,38,4,5,Français,f,12,1.14141667,5.91132605,1.3493516
5ec454e23d68ea32ee554d12,59,1,2024-02-28T14:41:34.944Z,french_201.wav,0,poule,428,38,4,5,Français,f,0,0.0,-72.31925436,1.48994907
5ec454e23d68ea32ee554d12,59,1,2024-02-28T14:41:34.944Z,french_201.wav,0,poule,428,38,4,5,Français,f,1,0.1,-83.73511965,0.53964537
5ec454e23d68ea32ee554d12,59,1,2024-02-28T14:41:34.944Z,french_201.wav,0,poule,428,38,4,5,Français,f,2,0.2,-34.49086418,1.99160806
5ec454e23d68ea32ee554d12,59,1,2024-02-28T14:41:34.944Z,french_201.wav,0,poule,428,38,4,5,Français,f,3,0.3,89.08599927,1.65371383
