subj,trial,block,date,stim,stim_order,response,rt,age,english,french,language,sex,param_index,segment,pitch,stretch
60c750fa33e03bdaeae60c48,0,0,2024-02-28T15:17:28.263Z,french_902.wav,0,poule,1562,24,4,5,Français,Femme,0,0.0,-59.83898707,1.4884204
60c750fa33e03bdaeae60c48,0,0,2024-02-28T15:17:28.263Z,french_902.wav,0,poule,1562,24,4,5,Français,Femme,1,0.1,2.81569072,0.86195341
60c750fa33e03bdaeae60c48,0,0,2024-02-28T15:17:28.263Z,french_902.wav,0,poule,1562,24,4,5,Français,Femme,2,0.2,-53.15669969,0.92234706
60c750fa33e03bdaeae60c48,0,0,2024-02-28T15:17:28.263Z,french_902.wav,0,poule,1562,24,4,5,Français,Femme,3,0.3,53.66756274,0.8159244
60c750fa33e03bdaeae60c48,0,0,2024-02-28T15:17:28.263Z,french_902.wav,0,poule,1562,24,4,5,Français,Femme,4,0.4,-9.57716581,1.39024481
60c750fa33e03bdaeae60c48,0,0,2024-02-28T15:17:28.263Z,french_902.wav,0,poule,1562,24,4,5,Français,Femme,5,0.5,33.17943133,0.86390772
60c750fa33e03bdaeae60c48,0,0,2024-02-28T15:17:28.263Z,french_902.wav,0,poule,1562,24,4,5,Français,Femme,6,0.6,24.57927277,1.52193383
60c750fa33e03bdaeae60c48,0,0,2024-02-28T15:17:28.263Z,french_902.wav,0,poule,1562,24,4,5,Français,Femme,7,0.7,16.44625536,0.8147185
60c750fa33e03bdaeae60c48,0,0,2024-02-28T15:17:28.263Z,french_902.wav,0,poule,1562,24,4,5,Français,Femme,8,0.8,23.39904081,0.44423885
60c750fa33e03bdaeae60c48,0,0,2024-02-28T15:17:28.263Z,french_902.wav,0,poule,1562,24,4,5,Français,Femme,9,0.9,-30.48387662,1.11070816
60c750fa33e03bdaeae60c48,0,0,2024-02-28T15:17:28.263Z,french_902.wav,0,poule,1562,24,4,5,Français,Femme,10,1.0,-1.42450385,0.62020849
60c750fa33e03bdaeae60c48,0,0,2024-02-28T15:17:28.263Z,french_902.wav,0,poule,1562,24,4,5,Français,Femme,11,1.1,-54.8338484,1.49306166
60c750fa33e03bdaeae60c48,0,0,2024-02-28T15:17:28.263Z,french_902.wav,0,poule,1562,24,4,5,Français,Femme,12,1.14141667,12.56476458,0.57204239
60c750fa33e03bdaeae60c48,1,0,2024-02-28T15:17:28.263Z,french_295.wav,0,pull,818,24,4,5,Français,Femme,0,0.0,55.29315311,1.5987636
60c750fa33e03bdaeae60c48,1,0,2024-02-28T15:17:28.263Z,french_295.wav,0,pull,818,24,4,5,Français,Femme,1,0.1,-65.75153127,0.69545336
60c750fa33e03bdaeae60c48,1,0,2024-02-28T15:17:28.263Z,french_295.wav,0,pull,818,24,4,5,Français,Femme,2,0.2,-92.7192066,0.48752791
60c750fa33e03bdaeae60c48,1,0,2024-02-28T15:17:28.263Z,french_295.wav,0,pull,818,24,4,5,Français,Femme,3,0.3,-57.6604973,1.39957445
60c750fa33e03bdaeae60c48,1,0,2024-02-28T15:17:28.263Z,french_295.wav,0,pull,818,24,4,5,Français,Femme,4,0.4,-68.74854131,0.76369242
60c750fa33e03bdaeae60c48,1,0,2024-02-28T15:17:28.263Z,french_295.wav,0,pull,818,24,4,5,Français,Femme,5,0.5,-5.17022395,0.48234689
60c750fa33e03bdaeae60c48,1,0,2024-02-28T15:17:28.263Z,french_295.wav,0,pull,818,24,4,5,Français,Femme,6,0.6,-80.86026473,1.39904034
60c750fa33e03bdaeae60c48,1,0,2024-02-28T15:17:28.263Z,french_295.wav,0,pull,818,24,4,5,Français,Femme,7,0.7,-29.75269048,1.65941602
60c750fa33e03bdaeae60c48,1,0,2024-02-28T15:17:28.263Z,french_295.wav,0,pull,818,24,4,5,Français,Femme,8,0.8,31.25868852,0.9491215
60c750fa33e03bdaeae60c48,1,0,2024-02-28T15:17:28.263Z,french_295.wav,0,pull,818,24,4,5,Français,Femme,9,0.9,-20.06781302,1.67220732
60c750fa33e03bdaeae60c48,1,0,2024-02-28T15:17:28.263Z,french_295.wav,0,pull,818,24,4,5,Français,Femme,10,1.0,-9.04337326,0.28641191
60c750fa33e03bdaeae60c48,1,0,2024-02-28T15:17:28.263Z,french_295.wav,0,pull,818,24,4,5,Français,Femme,11,1.1,-25.31119752,0.37552559
60c750fa33e03bdaeae60c48,1,0,2024-02-28T15:17:28.263Z,french_295.wav,0,pull,818,24,4,5,Français,Femme,12,1.14141667,-74.03291959,1.0716262
60c750fa33e03bdaeae60c48,2,0,2024-02-28T15:17:28.263Z,french_477.wav,0,poule,1259,24,4,5,Français,Femme,0,0.0,-78.56555908,0.90729918
60c750fa33e03bdaeae60c48,2,0,2024-02-28T15:17:28.263Z,french_477.wav,0,poule,1259,24,4,5,Français,Femme,1,0.1,3.86041837,0.71019549
60c750fa33e03bdaeae60c48,2,0,2024-02-28T15:17:28.263Z,french_477.wav,0,poule,1259,24,4,5,Français,Femme,2,0.2,-2.64217337,0.28903197
60c750fa33e03bdaeae60c48,2,0,2024-02-28T15:17:28.263Z,french_477.wav,0,poule,1259,24,4,5,Français,Femme,3,0.3,52.88187811,1.38317917
60c750fa33e03bdaeae60c48,2,0,2024-02-28T15:17:28.263Z,french_477.wav,0,poule,1259,24,4,5,Français,Femme,4,0.4,-41.11373851,0.12273644
60c750fa33e03bdaeae60c48,2,0,2024-02-28T15:17:28.263Z,french_477.wav,0,poule,1259,24,4,5,Français,Femme,5,0.5,37.34234886,0.32232992
60c750fa33e03bdaeae60c48,2,0,2024-02-28T15:17:28.263Z,french_477.wav,0,poule,1259,24,4,5,Français,Femme,6,0.6,1.87671838,1.10217766
60c750fa33e03bdaeae60c48,2,0,2024-02-28T15:17:28.263Z,french_477.wav,0,poule,1259,24,4,5,Français,Femme,7,0.7,-2.94376017,1.47755132
60c750fa33e03bdaeae60c48,2,0,2024-02-28T15:17:28.263Z,french_477.wav,0,poule,1259,24,4,5,Français,Femme,8,0.8,65.99491653,1.30728206
60c750fa33e03bdaeae60c48,2,0,2024-02-28T15:17:28.263Z,french_477.wav,0,poule,1259,24,4,5,Français,Femme,9,0.9,-5.37866617,1.95965677
60c750fa33e03bdaeae60c48,2,0,2024-02-28T15:17:28.263Z,french_477.wav,0,poule,1259,24,4,5,Français,Femme,10,1.0,10.37715511,1.80733165
60c750fa33e03bdaeae60c48,2,0,2024-02-28T15:17:28.263Z,french_477.wav,0,poule,1259,24,4,5,Français,Femme,11,1.1,-59.59646827,0.82276249
60c750fa33e03bdaeae60c48,2,0,2024-02-28T15:17:28.263Z,french_477.wav,0,poule,1259,24,4,5,Français,Femme,12,1.14141667,12.97875442,0.82116455
60c750fa33e03bdaeae60c48,3,0,2024-02-28T15:17:28.263Z,french_507.wav,0,pull,479,24,4,5,Français,Femme,0,0.0,-18.83784301,0.97207948
60c750fa33e03bdaeae60c48,3,0,2024-02-28T15:17:28.263Z,french_507.wav,0,pull,479,24,4,5,Français,Femme,1,0.1,-87.48663551,0.90416973
60c750fa33e03bdaeae60c48,3,0,2024-02-28T15:17:28.263Z,french_507.wav,0,pull,479,24,4,5,Français,Femme,2,0.2,-60.22132392,1.16192947
60c750fa33e03bdaeae60c48,3,0,2024-02-28T15:17:28.263Z,french_507.wav,0,pull,479,24,4,5,Français,Femme,3,0.3,37.76954176,1.71554284
60c750fa33e03bdaeae60c48,3,0,2024-02-28T15:17:28.263Z,french_507.wav,0,pull,479,24,4,5,Français,Femme,4,0.4,-39.51400755,1.68517506
60c750fa33e03bdaeae60c48,3,0,2024-02-28T15:17:28.263Z,french_507.wav,0,pull,479,24,4,5,Français,Femme,5,0.5,69.25962534,0.77995291
60c750fa33e03bdaeae60c48,3,0,2024-02-28T15:17:28.263Z,french_507.wav,0,pull,479,24,4,5,Français,Femme,6,0.6,8.68923179,0.11564571
60c750fa33e03bdaeae60c48,3,0,2024-02-28T15:17:28.263Z,french_507.wav,0,pull,479,24,4,5,Français,Femme,7,0.7,-88.77359472,0.9600572
60c750fa33e03bdaeae60c48,3,0,2024-02-28T15:17:28.263Z,french_507.wav,0,pull,479,24,4,5,Français,Femme,8,0.8,-71.54118881,0.74032598
60c750fa33e03bdaeae60c48,3,0,2024-02-28T15:17:28.263Z,french_507.wav,0,pull,479,24,4,5,Français,Femme,9,0.9,-44.94089327,0.81018125
60c750fa33e03bdaeae60c48,3,0,2024-02-28T15:17:28.263Z,french_507.wav,0,pull,479,24,4,5,Français,Femme,10,1.0,-83.6521711,0.90893345
60c750fa33e03bdaeae60c48,3,0,2024-02-28T15:17:28.263Z,french_507.wav,0,pull,479,24,4,5,Français,Femme,11,1.1,-54.78607567,0.84528223
60c750fa33e03bdaeae60c48,3,0,2024-02-28T15:17:28.263Z,french_507.wav,0,pull,479,24,4,5,Français,Femme,12,1.14141667,10.77236355,0.84574894
60c750fa33e03bdaeae60c48,4,0,2024-02-28T15:17:28.263Z,french_892.wav,0,pull,342,24,4,5,Français,Femme,0,0.0,2.48516085,0.58260241
60c750fa33e03bdaeae60c48,4,0,2024-02-28T15:17:28.263Z,french_892.wav,0,pull,342,24,4,5,Français,Femme,1,0.1,-76.22143396,1.93950295
60c750fa33e03bdaeae60c48,4,0,2024-02-28T15:17:28.263Z,french_892.wav,0,pull,342,24,4,5,Français,Femme,2,0.2,93.28499715,0.79251677
60c750fa33e03bdaeae60c48,4,0,2024-02-28T15:17:28.263Z,french_892.wav,0,pull,342,24,4,5,Français,Femme,3,0.3,12.13691899,1.61878069
60c750fa33e03bdaeae60c48,4,0,2024-02-28T15:17:28.263Z,french_892.wav,0,pull,342,24,4,5,Français,Femme,4,0.4,-69.30233484,0.35146725
60c750fa33e03bdaeae60c48,4,0,2024-02-28T15:17:28.263Z,french_892.wav,0,pull,342,24,4,5,Français,Femme,5,0.5,20.86949567,1.82455818
60c750fa33e03bdaeae60c48,4,0,2024-02-28T15:17:28.263Z,french_892.wav,0,pull,342,24,4,5,Français,Femme,6,0.6,-38.30390535,1.06886099
60c750fa33e03bdaeae60c48,4,0,2024-02-28T15:17:28.263Z,french_892.wav,0,pull,342,24,4,5,Français,Femme,7,0.7,-51.39274588,1.74424774
60c750fa33e03bdaeae60c48,4,0,2024-02-28T15:17:28.263Z,french_892.wav,0,pull,342,24,4,5,Français,Femme,8,0.8,66.90425757,1.75805462
60c750fa33e03bdaeae60c48,4,0,2024-02-28T15:17:28.263Z,french_892.wav,0,pull,342,24,4,5,Français,Femme,9,0.9,-53.91373226,1.69854439
60c750fa33e03bdaeae60c48,4,0,2024-02-28T15:17:28.263Z,french_892.wav,0,pull,342,24,4,5,Français,Femme,10,1.0,17.61869839,0.60409156
60c750fa33e03bdaeae60c48,4,0,2024-02-28T15:17:28.263Z,french_892.wav,0,pull,342,24,4,5,Français,Femme,11,1.1,-34.76358151,0.5214224
60c750fa33e03bdaeae60c48,4,0,2024-02-28T15:17:28.263Z,french_892.wav,0,pull,342,24,4,5,Français,Femme,12,1.14141667,15.85772352,1.48692913
60c750fa33e03bdaeae60c48,5,0,2024-02-28T15:17:28.263Z,french_7.wav,0,pull,1450,24,4,5,Français,Femme,0,0.0,17.30709494,0.40724151
60c750fa33e03bdaeae60c48,5,0,2024-02-28T15:17:28.263Z,french_7.wav,0,pull,1450,24,4,5,Français,Femme,1,0.1,-63.94658261,1.34555896
60c750fa33e03bdaeae60c48,5,0,2024-02-28T15:17:28.263Z,french_7.wav,0,pull,1450,24,4,5,Français,Femme,2,0.2,67.53719725,1.64185408
60c750fa33e03bdaeae60c48,5,0,2024-02-28T15:17:28.263Z,french_7.wav,0,pull,1450,24,4,5,Français,Femme,3,0.3,63.15001228,1.66374523
60c750fa33e03bdaeae60c48,5,0,2024-02-28T15:17:28.263Z,french_7.wav,0,pull,1450,24,4,5,Français,Femme,4,0.4,-14.43015731,0.37650843
60c750fa33e03bdaeae60c48,5,0,2024-02-28T15:17:28.263Z,french_7.wav,0,pull,1450,24,4,5,Français,Femme,5,0.5,44.13924234,0.14892944
60c750fa33e03bdaeae60c48,5,0,2024-02-28T15:17:28.263Z,french_7.wav,0,pull,1450,24,4,5,Français,Femme,6,0.6,-87.5939518,1.49586542
60c750fa33e03bdaeae60c48,5,0,2024-02-28T15:17:28.263Z,french_7.wav,0,pull,1450,24,4,5,Français,Femme,7,0.7,-21.88923859,1.13659751
60c750fa33e03bdaeae60c48,5,0,2024-02-28T15:17:28.263Z,french_7.wav,0,pull,1450,24,4,5,Français,Femme,8,0.8,-75.22079211,1.64492365
60c750fa33e03bdaeae60c48,5,0,2024-02-28T15:17:28.263Z,french_7.wav,0,pull,1450,24,4,5,Français,Femme,9,0.9,-44.33295618,1.22066873
60c750fa33e03bdaeae60c48,5,0,2024-02-28T15:17:28.263Z,french_7.wav,0,pull,1450,24,4,5,Français,Femme,10,1.0,-82.62011516,1.13133422
60c750fa33e03bdaeae60c48,5,0,2024-02-28T15:17:28.263Z,french_7.wav,0,pull,1450,24,4,5,Français,Femme,11,1.1,-28.3543826,0.5437483
60c750fa33e03bdaeae60c48,5,0,2024-02-28T15:17:28.263Z,french_7.wav,0,pull,1450,24,4,5,Français,Femme,12,1.14141667,39.13782865,1.32903079
60c750fa33e03bdaeae60c48,6,0,2024-02-28T15:17:28.263Z,french_709.wav,0,pull,651,24,4,5,Français,Femme,0,0.0,-53.16296067,1.12002918
60c750fa33e03bdaeae60c48,6,0,2024-02-28T15:17:28.263Z,french_709.wav,0,pull,651,24,4,5,Français,Femme,1,0.1,59.94788803,1.08131943
60c750fa33e03bdaeae60c48,6,0,2024-02-28T15:17:28.263Z,french_709.wav,0,pull,651,24,4,5,Français,Femme,2,0.2,35.87727167,0.76631976
60c750fa33e03bdaeae60c48,6,0,2024-02-28T15:17:28.263Z,french_709.wav,0,pull,651,24,4,5,Français,Femme,3,0.3,-20.5364381,1.69776784
60c750fa33e03bdaeae60c48,6,0,2024-02-28T15:17:28.263Z,french_709.wav,0,pull,651,24,4,5,Français,Femme,4,0.4,34.04594206,0.74557561
60c750fa33e03bdaeae60c48,6,0,2024-02-28T15:17:28.263Z,french_709.wav,0,pull,651,24,4,5,Français,Femme,5,0.5,-79.51255741,1.35674371
60c750fa33e03bdaeae60c48,6,0,2024-02-28T15:17:28.263Z,french_709.wav,0,pull,651,24,4,5,Français,Femme,6,0.6,22.56358256,1.43825325
60c750fa33e03bdaeae60c48,6,0,2024-02-28T15:17:28.263Z,french_709.wav,0,pull,651,24,4,5,Français,Femme,7,0.7,-37.88762672,1.0289102
60c750fa33e03bdaeae60c48,6,0,2024-02-28T15:17:28.263Z,french_709.wav,0,pull,651,24,4,5,Français,Femme,8,0.8,-41.8377988,1.05848076
60c750fa33e03bdaeae60c48,6,0,2024-02-28T15:17:28.263Z,french_709.wav,0,pull,651,24,4,5,Français,Femme,9,0.9,-60.56478502,0.41244704
60c750fa33e03bdaeae60c48,6,0,2024-02-28T15:17:28.263Z,french_709.wav,0,pull,651,24,4,5,Français,Femme,10,1.0,-85.9910607,0.82703914
60c750fa33e03bdaeae60c48,6,0,2024-02-28T15:17:28.263Z,french_709.wav,0,pull,651,24,4,5,Français,Femme,11,1.1,-8.25451984,1.84061657
60c750fa33e03bdaeae60c48,6,0,2024-02-28T15:17:28.263Z,french_709.wav,0,pull,651,24,4,5,Français,Femme,12,1.14141667,-19.34673642,0.86940642
60c750fa33e03bdaeae60c48,7,0,2024-02-28T15:17:28.263Z,french_679.wav,0,pull,1890,24,4,5,Français,Femme,0,0.0,-14.70734509,1.46597583
60c750fa33e03bdaeae60c48,7,0,2024-02-28T15:17:28.263Z,french_679.wav,0,pull,1890,24,4,5,Français,Femme,1,0.1,-71.06769053,1.54510521
60c750fa33e03bdaeae60c48,7,0,2024-02-28T15:17:28.263Z,french_679.wav,0,pull,1890,24,4,5,Français,Femme,2,0.2,0.78593543,0.85896876
60c750fa33e03bdaeae60c48,7,0,2024-02-28T15:17:28.263Z,french_679.wav,0,pull,1890,24,4,5,Français,Femme,3,0.3,21.61945259,0.42109755
60c750fa33e03bdaeae60c48,7,0,2024-02-28T15:17:28.263Z,french_679.wav,0,pull,1890,24,4,5,Français,Femme,4,0.4,-93.25434466,0.86545886
60c750fa33e03bdaeae60c48,7,0,2024-02-28T15:17:28.263Z,french_679.wav,0,pull,1890,24,4,5,Français,Femme,5,0.5,-11.67449827,0.11204976
60c750fa33e03bdaeae60c48,7,0,2024-02-28T15:17:28.263Z,french_679.wav,0,pull,1890,24,4,5,Français,Femme,6,0.6,-39.79898507,1.27761458
60c750fa33e03bdaeae60c48,7,0,2024-02-28T15:17:28.263Z,french_679.wav,0,pull,1890,24,4,5,Français,Femme,7,0.7,-44.77239166,1.34435357
60c750fa33e03bdaeae60c48,7,0,2024-02-28T15:17:28.263Z,french_679.wav,0,pull,1890,24,4,5,Français,Femme,8,0.8,-59.78561396,0.62354184
60c750fa33e03bdaeae60c48,7,0,2024-02-28T15:17:28.263Z,french_679.wav,0,pull,1890,24,4,5,Français,Femme,9,0.9,18.05772854,0.28507196
60c750fa33e03bdaeae60c48,7,0,2024-02-28T15:17:28.263Z,french_679.wav,0,pull,1890,24,4,5,Français,Femme,10,1.0,47.53619055,1.41472683
60c750fa33e03bdaeae60c48,7,0,2024-02-28T15:17:28.263Z,french_679.wav,0,pull,1890,24,4,5,Français,Femme,11,1.1,9.35196461,0.97298944
60c750fa33e03bdaeae60c48,7,0,2024-02-28T15:17:28.263Z,french_679.wav,0,pull,1890,24,4,5,Français,Femme,12,1.14141667,-39.99964019,0.81950462
60c750fa33e03bdaeae60c48,8,0,2024-02-28T15:17:28.263Z,french_67.wav,0,pull,904,24,4,5,Français,Femme,0,0.0,-8.80419895,1.71520909
60c750fa33e03bdaeae60c48,8,0,2024-02-28T15:17:28.263Z,french_67.wav,0,pull,904,24,4,5,Français,Femme,1,0.1,-89.09971713,1.65194622
60c750fa33e03bdaeae60c48,8,0,2024-02-28T15:17:28.263Z,french_67.wav,0,pull,904,24,4,5,Français,Femme,2,0.2,52.16664129,1.05692719
60c750fa33e03bdaeae60c48,8,0,2024-02-28T15:17:28.263Z,french_67.wav,0,pull,904,24,4,5,Français,Femme,3,0.3,75.50765895,0.39640522
60c750fa33e03bdaeae60c48,8,0,2024-02-28T15:17:28.263Z,french_67.wav,0,pull,904,24,4,5,Français,Femme,4,0.4,-50.4048012,1.79941734
60c750fa33e03bdaeae60c48,8,0,2024-02-28T15:17:28.263Z,french_67.wav,0,pull,904,24,4,5,Français,Femme,5,0.5,2.92186318,1.20893726
60c750fa33e03bdaeae60c48,8,0,2024-02-28T15:17:28.263Z,french_67.wav,0,pull,904,24,4,5,Français,Femme,6,0.6,-2.99274005,1.83305713
60c750fa33e03bdaeae60c48,8,0,2024-02-28T15:17:28.263Z,french_67.wav,0,pull,904,24,4,5,Français,Femme,7,0.7,-60.68394197,0.33461142
60c750fa33e03bdaeae60c48,8,0,2024-02-28T15:17:28.263Z,french_67.wav,0,pull,904,24,4,5,Français,Femme,8,0.8,84.35232492,0.31328661
60c750fa33e03bdaeae60c48,8,0,2024-02-28T15:17:28.263Z,french_67.wav,0,pull,904,24,4,5,Français,Femme,9,0.9,-25.72248864,0.81923703
60c750fa33e03bdaeae60c48,8,0,2024-02-28T15:17:28.263Z,french_67.wav,0,pull,904,24,4,5,Français,Femme,10,1.0,11.86313501,0.47881167
60c750fa33e03bdaeae60c48,8,0,2024-02-28T15:17:28.263Z,french_67.wav,0,pull,904,24,4,5,Français,Femme,11,1.1,19.03354401,1.95724467
60c750fa33e03bdaeae60c48,8,0,2024-02-28T15:17:28.263Z,french_67.wav,0,pull,904,24,4,5,Français,Femme,12,1.14141667,81.65120736,0.25508289
60c750fa33e03bdaeae60c48,9,0,2024-02-28T15:17:28.263Z,french_428.wav,0,poule,2681,24,4,5,Français,Femme,0,0.0,-21.91967555,1.68245119
60c750fa33e03bdaeae60c48,9,0,2024-02-28T15:17:28.263Z,french_428.wav,0,poule,2681,24,4,5,Français,Femme,1,0.1,91.57394563,1.59408112
60c750fa33e03bdaeae60c48,9,0,2024-02-28T15:17:28.263Z,french_428.wav,0,poule,2681,24,4,5,Français,Femme,2,0.2,36.69639527,1.87320817
60c750fa33e03bdaeae60c48,9,0,2024-02-28T15:17:28.263Z,french_428.wav,0,poule,2681,24,4,5,Français,Femme,3,0.3,49.32913832,0.9971053
60c750fa33e03bdaeae60c48,9,0,2024-02-28T15:17:28.263Z,french_428.wav,0,poule,2681,24,4,5,Français,Femme,4,0.4,-66.50012676,1.23937568
60c750fa33e03bdaeae60c48,9,0,2024-02-28T15:17:28.263Z,french_428.wav,0,poule,2681,24,4,5,Français,Femme,5,0.5,-22.18417908,0.78790083
60c750fa33e03bdaeae60c48,9,0,2024-02-28T15:17:28.263Z,french_428.wav,0,poule,2681,24,4,5,Français,Femme,6,0.6,-11.64747799,1.45514656
60c750fa33e03bdaeae60c48,9,0,2024-02-28T15:17:28.263Z,french_428.wav,0,poule,2681,24,4,5,Français,Femme,7,0.7,16.78402924,1.30242105
60c750fa33e03bdaeae60c48,9,0,2024-02-28T15:17:28.263Z,french_428.wav,0,poule,2681,24,4,5,Français,Femme,8,0.8,-35.07680491,0.24404159
60c750fa33e03bdaeae60c48,9,0,2024-02-28T15:17:28.263Z,french_428.wav,0,poule,2681,24,4,5,Français,Femme,9,0.9,-47.13966378,1.54963109
60c750fa33e03bdaeae60c48,9,0,2024-02-28T15:17:28.263Z,french_428.wav,0,poule,2681,24,4,5,Français,Femme,10,1.0,-56.86354315,0.08757984
60c750fa33e03bdaeae60c48,9,0,2024-02-28T15:17:28.263Z,french_428.wav,0,poule,2681,24,4,5,Français,Femme,11,1.1,55.93889528,0.36331554
60c750fa33e03bdaeae60c48,9,0,2024-02-28T15:17:28.263Z,french_428.wav,0,poule,2681,24,4,5,Français,Femme,12,1.14141667,-72.65806652,1.16103238
60c750fa33e03bdaeae60c48,10,0,2024-02-28T15:17:28.263Z,french_580.wav,0,pull,989,24,4,5,Français,Femme,0,0.0,25.72367309,0.83672034
60c750fa33e03bdaeae60c48,10,0,2024-02-28T15:17:28.263Z,french_580.wav,0,pull,989,24,4,5,Français,Femme,1,0.1,-90.22264513,1.17700555
60c750fa33e03bdaeae60c48,10,0,2024-02-28T15:17:28.263Z,french_580.wav,0,pull,989,24,4,5,Français,Femme,2,0.2,-41.00446139,0.86031616
60c750fa33e03bdaeae60c48,10,0,2024-02-28T15:17:28.263Z,french_580.wav,0,pull,989,24,4,5,Français,Femme,3,0.3,-5.68850956,1.31884624
60c750fa33e03bdaeae60c48,10,0,2024-02-28T15:17:28.263Z,french_580.wav,0,pull,989,24,4,5,Français,Femme,4,0.4,73.58502836,0.50096962
60c750fa33e03bdaeae60c48,10,0,2024-02-28T15:17:28.263Z,french_580.wav,0,pull,989,24,4,5,Français,Femme,5,0.5,-21.93392185,1.67954592
60c750fa33e03bdaeae60c48,10,0,2024-02-28T15:17:28.263Z,french_580.wav,0,pull,989,24,4,5,Français,Femme,6,0.6,22.10254243,1.67101568
60c750fa33e03bdaeae60c48,10,0,2024-02-28T15:17:28.263Z,french_580.wav,0,pull,989,24,4,5,Français,Femme,7,0.7,-79.6738306,0.19873264
60c750fa33e03bdaeae60c48,10,0,2024-02-28T15:17:28.263Z,french_580.wav,0,pull,989,24,4,5,Français,Femme,8,0.8,-14.71861733,1.68323733
60c750fa33e03bdaeae60c48,10,0,2024-02-28T15:17:28.263Z,french_580.wav,0,pull,989,24,4,5,Français,Femme,9,0.9,-0.72546407,0.50457607
60c750fa33e03bdaeae60c48,10,0,2024-02-28T15:17:28.263Z,french_580.wav,0,pull,989,24,4,5,Français,Femme,10,1.0,14.32622757,1.32157054
60c750fa33e03bdaeae60c48,10,0,2024-02-28T15:17:28.263Z,french_580.wav,0,pull,989,24,4,5,Français,Femme,11,1.1,-17.22514553,0.77895262
60c750fa33e03bdaeae60c48,10,0,2024-02-28T15:17:28.263Z,french_580.wav,0,pull,989,24,4,5,Français,Femme,12,1.14141667,91.12485479,0.13067195
60c750fa33e03bdaeae60c48,11,0,2024-02-28T15:17:28.263Z,french_675.wav,0,pull,866,24,4,5,Français,Femme,0,0.0,-99.9073227,0.81298374
60c750fa33e03bdaeae60c48,11,0,2024-02-28T15:17:28.263Z,french_675.wav,0,pull,866,24,4,5,Français,Femme,1,0.1,6.02560795,0.95778594
60c750fa33e03bdaeae60c48,11,0,2024-02-28T15:17:28.263Z,french_675.wav,0,pull,866,24,4,5,Français,Femme,2,0.2,-87.21608726,0.60056575
60c750fa33e03bdaeae60c48,11,0,2024-02-28T15:17:28.263Z,french_675.wav,0,pull,866,24,4,5,Français,Femme,3,0.3,16.166159,1.16566092
60c750fa33e03bdaeae60c48,11,0,2024-02-28T15:17:28.263Z,french_675.wav,0,pull,866,24,4,5,Français,Femme,4,0.4,22.01437498,0.76727261
60c750fa33e03bdaeae60c48,11,0,2024-02-28T15:17:28.263Z,french_675.wav,0,pull,866,24,4,5,Français,Femme,5,0.5,-87.69710294,1.13257272
60c750fa33e03bdaeae60c48,11,0,2024-02-28T15:17:28.263Z,french_675.wav,0,pull,866,24,4,5,Français,Femme,6,0.6,54.53045846,0.2283252
60c750fa33e03bdaeae60c48,11,0,2024-02-28T15:17:28.263Z,french_675.wav,0,pull,866,24,4,5,Français,Femme,7,0.7,55.67753159,0.43844238
60c750fa33e03bdaeae60c48,11,0,2024-02-28T15:17:28.263Z,french_675.wav,0,pull,866,24,4,5,Français,Femme,8,0.8,-4.29051955,0.63329176
60c750fa33e03bdaeae60c48,11,0,2024-02-28T15:17:28.263Z,french_675.wav,0,pull,866,24,4,5,Français,Femme,9,0.9,-19.73606801,0.92733574
60c750fa33e03bdaeae60c48,11,0,2024-02-28T15:17:28.263Z,french_675.wav,0,pull,866,24,4,5,Français,Femme,10,1.0,35.95779255,1.01468224
60c750fa33e03bdaeae60c48,11,0,2024-02-28T15:17:28.263Z,french_675.wav,0,pull,866,24,4,5,Français,Femme,11,1.1,2.62132668,0.86622933
60c750fa33e03bdaeae60c48,11,0,2024-02-28T15:17:28.263Z,french_675.wav,0,pull,866,24,4,5,Français,Femme,12,1.14141667,32.43607348,0.89275337
60c750fa33e03bdaeae60c48,12,0,2024-02-28T15:17:28.263Z,french_656.wav,0,pull,1656,24,4,5,Français,Femme,0,0.0,99.97670879,0.59239102
60c750fa33e03bdaeae60c48,12,0,2024-02-28T15:17:28.263Z,french_656.wav,0,pull,1656,24,4,5,Français,Femme,1,0.1,13.13237691,0.22261498
60c750fa33e03bdaeae60c48,12,0,2024-02-28T15:17:28.263Z,french_656.wav,0,pull,1656,24,4,5,Français,Femme,2,0.2,-29.82427587,0.70596369
60c750fa33e03bdaeae60c48,12,0,2024-02-28T15:17:28.263Z,french_656.wav,0,pull,1656,24,4,5,Français,Femme,3,0.3,-97.19078199,0.83357548
60c750fa33e03bdaeae60c48,12,0,2024-02-28T15:17:28.263Z,french_656.wav,0,pull,1656,24,4,5,Français,Femme,4,0.4,16.61433788,1.93544912
60c750fa33e03bdaeae60c48,12,0,2024-02-28T15:17:28.263Z,french_656.wav,0,pull,1656,24,4,5,Français,Femme,5,0.5,-11.63206152,0.95748116
60c750fa33e03bdaeae60c48,12,0,2024-02-28T15:17:28.263Z,french_656.wav,0,pull,1656,24,4,5,Français,Femme,6,0.6,44.22844334,0.57513986
60c750fa33e03bdaeae60c48,12,0,2024-02-28T15:17:28.263Z,french_656.wav,0,pull,1656,24,4,5,Français,Femme,7,0.7,-21.12174608,0.75814333
60c750fa33e03bdaeae60c48,12,0,2024-02-28T15:17:28.263Z,french_656.wav,0,pull,1656,24,4,5,Français,Femme,8,0.8,94.81438705,1.21721037
60c750fa33e03bdaeae60c48,12,0,2024-02-28T15:17:28.263Z,french_656.wav,0,pull,1656,24,4,5,Français,Femme,9,0.9,-76.66102524,0.36719178
60c750fa33e03bdaeae60c48,12,0,2024-02-28T15:17:28.263Z,french_656.wav,0,pull,1656,24,4,5,Français,Femme,10,1.0,-7.93989674,1.2783526
60c750fa33e03bdaeae60c48,12,0,2024-02-28T15:17:28.263Z,french_656.wav,0,pull,1656,24,4,5,Français,Femme,11,1.1,30.36688089,0.57717313
60c750fa33e03bdaeae60c48,12,0,2024-02-28T15:17:28.263Z,french_656.wav,0,pull,1656,24,4,5,Français,Femme,12,1.14141667,-7.90018331,1.25999286
60c750fa33e03bdaeae60c48,13,0,2024-02-28T15:17:28.263Z,french_276.wav,0,pull,853,24,4,5,Français,Femme,0,0.0,40.65514302,0.44229483
60c750fa33e03bdaeae60c48,13,0,2024-02-28T15:17:28.263Z,french_276.wav,0,pull,853,24,4,5,Français,Femme,1,0.1,35.33846619,0.89539219
60c750fa33e03bdaeae60c48,13,0,2024-02-28T15:17:28.263Z,french_276.wav,0,pull,853,24,4,5,Français,Femme,2,0.2,14.42518211,1.45315262
60c750fa33e03bdaeae60c48,13,0,2024-02-28T15:17:28.263Z,french_276.wav,0,pull,853,24,4,5,Français,Femme,3,0.3,-4.63950573,1.70162713
60c750fa33e03bdaeae60c48,13,0,2024-02-28T15:17:28.263Z,french_276.wav,0,pull,853,24,4,5,Français,Femme,4,0.4,9.05959314,1.23185792
60c750fa33e03bdaeae60c48,13,0,2024-02-28T15:17:28.263Z,french_276.wav,0,pull,853,24,4,5,Français,Femme,5,0.5,95.05175104,0.62230675
60c750fa33e03bdaeae60c48,13,0,2024-02-28T15:17:28.263Z,french_276.wav,0,pull,853,24,4,5,Français,Femme,6,0.6,62.11081424,1.49488141
60c750fa33e03bdaeae60c48,13,0,2024-02-28T15:17:28.263Z,french_276.wav,0,pull,853,24,4,5,Français,Femme,7,0.7,97.66609538,1.00027742
60c750fa33e03bdaeae60c48,13,0,2024-02-28T15:17:28.263Z,french_276.wav,0,pull,853,24,4,5,Français,Femme,8,0.8,-21.8766448,1.123671
60c750fa33e03bdaeae60c48,13,0,2024-02-28T15:17:28.263Z,french_276.wav,0,pull,853,24,4,5,Français,Femme,9,0.9,-33.94139848,0.08422109
60c750fa33e03bdaeae60c48,13,0,2024-02-28T15:17:28.263Z,french_276.wav,0,pull,853,24,4,5,Français,Femme,10,1.0,73.91649709,0.53190932
60c750fa33e03bdaeae60c48,13,0,2024-02-28T15:17:28.263Z,french_276.wav,0,pull,853,24,4,5,Français,Femme,11,1.1,-97.42202088,0.78864338
60c750fa33e03bdaeae60c48,13,0,2024-02-28T15:17:28.263Z,french_276.wav,0,pull,853,24,4,5,Français,Femme,12,1.14141667,35.80766788,0.98569661
60c750fa33e03bdaeae60c48,14,0,2024-02-28T15:17:28.263Z,french_23.wav,0,pull,700,24,4,5,Français,Femme,0,0.0,94.27150104,0.68588866
60c750fa33e03bdaeae60c48,14,0,2024-02-28T15:17:28.263Z,french_23.wav,0,pull,700,24,4,5,Français,Femme,1,0.1,-80.41139797,0.79728373
60c750fa33e03bdaeae60c48,14,0,2024-02-28T15:17:28.263Z,french_23.wav,0,pull,700,24,4,5,Français,Femme,2,0.2,-40.00077648,1.69486433
60c750fa33e03bdaeae60c48,14,0,2024-02-28T15:17:28.263Z,french_23.wav,0,pull,700,24,4,5,Français,Femme,3,0.3,-47.9206401,1.07510551
60c750fa33e03bdaeae60c48,14,0,2024-02-28T15:17:28.263Z,french_23.wav,0,pull,700,24,4,5,Français,Femme,4,0.4,-40.2970177,0.70826522
60c750fa33e03bdaeae60c48,14,0,2024-02-28T15:17:28.263Z,french_23.wav,0,pull,700,24,4,5,Français,Femme,5,0.5,-11.70208262,1.48791079
60c750fa33e03bdaeae60c48,14,0,2024-02-28T15:17:28.263Z,french_23.wav,0,pull,700,24,4,5,Français,Femme,6,0.6,-73.01945175,1.35299151
60c750fa33e03bdaeae60c48,14,0,2024-02-28T15:17:28.263Z,french_23.wav,0,pull,700,24,4,5,Français,Femme,7,0.7,-69.64342933,1.04861918
60c750fa33e03bdaeae60c48,14,0,2024-02-28T15:17:28.263Z,french_23.wav,0,pull,700,24,4,5,Français,Femme,8,0.8,39.43111503,1.24336041
60c750fa33e03bdaeae60c48,14,0,2024-02-28T15:17:28.263Z,french_23.wav,0,pull,700,24,4,5,Français,Femme,9,0.9,-87.77522393,0.25284501
60c750fa33e03bdaeae60c48,14,0,2024-02-28T15:17:28.263Z,french_23.wav,0,pull,700,24,4,5,Français,Femme,10,1.0,50.22964222,1.1347567
60c750fa33e03bdaeae60c48,14,0,2024-02-28T15:17:28.263Z,french_23.wav,0,pull,700,24,4,5,Français,Femme,11,1.1,38.35462342,0.86795362
60c750fa33e03bdaeae60c48,14,0,2024-02-28T15:17:28.263Z,french_23.wav,0,pull,700,24,4,5,Français,Femme,12,1.14141667,7.98362759,1.42379585
60c750fa33e03bdaeae60c48,15,0,2024-02-28T15:17:28.263Z,french_210.wav,0,pull,582,24,4,5,Français,Femme,0,0.0,46.17077018,0.5132537
60c750fa33e03bdaeae60c48,15,0,2024-02-28T15:17:28.263Z,french_210.wav,0,pull,582,24,4,5,Français,Femme,1,0.1,25.55565597,0.67749198
60c750fa33e03bdaeae60c48,15,0,2024-02-28T15:17:28.263Z,french_210.wav,0,pull,582,24,4,5,Français,Femme,2,0.2,36.32492907,1.14472202
60c750fa33e03bdaeae60c48,15,0,2024-02-28T15:17:28.263Z,french_210.wav,0,pull,582,24,4,5,Français,Femme,3,0.3,-9.73563195,1.55169683
60c750fa33e03bdaeae60c48,15,0,2024-02-28T15:17:28.263Z,french_210.wav,0,pull,582,24,4,5,Français,Femme,4,0.4,51.38553925,0.41542617
60c750fa33e03bdaeae60c48,15,0,2024-02-28T15:17:28.263Z,french_210.wav,0,pull,582,24,4,5,Français,Femme,5,0.5,-7.69265437,1.65520704
60c750fa33e03bdaeae60c48,15,0,2024-02-28T15:17:28.263Z,french_210.wav,0,pull,582,24,4,5,Français,Femme,6,0.6,-6.88231676,0.27196657
60c750fa33e03bdaeae60c48,15,0,2024-02-28T15:17:28.263Z,french_210.wav,0,pull,582,24,4,5,Français,Femme,7,0.7,-70.20980639,0.37685367
60c750fa33e03bdaeae60c48,15,0,2024-02-28T15:17:28.263Z,french_210.wav,0,pull,582,24,4,5,Français,Femme,8,0.8,-38.00293126,0.10674289
60c750fa33e03bdaeae60c48,15,0,2024-02-28T15:17:28.263Z,french_210.wav,0,pull,582,24,4,5,Français,Femme,9,0.9,31.75411594,0.64849757
60c750fa33e03bdaeae60c48,15,0,2024-02-28T15:17:28.263Z,french_210.wav,0,pull,582,24,4,5,Français,Femme,10,1.0,72.77428796,1.72661409
60c750fa33e03bdaeae60c48,15,0,2024-02-28T15:17:28.263Z,french_210.wav,0,pull,582,24,4,5,Français,Femme,11,1.1,-58.88778719,1.75041049
60c750fa33e03bdaeae60c48,15,0,2024-02-28T15:17:28.263Z,french_210.wav,0,pull,582,24,4,5,Français,Femme,12,1.14141667,3.90767487,0.37160501
60c750fa33e03bdaeae60c48,16,0,2024-02-28T15:17:28.263Z,french_421.wav,0,pull,621,24,4,5,Français,Femme,0,0.0,45.68225875,1.9538806
60c750fa33e03bdaeae60c48,16,0,2024-02-28T15:17:28.263Z,french_421.wav,0,pull,621,24,4,5,Français,Femme,1,0.1,20.77412009,0.51850619
60c750fa33e03bdaeae60c48,16,0,2024-02-28T15:17:28.263Z,french_421.wav,0,pull,621,24,4,5,Français,Femme,2,0.2,12.9169451,0.76737597
60c750fa33e03bdaeae60c48,16,0,2024-02-28T15:17:28.263Z,french_421.wav,0,pull,621,24,4,5,Français,Femme,3,0.3,53.02430198,0.87704264
60c750fa33e03bdaeae60c48,16,0,2024-02-28T15:17:28.263Z,french_421.wav,0,pull,621,24,4,5,Français,Femme,4,0.4,83.41126646,0.09013343
60c750fa33e03bdaeae60c48,16,0,2024-02-28T15:17:28.263Z,french_421.wav,0,pull,621,24,4,5,Français,Femme,5,0.5,27.70162445,1.84345299
60c750fa33e03bdaeae60c48,16,0,2024-02-28T15:17:28.263Z,french_421.wav,0,pull,621,24,4,5,Français,Femme,6,0.6,-9.39660641,1.84276428
60c750fa33e03bdaeae60c48,16,0,2024-02-28T15:17:28.263Z,french_421.wav,0,pull,621,24,4,5,Français,Femme,7,0.7,75.75645777,1.09011778
60c750fa33e03bdaeae60c48,16,0,2024-02-28T15:17:28.263Z,french_421.wav,0,pull,621,24,4,5,Français,Femme,8,0.8,24.8906921,1.12131544
60c750fa33e03bdaeae60c48,16,0,2024-02-28T15:17:28.263Z,french_421.wav,0,pull,621,24,4,5,Français,Femme,9,0.9,25.41289802,1.94516148
60c750fa33e03bdaeae60c48,16,0,2024-02-28T15:17:28.263Z,french_421.wav,0,pull,621,24,4,5,Français,Femme,10,1.0,27.36402577,0.42837326
60c750fa33e03bdaeae60c48,16,0,2024-02-28T15:17:28.263Z,french_421.wav,0,pull,621,24,4,5,Français,Femme,11,1.1,-7.62413192,0.5442249
60c750fa33e03bdaeae60c48,16,0,2024-02-28T15:17:28.263Z,french_421.wav,0,pull,621,24,4,5,Français,Femme,12,1.14141667,-0.69383243,1.37977126
60c750fa33e03bdaeae60c48,17,0,2024-02-28T15:17:28.263Z,french_790.wav,0,poule,1856,24,4,5,Français,Femme,0,0.0,-57.89390183,1.82865837
60c750fa33e03bdaeae60c48,17,0,2024-02-28T15:17:28.263Z,french_790.wav,0,poule,1856,24,4,5,Français,Femme,1,0.1,79.17034047,0.89920795
60c750fa33e03bdaeae60c48,17,0,2024-02-28T15:17:28.263Z,french_790.wav,0,poule,1856,24,4,5,Français,Femme,2,0.2,61.93580685,1.70315706
60c750fa33e03bdaeae60c48,17,0,2024-02-28T15:17:28.263Z,french_790.wav,0,poule,1856,24,4,5,Français,Femme,3,0.3,73.83766419,0.63562482
60c750fa33e03bdaeae60c48,17,0,2024-02-28T15:17:28.263Z,french_790.wav,0,poule,1856,24,4,5,Français,Femme,4,0.4,12.23224582,1.66129943
60c750fa33e03bdaeae60c48,17,0,2024-02-28T15:17:28.263Z,french_790.wav,0,poule,1856,24,4,5,Français,Femme,5,0.5,-36.20570809,1.84264673
60c750fa33e03bdaeae60c48,17,0,2024-02-28T15:17:28.263Z,french_790.wav,0,poule,1856,24,4,5,Français,Femme,6,0.6,-35.80418352,1.991074
60c750fa33e03bdaeae60c48,17,0,2024-02-28T15:17:28.263Z,french_790.wav,0,poule,1856,24,4,5,Français,Femme,7,0.7,69.07593122,1.03555826
60c750fa33e03bdaeae60c48,17,0,2024-02-28T15:17:28.263Z,french_790.wav,0,poule,1856,24,4,5,Français,Femme,8,0.8,53.97673234,1.17116983
60c750fa33e03bdaeae60c48,17,0,2024-02-28T15:17:28.263Z,french_790.wav,0,poule,1856,24,4,5,Français,Femme,9,0.9,5.33736996,0.91705366
60c750fa33e03bdaeae60c48,17,0,2024-02-28T15:17:28.263Z,french_790.wav,0,poule,1856,24,4,5,Français,Femme,10,1.0,-61.7851313,0.69782623
60c750fa33e03bdaeae60c48,17,0,2024-02-28T15:17:28.263Z,french_790.wav,0,poule,1856,24,4,5,Français,Femme,11,1.1,-57.04830132,0.3273665
60c750fa33e03bdaeae60c48,17,0,2024-02-28T15:17:28.263Z,french_790.wav,0,poule,1856,24,4,5,Français,Femme,12,1.14141667,-40.58679678,1.69019386
60c750fa33e03bdaeae60c48,18,0,2024-02-28T15:17:28.263Z,french_529.wav,0,pull,850,24,4,5,Français,Femme,0,0.0,68.21405675,0.55022537
60c750fa33e03bdaeae60c48,18,0,2024-02-28T15:17:28.263Z,french_529.wav,0,pull,850,24,4,5,Français,Femme,1,0.1,-26.26254382,1.84018601
60c750fa33e03bdaeae60c48,18,0,2024-02-28T15:17:28.263Z,french_529.wav,0,pull,850,24,4,5,Français,Femme,2,0.2,35.91187259,1.28391887
60c750fa33e03bdaeae60c48,18,0,2024-02-28T15:17:28.263Z,french_529.wav,0,pull,850,24,4,5,Français,Femme,3,0.3,-90.62874651,0.7250288
60c750fa33e03bdaeae60c48,18,0,2024-02-28T15:17:28.263Z,french_529.wav,0,pull,850,24,4,5,Français,Femme,4,0.4,48.9626863,0.78464607
60c750fa33e03bdaeae60c48,18,0,2024-02-28T15:17:28.263Z,french_529.wav,0,pull,850,24,4,5,Français,Femme,5,0.5,-34.38890804,0.26698233
60c750fa33e03bdaeae60c48,18,0,2024-02-28T15:17:28.263Z,french_529.wav,0,pull,850,24,4,5,Français,Femme,6,0.6,-26.35114845,0.62081799
60c750fa33e03bdaeae60c48,18,0,2024-02-28T15:17:28.263Z,french_529.wav,0,pull,850,24,4,5,Français,Femme,7,0.7,76.17282181,1.40858926
60c750fa33e03bdaeae60c48,18,0,2024-02-28T15:17:28.263Z,french_529.wav,0,pull,850,24,4,5,Français,Femme,8,0.8,-86.28711417,0.07240201
60c750fa33e03bdaeae60c48,18,0,2024-02-28T15:17:28.263Z,french_529.wav,0,pull,850,24,4,5,Français,Femme,9,0.9,-66.41984683,0.58270484
60c750fa33e03bdaeae60c48,18,0,2024-02-28T15:17:28.263Z,french_529.wav,0,pull,850,24,4,5,Français,Femme,10,1.0,74.29634714,0.30597621
60c750fa33e03bdaeae60c48,18,0,2024-02-28T15:17:28.263Z,french_529.wav,0,pull,850,24,4,5,Français,Femme,11,1.1,-35.97062469,0.43438998
60c750fa33e03bdaeae60c48,18,0,2024-02-28T15:17:28.263Z,french_529.wav,0,pull,850,24,4,5,Français,Femme,12,1.14141667,81.32540921,1.7101157
60c750fa33e03bdaeae60c48,19,0,2024-02-28T15:17:28.263Z,french_122.wav,0,poule,784,24,4,5,Français,Femme,0,0.0,-33.06985715,0.6620336
60c750fa33e03bdaeae60c48,19,0,2024-02-28T15:17:28.263Z,french_122.wav,0,poule,784,24,4,5,Français,Femme,1,0.1,13.32039916,0.17288906
60c750fa33e03bdaeae60c48,19,0,2024-02-28T15:17:28.263Z,french_122.wav,0,poule,784,24,4,5,Français,Femme,2,0.2,-35.94768751,0.95336402
60c750fa33e03bdaeae60c48,19,0,2024-02-28T15:17:28.263Z,french_122.wav,0,poule,784,24,4,5,Français,Femme,3,0.3,-81.35154794,0.61323124
60c750fa33e03bdaeae60c48,19,0,2024-02-28T15:17:28.263Z,french_122.wav,0,poule,784,24,4,5,Français,Femme,4,0.4,-26.61254554,1.26500906
60c750fa33e03bdaeae60c48,19,0,2024-02-28T15:17:28.263Z,french_122.wav,0,poule,784,24,4,5,Français,Femme,5,0.5,-70.60443518,0.87969802
60c750fa33e03bdaeae60c48,19,0,2024-02-28T15:17:28.263Z,french_122.wav,0,poule,784,24,4,5,Français,Femme,6,0.6,66.70275378,1.46043964
60c750fa33e03bdaeae60c48,19,0,2024-02-28T15:17:28.263Z,french_122.wav,0,poule,784,24,4,5,Français,Femme,7,0.7,85.84881293,1.30832464
60c750fa33e03bdaeae60c48,19,0,2024-02-28T15:17:28.263Z,french_122.wav,0,poule,784,24,4,5,Français,Femme,8,0.8,1.30883473,1.14771565
60c750fa33e03bdaeae60c48,19,0,2024-02-28T15:17:28.263Z,french_122.wav,0,poule,784,24,4,5,Français,Femme,9,0.9,93.34161436,1.19803017
60c750fa33e03bdaeae60c48,19,0,2024-02-28T15:17:28.263Z,french_122.wav,0,poule,784,24,4,5,Français,Femme,10,1.0,-35.43272835,1.27700442
60c750fa33e03bdaeae60c48,19,0,2024-02-28T15:17:28.263Z,french_122.wav,0,poule,784,24,4,5,Français,Femme,11,1.1,34.59442217,1.64776975
60c750fa33e03bdaeae60c48,19,0,2024-02-28T15:17:28.263Z,french_122.wav,0,poule,784,24,4,5,Français,Femme,12,1.14141667,-52.05568486,1.36305655
60c750fa33e03bdaeae60c48,20,0,2024-02-28T15:17:28.263Z,french_807.wav,0,poule,2596,24,4,5,Français,Femme,0,0.0,-80.44919657,1.01791128
60c750fa33e03bdaeae60c48,20,0,2024-02-28T15:17:28.263Z,french_807.wav,0,poule,2596,24,4,5,Français,Femme,1,0.1,-34.48727533,0.51127266
60c750fa33e03bdaeae60c48,20,0,2024-02-28T15:17:28.263Z,french_807.wav,0,poule,2596,24,4,5,Français,Femme,2,0.2,-27.85444657,1.03770419
60c750fa33e03bdaeae60c48,20,0,2024-02-28T15:17:28.263Z,french_807.wav,0,poule,2596,24,4,5,Français,Femme,3,0.3,-0.73618666,1.5684914
60c750fa33e03bdaeae60c48,20,0,2024-02-28T15:17:28.263Z,french_807.wav,0,poule,2596,24,4,5,Français,Femme,4,0.4,0.77626811,0.83417196
60c750fa33e03bdaeae60c48,20,0,2024-02-28T15:17:28.263Z,french_807.wav,0,poule,2596,24,4,5,Français,Femme,5,0.5,-75.08426277,0.04387423
60c750fa33e03bdaeae60c48,20,0,2024-02-28T15:17:28.263Z,french_807.wav,0,poule,2596,24,4,5,Français,Femme,6,0.6,20.03798274,0.37017036
60c750fa33e03bdaeae60c48,20,0,2024-02-28T15:17:28.263Z,french_807.wav,0,poule,2596,24,4,5,Français,Femme,7,0.7,46.24294154,1.90217427
60c750fa33e03bdaeae60c48,20,0,2024-02-28T15:17:28.263Z,french_807.wav,0,poule,2596,24,4,5,Français,Femme,8,0.8,22.03140958,0.74355786
60c750fa33e03bdaeae60c48,20,0,2024-02-28T15:17:28.263Z,french_807.wav,0,poule,2596,24,4,5,Français,Femme,9,0.9,26.33483047,0.1834128
60c750fa33e03bdaeae60c48,20,0,2024-02-28T15:17:28.263Z,french_807.wav,0,poule,2596,24,4,5,Français,Femme,10,1.0,-51.28476198,1.60996589
60c750fa33e03bdaeae60c48,20,0,2024-02-28T15:17:28.263Z,french_807.wav,0,poule,2596,24,4,5,Français,Femme,11,1.1,-29.39920635,1.08150991
60c750fa33e03bdaeae60c48,20,0,2024-02-28T15:17:28.263Z,french_807.wav,0,poule,2596,24,4,5,Français,Femme,12,1.14141667,1.31536819,0.63923462
60c750fa33e03bdaeae60c48,21,0,2024-02-28T15:17:28.263Z,french_400.wav,0,pull,1087,24,4,5,Français,Femme,0,0.0,-88.7641604,0.39961666
60c750fa33e03bdaeae60c48,21,0,2024-02-28T15:17:28.263Z,french_400.wav,0,pull,1087,24,4,5,Français,Femme,1,0.1,38.97629482,1.26870127
60c750fa33e03bdaeae60c48,21,0,2024-02-28T15:17:28.263Z,french_400.wav,0,pull,1087,24,4,5,Français,Femme,2,0.2,12.50030117,0.32037944
60c750fa33e03bdaeae60c48,21,0,2024-02-28T15:17:28.263Z,french_400.wav,0,pull,1087,24,4,5,Français,Femme,3,0.3,56.00968509,0.09730503
60c750fa33e03bdaeae60c48,21,0,2024-02-28T15:17:28.263Z,french_400.wav,0,pull,1087,24,4,5,Français,Femme,4,0.4,-31.24455859,0.78902453
60c750fa33e03bdaeae60c48,21,0,2024-02-28T15:17:28.263Z,french_400.wav,0,pull,1087,24,4,5,Français,Femme,5,0.5,-72.55550381,0.78590924
60c750fa33e03bdaeae60c48,21,0,2024-02-28T15:17:28.263Z,french_400.wav,0,pull,1087,24,4,5,Français,Femme,6,0.6,35.98414257,0.44916275
60c750fa33e03bdaeae60c48,21,0,2024-02-28T15:17:28.263Z,french_400.wav,0,pull,1087,24,4,5,Français,Femme,7,0.7,72.57136852,0.40242325
60c750fa33e03bdaeae60c48,21,0,2024-02-28T15:17:28.263Z,french_400.wav,0,pull,1087,24,4,5,Français,Femme,8,0.8,-11.32934593,0.33933548
60c750fa33e03bdaeae60c48,21,0,2024-02-28T15:17:28.263Z,french_400.wav,0,pull,1087,24,4,5,Français,Femme,9,0.9,-46.40511645,0.56145484
60c750fa33e03bdaeae60c48,21,0,2024-02-28T15:17:28.263Z,french_400.wav,0,pull,1087,24,4,5,Français,Femme,10,1.0,-68.71252184,0.26747814
60c750fa33e03bdaeae60c48,21,0,2024-02-28T15:17:28.263Z,french_400.wav,0,pull,1087,24,4,5,Français,Femme,11,1.1,75.69788429,0.93231975
60c750fa33e03bdaeae60c48,21,0,2024-02-28T15:17:28.263Z,french_400.wav,0,pull,1087,24,4,5,Français,Femme,12,1.14141667,88.08833091,1.15525068
60c750fa33e03bdaeae60c48,22,0,2024-02-28T15:17:28.263Z,french_64.wav,0,poule,2415,24,4,5,Français,Femme,0,0.0,81.21142121,1.90047577
60c750fa33e03bdaeae60c48,22,0,2024-02-28T15:17:28.263Z,french_64.wav,0,poule,2415,24,4,5,Français,Femme,1,0.1,52.51696492,0.82684284
60c750fa33e03bdaeae60c48,22,0,2024-02-28T15:17:28.263Z,french_64.wav,0,poule,2415,24,4,5,Français,Femme,2,0.2,-39.17561774,1.63922719
60c750fa33e03bdaeae60c48,22,0,2024-02-28T15:17:28.263Z,french_64.wav,0,poule,2415,24,4,5,Français,Femme,3,0.3,-2.55926089,1.09796892
60c750fa33e03bdaeae60c48,22,0,2024-02-28T15:17:28.263Z,french_64.wav,0,poule,2415,24,4,5,Français,Femme,4,0.4,-19.82016782,1.84824586
60c750fa33e03bdaeae60c48,22,0,2024-02-28T15:17:28.263Z,french_64.wav,0,poule,2415,24,4,5,Français,Femme,5,0.5,-96.27205137,0.08398419
60c750fa33e03bdaeae60c48,22,0,2024-02-28T15:17:28.263Z,french_64.wav,0,poule,2415,24,4,5,Français,Femme,6,0.6,-91.08602274,1.68744275
60c750fa33e03bdaeae60c48,22,0,2024-02-28T15:17:28.263Z,french_64.wav,0,poule,2415,24,4,5,Français,Femme,7,0.7,21.95313621,1.11317645
60c750fa33e03bdaeae60c48,22,0,2024-02-28T15:17:28.263Z,french_64.wav,0,poule,2415,24,4,5,Français,Femme,8,0.8,-83.87757175,0.69266869
60c750fa33e03bdaeae60c48,22,0,2024-02-28T15:17:28.263Z,french_64.wav,0,poule,2415,24,4,5,Français,Femme,9,0.9,-15.46224959,1.31844382
60c750fa33e03bdaeae60c48,22,0,2024-02-28T15:17:28.263Z,french_64.wav,0,poule,2415,24,4,5,Français,Femme,10,1.0,99.28922275,1.05971477
60c750fa33e03bdaeae60c48,22,0,2024-02-28T15:17:28.263Z,french_64.wav,0,poule,2415,24,4,5,Français,Femme,11,1.1,-34.89576086,1.50408115
60c750fa33e03bdaeae60c48,22,0,2024-02-28T15:17:28.263Z,french_64.wav,0,poule,2415,24,4,5,Français,Femme,12,1.14141667,-88.74649368,0.80519135
60c750fa33e03bdaeae60c48,23,0,2024-02-28T15:17:28.263Z,french_469.wav,0,poule,576,24,4,5,Français,Femme,0,0.0,-11.84414354,1.70542515
60c750fa33e03bdaeae60c48,23,0,2024-02-28T15:17:28.263Z,french_469.wav,0,poule,576,24,4,5,Français,Femme,1,0.1,-48.40182789,1.16680679
60c750fa33e03bdaeae60c48,23,0,2024-02-28T15:17:28.263Z,french_469.wav,0,poule,576,24,4,5,Français,Femme,2,0.2,-1.62228667,1.49863903
60c750fa33e03bdaeae60c48,23,0,2024-02-28T15:17:28.263Z,french_469.wav,0,poule,576,24,4,5,Français,Femme,3,0.3,48.75005327,1.41560569
60c750fa33e03bdaeae60c48,23,0,2024-02-28T15:17:28.263Z,french_469.wav,0,poule,576,24,4,5,Français,Femme,4,0.4,-26.14061485,1.39507228
60c750fa33e03bdaeae60c48,23,0,2024-02-28T15:17:28.263Z,french_469.wav,0,poule,576,24,4,5,Français,Femme,5,0.5,92.71891808,0.0638533
60c750fa33e03bdaeae60c48,23,0,2024-02-28T15:17:28.263Z,french_469.wav,0,poule,576,24,4,5,Français,Femme,6,0.6,-16.05969494,0.05359306
60c750fa33e03bdaeae60c48,23,0,2024-02-28T15:17:28.263Z,french_469.wav,0,poule,576,24,4,5,Français,Femme,7,0.7,-24.84536451,1.50590241
60c750fa33e03bdaeae60c48,23,0,2024-02-28T15:17:28.263Z,french_469.wav,0,poule,576,24,4,5,Français,Femme,8,0.8,45.28109884,1.38923205
60c750fa33e03bdaeae60c48,23,0,2024-02-28T15:17:28.263Z,french_469.wav,0,poule,576,24,4,5,Français,Femme,9,0.9,86.67333684,1.69756748
60c750fa33e03bdaeae60c48,23,0,2024-02-28T15:17:28.263Z,french_469.wav,0,poule,576,24,4,5,Français,Femme,10,1.0,-92.87325643,1.98155922
60c750fa33e03bdaeae60c48,23,0,2024-02-28T15:17:28.263Z,french_469.wav,0,poule,576,24,4,5,Français,Femme,11,1.1,4.17895767,1.36025463
60c750fa33e03bdaeae60c48,23,0,2024-02-28T15:17:28.263Z,french_469.wav,0,poule,576,24,4,5,Français,Femme,12,1.14141667,50.19046743,1.37929818
60c750fa33e03bdaeae60c48,24,0,2024-02-28T15:17:28.263Z,french_785.wav,0,pull,538,24,4,5,Français,Femme,0,0.0,31.0161768,1.90021395
60c750fa33e03bdaeae60c48,24,0,2024-02-28T15:17:28.263Z,french_785.wav,0,pull,538,24,4,5,Français,Femme,1,0.1,0.0889317705,0.95233189
60c750fa33e03bdaeae60c48,24,0,2024-02-28T15:17:28.263Z,french_785.wav,0,pull,538,24,4,5,Français,Femme,2,0.2,46.8782722,1.49745041
60c750fa33e03bdaeae60c48,24,0,2024-02-28T15:17:28.263Z,french_785.wav,0,pull,538,24,4,5,Français,Femme,3,0.3,20.2217261,1.87832474
60c750fa33e03bdaeae60c48,24,0,2024-02-28T15:17:28.263Z,french_785.wav,0,pull,538,24,4,5,Français,Femme,4,0.4,-75.3235401,0.82836314
60c750fa33e03bdaeae60c48,24,0,2024-02-28T15:17:28.263Z,french_785.wav,0,pull,538,24,4,5,Français,Femme,5,0.5,-43.9350846,1.74071043
60c750fa33e03bdaeae60c48,24,0,2024-02-28T15:17:28.263Z,french_785.wav,0,pull,538,24,4,5,Français,Femme,6,0.6,-25.4763074,0.83584892
60c750fa33e03bdaeae60c48,24,0,2024-02-28T15:17:28.263Z,french_785.wav,0,pull,538,24,4,5,Français,Femme,7,0.7,57.0842413,0.40885784
60c750fa33e03bdaeae60c48,24,0,2024-02-28T15:17:28.263Z,french_785.wav,0,pull,538,24,4,5,Français,Femme,8,0.8,-10.8459606,0.0344692
60c750fa33e03bdaeae60c48,24,0,2024-02-28T15:17:28.263Z,french_785.wav,0,pull,538,24,4,5,Français,Femme,9,0.9,34.0534095,0.38075821
60c750fa33e03bdaeae60c48,24,0,2024-02-28T15:17:28.263Z,french_785.wav,0,pull,538,24,4,5,Français,Femme,10,1.0,-48.9572729,0.97802108
60c750fa33e03bdaeae60c48,24,0,2024-02-28T15:17:28.263Z,french_785.wav,0,pull,538,24,4,5,Français,Femme,11,1.1,41.6078861,1.78850331
60c750fa33e03bdaeae60c48,24,0,2024-02-28T15:17:28.263Z,french_785.wav,0,pull,538,24,4,5,Français,Femme,12,1.14141667,89.2588617,0.64465129
60c750fa33e03bdaeae60c48,25,0,2024-02-28T15:17:28.263Z,french_346.wav,0,poule,1937,24,4,5,Français,Femme,0,0.0,67.18638051,0.75562578
60c750fa33e03bdaeae60c48,25,0,2024-02-28T15:17:28.263Z,french_346.wav,0,poule,1937,24,4,5,Français,Femme,1,0.1,-53.72817021,1.96814797
60c750fa33e03bdaeae60c48,25,0,2024-02-28T15:17:28.263Z,french_346.wav,0,poule,1937,24,4,5,Français,Femme,2,0.2,-98.82675461,0.66238493
60c750fa33e03bdaeae60c48,25,0,2024-02-28T15:17:28.263Z,french_346.wav,0,poule,1937,24,4,5,Français,Femme,3,0.3,81.03283057,0.69352013
60c750fa33e03bdaeae60c48,25,0,2024-02-28T15:17:28.263Z,french_346.wav,0,poule,1937,24,4,5,Français,Femme,4,0.4,40.62024646,1.9757751
60c750fa33e03bdaeae60c48,25,0,2024-02-28T15:17:28.263Z,french_346.wav,0,poule,1937,24,4,5,Français,Femme,5,0.5,40.24818958,1.26469529
60c750fa33e03bdaeae60c48,25,0,2024-02-28T15:17:28.263Z,french_346.wav,0,poule,1937,24,4,5,Français,Femme,6,0.6,73.99457353,1.9973896
60c750fa33e03bdaeae60c48,25,0,2024-02-28T15:17:28.263Z,french_346.wav,0,poule,1937,24,4,5,Français,Femme,7,0.7,-37.99947694,0.34186283
60c750fa33e03bdaeae60c48,25,0,2024-02-28T15:17:28.263Z,french_346.wav,0,poule,1937,24,4,5,Français,Femme,8,0.8,23.54785661,0.20007718
60c750fa33e03bdaeae60c48,25,0,2024-02-28T15:17:28.263Z,french_346.wav,0,poule,1937,24,4,5,Français,Femme,9,0.9,84.67325281,0.13425269
60c750fa33e03bdaeae60c48,25,0,2024-02-28T15:17:28.263Z,french_346.wav,0,poule,1937,24,4,5,Français,Femme,10,1.0,17.08617407,1.72774193
60c750fa33e03bdaeae60c48,25,0,2024-02-28T15:17:28.263Z,french_346.wav,0,poule,1937,24,4,5,Français,Femme,11,1.1,-3.95750505,1.47153835
60c750fa33e03bdaeae60c48,25,0,2024-02-28T15:17:28.263Z,french_346.wav,0,poule,1937,24,4,5,Français,Femme,12,1.14141667,-9.87393999,1.38090812
60c750fa33e03bdaeae60c48,26,0,2024-02-28T15:17:28.263Z,french_945.wav,0,pull,1891,24,4,5,Français,Femme,0,0.0,-58.28277896,0.8421425
60c750fa33e03bdaeae60c48,26,0,2024-02-28T15:17:28.263Z,french_945.wav,0,pull,1891,24,4,5,Français,Femme,1,0.1,27.14985146,1.1142144
60c750fa33e03bdaeae60c48,26,0,2024-02-28T15:17:28.263Z,french_945.wav,0,pull,1891,24,4,5,Français,Femme,2,0.2,94.7720972,0.32042823
60c750fa33e03bdaeae60c48,26,0,2024-02-28T15:17:28.263Z,french_945.wav,0,pull,1891,24,4,5,Français,Femme,3,0.3,-42.41115059,0.61933591
60c750fa33e03bdaeae60c48,26,0,2024-02-28T15:17:28.263Z,french_945.wav,0,pull,1891,24,4,5,Français,Femme,4,0.4,46.08048688,1.24952748
60c750fa33e03bdaeae60c48,26,0,2024-02-28T15:17:28.263Z,french_945.wav,0,pull,1891,24,4,5,Français,Femme,5,0.5,-33.77336262,0.88755445
60c750fa33e03bdaeae60c48,26,0,2024-02-28T15:17:28.263Z,french_945.wav,0,pull,1891,24,4,5,Français,Femme,6,0.6,-35.16914873,1.04604302
60c750fa33e03bdaeae60c48,26,0,2024-02-28T15:17:28.263Z,french_945.wav,0,pull,1891,24,4,5,Français,Femme,7,0.7,-11.94165971,0.17861538
60c750fa33e03bdaeae60c48,26,0,2024-02-28T15:17:28.263Z,french_945.wav,0,pull,1891,24,4,5,Français,Femme,8,0.8,-20.31759637,1.00371171
60c750fa33e03bdaeae60c48,26,0,2024-02-28T15:17:28.263Z,french_945.wav,0,pull,1891,24,4,5,Français,Femme,9,0.9,-53.92015861,0.12895237
60c750fa33e03bdaeae60c48,26,0,2024-02-28T15:17:28.263Z,french_945.wav,0,pull,1891,24,4,5,Français,Femme,10,1.0,-72.61626973,0.96808113
60c750fa33e03bdaeae60c48,26,0,2024-02-28T15:17:28.263Z,french_945.wav,0,pull,1891,24,4,5,Français,Femme,11,1.1,40.14826696,0.46056741
60c750fa33e03bdaeae60c48,26,0,2024-02-28T15:17:28.263Z,french_945.wav,0,pull,1891,24,4,5,Français,Femme,12,1.14141667,-59.3404278,0.41198006
60c750fa33e03bdaeae60c48,27,0,2024-02-28T15:17:28.263Z,french_492.wav,0,poule,818,24,4,5,Français,Femme,0,0.0,62.67168513,0.43911588
60c750fa33e03bdaeae60c48,27,0,2024-02-28T15:17:28.263Z,french_492.wav,0,poule,818,24,4,5,Français,Femme,1,0.1,94.72344934,1.05025764
60c750fa33e03bdaeae60c48,27,0,2024-02-28T15:17:28.263Z,french_492.wav,0,poule,818,24,4,5,Français,Femme,2,0.2,-60.35828135,1.43296606
60c750fa33e03bdaeae60c48,27,0,2024-02-28T15:17:28.263Z,french_492.wav,0,poule,818,24,4,5,Français,Femme,3,0.3,-88.06504121,1.08587419
60c750fa33e03bdaeae60c48,27,0,2024-02-28T15:17:28.263Z,french_492.wav,0,poule,818,24,4,5,Français,Femme,4,0.4,-6.78932349,1.96972539
60c750fa33e03bdaeae60c48,27,0,2024-02-28T15:17:28.263Z,french_492.wav,0,poule,818,24,4,5,Français,Femme,5,0.5,-47.82180806,1.20621652
60c750fa33e03bdaeae60c48,27,0,2024-02-28T15:17:28.263Z,french_492.wav,0,poule,818,24,4,5,Français,Femme,6,0.6,-8.91064001,1.316574
60c750fa33e03bdaeae60c48,27,0,2024-02-28T15:17:28.263Z,french_492.wav,0,poule,818,24,4,5,Français,Femme,7,0.7,-28.60266993,0.03749259
60c750fa33e03bdaeae60c48,27,0,2024-02-28T15:17:28.263Z,french_492.wav,0,poule,818,24,4,5,Français,Femme,8,0.8,-48.68723624,1.11329037
60c750fa33e03bdaeae60c48,27,0,2024-02-28T15:17:28.263Z,french_492.wav,0,poule,818,24,4,5,Français,Femme,9,0.9,18.57877233,1.67425831
60c750fa33e03bdaeae60c48,27,0,2024-02-28T15:17:28.263Z,french_492.wav,0,poule,818,24,4,5,Français,Femme,10,1.0,39.49699981,0.64760106
60c750fa33e03bdaeae60c48,27,0,2024-02-28T15:17:28.263Z,french_492.wav,0,poule,818,24,4,5,Français,Femme,11,1.1,-66.80023278,1.35920659
60c750fa33e03bdaeae60c48,27,0,2024-02-28T15:17:28.263Z,french_492.wav,0,poule,818,24,4,5,Français,Femme,12,1.14141667,52.77539511,1.38166489
60c750fa33e03bdaeae60c48,28,0,2024-02-28T15:17:28.263Z,french_666.wav,0,poule,1323,24,4,5,Français,Femme,0,0.0,92.96865197,0.97097631
60c750fa33e03bdaeae60c48,28,0,2024-02-28T15:17:28.263Z,french_666.wav,0,poule,1323,24,4,5,Français,Femme,1,0.1,83.19708081,1.21196334
60c750fa33e03bdaeae60c48,28,0,2024-02-28T15:17:28.263Z,french_666.wav,0,poule,1323,24,4,5,Français,Femme,2,0.2,-93.00429792,0.21493139
60c750fa33e03bdaeae60c48,28,0,2024-02-28T15:17:28.263Z,french_666.wav,0,poule,1323,24,4,5,Français,Femme,3,0.3,90.20261319,0.41981713
60c750fa33e03bdaeae60c48,28,0,2024-02-28T15:17:28.263Z,french_666.wav,0,poule,1323,24,4,5,Français,Femme,4,0.4,-87.15662035,1.50078267
60c750fa33e03bdaeae60c48,28,0,2024-02-28T15:17:28.263Z,french_666.wav,0,poule,1323,24,4,5,Français,Femme,5,0.5,-47.24627787,1.52836047
60c750fa33e03bdaeae60c48,28,0,2024-02-28T15:17:28.263Z,french_666.wav,0,poule,1323,24,4,5,Français,Femme,6,0.6,59.30035154,0.33218379
60c750fa33e03bdaeae60c48,28,0,2024-02-28T15:17:28.263Z,french_666.wav,0,poule,1323,24,4,5,Français,Femme,7,0.7,-15.62578407,0.67593379
60c750fa33e03bdaeae60c48,28,0,2024-02-28T15:17:28.263Z,french_666.wav,0,poule,1323,24,4,5,Français,Femme,8,0.8,-24.02578561,0.65338916
60c750fa33e03bdaeae60c48,28,0,2024-02-28T15:17:28.263Z,french_666.wav,0,poule,1323,24,4,5,Français,Femme,9,0.9,-81.73454308,1.43079887
60c750fa33e03bdaeae60c48,28,0,2024-02-28T15:17:28.263Z,french_666.wav,0,poule,1323,24,4,5,Français,Femme,10,1.0,8.5752321,0.1051972
60c750fa33e03bdaeae60c48,28,0,2024-02-28T15:17:28.263Z,french_666.wav,0,poule,1323,24,4,5,Français,Femme,11,1.1,81.49647055,1.769445
60c750fa33e03bdaeae60c48,28,0,2024-02-28T15:17:28.263Z,french_666.wav,0,poule,1323,24,4,5,Français,Femme,12,1.14141667,-18.83163279,0.88398821
60c750fa33e03bdaeae60c48,29,0,2024-02-28T15:17:28.263Z,french_612.wav,0,pull,742,24,4,5,Français,Femme,0,0.0,-47.07678459,0.11615232
60c750fa33e03bdaeae60c48,29,0,2024-02-28T15:17:28.263Z,french_612.wav,0,pull,742,24,4,5,Français,Femme,1,0.1,3.63425246,0.47093102
60c750fa33e03bdaeae60c48,29,0,2024-02-28T15:17:28.263Z,french_612.wav,0,pull,742,24,4,5,Français,Femme,2,0.2,31.48917189,0.45807262
60c750fa33e03bdaeae60c48,29,0,2024-02-28T15:17:28.263Z,french_612.wav,0,pull,742,24,4,5,Français,Femme,3,0.3,44.38742484,0.81161175
60c750fa33e03bdaeae60c48,29,0,2024-02-28T15:17:28.263Z,french_612.wav,0,pull,742,24,4,5,Français,Femme,4,0.4,15.5069451,1.0193018
60c750fa33e03bdaeae60c48,29,0,2024-02-28T15:17:28.263Z,french_612.wav,0,pull,742,24,4,5,Français,Femme,5,0.5,-51.49122096,1.66697075
60c750fa33e03bdaeae60c48,29,0,2024-02-28T15:17:28.263Z,french_612.wav,0,pull,742,24,4,5,Français,Femme,6,0.6,-1.02254843,0.50056041
60c750fa33e03bdaeae60c48,29,0,2024-02-28T15:17:28.263Z,french_612.wav,0,pull,742,24,4,5,Français,Femme,7,0.7,12.87739328,0.70368677
60c750fa33e03bdaeae60c48,29,0,2024-02-28T15:17:28.263Z,french_612.wav,0,pull,742,24,4,5,Français,Femme,8,0.8,-63.80282001,1.91892506
60c750fa33e03bdaeae60c48,29,0,2024-02-28T15:17:28.263Z,french_612.wav,0,pull,742,24,4,5,Français,Femme,9,0.9,-37.54711338,1.2931891
60c750fa33e03bdaeae60c48,29,0,2024-02-28T15:17:28.263Z,french_612.wav,0,pull,742,24,4,5,Français,Femme,10,1.0,40.2162033,0.20059311
60c750fa33e03bdaeae60c48,29,0,2024-02-28T15:17:28.263Z,french_612.wav,0,pull,742,24,4,5,Français,Femme,11,1.1,-4.31624045,0.09557344
60c750fa33e03bdaeae60c48,29,0,2024-02-28T15:17:28.263Z,french_612.wav,0,pull,742,24,4,5,Français,Femme,12,1.14141667,64.58566043,1.97325213
60c750fa33e03bdaeae60c48,30,0,2024-02-28T15:17:28.263Z,french_797.wav,0,poule,1632,24,4,5,Français,Femme,0,0.0,21.19375213,1.6885783
60c750fa33e03bdaeae60c48,30,0,2024-02-28T15:17:28.263Z,french_797.wav,0,poule,1632,24,4,5,Français,Femme,1,0.1,-75.16406807,1.52001867
60c750fa33e03bdaeae60c48,30,0,2024-02-28T15:17:28.263Z,french_797.wav,0,poule,1632,24,4,5,Français,Femme,2,0.2,-4.85614597,0.00153377587
60c750fa33e03bdaeae60c48,30,0,2024-02-28T15:17:28.263Z,french_797.wav,0,poule,1632,24,4,5,Français,Femme,3,0.3,91.23547164,0.61166892
60c750fa33e03bdaeae60c48,30,0,2024-02-28T15:17:28.263Z,french_797.wav,0,poule,1632,24,4,5,Français,Femme,4,0.4,-54.80294813,1.57623559
60c750fa33e03bdaeae60c48,30,0,2024-02-28T15:17:28.263Z,french_797.wav,0,poule,1632,24,4,5,Français,Femme,5,0.5,48.10269994,1.04622328
60c750fa33e03bdaeae60c48,30,0,2024-02-28T15:17:28.263Z,french_797.wav,0,poule,1632,24,4,5,Français,Femme,6,0.6,54.93610027,0.41923459
60c750fa33e03bdaeae60c48,30,0,2024-02-28T15:17:28.263Z,french_797.wav,0,poule,1632,24,4,5,Français,Femme,7,0.7,62.57379696,1.89958561
60c750fa33e03bdaeae60c48,30,0,2024-02-28T15:17:28.263Z,french_797.wav,0,poule,1632,24,4,5,Français,Femme,8,0.8,24.98836028,0.23206895
60c750fa33e03bdaeae60c48,30,0,2024-02-28T15:17:28.263Z,french_797.wav,0,poule,1632,24,4,5,Français,Femme,9,0.9,-3.72214582,0.326654429
60c750fa33e03bdaeae60c48,30,0,2024-02-28T15:17:28.263Z,french_797.wav,0,poule,1632,24,4,5,Français,Femme,10,1.0,-62.87276207,1.16190078
60c750fa33e03bdaeae60c48,30,0,2024-02-28T15:17:28.263Z,french_797.wav,0,poule,1632,24,4,5,Français,Femme,11,1.1,-30.73571803,1.32699658
60c750fa33e03bdaeae60c48,30,0,2024-02-28T15:17:28.263Z,french_797.wav,0,poule,1632,24,4,5,Français,Femme,12,1.14141667,4.39947177,1.24572836
60c750fa33e03bdaeae60c48,31,0,2024-02-28T15:17:28.263Z,french_488.wav,0,poule,319,24,4,5,Français,Femme,0,0.0,14.8644182,0.74415715
60c750fa33e03bdaeae60c48,31,0,2024-02-28T15:17:28.263Z,french_488.wav,0,poule,319,24,4,5,Français,Femme,1,0.1,-7.483668,0.55500456
60c750fa33e03bdaeae60c48,31,0,2024-02-28T15:17:28.263Z,french_488.wav,0,poule,319,24,4,5,Français,Femme,2,0.2,-83.60221028,1.6557028
60c750fa33e03bdaeae60c48,31,0,2024-02-28T15:17:28.263Z,french_488.wav,0,poule,319,24,4,5,Français,Femme,3,0.3,-35.90165376,1.12101174
60c750fa33e03bdaeae60c48,31,0,2024-02-28T15:17:28.263Z,french_488.wav,0,poule,319,24,4,5,Français,Femme,4,0.4,88.10278494,0.1765859
60c750fa33e03bdaeae60c48,31,0,2024-02-28T15:17:28.263Z,french_488.wav,0,poule,319,24,4,5,Français,Femme,5,0.5,-99.58307262,1.5746524
60c750fa33e03bdaeae60c48,31,0,2024-02-28T15:17:28.263Z,french_488.wav,0,poule,319,24,4,5,Français,Femme,6,0.6,-38.42476237,0.49482731
60c750fa33e03bdaeae60c48,31,0,2024-02-28T15:17:28.263Z,french_488.wav,0,poule,319,24,4,5,Français,Femme,7,0.7,-6.87639591,0.45509974
60c750fa33e03bdaeae60c48,31,0,2024-02-28T15:17:28.263Z,french_488.wav,0,poule,319,24,4,5,Français,Femme,8,0.8,-44.17721964,0.28182222
60c750fa33e03bdaeae60c48,31,0,2024-02-28T15:17:28.263Z,french_488.wav,0,poule,319,24,4,5,Français,Femme,9,0.9,56.25120406,1.54827803
60c750fa33e03bdaeae60c48,31,0,2024-02-28T15:17:28.263Z,french_488.wav,0,poule,319,24,4,5,Français,Femme,10,1.0,14.79565294,1.58335766
60c750fa33e03bdaeae60c48,31,0,2024-02-28T15:17:28.263Z,french_488.wav,0,poule,319,24,4,5,Français,Femme,11,1.1,-5.40433378,0.88938806
60c750fa33e03bdaeae60c48,31,0,2024-02-28T15:17:28.263Z,french_488.wav,0,poule,319,24,4,5,Français,Femme,12,1.14141667,27.01805303,1.25409387
60c750fa33e03bdaeae60c48,32,0,2024-02-28T15:17:28.263Z,french_71.wav,0,poule,783,24,4,5,Français,Femme,0,0.0,78.85650806,0.8693317
60c750fa33e03bdaeae60c48,32,0,2024-02-28T15:17:28.263Z,french_71.wav,0,poule,783,24,4,5,Français,Femme,1,0.1,98.66013561,0.2047511
60c750fa33e03bdaeae60c48,32,0,2024-02-28T15:17:28.263Z,french_71.wav,0,poule,783,24,4,5,Français,Femme,2,0.2,40.76629431,0.17301427
60c750fa33e03bdaeae60c48,32,0,2024-02-28T15:17:28.263Z,french_71.wav,0,poule,783,24,4,5,Français,Femme,3,0.3,37.46576167,0.67884544
60c750fa33e03bdaeae60c48,32,0,2024-02-28T15:17:28.263Z,french_71.wav,0,poule,783,24,4,5,Français,Femme,4,0.4,36.62059925,0.49967362
60c750fa33e03bdaeae60c48,32,0,2024-02-28T15:17:28.263Z,french_71.wav,0,poule,783,24,4,5,Français,Femme,5,0.5,-15.30499106,0.06276407
60c750fa33e03bdaeae60c48,32,0,2024-02-28T15:17:28.263Z,french_71.wav,0,poule,783,24,4,5,Français,Femme,6,0.6,13.92967978,1.96544584
60c750fa33e03bdaeae60c48,32,0,2024-02-28T15:17:28.263Z,french_71.wav,0,poule,783,24,4,5,Français,Femme,7,0.7,41.98872019,0.03052065
60c750fa33e03bdaeae60c48,32,0,2024-02-28T15:17:28.263Z,french_71.wav,0,poule,783,24,4,5,Français,Femme,8,0.8,86.5834428,0.2363001
60c750fa33e03bdaeae60c48,32,0,2024-02-28T15:17:28.263Z,french_71.wav,0,poule,783,24,4,5,Français,Femme,9,0.9,-38.49262182,0.76897263
60c750fa33e03bdaeae60c48,32,0,2024-02-28T15:17:28.263Z,french_71.wav,0,poule,783,24,4,5,Français,Femme,10,1.0,17.09638043,0.53014972
60c750fa33e03bdaeae60c48,32,0,2024-02-28T15:17:28.263Z,french_71.wav,0,poule,783,24,4,5,Français,Femme,11,1.1,-31.08676799,0.03830657
60c750fa33e03bdaeae60c48,32,0,2024-02-28T15:17:28.263Z,french_71.wav,0,poule,783,24,4,5,Français,Femme,12,1.14141667,-1.70593486,1.08106094
60c750fa33e03bdaeae60c48,33,0,2024-02-28T15:17:28.263Z,french_154.wav,0,poule,1529,24,4,5,Français,Femme,0,0.0,-62.71695014,0.91471161
60c750fa33e03bdaeae60c48,33,0,2024-02-28T15:17:28.263Z,french_154.wav,0,poule,1529,24,4,5,Français,Femme,1,0.1,11.76696999,0.62594341
60c750fa33e03bdaeae60c48,33,0,2024-02-28T15:17:28.263Z,french_154.wav,0,poule,1529,24,4,5,Français,Femme,2,0.2,89.09000975,1.0457949
60c750fa33e03bdaeae60c48,33,0,2024-02-28T15:17:28.263Z,french_154.wav,0,poule,1529,24,4,5,Français,Femme,3,0.3,55.482511,0.32994818
60c750fa33e03bdaeae60c48,33,0,2024-02-28T15:17:28.263Z,french_154.wav,0,poule,1529,24,4,5,Français,Femme,4,0.4,48.82512352,0.38624098
60c750fa33e03bdaeae60c48,33,0,2024-02-28T15:17:28.263Z,french_154.wav,0,poule,1529,24,4,5,Français,Femme,5,0.5,72.58324687,0.16529193
60c750fa33e03bdaeae60c48,33,0,2024-02-28T15:17:28.263Z,french_154.wav,0,poule,1529,24,4,5,Français,Femme,6,0.6,-72.31376073,0.35654306
60c750fa33e03bdaeae60c48,33,0,2024-02-28T15:17:28.263Z,french_154.wav,0,poule,1529,24,4,5,Français,Femme,7,0.7,26.97262417,0.03013993
60c750fa33e03bdaeae60c48,33,0,2024-02-28T15:17:28.263Z,french_154.wav,0,poule,1529,24,4,5,Français,Femme,8,0.8,25.0060358,0.71479537
60c750fa33e03bdaeae60c48,33,0,2024-02-28T15:17:28.263Z,french_154.wav,0,poule,1529,24,4,5,Français,Femme,9,0.9,96.65829409,0.87549993
60c750fa33e03bdaeae60c48,33,0,2024-02-28T15:17:28.263Z,french_154.wav,0,poule,1529,24,4,5,Français,Femme,10,1.0,-53.01793566,0.67316638
60c750fa33e03bdaeae60c48,33,0,2024-02-28T15:17:28.263Z,french_154.wav,0,poule,1529,24,4,5,Français,Femme,11,1.1,-28.38672299,0.16537435
60c750fa33e03bdaeae60c48,33,0,2024-02-28T15:17:28.263Z,french_154.wav,0,poule,1529,24,4,5,Français,Femme,12,1.14141667,-13.65079038,0.43572368
60c750fa33e03bdaeae60c48,34,0,2024-02-28T15:17:28.263Z,french_748.wav,0,poule,1178,24,4,5,Français,Femme,0,0.0,21.06287569,1.43701335
60c750fa33e03bdaeae60c48,34,0,2024-02-28T15:17:28.263Z,french_748.wav,0,poule,1178,24,4,5,Français,Femme,1,0.1,15.36105543,1.59777978
60c750fa33e03bdaeae60c48,34,0,2024-02-28T15:17:28.263Z,french_748.wav,0,poule,1178,24,4,5,Français,Femme,2,0.2,-30.59586006,0.73016849
60c750fa33e03bdaeae60c48,34,0,2024-02-28T15:17:28.263Z,french_748.wav,0,poule,1178,24,4,5,Français,Femme,3,0.3,79.94920558,0.61979898
60c750fa33e03bdaeae60c48,34,0,2024-02-28T15:17:28.263Z,french_748.wav,0,poule,1178,24,4,5,Français,Femme,4,0.4,-61.07313039,0.89579179
60c750fa33e03bdaeae60c48,34,0,2024-02-28T15:17:28.263Z,french_748.wav,0,poule,1178,24,4,5,Français,Femme,5,0.5,-45.04655322,0.56474332
60c750fa33e03bdaeae60c48,34,0,2024-02-28T15:17:28.263Z,french_748.wav,0,poule,1178,24,4,5,Français,Femme,6,0.6,-50.58543561,1.20782806
60c750fa33e03bdaeae60c48,34,0,2024-02-28T15:17:28.263Z,french_748.wav,0,poule,1178,24,4,5,Français,Femme,7,0.7,1.01417539,0.1338859
60c750fa33e03bdaeae60c48,34,0,2024-02-28T15:17:28.263Z,french_748.wav,0,poule,1178,24,4,5,Français,Femme,8,0.8,-5.64267087,0.84409368
60c750fa33e03bdaeae60c48,34,0,2024-02-28T15:17:28.263Z,french_748.wav,0,poule,1178,24,4,5,Français,Femme,9,0.9,-45.78723347,0.94921143
60c750fa33e03bdaeae60c48,34,0,2024-02-28T15:17:28.263Z,french_748.wav,0,poule,1178,24,4,5,Français,Femme,10,1.0,-89.41556612,1.42685707
60c750fa33e03bdaeae60c48,34,0,2024-02-28T15:17:28.263Z,french_748.wav,0,poule,1178,24,4,5,Français,Femme,11,1.1,-62.55272039,0.52153694
60c750fa33e03bdaeae60c48,34,0,2024-02-28T15:17:28.263Z,french_748.wav,0,poule,1178,24,4,5,Français,Femme,12,1.14141667,-65.25853362,0.03253725
60c750fa33e03bdaeae60c48,35,0,2024-02-28T15:17:28.263Z,french_466.wav,0,poule,503,24,4,5,Français,Femme,0,0.0,-23.27991826,1.52804132
60c750fa33e03bdaeae60c48,35,0,2024-02-28T15:17:28.263Z,french_466.wav,0,poule,503,24,4,5,Français,Femme,1,0.1,97.23850922,0.01047206
60c750fa33e03bdaeae60c48,35,0,2024-02-28T15:17:28.263Z,french_466.wav,0,poule,503,24,4,5,Français,Femme,2,0.2,-96.9465149,1.6544422
60c750fa33e03bdaeae60c48,35,0,2024-02-28T15:17:28.263Z,french_466.wav,0,poule,503,24,4,5,Français,Femme,3,0.3,-86.96925433,1.82991551
60c750fa33e03bdaeae60c48,35,0,2024-02-28T15:17:28.263Z,french_466.wav,0,poule,503,24,4,5,Français,Femme,4,0.4,2.85783603,0.86899364
60c750fa33e03bdaeae60c48,35,0,2024-02-28T15:17:28.263Z,french_466.wav,0,poule,503,24,4,5,Français,Femme,5,0.5,95.91347723,1.25331213
60c750fa33e03bdaeae60c48,35,0,2024-02-28T15:17:28.263Z,french_466.wav,0,poule,503,24,4,5,Français,Femme,6,0.6,-63.35172498,1.68509567
60c750fa33e03bdaeae60c48,35,0,2024-02-28T15:17:28.263Z,french_466.wav,0,poule,503,24,4,5,Français,Femme,7,0.7,-25.95383213,1.20636117
60c750fa33e03bdaeae60c48,35,0,2024-02-28T15:17:28.263Z,french_466.wav,0,poule,503,24,4,5,Français,Femme,8,0.8,-52.59375309,0.84252752
60c750fa33e03bdaeae60c48,35,0,2024-02-28T15:17:28.263Z,french_466.wav,0,poule,503,24,4,5,Français,Femme,9,0.9,-70.79178645,1.91154977
60c750fa33e03bdaeae60c48,35,0,2024-02-28T15:17:28.263Z,french_466.wav,0,poule,503,24,4,5,Français,Femme,10,1.0,-29.48964846,0.45592683
60c750fa33e03bdaeae60c48,35,0,2024-02-28T15:17:28.263Z,french_466.wav,0,poule,503,24,4,5,Français,Femme,11,1.1,-52.94204961,0.35898479
60c750fa33e03bdaeae60c48,35,0,2024-02-28T15:17:28.263Z,french_466.wav,0,poule,503,24,4,5,Français,Femme,12,1.14141667,46.57113475,1.03194217
60c750fa33e03bdaeae60c48,36,0,2024-02-28T15:17:28.263Z,french_633.wav,0,poule,3913,24,4,5,Français,Femme,0,0.0,76.87813449,1.80365851
60c750fa33e03bdaeae60c48,36,0,2024-02-28T15:17:28.263Z,french_633.wav,0,poule,3913,24,4,5,Français,Femme,1,0.1,-21.82636676,0.405736703
60c750fa33e03bdaeae60c48,36,0,2024-02-28T15:17:28.263Z,french_633.wav,0,poule,3913,24,4,5,Français,Femme,2,0.2,43.67773212,5.39076875e-05
60c750fa33e03bdaeae60c48,36,0,2024-02-28T15:17:28.263Z,french_633.wav,0,poule,3913,24,4,5,Français,Femme,3,0.3,17.23969717,0.523679711
60c750fa33e03bdaeae60c48,36,0,2024-02-28T15:17:28.263Z,french_633.wav,0,poule,3913,24,4,5,Français,Femme,4,0.4,-36.64594868,1.72735713
60c750fa33e03bdaeae60c48,36,0,2024-02-28T15:17:28.263Z,french_633.wav,0,poule,3913,24,4,5,Français,Femme,5,0.5,-53.48136029,1.2609704
60c750fa33e03bdaeae60c48,36,0,2024-02-28T15:17:28.263Z,french_633.wav,0,poule,3913,24,4,5,Français,Femme,6,0.6,46.29388988,1.28363672
60c750fa33e03bdaeae60c48,36,0,2024-02-28T15:17:28.263Z,french_633.wav,0,poule,3913,24,4,5,Français,Femme,7,0.7,-33.77482851,1.79514781
60c750fa33e03bdaeae60c48,36,0,2024-02-28T15:17:28.263Z,french_633.wav,0,poule,3913,24,4,5,Français,Femme,8,0.8,3.20404602,0.895309966
60c750fa33e03bdaeae60c48,36,0,2024-02-28T15:17:28.263Z,french_633.wav,0,poule,3913,24,4,5,Français,Femme,9,0.9,-40.8699131,0.69644154
60c750fa33e03bdaeae60c48,36,0,2024-02-28T15:17:28.263Z,french_633.wav,0,poule,3913,24,4,5,Français,Femme,10,1.0,-98.55823746,1.41287247
60c750fa33e03bdaeae60c48,36,0,2024-02-28T15:17:28.263Z,french_633.wav,0,poule,3913,24,4,5,Français,Femme,11,1.1,57.68634926,0.405255343
60c750fa33e03bdaeae60c48,36,0,2024-02-28T15:17:28.263Z,french_633.wav,0,poule,3913,24,4,5,Français,Femme,12,1.14141667,4.46442476,0.0847335586
60c750fa33e03bdaeae60c48,37,0,2024-02-28T15:17:28.263Z,french_212.wav,0,pull,604,24,4,5,Français,Femme,0,0.0,90.88102294,1.19203637
60c750fa33e03bdaeae60c48,37,0,2024-02-28T15:17:28.263Z,french_212.wav,0,pull,604,24,4,5,Français,Femme,1,0.1,-35.14561703,1.89782901
60c750fa33e03bdaeae60c48,37,0,2024-02-28T15:17:28.263Z,french_212.wav,0,pull,604,24,4,5,Français,Femme,2,0.2,14.79271583,1.86865655
60c750fa33e03bdaeae60c48,37,0,2024-02-28T15:17:28.263Z,french_212.wav,0,pull,604,24,4,5,Français,Femme,3,0.3,-88.21899913,1.6473075
60c750fa33e03bdaeae60c48,37,0,2024-02-28T15:17:28.263Z,french_212.wav,0,pull,604,24,4,5,Français,Femme,4,0.4,92.67503614,1.53763625
60c750fa33e03bdaeae60c48,37,0,2024-02-28T15:17:28.263Z,french_212.wav,0,pull,604,24,4,5,Français,Femme,5,0.5,23.16298662,0.83064548
60c750fa33e03bdaeae60c48,37,0,2024-02-28T15:17:28.263Z,french_212.wav,0,pull,604,24,4,5,Français,Femme,6,0.6,48.09904427,0.60296104
60c750fa33e03bdaeae60c48,37,0,2024-02-28T15:17:28.263Z,french_212.wav,0,pull,604,24,4,5,Français,Femme,7,0.7,21.94712123,1.07417589
60c750fa33e03bdaeae60c48,37,0,2024-02-28T15:17:28.263Z,french_212.wav,0,pull,604,24,4,5,Français,Femme,8,0.8,-62.00364596,1.14958956
60c750fa33e03bdaeae60c48,37,0,2024-02-28T15:17:28.263Z,french_212.wav,0,pull,604,24,4,5,Français,Femme,9,0.9,-26.3637586,0.04243199
60c750fa33e03bdaeae60c48,37,0,2024-02-28T15:17:28.263Z,french_212.wav,0,pull,604,24,4,5,Français,Femme,10,1.0,-48.35693482,0.92355121
60c750fa33e03bdaeae60c48,37,0,2024-02-28T15:17:28.263Z,french_212.wav,0,pull,604,24,4,5,Français,Femme,11,1.1,41.70852202,0.52672923
60c750fa33e03bdaeae60c48,37,0,2024-02-28T15:17:28.263Z,french_212.wav,0,pull,604,24,4,5,Français,Femme,12,1.14141667,38.71450678,1.31846494
60c750fa33e03bdaeae60c48,38,0,2024-02-28T15:17:28.263Z,french_317.wav,0,pull,492,24,4,5,Français,Femme,0,0.0,40.8685805,0.12762298
60c750fa33e03bdaeae60c48,38,0,2024-02-28T15:17:28.263Z,french_317.wav,0,pull,492,24,4,5,Français,Femme,1,0.1,-18.25010816,0.46117381
60c750fa33e03bdaeae60c48,38,0,2024-02-28T15:17:28.263Z,french_317.wav,0,pull,492,24,4,5,Français,Femme,2,0.2,21.38431057,0.51489794
60c750fa33e03bdaeae60c48,38,0,2024-02-28T15:17:28.263Z,french_317.wav,0,pull,492,24,4,5,Français,Femme,3,0.3,95.9205375,0.84411481
60c750fa33e03bdaeae60c48,38,0,2024-02-28T15:17:28.263Z,french_317.wav,0,pull,492,24,4,5,Français,Femme,4,0.4,38.32089871,0.32765242
60c750fa33e03bdaeae60c48,38,0,2024-02-28T15:17:28.263Z,french_317.wav,0,pull,492,24,4,5,Français,Femme,5,0.5,-21.23529277,0.79138261
60c750fa33e03bdaeae60c48,38,0,2024-02-28T15:17:28.263Z,french_317.wav,0,pull,492,24,4,5,Français,Femme,6,0.6,77.91728969,0.47375235
60c750fa33e03bdaeae60c48,38,0,2024-02-28T15:17:28.263Z,french_317.wav,0,pull,492,24,4,5,Français,Femme,7,0.7,80.74208796,0.7422914
60c750fa33e03bdaeae60c48,38,0,2024-02-28T15:17:28.263Z,french_317.wav,0,pull,492,24,4,5,Français,Femme,8,0.8,7.4329056,0.34355832
60c750fa33e03bdaeae60c48,38,0,2024-02-28T15:17:28.263Z,french_317.wav,0,pull,492,24,4,5,Français,Femme,9,0.9,43.55624299,0.04625658
60c750fa33e03bdaeae60c48,38,0,2024-02-28T15:17:28.263Z,french_317.wav,0,pull,492,24,4,5,Français,Femme,10,1.0,-3.0789023,1.28889799
60c750fa33e03bdaeae60c48,38,0,2024-02-28T15:17:28.263Z,french_317.wav,0,pull,492,24,4,5,Français,Femme,11,1.1,53.49310135,1.94514932
60c750fa33e03bdaeae60c48,38,0,2024-02-28T15:17:28.263Z,french_317.wav,0,pull,492,24,4,5,Français,Femme,12,1.14141667,20.73152809,0.29763753
60c750fa33e03bdaeae60c48,39,0,2024-02-28T15:17:28.263Z,french_83.wav,0,poule,668,24,4,5,Français,Femme,0,0.0,30.44967783,0.42165273
60c750fa33e03bdaeae60c48,39,0,2024-02-28T15:17:28.263Z,french_83.wav,0,poule,668,24,4,5,Français,Femme,1,0.1,32.59822127,0.3238076
60c750fa33e03bdaeae60c48,39,0,2024-02-28T15:17:28.263Z,french_83.wav,0,poule,668,24,4,5,Français,Femme,2,0.2,50.8682146,0.37913611
60c750fa33e03bdaeae60c48,39,0,2024-02-28T15:17:28.263Z,french_83.wav,0,poule,668,24,4,5,Français,Femme,3,0.3,0.11779037,0.78724258
60c750fa33e03bdaeae60c48,39,0,2024-02-28T15:17:28.263Z,french_83.wav,0,poule,668,24,4,5,Français,Femme,4,0.4,16.37029834,1.0594663
60c750fa33e03bdaeae60c48,39,0,2024-02-28T15:17:28.263Z,french_83.wav,0,poule,668,24,4,5,Français,Femme,5,0.5,90.79022832,0.48377765
60c750fa33e03bdaeae60c48,39,0,2024-02-28T15:17:28.263Z,french_83.wav,0,poule,668,24,4,5,Français,Femme,6,0.6,-75.94380669,0.29353951
60c750fa33e03bdaeae60c48,39,0,2024-02-28T15:17:28.263Z,french_83.wav,0,poule,668,24,4,5,Français,Femme,7,0.7,34.13478403,1.31767934
60c750fa33e03bdaeae60c48,39,0,2024-02-28T15:17:28.263Z,french_83.wav,0,poule,668,24,4,5,Français,Femme,8,0.8,-27.50152867,0.23770737
60c750fa33e03bdaeae60c48,39,0,2024-02-28T15:17:28.263Z,french_83.wav,0,poule,668,24,4,5,Français,Femme,9,0.9,9.93495342,0.58296712
60c750fa33e03bdaeae60c48,39,0,2024-02-28T15:17:28.263Z,french_83.wav,0,poule,668,24,4,5,Français,Femme,10,1.0,58.3619145,0.64820026
60c750fa33e03bdaeae60c48,39,0,2024-02-28T15:17:28.263Z,french_83.wav,0,poule,668,24,4,5,Français,Femme,11,1.1,15.44979308,0.12158815
60c750fa33e03bdaeae60c48,39,0,2024-02-28T15:17:28.263Z,french_83.wav,0,poule,668,24,4,5,Français,Femme,12,1.14141667,13.85594834,0.38899467
60c750fa33e03bdaeae60c48,40,0,2024-02-28T15:17:28.263Z,french_551.wav,0,poule,479,24,4,5,Français,Femme,0,0.0,-0.87306912,0.61757566
60c750fa33e03bdaeae60c48,40,0,2024-02-28T15:17:28.263Z,french_551.wav,0,poule,479,24,4,5,Français,Femme,1,0.1,53.97679775,0.32729864
60c750fa33e03bdaeae60c48,40,0,2024-02-28T15:17:28.263Z,french_551.wav,0,poule,479,24,4,5,Français,Femme,2,0.2,-17.9143701,0.86705571
60c750fa33e03bdaeae60c48,40,0,2024-02-28T15:17:28.263Z,french_551.wav,0,poule,479,24,4,5,Français,Femme,3,0.3,-24.754792,1.89311071
60c750fa33e03bdaeae60c48,40,0,2024-02-28T15:17:28.263Z,french_551.wav,0,poule,479,24,4,5,Français,Femme,4,0.4,-10.20538455,0.75504891
60c750fa33e03bdaeae60c48,40,0,2024-02-28T15:17:28.263Z,french_551.wav,0,poule,479,24,4,5,Français,Femme,5,0.5,-90.27714005,1.63875435
60c750fa33e03bdaeae60c48,40,0,2024-02-28T15:17:28.263Z,french_551.wav,0,poule,479,24,4,5,Français,Femme,6,0.6,-72.01449514,0.70533148
60c750fa33e03bdaeae60c48,40,0,2024-02-28T15:17:28.263Z,french_551.wav,0,poule,479,24,4,5,Français,Femme,7,0.7,-31.05860399,1.05102433
60c750fa33e03bdaeae60c48,40,0,2024-02-28T15:17:28.263Z,french_551.wav,0,poule,479,24,4,5,Français,Femme,8,0.8,37.94491682,1.57562173
60c750fa33e03bdaeae60c48,40,0,2024-02-28T15:17:28.263Z,french_551.wav,0,poule,479,24,4,5,Français,Femme,9,0.9,-68.22280845,1.37229945
60c750fa33e03bdaeae60c48,40,0,2024-02-28T15:17:28.263Z,french_551.wav,0,poule,479,24,4,5,Français,Femme,10,1.0,-76.8164716,1.64854708
60c750fa33e03bdaeae60c48,40,0,2024-02-28T15:17:28.263Z,french_551.wav,0,poule,479,24,4,5,Français,Femme,11,1.1,-55.95467944,1.48711428
60c750fa33e03bdaeae60c48,40,0,2024-02-28T15:17:28.263Z,french_551.wav,0,poule,479,24,4,5,Français,Femme,12,1.14141667,42.33514592,0.93522853
60c750fa33e03bdaeae60c48,41,0,2024-02-28T15:17:28.263Z,french_600.wav,0,poule,407,24,4,5,Français,Femme,0,0.0,52.68900208,1.20996587
60c750fa33e03bdaeae60c48,41,0,2024-02-28T15:17:28.263Z,french_600.wav,0,poule,407,24,4,5,Français,Femme,1,0.1,-6.73067052,0.65229061
60c750fa33e03bdaeae60c48,41,0,2024-02-28T15:17:28.263Z,french_600.wav,0,poule,407,24,4,5,Français,Femme,2,0.2,96.57898689,1.53870963
60c750fa33e03bdaeae60c48,41,0,2024-02-28T15:17:28.263Z,french_600.wav,0,poule,407,24,4,5,Français,Femme,3,0.3,88.93281909,0.24911415
60c750fa33e03bdaeae60c48,41,0,2024-02-28T15:17:28.263Z,french_600.wav,0,poule,407,24,4,5,Français,Femme,4,0.4,75.90530311,0.83209065
60c750fa33e03bdaeae60c48,41,0,2024-02-28T15:17:28.263Z,french_600.wav,0,poule,407,24,4,5,Français,Femme,5,0.5,83.32696458,1.35695142
60c750fa33e03bdaeae60c48,41,0,2024-02-28T15:17:28.263Z,french_600.wav,0,poule,407,24,4,5,Français,Femme,6,0.6,-66.79703103,1.60598618
60c750fa33e03bdaeae60c48,41,0,2024-02-28T15:17:28.263Z,french_600.wav,0,poule,407,24,4,5,Français,Femme,7,0.7,63.7950694,1.81288548
60c750fa33e03bdaeae60c48,41,0,2024-02-28T15:17:28.263Z,french_600.wav,0,poule,407,24,4,5,Français,Femme,8,0.8,-58.76780301,0.6555076
60c750fa33e03bdaeae60c48,41,0,2024-02-28T15:17:28.263Z,french_600.wav,0,poule,407,24,4,5,Français,Femme,9,0.9,44.34251674,1.0412619
60c750fa33e03bdaeae60c48,41,0,2024-02-28T15:17:28.263Z,french_600.wav,0,poule,407,24,4,5,Français,Femme,10,1.0,40.69658778,1.14001909
60c750fa33e03bdaeae60c48,41,0,2024-02-28T15:17:28.263Z,french_600.wav,0,poule,407,24,4,5,Français,Femme,11,1.1,-28.98281282,0.56625227
60c750fa33e03bdaeae60c48,41,0,2024-02-28T15:17:28.263Z,french_600.wav,0,poule,407,24,4,5,Français,Femme,12,1.14141667,43.07407366,0.71314078
60c750fa33e03bdaeae60c48,42,0,2024-02-28T15:17:28.263Z,french_220.wav,0,poule,607,24,4,5,Français,Femme,0,0.0,-47.86203104,0.17649175
60c750fa33e03bdaeae60c48,42,0,2024-02-28T15:17:28.263Z,french_220.wav,0,poule,607,24,4,5,Français,Femme,1,0.1,-2.12019525,0.55844568
60c750fa33e03bdaeae60c48,42,0,2024-02-28T15:17:28.263Z,french_220.wav,0,poule,607,24,4,5,Français,Femme,2,0.2,11.33443683,0.51968643
60c750fa33e03bdaeae60c48,42,0,2024-02-28T15:17:28.263Z,french_220.wav,0,poule,607,24,4,5,Français,Femme,3,0.3,26.73426002,0.91323903
60c750fa33e03bdaeae60c48,42,0,2024-02-28T15:17:28.263Z,french_220.wav,0,poule,607,24,4,5,Français,Femme,4,0.4,-20.00864526,1.83941424
60c750fa33e03bdaeae60c48,42,0,2024-02-28T15:17:28.263Z,french_220.wav,0,poule,607,24,4,5,Français,Femme,5,0.5,66.4142843,1.66792491
60c750fa33e03bdaeae60c48,42,0,2024-02-28T15:17:28.263Z,french_220.wav,0,poule,607,24,4,5,Français,Femme,6,0.6,-25.00808868,1.72207121
60c750fa33e03bdaeae60c48,42,0,2024-02-28T15:17:28.263Z,french_220.wav,0,poule,607,24,4,5,Français,Femme,7,0.7,-40.0848978,0.69900455
60c750fa33e03bdaeae60c48,42,0,2024-02-28T15:17:28.263Z,french_220.wav,0,poule,607,24,4,5,Français,Femme,8,0.8,72.97244598,1.89129623
60c750fa33e03bdaeae60c48,42,0,2024-02-28T15:17:28.263Z,french_220.wav,0,poule,607,24,4,5,Français,Femme,9,0.9,77.81836091,1.89462756
60c750fa33e03bdaeae60c48,42,0,2024-02-28T15:17:28.263Z,french_220.wav,0,poule,607,24,4,5,Français,Femme,10,1.0,14.03709177,1.13767499
60c750fa33e03bdaeae60c48,42,0,2024-02-28T15:17:28.263Z,french_220.wav,0,poule,607,24,4,5,Français,Femme,11,1.1,33.22448401,0.48678829
60c750fa33e03bdaeae60c48,42,0,2024-02-28T15:17:28.263Z,french_220.wav,0,poule,607,24,4,5,Français,Femme,12,1.14141667,8.56507439,1.85900383
60c750fa33e03bdaeae60c48,43,0,2024-02-28T15:17:28.263Z,french_139.wav,0,poule,922,24,4,5,Français,Femme,0,0.0,60.33474426,0.98524205
60c750fa33e03bdaeae60c48,43,0,2024-02-28T15:17:28.263Z,french_139.wav,0,poule,922,24,4,5,Français,Femme,1,0.1,38.93323401,0.78117712
60c750fa33e03bdaeae60c48,43,0,2024-02-28T15:17:28.263Z,french_139.wav,0,poule,922,24,4,5,Français,Femme,2,0.2,81.82892201,0.61752243
60c750fa33e03bdaeae60c48,43,0,2024-02-28T15:17:28.263Z,french_139.wav,0,poule,922,24,4,5,Français,Femme,3,0.3,-5.35389096,0.38397535
60c750fa33e03bdaeae60c48,43,0,2024-02-28T15:17:28.263Z,french_139.wav,0,poule,922,24,4,5,Français,Femme,4,0.4,45.79202167,0.60652717
60c750fa33e03bdaeae60c48,43,0,2024-02-28T15:17:28.263Z,french_139.wav,0,poule,922,24,4,5,Français,Femme,5,0.5,20.55887317,1.09559489
60c750fa33e03bdaeae60c48,43,0,2024-02-28T15:17:28.263Z,french_139.wav,0,poule,922,24,4,5,Français,Femme,6,0.6,-5.88389044,0.26955055
60c750fa33e03bdaeae60c48,43,0,2024-02-28T15:17:28.263Z,french_139.wav,0,poule,922,24,4,5,Français,Femme,7,0.7,6.48301447,0.35792528
60c750fa33e03bdaeae60c48,43,0,2024-02-28T15:17:28.263Z,french_139.wav,0,poule,922,24,4,5,Français,Femme,8,0.8,-23.77186576,1.46618843
60c750fa33e03bdaeae60c48,43,0,2024-02-28T15:17:28.263Z,french_139.wav,0,poule,922,24,4,5,Français,Femme,9,0.9,60.18530023,1.78162027
60c750fa33e03bdaeae60c48,43,0,2024-02-28T15:17:28.263Z,french_139.wav,0,poule,922,24,4,5,Français,Femme,10,1.0,-12.64152594,0.37213787
60c750fa33e03bdaeae60c48,43,0,2024-02-28T15:17:28.263Z,french_139.wav,0,poule,922,24,4,5,Français,Femme,11,1.1,-31.65464666,1.38195712
60c750fa33e03bdaeae60c48,43,0,2024-02-28T15:17:28.263Z,french_139.wav,0,poule,922,24,4,5,Français,Femme,12,1.14141667,-84.45306184,1.42802916
60c750fa33e03bdaeae60c48,44,0,2024-02-28T15:17:28.263Z,french_744.wav,0,pull,554,24,4,5,Français,Femme,0,0.0,-91.48661439,1.85846096
60c750fa33e03bdaeae60c48,44,0,2024-02-28T15:17:28.263Z,french_744.wav,0,pull,554,24,4,5,Français,Femme,1,0.1,18.65355246,1.31941604
60c750fa33e03bdaeae60c48,44,0,2024-02-28T15:17:28.263Z,french_744.wav,0,pull,554,24,4,5,Français,Femme,2,0.2,-47.54496018,1.09691526
60c750fa33e03bdaeae60c48,44,0,2024-02-28T15:17:28.263Z,french_744.wav,0,pull,554,24,4,5,Français,Femme,3,0.3,17.95212516,0.82238675
60c750fa33e03bdaeae60c48,44,0,2024-02-28T15:17:28.263Z,french_744.wav,0,pull,554,24,4,5,Français,Femme,4,0.4,-62.8659354,1.59275608
60c750fa33e03bdaeae60c48,44,0,2024-02-28T15:17:28.263Z,french_744.wav,0,pull,554,24,4,5,Français,Femme,5,0.5,-61.59142109,1.03229624
60c750fa33e03bdaeae60c48,44,0,2024-02-28T15:17:28.263Z,french_744.wav,0,pull,554,24,4,5,Français,Femme,6,0.6,-6.96150758,1.01361934
60c750fa33e03bdaeae60c48,44,0,2024-02-28T15:17:28.263Z,french_744.wav,0,pull,554,24,4,5,Français,Femme,7,0.7,44.5539527,0.71415112
60c750fa33e03bdaeae60c48,44,0,2024-02-28T15:17:28.263Z,french_744.wav,0,pull,554,24,4,5,Français,Femme,8,0.8,61.79622069,0.72291552
60c750fa33e03bdaeae60c48,44,0,2024-02-28T15:17:28.263Z,french_744.wav,0,pull,554,24,4,5,Français,Femme,9,0.9,15.75993473,0.48078155
60c750fa33e03bdaeae60c48,44,0,2024-02-28T15:17:28.263Z,french_744.wav,0,pull,554,24,4,5,Français,Femme,10,1.0,73.30241855,0.68305792
60c750fa33e03bdaeae60c48,44,0,2024-02-28T15:17:28.263Z,french_744.wav,0,pull,554,24,4,5,Français,Femme,11,1.1,32.92483065,0.69994656
60c750fa33e03bdaeae60c48,44,0,2024-02-28T15:17:28.263Z,french_744.wav,0,pull,554,24,4,5,Français,Femme,12,1.14141667,-20.87758002,0.74534068
60c750fa33e03bdaeae60c48,45,0,2024-02-28T15:17:28.263Z,french_857.wav,0,pull,458,24,4,5,Français,Femme,0,0.0,-17.64526742,1.40873737
60c750fa33e03bdaeae60c48,45,0,2024-02-28T15:17:28.263Z,french_857.wav,0,pull,458,24,4,5,Français,Femme,1,0.1,-25.98877449,1.52012132
60c750fa33e03bdaeae60c48,45,0,2024-02-28T15:17:28.263Z,french_857.wav,0,pull,458,24,4,5,Français,Femme,2,0.2,-66.10832937,0.61506303
60c750fa33e03bdaeae60c48,45,0,2024-02-28T15:17:28.263Z,french_857.wav,0,pull,458,24,4,5,Français,Femme,3,0.3,-88.51094871,0.08867208
60c750fa33e03bdaeae60c48,45,0,2024-02-28T15:17:28.263Z,french_857.wav,0,pull,458,24,4,5,Français,Femme,4,0.4,91.07890977,1.21823938
60c750fa33e03bdaeae60c48,45,0,2024-02-28T15:17:28.263Z,french_857.wav,0,pull,458,24,4,5,Français,Femme,5,0.5,-13.92008987,1.56249666
60c750fa33e03bdaeae60c48,45,0,2024-02-28T15:17:28.263Z,french_857.wav,0,pull,458,24,4,5,Français,Femme,6,0.6,54.75941796,0.75412867
60c750fa33e03bdaeae60c48,45,0,2024-02-28T15:17:28.263Z,french_857.wav,0,pull,458,24,4,5,Français,Femme,7,0.7,-4.58518353,1.52143423
60c750fa33e03bdaeae60c48,45,0,2024-02-28T15:17:28.263Z,french_857.wav,0,pull,458,24,4,5,Français,Femme,8,0.8,11.45557139,0.77508155
60c750fa33e03bdaeae60c48,45,0,2024-02-28T15:17:28.263Z,french_857.wav,0,pull,458,24,4,5,Français,Femme,9,0.9,5.18176205,0.32822579
60c750fa33e03bdaeae60c48,45,0,2024-02-28T15:17:28.263Z,french_857.wav,0,pull,458,24,4,5,Français,Femme,10,1.0,-87.80596671,1.53825627
60c750fa33e03bdaeae60c48,45,0,2024-02-28T15:17:28.263Z,french_857.wav,0,pull,458,24,4,5,Français,Femme,11,1.1,79.86083704,0.27496503
60c750fa33e03bdaeae60c48,45,0,2024-02-28T15:17:28.263Z,french_857.wav,0,pull,458,24,4,5,Français,Femme,12,1.14141667,17.65085073,1.00153669
60c750fa33e03bdaeae60c48,46,0,2024-02-28T15:17:28.263Z,french_886.wav,0,poule,465,24,4,5,Français,Femme,0,0.0,-3.07847079,0.23703277
60c750fa33e03bdaeae60c48,46,0,2024-02-28T15:17:28.263Z,french_886.wav,0,poule,465,24,4,5,Français,Femme,1,0.1,22.70145426,1.62366196
60c750fa33e03bdaeae60c48,46,0,2024-02-28T15:17:28.263Z,french_886.wav,0,poule,465,24,4,5,Français,Femme,2,0.2,32.76367051,0.51146608
60c750fa33e03bdaeae60c48,46,0,2024-02-28T15:17:28.263Z,french_886.wav,0,poule,465,24,4,5,Français,Femme,3,0.3,-31.71032565,0.96426713
60c750fa33e03bdaeae60c48,46,0,2024-02-28T15:17:28.263Z,french_886.wav,0,poule,465,24,4,5,Français,Femme,4,0.4,-28.18750434,0.43793295
60c750fa33e03bdaeae60c48,46,0,2024-02-28T15:17:28.263Z,french_886.wav,0,poule,465,24,4,5,Français,Femme,5,0.5,-18.1748931,1.33868978
60c750fa33e03bdaeae60c48,46,0,2024-02-28T15:17:28.263Z,french_886.wav,0,poule,465,24,4,5,Français,Femme,6,0.6,-27.03025386,0.31800764
60c750fa33e03bdaeae60c48,46,0,2024-02-28T15:17:28.263Z,french_886.wav,0,poule,465,24,4,5,Français,Femme,7,0.7,12.34522068,1.44789936
60c750fa33e03bdaeae60c48,46,0,2024-02-28T15:17:28.263Z,french_886.wav,0,poule,465,24,4,5,Français,Femme,8,0.8,20.95996339,1.67391832
60c750fa33e03bdaeae60c48,46,0,2024-02-28T15:17:28.263Z,french_886.wav,0,poule,465,24,4,5,Français,Femme,9,0.9,17.46922546,1.19275698
60c750fa33e03bdaeae60c48,46,0,2024-02-28T15:17:28.263Z,french_886.wav,0,poule,465,24,4,5,Français,Femme,10,1.0,-31.18262411,0.34476604
60c750fa33e03bdaeae60c48,46,0,2024-02-28T15:17:28.263Z,french_886.wav,0,poule,465,24,4,5,Français,Femme,11,1.1,16.14877288,1.95768513
60c750fa33e03bdaeae60c48,46,0,2024-02-28T15:17:28.263Z,french_886.wav,0,poule,465,24,4,5,Français,Femme,12,1.14141667,-36.04372934,1.10523987
60c750fa33e03bdaeae60c48,47,0,2024-02-28T15:17:28.263Z,french_100.wav,0,poule,612,24,4,5,Français,Femme,0,0.0,45.30319637,0.4266363
60c750fa33e03bdaeae60c48,47,0,2024-02-28T15:17:28.263Z,french_100.wav,0,poule,612,24,4,5,Français,Femme,1,0.1,47.12815282,0.41166499
60c750fa33e03bdaeae60c48,47,0,2024-02-28T15:17:28.263Z,french_100.wav,0,poule,612,24,4,5,Français,Femme,2,0.2,67.48521917,0.75850186
60c750fa33e03bdaeae60c48,47,0,2024-02-28T15:17:28.263Z,french_100.wav,0,poule,612,24,4,5,Français,Femme,3,0.3,23.61125392,1.79094973
60c750fa33e03bdaeae60c48,47,0,2024-02-28T15:17:28.263Z,french_100.wav,0,poule,612,24,4,5,Français,Femme,4,0.4,20.77565094,1.79636496
60c750fa33e03bdaeae60c48,47,0,2024-02-28T15:17:28.263Z,french_100.wav,0,poule,612,24,4,5,Français,Femme,5,0.5,-96.44964023,1.36246425
60c750fa33e03bdaeae60c48,47,0,2024-02-28T15:17:28.263Z,french_100.wav,0,poule,612,24,4,5,Français,Femme,6,0.6,-27.30276741,0.7383114
60c750fa33e03bdaeae60c48,47,0,2024-02-28T15:17:28.263Z,french_100.wav,0,poule,612,24,4,5,Français,Femme,7,0.7,7.85228196,1.2886492
60c750fa33e03bdaeae60c48,47,0,2024-02-28T15:17:28.263Z,french_100.wav,0,poule,612,24,4,5,Français,Femme,8,0.8,68.83602268,0.63858011
60c750fa33e03bdaeae60c48,47,0,2024-02-28T15:17:28.263Z,french_100.wav,0,poule,612,24,4,5,Français,Femme,9,0.9,42.76775799,0.54144566
60c750fa33e03bdaeae60c48,47,0,2024-02-28T15:17:28.263Z,french_100.wav,0,poule,612,24,4,5,Français,Femme,10,1.0,54.32509685,0.22455782
60c750fa33e03bdaeae60c48,47,0,2024-02-28T15:17:28.263Z,french_100.wav,0,poule,612,24,4,5,Français,Femme,11,1.1,-78.45035325,0.1039249
60c750fa33e03bdaeae60c48,47,0,2024-02-28T15:17:28.263Z,french_100.wav,0,poule,612,24,4,5,Français,Femme,12,1.14141667,25.20581813,0.78301344
60c750fa33e03bdaeae60c48,48,0,2024-02-28T15:17:28.263Z,french_987.wav,0,pull,464,24,4,5,Français,Femme,0,0.0,93.34375743,0.73630152
60c750fa33e03bdaeae60c48,48,0,2024-02-28T15:17:28.263Z,french_987.wav,0,pull,464,24,4,5,Français,Femme,1,0.1,2.33597737,0.83046349
60c750fa33e03bdaeae60c48,48,0,2024-02-28T15:17:28.263Z,french_987.wav,0,pull,464,24,4,5,Français,Femme,2,0.2,-20.41507514,0.92633409
60c750fa33e03bdaeae60c48,48,0,2024-02-28T15:17:28.263Z,french_987.wav,0,pull,464,24,4,5,Français,Femme,3,0.3,20.11504777,0.57479289
60c750fa33e03bdaeae60c48,48,0,2024-02-28T15:17:28.263Z,french_987.wav,0,pull,464,24,4,5,Français,Femme,4,0.4,-45.44674631,1.77561818
60c750fa33e03bdaeae60c48,48,0,2024-02-28T15:17:28.263Z,french_987.wav,0,pull,464,24,4,5,Français,Femme,5,0.5,43.68235221,1.63901309
60c750fa33e03bdaeae60c48,48,0,2024-02-28T15:17:28.263Z,french_987.wav,0,pull,464,24,4,5,Français,Femme,6,0.6,45.61538995,1.78979007
60c750fa33e03bdaeae60c48,48,0,2024-02-28T15:17:28.263Z,french_987.wav,0,pull,464,24,4,5,Français,Femme,7,0.7,9.26168888,0.34807002
60c750fa33e03bdaeae60c48,48,0,2024-02-28T15:17:28.263Z,french_987.wav,0,pull,464,24,4,5,Français,Femme,8,0.8,-81.27003637,0.31053438
60c750fa33e03bdaeae60c48,48,0,2024-02-28T15:17:28.263Z,french_987.wav,0,pull,464,24,4,5,Français,Femme,9,0.9,83.67066648,0.87882318
60c750fa33e03bdaeae60c48,48,0,2024-02-28T15:17:28.263Z,french_987.wav,0,pull,464,24,4,5,Français,Femme,10,1.0,-82.52176091,0.97272554
60c750fa33e03bdaeae60c48,48,0,2024-02-28T15:17:28.263Z,french_987.wav,0,pull,464,24,4,5,Français,Femme,11,1.1,-88.64619633,1.50609738
60c750fa33e03bdaeae60c48,48,0,2024-02-28T15:17:28.263Z,french_987.wav,0,pull,464,24,4,5,Français,Femme,12,1.14141667,-23.61840795,0.63259854
60c750fa33e03bdaeae60c48,49,0,2024-02-28T15:17:28.263Z,french_345.wav,0,poule,240,24,4,5,Français,Femme,0,0.0,13.09525802,1.99053131
60c750fa33e03bdaeae60c48,49,0,2024-02-28T15:17:28.263Z,french_345.wav,0,poule,240,24,4,5,Français,Femme,1,0.1,-30.73655165,0.8293688
60c750fa33e03bdaeae60c48,49,0,2024-02-28T15:17:28.263Z,french_345.wav,0,poule,240,24,4,5,Français,Femme,2,0.2,-41.41787841,1.36131847
60c750fa33e03bdaeae60c48,49,0,2024-02-28T15:17:28.263Z,french_345.wav,0,poule,240,24,4,5,Français,Femme,3,0.3,-27.41607462,0.38116236
60c750fa33e03bdaeae60c48,49,0,2024-02-28T15:17:28.263Z,french_345.wav,0,poule,240,24,4,5,Français,Femme,4,0.4,65.96264987,0.42669187
60c750fa33e03bdaeae60c48,49,0,2024-02-28T15:17:28.263Z,french_345.wav,0,poule,240,24,4,5,Français,Femme,5,0.5,-12.5205808,0.21770013
60c750fa33e03bdaeae60c48,49,0,2024-02-28T15:17:28.263Z,french_345.wav,0,poule,240,24,4,5,Français,Femme,6,0.6,23.42963683,0.18330203
60c750fa33e03bdaeae60c48,49,0,2024-02-28T15:17:28.263Z,french_345.wav,0,poule,240,24,4,5,Français,Femme,7,0.7,17.17324325,0.90437628
60c750fa33e03bdaeae60c48,49,0,2024-02-28T15:17:28.263Z,french_345.wav,0,poule,240,24,4,5,Français,Femme,8,0.8,50.15361308,0.95975331
60c750fa33e03bdaeae60c48,49,0,2024-02-28T15:17:28.263Z,french_345.wav,0,poule,240,24,4,5,Français,Femme,9,0.9,-38.8739224,1.62391323
60c750fa33e03bdaeae60c48,49,0,2024-02-28T15:17:28.263Z,french_345.wav,0,poule,240,24,4,5,Français,Femme,10,1.0,89.36825946,1.55285479
60c750fa33e03bdaeae60c48,49,0,2024-02-28T15:17:28.263Z,french_345.wav,0,poule,240,24,4,5,Français,Femme,11,1.1,-15.68002415,1.85322211
60c750fa33e03bdaeae60c48,49,0,2024-02-28T15:17:28.263Z,french_345.wav,0,poule,240,24,4,5,Français,Femme,12,1.14141667,48.64961952,1.01370759
60c750fa33e03bdaeae60c48,50,1,2024-02-28T15:21:24.080Z,french_254.wav,0,poule,265,24,4,5,Français,Femme,0,0.0,75.2945508,1.80685914
60c750fa33e03bdaeae60c48,50,1,2024-02-28T15:21:24.080Z,french_254.wav,0,poule,265,24,4,5,Français,Femme,1,0.1,38.40784012,0.82548004
60c750fa33e03bdaeae60c48,50,1,2024-02-28T15:21:24.080Z,french_254.wav,0,poule,265,24,4,5,Français,Femme,2,0.2,-3.45801992,0.60126929
60c750fa33e03bdaeae60c48,50,1,2024-02-28T15:21:24.080Z,french_254.wav,0,poule,265,24,4,5,Français,Femme,3,0.3,-16.53874186,1.71103273
60c750fa33e03bdaeae60c48,50,1,2024-02-28T15:21:24.080Z,french_254.wav,0,poule,265,24,4,5,Français,Femme,4,0.4,40.95649298,1.57269369
60c750fa33e03bdaeae60c48,50,1,2024-02-28T15:21:24.080Z,french_254.wav,0,poule,265,24,4,5,Français,Femme,5,0.5,-2.76974338,1.05246524
60c750fa33e03bdaeae60c48,50,1,2024-02-28T15:21:24.080Z,french_254.wav,0,poule,265,24,4,5,Français,Femme,6,0.6,-14.89193372,1.10171175
60c750fa33e03bdaeae60c48,50,1,2024-02-28T15:21:24.080Z,french_254.wav,0,poule,265,24,4,5,Français,Femme,7,0.7,6.98344765,0.20129796
60c750fa33e03bdaeae60c48,50,1,2024-02-28T15:21:24.080Z,french_254.wav,0,poule,265,24,4,5,Français,Femme,8,0.8,-11.38819477,1.28961808
60c750fa33e03bdaeae60c48,50,1,2024-02-28T15:21:24.080Z,french_254.wav,0,poule,265,24,4,5,Français,Femme,9,0.9,31.37717737,0.6064434
60c750fa33e03bdaeae60c48,50,1,2024-02-28T15:21:24.080Z,french_254.wav,0,poule,265,24,4,5,Français,Femme,10,1.0,-27.40134119,1.272806
60c750fa33e03bdaeae60c48,50,1,2024-02-28T15:21:24.080Z,french_254.wav,0,poule,265,24,4,5,Français,Femme,11,1.1,-15.25823698,1.69518769
60c750fa33e03bdaeae60c48,50,1,2024-02-28T15:21:24.080Z,french_254.wav,0,poule,265,24,4,5,Français,Femme,12,1.14141667,52.56825486,1.16774241
60c750fa33e03bdaeae60c48,51,1,2024-02-28T15:21:24.080Z,french_497.wav,0,poule,221,24,4,5,Français,Femme,0,0.0,-11.10232423,1.74915461
60c750fa33e03bdaeae60c48,51,1,2024-02-28T15:21:24.080Z,french_497.wav,0,poule,221,24,4,5,Français,Femme,1,0.1,69.97508857,0.91469854
60c750fa33e03bdaeae60c48,51,1,2024-02-28T15:21:24.080Z,french_497.wav,0,poule,221,24,4,5,Français,Femme,2,0.2,-17.59807726,0.9345582
60c750fa33e03bdaeae60c48,51,1,2024-02-28T15:21:24.080Z,french_497.wav,0,poule,221,24,4,5,Français,Femme,3,0.3,-25.98084737,1.8424865
60c750fa33e03bdaeae60c48,51,1,2024-02-28T15:21:24.080Z,french_497.wav,0,poule,221,24,4,5,Français,Femme,4,0.4,-50.44930898,1.64628382
60c750fa33e03bdaeae60c48,51,1,2024-02-28T15:21:24.080Z,french_497.wav,0,poule,221,24,4,5,Français,Femme,5,0.5,-45.94995514,0.39858154
60c750fa33e03bdaeae60c48,51,1,2024-02-28T15:21:24.080Z,french_497.wav,0,poule,221,24,4,5,Français,Femme,6,0.6,8.45642555,0.5325837
60c750fa33e03bdaeae60c48,51,1,2024-02-28T15:21:24.080Z,french_497.wav,0,poule,221,24,4,5,Français,Femme,7,0.7,-18.86865245,0.60517523
60c750fa33e03bdaeae60c48,51,1,2024-02-28T15:21:24.080Z,french_497.wav,0,poule,221,24,4,5,Français,Femme,8,0.8,-10.10667513,1.05318778
60c750fa33e03bdaeae60c48,51,1,2024-02-28T15:21:24.080Z,french_497.wav,0,poule,221,24,4,5,Français,Femme,9,0.9,75.64025007,0.58073606
60c750fa33e03bdaeae60c48,51,1,2024-02-28T15:21:24.080Z,french_497.wav,0,poule,221,24,4,5,Français,Femme,10,1.0,-5.73955185,0.8475124
60c750fa33e03bdaeae60c48,51,1,2024-02-28T15:21:24.080Z,french_497.wav,0,poule,221,24,4,5,Français,Femme,11,1.1,-69.83982299,0.92219594
60c750fa33e03bdaeae60c48,51,1,2024-02-28T15:21:24.080Z,french_497.wav,0,poule,221,24,4,5,Français,Femme,12,1.14141667,56.51270029,1.33552317
60c750fa33e03bdaeae60c48,52,1,2024-02-28T15:21:24.080Z,french_137.wav,0,pull,429,24,4,5,Français,Femme,0,0.0,13.84151074,1.03948831
60c750fa33e03bdaeae60c48,52,1,2024-02-28T15:21:24.080Z,french_137.wav,0,pull,429,24,4,5,Français,Femme,1,0.1,30.89109092,0.10685141
60c750fa33e03bdaeae60c48,52,1,2024-02-28T15:21:24.080Z,french_137.wav,0,pull,429,24,4,5,Français,Femme,2,0.2,6.32022174,1.61877291
60c750fa33e03bdaeae60c48,52,1,2024-02-28T15:21:24.080Z,french_137.wav,0,pull,429,24,4,5,Français,Femme,3,0.3,-92.3031882,1.17088534
60c750fa33e03bdaeae60c48,52,1,2024-02-28T15:21:24.080Z,french_137.wav,0,pull,429,24,4,5,Français,Femme,4,0.4,-1.61058663,0.66870039
60c750fa33e03bdaeae60c48,52,1,2024-02-28T15:21:24.080Z,french_137.wav,0,pull,429,24,4,5,Français,Femme,5,0.5,-86.82183705,1.63827949
60c750fa33e03bdaeae60c48,52,1,2024-02-28T15:21:24.080Z,french_137.wav,0,pull,429,24,4,5,Français,Femme,6,0.6,97.0175415,1.01305486
60c750fa33e03bdaeae60c48,52,1,2024-02-28T15:21:24.080Z,french_137.wav,0,pull,429,24,4,5,Français,Femme,7,0.7,3.01255749,0.88385102
60c750fa33e03bdaeae60c48,52,1,2024-02-28T15:21:24.080Z,french_137.wav,0,pull,429,24,4,5,Français,Femme,8,0.8,-19.28567494,0.46725667
60c750fa33e03bdaeae60c48,52,1,2024-02-28T15:21:24.080Z,french_137.wav,0,pull,429,24,4,5,Français,Femme,9,0.9,83.26795694,0.62986207
60c750fa33e03bdaeae60c48,52,1,2024-02-28T15:21:24.080Z,french_137.wav,0,pull,429,24,4,5,Français,Femme,10,1.0,57.309714,0.5153644
60c750fa33e03bdaeae60c48,52,1,2024-02-28T15:21:24.080Z,french_137.wav,0,pull,429,24,4,5,Français,Femme,11,1.1,-65.06221701,0.6314328
60c750fa33e03bdaeae60c48,52,1,2024-02-28T15:21:24.080Z,french_137.wav,0,pull,429,24,4,5,Français,Femme,12,1.14141667,36.56603197,1.91953491
60c750fa33e03bdaeae60c48,53,1,2024-02-28T15:21:24.080Z,french_866.wav,0,poule,327,24,4,5,Français,Femme,0,0.0,-74.48272892,0.05604521
60c750fa33e03bdaeae60c48,53,1,2024-02-28T15:21:24.080Z,french_866.wav,0,poule,327,24,4,5,Français,Femme,1,0.1,-3.325332,0.3442437
60c750fa33e03bdaeae60c48,53,1,2024-02-28T15:21:24.080Z,french_866.wav,0,poule,327,24,4,5,Français,Femme,2,0.2,44.03556359,0.52317916
60c750fa33e03bdaeae60c48,53,1,2024-02-28T15:21:24.080Z,french_866.wav,0,poule,327,24,4,5,Français,Femme,3,0.3,-90.00855988,1.52290836
60c750fa33e03bdaeae60c48,53,1,2024-02-28T15:21:24.080Z,french_866.wav,0,poule,327,24,4,5,Français,Femme,4,0.4,95.4115093,0.47551036
60c750fa33e03bdaeae60c48,53,1,2024-02-28T15:21:24.080Z,french_866.wav,0,poule,327,24,4,5,Français,Femme,5,0.5,48.47873323,0.56031323
60c750fa33e03bdaeae60c48,53,1,2024-02-28T15:21:24.080Z,french_866.wav,0,poule,327,24,4,5,Français,Femme,6,0.6,7.86523273,0.63842577
60c750fa33e03bdaeae60c48,53,1,2024-02-28T15:21:24.080Z,french_866.wav,0,poule,327,24,4,5,Français,Femme,7,0.7,78.21260838,1.48152306
60c750fa33e03bdaeae60c48,53,1,2024-02-28T15:21:24.080Z,french_866.wav,0,poule,327,24,4,5,Français,Femme,8,0.8,66.91391565,0.38501329
60c750fa33e03bdaeae60c48,53,1,2024-02-28T15:21:24.080Z,french_866.wav,0,poule,327,24,4,5,Français,Femme,9,0.9,21.69873169,0.68635955
60c750fa33e03bdaeae60c48,53,1,2024-02-28T15:21:24.080Z,french_866.wav,0,poule,327,24,4,5,Français,Femme,10,1.0,-58.03775714,1.77227289
60c750fa33e03bdaeae60c48,53,1,2024-02-28T15:21:24.080Z,french_866.wav,0,poule,327,24,4,5,Français,Femme,11,1.1,99.81207273,0.24826514
60c750fa33e03bdaeae60c48,53,1,2024-02-28T15:21:24.080Z,french_866.wav,0,poule,327,24,4,5,Français,Femme,12,1.14141667,-30.83024602,1.76047341
60c750fa33e03bdaeae60c48,54,1,2024-02-28T15:21:24.080Z,french_120.wav,0,poule,281,24,4,5,Français,Femme,0,0.0,-25.39055637,0.67452719
60c750fa33e03bdaeae60c48,54,1,2024-02-28T15:21:24.080Z,french_120.wav,0,poule,281,24,4,5,Français,Femme,1,0.1,-52.16988554,0.89530536
60c750fa33e03bdaeae60c48,54,1,2024-02-28T15:21:24.080Z,french_120.wav,0,poule,281,24,4,5,Français,Femme,2,0.2,-97.11481736,0.31491033
60c750fa33e03bdaeae60c48,54,1,2024-02-28T15:21:24.080Z,french_120.wav,0,poule,281,24,4,5,Français,Femme,3,0.3,-11.4581745,0.92298319
60c750fa33e03bdaeae60c48,54,1,2024-02-28T15:21:24.080Z,french_120.wav,0,poule,281,24,4,5,Français,Femme,4,0.4,-45.99069763,0.35602146
60c750fa33e03bdaeae60c48,54,1,2024-02-28T15:21:24.080Z,french_120.wav,0,poule,281,24,4,5,Français,Femme,5,0.5,-43.61865699,0.39625722
60c750fa33e03bdaeae60c48,54,1,2024-02-28T15:21:24.080Z,french_120.wav,0,poule,281,24,4,5,Français,Femme,6,0.6,-44.83604124,1.05367551
60c750fa33e03bdaeae60c48,54,1,2024-02-28T15:21:24.080Z,french_120.wav,0,poule,281,24,4,5,Français,Femme,7,0.7,-8.86769407,1.01432352
60c750fa33e03bdaeae60c48,54,1,2024-02-28T15:21:24.080Z,french_120.wav,0,poule,281,24,4,5,Français,Femme,8,0.8,63.33461413,1.39909629
60c750fa33e03bdaeae60c48,54,1,2024-02-28T15:21:24.080Z,french_120.wav,0,poule,281,24,4,5,Français,Femme,9,0.9,-71.92792016,1.4024389
60c750fa33e03bdaeae60c48,54,1,2024-02-28T15:21:24.080Z,french_120.wav,0,poule,281,24,4,5,Français,Femme,10,1.0,76.65131092,0.62839034
60c750fa33e03bdaeae60c48,54,1,2024-02-28T15:21:24.080Z,french_120.wav,0,poule,281,24,4,5,Français,Femme,11,1.1,60.1037415,0.42144028
60c750fa33e03bdaeae60c48,54,1,2024-02-28T15:21:24.080Z,french_120.wav,0,poule,281,24,4,5,Français,Femme,12,1.14141667,-22.4064568,0.48383485
60c750fa33e03bdaeae60c48,55,1,2024-02-28T15:21:24.080Z,french_48.wav,0,poule,255,24,4,5,Français,Femme,0,0.0,31.83556995,0.04637149
60c750fa33e03bdaeae60c48,55,1,2024-02-28T15:21:24.080Z,french_48.wav,0,poule,255,24,4,5,Français,Femme,1,0.1,16.95000218,0.30680375
60c750fa33e03bdaeae60c48,55,1,2024-02-28T15:21:24.080Z,french_48.wav,0,poule,255,24,4,5,Français,Femme,2,0.2,-22.15992406,0.29895669
60c750fa33e03bdaeae60c48,55,1,2024-02-28T15:21:24.080Z,french_48.wav,0,poule,255,24,4,5,Français,Femme,3,0.3,68.06463316,0.33382903
60c750fa33e03bdaeae60c48,55,1,2024-02-28T15:21:24.080Z,french_48.wav,0,poule,255,24,4,5,Français,Femme,4,0.4,-34.30390919,1.04076391
60c750fa33e03bdaeae60c48,55,1,2024-02-28T15:21:24.080Z,french_48.wav,0,poule,255,24,4,5,Français,Femme,5,0.5,-90.33439148,1.43771341
60c750fa33e03bdaeae60c48,55,1,2024-02-28T15:21:24.080Z,french_48.wav,0,poule,255,24,4,5,Français,Femme,6,0.6,8.13738726,1.66730846
60c750fa33e03bdaeae60c48,55,1,2024-02-28T15:21:24.080Z,french_48.wav,0,poule,255,24,4,5,Français,Femme,7,0.7,-59.30021177,0.0809311
60c750fa33e03bdaeae60c48,55,1,2024-02-28T15:21:24.080Z,french_48.wav,0,poule,255,24,4,5,Français,Femme,8,0.8,-33.68412198,0.42468959
60c750fa33e03bdaeae60c48,55,1,2024-02-28T15:21:24.080Z,french_48.wav,0,poule,255,24,4,5,Français,Femme,9,0.9,-51.99918374,1.60564516
60c750fa33e03bdaeae60c48,55,1,2024-02-28T15:21:24.080Z,french_48.wav,0,poule,255,24,4,5,Français,Femme,10,1.0,-46.08867443,1.33122089
60c750fa33e03bdaeae60c48,55,1,2024-02-28T15:21:24.080Z,french_48.wav,0,poule,255,24,4,5,Français,Femme,11,1.1,17.238227,0.39324532
60c750fa33e03bdaeae60c48,55,1,2024-02-28T15:21:24.080Z,french_48.wav,0,poule,255,24,4,5,Français,Femme,12,1.14141667,43.67753982,1.35169292
60c750fa33e03bdaeae60c48,56,1,2024-02-28T15:21:24.080Z,french_493.wav,0,poule,223,24,4,5,Français,Femme,0,0.0,60.87043757,1.40554211
60c750fa33e03bdaeae60c48,56,1,2024-02-28T15:21:24.080Z,french_493.wav,0,poule,223,24,4,5,Français,Femme,1,0.1,32.48463857,1.66457085
60c750fa33e03bdaeae60c48,56,1,2024-02-28T15:21:24.080Z,french_493.wav,0,poule,223,24,4,5,Français,Femme,2,0.2,-22.70234149,0.98125391
60c750fa33e03bdaeae60c48,56,1,2024-02-28T15:21:24.080Z,french_493.wav,0,poule,223,24,4,5,Français,Femme,3,0.3,50.40796262,0.90333754
60c750fa33e03bdaeae60c48,56,1,2024-02-28T15:21:24.080Z,french_493.wav,0,poule,223,24,4,5,Français,Femme,4,0.4,-78.7388222,1.39408007
60c750fa33e03bdaeae60c48,56,1,2024-02-28T15:21:24.080Z,french_493.wav,0,poule,223,24,4,5,Français,Femme,5,0.5,84.40256274,0.50123737
60c750fa33e03bdaeae60c48,56,1,2024-02-28T15:21:24.080Z,french_493.wav,0,poule,223,24,4,5,Français,Femme,6,0.6,-34.18666035,1.84289139
60c750fa33e03bdaeae60c48,56,1,2024-02-28T15:21:24.080Z,french_493.wav,0,poule,223,24,4,5,Français,Femme,7,0.7,-64.74461958,0.68636344
60c750fa33e03bdaeae60c48,56,1,2024-02-28T15:21:24.080Z,french_493.wav,0,poule,223,24,4,5,Français,Femme,8,0.8,-49.62372235,0.94996692
60c750fa33e03bdaeae60c48,56,1,2024-02-28T15:21:24.080Z,french_493.wav,0,poule,223,24,4,5,Français,Femme,9,0.9,78.29908118,1.99629326
60c750fa33e03bdaeae60c48,56,1,2024-02-28T15:21:24.080Z,french_493.wav,0,poule,223,24,4,5,Français,Femme,10,1.0,35.51073391,0.05507168
60c750fa33e03bdaeae60c48,56,1,2024-02-28T15:21:24.080Z,french_493.wav,0,poule,223,24,4,5,Français,Femme,11,1.1,-58.37579915,1.95320668
60c750fa33e03bdaeae60c48,56,1,2024-02-28T15:21:24.080Z,french_493.wav,0,poule,223,24,4,5,Français,Femme,12,1.14141667,94.1178709,0.03741916
60c750fa33e03bdaeae60c48,57,1,2024-02-28T15:21:24.080Z,french_985.wav,0,poule,84,24,4,5,Français,Femme,0,0.0,-59.37353255,1.26289608
60c750fa33e03bdaeae60c48,57,1,2024-02-28T15:21:24.080Z,french_985.wav,0,poule,84,24,4,5,Français,Femme,1,0.1,40.25583685,1.7636238
60c750fa33e03bdaeae60c48,57,1,2024-02-28T15:21:24.080Z,french_985.wav,0,poule,84,24,4,5,Français,Femme,2,0.2,80.59080254,0.23232194
60c750fa33e03bdaeae60c48,57,1,2024-02-28T15:21:24.080Z,french_985.wav,0,poule,84,24,4,5,Français,Femme,3,0.3,40.93847923,0.4110335
60c750fa33e03bdaeae60c48,57,1,2024-02-28T15:21:24.080Z,french_985.wav,0,poule,84,24,4,5,Français,Femme,4,0.4,-36.56577189,1.43128616
60c750fa33e03bdaeae60c48,57,1,2024-02-28T15:21:24.080Z,french_985.wav,0,poule,84,24,4,5,Français,Femme,5,0.5,35.51460066,0.65384514
60c750fa33e03bdaeae60c48,57,1,2024-02-28T15:21:24.080Z,french_985.wav,0,poule,84,24,4,5,Français,Femme,6,0.6,54.7926899,0.38929396
