subj,trial,block,date,stim,stim_order,response,rt,age,french,english,language,sex,param_index,segment,pitch,stretch
60eb21bd3807b3a1810ea180,0,0,2024-02-27T11:17:09.361Z,french_675.wav,0,poule,1888,20,5,4,francias,f,0,0.0,-99.9073227,0.81298374
60eb21bd3807b3a1810ea180,0,0,2024-02-27T11:17:09.361Z,french_675.wav,0,poule,1888,20,5,4,francias,f,1,0.1,6.02560795,0.95778594
60eb21bd3807b3a1810ea180,0,0,2024-02-27T11:17:09.361Z,french_675.wav,0,poule,1888,20,5,4,francias,f,2,0.2,-87.21608726,0.60056575
60eb21bd3807b3a1810ea180,0,0,2024-02-27T11:17:09.361Z,french_675.wav,0,poule,1888,20,5,4,francias,f,3,0.3,16.166159,1.16566092
60eb21bd3807b3a1810ea180,0,0,2024-02-27T11:17:09.361Z,french_675.wav,0,poule,1888,20,5,4,francias,f,4,0.4,22.01437498,0.76727261
60eb21bd3807b3a1810ea180,0,0,2024-02-27T11:17:09.361Z,french_675.wav,0,poule,1888,20,5,4,francias,f,5,0.5,-87.69710294,1.13257272
60eb21bd3807b3a1810ea180,0,0,2024-02-27T11:17:09.361Z,french_675.wav,0,poule,1888,20,5,4,francias,f,6,0.6,54.53045846,0.2283252
60eb21bd3807b3a1810ea180,0,0,2024-02-27T11:17:09.361Z,french_675.wav,0,poule,1888,20,5,4,francias,f,7,0.7,55.67753159,0.43844238
60eb21bd3807b3a1810ea180,0,0,2024-02-27T11:17:09.361Z,french_675.wav,0,poule,1888,20,5,4,francias,f,8,0.8,-4.29051955,0.63329176
60eb21bd3807b3a1810ea180,0,0,2024-02-27T11:17:09.361Z,french_675.wav,0,poule,1888,20,5,4,francias,f,9,0.9,-19.73606801,0.92733574
60eb21bd3807b3a1810ea180,0,0,2024-02-27T11:17:09.361Z,french_675.wav,0,poule,1888,20,5,4,francias,f,10,1.0,35.95779255,1.01468224
60eb21bd3807b3a1810ea180,0,0,2024-02-27T11:17:09.361Z,french_675.wav,0,poule,1888,20,5,4,francias,f,11,1.1,2.62132668,0.86622933
60eb21bd3807b3a1810ea180,0,0,2024-02-27T11:17:09.361Z,french_675.wav,0,poule,1888,20,5,4,francias,f,12,1.14141667,32.43607348,0.89275337
60eb21bd3807b3a1810ea180,1,0,2024-02-27T11:17:09.361Z,french_369.wav,0,pull,928,20,5,4,francias,f,0,0.0,69.75074481,1.46736973
60eb21bd3807b3a1810ea180,1,0,2024-02-27T11:17:09.361Z,french_369.wav,0,pull,928,20,5,4,francias,f,1,0.1,-10.40899833,0.13737814
60eb21bd3807b3a1810ea180,1,0,2024-02-27T11:17:09.361Z,french_369.wav,0,pull,928,20,5,4,francias,f,2,0.2,85.57878117,1.34631707
60eb21bd3807b3a1810ea180,1,0,2024-02-27T11:17:09.361Z,french_369.wav,0,pull,928,20,5,4,francias,f,3,0.3,15.39701213,0.46028441
60eb21bd3807b3a1810ea180,1,0,2024-02-27T11:17:09.361Z,french_369.wav,0,pull,928,20,5,4,francias,f,4,0.4,83.19518913,0.141543
60eb21bd3807b3a1810ea180,1,0,2024-02-27T11:17:09.361Z,french_369.wav,0,pull,928,20,5,4,francias,f,5,0.5,20.33595166,0.46259405
60eb21bd3807b3a1810ea180,1,0,2024-02-27T11:17:09.361Z,french_369.wav,0,pull,928,20,5,4,francias,f,6,0.6,10.594299,0.96314063
60eb21bd3807b3a1810ea180,1,0,2024-02-27T11:17:09.361Z,french_369.wav,0,pull,928,20,5,4,francias,f,7,0.7,-65.1676687,0.97877892
60eb21bd3807b3a1810ea180,1,0,2024-02-27T11:17:09.361Z,french_369.wav,0,pull,928,20,5,4,francias,f,8,0.8,49.76363472,1.10716642
60eb21bd3807b3a1810ea180,1,0,2024-02-27T11:17:09.361Z,french_369.wav,0,pull,928,20,5,4,francias,f,9,0.9,-78.66253889,0.40650809
60eb21bd3807b3a1810ea180,1,0,2024-02-27T11:17:09.361Z,french_369.wav,0,pull,928,20,5,4,francias,f,10,1.0,4.39215728,1.82064787
60eb21bd3807b3a1810ea180,1,0,2024-02-27T11:17:09.361Z,french_369.wav,0,pull,928,20,5,4,francias,f,11,1.1,-85.73946609,1.61141022
60eb21bd3807b3a1810ea180,1,0,2024-02-27T11:17:09.361Z,french_369.wav,0,pull,928,20,5,4,francias,f,12,1.14141667,53.02267255,0.46038383
60eb21bd3807b3a1810ea180,2,0,2024-02-27T11:17:09.361Z,french_812.wav,0,pull,4025,20,5,4,francias,f,0,0.0,-42.66002827,0.44619032
60eb21bd3807b3a1810ea180,2,0,2024-02-27T11:17:09.361Z,french_812.wav,0,pull,4025,20,5,4,francias,f,1,0.1,-63.45257727,1.09752053
60eb21bd3807b3a1810ea180,2,0,2024-02-27T11:17:09.361Z,french_812.wav,0,pull,4025,20,5,4,francias,f,2,0.2,-17.55899299,1.94483115
60eb21bd3807b3a1810ea180,2,0,2024-02-27T11:17:09.361Z,french_812.wav,0,pull,4025,20,5,4,francias,f,3,0.3,-6.53827268,1.6322026
60eb21bd3807b3a1810ea180,2,0,2024-02-27T11:17:09.361Z,french_812.wav,0,pull,4025,20,5,4,francias,f,4,0.4,82.73159926,1.42964573
60eb21bd3807b3a1810ea180,2,0,2024-02-27T11:17:09.361Z,french_812.wav,0,pull,4025,20,5,4,francias,f,5,0.5,13.20285819,1.82803278
60eb21bd3807b3a1810ea180,2,0,2024-02-27T11:17:09.361Z,french_812.wav,0,pull,4025,20,5,4,francias,f,6,0.6,-12.96734249,1.23610149
60eb21bd3807b3a1810ea180,2,0,2024-02-27T11:17:09.361Z,french_812.wav,0,pull,4025,20,5,4,francias,f,7,0.7,-74.04565338,1.25749674
60eb21bd3807b3a1810ea180,2,0,2024-02-27T11:17:09.361Z,french_812.wav,0,pull,4025,20,5,4,francias,f,8,0.8,43.93001564,1.19337031
60eb21bd3807b3a1810ea180,2,0,2024-02-27T11:17:09.361Z,french_812.wav,0,pull,4025,20,5,4,francias,f,9,0.9,-5.48619498,0.21250901
60eb21bd3807b3a1810ea180,2,0,2024-02-27T11:17:09.361Z,french_812.wav,0,pull,4025,20,5,4,francias,f,10,1.0,51.20549239,1.32924457
60eb21bd3807b3a1810ea180,2,0,2024-02-27T11:17:09.361Z,french_812.wav,0,pull,4025,20,5,4,francias,f,11,1.1,48.53876007,0.52399169
60eb21bd3807b3a1810ea180,2,0,2024-02-27T11:17:09.361Z,french_812.wav,0,pull,4025,20,5,4,francias,f,12,1.14141667,-70.42678673,0.252725
60eb21bd3807b3a1810ea180,3,0,2024-02-27T11:17:09.361Z,french_351.wav,0,poule,2381,20,5,4,francias,f,0,0.0,85.6199955,0.19143732
60eb21bd3807b3a1810ea180,3,0,2024-02-27T11:17:09.361Z,french_351.wav,0,poule,2381,20,5,4,francias,f,1,0.1,-58.21803023,0.65841603
60eb21bd3807b3a1810ea180,3,0,2024-02-27T11:17:09.361Z,french_351.wav,0,poule,2381,20,5,4,francias,f,2,0.2,-74.01582093,0.92288135
60eb21bd3807b3a1810ea180,3,0,2024-02-27T11:17:09.361Z,french_351.wav,0,poule,2381,20,5,4,francias,f,3,0.3,-37.08836973,0.84124379
60eb21bd3807b3a1810ea180,3,0,2024-02-27T11:17:09.361Z,french_351.wav,0,poule,2381,20,5,4,francias,f,4,0.4,51.76831215,0.79870299
60eb21bd3807b3a1810ea180,3,0,2024-02-27T11:17:09.361Z,french_351.wav,0,poule,2381,20,5,4,francias,f,5,0.5,8.55965689,1.46106007
60eb21bd3807b3a1810ea180,3,0,2024-02-27T11:17:09.361Z,french_351.wav,0,poule,2381,20,5,4,francias,f,6,0.6,27.71691358,0.45059655
60eb21bd3807b3a1810ea180,3,0,2024-02-27T11:17:09.361Z,french_351.wav,0,poule,2381,20,5,4,francias,f,7,0.7,-58.19113091,1.62014764
60eb21bd3807b3a1810ea180,3,0,2024-02-27T11:17:09.361Z,french_351.wav,0,poule,2381,20,5,4,francias,f,8,0.8,27.05080067,1.4891219
60eb21bd3807b3a1810ea180,3,0,2024-02-27T11:17:09.361Z,french_351.wav,0,poule,2381,20,5,4,francias,f,9,0.9,27.79413221,1.20637276
60eb21bd3807b3a1810ea180,3,0,2024-02-27T11:17:09.361Z,french_351.wav,0,poule,2381,20,5,4,francias,f,10,1.0,50.00685101,1.30794963
60eb21bd3807b3a1810ea180,3,0,2024-02-27T11:17:09.361Z,french_351.wav,0,poule,2381,20,5,4,francias,f,11,1.1,-92.88762057,0.24756041
60eb21bd3807b3a1810ea180,3,0,2024-02-27T11:17:09.361Z,french_351.wav,0,poule,2381,20,5,4,francias,f,12,1.14141667,-51.26204732,0.85622749
60eb21bd3807b3a1810ea180,4,0,2024-02-27T11:17:09.361Z,french_779.wav,0,pull,903,20,5,4,francias,f,0,0.0,-38.28425878,1.14466513
60eb21bd3807b3a1810ea180,4,0,2024-02-27T11:17:09.361Z,french_779.wav,0,pull,903,20,5,4,francias,f,1,0.1,-19.73299362,1.60046318
60eb21bd3807b3a1810ea180,4,0,2024-02-27T11:17:09.361Z,french_779.wav,0,pull,903,20,5,4,francias,f,2,0.2,-1.63971334,0.66760831
60eb21bd3807b3a1810ea180,4,0,2024-02-27T11:17:09.361Z,french_779.wav,0,pull,903,20,5,4,francias,f,3,0.3,-13.00341001,1.70247529
60eb21bd3807b3a1810ea180,4,0,2024-02-27T11:17:09.361Z,french_779.wav,0,pull,903,20,5,4,francias,f,4,0.4,-18.58635516,0.17241517
60eb21bd3807b3a1810ea180,4,0,2024-02-27T11:17:09.361Z,french_779.wav,0,pull,903,20,5,4,francias,f,5,0.5,-89.98694193,1.76793656
60eb21bd3807b3a1810ea180,4,0,2024-02-27T11:17:09.361Z,french_779.wav,0,pull,903,20,5,4,francias,f,6,0.6,92.32758461,1.36679993
60eb21bd3807b3a1810ea180,4,0,2024-02-27T11:17:09.361Z,french_779.wav,0,pull,903,20,5,4,francias,f,7,0.7,-57.54469246,0.7012445
60eb21bd3807b3a1810ea180,4,0,2024-02-27T11:17:09.361Z,french_779.wav,0,pull,903,20,5,4,francias,f,8,0.8,-77.17429957,1.36817327
60eb21bd3807b3a1810ea180,4,0,2024-02-27T11:17:09.361Z,french_779.wav,0,pull,903,20,5,4,francias,f,9,0.9,-5.46434537,0.41680341
60eb21bd3807b3a1810ea180,4,0,2024-02-27T11:17:09.361Z,french_779.wav,0,pull,903,20,5,4,francias,f,10,1.0,-18.50514079,0.28529805
60eb21bd3807b3a1810ea180,4,0,2024-02-27T11:17:09.361Z,french_779.wav,0,pull,903,20,5,4,francias,f,11,1.1,-7.2649165,1.0076311
60eb21bd3807b3a1810ea180,4,0,2024-02-27T11:17:09.361Z,french_779.wav,0,pull,903,20,5,4,francias,f,12,1.14141667,-3.97761041,1.26738641
60eb21bd3807b3a1810ea180,5,0,2024-02-27T11:17:09.361Z,french_569.wav,0,pull,32573,20,5,4,francias,f,0,0.0,40.60139036,1.33844242
60eb21bd3807b3a1810ea180,5,0,2024-02-27T11:17:09.361Z,french_569.wav,0,pull,32573,20,5,4,francias,f,1,0.1,-15.15147128,1.76501112
60eb21bd3807b3a1810ea180,5,0,2024-02-27T11:17:09.361Z,french_569.wav,0,pull,32573,20,5,4,francias,f,2,0.2,-0.95888134,0.94211994
60eb21bd3807b3a1810ea180,5,0,2024-02-27T11:17:09.361Z,french_569.wav,0,pull,32573,20,5,4,francias,f,3,0.3,44.12601478,0.15427666
60eb21bd3807b3a1810ea180,5,0,2024-02-27T11:17:09.361Z,french_569.wav,0,pull,32573,20,5,4,francias,f,4,0.4,-57.82031804,1.07164182
60eb21bd3807b3a1810ea180,5,0,2024-02-27T11:17:09.361Z,french_569.wav,0,pull,32573,20,5,4,francias,f,5,0.5,64.27680708,1.5909132
60eb21bd3807b3a1810ea180,5,0,2024-02-27T11:17:09.361Z,french_569.wav,0,pull,32573,20,5,4,francias,f,6,0.6,-63.61731308,1.21963001
60eb21bd3807b3a1810ea180,5,0,2024-02-27T11:17:09.361Z,french_569.wav,0,pull,32573,20,5,4,francias,f,7,0.7,77.98248538,0.17925278
60eb21bd3807b3a1810ea180,5,0,2024-02-27T11:17:09.361Z,french_569.wav,0,pull,32573,20,5,4,francias,f,8,0.8,-85.02373468,1.54369257
60eb21bd3807b3a1810ea180,5,0,2024-02-27T11:17:09.361Z,french_569.wav,0,pull,32573,20,5,4,francias,f,9,0.9,23.7771992,1.35763688
60eb21bd3807b3a1810ea180,5,0,2024-02-27T11:17:09.361Z,french_569.wav,0,pull,32573,20,5,4,francias,f,10,1.0,61.80066761,1.46111522
60eb21bd3807b3a1810ea180,5,0,2024-02-27T11:17:09.361Z,french_569.wav,0,pull,32573,20,5,4,francias,f,11,1.1,-41.94387,0.95375882
60eb21bd3807b3a1810ea180,5,0,2024-02-27T11:17:09.361Z,french_569.wav,0,pull,32573,20,5,4,francias,f,12,1.14141667,60.59433976,0.23927558
60eb21bd3807b3a1810ea180,6,0,2024-02-27T11:17:09.361Z,french_649.wav,0,poule,548,20,5,4,francias,f,0,0.0,-14.63575946,1.48016251
60eb21bd3807b3a1810ea180,6,0,2024-02-27T11:17:09.361Z,french_649.wav,0,poule,548,20,5,4,francias,f,1,0.1,87.90447506,1.99171813
60eb21bd3807b3a1810ea180,6,0,2024-02-27T11:17:09.361Z,french_649.wav,0,poule,548,20,5,4,francias,f,2,0.2,16.67284582,0.37897864
60eb21bd3807b3a1810ea180,6,0,2024-02-27T11:17:09.361Z,french_649.wav,0,poule,548,20,5,4,francias,f,3,0.3,66.15245768,1.28017908
60eb21bd3807b3a1810ea180,6,0,2024-02-27T11:17:09.361Z,french_649.wav,0,poule,548,20,5,4,francias,f,4,0.4,-20.15560471,0.5887237
60eb21bd3807b3a1810ea180,6,0,2024-02-27T11:17:09.361Z,french_649.wav,0,poule,548,20,5,4,francias,f,5,0.5,-60.0326813,1.90797715
60eb21bd3807b3a1810ea180,6,0,2024-02-27T11:17:09.361Z,french_649.wav,0,poule,548,20,5,4,francias,f,6,0.6,31.72800587,0.19529448
60eb21bd3807b3a1810ea180,6,0,2024-02-27T11:17:09.361Z,french_649.wav,0,poule,548,20,5,4,francias,f,7,0.7,-60.07829106,1.64301184
60eb21bd3807b3a1810ea180,6,0,2024-02-27T11:17:09.361Z,french_649.wav,0,poule,548,20,5,4,francias,f,8,0.8,15.50516257,1.80534623
60eb21bd3807b3a1810ea180,6,0,2024-02-27T11:17:09.361Z,french_649.wav,0,poule,548,20,5,4,francias,f,9,0.9,-42.6229878,0.7062957
60eb21bd3807b3a1810ea180,6,0,2024-02-27T11:17:09.361Z,french_649.wav,0,poule,548,20,5,4,francias,f,10,1.0,78.15416518,1.55899311
60eb21bd3807b3a1810ea180,6,0,2024-02-27T11:17:09.361Z,french_649.wav,0,poule,548,20,5,4,francias,f,11,1.1,46.83392995,1.39425951
60eb21bd3807b3a1810ea180,6,0,2024-02-27T11:17:09.361Z,french_649.wav,0,poule,548,20,5,4,francias,f,12,1.14141667,39.79631616,1.94277347
60eb21bd3807b3a1810ea180,7,0,2024-02-27T11:17:09.361Z,french_444.wav,0,poule,1024,20,5,4,francias,f,0,0.0,87.77909642,0.96730071
60eb21bd3807b3a1810ea180,7,0,2024-02-27T11:17:09.361Z,french_444.wav,0,poule,1024,20,5,4,francias,f,1,0.1,6.94972025,1.64754835
60eb21bd3807b3a1810ea180,7,0,2024-02-27T11:17:09.361Z,french_444.wav,0,poule,1024,20,5,4,francias,f,2,0.2,98.20857903,0.34232644
60eb21bd3807b3a1810ea180,7,0,2024-02-27T11:17:09.361Z,french_444.wav,0,poule,1024,20,5,4,francias,f,3,0.3,-35.32566364,0.90396438
60eb21bd3807b3a1810ea180,7,0,2024-02-27T11:17:09.361Z,french_444.wav,0,poule,1024,20,5,4,francias,f,4,0.4,-66.21920686,1.59193054
60eb21bd3807b3a1810ea180,7,0,2024-02-27T11:17:09.361Z,french_444.wav,0,poule,1024,20,5,4,francias,f,5,0.5,-74.00275706,1.69980703
60eb21bd3807b3a1810ea180,7,0,2024-02-27T11:17:09.361Z,french_444.wav,0,poule,1024,20,5,4,francias,f,6,0.6,-89.76463472,0.62529401
60eb21bd3807b3a1810ea180,7,0,2024-02-27T11:17:09.361Z,french_444.wav,0,poule,1024,20,5,4,francias,f,7,0.7,90.23942867,0.0404836
60eb21bd3807b3a1810ea180,7,0,2024-02-27T11:17:09.361Z,french_444.wav,0,poule,1024,20,5,4,francias,f,8,0.8,-81.90686285,0.34890232
60eb21bd3807b3a1810ea180,7,0,2024-02-27T11:17:09.361Z,french_444.wav,0,poule,1024,20,5,4,francias,f,9,0.9,5.03977492,1.70546998
60eb21bd3807b3a1810ea180,7,0,2024-02-27T11:17:09.361Z,french_444.wav,0,poule,1024,20,5,4,francias,f,10,1.0,94.83681906,1.15170641
60eb21bd3807b3a1810ea180,7,0,2024-02-27T11:17:09.361Z,french_444.wav,0,poule,1024,20,5,4,francias,f,11,1.1,-46.16486493,0.22788225
60eb21bd3807b3a1810ea180,7,0,2024-02-27T11:17:09.361Z,french_444.wav,0,poule,1024,20,5,4,francias,f,12,1.14141667,7.32353635,1.99633075
60eb21bd3807b3a1810ea180,8,0,2024-02-27T11:17:09.361Z,french_535.wav,0,pull,448,20,5,4,francias,f,0,0.0,-18.98003998,1.97060018
60eb21bd3807b3a1810ea180,8,0,2024-02-27T11:17:09.361Z,french_535.wav,0,pull,448,20,5,4,francias,f,1,0.1,1.56976446,1.58088169
60eb21bd3807b3a1810ea180,8,0,2024-02-27T11:17:09.361Z,french_535.wav,0,pull,448,20,5,4,francias,f,2,0.2,-51.96309591,0.99210399
60eb21bd3807b3a1810ea180,8,0,2024-02-27T11:17:09.361Z,french_535.wav,0,pull,448,20,5,4,francias,f,3,0.3,-32.78859188,1.78072811
60eb21bd3807b3a1810ea180,8,0,2024-02-27T11:17:09.361Z,french_535.wav,0,pull,448,20,5,4,francias,f,4,0.4,-95.94778971,1.41176375
60eb21bd3807b3a1810ea180,8,0,2024-02-27T11:17:09.361Z,french_535.wav,0,pull,448,20,5,4,francias,f,5,0.5,-11.78332853,1.55874985
60eb21bd3807b3a1810ea180,8,0,2024-02-27T11:17:09.361Z,french_535.wav,0,pull,448,20,5,4,francias,f,6,0.6,-10.35049824,1.36913047
60eb21bd3807b3a1810ea180,8,0,2024-02-27T11:17:09.361Z,french_535.wav,0,pull,448,20,5,4,francias,f,7,0.7,53.73969009,0.4263867
60eb21bd3807b3a1810ea180,8,0,2024-02-27T11:17:09.361Z,french_535.wav,0,pull,448,20,5,4,francias,f,8,0.8,1.94738184,0.39920947
60eb21bd3807b3a1810ea180,8,0,2024-02-27T11:17:09.361Z,french_535.wav,0,pull,448,20,5,4,francias,f,9,0.9,99.67224387,0.77245074
60eb21bd3807b3a1810ea180,8,0,2024-02-27T11:17:09.361Z,french_535.wav,0,pull,448,20,5,4,francias,f,10,1.0,-21.02452642,1.01720092
60eb21bd3807b3a1810ea180,8,0,2024-02-27T11:17:09.361Z,french_535.wav,0,pull,448,20,5,4,francias,f,11,1.1,31.82099625,0.36356833
60eb21bd3807b3a1810ea180,8,0,2024-02-27T11:17:09.361Z,french_535.wav,0,pull,448,20,5,4,francias,f,12,1.14141667,-23.69460156,1.1771893
60eb21bd3807b3a1810ea180,9,0,2024-02-27T11:17:09.361Z,french_765.wav,0,pull,540,20,5,4,francias,f,0,0.0,-21.76223445,1.58709165
60eb21bd3807b3a1810ea180,9,0,2024-02-27T11:17:09.361Z,french_765.wav,0,pull,540,20,5,4,francias,f,1,0.1,-69.88378146,1.30096868
60eb21bd3807b3a1810ea180,9,0,2024-02-27T11:17:09.361Z,french_765.wav,0,pull,540,20,5,4,francias,f,2,0.2,-54.62116144,0.79134487
60eb21bd3807b3a1810ea180,9,0,2024-02-27T11:17:09.361Z,french_765.wav,0,pull,540,20,5,4,francias,f,3,0.3,80.40698851,1.38985141
60eb21bd3807b3a1810ea180,9,0,2024-02-27T11:17:09.361Z,french_765.wav,0,pull,540,20,5,4,francias,f,4,0.4,44.49094145,1.16396661
60eb21bd3807b3a1810ea180,9,0,2024-02-27T11:17:09.361Z,french_765.wav,0,pull,540,20,5,4,francias,f,5,0.5,-34.58786744,0.50418915
60eb21bd3807b3a1810ea180,9,0,2024-02-27T11:17:09.361Z,french_765.wav,0,pull,540,20,5,4,francias,f,6,0.6,-82.72511393,0.66043503
60eb21bd3807b3a1810ea180,9,0,2024-02-27T11:17:09.361Z,french_765.wav,0,pull,540,20,5,4,francias,f,7,0.7,-17.30470796,0.90266971
60eb21bd3807b3a1810ea180,9,0,2024-02-27T11:17:09.361Z,french_765.wav,0,pull,540,20,5,4,francias,f,8,0.8,-3.21936287,0.65632044
60eb21bd3807b3a1810ea180,9,0,2024-02-27T11:17:09.361Z,french_765.wav,0,pull,540,20,5,4,francias,f,9,0.9,34.09717353,1.38813555
60eb21bd3807b3a1810ea180,9,0,2024-02-27T11:17:09.361Z,french_765.wav,0,pull,540,20,5,4,francias,f,10,1.0,-34.0267679,1.56070696
60eb21bd3807b3a1810ea180,9,0,2024-02-27T11:17:09.361Z,french_765.wav,0,pull,540,20,5,4,francias,f,11,1.1,91.79101104,1.04399467
60eb21bd3807b3a1810ea180,9,0,2024-02-27T11:17:09.361Z,french_765.wav,0,pull,540,20,5,4,francias,f,12,1.14141667,44.37260858,0.73913352
60eb21bd3807b3a1810ea180,10,0,2024-02-27T11:17:09.361Z,french_711.wav,0,pull,592,20,5,4,francias,f,0,0.0,-57.68537639,1.14128003
60eb21bd3807b3a1810ea180,10,0,2024-02-27T11:17:09.361Z,french_711.wav,0,pull,592,20,5,4,francias,f,1,0.1,80.50678374,0.65499836
60eb21bd3807b3a1810ea180,10,0,2024-02-27T11:17:09.361Z,french_711.wav,0,pull,592,20,5,4,francias,f,2,0.2,62.08623359,0.36935793
60eb21bd3807b3a1810ea180,10,0,2024-02-27T11:17:09.361Z,french_711.wav,0,pull,592,20,5,4,francias,f,3,0.3,-62.11963136,0.45944127
60eb21bd3807b3a1810ea180,10,0,2024-02-27T11:17:09.361Z,french_711.wav,0,pull,592,20,5,4,francias,f,4,0.4,40.40813482,1.32957836
60eb21bd3807b3a1810ea180,10,0,2024-02-27T11:17:09.361Z,french_711.wav,0,pull,592,20,5,4,francias,f,5,0.5,-1.99659726,1.01029199
60eb21bd3807b3a1810ea180,10,0,2024-02-27T11:17:09.361Z,french_711.wav,0,pull,592,20,5,4,francias,f,6,0.6,-98.85876462,0.23624425
60eb21bd3807b3a1810ea180,10,0,2024-02-27T11:17:09.361Z,french_711.wav,0,pull,592,20,5,4,francias,f,7,0.7,-17.60870607,0.5152401
60eb21bd3807b3a1810ea180,10,0,2024-02-27T11:17:09.361Z,french_711.wav,0,pull,592,20,5,4,francias,f,8,0.8,-73.6406844,0.82690989
60eb21bd3807b3a1810ea180,10,0,2024-02-27T11:17:09.361Z,french_711.wav,0,pull,592,20,5,4,francias,f,9,0.9,0.13542401,0.52689837
60eb21bd3807b3a1810ea180,10,0,2024-02-27T11:17:09.361Z,french_711.wav,0,pull,592,20,5,4,francias,f,10,1.0,58.10369401,1.52596161
60eb21bd3807b3a1810ea180,10,0,2024-02-27T11:17:09.361Z,french_711.wav,0,pull,592,20,5,4,francias,f,11,1.1,-38.91466215,1.06260355
60eb21bd3807b3a1810ea180,10,0,2024-02-27T11:17:09.361Z,french_711.wav,0,pull,592,20,5,4,francias,f,12,1.14141667,22.73847208,0.37076623
60eb21bd3807b3a1810ea180,11,0,2024-02-27T11:17:09.361Z,french_912.wav,0,poule,670,20,5,4,francias,f,0,0.0,80.68071625,0.60833614
60eb21bd3807b3a1810ea180,11,0,2024-02-27T11:17:09.361Z,french_912.wav,0,poule,670,20,5,4,francias,f,1,0.1,-74.6096102,1.31673181
60eb21bd3807b3a1810ea180,11,0,2024-02-27T11:17:09.361Z,french_912.wav,0,poule,670,20,5,4,francias,f,2,0.2,73.86411106,0.17478281
60eb21bd3807b3a1810ea180,11,0,2024-02-27T11:17:09.361Z,french_912.wav,0,poule,670,20,5,4,francias,f,3,0.3,64.55158236,0.08969123
60eb21bd3807b3a1810ea180,11,0,2024-02-27T11:17:09.361Z,french_912.wav,0,poule,670,20,5,4,francias,f,4,0.4,65.90025627,1.187561
60eb21bd3807b3a1810ea180,11,0,2024-02-27T11:17:09.361Z,french_912.wav,0,poule,670,20,5,4,francias,f,5,0.5,50.81800611,1.86233101
60eb21bd3807b3a1810ea180,11,0,2024-02-27T11:17:09.361Z,french_912.wav,0,poule,670,20,5,4,francias,f,6,0.6,47.81573035,0.98705671
60eb21bd3807b3a1810ea180,11,0,2024-02-27T11:17:09.361Z,french_912.wav,0,poule,670,20,5,4,francias,f,7,0.7,62.25019961,0.81508534
60eb21bd3807b3a1810ea180,11,0,2024-02-27T11:17:09.361Z,french_912.wav,0,poule,670,20,5,4,francias,f,8,0.8,-33.502047,0.24174061
60eb21bd3807b3a1810ea180,11,0,2024-02-27T11:17:09.361Z,french_912.wav,0,poule,670,20,5,4,francias,f,9,0.9,54.29227419,0.06561792
60eb21bd3807b3a1810ea180,11,0,2024-02-27T11:17:09.361Z,french_912.wav,0,poule,670,20,5,4,francias,f,10,1.0,-31.85955495,1.83275675
60eb21bd3807b3a1810ea180,11,0,2024-02-27T11:17:09.361Z,french_912.wav,0,poule,670,20,5,4,francias,f,11,1.1,-34.2401342,0.04646604
60eb21bd3807b3a1810ea180,11,0,2024-02-27T11:17:09.361Z,french_912.wav,0,poule,670,20,5,4,francias,f,12,1.14141667,83.50219834,1.51289562
60eb21bd3807b3a1810ea180,12,0,2024-02-27T11:17:09.361Z,french_891.wav,0,pull,13690,20,5,4,francias,f,0,0.0,-99.04712605,1.87208337
60eb21bd3807b3a1810ea180,12,0,2024-02-27T11:17:09.361Z,french_891.wav,0,pull,13690,20,5,4,francias,f,1,0.1,17.3799724,1.3828509
60eb21bd3807b3a1810ea180,12,0,2024-02-27T11:17:09.361Z,french_891.wav,0,pull,13690,20,5,4,francias,f,2,0.2,-1.30355006,1.47231184
60eb21bd3807b3a1810ea180,12,0,2024-02-27T11:17:09.361Z,french_891.wav,0,pull,13690,20,5,4,francias,f,3,0.3,11.66108417,1.45618748
60eb21bd3807b3a1810ea180,12,0,2024-02-27T11:17:09.361Z,french_891.wav,0,pull,13690,20,5,4,francias,f,4,0.4,6.35761676,1.81540908
60eb21bd3807b3a1810ea180,12,0,2024-02-27T11:17:09.361Z,french_891.wav,0,pull,13690,20,5,4,francias,f,5,0.5,-71.86971473,0.63041518
60eb21bd3807b3a1810ea180,12,0,2024-02-27T11:17:09.361Z,french_891.wav,0,pull,13690,20,5,4,francias,f,6,0.6,20.94588527,0.92124801
60eb21bd3807b3a1810ea180,12,0,2024-02-27T11:17:09.361Z,french_891.wav,0,pull,13690,20,5,4,francias,f,7,0.7,-13.59137079,0.65821591
60eb21bd3807b3a1810ea180,12,0,2024-02-27T11:17:09.361Z,french_891.wav,0,pull,13690,20,5,4,francias,f,8,0.8,62.37473981,0.6468689
60eb21bd3807b3a1810ea180,12,0,2024-02-27T11:17:09.361Z,french_891.wav,0,pull,13690,20,5,4,francias,f,9,0.9,64.47380957,0.86634815
60eb21bd3807b3a1810ea180,12,0,2024-02-27T11:17:09.361Z,french_891.wav,0,pull,13690,20,5,4,francias,f,10,1.0,-7.95126825,0.44006572
60eb21bd3807b3a1810ea180,12,0,2024-02-27T11:17:09.361Z,french_891.wav,0,pull,13690,20,5,4,francias,f,11,1.1,-34.88253316,1.52894565
60eb21bd3807b3a1810ea180,12,0,2024-02-27T11:17:09.361Z,french_891.wav,0,pull,13690,20,5,4,francias,f,12,1.14141667,95.31191198,0.84584339
60eb21bd3807b3a1810ea180,13,0,2024-02-27T11:17:09.361Z,french_48.wav,0,pull,3997,20,5,4,francias,f,0,0.0,31.83556995,0.04637149
60eb21bd3807b3a1810ea180,13,0,2024-02-27T11:17:09.361Z,french_48.wav,0,pull,3997,20,5,4,francias,f,1,0.1,16.95000218,0.30680375
60eb21bd3807b3a1810ea180,13,0,2024-02-27T11:17:09.361Z,french_48.wav,0,pull,3997,20,5,4,francias,f,2,0.2,-22.15992406,0.29895669
60eb21bd3807b3a1810ea180,13,0,2024-02-27T11:17:09.361Z,french_48.wav,0,pull,3997,20,5,4,francias,f,3,0.3,68.06463316,0.33382903
60eb21bd3807b3a1810ea180,13,0,2024-02-27T11:17:09.361Z,french_48.wav,0,pull,3997,20,5,4,francias,f,4,0.4,-34.30390919,1.04076391
60eb21bd3807b3a1810ea180,13,0,2024-02-27T11:17:09.361Z,french_48.wav,0,pull,3997,20,5,4,francias,f,5,0.5,-90.33439148,1.43771341
60eb21bd3807b3a1810ea180,13,0,2024-02-27T11:17:09.361Z,french_48.wav,0,pull,3997,20,5,4,francias,f,6,0.6,8.13738726,1.66730846
60eb21bd3807b3a1810ea180,13,0,2024-02-27T11:17:09.361Z,french_48.wav,0,pull,3997,20,5,4,francias,f,7,0.7,-59.30021177,0.0809311
60eb21bd3807b3a1810ea180,13,0,2024-02-27T11:17:09.361Z,french_48.wav,0,pull,3997,20,5,4,francias,f,8,0.8,-33.68412198,0.42468959
60eb21bd3807b3a1810ea180,13,0,2024-02-27T11:17:09.361Z,french_48.wav,0,pull,3997,20,5,4,francias,f,9,0.9,-51.99918374,1.60564516
60eb21bd3807b3a1810ea180,13,0,2024-02-27T11:17:09.361Z,french_48.wav,0,pull,3997,20,5,4,francias,f,10,1.0,-46.08867443,1.33122089
60eb21bd3807b3a1810ea180,13,0,2024-02-27T11:17:09.361Z,french_48.wav,0,pull,3997,20,5,4,francias,f,11,1.1,17.238227,0.39324532
60eb21bd3807b3a1810ea180,13,0,2024-02-27T11:17:09.361Z,french_48.wav,0,pull,3997,20,5,4,francias,f,12,1.14141667,43.67753982,1.35169292
60eb21bd3807b3a1810ea180,14,0,2024-02-27T11:17:09.361Z,french_723.wav,0,poule,808,20,5,4,francias,f,0,0.0,22.19465048,0.67419904
60eb21bd3807b3a1810ea180,14,0,2024-02-27T11:17:09.361Z,french_723.wav,0,poule,808,20,5,4,francias,f,1,0.1,23.964481,1.58262399
60eb21bd3807b3a1810ea180,14,0,2024-02-27T11:17:09.361Z,french_723.wav,0,poule,808,20,5,4,francias,f,2,0.2,-20.78401632,1.30108669
60eb21bd3807b3a1810ea180,14,0,2024-02-27T11:17:09.361Z,french_723.wav,0,poule,808,20,5,4,francias,f,3,0.3,-42.88976611,1.6401937
60eb21bd3807b3a1810ea180,14,0,2024-02-27T11:17:09.361Z,french_723.wav,0,poule,808,20,5,4,francias,f,4,0.4,-14.55295397,1.79809459
60eb21bd3807b3a1810ea180,14,0,2024-02-27T11:17:09.361Z,french_723.wav,0,poule,808,20,5,4,francias,f,5,0.5,-35.12687869,1.10487247
60eb21bd3807b3a1810ea180,14,0,2024-02-27T11:17:09.361Z,french_723.wav,0,poule,808,20,5,4,francias,f,6,0.6,-97.73060339,1.45372595
60eb21bd3807b3a1810ea180,14,0,2024-02-27T11:17:09.361Z,french_723.wav,0,poule,808,20,5,4,francias,f,7,0.7,3.95473766,0.61161136
60eb21bd3807b3a1810ea180,14,0,2024-02-27T11:17:09.361Z,french_723.wav,0,poule,808,20,5,4,francias,f,8,0.8,78.03718234,0.17526252
60eb21bd3807b3a1810ea180,14,0,2024-02-27T11:17:09.361Z,french_723.wav,0,poule,808,20,5,4,francias,f,9,0.9,-10.33119837,1.7787348
60eb21bd3807b3a1810ea180,14,0,2024-02-27T11:17:09.361Z,french_723.wav,0,poule,808,20,5,4,francias,f,10,1.0,83.18845617,1.55366011
60eb21bd3807b3a1810ea180,14,0,2024-02-27T11:17:09.361Z,french_723.wav,0,poule,808,20,5,4,francias,f,11,1.1,83.83218314,1.79647341
60eb21bd3807b3a1810ea180,14,0,2024-02-27T11:17:09.361Z,french_723.wav,0,poule,808,20,5,4,francias,f,12,1.14141667,-82.60655124,0.62892068
60eb21bd3807b3a1810ea180,15,0,2024-02-27T11:17:09.361Z,french_558.wav,0,pull,452,20,5,4,francias,f,0,0.0,-3.57689355,1.75928205
60eb21bd3807b3a1810ea180,15,0,2024-02-27T11:17:09.361Z,french_558.wav,0,pull,452,20,5,4,francias,f,1,0.1,-77.78673936,0.21568786
60eb21bd3807b3a1810ea180,15,0,2024-02-27T11:17:09.361Z,french_558.wav,0,pull,452,20,5,4,francias,f,2,0.2,-78.90625042,0.68264483
60eb21bd3807b3a1810ea180,15,0,2024-02-27T11:17:09.361Z,french_558.wav,0,pull,452,20,5,4,francias,f,3,0.3,-31.57808348,0.1390229
60eb21bd3807b3a1810ea180,15,0,2024-02-27T11:17:09.361Z,french_558.wav,0,pull,452,20,5,4,francias,f,4,0.4,26.0047479,1.48868926
60eb21bd3807b3a1810ea180,15,0,2024-02-27T11:17:09.361Z,french_558.wav,0,pull,452,20,5,4,francias,f,5,0.5,-89.44545225,0.73026348
60eb21bd3807b3a1810ea180,15,0,2024-02-27T11:17:09.361Z,french_558.wav,0,pull,452,20,5,4,francias,f,6,0.6,48.00984814,1.98670404
60eb21bd3807b3a1810ea180,15,0,2024-02-27T11:17:09.361Z,french_558.wav,0,pull,452,20,5,4,francias,f,7,0.7,99.1115791,0.6243671
60eb21bd3807b3a1810ea180,15,0,2024-02-27T11:17:09.361Z,french_558.wav,0,pull,452,20,5,4,francias,f,8,0.8,48.65395635,0.78482362
60eb21bd3807b3a1810ea180,15,0,2024-02-27T11:17:09.361Z,french_558.wav,0,pull,452,20,5,4,francias,f,9,0.9,1.74504549,1.34774411
60eb21bd3807b3a1810ea180,15,0,2024-02-27T11:17:09.361Z,french_558.wav,0,pull,452,20,5,4,francias,f,10,1.0,-26.34408283,0.39051484
60eb21bd3807b3a1810ea180,15,0,2024-02-27T11:17:09.361Z,french_558.wav,0,pull,452,20,5,4,francias,f,11,1.1,-60.15837023,0.67204364
60eb21bd3807b3a1810ea180,15,0,2024-02-27T11:17:09.361Z,french_558.wav,0,pull,452,20,5,4,francias,f,12,1.14141667,-80.77511834,1.15830165
60eb21bd3807b3a1810ea180,16,0,2024-02-27T11:17:09.361Z,french_792.wav,0,pull,396,20,5,4,francias,f,0,0.0,-28.77808047,1.01992476
60eb21bd3807b3a1810ea180,16,0,2024-02-27T11:17:09.361Z,french_792.wav,0,pull,396,20,5,4,francias,f,1,0.1,-10.00785401,1.96245929
60eb21bd3807b3a1810ea180,16,0,2024-02-27T11:17:09.361Z,french_792.wav,0,pull,396,20,5,4,francias,f,2,0.2,-89.03138292,0.33088171
60eb21bd3807b3a1810ea180,16,0,2024-02-27T11:17:09.361Z,french_792.wav,0,pull,396,20,5,4,francias,f,3,0.3,60.87015299,0.60882255
60eb21bd3807b3a1810ea180,16,0,2024-02-27T11:17:09.361Z,french_792.wav,0,pull,396,20,5,4,francias,f,4,0.4,40.7967025,1.16935641
60eb21bd3807b3a1810ea180,16,0,2024-02-27T11:17:09.361Z,french_792.wav,0,pull,396,20,5,4,francias,f,5,0.5,-0.6664258,0.04848989
60eb21bd3807b3a1810ea180,16,0,2024-02-27T11:17:09.361Z,french_792.wav,0,pull,396,20,5,4,francias,f,6,0.6,-1.44221122,0.73316645
60eb21bd3807b3a1810ea180,16,0,2024-02-27T11:17:09.361Z,french_792.wav,0,pull,396,20,5,4,francias,f,7,0.7,93.39416978,0.70146258
60eb21bd3807b3a1810ea180,16,0,2024-02-27T11:17:09.361Z,french_792.wav,0,pull,396,20,5,4,francias,f,8,0.8,13.0860733,0.98613716
60eb21bd3807b3a1810ea180,16,0,2024-02-27T11:17:09.361Z,french_792.wav,0,pull,396,20,5,4,francias,f,9,0.9,55.81352435,1.26993889
60eb21bd3807b3a1810ea180,16,0,2024-02-27T11:17:09.361Z,french_792.wav,0,pull,396,20,5,4,francias,f,10,1.0,-11.44850175,0.28761661
60eb21bd3807b3a1810ea180,16,0,2024-02-27T11:17:09.361Z,french_792.wav,0,pull,396,20,5,4,francias,f,11,1.1,-55.53563546,0.74142596
60eb21bd3807b3a1810ea180,16,0,2024-02-27T11:17:09.361Z,french_792.wav,0,pull,396,20,5,4,francias,f,12,1.14141667,28.68629966,1.34329465
60eb21bd3807b3a1810ea180,17,0,2024-02-27T11:17:09.361Z,french_102.wav,0,pull,9,20,5,4,francias,f,0,0.0,-15.01544192,1.99547859
60eb21bd3807b3a1810ea180,17,0,2024-02-27T11:17:09.361Z,french_102.wav,0,pull,9,20,5,4,francias,f,1,0.1,71.67037123,1.31067708
60eb21bd3807b3a1810ea180,17,0,2024-02-27T11:17:09.361Z,french_102.wav,0,pull,9,20,5,4,francias,f,2,0.2,-15.40775764,1.89966094
60eb21bd3807b3a1810ea180,17,0,2024-02-27T11:17:09.361Z,french_102.wav,0,pull,9,20,5,4,francias,f,3,0.3,-11.03205257,0.46209705
60eb21bd3807b3a1810ea180,17,0,2024-02-27T11:17:09.361Z,french_102.wav,0,pull,9,20,5,4,francias,f,4,0.4,83.38976595,1.59020339
60eb21bd3807b3a1810ea180,17,0,2024-02-27T11:17:09.361Z,french_102.wav,0,pull,9,20,5,4,francias,f,5,0.5,-5.64706329,0.67444191
60eb21bd3807b3a1810ea180,17,0,2024-02-27T11:17:09.361Z,french_102.wav,0,pull,9,20,5,4,francias,f,6,0.6,-61.33063811,0.39768291
60eb21bd3807b3a1810ea180,17,0,2024-02-27T11:17:09.361Z,french_102.wav,0,pull,9,20,5,4,francias,f,7,0.7,-33.99234127,1.94992257
60eb21bd3807b3a1810ea180,17,0,2024-02-27T11:17:09.361Z,french_102.wav,0,pull,9,20,5,4,francias,f,8,0.8,-77.43313944,0.27940287
60eb21bd3807b3a1810ea180,17,0,2024-02-27T11:17:09.361Z,french_102.wav,0,pull,9,20,5,4,francias,f,9,0.9,71.97416395,1.28110567
60eb21bd3807b3a1810ea180,17,0,2024-02-27T11:17:09.361Z,french_102.wav,0,pull,9,20,5,4,francias,f,10,1.0,97.74294551,1.03180034
60eb21bd3807b3a1810ea180,17,0,2024-02-27T11:17:09.361Z,french_102.wav,0,pull,9,20,5,4,francias,f,11,1.1,3.21615285,0.76414653
60eb21bd3807b3a1810ea180,17,0,2024-02-27T11:17:09.361Z,french_102.wav,0,pull,9,20,5,4,francias,f,12,1.14141667,38.32606252,1.66338618
60eb21bd3807b3a1810ea180,18,0,2024-02-27T11:17:09.361Z,french_133.wav,0,poule,127,20,5,4,francias,f,0,0.0,-7.61871603,1.34607476
60eb21bd3807b3a1810ea180,18,0,2024-02-27T11:17:09.361Z,french_133.wav,0,poule,127,20,5,4,francias,f,1,0.1,34.71331069,1.71757152
60eb21bd3807b3a1810ea180,18,0,2024-02-27T11:17:09.361Z,french_133.wav,0,poule,127,20,5,4,francias,f,2,0.2,55.79384499,1.76223693
60eb21bd3807b3a1810ea180,18,0,2024-02-27T11:17:09.361Z,french_133.wav,0,poule,127,20,5,4,francias,f,3,0.3,23.25377101,0.89332745
60eb21bd3807b3a1810ea180,18,0,2024-02-27T11:17:09.361Z,french_133.wav,0,poule,127,20,5,4,francias,f,4,0.4,77.34286394,0.6099967
60eb21bd3807b3a1810ea180,18,0,2024-02-27T11:17:09.361Z,french_133.wav,0,poule,127,20,5,4,francias,f,5,0.5,3.92318715,1.94047269
60eb21bd3807b3a1810ea180,18,0,2024-02-27T11:17:09.361Z,french_133.wav,0,poule,127,20,5,4,francias,f,6,0.6,98.08340608,1.62942383
60eb21bd3807b3a1810ea180,18,0,2024-02-27T11:17:09.361Z,french_133.wav,0,poule,127,20,5,4,francias,f,7,0.7,-24.38130769,1.25566232
60eb21bd3807b3a1810ea180,18,0,2024-02-27T11:17:09.361Z,french_133.wav,0,poule,127,20,5,4,francias,f,8,0.8,35.62412421,1.87414585
60eb21bd3807b3a1810ea180,18,0,2024-02-27T11:17:09.361Z,french_133.wav,0,poule,127,20,5,4,francias,f,9,0.9,53.54170068,0.07787487
60eb21bd3807b3a1810ea180,18,0,2024-02-27T11:17:09.361Z,french_133.wav,0,poule,127,20,5,4,francias,f,10,1.0,40.87834808,0.93409185
60eb21bd3807b3a1810ea180,18,0,2024-02-27T11:17:09.361Z,french_133.wav,0,poule,127,20,5,4,francias,f,11,1.1,98.4604717,1.5263652
60eb21bd3807b3a1810ea180,18,0,2024-02-27T11:17:09.361Z,french_133.wav,0,poule,127,20,5,4,francias,f,12,1.14141667,75.71752154,0.309992
60eb21bd3807b3a1810ea180,19,0,2024-02-27T11:17:09.361Z,french_110.wav,0,poule,246,20,5,4,francias,f,0,0.0,-49.55382507,1.59273092
60eb21bd3807b3a1810ea180,19,0,2024-02-27T11:17:09.361Z,french_110.wav,0,poule,246,20,5,4,francias,f,1,0.1,3.45056557,0.34265347
60eb21bd3807b3a1810ea180,19,0,2024-02-27T11:17:09.361Z,french_110.wav,0,poule,246,20,5,4,francias,f,2,0.2,60.85553291,1.89522696
60eb21bd3807b3a1810ea180,19,0,2024-02-27T11:17:09.361Z,french_110.wav,0,poule,246,20,5,4,francias,f,3,0.3,27.01273716,1.37531992
60eb21bd3807b3a1810ea180,19,0,2024-02-27T11:17:09.361Z,french_110.wav,0,poule,246,20,5,4,francias,f,4,0.4,69.39855055,0.92990778
60eb21bd3807b3a1810ea180,19,0,2024-02-27T11:17:09.361Z,french_110.wav,0,poule,246,20,5,4,francias,f,5,0.5,-57.48674894,0.17949399
60eb21bd3807b3a1810ea180,19,0,2024-02-27T11:17:09.361Z,french_110.wav,0,poule,246,20,5,4,francias,f,6,0.6,9.44204119,1.02012289
60eb21bd3807b3a1810ea180,19,0,2024-02-27T11:17:09.361Z,french_110.wav,0,poule,246,20,5,4,francias,f,7,0.7,8.79064651,0.69455485
60eb21bd3807b3a1810ea180,19,0,2024-02-27T11:17:09.361Z,french_110.wav,0,poule,246,20,5,4,francias,f,8,0.8,-59.90874368,0.57470009
60eb21bd3807b3a1810ea180,19,0,2024-02-27T11:17:09.361Z,french_110.wav,0,poule,246,20,5,4,francias,f,9,0.9,-59.0130881,0.48670798
60eb21bd3807b3a1810ea180,19,0,2024-02-27T11:17:09.361Z,french_110.wav,0,poule,246,20,5,4,francias,f,10,1.0,53.21957995,1.28651513
60eb21bd3807b3a1810ea180,19,0,2024-02-27T11:17:09.361Z,french_110.wav,0,poule,246,20,5,4,francias,f,11,1.1,-40.30790368,1.81922057
60eb21bd3807b3a1810ea180,19,0,2024-02-27T11:17:09.361Z,french_110.wav,0,poule,246,20,5,4,francias,f,12,1.14141667,27.6270525,0.80818814
60eb21bd3807b3a1810ea180,20,0,2024-02-27T11:17:09.361Z,french_549.wav,0,poule,207,20,5,4,francias,f,0,0.0,-75.20654592,1.24662129
60eb21bd3807b3a1810ea180,20,0,2024-02-27T11:17:09.361Z,french_549.wav,0,poule,207,20,5,4,francias,f,1,0.1,-31.46313263,0.24120097
60eb21bd3807b3a1810ea180,20,0,2024-02-27T11:17:09.361Z,french_549.wav,0,poule,207,20,5,4,francias,f,2,0.2,63.43023055,1.64296857
60eb21bd3807b3a1810ea180,20,0,2024-02-27T11:17:09.361Z,french_549.wav,0,poule,207,20,5,4,francias,f,3,0.3,-47.83204011,1.68842927
60eb21bd3807b3a1810ea180,20,0,2024-02-27T11:17:09.361Z,french_549.wav,0,poule,207,20,5,4,francias,f,4,0.4,-12.06704185,1.52780869
60eb21bd3807b3a1810ea180,20,0,2024-02-27T11:17:09.361Z,french_549.wav,0,poule,207,20,5,4,francias,f,5,0.5,21.92378147,1.9277995
60eb21bd3807b3a1810ea180,20,0,2024-02-27T11:17:09.361Z,french_549.wav,0,poule,207,20,5,4,francias,f,6,0.6,3.15866922,1.64875421
60eb21bd3807b3a1810ea180,20,0,2024-02-27T11:17:09.361Z,french_549.wav,0,poule,207,20,5,4,francias,f,7,0.7,77.16646097,0.97228607
60eb21bd3807b3a1810ea180,20,0,2024-02-27T11:17:09.361Z,french_549.wav,0,poule,207,20,5,4,francias,f,8,0.8,-55.69194491,1.26011495
60eb21bd3807b3a1810ea180,20,0,2024-02-27T11:17:09.361Z,french_549.wav,0,poule,207,20,5,4,francias,f,9,0.9,59.76392534,0.74800621
60eb21bd3807b3a1810ea180,20,0,2024-02-27T11:17:09.361Z,french_549.wav,0,poule,207,20,5,4,francias,f,10,1.0,5.24846484,0.89870469
60eb21bd3807b3a1810ea180,20,0,2024-02-27T11:17:09.361Z,french_549.wav,0,poule,207,20,5,4,francias,f,11,1.1,17.5272775,1.45858483
60eb21bd3807b3a1810ea180,20,0,2024-02-27T11:17:09.361Z,french_549.wav,0,poule,207,20,5,4,francias,f,12,1.14141667,77.18549428,1.898714
60eb21bd3807b3a1810ea180,21,0,2024-02-27T11:17:09.361Z,french_61.wav,0,pull,43,20,5,4,francias,f,0,0.0,41.87992751,0.15859946
60eb21bd3807b3a1810ea180,21,0,2024-02-27T11:17:09.361Z,french_61.wav,0,pull,43,20,5,4,francias,f,1,0.1,50.01429837,0.0345307
60eb21bd3807b3a1810ea180,21,0,2024-02-27T11:17:09.361Z,french_61.wav,0,pull,43,20,5,4,francias,f,2,0.2,78.41281703,1.61149795
60eb21bd3807b3a1810ea180,21,0,2024-02-27T11:17:09.361Z,french_61.wav,0,pull,43,20,5,4,francias,f,3,0.3,70.942707,0.93558847
60eb21bd3807b3a1810ea180,21,0,2024-02-27T11:17:09.361Z,french_61.wav,0,pull,43,20,5,4,francias,f,4,0.4,6.43514776,0.85490183
60eb21bd3807b3a1810ea180,21,0,2024-02-27T11:17:09.361Z,french_61.wav,0,pull,43,20,5,4,francias,f,5,0.5,81.12101614,1.46257569
60eb21bd3807b3a1810ea180,21,0,2024-02-27T11:17:09.361Z,french_61.wav,0,pull,43,20,5,4,francias,f,6,0.6,-70.01679423,0.3355041
60eb21bd3807b3a1810ea180,21,0,2024-02-27T11:17:09.361Z,french_61.wav,0,pull,43,20,5,4,francias,f,7,0.7,46.72667831,1.1796592
60eb21bd3807b3a1810ea180,21,0,2024-02-27T11:17:09.361Z,french_61.wav,0,pull,43,20,5,4,francias,f,8,0.8,-54.13188201,0.85418156
60eb21bd3807b3a1810ea180,21,0,2024-02-27T11:17:09.361Z,french_61.wav,0,pull,43,20,5,4,francias,f,9,0.9,-63.1082098,1.72427487
60eb21bd3807b3a1810ea180,21,0,2024-02-27T11:17:09.361Z,french_61.wav,0,pull,43,20,5,4,francias,f,10,1.0,9.65318656,1.58200109
60eb21bd3807b3a1810ea180,21,0,2024-02-27T11:17:09.361Z,french_61.wav,0,pull,43,20,5,4,francias,f,11,1.1,-4.6968319,0.07311123
60eb21bd3807b3a1810ea180,21,0,2024-02-27T11:17:09.361Z,french_61.wav,0,pull,43,20,5,4,francias,f,12,1.14141667,-73.64232026,1.36717067
60eb21bd3807b3a1810ea180,22,0,2024-02-27T11:17:09.361Z,french_170.wav,0,poule,660,20,5,4,francias,f,0,0.0,78.4256709,1.56635182
60eb21bd3807b3a1810ea180,22,0,2024-02-27T11:17:09.361Z,french_170.wav,0,poule,660,20,5,4,francias,f,1,0.1,74.01453231,0.86264396
60eb21bd3807b3a1810ea180,22,0,2024-02-27T11:17:09.361Z,french_170.wav,0,poule,660,20,5,4,francias,f,2,0.2,-39.88926349,0.54432946
60eb21bd3807b3a1810ea180,22,0,2024-02-27T11:17:09.361Z,french_170.wav,0,poule,660,20,5,4,francias,f,3,0.3,-19.85923671,0.4724751
60eb21bd3807b3a1810ea180,22,0,2024-02-27T11:17:09.361Z,french_170.wav,0,poule,660,20,5,4,francias,f,4,0.4,21.90551666,1.46831695
60eb21bd3807b3a1810ea180,22,0,2024-02-27T11:17:09.361Z,french_170.wav,0,poule,660,20,5,4,francias,f,5,0.5,-33.95377881,1.4701458
60eb21bd3807b3a1810ea180,22,0,2024-02-27T11:17:09.361Z,french_170.wav,0,poule,660,20,5,4,francias,f,6,0.6,91.63398051,0.88463831
60eb21bd3807b3a1810ea180,22,0,2024-02-27T11:17:09.361Z,french_170.wav,0,poule,660,20,5,4,francias,f,7,0.7,1.97301371,1.6321868
60eb21bd3807b3a1810ea180,22,0,2024-02-27T11:17:09.361Z,french_170.wav,0,poule,660,20,5,4,francias,f,8,0.8,23.07565561,0.37326226
60eb21bd3807b3a1810ea180,22,0,2024-02-27T11:17:09.361Z,french_170.wav,0,poule,660,20,5,4,francias,f,9,0.9,9.25122432,1.17917382
60eb21bd3807b3a1810ea180,22,0,2024-02-27T11:17:09.361Z,french_170.wav,0,poule,660,20,5,4,francias,f,10,1.0,17.68156944,0.44028457
60eb21bd3807b3a1810ea180,22,0,2024-02-27T11:17:09.361Z,french_170.wav,0,poule,660,20,5,4,francias,f,11,1.1,21.64263281,1.57885644
60eb21bd3807b3a1810ea180,22,0,2024-02-27T11:17:09.361Z,french_170.wav,0,poule,660,20,5,4,francias,f,12,1.14141667,23.34976947,0.75646094
60eb21bd3807b3a1810ea180,23,0,2024-02-27T11:17:09.361Z,french_148.wav,0,pull,155,20,5,4,francias,f,0,0.0,35.03992427,0.51574751
60eb21bd3807b3a1810ea180,23,0,2024-02-27T11:17:09.361Z,french_148.wav,0,pull,155,20,5,4,francias,f,1,0.1,-26.56645319,0.44602423
60eb21bd3807b3a1810ea180,23,0,2024-02-27T11:17:09.361Z,french_148.wav,0,pull,155,20,5,4,francias,f,2,0.2,1.54735612,1.29890337
60eb21bd3807b3a1810ea180,23,0,2024-02-27T11:17:09.361Z,french_148.wav,0,pull,155,20,5,4,francias,f,3,0.3,43.90273661,1.35071288
60eb21bd3807b3a1810ea180,23,0,2024-02-27T11:17:09.361Z,french_148.wav,0,pull,155,20,5,4,francias,f,4,0.4,20.15863223,1.88468446
60eb21bd3807b3a1810ea180,23,0,2024-02-27T11:17:09.361Z,french_148.wav,0,pull,155,20,5,4,francias,f,5,0.5,40.21769113,0.68922645
60eb21bd3807b3a1810ea180,23,0,2024-02-27T11:17:09.361Z,french_148.wav,0,pull,155,20,5,4,francias,f,6,0.6,-45.48330671,0.29500086
60eb21bd3807b3a1810ea180,23,0,2024-02-27T11:17:09.361Z,french_148.wav,0,pull,155,20,5,4,francias,f,7,0.7,37.84515717,1.13623745
60eb21bd3807b3a1810ea180,23,0,2024-02-27T11:17:09.361Z,french_148.wav,0,pull,155,20,5,4,francias,f,8,0.8,70.85795378,1.93028729
60eb21bd3807b3a1810ea180,23,0,2024-02-27T11:17:09.361Z,french_148.wav,0,pull,155,20,5,4,francias,f,9,0.9,-8.50916841,1.29954979
60eb21bd3807b3a1810ea180,23,0,2024-02-27T11:17:09.361Z,french_148.wav,0,pull,155,20,5,4,francias,f,10,1.0,74.51689941,1.64717937
60eb21bd3807b3a1810ea180,23,0,2024-02-27T11:17:09.361Z,french_148.wav,0,pull,155,20,5,4,francias,f,11,1.1,-29.84970963,0.6962146
60eb21bd3807b3a1810ea180,23,0,2024-02-27T11:17:09.361Z,french_148.wav,0,pull,155,20,5,4,francias,f,12,1.14141667,-16.19564709,1.34875208
60eb21bd3807b3a1810ea180,24,0,2024-02-27T11:17:09.361Z,french_727.wav,0,pull,151,20,5,4,francias,f,0,0.0,-20.05824151,0.38879294
60eb21bd3807b3a1810ea180,24,0,2024-02-27T11:17:09.361Z,french_727.wav,0,pull,151,20,5,4,francias,f,1,0.1,69.75510409,1.1988761
60eb21bd3807b3a1810ea180,24,0,2024-02-27T11:17:09.361Z,french_727.wav,0,pull,151,20,5,4,francias,f,2,0.2,-72.00605267,1.21340454
60eb21bd3807b3a1810ea180,24,0,2024-02-27T11:17:09.361Z,french_727.wav,0,pull,151,20,5,4,francias,f,3,0.3,-6.83631599,1.07331199
60eb21bd3807b3a1810ea180,24,0,2024-02-27T11:17:09.361Z,french_727.wav,0,pull,151,20,5,4,francias,f,4,0.4,-22.0103923,0.09560546
60eb21bd3807b3a1810ea180,24,0,2024-02-27T11:17:09.361Z,french_727.wav,0,pull,151,20,5,4,francias,f,5,0.5,-9.32146308,0.49166162
60eb21bd3807b3a1810ea180,24,0,2024-02-27T11:17:09.361Z,french_727.wav,0,pull,151,20,5,4,francias,f,6,0.6,55.52257653,1.00409517
60eb21bd3807b3a1810ea180,24,0,2024-02-27T11:17:09.361Z,french_727.wav,0,pull,151,20,5,4,francias,f,7,0.7,15.94643217,0.80619997
60eb21bd3807b3a1810ea180,24,0,2024-02-27T11:17:09.361Z,french_727.wav,0,pull,151,20,5,4,francias,f,8,0.8,-72.95565773,1.99971332
60eb21bd3807b3a1810ea180,24,0,2024-02-27T11:17:09.361Z,french_727.wav,0,pull,151,20,5,4,francias,f,9,0.9,6.47080818,0.66850695
60eb21bd3807b3a1810ea180,24,0,2024-02-27T11:17:09.361Z,french_727.wav,0,pull,151,20,5,4,francias,f,10,1.0,-39.0563141,0.85036582
60eb21bd3807b3a1810ea180,24,0,2024-02-27T11:17:09.361Z,french_727.wav,0,pull,151,20,5,4,francias,f,11,1.1,-93.66180319,0.40432855
60eb21bd3807b3a1810ea180,24,0,2024-02-27T11:17:09.361Z,french_727.wav,0,pull,151,20,5,4,francias,f,12,1.14141667,71.53836892,0.54223164
60eb21bd3807b3a1810ea180,25,0,2024-02-27T11:17:09.361Z,french_348.wav,0,poule,283,20,5,4,francias,f,0,0.0,65.33613143,1.16978451
60eb21bd3807b3a1810ea180,25,0,2024-02-27T11:17:09.361Z,french_348.wav,0,poule,283,20,5,4,francias,f,1,0.1,42.71102392,0.73810141
60eb21bd3807b3a1810ea180,25,0,2024-02-27T11:17:09.361Z,french_348.wav,0,poule,283,20,5,4,francias,f,2,0.2,-49.50432257,0.4698039
60eb21bd3807b3a1810ea180,25,0,2024-02-27T11:17:09.361Z,french_348.wav,0,poule,283,20,5,4,francias,f,3,0.3,-61.26991756,1.26576423
60eb21bd3807b3a1810ea180,25,0,2024-02-27T11:17:09.361Z,french_348.wav,0,poule,283,20,5,4,francias,f,4,0.4,81.44701614,0.22687112
60eb21bd3807b3a1810ea180,25,0,2024-02-27T11:17:09.361Z,french_348.wav,0,poule,283,20,5,4,francias,f,5,0.5,-10.05211206,1.91474745
60eb21bd3807b3a1810ea180,25,0,2024-02-27T11:17:09.361Z,french_348.wav,0,poule,283,20,5,4,francias,f,6,0.6,87.11270269,0.22997797
60eb21bd3807b3a1810ea180,25,0,2024-02-27T11:17:09.361Z,french_348.wav,0,poule,283,20,5,4,francias,f,7,0.7,90.29193007,0.73541214
60eb21bd3807b3a1810ea180,25,0,2024-02-27T11:17:09.361Z,french_348.wav,0,poule,283,20,5,4,francias,f,8,0.8,93.39850094,0.50625098
60eb21bd3807b3a1810ea180,25,0,2024-02-27T11:17:09.361Z,french_348.wav,0,poule,283,20,5,4,francias,f,9,0.9,-79.62417921,0.81926426
60eb21bd3807b3a1810ea180,25,0,2024-02-27T11:17:09.361Z,french_348.wav,0,poule,283,20,5,4,francias,f,10,1.0,-15.95490787,1.83332922
60eb21bd3807b3a1810ea180,25,0,2024-02-27T11:17:09.361Z,french_348.wav,0,poule,283,20,5,4,francias,f,11,1.1,-66.82103003,1.98718157
60eb21bd3807b3a1810ea180,25,0,2024-02-27T11:17:09.361Z,french_348.wav,0,poule,283,20,5,4,francias,f,12,1.14141667,-47.67225362,0.33289995
60eb21bd3807b3a1810ea180,26,0,2024-02-27T11:17:09.361Z,french_603.wav,0,pull,809,20,5,4,francias,f,0,0.0,19.6945105,1.69967751
60eb21bd3807b3a1810ea180,26,0,2024-02-27T11:17:09.361Z,french_603.wav,0,pull,809,20,5,4,francias,f,1,0.1,53.62811089,0.5893267
60eb21bd3807b3a1810ea180,26,0,2024-02-27T11:17:09.361Z,french_603.wav,0,pull,809,20,5,4,francias,f,2,0.2,-39.30903103,0.72876725
60eb21bd3807b3a1810ea180,26,0,2024-02-27T11:17:09.361Z,french_603.wav,0,pull,809,20,5,4,francias,f,3,0.3,54.20589937,0.31950758
60eb21bd3807b3a1810ea180,26,0,2024-02-27T11:17:09.361Z,french_603.wav,0,pull,809,20,5,4,francias,f,4,0.4,-95.2083084,1.11794186
60eb21bd3807b3a1810ea180,26,0,2024-02-27T11:17:09.361Z,french_603.wav,0,pull,809,20,5,4,francias,f,5,0.5,29.46971661,0.00334081
60eb21bd3807b3a1810ea180,26,0,2024-02-27T11:17:09.361Z,french_603.wav,0,pull,809,20,5,4,francias,f,6,0.6,-7.96409569,1.04777544
60eb21bd3807b3a1810ea180,26,0,2024-02-27T11:17:09.361Z,french_603.wav,0,pull,809,20,5,4,francias,f,7,0.7,91.50199685,0.15242204
60eb21bd3807b3a1810ea180,26,0,2024-02-27T11:17:09.361Z,french_603.wav,0,pull,809,20,5,4,francias,f,8,0.8,48.8288282,1.6691606
60eb21bd3807b3a1810ea180,26,0,2024-02-27T11:17:09.361Z,french_603.wav,0,pull,809,20,5,4,francias,f,9,0.9,47.6951267,1.19043437
60eb21bd3807b3a1810ea180,26,0,2024-02-27T11:17:09.361Z,french_603.wav,0,pull,809,20,5,4,francias,f,10,1.0,89.55727136,1.93432652
60eb21bd3807b3a1810ea180,26,0,2024-02-27T11:17:09.361Z,french_603.wav,0,pull,809,20,5,4,francias,f,11,1.1,-25.40894762,0.50605662
60eb21bd3807b3a1810ea180,26,0,2024-02-27T11:17:09.361Z,french_603.wav,0,pull,809,20,5,4,francias,f,12,1.14141667,-65.1673552,1.63687901
60eb21bd3807b3a1810ea180,27,0,2024-02-27T11:17:09.361Z,french_984.wav,0,poule,69,20,5,4,francias,f,0,0.0,-17.38025619,1.73327214
60eb21bd3807b3a1810ea180,27,0,2024-02-27T11:17:09.361Z,french_984.wav,0,poule,69,20,5,4,francias,f,1,0.1,-19.07620661,0.89289922
60eb21bd3807b3a1810ea180,27,0,2024-02-27T11:17:09.361Z,french_984.wav,0,poule,69,20,5,4,francias,f,2,0.2,86.46381691,1.96255145
60eb21bd3807b3a1810ea180,27,0,2024-02-27T11:17:09.361Z,french_984.wav,0,poule,69,20,5,4,francias,f,3,0.3,43.70120355,0.81680833
60eb21bd3807b3a1810ea180,27,0,2024-02-27T11:17:09.361Z,french_984.wav,0,poule,69,20,5,4,francias,f,4,0.4,51.14481307,0.47713757
60eb21bd3807b3a1810ea180,27,0,2024-02-27T11:17:09.361Z,french_984.wav,0,poule,69,20,5,4,francias,f,5,0.5,-82.44211059,0.6602306
60eb21bd3807b3a1810ea180,27,0,2024-02-27T11:17:09.361Z,french_984.wav,0,poule,69,20,5,4,francias,f,6,0.6,-70.79413604,0.62785035
60eb21bd3807b3a1810ea180,27,0,2024-02-27T11:17:09.361Z,french_984.wav,0,poule,69,20,5,4,francias,f,7,0.7,82.20250901,1.08845655
60eb21bd3807b3a1810ea180,27,0,2024-02-27T11:17:09.361Z,french_984.wav,0,poule,69,20,5,4,francias,f,8,0.8,32.28810594,1.84516423
60eb21bd3807b3a1810ea180,27,0,2024-02-27T11:17:09.361Z,french_984.wav,0,poule,69,20,5,4,francias,f,9,0.9,96.83082958,1.6910223
60eb21bd3807b3a1810ea180,27,0,2024-02-27T11:17:09.361Z,french_984.wav,0,poule,69,20,5,4,francias,f,10,1.0,-89.86154654,1.72477601
60eb21bd3807b3a1810ea180,27,0,2024-02-27T11:17:09.361Z,french_984.wav,0,poule,69,20,5,4,francias,f,11,1.1,76.92233823,0.65480949
60eb21bd3807b3a1810ea180,27,0,2024-02-27T11:17:09.361Z,french_984.wav,0,poule,69,20,5,4,francias,f,12,1.14141667,4.44348411,0.96028491
60eb21bd3807b3a1810ea180,28,0,2024-02-27T11:17:09.361Z,french_435.wav,0,poule,524,20,5,4,francias,f,0,0.0,81.5425699,0.93712121
60eb21bd3807b3a1810ea180,28,0,2024-02-27T11:17:09.361Z,french_435.wav,0,poule,524,20,5,4,francias,f,1,0.1,-48.84484952,1.49338777
60eb21bd3807b3a1810ea180,28,0,2024-02-27T11:17:09.361Z,french_435.wav,0,poule,524,20,5,4,francias,f,2,0.2,39.71151192,0.34387239
60eb21bd3807b3a1810ea180,28,0,2024-02-27T11:17:09.361Z,french_435.wav,0,poule,524,20,5,4,francias,f,3,0.3,29.28112411,1.76749626
60eb21bd3807b3a1810ea180,28,0,2024-02-27T11:17:09.361Z,french_435.wav,0,poule,524,20,5,4,francias,f,4,0.4,-65.26037108,0.97806384
60eb21bd3807b3a1810ea180,28,0,2024-02-27T11:17:09.361Z,french_435.wav,0,poule,524,20,5,4,francias,f,5,0.5,70.68569274,1.32932034
60eb21bd3807b3a1810ea180,28,0,2024-02-27T11:17:09.361Z,french_435.wav,0,poule,524,20,5,4,francias,f,6,0.6,31.94362707,1.36671189
60eb21bd3807b3a1810ea180,28,0,2024-02-27T11:17:09.361Z,french_435.wav,0,poule,524,20,5,4,francias,f,7,0.7,17.61291347,0.96349
60eb21bd3807b3a1810ea180,28,0,2024-02-27T11:17:09.361Z,french_435.wav,0,poule,524,20,5,4,francias,f,8,0.8,-39.1197626,0.60128096
60eb21bd3807b3a1810ea180,28,0,2024-02-27T11:17:09.361Z,french_435.wav,0,poule,524,20,5,4,francias,f,9,0.9,-5.35175447,1.42042138
60eb21bd3807b3a1810ea180,28,0,2024-02-27T11:17:09.361Z,french_435.wav,0,poule,524,20,5,4,francias,f,10,1.0,24.45778649,1.76902262
60eb21bd3807b3a1810ea180,28,0,2024-02-27T11:17:09.361Z,french_435.wav,0,poule,524,20,5,4,francias,f,11,1.1,-46.14976355,1.00188526
60eb21bd3807b3a1810ea180,28,0,2024-02-27T11:17:09.361Z,french_435.wav,0,poule,524,20,5,4,francias,f,12,1.14141667,-26.15718061,0.52918618
60eb21bd3807b3a1810ea180,29,0,2024-02-27T11:17:09.361Z,french_43.wav,0,pull,496,20,5,4,francias,f,0,0.0,-89.50101467,1.67740663
60eb21bd3807b3a1810ea180,29,0,2024-02-27T11:17:09.361Z,french_43.wav,0,pull,496,20,5,4,francias,f,1,0.1,-82.78687698,1.50626995
60eb21bd3807b3a1810ea180,29,0,2024-02-27T11:17:09.361Z,french_43.wav,0,pull,496,20,5,4,francias,f,2,0.2,-41.64789476,0.25237326
60eb21bd3807b3a1810ea180,29,0,2024-02-27T11:17:09.361Z,french_43.wav,0,pull,496,20,5,4,francias,f,3,0.3,-56.19351183,0.46519309
60eb21bd3807b3a1810ea180,29,0,2024-02-27T11:17:09.361Z,french_43.wav,0,pull,496,20,5,4,francias,f,4,0.4,-32.72606631,1.32327819
60eb21bd3807b3a1810ea180,29,0,2024-02-27T11:17:09.361Z,french_43.wav,0,pull,496,20,5,4,francias,f,5,0.5,-24.9923926,0.98582586
60eb21bd3807b3a1810ea180,29,0,2024-02-27T11:17:09.361Z,french_43.wav,0,pull,496,20,5,4,francias,f,6,0.6,29.61438439,0.41062286
60eb21bd3807b3a1810ea180,29,0,2024-02-27T11:17:09.361Z,french_43.wav,0,pull,496,20,5,4,francias,f,7,0.7,44.94046319,0.85370095
60eb21bd3807b3a1810ea180,29,0,2024-02-27T11:17:09.361Z,french_43.wav,0,pull,496,20,5,4,francias,f,8,0.8,-97.22263443,0.70305009
60eb21bd3807b3a1810ea180,29,0,2024-02-27T11:17:09.361Z,french_43.wav,0,pull,496,20,5,4,francias,f,9,0.9,1.45082334,1.831208
60eb21bd3807b3a1810ea180,29,0,2024-02-27T11:17:09.361Z,french_43.wav,0,pull,496,20,5,4,francias,f,10,1.0,-5.82604962,1.1101714
60eb21bd3807b3a1810ea180,29,0,2024-02-27T11:17:09.361Z,french_43.wav,0,pull,496,20,5,4,francias,f,11,1.1,95.81487386,0.61453497
60eb21bd3807b3a1810ea180,29,0,2024-02-27T11:17:09.361Z,french_43.wav,0,pull,496,20,5,4,francias,f,12,1.14141667,-91.26895404,1.16560772
60eb21bd3807b3a1810ea180,30,0,2024-02-27T11:17:09.361Z,french_266.wav,0,poule,264,20,5,4,francias,f,0,0.0,62.50241255,0.93840708
60eb21bd3807b3a1810ea180,30,0,2024-02-27T11:17:09.361Z,french_266.wav,0,poule,264,20,5,4,francias,f,1,0.1,-80.45225804,1.11812108
60eb21bd3807b3a1810ea180,30,0,2024-02-27T11:17:09.361Z,french_266.wav,0,poule,264,20,5,4,francias,f,2,0.2,99.9367927,0.26660891
60eb21bd3807b3a1810ea180,30,0,2024-02-27T11:17:09.361Z,french_266.wav,0,poule,264,20,5,4,francias,f,3,0.3,25.84200308,0.17403162
60eb21bd3807b3a1810ea180,30,0,2024-02-27T11:17:09.361Z,french_266.wav,0,poule,264,20,5,4,francias,f,4,0.4,3.00063379,0.79325238
60eb21bd3807b3a1810ea180,30,0,2024-02-27T11:17:09.361Z,french_266.wav,0,poule,264,20,5,4,francias,f,5,0.5,81.08001176,0.88590027
60eb21bd3807b3a1810ea180,30,0,2024-02-27T11:17:09.361Z,french_266.wav,0,poule,264,20,5,4,francias,f,6,0.6,-95.83385783,1.71394363
60eb21bd3807b3a1810ea180,30,0,2024-02-27T11:17:09.361Z,french_266.wav,0,poule,264,20,5,4,francias,f,7,0.7,-79.07600331,0.61606385
60eb21bd3807b3a1810ea180,30,0,2024-02-27T11:17:09.361Z,french_266.wav,0,poule,264,20,5,4,francias,f,8,0.8,-11.28199515,1.85993339
60eb21bd3807b3a1810ea180,30,0,2024-02-27T11:17:09.361Z,french_266.wav,0,poule,264,20,5,4,francias,f,9,0.9,57.49444579,1.14234551
60eb21bd3807b3a1810ea180,30,0,2024-02-27T11:17:09.361Z,french_266.wav,0,poule,264,20,5,4,francias,f,10,1.0,99.18608096,1.34332999
60eb21bd3807b3a1810ea180,30,0,2024-02-27T11:17:09.361Z,french_266.wav,0,poule,264,20,5,4,francias,f,11,1.1,-92.12178731,1.65260759
60eb21bd3807b3a1810ea180,30,0,2024-02-27T11:17:09.361Z,french_266.wav,0,poule,264,20,5,4,francias,f,12,1.14141667,-44.20618078,0.36778532
60eb21bd3807b3a1810ea180,31,0,2024-02-27T11:17:09.361Z,french_656.wav,0,pull,98,20,5,4,francias,f,0,0.0,99.97670879,0.59239102
60eb21bd3807b3a1810ea180,31,0,2024-02-27T11:17:09.361Z,french_656.wav,0,pull,98,20,5,4,francias,f,1,0.1,13.13237691,0.22261498
60eb21bd3807b3a1810ea180,31,0,2024-02-27T11:17:09.361Z,french_656.wav,0,pull,98,20,5,4,francias,f,2,0.2,-29.82427587,0.70596369
60eb21bd3807b3a1810ea180,31,0,2024-02-27T11:17:09.361Z,french_656.wav,0,pull,98,20,5,4,francias,f,3,0.3,-97.19078199,0.83357548
60eb21bd3807b3a1810ea180,31,0,2024-02-27T11:17:09.361Z,french_656.wav,0,pull,98,20,5,4,francias,f,4,0.4,16.61433788,1.93544912
60eb21bd3807b3a1810ea180,31,0,2024-02-27T11:17:09.361Z,french_656.wav,0,pull,98,20,5,4,francias,f,5,0.5,-11.63206152,0.95748116
60eb21bd3807b3a1810ea180,31,0,2024-02-27T11:17:09.361Z,french_656.wav,0,pull,98,20,5,4,francias,f,6,0.6,44.22844334,0.57513986
60eb21bd3807b3a1810ea180,31,0,2024-02-27T11:17:09.361Z,french_656.wav,0,pull,98,20,5,4,francias,f,7,0.7,-21.12174608,0.75814333
60eb21bd3807b3a1810ea180,31,0,2024-02-27T11:17:09.361Z,french_656.wav,0,pull,98,20,5,4,francias,f,8,0.8,94.81438705,1.21721037
60eb21bd3807b3a1810ea180,31,0,2024-02-27T11:17:09.361Z,french_656.wav,0,pull,98,20,5,4,francias,f,9,0.9,-76.66102524,0.36719178
60eb21bd3807b3a1810ea180,31,0,2024-02-27T11:17:09.361Z,french_656.wav,0,pull,98,20,5,4,francias,f,10,1.0,-7.93989674,1.2783526
60eb21bd3807b3a1810ea180,31,0,2024-02-27T11:17:09.361Z,french_656.wav,0,pull,98,20,5,4,francias,f,11,1.1,30.36688089,0.57717313
60eb21bd3807b3a1810ea180,31,0,2024-02-27T11:17:09.361Z,french_656.wav,0,pull,98,20,5,4,francias,f,12,1.14141667,-7.90018331,1.25999286
60eb21bd3807b3a1810ea180,32,0,2024-02-27T11:17:09.361Z,french_177.wav,0,poule,126,20,5,4,francias,f,0,0.0,-8.10737453,1.83762725
60eb21bd3807b3a1810ea180,32,0,2024-02-27T11:17:09.361Z,french_177.wav,0,poule,126,20,5,4,francias,f,1,0.1,-14.13185222,1.41917184
60eb21bd3807b3a1810ea180,32,0,2024-02-27T11:17:09.361Z,french_177.wav,0,poule,126,20,5,4,francias,f,2,0.2,-21.48127278,1.32076247
60eb21bd3807b3a1810ea180,32,0,2024-02-27T11:17:09.361Z,french_177.wav,0,poule,126,20,5,4,francias,f,3,0.3,24.9697288,0.20954591
60eb21bd3807b3a1810ea180,32,0,2024-02-27T11:17:09.361Z,french_177.wav,0,poule,126,20,5,4,francias,f,4,0.4,-13.99641156,0.92966731
60eb21bd3807b3a1810ea180,32,0,2024-02-27T11:17:09.361Z,french_177.wav,0,poule,126,20,5,4,francias,f,5,0.5,-59.00404828,0.48144728
60eb21bd3807b3a1810ea180,32,0,2024-02-27T11:17:09.361Z,french_177.wav,0,poule,126,20,5,4,francias,f,6,0.6,-79.56959599,1.07022563
60eb21bd3807b3a1810ea180,32,0,2024-02-27T11:17:09.361Z,french_177.wav,0,poule,126,20,5,4,francias,f,7,0.7,56.96667595,0.90878311
60eb21bd3807b3a1810ea180,32,0,2024-02-27T11:17:09.361Z,french_177.wav,0,poule,126,20,5,4,francias,f,8,0.8,53.96652251,0.75598619
60eb21bd3807b3a1810ea180,32,0,2024-02-27T11:17:09.361Z,french_177.wav,0,poule,126,20,5,4,francias,f,9,0.9,-43.28510596,1.20570373
60eb21bd3807b3a1810ea180,32,0,2024-02-27T11:17:09.361Z,french_177.wav,0,poule,126,20,5,4,francias,f,10,1.0,-17.06884575,0.31173544
60eb21bd3807b3a1810ea180,32,0,2024-02-27T11:17:09.361Z,french_177.wav,0,poule,126,20,5,4,francias,f,11,1.1,91.20873705,1.67692112
60eb21bd3807b3a1810ea180,32,0,2024-02-27T11:17:09.361Z,french_177.wav,0,poule,126,20,5,4,francias,f,12,1.14141667,-64.77412729,0.58516183
60eb21bd3807b3a1810ea180,33,0,2024-02-27T11:17:09.361Z,french_487.wav,0,pull,361,20,5,4,francias,f,0,0.0,58.9438896,0.38793188
60eb21bd3807b3a1810ea180,33,0,2024-02-27T11:17:09.361Z,french_487.wav,0,pull,361,20,5,4,francias,f,1,0.1,-82.10689421,0.28783793
60eb21bd3807b3a1810ea180,33,0,2024-02-27T11:17:09.361Z,french_487.wav,0,pull,361,20,5,4,francias,f,2,0.2,96.71378802,1.35640955
60eb21bd3807b3a1810ea180,33,0,2024-02-27T11:17:09.361Z,french_487.wav,0,pull,361,20,5,4,francias,f,3,0.3,-0.59745405,0.85134748
60eb21bd3807b3a1810ea180,33,0,2024-02-27T11:17:09.361Z,french_487.wav,0,pull,361,20,5,4,francias,f,4,0.4,26.62458477,1.48970053
60eb21bd3807b3a1810ea180,33,0,2024-02-27T11:17:09.361Z,french_487.wav,0,pull,361,20,5,4,francias,f,5,0.5,22.80935919,0.80017653
60eb21bd3807b3a1810ea180,33,0,2024-02-27T11:17:09.361Z,french_487.wav,0,pull,361,20,5,4,francias,f,6,0.6,-61.46326855,1.01902485
60eb21bd3807b3a1810ea180,33,0,2024-02-27T11:17:09.361Z,french_487.wav,0,pull,361,20,5,4,francias,f,7,0.7,60.40414786,0.96372057
60eb21bd3807b3a1810ea180,33,0,2024-02-27T11:17:09.361Z,french_487.wav,0,pull,361,20,5,4,francias,f,8,0.8,-51.0660693,1.0184721
60eb21bd3807b3a1810ea180,33,0,2024-02-27T11:17:09.361Z,french_487.wav,0,pull,361,20,5,4,francias,f,9,0.9,-81.95542497,0.47429173
60eb21bd3807b3a1810ea180,33,0,2024-02-27T11:17:09.361Z,french_487.wav,0,pull,361,20,5,4,francias,f,10,1.0,27.64908366,0.62963116
60eb21bd3807b3a1810ea180,33,0,2024-02-27T11:17:09.361Z,french_487.wav,0,pull,361,20,5,4,francias,f,11,1.1,-39.0584929,1.38887356
60eb21bd3807b3a1810ea180,33,0,2024-02-27T11:17:09.361Z,french_487.wav,0,pull,361,20,5,4,francias,f,12,1.14141667,-9.05052643,0.46386172
60eb21bd3807b3a1810ea180,34,0,2024-02-27T11:17:09.361Z,french_291.wav,0,pull,122,20,5,4,francias,f,0,0.0,75.64449734,0.99622141
60eb21bd3807b3a1810ea180,34,0,2024-02-27T11:17:09.361Z,french_291.wav,0,pull,122,20,5,4,francias,f,1,0.1,-65.43090214,0.97703248
60eb21bd3807b3a1810ea180,34,0,2024-02-27T11:17:09.361Z,french_291.wav,0,pull,122,20,5,4,francias,f,2,0.2,92.62431372,1.48498391
60eb21bd3807b3a1810ea180,34,0,2024-02-27T11:17:09.361Z,french_291.wav,0,pull,122,20,5,4,francias,f,3,0.3,-29.48164048,0.0812383
60eb21bd3807b3a1810ea180,34,0,2024-02-27T11:17:09.361Z,french_291.wav,0,pull,122,20,5,4,francias,f,4,0.4,-37.98363851,1.60208825
60eb21bd3807b3a1810ea180,34,0,2024-02-27T11:17:09.361Z,french_291.wav,0,pull,122,20,5,4,francias,f,5,0.5,15.64649245,0.32764185
60eb21bd3807b3a1810ea180,34,0,2024-02-27T11:17:09.361Z,french_291.wav,0,pull,122,20,5,4,francias,f,6,0.6,53.8652777,1.79838778
60eb21bd3807b3a1810ea180,34,0,2024-02-27T11:17:09.361Z,french_291.wav,0,pull,122,20,5,4,francias,f,7,0.7,-35.28963219,1.46329476
60eb21bd3807b3a1810ea180,34,0,2024-02-27T11:17:09.361Z,french_291.wav,0,pull,122,20,5,4,francias,f,8,0.8,24.41269774,0.59715792
60eb21bd3807b3a1810ea180,34,0,2024-02-27T11:17:09.361Z,french_291.wav,0,pull,122,20,5,4,francias,f,9,0.9,66.01035815,1.47333098
60eb21bd3807b3a1810ea180,34,0,2024-02-27T11:17:09.361Z,french_291.wav,0,pull,122,20,5,4,francias,f,10,1.0,85.37123307,0.97066406
60eb21bd3807b3a1810ea180,34,0,2024-02-27T11:17:09.361Z,french_291.wav,0,pull,122,20,5,4,francias,f,11,1.1,61.6720076,1.98581882
60eb21bd3807b3a1810ea180,34,0,2024-02-27T11:17:09.361Z,french_291.wav,0,pull,122,20,5,4,francias,f,12,1.14141667,32.49754769,0.19179558
60eb21bd3807b3a1810ea180,35,0,2024-02-27T11:17:09.361Z,french_729.wav,0,poule,516,20,5,4,francias,f,0,0.0,6.02970532,1.61080248
60eb21bd3807b3a1810ea180,35,0,2024-02-27T11:17:09.361Z,french_729.wav,0,poule,516,20,5,4,francias,f,1,0.1,-58.23115064,1.8035096
60eb21bd3807b3a1810ea180,35,0,2024-02-27T11:17:09.361Z,french_729.wav,0,poule,516,20,5,4,francias,f,2,0.2,-79.4524648,1.53819495
60eb21bd3807b3a1810ea180,35,0,2024-02-27T11:17:09.361Z,french_729.wav,0,poule,516,20,5,4,francias,f,3,0.3,25.31289493,0.27769673
60eb21bd3807b3a1810ea180,35,0,2024-02-27T11:17:09.361Z,french_729.wav,0,poule,516,20,5,4,francias,f,4,0.4,-60.34707627,0.7897534
60eb21bd3807b3a1810ea180,35,0,2024-02-27T11:17:09.361Z,french_729.wav,0,poule,516,20,5,4,francias,f,5,0.5,-88.40589566,0.63490444
60eb21bd3807b3a1810ea180,35,0,2024-02-27T11:17:09.361Z,french_729.wav,0,poule,516,20,5,4,francias,f,6,0.6,51.21957515,0.80684979
60eb21bd3807b3a1810ea180,35,0,2024-02-27T11:17:09.361Z,french_729.wav,0,poule,516,20,5,4,francias,f,7,0.7,27.50218474,1.59337723
60eb21bd3807b3a1810ea180,35,0,2024-02-27T11:17:09.361Z,french_729.wav,0,poule,516,20,5,4,francias,f,8,0.8,-8.138588,1.66290077
60eb21bd3807b3a1810ea180,35,0,2024-02-27T11:17:09.361Z,french_729.wav,0,poule,516,20,5,4,francias,f,9,0.9,-7.03673711,1.10338309
60eb21bd3807b3a1810ea180,35,0,2024-02-27T11:17:09.361Z,french_729.wav,0,poule,516,20,5,4,francias,f,10,1.0,94.92373652,1.7929398
60eb21bd3807b3a1810ea180,35,0,2024-02-27T11:17:09.361Z,french_729.wav,0,poule,516,20,5,4,francias,f,11,1.1,-56.45846908,1.95609229
60eb21bd3807b3a1810ea180,35,0,2024-02-27T11:17:09.361Z,french_729.wav,0,poule,516,20,5,4,francias,f,12,1.14141667,-5.25957002,1.67314896
60eb21bd3807b3a1810ea180,36,0,2024-02-27T11:17:09.361Z,french_111.wav,0,poule,2880,20,5,4,francias,f,0,0.0,14.77849199,0.705567
60eb21bd3807b3a1810ea180,36,0,2024-02-27T11:17:09.361Z,french_111.wav,0,poule,2880,20,5,4,francias,f,1,0.1,-93.87823823,1.75025846
60eb21bd3807b3a1810ea180,36,0,2024-02-27T11:17:09.361Z,french_111.wav,0,poule,2880,20,5,4,francias,f,2,0.2,64.26417709,0.64729838
60eb21bd3807b3a1810ea180,36,0,2024-02-27T11:17:09.361Z,french_111.wav,0,poule,2880,20,5,4,francias,f,3,0.3,-22.82520637,0.85969061
60eb21bd3807b3a1810ea180,36,0,2024-02-27T11:17:09.361Z,french_111.wav,0,poule,2880,20,5,4,francias,f,4,0.4,98.98633094,0.27217842
60eb21bd3807b3a1810ea180,36,0,2024-02-27T11:17:09.361Z,french_111.wav,0,poule,2880,20,5,4,francias,f,5,0.5,61.91694484,1.89781194
60eb21bd3807b3a1810ea180,36,0,2024-02-27T11:17:09.361Z,french_111.wav,0,poule,2880,20,5,4,francias,f,6,0.6,-14.22171185,0.81989365
60eb21bd3807b3a1810ea180,36,0,2024-02-27T11:17:09.361Z,french_111.wav,0,poule,2880,20,5,4,francias,f,7,0.7,13.64889923,1.01021301
60eb21bd3807b3a1810ea180,36,0,2024-02-27T11:17:09.361Z,french_111.wav,0,poule,2880,20,5,4,francias,f,8,0.8,16.45015469,0.3816251
60eb21bd3807b3a1810ea180,36,0,2024-02-27T11:17:09.361Z,french_111.wav,0,poule,2880,20,5,4,francias,f,9,0.9,68.39985611,1.4301898
60eb21bd3807b3a1810ea180,36,0,2024-02-27T11:17:09.361Z,french_111.wav,0,poule,2880,20,5,4,francias,f,10,1.0,9.08640089,1.68654452
60eb21bd3807b3a1810ea180,36,0,2024-02-27T11:17:09.361Z,french_111.wav,0,poule,2880,20,5,4,francias,f,11,1.1,-0.24488945,0.43604245
60eb21bd3807b3a1810ea180,36,0,2024-02-27T11:17:09.361Z,french_111.wav,0,poule,2880,20,5,4,francias,f,12,1.14141667,-45.33321106,1.24858314
60eb21bd3807b3a1810ea180,37,0,2024-02-27T11:17:09.361Z,french_31.wav,0,pull,121,20,5,4,francias,f,0,0.0,62.57492675,0.62563008
60eb21bd3807b3a1810ea180,37,0,2024-02-27T11:17:09.361Z,french_31.wav,0,pull,121,20,5,4,francias,f,1,0.1,-58.08231023,0.03942754
60eb21bd3807b3a1810ea180,37,0,2024-02-27T11:17:09.361Z,french_31.wav,0,pull,121,20,5,4,francias,f,2,0.2,-55.72136937,0.40518479
60eb21bd3807b3a1810ea180,37,0,2024-02-27T11:17:09.361Z,french_31.wav,0,pull,121,20,5,4,francias,f,3,0.3,-71.33473232,0.83625103
60eb21bd3807b3a1810ea180,37,0,2024-02-27T11:17:09.361Z,french_31.wav,0,pull,121,20,5,4,francias,f,4,0.4,-4.71968321,1.04296763
60eb21bd3807b3a1810ea180,37,0,2024-02-27T11:17:09.361Z,french_31.wav,0,pull,121,20,5,4,francias,f,5,0.5,-18.8158031,1.30881089
60eb21bd3807b3a1810ea180,37,0,2024-02-27T11:17:09.361Z,french_31.wav,0,pull,121,20,5,4,francias,f,6,0.6,57.81974569,1.24294484
60eb21bd3807b3a1810ea180,37,0,2024-02-27T11:17:09.361Z,french_31.wav,0,pull,121,20,5,4,francias,f,7,0.7,-62.11860801,1.99884765
60eb21bd3807b3a1810ea180,37,0,2024-02-27T11:17:09.361Z,french_31.wav,0,pull,121,20,5,4,francias,f,8,0.8,-40.60816107,1.24785525
60eb21bd3807b3a1810ea180,37,0,2024-02-27T11:17:09.361Z,french_31.wav,0,pull,121,20,5,4,francias,f,9,0.9,65.87873267,0.7861542
60eb21bd3807b3a1810ea180,37,0,2024-02-27T11:17:09.361Z,french_31.wav,0,pull,121,20,5,4,francias,f,10,1.0,-62.031162,0.46276533
60eb21bd3807b3a1810ea180,37,0,2024-02-27T11:17:09.361Z,french_31.wav,0,pull,121,20,5,4,francias,f,11,1.1,23.18328609,1.73009947
60eb21bd3807b3a1810ea180,37,0,2024-02-27T11:17:09.361Z,french_31.wav,0,pull,121,20,5,4,francias,f,12,1.14141667,-73.14382864,1.02235307
60eb21bd3807b3a1810ea180,38,0,2024-02-27T11:17:09.361Z,french_508.wav,0,poule,377,20,5,4,francias,f,0,0.0,-13.65692469,1.60468258
60eb21bd3807b3a1810ea180,38,0,2024-02-27T11:17:09.361Z,french_508.wav,0,poule,377,20,5,4,francias,f,1,0.1,21.05730203,1.69223853
60eb21bd3807b3a1810ea180,38,0,2024-02-27T11:17:09.361Z,french_508.wav,0,poule,377,20,5,4,francias,f,2,0.2,35.8745184,1.08425412
60eb21bd3807b3a1810ea180,38,0,2024-02-27T11:17:09.361Z,french_508.wav,0,poule,377,20,5,4,francias,f,3,0.3,73.81615415,0.4286204
60eb21bd3807b3a1810ea180,38,0,2024-02-27T11:17:09.361Z,french_508.wav,0,poule,377,20,5,4,francias,f,4,0.4,-21.27973143,0.66323635
60eb21bd3807b3a1810ea180,38,0,2024-02-27T11:17:09.361Z,french_508.wav,0,poule,377,20,5,4,francias,f,5,0.5,-82.89160494,0.73375376
60eb21bd3807b3a1810ea180,38,0,2024-02-27T11:17:09.361Z,french_508.wav,0,poule,377,20,5,4,francias,f,6,0.6,37.18976767,1.17688856
60eb21bd3807b3a1810ea180,38,0,2024-02-27T11:17:09.361Z,french_508.wav,0,poule,377,20,5,4,francias,f,7,0.7,-88.93551769,1.27783056
60eb21bd3807b3a1810ea180,38,0,2024-02-27T11:17:09.361Z,french_508.wav,0,poule,377,20,5,4,francias,f,8,0.8,-67.5722974,0.64559782
60eb21bd3807b3a1810ea180,38,0,2024-02-27T11:17:09.361Z,french_508.wav,0,poule,377,20,5,4,francias,f,9,0.9,-30.16013567,0.13087726
60eb21bd3807b3a1810ea180,38,0,2024-02-27T11:17:09.361Z,french_508.wav,0,poule,377,20,5,4,francias,f,10,1.0,-97.94018597,1.51661117
60eb21bd3807b3a1810ea180,38,0,2024-02-27T11:17:09.361Z,french_508.wav,0,poule,377,20,5,4,francias,f,11,1.1,-22.80164532,0.76508282
60eb21bd3807b3a1810ea180,38,0,2024-02-27T11:17:09.361Z,french_508.wav,0,poule,377,20,5,4,francias,f,12,1.14141667,93.86640825,1.99747877
60eb21bd3807b3a1810ea180,39,0,2024-02-27T11:17:09.361Z,french_996.wav,0,pull,442,20,5,4,francias,f,0,0.0,57.52390769,1.49078278
60eb21bd3807b3a1810ea180,39,0,2024-02-27T11:17:09.361Z,french_996.wav,0,pull,442,20,5,4,francias,f,1,0.1,28.89954393,1.56353839
60eb21bd3807b3a1810ea180,39,0,2024-02-27T11:17:09.361Z,french_996.wav,0,pull,442,20,5,4,francias,f,2,0.2,-56.16359269,1.22071433
60eb21bd3807b3a1810ea180,39,0,2024-02-27T11:17:09.361Z,french_996.wav,0,pull,442,20,5,4,francias,f,3,0.3,99.33257974,1.39398369
60eb21bd3807b3a1810ea180,39,0,2024-02-27T11:17:09.361Z,french_996.wav,0,pull,442,20,5,4,francias,f,4,0.4,7.55778037,1.76945469
60eb21bd3807b3a1810ea180,39,0,2024-02-27T11:17:09.361Z,french_996.wav,0,pull,442,20,5,4,francias,f,5,0.5,53.15282026,0.1319849
60eb21bd3807b3a1810ea180,39,0,2024-02-27T11:17:09.361Z,french_996.wav,0,pull,442,20,5,4,francias,f,6,0.6,-76.68073566,1.12557272
60eb21bd3807b3a1810ea180,39,0,2024-02-27T11:17:09.361Z,french_996.wav,0,pull,442,20,5,4,francias,f,7,0.7,-18.7129586,0.43863447
60eb21bd3807b3a1810ea180,39,0,2024-02-27T11:17:09.361Z,french_996.wav,0,pull,442,20,5,4,francias,f,8,0.8,72.85645273,0.54827929
60eb21bd3807b3a1810ea180,39,0,2024-02-27T11:17:09.361Z,french_996.wav,0,pull,442,20,5,4,francias,f,9,0.9,-89.56078896,0.55787863
60eb21bd3807b3a1810ea180,39,0,2024-02-27T11:17:09.361Z,french_996.wav,0,pull,442,20,5,4,francias,f,10,1.0,-98.66124278,1.55112453
60eb21bd3807b3a1810ea180,39,0,2024-02-27T11:17:09.361Z,french_996.wav,0,pull,442,20,5,4,francias,f,11,1.1,30.91972551,0.43338009
60eb21bd3807b3a1810ea180,39,0,2024-02-27T11:17:09.361Z,french_996.wav,0,pull,442,20,5,4,francias,f,12,1.14141667,73.76139469,1.35718155
60eb21bd3807b3a1810ea180,40,0,2024-02-27T11:17:09.361Z,french_745.wav,0,poule,1243,20,5,4,francias,f,0,0.0,-8.32888314,1.09732397
60eb21bd3807b3a1810ea180,40,0,2024-02-27T11:17:09.361Z,french_745.wav,0,poule,1243,20,5,4,francias,f,1,0.1,-6.05023993,1.87088692
60eb21bd3807b3a1810ea180,40,0,2024-02-27T11:17:09.361Z,french_745.wav,0,poule,1243,20,5,4,francias,f,2,0.2,14.20117391,1.54181536
60eb21bd3807b3a1810ea180,40,0,2024-02-27T11:17:09.361Z,french_745.wav,0,poule,1243,20,5,4,francias,f,3,0.3,9.72422027,0.66469183
60eb21bd3807b3a1810ea180,40,0,2024-02-27T11:17:09.361Z,french_745.wav,0,poule,1243,20,5,4,francias,f,4,0.4,61.94285409,0.06080466
60eb21bd3807b3a1810ea180,40,0,2024-02-27T11:17:09.361Z,french_745.wav,0,poule,1243,20,5,4,francias,f,5,0.5,16.9242065,0.4761387
60eb21bd3807b3a1810ea180,40,0,2024-02-27T11:17:09.361Z,french_745.wav,0,poule,1243,20,5,4,francias,f,6,0.6,-73.99150176,0.98624315
60eb21bd3807b3a1810ea180,40,0,2024-02-27T11:17:09.361Z,french_745.wav,0,poule,1243,20,5,4,francias,f,7,0.7,-68.75802198,1.75579455
60eb21bd3807b3a1810ea180,40,0,2024-02-27T11:17:09.361Z,french_745.wav,0,poule,1243,20,5,4,francias,f,8,0.8,30.41524691,0.49603864
60eb21bd3807b3a1810ea180,40,0,2024-02-27T11:17:09.361Z,french_745.wav,0,poule,1243,20,5,4,francias,f,9,0.9,-73.26315303,1.28396811
60eb21bd3807b3a1810ea180,40,0,2024-02-27T11:17:09.361Z,french_745.wav,0,poule,1243,20,5,4,francias,f,10,1.0,67.07087991,1.04819189
60eb21bd3807b3a1810ea180,40,0,2024-02-27T11:17:09.361Z,french_745.wav,0,poule,1243,20,5,4,francias,f,11,1.1,37.63567308,1.07853657
60eb21bd3807b3a1810ea180,40,0,2024-02-27T11:17:09.361Z,french_745.wav,0,poule,1243,20,5,4,francias,f,12,1.14141667,72.47019106,1.51225642
60eb21bd3807b3a1810ea180,41,0,2024-02-27T11:17:09.361Z,french_365.wav,0,pull,229,20,5,4,francias,f,0,0.0,31.61059752,1.42310817
60eb21bd3807b3a1810ea180,41,0,2024-02-27T11:17:09.361Z,french_365.wav,0,pull,229,20,5,4,francias,f,1,0.1,-20.95390516,1.52633282
60eb21bd3807b3a1810ea180,41,0,2024-02-27T11:17:09.361Z,french_365.wav,0,pull,229,20,5,4,francias,f,2,0.2,91.80675495,1.22938312
60eb21bd3807b3a1810ea180,41,0,2024-02-27T11:17:09.361Z,french_365.wav,0,pull,229,20,5,4,francias,f,3,0.3,67.5510561,1.26382278
60eb21bd3807b3a1810ea180,41,0,2024-02-27T11:17:09.361Z,french_365.wav,0,pull,229,20,5,4,francias,f,4,0.4,-93.71218293,1.53091844
60eb21bd3807b3a1810ea180,41,0,2024-02-27T11:17:09.361Z,french_365.wav,0,pull,229,20,5,4,francias,f,5,0.5,45.32858601,0.15378173
60eb21bd3807b3a1810ea180,41,0,2024-02-27T11:17:09.361Z,french_365.wav,0,pull,229,20,5,4,francias,f,6,0.6,84.27621414,0.48106393
60eb21bd3807b3a1810ea180,41,0,2024-02-27T11:17:09.361Z,french_365.wav,0,pull,229,20,5,4,francias,f,7,0.7,28.03701536,1.79415704
60eb21bd3807b3a1810ea180,41,0,2024-02-27T11:17:09.361Z,french_365.wav,0,pull,229,20,5,4,francias,f,8,0.8,-71.05958582,1.6034925
60eb21bd3807b3a1810ea180,41,0,2024-02-27T11:17:09.361Z,french_365.wav,0,pull,229,20,5,4,francias,f,9,0.9,-23.72094953,1.30852528
60eb21bd3807b3a1810ea180,41,0,2024-02-27T11:17:09.361Z,french_365.wav,0,pull,229,20,5,4,francias,f,10,1.0,18.29479384,0.76895664
60eb21bd3807b3a1810ea180,41,0,2024-02-27T11:17:09.361Z,french_365.wav,0,pull,229,20,5,4,francias,f,11,1.1,-12.82863724,0.54165009
60eb21bd3807b3a1810ea180,41,0,2024-02-27T11:17:09.361Z,french_365.wav,0,pull,229,20,5,4,francias,f,12,1.14141667,67.22118203,0.4698946
60eb21bd3807b3a1810ea180,42,0,2024-02-27T11:17:09.361Z,french_189.wav,0,poule,7,20,5,4,francias,f,0,0.0,28.35724915,1.71415681
60eb21bd3807b3a1810ea180,42,0,2024-02-27T11:17:09.361Z,french_189.wav,0,poule,7,20,5,4,francias,f,1,0.1,26.38493171,0.18459313
60eb21bd3807b3a1810ea180,42,0,2024-02-27T11:17:09.361Z,french_189.wav,0,poule,7,20,5,4,francias,f,2,0.2,8.90779244,0.47305151
60eb21bd3807b3a1810ea180,42,0,2024-02-27T11:17:09.361Z,french_189.wav,0,poule,7,20,5,4,francias,f,3,0.3,-34.13241848,1.92043918
60eb21bd3807b3a1810ea180,42,0,2024-02-27T11:17:09.361Z,french_189.wav,0,poule,7,20,5,4,francias,f,4,0.4,-30.2250642,1.31799805
60eb21bd3807b3a1810ea180,42,0,2024-02-27T11:17:09.361Z,french_189.wav,0,poule,7,20,5,4,francias,f,5,0.5,60.19050012,1.42118409
60eb21bd3807b3a1810ea180,42,0,2024-02-27T11:17:09.361Z,french_189.wav,0,poule,7,20,5,4,francias,f,6,0.6,75.67852572,0.66802023
60eb21bd3807b3a1810ea180,42,0,2024-02-27T11:17:09.361Z,french_189.wav,0,poule,7,20,5,4,francias,f,7,0.7,-7.18601105,1.51681652
60eb21bd3807b3a1810ea180,42,0,2024-02-27T11:17:09.361Z,french_189.wav,0,poule,7,20,5,4,francias,f,8,0.8,11.94290596,0.60482519
60eb21bd3807b3a1810ea180,42,0,2024-02-27T11:17:09.361Z,french_189.wav,0,poule,7,20,5,4,francias,f,9,0.9,44.4176468,0.48366078
60eb21bd3807b3a1810ea180,42,0,2024-02-27T11:17:09.361Z,french_189.wav,0,poule,7,20,5,4,francias,f,10,1.0,55.01136248,1.25824198
60eb21bd3807b3a1810ea180,42,0,2024-02-27T11:17:09.361Z,french_189.wav,0,poule,7,20,5,4,francias,f,11,1.1,13.02153574,0.90606561
60eb21bd3807b3a1810ea180,42,0,2024-02-27T11:17:09.361Z,french_189.wav,0,poule,7,20,5,4,francias,f,12,1.14141667,-20.1322999,1.81389121
60eb21bd3807b3a1810ea180,43,0,2024-02-27T11:17:09.361Z,french_379.wav,0,pull,89,20,5,4,francias,f,0,0.0,92.35208151,0.11616284
60eb21bd3807b3a1810ea180,43,0,2024-02-27T11:17:09.361Z,french_379.wav,0,pull,89,20,5,4,francias,f,1,0.1,-25.91567626,0.27217006
60eb21bd3807b3a1810ea180,43,0,2024-02-27T11:17:09.361Z,french_379.wav,0,pull,89,20,5,4,francias,f,2,0.2,-77.118008,0.89509921
60eb21bd3807b3a1810ea180,43,0,2024-02-27T11:17:09.361Z,french_379.wav,0,pull,89,20,5,4,francias,f,3,0.3,29.86283118,0.0899849
60eb21bd3807b3a1810ea180,43,0,2024-02-27T11:17:09.361Z,french_379.wav,0,pull,89,20,5,4,francias,f,4,0.4,-82.08951689,1.97506173
60eb21bd3807b3a1810ea180,43,0,2024-02-27T11:17:09.361Z,french_379.wav,0,pull,89,20,5,4,francias,f,5,0.5,-83.67767675,1.23110802
60eb21bd3807b3a1810ea180,43,0,2024-02-27T11:17:09.361Z,french_379.wav,0,pull,89,20,5,4,francias,f,6,0.6,-86.47421564,1.35680108
60eb21bd3807b3a1810ea180,43,0,2024-02-27T11:17:09.361Z,french_379.wav,0,pull,89,20,5,4,francias,f,7,0.7,-6.33610425,0.07151016
60eb21bd3807b3a1810ea180,43,0,2024-02-27T11:17:09.361Z,french_379.wav,0,pull,89,20,5,4,francias,f,8,0.8,1.07303098,1.17075437
60eb21bd3807b3a1810ea180,43,0,2024-02-27T11:17:09.361Z,french_379.wav,0,pull,89,20,5,4,francias,f,9,0.9,-96.07937115,1.73539261
60eb21bd3807b3a1810ea180,43,0,2024-02-27T11:17:09.361Z,french_379.wav,0,pull,89,20,5,4,francias,f,10,1.0,-53.89727413,0.96881955
60eb21bd3807b3a1810ea180,43,0,2024-02-27T11:17:09.361Z,french_379.wav,0,pull,89,20,5,4,francias,f,11,1.1,72.38399251,1.26167389
60eb21bd3807b3a1810ea180,43,0,2024-02-27T11:17:09.361Z,french_379.wav,0,pull,89,20,5,4,francias,f,12,1.14141667,18.55821878,1.82038754
60eb21bd3807b3a1810ea180,44,0,2024-02-27T11:17:09.361Z,french_441.wav,0,poule,87,20,5,4,francias,f,0,0.0,-24.8078558,0.61702354
60eb21bd3807b3a1810ea180,44,0,2024-02-27T11:17:09.361Z,french_441.wav,0,poule,87,20,5,4,francias,f,1,0.1,-84.7413396,1.04353074
60eb21bd3807b3a1810ea180,44,0,2024-02-27T11:17:09.361Z,french_441.wav,0,poule,87,20,5,4,francias,f,2,0.2,-54.57948598,0.65654414
60eb21bd3807b3a1810ea180,44,0,2024-02-27T11:17:09.361Z,french_441.wav,0,poule,87,20,5,4,francias,f,3,0.3,-24.55513399,0.56139446
60eb21bd3807b3a1810ea180,44,0,2024-02-27T11:17:09.361Z,french_441.wav,0,poule,87,20,5,4,francias,f,4,0.4,-45.63119702,1.49104282
60eb21bd3807b3a1810ea180,44,0,2024-02-27T11:17:09.361Z,french_441.wav,0,poule,87,20,5,4,francias,f,5,0.5,65.30634786,1.66162479
60eb21bd3807b3a1810ea180,44,0,2024-02-27T11:17:09.361Z,french_441.wav,0,poule,87,20,5,4,francias,f,6,0.6,-35.529757,0.86040524
60eb21bd3807b3a1810ea180,44,0,2024-02-27T11:17:09.361Z,french_441.wav,0,poule,87,20,5,4,francias,f,7,0.7,-63.71516085,0.85625142
60eb21bd3807b3a1810ea180,44,0,2024-02-27T11:17:09.361Z,french_441.wav,0,poule,87,20,5,4,francias,f,8,0.8,-48.48185805,1.85480785
60eb21bd3807b3a1810ea180,44,0,2024-02-27T11:17:09.361Z,french_441.wav,0,poule,87,20,5,4,francias,f,9,0.9,67.64663354,1.13901036
60eb21bd3807b3a1810ea180,44,0,2024-02-27T11:17:09.361Z,french_441.wav,0,poule,87,20,5,4,francias,f,10,1.0,-70.86473216,0.82407347
60eb21bd3807b3a1810ea180,44,0,2024-02-27T11:17:09.361Z,french_441.wav,0,poule,87,20,5,4,francias,f,11,1.1,-25.16106758,0.60883166
60eb21bd3807b3a1810ea180,44,0,2024-02-27T11:17:09.361Z,french_441.wav,0,poule,87,20,5,4,francias,f,12,1.14141667,11.27004952,0.41277653
60eb21bd3807b3a1810ea180,45,0,2024-02-27T11:17:09.361Z,french_620.wav,0,poule,903,20,5,4,francias,f,0,0.0,81.23981072,0.49867824
60eb21bd3807b3a1810ea180,45,0,2024-02-27T11:17:09.361Z,french_620.wav,0,poule,903,20,5,4,francias,f,1,0.1,59.042463,0.00451098
60eb21bd3807b3a1810ea180,45,0,2024-02-27T11:17:09.361Z,french_620.wav,0,poule,903,20,5,4,francias,f,2,0.2,63.56884277,0.27971017
60eb21bd3807b3a1810ea180,45,0,2024-02-27T11:17:09.361Z,french_620.wav,0,poule,903,20,5,4,francias,f,3,0.3,18.30431865,1.7801653
60eb21bd3807b3a1810ea180,45,0,2024-02-27T11:17:09.361Z,french_620.wav,0,poule,903,20,5,4,francias,f,4,0.4,3.28014676,0.68268275
60eb21bd3807b3a1810ea180,45,0,2024-02-27T11:17:09.361Z,french_620.wav,0,poule,903,20,5,4,francias,f,5,0.5,-50.25769465,1.40391779
60eb21bd3807b3a1810ea180,45,0,2024-02-27T11:17:09.361Z,french_620.wav,0,poule,903,20,5,4,francias,f,6,0.6,34.04173203,1.9419564
60eb21bd3807b3a1810ea180,45,0,2024-02-27T11:17:09.361Z,french_620.wav,0,poule,903,20,5,4,francias,f,7,0.7,-89.91812475,1.23232489
60eb21bd3807b3a1810ea180,45,0,2024-02-27T11:17:09.361Z,french_620.wav,0,poule,903,20,5,4,francias,f,8,0.8,-91.12000534,1.04769521
60eb21bd3807b3a1810ea180,45,0,2024-02-27T11:17:09.361Z,french_620.wav,0,poule,903,20,5,4,francias,f,9,0.9,-56.90768545,0.51522296
60eb21bd3807b3a1810ea180,45,0,2024-02-27T11:17:09.361Z,french_620.wav,0,poule,903,20,5,4,francias,f,10,1.0,56.81289128,0.60047706
60eb21bd3807b3a1810ea180,45,0,2024-02-27T11:17:09.361Z,french_620.wav,0,poule,903,20,5,4,francias,f,11,1.1,52.75650998,0.1927266
60eb21bd3807b3a1810ea180,45,0,2024-02-27T11:17:09.361Z,french_620.wav,0,poule,903,20,5,4,francias,f,12,1.14141667,-1.02091794,0.76689439
60eb21bd3807b3a1810ea180,46,0,2024-02-27T11:17:09.361Z,french_822.wav,0,poule,480,20,5,4,francias,f,0,0.0,52.54147999,0.93325917
60eb21bd3807b3a1810ea180,46,0,2024-02-27T11:17:09.361Z,french_822.wav,0,poule,480,20,5,4,francias,f,1,0.1,-34.80076399,1.09362596
60eb21bd3807b3a1810ea180,46,0,2024-02-27T11:17:09.361Z,french_822.wav,0,poule,480,20,5,4,francias,f,2,0.2,-60.83755875,0.48727308
60eb21bd3807b3a1810ea180,46,0,2024-02-27T11:17:09.361Z,french_822.wav,0,poule,480,20,5,4,francias,f,3,0.3,-65.01212878,0.00395146
60eb21bd3807b3a1810ea180,46,0,2024-02-27T11:17:09.361Z,french_822.wav,0,poule,480,20,5,4,francias,f,4,0.4,13.01315272,0.5790212
60eb21bd3807b3a1810ea180,46,0,2024-02-27T11:17:09.361Z,french_822.wav,0,poule,480,20,5,4,francias,f,5,0.5,-34.10316227,0.49917348
60eb21bd3807b3a1810ea180,46,0,2024-02-27T11:17:09.361Z,french_822.wav,0,poule,480,20,5,4,francias,f,6,0.6,19.83997407,0.91219053
60eb21bd3807b3a1810ea180,46,0,2024-02-27T11:17:09.361Z,french_822.wav,0,poule,480,20,5,4,francias,f,7,0.7,54.70956781,0.51258571
60eb21bd3807b3a1810ea180,46,0,2024-02-27T11:17:09.361Z,french_822.wav,0,poule,480,20,5,4,francias,f,8,0.8,73.16282267,1.36837206
60eb21bd3807b3a1810ea180,46,0,2024-02-27T11:17:09.361Z,french_822.wav,0,poule,480,20,5,4,francias,f,9,0.9,86.27533908,1.46633967
60eb21bd3807b3a1810ea180,46,0,2024-02-27T11:17:09.361Z,french_822.wav,0,poule,480,20,5,4,francias,f,10,1.0,-4.69139147,0.46786351
60eb21bd3807b3a1810ea180,46,0,2024-02-27T11:17:09.361Z,french_822.wav,0,poule,480,20,5,4,francias,f,11,1.1,4.7864382,1.33976917
60eb21bd3807b3a1810ea180,46,0,2024-02-27T11:17:09.361Z,french_822.wav,0,poule,480,20,5,4,francias,f,12,1.14141667,-72.38058155,1.00243629
60eb21bd3807b3a1810ea180,47,0,2024-02-27T11:17:09.361Z,french_713.wav,0,pull,513,20,5,4,francias,f,0,0.0,-37.43474567,1.24372469
60eb21bd3807b3a1810ea180,47,0,2024-02-27T11:17:09.361Z,french_713.wav,0,pull,513,20,5,4,francias,f,1,0.1,99.965975,0.93707229
60eb21bd3807b3a1810ea180,47,0,2024-02-27T11:17:09.361Z,french_713.wav,0,pull,513,20,5,4,francias,f,2,0.2,59.45839073,1.24132484
60eb21bd3807b3a1810ea180,47,0,2024-02-27T11:17:09.361Z,french_713.wav,0,pull,513,20,5,4,francias,f,3,0.3,-25.31478906,0.8696724
60eb21bd3807b3a1810ea180,47,0,2024-02-27T11:17:09.361Z,french_713.wav,0,pull,513,20,5,4,francias,f,4,0.4,5.71723288,1.68662747
60eb21bd3807b3a1810ea180,47,0,2024-02-27T11:17:09.361Z,french_713.wav,0,pull,513,20,5,4,francias,f,5,0.5,36.1118223,0.63259997
60eb21bd3807b3a1810ea180,47,0,2024-02-27T11:17:09.361Z,french_713.wav,0,pull,513,20,5,4,francias,f,6,0.6,-56.37110024,1.92165301
60eb21bd3807b3a1810ea180,47,0,2024-02-27T11:17:09.361Z,french_713.wav,0,pull,513,20,5,4,francias,f,7,0.7,-24.52303614,1.34711854
60eb21bd3807b3a1810ea180,47,0,2024-02-27T11:17:09.361Z,french_713.wav,0,pull,513,20,5,4,francias,f,8,0.8,-2.49025769,0.32122443
60eb21bd3807b3a1810ea180,47,0,2024-02-27T11:17:09.361Z,french_713.wav,0,pull,513,20,5,4,francias,f,9,0.9,21.24369228,0.60636845
60eb21bd3807b3a1810ea180,47,0,2024-02-27T11:17:09.361Z,french_713.wav,0,pull,513,20,5,4,francias,f,10,1.0,-2.82246083,1.76664037
60eb21bd3807b3a1810ea180,47,0,2024-02-27T11:17:09.361Z,french_713.wav,0,pull,513,20,5,4,francias,f,11,1.1,-3.3969212,1.5841005
60eb21bd3807b3a1810ea180,47,0,2024-02-27T11:17:09.361Z,french_713.wav,0,pull,513,20,5,4,francias,f,12,1.14141667,-49.20963854,1.28542725
60eb21bd3807b3a1810ea180,48,0,2024-02-27T11:17:09.361Z,french_709.wav,0,poule,669,20,5,4,francias,f,0,0.0,-53.16296067,1.12002918
60eb21bd3807b3a1810ea180,48,0,2024-02-27T11:17:09.361Z,french_709.wav,0,poule,669,20,5,4,francias,f,1,0.1,59.94788803,1.08131943
60eb21bd3807b3a1810ea180,48,0,2024-02-27T11:17:09.361Z,french_709.wav,0,poule,669,20,5,4,francias,f,2,0.2,35.87727167,0.76631976
60eb21bd3807b3a1810ea180,48,0,2024-02-27T11:17:09.361Z,french_709.wav,0,poule,669,20,5,4,francias,f,3,0.3,-20.5364381,1.69776784
60eb21bd3807b3a1810ea180,48,0,2024-02-27T11:17:09.361Z,french_709.wav,0,poule,669,20,5,4,francias,f,4,0.4,34.04594206,0.74557561
60eb21bd3807b3a1810ea180,48,0,2024-02-27T11:17:09.361Z,french_709.wav,0,poule,669,20,5,4,francias,f,5,0.5,-79.51255741,1.35674371
60eb21bd3807b3a1810ea180,48,0,2024-02-27T11:17:09.361Z,french_709.wav,0,poule,669,20,5,4,francias,f,6,0.6,22.56358256,1.43825325
60eb21bd3807b3a1810ea180,48,0,2024-02-27T11:17:09.361Z,french_709.wav,0,poule,669,20,5,4,francias,f,7,0.7,-37.88762672,1.0289102
60eb21bd3807b3a1810ea180,48,0,2024-02-27T11:17:09.361Z,french_709.wav,0,poule,669,20,5,4,francias,f,8,0.8,-41.8377988,1.05848076
60eb21bd3807b3a1810ea180,48,0,2024-02-27T11:17:09.361Z,french_709.wav,0,poule,669,20,5,4,francias,f,9,0.9,-60.56478502,0.41244704
60eb21bd3807b3a1810ea180,48,0,2024-02-27T11:17:09.361Z,french_709.wav,0,poule,669,20,5,4,francias,f,10,1.0,-85.9910607,0.82703914
60eb21bd3807b3a1810ea180,48,0,2024-02-27T11:17:09.361Z,french_709.wav,0,poule,669,20,5,4,francias,f,11,1.1,-8.25451984,1.84061657
60eb21bd3807b3a1810ea180,48,0,2024-02-27T11:17:09.361Z,french_709.wav,0,poule,669,20,5,4,francias,f,12,1.14141667,-19.34673642,0.86940642
60eb21bd3807b3a1810ea180,49,0,2024-02-27T11:17:09.361Z,french_200.wav,0,poule,245,20,5,4,francias,f,0,0.0,10.66473812,1.15832736
60eb21bd3807b3a1810ea180,49,0,2024-02-27T11:17:09.361Z,french_200.wav,0,poule,245,20,5,4,francias,f,1,0.1,-23.10865754,0.48233726
60eb21bd3807b3a1810ea180,49,0,2024-02-27T11:17:09.361Z,french_200.wav,0,poule,245,20,5,4,francias,f,2,0.2,-26.94851482,0.16521916
60eb21bd3807b3a1810ea180,49,0,2024-02-27T11:17:09.361Z,french_200.wav,0,poule,245,20,5,4,francias,f,3,0.3,-33.10340519,0.50966441
60eb21bd3807b3a1810ea180,49,0,2024-02-27T11:17:09.361Z,french_200.wav,0,poule,245,20,5,4,francias,f,4,0.4,49.54751917,0.60857897
60eb21bd3807b3a1810ea180,49,0,2024-02-27T11:17:09.361Z,french_200.wav,0,poule,245,20,5,4,francias,f,5,0.5,-36.16101415,0.8415653
60eb21bd3807b3a1810ea180,49,0,2024-02-27T11:17:09.361Z,french_200.wav,0,poule,245,20,5,4,francias,f,6,0.6,69.93456636,1.89309681
60eb21bd3807b3a1810ea180,49,0,2024-02-27T11:17:09.361Z,french_200.wav,0,poule,245,20,5,4,francias,f,7,0.7,-11.46588409,1.76792236
60eb21bd3807b3a1810ea180,49,0,2024-02-27T11:17:09.361Z,french_200.wav,0,poule,245,20,5,4,francias,f,8,0.8,-34.69840246,0.32179511
60eb21bd3807b3a1810ea180,49,0,2024-02-27T11:17:09.361Z,french_200.wav,0,poule,245,20,5,4,francias,f,9,0.9,30.23959847,1.57618572
60eb21bd3807b3a1810ea180,49,0,2024-02-27T11:17:09.361Z,french_200.wav,0,poule,245,20,5,4,francias,f,10,1.0,-25.32995204,1.69305609
60eb21bd3807b3a1810ea180,49,0,2024-02-27T11:17:09.361Z,french_200.wav,0,poule,245,20,5,4,francias,f,11,1.1,23.48875346,0.93398883
60eb21bd3807b3a1810ea180,49,0,2024-02-27T11:17:09.361Z,french_200.wav,0,poule,245,20,5,4,francias,f,12,1.14141667,-45.42969725,0.80903223
60eb21bd3807b3a1810ea180,50,1,2024-02-27T11:17:09.361Z,french_526.wav,0,pull,33,20,5,4,francias,f,0,0.0,-3.34213948,0.40974575
60eb21bd3807b3a1810ea180,50,1,2024-02-27T11:17:09.361Z,french_526.wav,0,pull,33,20,5,4,francias,f,1,0.1,-38.63024981,0.80270001
60eb21bd3807b3a1810ea180,50,1,2024-02-27T11:17:09.361Z,french_526.wav,0,pull,33,20,5,4,francias,f,2,0.2,93.21737658,0.74121325
60eb21bd3807b3a1810ea180,50,1,2024-02-27T11:17:09.361Z,french_526.wav,0,pull,33,20,5,4,francias,f,3,0.3,-71.56714532,1.50939527
60eb21bd3807b3a1810ea180,50,1,2024-02-27T11:17:09.361Z,french_526.wav,0,pull,33,20,5,4,francias,f,4,0.4,55.55298997,0.92463097
60eb21bd3807b3a1810ea180,50,1,2024-02-27T11:17:09.361Z,french_526.wav,0,pull,33,20,5,4,francias,f,5,0.5,-90.65516394,1.64741989
60eb21bd3807b3a1810ea180,50,1,2024-02-27T11:17:09.361Z,french_526.wav,0,pull,33,20,5,4,francias,f,6,0.6,67.30065147,0.25308429
60eb21bd3807b3a1810ea180,50,1,2024-02-27T11:17:09.361Z,french_526.wav,0,pull,33,20,5,4,francias,f,7,0.7,-92.19460914,0.31675775
60eb21bd3807b3a1810ea180,50,1,2024-02-27T11:17:09.361Z,french_526.wav,0,pull,33,20,5,4,francias,f,8,0.8,-61.42846186,1.60624507
60eb21bd3807b3a1810ea180,50,1,2024-02-27T11:17:09.361Z,french_526.wav,0,pull,33,20,5,4,francias,f,9,0.9,-71.57092401,1.37847828
60eb21bd3807b3a1810ea180,50,1,2024-02-27T11:17:09.361Z,french_526.wav,0,pull,33,20,5,4,francias,f,10,1.0,-1.13377121,1.26755978
60eb21bd3807b3a1810ea180,50,1,2024-02-27T11:17:09.361Z,french_526.wav,0,pull,33,20,5,4,francias,f,11,1.1,79.13585044,1.65811532
60eb21bd3807b3a1810ea180,50,1,2024-02-27T11:17:09.361Z,french_526.wav,0,pull,33,20,5,4,francias,f,12,1.14141667,-60.54584427,1.5361609
60eb21bd3807b3a1810ea180,51,1,2024-02-27T11:17:09.361Z,french_946.wav,0,pull,955,20,5,4,francias,f,0,0.0,-55.67612518,0.4439597
60eb21bd3807b3a1810ea180,51,1,2024-02-27T11:17:09.361Z,french_946.wav,0,pull,955,20,5,4,francias,f,1,0.1,-16.03559422,0.03929623
60eb21bd3807b3a1810ea180,51,1,2024-02-27T11:17:09.361Z,french_946.wav,0,pull,955,20,5,4,francias,f,2,0.2,-53.91064696,1.70924034
60eb21bd3807b3a1810ea180,51,1,2024-02-27T11:17:09.361Z,french_946.wav,0,pull,955,20,5,4,francias,f,3,0.3,-54.26086959,1.28648534
60eb21bd3807b3a1810ea180,51,1,2024-02-27T11:17:09.361Z,french_946.wav,0,pull,955,20,5,4,francias,f,4,0.4,-68.76085781,1.86835463
60eb21bd3807b3a1810ea180,51,1,2024-02-27T11:17:09.361Z,french_946.wav,0,pull,955,20,5,4,francias,f,5,0.5,59.18925829,1.39467098
60eb21bd3807b3a1810ea180,51,1,2024-02-27T11:17:09.361Z,french_946.wav,0,pull,955,20,5,4,francias,f,6,0.6,63.61101254,0.62769918
60eb21bd3807b3a1810ea180,51,1,2024-02-27T11:17:09.361Z,french_946.wav,0,pull,955,20,5,4,francias,f,7,0.7,87.82589692,0.63219143
60eb21bd3807b3a1810ea180,51,1,2024-02-27T11:17:09.361Z,french_946.wav,0,pull,955,20,5,4,francias,f,8,0.8,30.01203982,0.36165151
60eb21bd3807b3a1810ea180,51,1,2024-02-27T11:17:09.361Z,french_946.wav,0,pull,955,20,5,4,francias,f,9,0.9,-24.26556885,0.01038162
60eb21bd3807b3a1810ea180,51,1,2024-02-27T11:17:09.361Z,french_946.wav,0,pull,955,20,5,4,francias,f,10,1.0,-42.07057407,1.38502095
60eb21bd3807b3a1810ea180,51,1,2024-02-27T11:17:09.361Z,french_946.wav,0,pull,955,20,5,4,francias,f,11,1.1,-49.30472811,0.34691407
60eb21bd3807b3a1810ea180,51,1,2024-02-27T11:17:09.361Z,french_946.wav,0,pull,955,20,5,4,francias,f,12,1.14141667,9.32164167,1.3196907
60eb21bd3807b3a1810ea180,52,1,2024-02-27T11:17:09.361Z,french_332.wav,0,poule,190,20,5,4,francias,f,0,0.0,96.55415185,0.2361121
60eb21bd3807b3a1810ea180,52,1,2024-02-27T11:17:09.361Z,french_332.wav,0,poule,190,20,5,4,francias,f,1,0.1,41.84676529,1.55908087
60eb21bd3807b3a1810ea180,52,1,2024-02-27T11:17:09.361Z,french_332.wav,0,poule,190,20,5,4,francias,f,2,0.2,11.79407364,1.56148194
60eb21bd3807b3a1810ea180,52,1,2024-02-27T11:17:09.361Z,french_332.wav,0,poule,190,20,5,4,francias,f,3,0.3,71.95879521,0.1780551
60eb21bd3807b3a1810ea180,52,1,2024-02-27T11:17:09.361Z,french_332.wav,0,poule,190,20,5,4,francias,f,4,0.4,93.7120883,0.11299288
60eb21bd3807b3a1810ea180,52,1,2024-02-27T11:17:09.361Z,french_332.wav,0,poule,190,20,5,4,francias,f,5,0.5,-64.09021705,0.50480093
60eb21bd3807b3a1810ea180,52,1,2024-02-27T11:17:09.361Z,french_332.wav,0,poule,190,20,5,4,francias,f,6,0.6,48.95988614,1.92283551
60eb21bd3807b3a1810ea180,52,1,2024-02-27T11:17:09.361Z,french_332.wav,0,poule,190,20,5,4,francias,f,7,0.7,-46.46481752,0.74945396
60eb21bd3807b3a1810ea180,52,1,2024-02-27T11:17:09.361Z,french_332.wav,0,poule,190,20,5,4,francias,f,8,0.8,-93.14590569,1.03156879
60eb21bd3807b3a1810ea180,52,1,2024-02-27T11:17:09.361Z,french_332.wav,0,poule,190,20,5,4,francias,f,9,0.9,98.2579271,0.68943187
60eb21bd3807b3a1810ea180,52,1,2024-02-27T11:17:09.361Z,french_332.wav,0,poule,190,20,5,4,francias,f,10,1.0,-25.55352001,0.49069002
60eb21bd3807b3a1810ea180,52,1,2024-02-27T11:17:09.361Z,french_332.wav,0,poule,190,20,5,4,francias,f,11,1.1,-32.07296717,0.79107951
60eb21bd3807b3a1810ea180,52,1,2024-02-27T11:17:09.361Z,french_332.wav,0,poule,190,20,5,4,francias,f,12,1.14141667,-59.59644834,0.50996293
60eb21bd3807b3a1810ea180,53,1,2024-02-27T11:17:09.361Z,french_702.wav,0,pull,1398,20,5,4,francias,f,0,0.0,26.32047113,0.49645865
60eb21bd3807b3a1810ea180,53,1,2024-02-27T11:17:09.361Z,french_702.wav,0,pull,1398,20,5,4,francias,f,1,0.1,33.56503539,1.57950196
60eb21bd3807b3a1810ea180,53,1,2024-02-27T11:17:09.361Z,french_702.wav,0,pull,1398,20,5,4,francias,f,2,0.2,-13.32899181,1.71930356
60eb21bd3807b3a1810ea180,53,1,2024-02-27T11:17:09.361Z,french_702.wav,0,pull,1398,20,5,4,francias,f,3,0.3,-92.77430448,0.44513477
60eb21bd3807b3a1810ea180,53,1,2024-02-27T11:17:09.361Z,french_702.wav,0,pull,1398,20,5,4,francias,f,4,0.4,55.50813545,0.90179218
60eb21bd3807b3a1810ea180,53,1,2024-02-27T11:17:09.361Z,french_702.wav,0,pull,1398,20,5,4,francias,f,5,0.5,-64.42128049,1.66921342
60eb21bd3807b3a1810ea180,53,1,2024-02-27T11:17:09.361Z,french_702.wav,0,pull,1398,20,5,4,francias,f,6,0.6,-93.19419433,0.28360175
60eb21bd3807b3a1810ea180,53,1,2024-02-27T11:17:09.361Z,french_702.wav,0,pull,1398,20,5,4,francias,f,7,0.7,47.86603083,1.17825667
60eb21bd3807b3a1810ea180,53,1,2024-02-27T11:17:09.361Z,french_702.wav,0,pull,1398,20,5,4,francias,f,8,0.8,2.57404089,1.90745253
60eb21bd3807b3a1810ea180,53,1,2024-02-27T11:17:09.361Z,french_702.wav,0,pull,1398,20,5,4,francias,f,9,0.9,8.38316132,1.47535418
60eb21bd3807b3a1810ea180,53,1,2024-02-27T11:17:09.361Z,french_702.wav,0,pull,1398,20,5,4,francias,f,10,1.0,27.09531385,1.20087323
60eb21bd3807b3a1810ea180,53,1,2024-02-27T11:17:09.361Z,french_702.wav,0,pull,1398,20,5,4,francias,f,11,1.1,53.99806352,1.42749806
60eb21bd3807b3a1810ea180,53,1,2024-02-27T11:17:09.361Z,french_702.wav,0,pull,1398,20,5,4,francias,f,12,1.14141667,-2.40011534,0.48284837
60eb21bd3807b3a1810ea180,54,1,2024-02-27T11:17:09.361Z,french_158.wav,0,poule,300,20,5,4,francias,f,0,0.0,-97.16873195,0.98178979
60eb21bd3807b3a1810ea180,54,1,2024-02-27T11:17:09.361Z,french_158.wav,0,poule,300,20,5,4,francias,f,1,0.1,51.89924126,1.09786537
60eb21bd3807b3a1810ea180,54,1,2024-02-27T11:17:09.361Z,french_158.wav,0,poule,300,20,5,4,francias,f,2,0.2,-13.36075931,1.01682656
60eb21bd3807b3a1810ea180,54,1,2024-02-27T11:17:09.361Z,french_158.wav,0,poule,300,20,5,4,francias,f,3,0.3,-38.85603948,1.52660631
60eb21bd3807b3a1810ea180,54,1,2024-02-27T11:17:09.361Z,french_158.wav,0,poule,300,20,5,4,francias,f,4,0.4,-40.59046822,0.62274477
60eb21bd3807b3a1810ea180,54,1,2024-02-27T11:17:09.361Z,french_158.wav,0,poule,300,20,5,4,francias,f,5,0.5,-43.54206196,1.50152999
60eb21bd3807b3a1810ea180,54,1,2024-02-27T11:17:09.361Z,french_158.wav,0,poule,300,20,5,4,francias,f,6,0.6,-12.24032947,1.34805794
60eb21bd3807b3a1810ea180,54,1,2024-02-27T11:17:09.361Z,french_158.wav,0,poule,300,20,5,4,francias,f,7,0.7,-86.35714583,1.09441923
60eb21bd3807b3a1810ea180,54,1,2024-02-27T11:17:09.361Z,french_158.wav,0,poule,300,20,5,4,francias,f,8,0.8,26.68437741,1.68909448
60eb21bd3807b3a1810ea180,54,1,2024-02-27T11:17:09.361Z,french_158.wav,0,poule,300,20,5,4,francias,f,9,0.9,-27.65851862,1.3659413
60eb21bd3807b3a1810ea180,54,1,2024-02-27T11:17:09.361Z,french_158.wav,0,poule,300,20,5,4,francias,f,10,1.0,90.01542751,0.51492756
60eb21bd3807b3a1810ea180,54,1,2024-02-27T11:17:09.361Z,french_158.wav,0,poule,300,20,5,4,francias,f,11,1.1,32.43099277,0.99141216
60eb21bd3807b3a1810ea180,54,1,2024-02-27T11:17:09.361Z,french_158.wav,0,poule,300,20,5,4,francias,f,12,1.14141667,-88.24313691,0.67168829
60eb21bd3807b3a1810ea180,55,1,2024-02-27T11:17:09.361Z,french_421.wav,0,pull,149,20,5,4,francias,f,0,0.0,45.68225875,1.9538806
60eb21bd3807b3a1810ea180,55,1,2024-02-27T11:17:09.361Z,french_421.wav,0,pull,149,20,5,4,francias,f,1,0.1,20.77412009,0.51850619
60eb21bd3807b3a1810ea180,55,1,2024-02-27T11:17:09.361Z,french_421.wav,0,pull,149,20,5,4,francias,f,2,0.2,12.9169451,0.76737597
60eb21bd3807b3a1810ea180,55,1,2024-02-27T11:17:09.361Z,french_421.wav,0,pull,149,20,5,4,francias,f,3,0.3,53.02430198,0.87704264
60eb21bd3807b3a1810ea180,55,1,2024-02-27T11:17:09.361Z,french_421.wav,0,pull,149,20,5,4,francias,f,4,0.4,83.41126646,0.09013343
60eb21bd3807b3a1810ea180,55,1,2024-02-27T11:17:09.361Z,french_421.wav,0,pull,149,20,5,4,francias,f,5,0.5,27.70162445,1.84345299
60eb21bd3807b3a1810ea180,55,1,2024-02-27T11:17:09.361Z,french_421.wav,0,pull,149,20,5,4,francias,f,6,0.6,-9.39660641,1.84276428
60eb21bd3807b3a1810ea180,55,1,2024-02-27T11:17:09.361Z,french_421.wav,0,pull,149,20,5,4,francias,f,7,0.7,75.75645777,1.09011778
60eb21bd3807b3a1810ea180,55,1,2024-02-27T11:17:09.361Z,french_421.wav,0,pull,149,20,5,4,francias,f,8,0.8,24.8906921,1.12131544
60eb21bd3807b3a1810ea180,55,1,2024-02-27T11:17:09.361Z,french_421.wav,0,pull,149,20,5,4,francias,f,9,0.9,25.41289802,1.94516148
60eb21bd3807b3a1810ea180,55,1,2024-02-27T11:17:09.361Z,french_421.wav,0,pull,149,20,5,4,francias,f,10,1.0,27.36402577,0.42837326
60eb21bd3807b3a1810ea180,55,1,2024-02-27T11:17:09.361Z,french_421.wav,0,pull,149,20,5,4,francias,f,11,1.1,-7.62413192,0.5442249
60eb21bd3807b3a1810ea180,55,1,2024-02-27T11:17:09.361Z,french_421.wav,0,pull,149,20,5,4,francias,f,12,1.14141667,-0.69383243,1.37977126
60eb21bd3807b3a1810ea180,56,1,2024-02-27T11:17:09.361Z,french_323.wav,0,poule,244,20,5,4,francias,f,0,0.0,12.36986901,1.14236572
60eb21bd3807b3a1810ea180,56,1,2024-02-27T11:17:09.361Z,french_323.wav,0,poule,244,20,5,4,francias,f,1,0.1,48.82190283,0.38320847
60eb21bd3807b3a1810ea180,56,1,2024-02-27T11:17:09.361Z,french_323.wav,0,poule,244,20,5,4,francias,f,2,0.2,-1.79727253,1.79497165
60eb21bd3807b3a1810ea180,56,1,2024-02-27T11:17:09.361Z,french_323.wav,0,poule,244,20,5,4,francias,f,3,0.3,77.63750811,1.20829329
60eb21bd3807b3a1810ea180,56,1,2024-02-27T11:17:09.361Z,french_323.wav,0,poule,244,20,5,4,francias,f,4,0.4,-60.00496185,1.87271721
60eb21bd3807b3a1810ea180,56,1,2024-02-27T11:17:09.361Z,french_323.wav,0,poule,244,20,5,4,francias,f,5,0.5,-2.01076709,1.08235671
60eb21bd3807b3a1810ea180,56,1,2024-02-27T11:17:09.361Z,french_323.wav,0,poule,244,20,5,4,francias,f,6,0.6,-28.75884422,1.19118186
60eb21bd3807b3a1810ea180,56,1,2024-02-27T11:17:09.361Z,french_323.wav,0,poule,244,20,5,4,francias,f,7,0.7,22.62115314,1.38743172
60eb21bd3807b3a1810ea180,56,1,2024-02-27T11:17:09.361Z,french_323.wav,0,poule,244,20,5,4,francias,f,8,0.8,-2.37165969,1.90987729
60eb21bd3807b3a1810ea180,56,1,2024-02-27T11:17:09.361Z,french_323.wav,0,poule,244,20,5,4,francias,f,9,0.9,22.55401856,1.29939901
60eb21bd3807b3a1810ea180,56,1,2024-02-27T11:17:09.361Z,french_323.wav,0,poule,244,20,5,4,francias,f,10,1.0,43.0566967,1.04952512
60eb21bd3807b3a1810ea180,56,1,2024-02-27T11:17:09.361Z,french_323.wav,0,poule,244,20,5,4,francias,f,11,1.1,-33.43664636,1.67070777
60eb21bd3807b3a1810ea180,56,1,2024-02-27T11:17:09.361Z,french_323.wav,0,poule,244,20,5,4,francias,f,12,1.14141667,52.86099482,0.91951803
60eb21bd3807b3a1810ea180,57,1,2024-02-27T11:17:09.361Z,french_410.wav,0,poule,1016,20,5,4,francias,f,0,0.0,-13.61010892,0.12499196
60eb21bd3807b3a1810ea180,57,1,2024-02-27T11:17:09.361Z,french_410.wav,0,poule,1016,20,5,4,francias,f,1,0.1,77.81547095,1.21899276
60eb21bd3807b3a1810ea180,57,1,2024-02-27T11:17:09.361Z,french_410.wav,0,poule,1016,20,5,4,francias,f,2,0.2,82.13695373,1.54170327
60eb21bd3807b3a1810ea180,57,1,2024-02-27T11:17:09.361Z,french_410.wav,0,poule,1016,20,5,4,francias,f,3,0.3,-16.93458416,0.12135823
60eb21bd3807b3a1810ea180,57,1,2024-02-27T11:17:09.361Z,french_410.wav,0,poule,1016,20,5,4,francias,f,4,0.4,-8.61826003,0.17314322
60eb21bd3807b3a1810ea180,57,1,2024-02-27T11:17:09.361Z,french_410.wav,0,poule,1016,20,5,4,francias,f,5,0.5,-33.26612631,0.58788453
60eb21bd3807b3a1810ea180,57,1,2024-02-27T11:17:09.361Z,french_410.wav,0,poule,1016,20,5,4,francias,f,6,0.6,40.79154832,1.09892225
60eb21bd3807b3a1810ea180,57,1,2024-02-27T11:17:09.361Z,french_410.wav,0,poule,1016,20,5,4,francias,f,7,0.7,66.55884445,0.15132796
60eb21bd3807b3a1810ea180,57,1,2024-02-27T11:17:09.361Z,french_410.wav,0,poule,1016,20,5,4,francias,f,8,0.8,86.34165637,0.64125421
60eb21bd3807b3a1810ea180,57,1,2024-02-27T11:17:09.361Z,french_410.wav,0,poule,1016,20,5,4,francias,f,9,0.9,91.11355202,0.30485539
60eb21bd3807b3a1810ea180,57,1,2024-02-27T11:17:09.361Z,french_410.wav,0,poule,1016,20,5,4,francias,f,10,1.0,-30.27955269,0.74953125
60eb21bd3807b3a1810ea180,57,1,2024-02-27T11:17:09.361Z,french_410.wav,0,poule,1016,20,5,4,francias,f,11,1.1,52.51274623,1.17085768
60eb21bd3807b3a1810ea180,57,1,2024-02-27T11:17:09.361Z,french_410.wav,0,poule,1016,20,5,4,francias,f,12,1.14141667,95.54585368,1.8491146
60eb21bd3807b3a1810ea180,58,1,2024-02-27T11:17:09.361Z,french_395.wav,0,pull,421,20,5,4,francias,f,0,0.0,45.0752434,1.18925621
60eb21bd3807b3a1810ea180,58,1,2024-02-27T11:17:09.361Z,french_395.wav,0,pull,421,20,5,4,francias,f,1,0.1,-93.76597298,0.52454802
60eb21bd3807b3a1810ea180,58,1,2024-02-27T11:17:09.361Z,french_395.wav,0,pull,421,20,5,4,francias,f,2,0.2,46.57087832,1.50660579
60eb21bd3807b3a1810ea180,58,1,2024-02-27T11:17:09.361Z,french_395.wav,0,pull,421,20,5,4,francias,f,3,0.3,59.364027,0.93298366
60eb21bd3807b3a1810ea180,58,1,2024-02-27T11:17:09.361Z,french_395.wav,0,pull,421,20,5,4,francias,f,4,0.4,25.27671277,0.50677812
60eb21bd3807b3a1810ea180,58,1,2024-02-27T11:17:09.361Z,french_395.wav,0,pull,421,20,5,4,francias,f,5,0.5,18.6240562,0.56379423
60eb21bd3807b3a1810ea180,58,1,2024-02-27T11:17:09.361Z,french_395.wav,0,pull,421,20,5,4,francias,f,6,0.6,-12.8872696,1.362377
60eb21bd3807b3a1810ea180,58,1,2024-02-27T11:17:09.361Z,french_395.wav,0,pull,421,20,5,4,francias,f,7,0.7,-38.76560327,1.10820927
60eb21bd3807b3a1810ea180,58,1,2024-02-27T11:17:09.361Z,french_395.wav,0,pull,421,20,5,4,francias,f,8,0.8,-43.15551235,0.83193558
60eb21bd3807b3a1810ea180,58,1,2024-02-27T11:17:09.361Z,french_395.wav,0,pull,421,20,5,4,francias,f,9,0.9,-99.26206563,1.55187087
60eb21bd3807b3a1810ea180,58,1,2024-02-27T11:17:09.361Z,french_395.wav,0,pull,421,20,5,4,francias,f,10,1.0,-7.96649049,1.27801505
60eb21bd3807b3a1810ea180,58,1,2024-02-27T11:17:09.361Z,french_395.wav,0,pull,421,20,5,4,francias,f,11,1.1,38.87039961,1.56525151
60eb21bd3807b3a1810ea180,58,1,2024-02-27T11:17:09.361Z,french_395.wav,0,pull,421,20,5,4,francias,f,12,1.14141667,73.11872685,1.97246425
60eb21bd3807b3a1810ea180,59,1,2024-02-27T11:17:09.361Z,french_903.wav,0,poule,419,20,5,4,francias,f,0,0.0,-30.9940869,1.1028355
60eb21bd3807b3a1810ea180,59,1,2024-02-27T11:17:09.361Z,french_903.wav,0,poule,419,20,5,4,francias,f,1,0.1,-51.85288644,1.41515079
60eb21bd3807b3a1810ea180,59,1,2024-02-27T11:17:09.361Z,french_903.wav,0,poule,419,20,5,4,francias,f,2,0.2,9.37565232,0.09010735
60eb21bd3807b3a1810ea180,59,1,2024-02-27T11:17:09.361Z,french_903.wav,0,poule,419,20,5,4,francias,f,3,0.3,-65.56040136,0.80440488
60eb21bd3807b3a1810ea180,59,1,2024-02-27T11:17:09.361Z,french_903.wav,0,poule,419,20,5,4,francias,f,4,0.4,-20.59983465,1.66392086
60eb21bd3807b3a1810ea180,59,1,2024-02-27T11:17:09.361Z,french_903.wav,0,poule,419,20,5,4,francias,f,5,0.5,-81.87958144,1.51454605
