subj,sex,age,language,english,french,native_lang,date,practice,block,trial,stim,pitch,stretch,response,rt
8729829169,f,18,french,3,5,french,2024-02-01 10:28:31.264933,True,0,0,sounds\french\audio/french_915.wav,"[[  0.          24.97229927]
 [  0.1          9.55755976]
 [  0.2        -36.73982377]
 [  0.3         16.36164394]
 [  0.4         18.89549827]
 [  0.5         29.58178959]
 [  0.6         67.00984201]
 [  0.7         69.33436498]
 [  0.8        -68.5567505 ]
 [  0.9        -82.82111497]
 [  1.         -19.3056594 ]
 [  1.1         46.67656137]
 [  1.14141667 -49.01815879]]","[[0.         0.29650111]
 [0.1        1.7574547 ]
 [0.2        1.09391109]
 [0.3        0.1335892 ]
 [0.4        1.43122832]
 [0.5        1.80794112]
 [0.6        1.50463968]
 [0.7        1.3294998 ]
 [0.8        1.58149329]
 [0.9        1.17041831]
 [1.         0.93306192]
 [1.1        0.84227441]
 [1.14141667 1.06379674]]",0,2.51
8729829169,f,18,french,3,5,french,2024-02-01 10:28:31.264933,True,0,1,sounds\french\audio/french_710.wav,"[[  0.          77.18918864]
 [  0.1         83.78981414]
 [  0.2        -65.7693655 ]
 [  0.3        -78.64184177]
 [  0.4         60.76094054]
 [  0.5        -85.54613182]
 [  0.6        -82.83985369]
 [  0.7         58.31469254]
 [  0.8        -19.88359903]
 [  0.9         28.05302473]
 [  1.          66.48543532]
 [  1.1          3.69004882]
 [  1.14141667  84.06568163]]","[[0.         1.03192367]
 [0.1        0.42018287]
 [0.2        1.29406306]
 [0.3        1.1839606 ]
 [0.4        0.24656774]
 [0.5        0.27070574]
 [0.6        0.55478724]
 [0.7        1.43791568]
 [0.8        1.39655562]
 [0.9        1.5621613 ]
 [1.         1.2992387 ]
 [1.1        0.84860939]
 [1.14141667 1.88227991]]",0,1.471
8729829169,f,18,french,3,5,french,2024-02-01 10:28:31.264933,True,0,2,sounds\french\audio/french_234.wav,"[[  0.          88.22307588]
 [  0.1         57.26575683]
 [  0.2         25.52563425]
 [  0.3        -25.05527829]
 [  0.4        -99.71798475]
 [  0.5        -43.38981996]
 [  0.6        -62.87626662]
 [  0.7         -4.76781776]
 [  0.8         56.90959429]
 [  0.9         88.67981641]
 [  1.         -76.52776347]
 [  1.1        -30.37754575]
 [  1.14141667   5.71933253]]","[[0.         1.89855189]
 [0.1        1.27116008]
 [0.2        1.59337458]
 [0.3        0.76927451]
 [0.4        1.24054911]
 [0.5        0.19501713]
 [0.6        0.83885203]
 [0.7        0.58437892]
 [0.8        0.42895921]
 [0.9        1.25749201]
 [1.         1.61503786]
 [1.1        0.54685298]
 [1.14141667 1.35699627]]",0,0.461
8729829169,f,18,french,3,5,french,2024-02-01 10:28:31.264933,False,1,3,sounds\french\audio/french_901.wav,"[[  0.         -64.95285264]
 [  0.1         70.24180668]
 [  0.2        -78.29925323]
 [  0.3         28.76135856]
 [  0.4        -97.59411089]
 [  0.5        -71.4781857 ]
 [  0.6         47.50102885]
 [  0.7         74.58875525]
 [  0.8        -64.64530626]
 [  0.9         98.86600436]
 [  1.         -34.06198226]
 [  1.1         52.9945055 ]
 [  1.14141667 -27.17874653]]","[[0.         0.77791492]
 [0.1        0.36162729]
 [0.2        0.94854368]
 [0.3        1.39971828]
 [0.4        1.57268317]
 [0.5        0.27616247]
 [0.6        0.74902357]
 [0.7        1.7211117 ]
 [0.8        0.86441686]
 [0.9        0.61741345]
 [1.         1.07993442]
 [1.1        0.68198901]
 [1.14141667 0.95785524]]",0,1.012
8729829169,f,18,french,3,5,french,2024-02-01 10:28:31.264933,False,1,4,sounds\french\audio/french_122.wav,"[[  0.         -33.06985715]
 [  0.1         13.32039916]
 [  0.2        -35.94768751]
 [  0.3        -81.35154794]
 [  0.4        -26.61254554]
 [  0.5        -70.60443518]
 [  0.6         66.70275378]
 [  0.7         85.84881293]
 [  0.8          1.30883473]
 [  0.9         93.34161436]
 [  1.         -35.43272835]
 [  1.1         34.59442217]
 [  1.14141667 -52.05568486]]","[[0.         0.6620336 ]
 [0.1        0.17288906]
 [0.2        0.95336402]
 [0.3        0.61323124]
 [0.4        1.26500906]
 [0.5        0.87969802]
 [0.6        1.46043964]
 [0.7        1.30832464]
 [0.8        1.14771565]
 [0.9        1.19803017]
 [1.         1.27700442]
 [1.1        1.64776975]
 [1.14141667 1.36305655]]",0,2.415
8729829169,f,18,french,3,5,french,2024-02-01 10:28:31.264933,False,1,5,sounds\french\audio/french_309.wav,"[[  0.          88.86072846]
 [  0.1        -92.30784176]
 [  0.2         82.47612196]
 [  0.3         57.0914166 ]
 [  0.4         66.45676368]
 [  0.5         72.19100472]
 [  0.6         35.35255388]
 [  0.7        -77.76741336]
 [  0.8         54.34179283]
 [  0.9        -68.94607686]
 [  1.          31.97810202]
 [  1.1        -11.94966658]
 [  1.14141667  53.65953482]]","[[0.         0.49259138]
 [0.1        1.03565122]
 [0.2        1.68879094]
 [0.3        0.15996054]
 [0.4        0.58460838]
 [0.5        1.83489212]
 [0.6        0.91773079]
 [0.7        1.18228681]
 [0.8        1.82634316]
 [0.9        1.45479271]
 [1.         1.70391198]
 [1.1        1.08327525]
 [1.14141667 1.25779548]]",0,1.267
8729829169,f,18,french,3,5,french,2024-02-01 10:28:31.264933,False,1,6,sounds\french\audio/french_101.wav,"[[  0.         -65.46087388]
 [  0.1         63.59656018]
 [  0.2         54.14288835]
 [  0.3         22.15338449]
 [  0.4          9.44966108]
 [  0.5         62.3405883 ]
 [  0.6         35.08854145]
 [  0.7         90.28352707]
 [  0.8         32.40917648]
 [  0.9         45.65146214]
 [  1.          26.68572675]
 [  1.1        -28.95615297]
 [  1.14141667  65.42086227]]","[[0.         1.12241829]
 [0.1        0.33793213]
 [0.2        1.19927572]
 [0.3        1.19891661]
 [0.4        1.16356615]
 [0.5        1.8094662 ]
 [0.6        1.21572763]
 [0.7        1.20829502]
 [0.8        0.2048106 ]
 [0.9        0.15870555]
 [1.         0.85858703]
 [1.1        0.96045603]
 [1.14141667 0.41262817]]",1,1.609
8729829169,f,18,french,3,5,french,2024-02-01 10:28:31.264933,False,1,7,sounds\french\audio/french_736.wav,"[[  0.          29.19044659]
 [  0.1         94.52247297]
 [  0.2        -72.96770024]
 [  0.3         70.71289407]
 [  0.4         45.03413415]
 [  0.5         87.71902001]
 [  0.6         34.52398269]
 [  0.7         -6.6862016 ]
 [  0.8        -55.71883693]
 [  0.9         64.69961034]
 [  1.         -24.41156684]
 [  1.1        -94.31655203]
 [  1.14141667  38.28357573]]","[[0.         0.82932946]
 [0.1        1.66313151]
 [0.2        0.36554626]
 [0.3        1.74989063]
 [0.4        0.9882108 ]
 [0.5        1.47173682]
 [0.6        1.37692786]
 [0.7        1.12519684]
 [0.8        1.21800838]
 [0.9        1.48170462]
 [1.         0.01863253]
 [1.1        0.07239007]
 [1.14141667 0.12022727]]",1,1.608
8729829169,f,18,french,3,5,french,2024-02-01 10:28:31.264933,False,1,8,sounds\french\audio/french_401.wav,"[[  0.          -7.60998306]
 [  0.1         49.24268399]
 [  0.2        -14.79637539]
 [  0.3         72.88593464]
 [  0.4        -98.49561517]
 [  0.5        -60.8939001 ]
 [  0.6         32.63233263]
 [  0.7        -55.97134542]
 [  0.8         39.70722097]
 [  0.9         68.29525005]
 [  1.          56.75484748]
 [  1.1        -66.7261144 ]
 [  1.14141667  62.31424057]]","[[0.         0.15669588]
 [0.1        1.26966849]
 [0.2        1.70141129]
 [0.3        0.39327529]
 [0.4        1.22367072]
 [0.5        1.1170169 ]
 [0.6        1.5139571 ]
 [0.7        1.3547448 ]
 [0.8        0.57513348]
 [0.9        1.18430789]
 [1.         0.55199782]
 [1.1        0.76232347]
 [1.14141667 0.18818323]]",0,1.854
8729829169,f,18,french,3,5,french,2024-02-01 10:28:31.264933,False,1,9,sounds\french\audio/french_437.wav,"[[  0.          41.80320752]
 [  0.1        -33.81764788]
 [  0.2         25.70425251]
 [  0.3         56.97339003]
 [  0.4         46.8397409 ]
 [  0.5         38.78616497]
 [  0.6        -89.22878547]
 [  0.7         80.78163583]
 [  0.8         84.46215373]
 [  0.9         17.21068764]
 [  1.          16.06336223]
 [  1.1        -52.17850038]
 [  1.14141667 -51.05005354]]","[[0.         0.30954333]
 [0.1        1.22203572]
 [0.2        0.04102161]
 [0.3        1.19854703]
 [0.4        0.8213725 ]
 [0.5        0.20494593]
 [0.6        1.63754544]
 [0.7        1.22886157]
 [0.8        0.788043  ]
 [0.9        1.05494363]
 [1.         0.71360389]
 [1.1        1.83653188]
 [1.14141667 0.63741841]]",0,1.334
8729829169,f,18,french,3,5,french,2024-02-01 10:28:31.264933,False,1,10,sounds\french\audio/french_824.wav,"[[ 0.00000000e+00  5.02201089e-01]
 [ 1.00000000e-01  6.05239588e+01]
 [ 2.00000000e-01  1.48896647e+01]
 [ 3.00000000e-01  3.33476675e+01]
 [ 4.00000000e-01 -2.84988199e+01]
 [ 5.00000000e-01  2.83484092e+01]
 [ 6.00000000e-01  9.05536847e-02]
 [ 7.00000000e-01  5.47024864e+01]
 [ 8.00000000e-01  1.33415816e+00]
 [ 9.00000000e-01 -1.30540877e+01]
 [ 1.00000000e+00  5.29162460e+01]
 [ 1.10000000e+00  9.07997148e+01]
 [ 1.14141667e+00 -8.48372177e+00]]","[[0.         0.86927053]
 [0.1        1.18411144]
 [0.2        1.09736758]
 [0.3        0.85219326]
 [0.4        1.84806057]
 [0.5        0.42773876]
 [0.6        0.73121711]
 [0.7        1.15803728]
 [0.8        0.61345655]
 [0.9        0.13219128]
 [1.         1.90220579]
 [1.1        0.08725417]
 [1.14141667 0.24224984]]",1,0.638
8729829169,f,18,french,3,5,french,2024-02-01 10:28:31.264933,False,1,11,sounds\french\audio/french_274.wav,"[[  0.          11.34851872]
 [  0.1         13.75361052]
 [  0.2         -0.75190247]
 [  0.3         -4.16246796]
 [  0.4         18.70806668]
 [  0.5         47.88190006]
 [  0.6        -89.77923631]
 [  0.7         -0.8025892 ]
 [  0.8        -59.16372517]
 [  0.9        -28.1266963 ]
 [  1.         -15.26675969]
 [  1.1         27.54287848]
 [  1.14141667  84.80385161]]","[[0.         0.92432066]
 [0.1        1.08642525]
 [0.2        1.84874711]
 [0.3        1.98932462]
 [0.4        0.96958415]
 [0.5        0.47164432]
 [0.6        1.74396934]
 [0.7        0.78095143]
 [0.8        1.62764069]
 [0.9        1.67337912]
 [1.         1.21050795]
 [1.1        1.43502167]
 [1.14141667 1.62747772]]",0,0.277
8729829169,f,18,french,3,5,french,2024-02-01 10:28:31.264933,False,1,12,sounds\french\audio/french_572.wav,"[[  0.          80.73678316]
 [  0.1        -23.27448365]
 [  0.2         -6.4033247 ]
 [  0.3        -21.51480068]
 [  0.4        -23.17709403]
 [  0.5        -16.39338242]
 [  0.6        -25.06757564]
 [  0.7        -29.26685238]
 [  0.8        -87.48148555]
 [  0.9        -64.25549842]
 [  1.          40.51352953]
 [  1.1         45.12554912]
 [  1.14141667 -31.72850353]]","[[0.         1.6999436 ]
 [0.1        0.98259769]
 [0.2        0.22058864]
 [0.3        1.57552372]
 [0.4        1.16662567]
 [0.5        0.33871722]
 [0.6        1.16530793]
 [0.7        0.52650663]
 [0.8        0.8714082 ]
 [0.9        1.09019316]
 [1.         0.83858713]
 [1.1        1.2000092 ]
 [1.14141667 1.29324569]]",0,1.347
8729829169,f,18,french,3,5,french,2024-02-01 10:28:31.264933,False,1,13,sounds\french\audio/french_451.wav,"[[  0.          13.64543592]
 [  0.1         30.45656646]
 [  0.2        -93.33784927]
 [  0.3         41.17542734]
 [  0.4        -17.94843501]
 [  0.5         92.75253269]
 [  0.6          9.61888201]
 [  0.7        -93.92618804]
 [  0.8        -75.1366346 ]
 [  0.9         72.92704108]
 [  1.          37.5519194 ]
 [  1.1         22.2390394 ]
 [  1.14141667 -87.78454889]]","[[0.         0.18856091]
 [0.1        0.87989674]
 [0.2        1.77173223]
 [0.3        0.52249752]
 [0.4        1.16185541]
 [0.5        0.90730745]
 [0.6        0.89255022]
 [0.7        0.4671425 ]
 [0.8        0.7161357 ]
 [0.9        1.02332595]
 [1.         1.63339454]
 [1.1        1.38577343]
 [1.14141667 1.11106618]]",0,0.634
8729829169,f,18,french,3,5,french,2024-02-01 10:28:31.264933,False,1,14,sounds\french\audio/french_298.wav,"[[  0.          74.36342959]
 [  0.1        -30.85430556]
 [  0.2         13.18853344]
 [  0.3        -73.4727048 ]
 [  0.4        -60.45191565]
 [  0.5        -94.12873808]
 [  0.6        -31.82345599]
 [  0.7        -60.29460257]
 [  0.8         84.08431252]
 [  0.9         59.02610937]
 [  1.         -79.41538286]
 [  1.1         76.10910119]
 [  1.14141667 -73.19197608]]","[[0.         1.72708448]
 [0.1        1.83054559]
 [0.2        1.07667785]
 [0.3        0.33228497]
 [0.4        1.17453787]
 [0.5        0.39690451]
 [0.6        0.26650884]
 [0.7        1.00925451]
 [0.8        0.39924312]
 [0.9        1.81273618]
 [1.         0.80693123]
 [1.1        0.30944745]
 [1.14141667 0.11210384]]",1,0.469
8729829169,f,18,french,3,5,french,2024-02-01 10:28:31.264933,False,1,15,sounds\french\audio/french_939.wav,"[[  0.          68.2384799 ]
 [  0.1         98.20525801]
 [  0.2        -42.19761406]
 [  0.3         43.17355225]
 [  0.4        -14.96635905]
 [  0.5        -43.49672798]
 [  0.6         41.76813315]
 [  0.7         88.36147994]
 [  0.8         59.42037908]
 [  0.9         86.723379  ]
 [  1.         -78.72989076]
 [  1.1        -26.66254955]
 [  1.14141667 -48.10200682]]","[[0.         0.18942364]
 [0.1        1.24422322]
 [0.2        0.84726027]
 [0.3        0.63121745]
 [0.4        1.39450382]
 [0.5        1.83680784]
 [0.6        1.84374711]
 [0.7        0.72560086]
 [0.8        1.11819201]
 [0.9        1.00539219]
 [1.         1.52240486]
 [1.1        1.78566065]
 [1.14141667 1.0817634 ]]",1,1.185
8729829169,f,18,french,3,5,french,2024-02-01 10:28:31.264933,False,1,16,sounds\french\audio/french_711.wav,"[[  0.         -57.68537639]
 [  0.1         80.50678374]
 [  0.2         62.08623359]
 [  0.3        -62.11963136]
 [  0.4         40.40813482]
 [  0.5         -1.99659726]
 [  0.6        -98.85876462]
 [  0.7        -17.60870607]
 [  0.8        -73.6406844 ]
 [  0.9          0.13542401]
 [  1.          58.10369401]
 [  1.1        -38.91466215]
 [  1.14141667  22.73847208]]","[[0.         1.14128003]
 [0.1        0.65499836]
 [0.2        0.36935793]
 [0.3        0.45944127]
 [0.4        1.32957836]
 [0.5        1.01029199]
 [0.6        0.23624425]
 [0.7        0.5152401 ]
 [0.8        0.82690989]
 [0.9        0.52689837]
 [1.         1.52596161]
 [1.1        1.06260355]
 [1.14141667 0.37076623]]",0,1.354
8729829169,f,18,french,3,5,french,2024-02-01 10:28:31.264933,False,1,17,sounds\french\audio/french_595.wav,"[[  0.         -70.69376547]
 [  0.1        -50.11639821]
 [  0.2         -6.2723957 ]
 [  0.3        -33.93276808]
 [  0.4         92.50522591]
 [  0.5         39.9302952 ]
 [  0.6         99.18879624]
 [  0.7         17.01840136]
 [  0.8        -73.22332104]
 [  0.9        -96.45958217]
 [  1.         -51.08931395]
 [  1.1        -94.29101271]
 [  1.14141667  47.61863403]]","[[0.         0.5937093 ]
 [0.1        1.78382872]
 [0.2        1.40733247]
 [0.3        1.23314244]
 [0.4        1.42187118]
 [0.5        0.04595084]
 [0.6        0.91948044]
 [0.7        1.80816794]
 [0.8        0.94704484]
 [0.9        0.51792418]
 [1.         1.59601312]
 [1.1        0.14628659]
 [1.14141667 0.48120357]]",0,0.704
8729829169,f,18,french,3,5,french,2024-02-01 10:28:31.264933,False,1,18,sounds\french\audio/french_142.wav,"[[  0.          97.7536206 ]
 [  0.1          4.42561942]
 [  0.2         30.66479602]
 [  0.3         45.9358297 ]
 [  0.4        -27.67703404]
 [  0.5        -76.93961613]
 [  0.6         27.15756236]
 [  0.7        -17.10219694]
 [  0.8        -95.03788422]
 [  0.9         91.87255183]
 [  1.          44.51009428]
 [  1.1         96.96949092]
 [  1.14141667 -89.9433434 ]]","[[0.         1.73195871]
 [0.1        0.65080557]
 [0.2        0.56559014]
 [0.3        1.09548812]
 [0.4        1.12986234]
 [0.5        0.64023359]
 [0.6        1.40554415]
 [0.7        0.54302872]
 [0.8        0.69510387]
 [0.9        1.07734333]
 [1.         1.27461724]
 [1.1        0.68372614]
 [1.14141667 0.29358922]]",0,0.585
8729829169,f,18,french,3,5,french,2024-02-01 10:28:31.264933,False,1,19,sounds\french\audio/french_621.wav,"[[  0.         -83.30768606]
 [  0.1         62.12996189]
 [  0.2         -3.96879709]
 [  0.3        -28.68467377]
 [  0.4         64.37913974]
 [  0.5        -24.77979547]
 [  0.6        -57.28233071]
 [  0.7         26.41618361]
 [  0.8        -28.5927545 ]
 [  0.9         50.0436783 ]
 [  1.         -83.09259596]
 [  1.1          6.81134339]
 [  1.14141667 -67.94941219]]","[[0.         1.07149665]
 [0.1        0.08142527]
 [0.2        0.69078224]
 [0.3        1.63834532]
 [0.4        0.65746959]
 [0.5        1.44089833]
 [0.6        1.05836731]
 [0.7        1.09302896]
 [0.8        0.67374417]
 [0.9        0.87992825]
 [1.         1.11179321]
 [1.1        0.15174121]
 [1.14141667 0.96307082]]",1,0.586
8729829169,f,18,french,3,5,french,2024-02-01 10:28:31.264933,False,1,20,sounds\french\audio/french_834.wav,"[[  0.         -12.92579621]
 [  0.1        -83.76206763]
 [  0.2          8.75840191]
 [  0.3         84.80447407]
 [  0.4         62.85847249]
 [  0.5         21.76785207]
 [  0.6          6.97816489]
 [  0.7        -86.0139957 ]
 [  0.8        -31.9986614 ]
 [  0.9         58.55739279]
 [  1.          57.42681178]
 [  1.1         23.41016661]
 [  1.14141667 -76.83545062]]","[[0.         0.69257516]
 [0.1        0.3669474 ]
 [0.2        1.35168974]
 [0.3        1.19666067]
 [0.4        0.92674054]
 [0.5        0.08598487]
 [0.6        1.35944082]
 [0.7        0.40801395]
 [0.8        1.30840385]
 [0.9        0.77850164]
 [1.         0.4123153 ]
 [1.1        0.92972911]
 [1.14141667 1.44793497]]",1,1.108
8729829169,f,18,french,3,5,french,2024-02-01 10:28:31.264933,False,1,21,sounds\french\audio/french_516.wav,"[[  0.          88.67453169]
 [  0.1        -32.80281116]
 [  0.2         70.97056018]
 [  0.3         30.08988452]
 [  0.4         24.3392461 ]
 [  0.5        -13.33118715]
 [  0.6        -31.56481899]
 [  0.7          3.03144729]
 [  0.8         98.28132693]
 [  0.9         59.24424313]
 [  1.         -78.84052304]
 [  1.1         33.79048953]
 [  1.14141667  15.60736791]]","[[0.         0.27330387]
 [0.1        1.74934986]
 [0.2        0.3871866 ]
 [0.3        1.42397991]
 [0.4        0.38699984]
 [0.5        1.44623849]
 [0.6        1.53806255]
 [0.7        1.95923825]
 [0.8        0.23970082]
 [0.9        1.02137392]
 [1.         1.07914984]
 [1.1        0.23007882]
 [1.14141667 1.42555187]]",1,1.034
8729829169,f,18,french,3,5,french,2024-02-01 10:28:31.264933,False,1,22,sounds\french\audio/french_948.wav,"[[  0.          10.43178466]
 [  0.1        -75.57732343]
 [  0.2        -79.9984004 ]
 [  0.3        -23.89370941]
 [  0.4        -24.91740709]
 [  0.5         28.23809714]
 [  0.6        -15.61716278]
 [  0.7        -62.40350541]
 [  0.8        -39.77903393]
 [  0.9          1.04100207]
 [  1.         -20.98701574]
 [  1.1         32.97936055]
 [  1.14141667  97.71142149]]","[[0.         1.89098856]
 [0.1        0.88225364]
 [0.2        1.40828341]
 [0.3        0.63630366]
 [0.4        0.31117059]
 [0.5        1.08327735]
 [0.6        1.27092868]
 [0.7        0.70647763]
 [0.8        1.45549655]
 [0.9        1.46115448]
 [1.         0.36927117]
 [1.1        0.81149362]
 [1.14141667 1.6764649 ]]",0,0.569
8729829169,f,18,french,3,5,french,2024-02-01 10:28:31.264933,False,1,23,sounds\french\audio/french_815.wav,"[[  0.          43.47811109]
 [  0.1        -39.69317674]
 [  0.2         70.70027906]
 [  0.3         -4.04220679]
 [  0.4         77.25732101]
 [  0.5        -48.82932979]
 [  0.6         14.54543285]
 [  0.7         23.58613037]
 [  0.8         11.08048431]
 [  0.9         11.05185943]
 [  1.          49.96011954]
 [  1.1        -42.44433744]
 [  1.14141667 -96.60163856]]","[[0.         1.27638717]
 [0.1        1.25031866]
 [0.2        0.78335521]
 [0.3        1.7307952 ]
 [0.4        1.69406415]
 [0.5        1.17209267]
 [0.6        1.23520838]
 [0.7        0.19395841]
 [0.8        1.25730834]
 [0.9        1.56641554]
 [1.         0.33329842]
 [1.1        1.48663226]
 [1.14141667 0.56490633]]",0,0.605
8729829169,f,18,french,3,5,french,2024-02-01 10:28:31.264933,False,1,24,sounds\french\audio/french_105.wav,"[[  0.         -17.41639598]
 [  0.1        -51.05987978]
 [  0.2        -50.86415714]
 [  0.3         36.13678641]
 [  0.4        -44.37916814]
 [  0.5        -26.18268216]
 [  0.6         77.65644826]
 [  0.7        -48.15616173]
 [  0.8        -76.33989735]
 [  0.9        -14.96957066]
 [  1.          41.40508421]
 [  1.1        -59.17997239]
 [  1.14141667  89.00654199]]","[[0.         1.0696772 ]
 [0.1        1.85057485]
 [0.2        1.17092256]
 [0.3        1.78310138]
 [0.4        1.56265936]
 [0.5        0.85551974]
 [0.6        1.45347176]
 [0.7        1.38762172]
 [0.8        1.74923504]
 [0.9        1.36496243]
 [1.         0.66444933]
 [1.1        1.29070267]
 [1.14141667 0.50298451]]",0,0.458
8729829169,f,18,french,3,5,french,2024-02-01 10:28:31.264933,False,1,25,sounds\french\audio/french_646.wav,"[[  0.         -32.43143983]
 [  0.1        -20.41835458]
 [  0.2        -23.46449975]
 [  0.3        -28.22000656]
 [  0.4         34.30663797]
 [  0.5         99.4482396 ]
 [  0.6        -36.38215405]
 [  0.7         49.55620727]
 [  0.8        -18.32655594]
 [  0.9         20.02447228]
 [  1.         -53.74882494]
 [  1.1        -51.62942979]
 [  1.14141667 -32.65363837]]","[[0.         1.18722539]
 [0.1        0.476043  ]
 [0.2        0.53944986]
 [0.3        1.36165305]
 [0.4        0.64577602]
 [0.5        0.2941201 ]
 [0.6        1.422169  ]
 [0.7        1.662807  ]
 [0.8        0.51246929]
 [0.9        0.10300487]
 [1.         1.90875747]
 [1.1        1.30651096]
 [1.14141667 0.46104985]]",1,0.488
8729829169,f,18,french,3,5,french,2024-02-01 10:28:31.264933,False,1,26,sounds\french\audio/french_427.wav,"[[  0.         -48.41701503]
 [  0.1        -28.57986094]
 [  0.2          0.90581005]
 [  0.3         19.09912814]
 [  0.4         82.05766861]
 [  0.5         24.08835826]
 [  0.6        -34.07004387]
 [  0.7          8.41664997]
 [  0.8        -13.86702556]
 [  0.9        -78.75947492]
 [  1.         -67.25519612]
 [  1.1         33.54583234]
 [  1.14141667  98.61757136]]","[[0.         1.56219766]
 [0.1        0.39739554]
 [0.2        1.12963232]
 [0.3        0.41932749]
 [0.4        1.84938579]
 [0.5        0.65577454]
 [0.6        0.57976152]
 [0.7        0.37472164]
 [0.8        1.58587157]
 [0.9        1.60768303]
 [1.         1.23344585]
 [1.1        0.58083121]
 [1.14141667 0.87170503]]",0,0.366
8729829169,f,18,french,3,5,french,2024-02-01 10:28:31.264933,False,1,27,sounds\french\audio/french_231.wav,"[[  0.         -54.2049039 ]
 [  0.1         87.34423026]
 [  0.2        -98.84233394]
 [  0.3        -97.58962459]
 [  0.4         23.55242904]
 [  0.5        -18.77036257]
 [  0.6          8.82118315]
 [  0.7        -96.44474604]
 [  0.8         11.33691125]
 [  0.9         47.20974818]
 [  1.          -1.35292105]
 [  1.1         -2.81579098]
 [  1.14141667 -50.7334248 ]]","[[0.         1.45183857]
 [0.1        0.86061961]
 [0.2        1.18874301]
 [0.3        1.66924354]
 [0.4        0.00204187]
 [0.5        1.84930508]
 [0.6        1.9208642 ]
 [0.7        1.44218332]
 [0.8        1.31619285]
 [0.9        1.76808873]
 [1.         0.65793632]
 [1.1        1.84682414]
 [1.14141667 1.49158354]]",0,0.112
8729829169,f,18,french,3,5,french,2024-02-01 10:28:31.264933,False,1,28,sounds\french\audio/french_335.wav,"[[  0.          -1.23441229]
 [  0.1         22.83840399]
 [  0.2         -2.77833846]
 [  0.3         -3.63205213]
 [  0.4        -20.59895043]
 [  0.5         49.39784304]
 [  0.6          8.12013332]
 [  0.7         57.63446104]
 [  0.8        -94.70893042]
 [  0.9         64.23871008]
 [  1.          -7.65003971]
 [  1.1        -58.83724635]
 [  1.14141667   8.11130653]]","[[0.         1.3052868 ]
 [0.1        0.44658399]
 [0.2        1.47211238]
 [0.3        0.59811057]
 [0.4        1.0196801 ]
 [0.5        0.49963991]
 [0.6        0.56054827]
 [0.7        0.07354225]
 [0.8        1.41084779]
 [0.9        0.84836821]
 [1.         1.33963143]
 [1.1        1.16454675]
 [1.14141667 1.41914206]]",0,0.274
8729829169,f,18,french,3,5,french,2024-02-01 10:28:31.264933,False,1,29,sounds\french\audio/french_528.wav,"[[  0.         -45.24651192]
 [  0.1        -22.79683557]
 [  0.2         25.30211498]
 [  0.3        -13.71578583]
 [  0.4         -2.25404313]
 [  0.5         83.84073609]
 [  0.6        -69.16068434]
 [  0.7        -28.27736662]
 [  0.8        -11.17926251]
 [  0.9        -41.84531138]
 [  1.          78.74165038]
 [  1.1        -14.12084883]
 [  1.14141667   8.7411314 ]]","[[0.         0.08021547]
 [0.1        0.12970445]
 [0.2        1.13419208]
 [0.3        1.1130053 ]
 [0.4        1.24506484]
 [0.5        1.8093004 ]
 [0.6        1.70569865]
 [0.7        0.10762221]
 [0.8        1.58260006]
 [0.9        0.5079295 ]
 [1.         0.6918907 ]
 [1.1        1.44056131]
 [1.14141667 1.29096722]]",0,0.538
8729829169,f,18,french,3,5,french,2024-02-01 10:28:31.264933,False,1,30,sounds\french\audio/french_111.wav,"[[  0.          14.77849199]
 [  0.1        -93.87823823]
 [  0.2         64.26417709]
 [  0.3        -22.82520637]
 [  0.4         98.98633094]
 [  0.5         61.91694484]
 [  0.6        -14.22171185]
 [  0.7         13.64889923]
 [  0.8         16.45015469]
 [  0.9         68.39985611]
 [  1.           9.08640089]
 [  1.1         -0.24488945]
 [  1.14141667 -45.33321106]]","[[0.         0.705567  ]
 [0.1        1.75025846]
 [0.2        0.64729838]
 [0.3        0.85969061]
 [0.4        0.27217842]
 [0.5        1.89781194]
 [0.6        0.81989365]
 [0.7        1.01021301]
 [0.8        0.3816251 ]
 [0.9        1.4301898 ]
 [1.         1.68654452]
 [1.1        0.43604245]
 [1.14141667 1.24858314]]",1,0.423
8729829169,f,18,french,3,5,french,2024-02-01 10:28:31.264933,False,1,31,sounds\french\audio/french_983.wav,"[[  0.         -58.740306  ]
 [  0.1         86.62100381]
 [  0.2         72.28686739]
 [  0.3         40.58051416]
 [  0.4        -24.25700788]
 [  0.5         71.71663195]
 [  0.6        -12.96137505]
 [  0.7        -82.1836976 ]
 [  0.8        -24.9069762 ]
 [  0.9         55.25058614]
 [  1.          73.77815743]
 [  1.1         32.70068021]
 [  1.14141667 -94.39337182]]","[[0.         1.29800401]
 [0.1        0.11364498]
 [0.2        1.04246937]
 [0.3        0.31985263]
 [0.4        0.23068067]
 [0.5        1.2336031 ]
 [0.6        1.36252466]
 [0.7        1.78793687]
 [0.8        0.590606  ]
 [0.9        0.99616144]
 [1.         0.61804154]
 [1.1        1.49661667]
 [1.14141667 0.91742292]]",1,0.905
8729829169,f,18,french,3,5,french,2024-02-01 10:28:31.264933,False,1,32,sounds\french\audio/french_37.wav,"[[  0.          63.67630516]
 [  0.1        -80.80701231]
 [  0.2         25.98612919]
 [  0.3         17.92597917]
 [  0.4         -8.51978646]
 [  0.5         -4.79247593]
 [  0.6          3.37248252]
 [  0.7        -95.81455691]
 [  0.8         -5.6254408 ]
 [  0.9        -99.5463817 ]
 [  1.          85.7151068 ]
 [  1.1        -70.45522461]
 [  1.14141667  62.39612247]]","[[0.         1.47551661]
 [0.1        0.84183656]
 [0.2        1.52781035]
 [0.3        0.30622052]
 [0.4        1.20677631]
 [0.5        0.56816716]
 [0.6        0.21375173]
 [0.7        1.84859986]
 [0.8        1.46056691]
 [0.9        1.16612496]
 [1.         1.52913682]
 [1.1        0.52230834]
 [1.14141667 0.23982864]]",0,0.237
8729829169,f,18,french,3,5,french,2024-02-01 10:28:31.264933,False,1,33,sounds\french\audio/french_823.wav,"[[  0.          33.60636133]
 [  0.1         28.32505989]
 [  0.2          6.84878966]
 [  0.3          1.62925135]
 [  0.4          6.79149524]
 [  0.5        -99.23050369]
 [  0.6         -8.74190219]
 [  0.7        -66.40036877]
 [  0.8         11.35961345]
 [  0.9         61.07242385]
 [  1.          40.94049127]
 [  1.1          0.31731975]
 [  1.14141667  25.56156842]]","[[0.         1.03422818]
 [0.1        0.27134212]
 [0.2        0.81254045]
 [0.3        1.53264239]
 [0.4        0.20675282]
 [0.5        1.63728817]
 [0.6        1.02628114]
 [0.7        1.14617269]
 [0.8        1.64918993]
 [0.9        0.64370947]
 [1.         0.90766668]
 [1.1        0.4362808 ]
 [1.14141667 0.90441355]]",0,0.182
8729829169,f,18,french,3,5,french,2024-02-01 10:28:31.264933,False,1,34,sounds\french\audio/french_434.wav,"[[  0.          83.22064209]
 [  0.1         25.82279266]
 [  0.2        -83.78660265]
 [  0.3        -88.71037445]
 [  0.4        -25.11946458]
 [  0.5        -32.29289083]
 [  0.6         -5.66379258]
 [  0.7         19.8755327 ]
 [  0.8        -77.8746618 ]
 [  0.9         37.7335618 ]
 [  1.         -45.35644981]
 [  1.1          5.10747421]
 [  1.14141667  68.71172413]]","[[0.         0.35182135]
 [0.1        1.40300106]
 [0.2        0.21446129]
 [0.3        1.56833652]
 [0.4        0.50116285]
 [0.5        0.47629771]
 [0.6        1.62608898]
 [0.7        0.55661978]
 [0.8        0.6727298 ]
 [0.9        1.74274249]
 [1.         0.39098492]
 [1.1        1.6393156 ]
 [1.14141667 1.24158376]]",1,1.719
8729829169,f,18,french,3,5,french,2024-02-01 10:28:31.264933,False,1,35,sounds\french\audio/french_278.wav,"[[  0.          44.87958556]
 [  0.1         54.45371721]
 [  0.2         45.64758291]
 [  0.3        -16.61950776]
 [  0.4        -83.29715796]
 [  0.5        -45.12452767]
 [  0.6         81.71688846]
 [  0.7        -84.47047535]
 [  0.8         62.79515498]
 [  0.9        -78.3783001 ]
 [  1.          35.83056969]
 [  1.1         -9.69110421]
 [  1.14141667 -51.62343027]]","[[0.         1.76324183]
 [0.1        0.77779847]
 [0.2        0.82423998]
 [0.3        1.09492101]
 [0.4        0.39451547]
 [0.5        1.64255071]
 [0.6        0.88909591]
 [0.7        0.77482277]
 [0.8        0.09065163]
 [0.9        1.7734822 ]
 [1.         1.91427457]
 [1.1        1.4912645 ]
 [1.14141667 0.92742676]]",0,0.324
8729829169,f,18,french,3,5,french,2024-02-01 10:28:31.264933,False,1,36,sounds\french\audio/french_454.wav,"[[  0.         -49.02277235]
 [  0.1        -46.1888088 ]
 [  0.2        -73.50241288]
 [  0.3         65.30688392]
 [  0.4        -86.33590272]
 [  0.5         20.22949723]
 [  0.6         63.90246923]
 [  0.7         -0.21908508]
 [  0.8        -14.82135042]
 [  0.9        -13.13400192]
 [  1.          20.07556925]
 [  1.1         44.26026986]
 [  1.14141667  79.45244035]]","[[0.         1.48003732]
 [0.1        1.6377516 ]
 [0.2        0.65510072]
 [0.3        0.596266  ]
 [0.4        0.90504214]
 [0.5        1.73406366]
 [0.6        1.43058566]
 [0.7        1.1269756 ]
 [0.8        0.21101907]
 [0.9        0.01231935]
 [1.         0.83166829]
 [1.1        0.28141821]
 [1.14141667 0.38664579]]",1,1.397
8729829169,f,18,french,3,5,french,2024-02-01 10:28:31.264933,False,1,37,sounds\french\audio/french_347.wav,"[[  0.          57.05528949]
 [  0.1        -48.19665941]
 [  0.2         91.45679685]
 [  0.3        -29.31586745]
 [  0.4          9.10002374]
 [  0.5         53.01721292]
 [  0.6        -22.03928677]
 [  0.7        -73.006405  ]
 [  0.8         20.29301957]
 [  0.9         19.10492943]
 [  1.          52.95636206]
 [  1.1         30.9365932 ]
 [  1.14141667  45.55083793]]","[[0.         1.64220356]
 [0.1        1.82332469]
 [0.2        0.22099974]
 [0.3        1.13825501]
 [0.4        1.767798  ]
 [0.5        0.7433021 ]
 [0.6        0.36890647]
 [0.7        1.31994173]
 [0.8        1.10139997]
 [0.9        1.91392068]
 [1.         0.92491324]
 [1.1        0.81438983]
 [1.14141667 0.15118447]]",0,0.691
8729829169,f,18,french,3,5,french,2024-02-01 10:28:31.264933,False,1,38,sounds\french\audio/french_80.wav,"[[  0.          66.25159817]
 [  0.1         47.28875238]
 [  0.2         14.01549539]
 [  0.3        -62.14371767]
 [  0.4        -76.73625879]
 [  0.5        -32.68632247]
 [  0.6          0.74925726]
 [  0.7        -34.36190884]
 [  0.8        -35.49297104]
 [  0.9        -27.79992326]
 [  1.          55.68399656]
 [  1.1        -66.66640437]
 [  1.14141667  96.7981211 ]]","[[0.         0.77450666]
 [0.1        1.50399144]
 [0.2        0.48639635]
 [0.3        1.98465252]
 [0.4        0.53703396]
 [0.5        1.91033133]
 [0.6        0.37647001]
 [0.7        0.75454249]
 [0.8        0.37140864]
 [0.9        0.77901808]
 [1.         1.25763863]
 [1.1        1.7307387 ]
 [1.14141667 0.46038543]]",1,0.892
8729829169,f,18,french,3,5,french,2024-02-01 10:28:31.264933,False,1,39,sounds\french\audio/french_700.wav,"[[  0.         -27.53247214]
 [  0.1        -29.71209931]
 [  0.2         10.89159195]
 [  0.3        -53.06982063]
 [  0.4        -47.25715366]
 [  0.5         12.01274328]
 [  0.6        -35.34261671]
 [  0.7         38.95748155]
 [  0.8         83.20971937]
 [  0.9        -65.50939015]
 [  1.          94.61096103]
 [  1.1         74.41841232]
 [  1.14141667  18.30440659]]","[[0.         1.49055523]
 [0.1        1.00637482]
 [0.2        0.22182663]
 [0.3        1.24768056]
 [0.4        1.67932013]
 [0.5        1.54412989]
 [0.6        1.68740312]
 [0.7        0.25312184]
 [0.8        0.49670462]
 [0.9        1.3467354 ]
 [1.         0.15356174]
 [1.1        1.29558082]
 [1.14141667 1.58223542]]",0,0.308
8729829169,f,18,french,3,5,french,2024-02-01 10:28:31.264933,False,1,40,sounds\french\audio/french_795.wav,"[[  0.         -21.08309892]
 [  0.1         59.58252322]
 [  0.2          6.11237041]
 [  0.3         58.03369212]
 [  0.4        -28.03684828]
 [  0.5         44.29336732]
 [  0.6         68.51544354]
 [  0.7         74.11361363]
 [  0.8         -2.59593741]
 [  0.9         59.06123197]
 [  1.         -53.1439491 ]
 [  1.1        -19.26569935]
 [  1.14141667 -83.8743413 ]]","[[0.         1.78240197]
 [0.1        0.19872183]
 [0.2        0.3294255 ]
 [0.3        1.38018168]
 [0.4        1.88529857]
 [0.5        0.85268849]
 [0.6        1.95230834]
 [0.7        1.0063729 ]
 [0.8        0.66346158]
 [0.9        0.75463723]
 [1.         1.27497419]
 [1.1        0.26186886]
 [1.14141667 1.40979019]]",0,0.439
8729829169,f,18,french,3,5,french,2024-02-01 10:28:31.264933,False,1,41,sounds\french\audio/french_370.wav,"[[  0.          94.69193791]
 [  0.1        -34.36771105]
 [  0.2         55.68663638]
 [  0.3         86.0282476 ]
 [  0.4        -27.64418732]
 [  0.5          2.79773792]
 [  0.6         23.29524749]
 [  0.7         19.50655052]
 [  0.8         27.94648957]
 [  0.9        -49.49366589]
 [  1.          76.55940537]
 [  1.1         64.74077084]
 [  1.14141667 -14.36009756]]","[[0.         1.31620058]
 [0.1        1.0910653 ]
 [0.2        1.59108786]
 [0.3        0.66651246]
 [0.4        0.77217464]
 [0.5        1.2458794 ]
 [0.6        0.78783747]
 [0.7        1.5969386 ]
 [0.8        0.07582998]
 [0.9        1.5026642 ]
 [1.         1.33889054]
 [1.1        1.0242803 ]
 [1.14141667 1.81581141]]",0,0.348
8729829169,f,18,french,3,5,french,2024-02-01 10:28:31.264933,False,1,42,sounds\french\audio/french_251.wav,"[[  0.          -6.10327237]
 [  0.1        -31.81812212]
 [  0.2          1.49653309]
 [  0.3         36.35816444]
 [  0.4         -9.41951006]
 [  0.5        -36.93530582]
 [  0.6        -25.41473519]
 [  0.7         56.15025122]
 [  0.8        -13.30142445]
 [  0.9        -95.55635491]
 [  1.         -99.65392401]
 [  1.1         -3.55054731]
 [  1.14141667 -37.18224503]]","[[0.         0.87476983]
 [0.1        0.20851018]
 [0.2        1.45345917]
 [0.3        1.96312617]
 [0.4        1.04651376]
 [0.5        1.9610622 ]
 [0.6        1.3492542 ]
 [0.7        1.04795193]
 [0.8        0.20627276]
 [0.9        0.33014387]
 [1.         1.62301135]
 [1.1        1.19927307]
 [1.14141667 1.67752435]]",1,0.627
8729829169,f,18,french,3,5,french,2024-02-01 10:28:31.264933,False,1,43,sounds\french\audio/french_922.wav,"[[  0.          12.46674982]
 [  0.1        -79.89786138]
 [  0.2         -4.61521998]
 [  0.3         91.46456278]
 [  0.4         66.10542235]
 [  0.5        -49.76283836]
 [  0.6         41.46937752]
 [  0.7         20.02312911]
 [  0.8         81.29824473]
 [  0.9        -59.44217103]
 [  1.           5.16951821]
 [  1.1        -66.60905263]
 [  1.14141667 -85.60307989]]","[[0.         0.57746347]
 [0.1        0.8650421 ]
 [0.2        0.20849304]
 [0.3        0.76246715]
 [0.4        1.57834721]
 [0.5        0.91507953]
 [0.6        1.10585475]
 [0.7        1.04131091]
 [0.8        1.50751878]
 [0.9        1.93127989]
 [1.         0.72818346]
 [1.1        0.43596025]
 [1.14141667 1.41868461]]",0,0.632
8729829169,f,18,french,3,5,french,2024-02-01 10:28:31.264933,False,1,44,sounds\french\audio/french_321.wav,"[[  0.         -17.43290113]
 [  0.1        -75.13063007]
 [  0.2         21.04236254]
 [  0.3         72.8638134 ]
 [  0.4        -64.71622609]
 [  0.5         38.46531761]
 [  0.6         16.71176919]
 [  0.7        -79.68428787]
 [  0.8        -11.06096096]
 [  0.9         92.10217905]
 [  1.         -37.60449635]
 [  1.1        -59.94541406]
 [  1.14141667  51.49701243]]","[[0.         1.16678301]
 [0.1        0.91554507]
 [0.2        0.06135462]
 [0.3        1.76394003]
 [0.4        0.62597265]
 [0.5        1.09057474]
 [0.6        1.39570294]
 [0.7        1.76893105]
 [0.8        1.4722675 ]
 [0.9        0.23544571]
 [1.         1.24526823]
 [1.1        1.52804518]
 [1.14141667 1.57997297]]",0,0.756
8729829169,f,18,french,3,5,french,2024-02-01 10:28:31.264933,False,1,45,sounds\french\audio/french_978.wav,"[[  0.          40.36214047]
 [  0.1         27.48362985]
 [  0.2         40.29852831]
 [  0.3        -43.85061163]
 [  0.4         67.88325766]
 [  0.5        -16.70318953]
 [  0.6        -33.19947882]
 [  0.7         50.84300547]
 [  0.8         85.59312257]
 [  0.9        -72.45512146]
 [  1.         -13.92502552]
 [  1.1         24.95517316]
 [  1.14141667 -51.28447362]]","[[0.         1.71110023]
 [0.1        0.87420818]
 [0.2        1.60194799]
 [0.3        1.28609491]
 [0.4        1.65987261]
 [0.5        1.36246258]
 [0.6        1.20639467]
 [0.7        0.49083377]
 [0.8        0.35642981]
 [0.9        1.25854162]
 [1.         1.89656772]
 [1.1        1.25997973]
 [1.14141667 1.23391695]]",0,1.041
8729829169,f,18,french,3,5,french,2024-02-01 10:28:31.264933,False,1,46,sounds\french\audio/french_440.wav,"[[  0.          74.67435377]
 [  0.1         -9.93699387]
 [  0.2          4.2378765 ]
 [  0.3         39.99279178]
 [  0.4         52.39402187]
 [  0.5         44.85460842]
 [  0.6        -21.96766976]
 [  0.7        -91.32953256]
 [  0.8         -6.7073332 ]
 [  0.9        -27.08364703]
 [  1.          20.93648074]
 [  1.1        -98.00545996]
 [  1.14141667  10.88840881]]","[[0.         1.69175495]
 [0.1        0.40086311]
 [0.2        0.64184517]
 [0.3        0.63810569]
 [0.4        0.03075419]
 [0.5        0.47334738]
 [0.6        0.2143105 ]
 [0.7        0.75784364]
 [0.8        0.24871467]
 [0.9        1.11475223]
 [1.         1.23612144]
 [1.1        0.77567879]
 [1.14141667 1.24313348]]",1,0.934
8729829169,f,18,french,3,5,french,2024-02-01 10:28:31.264933,False,1,47,sounds\french\audio/french_76.wav,"[[  0.          65.24155803]
 [  0.1        -64.10777613]
 [  0.2        -66.43983652]
 [  0.3          9.38529777]
 [  0.4        -68.79387642]
 [  0.5         24.61155373]
 [  0.6        -11.51773882]
 [  0.7        -77.87210972]
 [  0.8         23.51580427]
 [  0.9        -41.53779425]
 [  1.         -40.31239806]
 [  1.1         79.50743198]
 [  1.14141667 -12.84080619]]","[[0.         1.51578207]
 [0.1        1.54793346]
 [0.2        1.59239598]
 [0.3        1.00112308]
 [0.4        1.06006715]
 [0.5        0.66047476]
 [0.6        0.15886587]
 [0.7        1.3402371 ]
 [0.8        1.57866238]
 [0.9        0.66862434]
 [1.         0.74779091]
 [1.1        0.1792498 ]
 [1.14141667 0.70819275]]",0,1.924
8729829169,f,18,french,3,5,french,2024-02-01 10:28:31.264933,False,1,48,sounds\french\audio/french_578.wav,"[[  0.          87.69276993]
 [  0.1         -6.69011024]
 [  0.2         34.77261508]
 [  0.3          9.00297073]
 [  0.4        -56.58211353]
 [  0.5        -72.48915741]
 [  0.6        -71.77023581]
 [  0.7         51.8047657 ]
 [  0.8          7.96298825]
 [  0.9         60.27042228]
 [  1.         -58.95396632]
 [  1.1        -58.35182671]
 [  1.14141667 -30.86837624]]","[[0.         1.0053747 ]
 [0.1        1.08201998]
 [0.2        1.30978326]
 [0.3        0.36090352]
 [0.4        1.18596965]
 [0.5        1.8315835 ]
 [0.6        0.12847581]
 [0.7        1.50247353]
 [0.8        1.86239575]
 [0.9        1.19829159]
 [1.         0.97286799]
 [1.1        1.33480816]
 [1.14141667 1.64372193]]",0,0.453
8729829169,f,18,french,3,5,french,2024-02-01 10:28:31.264933,False,1,49,sounds\french\audio/french_859.wav,"[[  0.           1.3379516 ]
 [  0.1        -77.14988891]
 [  0.2         78.55525238]
 [  0.3         48.96351303]
 [  0.4        -79.69152109]
 [  0.5        -84.80889232]
 [  0.6         51.82772479]
 [  0.7         44.24285845]
 [  0.8        -23.46330426]
 [  0.9         71.97448193]
 [  1.          66.15659707]
 [  1.1        -96.85014514]
 [  1.14141667  30.23995933]]","[[0.         1.36958818]
 [0.1        0.72000045]
 [0.2        0.35438615]
 [0.3        1.87808106]
 [0.4        0.09661352]
 [0.5        0.77016697]
 [0.6        1.09697533]
 [0.7        1.53057635]
 [0.8        0.58688687]
 [0.9        1.83686528]
 [1.         1.24721253]
 [1.1        1.51912792]
 [1.14141667 1.23413117]]",0,0.19
8729829169,f,18,french,3,5,french,2024-02-01 10:28:31.264933,False,1,50,sounds\french\audio/french_186.wav,"[[  0.         -98.77577856]
 [  0.1         -4.32281383]
 [  0.2         78.96843766]
 [  0.3         44.94722027]
 [  0.4         31.19969444]
 [  0.5        -58.54120229]
 [  0.6        -32.79633131]
 [  0.7         47.64797381]
 [  0.8         59.96836761]
 [  0.9         33.94460262]
 [  1.          61.1812075 ]
 [  1.1         66.76882768]
 [  1.14141667  84.5034927 ]]","[[0.         0.55132228]
 [0.1        1.48616205]
 [0.2        0.45730809]
 [0.3        1.48574317]
 [0.4        1.3915634 ]
 [0.5        1.49810348]
 [0.6        0.03278635]
 [0.7        0.80642704]
 [0.8        0.531218  ]
 [0.9        0.39314189]
 [1.         1.05456246]
 [1.1        0.65443343]
 [1.14141667 0.87378313]]",1,0.568
8729829169,f,18,french,3,5,french,2024-02-01 10:28:31.264933,False,1,51,sounds\french\audio/french_237.wav,"[[  0.          31.70987786]
 [  0.1         44.65820907]
 [  0.2         13.3186434 ]
 [  0.3         66.1783484 ]
 [  0.4          9.82166226]
 [  0.5        -28.83229096]
 [  0.6         76.24548925]
 [  0.7         34.63949689]
 [  0.8        -48.33331205]
 [  0.9         50.34000449]
 [  1.          49.76225002]
 [  1.1         67.38211301]
 [  1.14141667  80.88052333]]","[[0.         1.31590513]
 [0.1        0.84112054]
 [0.2        0.69527524]
 [0.3        1.26135679]
 [0.4        1.98640285]
 [0.5        0.12218975]
 [0.6        0.73409952]
 [0.7        1.11406015]
 [0.8        1.16947058]
 [0.9        0.6556194 ]
 [1.         1.40941557]
 [1.1        0.44515823]
 [1.14141667 0.0317855 ]]",0,0.176
8729829169,f,18,french,3,5,french,2024-02-01 10:28:31.264933,False,1,52,sounds\french\audio/french_607.wav,"[[  0.         -12.44319925]
 [  0.1        -94.85502328]
 [  0.2        -56.9043045 ]
 [  0.3        -18.59020178]
 [  0.4          9.27721525]
 [  0.5        -86.5437561 ]
 [  0.6         -6.68115528]
 [  0.7         82.47774992]
 [  0.8        -64.79498014]
 [  0.9         54.51357441]
 [  1.          -5.80014692]
 [  1.1        -22.72142846]
 [  1.14141667 -12.07204915]]","[[0.         1.98503206]
 [0.1        1.00846088]
 [0.2        0.69384134]
 [0.3        1.76201014]
 [0.4        1.29911711]
 [0.5        1.18024894]
 [0.6        0.3019838 ]
 [0.7        1.87001672]
 [0.8        1.60167076]
 [0.9        0.75456566]
 [1.         1.39935428]
 [1.1        0.80764916]
 [1.14141667 0.54525676]]",0,0.241
8729829169,f,18,french,3,5,french,2024-02-01 10:28:31.264933,False,1,53,sounds\french\audio/french_259.wav,"[[  0.         -59.91817448]
 [  0.1        -76.78104066]
 [  0.2        -24.57474892]
 [  0.3         14.52282821]
 [  0.4        -74.78142886]
 [  0.5         92.44025007]
 [  0.6        -62.83388566]
 [  0.7        -12.86689319]
 [  0.8        -56.0210738 ]
 [  0.9         16.50496054]
 [  1.          26.27464012]
 [  1.1        -25.91156451]
 [  1.14141667  79.12845204]]","[[0.         1.41028743]
 [0.1        0.39402833]
 [0.2        0.55524153]
 [0.3        1.28540182]
 [0.4        1.3039233 ]
 [0.5        1.14426098]
 [0.6        0.89085824]
 [0.7        1.12937419]
 [0.8        1.6719433 ]
 [0.9        0.74095539]
 [1.         1.24119924]
 [1.1        0.75010555]
 [1.14141667 0.55605734]]",0,0.754
8729829169,f,18,french,3,5,french,2024-02-01 10:28:31.264933,False,1,54,sounds\french\audio/french_591.wav,"[[  0.          -5.82682539]
 [  0.1        -81.3701121 ]
 [  0.2        -37.81307084]
 [  0.3        -54.8531106 ]
 [  0.4        -95.72600512]
 [  0.5        -64.2370476 ]
 [  0.6        -10.02239509]
 [  0.7          7.04740233]
 [  0.8        -22.95032107]
 [  0.9        -34.18626931]
 [  1.          -3.98772991]
 [  1.1         57.60407051]
 [  1.14141667 -76.01985318]]","[[0.         0.88855192]
 [0.1        1.90878683]
 [0.2        1.23278863]
 [0.3        0.97291582]
 [0.4        0.20433373]
 [0.5        0.04434128]
 [0.6        0.78703084]
 [0.7        1.11175391]
 [0.8        1.30696314]
 [0.9        1.87549286]
 [1.         0.82720637]
 [1.1        0.42168684]
 [1.14141667 1.24091325]]",0,0.342
8729829169,f,18,french,3,5,french,2024-02-01 10:28:31.264933,False,1,55,sounds\french\audio/french_103.wav,"[[  0.           2.91786926]
 [  0.1         23.30029005]
 [  0.2         28.01552046]
 [  0.3        -51.40874307]
 [  0.4        -99.21557126]
 [  0.5         19.84118939]
 [  0.6        -65.99225766]
 [  0.7         40.39751922]
 [  0.8         74.789965  ]
 [  0.9        -43.83163503]
 [  1.          57.49015739]
 [  1.1         25.73775256]
 [  1.14141667 -31.20389674]]","[[0.         0.93245286]
 [0.1        0.22329417]
 [0.2        0.96994087]
 [0.3        0.86608645]
 [0.4        1.27002085]
 [0.5        0.69713375]
 [0.6        1.27865319]
 [0.7        0.4711572 ]
 [0.8        1.04688334]
 [0.9        1.42282614]
 [1.         0.52926459]
 [1.1        0.76349625]
 [1.14141667 0.16787847]]",0,0.365
8729829169,f,18,french,3,5,french,2024-02-01 10:28:31.264933,False,1,56,sounds\french\audio/french_681.wav,"[[  0.         -97.30934459]
 [  0.1        -35.19724747]
 [  0.2        -21.51950238]
 [  0.3        -52.55201926]
 [  0.4         62.39918701]
 [  0.5         37.22710343]
 [  0.6         37.61564457]
 [  0.7        -58.93821482]
 [  0.8         91.17894054]
 [  0.9        -46.6625886 ]
 [  1.         -13.36336259]
 [  1.1         -2.63692555]
 [  1.14141667 -49.79155462]]","[[0.         0.68826213]
 [0.1        0.18573935]
 [0.2        0.87968151]
 [0.3        1.42391909]
 [0.4        1.43099487]
 [0.5        1.13641153]
 [0.6        0.01922596]
 [0.7        1.86928285]
 [0.8        0.97464305]
 [0.9        1.3387681 ]
 [1.         0.7264955 ]
 [1.1        1.20739743]
 [1.14141667 0.86539132]]",0,0.425
8729829169,f,18,french,3,5,french,2024-02-01 10:28:31.264933,False,1,57,sounds\french\audio/french_975.wav,"[[  0.         -88.53042028]
 [  0.1        -18.98709815]
 [  0.2         89.84049157]
 [  0.3        -15.87088094]
 [  0.4          0.60706282]
 [  0.5         91.81069187]
 [  0.6         16.30435991]
 [  0.7         65.54957274]
 [  0.8        -94.63254312]
 [  0.9          4.99318405]
 [  1.         -83.68519221]
 [  1.1         16.66024344]
 [  1.14141667  49.25794234]]","[[0.         0.13201947]
 [0.1        0.70048062]
 [0.2        1.40324141]
 [0.3        1.12025436]
 [0.4        0.85353049]
 [0.5        0.31979877]
 [0.6        1.60578457]
 [0.7        1.36555735]
 [0.8        0.45907697]
 [0.9        0.83713991]
 [1.         0.75605832]
 [1.1        0.95006227]
 [1.14141667 1.61796802]]",0,0.146
8729829169,f,18,french,3,5,french,2024-02-01 10:28:31.264933,False,1,58,sounds\french\audio/french_618.wav,"[[  0.          20.05983972]
 [  0.1         58.91310592]
 [  0.2          6.72731042]
 [  0.3        -78.89679785]
 [  0.4         -8.33733298]
 [  0.5         65.10342581]
 [  0.6        -94.00807668]
 [  0.7         82.41977933]
 [  0.8         21.24581957]
 [  0.9         66.30338575]
 [  1.          35.04204865]
 [  1.1          4.02018466]
 [  1.14141667 -34.41646074]]","[[0.         0.17568044]
 [0.1        0.80933432]
 [0.2        1.75957191]
 [0.3        1.21569199]
 [0.4        0.08695144]
 [0.5        0.71252573]
 [0.6        1.00569246]
 [0.7        1.1966004 ]
 [0.8        1.80975739]
 [0.9        1.67881476]
 [1.         1.40354146]
 [1.1        1.74539239]
 [1.14141667 1.86292193]]",0,0.259
8729829169,f,18,french,3,5,french,2024-02-01 10:28:31.264933,False,1,59,sounds\french\audio/french_28.wav,"[[  0.         -56.10420343]
 [  0.1        -31.69596583]
 [  0.2         10.77640338]
 [  0.3        -20.69274199]
 [  0.4          6.95136345]
 [  0.5         48.14792065]
 [  0.6         97.62552183]
 [  0.7        -10.73890428]
 [  0.8         38.69981846]
 [  0.9        -67.7986679 ]
 [  1.          42.50924299]
 [  1.1         18.11663107]
 [  1.14141667 -94.85686725]]","[[0.         1.70315994]
 [0.1        1.28626693]
 [0.2        1.2824792 ]
 [0.3        1.46430812]
 [0.4        1.88063004]
 [0.5        1.08025973]
 [0.6        0.53911676]
 [0.7        1.61562015]
 [0.8        1.07570603]
 [0.9        1.41027786]
 [1.         0.45518513]
 [1.1        0.65531755]
 [1.14141667 1.88116662]]",1,0.738
8729829169,f,18,french,3,5,french,2024-02-01 10:28:31.264933,False,1,60,sounds\french\audio/french_544.wav,"[[  0.         -47.38697201]
 [  0.1        -45.74023633]
 [  0.2        -60.42650725]
 [  0.3         34.87343661]
 [  0.4        -38.6627365 ]
 [  0.5         58.40491157]
 [  0.6         82.78266879]
 [  0.7         -9.1273893 ]
 [  0.8        -15.5781982 ]
 [  0.9        -12.87000269]
 [  1.          81.09749375]
 [  1.1        -15.34697207]
 [  1.14141667 -62.44527871]]","[[0.00000000e+00 1.01778790e+00]
 [1.00000000e-01 4.24984919e-01]
 [2.00000000e-01 1.22266415e+00]
 [3.00000000e-01 1.17261044e+00]
 [4.00000000e-01 5.48694777e-01]
 [5.00000000e-01 1.14745734e-01]
 [6.00000000e-01 1.71917122e+00]
 [7.00000000e-01 7.65473304e-01]
 [8.00000000e-01 1.41609463e-03]
 [9.00000000e-01 1.43975833e+00]
 [1.00000000e+00 2.52670751e-01]
 [1.10000000e+00 8.37637717e-01]
 [1.14141667e+00 1.25502453e-02]]",1,0.703
8729829169,f,18,french,3,5,french,2024-02-01 10:28:31.264933,False,1,61,sounds\french\audio/french_993.wav,"[[  0.          12.15010971]
 [  0.1        -82.84639936]
 [  0.2        -20.79111952]
 [  0.3        -65.6849191 ]
 [  0.4         91.44268592]
 [  0.5         68.69317307]
 [  0.6        -10.77550368]
 [  0.7        -49.61168901]
 [  0.8         -0.95659448]
 [  0.9        -52.83875719]
 [  1.          18.01113285]
 [  1.1         54.17994577]
 [  1.14141667  62.64482751]]","[[0.         1.75305024]
 [0.1        1.84709621]
 [0.2        0.30086676]
 [0.3        1.77802679]
 [0.4        1.32826192]
 [0.5        1.38957999]
 [0.6        1.02740556]
 [0.7        1.11521635]
 [0.8        1.04000764]
 [0.9        0.85033094]
 [1.         0.82072098]
 [1.1        1.80257596]
 [1.14141667 0.77736437]]",0,0.284
8729829169,f,18,french,3,5,french,2024-02-01 10:28:31.264933,False,1,62,sounds\french\audio/french_993.wav,"[[  0.          12.15010971]
 [  0.1        -82.84639936]
 [  0.2        -20.79111952]
 [  0.3        -65.6849191 ]
 [  0.4         91.44268592]
 [  0.5         68.69317307]
 [  0.6        -10.77550368]
 [  0.7        -49.61168901]
 [  0.8         -0.95659448]
 [  0.9        -52.83875719]
 [  1.          18.01113285]
 [  1.1         54.17994577]
 [  1.14141667  62.64482751]]","[[0.         1.75305024]
 [0.1        1.84709621]
 [0.2        0.30086676]
 [0.3        1.77802679]
 [0.4        1.32826192]
 [0.5        1.38957999]
 [0.6        1.02740556]
 [0.7        1.11521635]
 [0.8        1.04000764]
 [0.9        0.85033094]
 [1.         0.82072098]
 [1.1        1.80257596]
 [1.14141667 0.77736437]]",0,0.375
8729829169,f,18,french,3,5,french,2024-02-01 10:28:31.264933,False,1,63,sounds\french\audio/french_254.wav,"[[  0.          75.2945508 ]
 [  0.1         38.40784012]
 [  0.2         -3.45801992]
 [  0.3        -16.53874186]
 [  0.4         40.95649298]
 [  0.5         -2.76974338]
 [  0.6        -14.89193372]
 [  0.7          6.98344765]
 [  0.8        -11.38819477]
 [  0.9         31.37717737]
 [  1.         -27.40134119]
 [  1.1        -15.25823698]
 [  1.14141667  52.56825486]]","[[0.         1.80685914]
 [0.1        0.82548004]
 [0.2        0.60126929]
 [0.3        1.71103273]
 [0.4        1.57269369]
 [0.5        1.05246524]
 [0.6        1.10171175]
 [0.7        0.20129796]
 [0.8        1.28961808]
 [0.9        0.6064434 ]
 [1.         1.272806  ]
 [1.1        1.69518769]
 [1.14141667 1.16774241]]",0,1.05
8729829169,f,18,french,3,5,french,2024-02-01 10:28:31.264933,False,1,64,sounds\french\audio/french_20.wav,"[[  0.          99.65561003]
 [  0.1         51.66004125]
 [  0.2        -76.89948892]
 [  0.3        -80.20995182]
 [  0.4          2.11857074]
 [  0.5        -69.78084695]
 [  0.6         26.89866499]
 [  0.7        -26.3860397 ]
 [  0.8        -62.8791176 ]
 [  0.9        -29.35835396]
 [  1.         -65.74026017]
 [  1.1        -54.48614685]
 [  1.14141667 -72.89507656]]","[[0.         0.62353112]
 [0.1        1.24302148]
 [0.2        1.00690034]
 [0.3        0.78405984]
 [0.4        1.32665648]
 [0.5        1.65847448]
 [0.6        1.16684739]
 [0.7        0.37446638]
 [0.8        0.29075744]
 [0.9        1.21353551]
 [1.         1.80876207]
 [1.1        1.93887729]
 [1.14141667 1.10272672]]",0,0.429
8729829169,f,18,french,3,5,french,2024-02-01 10:28:31.264933,False,1,65,sounds\french\audio/french_549.wav,"[[  0.         -75.20654592]
 [  0.1        -31.46313263]
 [  0.2         63.43023055]
 [  0.3        -47.83204011]
 [  0.4        -12.06704185]
 [  0.5         21.92378147]
 [  0.6          3.15866922]
 [  0.7         77.16646097]
 [  0.8        -55.69194491]
 [  0.9         59.76392534]
 [  1.           5.24846484]
 [  1.1         17.5272775 ]
 [  1.14141667  77.18549428]]","[[0.         1.24662129]
 [0.1        0.24120097]
 [0.2        1.64296857]
 [0.3        1.68842927]
 [0.4        1.52780869]
 [0.5        1.9277995 ]
 [0.6        1.64875421]
 [0.7        0.97228607]
 [0.8        1.26011495]
 [0.9        0.74800621]
 [1.         0.89870469]
 [1.1        1.45858483]
 [1.14141667 1.898714  ]]",0,0.282
8729829169,f,18,french,3,5,french,2024-02-01 10:28:31.264933,False,1,66,sounds\french\audio/french_586.wav,"[[  0.          34.34393454]
 [  0.1        -63.53295293]
 [  0.2         -4.69144577]
 [  0.3         13.65274473]
 [  0.4        -95.66541298]
 [  0.5        -51.81393767]
 [  0.6        -36.12088319]
 [  0.7         39.59921862]
 [  0.8        -30.54313126]
 [  0.9        -38.68998927]
 [  1.         -48.22437321]
 [  1.1        -19.71994639]
 [  1.14141667 -13.36825221]]","[[0.         0.65827859]
 [0.1        1.01876424]
 [0.2        1.74985157]
 [0.3        1.48331678]
 [0.4        1.45004524]
 [0.5        1.66956646]
 [0.6        1.83026395]
 [0.7        0.38816985]
 [0.8        1.42906988]
 [0.9        1.22678382]
 [1.         0.66043621]
 [1.1        0.18129374]
 [1.14141667 1.04989176]]",1,0.379
8729829169,f,18,french,3,5,french,2024-02-01 10:28:31.264933,False,1,67,sounds\french\audio/french_350.wav,"[[  0.          49.18780015]
 [  0.1         72.56599871]
 [  0.2         82.40633288]
 [  0.3        -82.3613748 ]
 [  0.4        -55.26706973]
 [  0.5         32.71718065]
 [  0.6        -77.12745481]
 [  0.7         53.19413298]
 [  0.8         63.69374639]
 [  0.9         -4.94503234]
 [  1.           8.94892579]
 [  1.1        -63.25021916]
 [  1.14141667  62.49358968]]","[[0.         1.13395449]
 [0.1        1.35674112]
 [0.2        1.64110949]
 [0.3        0.20020041]
 [0.4        1.72643687]
 [0.5        0.50546476]
 [0.6        1.03887292]
 [0.7        0.02836182]
 [0.8        1.25705859]
 [0.9        0.65948503]
 [1.         0.3253589 ]
 [1.1        1.08649671]
 [1.14141667 1.97191137]]",1,0.355
8729829169,f,18,french,3,5,french,2024-02-01 10:28:31.264933,False,1,68,sounds\french\audio/french_528.wav,"[[  0.         -45.24651192]
 [  0.1        -22.79683557]
 [  0.2         25.30211498]
 [  0.3        -13.71578583]
 [  0.4         -2.25404313]
 [  0.5         83.84073609]
 [  0.6        -69.16068434]
 [  0.7        -28.27736662]
 [  0.8        -11.17926251]
 [  0.9        -41.84531138]
 [  1.          78.74165038]
 [  1.1        -14.12084883]
 [  1.14141667   8.7411314 ]]","[[0.         0.08021547]
 [0.1        0.12970445]
 [0.2        1.13419208]
 [0.3        1.1130053 ]
 [0.4        1.24506484]
 [0.5        1.8093004 ]
 [0.6        1.70569865]
 [0.7        0.10762221]
 [0.8        1.58260006]
 [0.9        0.5079295 ]
 [1.         0.6918907 ]
 [1.1        1.44056131]
 [1.14141667 1.29096722]]",0,0.405
8729829169,f,18,french,3,5,french,2024-02-01 10:28:31.264933,False,1,69,sounds\french\audio/french_416.wav,"[[  0.         -24.5917535 ]
 [  0.1         92.93920815]
 [  0.2        -43.48613044]
 [  0.3         22.34438272]
 [  0.4        -55.5062491 ]
 [  0.5        -33.7407387 ]
 [  0.6         13.55088473]
 [  0.7        -86.82043412]
 [  0.8        -64.82507768]
 [  0.9        -58.57710626]
 [  1.          -0.79294086]
 [  1.1         60.59997743]
 [  1.14141667  99.27045787]]","[[0.         1.72074826]
 [0.1        1.31311704]
 [0.2        1.22529817]
 [0.3        0.96386937]
 [0.4        0.05298251]
 [0.5        1.64478666]
 [0.6        0.56907947]
 [0.7        1.73567671]
 [0.8        0.1378672 ]
 [0.9        1.13864961]
 [1.         0.67164702]
 [1.1        1.79788086]
 [1.14141667 0.3532116 ]]",0,0.331
8729829169,f,18,french,3,5,french,2024-02-01 10:28:31.264933,False,1,70,sounds\french\audio/french_365.wav,"[[  0.          31.61059752]
 [  0.1        -20.95390516]
 [  0.2         91.80675495]
 [  0.3         67.5510561 ]
 [  0.4        -93.71218293]
 [  0.5         45.32858601]
 [  0.6         84.27621414]
 [  0.7         28.03701536]
 [  0.8        -71.05958582]
 [  0.9        -23.72094953]
 [  1.          18.29479384]
 [  1.1        -12.82863724]
 [  1.14141667  67.22118203]]","[[0.         1.42310817]
 [0.1        1.52633282]
 [0.2        1.22938312]
 [0.3        1.26382278]
 [0.4        1.53091844]
 [0.5        0.15378173]
 [0.6        0.48106393]
 [0.7        1.79415704]
 [0.8        1.6034925 ]
 [0.9        1.30852528]
 [1.         0.76895664]
 [1.1        0.54165009]
 [1.14141667 0.4698946 ]]",0,0.218
8729829169,f,18,french,3,5,french,2024-02-01 10:28:31.264933,False,1,71,sounds\french\audio/french_363.wav,"[[  0.         -10.90000223]
 [  0.1        -17.77890753]
 [  0.2         88.87263959]
 [  0.3        -43.08200188]
 [  0.4         -3.71858938]
 [  0.5        -38.27799499]
 [  0.6        -45.64383698]
 [  0.7        -33.85105354]
 [  0.8         56.31466728]
 [  0.9        -49.59267572]
 [  1.          -7.69975981]
 [  1.1         62.19506455]
 [  1.14141667  75.53080132]]","[[0.         0.01988505]
 [0.1        0.4157118 ]
 [0.2        1.34213765]
 [0.3        1.89153857]
 [0.4        0.45840361]
 [0.5        1.00482351]
 [0.6        1.53498487]
 [0.7        0.84744486]
 [0.8        1.23553797]
 [0.9        1.89573533]
 [1.         1.67231577]
 [1.1        0.727209  ]
 [1.14141667 1.05404819]]",0,0.278
8729829169,f,18,french,3,5,french,2024-02-01 10:28:31.264933,False,1,72,sounds\french\audio/french_813.wav,"[[  0.          69.06200067]
 [  0.1        -89.70899994]
 [  0.2         43.81572202]
 [  0.3        -41.50364765]
 [  0.4         -1.78342508]
 [  0.5         68.94891373]
 [  0.6         68.8332263 ]
 [  0.7         33.63190852]
 [  0.8         -9.29492587]
 [  0.9        -32.93979575]
 [  1.          75.81334165]
 [  1.1         12.9737464 ]
 [  1.14141667 -25.28540764]]","[[0.         0.29951512]
 [0.1        1.36224471]
 [0.2        0.0293785 ]
 [0.3        0.51838794]
 [0.4        1.05299201]
 [0.5        1.59518238]
 [0.6        1.28929513]
 [0.7        0.89312292]
 [0.8        1.36307198]
 [0.9        1.40459321]
 [1.         1.95945493]
 [1.1        1.07635721]
 [1.14141667 0.2405844 ]]",0,0.265
8729829169,f,18,french,3,5,french,2024-02-01 10:28:31.264933,False,1,73,sounds\french\audio/french_845.wav,"[[  0.          43.83069693]
 [  0.1         36.08660709]
 [  0.2         11.73402285]
 [  0.3         33.21335204]
 [  0.4         56.21537951]
 [  0.5        -43.21710819]
 [  0.6        -64.50615435]
 [  0.7        -47.03593913]
 [  0.8         16.98112056]
 [  0.9         73.16282743]
 [  1.          75.97554589]
 [  1.1         13.7501935 ]
 [  1.14141667 -63.52567951]]","[[0.         0.62773071]
 [0.1        0.62752315]
 [0.2        1.77607494]
 [0.3        1.70743846]
 [0.4        0.69772842]
 [0.5        0.63224459]
 [0.6        0.85055084]
 [0.7        1.67085547]
 [0.8        1.98331283]
 [0.9        0.58892035]
 [1.         0.92518369]
 [1.1        1.3425114 ]
 [1.14141667 0.57230124]]",0,0.328
8729829169,f,18,french,3,5,french,2024-02-01 10:28:31.264933,False,1,74,sounds\french\audio/french_139.wav,"[[  0.          60.33474426]
 [  0.1         38.93323401]
 [  0.2         81.82892201]
 [  0.3         -5.35389096]
 [  0.4         45.79202167]
 [  0.5         20.55887317]
 [  0.6         -5.88389044]
 [  0.7          6.48301447]
 [  0.8        -23.77186576]
 [  0.9         60.18530023]
 [  1.         -12.64152594]
 [  1.1        -31.65464666]
 [  1.14141667 -84.45306184]]","[[0.         0.98524205]
 [0.1        0.78117712]
 [0.2        0.61752243]
 [0.3        0.38397535]
 [0.4        0.60652717]
 [0.5        1.09559489]
 [0.6        0.26955055]
 [0.7        0.35792528]
 [0.8        1.46618843]
 [0.9        1.78162027]
 [1.         0.37213787]
 [1.1        1.38195712]
 [1.14141667 1.42802916]]",0,0.367
8729829169,f,18,french,3,5,french,2024-02-01 10:28:31.264933,False,1,75,sounds\french\audio/french_180.wav,"[[  0.         -94.33074212]
 [  0.1        -88.75540816]
 [  0.2         35.4515549 ]
 [  0.3        -70.24654404]
 [  0.4        -80.62349998]
 [  0.5         10.1901521 ]
 [  0.6        -93.62933165]
 [  0.7        -99.65138407]
 [  0.8         71.51249138]
 [  0.9         86.80537689]
 [  1.          20.55789836]
 [  1.1         44.56065294]
 [  1.14141667 -59.76617214]]","[[0.         0.66828426]
 [0.1        0.270347  ]
 [0.2        1.41211261]
 [0.3        1.720614  ]
 [0.4        0.19744688]
 [0.5        1.72287748]
 [0.6        0.04161496]
 [0.7        0.57709104]
 [0.8        0.44049612]
 [0.9        1.57955325]
 [1.         1.82404096]
 [1.1        1.69390772]
 [1.14141667 0.25601673]]",0,0.668
8729829169,f,18,french,3,5,french,2024-02-01 10:28:31.264933,False,1,76,sounds\french\audio/french_759.wav,"[[  0.          98.83665256]
 [  0.1        -36.98704923]
 [  0.2        -13.21190581]
 [  0.3        -80.8598001 ]
 [  0.4        -25.0918208 ]
 [  0.5        -23.99620205]
 [  0.6        -10.44532567]
 [  0.7         30.16480519]
 [  0.8         26.50650609]
 [  0.9         84.41962205]
 [  1.         -55.53219039]
 [  1.1          8.0634811 ]
 [  1.14141667  -3.22335062]]","[[0.         1.21092883]
 [0.1        0.7175079 ]
 [0.2        0.78878443]
 [0.3        0.44631257]
 [0.4        0.9996058 ]
 [0.5        0.69774753]
 [0.6        1.25144841]
 [0.7        0.57999204]
 [0.8        0.87523247]
 [0.9        1.36445092]
 [1.         0.77961983]
 [1.1        1.59542787]
 [1.14141667 1.19142212]]",1,0.597
8729829169,f,18,french,3,5,french,2024-02-01 10:28:31.264933,False,1,77,sounds\french\audio/french_213.wav,"[[  0.          60.90519411]
 [  0.1         55.95280779]
 [  0.2         48.46758666]
 [  0.3        -14.18062666]
 [  0.4        -51.30201563]
 [  0.5        -37.99009317]
 [  0.6         88.99546092]
 [  0.7        -11.08339747]
 [  0.8         54.53278866]
 [  0.9        -23.49573744]
 [  1.          28.30492548]
 [  1.1         68.04425842]
 [  1.14141667  -9.70039934]]","[[0.         1.2142025 ]
 [0.1        1.85099482]
 [0.2        1.16231079]
 [0.3        1.54399184]
 [0.4        1.40754046]
 [0.5        0.99181023]
 [0.6        0.96000188]
 [0.7        0.55983951]
 [0.8        1.35940292]
 [0.9        0.29880455]
 [1.         1.73467682]
 [1.1        0.57935772]
 [1.14141667 1.18792355]]",0,0.31
8729829169,f,18,french,3,5,french,2024-02-01 10:28:31.264933,False,1,78,sounds\french\audio/french_560.wav,"[[  0.         -11.74144783]
 [  0.1         -0.35641237]
 [  0.2          4.21534923]
 [  0.3        -32.05544241]
 [  0.4        -88.46473304]
 [  0.5        -81.48556818]
 [  0.6         65.45345491]
 [  0.7        -34.34624363]
 [  0.8        -19.91129378]
 [  0.9        -91.92174427]
 [  1.         -10.81219232]
 [  1.1         76.35325221]
 [  1.14141667  76.66363562]]","[[0.         1.20996667]
 [0.1        0.39351598]
 [0.2        0.8276889 ]
 [0.3        0.43459246]
 [0.4        0.34472109]
 [0.5        1.11269407]
 [0.6        1.51504069]
 [0.7        1.97532041]
 [0.8        1.15858954]
 [0.9        1.16478245]
 [1.         1.17685042]
 [1.1        1.01088448]
 [1.14141667 0.00977172]]",1,0.363
8729829169,f,18,french,3,5,french,2024-02-01 10:28:31.264933,False,1,79,sounds\french\audio/french_307.wav,"[[ 0.00000000e+00 -8.12536919e+01]
 [ 1.00000000e-01 -5.92199646e+00]
 [ 2.00000000e-01 -7.08440156e+01]
 [ 3.00000000e-01 -3.88570398e+01]
 [ 4.00000000e-01 -7.46373028e+01]
 [ 5.00000000e-01  3.72357881e+01]
 [ 6.00000000e-01 -2.61136950e+00]
 [ 7.00000000e-01  4.06769116e+01]
 [ 8.00000000e-01  6.68191977e+01]
 [ 9.00000000e-01  8.94255447e+01]
 [ 1.00000000e+00 -1.24290818e-02]
 [ 1.10000000e+00 -9.47277852e+01]
 [ 1.14141667e+00  5.25537701e+00]]","[[0.         1.33468173]
 [0.1        1.24052459]
 [0.2        0.05751099]
 [0.3        0.0183033 ]
 [0.4        1.42823854]
 [0.5        1.31262623]
 [0.6        1.64307627]
 [0.7        1.23311758]
 [0.8        1.11809567]
 [0.9        1.10385944]
 [1.         1.86476593]
 [1.1        1.90945351]
 [1.14141667 1.40561689]]",0,0.188
8729829169,f,18,french,3,5,french,2024-02-01 10:28:31.264933,False,1,80,sounds\french\audio/french_692.wav,"[[  0.          -3.63018758]
 [  0.1        -68.16293379]
 [  0.2         94.54361928]
 [  0.3         25.0958546 ]
 [  0.4        -99.12905949]
 [  0.5        -47.00596257]
 [  0.6        -38.46033818]
 [  0.7        -52.37005629]
 [  0.8         29.27180561]
 [  0.9        -18.83326647]
 [  1.         -60.91466225]
 [  1.1        -20.82797719]
 [  1.14141667 -55.17315813]]","[[0.         1.78860692]
 [0.1        0.86300874]
 [0.2        1.08735966]
 [0.3        0.96562877]
 [0.4        1.65441916]
 [0.5        1.19889603]
 [0.6        0.04010608]
 [0.7        0.99288232]
 [0.8        1.70634134]
 [0.9        0.96715022]
 [1.         1.75736357]
 [1.1        1.93453934]
 [1.14141667 0.43289188]]",0,0.388
8729829169,f,18,french,3,5,french,2024-02-01 10:28:31.264933,False,1,81,sounds\french\audio/french_782.wav,"[[  0.          81.9355603 ]
 [  0.1        -71.71419263]
 [  0.2         22.51011958]
 [  0.3        -99.72950063]
 [  0.4         49.841831  ]
 [  0.5        -23.89351414]
 [  0.6        -24.36460831]
 [  0.7         -7.07228543]
 [  0.8        -45.49814783]
 [  0.9        -73.69355256]
 [  1.         -98.73636383]
 [  1.1         43.00492329]
 [  1.14141667  11.2297133 ]]","[[0.         0.28913279]
 [0.1        1.21962887]
 [0.2        0.54555181]
 [0.3        1.17137312]
 [0.4        1.42537033]
 [0.5        1.15969032]
 [0.6        1.55365219]
 [0.7        1.32611995]
 [0.8        1.19252175]
 [0.9        1.12992737]
 [1.         1.10307244]
 [1.1        0.98390362]
 [1.14141667 0.54655988]]",0,0.72
8729829169,f,18,french,3,5,french,2024-02-01 10:28:31.264933,False,1,82,sounds\french\audio/french_516.wav,"[[  0.          88.67453169]
 [  0.1        -32.80281116]
 [  0.2         70.97056018]
 [  0.3         30.08988452]
 [  0.4         24.3392461 ]
 [  0.5        -13.33118715]
 [  0.6        -31.56481899]
 [  0.7          3.03144729]
 [  0.8         98.28132693]
 [  0.9         59.24424313]
 [  1.         -78.84052304]
 [  1.1         33.79048953]
 [  1.14141667  15.60736791]]","[[0.         0.27330387]
 [0.1        1.74934986]
 [0.2        0.3871866 ]
 [0.3        1.42397991]
 [0.4        0.38699984]
 [0.5        1.44623849]
 [0.6        1.53806255]
 [0.7        1.95923825]
 [0.8        0.23970082]
 [0.9        1.02137392]
 [1.         1.07914984]
 [1.1        0.23007882]
 [1.14141667 1.42555187]]",0,0.468
8729829169,f,18,french,3,5,french,2024-02-01 10:28:31.264933,False,1,83,sounds\french\audio/french_288.wav,"[[  0.         -19.66271306]
 [  0.1        -49.95319108]
 [  0.2         55.70739253]
 [  0.3        -47.82629408]
 [  0.4        -30.64427182]
 [  0.5        -54.20245769]
 [  0.6         94.86326533]
 [  0.7        -11.35318876]
 [  0.8        -94.65333259]
 [  0.9         66.72626026]
 [  1.         -72.10656939]
 [  1.1        -87.02340103]
 [  1.14141667 -20.80379815]]","[[0.         0.77463997]
 [0.1        0.15164104]
 [0.2        1.45402293]
 [0.3        1.49503854]
 [0.4        0.10701477]
 [0.5        1.1175781 ]
 [0.6        0.62210046]
 [0.7        1.34496978]
 [0.8        1.0681913 ]
 [0.9        0.36189635]
 [1.         1.98571959]
 [1.1        1.61383771]
 [1.14141667 0.2520498 ]]",1,0.963
8729829169,f,18,french,3,5,french,2024-02-01 10:28:31.264933,False,1,84,sounds\french\audio/french_671.wav,"[[  0.         -12.85470068]
 [  0.1          2.67819686]
 [  0.2         95.59247328]
 [  0.3        -13.98443503]
 [  0.4         68.80637955]
 [  0.5          1.26765297]
 [  0.6        -70.75583684]
 [  0.7        -41.351183  ]
 [  0.8         50.28106636]
 [  0.9        -33.24209559]
 [  1.          -0.53326813]
 [  1.1        -87.23485775]
 [  1.14141667 -62.69796975]]","[[0.         1.28020636]
 [0.1        0.37059178]
 [0.2        0.84310037]
 [0.3        0.70560659]
 [0.4        0.37083609]
 [0.5        0.87313921]
 [0.6        1.92523748]
 [0.7        1.65594106]
 [0.8        1.80795109]
 [0.9        1.68291782]
 [1.         0.5471334 ]
 [1.1        0.64128997]
 [1.14141667 0.27161171]]",0,0.155
8729829169,f,18,french,3,5,french,2024-02-01 10:28:31.264933,False,1,85,sounds\french\audio/french_638.wav,"[[  0.          24.10332876]
 [  0.1         32.02867085]
 [  0.2          1.29939719]
 [  0.3        -44.40258825]
 [  0.4         97.18876934]
 [  0.5        -12.30944177]
 [  0.6        -48.49998348]
 [  0.7        -40.05211121]
 [  0.8        -21.78672943]
 [  0.9          5.53380977]
 [  1.          70.33014347]
 [  1.1        -13.64024382]
 [  1.14141667  22.08022903]]","[[0.         1.30118958]
 [0.1        1.62073515]
 [0.2        1.30287272]
 [0.3        0.74134116]
 [0.4        1.56205412]
 [0.5        0.56116492]
 [0.6        1.30243736]
 [0.7        1.7883874 ]
 [0.8        0.99108579]
 [0.9        1.30235669]
 [1.         1.07221989]
 [1.1        1.48013576]
 [1.14141667 0.22008977]]",0,0.61
8729829169,f,18,french,3,5,french,2024-02-01 10:28:31.264933,False,1,86,sounds\french\audio/french_882.wav,"[[  0.         -81.86021221]
 [  0.1        -38.71029223]
 [  0.2        -87.95798325]
 [  0.3         64.64799839]
 [  0.4         46.25884824]
 [  0.5        -79.81084627]
 [  0.6         63.83558359]
 [  0.7         52.64588214]
 [  0.8         26.08689515]
 [  0.9        -62.73363803]
 [  1.          -4.49298081]
 [  1.1         30.81537457]
 [  1.14141667  66.97281878]]","[[0.         0.3759178 ]
 [0.1        0.35952644]
 [0.2        0.62161924]
 [0.3        1.70435044]
 [0.4        0.36582707]
 [0.5        1.39801288]
 [0.6        1.87495394]
 [0.7        1.93367686]
 [0.8        1.9588609 ]
 [0.9        0.95894244]
 [1.         0.61415959]
 [1.1        0.47891102]
 [1.14141667 0.6437554 ]]",0,0.262
8729829169,f,18,french,3,5,french,2024-02-01 10:28:31.264933,False,1,87,sounds\french\audio/french_694.wav,"[[  0.          38.99787115]
 [  0.1          0.3424969 ]
 [  0.2         91.92611382]
 [  0.3        -46.15983558]
 [  0.4          9.95779273]
 [  0.5        -28.14886833]
 [  0.6        -10.24338438]
 [  0.7         82.44156255]
 [  0.8          3.18416094]
 [  0.9        -12.03680223]
 [  1.         -74.38114488]
 [  1.1         28.9144884 ]
 [  1.14141667   3.07264382]]","[[0.         0.20721435]
 [0.1        1.58395988]
 [0.2        1.87076578]
 [0.3        0.36792232]
 [0.4        1.45579825]
 [0.5        1.07541558]
 [0.6        0.68903895]
 [0.7        1.47560962]
 [0.8        0.17467993]
 [0.9        1.91027527]
 [1.         1.86009042]
 [1.1        1.13498103]
 [1.14141667 1.77706901]]",0,0.21
8729829169,f,18,french,3,5,french,2024-02-01 10:28:31.264933,False,1,88,sounds\french\audio/french_958.wav,"[[  0.          71.1743689 ]
 [  0.1        -65.47764441]
 [  0.2         44.36457179]
 [  0.3        -17.82869888]
 [  0.4        -58.47034886]
 [  0.5         -3.74377432]
 [  0.6          6.84213224]
 [  0.7         57.06612023]
 [  0.8         80.08248285]
 [  0.9        -55.87519183]
 [  1.          24.68810161]
 [  1.1         42.81806265]
 [  1.14141667  98.55444505]]","[[0.         1.16437978]
 [0.1        1.03570224]
 [0.2        1.35163639]
 [0.3        1.7093735 ]
 [0.4        1.03128605]
 [0.5        1.00068907]
 [0.6        1.21957802]
 [0.7        1.43877863]
 [0.8        0.57775988]
 [0.9        1.64863754]
 [1.         1.56882704]
 [1.1        1.95641107]
 [1.14141667 1.50787969]]",0,1.264
8729829169,f,18,french,3,5,french,2024-02-01 10:28:31.264933,False,1,89,sounds\french\audio/french_653.wav,"[[  0.         -16.6650237 ]
 [  0.1         -8.50735594]
 [  0.2         59.74245416]
 [  0.3        -64.86263645]
 [  0.4        -59.72264617]
 [  0.5        -38.42409471]
 [  0.6        -66.71222224]
 [  0.7         -1.64153682]
 [  0.8        -58.84034728]
 [  0.9         24.2211282 ]
 [  1.           2.29759393]
 [  1.1        -18.37494867]
 [  1.14141667 -14.47262819]]","[[0.         0.6514058 ]
 [0.1        0.80912236]
 [0.2        1.05565194]
 [0.3        1.59567426]
 [0.4        1.49585524]
 [0.5        0.43064882]
 [0.6        0.29035008]
 [0.7        1.70426818]
 [0.8        0.82836214]
 [0.9        0.71951004]
 [1.         0.36282723]
 [1.1        0.47770594]
 [1.14141667 1.04977426]]",1,0.401
8729829169,f,18,french,3,5,french,2024-02-01 10:28:31.264933,False,1,90,sounds\french\audio/french_604.wav,"[[  0.          68.10611108]
 [  0.1         63.99388414]
 [  0.2        -77.78267876]
 [  0.3         60.87409142]
 [  0.4        -14.91542268]
 [  0.5        -77.93180804]
 [  0.6         -7.81349461]
 [  0.7        -84.16622539]
 [  0.8         35.51945386]
 [  0.9        -86.69827035]
 [  1.         -94.13173546]
 [  1.1         23.0579156 ]
 [  1.14141667  17.93273323]]","[[0.         1.35759712]
 [0.1        0.2485611 ]
 [0.2        1.02499907]
 [0.3        1.93810497]
 [0.4        1.6573055 ]
 [0.5        0.98370732]
 [0.6        1.37690628]
 [0.7        0.46296761]
 [0.8        0.51335832]
 [0.9        0.88073963]
 [1.         1.51448748]
 [1.1        1.13726211]
 [1.14141667 0.33901192]]",0,0.339
8729829169,f,18,french,3,5,french,2024-02-01 10:28:31.264933,False,1,91,sounds\french\audio/french_843.wav,"[[  0.           3.16503594]
 [  0.1         26.80395692]
 [  0.2         16.79385543]
 [  0.3        -35.60483384]
 [  0.4         18.52937613]
 [  0.5         37.26610196]
 [  0.6        -80.36118355]
 [  0.7        -87.10510064]
 [  0.8         35.50538366]
 [  0.9        -72.56191372]
 [  1.          -8.47223635]
 [  1.1         71.58119759]
 [  1.14141667  10.49120463]]","[[0.         0.09451126]
 [0.1        1.74509222]
 [0.2        0.77620576]
 [0.3        1.61358005]
 [0.4        1.57470559]
 [0.5        0.6926668 ]
 [0.6        0.58242689]
 [0.7        1.20976991]
 [0.8        1.8175096 ]
 [0.9        0.5430267 ]
 [1.         0.77082682]
 [1.1        1.76255625]
 [1.14141667 1.95278824]]",1,0.69
8729829169,f,18,french,3,5,french,2024-02-01 10:28:31.264933,False,1,92,sounds\french\audio/french_956.wav,"[[  0.         -99.35759674]
 [  0.1         17.74635761]
 [  0.2         45.19730301]
 [  0.3         32.76158542]
 [  0.4        -82.44124556]
 [  0.5        -42.32589362]
 [  0.6         47.35708325]
 [  0.7        -90.98325298]
 [  0.8        -35.51686902]
 [  0.9         60.74204696]
 [  1.         -46.10377132]
 [  1.1        -22.49053344]
 [  1.14141667  15.48787024]]","[[0.         0.54388648]
 [0.1        1.06124428]
 [0.2        1.13782447]
 [0.3        1.35322569]
 [0.4        1.86440682]
 [0.5        1.66841875]
 [0.6        1.44392405]
 [0.7        1.23654472]
 [0.8        0.08906861]
 [0.9        0.55811382]
 [1.         0.54181177]
 [1.1        0.7143235 ]
 [1.14141667 1.69639276]]",1,0.593
8729829169,f,18,french,3,5,french,2024-02-01 10:28:31.264933,False,1,93,sounds\french\audio/french_854.wav,"[[  0.         -84.34166264]
 [  0.1         84.957105  ]
 [  0.2        -75.25231073]
 [  0.3         65.5230415 ]
 [  0.4         19.1345831 ]
 [  0.5        -49.51780093]
 [  0.6        -99.22511646]
 [  0.7         68.97565422]
 [  0.8        -53.31062312]
 [  0.9          1.33468715]
 [  1.           0.86331226]
 [  1.1         43.96559109]
 [  1.14141667  26.73107262]]","[[0.         1.84057999]
 [0.1        0.73718017]
 [0.2        1.41154928]
 [0.3        1.17124469]
 [0.4        0.72588649]
 [0.5        1.4038491 ]
 [0.6        1.40303457]
 [0.7        1.27711643]
 [0.8        0.55715751]
 [0.9        1.82879395]
 [1.         1.15444978]
 [1.1        0.64968484]
 [1.14141667 0.58965928]]",0,0.358
8729829169,f,18,french,3,5,french,2024-02-01 10:28:31.264933,False,1,94,sounds\french\audio/french_903.wav,"[[  0.         -30.9940869 ]
 [  0.1        -51.85288644]
 [  0.2          9.37565232]
 [  0.3        -65.56040136]
 [  0.4        -20.59983465]
 [  0.5        -81.87958144]
 [  0.6         -2.02758668]
 [  0.7        -50.52631335]
 [  0.8         61.79138453]
 [  0.9         14.74849978]
 [  1.          90.51411256]
 [  1.1         21.53536294]
 [  1.14141667 -52.68287573]]","[[0.         1.1028355 ]
 [0.1        1.41515079]
 [0.2        0.09010735]
 [0.3        0.80440488]
 [0.4        1.66392086]
 [0.5        1.51454605]
 [0.6        1.51747342]
 [0.7        1.16263681]
 [0.8        0.22680531]
 [0.9        1.67852395]
 [1.         1.15648316]
 [1.1        0.37061547]
 [1.14141667 1.51798738]]",0,0.252
8729829169,f,18,french,3,5,french,2024-02-01 10:28:31.264933,False,1,95,sounds\french\audio/french_876.wav,"[[  0.          21.13117741]
 [  0.1         37.65514383]
 [  0.2         77.47900611]
 [  0.3         23.67401502]
 [  0.4         25.04537318]
 [  0.5        -67.87681092]
 [  0.6        -20.64301187]
 [  0.7         -7.95663064]
 [  0.8         76.77399723]
 [  0.9        -71.01793875]
 [  1.          -2.24558783]
 [  1.1        -93.03998857]
 [  1.14141667  65.30869521]]","[[0.         1.19375936]
 [0.1        1.40646894]
 [0.2        0.04935251]
 [0.3        1.0742513 ]
 [0.4        1.62827347]
 [0.5        1.21583267]
 [0.6        0.70254993]
 [0.7        1.52033335]
 [0.8        0.43483752]
 [0.9        1.04373837]
 [1.         0.6539037 ]
 [1.1        0.22502356]
 [1.14141667 1.53054572]]",1,0.273
8729829169,f,18,french,3,5,french,2024-02-01 10:28:31.264933,False,1,96,sounds\french\audio/french_792.wav,"[[  0.         -28.77808047]
 [  0.1        -10.00785401]
 [  0.2        -89.03138292]
 [  0.3         60.87015299]
 [  0.4         40.7967025 ]
 [  0.5         -0.6664258 ]
 [  0.6         -1.44221122]
 [  0.7         93.39416978]
 [  0.8         13.0860733 ]
 [  0.9         55.81352435]
 [  1.         -11.44850175]
 [  1.1        -55.53563546]
 [  1.14141667  28.68629966]]","[[0.         1.01992476]
 [0.1        1.96245929]
 [0.2        0.33088171]
 [0.3        0.60882255]
 [0.4        1.16935641]
 [0.5        0.04848989]
 [0.6        0.73316645]
 [0.7        0.70146258]
 [0.8        0.98613716]
 [0.9        1.26993889]
 [1.         0.28761661]
 [1.1        0.74142596]
 [1.14141667 1.34329465]]",0,0.489
8729829169,f,18,french,3,5,french,2024-02-01 10:28:31.264933,False,1,97,sounds\french\audio/french_492.wav,"[[  0.          62.67168513]
 [  0.1         94.72344934]
 [  0.2        -60.35828135]
 [  0.3        -88.06504121]
 [  0.4         -6.78932349]
 [  0.5        -47.82180806]
 [  0.6         -8.91064001]
 [  0.7        -28.60266993]
 [  0.8        -48.68723624]
 [  0.9         18.57877233]
 [  1.          39.49699981]
 [  1.1        -66.80023278]
 [  1.14141667  52.77539511]]","[[0.         0.43911588]
 [0.1        1.05025764]
 [0.2        1.43296606]
 [0.3        1.08587419]
 [0.4        1.96972539]
 [0.5        1.20621652]
 [0.6        1.316574  ]
 [0.7        0.03749259]
 [0.8        1.11329037]
 [0.9        1.67425831]
 [1.         0.64760106]
 [1.1        1.35920659]
 [1.14141667 1.38166489]]",0,0.3
8729829169,f,18,french,3,5,french,2024-02-01 10:28:31.264933,False,1,98,sounds\french\audio/french_756.wav,"[[  0.         -40.89918264]
 [  0.1        -99.52464367]
 [  0.2        -21.65080484]
 [  0.3         61.04267157]
 [  0.4        -86.7981673 ]
 [  0.5        -52.98495971]
 [  0.6        -62.5926211 ]
 [  0.7         93.58331773]
 [  0.8        -85.69814582]
 [  0.9         79.03573852]
 [  1.         -77.37187744]
 [  1.1         78.34862084]
 [  1.14141667 -65.43844249]]","[[0.         0.22647067]
 [0.1        0.83190688]
 [0.2        1.47884544]
 [0.3        0.7217285 ]
 [0.4        1.67647658]
 [0.5        1.95635738]
 [0.6        1.04454085]
 [0.7        1.38664818]
 [0.8        1.57780238]
 [0.9        1.00453441]
 [1.         1.82221754]
 [1.1        0.38536838]
 [1.14141667 0.09429914]]",1,0.356
8729829169,f,18,french,3,5,french,2024-02-01 10:28:31.264933,False,1,99,sounds\french\audio/french_31.wav,"[[  0.          62.57492675]
 [  0.1        -58.08231023]
 [  0.2        -55.72136937]
 [  0.3        -71.33473232]
 [  0.4         -4.71968321]
 [  0.5        -18.8158031 ]
 [  0.6         57.81974569]
 [  0.7        -62.11860801]
 [  0.8        -40.60816107]
 [  0.9         65.87873267]
 [  1.         -62.031162  ]
 [  1.1         23.18328609]
 [  1.14141667 -73.14382864]]","[[0.         0.62563008]
 [0.1        0.03942754]
 [0.2        0.40518479]
 [0.3        0.83625103]
 [0.4        1.04296763]
 [0.5        1.30881089]
 [0.6        1.24294484]
 [0.7        1.99884765]
 [0.8        1.24785525]
 [0.9        0.7861542 ]
 [1.         0.46276533]
 [1.1        1.73009947]
 [1.14141667 1.02235307]]",0,0.562
8729829169,f,18,french,3,5,french,2024-02-01 10:28:31.264933,False,1,100,sounds\french\audio/french_130.wav,"[[  0.          80.14039255]
 [  0.1         -9.3158716 ]
 [  0.2          3.483649  ]
 [  0.3         81.75200906]
 [  0.4        -86.69422084]
 [  0.5        -93.24298509]
 [  0.6        -92.62032105]
 [  0.7         28.8965215 ]
 [  0.8         19.30919838]
 [  0.9        -80.13919679]
 [  1.          37.37495492]
 [  1.1        -40.54824622]
 [  1.14141667 -50.53930291]]","[[0.         1.827855  ]
 [0.1        0.27418865]
 [0.2        0.648905  ]
 [0.3        1.48765296]
 [0.4        0.24641714]
 [0.5        1.34302618]
 [0.6        1.55735233]
 [0.7        1.71386227]
 [0.8        0.75513257]
 [0.9        1.99528485]
 [1.         0.20181573]
 [1.1        0.49802029]
 [1.14141667 0.73950593]]",0,0.556
8729829169,f,18,french,3,5,french,2024-02-01 10:28:31.264933,False,1,101,sounds\french\audio/french_664.wav,"[[  0.         -91.74200012]
 [  0.1         67.3163071 ]
 [  0.2        -14.92110663]
 [  0.3        -15.00532605]
 [  0.4        -71.83608899]
 [  0.5         60.19723794]
 [  0.6        -88.50711363]
 [  0.7         29.2172503 ]
 [  0.8         46.83116703]
 [  0.9        -16.00706746]
 [  1.           0.77059242]
 [  1.1        -11.58487906]
 [  1.14141667 -15.46228134]]","[[0.         1.5436769 ]
 [0.1        1.28396624]
 [0.2        0.86320374]
 [0.3        1.18530683]
 [0.4        0.7104349 ]
 [0.5        0.80286179]
 [0.6        0.79382779]
 [0.7        0.16919782]
 [0.8        1.5381824 ]
 [0.9        1.94367969]
 [1.         1.56397286]
 [1.1        0.83434339]
 [1.14141667 1.77198089]]",0,0.4
8729829169,f,18,french,3,5,french,2024-02-01 10:28:31.264933,False,1,102,sounds\french\audio/french_735.wav,"[[  0.          60.52400958]
 [  0.1        -17.91600836]
 [  0.2        -46.91299441]
 [  0.3        -30.29267527]
 [  0.4         83.45572609]
 [  0.5         18.59891183]
 [  0.6         -0.20062731]
 [  0.7         57.94821105]
 [  0.8        -62.87783799]
 [  0.9         58.4025126 ]
 [  1.          41.21120949]
 [  1.1        -35.08644508]
 [  1.14141667  70.16707056]]","[[0.         1.5599289 ]
 [0.1        0.29111111]
 [0.2        0.33864527]
 [0.3        1.13979288]
 [0.4        1.3417947 ]
 [0.5        0.20120288]
 [0.6        0.67247106]
 [0.7        1.77306787]
 [0.8        0.23048887]
 [0.9        1.53469278]
 [1.         1.04962427]
 [1.1        1.07883208]
 [1.14141667 0.16131969]]",1,0.363
8729829169,f,18,french,3,5,french,2024-02-01 10:28:31.264933,False,1,103,sounds\french\audio/french_405.wav,"[[  0.           2.94741857]
 [  0.1         10.93945556]
 [  0.2        -33.58175419]
 [  0.3        -35.59039283]
 [  0.4        -23.09707718]
 [  0.5        -12.93229662]
 [  0.6         54.45275162]
 [  0.7         52.01362083]
 [  0.8        -18.58395664]
 [  0.9         21.80701506]
 [  1.         -55.17899325]
 [  1.1         62.50728609]
 [  1.14141667 -31.56259202]]","[[0.         0.47922485]
 [0.1        0.75992021]
 [0.2        0.51030052]
 [0.3        1.5380037 ]
 [0.4        1.53478695]
 [0.5        0.62602002]
 [0.6        0.6867386 ]
 [0.7        0.60233158]
 [0.8        1.63961568]
 [0.9        0.20387093]
 [1.         1.51918911]
 [1.1        1.29633258]
 [1.14141667 0.04867302]]",1,0.526
8729829169,f,18,french,3,5,french,2024-02-01 10:28:31.264933,False,1,104,sounds\french\audio/french_135.wav,"[[  0.          -4.48551791]
 [  0.1        -89.39520369]
 [  0.2        -62.25671273]
 [  0.3          7.71889733]
 [  0.4        -11.13544352]
 [  0.5          8.86500482]
 [  0.6         40.83334399]
 [  0.7         98.23692367]
 [  0.8         31.56709052]
 [  0.9        -42.21440335]
 [  1.          53.89223247]
 [  1.1        -14.26740384]
 [  1.14141667   8.8582073 ]]","[[0.         1.91514039]
 [0.1        1.98977227]
 [0.2        0.11754105]
 [0.3        0.48283113]
 [0.4        1.69468672]
 [0.5        1.03348797]
 [0.6        1.01666511]
 [0.7        1.4427273 ]
 [0.8        0.64151379]
 [0.9        1.53600092]
 [1.         1.41516669]
 [1.1        0.42854653]
 [1.14141667 1.07609304]]",0,0.242
8729829169,f,18,french,3,5,french,2024-02-01 10:28:31.264933,False,1,105,sounds\french\audio/french_611.wav,"[[  0.          27.54692735]
 [  0.1        -96.2127233 ]
 [  0.2         43.54084756]
 [  0.3         50.94582254]
 [  0.4        -43.15848463]
 [  0.5        -50.66220426]
 [  0.6         69.56527171]
 [  0.7        -11.37808001]
 [  0.8         45.13793263]
 [  0.9         96.10669883]
 [  1.          -3.26574927]
 [  1.1        -48.82710358]
 [  1.14141667  63.81362106]]","[[0.         0.7451578 ]
 [0.1        0.59678104]
 [0.2        0.93535243]
 [0.3        0.78372242]
 [0.4        0.88792907]
 [0.5        0.42171327]
 [0.6        0.70649712]
 [0.7        1.43646296]
 [0.8        1.45654876]
 [0.9        1.37339169]
 [1.         1.82405735]
 [1.1        1.66591353]
 [1.14141667 1.48395862]]",0,0.089
8729829169,f,18,french,3,5,french,2024-02-01 10:28:31.264933,False,1,106,sounds\french\audio/french_59.wav,"[[  0.          20.14643924]
 [  0.1        -59.30511307]
 [  0.2        -36.90138171]
 [  0.3        -90.62422634]
 [  0.4         81.58991679]
 [  0.5        -52.14492004]
 [  0.6         38.69064245]
 [  0.7        -68.88870739]
 [  0.8        -78.91362722]
 [  0.9        -49.91064634]
 [  1.         -14.96747288]
 [  1.1        -61.38764873]
 [  1.14141667 -36.71502823]]","[[0.         1.64013215]
 [0.1        1.38227101]
 [0.2        1.29161714]
 [0.3        0.15011777]
 [0.4        0.54809828]
 [0.5        1.06399462]
 [0.6        1.23043118]
 [0.7        0.46411732]
 [0.8        1.50887557]
 [0.9        1.51001833]
 [1.         0.8690376 ]
 [1.1        0.30032336]
 [1.14141667 0.26110281]]",0,0.192
8729829169,f,18,french,3,5,french,2024-02-01 10:28:31.264933,False,1,107,sounds\french\audio/french_586.wav,"[[  0.          34.34393454]
 [  0.1        -63.53295293]
 [  0.2         -4.69144577]
 [  0.3         13.65274473]
 [  0.4        -95.66541298]
 [  0.5        -51.81393767]
 [  0.6        -36.12088319]
 [  0.7         39.59921862]
 [  0.8        -30.54313126]
 [  0.9        -38.68998927]
 [  1.         -48.22437321]
 [  1.1        -19.71994639]
 [  1.14141667 -13.36825221]]","[[0.         0.65827859]
 [0.1        1.01876424]
 [0.2        1.74985157]
 [0.3        1.48331678]
 [0.4        1.45004524]
 [0.5        1.66956646]
 [0.6        1.83026395]
 [0.7        0.38816985]
 [0.8        1.42906988]
 [0.9        1.22678382]
 [1.         0.66043621]
 [1.1        0.18129374]
 [1.14141667 1.04989176]]",0,0.384
8729829169,f,18,french,3,5,french,2024-02-01 10:28:31.264933,False,1,108,sounds\french\audio/french_628.wav,"[[  0.          28.98064776]
 [  0.1         97.12286429]
 [  0.2        -80.73889599]
 [  0.3        -34.13229865]
 [  0.4        -28.25789245]
 [  0.5         30.74174251]
 [  0.6        -70.42701558]
 [  0.7        -79.42848468]
 [  0.8        -11.29296583]
 [  0.9         56.44608255]
 [  1.         -50.79678899]
 [  1.1         36.60975174]
 [  1.14141667   2.28400586]]","[[0.         0.98418997]
 [0.1        0.16344307]
 [0.2        1.6205545 ]
 [0.3        0.04211558]
 [0.4        0.29146504]
 [0.5        1.00822946]
 [0.6        0.99852998]
 [0.7        0.12148108]
 [0.8        1.58757857]
 [0.9        1.131434  ]
 [1.         1.07078584]
 [1.1        0.65492456]
 [1.14141667 1.36384742]]",1,0.42
8729829169,f,18,french,3,5,french,2024-02-01 10:28:31.264933,False,1,109,sounds\french\audio/french_153.wav,"[[  0.         -42.01574029]
 [  0.1        -90.00143585]
 [  0.2        -43.7259183 ]
 [  0.3         11.44022212]
 [  0.4         88.748088  ]
 [  0.5        -52.31400469]
 [  0.6         87.18732736]
 [  0.7        -86.03959727]
 [  0.8          8.69100054]
 [  0.9         62.86212057]
 [  1.          27.92700795]
 [  1.1         39.59984074]
 [  1.14141667 -14.92872681]]","[[0.         0.84439614]
 [0.1        0.44297776]
 [0.2        0.69214518]
 [0.3        1.09273238]
 [0.4        0.54928819]
 [0.5        0.96507272]
 [0.6        1.56155988]
 [0.7        1.86632658]
 [0.8        0.92278907]
 [0.9        0.59982574]
 [1.         0.05271929]
 [1.1        0.68548108]
 [1.14141667 1.34366794]]",1,0.594
8729829169,f,18,french,3,5,french,2024-02-01 10:28:31.264933,False,1,110,sounds\french\audio/french_699.wav,"[[  0.         -12.30067292]
 [  0.1         36.78977735]
 [  0.2        -92.85505099]
 [  0.3         79.08429956]
 [  0.4        -94.45731791]
 [  0.5         86.94372215]
 [  0.6         64.87909745]
 [  0.7        -10.59653747]
 [  0.8        -13.88055644]
 [  0.9        -79.28505603]
 [  1.          85.40525959]
 [  1.1         37.59232623]
 [  1.14141667 -13.77587954]]","[[0.         1.22115216]
 [0.1        0.46578941]
 [0.2        0.7393451 ]
 [0.3        1.0436156 ]
 [0.4        1.85215008]
 [0.5        1.35426274]
 [0.6        0.90062394]
 [0.7        1.19660978]
 [0.8        1.64484137]
 [0.9        1.90071567]
 [1.         0.68624617]
 [1.1        0.4882198 ]
 [1.14141667 0.37805744]]",0,0.324
8729829169,f,18,french,3,5,french,2024-02-01 10:28:31.264933,False,1,111,sounds\french\audio/french_303.wav,"[[  0.         -28.78931036]
 [  0.1         74.05829873]
 [  0.2         33.28430387]
 [  0.3         68.53072836]
 [  0.4        -63.38319091]
 [  0.5        -21.33135157]
 [  0.6        -24.45445524]
 [  0.7        -59.72790103]
 [  0.8         37.66757178]
 [  0.9        -52.84057361]
 [  1.          37.03164261]
 [  1.1         99.1130082 ]
 [  1.14141667 -38.68097477]]","[[0.         1.94473054]
 [0.1        0.33418404]
 [0.2        0.69798815]
 [0.3        0.93962857]
 [0.4        1.37838469]
 [0.5        0.29703539]
 [0.6        0.22022144]
 [0.7        0.94792167]
 [0.8        0.24739451]
 [0.9        1.66684976]
 [1.         1.99648268]
 [1.1        0.50055224]
 [1.14141667 0.96078189]]",0,0.335
8729829169,f,18,french,3,5,french,2024-02-01 10:28:31.264933,False,1,112,sounds\french\audio/french_225.wav,"[[  0.         -40.59384573]
 [  0.1        -57.4510111 ]
 [  0.2        -66.79314761]
 [  0.3        -75.0154935 ]
 [  0.4         48.3932909 ]
 [  0.5         37.53876615]
 [  0.6        -34.2954659 ]
 [  0.7        -22.1616571 ]
 [  0.8         44.36773821]
 [  0.9         60.3014637 ]
 [  1.          57.8691924 ]
 [  1.1          5.56623992]
 [  1.14141667  25.60737947]]","[[0.         0.2419631 ]
 [0.1        0.90136728]
 [0.2        1.20342959]
 [0.3        0.43006495]
 [0.4        1.37338078]
 [0.5        1.72669278]
 [0.6        0.43130033]
 [0.7        1.23547292]
 [0.8        1.20612534]
 [0.9        1.68129448]
 [1.         0.18054319]
 [1.1        0.07993762]
 [1.14141667 1.21559584]]",1,0.463
8729829169,f,18,french,3,5,french,2024-02-01 10:28:31.264933,False,1,113,sounds\french\audio/french_148.wav,"[[  0.          35.03992427]
 [  0.1        -26.56645319]
 [  0.2          1.54735612]
 [  0.3         43.90273661]
 [  0.4         20.15863223]
 [  0.5         40.21769113]
 [  0.6        -45.48330671]
 [  0.7         37.84515717]
 [  0.8         70.85795378]
 [  0.9         -8.50916841]
 [  1.          74.51689941]
 [  1.1        -29.84970963]
 [  1.14141667 -16.19564709]]","[[0.         0.51574751]
 [0.1        0.44602423]
 [0.2        1.29890337]
 [0.3        1.35071288]
 [0.4        1.88468446]
 [0.5        0.68922645]
 [0.6        0.29500086]
 [0.7        1.13623745]
 [0.8        1.93028729]
 [0.9        1.29954979]
 [1.         1.64717937]
 [1.1        0.6962146 ]
 [1.14141667 1.34875208]]",0,0.238
8729829169,f,18,french,3,5,french,2024-02-01 10:28:31.264933,False,1,114,sounds\french\audio/french_722.wav,"[[  0.          33.60432941]
 [  0.1        -11.93537629]
 [  0.2        -88.14292606]
 [  0.3         63.03464746]
 [  0.4         22.71231254]
 [  0.5         16.47127626]
 [  0.6        -84.57391125]
 [  0.7        -10.08636896]
 [  0.8         29.84658458]
 [  0.9        -34.50712381]
 [  1.          48.55411412]
 [  1.1         22.41705079]
 [  1.14141667 -36.09101224]]","[[0.         1.8577899 ]
 [0.1        0.16730472]
 [0.2        1.51968538]
 [0.3        1.10766377]
 [0.4        0.03649714]
 [0.5        0.86655357]
 [0.6        1.9734912 ]
 [0.7        1.42286059]
 [0.8        0.4534392 ]
 [0.9        0.31083088]
 [1.         0.20534641]
 [1.1        1.4074105 ]
 [1.14141667 0.81493516]]",1,0.709
8729829169,f,18,french,3,5,french,2024-02-01 10:28:31.264933,False,1,115,sounds\french\audio/french_202.wav,"[[  0.         -17.04430056]
 [  0.1        -39.59352405]
 [  0.2        -50.32219172]
 [  0.3        -86.25811675]
 [  0.4          0.56208373]
 [  0.5         12.13136617]
 [  0.6         -9.09694351]
 [  0.7        -34.01550811]
 [  0.8        -50.44375165]
 [  0.9         45.46201631]
 [  1.          32.9446266 ]
 [  1.1        -83.35470967]
 [  1.14141667  64.06448626]]","[[0.         0.85322679]
 [0.1        1.90558069]
 [0.2        0.57660663]
 [0.3        0.53517989]
 [0.4        1.3075328 ]
 [0.5        0.65532662]
 [0.6        0.58470433]
 [0.7        1.41307701]
 [0.8        0.21256409]
 [0.9        1.38233641]
 [1.         1.86150004]
 [1.1        1.834538  ]
 [1.14141667 1.65956504]]",0,0.341
8729829169,f,18,french,3,5,french,2024-02-01 10:28:31.264933,False,1,116,sounds\french\audio/french_449.wav,"[[  0.          48.07237211]
 [  0.1         10.50044698]
 [  0.2         99.10264915]
 [  0.3         44.97033086]
 [  0.4        -41.32684653]
 [  0.5        -79.7525466 ]
 [  0.6         50.40932694]
 [  0.7         52.6193965 ]
 [  0.8        -15.31474709]
 [  0.9        -28.04173939]
 [  1.           9.78914311]
 [  1.1        -78.00931625]
 [  1.14141667 -11.66917093]]","[[0.         1.574298  ]
 [0.1        0.465888  ]
 [0.2        1.49470087]
 [0.3        1.26780995]
 [0.4        0.48746737]
 [0.5        0.73531069]
 [0.6        0.94941626]
 [0.7        1.08611184]
 [0.8        0.81949253]
 [0.9        1.27162102]
 [1.         1.38692301]
 [1.1        0.89469579]
 [1.14141667 1.6806745 ]]",0,0.269
8729829169,f,18,french,3,5,french,2024-02-01 10:28:31.264933,False,1,117,sounds\french\audio/french_785.wav,"[[ 0.00000000e+00  3.10161768e+01]
 [ 1.00000000e-01  8.89317705e-02]
 [ 2.00000000e-01  4.68782722e+01]
 [ 3.00000000e-01  2.02217261e+01]
 [ 4.00000000e-01 -7.53235401e+01]
 [ 5.00000000e-01 -4.39350846e+01]
 [ 6.00000000e-01 -2.54763074e+01]
 [ 7.00000000e-01  5.70842413e+01]
 [ 8.00000000e-01 -1.08459606e+01]
 [ 9.00000000e-01  3.40534095e+01]
 [ 1.00000000e+00 -4.89572729e+01]
 [ 1.10000000e+00  4.16078861e+01]
 [ 1.14141667e+00  8.92588617e+01]]","[[0.         1.90021395]
 [0.1        0.95233189]
 [0.2        1.49745041]
 [0.3        1.87832474]
 [0.4        0.82836314]
 [0.5        1.74071043]
 [0.6        0.83584892]
 [0.7        0.40885784]
 [0.8        0.0344692 ]
 [0.9        0.38075821]
 [1.         0.97802108]
 [1.1        1.78850331]
 [1.14141667 0.64465129]]",1,0.322
8729829169,f,18,french,3,5,french,2024-02-01 10:28:31.264933,False,1,118,sounds\french\audio/french_486.wav,"[[  0.         -98.02817501]
 [  0.1         65.33144032]
 [  0.2         61.38493925]
 [  0.3         96.45925622]
 [  0.4          5.96921881]
 [  0.5         30.65383736]
 [  0.6        -44.15981347]
 [  0.7         31.03879088]
 [  0.8         51.75647773]
 [  0.9        -98.74797635]
 [  1.          42.51271204]
 [  1.1         63.21062453]
 [  1.14141667 -77.59539186]]","[[0.         1.75569009]
 [0.1        1.7050464 ]
 [0.2        0.61683653]
 [0.3        1.35566853]
 [0.4        0.89727466]
 [0.5        1.1713147 ]
 [0.6        1.99548871]
 [0.7        0.16009728]
 [0.8        0.88389912]
 [0.9        0.14376531]
 [1.         0.54659097]
 [1.1        1.09027863]
 [1.14141667 0.71851787]]",1,0.951
8729829169,f,18,french,3,5,french,2024-02-01 10:28:31.264933,False,1,119,sounds\french\audio/french_750.wav,"[[  0.          68.384864  ]
 [  0.1        -12.54054232]
 [  0.2         38.20542066]
 [  0.3        -13.65587965]
 [  0.4        -87.20869433]
 [  0.5        -32.62716093]
 [  0.6         10.94806249]
 [  0.7         50.06911145]
 [  0.8         99.00831247]
 [  0.9        -53.01326403]
 [  1.         -76.4591149 ]
 [  1.1        -55.31028242]
 [  1.14141667 -22.75078549]]","[[0.         0.88761123]
 [0.1        0.48802278]
 [0.2        1.39577597]
 [0.3        0.86182701]
 [0.4        0.59248942]
 [0.5        1.00273613]
 [0.6        1.78150364]
 [0.7        1.71651432]
 [0.8        1.81026364]
 [0.9        1.46265358]
 [1.         0.3188175 ]
 [1.1        1.15839447]
 [1.14141667 1.38940907]]",0,0.174
8729829169,f,18,french,3,5,french,2024-02-01 10:28:31.264933,False,1,120,sounds\french\audio/french_790.wav,"[[  0.         -57.89390183]
 [  0.1         79.17034047]
 [  0.2         61.93580685]
 [  0.3         73.83766419]
 [  0.4         12.23224582]
 [  0.5        -36.20570809]
 [  0.6        -35.80418352]
 [  0.7         69.07593122]
 [  0.8         53.97673234]
 [  0.9          5.33736996]
 [  1.         -61.7851313 ]
 [  1.1        -57.04830132]
 [  1.14141667 -40.58679678]]","[[0.         1.82865837]
 [0.1        0.89920795]
 [0.2        1.70315706]
 [0.3        0.63562482]
 [0.4        1.66129943]
 [0.5        1.84264673]
 [0.6        1.991074  ]
 [0.7        1.03555826]
 [0.8        1.17116983]
 [0.9        0.91705366]
 [1.         0.69782623]
 [1.1        0.3273665 ]
