subj,sex,age,language,english,french,native_lang,date,practice,block,trial,stim,pitch,stretch,response,rt
3,m,24,french,3,5,french,2024-02-07 14:00:07.182851,True,0,0,sounds\french\audio/french_693.wav,"[[  0.          85.06863742]
 [  0.1         68.65637618]
 [  0.2        -64.93166306]
 [  0.3          9.02094246]
 [  0.4         30.21577577]
 [  0.5        -45.55013979]
 [  0.6        -22.45894718]
 [  0.7        -22.03690569]
 [  0.8        -72.74256114]
 [  0.9         79.55542456]
 [  1.           3.37293032]
 [  1.1        -26.61524733]
 [  1.14141667 -12.67054895]]","[[0.         1.43800555]
 [0.1        1.1319261 ]
 [0.2        1.31376129]
 [0.3        1.44469297]
 [0.4        0.25926005]
 [0.5        1.97890068]
 [0.6        0.76035239]
 [0.7        0.26797463]
 [0.8        0.09379237]
 [0.9        1.21622186]
 [1.         0.59723312]
 [1.1        1.86545966]
 [1.14141667 1.32223551]]",1,8.567
3,m,24,french,3,5,french,2024-02-07 14:00:07.182851,True,0,1,sounds\french\audio/french_373.wav,"[[  0.         -19.00823309]
 [  0.1        -20.01708078]
 [  0.2        -59.01936034]
 [  0.3         89.73735508]
 [  0.4         62.13320779]
 [  0.5         52.97479545]
 [  0.6         -6.74329887]
 [  0.7         27.2712617 ]
 [  0.8        -73.55107905]
 [  0.9        -71.0486175 ]
 [  1.          19.59643173]
 [  1.1         54.76394447]
 [  1.14141667 -39.43230923]]","[[0.         0.61729131]
 [0.1        1.01940371]
 [0.2        1.15362396]
 [0.3        1.64179084]
 [0.4        0.75224656]
 [0.5        1.16586274]
 [0.6        0.01386647]
 [0.7        0.58835344]
 [0.8        0.56225182]
 [0.9        1.16946431]
 [1.         0.84473904]
 [1.1        1.10005173]
 [1.14141667 0.72757016]]",0,0.796
3,m,24,french,3,5,french,2024-02-07 14:00:07.182851,True,0,2,sounds\french\audio/french_55.wav,"[[  0.         -70.28328368]
 [  0.1         50.73292751]
 [  0.2        -16.31236971]
 [  0.3        -98.76766394]
 [  0.4        -93.70290529]
 [  0.5         16.78078951]
 [  0.6         52.75208615]
 [  0.7         70.61937301]
 [  0.8         11.43760761]
 [  0.9         81.46267865]
 [  1.          50.14519789]
 [  1.1         25.14822077]
 [  1.14141667 -49.70858316]]","[[0.         1.42617491]
 [0.1        1.31979309]
 [0.2        0.76251105]
 [0.3        1.13142855]
 [0.4        0.93708244]
 [0.5        0.78930631]
 [0.6        1.96633931]
 [0.7        0.79237353]
 [0.8        1.3224414 ]
 [0.9        1.11476735]
 [1.         0.76573152]
 [1.1        0.21170061]
 [1.14141667 0.42730216]]",0,1.518
3,m,24,french,3,5,french,2024-02-07 14:00:07.182851,False,1,3,sounds\french\audio/french_376.wav,"[[  0.          73.87662421]
 [  0.1         19.14234839]
 [  0.2          4.70109866]
 [  0.3        -30.42429162]
 [  0.4          3.90906102]
 [  0.5         10.50295885]
 [  0.6        -30.86055656]
 [  0.7         53.80718703]
 [  0.8        -11.59229263]
 [  0.9         30.36028375]
 [  1.           7.96834733]
 [  1.1         39.66709202]
 [  1.14141667 -13.49486002]]","[[0.         1.19017326]
 [0.1        0.34739983]
 [0.2        1.75661595]
 [0.3        0.21467383]
 [0.4        1.0652989 ]
 [0.5        0.76759319]
 [0.6        0.07074157]
 [0.7        0.03277106]
 [0.8        0.77775249]
 [0.9        1.59245898]
 [1.         1.58597596]
 [1.1        1.4930996 ]
 [1.14141667 0.34020646]]",0,1.032
3,m,24,french,3,5,french,2024-02-07 14:00:07.182851,False,1,4,sounds\french\audio/french_245.wav,"[[  0.         -32.65946157]
 [  0.1        -91.34414589]
 [  0.2         20.76427352]
 [  0.3        -95.58645124]
 [  0.4        -66.19056055]
 [  0.5         49.19473098]
 [  0.6         81.42926779]
 [  0.7         65.80631096]
 [  0.8        -57.42028442]
 [  0.9        -85.65499007]
 [  1.         -34.33028766]
 [  1.1         43.77204938]
 [  1.14141667 -47.4172931 ]]","[[0.         0.88127163]
 [0.1        0.39712506]
 [0.2        1.80102862]
 [0.3        1.05649218]
 [0.4        0.46999531]
 [0.5        1.20747474]
 [0.6        0.59003214]
 [0.7        1.12088878]
 [0.8        1.50034126]
 [0.9        1.79720209]
 [1.         1.3179064 ]
 [1.1        1.83502919]
 [1.14141667 1.05306136]]",0,0.46
3,m,24,french,3,5,french,2024-02-07 14:00:07.182851,False,1,5,sounds\french\audio/french_714.wav,"[[  0.          95.90344611]
 [  0.1        -24.72262082]
 [  0.2         59.37227344]
 [  0.3        -27.1741591 ]
 [  0.4         45.66784268]
 [  0.5        -18.42560325]
 [  0.6         22.13445338]
 [  0.7         66.94076888]
 [  0.8         57.76397855]
 [  0.9        -44.74008532]
 [  1.           2.87251243]
 [  1.1        -46.16839405]
 [  1.14141667  -2.68285776]]","[[0.         0.85575765]
 [0.1        0.99109068]
 [0.2        0.51789898]
 [0.3        0.15135155]
 [0.4        0.88454916]
 [0.5        0.71216205]
 [0.6        0.59963982]
 [0.7        1.6442642 ]
 [0.8        1.16580862]
 [0.9        0.14338442]
 [1.         1.85438603]
 [1.1        1.87453004]
 [1.14141667 0.8079694 ]]",1,1.007
3,m,24,french,3,5,french,2024-02-07 14:00:07.182851,False,1,6,sounds\french\audio/french_689.wav,"[[  0.          18.71690093]
 [  0.1         70.88150917]
 [  0.2         23.29873522]
 [  0.3        -19.83408775]
 [  0.4        -88.59539457]
 [  0.5          3.33992371]
 [  0.6        -73.90842815]
 [  0.7         27.77232776]
 [  0.8         47.07023028]
 [  0.9         58.29803031]
 [  1.          66.78853229]
 [  1.1        -39.3403084 ]
 [  1.14141667  45.51603845]]","[[0.         1.63903865]
 [0.1        1.28668292]
 [0.2        0.4448863 ]
 [0.3        1.46840806]
 [0.4        0.66601538]
 [0.5        0.03688538]
 [0.6        0.48708825]
 [0.7        0.83201182]
 [0.8        0.98489988]
 [0.9        0.70021639]
 [1.         1.48154334]
 [1.1        0.31951264]
 [1.14141667 1.22903486]]",0,2.502
3,m,24,french,3,5,french,2024-02-07 14:00:07.182851,False,1,7,sounds\french\audio/french_505.wav,"[[  0.          10.6062499 ]
 [  0.1        -76.99802141]
 [  0.2         62.62271049]
 [  0.3         49.75584692]
 [  0.4        -44.42824919]
 [  0.5          8.97017494]
 [  0.6        -88.28080052]
 [  0.7        -13.73778208]
 [  0.8         73.13104705]
 [  0.9        -45.97620248]
 [  1.         -85.27177326]
 [  1.1          1.99886584]
 [  1.14141667 -57.73402289]]","[[0.         0.41232335]
 [0.1        1.02211306]
 [0.2        1.14367437]
 [0.3        1.86001892]
 [0.4        0.03497776]
 [0.5        1.27001275]
 [0.6        1.49153702]
 [0.7        0.88366965]
 [0.8        1.06271418]
 [0.9        0.40464318]
 [1.         0.55194696]
 [1.1        0.30087529]
 [1.14141667 1.54564481]]",1,2.219
3,m,24,french,3,5,french,2024-02-07 14:00:07.182851,False,1,8,sounds\french\audio/french_246.wav,"[[  0.         -30.47504576]
 [  0.1        -83.06405686]
 [  0.2         62.50778564]
 [  0.3          8.87266429]
 [  0.4         44.6949174 ]
 [  0.5         38.79182234]
 [  0.6        -98.97339248]
 [  0.7        -24.61405849]
 [  0.8          0.11664969]
 [  0.9         41.40110598]
 [  1.         -40.48516798]
 [  1.1         70.26355015]
 [  1.14141667  92.29981678]]","[[0.         0.47785651]
 [0.1        1.85614621]
 [0.2        0.28079339]
 [0.3        1.15467711]
 [0.4        1.29610326]
 [0.5        0.14147162]
 [0.6        0.92649122]
 [0.7        0.74752986]
 [0.8        1.75089992]
 [0.9        0.0989963 ]
 [1.         0.24181159]
 [1.1        1.60406525]
 [1.14141667 0.31046435]]",1,1.546
3,m,24,french,3,5,french,2024-02-07 14:00:07.182851,False,1,9,sounds\french\audio/french_375.wav,"[[  0.          31.10986402]
 [  0.1        -64.41627884]
 [  0.2        -43.97758131]
 [  0.3          3.5016032 ]
 [  0.4        -62.10092202]
 [  0.5          4.57148994]
 [  0.6        -39.23521385]
 [  0.7        -83.18001871]
 [  0.8         68.29182649]
 [  0.9          2.09327012]
 [  1.          79.13559059]
 [  1.1         78.47171785]
 [  1.14141667 -28.42503843]]","[[0.         0.17189217]
 [0.1        0.94028887]
 [0.2        0.78583956]
 [0.3        0.68692804]
 [0.4        1.2060681 ]
 [0.5        1.35623391]
 [0.6        1.63276043]
 [0.7        0.56752426]
 [0.8        1.48970374]
 [0.9        0.60983572]
 [1.         0.91295212]
 [1.1        0.92165738]
 [1.14141667 0.42144788]]",0,0.97
3,m,24,french,3,5,french,2024-02-07 14:00:07.182851,False,1,10,sounds\french\audio/french_856.wav,"[[  0.          -0.93889544]
 [  0.1         90.07982384]
 [  0.2         22.28999256]
 [  0.3        -70.55357194]
 [  0.4        -39.36048444]
 [  0.5         80.72578613]
 [  0.6        -38.29184104]
 [  0.7         80.58102018]
 [  0.8         72.71158308]
 [  0.9        -45.84185553]
 [  1.          43.65872365]
 [  1.1         70.34512494]
 [  1.14141667 -74.99468932]]","[[0.         1.28603939]
 [0.1        1.96490125]
 [0.2        0.30855118]
 [0.3        1.81394373]
 [0.4        1.50076133]
 [0.5        0.90391841]
 [0.6        0.70323297]
 [0.7        1.65396101]
 [0.8        0.93078739]
 [0.9        0.5298796 ]
 [1.         1.25026146]
 [1.1        1.14846561]
 [1.14141667 1.91922666]]",0,1.447
3,m,24,french,3,5,french,2024-02-07 14:00:07.182851,False,1,11,sounds\french\audio/french_853.wav,"[[  0.         -35.85509781]
 [  0.1        -85.16852279]
 [  0.2         43.35151906]
 [  0.3        -36.27408381]
 [  0.4         48.36174943]
 [  0.5         15.35458122]
 [  0.6         90.63917047]
 [  0.7        -25.85237464]
 [  0.8         70.77908005]
 [  0.9         38.87803449]
 [  1.         -78.6315789 ]
 [  1.1         -2.04968734]
 [  1.14141667 -46.31602044]]","[[0.         0.87912281]
 [0.1        1.60362916]
 [0.2        0.05367398]
 [0.3        1.0932021 ]
 [0.4        0.145173  ]
 [0.5        0.56043792]
 [0.6        0.33756351]
 [0.7        1.25653162]
 [0.8        0.37110217]
 [0.9        0.9869935 ]
 [1.         1.45701755]
 [1.1        1.50454965]
 [1.14141667 1.33087312]]",0,0.808
3,m,24,french,3,5,french,2024-02-07 14:00:07.182851,False,1,12,sounds\french\audio/french_743.wav,"[[  0.         -12.23572385]
 [  0.1        -82.90994455]
 [  0.2         56.36957641]
 [  0.3        -80.49353375]
 [  0.4        -75.92212441]
 [  0.5        -37.43962458]
 [  0.6         46.34324225]
 [  0.7        -97.29246906]
 [  0.8         27.80864883]
 [  0.9         19.90668052]
 [  1.          79.30735731]
 [  1.1         87.70980131]
 [  1.14141667 -17.58921079]]","[[0.         0.34334602]
 [0.1        0.85733528]
 [0.2        0.71514815]
 [0.3        0.73179397]
 [0.4        0.65221135]
 [0.5        0.42587516]
 [0.6        1.58997971]
 [0.7        1.49839996]
 [0.8        0.37447973]
 [0.9        1.20970958]
 [1.         1.67146036]
 [1.1        0.55378638]
 [1.14141667 1.00046164]]",1,1.152
3,m,24,french,3,5,french,2024-02-07 14:00:07.182851,False,1,13,sounds\french\audio/french_842.wav,"[[  0.         -14.6621915 ]
 [  0.1         58.26484617]
 [  0.2        -28.18109147]
 [  0.3        -40.73880456]
 [  0.4        -82.44418112]
 [  0.5         21.69569036]
 [  0.6        -66.1415884 ]
 [  0.7         94.24119963]
 [  0.8         88.68830767]
 [  0.9         54.23873464]
 [  1.          80.38497769]
 [  1.1         58.10558011]
 [  1.14141667 -78.08033462]]","[[0.         1.29563872]
 [0.1        1.98590439]
 [0.2        0.87867447]
 [0.3        1.23089187]
 [0.4        1.09137094]
 [0.5        1.30354814]
 [0.6        0.5635244 ]
 [0.7        0.77093559]
 [0.8        1.98831599]
 [0.9        0.57043998]
 [1.         1.5403888 ]
 [1.1        0.53885693]
 [1.14141667 0.32293885]]",0,0.775
3,m,24,french,3,5,french,2024-02-07 14:00:07.182851,False,1,14,sounds\french\audio/french_133.wav,"[[  0.          -7.61871603]
 [  0.1         34.71331069]
 [  0.2         55.79384499]
 [  0.3         23.25377101]
 [  0.4         77.34286394]
 [  0.5          3.92318715]
 [  0.6         98.08340608]
 [  0.7        -24.38130769]
 [  0.8         35.62412421]
 [  0.9         53.54170068]
 [  1.          40.87834808]
 [  1.1         98.4604717 ]
 [  1.14141667  75.71752154]]","[[0.         1.34607476]
 [0.1        1.71757152]
 [0.2        1.76223693]
 [0.3        0.89332745]
 [0.4        0.6099967 ]
 [0.5        1.94047269]
 [0.6        1.62942383]
 [0.7        1.25566232]
 [0.8        1.87414585]
 [0.9        0.07787487]
 [1.         0.93409185]
 [1.1        1.5263652 ]
 [1.14141667 0.309992  ]]",1,3.123
3,m,24,french,3,5,french,2024-02-07 14:00:07.182851,False,1,15,sounds\french\audio/french_420.wav,"[[  0.         -18.88007076]
 [  0.1         85.38106336]
 [  0.2         93.67996173]
 [  0.3        -59.60168974]
 [  0.4        -63.09071902]
 [  0.5         -3.42049192]
 [  0.6          3.82145816]
 [  0.7        -46.57323204]
 [  0.8         43.35773063]
 [  0.9        -41.3853357 ]
 [  1.         -80.49552294]
 [  1.1         11.88219307]
 [  1.14141667 -51.63626854]]","[[0.         0.77898817]
 [0.1        0.94651873]
 [0.2        0.16609342]
 [0.3        1.88772727]
 [0.4        0.52202044]
 [0.5        0.19259521]
 [0.6        0.85413524]
 [0.7        0.3417564 ]
 [0.8        1.89293485]
 [0.9        1.49847299]
 [1.         1.43768421]
 [1.1        1.60937112]
 [1.14141667 1.40472667]]",0,0.45
3,m,24,french,3,5,french,2024-02-07 14:00:07.182851,False,1,16,sounds\french\audio/french_796.wav,"[[  0.         -21.64188846]
 [  0.1         -7.10945612]
 [  0.2        -74.39719325]
 [  0.3        -54.61530314]
 [  0.4        -80.73225718]
 [  0.5          9.91679823]
 [  0.6        -97.91364168]
 [  0.7         49.57079751]
 [  0.8         70.95125658]
 [  0.9         31.08280056]
 [  1.         -13.33346658]
 [  1.1          3.95596596]
 [  1.14141667 -13.99518271]]","[[0.         1.54395317]
 [0.1        0.2941661 ]
 [0.2        0.97343698]
 [0.3        0.96871079]
 [0.4        1.80485159]
 [0.5        0.56868061]
 [0.6        1.75772708]
 [0.7        1.73544483]
 [0.8        0.94432617]
 [0.9        1.12597758]
 [1.         0.53392858]
 [1.1        0.6803009 ]
 [1.14141667 1.42581525]]",0,0.867
3,m,24,french,3,5,french,2024-02-07 14:00:07.182851,False,1,17,sounds\french\audio/french_757.wav,"[[  0.           6.48639762]
 [  0.1        -51.86545104]
 [  0.2         13.60583501]
 [  0.3         42.98326891]
 [  0.4         80.68221451]
 [  0.5         60.20667087]
 [  0.6        -66.39272407]
 [  0.7        -56.86759688]
 [  0.8         31.92005434]
 [  0.9        -15.9358313 ]
 [  1.         -11.85374841]
 [  1.1        -30.88500349]
 [  1.14141667  54.27189093]]","[[0.         0.21123235]
 [0.1        0.07273278]
 [0.2        1.91645599]
 [0.3        0.23026147]
 [0.4        0.90860197]
 [0.5        1.24090146]
 [0.6        1.63751086]
 [0.7        1.4449834 ]
 [0.8        0.31701973]
 [0.9        0.97326814]
 [1.         0.32789054]
 [1.1        0.1026242 ]
 [1.14141667 1.17122037]]",0,0.868
3,m,24,french,3,5,french,2024-02-07 14:00:07.182851,False,1,18,sounds\french\audio/french_760.wav,"[[  0.          69.16815791]
 [  0.1         11.20685955]
 [  0.2         34.8102116 ]
 [  0.3        -90.03161019]
 [  0.4        -41.47191296]
 [  0.5        -48.08548611]
 [  0.6         44.80080881]
 [  0.7         -1.23301299]
 [  0.8         75.74770773]
 [  0.9         11.43799096]
 [  1.          -0.37130951]
 [  1.1         42.7692381 ]
 [  1.14141667   4.70425821]]","[[0.         1.2502881 ]
 [0.1        0.70733733]
 [0.2        0.56169678]
 [0.3        1.06492774]
 [0.4        0.95028451]
 [0.5        0.18011187]
 [0.6        1.51077603]
 [0.7        1.38156045]
 [0.8        0.18237232]
 [0.9        1.60322405]
 [1.         0.50883409]
 [1.1        1.54168279]
 [1.14141667 0.12741584]]",0,1.572
3,m,24,french,3,5,french,2024-02-07 14:00:07.182851,False,1,19,sounds\french\audio/french_252.wav,"[[  0.          54.15739005]
 [  0.1        -70.97685737]
 [  0.2        -41.30279166]
 [  0.3         25.03023077]
 [  0.4         52.11682601]
 [  0.5        -74.4503011 ]
 [  0.6        -44.84400314]
 [  0.7        -66.34475174]
 [  0.8         25.91441335]
 [  0.9        -28.2349722 ]
 [  1.          67.61569967]
 [  1.1         37.16571197]
 [  1.14141667  -4.25887301]]","[[0.         1.84611827]
 [0.1        1.56243956]
 [0.2        1.59503899]
 [0.3        1.00649163]
 [0.4        0.97026284]
 [0.5        0.83927817]
 [0.6        1.5633702 ]
 [0.7        1.57266641]
 [0.8        0.99752831]
 [0.9        1.13713731]
 [1.         0.5873274 ]
 [1.1        0.70089686]
 [1.14141667 1.28758469]]",1,2.144
3,m,24,french,3,5,french,2024-02-07 14:00:07.182851,False,1,20,sounds\french\audio/french_953.wav,"[[  0.         -71.08712623]
 [  0.1        -49.92646511]
 [  0.2         49.72011339]
 [  0.3         80.70216706]
 [  0.4        -10.67313958]
 [  0.5         50.75410164]
 [  0.6        -88.83491773]
 [  0.7        -85.10586005]
 [  0.8         11.40836745]
 [  0.9         48.08958444]
 [  1.         -70.48795801]
 [  1.1        -24.70863307]
 [  1.14141667  15.64302591]]","[[0.         1.33736288]
 [0.1        0.34849057]
 [0.2        0.22755657]
 [0.3        1.38027604]
 [0.4        1.07804975]
 [0.5        0.09665885]
 [0.6        1.28310275]
 [0.7        0.52119628]
 [0.8        0.61622514]
 [0.9        1.83244373]
 [1.         0.04417742]
 [1.1        0.58765792]
 [1.14141667 0.99188341]]",0,0.541
3,m,24,french,3,5,french,2024-02-07 14:00:07.182851,False,1,21,sounds\french\audio/french_682.wav,"[[  0.         -49.14718886]
 [  0.1        -40.83830255]
 [  0.2        -50.11270538]
 [  0.3         -9.39281425]
 [  0.4         32.70333526]
 [  0.5         30.26185855]
 [  0.6         50.24643648]
 [  0.7         20.1372188 ]
 [  0.8          8.99982871]
 [  0.9        -50.5310939 ]
 [  1.          43.59766176]
 [  1.1          9.63593845]
 [  1.14141667  65.38682914]]","[[0.         0.39494833]
 [0.1        1.11469071]
 [0.2        1.45079191]
 [0.3        1.42143537]
 [0.4        0.63727406]
 [0.5        1.95529652]
 [0.6        1.27379672]
 [0.7        0.99071874]
 [0.8        1.53456964]
 [0.9        0.13541683]
 [1.         0.68811152]
 [1.1        1.74660873]
 [1.14141667 1.18702659]]",1,1.053
3,m,24,french,3,5,french,2024-02-07 14:00:07.182851,False,1,22,sounds\french\audio/french_380.wav,"[[  0.          50.45877981]
 [  0.1         27.88432033]
 [  0.2        -34.53723027]
 [  0.3        -69.55895419]
 [  0.4        -28.41605157]
 [  0.5         25.67592844]
 [  0.6        -84.53806724]
 [  0.7        -49.89975605]
 [  0.8         75.71000255]
 [  0.9         30.16060778]
 [  1.         -57.98795284]
 [  1.1         -9.14146098]
 [  1.14141667  61.49544023]]","[[0.         0.75315413]
 [0.1        0.97702905]
 [0.2        0.7048892 ]
 [0.3        1.70478002]
 [0.4        1.71824888]
 [0.5        1.0555026 ]
 [0.6        0.83070263]
 [0.7        0.38580216]
 [0.8        1.32561889]
 [0.9        0.45811506]
 [1.         1.65372558]
 [1.1        0.02023169]
 [1.14141667 0.39090817]]",0,0.43
3,m,24,french,3,5,french,2024-02-07 14:00:07.182851,False,1,23,sounds\french\audio/french_420.wav,"[[  0.         -18.88007076]
 [  0.1         85.38106336]
 [  0.2         93.67996173]
 [  0.3        -59.60168974]
 [  0.4        -63.09071902]
 [  0.5         -3.42049192]
 [  0.6          3.82145816]
 [  0.7        -46.57323204]
 [  0.8         43.35773063]
 [  0.9        -41.3853357 ]
 [  1.         -80.49552294]
 [  1.1         11.88219307]
 [  1.14141667 -51.63626854]]","[[0.         0.77898817]
 [0.1        0.94651873]
 [0.2        0.16609342]
 [0.3        1.88772727]
 [0.4        0.52202044]
 [0.5        0.19259521]
 [0.6        0.85413524]
 [0.7        0.3417564 ]
 [0.8        1.89293485]
 [0.9        1.49847299]
 [1.         1.43768421]
 [1.1        1.60937112]
 [1.14141667 1.40472667]]",0,1.336
3,m,24,french,3,5,french,2024-02-07 14:00:07.182851,False,1,24,sounds\french\audio/french_506.wav,"[[  0.         -87.05114528]
 [  0.1        -77.86066202]
 [  0.2         52.75337557]
 [  0.3         25.87417745]
 [  0.4        -24.91493329]
 [  0.5        -32.59613326]
 [  0.6         48.37216542]
 [  0.7         44.4070888 ]
 [  0.8        -12.10632677]
 [  0.9        -37.63462634]
 [  1.          31.99184566]
 [  1.1         61.30326663]
 [  1.14141667 -30.40718756]]","[[0.         0.75685483]
 [0.1        0.21255667]
 [0.2        1.57179702]
 [0.3        1.16483377]
 [0.4        0.62640737]
 [0.5        1.0252894 ]
 [0.6        1.86296546]
 [0.7        1.06697399]
 [0.8        0.54922329]
 [0.9        1.02176301]
 [1.         1.70544642]
 [1.1        0.92919277]
 [1.14141667 1.34999173]]",1,1.892
3,m,24,french,3,5,french,2024-02-07 14:00:07.182851,False,1,25,sounds\french\audio/french_895.wav,"[[  0.         -82.61317698]
 [  0.1         61.08514813]
 [  0.2         81.60336348]
 [  0.3         49.30047411]
 [  0.4         20.19115982]
 [  0.5          4.84484905]
 [  0.6         -6.33725134]
 [  0.7        -50.52881352]
 [  0.8         18.84546957]
 [  0.9         30.02670132]
 [  1.         -40.28568066]
 [  1.1         -6.50062274]
 [  1.14141667 -45.625456  ]]","[[0.         0.72926476]
 [0.1        0.45997711]
 [0.2        1.06624038]
 [0.3        0.34123055]
 [0.4        1.31366912]
 [0.5        1.47334476]
 [0.6        0.20442325]
 [0.7        0.26254822]
 [0.8        1.49473913]
 [0.9        0.11252772]
 [1.         0.43349841]
 [1.1        0.539272  ]
 [1.14141667 0.44528582]]",0,0.543
3,m,24,french,3,5,french,2024-02-07 14:00:07.182851,False,1,26,sounds\french\audio/french_119.wav,"[[  0.         -46.46293881]
 [  0.1         36.58591631]
 [  0.2         50.38502511]
 [  0.3        -66.12823015]
 [  0.4        -77.21600754]
 [  0.5          6.000212  ]
 [  0.6         -4.76341262]
 [  0.7          7.45357195]
 [  0.8        -26.58843139]
 [  0.9         31.49724547]
 [  1.          28.64688836]
 [  1.1        -76.72305376]
 [  1.14141667 -86.52721647]]","[[0.         1.20748333]
 [0.1        0.93241829]
 [0.2        0.66065298]
 [0.3        0.45259025]
 [0.4        0.97197432]
 [0.5        0.91187225]
 [0.6        1.2216298 ]
 [0.7        1.53033872]
 [0.8        0.74678716]
 [0.9        1.79882331]
 [1.         0.9366063 ]
 [1.1        1.21120155]
 [1.14141667 0.65657425]]",0,0.795
3,m,24,french,3,5,french,2024-02-07 14:00:07.182851,False,1,27,sounds\french\audio/french_429.wav,"[[  0.         -75.74586018]
 [  0.1         34.66734772]
 [  0.2         97.60199652]
 [  0.3         -1.67223154]
 [  0.4        -69.67975193]
 [  0.5          1.53849988]
 [  0.6         61.62356176]
 [  0.7         34.03398927]
 [  0.8        -30.09572591]
 [  0.9        -80.19873121]
 [  1.           6.60020559]
 [  1.1        -22.42838039]
 [  1.14141667 -84.64983628]]","[[0.         1.28446117]
 [0.1        1.91886237]
 [0.2        0.78737694]
 [0.3        0.63419954]
 [0.4        0.86614415]
 [0.5        0.67079309]
 [0.6        0.78677565]
 [0.7        0.38539195]
 [0.8        0.21197006]
 [0.9        0.76692658]
 [1.         1.37154021]
 [1.1        1.06053947]
 [1.14141667 1.20326298]]",1,2.849
3,m,24,french,3,5,french,2024-02-07 14:00:07.182851,False,1,28,sounds\french\audio/french_684.wav,"[[  0.         -88.96240825]
 [  0.1        -54.37508207]
 [  0.2        -91.57905397]
 [  0.3        -58.85501017]
 [  0.4         44.82481671]
 [  0.5        -70.60806513]
 [  0.6         94.32148608]
 [  0.7        -17.32520236]
 [  0.8         29.06027198]
 [  0.9        -57.57833097]
 [  1.         -48.20877129]
 [  1.1         58.87949866]
 [  1.14141667 -11.47571774]]","[[0.         1.78476448]
 [0.1        0.02576857]
 [0.2        1.04724647]
 [0.3        0.76694618]
 [0.4        0.80269361]
 [0.5        0.84512097]
 [0.6        0.97813642]
 [0.7        0.54666182]
 [0.8        0.58446507]
 [0.9        0.42247579]
 [1.         0.8068102 ]
 [1.1        0.07609372]
 [1.14141667 1.952562  ]]",0,0.389
3,m,24,french,3,5,french,2024-02-07 14:00:07.182851,False,1,29,sounds\french\audio/french_809.wav,"[[  0.         -97.7648991 ]
 [  0.1        -16.18124336]
 [  0.2        -71.88539975]
 [  0.3        -75.84617329]
 [  0.4        -56.68697986]
 [  0.5         17.73104693]
 [  0.6         -2.03944779]
 [  0.7        -23.40421354]
 [  0.8         79.78220222]
 [  0.9         49.19641655]
 [  1.           6.2438068 ]
 [  1.1         -8.92121489]
 [  1.14141667  -7.95185914]]","[[0.         0.21825072]
 [0.1        0.34685571]
 [0.2        1.98263416]
 [0.3        0.64349693]
 [0.4        1.61870407]
 [0.5        0.29134017]
 [0.6        0.74693677]
 [0.7        1.6892509 ]
 [0.8        0.75730555]
 [0.9        1.52241905]
 [1.         0.50964644]
 [1.1        1.05106393]
 [1.14141667 0.92890258]]",0,0.466
3,m,24,french,3,5,french,2024-02-07 14:00:07.182851,False,1,30,sounds\french\audio/french_860.wav,"[[  0.          71.07945552]
 [  0.1          1.72594823]
 [  0.2         19.45974481]
 [  0.3         86.97846053]
 [  0.4         79.47360606]
 [  0.5         53.5019262 ]
 [  0.6        -89.17896142]
 [  0.7        -98.52094084]
 [  0.8         20.28209343]
 [  0.9         88.49530421]
 [  1.         -80.39175175]
 [  1.1         51.29541508]
 [  1.14141667 -36.16508332]]","[[0.         0.53145649]
 [0.1        1.53992391]
 [0.2        1.55701493]
 [0.3        1.64837469]
 [0.4        1.11154263]
 [0.5        1.86343254]
 [0.6        1.50195398]
 [0.7        1.86567231]
 [0.8        1.56384749]
 [0.9        0.34177252]
 [1.         1.02561869]
 [1.1        0.56375965]
 [1.14141667 1.26691699]]",0,0.667
3,m,24,french,3,5,french,2024-02-07 14:00:07.182851,False,1,31,sounds\french\audio/french_680.wav,"[[  0.          54.30694394]
 [  0.1        -41.5272764 ]
 [  0.2        -38.88597906]
 [  0.3        -49.52685889]
 [  0.4         44.72087894]
 [  0.5        -10.12676544]
 [  0.6        -77.5421686 ]
 [  0.7         58.76328726]
 [  0.8        -86.31399478]
 [  0.9        -12.04790726]
 [  1.         -19.59492269]
 [  1.1         21.11703797]
 [  1.14141667 -79.69552217]]","[[0.         1.15211559]
 [0.1        0.87340138]
 [0.2        1.68062495]
 [0.3        0.30209983]
 [0.4        0.50857504]
 [0.5        1.91316925]
 [0.6        1.9075382 ]
 [0.7        0.67384567]
 [0.8        0.03846657]
 [0.9        1.94476972]
 [1.         1.59177026]
 [1.1        0.77201621]
 [1.14141667 0.82441706]]",1,0.971
3,m,24,french,3,5,french,2024-02-07 14:00:07.182851,False,1,32,sounds\french\audio/french_52.wav,"[[  0.          93.38164969]
 [  0.1         -4.17463196]
 [  0.2         43.01045584]
 [  0.3         79.89764716]
 [  0.4         89.53615732]
 [  0.5         -1.91048344]
 [  0.6         -9.63392165]
 [  0.7        -91.20147798]
 [  0.8        -22.16876699]
 [  0.9         26.46243178]
 [  1.         -96.25408509]
 [  1.1        -45.87026752]
 [  1.14141667 -15.0624862 ]]","[[0.         0.21743143]
 [0.1        1.66269787]
 [0.2        0.38714673]
 [0.3        1.29835481]
 [0.4        1.7255644 ]
 [0.5        0.55155407]
 [0.6        0.27578942]
 [0.7        1.40308441]
 [0.8        1.87234948]
 [0.9        1.88038075]
 [1.         1.06731664]
 [1.1        1.74934034]
 [1.14141667 1.38742842]]",0,0.435
3,m,24,french,3,5,french,2024-02-07 14:00:07.182851,False,1,33,sounds\french\audio/french_209.wav,"[[  0.         -37.75432052]
 [  0.1        -41.54397479]
 [  0.2         88.65301906]
 [  0.3        -58.34566528]
 [  0.4         32.2915787 ]
 [  0.5        -42.74882162]
 [  0.6        -70.03367552]
 [  0.7        -13.67330676]
 [  0.8        -64.68428425]
 [  0.9        -46.32803613]
 [  1.         -60.50547671]
 [  1.1         74.16907005]
 [  1.14141667  -0.39288766]]","[[0.         1.2769056 ]
 [0.1        0.48875509]
 [0.2        0.27666548]
 [0.3        0.43345867]
 [0.4        0.98164386]
 [0.5        1.03792846]
 [0.6        0.41234579]
 [0.7        0.09529836]
 [0.8        1.4613373 ]
 [0.9        1.1830112 ]
 [1.         1.12513934]
 [1.1        1.39691571]
 [1.14141667 0.99758243]]",0,0.681
3,m,24,french,3,5,french,2024-02-07 14:00:07.182851,False,1,34,sounds\french\audio/french_113.wav,"[[  0.          51.06943886]
 [  0.1         24.37567111]
 [  0.2        -30.40960405]
 [  0.3        -91.25272525]
 [  0.4         87.90673924]
 [  0.5          2.42955661]
 [  0.6         36.08285451]
 [  0.7        -99.48293301]
 [  0.8         59.12958731]
 [  0.9        -71.36695162]
 [  1.         -86.60100387]
 [  1.1        -70.30574561]
 [  1.14141667  72.13764249]]","[[0.         1.16712097]
 [0.1        0.22717449]
 [0.2        0.5815837 ]
 [0.3        0.50497114]
 [0.4        1.37233966]
 [0.5        1.42439941]
 [0.6        1.26104805]
 [0.7        1.48988751]
 [0.8        1.64050353]
 [0.9        1.39380246]
 [1.         1.34922295]
 [1.1        0.5132175 ]
 [1.14141667 0.46186768]]",0,0.554
3,m,24,french,3,5,french,2024-02-07 14:00:07.182851,False,1,35,sounds\french\audio/french_999.wav,"[[  0.          49.59998694]
 [  0.1        -18.3609497 ]
 [  0.2          2.93304339]
 [  0.3         57.93949433]
 [  0.4         22.39348877]
 [  0.5         80.52243974]
 [  0.6        -44.27130323]
 [  0.7         74.01577691]
 [  0.8          6.35871184]
 [  0.9         35.77378691]
 [  1.          -3.83279808]
 [  1.1         68.61998749]
 [  1.14141667  22.18129114]]","[[0.         1.8221993 ]
 [0.1        1.29033683]
 [0.2        1.83872361]
 [0.3        0.95044995]
 [0.4        0.11870754]
 [0.5        0.36425105]
 [0.6        1.15793319]
 [0.7        1.54792592]
 [0.8        0.09478288]
 [0.9        1.51328508]
 [1.         0.96114029]
 [1.1        1.75865896]
 [1.14141667 0.59242415]]",1,0.976
3,m,24,french,3,5,french,2024-02-07 14:00:07.182851,False,1,36,sounds\french\audio/french_112.wav,"[[  0.          -8.67519004]
 [  0.1         92.32686685]
 [  0.2        -90.11400299]
 [  0.3        -70.26652749]
 [  0.4         90.1952046 ]
 [  0.5        -18.57411381]
 [  0.6         87.02651396]
 [  0.7         74.95745067]
 [  0.8        -76.86566846]
 [  0.9        -17.37300567]
 [  1.          66.02082776]
 [  1.1         74.04162453]
 [  1.14141667  30.79891374]]","[[0.         0.05511238]
 [0.1        0.5303996 ]
 [0.2        1.12381403]
 [0.3        0.96995279]
 [0.4        1.443926  ]
 [0.5        0.7152831 ]
 [0.6        1.98165732]
 [0.7        1.64696502]
 [0.8        0.33650489]
 [0.9        0.64053091]
 [1.         1.69815657]
 [1.1        1.28891834]
 [1.14141667 1.86060704]]",0,0.34
3,m,24,french,3,5,french,2024-02-07 14:00:07.182851,False,1,37,sounds\french\audio/french_745.wav,"[[  0.          -8.32888314]
 [  0.1         -6.05023993]
 [  0.2         14.20117391]
 [  0.3          9.72422027]
 [  0.4         61.94285409]
 [  0.5         16.9242065 ]
 [  0.6        -73.99150176]
 [  0.7        -68.75802198]
 [  0.8         30.41524691]
 [  0.9        -73.26315303]
 [  1.          67.07087991]
 [  1.1         37.63567308]
 [  1.14141667  72.47019106]]","[[0.         1.09732397]
 [0.1        1.87088692]
 [0.2        1.54181536]
 [0.3        0.66469183]
 [0.4        0.06080466]
 [0.5        0.4761387 ]
 [0.6        0.98624315]
 [0.7        1.75579455]
 [0.8        0.49603864]
 [0.9        1.28396811]
 [1.         1.04819189]
 [1.1        1.07853657]
 [1.14141667 1.51225642]]",1,1.185
3,m,24,french,3,5,french,2024-02-07 14:00:07.182851,False,1,38,sounds\french\audio/french_598.wav,"[[  0.          81.47475181]
 [  0.1         25.55654558]
 [  0.2        -39.76087203]
 [  0.3         55.58263066]
 [  0.4         75.71489797]
 [  0.5         72.41311107]
 [  0.6        -25.41226097]
 [  0.7        -51.71434597]
 [  0.8         16.96357074]
 [  0.9         -5.07372562]
 [  1.          57.35647052]
 [  1.1        -65.0109214 ]
 [  1.14141667 -32.53101468]]","[[0.         0.08502692]
 [0.1        1.26886973]
 [0.2        0.34309234]
 [0.3        0.20732643]
 [0.4        1.71520034]
 [0.5        1.41219265]
 [0.6        1.46569524]
 [0.7        0.86913471]
 [0.8        1.64969653]
 [0.9        0.02908454]
 [1.         0.43315428]
 [1.1        1.53487145]
 [1.14141667 0.03202834]]",1,0.99
3,m,24,french,3,5,french,2024-02-07 14:00:07.182851,False,1,39,sounds\french\audio/french_412.wav,"[[  0.          80.33750743]
 [  0.1         50.4773299 ]
 [  0.2          7.50934865]
 [  0.3         -9.23463682]
 [  0.4          9.13658121]
 [  0.5         11.12128685]
 [  0.6        -94.30640228]
 [  0.7        -51.41178114]
 [  0.8         28.26572128]
 [  0.9        -71.75232094]
 [  1.          86.09965629]
 [  1.1         27.28800681]
 [  1.14141667  32.1776899 ]]","[[0.         1.13543916]
 [0.1        1.15832638]
 [0.2        0.2432056 ]
 [0.3        1.81011187]
 [0.4        0.142234  ]
 [0.5        1.17532286]
 [0.6        1.06397509]
 [0.7        1.83631312]
 [0.8        1.0285842 ]
 [0.9        1.74888075]
 [1.         1.95722924]
 [1.1        1.49997067]
 [1.14141667 0.76864943]]",0,0.645
3,m,24,french,3,5,french,2024-02-07 14:00:07.182851,False,1,40,sounds\french\audio/french_772.wav,"[[  0.          91.87661816]
 [  0.1         50.83330394]
 [  0.2         18.34519554]
 [  0.3         22.30074764]
 [  0.4         95.20498412]
 [  0.5         72.76337394]
 [  0.6        -55.2554668 ]
 [  0.7         40.41956934]
 [  0.8         33.49782038]
 [  0.9         54.50185549]
 [  1.          97.73664267]
 [  1.1        -94.13406364]
 [  1.14141667  -2.98004272]]","[[0.         1.17079927]
 [0.1        0.64172524]
 [0.2        1.40609386]
 [0.3        0.90388327]
 [0.4        0.79397784]
 [0.5        1.81598784]
 [0.6        0.92460727]
 [0.7        0.47491525]
 [0.8        1.81149804]
 [0.9        1.46034495]
 [1.         0.9010875 ]
 [1.1        1.73722797]
 [1.14141667 1.32105832]]",0,0.563
3,m,24,french,3,5,french,2024-02-07 14:00:07.182851,False,1,41,sounds\french\audio/french_45.wav,"[[  0.           4.56173303]
 [  0.1         74.73557227]
 [  0.2        -92.29583716]
 [  0.3         82.3773938 ]
 [  0.4        -50.62808554]
 [  0.5        -35.38506933]
 [  0.6        -76.21602708]
 [  0.7         13.4081517 ]
 [  0.8         60.02628181]
 [  0.9        -69.7779934 ]
 [  1.          26.70700763]
 [  1.1          2.15265125]
 [  1.14141667  12.24183069]]","[[0.         1.83143027]
 [0.1        0.95964929]
 [0.2        0.89840441]
 [0.3        1.91185951]
 [0.4        0.53797914]
 [0.5        1.77700648]
 [0.6        0.80918408]
 [0.7        0.77945945]
 [0.8        0.91359537]
 [0.9        0.85324143]
 [1.         0.01420072]
 [1.1        1.17171594]
 [1.14141667 0.79271144]]",1,1.782
3,m,24,french,3,5,french,2024-02-07 14:00:07.182851,False,1,42,sounds\french\audio/french_153.wav,"[[  0.         -42.01574029]
 [  0.1        -90.00143585]
 [  0.2        -43.7259183 ]
 [  0.3         11.44022212]
 [  0.4         88.748088  ]
 [  0.5        -52.31400469]
 [  0.6         87.18732736]
 [  0.7        -86.03959727]
 [  0.8          8.69100054]
 [  0.9         62.86212057]
 [  1.          27.92700795]
 [  1.1         39.59984074]
 [  1.14141667 -14.92872681]]","[[0.         0.84439614]
 [0.1        0.44297776]
 [0.2        0.69214518]
 [0.3        1.09273238]
 [0.4        0.54928819]
 [0.5        0.96507272]
 [0.6        1.56155988]
 [0.7        1.86632658]
 [0.8        0.92278907]
 [0.9        0.59982574]
 [1.         0.05271929]
 [1.1        0.68548108]
 [1.14141667 1.34366794]]",0,1.826
3,m,24,french,3,5,french,2024-02-07 14:00:07.182851,False,1,43,sounds\french\audio/french_519.wav,"[[  0.          38.95071941]
 [  0.1        -98.16248953]
 [  0.2         -8.53351214]
 [  0.3        -29.96278714]
 [  0.4        -57.19313365]
 [  0.5        -14.84533872]
 [  0.6         65.33729063]
 [  0.7          2.08710226]
 [  0.8        -14.97633343]
 [  0.9         84.22736014]
 [  1.         -86.65839452]
 [  1.1        -25.38298956]
 [  1.14141667 -47.75612145]]","[[0.         0.15710705]
 [0.1        1.65075873]
 [0.2        0.59061529]
 [0.3        0.34046239]
 [0.4        0.44125755]
 [0.5        1.00043078]
 [0.6        1.54523625]
 [0.7        1.08213469]
 [0.8        0.71331726]
 [0.9        0.21863186]
 [1.         0.07702422]
 [1.1        0.09511301]
 [1.14141667 1.11047356]]",1,3.447
3,m,24,french,3,5,french,2024-02-07 14:00:07.182851,False,1,44,sounds\french\audio/french_801.wav,"[[  0.          42.05546356]
 [  0.1        -92.3466124 ]
 [  0.2         40.25447593]
 [  0.3         86.98750178]
 [  0.4         72.9865192 ]
 [  0.5         44.19690026]
 [  0.6        -18.76468676]
 [  0.7        -37.75366406]
 [  0.8         12.99673571]
 [  0.9        -12.35408716]
 [  1.         -69.77608862]
 [  1.1         65.56794574]
 [  1.14141667 -58.95035096]]","[[0.         0.94398168]
 [0.1        0.20033669]
 [0.2        0.1618081 ]
 [0.3        1.08194555]
 [0.4        1.53929443]
 [0.5        0.95422302]
 [0.6        1.56487139]
 [0.7        1.79656614]
 [0.8        1.22963791]
 [0.9        0.72904385]
 [1.         1.94753287]
 [1.1        0.67352843]
 [1.14141667 1.98504787]]",0,0.698
3,m,24,french,3,5,french,2024-02-07 14:00:07.182851,False,1,45,sounds\french\audio/french_268.wav,"[[  0.         -90.17309363]
 [  0.1          7.72676812]
 [  0.2        -17.47785998]
 [  0.3        -68.38186843]
 [  0.4        -68.90464699]
 [  0.5        -60.03371115]
 [  0.6         54.95042453]
 [  0.7        -61.89102348]
 [  0.8        -92.43644205]
 [  0.9        -85.74845922]
 [  1.         -67.45378327]
 [  1.1        -69.51500294]
 [  1.14141667  25.86880955]]","[[0.         1.87145696]
 [0.1        1.66378637]
 [0.2        0.26930884]
 [0.3        1.52031218]
 [0.4        0.92093983]
 [0.5        1.79094401]
 [0.6        1.54867869]
 [0.7        1.2478237 ]
 [0.8        0.54208793]
 [0.9        0.78885357]
 [1.         1.38787262]
 [1.1        1.61364817]
 [1.14141667 0.52503336]]",1,0.814
3,m,24,french,3,5,french,2024-02-07 14:00:07.182851,False,1,46,sounds\french\audio/french_549.wav,"[[  0.         -75.20654592]
 [  0.1        -31.46313263]
 [  0.2         63.43023055]
 [  0.3        -47.83204011]
 [  0.4        -12.06704185]
 [  0.5         21.92378147]
 [  0.6          3.15866922]
 [  0.7         77.16646097]
 [  0.8        -55.69194491]
 [  0.9         59.76392534]
 [  1.           5.24846484]
 [  1.1         17.5272775 ]
 [  1.14141667  77.18549428]]","[[0.         1.24662129]
 [0.1        0.24120097]
 [0.2        1.64296857]
 [0.3        1.68842927]
 [0.4        1.52780869]
 [0.5        1.9277995 ]
 [0.6        1.64875421]
 [0.7        0.97228607]
 [0.8        1.26011495]
 [0.9        0.74800621]
 [1.         0.89870469]
 [1.1        1.45858483]
 [1.14141667 1.898714  ]]",0,0.438
3,m,24,french,3,5,french,2024-02-07 14:00:07.182851,False,1,47,sounds\french\audio/french_83.wav,"[[  0.          30.44967783]
 [  0.1         32.59822127]
 [  0.2         50.8682146 ]
 [  0.3          0.11779037]
 [  0.4         16.37029834]
 [  0.5         90.79022832]
 [  0.6        -75.94380669]
 [  0.7         34.13478403]
 [  0.8        -27.50152867]
 [  0.9          9.93495342]
 [  1.          58.3619145 ]
 [  1.1         15.44979308]
 [  1.14141667  13.85594834]]","[[0.         0.42165273]
 [0.1        0.3238076 ]
 [0.2        0.37913611]
 [0.3        0.78724258]
 [0.4        1.0594663 ]
 [0.5        0.48377765]
 [0.6        0.29353951]
 [0.7        1.31767934]
 [0.8        0.23770737]
 [0.9        0.58296712]
 [1.         0.64820026]
 [1.1        0.12158815]
 [1.14141667 0.38899467]]",0,1.709
3,m,24,french,3,5,french,2024-02-07 14:00:07.182851,False,1,48,sounds\french\audio/french_16.wav,"[[  0.          82.07579611]
 [  0.1        -32.83094823]
 [  0.2         41.28040727]
 [  0.3         90.77692627]
 [  0.4         73.94831714]
 [  0.5        -88.41542948]
 [  0.6          4.37289538]
 [  0.7         77.79051447]
 [  0.8         71.33775497]
 [  0.9        -23.77305366]
 [  1.          69.50638407]
 [  1.1          7.9375364 ]
 [  1.14141667 -53.70826654]]","[[0.         1.07310586]
 [0.1        1.45317336]
 [0.2        0.46166585]
 [0.3        0.56449572]
 [0.4        0.90966038]
 [0.5        0.09547685]
 [0.6        0.22269855]
 [0.7        0.49251914]
 [0.8        1.29029618]
 [0.9        0.28261848]
 [1.         0.13786232]
 [1.1        0.88824907]
 [1.14141667 1.57250049]]",0,0.601
3,m,24,french,3,5,french,2024-02-07 14:00:07.182851,False,1,49,sounds\french\audio/french_645.wav,"[[  0.          72.31495758]
 [  0.1         33.02660592]
 [  0.2         34.75230783]
 [  0.3        -18.56661781]
 [  0.4          8.74487048]
 [  0.5        -10.39866584]
 [  0.6         -2.65155949]
 [  0.7         60.61639305]
 [  0.8         59.13088836]
 [  0.9        -78.24987601]
 [  1.          10.94023696]
 [  1.1         75.3572766 ]
 [  1.14141667  -5.37493528]]","[[0.         0.48297352]
 [0.1        0.83233139]
 [0.2        1.71239538]
 [0.3        1.40195872]
 [0.4        1.61832293]
 [0.5        1.2979752 ]
 [0.6        0.96060036]
 [0.7        0.64913106]
 [0.8        1.1310807 ]
 [0.9        0.33061151]
 [1.         1.5971495 ]
 [1.1        0.19394904]
 [1.14141667 0.40379368]]",0,0.717
3,m,24,french,3,5,french,2024-02-07 14:00:07.182851,False,1,50,sounds\french\audio/french_262.wav,"[[  0.         -49.98964576]
 [  0.1         49.26689568]
 [  0.2        -10.28953368]
 [  0.3         16.98520639]
 [  0.4         58.69009652]
 [  0.5         -6.53344433]
 [  0.6         78.39274077]
 [  0.7         51.65400512]
 [  0.8         81.31634544]
 [  0.9         18.40506356]
 [  1.         -53.30019586]
 [  1.1        -37.56666303]
 [  1.14141667  77.06743199]]","[[0.         1.11053442]
 [0.1        1.17094698]
 [0.2        1.02775787]
 [0.3        0.65380655]
 [0.4        0.10783944]
 [0.5        1.03413092]
 [0.6        1.62007201]
 [0.7        0.45017147]
 [0.8        0.78466741]
 [0.9        0.98426364]
 [1.         0.15499386]
 [1.1        1.25025011]
 [1.14141667 1.21854314]]",1,1.156
3,m,24,french,3,5,french,2024-02-07 14:00:07.182851,False,1,51,sounds\french\audio/french_172.wav,"[[  0.          52.55822797]
 [  0.1         36.03304437]
 [  0.2         87.57540256]
 [  0.3         -1.02225297]
 [  0.4        -45.72834283]
 [  0.5        -78.07098029]
 [  0.6         66.92119406]
 [  0.7         54.13458116]
 [  0.8          9.25383275]
 [  0.9         84.2289997 ]
 [  1.         -92.0852474 ]
 [  1.1        -58.15058713]
 [  1.14141667 -93.51230148]]","[[0.         1.64690449]
 [0.1        1.13416013]
 [0.2        0.18828869]
 [0.3        1.03936139]
 [0.4        1.57744061]
 [0.5        0.88465221]
 [0.6        1.26318424]
 [0.7        0.93894817]
 [0.8        1.37261227]
 [0.9        0.51589031]
 [1.         0.04731792]
 [1.1        0.7131693 ]
 [1.14141667 0.70039891]]",0,0.585
3,m,24,french,3,5,french,2024-02-07 14:00:07.182851,False,1,52,sounds\french\audio/french_714.wav,"[[  0.          95.90344611]
 [  0.1        -24.72262082]
 [  0.2         59.37227344]
 [  0.3        -27.1741591 ]
 [  0.4         45.66784268]
 [  0.5        -18.42560325]
 [  0.6         22.13445338]
 [  0.7         66.94076888]
 [  0.8         57.76397855]
 [  0.9        -44.74008532]
 [  1.           2.87251243]
 [  1.1        -46.16839405]
 [  1.14141667  -2.68285776]]","[[0.         0.85575765]
 [0.1        0.99109068]
 [0.2        0.51789898]
 [0.3        0.15135155]
 [0.4        0.88454916]
 [0.5        0.71216205]
 [0.6        0.59963982]
 [0.7        1.6442642 ]
 [0.8        1.16580862]
 [0.9        0.14338442]
 [1.         1.85438603]
 [1.1        1.87453004]
 [1.14141667 0.8079694 ]]",0,1.988
3,m,24,french,3,5,french,2024-02-07 14:00:07.182851,False,1,53,sounds\french\audio/french_462.wav,"[[  0.          84.3369576 ]
 [  0.1         36.79048727]
 [  0.2         97.87832592]
 [  0.3        -59.30260184]
 [  0.4         -3.27952494]
 [  0.5         68.21893327]
 [  0.6        -69.29684535]
 [  0.7        -13.15553229]
 [  0.8         86.11314581]
 [  0.9         57.06361677]
 [  1.         -29.41015559]
 [  1.1         16.3701653 ]
 [  1.14141667  72.14553851]]","[[0.         1.25832813]
 [0.1        1.27617891]
 [0.2        0.34943573]
 [0.3        0.84539824]
 [0.4        1.57318103]
 [0.5        0.94682889]
 [0.6        0.71247574]
 [0.7        0.50326288]
 [0.8        1.73607664]
 [0.9        1.1928267 ]
 [1.         0.97251074]
 [1.1        0.13741037]
 [1.14141667 0.73566388]]",0,1.391
3,m,24,french,3,5,french,2024-02-07 14:00:07.182851,False,1,54,sounds\french\audio/french_135.wav,"[[  0.          -4.48551791]
 [  0.1        -89.39520369]
 [  0.2        -62.25671273]
 [  0.3          7.71889733]
 [  0.4        -11.13544352]
 [  0.5          8.86500482]
 [  0.6         40.83334399]
 [  0.7         98.23692367]
 [  0.8         31.56709052]
 [  0.9        -42.21440335]
 [  1.          53.89223247]
 [  1.1        -14.26740384]
 [  1.14141667   8.8582073 ]]","[[0.         1.91514039]
 [0.1        1.98977227]
 [0.2        0.11754105]
 [0.3        0.48283113]
 [0.4        1.69468672]
 [0.5        1.03348797]
 [0.6        1.01666511]
 [0.7        1.4427273 ]
 [0.8        0.64151379]
 [0.9        1.53600092]
 [1.         1.41516669]
 [1.1        0.42854653]
 [1.14141667 1.07609304]]",0,0.417
3,m,24,french,3,5,french,2024-02-07 14:00:07.182851,False,1,55,sounds\french\audio/french_480.wav,"[[  0.          97.66630041]
 [  0.1        -79.64204264]
 [  0.2         24.53990437]
 [  0.3         57.16937352]
 [  0.4        -49.5727771 ]
 [  0.5         20.93938074]
 [  0.6        -18.76856636]
 [  0.7        -13.01913145]
 [  0.8        -32.81669271]
 [  0.9         -8.39241944]
 [  1.          49.55967768]
 [  1.1        -59.93050537]
 [  1.14141667  85.43104854]]","[[0.         1.18828574]
 [0.1        0.75698947]
 [0.2        1.02849864]
 [0.3        1.04831748]
 [0.4        0.01270645]
 [0.5        0.22737289]
 [0.6        1.19517064]
 [0.7        1.96735092]
 [0.8        1.02544343]
 [0.9        0.41084546]
 [1.         1.65917595]
 [1.1        1.87241821]
 [1.14141667 1.8838    ]]",1,1.478
3,m,24,french,3,5,french,2024-02-07 14:00:07.182851,False,1,56,sounds\french\audio/french_392.wav,"[[  0.          43.99848035]
 [  0.1         89.37964473]
 [  0.2        -94.11859464]
 [  0.3         16.69264068]
 [  0.4         83.58605823]
 [  0.5        -10.46823154]
 [  0.6        -50.40581599]
 [  0.7        -34.67139943]
 [  0.8        -49.94222818]
 [  0.9         23.2883478 ]
 [  1.         -13.68434183]
 [  1.1        -91.50967173]
 [  1.14141667  19.2925098 ]]","[[0.         0.24307259]
 [0.1        0.78823441]
 [0.2        1.0877562 ]
 [0.3        1.02068891]
 [0.4        1.168512  ]
 [0.5        0.9879619 ]
 [0.6        0.74539944]
 [0.7        1.04829238]
 [0.8        1.85501319]
 [0.9        1.17241546]
 [1.         0.44164046]
 [1.1        0.8250053 ]
 [1.14141667 0.46893498]]",0,0.395
3,m,24,french,3,5,french,2024-02-07 14:00:07.182851,False,1,57,sounds\french\audio/french_376.wav,"[[  0.          73.87662421]
 [  0.1         19.14234839]
 [  0.2          4.70109866]
 [  0.3        -30.42429162]
 [  0.4          3.90906102]
 [  0.5         10.50295885]
 [  0.6        -30.86055656]
 [  0.7         53.80718703]
 [  0.8        -11.59229263]
 [  0.9         30.36028375]
 [  1.           7.96834733]
 [  1.1         39.66709202]
 [  1.14141667 -13.49486002]]","[[0.         1.19017326]
 [0.1        0.34739983]
 [0.2        1.75661595]
 [0.3        0.21467383]
 [0.4        1.0652989 ]
 [0.5        0.76759319]
 [0.6        0.07074157]
 [0.7        0.03277106]
 [0.8        0.77775249]
 [0.9        1.59245898]
 [1.         1.58597596]
 [1.1        1.4930996 ]
 [1.14141667 0.34020646]]",0,0.666
3,m,24,french,3,5,french,2024-02-07 14:00:07.182851,False,1,58,sounds\french\audio/french_521.wav,"[[  0.           2.02303426]
 [  0.1         27.55245524]
 [  0.2        -46.69757278]
 [  0.3        -94.98250694]
 [  0.4          2.66667068]
 [  0.5         83.78734232]
 [  0.6        -80.30851908]
 [  0.7        -90.0764255 ]
 [  0.8         21.33552602]
 [  0.9        -61.83607635]
 [  1.         -92.49710651]
 [  1.1        -32.3485136 ]
 [  1.14141667   8.4434574 ]]","[[0.         0.20556186]
 [0.1        0.44198605]
 [0.2        0.76515597]
 [0.3        1.70762069]
 [0.4        1.19903269]
 [0.5        0.59862631]
 [0.6        1.39546585]
 [0.7        1.18274747]
 [0.8        1.17625485]
 [0.9        0.38414308]
 [1.         1.18179738]
 [1.1        1.02663222]
 [1.14141667 0.71900975]]",0,0.464
3,m,24,french,3,5,french,2024-02-07 14:00:07.182851,False,1,59,sounds\french\audio/french_778.wav,"[[  0.         -35.48786366]
 [  0.1         20.95778916]
 [  0.2         62.15303642]
 [  0.3         90.70594658]
 [  0.4        -91.65456069]
 [  0.5         51.13487531]
 [  0.6        -71.75851132]
 [  0.7         75.8077585 ]
 [  0.8         55.46081372]
 [  0.9        -65.5842371 ]
 [  1.         -78.54616608]
 [  1.1         28.288087  ]
 [  1.14141667 -82.62675802]]","[[0.         0.49504086]
 [0.1        1.47718928]
 [0.2        1.37622644]
 [0.3        1.090534  ]
 [0.4        1.77275196]
 [0.5        0.71177308]
 [0.6        1.53575502]
 [0.7        1.84732491]
 [0.8        1.36043897]
 [0.9        0.49785511]
 [1.         0.675821  ]
 [1.1        0.82554017]
 [1.14141667 1.54903202]]",0,0.414
3,m,24,french,3,5,french,2024-02-07 14:00:07.182851,False,1,60,sounds\french\audio/french_893.wav,"[[  0.          -7.27699978]
 [  0.1        -89.77020568]
 [  0.2        -14.57898987]
 [  0.3         17.83631346]
 [  0.4         -1.41603642]
 [  0.5         83.48956913]
 [  0.6         30.8822208 ]
 [  0.7        -64.37206317]
 [  0.8        -28.39613134]
 [  0.9        -87.01917752]
 [  1.          40.7229808 ]
 [  1.1         99.76956112]
 [  1.14141667 -22.42545561]]","[[0.         1.51978009]
 [0.1        0.73116865]
 [0.2        0.67126481]
 [0.3        1.90896292]
 [0.4        0.69510604]
 [0.5        1.57489321]
 [0.6        1.47648751]
 [0.7        1.31493152]
 [0.8        0.56604346]
 [0.9        0.26201855]
 [1.         0.45307121]
 [1.1        0.54133615]
 [1.14141667 0.07796444]]",1,1.047
3,m,24,french,3,5,french,2024-02-07 14:00:07.182851,False,1,61,sounds\french\audio/french_608.wav,"[[  0.         -30.86247379]
 [  0.1         72.26893528]
 [  0.2         28.06407444]
 [  0.3          5.69112166]
 [  0.4        -89.82873455]
 [  0.5        -94.47368142]
 [  0.6         87.02077085]
 [  0.7         45.62068099]
 [  0.8         17.9702258 ]
 [  0.9        -83.67929995]
 [  1.          11.26047712]
 [  1.1        -17.34118799]
 [  1.14141667  58.61545887]]","[[0.         1.5835974 ]
 [0.1        1.06170467]
 [0.2        1.27495408]
 [0.3        0.05673097]
 [0.4        1.69011547]
 [0.5        1.30432872]
 [0.6        0.95720889]
 [0.7        1.61346479]
 [0.8        1.94079828]
 [0.9        1.39950728]
 [1.         1.54288228]
 [1.1        1.65188017]
 [1.14141667 0.6480034 ]]",0,0.52
3,m,24,french,3,5,french,2024-02-07 14:00:07.182851,False,1,62,sounds\french\audio/french_904.wav,"[[  0.         -11.62176844]
 [  0.1        -97.15527311]
 [  0.2         23.7219884 ]
 [  0.3        -11.13047804]
 [  0.4         98.59989814]
 [  0.5         10.92949536]
 [  0.6         -8.2334005 ]
 [  0.7        -68.9383701 ]
 [  0.8         64.82847107]
 [  0.9        -91.99415487]
 [  1.         -52.64833553]
 [  1.1         47.97880576]
 [  1.14141667 -73.02936526]]","[[0.         1.49355087]
 [0.1        0.51193857]
 [0.2        1.25947895]
 [0.3        0.53809601]
 [0.4        0.21415281]
 [0.5        1.62896015]
 [0.6        0.06342806]
 [0.7        0.5262516 ]
 [0.8        1.37854903]
 [0.9        0.72263695]
 [1.         0.97240938]
 [1.1        0.44825995]
 [1.14141667 1.11879983]]",0,0.414
3,m,24,french,3,5,french,2024-02-07 14:00:07.182851,False,1,63,sounds\french\audio/french_835.wav,"[[  0.          91.17156261]
 [  0.1         25.08688283]
 [  0.2         48.2450029 ]
 [  0.3         90.12216344]
 [  0.4        -40.18882143]
 [  0.5        -54.27954375]
 [  0.6        -68.4756581 ]
 [  0.7        -53.08534738]
 [  0.8        -46.88967441]
 [  0.9        -31.87646129]
 [  1.          35.54298867]
 [  1.1         77.25630657]
 [  1.14141667  70.60272191]]","[[0.         0.94497771]
 [0.1        1.50226129]
 [0.2        1.19715806]
 [0.3        1.34954449]
 [0.4        0.59579265]
 [0.5        1.80504859]
 [0.6        0.24555797]
 [0.7        0.70333343]
 [0.8        0.47518266]
 [0.9        1.46400156]
 [1.         1.13067654]
 [1.1        0.43563769]
 [1.14141667 1.31798111]]",1,1.618
3,m,24,french,3,5,french,2024-02-07 14:00:07.182851,False,1,64,sounds\french\audio/french_816.wav,"[[  0.         -97.18949374]
 [  0.1        -61.44808102]
 [  0.2         61.9994188 ]
 [  0.3         84.22947867]
 [  0.4         71.42718941]
 [  0.5         24.61980692]
 [  0.6         67.61429309]
 [  0.7          2.89011689]
 [  0.8        -17.87721334]
 [  0.9         68.87537651]
 [  1.          26.6727595 ]
 [  1.1          7.78053478]
 [  1.14141667  95.77522744]]","[[0.         1.62055142]
 [0.1        0.77873913]
 [0.2        1.7419515 ]
 [0.3        1.18335518]
 [0.4        0.26789649]
 [0.5        1.09790132]
 [0.6        0.65540703]
 [0.7        0.23417739]
 [0.8        1.34217218]
 [0.9        0.58504263]
 [1.         0.89860731]
 [1.1        1.05692274]
 [1.14141667 0.59957378]]",1,0.784
3,m,24,french,3,5,french,2024-02-07 14:00:07.182851,False,1,65,sounds\french\audio/french_307.wav,"[[ 0.00000000e+00 -8.12536919e+01]
 [ 1.00000000e-01 -5.92199646e+00]
 [ 2.00000000e-01 -7.08440156e+01]
 [ 3.00000000e-01 -3.88570398e+01]
 [ 4.00000000e-01 -7.46373028e+01]
 [ 5.00000000e-01  3.72357881e+01]
 [ 6.00000000e-01 -2.61136950e+00]
 [ 7.00000000e-01  4.06769116e+01]
 [ 8.00000000e-01  6.68191977e+01]
 [ 9.00000000e-01  8.94255447e+01]
 [ 1.00000000e+00 -1.24290818e-02]
 [ 1.10000000e+00 -9.47277852e+01]
 [ 1.14141667e+00  5.25537701e+00]]","[[0.         1.33468173]
 [0.1        1.24052459]
 [0.2        0.05751099]
 [0.3        0.0183033 ]
 [0.4        1.42823854]
 [0.5        1.31262623]
 [0.6        1.64307627]
 [0.7        1.23311758]
 [0.8        1.11809567]
 [0.9        1.10385944]
 [1.         1.86476593]
 [1.1        1.90945351]
 [1.14141667 1.40561689]]",0,0.271
3,m,24,french,3,5,french,2024-02-07 14:00:07.182851,False,1,66,sounds\french\audio/french_103.wav,"[[  0.           2.91786926]
 [  0.1         23.30029005]
 [  0.2         28.01552046]
 [  0.3        -51.40874307]
 [  0.4        -99.21557126]
 [  0.5         19.84118939]
 [  0.6        -65.99225766]
 [  0.7         40.39751922]
 [  0.8         74.789965  ]
 [  0.9        -43.83163503]
 [  1.          57.49015739]
 [  1.1         25.73775256]
 [  1.14141667 -31.20389674]]","[[0.         0.93245286]
 [0.1        0.22329417]
 [0.2        0.96994087]
 [0.3        0.86608645]
 [0.4        1.27002085]
 [0.5        0.69713375]
 [0.6        1.27865319]
 [0.7        0.4711572 ]
 [0.8        1.04688334]
 [0.9        1.42282614]
 [1.         0.52926459]
 [1.1        0.76349625]
 [1.14141667 0.16787847]]",0,0.529
3,m,24,french,3,5,french,2024-02-07 14:00:07.182851,False,1,67,sounds\french\audio/french_642.wav,"[[  0.         -26.94149139]
 [  0.1        -42.44979242]
 [  0.2        -85.58455898]
 [  0.3         71.34116789]
 [  0.4         -4.33450323]
 [  0.5         17.60212446]
 [  0.6         18.23456953]
 [  0.7         54.5003758 ]
 [  0.8        -45.66104238]
 [  0.9        -27.81363224]
 [  1.         -50.61781977]
 [  1.1        -53.22259328]
 [  1.14141667  60.89124341]]","[[0.         1.01271481]
 [0.1        0.51257495]
 [0.2        0.4986283 ]
 [0.3        0.26186834]
 [0.4        0.39941129]
 [0.5        1.35211787]
 [0.6        1.3422582 ]
 [0.7        1.49292003]
 [0.8        0.35741308]
 [0.9        1.12731495]
 [1.         0.6090457 ]
 [1.1        1.42419738]
 [1.14141667 1.16448888]]",0,0.7
3,m,24,french,3,5,french,2024-02-07 14:00:07.182851,False,1,68,sounds\french\audio/french_823.wav,"[[  0.          33.60636133]
 [  0.1         28.32505989]
 [  0.2          6.84878966]
 [  0.3          1.62925135]
 [  0.4          6.79149524]
 [  0.5        -99.23050369]
 [  0.6         -8.74190219]
 [  0.7        -66.40036877]
 [  0.8         11.35961345]
 [  0.9         61.07242385]
 [  1.          40.94049127]
 [  1.1          0.31731975]
 [  1.14141667  25.56156842]]","[[0.         1.03422818]
 [0.1        0.27134212]
 [0.2        0.81254045]
 [0.3        1.53264239]
 [0.4        0.20675282]
 [0.5        1.63728817]
 [0.6        1.02628114]
 [0.7        1.14617269]
 [0.8        1.64918993]
 [0.9        0.64370947]
 [1.         0.90766668]
 [1.1        0.4362808 ]
 [1.14141667 0.90441355]]",0,0.734
3,m,24,french,3,5,french,2024-02-07 14:00:07.182851,False,1,69,sounds\french\audio/french_684.wav,"[[  0.         -88.96240825]
 [  0.1        -54.37508207]
 [  0.2        -91.57905397]
 [  0.3        -58.85501017]
 [  0.4         44.82481671]
 [  0.5        -70.60806513]
 [  0.6         94.32148608]
 [  0.7        -17.32520236]
 [  0.8         29.06027198]
 [  0.9        -57.57833097]
 [  1.         -48.20877129]
 [  1.1         58.87949866]
 [  1.14141667 -11.47571774]]","[[0.         1.78476448]
 [0.1        0.02576857]
 [0.2        1.04724647]
 [0.3        0.76694618]
 [0.4        0.80269361]
 [0.5        0.84512097]
 [0.6        0.97813642]
 [0.7        0.54666182]
 [0.8        0.58446507]
 [0.9        0.42247579]
 [1.         0.8068102 ]
 [1.1        0.07609372]
 [1.14141667 1.952562  ]]",1,0.841
3,m,24,french,3,5,french,2024-02-07 14:00:07.182851,False,1,70,sounds\french\audio/french_334.wav,"[[  0.           2.91012372]
 [  0.1        -31.38923588]
 [  0.2        -62.72161399]
 [  0.3         52.61572733]
 [  0.4        -26.95407512]
 [  0.5         63.93183967]
 [  0.6        -64.05494497]
 [  0.7         46.67808612]
 [  0.8        -19.68734259]
 [  0.9         94.09878025]
 [  1.         -47.40754779]
 [  1.1         60.30467736]
 [  1.14141667  72.47412229]]","[[0.         0.60452042]
 [0.1        0.2438657 ]
 [0.2        0.70395582]
 [0.3        1.86925999]
 [0.4        1.03540783]
 [0.5        0.90758676]
 [0.6        1.53296808]
 [0.7        1.6467933 ]
 [0.8        1.90283938]
 [0.9        0.73856415]
 [1.         1.4477999 ]
 [1.1        0.47618592]
 [1.14141667 0.58909421]]",0,0.543
3,m,24,french,3,5,french,2024-02-07 14:00:07.182851,False,1,71,sounds\french\audio/french_448.wav,"[[  0.         -49.41608192]
 [  0.1        -30.3512703 ]
 [  0.2         67.54613393]
 [  0.3        -93.47597167]
 [  0.4         23.22725928]
 [  0.5         60.03248628]
 [  0.6         26.16426079]
 [  0.7         19.22865529]
 [  0.8        -91.4658834 ]
 [  0.9        -80.8404627 ]
 [  1.         -14.65228926]
 [  1.1        -63.24456299]
 [  1.14141667 -10.86817626]]","[[0.         0.77831595]
 [0.1        1.71978765]
 [0.2        0.27102863]
 [0.3        1.6891978 ]
 [0.4        1.07215267]
 [0.5        0.57646816]
 [0.6        0.14253766]
 [0.7        1.98223022]
 [0.8        0.38558498]
 [0.9        0.04175319]
 [1.         0.76552701]
 [1.1        1.41782634]
 [1.14141667 0.38733853]]",1,2.101
3,m,24,french,3,5,french,2024-02-07 14:00:07.182851,False,1,72,sounds\french\audio/french_89.wav,"[[  0.          66.45714599]
 [  0.1        -43.91073727]
 [  0.2         38.18454175]
 [  0.3         12.76341897]
 [  0.4        -28.97123442]
 [  0.5        -77.22066985]
 [  0.6         15.72584642]
 [  0.7        -81.27571941]
 [  0.8         31.32588377]
 [  0.9          5.46961873]
 [  1.           4.85385368]
 [  1.1         35.12567761]
 [  1.14141667  -3.62363786]]","[[0.         1.99246972]
 [0.1        1.14692892]
 [0.2        0.69182846]
 [0.3        0.36850309]
 [0.4        0.8209905 ]
 [0.5        1.22421195]
 [0.6        0.90867746]
 [0.7        1.53760429]
 [0.8        1.94244475]
 [0.9        0.96701139]
 [1.         1.58743517]
 [1.1        1.46146622]
 [1.14141667 1.20579233]]",0,0.311
3,m,24,french,3,5,french,2024-02-07 14:00:07.182851,False,1,73,sounds\french\audio/french_400.wav,"[[  0.         -88.7641604 ]
 [  0.1         38.97629482]
 [  0.2         12.50030117]
 [  0.3         56.00968509]
 [  0.4        -31.24455859]
 [  0.5        -72.55550381]
 [  0.6         35.98414257]
 [  0.7         72.57136852]
 [  0.8        -11.32934593]
 [  0.9        -46.40511645]
 [  1.         -68.71252184]
 [  1.1         75.69788429]
 [  1.14141667  88.08833091]]","[[0.         0.39961666]
 [0.1        1.26870127]
 [0.2        0.32037944]
 [0.3        0.09730503]
 [0.4        0.78902453]
 [0.5        0.78590924]
 [0.6        0.44916275]
 [0.7        0.40242325]
 [0.8        0.33933548]
 [0.9        0.56145484]
 [1.         0.26747814]
 [1.1        0.93231975]
 [1.14141667 1.15525068]]",0,1.428
3,m,24,french,3,5,french,2024-02-07 14:00:07.182851,False,1,74,sounds\french\audio/french_969.wav,"[[  0.          22.17068129]
 [  0.1         82.31860936]
 [  0.2        -63.54455884]
 [  0.3        -68.90387667]
 [  0.4         49.62721502]
 [  0.5        -90.63801554]
 [  0.6         80.96576477]
 [  0.7        -85.10063866]
 [  0.8        -75.97737791]
 [  0.9         64.4884669 ]
 [  1.          64.22581041]
 [  1.1        -87.91439878]
 [  1.14141667 -30.16775952]]","[[0.         1.32316238]
 [0.1        1.1146701 ]
 [0.2        0.19703215]
 [0.3        1.63679826]
 [0.4        0.55421872]
 [0.5        0.55706611]
 [0.6        1.25072913]
 [0.7        0.28877795]
 [0.8        1.03481903]
 [0.9        0.27862271]
 [1.         1.8256645 ]
 [1.1        0.22710133]
 [1.14141667 0.58430827]]",0,0.523
3,m,24,french,3,5,french,2024-02-07 14:00:07.182851,False,1,75,sounds\french\audio/french_183.wav,"[[  0.          26.98397873]
 [  0.1        -55.24874641]
 [  0.2         18.20332103]
 [  0.3         67.42590675]
 [  0.4        -24.39664935]
 [  0.5         -9.29989097]
 [  0.6        -39.43705055]
 [  0.7         48.44121723]
 [  0.8         50.00257742]
 [  0.9        -30.20627693]
 [  1.           7.87797216]
 [  1.1        -90.64433498]
 [  1.14141667 -74.1714296 ]]","[[0.         1.58263986]
 [0.1        0.74614587]
 [0.2        0.26654037]
 [0.3        1.09442227]
 [0.4        0.715011  ]
 [0.5        1.90230489]
 [0.6        0.70435555]
 [0.7        1.50464071]
 [0.8        0.45887465]
 [0.9        0.97480257]
 [1.         0.50545389]
 [1.1        1.04759182]
 [1.14141667 0.84145253]]",0,0.392
3,m,24,french,3,5,french,2024-02-07 14:00:07.182851,False,1,76,sounds\french\audio/french_836.wav,"[[  0.         -98.99819352]
 [  0.1        -75.19453636]
 [  0.2        -64.62080883]
 [  0.3         60.55534082]
 [  0.4        -90.56866614]
 [  0.5         42.02544068]
 [  0.6         95.75892424]
 [  0.7         11.40295424]
 [  0.8         -4.00612114]
 [  0.9         -4.86106881]
 [  1.         -58.99614613]
 [  1.1        -54.09355535]
 [  1.14141667  71.69194122]]","[[0.         0.75283852]
 [0.1        1.12271703]
 [0.2        1.03950179]
 [0.3        1.75484814]
 [0.4        1.22078165]
 [0.5        1.13870982]
 [0.6        0.70777339]
 [0.7        0.47085937]
 [0.8        0.55212985]
 [0.9        0.16027773]
 [1.         0.43365065]
 [1.1        0.99941172]
 [1.14141667 1.8664191 ]]",0,0.433
3,m,24,french,3,5,french,2024-02-07 14:00:07.182851,False,1,77,sounds\french\audio/french_891.wav,"[[  0.         -99.04712605]
 [  0.1         17.3799724 ]
 [  0.2         -1.30355006]
 [  0.3         11.66108417]
 [  0.4          6.35761676]
 [  0.5        -71.86971473]
 [  0.6         20.94588527]
 [  0.7        -13.59137079]
 [  0.8         62.37473981]
 [  0.9         64.47380957]
 [  1.          -7.95126825]
 [  1.1        -34.88253316]
 [  1.14141667  95.31191198]]","[[0.         1.87208337]
 [0.1        1.3828509 ]
 [0.2        1.47231184]
 [0.3        1.45618748]
 [0.4        1.81540908]
 [0.5        0.63041518]
 [0.6        0.92124801]
 [0.7        0.65821591]
 [0.8        0.6468689 ]
 [0.9        0.86634815]
 [1.         0.44006572]
 [1.1        1.52894565]
 [1.14141667 0.84584339]]",0,2.321
3,m,24,french,3,5,french,2024-02-07 14:00:07.182851,False,1,78,sounds\french\audio/french_808.wav,"[[ 0.00000000e+00  9.49972315e+00]
 [ 1.00000000e-01 -3.16348767e+00]
 [ 2.00000000e-01  2.58164380e+01]
 [ 3.00000000e-01  5.80208500e+01]
 [ 4.00000000e-01  4.02357313e+01]
 [ 5.00000000e-01 -7.52309438e-02]
 [ 6.00000000e-01  3.03624230e+01]
 [ 7.00000000e-01 -7.96646620e+01]
 [ 8.00000000e-01 -9.40191844e+01]
 [ 9.00000000e-01  5.10290891e+01]
 [ 1.00000000e+00 -3.02984752e+01]
 [ 1.10000000e+00 -8.41581543e+01]
 [ 1.14141667e+00  5.34166874e+01]]","[[0.         1.11576728]
 [0.1        0.47240736]
 [0.2        1.01512058]
 [0.3        1.31233941]
 [0.4        0.13872257]
 [0.5        1.22367784]
 [0.6        0.7368745 ]
 [0.7        1.19529711]
 [0.8        0.4901866 ]
 [0.9        1.57392299]
 [1.         0.31335607]
 [1.1        0.84962475]
 [1.14141667 1.11832837]]",1,1.144
3,m,24,french,3,5,french,2024-02-07 14:00:07.182851,False,1,79,sounds\french\audio/french_875.wav,"[[  0.          45.85158568]
 [  0.1          7.11917254]
 [  0.2         78.12134314]
 [  0.3         97.47827294]
 [  0.4        -16.31048208]
 [  0.5        -57.92090537]
 [  0.6        -80.48850895]
 [  0.7         14.41161829]
 [  0.8         30.39544131]
 [  0.9        -13.64067474]
 [  1.          10.63284956]
 [  1.1         34.52905644]
 [  1.14141667  37.26363769]]","[[0.         0.742891  ]
 [0.1        1.89433175]
 [0.2        1.6243666 ]
 [0.3        0.98769572]
 [0.4        0.57089061]
 [0.5        1.46131689]
 [0.6        0.74274184]
 [0.7        0.99318799]
 [0.8        1.87326507]
 [0.9        0.6995089 ]
 [1.         1.63464253]
 [1.1        0.5924672 ]
 [1.14141667 1.26762878]]",0,1.405
3,m,24,french,3,5,french,2024-02-07 14:00:07.182851,False,1,80,sounds\french\audio/french_946.wav,"[[  0.         -55.67612518]
 [  0.1        -16.03559422]
 [  0.2        -53.91064696]
 [  0.3        -54.26086959]
 [  0.4        -68.76085781]
 [  0.5         59.18925829]
 [  0.6         63.61101254]
 [  0.7         87.82589692]
 [  0.8         30.01203982]
 [  0.9        -24.26556885]
 [  1.         -42.07057407]
 [  1.1        -49.30472811]
 [  1.14141667   9.32164167]]","[[0.         0.4439597 ]
 [0.1        0.03929623]
 [0.2        1.70924034]
 [0.3        1.28648534]
 [0.4        1.86835463]
 [0.5        1.39467098]
 [0.6        0.62769918]
 [0.7        0.63219143]
 [0.8        0.36165151]
 [0.9        0.01038162]
 [1.         1.38502095]
 [1.1        0.34691407]
 [1.14141667 1.3196907 ]]",1,0.615
3,m,24,french,3,5,french,2024-02-07 14:00:07.182851,False,1,81,sounds\french\audio/french_693.wav,"[[  0.          85.06863742]
 [  0.1         68.65637618]
 [  0.2        -64.93166306]
 [  0.3          9.02094246]
 [  0.4         30.21577577]
 [  0.5        -45.55013979]
 [  0.6        -22.45894718]
 [  0.7        -22.03690569]
 [  0.8        -72.74256114]
 [  0.9         79.55542456]
 [  1.           3.37293032]
 [  1.1        -26.61524733]
 [  1.14141667 -12.67054895]]","[[0.         1.43800555]
 [0.1        1.1319261 ]
 [0.2        1.31376129]
 [0.3        1.44469297]
 [0.4        0.25926005]
 [0.5        1.97890068]
 [0.6        0.76035239]
 [0.7        0.26797463]
 [0.8        0.09379237]
 [0.9        1.21622186]
 [1.         0.59723312]
 [1.1        1.86545966]
 [1.14141667 1.32223551]]",1,3.586
3,m,24,french,3,5,french,2024-02-07 14:00:07.182851,False,1,82,sounds\french\audio/french_73.wav,"[[  0.          95.05431398]
 [  0.1        -50.91948374]
 [  0.2        -96.19003488]
 [  0.3         18.2865052 ]
 [  0.4         82.99950242]
 [  0.5        -73.16931859]
 [  0.6        -92.19935445]
 [  0.7        -41.25216255]
 [  0.8         53.29969886]
 [  0.9        -22.90498979]
 [  1.           8.87722078]
 [  1.1         88.28753975]
 [  1.14141667  51.67559791]]","[[0.         1.00672117]
 [0.1        1.2078676 ]
 [0.2        0.52929109]
 [0.3        0.91699778]
 [0.4        1.03241308]
 [0.5        0.96861979]
 [0.6        0.78229621]
 [0.7        0.77834766]
 [0.8        1.29970854]
 [0.9        0.81166191]
 [1.         1.87816594]
 [1.1        0.91860342]
 [1.14141667 1.07977803]]",0,0.778
3,m,24,french,3,5,french,2024-02-07 14:00:07.182851,False,1,83,sounds\french\audio/french_830.wav,"[[  0.          -2.85762792]
 [  0.1         30.83696213]
 [  0.2         -9.99534054]
 [  0.3        -75.78117433]
 [  0.4        -79.13116379]
 [  0.5        -84.43767296]
 [  0.6        -98.32096608]
 [  0.7         94.49350783]
 [  0.8         16.26694438]
 [  0.9        -81.38170848]
 [  1.         -96.05472144]
 [  1.1          9.94997024]
 [  1.14141667 -93.55782037]]","[[0.         0.67431838]
 [0.1        1.3551783 ]
 [0.2        1.74652366]
 [0.3        1.24846933]
 [0.4        1.57954196]
 [0.5        0.24990638]
 [0.6        0.30601481]
 [0.7        1.08411071]
 [0.8        1.03541521]
 [0.9        1.00910825]
 [1.         0.47166871]
 [1.1        1.73458478]
 [1.14141667 1.93651676]]",0,0.365
3,m,24,french,3,5,french,2024-02-07 14:00:07.182851,False,1,84,sounds\french\audio/french_833.wav,"[[  0.         -22.64377916]
 [  0.1         39.23109032]
 [  0.2         59.98257397]
 [  0.3        -65.49669768]
 [  0.4         95.44390213]
 [  0.5         16.36680149]
 [  0.6        -95.74603826]
 [  0.7          6.50870015]
 [  0.8         55.04487349]
 [  0.9         83.33960194]
 [  1.          20.98555864]
 [  1.1        -86.19858113]
 [  1.14141667 -62.40303258]]","[[0.         0.41211545]
 [0.1        1.22030284]
 [0.2        1.60836668]
 [0.3        0.84423089]
 [0.4        0.37549497]
 [0.5        0.89903376]
 [0.6        1.16761525]
 [0.7        0.92946369]
 [0.8        0.59809775]
 [0.9        0.0823061 ]
 [1.         0.9055233 ]
 [1.1        0.76109733]
 [1.14141667 0.74455165]]",1,0.788
3,m,24,french,3,5,french,2024-02-07 14:00:07.182851,False,1,85,sounds\french\audio/french_705.wav,"[[  0.         -44.81822656]
 [  0.1         43.00671419]
 [  0.2         24.16341234]
 [  0.3          9.70814333]
 [  0.4        -29.08028794]
 [  0.5         13.99687292]
 [  0.6        -94.34527698]
 [  0.7         82.02293288]
 [  0.8         97.80429139]
 [  0.9         50.38684798]
 [  1.          50.88531701]
 [  1.1        -60.62155268]
 [  1.14141667  17.68821643]]","[[0.         0.56671605]
 [0.1        1.20420295]
 [0.2        0.70571207]
 [0.3        0.52675366]
 [0.4        0.39172788]
 [0.5        1.41562153]
 [0.6        0.31474912]
 [0.7        0.39809757]
 [0.8        1.50165922]
 [0.9        1.53053157]
 [1.         1.50980535]
 [1.1        1.19355888]
 [1.14141667 0.79977781]]",0,0.367
3,m,24,french,3,5,french,2024-02-07 14:00:07.182851,False,1,86,sounds\french\audio/french_380.wav,"[[  0.          50.45877981]
 [  0.1         27.88432033]
 [  0.2        -34.53723027]
 [  0.3        -69.55895419]
 [  0.4        -28.41605157]
 [  0.5         25.67592844]
 [  0.6        -84.53806724]
 [  0.7        -49.89975605]
 [  0.8         75.71000255]
 [  0.9         30.16060778]
 [  1.         -57.98795284]
 [  1.1         -9.14146098]
 [  1.14141667  61.49544023]]","[[0.         0.75315413]
 [0.1        0.97702905]
 [0.2        0.7048892 ]
 [0.3        1.70478002]
 [0.4        1.71824888]
 [0.5        1.0555026 ]
 [0.6        0.83070263]
 [0.7        0.38580216]
 [0.8        1.32561889]
 [0.9        0.45811506]
 [1.         1.65372558]
 [1.1        0.02023169]
 [1.14141667 0.39090817]]",1,0.88
3,m,24,french,3,5,french,2024-02-07 14:00:07.182851,False,1,87,sounds\french\audio/french_956.wav,"[[  0.         -99.35759674]
 [  0.1         17.74635761]
 [  0.2         45.19730301]
 [  0.3         32.76158542]
 [  0.4        -82.44124556]
 [  0.5        -42.32589362]
 [  0.6         47.35708325]
 [  0.7        -90.98325298]
 [  0.8        -35.51686902]
 [  0.9         60.74204696]
 [  1.         -46.10377132]
 [  1.1        -22.49053344]
 [  1.14141667  15.48787024]]","[[0.         0.54388648]
 [0.1        1.06124428]
 [0.2        1.13782447]
 [0.3        1.35322569]
 [0.4        1.86440682]
 [0.5        1.66841875]
 [0.6        1.44392405]
 [0.7        1.23654472]
 [0.8        0.08906861]
 [0.9        0.55811382]
 [1.         0.54181177]
 [1.1        0.7143235 ]
 [1.14141667 1.69639276]]",0,0.591
3,m,24,french,3,5,french,2024-02-07 14:00:07.182851,False,1,88,sounds\french\audio/french_391.wav,"[[  0.         -63.38951   ]
 [  0.1        -12.13737461]
 [  0.2        -38.21112995]
 [  0.3          4.18791745]
 [  0.4         11.17446833]
 [  0.5          7.29155963]
 [  0.6        -58.1710113 ]
 [  0.7         43.11353546]
 [  0.8        -94.57778997]
 [  0.9        -20.01521967]
 [  1.         -15.40965354]
 [  1.1        -78.29833341]
 [  1.14141667 -63.95688504]]","[[0.         1.14224987]
 [0.1        1.31006617]
 [0.2        0.24455102]
 [0.3        0.96567526]
 [0.4        1.67923755]
 [0.5        0.50375972]
 [0.6        0.67632761]
 [0.7        1.0182493 ]
 [0.8        1.87677108]
 [0.9        0.59083803]
 [1.         1.56157441]
 [1.1        0.23424545]
 [1.14141667 1.62713208]]",0,0.364
3,m,24,french,3,5,french,2024-02-07 14:00:07.182851,False,1,89,sounds\french\audio/french_170.wav,"[[  0.          78.4256709 ]
 [  0.1         74.01453231]
 [  0.2        -39.88926349]
 [  0.3        -19.85923671]
 [  0.4         21.90551666]
 [  0.5        -33.95377881]
 [  0.6         91.63398051]
 [  0.7          1.97301371]
 [  0.8         23.07565561]
 [  0.9          9.25122432]
 [  1.          17.68156944]
 [  1.1         21.64263281]
 [  1.14141667  23.34976947]]","[[0.         1.56635182]
 [0.1        0.86264396]
 [0.2        0.54432946]
 [0.3        0.4724751 ]
 [0.4        1.46831695]
 [0.5        1.4701458 ]
 [0.6        0.88463831]
 [0.7        1.6321868 ]
 [0.8        0.37326226]
 [0.9        1.17917382]
 [1.         0.44028457]
 [1.1        1.57885644]
 [1.14141667 0.75646094]]",0,1.182
3,m,24,french,3,5,french,2024-02-07 14:00:07.182851,False,1,90,sounds\french\audio/french_915.wav,"[[  0.          24.97229927]
 [  0.1          9.55755976]
 [  0.2        -36.73982377]
 [  0.3         16.36164394]
 [  0.4         18.89549827]
 [  0.5         29.58178959]
 [  0.6         67.00984201]
 [  0.7         69.33436498]
 [  0.8        -68.5567505 ]
 [  0.9        -82.82111497]
 [  1.         -19.3056594 ]
 [  1.1         46.67656137]
 [  1.14141667 -49.01815879]]","[[0.         0.29650111]
 [0.1        1.7574547 ]
 [0.2        1.09391109]
 [0.3        0.1335892 ]
 [0.4        1.43122832]
 [0.5        1.80794112]
 [0.6        1.50463968]
 [0.7        1.3294998 ]
 [0.8        1.58149329]
 [0.9        1.17041831]
 [1.         0.93306192]
 [1.1        0.84227441]
 [1.14141667 1.06379674]]",0,0.64
3,m,24,french,3,5,french,2024-02-07 14:00:07.182851,False,1,91,sounds\french\audio/french_108.wav,"[[  0.         -15.71044219]
 [  0.1        -24.07766933]
 [  0.2         54.15275115]
 [  0.3        -63.07502063]
 [  0.4         24.68553203]
 [  0.5        -82.74094911]
 [  0.6        -79.1722737 ]
 [  0.7         41.74110491]
 [  0.8         95.04343592]
 [  0.9        -75.98698192]
 [  1.         -28.48511945]
 [  1.1         81.70330103]
 [  1.14141667 -76.43032585]]","[[0.         1.73834837]
 [0.1        0.57132816]
 [0.2        0.58357142]
 [0.3        1.80514009]
 [0.4        0.34682793]
 [0.5        1.15494377]
 [0.6        0.83484864]
 [0.7        0.32346488]
 [0.8        0.4811934 ]
 [0.9        1.39829932]
 [1.         0.07997607]
 [1.1        0.5267169 ]
 [1.14141667 0.46271263]]",0,0.752
3,m,24,french,3,5,french,2024-02-07 14:00:07.182851,False,1,92,sounds\french\audio/french_935.wav,"[[  0.          26.69857266]
 [  0.1          9.94418011]
 [  0.2         44.98404386]
 [  0.3        -98.12644395]
 [  0.4         37.12087269]
 [  0.5        -81.40581923]
 [  0.6         64.6052522 ]
 [  0.7         94.38923904]
 [  0.8         56.19817136]
 [  0.9          7.16328663]
 [  1.          27.44347809]
 [  1.1        -88.88086105]
 [  1.14141667 -79.20081415]]","[[0.         1.12236926]
 [0.1        0.76599693]
 [0.2        0.3009369 ]
 [0.3        1.55949083]
 [0.4        0.53284928]
 [0.5        1.95951797]
 [0.6        0.96662214]
 [0.7        0.81174476]
 [0.8        0.68386577]
 [0.9        1.42510328]
 [1.         1.00433894]
 [1.1        0.8579456 ]
 [1.14141667 0.03750384]]",0,0.354
3,m,24,french,3,5,french,2024-02-07 14:00:07.182851,False,1,93,sounds\french\audio/french_378.wav,"[[  0.          10.14074494]
 [  0.1        -69.45781997]
 [  0.2         38.40349345]
 [  0.3        -11.42336743]
 [  0.4        -38.27576318]
 [  0.5         -2.73288809]
 [  0.6         78.86302992]
 [  0.7        -17.950808  ]
 [  0.8         58.47358133]
 [  0.9         26.64529298]
 [  1.         -55.10685082]
 [  1.1        -18.22256523]
 [  1.14141667  61.35932925]]","[[0.         1.10712978]
 [0.1        1.44615803]
 [0.2        1.25967469]
 [0.3        0.20781614]
 [0.4        0.33459003]
 [0.5        0.46876696]
 [0.6        0.47313469]
 [0.7        0.39569402]
 [0.8        1.30666007]
 [0.9        1.95577036]
 [1.         0.02933321]
 [1.1        0.7247038 ]
 [1.14141667 0.67386771]]",0,2.151
3,m,24,french,3,5,french,2024-02-07 14:00:07.182851,False,1,94,sounds\french\audio/french_564.wav,"[[  0.           5.8966443 ]
 [  0.1        -15.54380544]
 [  0.2         58.15561903]
 [  0.3        -16.52706825]
 [  0.4          2.31267316]
 [  0.5        -11.97797107]
 [  0.6          1.32687996]
 [  0.7        -19.4298846 ]
 [  0.8        -79.35094672]
 [  0.9         18.14155436]
 [  1.          28.79693358]
 [  1.1         84.00888802]
 [  1.14141667 -69.56382184]]","[[0.         0.94077473]
 [0.1        1.2475432 ]
 [0.2        0.38395722]
 [0.3        0.67240196]
 [0.4        1.16524636]
 [0.5        0.88127423]
 [0.6        0.97845097]
 [0.7        0.42689353]
 [0.8        1.99355282]
 [0.9        1.23446663]
 [1.         1.12515652]
 [1.1        0.49124917]
 [1.14141667 1.22864195]]",1,0.779
3,m,24,french,3,5,french,2024-02-07 14:00:07.182851,False,1,95,sounds\french\audio/french_384.wav,"[[  0.         -26.33962447]
 [  0.1         90.14414926]
 [  0.2         36.49157083]
 [  0.3          0.20485884]
 [  0.4          2.73533424]
 [  0.5        -61.29276224]
 [  0.6        -95.66702586]
 [  0.7        -35.26576559]
 [  0.8        -94.7492639 ]
 [  0.9         89.80577362]
 [  1.         -92.63573748]
 [  1.1         74.70238882]
 [  1.14141667  79.78054673]]","[[0.         0.73205954]
 [0.1        1.21722748]
 [0.2        0.48830962]
 [0.3        0.00253956]
 [0.4        1.70776767]
 [0.5        0.02952435]
 [0.6        1.54669239]
 [0.7        0.99240925]
 [0.8        1.04883532]
 [0.9        0.00446768]
 [1.         0.13464005]
 [1.1        0.53686539]
 [1.14141667 0.78008915]]",1,2.678
3,m,24,french,3,5,french,2024-02-07 14:00:07.182851,False,1,96,sounds\french\audio/french_131.wav,"[[  0.          43.89869303]
 [  0.1          1.87533794]
 [  0.2         22.29443787]
 [  0.3         80.0665813 ]
 [  0.4         34.98439119]
 [  0.5         -5.43009148]
 [  0.6         51.77910051]
 [  0.7         16.33164281]
 [  0.8          2.69660121]
 [  0.9         67.97713521]
 [  1.         -78.89064935]
 [  1.1          3.66517483]
 [  1.14141667  28.89118946]]","[[0.         1.60661373]
 [0.1        1.45479188]
 [0.2        0.2596898 ]
 [0.3        0.92411688]
 [0.4        1.59995731]
 [0.5        1.70569439]
 [0.6        0.57553958]
 [0.7        0.89044664]
 [0.8        0.56880668]
 [0.9        0.83892608]
 [1.         1.1265108 ]
 [1.1        0.22006075]
 [1.14141667 0.49062162]]",0,1.006
3,m,24,french,3,5,french,2024-02-07 14:00:07.182851,False,1,97,sounds\french\audio/french_752.wav,"[[  0.          34.41371414]
 [  0.1         14.80466577]
 [  0.2         74.3043598 ]
 [  0.3        -77.13621083]
 [  0.4         70.32500444]
 [  0.5         34.75569951]
 [  0.6         80.57354741]
 [  0.7         15.56334688]
 [  0.8         85.58814621]
 [  0.9         38.60264584]
 [  1.          -2.86267761]
 [  1.1         79.56587881]
 [  1.14141667 -84.62804294]]","[[0.         1.9791919 ]
 [0.1        1.83037093]
 [0.2        0.40593576]
 [0.3        1.74575453]
 [0.4        0.26577505]
 [0.5        0.70202735]
 [0.6        0.39412162]
 [0.7        0.9711471 ]
 [0.8        1.79720256]
 [0.9        1.09938166]
 [1.         0.83455272]
 [1.1        0.64213106]
 [1.14141667 1.19502277]]",0,0.661
3,m,24,french,3,5,french,2024-02-07 14:00:07.182851,False,1,98,sounds\french\audio/french_373.wav,"[[  0.         -19.00823309]
 [  0.1        -20.01708078]
 [  0.2        -59.01936034]
 [  0.3         89.73735508]
 [  0.4         62.13320779]
 [  0.5         52.97479545]
 [  0.6         -6.74329887]
 [  0.7         27.2712617 ]
 [  0.8        -73.55107905]
 [  0.9        -71.0486175 ]
 [  1.          19.59643173]
 [  1.1         54.76394447]
 [  1.14141667 -39.43230923]]","[[0.         0.61729131]
 [0.1        1.01940371]
 [0.2        1.15362396]
 [0.3        1.64179084]
 [0.4        0.75224656]
 [0.5        1.16586274]
 [0.6        0.01386647]
 [0.7        0.58835344]
 [0.8        0.56225182]
 [0.9        1.16946431]
 [1.         0.84473904]
 [1.1        1.10005173]
 [1.14141667 0.72757016]]",0,0.509
3,m,24,french,3,5,french,2024-02-07 14:00:07.182851,False,1,99,sounds\french\audio/french_761.wav,"[[  0.          -4.65368555]
 [  0.1        -95.02047891]
 [  0.2        -46.13477508]
 [  0.3         44.60720678]
 [  0.4        -56.15470629]
 [  0.5         -5.62885822]
 [  0.6         16.04939415]
 [  0.7         -7.40448264]
 [  0.8        -49.19151668]
 [  0.9        -21.58992812]
 [  1.          97.9984375 ]
 [  1.1        -54.45281711]
 [  1.14141667  96.15058985]]","[[0.         1.68992553]
 [0.1        1.90989282]
 [0.2        1.32561582]
 [0.3        1.43060887]
 [0.4        0.29002682]
 [0.5        1.48383664]
 [0.6        0.48742164]
 [0.7        0.57849003]
 [0.8        0.03179743]
 [0.9        1.574395  ]
 [1.         1.21779741]
 [1.1        1.83689478]
 [1.14141667 0.73963704]]",0,0.438
3,m,24,french,3,5,french,2024-02-07 14:00:07.182851,False,1,100,sounds\french\audio/french_671.wav,"[[  0.         -12.85470068]
 [  0.1          2.67819686]
 [  0.2         95.59247328]
 [  0.3        -13.98443503]
 [  0.4         68.80637955]
 [  0.5          1.26765297]
 [  0.6        -70.75583684]
 [  0.7        -41.351183  ]
 [  0.8         50.28106636]
 [  0.9        -33.24209559]
 [  1.          -0.53326813]
 [  1.1        -87.23485775]
 [  1.14141667 -62.69796975]]","[[0.         1.28020636]
 [0.1        0.37059178]
 [0.2        0.84310037]
 [0.3        0.70560659]
 [0.4        0.37083609]
 [0.5        0.87313921]
 [0.6        1.92523748]
 [0.7        1.65594106]
 [0.8        1.80795109]
 [0.9        1.68291782]
 [1.         0.5471334 ]
 [1.1        0.64128997]
 [1.14141667 0.27161171]]",0,1.414
3,m,24,french,3,5,french,2024-02-07 14:00:07.182851,False,1,101,sounds\french\audio/french_882.wav,"[[  0.         -81.86021221]
 [  0.1        -38.71029223]
 [  0.2        -87.95798325]
 [  0.3         64.64799839]
 [  0.4         46.25884824]
 [  0.5        -79.81084627]
 [  0.6         63.83558359]
 [  0.7         52.64588214]
 [  0.8         26.08689515]
 [  0.9        -62.73363803]
 [  1.          -4.49298081]
 [  1.1         30.81537457]
 [  1.14141667  66.97281878]]","[[0.         0.3759178 ]
 [0.1        0.35952644]
 [0.2        0.62161924]
 [0.3        1.70435044]
 [0.4        0.36582707]
 [0.5        1.39801288]
 [0.6        1.87495394]
 [0.7        1.93367686]
 [0.8        1.9588609 ]
 [0.9        0.95894244]
 [1.         0.61415959]
 [1.1        0.47891102]
 [1.14141667 0.6437554 ]]",1,1.291
3,m,24,french,3,5,french,2024-02-07 14:00:07.182851,False,1,102,sounds\french\audio/french_208.wav,"[[  0.          22.05412131]
 [  0.1        -81.24093625]
 [  0.2        -56.8023019 ]
 [  0.3         42.11803464]
 [  0.4        -62.30011739]
 [  0.5        -54.22793596]
 [  0.6        -22.54029576]
 [  0.7          3.64260812]
 [  0.8         34.77853372]
 [  0.9        -69.5924933 ]
 [  1.         -81.19588074]
 [  1.1        -23.61160916]
 [  1.14141667  -3.35496918]]","[[0.         0.76725809]
 [0.1        1.19895138]
 [0.2        1.75036409]
 [0.3        1.11519781]
 [0.4        0.53587167]
 [0.5        0.06074171]
 [0.6        0.24306128]
 [0.7        0.45122919]
 [0.8        0.41059711]
 [0.9        0.57249987]
 [1.         1.0921966 ]
 [1.1        1.04543031]
 [1.14141667 1.92109129]]",0,0.657
3,m,24,french,3,5,french,2024-02-07 14:00:07.182851,False,1,103,sounds\french\audio/french_422.wav,"[[  0.         -16.62309101]
 [  0.1         44.80756997]
 [  0.2        -93.80146089]
 [  0.3        -72.47193654]
 [  0.4         16.7471252 ]
 [  0.5        -92.72141855]
 [  0.6        -47.90487867]
 [  0.7        -75.7589654 ]
 [  0.8         34.26572493]
 [  0.9        -65.97357415]
 [  1.           3.77229199]
 [  1.1        -30.82396636]
 [  1.14141667 -37.60844358]]","[[0.         0.51321666]
 [0.1        0.44814263]
 [0.2        1.51316273]
 [0.3        1.60530729]
 [0.4        0.6388763 ]
 [0.5        1.31238957]
 [0.6        1.76360785]
 [0.7        1.38544073]
 [0.8        0.04882189]
 [0.9        0.84339819]
 [1.         0.68214832]
 [1.1        1.57442392]
 [1.14141667 0.61861744]]",0,0.374
3,m,24,french,3,5,french,2024-02-07 14:00:07.182851,False,1,104,sounds\french\audio/french_482.wav,"[[  0.          36.72288444]
 [  0.1        -74.37204682]
 [  0.2         71.13468821]
 [  0.3         50.33353405]
 [  0.4         84.34534451]
 [  0.5         66.25922436]
 [  0.6         76.17786366]
 [  0.7         25.96769523]
 [  0.8         39.78352371]
 [  0.9        -88.77774388]
 [  1.           9.74099179]
 [  1.1        -60.17796236]
 [  1.14141667 -10.34898014]]","[[0.         1.71224607]
 [0.1        0.20516288]
 [0.2        1.69371904]
 [0.3        0.83336109]
 [0.4        1.46966602]
 [0.5        1.44499697]
 [0.6        0.96988956]
 [0.7        1.07990301]
 [0.8        0.07233571]
 [0.9        0.97924424]
 [1.         0.13542435]
 [1.1        1.07133794]
 [1.14141667 0.76477886]]",0,0.618
3,m,24,french,3,5,french,2024-02-07 14:00:07.182851,False,1,105,sounds\french\audio/french_351.wav,"[[  0.          85.6199955 ]
 [  0.1        -58.21803023]
 [  0.2        -74.01582093]
 [  0.3        -37.08836973]
 [  0.4         51.76831215]
 [  0.5          8.55965689]
 [  0.6         27.71691358]
 [  0.7        -58.19113091]
 [  0.8         27.05080067]
 [  0.9         27.79413221]
 [  1.          50.00685101]
 [  1.1        -92.88762057]
 [  1.14141667 -51.26204732]]","[[0.         0.19143732]
 [0.1        0.65841603]
 [0.2        0.92288135]
 [0.3        0.84124379]
 [0.4        0.79870299]
 [0.5        1.46106007]
 [0.6        0.45059655]
 [0.7        1.62014764]
 [0.8        1.4891219 ]
 [0.9        1.20637276]
 [1.         1.30794963]
 [1.1        0.24756041]
 [1.14141667 0.85622749]]",0,0.354
3,m,24,french,3,5,french,2024-02-07 14:00:07.182851,False,1,106,sounds\french\audio/french_539.wav,"[[  0.          48.58834425]
 [  0.1        -56.64619482]
 [  0.2         12.72257351]
 [  0.3         14.57779112]
 [  0.4        -53.79115146]
 [  0.5         -9.39809755]
 [  0.6         67.43376648]
 [  0.7        -72.51273076]
 [  0.8          3.43276355]
 [  0.9         40.14425687]
 [  1.          54.85231258]
 [  1.1        -17.29716808]
 [  1.14141667  36.80649937]]","[[0.         0.55713702]
 [0.1        0.83408519]
 [0.2        0.22105139]
 [0.3        1.24631237]
 [0.4        1.80108834]
 [0.5        0.10826692]
 [0.6        1.35746598]
 [0.7        0.14156413]
 [0.8        0.59340931]
 [0.9        0.46199534]
 [1.         1.89990392]
 [1.1        0.79928212]
 [1.14141667 0.04454349]]",1,0.816
3,m,24,french,3,5,french,2024-02-07 14:00:07.182851,False,1,107,sounds\french\audio/french_860.wav,"[[  0.          71.07945552]
 [  0.1          1.72594823]
 [  0.2         19.45974481]
 [  0.3         86.97846053]
 [  0.4         79.47360606]
 [  0.5         53.5019262 ]
 [  0.6        -89.17896142]
 [  0.7        -98.52094084]
 [  0.8         20.28209343]
 [  0.9         88.49530421]
 [  1.         -80.39175175]
 [  1.1         51.29541508]
 [  1.14141667 -36.16508332]]","[[0.         0.53145649]
 [0.1        1.53992391]
 [0.2        1.55701493]
 [0.3        1.64837469]
 [0.4        1.11154263]
 [0.5        1.86343254]
 [0.6        1.50195398]
 [0.7        1.86567231]
 [0.8        1.56384749]
 [0.9        0.34177252]
 [1.         1.02561869]
 [1.1        0.56375965]
 [1.14141667 1.26691699]]",0,1.565
3,m,24,french,3,5,french,2024-02-07 14:00:07.182851,False,1,108,sounds\french\audio/french_87.wav,"[[  0.          92.4660963 ]
 [  0.1         15.06427617]
 [  0.2         19.88587698]
 [  0.3         19.16381268]
 [  0.4        -43.83456388]
 [  0.5        -75.19485474]
 [  0.6        -41.9677828 ]
 [  0.7         48.89631163]
 [  0.8         59.57141731]
 [  0.9         -7.29688456]
 [  1.         -56.30540489]
 [  1.1        -92.5665511 ]
 [  1.14141667   7.04899103]]","[[0.         0.46305834]
 [0.1        1.65512059]
 [0.2        1.47687397]
 [0.3        1.98465726]
 [0.4        0.88568527]
 [0.5        0.59200872]
 [0.6        1.00282805]
 [0.7        0.36234637]
 [0.8        1.86287014]
 [0.9        0.55653028]
 [1.         1.69420603]
 [1.1        0.74268973]
 [1.14141667 0.9328285 ]]",0,0.802
3,m,24,french,3,5,french,2024-02-07 14:00:07.182851,False,1,109,sounds\french\audio/french_327.wav,"[[  0.         -53.52918166]
 [  0.1         27.70688204]
 [  0.2         69.01000841]
 [  0.3        -45.54391613]
 [  0.4         33.52384078]
 [  0.5         17.91078554]
 [  0.6         45.93563694]
 [  0.7        -13.10288858]
 [  0.8        -25.64022912]
 [  0.9        -75.06755685]
 [  1.         -83.28184553]
 [  1.1         81.16413935]
 [  1.14141667 -23.22330966]]","[[0.         1.09156225]
 [0.1        1.43297377]
 [0.2        0.49398039]
 [0.3        0.06798676]
 [0.4        0.46773915]
 [0.5        0.5934464 ]
 [0.6        0.09815692]
 [0.7        1.9688821 ]
 [0.8        1.78538783]
 [0.9        0.971708  ]
 [1.         0.69398497]
 [1.1        0.89234936]
 [1.14141667 1.70612445]]",0,1.044
3,m,24,french,3,5,french,2024-02-07 14:00:07.182851,False,1,110,sounds\french\audio/french_602.wav,"[[  0.          89.76373668]
 [  0.1        -62.05421328]
 [  0.2        -39.31909309]
 [  0.3         43.27513178]
 [  0.4        -35.34736244]
 [  0.5          4.96696673]
 [  0.6         86.2532893 ]
 [  0.7         56.74203414]
 [  0.8        -24.20347966]
 [  0.9         97.69852005]
 [  1.         -40.80777745]
 [  1.1        -71.9471762 ]
 [  1.14141667  18.41655342]]","[[0.         1.96584198]
 [0.1        0.82978645]
 [0.2        1.79793082]
 [0.3        1.41722051]
 [0.4        1.0213013 ]
 [0.5        1.1920361 ]
 [0.6        0.02590819]
 [0.7        1.01687146]
 [0.8        0.61186424]
 [0.9        0.57082094]
 [1.         1.80381376]
 [1.1        0.50745374]
 [1.14141667 0.10087688]]",1,4.045
3,m,24,french,3,5,french,2024-02-07 14:00:07.182851,False,1,111,sounds\french\audio/french_743.wav,"[[  0.         -12.23572385]
 [  0.1        -82.90994455]
 [  0.2         56.36957641]
 [  0.3        -80.49353375]
 [  0.4        -75.92212441]
 [  0.5        -37.43962458]
 [  0.6         46.34324225]
 [  0.7        -97.29246906]
 [  0.8         27.80864883]
 [  0.9         19.90668052]
 [  1.          79.30735731]
 [  1.1         87.70980131]
 [  1.14141667 -17.58921079]]","[[0.         0.34334602]
 [0.1        0.85733528]
 [0.2        0.71514815]
 [0.3        0.73179397]
 [0.4        0.65221135]
 [0.5        0.42587516]
 [0.6        1.58997971]
 [0.7        1.49839996]
 [0.8        0.37447973]
 [0.9        1.20970958]
 [1.         1.67146036]
 [1.1        0.55378638]
 [1.14141667 1.00046164]]",0,2.496
3,m,24,french,3,5,french,2024-02-07 14:00:07.182851,False,1,112,sounds\french\audio/french_40.wav,"[[  0.          -8.12729319]
 [  0.1          4.45938553]
 [  0.2         28.58144877]
 [  0.3        -11.92795435]
 [  0.4         43.56251257]
 [  0.5         22.26926875]
 [  0.6        -14.80375006]
 [  0.7         -6.02231593]
 [  0.8         27.11076244]
 [  0.9          1.30682946]
 [  1.         -93.52950678]
 [  1.1        -66.90804862]
 [  1.14141667  -0.63154276]]","[[0.         1.33981221]
 [0.1        0.58230507]
 [0.2        0.45774736]
 [0.3        0.82403207]
 [0.4        1.03540986]
 [0.5        1.51862285]
 [0.6        1.30207552]
 [0.7        0.76961448]
 [0.8        1.12344021]
 [0.9        0.05989398]
 [1.         0.28850959]
 [1.1        0.1338746 ]
 [1.14141667 1.0832794 ]]",0,1.548
3,m,24,french,3,5,french,2024-02-07 14:00:07.182851,False,1,113,sounds\french\audio/french_612.wav,"[[  0.         -47.07678459]
 [  0.1          3.63425246]
 [  0.2         31.48917189]
 [  0.3         44.38742484]
 [  0.4         15.5069451 ]
 [  0.5        -51.49122096]
 [  0.6         -1.02254843]
 [  0.7         12.87739328]
 [  0.8        -63.80282001]
 [  0.9        -37.54711338]
 [  1.          40.2162033 ]
 [  1.1         -4.31624045]
 [  1.14141667  64.58566043]]","[[0.         0.11615232]
 [0.1        0.47093102]
 [0.2        0.45807262]
 [0.3        0.81161175]
 [0.4        1.0193018 ]
 [0.5        1.66697075]
 [0.6        0.50056041]
 [0.7        0.70368677]
 [0.8        1.91892506]
 [0.9        1.2931891 ]
 [1.         0.20059311]
 [1.1        0.09557344]
 [1.14141667 1.97325213]]",0,1.724
3,m,24,french,3,5,french,2024-02-07 14:00:07.182851,False,1,114,sounds\french\audio/french_924.wav,"[[  0.          72.37800689]
 [  0.1        -27.48554384]
 [  0.2         82.62685791]
 [  0.3          4.6552297 ]
 [  0.4          1.0091604 ]
 [  0.5          9.77145997]
 [  0.6        -30.30504644]
 [  0.7         18.66076105]
 [  0.8         87.54001747]
 [  0.9         69.69438749]
 [  1.         -86.17437313]
 [  1.1         50.9950292 ]
 [  1.14141667 -65.22093317]]","[[0.         0.62770252]
 [0.1        0.98346343]
 [0.2        0.08960606]
 [0.3        0.6486922 ]
 [0.4        0.42903693]
 [0.5        0.5259433 ]
 [0.6        0.95437601]
 [0.7        0.09270485]
 [0.8        1.04155974]
 [0.9        0.34754459]
 [1.         0.73375696]
 [1.1        1.64081341]
 [1.14141667 0.11736926]]",1,2.831
3,m,24,french,3,5,french,2024-02-07 14:00:07.182851,False,1,115,sounds\french\audio/french_93.wav,"[[  0.          20.12555519]
 [  0.1        -29.60221473]
 [  0.2        -87.78134606]
 [  0.3        -82.8001552 ]
 [  0.4        -57.45805653]
 [  0.5         38.45207173]
 [  0.6        -82.31024106]
 [  0.7        -81.5108822 ]
 [  0.8        -21.35638597]
 [  0.9         39.31235358]
 [  1.          19.94378015]
 [  1.1         26.49572393]
 [  1.14141667  77.06361833]]","[[0.         0.33059304]
 [0.1        0.821528  ]
 [0.2        0.89984912]
 [0.3        1.12923164]
 [0.4        1.13487329]
 [0.5        0.95181736]
 [0.6        1.68020883]
 [0.7        0.87273764]
 [0.8        1.29787472]
 [0.9        0.99595228]
 [1.         1.18578276]
 [1.1        1.21468356]
 [1.14141667 1.4676797 ]]",0,1.484
3,m,24,french,3,5,french,2024-02-07 14:00:07.182851,False,1,116,sounds\french\audio/french_870.wav,"[[  0.         -88.96740787]
 [  0.1        -50.96029621]
 [  0.2          2.1117913 ]
 [  0.3        -81.18211333]
 [  0.4        -58.4942148 ]
 [  0.5        -13.37177011]
 [  0.6        -37.03727431]
 [  0.7        -57.85889347]
 [  0.8         48.98723654]
 [  0.9        -94.37943157]
 [  1.          69.59846396]
 [  1.1        -59.83952506]
 [  1.14141667 -63.76620066]]","[[0.         1.80140046]
 [0.1        1.62081264]
 [0.2        0.89623291]
 [0.3        0.00838819]
 [0.4        0.46507357]
 [0.5        0.81411287]
 [0.6        0.59433311]
 [0.7        0.68578062]
 [0.8        0.1849314 ]
 [0.9        1.96861475]
 [1.         0.87798497]
 [1.1        1.18748939]
 [1.14141667 1.53716958]]",0,2.313
3,m,24,french,3,5,french,2024-02-07 14:00:07.182851,False,1,117,sounds\french\audio/french_553.wav,"[[  0.          57.11997381]
 [  0.1        -32.53722502]
 [  0.2        -87.28109772]
 [  0.3        -27.51150216]
 [  0.4         82.51849705]
 [  0.5         -2.05823162]
 [  0.6         87.22176329]
 [  0.7         21.26654891]
 [  0.8          5.0205633 ]
 [  0.9        -15.12387939]
 [  1.         -30.58863074]
 [  1.1        -22.19258408]
 [  1.14141667  11.14114277]]","[[0.         0.90900436]
 [0.1        1.02881702]
 [0.2        1.91577474]
 [0.3        1.84689949]
 [0.4        0.82658903]
 [0.5        0.12969693]
 [0.6        0.8683285 ]
 [0.7        0.55394795]
 [0.8        0.61832745]
 [0.9        0.27087234]
 [1.         0.73142715]
 [1.1        1.63938035]
 [1.14141667 0.86419781]]",0,4.777
3,m,24,french,3,5,french,2024-02-07 14:00:07.182851,False,1,118,sounds\french\audio/french_319.wav,"[[  0.         -75.17146498]
 [  0.1         46.33935976]
 [  0.2        -45.77559624]
 [  0.3          9.72100852]
 [  0.4        -30.50694127]
 [  0.5        -94.17429558]
 [  0.6        -28.13617215]
 [  0.7        -28.4188466 ]
 [  0.8        -90.88658969]
 [  0.9        -86.52176531]
 [  1.         -71.77832171]
 [  1.1        -45.71816919]
 [  1.14141667 -83.07448419]]","[[0.         1.089409  ]
 [0.1        1.6263792 ]
 [0.2        1.21732858]
 [0.3        1.37490977]
 [0.4        0.6324598 ]
 [0.5        1.7974238 ]
 [0.6        0.57188639]
 [0.7        1.86268987]
 [0.8        0.77070175]
 [0.9        0.98256413]
 [1.         1.81058431]
 [1.1        0.40934231]
 [1.14141667 1.33989868]]",0,0.897
3,m,24,french,3,5,french,2024-02-07 14:00:07.182851,False,1,119,sounds\french\audio/french_844.wav,"[[  0.         -70.63137892]
 [  0.1        -48.65912271]
 [  0.2         89.22528551]
 [  0.3         39.89743481]
 [  0.4         13.73778231]
 [  0.5        -74.47605916]
 [  0.6         20.87072452]
 [  0.7        -58.29608737]
 [  0.8         20.27856511]
 [  0.9         66.76249813]
 [  1.          44.27022345]
 [  1.1        -46.89913949]
 [  1.14141667 -14.10655115]]","[[0.         0.57712906]
 [0.1        0.64179226]
 [0.2        0.93495251]
 [0.3        1.43041086]
 [0.4        0.06710414]
 [0.5        1.67555193]
 [0.6        0.64111611]
 [0.7        1.81341651]
 [0.8        0.09233996]
 [0.9        1.88938409]
 [1.         0.03776745]
 [1.1        1.5874268 ]
 [1.14141667 1.53774134]]",1,0.411
3,m,24,french,3,5,french,2024-02-07 14:00:07.182851,False,1,120,sounds\french\audio/french_371.wav,"[[  0.         -75.96996294]
 [  0.1         69.05651355]
 [  0.2         76.11598769]
 [  0.3        -26.62332123]
 [  0.4         72.54551649]
 [  0.5         53.7325728 ]
 [  0.6        -19.80627641]
 [  0.7         82.18897373]
 [  0.8        -85.15711276]
 [  0.9         -1.67928374]
 [  1.          86.86600087]
 [  1.1        -45.24707116]
 [  1.14141667 -10.42210917]]","[[0.         1.06184039]
 [0.1        0.65404497]
 [0.2        0.87875816]
 [0.3        0.8766699 ]
 [0.4        1.48996037]
 [0.5        0.08423874]
 [0.6        0.50933238]
 [0.7        0.11206157]
 [0.8        1.01075883]
 [0.9        0.86359737]
 [1.         0.79020798]
 [1.1        1.73708944]
 [1.14141667 1.6745319 ]]",0,0.446
3,m,24,french,3,5,french,2024-02-07 14:00:07.182851,False,1,121,sounds\french\audio/french_227.wav,"[[  0.         -63.98497533]
 [  0.1          7.89700286]
 [  0.2        -85.89039473]
 [  0.3        -30.72420198]
 [  0.4         54.13251522]
 [  0.5         50.29868002]
 [  0.6         17.89842047]
 [  0.7         76.60204514]
 [  0.8         -7.82280605]
 [  0.9         44.17966564]
 [  1.          35.62117152]
 [  1.1         -1.37417446]
 [  1.14141667 -40.20349559]]","[[0.         1.5363518 ]
 [0.1        1.08409133]
 [0.2        1.90427543]
 [0.3        0.75696463]
 [0.4        1.27414783]
 [0.5        0.17571721]
 [0.6        0.16810735]
 [0.7        0.96568279]
 [0.8        1.34957529]
 [0.9        1.044977  ]
 [1.         1.59072319]
 [1.1        0.18742296]
 [1.14141667 1.71340792]]",0,0.368
3,m,24,french,3,5,french,2024-02-07 14:00:07.182851,False,1,122,sounds\french\audio/french_345.wav,"[[  0.          13.09525802]
 [  0.1        -30.73655165]
 [  0.2        -41.41787841]
 [  0.3        -27.41607462]
 [  0.4         65.96264987]
 [  0.5        -12.5205808 ]
 [  0.6         23.42963683]
 [  0.7         17.17324325]
 [  0.8         50.15361308]
 [  0.9        -38.8739224 ]
 [  1.          89.36825946]
