subj,sex,age,language,english,french,native_lang,date,practice,block,trial,stim,pitch,stretch,response,rt
8723415159,f,25,english,4,5,french,2024-02-01 10:33:14.584194,False,2,253,sounds\french\audio/french_144.wav,"[[  0.         -87.33158892]
 [  0.1         43.96940333]
 [  0.2         63.49398133]
 [  0.3         72.22026005]
 [  0.4         50.99674413]
 [  0.5         25.89293491]
 [  0.6        -58.22339939]
 [  0.7         90.30265248]
 [  0.8         74.88211349]
 [  0.9         38.42569875]
 [  1.         -98.48214618]
 [  1.1         92.16903622]
 [  1.14141667   6.22676374]]","[[0.         1.33030495]
 [0.1        1.71798455]
 [0.2        0.46851704]
 [0.3        1.15388423]
 [0.4        1.45420645]
 [0.5        1.24934967]
 [0.6        1.8757656 ]
 [0.7        0.58436241]
 [0.8        0.31234812]
 [0.9        1.51881213]
 [1.         0.41334582]
 [1.1        0.65967757]
 [1.14141667 0.88172018]]",1,1.634
8723415159,f,25,english,4,5,french,2024-02-01 10:33:14.584194,False,2,254,sounds\french\audio/french_688.wav,"[[  0.          91.54391251]
 [  0.1         78.06416421]
 [  0.2        -58.48067555]
 [  0.3        -90.2136996 ]
 [  0.4        -50.08146281]
 [  0.5          0.90253223]
 [  0.6        -14.71129545]
 [  0.7        -23.6898362 ]
 [  0.8         31.11024133]
 [  0.9        -14.23643957]
 [  1.          63.67411618]
 [  1.1         62.83310166]
 [  1.14141667  -7.71472793]]","[[0.         1.81466251]
 [0.1        1.53337533]
 [0.2        0.98967466]
 [0.3        1.42275833]
 [0.4        1.74242441]
 [0.5        1.11374005]
 [0.6        0.56963487]
 [0.7        0.82081927]
 [0.8        1.73481969]
 [0.9        0.39687116]
 [1.         0.09343869]
 [1.1        0.28087028]
 [1.14141667 0.17948475]]",1,0.628
8723415159,f,25,english,4,5,french,2024-02-01 10:33:14.584194,False,2,255,sounds\french\audio/french_611.wav,"[[  0.          27.54692735]
 [  0.1        -96.2127233 ]
 [  0.2         43.54084756]
 [  0.3         50.94582254]
 [  0.4        -43.15848463]
 [  0.5        -50.66220426]
 [  0.6         69.56527171]
 [  0.7        -11.37808001]
 [  0.8         45.13793263]
 [  0.9         96.10669883]
 [  1.          -3.26574927]
 [  1.1        -48.82710358]
 [  1.14141667  63.81362106]]","[[0.         0.7451578 ]
 [0.1        0.59678104]
 [0.2        0.93535243]
 [0.3        0.78372242]
 [0.4        0.88792907]
 [0.5        0.42171327]
 [0.6        0.70649712]
 [0.7        1.43646296]
 [0.8        1.45654876]
 [0.9        1.37339169]
 [1.         1.82405735]
 [1.1        1.66591353]
 [1.14141667 1.48395862]]",1,1.438
8723415159,f,25,english,4,5,french,2024-02-01 10:33:14.584194,False,2,256,sounds\french\audio/french_315.wav,"[[  0.         -57.99380713]
 [  0.1        -29.42522233]
 [  0.2        -91.96432946]
 [  0.3        -22.65210092]
 [  0.4          3.04174071]
 [  0.5          1.08298466]
 [  0.6        -92.85305088]
 [  0.7         52.63200379]
 [  0.8         97.19945099]
 [  0.9         -1.29037543]
 [  1.          26.84711098]
 [  1.1        -54.11592076]
 [  1.14141667 -87.89598751]]","[[0.         1.27596122]
 [0.1        0.75622444]
 [0.2        1.60227253]
 [0.3        1.19328355]
 [0.4        1.37321416]
 [0.5        0.56030576]
 [0.6        1.96333661]
 [0.7        0.7652546 ]
 [0.8        0.61561587]
 [0.9        0.24933363]
 [1.         1.10007309]
 [1.1        1.49808802]
 [1.14141667 0.97036692]]",0,3.671
8723415159,f,25,english,4,5,french,2024-02-01 10:33:14.584194,False,2,257,sounds\french\audio/french_484.wav,"[[  0.           6.83265532]
 [  0.1         83.49239965]
 [  0.2         70.78725764]
 [  0.3         -5.74370192]
 [  0.4        -22.9215122 ]
 [  0.5        -48.70720534]
 [  0.6        -87.25700763]
 [  0.7         52.63394188]
 [  0.8        -28.78801854]
 [  0.9        -24.7890616 ]
 [  1.         -91.46030438]
 [  1.1        -55.41551793]
 [  1.14141667  -9.9830909 ]]","[[0.         0.52592683]
 [0.1        0.84238665]
 [0.2        0.69533335]
 [0.3        0.62368717]
 [0.4        1.93129742]
 [0.5        0.19717675]
 [0.6        1.0051103 ]
 [0.7        1.34413016]
 [0.8        0.80549785]
 [0.9        0.42644713]
 [1.         0.67801753]
 [1.1        1.05030172]
 [1.14141667 0.06913333]]",0,0.83
8723415159,f,25,english,4,5,french,2024-02-01 10:33:14.584194,False,2,258,sounds\french\audio/french_537.wav,"[[  0.         -70.42232238]
 [  0.1        -63.79861737]
 [  0.2         80.15379792]
 [  0.3        -34.87323386]
 [  0.4        -97.49401193]
 [  0.5        -75.02904728]
 [  0.6         88.01304316]
 [  0.7         57.25012965]
 [  0.8        -34.47690346]
 [  0.9          2.26660201]
 [  1.         -37.62355762]
 [  1.1         -8.96459096]
 [  1.14141667 -65.74543059]]","[[0.         1.1949198 ]
 [0.1        0.86017995]
 [0.2        1.22540727]
 [0.3        0.58113387]
 [0.4        0.63475004]
 [0.5        1.70548795]
 [0.6        0.65284568]
 [0.7        1.05406598]
 [0.8        1.3603352 ]
 [0.9        1.51124063]
 [1.         1.53115779]
 [1.1        1.18349734]
 [1.14141667 1.59300288]]",1,0.295
8723415159,f,25,english,4,5,french,2024-02-01 10:33:14.584194,False,2,259,sounds\french\audio/french_191.wav,"[[  0.         -39.99340478]
 [  0.1         11.63414549]
 [  0.2        -36.35828588]
 [  0.3        -98.69172467]
 [  0.4         45.8146994 ]
 [  0.5        -81.34234862]
 [  0.6         76.85689755]
 [  0.7         30.77762716]
 [  0.8         69.05359103]
 [  0.9        -46.7773051 ]
 [  1.         -87.86133128]
 [  1.1         49.92457354]
 [  1.14141667 -23.83679331]]","[[0.         0.51561269]
 [0.1        1.02814661]
 [0.2        0.59773473]
 [0.3        0.28838803]
 [0.4        0.36122414]
 [0.5        0.73128969]
 [0.6        0.79641924]
 [0.7        1.01273186]
 [0.8        0.26915511]
 [0.9        0.61564868]
 [1.         0.74101429]
 [1.1        1.64291894]
 [1.14141667 1.52790896]]",0,0.657
8723415159,f,25,english,4,5,french,2024-02-01 10:33:14.584194,False,2,260,sounds\french\audio/french_582.wav,"[[  0.         -57.97659921]
 [  0.1        -91.71728242]
 [  0.2         91.02690479]
 [  0.3        -42.72191291]
 [  0.4        -28.25325065]
 [  0.5         30.1945698 ]
 [  0.6          7.69877883]
 [  0.7        -46.07593352]
 [  0.8        -87.80435324]
 [  0.9         26.32971056]
 [  1.          -2.67986344]
 [  1.1         52.54862282]
 [  1.14141667 -37.11133974]]","[[0.         1.94039207]
 [0.1        0.30829263]
 [0.2        0.17514111]
 [0.3        0.7619412 ]
 [0.4        1.71135998]
 [0.5        0.92813146]
 [0.6        1.90194283]
 [0.7        1.74442959]
 [0.8        1.1869642 ]
 [0.9        1.46885355]
 [1.         1.99529793]
 [1.1        1.14181859]
 [1.14141667 1.37290426]]",1,0.124
8723415159,f,25,english,4,5,french,2024-02-01 10:33:14.584194,False,2,261,sounds\french\audio/french_999.wav,"[[  0.          49.59998694]
 [  0.1        -18.3609497 ]
 [  0.2          2.93304339]
 [  0.3         57.93949433]
 [  0.4         22.39348877]
 [  0.5         80.52243974]
 [  0.6        -44.27130323]
 [  0.7         74.01577691]
 [  0.8          6.35871184]
 [  0.9         35.77378691]
 [  1.          -3.83279808]
 [  1.1         68.61998749]
 [  1.14141667  22.18129114]]","[[0.         1.8221993 ]
 [0.1        1.29033683]
 [0.2        1.83872361]
 [0.3        0.95044995]
 [0.4        0.11870754]
 [0.5        0.36425105]
 [0.6        1.15793319]
 [0.7        1.54792592]
 [0.8        0.09478288]
 [0.9        1.51328508]
 [1.         0.96114029]
 [1.1        1.75865896]
 [1.14141667 0.59242415]]",1,0.509
8723415159,f,25,english,4,5,french,2024-02-01 10:33:14.584194,False,2,262,sounds\french\audio/french_193.wav,"[[  0.          55.86434558]
 [  0.1         35.17438078]
 [  0.2         64.94693253]
 [  0.3        -11.0808931 ]
 [  0.4         17.49954283]
 [  0.5         51.1230799 ]
 [  0.6         91.81738107]
 [  0.7        -33.71615966]
 [  0.8        -99.34494989]
 [  0.9        -99.91903914]
 [  1.         -40.8900896 ]
 [  1.1          9.96341327]
 [  1.14141667  62.22902788]]","[[0.         1.84623427]
 [0.1        1.45871927]
 [0.2        1.31961654]
 [0.3        0.19803525]
 [0.4        0.24071709]
 [0.5        0.12833577]
 [0.6        0.47445089]
 [0.7        0.83124863]
 [0.8        0.32718168]
 [0.9        0.67506289]
 [1.         1.64349132]
 [1.1        1.39601753]
 [1.14141667 0.95131389]]",1,0.692
8723415159,f,25,english,4,5,french,2024-02-01 10:33:14.584194,False,2,263,sounds\french\audio/french_186.wav,"[[  0.         -98.77577856]
 [  0.1         -4.32281383]
 [  0.2         78.96843766]
 [  0.3         44.94722027]
 [  0.4         31.19969444]
 [  0.5        -58.54120229]
 [  0.6        -32.79633131]
 [  0.7         47.64797381]
 [  0.8         59.96836761]
 [  0.9         33.94460262]
 [  1.          61.1812075 ]
 [  1.1         66.76882768]
 [  1.14141667  84.5034927 ]]","[[0.         0.55132228]
 [0.1        1.48616205]
 [0.2        0.45730809]
 [0.3        1.48574317]
 [0.4        1.3915634 ]
 [0.5        1.49810348]
 [0.6        0.03278635]
 [0.7        0.80642704]
 [0.8        0.531218  ]
 [0.9        0.39314189]
 [1.         1.05456246]
 [1.1        0.65443343]
 [1.14141667 0.87378313]]",1,0.385
8723415159,f,25,english,4,5,french,2024-02-01 10:33:14.584194,False,2,264,sounds\french\audio/french_186.wav,"[[  0.         -98.77577856]
 [  0.1         -4.32281383]
 [  0.2         78.96843766]
 [  0.3         44.94722027]
 [  0.4         31.19969444]
 [  0.5        -58.54120229]
 [  0.6        -32.79633131]
 [  0.7         47.64797381]
 [  0.8         59.96836761]
 [  0.9         33.94460262]
 [  1.          61.1812075 ]
 [  1.1         66.76882768]
 [  1.14141667  84.5034927 ]]","[[0.         0.55132228]
 [0.1        1.48616205]
 [0.2        0.45730809]
 [0.3        1.48574317]
 [0.4        1.3915634 ]
 [0.5        1.49810348]
 [0.6        0.03278635]
 [0.7        0.80642704]
 [0.8        0.531218  ]
 [0.9        0.39314189]
 [1.         1.05456246]
 [1.1        0.65443343]
 [1.14141667 0.87378313]]",0,0.646
8723415159,f,25,english,4,5,french,2024-02-01 10:33:14.584194,False,2,265,sounds\french\audio/french_711.wav,"[[  0.         -57.68537639]
 [  0.1         80.50678374]
 [  0.2         62.08623359]
 [  0.3        -62.11963136]
 [  0.4         40.40813482]
 [  0.5         -1.99659726]
 [  0.6        -98.85876462]
 [  0.7        -17.60870607]
 [  0.8        -73.6406844 ]
 [  0.9          0.13542401]
 [  1.          58.10369401]
 [  1.1        -38.91466215]
 [  1.14141667  22.73847208]]","[[0.         1.14128003]
 [0.1        0.65499836]
 [0.2        0.36935793]
 [0.3        0.45944127]
 [0.4        1.32957836]
 [0.5        1.01029199]
 [0.6        0.23624425]
 [0.7        0.5152401 ]
 [0.8        0.82690989]
 [0.9        0.52689837]
 [1.         1.52596161]
 [1.1        1.06260355]
 [1.14141667 0.37076623]]",1,0.137
8723415159,f,25,english,4,5,french,2024-02-01 10:33:14.584194,False,2,266,sounds\french\audio/french_77.wav,"[[  0.          84.11414351]
 [  0.1        -37.19083942]
 [  0.2        -88.97309573]
 [  0.3        -95.03979249]
 [  0.4         41.3735366 ]
 [  0.5         27.6706881 ]
 [  0.6        -36.0397327 ]
 [  0.7          1.46151105]
 [  0.8         34.44716143]
 [  0.9         70.8561762 ]
 [  1.         -35.3308977 ]
 [  1.1         58.18645208]
 [  1.14141667   5.76184625]]","[[0.         1.75422575]
 [0.1        0.18377725]
 [0.2        1.79563145]
 [0.3        0.75116623]
 [0.4        0.40681435]
 [0.5        0.97594444]
 [0.6        1.32678044]
 [0.7        0.25922475]
 [0.8        1.63656011]
 [0.9        1.26331981]
 [1.         0.78357408]
 [1.1        1.84376428]
 [1.14141667 1.26865568]]",1,1.144
8723415159,f,25,english,4,5,french,2024-02-01 10:33:14.584194,False,2,267,sounds\french\audio/french_384.wav,"[[  0.         -26.33962447]
 [  0.1         90.14414926]
 [  0.2         36.49157083]
 [  0.3          0.20485884]
 [  0.4          2.73533424]
 [  0.5        -61.29276224]
 [  0.6        -95.66702586]
 [  0.7        -35.26576559]
 [  0.8        -94.7492639 ]
 [  0.9         89.80577362]
 [  1.         -92.63573748]
 [  1.1         74.70238882]
 [  1.14141667  79.78054673]]","[[0.         0.73205954]
 [0.1        1.21722748]
 [0.2        0.48830962]
 [0.3        0.00253956]
 [0.4        1.70776767]
 [0.5        0.02952435]
 [0.6        1.54669239]
 [0.7        0.99240925]
 [0.8        1.04883532]
 [0.9        0.00446768]
 [1.         0.13464005]
 [1.1        0.53686539]
 [1.14141667 0.78008915]]",0,2.754
8723415159,f,25,english,4,5,french,2024-02-01 10:33:14.584194,False,2,268,sounds\french\audio/french_985.wav,"[[  0.         -59.37353255]
 [  0.1         40.25583685]
 [  0.2         80.59080254]
 [  0.3         40.93847923]
 [  0.4        -36.56577189]
 [  0.5         35.51460066]
 [  0.6         54.7926899 ]
 [  0.7         78.93834027]
 [  0.8        -92.8627388 ]
 [  0.9        -52.89775391]
 [  1.          25.49077528]
 [  1.1         10.48793814]
 [  1.14141667  80.61221093]]","[[0.         1.26289608]
 [0.1        1.7636238 ]
 [0.2        0.23232194]
 [0.3        0.4110335 ]
 [0.4        1.43128616]
 [0.5        0.65384514]
 [0.6        0.38929396]
 [0.7        0.45559426]
 [0.8        1.69671004]
 [0.9        1.41051885]
 [1.         1.92248776]
 [1.1        1.77523192]
 [1.14141667 0.82877362]]",1,1.339
8723415159,f,25,english,4,5,french,2024-02-01 10:33:14.584194,False,2,269,sounds\french\audio/french_663.wav,"[[  0.         -14.3254762 ]
 [  0.1         19.63428116]
 [  0.2        -91.68242216]
 [  0.3        -41.82283925]
 [  0.4        -72.80326657]
 [  0.5        -12.3349336 ]
 [  0.6        -15.30280268]
 [  0.7        -15.66686259]
 [  0.8        -77.03407899]
 [  0.9        -25.15547903]
 [  1.         -56.91868761]
 [  1.1         30.52061364]
 [  1.14141667 -30.87664349]]","[[0.         0.00837881]
 [0.1        1.01490054]
 [0.2        1.87093457]
 [0.3        1.17127261]
 [0.4        1.68516013]
 [0.5        0.32760374]
 [0.6        1.68388895]
 [0.7        1.95044404]
 [0.8        0.77619086]
 [0.9        0.62272065]
 [1.         0.1392137 ]
 [1.1        1.81424778]
 [1.14141667 0.71279161]]",0,0.76
8723415159,f,25,english,4,5,french,2024-02-01 10:33:14.584194,False,2,270,sounds\french\audio/french_704.wav,"[[  0.         -31.58585165]
 [  0.1        -13.51125385]
 [  0.2         22.14103825]
 [  0.3        -45.50908341]
 [  0.4         20.8698866 ]
 [  0.5        -90.43138219]
 [  0.6         22.33677073]
 [  0.7         90.45268183]
 [  0.8        -90.10597343]
 [  0.9        -24.3404498 ]
 [  1.         -30.13742385]
 [  1.1          6.87564858]
 [  1.14141667 -11.55537801]]","[[0.         1.86204342]
 [0.1        1.3601451 ]
 [0.2        0.13727472]
 [0.3        1.96081714]
 [0.4        1.0473978 ]
 [0.5        1.56514742]
 [0.6        1.72147983]
 [0.7        0.83847308]
 [0.8        1.08447727]
 [0.9        0.84204293]
 [1.         1.38959139]
 [1.1        1.21285705]
 [1.14141667 1.7789236 ]]",1,0.432
8723415159,f,25,english,4,5,french,2024-02-01 10:33:14.584194,False,2,271,sounds\french\audio/french_653.wav,"[[  0.         -16.6650237 ]
 [  0.1         -8.50735594]
 [  0.2         59.74245416]
 [  0.3        -64.86263645]
 [  0.4        -59.72264617]
 [  0.5        -38.42409471]
 [  0.6        -66.71222224]
 [  0.7         -1.64153682]
 [  0.8        -58.84034728]
 [  0.9         24.2211282 ]
 [  1.           2.29759393]
 [  1.1        -18.37494867]
 [  1.14141667 -14.47262819]]","[[0.         0.6514058 ]
 [0.1        0.80912236]
 [0.2        1.05565194]
 [0.3        1.59567426]
 [0.4        1.49585524]
 [0.5        0.43064882]
 [0.6        0.29035008]
 [0.7        1.70426818]
 [0.8        0.82836214]
 [0.9        0.71951004]
 [1.         0.36282723]
 [1.1        0.47770594]
 [1.14141667 1.04977426]]",1,1.177
8723415159,f,25,english,4,5,french,2024-02-01 10:33:14.584194,False,2,272,sounds\french\audio/french_745.wav,"[[  0.          -8.32888314]
 [  0.1         -6.05023993]
 [  0.2         14.20117391]
 [  0.3          9.72422027]
 [  0.4         61.94285409]
 [  0.5         16.9242065 ]
 [  0.6        -73.99150176]
 [  0.7        -68.75802198]
 [  0.8         30.41524691]
 [  0.9        -73.26315303]
 [  1.          67.07087991]
 [  1.1         37.63567308]
 [  1.14141667  72.47019106]]","[[0.         1.09732397]
 [0.1        1.87088692]
 [0.2        1.54181536]
 [0.3        0.66469183]
 [0.4        0.06080466]
 [0.5        0.4761387 ]
 [0.6        0.98624315]
 [0.7        1.75579455]
 [0.8        0.49603864]
 [0.9        1.28396811]
 [1.         1.04819189]
 [1.1        1.07853657]
 [1.14141667 1.51225642]]",1,0.21
8723415159,f,25,english,4,5,french,2024-02-01 10:33:14.584194,False,2,273,sounds\french\audio/french_401.wav,"[[  0.          -7.60998306]
 [  0.1         49.24268399]
 [  0.2        -14.79637539]
 [  0.3         72.88593464]
 [  0.4        -98.49561517]
 [  0.5        -60.8939001 ]
 [  0.6         32.63233263]
 [  0.7        -55.97134542]
 [  0.8         39.70722097]
 [  0.9         68.29525005]
 [  1.          56.75484748]
 [  1.1        -66.7261144 ]
 [  1.14141667  62.31424057]]","[[0.         0.15669588]
 [0.1        1.26966849]
 [0.2        1.70141129]
 [0.3        0.39327529]
 [0.4        1.22367072]
 [0.5        1.1170169 ]
 [0.6        1.5139571 ]
 [0.7        1.3547448 ]
 [0.8        0.57513348]
 [0.9        1.18430789]
 [1.         0.55199782]
 [1.1        0.76232347]
 [1.14141667 0.18818323]]",1,0.24
8723415159,f,25,english,4,5,french,2024-02-01 10:33:14.584194,False,2,274,sounds\french\audio/french_1000.wav,"[[  0.         -73.98132077]
 [  0.1        -83.83733432]
 [  0.2        -83.30675493]
 [  0.3        -49.21206924]
 [  0.4        -37.38094521]
 [  0.5        -61.96244664]
 [  0.6         40.57719873]
 [  0.7         45.24625978]
 [  0.8         29.16975885]
 [  0.9         53.55403055]
 [  1.          28.77440397]
 [  1.1         66.56850724]
 [  1.14141667  38.69421955]]","[[0.         1.64837678]
 [0.1        1.32001696]
 [0.2        0.03425321]
 [0.3        0.20047346]
 [0.4        0.89388677]
 [0.5        0.07979432]
 [0.6        0.5706929 ]
 [0.7        1.02426669]
 [0.8        0.29678573]
 [0.9        1.45432924]
 [1.         1.18477249]
 [1.1        1.17453204]
 [1.14141667 1.53712703]]",1,0.351
8723415159,f,25,english,4,5,french,2024-02-01 10:33:14.584194,False,2,275,sounds\french\audio/french_369.wav,"[[  0.          69.75074481]
 [  0.1        -10.40899833]
 [  0.2         85.57878117]
 [  0.3         15.39701213]
 [  0.4         83.19518913]
 [  0.5         20.33595166]
 [  0.6         10.594299  ]
 [  0.7        -65.1676687 ]
 [  0.8         49.76363472]
 [  0.9        -78.66253889]
 [  1.           4.39215728]
 [  1.1        -85.73946609]
 [  1.14141667  53.02267255]]","[[0.         1.46736973]
 [0.1        0.13737814]
 [0.2        1.34631707]
 [0.3        0.46028441]
 [0.4        0.141543  ]
 [0.5        0.46259405]
 [0.6        0.96314063]
 [0.7        0.97877892]
 [0.8        1.10716642]
 [0.9        0.40650809]
 [1.         1.82064787]
 [1.1        1.61141022]
 [1.14141667 0.46038383]]",1,0.09
8723415159,f,25,english,4,5,french,2024-02-01 10:33:14.584194,False,2,276,sounds\french\audio/french_742.wav,"[[  0.         -56.15437609]
 [  0.1        -97.50895937]
 [  0.2        -24.80576642]
 [  0.3        -28.69088725]
 [  0.4        -30.95403645]
 [  0.5          6.43592274]
 [  0.6         18.92068516]
 [  0.7         25.68594971]
 [  0.8         74.27353509]
 [  0.9        -83.89996192]
 [  1.         -96.24021005]
 [  1.1        -69.26132296]
 [  1.14141667  -1.30565835]]","[[0.         1.53396837]
 [0.1        0.80716731]
 [0.2        1.23206475]
 [0.3        0.5609413 ]
 [0.4        1.96076384]
 [0.5        0.69180363]
 [0.6        0.57955311]
 [0.7        1.48466979]
 [0.8        0.9330707 ]
 [0.9        0.8547563 ]
 [1.         0.04579067]
 [1.1        1.75126765]
 [1.14141667 1.38088428]]",1,3.721
8723415159,f,25,english,4,5,french,2024-02-01 10:33:14.584194,False,2,277,sounds\french\audio/french_879.wav,"[[  0.          88.66120866]
 [  0.1         35.12225603]
 [  0.2         -2.93703308]
 [  0.3         61.37727631]
 [  0.4          2.53929299]
 [  0.5         65.24070343]
 [  0.6        -80.11136653]
 [  0.7         13.22088752]
 [  0.8         64.64970231]
 [  0.9         13.00456611]
 [  1.         -81.8213386 ]
 [  1.1        -91.24943387]
 [  1.14141667  94.81116576]]","[[0.         1.49948929]
 [0.1        1.15624611]
 [0.2        1.75956272]
 [0.3        0.82855874]
 [0.4        0.63351831]
 [0.5        1.6138796 ]
 [0.6        0.6895417 ]
 [0.7        0.19108086]
 [0.8        0.37453166]
 [0.9        1.83756867]
 [1.         1.05634914]
 [1.1        0.80697989]
 [1.14141667 0.78800282]]",1,0.276
8723415159,f,25,english,4,5,french,2024-02-01 10:33:14.584194,False,2,278,sounds\french\audio/french_756.wav,"[[  0.         -40.89918264]
 [  0.1        -99.52464367]
 [  0.2        -21.65080484]
 [  0.3         61.04267157]
 [  0.4        -86.7981673 ]
 [  0.5        -52.98495971]
 [  0.6        -62.5926211 ]
 [  0.7         93.58331773]
 [  0.8        -85.69814582]
 [  0.9         79.03573852]
 [  1.         -77.37187744]
 [  1.1         78.34862084]
 [  1.14141667 -65.43844249]]","[[0.         0.22647067]
 [0.1        0.83190688]
 [0.2        1.47884544]
 [0.3        0.7217285 ]
 [0.4        1.67647658]
 [0.5        1.95635738]
 [0.6        1.04454085]
 [0.7        1.38664818]
 [0.8        1.57780238]
 [0.9        1.00453441]
 [1.         1.82221754]
 [1.1        0.38536838]
 [1.14141667 0.09429914]]",1,2.254
8723415159,f,25,english,4,5,french,2024-02-01 10:33:14.584194,False,2,279,sounds\french\audio/french_449.wav,"[[  0.          48.07237211]
 [  0.1         10.50044698]
 [  0.2         99.10264915]
 [  0.3         44.97033086]
 [  0.4        -41.32684653]
 [  0.5        -79.7525466 ]
 [  0.6         50.40932694]
 [  0.7         52.6193965 ]
 [  0.8        -15.31474709]
 [  0.9        -28.04173939]
 [  1.           9.78914311]
 [  1.1        -78.00931625]
 [  1.14141667 -11.66917093]]","[[0.         1.574298  ]
 [0.1        0.465888  ]
 [0.2        1.49470087]
 [0.3        1.26780995]
 [0.4        0.48746737]
 [0.5        0.73531069]
 [0.6        0.94941626]
 [0.7        1.08611184]
 [0.8        0.81949253]
 [0.9        1.27162102]
 [1.         1.38692301]
 [1.1        0.89469579]
 [1.14141667 1.6806745 ]]",1,1.52
8723415159,f,25,english,4,5,french,2024-02-01 10:33:14.584194,False,2,280,sounds\french\audio/french_17.wav,"[[  0.         -71.55402429]
 [  0.1         56.29343934]
 [  0.2         20.79261224]
 [  0.3        -90.11025679]
 [  0.4          6.70427818]
 [  0.5          6.61311772]
 [  0.6         12.56869907]
 [  0.7         12.55137567]
 [  0.8        -95.46150143]
 [  0.9         49.81790086]
 [  1.          16.6905365 ]
 [  1.1        -37.04715418]
 [  1.14141667  50.55014442]]","[[0.         0.5785157 ]
 [0.1        1.90036265]
 [0.2        1.44471121]
 [0.3        1.565227  ]
 [0.4        0.33054676]
 [0.5        1.03998894]
 [0.6        1.28428477]
 [0.7        1.1424972 ]
 [0.8        0.50274776]
 [0.9        1.25594358]
 [1.         1.98482543]
 [1.1        0.15414972]
 [1.14141667 1.03942219]]",1,2.52
8723415159,f,25,english,4,5,french,2024-02-01 10:33:14.584194,False,2,281,sounds\french\audio/french_287.wav,"[[  0.          24.91246091]
 [  0.1         67.7832239 ]
 [  0.2         45.53981298]
 [  0.3        -34.40875305]
 [  0.4         15.18631391]
 [  0.5        -31.03447886]
 [  0.6        -58.473992  ]
 [  0.7          5.63880144]
 [  0.8        -88.66742404]
 [  0.9        -39.07529751]
 [  1.          -4.11446779]
 [  1.1        -59.02603501]
 [  1.14141667  11.416303  ]]","[[0.         0.55628619]
 [0.1        0.6662612 ]
 [0.2        1.36903667]
 [0.3        0.2836932 ]
 [0.4        1.18401113]
 [0.5        0.95699151]
 [0.6        1.42939471]
 [0.7        0.68329905]
 [0.8        1.80121068]
 [0.9        1.9139007 ]
 [1.         0.02395004]
 [1.1        0.8859273 ]
 [1.14141667 1.12262587]]",1,0.397
8723415159,f,25,english,4,5,french,2024-02-01 10:33:14.584194,False,2,282,sounds\french\audio/french_124.wav,"[[  0.         -76.45779126]
 [  0.1        -62.44073346]
 [  0.2        -62.75149138]
 [  0.3        -37.91621361]
 [  0.4         -1.84891931]
 [  0.5         -2.76461423]
 [  0.6         48.00626226]
 [  0.7        -89.0520455 ]
 [  0.8        -36.94008954]
 [  0.9        -82.62391515]
 [  1.         -88.37832348]
 [  1.1         86.13286015]
 [  1.14141667 -90.07064956]]","[[0.         0.84587092]
 [0.1        1.24457807]
 [0.2        0.64584281]
 [0.3        0.25159831]
 [0.4        0.57670271]
 [0.5        0.27282382]
 [0.6        0.93393673]
 [0.7        0.95712828]
 [0.8        1.24636556]
 [0.9        0.87746102]
 [1.         0.59578507]
 [1.1        1.45487827]
 [1.14141667 0.90336127]]",1,0.197
8723415159,f,25,english,4,5,french,2024-02-01 10:33:14.584194,False,2,283,sounds\french\audio/french_816.wav,"[[  0.         -97.18949374]
 [  0.1        -61.44808102]
 [  0.2         61.9994188 ]
 [  0.3         84.22947867]
 [  0.4         71.42718941]
 [  0.5         24.61980692]
 [  0.6         67.61429309]
 [  0.7          2.89011689]
 [  0.8        -17.87721334]
 [  0.9         68.87537651]
 [  1.          26.6727595 ]
 [  1.1          7.78053478]
 [  1.14141667  95.77522744]]","[[0.         1.62055142]
 [0.1        0.77873913]
 [0.2        1.7419515 ]
 [0.3        1.18335518]
 [0.4        0.26789649]
 [0.5        1.09790132]
 [0.6        0.65540703]
 [0.7        0.23417739]
 [0.8        1.34217218]
 [0.9        0.58504263]
 [1.         0.89860731]
 [1.1        1.05692274]
 [1.14141667 0.59957378]]",1,0.306
8723415159,f,25,english,4,5,french,2024-02-01 10:33:14.584194,False,2,284,sounds\french\audio/french_759.wav,"[[  0.          98.83665256]
 [  0.1        -36.98704923]
 [  0.2        -13.21190581]
 [  0.3        -80.8598001 ]
 [  0.4        -25.0918208 ]
 [  0.5        -23.99620205]
 [  0.6        -10.44532567]
 [  0.7         30.16480519]
 [  0.8         26.50650609]
 [  0.9         84.41962205]
 [  1.         -55.53219039]
 [  1.1          8.0634811 ]
 [  1.14141667  -3.22335062]]","[[0.         1.21092883]
 [0.1        0.7175079 ]
 [0.2        0.78878443]
 [0.3        0.44631257]
 [0.4        0.9996058 ]
 [0.5        0.69774753]
 [0.6        1.25144841]
 [0.7        0.57999204]
 [0.8        0.87523247]
 [0.9        1.36445092]
 [1.         0.77961983]
 [1.1        1.59542787]
 [1.14141667 1.19142212]]",0,1.235
8723415159,f,25,english,4,5,french,2024-02-01 10:33:14.584194,False,2,285,sounds\french\audio/french_878.wav,"[[  0.         -14.33769798]
 [  0.1         72.92809619]
 [  0.2         -6.62581365]
 [  0.3         79.64382411]
 [  0.4        -38.29472577]
 [  0.5         27.31257491]
 [  0.6        -99.613809  ]
 [  0.7        -28.5371841 ]
 [  0.8        -77.67063133]
 [  0.9         31.82360474]
 [  1.          39.51242376]
 [  1.1        -22.15845395]
 [  1.14141667 -13.60090041]]","[[0.         1.3925954 ]
 [0.1        0.36697913]
 [0.2        1.30460769]
 [0.3        1.26017801]
 [0.4        0.62557754]
 [0.5        1.14924897]
 [0.6        1.43572878]
 [0.7        1.9878771 ]
 [0.8        1.32028777]
 [0.9        0.83456614]
 [1.         0.85554915]
 [1.1        1.15382256]
 [1.14141667 1.46746731]]",0,0.685
8723415159,f,25,english,4,5,french,2024-02-01 10:33:14.584194,False,2,286,sounds\french\audio/french_124.wav,"[[  0.         -76.45779126]
 [  0.1        -62.44073346]
 [  0.2        -62.75149138]
 [  0.3        -37.91621361]
 [  0.4         -1.84891931]
 [  0.5         -2.76461423]
 [  0.6         48.00626226]
 [  0.7        -89.0520455 ]
 [  0.8        -36.94008954]
 [  0.9        -82.62391515]
 [  1.         -88.37832348]
 [  1.1         86.13286015]
 [  1.14141667 -90.07064956]]","[[0.         0.84587092]
 [0.1        1.24457807]
 [0.2        0.64584281]
 [0.3        0.25159831]
 [0.4        0.57670271]
 [0.5        0.27282382]
 [0.6        0.93393673]
 [0.7        0.95712828]
 [0.8        1.24636556]
 [0.9        0.87746102]
 [1.         0.59578507]
 [1.1        1.45487827]
 [1.14141667 0.90336127]]",1,0.083
8723415159,f,25,english,4,5,french,2024-02-01 10:33:14.584194,False,2,287,sounds\french\audio/french_278.wav,"[[  0.          44.87958556]
 [  0.1         54.45371721]
 [  0.2         45.64758291]
 [  0.3        -16.61950776]
 [  0.4        -83.29715796]
 [  0.5        -45.12452767]
 [  0.6         81.71688846]
 [  0.7        -84.47047535]
 [  0.8         62.79515498]
 [  0.9        -78.3783001 ]
 [  1.          35.83056969]
 [  1.1         -9.69110421]
 [  1.14141667 -51.62343027]]","[[0.         1.76324183]
 [0.1        0.77779847]
 [0.2        0.82423998]
 [0.3        1.09492101]
 [0.4        0.39451547]
 [0.5        1.64255071]
 [0.6        0.88909591]
 [0.7        0.77482277]
 [0.8        0.09065163]
 [0.9        1.7734822 ]
 [1.         1.91427457]
 [1.1        1.4912645 ]
 [1.14141667 0.92742676]]",1,0.437
8723415159,f,25,english,4,5,french,2024-02-01 10:33:14.584194,False,2,288,sounds\french\audio/french_289.wav,"[[  0.          14.70665442]
 [  0.1         95.25316321]
 [  0.2         22.20186217]
 [  0.3        -17.9137024 ]
 [  0.4        -10.1137558 ]
 [  0.5        -69.76519391]
 [  0.6        -29.65482042]
 [  0.7         65.48072433]
 [  0.8         60.45691667]
 [  0.9        -67.68084872]
 [  1.          65.70228923]
 [  1.1        -57.15088735]
 [  1.14141667   1.39733305]]","[[0.         1.83068481]
 [0.1        0.61558809]
 [0.2        1.36200616]
 [0.3        1.0791943 ]
 [0.4        0.20327362]
 [0.5        1.24486775]
 [0.6        1.32936048]
 [0.7        1.56831723]
 [0.8        1.33915521]
 [0.9        1.39765906]
 [1.         1.14730346]
 [1.1        1.20392446]
 [1.14141667 0.91697028]]",1,0.452
8723415159,f,25,english,4,5,french,2024-02-01 10:33:14.584194,False,2,289,sounds\french\audio/french_761.wav,"[[  0.          -4.65368555]
 [  0.1        -95.02047891]
 [  0.2        -46.13477508]
 [  0.3         44.60720678]
 [  0.4        -56.15470629]
 [  0.5         -5.62885822]
 [  0.6         16.04939415]
 [  0.7         -7.40448264]
 [  0.8        -49.19151668]
 [  0.9        -21.58992812]
 [  1.          97.9984375 ]
 [  1.1        -54.45281711]
 [  1.14141667  96.15058985]]","[[0.         1.68992553]
 [0.1        1.90989282]
 [0.2        1.32561582]
 [0.3        1.43060887]
 [0.4        0.29002682]
 [0.5        1.48383664]
 [0.6        0.48742164]
 [0.7        0.57849003]
 [0.8        0.03179743]
 [0.9        1.574395  ]
 [1.         1.21779741]
 [1.1        1.83689478]
 [1.14141667 0.73963704]]",0,0.28
8723415159,f,25,english,4,5,french,2024-02-01 10:33:14.584194,False,2,290,sounds\french\audio/french_413.wav,"[[  0.          55.29360891]
 [  0.1        -50.95886707]
 [  0.2         54.13518968]
 [  0.3         35.06481535]
 [  0.4         53.38062102]
 [  0.5         69.27676949]
 [  0.6        -61.3421988 ]
 [  0.7        -89.47342233]
 [  0.8        -48.72904744]
 [  0.9          1.16603068]
 [  1.           5.3158993 ]
 [  1.1         91.20505521]
 [  1.14141667  -1.7804857 ]]","[[0.         1.9581329 ]
 [0.1        0.47119179]
 [0.2        1.35424418]
 [0.3        0.01052317]
 [0.4        0.69535294]
 [0.5        0.69536718]
 [0.6        1.83256231]
 [0.7        1.93961064]
 [0.8        1.32631245]
 [0.9        0.8841902 ]
 [1.         0.23857756]
 [1.1        1.79928799]
 [1.14141667 1.20807813]]",1,0.066
8723415159,f,25,english,4,5,french,2024-02-01 10:33:14.584194,False,2,291,sounds\french\audio/french_229.wav,"[[  0.         -72.66349649]
 [  0.1         98.17669026]
 [  0.2         19.85962147]
 [  0.3         10.18447552]
 [  0.4          2.99186972]
 [  0.5        -36.21916984]
 [  0.6          3.19583609]
 [  0.7         12.12984782]
 [  0.8          6.61404525]
 [  0.9        -91.89213886]
 [  1.         -48.12418513]
 [  1.1        -26.91376671]
 [  1.14141667 -57.44589876]]","[[0.         0.80556486]
 [0.1        0.96438648]
 [0.2        1.67956767]
 [0.3        0.9177948 ]
 [0.4        1.97008316]
 [0.5        1.12909119]
 [0.6        1.71065486]
 [0.7        0.23797279]
 [0.8        0.17780208]
 [0.9        0.24849055]
 [1.         0.41301125]
 [1.1        1.34102455]
 [1.14141667 0.47586737]]",1,1.381
8723415159,f,25,english,4,5,french,2024-02-01 10:33:14.584194,False,2,292,sounds\french\audio/french_35.wav,"[[  0.         -45.98279   ]
 [  0.1        -93.35925651]
 [  0.2         77.12358993]
 [  0.3        -34.48534753]
 [  0.4         38.58985069]
 [  0.5         23.05182082]
 [  0.6         59.56369485]
 [  0.7        -15.27709813]
 [  0.8         16.51606583]
 [  0.9        -90.32979769]
 [  1.           0.14455974]
 [  1.1        -26.62218669]
 [  1.14141667 -83.87664754]]","[[0.         0.780992  ]
 [0.1        0.62769982]
 [0.2        0.02441241]
 [0.3        1.04344707]
 [0.4        0.06237226]
 [0.5        1.89799499]
 [0.6        1.45682954]
 [0.7        1.10135409]
 [0.8        0.68131024]
 [0.9        0.067101  ]
 [1.         0.5753594 ]
 [1.1        0.31164616]
 [1.14141667 1.05187015]]",0,1.142
8723415159,f,25,english,4,5,french,2024-02-01 10:33:14.584194,False,2,293,sounds\french\audio/french_450.wav,"[[  0.           4.70184188]
 [  0.1        -11.95880563]
 [  0.2         53.61985122]
 [  0.3        -85.38293737]
 [  0.4         81.03787429]
 [  0.5         60.88142029]
 [  0.6         51.15998741]
 [  0.7          2.81982788]
 [  0.8        -20.49721325]
 [  0.9         53.84768168]
 [  1.          98.5663088 ]
 [  1.1        -49.53483504]
 [  1.14141667 -65.90212965]]","[[0.         1.04621454]
 [0.1        1.88376194]
 [0.2        0.0064492 ]
 [0.3        1.74804206]
 [0.4        1.15618938]
 [0.5        0.18145745]
 [0.6        0.89151946]
 [0.7        0.09457117]
 [0.8        1.37408158]
 [0.9        0.40754462]
 [1.         0.43615901]
 [1.1        0.56531873]
 [1.14141667 0.12479989]]",1,2.266
8723415159,f,25,english,4,5,french,2024-02-01 10:33:14.584194,False,2,294,sounds\french\audio/french_733.wav,"[[  0.         -28.30259207]
 [  0.1        -20.51655877]
 [  0.2         32.67834183]
 [  0.3          6.62547625]
 [  0.4        -74.88223305]
 [  0.5         78.7904108 ]
 [  0.6         92.741833  ]
 [  0.7        -51.74379755]
 [  0.8          0.26100759]
 [  0.9         80.00528442]
 [  1.         -20.98835091]
 [  1.1        -67.79194344]
 [  1.14141667  20.39044297]]","[[0.         0.49045242]
 [0.1        0.41105181]
 [0.2        0.51992236]
 [0.3        0.5442563 ]
 [0.4        1.50191258]
 [0.5        0.7960124 ]
 [0.6        1.55647812]
 [0.7        0.75813018]
 [0.8        1.97775979]
 [0.9        1.24266335]
 [1.         0.70545845]
 [1.1        0.86751529]
 [1.14141667 1.05140742]]",1,0.506
8723415159,f,25,english,4,5,french,2024-02-01 10:33:14.584194,False,2,295,sounds\french\audio/french_293.wav,"[[  0.          13.88157175]
 [  0.1          2.23867218]
 [  0.2        -40.7386732 ]
 [  0.3          6.10244728]
 [  0.4         32.8477373 ]
 [  0.5        -60.22275726]
 [  0.6        -73.78584082]
 [  0.7        -39.23060497]
 [  0.8         13.36329351]
 [  0.9         16.41932854]
 [  1.          44.79400967]
 [  1.1         34.65582677]
 [  1.14141667  28.28906565]]","[[0.         0.60053573]
 [0.1        1.35819194]
 [0.2        0.02818672]
 [0.3        1.13378846]
 [0.4        1.04896096]
 [0.5        1.31947449]
 [0.6        0.64719086]
 [0.7        1.73705065]
 [0.8        1.2092819 ]
 [0.9        0.87930659]
 [1.         1.38260782]
 [1.1        1.24528476]
 [1.14141667 1.87043564]]",1,0.33
8723415159,f,25,english,4,5,french,2024-02-01 10:33:14.584194,False,2,296,sounds\french\audio/french_916.wav,"[[  0.          36.60514791]
 [  0.1         67.71028213]
 [  0.2        -14.627271  ]
 [  0.3        -96.69583428]
 [  0.4          6.99292361]
 [  0.5         98.33986356]
 [  0.6        -83.4018512 ]
 [  0.7         40.81394323]
 [  0.8          1.22546887]
 [  0.9         -0.4367378 ]
 [  1.          11.82973509]
 [  1.1          1.50837578]
 [  1.14141667  22.61945616]]","[[0.         0.71192514]
 [0.1        0.52787746]
 [0.2        1.09974622]
 [0.3        1.70171287]
 [0.4        0.41492285]
 [0.5        0.32961241]
 [0.6        0.54015023]
 [0.7        1.11593731]
 [0.8        1.21943801]
 [0.9        0.4397667 ]
 [1.         0.30306907]
 [1.1        0.95828899]
 [1.14141667 0.74726021]]",1,0.268
8723415159,f,25,english,4,5,french,2024-02-01 10:33:14.584194,False,2,297,sounds\french\audio/french_826.wav,"[[  0.         -27.70685096]
 [  0.1         36.31877293]
 [  0.2         99.33133992]
 [  0.3        -36.19061988]
 [  0.4        -21.30822949]
 [  0.5        -30.35356855]
 [  0.6          5.26136658]
 [  0.7         66.93678647]
 [  0.8          7.468886  ]
 [  0.9          8.24023811]
 [  1.          24.59744458]
 [  1.1        -27.97862072]
 [  1.14141667  80.34340576]]","[[0.         1.07533498]
 [0.1        0.55576396]
 [0.2        1.66285071]
 [0.3        1.98350428]
 [0.4        0.31520787]
 [0.5        0.91676488]
 [0.6        1.04496559]
 [0.7        0.81384805]
 [0.8        1.33717272]
 [0.9        0.5120121 ]
 [1.         0.50996017]
 [1.1        0.52289829]
 [1.14141667 0.11079891]]",0,0.382
8723415159,f,25,english,4,5,french,2024-02-01 10:33:14.584194,False,2,298,sounds\french\audio/french_420.wav,"[[  0.         -18.88007076]
 [  0.1         85.38106336]
 [  0.2         93.67996173]
 [  0.3        -59.60168974]
 [  0.4        -63.09071902]
 [  0.5         -3.42049192]
 [  0.6          3.82145816]
 [  0.7        -46.57323204]
 [  0.8         43.35773063]
 [  0.9        -41.3853357 ]
 [  1.         -80.49552294]
 [  1.1         11.88219307]
 [  1.14141667 -51.63626854]]","[[0.         0.77898817]
 [0.1        0.94651873]
 [0.2        0.16609342]
 [0.3        1.88772727]
 [0.4        0.52202044]
 [0.5        0.19259521]
 [0.6        0.85413524]
 [0.7        0.3417564 ]
 [0.8        1.89293485]
 [0.9        1.49847299]
 [1.         1.43768421]
 [1.1        1.60937112]
 [1.14141667 1.40472667]]",1,1.594
8723415159,f,25,english,4,5,french,2024-02-01 10:33:14.584194,False,2,299,sounds\french\audio/french_805.wav,"[[  0.         -44.55735502]
 [  0.1        -15.81782327]
 [  0.2        -60.55488751]
 [  0.3        -22.03480197]
 [  0.4        -82.42416276]
 [  0.5         26.6793054 ]
 [  0.6        -90.86223061]
 [  0.7        -32.61383863]
 [  0.8        -25.8862389 ]
 [  0.9        -83.72221214]
 [  1.           9.78399033]
 [  1.1        -75.28148503]
 [  1.14141667 -45.84381211]]","[[0.         0.30537306]
 [0.1        0.95683225]
 [0.2        1.47185568]
 [0.3        0.27583044]
 [0.4        1.40306371]
 [0.5        0.29904003]
 [0.6        0.10571209]
 [0.7        1.80090028]
 [0.8        1.4046027 ]
 [0.9        1.0925065 ]
 [1.         0.78385676]
 [1.1        0.24940616]
 [1.14141667 0.58218615]]",1,0.522
8723415159,f,25,english,4,5,french,2024-02-01 10:33:14.584194,False,2,300,sounds\french\audio/french_601.wav,"[[  0.         -60.16261887]
 [  0.1         58.32501749]
 [  0.2        -44.78853843]
 [  0.3        -17.24266457]
 [  0.4        -78.33579563]
 [  0.5         79.97866624]
 [  0.6        -20.55581515]
 [  0.7         43.78837108]
 [  0.8        -73.15029891]
 [  0.9         90.05348961]
 [  1.          37.64890544]
 [  1.1         22.47191591]
 [  1.14141667  73.82058256]]","[[0.         1.95619765]
 [0.1        1.42765137]
 [0.2        0.44130142]
 [0.3        1.17849708]
 [0.4        0.56027503]
 [0.5        1.3872376 ]
 [0.6        0.54116968]
 [0.7        0.9642546 ]
 [0.8        1.93227631]
 [0.9        1.38785467]
 [1.         0.37718019]
 [1.1        0.7210926 ]
 [1.14141667 0.61108632]]",1,0.75
8723415159,f,25,english,4,5,french,2024-02-01 10:33:14.584194,False,2,301,sounds\french\audio/french_817.wav,"[[  0.         -30.94248102]
 [  0.1         -4.29051335]
 [  0.2        -40.67450271]
 [  0.3        -98.30979695]
 [  0.4         33.8298658 ]
 [  0.5        -10.25342909]
 [  0.6        -44.71615858]
 [  0.7        -44.75020149]
 [  0.8         83.65764996]
 [  0.9         43.69158252]
 [  1.          46.49261848]
 [  1.1          1.97001413]
 [  1.14141667  -3.17194908]]","[[0.         0.42536639]
 [0.1        0.63122361]
 [0.2        1.33951683]
 [0.3        0.48386301]
 [0.4        0.54931862]
 [0.5        1.17298133]
 [0.6        0.90112803]
 [0.7        1.02780662]
 [0.8        1.75749166]
 [0.9        1.02056685]
 [1.         1.3036828 ]
 [1.1        1.81996597]
 [1.14141667 0.33384971]]",0,0.352
8723415159,f,25,english,4,5,french,2024-02-01 10:33:14.584194,False,2,302,sounds\french\audio/french_105.wav,"[[  0.         -17.41639598]
 [  0.1        -51.05987978]
 [  0.2        -50.86415714]
 [  0.3         36.13678641]
 [  0.4        -44.37916814]
 [  0.5        -26.18268216]
 [  0.6         77.65644826]
 [  0.7        -48.15616173]
 [  0.8        -76.33989735]
 [  0.9        -14.96957066]
 [  1.          41.40508421]
 [  1.1        -59.17997239]
 [  1.14141667  89.00654199]]","[[0.         1.0696772 ]
 [0.1        1.85057485]
 [0.2        1.17092256]
 [0.3        1.78310138]
 [0.4        1.56265936]
 [0.5        0.85551974]
 [0.6        1.45347176]
 [0.7        1.38762172]
 [0.8        1.74923504]
 [0.9        1.36496243]
 [1.         0.66444933]
 [1.1        1.29070267]
 [1.14141667 0.50298451]]",1,0.113
8723415159,f,25,english,4,5,french,2024-02-01 10:33:14.584194,False,2,303,sounds\french\audio/french_204.wav,"[[  0.         -97.54424604]
 [  0.1        -75.45987253]
 [  0.2        -45.23023412]
 [  0.3        -36.48297354]
 [  0.4         90.93714811]
 [  0.5          8.51204829]
 [  0.6        -18.08952278]
 [  0.7        -30.86608274]
 [  0.8          9.52121427]
 [  0.9         32.93587108]
 [  1.           4.3572217 ]
 [  1.1         48.01606994]
 [  1.14141667 -31.34314553]]","[[0.         0.84357782]
 [0.1        1.86814554]
 [0.2        0.72033873]
 [0.3        0.94694734]
 [0.4        1.41055146]
 [0.5        1.86444056]
 [0.6        0.86787291]
 [0.7        0.05470733]
 [0.8        0.89406548]
 [0.9        0.95464127]
 [1.         1.5370853 ]
 [1.1        0.95273062]
 [1.14141667 1.18622343]]",1,0.152
8723415159,f,25,english,4,5,french,2024-02-01 10:33:14.584194,False,2,304,sounds\french\audio/french_370.wav,"[[  0.          94.69193791]
 [  0.1        -34.36771105]
 [  0.2         55.68663638]
 [  0.3         86.0282476 ]
 [  0.4        -27.64418732]
 [  0.5          2.79773792]
 [  0.6         23.29524749]
 [  0.7         19.50655052]
 [  0.8         27.94648957]
 [  0.9        -49.49366589]
 [  1.          76.55940537]
 [  1.1         64.74077084]
 [  1.14141667 -14.36009756]]","[[0.         1.31620058]
 [0.1        1.0910653 ]
 [0.2        1.59108786]
 [0.3        0.66651246]
 [0.4        0.77217464]
 [0.5        1.2458794 ]
 [0.6        0.78783747]
 [0.7        1.5969386 ]
 [0.8        0.07582998]
 [0.9        1.5026642 ]
 [1.         1.33889054]
 [1.1        1.0242803 ]
 [1.14141667 1.81581141]]",1,0.324
8723415159,f,25,english,4,5,french,2024-02-01 10:33:14.584194,False,2,305,sounds\french\audio/french_119.wav,"[[  0.         -46.46293881]
 [  0.1         36.58591631]
 [  0.2         50.38502511]
 [  0.3        -66.12823015]
 [  0.4        -77.21600754]
 [  0.5          6.000212  ]
 [  0.6         -4.76341262]
 [  0.7          7.45357195]
 [  0.8        -26.58843139]
 [  0.9         31.49724547]
 [  1.          28.64688836]
 [  1.1        -76.72305376]
 [  1.14141667 -86.52721647]]","[[0.         1.20748333]
 [0.1        0.93241829]
 [0.2        0.66065298]
 [0.3        0.45259025]
 [0.4        0.97197432]
 [0.5        0.91187225]
 [0.6        1.2216298 ]
 [0.7        1.53033872]
 [0.8        0.74678716]
 [0.9        1.79882331]
 [1.         0.9366063 ]
 [1.1        1.21120155]
 [1.14141667 0.65657425]]",1,1.324
8723415159,f,25,english,4,5,french,2024-02-01 10:33:14.584194,False,2,306,sounds\french\audio/french_724.wav,"[[ 0.00000000e+00 -4.27356975e+01]
 [ 1.00000000e-01  7.91515089e+01]
 [ 2.00000000e-01  6.49302742e+01]
 [ 3.00000000e-01 -8.51878267e+01]
 [ 4.00000000e-01 -3.43526203e+01]
 [ 5.00000000e-01 -4.99910648e+00]
 [ 6.00000000e-01  4.48919320e-02]
 [ 7.00000000e-01  7.78511592e+00]
 [ 8.00000000e-01  2.06697314e+01]
 [ 9.00000000e-01  9.44830377e+01]
 [ 1.00000000e+00  1.93406873e+00]
 [ 1.10000000e+00  6.55163276e+01]
 [ 1.14141667e+00  3.64326130e+01]]","[[0.         0.85167994]
 [0.1        1.58951064]
 [0.2        0.60770722]
 [0.3        0.75189335]
 [0.4        0.90807039]
 [0.5        0.50960695]
 [0.6        0.49994716]
 [0.7        1.52976277]
 [0.8        1.0388534 ]
 [0.9        1.27328061]
 [1.         1.00280062]
 [1.1        1.51647705]
 [1.14141667 1.50732266]]",1,0.368
8723415159,f,25,english,4,5,french,2024-02-01 10:33:14.584194,False,2,307,sounds\french\audio/french_289.wav,"[[  0.          14.70665442]
 [  0.1         95.25316321]
 [  0.2         22.20186217]
 [  0.3        -17.9137024 ]
 [  0.4        -10.1137558 ]
 [  0.5        -69.76519391]
 [  0.6        -29.65482042]
 [  0.7         65.48072433]
 [  0.8         60.45691667]
 [  0.9        -67.68084872]
 [  1.          65.70228923]
 [  1.1        -57.15088735]
 [  1.14141667   1.39733305]]","[[0.         1.83068481]
 [0.1        0.61558809]
 [0.2        1.36200616]
 [0.3        1.0791943 ]
 [0.4        0.20327362]
 [0.5        1.24486775]
 [0.6        1.32936048]
 [0.7        1.56831723]
 [0.8        1.33915521]
 [0.9        1.39765906]
 [1.         1.14730346]
 [1.1        1.20392446]
 [1.14141667 0.91697028]]",1,0.144
8723415159,f,25,english,4,5,french,2024-02-01 10:33:14.584194,False,2,308,sounds\french\audio/french_267.wav,"[[  0.          18.62194101]
 [  0.1        -41.76587146]
 [  0.2        -89.0319753 ]
 [  0.3         -9.29393358]
 [  0.4          4.87685639]
 [  0.5         55.48582026]
 [  0.6         68.06270027]
 [  0.7         73.37283609]
 [  0.8         87.54245383]
 [  0.9        -36.95251774]
 [  1.          15.0077511 ]
 [  1.1          1.73751708]
 [  1.14141667 -26.35169503]]","[[0.         1.74719476]
 [0.1        1.66560927]
 [0.2        0.63204019]
 [0.3        1.85189237]
 [0.4        1.63232166]
 [0.5        0.52529496]
 [0.6        0.12234138]
 [0.7        0.34795173]
 [0.8        1.84655651]
 [0.9        1.60281613]
 [1.         0.17639531]
 [1.1        1.90986938]
 [1.14141667 1.88890826]]",1,0.18
8723415159,f,25,english,4,5,french,2024-02-01 10:33:14.584194,False,2,309,sounds\french\audio/french_7.wav,"[[  0.          17.30709494]
 [  0.1        -63.94658261]
 [  0.2         67.53719725]
 [  0.3         63.15001228]
 [  0.4        -14.43015731]
 [  0.5         44.13924234]
 [  0.6        -87.5939518 ]
 [  0.7        -21.88923859]
 [  0.8        -75.22079211]
 [  0.9        -44.33295618]
 [  1.         -82.62011516]
 [  1.1        -28.3543826 ]
 [  1.14141667  39.13782865]]","[[0.         0.40724151]
 [0.1        1.34555896]
 [0.2        1.64185408]
 [0.3        1.66374523]
 [0.4        0.37650843]
 [0.5        0.14892944]
 [0.6        1.49586542]
 [0.7        1.13659751]
 [0.8        1.64492365]
 [0.9        1.22066873]
 [1.         1.13133422]
 [1.1        0.5437483 ]
 [1.14141667 1.32903079]]",1,0.669
8723415159,f,25,english,4,5,french,2024-02-01 10:33:14.584194,False,2,310,sounds\french\audio/french_891.wav,"[[  0.         -99.04712605]
 [  0.1         17.3799724 ]
 [  0.2         -1.30355006]
 [  0.3         11.66108417]
 [  0.4          6.35761676]
 [  0.5        -71.86971473]
 [  0.6         20.94588527]
 [  0.7        -13.59137079]
 [  0.8         62.37473981]
 [  0.9         64.47380957]
 [  1.          -7.95126825]
 [  1.1        -34.88253316]
 [  1.14141667  95.31191198]]","[[0.         1.87208337]
 [0.1        1.3828509 ]
 [0.2        1.47231184]
 [0.3        1.45618748]
 [0.4        1.81540908]
 [0.5        0.63041518]
 [0.6        0.92124801]
 [0.7        0.65821591]
 [0.8        0.6468689 ]
 [0.9        0.86634815]
 [1.         0.44006572]
 [1.1        1.52894565]
 [1.14141667 0.84584339]]",1,1.05
8723415159,f,25,english,4,5,french,2024-02-01 10:33:14.584194,False,2,311,sounds\french\audio/french_938.wav,"[[  0.          78.88220732]
 [  0.1         -3.22217582]
 [  0.2         31.59313942]
 [  0.3        -87.34103223]
 [  0.4         26.56163826]
 [  0.5        -64.307528  ]
 [  0.6         85.8718617 ]
 [  0.7         60.41522049]
 [  0.8        -50.06881787]
 [  0.9         82.85214722]
 [  1.         -75.67548959]
 [  1.1         30.15245277]
 [  1.14141667 -12.395703  ]]","[[0.         0.57815616]
 [0.1        1.18097533]
 [0.2        0.53220918]
 [0.3        0.09451103]
 [0.4        1.66363874]
 [0.5        0.16302061]
 [0.6        0.92582254]
 [0.7        1.59975108]
 [0.8        0.43386097]
 [0.9        1.25868971]
 [1.         0.54585511]
 [1.1        1.6315762 ]
 [1.14141667 1.60331722]]",1,0.114
8723415159,f,25,english,4,5,french,2024-02-01 10:33:14.584194,False,2,312,sounds\french\audio/french_465.wav,"[[  0.           5.88024496]
 [  0.1        -50.60926401]
 [  0.2        -75.32725367]
 [  0.3          3.44113157]
 [  0.4         29.4397182 ]
 [  0.5         45.10583861]
 [  0.6         62.97320654]
 [  0.7        -15.3501398 ]
 [  0.8        -21.75175408]
 [  0.9        -10.84821327]
 [  1.         -94.2934633 ]
 [  1.1        -58.56218585]
 [  1.14141667  30.34802461]]","[[0.         1.03079141]
 [0.1        0.07909505]
 [0.2        0.13211547]
 [0.3        0.90615472]
 [0.4        0.84429779]
 [0.5        0.8526434 ]
 [0.6        0.36671109]
 [0.7        0.46700394]
 [0.8        1.52127731]
 [0.9        0.1624174 ]
 [1.         1.32493274]
 [1.1        0.29025247]
 [1.14141667 0.5468785 ]]",1,0.487
8723415159,f,25,english,4,5,french,2024-02-01 10:33:14.584194,False,2,313,sounds\french\audio/french_486.wav,"[[  0.         -98.02817501]
 [  0.1         65.33144032]
 [  0.2         61.38493925]
 [  0.3         96.45925622]
 [  0.4          5.96921881]
 [  0.5         30.65383736]
 [  0.6        -44.15981347]
 [  0.7         31.03879088]
 [  0.8         51.75647773]
 [  0.9        -98.74797635]
 [  1.          42.51271204]
 [  1.1         63.21062453]
 [  1.14141667 -77.59539186]]","[[0.         1.75569009]
 [0.1        1.7050464 ]
 [0.2        0.61683653]
 [0.3        1.35566853]
 [0.4        0.89727466]
 [0.5        1.1713147 ]
 [0.6        1.99548871]
 [0.7        0.16009728]
 [0.8        0.88389912]
 [0.9        0.14376531]
 [1.         0.54659097]
 [1.1        1.09027863]
 [1.14141667 0.71851787]]",0,0.467
8723415159,f,25,english,4,5,french,2024-02-01 10:33:14.584194,False,2,314,sounds\french\audio/french_125.wav,"[[  0.           5.05175171]
 [  0.1         32.7558224 ]
 [  0.2         -9.61553278]
 [  0.3        -33.04402315]
 [  0.4         91.14528802]
 [  0.5         27.38257131]
 [  0.6        -82.19183228]
 [  0.7         66.88134461]
 [  0.8          1.81029464]
 [  0.9        -28.86524108]
 [  1.         -14.95175418]
 [  1.1         -6.66227035]
 [  1.14141667 -70.41501392]]","[[0.         0.77303096]
 [0.1        0.49150881]
 [0.2        1.82272203]
 [0.3        0.85863994]
 [0.4        0.43062264]
 [0.5        1.85723762]
 [0.6        1.66103806]
 [0.7        1.40886995]
 [0.8        0.35681271]
 [0.9        0.15053676]
 [1.         1.22850652]
 [1.1        0.0913017 ]
 [1.14141667 1.41072005]]",1,1.346
8723415159,f,25,english,4,5,french,2024-02-01 10:33:14.584194,False,2,315,sounds\french\audio/french_183.wav,"[[  0.          26.98397873]
 [  0.1        -55.24874641]
 [  0.2         18.20332103]
 [  0.3         67.42590675]
 [  0.4        -24.39664935]
 [  0.5         -9.29989097]
 [  0.6        -39.43705055]
 [  0.7         48.44121723]
 [  0.8         50.00257742]
 [  0.9        -30.20627693]
 [  1.           7.87797216]
 [  1.1        -90.64433498]
 [  1.14141667 -74.1714296 ]]","[[0.         1.58263986]
 [0.1        0.74614587]
 [0.2        0.26654037]
 [0.3        1.09442227]
 [0.4        0.715011  ]
 [0.5        1.90230489]
 [0.6        0.70435555]
 [0.7        1.50464071]
 [0.8        0.45887465]
 [0.9        0.97480257]
 [1.         0.50545389]
 [1.1        1.04759182]
 [1.14141667 0.84145253]]",1,0.509
8723415159,f,25,english,4,5,french,2024-02-01 10:33:14.584194,False,2,316,sounds\french\audio/french_395.wav,"[[  0.          45.0752434 ]
 [  0.1        -93.76597298]
 [  0.2         46.57087832]
 [  0.3         59.364027  ]
 [  0.4         25.27671277]
 [  0.5         18.6240562 ]
 [  0.6        -12.8872696 ]
 [  0.7        -38.76560327]
 [  0.8        -43.15551235]
 [  0.9        -99.26206563]
 [  1.          -7.96649049]
 [  1.1         38.87039961]
 [  1.14141667  73.11872685]]","[[0.         1.18925621]
 [0.1        0.52454802]
 [0.2        1.50660579]
 [0.3        0.93298366]
 [0.4        0.50677812]
 [0.5        0.56379423]
 [0.6        1.362377  ]
 [0.7        1.10820927]
 [0.8        0.83193558]
 [0.9        1.55187087]
 [1.         1.27801505]
 [1.1        1.56525151]
 [1.14141667 1.97246425]]",1,1.584
8723415159,f,25,english,4,5,french,2024-02-01 10:33:14.584194,False,2,317,sounds\french\audio/french_33.wav,"[[  0.         -73.97774923]
 [  0.1        -36.06885346]
 [  0.2        -90.19934184]
 [  0.3          0.39936716]
 [  0.4         96.52672865]
 [  0.5         63.74011165]
 [  0.6         31.44503744]
 [  0.7         14.04693027]
 [  0.8        -77.85077502]
 [  0.9         68.67883666]
 [  1.          74.94832397]
 [  1.1         69.92169069]
 [  1.14141667  18.14392296]]","[[0.         1.19939349]
 [0.1        0.62157126]
 [0.2        0.91970763]
 [0.3        1.47370084]
 [0.4        1.0541108 ]
 [0.5        0.90431886]
 [0.6        1.27813504]
 [0.7        1.74599993]
 [0.8        1.73098361]
 [0.9        1.17206891]
 [1.         1.57344571]
 [1.1        0.28570847]
 [1.14141667 1.15456632]]",1,0.271
8723415159,f,25,english,4,5,french,2024-02-01 10:33:14.584194,False,2,318,sounds\french\audio/french_152.wav,"[[  0.          22.60875431]
 [  0.1         14.43122851]
 [  0.2         -1.17604154]
 [  0.3         99.62569478]
 [  0.4        -64.65569176]
 [  0.5        -41.8275267 ]
 [  0.6         34.66502166]
 [  0.7        -34.34381975]
 [  0.8        -81.02141252]
 [  0.9         -5.97302513]
 [  1.          -9.83226783]
 [  1.1        -81.65012796]
 [  1.14141667 -85.13057585]]","[[0.         0.83599951]
 [0.1        1.5682517 ]
 [0.2        1.13690913]
 [0.3        0.25393691]
 [0.4        0.7777625 ]
 [0.5        0.49994145]
 [0.6        0.40465775]
 [0.7        1.59194632]
 [0.8        1.86410196]
 [0.9        1.45014204]
 [1.         1.09472926]
 [1.1        1.56254354]
 [1.14141667 1.24100029]]",1,0.179
8723415159,f,25,english,4,5,french,2024-02-01 10:33:14.584194,False,2,319,sounds\french\audio/french_930.wav,"[[  0.         -19.87682244]
 [  0.1         33.32374643]
 [  0.2         -3.87894318]
 [  0.3         29.76228245]
 [  0.4         51.30696026]
 [  0.5        -78.80141905]
 [  0.6        -63.85822427]
 [  0.7         42.50280172]
 [  0.8         -6.05328021]
 [  0.9        -43.35461535]
 [  1.         -40.42814   ]
 [  1.1         43.1107058 ]
 [  1.14141667  48.8884653 ]]","[[0.         1.26137433]
 [0.1        1.39217721]
 [0.2        0.64379498]
 [0.3        0.20991032]
 [0.4        0.92641495]
 [0.5        1.10165323]
 [0.6        0.79329942]
 [0.7        1.85994667]
 [0.8        0.58419589]
 [0.9        0.82252221]
 [1.         0.37530869]
 [1.1        1.62426313]
 [1.14141667 0.25399184]]",1,0.158
8723415159,f,25,english,4,5,french,2024-02-01 10:33:14.584194,False,2,320,sounds\french\audio/french_579.wav,"[[  0.         -44.9724905 ]
 [  0.1          0.83845953]
 [  0.2         93.06026355]
 [  0.3        -62.41374452]
 [  0.4         20.02213112]
 [  0.5        -38.5151373 ]
 [  0.6         22.08241798]
 [  0.7        -58.17924339]
 [  0.8        -33.23197636]
 [  0.9         46.73979954]
 [  1.          -1.66986987]
 [  1.1        -43.99049691]
 [  1.14141667 -39.65764058]]","[[0.         1.96822281]
 [0.1        0.71149274]
 [0.2        0.47444189]
 [0.3        1.30095402]
 [0.4        1.46488426]
 [0.5        0.97233373]
 [0.6        0.80064838]
 [0.7        0.70983162]
 [0.8        0.45331315]
 [0.9        0.98403406]
 [1.         1.54220588]
 [1.1        0.41959049]
 [1.14141667 1.4912741 ]]",1,0.042
8723415159,f,25,english,4,5,french,2024-02-01 10:33:14.584194,False,2,321,sounds\french\audio/french_62.wav,"[[  0.         -52.98351622]
 [  0.1         41.9452913 ]
 [  0.2         27.14863171]
 [  0.3        -54.48392831]
 [  0.4         48.96305117]
 [  0.5         52.49279438]
 [  0.6        -54.82930634]
 [  0.7        -29.269296  ]
 [  0.8         10.51289817]
 [  0.9        -94.03876018]
 [  1.         -41.20080999]
 [  1.1         -5.53206987]
 [  1.14141667 -61.5430158 ]]","[[0.         1.55870609]
 [0.1        1.35311352]
 [0.2        0.47335516]
 [0.3        1.76891084]
 [0.4        0.57269594]
 [0.5        0.86345792]
 [0.6        0.07603424]
 [0.7        0.51094837]
 [0.8        1.28007913]
 [0.9        1.40918704]
 [1.         1.76611187]
 [1.1        1.23670321]
 [1.14141667 0.13563973]]",1,0.223
8723415159,f,25,english,4,5,french,2024-02-01 10:33:14.584194,False,2,322,sounds\french\audio/french_361.wav,"[[  0.          23.29794896]
 [  0.1        -48.63531672]
 [  0.2         -2.5255531 ]
 [  0.3          8.23722274]
 [  0.4         34.47158893]
 [  0.5         70.14095267]
 [  0.6         70.11175255]
 [  0.7        -68.72089611]
 [  0.8        -76.42640532]
 [  0.9        -24.66588818]
 [  1.         -16.02796708]
 [  1.1         -1.89725955]
 [  1.14141667 -29.04015326]]","[[0.         1.11856981]
 [0.1        1.10976385]
 [0.2        0.50841861]
 [0.3        1.92928184]
 [0.4        0.0595701 ]
 [0.5        1.017167  ]
 [0.6        1.17369511]
 [0.7        1.20889033]
 [0.8        0.48912562]
 [0.9        1.44370577]
 [1.         1.15037108]
 [1.1        0.53403618]
 [1.14141667 0.0482166 ]]",1,0.117
8723415159,f,25,english,4,5,french,2024-02-01 10:33:14.584194,False,2,323,sounds\french\audio/french_481.wav,"[[  0.         -72.69871862]
 [  0.1        -16.04832948]
 [  0.2         20.92273095]
 [  0.3         -7.90583134]
 [  0.4         52.2185679 ]
 [  0.5         54.85723666]
 [  0.6         53.33669569]
 [  0.7        -25.554879  ]
 [  0.8         64.63573473]
 [  0.9         36.81770312]
 [  1.          49.7946958 ]
 [  1.1        -12.06960957]
 [  1.14141667  12.77262901]]","[[0.         1.31481161]
 [0.1        0.5303762 ]
 [0.2        1.66790615]
 [0.3        0.3235164 ]
 [0.4        1.59315775]
 [0.5        0.96721806]
 [0.6        0.14181203]
 [0.7        0.99100706]
 [0.8        1.71926809]
 [0.9        1.97300287]
 [1.         1.34955358]
 [1.1        0.58588856]
 [1.14141667 1.02126832]]",1,1.014
8723415159,f,25,english,4,5,french,2024-02-01 10:33:14.584194,False,2,324,sounds\french\audio/french_818.wav,"[[  0.         -64.54705195]
 [  0.1        -91.61229029]
 [  0.2        -35.88082764]
 [  0.3         32.95002598]
 [  0.4         96.16696272]
 [  0.5        -48.65661003]
 [  0.6         25.73992633]
 [  0.7         -4.3414441 ]
 [  0.8        -93.84475958]
 [  0.9         -3.13234897]
 [  1.          47.01287281]
 [  1.1         59.21891233]
 [  1.14141667 -20.63650262]]","[[0.         0.40470359]
 [0.1        0.43509238]
 [0.2        1.96085692]
 [0.3        1.7784599 ]
 [0.4        0.64261238]
 [0.5        1.18267194]
 [0.6        1.67096599]
 [0.7        0.44090251]
 [0.8        0.30247145]
 [0.9        1.0976871 ]
 [1.         0.50195876]
 [1.1        0.49926872]
 [1.14141667 1.67818596]]",1,0.268
8723415159,f,25,english,4,5,french,2024-02-01 10:33:14.584194,False,2,325,sounds\french\audio/french_516.wav,"[[  0.          88.67453169]
 [  0.1        -32.80281116]
 [  0.2         70.97056018]
 [  0.3         30.08988452]
 [  0.4         24.3392461 ]
 [  0.5        -13.33118715]
 [  0.6        -31.56481899]
 [  0.7          3.03144729]
 [  0.8         98.28132693]
 [  0.9         59.24424313]
 [  1.         -78.84052304]
 [  1.1         33.79048953]
 [  1.14141667  15.60736791]]","[[0.         0.27330387]
 [0.1        1.74934986]
 [0.2        0.3871866 ]
 [0.3        1.42397991]
 [0.4        0.38699984]
 [0.5        1.44623849]
 [0.6        1.53806255]
 [0.7        1.95923825]
 [0.8        0.23970082]
 [0.9        1.02137392]
 [1.         1.07914984]
 [1.1        0.23007882]
 [1.14141667 1.42555187]]",1,0.163
8723415159,f,25,english,4,5,french,2024-02-01 10:33:14.584194,False,2,326,sounds\french\audio/french_243.wav,"[[  0.          17.25108473]
 [  0.1        -20.33347648]
 [  0.2          8.25978245]
 [  0.3         14.67718893]
 [  0.4          3.62309164]
 [  0.5        -26.91202001]
 [  0.6          1.76117794]
 [  0.7         82.78931534]
 [  0.8        -59.58469405]
 [  0.9         95.45283724]
 [  1.         -70.387836  ]
 [  1.1         -1.62586928]
 [  1.14141667  33.4744353 ]]","[[0.         1.25365904]
 [0.1        1.14169819]
 [0.2        1.44065481]
 [0.3        0.73865411]
 [0.4        0.87063922]
 [0.5        0.18666153]
 [0.6        0.86837268]
 [0.7        0.87403497]
 [0.8        1.44611176]
 [0.9        1.80188065]
 [1.         0.07283074]
 [1.1        0.30234458]
 [1.14141667 1.72190596]]",1,0.598
8723415159,f,25,english,4,5,french,2024-02-01 10:33:14.584194,False,2,327,sounds\french\audio/french_940.wav,"[[  0.         -25.91102363]
 [  0.1        -98.40103544]
 [  0.2        -27.15280701]
 [  0.3        -22.44143901]
 [  0.4        -35.46456579]
 [  0.5          4.61704007]
 [  0.6         -0.66829234]
 [  0.7        -40.91244747]
 [  0.8         -7.0277311 ]
 [  0.9        -54.36774404]
 [  1.         -70.25957044]
 [  1.1        -51.97264261]
 [  1.14141667 -21.44395954]]","[[0.         1.80936278]
 [0.1        0.189785  ]
 [0.2        0.92419409]
 [0.3        1.89569959]
 [0.4        1.98157399]
 [0.5        0.94447039]
 [0.6        1.15374369]
 [0.7        1.96635158]
 [0.8        0.84047268]
 [0.9        0.10425056]
 [1.         0.65084977]
 [1.1        0.80794246]
 [1.14141667 0.58048173]]",1,0.51
8723415159,f,25,english,4,5,french,2024-02-01 10:33:14.584194,False,2,328,sounds\french\audio/french_90.wav,"[[  0.          51.48746338]
 [  0.1        -41.52133944]
 [  0.2        -66.82034245]
 [  0.3        -31.91254058]
 [  0.4        -56.80874984]
 [  0.5         68.34440134]
 [  0.6         50.52930805]
 [  0.7         -1.54170659]
 [  0.8        -35.46235807]
 [  0.9        -26.78461092]
 [  1.         -18.44652471]
 [  1.1        -81.09353417]
 [  1.14141667 -49.88432299]]","[[0.         0.57454011]
 [0.1        0.30754534]
 [0.2        0.44353042]
 [0.3        1.82396512]
 [0.4        0.39997223]
 [0.5        0.81668605]
 [0.6        1.26467162]
 [0.7        1.853663  ]
 [0.8        1.62084754]
 [0.9        1.11562603]
 [1.         0.44778159]
 [1.1        1.37026097]
 [1.14141667 1.47783822]]",1,0.076
8723415159,f,25,english,4,5,french,2024-02-01 10:33:14.584194,False,2,329,sounds\french\audio/french_616.wav,"[[  0.         -67.48494332]
 [  0.1         39.05251255]
 [  0.2         34.40625214]
 [  0.3         73.22864181]
 [  0.4        -39.34822457]
 [  0.5         17.40717288]
 [  0.6        -91.49388448]
 [  0.7         34.60557006]
 [  0.8        -77.63461513]
 [  0.9         48.65476011]
 [  1.         -26.83527565]
 [  1.1        -26.92771749]
 [  1.14141667 -77.10207996]]","[[0.         0.38346383]
 [0.1        1.88348097]
 [0.2        0.11056124]
 [0.3        0.82898982]
 [0.4        0.73681928]
 [0.5        1.46703967]
 [0.6        0.99574773]
 [0.7        0.97495542]
 [0.8        1.89201741]
 [0.9        0.33100727]
 [1.         1.03515822]
 [1.1        0.77199145]
 [1.14141667 1.39029364]]",1,0.231
8723415159,f,25,english,4,5,french,2024-02-01 10:33:14.584194,False,2,330,sounds\french\audio/french_5.wav,"[[  0.          67.84600602]
 [  0.1         36.11985477]
 [  0.2         27.42056963]
 [  0.3        -51.17670217]
 [  0.4        -40.37414298]
 [  0.5        -24.2536038 ]
 [  0.6        -18.35468105]
 [  0.7         -4.97614975]
 [  0.8         48.20606938]
 [  0.9         15.99502717]
 [  1.         -62.82085154]
 [  1.1         -6.95701983]
 [  1.14141667 -66.75848558]]","[[0.         1.17631247]
 [0.1        0.77880018]
 [0.2        1.26171942]
 [0.3        1.79238294]
 [0.4        0.78218598]
 [0.5        0.94203558]
 [0.6        1.40818336]
 [0.7        1.58219359]
 [0.8        0.2158889 ]
 [0.9        1.46917473]
 [1.         1.96668642]
 [1.1        0.54762735]
 [1.14141667 0.46814151]]",1,0.134
8723415159,f,25,english,4,5,french,2024-02-01 10:33:14.584194,False,2,331,sounds\french\audio/french_161.wav,"[[  0.          20.36137567]
 [  0.1        -60.33746522]
 [  0.2          5.99231257]
 [  0.3        -36.52776351]
 [  0.4        -35.132175  ]
 [  0.5        -92.90011583]
 [  0.6         25.07982142]
 [  0.7         68.5675729 ]
 [  0.8         44.30497553]
 [  0.9         57.9688208 ]
 [  1.         -46.18143755]
 [  1.1          9.49457581]
 [  1.14141667   2.50045969]]","[[0.         1.69975886]
 [0.1        1.26867411]
 [0.2        1.18100414]
 [0.3        0.01673519]
 [0.4        0.32582412]
 [0.5        1.37385836]
 [0.6        1.12187003]
 [0.7        1.16788277]
 [0.8        0.06503182]
 [0.9        1.93558319]
 [1.         0.57803806]
 [1.1        1.95933902]
 [1.14141667 0.75547905]]",1,0.148
8723415159,f,25,english,4,5,french,2024-02-01 10:33:14.584194,False,2,332,sounds\french\audio/french_218.wav,"[[  0.         -65.19227421]
 [  0.1         34.40906095]
 [  0.2         72.03278264]
 [  0.3        -93.25918193]
 [  0.4        -48.17760156]
 [  0.5        -59.28864978]
 [  0.6        -60.96829321]
 [  0.7        -58.25364253]
 [  0.8        -53.24962366]
 [  0.9         31.56599557]
 [  1.          -2.35908096]
 [  1.1        -37.19614485]
 [  1.14141667 -40.34637593]]","[[0.         0.61249192]
 [0.1        0.29665162]
 [0.2        1.48815427]
 [0.3        0.64038213]
 [0.4        1.87335219]
 [0.5        0.64122513]
 [0.6        0.74305484]
 [0.7        0.67858591]
 [0.8        1.61300975]
 [0.9        1.99040507]
 [1.         0.02061714]
 [1.1        1.34418041]
 [1.14141667 1.11042485]]",0,0.461
8723415159,f,25,english,4,5,french,2024-02-01 10:33:14.584194,False,2,333,sounds\french\audio/french_132.wav,"[[  0.         -39.49992325]
 [  0.1         12.56464433]
 [  0.2        -19.66121961]
 [  0.3         17.53643983]
 [  0.4        -30.93006167]
 [  0.5         94.6587443 ]
 [  0.6        -17.81116059]
 [  0.7        -55.25606882]
 [  0.8        -83.71334373]
 [  0.9        -64.39924359]
 [  1.          -5.39233106]
 [  1.1        -83.89184369]
 [  1.14141667  20.67053146]]","[[0.         1.25715362]
 [0.1        1.38299609]
 [0.2        1.31353323]
 [0.3        0.57903675]
 [0.4        0.433016  ]
 [0.5        1.86936927]
 [0.6        1.74080781]
 [0.7        0.26557052]
 [0.8        1.15851722]
 [0.9        1.13892556]
 [1.         0.881703  ]
 [1.1        0.12509231]
 [1.14141667 1.62422028]]",1,0.228
8723415159,f,25,english,4,5,french,2024-02-01 10:33:14.584194,False,2,334,sounds\french\audio/french_781.wav,"[[  0.          84.62046586]
 [  0.1          0.55273741]
 [  0.2         -1.05016656]
 [  0.3         41.05059325]
 [  0.4        -23.88970434]
 [  0.5         18.20030305]
 [  0.6        -34.06427069]
 [  0.7         84.18138225]
 [  0.8        -97.87646304]
 [  0.9        -21.72004178]
 [  1.         -28.69608989]
 [  1.1         15.6289629 ]
 [  1.14141667 -63.05770327]]","[[0.         1.11387354]
 [0.1        0.65813446]
 [0.2        0.73416939]
 [0.3        1.64191047]
 [0.4        1.21743715]
 [0.5        1.19011626]
 [0.6        0.19715844]
 [0.7        0.47727482]
 [0.8        0.30669802]
 [0.9        0.85053209]
 [1.         1.49973626]
 [1.1        1.59744838]
 [1.14141667 1.01279781]]",1,0.066
8723415159,f,25,english,4,5,french,2024-02-01 10:33:14.584194,False,2,335,sounds\french\audio/french_504.wav,"[[  0.         -41.82140768]
 [  0.1         97.07530933]
 [  0.2         61.02388002]
 [  0.3        -27.18611965]
 [  0.4        -58.17917059]
 [  0.5          9.56156567]
 [  0.6         98.52665159]
 [  0.7         98.98825478]
 [  0.8         94.82792761]
 [  0.9         75.17568326]
 [  1.         -46.15164739]
 [  1.1         73.71983811]
 [  1.14141667  48.12743652]]","[[0.         1.84770239]
 [0.1        0.49171838]
 [0.2        0.47472033]
 [0.3        1.44367117]
 [0.4        0.04505535]
 [0.5        0.75389127]
 [0.6        1.37136318]
 [0.7        0.89733916]
 [0.8        1.83341516]
 [0.9        0.71992929]
 [1.         0.35031196]
 [1.1        0.61578475]
 [1.14141667 0.73246634]]",1,0.09
8723415159,f,25,english,4,5,french,2024-02-01 10:33:14.584194,False,2,336,sounds\french\audio/french_786.wav,"[[  0.          38.76441964]
 [  0.1        -17.22213434]
 [  0.2        -53.50411542]
 [  0.3         54.00869537]
 [  0.4         41.15972867]
 [  0.5          5.62640716]
 [  0.6        -40.24246399]
 [  0.7         37.40642031]
 [  0.8        -79.038697  ]
 [  0.9         -2.83409807]
 [  1.         -83.88540682]
 [  1.1        -36.64548828]
 [  1.14141667 -40.44439649]]","[[0.         1.14598177]
 [0.1        0.30884626]
 [0.2        1.46322181]
 [0.3        1.01008771]
 [0.4        0.8851671 ]
 [0.5        0.04808052]
 [0.6        0.01062828]
 [0.7        0.50762063]
 [0.8        1.45151939]
 [0.9        0.5557897 ]
 [1.         1.26457994]
 [1.1        0.26949796]
 [1.14141667 0.7448993 ]]",1,2.875
8723415159,f,25,english,4,5,french,2024-02-01 10:33:14.584194,False,2,337,sounds\french\audio/french_994.wav,"[[  0.         -13.19223039]
 [  0.1         22.42894848]
 [  0.2         96.57225016]
 [  0.3        -92.26156685]
 [  0.4         38.37731984]
 [  0.5         55.45251126]
 [  0.6         83.22524274]
 [  0.7         -6.38918762]
 [  0.8         -9.25087615]
 [  0.9          1.142834  ]
 [  1.         -14.25336243]
 [  1.1         83.86992227]
 [  1.14141667  46.80314452]]","[[0.         1.28697486]
 [0.1        1.16353002]
 [0.2        1.32994967]
 [0.3        1.53348662]
 [0.4        1.83809634]
 [0.5        1.30657224]
 [0.6        1.54447693]
 [0.7        1.7500677 ]
 [0.8        0.96606125]
 [0.9        0.23131782]
 [1.         0.54073787]
 [1.1        0.44425687]
 [1.14141667 0.67978189]]",1,1.223
8723415159,f,25,english,4,5,french,2024-02-01 10:33:14.584194,False,2,338,sounds\french\audio/french_619.wav,"[[  0.          37.43834517]
 [  0.1         19.08585466]
 [  0.2        -55.02113763]
 [  0.3         71.54314084]
 [  0.4        -65.77911802]
 [  0.5        -62.43541847]
 [  0.6        -37.71836926]
 [  0.7        -81.46973141]
 [  0.8        -48.66688444]
 [  0.9        -62.28645138]
 [  1.         -86.39361494]
 [  1.1         -0.89019508]
 [  1.14141667 -28.85036812]]","[[0.         0.27361377]
 [0.1        0.02727983]
 [0.2        1.5368766 ]
 [0.3        1.18403029]
 [0.4        1.92242857]
 [0.5        0.23418977]
 [0.6        1.08287507]
 [0.7        0.66039597]
 [0.8        1.24560316]
 [0.9        0.7202251 ]
 [1.         1.31835943]
 [1.1        1.07015468]
 [1.14141667 1.11609761]]",1,0.122
8723415159,f,25,english,4,5,french,2024-02-01 10:33:14.584194,False,2,339,sounds\french\audio/french_39.wav,"[[  0.          -4.83126405]
 [  0.1        -93.27719348]
 [  0.2          6.86097489]
 [  0.3        -20.15926332]
 [  0.4         33.74441491]
 [  0.5         22.90616984]
 [  0.6        -16.31202743]
 [  0.7         85.71450865]
 [  0.8        -47.16815434]
 [  0.9         -3.29174574]
 [  1.         -12.85211307]
 [  1.1        -36.64290563]
 [  1.14141667  43.40200967]]","[[0.         0.34625523]
 [0.1        1.84955679]
 [0.2        1.652821  ]
 [0.3        0.99362385]
 [0.4        1.06732755]
 [0.5        1.07307504]
 [0.6        1.93615989]
 [0.7        1.40760145]
 [0.8        1.81782779]
 [0.9        0.44143398]
 [1.         1.64365759]
 [1.1        0.38497075]
 [1.14141667 0.9148272 ]]",1,0.279
8723415159,f,25,english,4,5,french,2024-02-01 10:33:14.584194,False,2,340,sounds\french\audio/french_286.wav,"[[  0.         -91.05268085]
 [  0.1        -23.35186071]
 [  0.2         77.20107387]
 [  0.3        -92.81003859]
 [  0.4        -53.33460968]
 [  0.5         62.91812057]
 [  0.6         16.16077368]
 [  0.7         69.38476605]
 [  0.8        -57.13655676]
 [  0.9        -15.81173514]
 [  1.          -9.63797078]
 [  1.1        -63.31208094]
 [  1.14141667 -26.04631218]]","[[0.         1.46856287]
 [0.1        1.00691584]
 [0.2        0.46780603]
 [0.3        1.70781954]
 [0.4        0.99550458]
 [0.5        0.7172163 ]
 [0.6        1.39130844]
 [0.7        0.60440693]
 [0.8        1.66516304]
 [0.9        1.68938028]
 [1.         1.74581604]
 [1.1        1.61756959]
 [1.14141667 1.66119384]]",1,1.122
8723415159,f,25,english,4,5,french,2024-02-01 10:33:14.584194,False,2,341,sounds\french\audio/french_199.wav,"[[  0.          94.82681546]
 [  0.1        -99.32589547]
 [  0.2        -78.08329164]
 [  0.3         48.54945549]
 [  0.4        -55.35713623]
 [  0.5         14.26830721]
 [  0.6        -99.29695971]
 [  0.7         15.02714813]
 [  0.8         -2.77969287]
 [  0.9         47.22114937]
 [  1.          -7.42122426]
 [  1.1         -9.24704573]
 [  1.14141667 -65.8542189 ]]","[[0.         1.08752285]
 [0.1        1.17751559]
 [0.2        0.30459673]
 [0.3        0.73513396]
 [0.4        0.36114074]
 [0.5        1.70747304]
 [0.6        0.80626327]
 [0.7        0.80058463]
 [0.8        1.68930656]
 [0.9        1.36846234]
 [1.         1.62178929]
 [1.1        1.97685154]
 [1.14141667 1.49094293]]",1,0.17
8723415159,f,25,english,4,5,french,2024-02-01 10:33:14.584194,False,2,342,sounds\french\audio/french_179.wav,"[[  0.          25.9419935 ]
 [  0.1         19.59452003]
 [  0.2        -39.12260287]
 [  0.3        -85.67221141]
 [  0.4        -28.01674862]
 [  0.5         49.19367454]
 [  0.6        -21.07303116]
 [  0.7        -10.99512979]
 [  0.8        -63.30131829]
 [  0.9         27.287684  ]
 [  1.         -89.06945159]
 [  1.1         93.54728433]
 [  1.14141667   2.79573973]]","[[0.         1.43954963]
 [0.1        0.61151064]
 [0.2        0.89212855]
 [0.3        0.98387134]
 [0.4        1.06583998]
 [0.5        1.00296789]
 [0.6        1.40155458]
 [0.7        0.93788551]
 [0.8        1.6594551 ]
 [0.9        1.13621815]
 [1.         0.80909321]
 [1.1        1.67975458]
 [1.14141667 1.20769065]]",1,0.215
8723415159,f,25,english,4,5,french,2024-02-01 10:33:14.584194,False,2,343,sounds\french\audio/french_865.wav,"[[  0.         -35.98136802]
 [  0.1        -47.09864116]
 [  0.2        -46.16991186]
 [  0.3         66.92600058]
 [  0.4         58.38978261]
 [  0.5         -6.27861664]
 [  0.6        -65.83636463]
 [  0.7        -30.20389067]
 [  0.8        -35.90961147]
 [  0.9         87.06351282]
 [  1.         -73.61130369]
 [  1.1        -70.4874465 ]
 [  1.14141667  34.05043966]]","[[0.         1.52034056]
 [0.1        1.94992054]
 [0.2        1.99567133]
 [0.3        0.0816066 ]
 [0.4        1.80097387]
 [0.5        1.19034433]
 [0.6        1.647248  ]
 [0.7        0.89939103]
 [0.8        0.3790929 ]
 [0.9        0.26606669]
 [1.         0.3799436 ]
 [1.1        1.04157406]
 [1.14141667 1.02434748]]",1,1.314
8723415159,f,25,english,4,5,french,2024-02-01 10:33:14.584194,False,2,344,sounds\french\audio/french_550.wav,"[[  0.          72.6201006 ]
 [  0.1         55.97657534]
 [  0.2         13.52543227]
 [  0.3        -81.349724  ]
 [  0.4         99.86498811]
 [  0.5         16.87534827]
 [  0.6         66.9812192 ]
 [  0.7        -75.38343533]
 [  0.8          5.7329485 ]
 [  0.9         58.05585557]
 [  1.          -3.33377945]
 [  1.1        -43.74893274]
 [  1.14141667 -86.42154795]]","[[0.         1.67033206]
 [0.1        0.31629047]
 [0.2        1.6455345 ]
 [0.3        0.71516618]
 [0.4        1.73006106]
 [0.5        0.0344878 ]
 [0.6        0.63862909]
 [0.7        1.07196046]
 [0.8        1.84433576]
 [0.9        0.95400442]
 [1.         0.19158544]
 [1.1        1.26583767]
 [1.14141667 0.99784974]]",0,0.476
8723415159,f,25,english,4,5,french,2024-02-01 10:33:14.584194,False,2,345,sounds\french\audio/french_997.wav,"[[  0.          10.01615928]
 [  0.1        -31.7574677 ]
 [  0.2          2.7154438 ]
 [  0.3        -79.91650454]
 [  0.4          8.77466148]
 [  0.5        -16.22256487]
 [  0.6        -60.89392268]
 [  0.7        -24.52842539]
 [  0.8        -19.72610301]
 [  0.9        -89.9387941 ]
 [  1.          38.50843253]
 [  1.1         62.26606254]
 [  1.14141667  46.03408292]]","[[0.         1.51695933]
 [0.1        1.40378883]
 [0.2        1.52016823]
 [0.3        1.1088133 ]
 [0.4        0.49857821]
 [0.5        1.0829469 ]
 [0.6        0.81899516]
 [0.7        0.89305884]
 [0.8        0.05024955]
 [0.9        0.47019022]
 [1.         0.78624029]
 [1.1        1.1092027 ]
 [1.14141667 0.99852276]]",1,0.841
8723415159,f,25,english,4,5,french,2024-02-01 10:33:14.584194,False,2,346,sounds\french\audio/french_567.wav,"[[  0.          12.78083509]
 [  0.1        -79.40204938]
 [  0.2        -50.21372302]
 [  0.3        -51.67969251]
 [  0.4        -27.99822561]
 [  0.5        -28.39039693]
 [  0.6         74.76233232]
 [  0.7         13.04004868]
 [  0.8         -6.41363519]
 [  0.9         14.9406952 ]
 [  1.         -62.25200395]
 [  1.1        -27.15225242]
 [  1.14141667 -25.69527266]]","[[0.         0.16001967]
 [0.1        1.24238911]
 [0.2        0.06712512]
 [0.3        0.66368024]
 [0.4        1.43491088]
 [0.5        0.56139293]
 [0.6        0.46919017]
 [0.7        0.06468162]
 [0.8        1.61538363]
 [0.9        0.93302824]
 [1.         0.94697181]
 [1.1        1.360707  ]
 [1.14141667 0.18426709]]",1,0.14
8723415159,f,25,english,4,5,french,2024-02-01 10:33:14.584194,False,2,347,sounds\french\audio/french_112.wav,"[[  0.          -8.67519004]
 [  0.1         92.32686685]
 [  0.2        -90.11400299]
 [  0.3        -70.26652749]
 [  0.4         90.1952046 ]
 [  0.5        -18.57411381]
 [  0.6         87.02651396]
 [  0.7         74.95745067]
 [  0.8        -76.86566846]
 [  0.9        -17.37300567]
 [  1.          66.02082776]
 [  1.1         74.04162453]
 [  1.14141667  30.79891374]]","[[0.         0.05511238]
 [0.1        0.5303996 ]
 [0.2        1.12381403]
 [0.3        0.96995279]
 [0.4        1.443926  ]
 [0.5        0.7152831 ]
 [0.6        1.98165732]
 [0.7        1.64696502]
 [0.8        0.33650489]
 [0.9        0.64053091]
 [1.         1.69815657]
 [1.1        1.28891834]
 [1.14141667 1.86060704]]",1,0.056
8723415159,f,25,english,4,5,french,2024-02-01 10:33:14.584194,False,2,348,sounds\french\audio/french_626.wav,"[[  0.          10.19360292]
 [  0.1         82.13961964]
 [  0.2        -91.88565353]
 [  0.3        -30.24557652]
 [  0.4        -43.59153267]
 [  0.5        -15.21775232]
 [  0.6         37.21649368]
 [  0.7         57.1809589 ]
 [  0.8        -44.2684999 ]
 [  0.9         16.56515744]
 [  1.         -45.54877222]
 [  1.1         41.50051327]
 [  1.14141667 -53.34907956]]","[[0.         0.93552428]
 [0.1        1.5639108 ]
 [0.2        0.54149797]
 [0.3        1.77619129]
 [0.4        1.46344574]
 [0.5        0.20286753]
 [0.6        1.6090377 ]
 [0.7        1.90666988]
 [0.8        1.70214312]
 [0.9        0.19372922]
 [1.         0.55446441]
 [1.1        0.42094173]
 [1.14141667 1.23447696]]",1,0.918
8723415159,f,25,english,4,5,french,2024-02-01 10:33:14.584194,False,2,349,sounds\french\audio/french_606.wav,"[[  0.          29.70975547]
 [  0.1         28.42644231]
 [  0.2         21.59399465]
 [  0.3        -85.78360108]
 [  0.4        -86.96471331]
 [  0.5        -42.98154559]
 [  0.6        -24.40718185]
 [  0.7         40.30920649]
 [  0.8         60.29967336]
 [  0.9        -28.97197282]
 [  1.          20.58306705]
 [  1.1         36.82833662]
 [  1.14141667 -96.86148063]]","[[0.         1.48129541]
 [0.1        1.50796462]
 [0.2        1.95094467]
 [0.3        1.21516633]
 [0.4        1.69229455]
 [0.5        1.09993922]
 [0.6        1.7732578 ]
 [0.7        0.96640662]
 [0.8        1.55948905]
 [0.9        0.42676263]
 [1.         1.41137434]
 [1.1        1.11539435]
 [1.14141667 1.96267589]]",1,0.156
8723415159,f,25,english,4,5,french,2024-02-01 10:33:14.584194,False,2,350,sounds\french\audio/french_472.wav,"[[  0.         -31.33353593]
 [  0.1        -49.49917903]
 [  0.2        -71.21753347]
 [  0.3         93.90241079]
 [  0.4        -15.9291914 ]
 [  0.5        -17.91277509]
 [  0.6        -92.82206414]
 [  0.7          9.95802513]
 [  0.8          2.63305448]
 [  0.9        -21.84239236]
 [  1.           8.18231827]
 [  1.1        -31.98207743]
 [  1.14141667 -51.9330912 ]]","[[0.         0.89232459]
 [0.1        0.0337069 ]
 [0.2        1.85491701]
 [0.3        1.04793629]
 [0.4        0.66120859]
 [0.5        1.31546264]
 [0.6        0.75122354]
 [0.7        0.85681732]
 [0.8        1.03382488]
 [0.9        0.59134372]
 [1.         1.03865283]
 [1.1        0.08528466]
 [1.14141667 1.61155129]]",1,0.961
8723415159,f,25,english,4,5,french,2024-02-01 10:33:14.584194,False,2,351,sounds\french\audio/french_456.wav,"[[  0.          -2.26654668]
 [  0.1        -20.96535275]
 [  0.2        -92.77471831]
 [  0.3        -41.09891514]
 [  0.4         21.41579928]
 [  0.5         84.32473672]
 [  0.6         -7.32763276]
 [  0.7         52.18499563]
 [  0.8        -68.20477543]
 [  0.9        -22.99427194]
 [  1.          66.06872795]
 [  1.1         60.52269561]
 [  1.14141667 -21.51058351]]","[[0.         0.86240832]
 [0.1        0.10770288]
 [0.2        0.29391464]
 [0.3        0.90200695]
 [0.4        0.53087956]
 [0.5        0.6185453 ]
 [0.6        1.44054295]
 [0.7        0.32966842]
 [0.8        1.53912075]
 [0.9        0.23010323]
 [1.         1.59369   ]
 [1.1        1.29137405]
 [1.14141667 0.33848916]]",0,0.497
8723415159,f,25,english,4,5,french,2024-02-01 10:33:14.584194,False,2,352,sounds\french\audio/french_455.wav,"[[  0.          97.23318518]
 [  0.1         48.08639517]
 [  0.2         61.8031045 ]
 [  0.3         44.32636259]
 [  0.4         63.17767598]
 [  0.5        -54.41448708]
 [  0.6        -53.53900017]
 [  0.7        -49.92334627]
 [  0.8         90.53366068]
 [  0.9        -49.34840938]
 [  1.         -93.62757111]
 [  1.1         76.94440904]
 [  1.14141667 -12.7256322 ]]","[[0.         1.42070847]
 [0.1        1.64728295]
 [0.2        0.52625226]
 [0.3        1.94807365]
 [0.4        1.27082443]
 [0.5        0.79589507]
 [0.6        1.19859135]
 [0.7        0.85657153]
 [0.8        0.02054138]
 [0.9        0.22486809]
 [1.         0.86410151]
 [1.1        0.57262843]
 [1.14141667 1.52956366]]",1,0.616
8723415159,f,25,english,4,5,french,2024-02-01 10:33:14.584194,False,2,353,sounds\french\audio/french_537.wav,"[[  0.         -70.42232238]
 [  0.1        -63.79861737]
 [  0.2         80.15379792]
 [  0.3        -34.87323386]
 [  0.4        -97.49401193]
 [  0.5        -75.02904728]
 [  0.6         88.01304316]
 [  0.7         57.25012965]
 [  0.8        -34.47690346]
 [  0.9          2.26660201]
 [  1.         -37.62355762]
 [  1.1         -8.96459096]
 [  1.14141667 -65.74543059]]","[[0.         1.1949198 ]
 [0.1        0.86017995]
 [0.2        1.22540727]
 [0.3        0.58113387]
 [0.4        0.63475004]
 [0.5        1.70548795]
 [0.6        0.65284568]
 [0.7        1.05406598]
 [0.8        1.3603352 ]
 [0.9        1.51124063]
 [1.         1.53115779]
 [1.1        1.18349734]
 [1.14141667 1.59300288]]",1,0.191
8723415159,f,25,english,4,5,french,2024-02-01 10:33:14.584194,False,2,354,sounds\french\audio/french_517.wav,"[[  0.           2.38244996]
 [  0.1        -37.81840567]
 [  0.2        -78.33811602]
 [  0.3         50.26182329]
 [  0.4         84.91055303]
 [  0.5         89.35919119]
 [  0.6         10.55033556]
 [  0.7        -62.97285269]
 [  0.8         27.87021553]
 [  0.9         64.04470315]
 [  1.          53.97064719]
 [  1.1         32.82263519]
 [  1.14141667  -0.48515027]]","[[0.         1.32997903]
 [0.1        1.68452587]
 [0.2        0.83936606]
 [0.3        0.89015853]
 [0.4        1.37002303]
 [0.5        0.14366637]
 [0.6        0.91107546]
 [0.7        1.31587642]
 [0.8        0.94330464]
 [0.9        0.26569161]
 [1.         0.58019556]
 [1.1        1.20336752]
 [1.14141667 0.66075611]]",1,1.107
8723415159,f,25,english,4,5,french,2024-02-01 10:33:14.584194,False,2,355,sounds\french\audio/french_278.wav,"[[  0.          44.87958556]
 [  0.1         54.45371721]
 [  0.2         45.64758291]
 [  0.3        -16.61950776]
 [  0.4        -83.29715796]
 [  0.5        -45.12452767]
 [  0.6         81.71688846]
 [  0.7        -84.47047535]
 [  0.8         62.79515498]
 [  0.9        -78.3783001 ]
 [  1.          35.83056969]
 [  1.1         -9.69110421]
 [  1.14141667 -51.62343027]]","[[0.         1.76324183]
 [0.1        0.77779847]
 [0.2        0.82423998]
 [0.3        1.09492101]
 [0.4        0.39451547]
 [0.5        1.64255071]
 [0.6        0.88909591]
 [0.7        0.77482277]
 [0.8        0.09065163]
 [0.9        1.7734822 ]
 [1.         1.91427457]
 [1.1        1.4912645 ]
 [1.14141667 0.92742676]]",1,0.184
8723415159,f,25,english,4,5,french,2024-02-01 10:33:14.584194,False,2,356,sounds\french\audio/french_171.wav,"[[  0.          81.84887044]
 [  0.1         20.60087682]
 [  0.2        -94.27735984]
 [  0.3         30.99558628]
 [  0.4        -47.7542303 ]
 [  0.5        -47.09277453]
 [  0.6         47.01705974]
 [  0.7         48.99995621]
 [  0.8        -13.19980806]
 [  0.9        -48.38276605]
 [  1.          78.75116821]
 [  1.1         -8.4576991 ]
 [  1.14141667  41.78915191]]","[[0.         0.37970225]
 [0.1        0.0073683 ]
 [0.2        1.12118048]
 [0.3        1.09961768]
 [0.4        0.2166971 ]
 [0.5        0.90306543]
 [0.6        0.9472437 ]
 [0.7        1.40277075]
 [0.8        0.42080477]
 [0.9        1.67472117]
 [1.         1.78003058]
 [1.1        1.09259654]
 [1.14141667 1.82740095]]",1,0.928
8723415159,f,25,english,4,5,french,2024-02-01 10:33:14.584194,False,2,357,sounds\french\audio/french_128.wav,"[[  0.          35.7679876 ]
 [  0.1         52.90317345]
 [  0.2        -89.9536453 ]
 [  0.3         64.92635162]
 [  0.4         -7.89759856]
 [  0.5        -21.26918839]
 [  0.6        -93.18825811]
 [  0.7         -6.82941045]
 [  0.8        -24.44634709]
 [  0.9          8.91339556]
 [  1.         -93.33477606]
 [  1.1         30.80864746]
 [  1.14141667  91.54187856]]","[[0.         0.90271781]
 [0.1        1.06280114]
 [0.2        1.09994753]
 [0.3        1.21358528]
 [0.4        1.4727885 ]
 [0.5        0.21953324]
 [0.6        0.69112171]
 [0.7        1.7129229 ]
 [0.8        1.44917263]
 [0.9        1.22059532]
 [1.         1.98933018]
 [1.1        1.08286961]
 [1.14141667 1.3463941 ]]",1,0.372
8723415159,f,25,english,4,5,french,2024-02-01 10:33:14.584194,False,2,358,sounds\french\audio/french_377.wav,"[[  0.         -70.73601698]
 [  0.1         72.22372487]
 [  0.2        -99.25541526]
 [  0.3          4.63765752]
 [  0.4         38.03269156]
 [  0.5          7.49856141]
 [  0.6        -81.25223021]
 [  0.7         -5.18362572]
 [  0.8        -74.84417606]
 [  0.9         -5.31350676]
 [  1.          76.28092315]
 [  1.1         -5.46975296]
 [  1.14141667  48.89221977]]","[[0.         1.03691608]
 [0.1        1.10161831]
 [0.2        0.07422673]
 [0.3        0.35917604]
 [0.4        0.08877166]
 [0.5        0.38120891]
 [0.6        1.17966097]
 [0.7        0.65215157]
 [0.8        0.96101937]
 [0.9        1.24906284]
 [1.         1.82068951]
 [1.1        1.73070441]
 [1.14141667 1.51814834]]",1,0.82
8723415159,f,25,english,4,5,french,2024-02-01 10:33:14.584194,False,2,359,sounds\french\audio/french_546.wav,"[[  0.         -13.20812947]
 [  0.1         -8.37020236]
 [  0.2         57.48789341]
 [  0.3        -11.78127808]
 [  0.4        -26.00594078]
 [  0.5         -3.33648258]
 [  0.6         -1.73835095]
 [  0.7         17.1570367 ]
 [  0.8         37.36365726]
 [  0.9          8.15656678]
 [  1.          -8.08158861]
 [  1.1          5.60886703]
 [  1.14141667 -59.33959304]]","[[0.         0.61614772]
 [0.1        1.06411131]
 [0.2        1.60441563]
 [0.3        0.66409069]
 [0.4        1.03544668]
 [0.5        0.99289071]
 [0.6        0.28199712]
 [0.7        0.98444234]
 [0.8        0.65105351]
 [0.9        1.40961932]
 [1.         1.13622797]
 [1.1        0.04199534]
 [1.14141667 1.17471858]]",1,1.936
8723415159,f,25,english,4,5,french,2024-02-01 10:33:14.584194,False,2,360,sounds\french\audio/french_165.wav,"[[  0.         -30.57242851]
 [  0.1         14.97931662]
 [  0.2        -12.73059909]
 [  0.3        -76.6340538 ]
 [  0.4        -39.77201686]
 [  0.5         71.31806432]
 [  0.6         10.64683686]
 [  0.7        -39.62288549]
 [  0.8         30.96552198]
 [  0.9        -10.22867333]
 [  1.          10.06380936]
 [  1.1         46.55251325]
 [  1.14141667 -68.18565714]]","[[0.         0.37315661]
 [0.1        1.05022762]
 [0.2        1.01492906]
 [0.3        1.93408877]
 [0.4        1.23235421]
 [0.5        1.09863872]
 [0.6        1.73842976]
 [0.7        1.7696099 ]
 [0.8        0.64569778]
 [0.9        0.76121888]
 [1.         1.37138018]
 [1.1        0.47603266]
 [1.14141667 0.62197503]]",1,0.32
8723415159,f,25,english,4,5,french,2024-02-01 10:33:14.584194,False,2,361,sounds\french\audio/french_929.wav,"[[  0.           0.19628559]
 [  0.1        -65.19269942]
 [  0.2         85.79365551]
 [  0.3        -49.06561831]
 [  0.4        -14.51529051]
 [  0.5        -95.48834235]
 [  0.6        -33.23898354]
 [  0.7         41.75408234]
 [  0.8         37.64227738]
 [  0.9        -32.44919392]
 [  1.          89.54900566]
 [  1.1        -65.51395412]
 [  1.14141667  73.05695709]]","[[0.         1.2735275 ]
 [0.1        1.04239801]
 [0.2        1.14016966]
 [0.3        1.26076885]
 [0.4        1.79864451]
 [0.5        0.45349568]
 [0.6        0.33561818]
 [0.7        0.17319501]
 [0.8        1.78715813]
 [0.9        1.8240929 ]
 [1.         1.61299985]
 [1.1        1.74226988]
 [1.14141667 1.79803329]]",1,0.04
8723415159,f,25,english,4,5,french,2024-02-01 10:33:14.584194,False,2,362,sounds\french\audio/french_474.wav,"[[  0.         -88.88128127]
 [  0.1        -87.53662443]
 [  0.2        -73.33591132]
 [  0.3        -58.54144931]
 [  0.4         49.04087255]
 [  0.5        -72.76699617]
 [  0.6         68.67659858]
 [  0.7         -5.36671532]
 [  0.8        -23.75884682]
 [  0.9         13.28179405]
 [  1.         -83.28350747]
 [  1.1        -48.16746349]
 [  1.14141667 -41.26290456]]","[[0.         1.51183911]
 [0.1        1.47760971]
 [0.2        0.71617893]
 [0.3        1.42177569]
 [0.4        1.82178252]
 [0.5        1.89638194]
 [0.6        1.23818799]
 [0.7        1.42903819]
 [0.8        1.21070139]
 [0.9        0.77635249]
 [1.         1.90244772]
 [1.1        0.64536469]
 [1.14141667 0.1097674 ]]",1,0.176
8723415159,f,25,english,4,5,french,2024-02-01 10:33:14.584194,False,2,363,sounds\french\audio/french_25.wav,"[[  0.         -88.8010065 ]
 [  0.1         83.90276251]
 [  0.2         51.8262266 ]
 [  0.3         48.13028071]
 [  0.4        -37.19834642]
 [  0.5         -5.67180941]
 [  0.6        -86.49516365]
 [  0.7         32.53649108]
 [  0.8         10.53448385]
 [  0.9          4.35447071]
 [  1.           5.08898812]
 [  1.1        -44.09304524]
 [  1.14141667  31.3470305 ]]","[[0.         0.41592312]
 [0.1        0.42533982]
 [0.2        0.45115442]
 [0.3        1.45187216]
 [0.4        0.31450239]
 [0.5        0.26706037]
 [0.6        1.06667064]
 [0.7        1.35764257]
 [0.8        0.06237769]
 [0.9        1.69931779]
 [1.         0.82831714]
 [1.1        0.06199876]
 [1.14141667 1.53448447]]",1,0.42
8723415159,f,25,english,4,5,french,2024-02-01 10:33:14.584194,False,2,364,sounds\french\audio/french_365.wav,"[[  0.          31.61059752]
 [  0.1        -20.95390516]
 [  0.2         91.80675495]
 [  0.3         67.5510561 ]
 [  0.4        -93.71218293]
 [  0.5         45.32858601]
 [  0.6         84.27621414]
 [  0.7         28.03701536]
 [  0.8        -71.05958582]
 [  0.9        -23.72094953]
 [  1.          18.29479384]
 [  1.1        -12.82863724]
 [  1.14141667  67.22118203]]","[[0.         1.42310817]
 [0.1        1.52633282]
 [0.2        1.22938312]
 [0.3        1.26382278]
 [0.4        1.53091844]
 [0.5        0.15378173]
 [0.6        0.48106393]
 [0.7        1.79415704]
 [0.8        1.6034925 ]
 [0.9        1.30852528]
 [1.         0.76895664]
 [1.1        0.54165009]
 [1.14141667 0.4698946 ]]",1,1.152
8723415159,f,25,english,4,5,french,2024-02-01 10:33:14.584194,False,2,365,sounds\french\audio/french_320.wav,"[[  0.          29.0077802 ]
 [  0.1         57.10058807]
 [  0.2        -58.71455915]
 [  0.3          9.47208013]
 [  0.4         33.55679918]
 [  0.5         30.29342924]
 [  0.6         35.793456  ]
 [  0.7         48.27550343]
 [  0.8          2.54884744]
 [  0.9         11.92843599]
 [  1.         -58.08388318]
 [  1.1        -15.70500576]
 [  1.14141667   2.2106655 ]]","[[0.         1.65272351]
 [0.1        1.38707965]
 [0.2        0.9425519 ]
 [0.3        1.24337659]
 [0.4        0.6156105 ]
 [0.5        0.19227327]
 [0.6        1.76797578]
 [0.7        1.38419028]
 [0.8        0.97487745]
 [0.9        1.02395527]
 [1.         1.53932166]
 [1.1        1.67437481]
 [1.14141667 0.12258709]]",1,0.07
8723415159,f,25,english,4,5,french,2024-02-01 10:33:14.584194,False,2,366,sounds\french\audio/french_885.wav,"[[  0.         -60.75569013]
 [  0.1         44.17949366]
 [  0.2        -36.067624  ]
 [  0.3        -54.95940224]
 [  0.4         48.98484611]
 [  0.5        -17.34659064]
 [  0.6         52.59755832]
 [  0.7        -30.51173002]
 [  0.8         23.61546759]
 [  0.9        -81.95380549]
 [  1.         -11.62298582]
 [  1.1        -37.1929329 ]
 [  1.14141667 -35.94133053]]","[[0.         1.16892649]
 [0.1        1.64447348]
 [0.2        1.38345432]
 [0.3        1.06178083]
 [0.4        0.43047686]
 [0.5        0.42470026]
 [0.6        0.55271392]
 [0.7        1.06332536]
 [0.8        1.58934229]
 [0.9        0.75323778]
 [1.         0.05941991]
 [1.1        1.64232697]
 [1.14141667 1.35653046]]",1,0.182
8723415159,f,25,english,4,5,french,2024-02-01 10:33:14.584194,False,2,367,sounds\french\audio/french_359.wav,"[[  0.          -9.05515543]
 [  0.1          1.08739123]
 [  0.2        -29.10342347]
 [  0.3         19.21147574]
 [  0.4        -75.28414105]
 [  0.5         52.91936795]
 [  0.6         -3.66728601]
 [  0.7         41.33358787]
 [  0.8         -8.82265271]
 [  0.9         25.45822687]
 [  1.         -33.90384395]
 [  1.1          9.81213178]
 [  1.14141667  17.50953352]]","[[0.         0.52574645]
 [0.1        1.23916033]
 [0.2        1.31321142]
 [0.3        1.31016355]
 [0.4        0.63387328]
 [0.5        1.25446966]
 [0.6        1.62147862]
 [0.7        1.37437421]
 [0.8        0.95215241]
 [0.9        1.72535424]
 [1.         0.25742108]
 [1.1        1.52714823]
 [1.14141667 0.81302771]]",1,0.234
8723415159,f,25,english,4,5,french,2024-02-01 10:33:14.584194,False,2,368,sounds\french\audio/french_923.wav,"[[  0.          -7.04216505]
 [  0.1        -11.87234916]
 [  0.2        -44.2803311 ]
 [  0.3        -33.48539095]
 [  0.4        -30.66632825]
 [  0.5          5.12098552]
 [  0.6         76.31297074]
 [  0.7        -95.75714611]
 [  0.8        -15.0883645 ]
 [  0.9        -66.51821809]
 [  1.          24.92927073]
 [  1.1         28.15773493]
 [  1.14141667 -73.78496191]]","[[0.         1.22183085]
 [0.1        1.49208882]
 [0.2        1.66594676]
 [0.3        1.20857206]
 [0.4        1.55100571]
 [0.5        1.20066823]
 [0.6        0.51155743]
 [0.7        1.22623112]
 [0.8        1.3067619 ]
 [0.9        0.27321929]
 [1.         1.50495187]
 [1.1        0.60510891]
 [1.14141667 0.95799251]]",1,0.765
8723415159,f,25,english,4,5,french,2024-02-01 10:33:14.584194,False,2,369,sounds\french\audio/french_153.wav,"[[  0.         -42.01574029]
 [  0.1        -90.00143585]
 [  0.2        -43.7259183 ]
 [  0.3         11.44022212]
 [  0.4         88.748088  ]
 [  0.5        -52.31400469]
 [  0.6         87.18732736]
 [  0.7        -86.03959727]
 [  0.8          8.69100054]
 [  0.9         62.86212057]
 [  1.          27.92700795]
 [  1.1         39.59984074]
 [  1.14141667 -14.92872681]]","[[0.         0.84439614]
 [0.1        0.44297776]
 [0.2        0.69214518]
 [0.3        1.09273238]
 [0.4        0.54928819]
 [0.5        0.96507272]
 [0.6        1.56155988]
 [0.7        1.86632658]
 [0.8        0.92278907]
 [0.9        0.59982574]
 [1.         0.05271929]
 [1.1        0.68548108]
 [1.14141667 1.34366794]]",1,0.431
8723415159,f,25,english,4,5,french,2024-02-01 10:33:14.584194,False,2,370,sounds\french\audio/french_635.wav,"[[  0.         -32.006425  ]
 [  0.1         98.74707192]
 [  0.2         19.43104605]
 [  0.3        -83.9130263 ]
 [  0.4        -14.55275882]
 [  0.5        -34.15529229]
 [  0.6         22.38890545]
 [  0.7        -11.42027576]
 [  0.8         88.98766127]
 [  0.9        -94.51548481]
 [  1.         -45.63563989]
 [  1.1         27.73920543]
 [  1.14141667 -59.05501484]]","[[0.         0.3460517 ]
 [0.1        1.36854871]
 [0.2        0.57268428]
 [0.3        1.65457572]
 [0.4        1.20009912]
 [0.5        0.09946247]
 [0.6        0.27678562]
 [0.7        0.68226029]
 [0.8        0.27295014]
 [0.9        1.75198478]
 [1.         0.9844266 ]
 [1.1        0.17766763]
 [1.14141667 0.29826397]]",1,0.644
8723415159,f,25,english,4,5,french,2024-02-01 10:33:14.584194,False,2,371,sounds\french\audio/french_293.wav,"[[  0.          13.88157175]
 [  0.1          2.23867218]
 [  0.2        -40.7386732 ]
 [  0.3          6.10244728]
 [  0.4         32.8477373 ]
 [  0.5        -60.22275726]
 [  0.6        -73.78584082]
 [  0.7        -39.23060497]
 [  0.8         13.36329351]
 [  0.9         16.41932854]
 [  1.          44.79400967]
 [  1.1         34.65582677]
 [  1.14141667  28.28906565]]","[[0.         0.60053573]
 [0.1        1.35819194]
 [0.2        0.02818672]
 [0.3        1.13378846]
 [0.4        1.04896096]
 [0.5        1.31947449]
 [0.6        0.64719086]
 [0.7        1.73705065]
 [0.8        1.2092819 ]
 [0.9        0.87930659]
 [1.         1.38260782]
 [1.1        1.24528476]
 [1.14141667 1.87043564]]",1,0.314
8723415159,f,25,english,4,5,french,2024-02-01 10:33:14.584194,False,2,372,sounds\french\audio/french_195.wav,"[[  0.         -94.44814465]
 [  0.1         -8.36271039]
 [  0.2        -97.87108345]
 [  0.3          9.38810088]
 [  0.4         -5.68639094]
 [  0.5        -56.99964644]
 [  0.6        -39.66675761]
 [  0.7        -15.03436473]
 [  0.8        -93.37490315]
 [  0.9         -8.95214025]
 [  1.         -32.67851066]
 [  1.1         93.76301079]
 [  1.14141667   4.14523698]]","[[0.         1.01221837]
 [0.1        1.79960209]
 [0.2        1.85291705]
 [0.3        0.83034956]
 [0.4        0.73814621]
 [0.5        0.06268946]
 [0.6        0.32946706]
 [0.7        0.25786145]
 [0.8        0.98424063]
 [0.9        1.23440392]
 [1.         0.86929082]
 [1.1        0.24226685]
 [1.14141667 0.71121181]]",1,0.271
8723415159,f,25,english,4,5,french,2024-02-01 10:33:14.584194,False,2,373,sounds\french\audio/french_689.wav,"[[  0.          18.71690093]
 [  0.1         70.88150917]
 [  0.2         23.29873522]
 [  0.3        -19.83408775]
 [  0.4        -88.59539457]
 [  0.5          3.33992371]
 [  0.6        -73.90842815]
 [  0.7         27.77232776]
 [  0.8         47.07023028]
 [  0.9         58.29803031]
 [  1.          66.78853229]
 [  1.1        -39.3403084 ]
 [  1.14141667  45.51603845]]","[[0.         1.63903865]
 [0.1        1.28668292]
 [0.2        0.4448863 ]
 [0.3        1.46840806]
 [0.4        0.66601538]
 [0.5        0.03688538]
 [0.6        0.48708825]
 [0.7        0.83201182]
 [0.8        0.98489988]
 [0.9        0.70021639]
 [1.         1.48154334]
 [1.1        0.31951264]
 [1.14141667 1.22903486]]",1,0.238
