subj,sex,age,language,english,french,native_lang,date,practice,block,trial,stim,pitch,stretch,response,rt
8817605319,m,22,french,4,5,french,2024-02-09 14:59:39.832256,True,0,0,sounds\french\audio/french_149.wav,"[[  0.         -39.24757442]
 [  0.1        -86.18219657]
 [  0.2        -13.61536358]
 [  0.3        -24.98862495]
 [  0.4        -41.39150035]
 [  0.5        -47.18477201]
 [  0.6        -50.56052992]
 [  0.7          3.25241095]
 [  0.8         62.92939976]
 [  0.9         27.80744465]
 [  1.          16.1564755 ]
 [  1.1        -49.86608269]
 [  1.14141667  76.57182651]]","[[0.         0.32520083]
 [0.1        0.94148503]
 [0.2        0.80565461]
 [0.3        1.81554076]
 [0.4        0.11227969]
 [0.5        0.07859168]
 [0.6        1.79560045]
 [0.7        1.45138785]
 [0.8        0.63051937]
 [0.9        1.00831203]
 [1.         1.89158982]
 [1.1        1.26890157]
 [1.14141667 0.76086528]]",0,2.609
8817605319,m,22,french,4,5,french,2024-02-09 14:59:39.832256,True,0,1,sounds\french\audio/french_860.wav,"[[  0.          71.07945552]
 [  0.1          1.72594823]
 [  0.2         19.45974481]
 [  0.3         86.97846053]
 [  0.4         79.47360606]
 [  0.5         53.5019262 ]
 [  0.6        -89.17896142]
 [  0.7        -98.52094084]
 [  0.8         20.28209343]
 [  0.9         88.49530421]
 [  1.         -80.39175175]
 [  1.1         51.29541508]
 [  1.14141667 -36.16508332]]","[[0.         0.53145649]
 [0.1        1.53992391]
 [0.2        1.55701493]
 [0.3        1.64837469]
 [0.4        1.11154263]
 [0.5        1.86343254]
 [0.6        1.50195398]
 [0.7        1.86567231]
 [0.8        1.56384749]
 [0.9        0.34177252]
 [1.         1.02561869]
 [1.1        0.56375965]
 [1.14141667 1.26691699]]",0,4.611
8817605319,m,22,french,4,5,french,2024-02-09 14:59:39.832256,True,0,2,sounds\french\audio/french_238.wav,"[[  0.          11.33876858]
 [  0.1         60.4886843 ]
 [  0.2         62.61816742]
 [  0.3        -58.2929198 ]
 [  0.4        -87.34277879]
 [  0.5        -26.6303728 ]
 [  0.6         91.01553739]
 [  0.7         16.48997416]
 [  0.8        -33.13671934]
 [  0.9         39.47811592]
 [  1.         -82.2057662 ]
 [  1.1        -87.16985017]
 [  1.14141667 -97.56990307]]","[[0.         1.57793391]
 [0.1        0.5338128 ]
 [0.2        0.71153002]
 [0.3        0.52960248]
 [0.4        1.00617454]
 [0.5        0.81851938]
 [0.6        0.92366448]
 [0.7        0.72259943]
 [0.8        0.36894476]
 [0.9        0.86774156]
 [1.         1.1038755 ]
 [1.1        1.20164054]
 [1.14141667 1.5425577 ]]",0,1.927
8817605319,m,22,french,4,5,french,2024-02-09 14:59:39.832256,False,1,3,sounds\french\audio/french_302.wav,"[[  0.         -33.52028632]
 [  0.1         14.06293771]
 [  0.2        -53.22339511]
 [  0.3         84.66079963]
 [  0.4         56.53078776]
 [  0.5         52.09924325]
 [  0.6         36.68626461]
 [  0.7        -22.67460192]
 [  0.8         43.78011135]
 [  0.9        -34.77035128]
 [  1.          51.90159777]
 [  1.1         37.64911617]
 [  1.14141667  19.69656895]]","[[0.         1.20247244]
 [0.1        0.59103421]
 [0.2        0.70543363]
 [0.3        1.47264463]
 [0.4        1.52121196]
 [0.5        0.90612389]
 [0.6        1.68691492]
 [0.7        1.01798697]
 [0.8        0.90734577]
 [0.9        1.35012392]
 [1.         1.01237919]
 [1.1        0.20910983]
 [1.14141667 0.68199001]]",0,0.792
8817605319,m,22,french,4,5,french,2024-02-09 14:59:39.832256,False,1,4,sounds\french\audio/french_513.wav,"[[  0.          65.19779345]
 [  0.1        -53.85269578]
 [  0.2         82.41545201]
 [  0.3         50.60713048]
 [  0.4          7.11945043]
 [  0.5         91.42493583]
 [  0.6        -85.42924685]
 [  0.7         -8.28829678]
 [  0.8         14.83211799]
 [  0.9         76.72765657]
 [  1.         -52.57682729]
 [  1.1        -94.50783694]
 [  1.14141667 -21.60549074]]","[[0.         0.10751353]
 [0.1        1.47062647]
 [0.2        1.29367767]
 [0.3        1.84832062]
 [0.4        1.72946214]
 [0.5        0.50039447]
 [0.6        0.46361625]
 [0.7        0.32923248]
 [0.8        1.36965494]
 [0.9        0.90778718]
 [1.         1.26672765]
 [1.1        0.74549941]
 [1.14141667 0.4783076 ]]",0,0.377
8817605319,m,22,french,4,5,french,2024-02-09 14:59:39.832256,False,1,5,sounds\french\audio/french_5.wav,"[[  0.          67.84600602]
 [  0.1         36.11985477]
 [  0.2         27.42056963]
 [  0.3        -51.17670217]
 [  0.4        -40.37414298]
 [  0.5        -24.2536038 ]
 [  0.6        -18.35468105]
 [  0.7         -4.97614975]
 [  0.8         48.20606938]
 [  0.9         15.99502717]
 [  1.         -62.82085154]
 [  1.1         -6.95701983]
 [  1.14141667 -66.75848558]]","[[0.         1.17631247]
 [0.1        0.77880018]
 [0.2        1.26171942]
 [0.3        1.79238294]
 [0.4        0.78218598]
 [0.5        0.94203558]
 [0.6        1.40818336]
 [0.7        1.58219359]
 [0.8        0.2158889 ]
 [0.9        1.46917473]
 [1.         1.96668642]
 [1.1        0.54762735]
 [1.14141667 0.46814151]]",0,0.233
8817605319,m,22,french,4,5,french,2024-02-09 14:59:39.832256,False,1,6,sounds\french\audio/french_556.wav,"[[  0.         -30.62895729]
 [  0.1         64.37703021]
 [  0.2         36.98575807]
 [  0.3         19.11574957]
 [  0.4         89.62577902]
 [  0.5         60.7088706 ]
 [  0.6        -62.8516134 ]
 [  0.7        -39.43238068]
 [  0.8        -47.12121114]
 [  0.9         11.83990719]
 [  1.         -21.1475117 ]
 [  1.1         -1.79697267]
 [  1.14141667 -69.11891229]]","[[0.         1.84589581]
 [0.1        1.73651451]
 [0.2        0.16567731]
 [0.3        0.31305634]
 [0.4        1.79061468]
 [0.5        0.86994548]
 [0.6        1.36507629]
 [0.7        0.69698054]
 [0.8        1.7863841 ]
 [0.9        0.92331121]
 [1.         1.29940684]
 [1.1        1.17001647]
 [1.14141667 0.89909852]]",0,0.313
8817605319,m,22,french,4,5,french,2024-02-09 14:59:39.832256,False,1,7,sounds\french\audio/french_861.wav,"[[  0.         -29.59207834]
 [  0.1         -3.20070046]
 [  0.2        -58.32537362]
 [  0.3        -24.52531727]
 [  0.4          4.47991904]
 [  0.5         77.73095921]
 [  0.6         -9.72754814]
 [  0.7         78.69297703]
 [  0.8         89.59895789]
 [  0.9        -74.88966418]
 [  1.          -8.41302054]
 [  1.1        -83.1329049 ]
 [  1.14141667  45.5691638 ]]","[[0.         1.26213784]
 [0.1        1.09688129]
 [0.2        1.67288948]
 [0.3        1.55651392]
 [0.4        0.60089382]
 [0.5        1.00142535]
 [0.6        1.64754174]
 [0.7        1.0190621 ]
 [0.8        1.92978713]
 [0.9        1.64032652]
 [1.         1.1947634 ]
 [1.1        1.60781283]
 [1.14141667 0.53617129]]",0,0.273
8817605319,m,22,french,4,5,french,2024-02-09 14:59:39.832256,False,1,8,sounds\french\audio/french_390.wav,"[[  0.           8.11578958]
 [  0.1         39.94171881]
 [  0.2         80.57609744]
 [  0.3        -13.82348855]
 [  0.4        -26.98289084]
 [  0.5         -5.81404193]
 [  0.6         52.64589619]
 [  0.7         62.15943338]
 [  0.8        -17.56819824]
 [  0.9        -76.63953122]
 [  1.         -64.36193894]
 [  1.1        -78.09182739]
 [  1.14141667 -14.8487849 ]]","[[0.         0.20844883]
 [0.1        1.32391978]
 [0.2        1.70464672]
 [0.3        0.17193423]
 [0.4        1.3879851 ]
 [0.5        1.24417137]
 [0.6        0.90764787]
 [0.7        1.32078245]
 [0.8        0.83829635]
 [0.9        0.35252059]
 [1.         0.30961676]
 [1.1        0.82109579]
 [1.14141667 1.78955346]]",1,3.294
8817605319,m,22,french,4,5,french,2024-02-09 14:59:39.832256,False,1,9,sounds\french\audio/french_503.wav,"[[  0.          89.71427056]
 [  0.1        -70.51005578]
 [  0.2         75.84374713]
 [  0.3        -65.96801952]
 [  0.4        -99.12862023]
 [  0.5         42.18807517]
 [  0.6         25.95406096]
 [  0.7        -40.09314125]
 [  0.8         44.47277883]
 [  0.9         16.62214307]
 [  1.          77.66452295]
 [  1.1        -63.87625715]
 [  1.14141667 -12.54613401]]","[[0.         1.01776628]
 [0.1        1.96713819]
 [0.2        1.27326549]
 [0.3        1.01915637]
 [0.4        1.08509297]
 [0.5        1.85501182]
 [0.6        1.3585005 ]
 [0.7        0.2752787 ]
 [0.8        0.00986065]
 [0.9        1.75352346]
 [1.         0.69056339]
 [1.1        1.66617346]
 [1.14141667 1.22968396]]",0,0.32
8817605319,m,22,french,4,5,french,2024-02-09 14:59:39.832256,False,1,10,sounds\french\audio/french_440.wav,"[[  0.          74.67435377]
 [  0.1         -9.93699387]
 [  0.2          4.2378765 ]
 [  0.3         39.99279178]
 [  0.4         52.39402187]
 [  0.5         44.85460842]
 [  0.6        -21.96766976]
 [  0.7        -91.32953256]
 [  0.8         -6.7073332 ]
 [  0.9        -27.08364703]
 [  1.          20.93648074]
 [  1.1        -98.00545996]
 [  1.14141667  10.88840881]]","[[0.         1.69175495]
 [0.1        0.40086311]
 [0.2        0.64184517]
 [0.3        0.63810569]
 [0.4        0.03075419]
 [0.5        0.47334738]
 [0.6        0.2143105 ]
 [0.7        0.75784364]
 [0.8        0.24871467]
 [0.9        1.11475223]
 [1.         1.23612144]
 [1.1        0.77567879]
 [1.14141667 1.24313348]]",0,0.456
8817605319,m,22,french,4,5,french,2024-02-09 14:59:39.832256,False,1,11,sounds\french\audio/french_542.wav,"[[  0.         -51.06988227]
 [  0.1         85.49879696]
 [  0.2         63.15700412]
 [  0.3        -36.64736247]
 [  0.4         75.15639634]
 [  0.5         -9.43778213]
 [  0.6         22.73785565]
 [  0.7         38.92400765]
 [  0.8        -17.14219802]
 [  0.9         61.69992383]
 [  1.         -24.75082228]
 [  1.1          5.64044157]
 [  1.14141667 -85.77081832]]","[[0.         1.35657216]
 [0.1        1.49253391]
 [0.2        1.82410023]
 [0.3        0.95543685]
 [0.4        1.06162419]
 [0.5        1.1121259 ]
 [0.6        1.53646916]
 [0.7        1.27623094]
 [0.8        0.95680642]
 [0.9        0.19635283]
 [1.         1.5746935 ]
 [1.1        0.60238521]
 [1.14141667 0.8477855 ]]",0,1.152
8817605319,m,22,french,4,5,french,2024-02-09 14:59:39.832256,False,1,12,sounds\french\audio/french_19.wav,"[[  0.         -15.85396014]
 [  0.1         23.57988749]
 [  0.2         90.5407412 ]
 [  0.3         54.36086044]
 [  0.4        -76.80072536]
 [  0.5          4.74522472]
 [  0.6         61.23738329]
 [  0.7         13.41741959]
 [  0.8        -83.99617766]
 [  0.9         47.05289938]
 [  1.          63.84619237]
 [  1.1         70.82125043]
 [  1.14141667  42.43080479]]","[[0.         0.42164348]
 [0.1        0.56417691]
 [0.2        1.21613489]
 [0.3        1.77542269]
 [0.4        1.88282697]
 [0.5        1.35259083]
 [0.6        1.70484982]
 [0.7        0.27300571]
 [0.8        0.56573118]
 [0.9        1.23296436]
 [1.         0.73939236]
 [1.1        0.292558  ]
 [1.14141667 1.64361302]]",0,0.196
8817605319,m,22,french,4,5,french,2024-02-09 14:59:39.832256,False,1,13,sounds\french\audio/french_413.wav,"[[  0.          55.29360891]
 [  0.1        -50.95886707]
 [  0.2         54.13518968]
 [  0.3         35.06481535]
 [  0.4         53.38062102]
 [  0.5         69.27676949]
 [  0.6        -61.3421988 ]
 [  0.7        -89.47342233]
 [  0.8        -48.72904744]
 [  0.9          1.16603068]
 [  1.           5.3158993 ]
 [  1.1         91.20505521]
 [  1.14141667  -1.7804857 ]]","[[0.         1.9581329 ]
 [0.1        0.47119179]
 [0.2        1.35424418]
 [0.3        0.01052317]
 [0.4        0.69535294]
 [0.5        0.69536718]
 [0.6        1.83256231]
 [0.7        1.93961064]
 [0.8        1.32631245]
 [0.9        0.8841902 ]
 [1.         0.23857756]
 [1.1        1.79928799]
 [1.14141667 1.20807813]]",0,0.808
8817605319,m,22,french,4,5,french,2024-02-09 14:59:39.832256,False,1,14,sounds\french\audio/french_238.wav,"[[  0.          11.33876858]
 [  0.1         60.4886843 ]
 [  0.2         62.61816742]
 [  0.3        -58.2929198 ]
 [  0.4        -87.34277879]
 [  0.5        -26.6303728 ]
 [  0.6         91.01553739]
 [  0.7         16.48997416]
 [  0.8        -33.13671934]
 [  0.9         39.47811592]
 [  1.         -82.2057662 ]
 [  1.1        -87.16985017]
 [  1.14141667 -97.56990307]]","[[0.         1.57793391]
 [0.1        0.5338128 ]
 [0.2        0.71153002]
 [0.3        0.52960248]
 [0.4        1.00617454]
 [0.5        0.81851938]
 [0.6        0.92366448]
 [0.7        0.72259943]
 [0.8        0.36894476]
 [0.9        0.86774156]
 [1.         1.1038755 ]
 [1.1        1.20164054]
 [1.14141667 1.5425577 ]]",0,0.341
8817605319,m,22,french,4,5,french,2024-02-09 14:59:39.832256,False,1,15,sounds\french\audio/french_463.wav,"[[  0.         -28.25289602]
 [  0.1        -29.96157941]
 [  0.2        -35.61602773]
 [  0.3         64.20990909]
 [  0.4        -63.83515399]
 [  0.5         71.59997763]
 [  0.6         89.31755347]
 [  0.7        -98.14659704]
 [  0.8         33.66167072]
 [  0.9         67.16249153]
 [  1.         -48.02468866]
 [  1.1          0.355648  ]
 [  1.14141667 -15.74672825]]","[[0.         0.03820079]
 [0.1        1.06701123]
 [0.2        1.17367249]
 [0.3        0.16492654]
 [0.4        0.16398837]
 [0.5        1.39593521]
 [0.6        1.25797632]
 [0.7        0.35849906]
 [0.8        0.72596435]
 [0.9        1.46059629]
 [1.         0.19516894]
 [1.1        1.55106472]
 [1.14141667 1.61627541]]",0,0.278
8817605319,m,22,french,4,5,french,2024-02-09 14:59:39.832256,False,1,16,sounds\french\audio/french_606.wav,"[[  0.          29.70975547]
 [  0.1         28.42644231]
 [  0.2         21.59399465]
 [  0.3        -85.78360108]
 [  0.4        -86.96471331]
 [  0.5        -42.98154559]
 [  0.6        -24.40718185]
 [  0.7         40.30920649]
 [  0.8         60.29967336]
 [  0.9        -28.97197282]
 [  1.          20.58306705]
 [  1.1         36.82833662]
 [  1.14141667 -96.86148063]]","[[0.         1.48129541]
 [0.1        1.50796462]
 [0.2        1.95094467]
 [0.3        1.21516633]
 [0.4        1.69229455]
 [0.5        1.09993922]
 [0.6        1.7732578 ]
 [0.7        0.96640662]
 [0.8        1.55948905]
 [0.9        0.42676263]
 [1.         1.41137434]
 [1.1        1.11539435]
 [1.14141667 1.96267589]]",0,0.578
8817605319,m,22,french,4,5,french,2024-02-09 14:59:39.832256,False,1,17,sounds\french\audio/french_737.wav,"[[  0.          52.46806953]
 [  0.1         22.11164663]
 [  0.2         21.15045447]
 [  0.3         72.92020853]
 [  0.4        -88.00822782]
 [  0.5         44.92871735]
 [  0.6        -16.42488454]
 [  0.7        -38.35092669]
 [  0.8         53.07954461]
 [  0.9         -5.60043296]
 [  1.         -61.57972563]
 [  1.1        -87.96395632]
 [  1.14141667  79.0371692 ]]","[[0.         0.64173495]
 [0.1        1.02290277]
 [0.2        1.15251768]
 [0.3        0.917673  ]
 [0.4        0.17703353]
 [0.5        0.75389602]
 [0.6        0.85967356]
 [0.7        1.78468728]
 [0.8        1.36873542]
 [0.9        1.27747182]
 [1.         1.44074345]
 [1.1        1.60195725]
 [1.14141667 1.84673245]]",0,0.125
8817605319,m,22,french,4,5,french,2024-02-09 14:59:39.832256,False,1,18,sounds\french\audio/french_968.wav,"[[  0.          -0.57599219]
 [  0.1         13.46528621]
 [  0.2        -42.10345484]
 [  0.3         65.40524164]
 [  0.4          8.7909656 ]
 [  0.5        -70.64658821]
 [  0.6          9.04588311]
 [  0.7         98.94555371]
 [  0.8         45.89078384]
 [  0.9         67.24679264]
 [  1.         -17.42221394]
 [  1.1         81.33628956]
 [  1.14141667  53.22171091]]","[[0.         0.80814607]
 [0.1        0.64850963]
 [0.2        0.75912538]
 [0.3        0.12507739]
 [0.4        0.61296468]
 [0.5        1.51166545]
 [0.6        1.40220012]
 [0.7        1.00134396]
 [0.8        0.39587707]
 [0.9        0.99552398]
 [1.         1.70178233]
 [1.1        0.58307847]
 [1.14141667 1.9484775 ]]",0,0.105
8817605319,m,22,french,4,5,french,2024-02-09 14:59:39.832256,False,1,19,sounds\french\audio/french_526.wav,"[[  0.          -3.34213948]
 [  0.1        -38.63024981]
 [  0.2         93.21737658]
 [  0.3        -71.56714532]
 [  0.4         55.55298997]
 [  0.5        -90.65516394]
 [  0.6         67.30065147]
 [  0.7        -92.19460914]
 [  0.8        -61.42846186]
 [  0.9        -71.57092401]
 [  1.          -1.13377121]
 [  1.1         79.13585044]
 [  1.14141667 -60.54584427]]","[[0.         0.40974575]
 [0.1        0.80270001]
 [0.2        0.74121325]
 [0.3        1.50939527]
 [0.4        0.92463097]
 [0.5        1.64741989]
 [0.6        0.25308429]
 [0.7        0.31675775]
 [0.8        1.60624507]
 [0.9        1.37847828]
 [1.         1.26755978]
 [1.1        1.65811532]
 [1.14141667 1.5361609 ]]",0,0.695
8817605319,m,22,french,4,5,french,2024-02-09 14:59:39.832256,False,1,20,sounds\french\audio/french_761.wav,"[[  0.          -4.65368555]
 [  0.1        -95.02047891]
 [  0.2        -46.13477508]
 [  0.3         44.60720678]
 [  0.4        -56.15470629]
 [  0.5         -5.62885822]
 [  0.6         16.04939415]
 [  0.7         -7.40448264]
 [  0.8        -49.19151668]
 [  0.9        -21.58992812]
 [  1.          97.9984375 ]
 [  1.1        -54.45281711]
 [  1.14141667  96.15058985]]","[[0.         1.68992553]
 [0.1        1.90989282]
 [0.2        1.32561582]
 [0.3        1.43060887]
 [0.4        0.29002682]
 [0.5        1.48383664]
 [0.6        0.48742164]
 [0.7        0.57849003]
 [0.8        0.03179743]
 [0.9        1.574395  ]
 [1.         1.21779741]
 [1.1        1.83689478]
 [1.14141667 0.73963704]]",0,0.199
8817605319,m,22,french,4,5,french,2024-02-09 14:59:39.832256,False,1,21,sounds\french\audio/french_824.wav,"[[ 0.00000000e+00  5.02201089e-01]
 [ 1.00000000e-01  6.05239588e+01]
 [ 2.00000000e-01  1.48896647e+01]
 [ 3.00000000e-01  3.33476675e+01]
 [ 4.00000000e-01 -2.84988199e+01]
 [ 5.00000000e-01  2.83484092e+01]
 [ 6.00000000e-01  9.05536847e-02]
 [ 7.00000000e-01  5.47024864e+01]
 [ 8.00000000e-01  1.33415816e+00]
 [ 9.00000000e-01 -1.30540877e+01]
 [ 1.00000000e+00  5.29162460e+01]
 [ 1.10000000e+00  9.07997148e+01]
 [ 1.14141667e+00 -8.48372177e+00]]","[[0.         0.86927053]
 [0.1        1.18411144]
 [0.2        1.09736758]
 [0.3        0.85219326]
 [0.4        1.84806057]
 [0.5        0.42773876]
 [0.6        0.73121711]
 [0.7        1.15803728]
 [0.8        0.61345655]
 [0.9        0.13219128]
 [1.         1.90220579]
 [1.1        0.08725417]
 [1.14141667 0.24224984]]",0,0.475
8817605319,m,22,french,4,5,french,2024-02-09 14:59:39.832256,False,1,22,sounds\french\audio/french_600.wav,"[[  0.          52.68900208]
 [  0.1         -6.73067052]
 [  0.2         96.57898689]
 [  0.3         88.93281909]
 [  0.4         75.90530311]
 [  0.5         83.32696458]
 [  0.6        -66.79703103]
 [  0.7         63.7950694 ]
 [  0.8        -58.76780301]
 [  0.9         44.34251674]
 [  1.          40.69658778]
 [  1.1        -28.98281282]
 [  1.14141667  43.07407366]]","[[0.         1.20996587]
 [0.1        0.65229061]
 [0.2        1.53870963]
 [0.3        0.24911415]
 [0.4        0.83209065]
 [0.5        1.35695142]
 [0.6        1.60598618]
 [0.7        1.81288548]
 [0.8        0.6555076 ]
 [0.9        1.0412619 ]
 [1.         1.14001909]
 [1.1        0.56625227]
 [1.14141667 0.71314078]]",0,0.268
8817605319,m,22,french,4,5,french,2024-02-09 14:59:39.832256,False,1,23,sounds\french\audio/french_298.wav,"[[  0.          74.36342959]
 [  0.1        -30.85430556]
 [  0.2         13.18853344]
 [  0.3        -73.4727048 ]
 [  0.4        -60.45191565]
 [  0.5        -94.12873808]
 [  0.6        -31.82345599]
 [  0.7        -60.29460257]
 [  0.8         84.08431252]
 [  0.9         59.02610937]
 [  1.         -79.41538286]
 [  1.1         76.10910119]
 [  1.14141667 -73.19197608]]","[[0.         1.72708448]
 [0.1        1.83054559]
 [0.2        1.07667785]
 [0.3        0.33228497]
 [0.4        1.17453787]
 [0.5        0.39690451]
 [0.6        0.26650884]
 [0.7        1.00925451]
 [0.8        0.39924312]
 [0.9        1.81273618]
 [1.         0.80693123]
 [1.1        0.30944745]
 [1.14141667 0.11210384]]",0,0.284
8817605319,m,22,french,4,5,french,2024-02-09 14:59:39.832256,False,1,24,sounds\french\audio/french_13.wav,"[[  0.          28.79040646]
 [  0.1          1.43639251]
 [  0.2          8.93741283]
 [  0.3        -45.23678971]
 [  0.4        -36.64568284]
 [  0.5         95.08006425]
 [  0.6        -25.15383894]
 [  0.7         20.22064469]
 [  0.8          4.43008543]
 [  0.9         31.96842926]
 [  1.          59.17290693]
 [  1.1          3.48956858]
 [  1.14141667 -39.55658578]]","[[0.         1.71683998]
 [0.1        1.51392947]
 [0.2        1.95012388]
 [0.3        1.24720578]
 [0.4        0.6748638 ]
 [0.5        0.64178438]
 [0.6        1.78067585]
 [0.7        0.73379373]
 [0.8        0.8008251 ]
 [0.9        1.62083082]
 [1.         0.40737704]
 [1.1        0.59465297]
 [1.14141667 0.57584179]]",0,0.326
8817605319,m,22,french,4,5,french,2024-02-09 14:59:39.832256,False,1,25,sounds\french\audio/french_25.wav,"[[  0.         -88.8010065 ]
 [  0.1         83.90276251]
 [  0.2         51.8262266 ]
 [  0.3         48.13028071]
 [  0.4        -37.19834642]
 [  0.5         -5.67180941]
 [  0.6        -86.49516365]
 [  0.7         32.53649108]
 [  0.8         10.53448385]
 [  0.9          4.35447071]
 [  1.           5.08898812]
 [  1.1        -44.09304524]
 [  1.14141667  31.3470305 ]]","[[0.         0.41592312]
 [0.1        0.42533982]
 [0.2        0.45115442]
 [0.3        1.45187216]
 [0.4        0.31450239]
 [0.5        0.26706037]
 [0.6        1.06667064]
 [0.7        1.35764257]
 [0.8        0.06237769]
 [0.9        1.69931779]
 [1.         0.82831714]
 [1.1        0.06199876]
 [1.14141667 1.53448447]]",0,0.481
8817605319,m,22,french,4,5,french,2024-02-09 14:59:39.832256,False,1,26,sounds\french\audio/french_289.wav,"[[  0.          14.70665442]
 [  0.1         95.25316321]
 [  0.2         22.20186217]
 [  0.3        -17.9137024 ]
 [  0.4        -10.1137558 ]
 [  0.5        -69.76519391]
 [  0.6        -29.65482042]
 [  0.7         65.48072433]
 [  0.8         60.45691667]
 [  0.9        -67.68084872]
 [  1.          65.70228923]
 [  1.1        -57.15088735]
 [  1.14141667   1.39733305]]","[[0.         1.83068481]
 [0.1        0.61558809]
 [0.2        1.36200616]
 [0.3        1.0791943 ]
 [0.4        0.20327362]
 [0.5        1.24486775]
 [0.6        1.32936048]
 [0.7        1.56831723]
 [0.8        1.33915521]
 [0.9        1.39765906]
 [1.         1.14730346]
 [1.1        1.20392446]
 [1.14141667 0.91697028]]",0,0.474
8817605319,m,22,french,4,5,french,2024-02-09 14:59:39.832256,False,1,27,sounds\french\audio/french_14.wav,"[[  0.          47.89955795]
 [  0.1         61.35134247]
 [  0.2         25.97351418]
 [  0.3         96.79201142]
 [  0.4         -2.49416278]
 [  0.5        -48.27662198]
 [  0.6         40.76261572]
 [  0.7        -77.78715279]
 [  0.8          1.01884087]
 [  0.9        -46.10217397]
 [  1.          68.50309763]
 [  1.1         54.05400046]
 [  1.14141667  12.0764648 ]]","[[0.         0.26613935]
 [0.1        1.19318983]
 [0.2        1.52071117]
 [0.3        1.8410781 ]
 [0.4        0.83400601]
 [0.5        0.10945672]
 [0.6        0.75420347]
 [0.7        0.00356081]
 [0.8        0.62198197]
 [0.9        0.23306124]
 [1.         1.67852962]
 [1.1        1.90740001]
 [1.14141667 0.55424844]]",0,1.089
8817605319,m,22,french,4,5,french,2024-02-09 14:59:39.832256,False,1,28,sounds\french\audio/french_519.wav,"[[  0.          38.95071941]
 [  0.1        -98.16248953]
 [  0.2         -8.53351214]
 [  0.3        -29.96278714]
 [  0.4        -57.19313365]
 [  0.5        -14.84533872]
 [  0.6         65.33729063]
 [  0.7          2.08710226]
 [  0.8        -14.97633343]
 [  0.9         84.22736014]
 [  1.         -86.65839452]
 [  1.1        -25.38298956]
 [  1.14141667 -47.75612145]]","[[0.         0.15710705]
 [0.1        1.65075873]
 [0.2        0.59061529]
 [0.3        0.34046239]
 [0.4        0.44125755]
 [0.5        1.00043078]
 [0.6        1.54523625]
 [0.7        1.08213469]
 [0.8        0.71331726]
 [0.9        0.21863186]
 [1.         0.07702422]
 [1.1        0.09511301]
 [1.14141667 1.11047356]]",0,0.935
8817605319,m,22,french,4,5,french,2024-02-09 14:59:39.832256,False,1,29,sounds\french\audio/french_344.wav,"[[  0.          96.07480186]
 [  0.1        -21.67597909]
 [  0.2          1.76564063]
 [  0.3         52.19208065]
 [  0.4        -48.97734346]
 [  0.5          8.52034332]
 [  0.6         76.79242076]
 [  0.7        -46.49970146]
 [  0.8         41.91318913]
 [  0.9        -58.70585391]
 [  1.          -5.86032919]
 [  1.1          3.04602069]
 [  1.14141667   9.91868565]]","[[0.         0.58479992]
 [0.1        0.94801026]
 [0.2        0.48766352]
 [0.3        0.58210606]
 [0.4        1.63747349]
 [0.5        0.76958472]
 [0.6        1.51679811]
 [0.7        0.4990454 ]
 [0.8        1.79245635]
 [0.9        1.42432783]
 [1.         0.02463932]
 [1.1        1.38926004]
 [1.14141667 0.39424777]]",0,0.267
8817605319,m,22,french,4,5,french,2024-02-09 14:59:39.832256,False,1,30,sounds\french\audio/french_307.wav,"[[ 0.00000000e+00 -8.12536919e+01]
 [ 1.00000000e-01 -5.92199646e+00]
 [ 2.00000000e-01 -7.08440156e+01]
 [ 3.00000000e-01 -3.88570398e+01]
 [ 4.00000000e-01 -7.46373028e+01]
 [ 5.00000000e-01  3.72357881e+01]
 [ 6.00000000e-01 -2.61136950e+00]
 [ 7.00000000e-01  4.06769116e+01]
 [ 8.00000000e-01  6.68191977e+01]
 [ 9.00000000e-01  8.94255447e+01]
 [ 1.00000000e+00 -1.24290818e-02]
 [ 1.10000000e+00 -9.47277852e+01]
 [ 1.14141667e+00  5.25537701e+00]]","[[0.         1.33468173]
 [0.1        1.24052459]
 [0.2        0.05751099]
 [0.3        0.0183033 ]
 [0.4        1.42823854]
 [0.5        1.31262623]
 [0.6        1.64307627]
 [0.7        1.23311758]
 [0.8        1.11809567]
 [0.9        1.10385944]
 [1.         1.86476593]
 [1.1        1.90945351]
 [1.14141667 1.40561689]]",0,0.518
8817605319,m,22,french,4,5,french,2024-02-09 14:59:39.832256,False,1,31,sounds\french\audio/french_967.wav,"[[  0.         -71.34607959]
 [  0.1        -35.65819027]
 [  0.2        -68.20202891]
 [  0.3        -57.58758282]
 [  0.4         70.48380742]
 [  0.5         95.19228037]
 [  0.6        -39.65708514]
 [  0.7        -83.522521  ]
 [  0.8         80.27349765]
 [  0.9         71.24042066]
 [  1.          65.47365617]
 [  1.1        -37.87916856]
 [  1.14141667  -5.33917093]]","[[0.         1.03552624]
 [0.1        0.70466862]
 [0.2        1.43535484]
 [0.3        1.6501514 ]
 [0.4        0.3504388 ]
 [0.5        0.93193126]
 [0.6        0.84411513]
 [0.7        1.24684146]
 [0.8        0.46592488]
 [0.9        1.15667054]
 [1.         1.88512118]
 [1.1        0.13959958]
 [1.14141667 0.65218631]]",0,0.308
8817605319,m,22,french,4,5,french,2024-02-09 14:59:39.832256,False,1,32,sounds\french\audio/french_888.wav,"[[  0.          96.44398525]
 [  0.1         58.64276863]
 [  0.2         51.81481339]
 [  0.3        -64.43762051]
 [  0.4         63.07008095]
 [  0.5        -43.71617537]
 [  0.6        -84.48557002]
 [  0.7         14.0703742 ]
 [  0.8         19.35462783]
 [  0.9         56.69702577]
 [  1.          31.89376026]
 [  1.1         24.17860953]
 [  1.14141667   6.37321077]]","[[0.         1.17315673]
 [0.1        1.27749253]
 [0.2        1.1144114 ]
 [0.3        1.21045132]
 [0.4        0.41630439]
 [0.5        1.08327256]
 [0.6        0.86809625]
 [0.7        0.60841711]
 [0.8        1.19219408]
 [0.9        0.43210491]
 [1.         1.42396854]
 [1.1        1.30706823]
 [1.14141667 1.87189595]]",0,0.259
8817605319,m,22,french,4,5,french,2024-02-09 14:59:39.832256,False,1,33,sounds\french\audio/french_509.wav,"[[  0.         -79.28359824]
 [  0.1        -85.11040144]
 [  0.2         58.20689337]
 [  0.3        -53.07212842]
 [  0.4         14.54054596]
 [  0.5         38.89832363]
 [  0.6        -59.04867319]
 [  0.7        -18.19891129]
 [  0.8        -73.30058077]
 [  0.9          9.43722615]
 [  1.           2.35167022]
 [  1.1        -85.32824264]
 [  1.14141667  19.13063021]]","[[0.         1.76643555]
 [0.1        0.57920492]
 [0.2        0.89396937]
 [0.3        0.80048379]
 [0.4        1.05618514]
 [0.5        0.5299581 ]
 [0.6        1.30906386]
 [0.7        0.47184047]
 [0.8        0.61756094]
 [0.9        0.62383509]
 [1.         1.37177888]
 [1.1        0.23324254]
 [1.14141667 0.91376092]]",0,0.436
8817605319,m,22,french,4,5,french,2024-02-09 14:59:39.832256,False,1,34,sounds\french\audio/french_679.wav,"[[  0.         -14.70734509]
 [  0.1        -71.06769053]
 [  0.2          0.78593543]
 [  0.3         21.61945259]
 [  0.4        -93.25434466]
 [  0.5        -11.67449827]
 [  0.6        -39.79898507]
 [  0.7        -44.77239166]
 [  0.8        -59.78561396]
 [  0.9         18.05772854]
 [  1.          47.53619055]
 [  1.1          9.35196461]
 [  1.14141667 -39.99964019]]","[[0.         1.46597583]
 [0.1        1.54510521]
 [0.2        0.85896876]
 [0.3        0.42109755]
 [0.4        0.86545886]
 [0.5        0.11204976]
 [0.6        1.27761458]
 [0.7        1.34435357]
 [0.8        0.62354184]
 [0.9        0.28507196]
 [1.         1.41472683]
 [1.1        0.97298944]
 [1.14141667 0.81950462]]",0,0.564
8817605319,m,22,french,4,5,french,2024-02-09 14:59:39.832256,False,1,35,sounds\french\audio/french_582.wav,"[[  0.         -57.97659921]
 [  0.1        -91.71728242]
 [  0.2         91.02690479]
 [  0.3        -42.72191291]
 [  0.4        -28.25325065]
 [  0.5         30.1945698 ]
 [  0.6          7.69877883]
 [  0.7        -46.07593352]
 [  0.8        -87.80435324]
 [  0.9         26.32971056]
 [  1.          -2.67986344]
 [  1.1         52.54862282]
 [  1.14141667 -37.11133974]]","[[0.         1.94039207]
 [0.1        0.30829263]
 [0.2        0.17514111]
 [0.3        0.7619412 ]
 [0.4        1.71135998]
 [0.5        0.92813146]
 [0.6        1.90194283]
 [0.7        1.74442959]
 [0.8        1.1869642 ]
 [0.9        1.46885355]
 [1.         1.99529793]
 [1.1        1.14181859]
 [1.14141667 1.37290426]]",0,0.191
8817605319,m,22,french,4,5,french,2024-02-09 14:59:39.832256,False,1,36,sounds\french\audio/french_671.wav,"[[  0.         -12.85470068]
 [  0.1          2.67819686]
 [  0.2         95.59247328]
 [  0.3        -13.98443503]
 [  0.4         68.80637955]
 [  0.5          1.26765297]
 [  0.6        -70.75583684]
 [  0.7        -41.351183  ]
 [  0.8         50.28106636]
 [  0.9        -33.24209559]
 [  1.          -0.53326813]
 [  1.1        -87.23485775]
 [  1.14141667 -62.69796975]]","[[0.         1.28020636]
 [0.1        0.37059178]
 [0.2        0.84310037]
 [0.3        0.70560659]
 [0.4        0.37083609]
 [0.5        0.87313921]
 [0.6        1.92523748]
 [0.7        1.65594106]
 [0.8        1.80795109]
 [0.9        1.68291782]
 [1.         0.5471334 ]
 [1.1        0.64128997]
 [1.14141667 0.27161171]]",0,0.929
8817605319,m,22,french,4,5,french,2024-02-09 14:59:39.832256,False,1,37,sounds\french\audio/french_964.wav,"[[  0.          33.09242733]
 [  0.1         35.00965651]
 [  0.2        -84.27771788]
 [  0.3        -43.99991395]
 [  0.4         85.17461764]
 [  0.5         34.90610351]
 [  0.6         44.52556005]
 [  0.7        -39.35993347]
 [  0.8        -59.26827617]
 [  0.9         -0.13276326]
 [  1.         -52.7984183 ]
 [  1.1        -26.03331608]
 [  1.14141667 -25.25531547]]","[[0.         0.20768895]
 [0.1        1.10634372]
 [0.2        1.24458485]
 [0.3        0.46794756]
 [0.4        1.27301034]
 [0.5        1.24864597]
 [0.6        1.11074861]
 [0.7        0.2163569 ]
 [0.8        1.15029488]
 [0.9        1.41986014]
 [1.         1.68989998]
 [1.1        0.52518862]
 [1.14141667 0.94660827]]",0,0.326
8817605319,m,22,french,4,5,french,2024-02-09 14:59:39.832256,False,1,38,sounds\french\audio/french_861.wav,"[[  0.         -29.59207834]
 [  0.1         -3.20070046]
 [  0.2        -58.32537362]
 [  0.3        -24.52531727]
 [  0.4          4.47991904]
 [  0.5         77.73095921]
 [  0.6         -9.72754814]
 [  0.7         78.69297703]
 [  0.8         89.59895789]
 [  0.9        -74.88966418]
 [  1.          -8.41302054]
 [  1.1        -83.1329049 ]
 [  1.14141667  45.5691638 ]]","[[0.         1.26213784]
 [0.1        1.09688129]
 [0.2        1.67288948]
 [0.3        1.55651392]
 [0.4        0.60089382]
 [0.5        1.00142535]
 [0.6        1.64754174]
 [0.7        1.0190621 ]
 [0.8        1.92978713]
 [0.9        1.64032652]
 [1.         1.1947634 ]
 [1.1        1.60781283]
 [1.14141667 0.53617129]]",0,0.213
8817605319,m,22,french,4,5,french,2024-02-09 14:59:39.832256,False,1,39,sounds\french\audio/french_254.wav,"[[  0.          75.2945508 ]
 [  0.1         38.40784012]
 [  0.2         -3.45801992]
 [  0.3        -16.53874186]
 [  0.4         40.95649298]
 [  0.5         -2.76974338]
 [  0.6        -14.89193372]
 [  0.7          6.98344765]
 [  0.8        -11.38819477]
 [  0.9         31.37717737]
 [  1.         -27.40134119]
 [  1.1        -15.25823698]
 [  1.14141667  52.56825486]]","[[0.         1.80685914]
 [0.1        0.82548004]
 [0.2        0.60126929]
 [0.3        1.71103273]
 [0.4        1.57269369]
 [0.5        1.05246524]
 [0.6        1.10171175]
 [0.7        0.20129796]
 [0.8        1.28961808]
 [0.9        0.6064434 ]
 [1.         1.272806  ]
 [1.1        1.69518769]
 [1.14141667 1.16774241]]",0,0.018
8817605319,m,22,french,4,5,french,2024-02-09 14:59:39.832256,False,1,40,sounds\french\audio/french_931.wav,"[[  0.         -69.01025024]
 [  0.1         55.0215027 ]
 [  0.2        -87.91788028]
 [  0.3        -33.0393784 ]
 [  0.4        -72.68752112]
 [  0.5        -31.87844098]
 [  0.6        -82.83878474]
 [  0.7         33.5640508 ]
 [  0.8        -20.37118135]
 [  0.9         28.67350866]
 [  1.         -45.8203528 ]
 [  1.1          1.98964677]
 [  1.14141667  44.24014335]]","[[0.         1.27357492]
 [0.1        1.07794659]
 [0.2        0.81824311]
 [0.3        1.31896505]
 [0.4        0.67025176]
 [0.5        1.54286398]
 [0.6        0.23472784]
 [0.7        1.16459242]
 [0.8        0.71129123]
 [0.9        0.02939642]
 [1.         0.30340473]
 [1.1        1.35857862]
 [1.14141667 1.98946576]]",0,2.854
8817605319,m,22,french,4,5,french,2024-02-09 14:59:39.832256,False,1,41,sounds\french\audio/french_941.wav,"[[  0.          12.71352542]
 [  0.1        -51.14532839]
 [  0.2         81.02604724]
 [  0.3        -13.46587663]
 [  0.4         65.75240794]
 [  0.5          7.20435309]
 [  0.6         14.75981975]
 [  0.7        -19.14841244]
 [  0.8         80.51273253]
 [  0.9        -14.36108603]
 [  1.          -1.28463364]
 [  1.1        -80.06594385]
 [  1.14141667   3.50926186]]","[[0.         1.95653793]
 [0.1        0.17041659]
 [0.2        0.4421366 ]
 [0.3        0.0592036 ]
 [0.4        0.23397067]
 [0.5        0.08731653]
 [0.6        0.00308342]
 [0.7        1.15000304]
 [0.8        1.41865084]
 [0.9        1.30569353]
 [1.         1.07408693]
 [1.1        1.69135614]
 [1.14141667 0.25602014]]",0,0.198
8817605319,m,22,french,4,5,french,2024-02-09 14:59:39.832256,False,1,42,sounds\french\audio/french_943.wav,"[[  0.         -39.69174356]
 [  0.1          9.71823043]
 [  0.2         47.82156503]
 [  0.3        -70.45683827]
 [  0.4        -70.36375892]
 [  0.5        -78.09117144]
 [  0.6         43.3001696 ]
 [  0.7         27.56713446]
 [  0.8         54.98161832]
 [  0.9        -79.78278868]
 [  1.          66.03849917]
 [  1.1        -45.24869993]
 [  1.14141667 -78.78234865]]","[[0.         1.76181843]
 [0.1        0.25866572]
 [0.2        1.61194964]
 [0.3        1.00408981]
 [0.4        1.40275429]
 [0.5        0.47534453]
 [0.6        1.96075546]
 [0.7        0.78248667]
 [0.8        1.42706625]
 [0.9        0.63840216]
 [1.         0.77310904]
 [1.1        1.03848478]
 [1.14141667 0.62693219]]",0,0.172
8817605319,m,22,french,4,5,french,2024-02-09 14:59:39.832256,False,1,43,sounds\french\audio/french_363.wav,"[[  0.         -10.90000223]
 [  0.1        -17.77890753]
 [  0.2         88.87263959]
 [  0.3        -43.08200188]
 [  0.4         -3.71858938]
 [  0.5        -38.27799499]
 [  0.6        -45.64383698]
 [  0.7        -33.85105354]
 [  0.8         56.31466728]
 [  0.9        -49.59267572]
 [  1.          -7.69975981]
 [  1.1         62.19506455]
 [  1.14141667  75.53080132]]","[[0.         0.01988505]
 [0.1        0.4157118 ]
 [0.2        1.34213765]
 [0.3        1.89153857]
 [0.4        0.45840361]
 [0.5        1.00482351]
 [0.6        1.53498487]
 [0.7        0.84744486]
 [0.8        1.23553797]
 [0.9        1.89573533]
 [1.         1.67231577]
 [1.1        0.727209  ]
 [1.14141667 1.05404819]]",0,0.196
8817605319,m,22,french,4,5,french,2024-02-09 14:59:39.832256,False,1,44,sounds\french\audio/french_534.wav,"[[  0.         -15.28338531]
 [  0.1         78.02953545]
 [  0.2         56.06185369]
 [  0.3        -88.22904754]
 [  0.4         64.61339654]
 [  0.5        -30.71044568]
 [  0.6         14.1855631 ]
 [  0.7         78.82962117]
 [  0.8         32.43672353]
 [  0.9         94.02234406]
 [  1.         -42.45395563]
 [  1.1        -83.33513244]
 [  1.14141667  95.31234504]]","[[0.         1.64226686]
 [0.1        0.3938212 ]
 [0.2        0.23843056]
 [0.3        0.60135969]
 [0.4        1.21076955]
 [0.5        1.07436413]
 [0.6        1.61739365]
 [0.7        1.68323929]
 [0.8        1.54652057]
 [0.9        0.7059435 ]
 [1.         0.83665441]
 [1.1        1.30268562]
 [1.14141667 1.46841429]]",0,0.113
8817605319,m,22,french,4,5,french,2024-02-09 14:59:39.832256,False,1,45,sounds\french\audio/french_681.wav,"[[  0.         -97.30934459]
 [  0.1        -35.19724747]
 [  0.2        -21.51950238]
 [  0.3        -52.55201926]
 [  0.4         62.39918701]
 [  0.5         37.22710343]
 [  0.6         37.61564457]
 [  0.7        -58.93821482]
 [  0.8         91.17894054]
 [  0.9        -46.6625886 ]
 [  1.         -13.36336259]
 [  1.1         -2.63692555]
 [  1.14141667 -49.79155462]]","[[0.         0.68826213]
 [0.1        0.18573935]
 [0.2        0.87968151]
 [0.3        1.42391909]
 [0.4        1.43099487]
 [0.5        1.13641153]
 [0.6        0.01922596]
 [0.7        1.86928285]
 [0.8        0.97464305]
 [0.9        1.3387681 ]
 [1.         0.7264955 ]
 [1.1        1.20739743]
 [1.14141667 0.86539132]]",0,0.185
8817605319,m,22,french,4,5,french,2024-02-09 14:59:39.832256,False,1,46,sounds\french\audio/french_625.wav,"[[  0.         -52.31869124]
 [  0.1        -25.23577265]
 [  0.2        -60.75977445]
 [  0.3         -3.59619095]
 [  0.4        -51.44020573]
 [  0.5        -56.50890025]
 [  0.6        -33.258937  ]
 [  0.7         60.17412763]
 [  0.8        -83.80517284]
 [  0.9         51.66221663]
 [  1.         -48.90750727]
 [  1.1        -44.74068411]
 [  1.14141667  69.22661346]]","[[0.         1.63379894]
 [0.1        0.38535148]
 [0.2        1.4410786 ]
 [0.3        0.29355574]
 [0.4        1.40834543]
 [0.5        1.57997293]
 [0.6        0.14193207]
 [0.7        1.60873566]
 [0.8        1.9133151 ]
 [0.9        1.29537879]
 [1.         1.20151545]
 [1.1        0.64392762]
 [1.14141667 1.24366186]]",0,0.109
8817605319,m,22,french,4,5,french,2024-02-09 14:59:39.832256,False,1,47,sounds\french\audio/french_10.wav,"[[  0.          28.16844794]
 [  0.1         46.30100241]
 [  0.2        -21.12843146]
 [  0.3         -4.52409741]
 [  0.4        -24.47310068]
 [  0.5         86.31547098]
 [  0.6          4.34036217]
 [  0.7         81.8697429 ]
 [  0.8         52.86482299]
 [  0.9        -44.35586263]
 [  1.          65.0577904 ]
 [  1.1         67.73719127]
 [  1.14141667 -32.2641705 ]]","[[0.         1.16253074]
 [0.1        0.75705097]
 [0.2        0.7794308 ]
 [0.3        1.19848321]
 [0.4        1.01301561]
 [0.5        1.15552006]
 [0.6        0.763322  ]
 [0.7        0.73902021]
 [0.8        0.69164327]
 [0.9        1.48695184]
 [1.         0.54071971]
 [1.1        0.56546023]
 [1.14141667 0.40431744]]",0,0.573
8817605319,m,22,french,4,5,french,2024-02-09 14:59:39.832256,False,1,48,sounds\french\audio/french_967.wav,"[[  0.         -71.34607959]
 [  0.1        -35.65819027]
 [  0.2        -68.20202891]
 [  0.3        -57.58758282]
 [  0.4         70.48380742]
 [  0.5         95.19228037]
 [  0.6        -39.65708514]
 [  0.7        -83.522521  ]
 [  0.8         80.27349765]
 [  0.9         71.24042066]
 [  1.          65.47365617]
 [  1.1        -37.87916856]
 [  1.14141667  -5.33917093]]","[[0.         1.03552624]
 [0.1        0.70466862]
 [0.2        1.43535484]
 [0.3        1.6501514 ]
 [0.4        0.3504388 ]
 [0.5        0.93193126]
 [0.6        0.84411513]
 [0.7        1.24684146]
 [0.8        0.46592488]
 [0.9        1.15667054]
 [1.         1.88512118]
 [1.1        0.13959958]
 [1.14141667 0.65218631]]",0,0.099
8817605319,m,22,french,4,5,french,2024-02-09 14:59:39.832256,False,1,49,sounds\french\audio/french_842.wav,"[[  0.         -14.6621915 ]
 [  0.1         58.26484617]
 [  0.2        -28.18109147]
 [  0.3        -40.73880456]
 [  0.4        -82.44418112]
 [  0.5         21.69569036]
 [  0.6        -66.1415884 ]
 [  0.7         94.24119963]
 [  0.8         88.68830767]
 [  0.9         54.23873464]
 [  1.          80.38497769]
 [  1.1         58.10558011]
 [  1.14141667 -78.08033462]]","[[0.         1.29563872]
 [0.1        1.98590439]
 [0.2        0.87867447]
 [0.3        1.23089187]
 [0.4        1.09137094]
 [0.5        1.30354814]
 [0.6        0.5635244 ]
 [0.7        0.77093559]
 [0.8        1.98831599]
 [0.9        0.57043998]
 [1.         1.5403888 ]
 [1.1        0.53885693]
 [1.14141667 0.32293885]]",0,0.371
8817605319,m,22,french,4,5,french,2024-02-09 14:59:39.832256,False,1,50,sounds\french\audio/french_910.wav,"[[  0.          48.88340935]
 [  0.1         -0.9314083 ]
 [  0.2         10.65492222]
 [  0.3         53.80361557]
 [  0.4        -55.5093235 ]
 [  0.5         25.35597856]
 [  0.6         30.25602932]
 [  0.7        -14.25396351]
 [  0.8        -99.95037684]
 [  0.9        -31.56392694]
 [  1.           4.49716215]
 [  1.1         30.67655198]
 [  1.14141667 -27.21370615]]","[[0.         1.81109224]
 [0.1        0.91261377]
 [0.2        0.6391442 ]
 [0.3        1.7256034 ]
 [0.4        1.10196828]
 [0.5        1.92121955]
 [0.6        1.45045528]
 [0.7        1.70872625]
 [0.8        0.23726838]
 [0.9        0.64113417]
 [1.         1.46769435]
 [1.1        0.95921   ]
 [1.14141667 0.8849765 ]]",0,0.194
8817605319,m,22,french,4,5,french,2024-02-09 14:59:39.832256,False,1,51,sounds\french\audio/french_331.wav,"[[  0.          -5.76763244]
 [  0.1        -52.64550288]
 [  0.2         33.91369618]
 [  0.3          2.76494439]
 [  0.4         28.25566851]
 [  0.5        -26.62339469]
 [  0.6        -38.99536657]
 [  0.7        -41.39460314]
 [  0.8        -52.63700737]
 [  0.9        -41.88182254]
 [  1.          28.65752822]
 [  1.1         11.07498327]
 [  1.14141667 -55.36680151]]","[[0.         0.44927082]
 [0.1        0.18129642]
 [0.2        1.34006101]
 [0.3        1.82406292]
 [0.4        0.80324024]
 [0.5        0.48532471]
 [0.6        0.16806237]
 [0.7        1.79111184]
 [0.8        0.66376549]
 [0.9        0.25387795]
 [1.         0.21815643]
 [1.1        1.03351958]
 [1.14141667 0.55793758]]",1,2.079
8817605319,m,22,french,4,5,french,2024-02-09 14:59:39.832256,False,1,52,sounds\french\audio/french_328.wav,"[[  0.          70.39281279]
 [  0.1        -62.4365066 ]
 [  0.2         74.18889281]
 [  0.3          6.08253947]
 [  0.4         14.94897536]
 [  0.5        -45.91689169]
 [  0.6         51.00614237]
 [  0.7        -68.53703239]
 [  0.8         93.58528924]
 [  0.9         51.46046525]
 [  1.         -77.58470521]
 [  1.1        -72.45732105]
 [  1.14141667 -40.05577785]]","[[0.         1.11868874]
 [0.1        1.7831523 ]
 [0.2        0.37694606]
 [0.3        0.30173154]
 [0.4        1.08259473]
 [0.5        0.83879107]
 [0.6        0.64036349]
 [0.7        1.67880376]
 [0.8        1.29419858]
 [0.9        0.63702013]
 [1.         0.88742502]
 [1.1        0.08384723]
 [1.14141667 0.80959776]]",0,0.314
8817605319,m,22,french,4,5,french,2024-02-09 14:59:39.832256,False,1,53,sounds\french\audio/french_520.wav,"[[  0.          54.59631185]
 [  0.1        -18.71306674]
 [  0.2         71.20328592]
 [  0.3        -11.6397205 ]
 [  0.4         16.59314513]
 [  0.5         89.51821443]
 [  0.6          8.22538685]
 [  0.7         99.6824518 ]
 [  0.8          6.88409597]
 [  0.9        -67.19157404]
 [  1.          72.30648841]
 [  1.1        -93.79261589]
 [  1.14141667 -78.36877444]]","[[0.         1.78597268]
 [0.1        0.74285754]
 [0.2        1.19325047]
 [0.3        0.1474075 ]
 [0.4        0.42865605]
 [0.5        0.10037667]
 [0.6        0.90555866]
 [0.7        0.8436254 ]
 [0.8        0.04116239]
 [0.9        1.43483218]
 [1.         0.75741096]
 [1.1        1.45404445]
 [1.14141667 0.95774315]]",0,0.204
8817605319,m,22,french,4,5,french,2024-02-09 14:59:39.832256,False,1,54,sounds\french\audio/french_484.wav,"[[  0.           6.83265532]
 [  0.1         83.49239965]
 [  0.2         70.78725764]
 [  0.3         -5.74370192]
 [  0.4        -22.9215122 ]
 [  0.5        -48.70720534]
 [  0.6        -87.25700763]
 [  0.7         52.63394188]
 [  0.8        -28.78801854]
 [  0.9        -24.7890616 ]
 [  1.         -91.46030438]
 [  1.1        -55.41551793]
 [  1.14141667  -9.9830909 ]]","[[0.         0.52592683]
 [0.1        0.84238665]
 [0.2        0.69533335]
 [0.3        0.62368717]
 [0.4        1.93129742]
 [0.5        0.19717675]
 [0.6        1.0051103 ]
 [0.7        1.34413016]
 [0.8        0.80549785]
 [0.9        0.42644713]
 [1.         0.67801753]
 [1.1        1.05030172]
 [1.14141667 0.06913333]]",0,0.349
8817605319,m,22,french,4,5,french,2024-02-09 14:59:39.832256,False,1,55,sounds\french\audio/french_235.wav,"[[  0.          98.14968224]
 [  0.1         97.92250549]
 [  0.2          5.58185076]
 [  0.3         73.90194432]
 [  0.4         24.12484934]
 [  0.5         25.62936191]
 [  0.6        -52.21793125]
 [  0.7        -79.33669902]
 [  0.8        -38.37732002]
 [  0.9         93.26378518]
 [  1.         -99.12781776]
 [  1.1        -30.75532988]
 [  1.14141667  -2.12429885]]","[[0.         1.12873519]
 [0.1        0.80542384]
 [0.2        1.1639144 ]
 [0.3        1.2231227 ]
 [0.4        0.51782845]
 [0.5        0.1679589 ]
 [0.6        1.3201034 ]
 [0.7        0.70078341]
 [0.8        1.93829376]
 [0.9        1.80406176]
 [1.         1.95628807]
 [1.1        0.0392801 ]
 [1.14141667 0.96827384]]",0,0.174
8817605319,m,22,french,4,5,french,2024-02-09 14:59:39.832256,False,1,56,sounds\french\audio/french_833.wav,"[[  0.         -22.64377916]
 [  0.1         39.23109032]
 [  0.2         59.98257397]
 [  0.3        -65.49669768]
 [  0.4         95.44390213]
 [  0.5         16.36680149]
 [  0.6        -95.74603826]
 [  0.7          6.50870015]
 [  0.8         55.04487349]
 [  0.9         83.33960194]
 [  1.          20.98555864]
 [  1.1        -86.19858113]
 [  1.14141667 -62.40303258]]","[[0.         0.41211545]
 [0.1        1.22030284]
 [0.2        1.60836668]
 [0.3        0.84423089]
 [0.4        0.37549497]
 [0.5        0.89903376]
 [0.6        1.16761525]
 [0.7        0.92946369]
 [0.8        0.59809775]
 [0.9        0.0823061 ]
 [1.         0.9055233 ]
 [1.1        0.76109733]
 [1.14141667 0.74455165]]",1,1.001
8817605319,m,22,french,4,5,french,2024-02-09 14:59:39.832256,False,1,57,sounds\french\audio/french_936.wav,"[[  0.          67.52582955]
 [  0.1        -45.00790549]
 [  0.2         99.04057748]
 [  0.3        -68.36116283]
 [  0.4        -69.72509786]
 [  0.5         49.9602727 ]
 [  0.6        -86.20274362]
 [  0.7        -45.26451629]
 [  0.8         92.93059236]
 [  0.9         20.23217844]
 [  1.         -97.47433382]
 [  1.1         -0.33226463]
 [  1.14141667 -70.80442404]]","[[0.         0.02866994]
 [0.1        1.52120589]
 [0.2        1.49962967]
 [0.3        0.94170168]
 [0.4        1.45346446]
 [0.5        1.239675  ]
 [0.6        0.33483984]
 [0.7        0.80645918]
 [0.8        1.81014272]
 [0.9        0.27928591]
 [1.         0.6276723 ]
 [1.1        0.06404952]
 [1.14141667 0.03566212]]",0,1.089
8817605319,m,22,french,4,5,french,2024-02-09 14:59:39.832256,False,1,58,sounds\french\audio/french_592.wav,"[[  0.          70.81103316]
 [  0.1        -26.4080383 ]
 [  0.2         -0.21646814]
 [  0.3          5.07209888]
 [  0.4          0.60727661]
 [  0.5         -4.25807997]
 [  0.6        -57.11909805]
 [  0.7        -40.92130442]
 [  0.8         57.21863493]
 [  0.9         70.04761432]
 [  1.         -50.9301359 ]
 [  1.1        -84.24132436]
 [  1.14141667 -46.29341041]]","[[0.         0.54665666]
 [0.1        0.88508354]
 [0.2        1.19588417]
 [0.3        0.17214274]
 [0.4        0.84375355]
 [0.5        1.80777341]
 [0.6        0.71388549]
 [0.7        1.31000832]
 [0.8        0.43276947]
 [0.9        1.73827866]
 [1.         0.70932726]
 [1.1        0.23430707]
 [1.14141667 1.11453021]]",0,0.125
8817605319,m,22,french,4,5,french,2024-02-09 14:59:39.832256,False,1,59,sounds\french\audio/french_970.wav,"[[  0.         -75.59015554]
 [  0.1         88.89754353]
 [  0.2          2.8795785 ]
 [  0.3         16.76666231]
 [  0.4        -24.29112878]
 [  0.5         -1.85536155]
 [  0.6         -3.66950667]
 [  0.7         25.64634513]
 [  0.8        -63.05896684]
 [  0.9        -35.80067613]
 [  1.         -57.57900803]
 [  1.1         44.83616842]
 [  1.14141667  16.63782687]]","[[0.         1.61803306]
 [0.1        0.88873524]
 [0.2        0.04119194]
 [0.3        1.79064279]
 [0.4        0.08662101]
 [0.5        0.80689889]
 [0.6        1.16094529]
 [0.7        0.24611855]
 [0.8        1.0529781 ]
 [0.9        0.89311493]
 [1.         1.51030887]
 [1.1        0.51275824]
 [1.14141667 0.6059473 ]]",0,0.137
8817605319,m,22,french,4,5,french,2024-02-09 14:59:39.832256,False,1,60,sounds\french\audio/french_637.wav,"[[  0.         -31.08892402]
 [  0.1         15.25602459]
 [  0.2         -3.15023114]
 [  0.3         40.81887351]
 [  0.4         32.81586387]
 [  0.5         21.08421584]
 [  0.6         93.16874519]
 [  0.7        -69.92672839]
 [  0.8        -46.04583787]
 [  0.9         22.60400214]
 [  1.           2.02681017]
 [  1.1          5.86348535]
 [  1.14141667  81.93949942]]","[[0.         0.60198854]
 [0.1        1.14825728]
 [0.2        1.87909586]
 [0.3        0.13625986]
 [0.4        1.66395473]
 [0.5        0.72202939]
 [0.6        1.63866702]
 [0.7        1.06181355]
 [0.8        1.62661878]
 [0.9        1.30866952]
 [1.         1.56125129]
 [1.1        1.66673134]
 [1.14141667 1.21110633]]",0,0.147
8817605319,m,22,french,4,5,french,2024-02-09 14:59:39.832256,False,1,61,sounds\french\audio/french_531.wav,"[[  0.         -99.16719585]
 [  0.1        -58.60277486]
 [  0.2          1.94173857]
 [  0.3         -4.8835684 ]
 [  0.4        -50.9912331 ]
 [  0.5         35.53024455]
 [  0.6         60.94981065]
 [  0.7         93.30395839]
 [  0.8         18.66393053]
 [  0.9         58.02367682]
 [  1.          58.08127461]
 [  1.1         90.75945006]
 [  1.14141667  22.95218732]]","[[0.         0.07261015]
 [0.1        1.67506064]
 [0.2        0.06585158]
 [0.3        0.93322962]
 [0.4        0.18048067]
 [0.5        0.71042268]
 [0.6        1.70175741]
 [0.7        1.53540352]
 [0.8        0.94508122]
 [0.9        1.79746277]
 [1.         0.92096106]
 [1.1        1.42399223]
 [1.14141667 1.53076947]]",0,0.107
8817605319,m,22,french,4,5,french,2024-02-09 14:59:39.832256,False,1,62,sounds\french\audio/french_534.wav,"[[  0.         -15.28338531]
 [  0.1         78.02953545]
 [  0.2         56.06185369]
 [  0.3        -88.22904754]
 [  0.4         64.61339654]
 [  0.5        -30.71044568]
 [  0.6         14.1855631 ]
 [  0.7         78.82962117]
 [  0.8         32.43672353]
 [  0.9         94.02234406]
 [  1.         -42.45395563]
 [  1.1        -83.33513244]
 [  1.14141667  95.31234504]]","[[0.         1.64226686]
 [0.1        0.3938212 ]
 [0.2        0.23843056]
 [0.3        0.60135969]
 [0.4        1.21076955]
 [0.5        1.07436413]
 [0.6        1.61739365]
 [0.7        1.68323929]
 [0.8        1.54652057]
 [0.9        0.7059435 ]
 [1.         0.83665441]
 [1.1        1.30268562]
 [1.14141667 1.46841429]]",0,0.293
8817605319,m,22,french,4,5,french,2024-02-09 14:59:39.832256,False,1,63,sounds\french\audio/french_475.wav,"[[ 0.00000000e+00 -5.40765714e+01]
 [ 1.00000000e-01 -7.75997382e+01]
 [ 2.00000000e-01 -5.96417481e+00]
 [ 3.00000000e-01  9.03794085e+01]
 [ 4.00000000e-01  7.76475749e+01]
 [ 5.00000000e-01 -5.10170631e-02]
 [ 6.00000000e-01 -4.82331031e+01]
 [ 7.00000000e-01  6.84735600e+01]
 [ 8.00000000e-01  1.61116018e+00]
 [ 9.00000000e-01  8.56911048e+01]
 [ 1.00000000e+00  2.45551859e+01]
 [ 1.10000000e+00 -3.23235712e+01]
 [ 1.14141667e+00  6.46930948e+01]]","[[0.         1.22843023]
 [0.1        0.67465416]
 [0.2        1.46352817]
 [0.3        1.65803665]
 [0.4        0.3744317 ]
 [0.5        1.25600303]
 [0.6        1.88058254]
 [0.7        1.63911274]
 [0.8        1.55282086]
 [0.9        0.43137501]
 [1.         0.79044925]
 [1.1        1.78282868]
 [1.14141667 1.0446802 ]]",0,0.172
8817605319,m,22,french,4,5,french,2024-02-09 14:59:39.832256,False,1,64,sounds\french\audio/french_871.wav,"[[  0.         -87.17332431]
 [  0.1        -63.09415983]
 [  0.2         -5.13692517]
 [  0.3         39.71093195]
 [  0.4         96.30977603]
 [  0.5         25.78038163]
 [  0.6        -32.08428471]
 [  0.7        -14.27500372]
 [  0.8         34.81288679]
 [  0.9        -35.6564535 ]
 [  1.         -22.32235069]
 [  1.1         65.75387004]
 [  1.14141667 -54.68805411]]","[[0.         1.77173176]
 [0.1        0.67265644]
 [0.2        0.44902259]
 [0.3        0.63427398]
 [0.4        1.34575671]
 [0.5        1.48044625]
 [0.6        1.83651266]
 [0.7        1.53561215]
 [0.8        0.30121489]
 [0.9        0.27947142]
 [1.         1.45080304]
 [1.1        0.99601767]
 [1.14141667 0.62533647]]",0,0.626
8817605319,m,22,french,4,5,french,2024-02-09 14:59:39.832256,False,1,65,sounds\french\audio/french_727.wav,"[[  0.         -20.05824151]
 [  0.1         69.75510409]
 [  0.2        -72.00605267]
 [  0.3         -6.83631599]
 [  0.4        -22.0103923 ]
 [  0.5         -9.32146308]
 [  0.6         55.52257653]
 [  0.7         15.94643217]
 [  0.8        -72.95565773]
 [  0.9          6.47080818]
 [  1.         -39.0563141 ]
 [  1.1        -93.66180319]
 [  1.14141667  71.53836892]]","[[0.         0.38879294]
 [0.1        1.1988761 ]
 [0.2        1.21340454]
 [0.3        1.07331199]
 [0.4        0.09560546]
 [0.5        0.49166162]
 [0.6        1.00409517]
 [0.7        0.80619997]
 [0.8        1.99971332]
 [0.9        0.66850695]
 [1.         0.85036582]
 [1.1        0.40432855]
 [1.14141667 0.54223164]]",0,0.423
8817605319,m,22,french,4,5,french,2024-02-09 14:59:39.832256,False,1,66,sounds\french\audio/french_400.wav,"[[  0.         -88.7641604 ]
 [  0.1         38.97629482]
 [  0.2         12.50030117]
 [  0.3         56.00968509]
 [  0.4        -31.24455859]
 [  0.5        -72.55550381]
 [  0.6         35.98414257]
 [  0.7         72.57136852]
 [  0.8        -11.32934593]
 [  0.9        -46.40511645]
 [  1.         -68.71252184]
 [  1.1         75.69788429]
 [  1.14141667  88.08833091]]","[[0.         0.39961666]
 [0.1        1.26870127]
 [0.2        0.32037944]
 [0.3        0.09730503]
 [0.4        0.78902453]
 [0.5        0.78590924]
 [0.6        0.44916275]
 [0.7        0.40242325]
 [0.8        0.33933548]
 [0.9        0.56145484]
 [1.         0.26747814]
 [1.1        0.93231975]
 [1.14141667 1.15525068]]",0,0.745
8817605319,m,22,french,4,5,french,2024-02-09 14:59:39.832256,False,1,67,sounds\french\audio/french_106.wav,"[[  0.          41.36913714]
 [  0.1         72.10514789]
 [  0.2         71.35003336]
 [  0.3        -23.14792258]
 [  0.4        -85.60943665]
 [  0.5        -13.44621845]
 [  0.6        -19.94134835]
 [  0.7         58.19403594]
 [  0.8        -62.37820211]
 [  0.9         21.65239657]
 [  1.          13.26561889]
 [  1.1        -51.9211494 ]
 [  1.14141667   4.66038509]]","[[0.         0.22040484]
 [0.1        0.8989972 ]
 [0.2        1.76242083]
 [0.3        0.31381105]
 [0.4        0.12343581]
 [0.5        1.50784173]
 [0.6        1.19613994]
 [0.7        0.37137686]
 [0.8        0.57613605]
 [0.9        1.01997302]
 [1.         1.29543853]
 [1.1        1.97443987]
 [1.14141667 0.87800509]]",0,0.812
8817605319,m,22,french,4,5,french,2024-02-09 14:59:39.832256,False,1,68,sounds\french\audio/french_776.wav,"[[  0.         -48.17423645]
 [  0.1         70.47241533]
 [  0.2        -25.19523269]
 [  0.3         87.43097705]
 [  0.4        -31.8700143 ]
 [  0.5         85.54136389]
 [  0.6        -67.05238836]
 [  0.7         63.29487245]
 [  0.8        -91.58850078]
 [  0.9        -92.53289931]
 [  1.          -7.51119873]
 [  1.1        -98.58910198]
 [  1.14141667 -80.10890934]]","[[0.         0.77631494]
 [0.1        0.30206355]
 [0.2        0.58442509]
 [0.3        1.0473267 ]
 [0.4        1.39697119]
 [0.5        1.2447418 ]
 [0.6        1.41470132]
 [0.7        0.48396717]
 [0.8        0.48226026]
 [0.9        1.44155104]
 [1.         1.57581197]
 [1.1        1.16160073]
 [1.14141667 0.05324504]]",0,0.421
8817605319,m,22,french,4,5,french,2024-02-09 14:59:39.832256,False,1,69,sounds\french\audio/french_874.wav,"[[  0.          24.82218591]
 [  0.1         31.97554255]
 [  0.2          2.67321332]
 [  0.3         59.14891992]
 [  0.4         43.38272278]
 [  0.5        -74.72104069]
 [  0.6         -8.80505474]
 [  0.7        -25.97945718]
 [  0.8          1.17125942]
 [  0.9         33.37054961]
 [  1.         -11.11162277]
 [  1.1         -2.67830525]
 [  1.14141667  31.54441533]]","[[0.         0.93385532]
 [0.1        0.52068193]
 [0.2        1.97452011]
 [0.3        1.89922471]
 [0.4        1.65471555]
 [0.5        0.60790691]
 [0.6        1.28029407]
 [0.7        0.93899149]
 [0.8        1.17717124]
 [0.9        0.6185284 ]
 [1.         0.02478248]
 [1.1        1.255922  ]
 [1.14141667 0.93433181]]",0,1.161
8817605319,m,22,french,4,5,french,2024-02-09 14:59:39.832256,False,1,70,sounds\french\audio/french_238.wav,"[[  0.          11.33876858]
 [  0.1         60.4886843 ]
 [  0.2         62.61816742]
 [  0.3        -58.2929198 ]
 [  0.4        -87.34277879]
 [  0.5        -26.6303728 ]
 [  0.6         91.01553739]
 [  0.7         16.48997416]
 [  0.8        -33.13671934]
 [  0.9         39.47811592]
 [  1.         -82.2057662 ]
 [  1.1        -87.16985017]
 [  1.14141667 -97.56990307]]","[[0.         1.57793391]
 [0.1        0.5338128 ]
 [0.2        0.71153002]
 [0.3        0.52960248]
 [0.4        1.00617454]
 [0.5        0.81851938]
 [0.6        0.92366448]
 [0.7        0.72259943]
 [0.8        0.36894476]
 [0.9        0.86774156]
 [1.         1.1038755 ]
 [1.1        1.20164054]
 [1.14141667 1.5425577 ]]",0,0.299
8817605319,m,22,french,4,5,french,2024-02-09 14:59:39.832256,False,1,71,sounds\french\audio/french_899.wav,"[[  0.         -16.73578941]
 [  0.1        -42.4241494 ]
 [  0.2        -55.51296948]
 [  0.3        -85.08144186]
 [  0.4         49.18498444]
 [  0.5         -2.46458868]
 [  0.6        -74.57160954]
 [  0.7         20.90286637]
 [  0.8         51.96240349]
 [  0.9        -33.95606266]
 [  1.         -16.34117297]
 [  1.1         54.39021844]
 [  1.14141667 -77.08862681]]","[[0.         1.51099297]
 [0.1        1.08608303]
 [0.2        1.96213588]
 [0.3        0.7041881 ]
 [0.4        1.45679841]
 [0.5        0.85156083]
 [0.6        0.63692628]
 [0.7        0.08255461]
 [0.8        1.6720077 ]
 [0.9        0.92070581]
 [1.         0.77471652]
 [1.1        1.29770301]
 [1.14141667 1.26837296]]",0,0.396
8817605319,m,22,french,4,5,french,2024-02-09 14:59:39.832256,False,1,72,sounds\french\audio/french_253.wav,"[[  0.         -89.5826566 ]
 [  0.1        -63.70370357]
 [  0.2        -14.51209822]
 [  0.3          5.82695505]
 [  0.4        -19.57946925]
 [  0.5         87.57565015]
 [  0.6        -73.1648263 ]
 [  0.7        -39.90368027]
 [  0.8         14.9886667 ]
 [  0.9          7.8580164 ]
 [  1.          -2.22909138]
 [  1.1        -72.50653721]
 [  1.14141667 -11.98086269]]","[[0.         1.00310862]
 [0.1        1.7781702 ]
 [0.2        0.53130159]
 [0.3        0.05471502]
 [0.4        0.52945793]
 [0.5        1.66365335]
 [0.6        1.72939253]
 [0.7        1.34794684]
 [0.8        1.19439909]
 [0.9        0.55204652]
 [1.         1.59445373]
 [1.1        1.19009319]
 [1.14141667 1.9048409 ]]",0,0.147
8817605319,m,22,french,4,5,french,2024-02-09 14:59:39.832256,False,1,73,sounds\french\audio/french_785.wav,"[[ 0.00000000e+00  3.10161768e+01]
 [ 1.00000000e-01  8.89317705e-02]
 [ 2.00000000e-01  4.68782722e+01]
 [ 3.00000000e-01  2.02217261e+01]
 [ 4.00000000e-01 -7.53235401e+01]
 [ 5.00000000e-01 -4.39350846e+01]
 [ 6.00000000e-01 -2.54763074e+01]
 [ 7.00000000e-01  5.70842413e+01]
 [ 8.00000000e-01 -1.08459606e+01]
 [ 9.00000000e-01  3.40534095e+01]
 [ 1.00000000e+00 -4.89572729e+01]
 [ 1.10000000e+00  4.16078861e+01]
 [ 1.14141667e+00  8.92588617e+01]]","[[0.         1.90021395]
 [0.1        0.95233189]
 [0.2        1.49745041]
 [0.3        1.87832474]
 [0.4        0.82836314]
 [0.5        1.74071043]
 [0.6        0.83584892]
 [0.7        0.40885784]
 [0.8        0.0344692 ]
 [0.9        0.38075821]
 [1.         0.97802108]
 [1.1        1.78850331]
 [1.14141667 0.64465129]]",0,1.245
8817605319,m,22,french,4,5,french,2024-02-09 14:59:39.832256,False,1,74,sounds\french\audio/french_681.wav,"[[  0.         -97.30934459]
 [  0.1        -35.19724747]
 [  0.2        -21.51950238]
 [  0.3        -52.55201926]
 [  0.4         62.39918701]
 [  0.5         37.22710343]
 [  0.6         37.61564457]
 [  0.7        -58.93821482]
 [  0.8         91.17894054]
 [  0.9        -46.6625886 ]
 [  1.         -13.36336259]
 [  1.1         -2.63692555]
 [  1.14141667 -49.79155462]]","[[0.         0.68826213]
 [0.1        0.18573935]
 [0.2        0.87968151]
 [0.3        1.42391909]
 [0.4        1.43099487]
 [0.5        1.13641153]
 [0.6        0.01922596]
 [0.7        1.86928285]
 [0.8        0.97464305]
 [0.9        1.3387681 ]
 [1.         0.7264955 ]
 [1.1        1.20739743]
 [1.14141667 0.86539132]]",0,0.101
8817605319,m,22,french,4,5,french,2024-02-09 14:59:39.832256,False,1,75,sounds\french\audio/french_630.wav,"[[  0.         -11.85609202]
 [  0.1         96.09656475]
 [  0.2        -33.56747365]
 [  0.3         28.74577445]
 [  0.4          2.92872037]
 [  0.5         33.78274033]
 [  0.6         33.00019437]
 [  0.7         47.31284147]
 [  0.8        -99.16635588]
 [  0.9         77.81632981]
 [  1.          69.4017306 ]
 [  1.1         18.2284971 ]
 [  1.14141667 -69.99810241]]","[[0.         1.94260734]
 [0.1        1.15731247]
 [0.2        0.61883627]
 [0.3        1.63189615]
 [0.4        0.13310367]
 [0.5        0.62854349]
 [0.6        1.95286232]
 [0.7        0.55695804]
 [0.8        0.39433406]
 [0.9        0.61587688]
 [1.         1.15717027]
 [1.1        0.28159614]
 [1.14141667 1.31420192]]",0,0.299
8817605319,m,22,french,4,5,french,2024-02-09 14:59:39.832256,False,1,76,sounds\french\audio/french_189.wav,"[[  0.          28.35724915]
 [  0.1         26.38493171]
 [  0.2          8.90779244]
 [  0.3        -34.13241848]
 [  0.4        -30.2250642 ]
 [  0.5         60.19050012]
 [  0.6         75.67852572]
 [  0.7         -7.18601105]
 [  0.8         11.94290596]
 [  0.9         44.4176468 ]
 [  1.          55.01136248]
 [  1.1         13.02153574]
 [  1.14141667 -20.1322999 ]]","[[0.         1.71415681]
 [0.1        0.18459313]
 [0.2        0.47305151]
 [0.3        1.92043918]
 [0.4        1.31799805]
 [0.5        1.42118409]
 [0.6        0.66802023]
 [0.7        1.51681652]
 [0.8        0.60482519]
 [0.9        0.48366078]
 [1.         1.25824198]
 [1.1        0.90606561]
 [1.14141667 1.81389121]]",0,0.299
8817605319,m,22,french,4,5,french,2024-02-09 14:59:39.832256,False,1,77,sounds\french\audio/french_91.wav,"[[  0.          -4.38928225]
 [  0.1         -4.65746262]
 [  0.2         38.3551302 ]
 [  0.3         32.4405862 ]
 [  0.4         81.49673945]
 [  0.5         81.25342016]
 [  0.6         56.57176785]
 [  0.7         75.06735921]
 [  0.8         -0.66184624]
 [  0.9         76.72282053]
 [  1.         -60.33019501]
 [  1.1        -28.16928775]
 [  1.14141667  29.01698887]]","[[0.         1.35402237]
 [0.1        0.85910671]
 [0.2        1.03408634]
 [0.3        1.08579464]
 [0.4        0.75561593]
 [0.5        1.00495207]
 [0.6        1.98726576]
 [0.7        1.85537264]
 [0.8        1.75011325]
 [0.9        0.48868788]
 [1.         1.20303721]
 [1.1        0.40883522]
 [1.14141667 0.8124878 ]]",0,1.486
8817605319,m,22,french,4,5,french,2024-02-09 14:59:39.832256,False,1,78,sounds\french\audio/french_600.wav,"[[  0.          52.68900208]
 [  0.1         -6.73067052]
 [  0.2         96.57898689]
 [  0.3         88.93281909]
 [  0.4         75.90530311]
 [  0.5         83.32696458]
 [  0.6        -66.79703103]
 [  0.7         63.7950694 ]
 [  0.8        -58.76780301]
 [  0.9         44.34251674]
 [  1.          40.69658778]
 [  1.1        -28.98281282]
 [  1.14141667  43.07407366]]","[[0.         1.20996587]
 [0.1        0.65229061]
 [0.2        1.53870963]
 [0.3        0.24911415]
 [0.4        0.83209065]
 [0.5        1.35695142]
 [0.6        1.60598618]
 [0.7        1.81288548]
 [0.8        0.6555076 ]
 [0.9        1.0412619 ]
 [1.         1.14001909]
 [1.1        0.56625227]
 [1.14141667 0.71314078]]",0,0.255
8817605319,m,22,french,4,5,french,2024-02-09 14:59:39.832256,False,1,79,sounds\french\audio/french_463.wav,"[[  0.         -28.25289602]
 [  0.1        -29.96157941]
 [  0.2        -35.61602773]
 [  0.3         64.20990909]
 [  0.4        -63.83515399]
 [  0.5         71.59997763]
 [  0.6         89.31755347]
 [  0.7        -98.14659704]
 [  0.8         33.66167072]
 [  0.9         67.16249153]
 [  1.         -48.02468866]
 [  1.1          0.355648  ]
 [  1.14141667 -15.74672825]]","[[0.         0.03820079]
 [0.1        1.06701123]
 [0.2        1.17367249]
 [0.3        0.16492654]
 [0.4        0.16398837]
 [0.5        1.39593521]
 [0.6        1.25797632]
 [0.7        0.35849906]
 [0.8        0.72596435]
 [0.9        1.46059629]
 [1.         0.19516894]
 [1.1        1.55106472]
 [1.14141667 1.61627541]]",0,0.07
8817605319,m,22,french,4,5,french,2024-02-09 14:59:39.832256,False,1,80,sounds\french\audio/french_13.wav,"[[  0.          28.79040646]
 [  0.1          1.43639251]
 [  0.2          8.93741283]
 [  0.3        -45.23678971]
 [  0.4        -36.64568284]
 [  0.5         95.08006425]
 [  0.6        -25.15383894]
 [  0.7         20.22064469]
 [  0.8          4.43008543]
 [  0.9         31.96842926]
 [  1.          59.17290693]
 [  1.1          3.48956858]
 [  1.14141667 -39.55658578]]","[[0.         1.71683998]
 [0.1        1.51392947]
 [0.2        1.95012388]
 [0.3        1.24720578]
 [0.4        0.6748638 ]
 [0.5        0.64178438]
 [0.6        1.78067585]
 [0.7        0.73379373]
 [0.8        0.8008251 ]
 [0.9        1.62083082]
 [1.         0.40737704]
 [1.1        0.59465297]
 [1.14141667 0.57584179]]",0,0.295
8817605319,m,22,french,4,5,french,2024-02-09 14:59:39.832256,False,1,81,sounds\french\audio/french_985.wav,"[[  0.         -59.37353255]
 [  0.1         40.25583685]
 [  0.2         80.59080254]
 [  0.3         40.93847923]
 [  0.4        -36.56577189]
 [  0.5         35.51460066]
 [  0.6         54.7926899 ]
 [  0.7         78.93834027]
 [  0.8        -92.8627388 ]
 [  0.9        -52.89775391]
 [  1.          25.49077528]
 [  1.1         10.48793814]
 [  1.14141667  80.61221093]]","[[0.         1.26289608]
 [0.1        1.7636238 ]
 [0.2        0.23232194]
 [0.3        0.4110335 ]
 [0.4        1.43128616]
 [0.5        0.65384514]
 [0.6        0.38929396]
 [0.7        0.45559426]
 [0.8        1.69671004]
 [0.9        1.41051885]
 [1.         1.92248776]
 [1.1        1.77523192]
 [1.14141667 0.82877362]]",0,0.092
8817605319,m,22,french,4,5,french,2024-02-09 14:59:39.832256,False,1,82,sounds\french\audio/french_273.wav,"[[  0.           0.7190916 ]
 [  0.1         97.83891779]
 [  0.2         60.36727917]
 [  0.3         75.34562321]
 [  0.4        -49.29676333]
 [  0.5         66.1161099 ]
 [  0.6         47.59795939]
 [  0.7        -57.87962131]
 [  0.8         81.42088192]
 [  0.9        -40.71214973]
 [  1.          21.35486497]
 [  1.1         48.12506042]
 [  1.14141667  82.77823336]]","[[0.         0.53676655]
 [0.1        1.54358622]
 [0.2        0.47152348]
 [0.3        1.2590705 ]
 [0.4        1.86837956]
 [0.5        0.9921972 ]
 [0.6        0.68574852]
 [0.7        1.86045002]
 [0.8        1.53065292]
 [0.9        1.34276988]
 [1.         1.27786291]
 [1.1        1.11936535]
 [1.14141667 0.95547805]]",0,0.081
8817605319,m,22,french,4,5,french,2024-02-09 14:59:39.832256,False,1,83,sounds\french\audio/french_733.wav,"[[  0.         -28.30259207]
 [  0.1        -20.51655877]
 [  0.2         32.67834183]
 [  0.3          6.62547625]
 [  0.4        -74.88223305]
 [  0.5         78.7904108 ]
 [  0.6         92.741833  ]
 [  0.7        -51.74379755]
 [  0.8          0.26100759]
 [  0.9         80.00528442]
 [  1.         -20.98835091]
 [  1.1        -67.79194344]
 [  1.14141667  20.39044297]]","[[0.         0.49045242]
 [0.1        0.41105181]
 [0.2        0.51992236]
 [0.3        0.5442563 ]
 [0.4        1.50191258]
 [0.5        0.7960124 ]
 [0.6        1.55647812]
 [0.7        0.75813018]
 [0.8        1.97775979]
 [0.9        1.24266335]
 [1.         0.70545845]
 [1.1        0.86751529]
 [1.14141667 1.05140742]]",0,0.128
8817605319,m,22,french,4,5,french,2024-02-09 14:59:39.832256,False,1,84,sounds\french\audio/french_73.wav,"[[  0.          95.05431398]
 [  0.1        -50.91948374]
 [  0.2        -96.19003488]
 [  0.3         18.2865052 ]
 [  0.4         82.99950242]
 [  0.5        -73.16931859]
 [  0.6        -92.19935445]
 [  0.7        -41.25216255]
 [  0.8         53.29969886]
 [  0.9        -22.90498979]
 [  1.           8.87722078]
 [  1.1         88.28753975]
 [  1.14141667  51.67559791]]","[[0.         1.00672117]
 [0.1        1.2078676 ]
 [0.2        0.52929109]
 [0.3        0.91699778]
 [0.4        1.03241308]
 [0.5        0.96861979]
 [0.6        0.78229621]
 [0.7        0.77834766]
 [0.8        1.29970854]
 [0.9        0.81166191]
 [1.         1.87816594]
 [1.1        0.91860342]
 [1.14141667 1.07977803]]",0,0.286
8817605319,m,22,french,4,5,french,2024-02-09 14:59:39.832256,False,1,85,sounds\french\audio/french_557.wav,"[[  0.          87.75716143]
 [  0.1         75.58973606]
 [  0.2        -10.41118754]
 [  0.3        -48.91892045]
 [  0.4        -17.3468807 ]
 [  0.5         34.22726799]
 [  0.6        -77.53700308]
 [  0.7         78.68416949]
 [  0.8        -43.34644419]
 [  0.9         68.78190397]
 [  1.         -59.83661076]
 [  1.1        -25.29215861]
 [  1.14141667  62.84029703]]","[[0.         1.51726274]
 [0.1        0.82672788]
 [0.2        0.29594779]
 [0.3        1.45862429]
 [0.4        0.77182158]
 [0.5        0.29571527]
 [0.6        1.00868641]
 [0.7        0.49328713]
 [0.8        0.40883898]
 [0.9        1.05980011]
 [1.         1.00265193]
 [1.1        0.2775648 ]
 [1.14141667 0.76714815]]",0,0.119
8817605319,m,22,french,4,5,french,2024-02-09 14:59:39.832256,False,1,86,sounds\french\audio/french_90.wav,"[[  0.          51.48746338]
 [  0.1        -41.52133944]
 [  0.2        -66.82034245]
 [  0.3        -31.91254058]
 [  0.4        -56.80874984]
 [  0.5         68.34440134]
 [  0.6         50.52930805]
 [  0.7         -1.54170659]
 [  0.8        -35.46235807]
 [  0.9        -26.78461092]
 [  1.         -18.44652471]
 [  1.1        -81.09353417]
 [  1.14141667 -49.88432299]]","[[0.         0.57454011]
 [0.1        0.30754534]
 [0.2        0.44353042]
 [0.3        1.82396512]
 [0.4        0.39997223]
 [0.5        0.81668605]
 [0.6        1.26467162]
 [0.7        1.853663  ]
 [0.8        1.62084754]
 [0.9        1.11562603]
 [1.         0.44778159]
 [1.1        1.37026097]
 [1.14141667 1.47783822]]",0,0.277
8817605319,m,22,french,4,5,french,2024-02-09 14:59:39.832256,False,1,87,sounds\french\audio/french_884.wav,"[[  0.          76.60838861]
 [  0.1        -41.71607783]
 [  0.2          3.78955534]
 [  0.3         84.8602831 ]
 [  0.4         16.24540696]
 [  0.5         68.23827876]
 [  0.6        -39.71005998]
 [  0.7        -63.62075652]
 [  0.8        -57.73110382]
 [  0.9        -99.10016615]
 [  1.         -27.53166894]
 [  1.1        -48.35308155]
 [  1.14141667 -12.55349758]]","[[0.         1.25391535]
 [0.1        0.49990107]
 [0.2        1.78461269]
 [0.3        1.65174889]
 [0.4        0.71422903]
 [0.5        0.8676404 ]
 [0.6        0.5442146 ]
 [0.7        1.40281909]
 [0.8        0.85462819]
 [0.9        0.70808592]
 [1.         1.31831149]
 [1.1        0.34930191]
 [1.14141667 0.2030207 ]]",0,0.204
8817605319,m,22,french,4,5,french,2024-02-09 14:59:39.832256,False,1,88,sounds\french\audio/french_304.wav,"[[  0.          91.0393851 ]
 [  0.1         51.89592646]
 [  0.2        -41.96139425]
 [  0.3         33.22351683]
 [  0.4        -81.82163914]
 [  0.5         75.27027895]
 [  0.6         50.24685935]
 [  0.7         18.86376769]
 [  0.8        -72.34873966]
 [  0.9         12.57942246]
 [  1.          34.665409  ]
 [  1.1         60.12452048]
 [  1.14141667 -15.90395096]]","[[0.         1.70122252]
 [0.1        0.67923322]
 [0.2        0.27919383]
 [0.3        1.89869366]
 [0.4        1.10426251]
 [0.5        0.40449769]
 [0.6        0.77963491]
 [0.7        0.60414931]
 [0.8        1.15326972]
 [0.9        0.36579896]
 [1.         0.61919761]
 [1.1        1.71767122]
 [1.14141667 0.80319073]]",0,0.082
8817605319,m,22,french,4,5,french,2024-02-09 14:59:39.832256,False,1,89,sounds\french\audio/french_698.wav,"[[  0.         -72.72171023]
 [  0.1        -92.28547811]
 [  0.2         78.30279975]
 [  0.3        -68.78486727]
 [  0.4         87.24301331]
 [  0.5         27.58390407]
 [  0.6         61.38962085]
 [  0.7        -76.7179626 ]
 [  0.8         23.60904151]
 [  0.9         58.8863327 ]
 [  1.          44.33190286]
 [  1.1        -97.60212082]
 [  1.14141667  -6.89659946]]","[[0.         1.10424283]
 [0.1        1.63377421]
 [0.2        1.39433893]
 [0.3        0.14644335]
 [0.4        1.64827297]
 [0.5        0.39799942]
 [0.6        0.89163179]
 [0.7        0.96988788]
 [0.8        1.20056585]
 [0.9        1.68687528]
 [1.         1.25995821]
 [1.1        1.93576493]
 [1.14141667 1.56148329]]",0,1.356
8817605319,m,22,french,4,5,french,2024-02-09 14:59:39.832256,False,1,90,sounds\french\audio/french_58.wav,"[[  0.          94.28482513]
 [  0.1         -8.41544404]
 [  0.2        -62.96182624]
 [  0.3         60.34405866]
 [  0.4         32.40128414]
 [  0.5        -68.51454301]
 [  0.6         29.82130445]
 [  0.7         -4.63475932]
 [  0.8        -63.03753655]
 [  0.9         88.63401009]
 [  1.          21.784489  ]
 [  1.1         78.48150349]
 [  1.14141667 -36.70796852]]","[[0.         1.90438259]
 [0.1        0.61487331]
 [0.2        1.646554  ]
 [0.3        1.52491918]
 [0.4        1.13010084]
 [0.5        1.89433528]
 [0.6        0.760668  ]
 [0.7        0.49529271]
 [0.8        0.89196999]
 [0.9        0.8973393 ]
 [1.         0.72401301]
 [1.1        0.46484617]
 [1.14141667 1.22177947]]",0,0.244
8817605319,m,22,french,4,5,french,2024-02-09 14:59:39.832256,False,1,91,sounds\french\audio/french_655.wav,"[[  0.          22.05732479]
 [  0.1         -7.34283646]
 [  0.2        -16.71216694]
 [  0.3         82.87197114]
 [  0.4        -13.73801988]
 [  0.5         78.78238984]
 [  0.6         15.74802992]
 [  0.7          7.99289062]
 [  0.8         64.26189844]
 [  0.9        -76.33286274]
 [  1.          -6.92462562]
 [  1.1        -66.84426621]
 [  1.14141667  91.19399293]]","[[0.         1.22083149]
 [0.1        0.90628978]
 [0.2        0.64111829]
 [0.3        0.38986932]
 [0.4        0.61791891]
 [0.5        1.61257293]
 [0.6        1.14120276]
 [0.7        1.85994401]
 [0.8        0.1773239 ]
 [0.9        1.26191456]
 [1.         1.18778905]
 [1.1        1.26114912]
 [1.14141667 0.56570488]]",0,0.577
8817605319,m,22,french,4,5,french,2024-02-09 14:59:39.832256,False,1,92,sounds\french\audio/french_519.wav,"[[  0.          38.95071941]
 [  0.1        -98.16248953]
 [  0.2         -8.53351214]
 [  0.3        -29.96278714]
 [  0.4        -57.19313365]
 [  0.5        -14.84533872]
 [  0.6         65.33729063]
 [  0.7          2.08710226]
 [  0.8        -14.97633343]
 [  0.9         84.22736014]
 [  1.         -86.65839452]
 [  1.1        -25.38298956]
 [  1.14141667 -47.75612145]]","[[0.         0.15710705]
 [0.1        1.65075873]
 [0.2        0.59061529]
 [0.3        0.34046239]
 [0.4        0.44125755]
 [0.5        1.00043078]
 [0.6        1.54523625]
 [0.7        1.08213469]
 [0.8        0.71331726]
 [0.9        0.21863186]
 [1.         0.07702422]
 [1.1        0.09511301]
 [1.14141667 1.11047356]]",0,1.977
8817605319,m,22,french,4,5,french,2024-02-09 14:59:39.832256,False,1,93,sounds\french\audio/french_800.wav,"[[  0.          -4.25631197]
 [  0.1         22.66632576]
 [  0.2         10.28900554]
 [  0.3         38.91231447]
 [  0.4        -12.27796799]
 [  0.5        -44.30581187]
 [  0.6        -22.88012932]
 [  0.7        -52.86195267]
 [  0.8         54.71772215]
 [  0.9        -51.65672109]
 [  1.         -51.77252424]
 [  1.1          7.38633242]
 [  1.14141667  17.65920114]]","[[0.         0.80468249]
 [0.1        1.14959191]
 [0.2        1.74323515]
 [0.3        0.77183711]
 [0.4        1.35051127]
 [0.5        1.94130964]
 [0.6        1.17392808]
 [0.7        1.52994111]
 [0.8        1.58058267]
 [0.9        1.58832666]
 [1.         1.09850348]
 [1.1        0.30985734]
 [1.14141667 1.66023428]]",0,0.15
8817605319,m,22,french,4,5,french,2024-02-09 14:59:39.832256,False,1,94,sounds\french\audio/french_153.wav,"[[  0.         -42.01574029]
 [  0.1        -90.00143585]
 [  0.2        -43.7259183 ]
 [  0.3         11.44022212]
 [  0.4         88.748088  ]
 [  0.5        -52.31400469]
 [  0.6         87.18732736]
 [  0.7        -86.03959727]
 [  0.8          8.69100054]
 [  0.9         62.86212057]
 [  1.          27.92700795]
 [  1.1         39.59984074]
 [  1.14141667 -14.92872681]]","[[0.         0.84439614]
 [0.1        0.44297776]
 [0.2        0.69214518]
 [0.3        1.09273238]
 [0.4        0.54928819]
 [0.5        0.96507272]
 [0.6        1.56155988]
 [0.7        1.86632658]
 [0.8        0.92278907]
 [0.9        0.59982574]
 [1.         0.05271929]
 [1.1        0.68548108]
 [1.14141667 1.34366794]]",0,0.795
8817605319,m,22,french,4,5,french,2024-02-09 14:59:39.832256,False,1,95,sounds\french\audio/french_712.wav,"[[  0.         -95.66069785]
 [  0.1         -6.05322415]
 [  0.2        -14.42781433]
 [  0.3         32.58463251]
 [  0.4        -88.6066963 ]
 [  0.5        -30.98319164]
 [  0.6         76.39467543]
 [  0.7        -64.68968395]
 [  0.8        -71.89558722]
 [  0.9         67.69667977]
 [  1.          18.20955726]
 [  1.1        -31.46092163]
 [  1.14141667  29.12914815]]","[[0.         1.85127754]
 [0.1        1.47951206]
 [0.2        1.70422178]
 [0.3        1.42320081]
 [0.4        1.1647441 ]
 [0.5        1.7308951 ]
 [0.6        0.03424579]
 [0.7        0.15973474]
 [0.8        1.61824192]
 [0.9        0.80414017]
 [1.         1.37598527]
 [1.1        0.55072858]
 [1.14141667 1.89981007]]",0,0.345
8817605319,m,22,french,4,5,french,2024-02-09 14:59:39.832256,False,1,96,sounds\french\audio/french_109.wav,"[[  0.           1.17844242]
 [  0.1        -14.85452266]
 [  0.2        -20.37230195]
 [  0.3         49.74194323]
 [  0.4        -65.96631617]
 [  0.5         21.76864509]
 [  0.6         20.73976333]
 [  0.7         70.44353833]
 [  0.8         51.04994309]
 [  0.9         20.19663893]
 [  1.           6.52382528]
 [  1.1        -82.64651079]
 [  1.14141667 -19.22290242]]","[[0.         1.5803853 ]
 [0.1        0.56742715]
 [0.2        0.78661325]
 [0.3        0.33324213]
 [0.4        0.49184911]
 [0.5        0.90813617]
 [0.6        1.60003572]
 [0.7        0.49286217]
 [0.8        1.51483798]
 [0.9        1.58201919]
 [1.         0.61887811]
 [1.1        1.53074757]
 [1.14141667 1.29835876]]",0,0.356
8817605319,m,22,french,4,5,french,2024-02-09 14:59:39.832256,False,1,97,sounds\french\audio/french_838.wav,"[[  0.          53.82244913]
 [  0.1        -35.81573955]
 [  0.2          8.40474369]
 [  0.3         44.99671581]
 [  0.4        -47.00146572]
 [  0.5         20.35658836]
 [  0.6        -68.67268486]
 [  0.7         -3.76207987]
 [  0.8        -54.29895515]
 [  0.9         18.68531545]
 [  1.           3.56564114]
 [  1.1        -35.37134565]
 [  1.14141667 -78.01839073]]","[[0.         0.41033137]
 [0.1        1.47401645]
 [0.2        1.34708581]
 [0.3        1.53495145]
 [0.4        1.01134901]
 [0.5        0.39081896]
 [0.6        1.16883214]
 [0.7        1.01815432]
 [0.8        0.72653042]
 [0.9        1.00283729]
 [1.         0.63403669]
 [1.1        0.69373238]
 [1.14141667 0.47350977]]",0,0.568
8817605319,m,22,french,4,5,french,2024-02-09 14:59:39.832256,False,1,98,sounds\french\audio/french_876.wav,"[[  0.          21.13117741]
 [  0.1         37.65514383]
 [  0.2         77.47900611]
 [  0.3         23.67401502]
 [  0.4         25.04537318]
 [  0.5        -67.87681092]
 [  0.6        -20.64301187]
 [  0.7         -7.95663064]
 [  0.8         76.77399723]
 [  0.9        -71.01793875]
 [  1.          -2.24558783]
 [  1.1        -93.03998857]
 [  1.14141667  65.30869521]]","[[0.         1.19375936]
 [0.1        1.40646894]
 [0.2        0.04935251]
 [0.3        1.0742513 ]
 [0.4        1.62827347]
 [0.5        1.21583267]
 [0.6        0.70254993]
 [0.7        1.52033335]
 [0.8        0.43483752]
 [0.9        1.04373837]
 [1.         0.6539037 ]
 [1.1        0.22502356]
 [1.14141667 1.53054572]]",0,0.556
8817605319,m,22,french,4,5,french,2024-02-09 14:59:39.832256,False,1,99,sounds\french\audio/french_959.wav,"[[  0.         -38.78716583]
 [  0.1         83.97538875]
 [  0.2        -68.1228649 ]
 [  0.3        -41.95368962]
 [  0.4        -64.50673754]
 [  0.5         14.64173949]
 [  0.6         37.29610472]
 [  0.7         17.36432076]
 [  0.8         64.63054237]
 [  0.9         -0.55714174]
 [  1.         -86.63903478]
 [  1.1          9.24896972]
 [  1.14141667 -57.53848842]]","[[0.         1.01136346]
 [0.1        0.01517065]
 [0.2        1.90257515]
 [0.3        1.59883642]
 [0.4        1.27442348]
 [0.5        0.72016077]
 [0.6        1.68485577]
 [0.7        0.42613864]
 [0.8        1.15064148]
 [0.9        0.20086001]
 [1.         0.91350004]
 [1.1        0.49375307]
 [1.14141667 1.06538265]]",0,0.518
8817605319,m,22,french,4,5,french,2024-02-09 14:59:39.832256,False,1,100,sounds\french\audio/french_613.wav,"[[  0.         -79.12321817]
 [  0.1         -7.41492532]
 [  0.2        -83.26616323]
 [  0.3         76.11721718]
 [  0.4        -86.02724826]
 [  0.5        -21.97136908]
 [  0.6        -20.66842631]
 [  0.7        -18.6862133 ]
 [  0.8         93.72513797]
 [  0.9        -61.43949343]
 [  1.         -85.97992137]
 [  1.1         65.40328987]
 [  1.14141667  -7.08798818]]","[[0.         0.47548878]
 [0.1        0.76860871]
 [0.2        0.13725989]
 [0.3        1.43493141]
 [0.4        0.64104135]
 [0.5        0.69636711]
 [0.6        0.03283489]
 [0.7        1.11684822]
 [0.8        0.70396807]
 [0.9        0.51356951]
 [1.         0.02840793]
 [1.1        0.75953201]
 [1.14141667 0.90179979]]",0,1.493
8817605319,m,22,french,4,5,french,2024-02-09 14:59:39.832256,False,1,101,sounds\french\audio/french_959.wav,"[[  0.         -38.78716583]
 [  0.1         83.97538875]
 [  0.2        -68.1228649 ]
 [  0.3        -41.95368962]
 [  0.4        -64.50673754]
 [  0.5         14.64173949]
 [  0.6         37.29610472]
 [  0.7         17.36432076]
 [  0.8         64.63054237]
 [  0.9         -0.55714174]
 [  1.         -86.63903478]
 [  1.1          9.24896972]
 [  1.14141667 -57.53848842]]","[[0.         1.01136346]
 [0.1        0.01517065]
 [0.2        1.90257515]
 [0.3        1.59883642]
 [0.4        1.27442348]
 [0.5        0.72016077]
 [0.6        1.68485577]
 [0.7        0.42613864]
 [0.8        1.15064148]
 [0.9        0.20086001]
 [1.         0.91350004]
 [1.1        0.49375307]
 [1.14141667 1.06538265]]",1,2.071
8817605319,m,22,french,4,5,french,2024-02-09 14:59:39.832256,False,1,102,sounds\french\audio/french_858.wav,"[[  0.         -53.68453677]
 [  0.1        -28.94516131]
 [  0.2        -98.24340487]
 [  0.3        -99.1252782 ]
 [  0.4        -26.26210223]
 [  0.5        -45.03942581]
 [  0.6        -66.94086258]
 [  0.7         82.11998094]
 [  0.8         26.35770122]
 [  0.9         30.884295  ]
 [  1.          12.20949493]
 [  1.1        -39.12104369]
 [  1.14141667  17.56591415]]","[[0.         1.6757384 ]
 [0.1        1.30661064]
 [0.2        0.9866685 ]
 [0.3        0.35735292]
 [0.4        1.10822688]
 [0.5        1.57836245]
 [0.6        1.65767341]
 [0.7        1.15727357]
 [0.8        1.70991659]
 [0.9        0.39633264]
 [1.         0.36576693]
 [1.1        1.53765391]
 [1.14141667 0.88045647]]",0,0.094
8817605319,m,22,french,4,5,french,2024-02-09 14:59:39.832256,False,1,103,sounds\french\audio/french_40.wav,"[[  0.          -8.12729319]
 [  0.1          4.45938553]
 [  0.2         28.58144877]
 [  0.3        -11.92795435]
 [  0.4         43.56251257]
 [  0.5         22.26926875]
 [  0.6        -14.80375006]
 [  0.7         -6.02231593]
 [  0.8         27.11076244]
 [  0.9          1.30682946]
 [  1.         -93.52950678]
 [  1.1        -66.90804862]
 [  1.14141667  -0.63154276]]","[[0.         1.33981221]
 [0.1        0.58230507]
 [0.2        0.45774736]
 [0.3        0.82403207]
 [0.4        1.03540986]
 [0.5        1.51862285]
 [0.6        1.30207552]
 [0.7        0.76961448]
 [0.8        1.12344021]
 [0.9        0.05989398]
 [1.         0.28850959]
 [1.1        0.1338746 ]
 [1.14141667 1.0832794 ]]",1,1.929
8817605319,m,22,french,4,5,french,2024-02-09 14:59:39.832256,False,1,104,sounds\french\audio/french_432.wav,"[[  0.         -13.91062225]
 [  0.1        -82.56051769]
 [  0.2        -16.34612815]
 [  0.3        -18.61613947]
 [  0.4         70.22209582]
 [  0.5         43.80580465]
 [  0.6        -35.51711529]
 [  0.7        -33.99307878]
 [  0.8        -14.14480715]
 [  0.9        -36.22749016]
 [  1.         -76.28241787]
 [  1.1         -7.27152662]
 [  1.14141667  98.36339336]]","[[0.         1.50688041]
 [0.1        0.64111925]
 [0.2        1.44315923]
 [0.3        0.86557463]
 [0.4        0.59561585]
 [0.5        0.12896306]
 [0.6        0.9391402 ]
 [0.7        1.13995098]
 [0.8        0.92943521]
 [0.9        0.65373022]
 [1.         0.68989301]
 [1.1        1.44596554]
 [1.14141667 0.49259364]]",0,0.105
8817605319,m,22,french,4,5,french,2024-02-09 14:59:39.832256,False,1,105,sounds\french\audio/french_678.wav,"[[  0.          24.19483128]
 [  0.1        -47.51642543]
 [  0.2         -3.91811007]
 [  0.3         32.18517105]
 [  0.4        -21.87097974]
 [  0.5         28.51645426]
 [  0.6         52.47804835]
 [  0.7         10.55383211]
 [  0.8         89.68033024]
 [  0.9        -20.04322085]
 [  1.         -64.98612207]
 [  1.1         75.98214859]
 [  1.14141667  82.29835908]]","[[0.         0.81436077]
 [0.1        1.1125399 ]
 [0.2        1.61070048]
 [0.3        1.15077733]
 [0.4        1.20781999]
 [0.5        0.74457904]
 [0.6        1.7292018 ]
 [0.7        1.1823552 ]
 [0.8        1.55182719]
 [0.9        0.17890882]
 [1.         0.04333149]
 [1.1        1.23856993]
 [1.14141667 1.33756429]]",1,0.734
8817605319,m,22,french,4,5,french,2024-02-09 14:59:39.832256,False,1,106,sounds\french\audio/french_225.wav,"[[  0.         -40.59384573]
 [  0.1        -57.4510111 ]
 [  0.2        -66.79314761]
 [  0.3        -75.0154935 ]
 [  0.4         48.3932909 ]
 [  0.5         37.53876615]
 [  0.6        -34.2954659 ]
 [  0.7        -22.1616571 ]
 [  0.8         44.36773821]
 [  0.9         60.3014637 ]
 [  1.          57.8691924 ]
 [  1.1          5.56623992]
 [  1.14141667  25.60737947]]","[[0.         0.2419631 ]
 [0.1        0.90136728]
 [0.2        1.20342959]
 [0.3        0.43006495]
 [0.4        1.37338078]
 [0.5        1.72669278]
 [0.6        0.43130033]
 [0.7        1.23547292]
 [0.8        1.20612534]
 [0.9        1.68129448]
 [1.         0.18054319]
 [1.1        0.07993762]
 [1.14141667 1.21559584]]",0,0.192
8817605319,m,22,french,4,5,french,2024-02-09 14:59:39.832256,False,1,107,sounds\french\audio/french_864.wav,"[[  0.          86.44994592]
 [  0.1          7.63178802]
 [  0.2        -68.95019939]
 [  0.3        -19.25414858]
 [  0.4          5.39546389]
 [  0.5         20.19612144]
 [  0.6         88.15131552]
 [  0.7         84.05133241]
 [  0.8         18.28772813]
 [  0.9         -3.11882385]
 [  1.          81.34502304]
 [  1.1         18.48433462]
 [  1.14141667 -13.70994255]]","[[0.         1.69194736]
 [0.1        0.83872638]
 [0.2        0.55238716]
 [0.3        1.64450662]
 [0.4        0.91876663]
 [0.5        0.91460909]
 [0.6        0.72746198]
 [0.7        1.17210229]
 [0.8        0.48759889]
 [0.9        0.4590784 ]
 [1.         1.36208331]
 [1.1        1.07205194]
 [1.14141667 1.11587149]]",0,0.07
8817605319,m,22,french,4,5,french,2024-02-09 14:59:39.832256,False,1,108,sounds\french\audio/french_279.wav,"[[  0.         -91.71642023]
 [  0.1         76.60374466]
 [  0.2        -79.20287469]
 [  0.3        -93.80806914]
 [  0.4         30.74870714]
 [  0.5        -44.65493672]
 [  0.6        -17.93028223]
 [  0.7         66.50862207]
 [  0.8        -46.72060919]
 [  0.9         26.44083851]
 [  1.         -38.70123146]
 [  1.1         -0.14852688]
 [  1.14141667  76.49421083]]","[[0.         0.17583363]
 [0.1        1.80297447]
 [0.2        0.03779617]
 [0.3        0.62702853]
 [0.4        1.94363581]
 [0.5        0.80705141]
 [0.6        1.06056317]
 [0.7        0.16633528]
 [0.8        1.76936946]
 [0.9        0.44742287]
 [1.         1.71685996]
 [1.1        1.04972879]
 [1.14141667 1.48972813]]",0,0.095
8817605319,m,22,french,4,5,french,2024-02-09 14:59:39.832256,False,1,109,sounds\french\audio/french_801.wav,"[[  0.          42.05546356]
 [  0.1        -92.3466124 ]
 [  0.2         40.25447593]
 [  0.3         86.98750178]
 [  0.4         72.9865192 ]
 [  0.5         44.19690026]
 [  0.6        -18.76468676]
 [  0.7        -37.75366406]
 [  0.8         12.99673571]
 [  0.9        -12.35408716]
 [  1.         -69.77608862]
 [  1.1         65.56794574]
 [  1.14141667 -58.95035096]]","[[0.         0.94398168]
 [0.1        0.20033669]
 [0.2        0.1618081 ]
 [0.3        1.08194555]
 [0.4        1.53929443]
 [0.5        0.95422302]
 [0.6        1.56487139]
 [0.7        1.79656614]
 [0.8        1.22963791]
 [0.9        0.72904385]
 [1.         1.94753287]
 [1.1        0.67352843]
 [1.14141667 1.98504787]]",0,0.024
8817605319,m,22,french,4,5,french,2024-02-09 14:59:39.832256,False,1,110,sounds\french\audio/french_803.wav,"[[  0.         -12.95878337]
 [  0.1         61.50797195]
 [  0.2         96.13916552]
 [  0.3         63.40829671]
 [  0.4        -18.80055907]
 [  0.5        -13.37960084]
 [  0.6         17.49624977]
 [  0.7         26.6489851 ]
 [  0.8         46.37702818]
 [  0.9         47.62008812]
 [  1.          35.61177117]
 [  1.1        -76.22783665]
 [  1.14141667  34.8549378 ]]","[[0.         0.89212547]
 [0.1        0.09328832]
 [0.2        0.1771654 ]
 [0.3        0.79511002]
 [0.4        0.67535594]
 [0.5        0.14377803]
 [0.6        0.71363745]
 [0.7        0.90742369]
 [0.8        0.61606813]
 [0.9        0.82361862]
 [1.         1.14929537]
 [1.1        1.55419548]
 [1.14141667 1.0035068 ]]",0,0.246
8817605319,m,22,french,4,5,french,2024-02-09 14:59:39.832256,False,1,111,sounds\french\audio/french_376.wav,"[[  0.          73.87662421]
 [  0.1         19.14234839]
 [  0.2          4.70109866]
 [  0.3        -30.42429162]
 [  0.4          3.90906102]
 [  0.5         10.50295885]
 [  0.6        -30.86055656]
 [  0.7         53.80718703]
 [  0.8        -11.59229263]
 [  0.9         30.36028375]
 [  1.           7.96834733]
 [  1.1         39.66709202]
 [  1.14141667 -13.49486002]]","[[0.         1.19017326]
 [0.1        0.34739983]
 [0.2        1.75661595]
 [0.3        0.21467383]
 [0.4        1.0652989 ]
 [0.5        0.76759319]
 [0.6        0.07074157]
 [0.7        0.03277106]
 [0.8        0.77775249]
 [0.9        1.59245898]
 [1.         1.58597596]
 [1.1        1.4930996 ]
 [1.14141667 0.34020646]]",0,0.529
8817605319,m,22,french,4,5,french,2024-02-09 14:59:39.832256,False,1,112,sounds\french\audio/french_5.wav,"[[  0.          67.84600602]
 [  0.1         36.11985477]
 [  0.2         27.42056963]
 [  0.3        -51.17670217]
 [  0.4        -40.37414298]
 [  0.5        -24.2536038 ]
 [  0.6        -18.35468105]
 [  0.7         -4.97614975]
 [  0.8         48.20606938]
 [  0.9         15.99502717]
 [  1.         -62.82085154]
 [  1.1         -6.95701983]
 [  1.14141667 -66.75848558]]","[[0.         1.17631247]
 [0.1        0.77880018]
 [0.2        1.26171942]
 [0.3        1.79238294]
 [0.4        0.78218598]
 [0.5        0.94203558]
 [0.6        1.40818336]
 [0.7        1.58219359]
 [0.8        0.2158889 ]
 [0.9        1.46917473]
 [1.         1.96668642]
 [1.1        0.54762735]
 [1.14141667 0.46814151]]",0,0.194
8817605319,m,22,french,4,5,french,2024-02-09 14:59:39.832256,False,1,113,sounds\french\audio/french_31.wav,"[[  0.          62.57492675]
 [  0.1        -58.08231023]
 [  0.2        -55.72136937]
 [  0.3        -71.33473232]
 [  0.4         -4.71968321]
 [  0.5        -18.8158031 ]
 [  0.6         57.81974569]
 [  0.7        -62.11860801]
 [  0.8        -40.60816107]
 [  0.9         65.87873267]
 [  1.         -62.031162  ]
 [  1.1         23.18328609]
 [  1.14141667 -73.14382864]]","[[0.         0.62563008]
 [0.1        0.03942754]
 [0.2        0.40518479]
 [0.3        0.83625103]
 [0.4        1.04296763]
 [0.5        1.30881089]
 [0.6        1.24294484]
 [0.7        1.99884765]
 [0.8        1.24785525]
 [0.9        0.7861542 ]
 [1.         0.46276533]
 [1.1        1.73009947]
 [1.14141667 1.02235307]]",0,0.538
8817605319,m,22,french,4,5,french,2024-02-09 14:59:39.832256,False,1,114,sounds\french\audio/french_767.wav,"[[  0.          31.24966423]
 [  0.1        -33.74972246]
 [  0.2         71.56049833]
 [  0.3         62.17111584]
 [  0.4         35.54545248]
 [  0.5         68.28182606]
 [  0.6        -85.55401335]
 [  0.7        -59.71070843]
 [  0.8         46.66690446]
 [  0.9        -33.16116599]
 [  1.           9.56946316]
 [  1.1        -24.73907556]
 [  1.14141667 -56.92984188]]","[[0.         0.89200081]
 [0.1        0.44980231]
 [0.2        0.50688559]
 [0.3        1.0886013 ]
 [0.4        1.84098668]
 [0.5        1.57490731]
 [0.6        0.92975639]
 [0.7        1.27612781]
 [0.8        1.46786923]
 [0.9        0.72434396]
 [1.         0.62492348]
 [1.1        1.30557   ]
 [1.14141667 0.8430712 ]]",0,0.119
8817605319,m,22,french,4,5,french,2024-02-09 14:59:39.832256,False,1,115,sounds\french\audio/french_376.wav,"[[  0.          73.87662421]
 [  0.1         19.14234839]
 [  0.2          4.70109866]
 [  0.3        -30.42429162]
 [  0.4          3.90906102]
 [  0.5         10.50295885]
 [  0.6        -30.86055656]
 [  0.7         53.80718703]
 [  0.8        -11.59229263]
 [  0.9         30.36028375]
 [  1.           7.96834733]
 [  1.1         39.66709202]
 [  1.14141667 -13.49486002]]","[[0.         1.19017326]
 [0.1        0.34739983]
 [0.2        1.75661595]
 [0.3        0.21467383]
 [0.4        1.0652989 ]
 [0.5        0.76759319]
 [0.6        0.07074157]
 [0.7        0.03277106]
 [0.8        0.77775249]
 [0.9        1.59245898]
 [1.         1.58597596]
 [1.1        1.4930996 ]
 [1.14141667 0.34020646]]",0,0.56
8817605319,m,22,french,4,5,french,2024-02-09 14:59:39.832256,False,1,116,sounds\french\audio/french_546.wav,"[[  0.         -13.20812947]
 [  0.1         -8.37020236]
 [  0.2         57.48789341]
 [  0.3        -11.78127808]
 [  0.4        -26.00594078]
 [  0.5         -3.33648258]
 [  0.6         -1.73835095]
 [  0.7         17.1570367 ]
 [  0.8         37.36365726]
 [  0.9          8.15656678]
 [  1.          -8.08158861]
 [  1.1          5.60886703]
 [  1.14141667 -59.33959304]]","[[0.         0.61614772]
 [0.1        1.06411131]
 [0.2        1.60441563]
 [0.3        0.66409069]
 [0.4        1.03544668]
 [0.5        0.99289071]
 [0.6        0.28199712]
 [0.7        0.98444234]
 [0.8        0.65105351]
 [0.9        1.40961932]
 [1.         1.13622797]
 [1.1        0.04199534]
 [1.14141667 1.17471858]]",0,0.21
8817605319,m,22,french,4,5,french,2024-02-09 14:59:39.832256,False,1,117,sounds\french\audio/french_527.wav,"[[  0.          82.21391649]
 [  0.1          8.23446924]
 [  0.2        -66.78536599]
 [  0.3         91.71269389]
 [  0.4         38.34506198]
 [  0.5         11.54452605]
 [  0.6         96.28222232]
 [  0.7        -47.65455755]
 [  0.8        -79.10134883]
 [  0.9         28.80832425]
 [  1.          42.88340192]
 [  1.1        -29.0066371 ]
 [  1.14141667 -55.47213333]]","[[0.         0.16629569]
 [0.1        0.53206339]
 [0.2        0.7302175 ]
 [0.3        1.32409314]
 [0.4        0.73265348]
 [0.5        1.69253874]
 [0.6        1.17892536]
 [0.7        0.38924981]
 [0.8        1.19695385]
 [0.9        0.99788434]
 [1.         1.07124619]
 [1.1        1.45535326]
 [1.14141667 1.05284773]]",0,0.141
8817605319,m,22,french,4,5,french,2024-02-09 14:59:39.832256,False,1,118,sounds\french\audio/french_550.wav,"[[  0.          72.6201006 ]
 [  0.1         55.97657534]
 [  0.2         13.52543227]
 [  0.3        -81.349724  ]
 [  0.4         99.86498811]
 [  0.5         16.87534827]
 [  0.6         66.9812192 ]
 [  0.7        -75.38343533]
 [  0.8          5.7329485 ]
 [  0.9         58.05585557]
 [  1.          -3.33377945]
 [  1.1        -43.74893274]
 [  1.14141667 -86.42154795]]","[[0.         1.67033206]
 [0.1        0.31629047]
 [0.2        1.6455345 ]
 [0.3        0.71516618]
 [0.4        1.73006106]
 [0.5        0.0344878 ]
 [0.6        0.63862909]
 [0.7        1.07196046]
 [0.8        1.84433576]
 [0.9        0.95400442]
 [1.         0.19158544]
 [1.1        1.26583767]
 [1.14141667 0.99784974]]",0,0.248
8817605319,m,22,french,4,5,french,2024-02-09 14:59:39.832256,False,1,119,sounds\french\audio/french_15.wav,"[[  0.          38.40511615]
 [  0.1        -72.39618447]
 [  0.2         41.2357883 ]
 [  0.3        -76.62978847]
 [  0.4        -90.68609408]
 [  0.5        -23.65088828]
 [  0.6         82.28530088]
 [  0.7        -17.89513376]
 [  0.8        -38.70002493]
 [  0.9        -96.07000626]
 [  1.          59.32207751]
 [  1.1         24.24359169]
 [  1.14141667 -81.61531935]]","[[0.         0.51275421]
 [0.1        1.11634174]
 [0.2        1.55000564]
 [0.3        0.777132  ]
 [0.4        0.77124062]
 [0.5        0.1774054 ]
 [0.6        0.98573947]
 [0.7        0.63803689]
 [0.8        0.43876612]
 [0.9        0.61786768]
 [1.         1.21673945]
 [1.1        1.20034933]
 [1.14141667 0.40555856]]",0,0.174
8817605319,m,22,french,4,5,french,2024-02-09 14:59:39.832256,False,1,120,sounds\french\audio/french_998.wav,"[[  0.         -52.53289143]
 [  0.1        -41.80176958]
 [  0.2          3.72170139]
 [  0.3        -31.81405271]
 [  0.4         20.38465129]
 [  0.5        -74.58331207]
 [  0.6         55.77574349]
 [  0.7        -22.51086967]
 [  0.8         26.26002623]
 [  0.9         12.58416669]
 [  1.         -12.30572558]
 [  1.1         64.28435908]
 [  1.14141667 -52.09495809]]","[[0.         0.42248422]
 [0.1        1.03050206]
 [0.2        0.31111333]
 [0.3        0.62895415]
 [0.4        0.7164794 ]
 [0.5        1.22207314]
 [0.6        0.23208486]
 [0.7        0.21961927]
 [0.8        1.78719283]
 [0.9        1.26015455]
 [1.         0.15338113]
 [1.1        0.40231788]
 [1.14141667 0.89140011]]",0,0.288
