subj,sex,age,language,english,french,native_lang,date,practice,block,trial,stim,pitch,stretch,response,rt
8749218289,f,19,french,4,5,french,2024-01-25 10:40:30.095649,False,2,253,sounds\french\audio/french_785.wav,"[[ 0.00000000e+00  3.10161768e+01]
 [ 1.00000000e-01  8.89317705e-02]
 [ 2.00000000e-01  4.68782722e+01]
 [ 3.00000000e-01  2.02217261e+01]
 [ 4.00000000e-01 -7.53235401e+01]
 [ 5.00000000e-01 -4.39350846e+01]
 [ 6.00000000e-01 -2.54763074e+01]
 [ 7.00000000e-01  5.70842413e+01]
 [ 8.00000000e-01 -1.08459606e+01]
 [ 9.00000000e-01  3.40534095e+01]
 [ 1.00000000e+00 -4.89572729e+01]
 [ 1.10000000e+00  4.16078861e+01]
 [ 1.14141667e+00  8.92588617e+01]]","[[0.         1.90021395]
 [0.1        0.95233189]
 [0.2        1.49745041]
 [0.3        1.87832474]
 [0.4        0.82836314]
 [0.5        1.74071043]
 [0.6        0.83584892]
 [0.7        0.40885784]
 [0.8        0.0344692 ]
 [0.9        0.38075821]
 [1.         0.97802108]
 [1.1        1.78850331]
 [1.14141667 0.64465129]]",0,6.978
8749218289,f,19,french,4,5,french,2024-01-25 10:40:30.095649,False,2,254,sounds\french\audio/french_95.wav,"[[  0.         -91.86696565]
 [  0.1         80.11896525]
 [  0.2         16.70719652]
 [  0.3        -27.73292132]
 [  0.4          9.89756608]
 [  0.5        -18.18985071]
 [  0.6         90.31218271]
 [  0.7         41.24738566]
 [  0.8        -24.73767182]
 [  0.9         81.12584706]
 [  1.          77.49715481]
 [  1.1        -35.38079204]
 [  1.14141667  73.17617583]]","[[0.         0.90832833]
 [0.1        1.72243134]
 [0.2        1.82583161]
 [0.3        1.85265783]
 [0.4        1.32008293]
 [0.5        0.02329134]
 [0.6        1.87638444]
 [0.7        1.79361118]
 [0.8        1.61882903]
 [0.9        1.6129126 ]
 [1.         1.51672463]
 [1.1        0.68905481]
 [1.14141667 1.84459352]]",0,1.698
8749218289,f,19,french,4,5,french,2024-01-25 10:40:30.095649,False,2,255,sounds\french\audio/french_725.wav,"[[  0.           6.35773429]
 [  0.1         43.70894135]
 [  0.2         22.90719147]
 [  0.3         77.83150395]
 [  0.4          8.06655205]
 [  0.5        -92.02564179]
 [  0.6         -0.94151394]
 [  0.7        -43.43116172]
 [  0.8         25.37203063]
 [  0.9        -10.8941145 ]
 [  1.          87.02180765]
 [  1.1        -29.98720343]
 [  1.14141667  85.40182929]]","[[0.         0.33586519]
 [0.1        1.09244635]
 [0.2        1.28834014]
 [0.3        1.7742292 ]
 [0.4        0.13845401]
 [0.5        1.68229188]
 [0.6        1.36391947]
 [0.7        1.13588382]
 [0.8        1.69588373]
 [0.9        0.78478635]
 [1.         1.06725008]
 [1.1        0.9920546 ]
 [1.14141667 1.23288415]]",1,1.245
8749218289,f,19,french,4,5,french,2024-01-25 10:40:30.095649,False,2,256,sounds\french\audio/french_396.wav,"[[  0.         -45.49492926]
 [  0.1        -79.39567585]
 [  0.2         70.30463602]
 [  0.3         41.7348925 ]
 [  0.4        -16.74018029]
 [  0.5         14.98459267]
 [  0.6         98.37909733]
 [  0.7        -91.48636378]
 [  0.8         45.62246713]
 [  0.9         85.58615573]
 [  1.         -62.37907768]
 [  1.1         38.5434193 ]
 [  1.14141667 -22.80714646]]","[[0.         0.69968975]
 [0.1        0.84208503]
 [0.2        0.36939373]
 [0.3        0.87235796]
 [0.4        1.01475681]
 [0.5        0.8634885 ]
 [0.6        0.42462927]
 [0.7        1.02834343]
 [0.8        1.462662  ]
 [0.9        0.07610889]
 [1.         1.01240942]
 [1.1        1.04813518]
 [1.14141667 1.50333112]]",0,0.806
8749218289,f,19,french,4,5,french,2024-01-25 10:40:30.095649,False,2,257,sounds\french\audio/french_384.wav,"[[  0.         -26.33962447]
 [  0.1         90.14414926]
 [  0.2         36.49157083]
 [  0.3          0.20485884]
 [  0.4          2.73533424]
 [  0.5        -61.29276224]
 [  0.6        -95.66702586]
 [  0.7        -35.26576559]
 [  0.8        -94.7492639 ]
 [  0.9         89.80577362]
 [  1.         -92.63573748]
 [  1.1         74.70238882]
 [  1.14141667  79.78054673]]","[[0.         0.73205954]
 [0.1        1.21722748]
 [0.2        0.48830962]
 [0.3        0.00253956]
 [0.4        1.70776767]
 [0.5        0.02952435]
 [0.6        1.54669239]
 [0.7        0.99240925]
 [0.8        1.04883532]
 [0.9        0.00446768]
 [1.         0.13464005]
 [1.1        0.53686539]
 [1.14141667 0.78008915]]",0,2.065
8749218289,f,19,french,4,5,french,2024-01-25 10:40:30.095649,False,2,258,sounds\french\audio/french_184.wav,"[[  0.         -84.92815631]
 [  0.1         -7.99207407]
 [  0.2        -18.4917418 ]
 [  0.3         31.7569672 ]
 [  0.4         73.45239684]
 [  0.5         63.78481378]
 [  0.6        -88.72210062]
 [  0.7         55.31278942]
 [  0.8         -1.21214349]
 [  0.9        -66.26493837]
 [  1.          74.70180172]
 [  1.1        -55.73297769]
 [  1.14141667 -79.54970617]]","[[0.         0.89560322]
 [0.1        1.85807804]
 [0.2        0.96896023]
 [0.3        0.91145262]
 [0.4        0.44669863]
 [0.5        1.38395144]
 [0.6        0.30460451]
 [0.7        0.9443525 ]
 [0.8        0.95985029]
 [0.9        1.97618629]
 [1.         1.42134703]
 [1.1        1.90740786]
 [1.14141667 0.4560289 ]]",1,0.458
8749218289,f,19,french,4,5,french,2024-01-25 10:40:30.095649,False,2,259,sounds\french\audio/french_764.wav,"[[  0.          87.12745751]
 [  0.1        -24.35371008]
 [  0.2         96.19284839]
 [  0.3        -63.91440184]
 [  0.4         84.55261443]
 [  0.5        -92.65972106]
 [  0.6         42.41135529]
 [  0.7        -52.22534775]
 [  0.8         15.59025374]
 [  0.9          2.98657975]
 [  1.          -1.73502866]
 [  1.1         53.10245594]
 [  1.14141667 -47.5333567 ]]","[[0.         1.90120805]
 [0.1        0.69347586]
 [0.2        1.54393822]
 [0.3        0.58835551]
 [0.4        0.17117139]
 [0.5        1.33331876]
 [0.6        0.74738351]
 [0.7        0.83508091]
 [0.8        0.71569615]
 [0.9        0.73784714]
 [1.         0.16421884]
 [1.1        0.76749541]
 [1.14141667 0.26920711]]",0,0.621
8749218289,f,19,french,4,5,french,2024-01-25 10:40:30.095649,False,2,260,sounds\french\audio/french_95.wav,"[[  0.         -91.86696565]
 [  0.1         80.11896525]
 [  0.2         16.70719652]
 [  0.3        -27.73292132]
 [  0.4          9.89756608]
 [  0.5        -18.18985071]
 [  0.6         90.31218271]
 [  0.7         41.24738566]
 [  0.8        -24.73767182]
 [  0.9         81.12584706]
 [  1.          77.49715481]
 [  1.1        -35.38079204]
 [  1.14141667  73.17617583]]","[[0.         0.90832833]
 [0.1        1.72243134]
 [0.2        1.82583161]
 [0.3        1.85265783]
 [0.4        1.32008293]
 [0.5        0.02329134]
 [0.6        1.87638444]
 [0.7        1.79361118]
 [0.8        1.61882903]
 [0.9        1.6129126 ]
 [1.         1.51672463]
 [1.1        0.68905481]
 [1.14141667 1.84459352]]",0,0.409
8749218289,f,19,french,4,5,french,2024-01-25 10:40:30.095649,False,2,261,sounds\french\audio/french_485.wav,"[[  0.         -32.72393911]
 [  0.1         80.82307242]
 [  0.2         57.31331333]
 [  0.3         48.72087878]
 [  0.4         67.57779619]
 [  0.5        -63.19645997]
 [  0.6          1.81636455]
 [  0.7        -75.79477779]
 [  0.8         29.75420726]
 [  0.9         22.42069032]
 [  1.          18.39827523]
 [  1.1         83.2380207 ]
 [  1.14141667  50.25973786]]","[[0.         1.22977984]
 [0.1        1.23405783]
 [0.2        0.86608886]
 [0.3        0.52599403]
 [0.4        1.47744611]
 [0.5        1.32987449]
 [0.6        0.58593864]
 [0.7        0.98960333]
 [0.8        0.53553397]
 [0.9        0.8020386 ]
 [1.         1.39729728]
 [1.1        0.57653841]
 [1.14141667 1.79465784]]",1,0.895
8749218289,f,19,french,4,5,french,2024-01-25 10:40:30.095649,False,2,262,sounds\french\audio/french_262.wav,"[[  0.         -49.98964576]
 [  0.1         49.26689568]
 [  0.2        -10.28953368]
 [  0.3         16.98520639]
 [  0.4         58.69009652]
 [  0.5         -6.53344433]
 [  0.6         78.39274077]
 [  0.7         51.65400512]
 [  0.8         81.31634544]
 [  0.9         18.40506356]
 [  1.         -53.30019586]
 [  1.1        -37.56666303]
 [  1.14141667  77.06743199]]","[[0.         1.11053442]
 [0.1        1.17094698]
 [0.2        1.02775787]
 [0.3        0.65380655]
 [0.4        0.10783944]
 [0.5        1.03413092]
 [0.6        1.62007201]
 [0.7        0.45017147]
 [0.8        0.78466741]
 [0.9        0.98426364]
 [1.         0.15499386]
 [1.1        1.25025011]
 [1.14141667 1.21854314]]",0,0.964
8749218289,f,19,french,4,5,french,2024-01-25 10:40:30.095649,False,2,263,sounds\french\audio/french_395.wav,"[[  0.          45.0752434 ]
 [  0.1        -93.76597298]
 [  0.2         46.57087832]
 [  0.3         59.364027  ]
 [  0.4         25.27671277]
 [  0.5         18.6240562 ]
 [  0.6        -12.8872696 ]
 [  0.7        -38.76560327]
 [  0.8        -43.15551235]
 [  0.9        -99.26206563]
 [  1.          -7.96649049]
 [  1.1         38.87039961]
 [  1.14141667  73.11872685]]","[[0.         1.18925621]
 [0.1        0.52454802]
 [0.2        1.50660579]
 [0.3        0.93298366]
 [0.4        0.50677812]
 [0.5        0.56379423]
 [0.6        1.362377  ]
 [0.7        1.10820927]
 [0.8        0.83193558]
 [0.9        1.55187087]
 [1.         1.27801505]
 [1.1        1.56525151]
 [1.14141667 1.97246425]]",1,0.638
8749218289,f,19,french,4,5,french,2024-01-25 10:40:30.095649,False,2,264,sounds\french\audio/french_711.wav,"[[  0.         -57.68537639]
 [  0.1         80.50678374]
 [  0.2         62.08623359]
 [  0.3        -62.11963136]
 [  0.4         40.40813482]
 [  0.5         -1.99659726]
 [  0.6        -98.85876462]
 [  0.7        -17.60870607]
 [  0.8        -73.6406844 ]
 [  0.9          0.13542401]
 [  1.          58.10369401]
 [  1.1        -38.91466215]
 [  1.14141667  22.73847208]]","[[0.         1.14128003]
 [0.1        0.65499836]
 [0.2        0.36935793]
 [0.3        0.45944127]
 [0.4        1.32957836]
 [0.5        1.01029199]
 [0.6        0.23624425]
 [0.7        0.5152401 ]
 [0.8        0.82690989]
 [0.9        0.52689837]
 [1.         1.52596161]
 [1.1        1.06260355]
 [1.14141667 0.37076623]]",1,0.301
8749218289,f,19,french,4,5,french,2024-01-25 10:40:30.095649,False,2,265,sounds\french\audio/french_214.wav,"[[  0.         -79.72583695]
 [  0.1        -68.16335949]
 [  0.2         12.7031491 ]
 [  0.3        -73.51726197]
 [  0.4         14.53718817]
 [  0.5        -35.7865464 ]
 [  0.6        -20.4344568 ]
 [  0.7        -99.35771384]
 [  0.8         86.91939497]
 [  0.9        -25.24426974]
 [  1.         -60.56392666]
 [  1.1         64.39502353]
 [  1.14141667  77.69133565]]","[[0.         1.62139429]
 [0.1        1.4901457 ]
 [0.2        1.78274672]
 [0.3        0.35151464]
 [0.4        0.87795234]
 [0.5        1.14461815]
 [0.6        1.91768043]
 [0.7        0.9470318 ]
 [0.8        1.04643305]
 [0.9        1.3223723 ]
 [1.         0.5907476 ]
 [1.1        0.28658765]
 [1.14141667 0.25263984]]",1,0.335
8749218289,f,19,french,4,5,french,2024-01-25 10:40:30.095649,False,2,266,sounds\french\audio/french_974.wav,"[[  0.          70.97382946]
 [  0.1        -11.51206682]
 [  0.2         21.14590895]
 [  0.3         -1.24336301]
 [  0.4         -7.59562756]
 [  0.5         98.81108041]
 [  0.6          1.5690047 ]
 [  0.7         32.73857184]
 [  0.8         21.15705836]
 [  0.9         24.28285736]
 [  1.         -18.85169767]
 [  1.1        -83.94572859]
 [  1.14141667 -90.55748201]]","[[0.         1.27524467]
 [0.1        0.96634171]
 [0.2        1.94727541]
 [0.3        0.55924313]
 [0.4        0.16409288]
 [0.5        0.65824955]
 [0.6        1.04527507]
 [0.7        1.28112397]
 [0.8        1.89872216]
 [0.9        0.65988414]
 [1.         1.70679925]
 [1.1        1.83803483]
 [1.14141667 1.54364757]]",1,0.428
8749218289,f,19,french,4,5,french,2024-01-25 10:40:30.095649,False,2,267,sounds\french\audio/french_891.wav,"[[  0.         -99.04712605]
 [  0.1         17.3799724 ]
 [  0.2         -1.30355006]
 [  0.3         11.66108417]
 [  0.4          6.35761676]
 [  0.5        -71.86971473]
 [  0.6         20.94588527]
 [  0.7        -13.59137079]
 [  0.8         62.37473981]
 [  0.9         64.47380957]
 [  1.          -7.95126825]
 [  1.1        -34.88253316]
 [  1.14141667  95.31191198]]","[[0.         1.87208337]
 [0.1        1.3828509 ]
 [0.2        1.47231184]
 [0.3        1.45618748]
 [0.4        1.81540908]
 [0.5        0.63041518]
 [0.6        0.92124801]
 [0.7        0.65821591]
 [0.8        0.6468689 ]
 [0.9        0.86634815]
 [1.         0.44006572]
 [1.1        1.52894565]
 [1.14141667 0.84584339]]",1,0.296
8749218289,f,19,french,4,5,french,2024-01-25 10:40:30.095649,False,2,268,sounds\french\audio/french_861.wav,"[[  0.         -29.59207834]
 [  0.1         -3.20070046]
 [  0.2        -58.32537362]
 [  0.3        -24.52531727]
 [  0.4          4.47991904]
 [  0.5         77.73095921]
 [  0.6         -9.72754814]
 [  0.7         78.69297703]
 [  0.8         89.59895789]
 [  0.9        -74.88966418]
 [  1.          -8.41302054]
 [  1.1        -83.1329049 ]
 [  1.14141667  45.5691638 ]]","[[0.         1.26213784]
 [0.1        1.09688129]
 [0.2        1.67288948]
 [0.3        1.55651392]
 [0.4        0.60089382]
 [0.5        1.00142535]
 [0.6        1.64754174]
 [0.7        1.0190621 ]
 [0.8        1.92978713]
 [0.9        1.64032652]
 [1.         1.1947634 ]
 [1.1        1.60781283]
 [1.14141667 0.53617129]]",1,0.235
8749218289,f,19,french,4,5,french,2024-01-25 10:40:30.095649,False,2,269,sounds\french\audio/french_318.wav,"[[  0.         -31.42676596]
 [  0.1        -45.69666133]
 [  0.2         42.60143121]
 [  0.3        -87.89208815]
 [  0.4        -61.68151552]
 [  0.5         80.55619607]
 [  0.6        -41.8589192 ]
 [  0.7        -13.86846959]
 [  0.8        -94.6811558 ]
 [  0.9        -29.32140474]
 [  1.          74.05579859]
 [  1.1        -43.44744043]
 [  1.14141667  44.84196134]]","[[0.         1.63103424]
 [0.1        1.93624975]
 [0.2        0.81258394]
 [0.3        0.40497325]
 [0.4        0.5117739 ]
 [0.5        0.85325217]
 [0.6        0.11882034]
 [0.7        0.48269689]
 [0.8        1.96435637]
 [0.9        0.25977776]
 [1.         1.52953043]
 [1.1        1.50332708]
 [1.14141667 0.84311706]]",1,0.386
8749218289,f,19,french,4,5,french,2024-01-25 10:40:30.095649,False,2,270,sounds\french\audio/french_729.wav,"[[  0.           6.02970532]
 [  0.1        -58.23115064]
 [  0.2        -79.4524648 ]
 [  0.3         25.31289493]
 [  0.4        -60.34707627]
 [  0.5        -88.40589566]
 [  0.6         51.21957515]
 [  0.7         27.50218474]
 [  0.8         -8.138588  ]
 [  0.9         -7.03673711]
 [  1.          94.92373652]
 [  1.1        -56.45846908]
 [  1.14141667  -5.25957002]]","[[0.         1.61080248]
 [0.1        1.8035096 ]
 [0.2        1.53819495]
 [0.3        0.27769673]
 [0.4        0.7897534 ]
 [0.5        0.63490444]
 [0.6        0.80684979]
 [0.7        1.59337723]
 [0.8        1.66290077]
 [0.9        1.10338309]
 [1.         1.7929398 ]
 [1.1        1.95609229]
 [1.14141667 1.67314896]]",1,0.436
8749218289,f,19,french,4,5,french,2024-01-25 10:40:30.095649,False,2,271,sounds\french\audio/french_514.wav,"[[  0.          19.52749286]
 [  0.1        -18.57686292]
 [  0.2        -11.65218112]
 [  0.3         67.73335024]
 [  0.4          2.50414412]
 [  0.5          9.98358294]
 [  0.6        -79.6394771 ]
 [  0.7        -56.69454189]
 [  0.8        -18.40953805]
 [  0.9        -52.29201997]
 [  1.          65.08217065]
 [  1.1        -33.80106577]
 [  1.14141667  66.85973887]]","[[0.         0.20353533]
 [0.1        0.56212811]
 [0.2        1.19554763]
 [0.3        1.25373802]
 [0.4        0.49820491]
 [0.5        0.39911731]
 [0.6        1.7639196 ]
 [0.7        0.02096069]
 [0.8        1.56380325]
 [0.9        0.9626698 ]
 [1.         1.00011748]
 [1.1        1.32853589]
 [1.14141667 0.17517316]]",0,0.918
8749218289,f,19,french,4,5,french,2024-01-25 10:40:30.095649,False,2,272,sounds\french\audio/french_124.wav,"[[  0.         -76.45779126]
 [  0.1        -62.44073346]
 [  0.2        -62.75149138]
 [  0.3        -37.91621361]
 [  0.4         -1.84891931]
 [  0.5         -2.76461423]
 [  0.6         48.00626226]
 [  0.7        -89.0520455 ]
 [  0.8        -36.94008954]
 [  0.9        -82.62391515]
 [  1.         -88.37832348]
 [  1.1         86.13286015]
 [  1.14141667 -90.07064956]]","[[0.         0.84587092]
 [0.1        1.24457807]
 [0.2        0.64584281]
 [0.3        0.25159831]
 [0.4        0.57670271]
 [0.5        0.27282382]
 [0.6        0.93393673]
 [0.7        0.95712828]
 [0.8        1.24636556]
 [0.9        0.87746102]
 [1.         0.59578507]
 [1.1        1.45487827]
 [1.14141667 0.90336127]]",0,1.069
8749218289,f,19,french,4,5,french,2024-01-25 10:40:30.095649,False,2,273,sounds\french\audio/french_378.wav,"[[  0.          10.14074494]
 [  0.1        -69.45781997]
 [  0.2         38.40349345]
 [  0.3        -11.42336743]
 [  0.4        -38.27576318]
 [  0.5         -2.73288809]
 [  0.6         78.86302992]
 [  0.7        -17.950808  ]
 [  0.8         58.47358133]
 [  0.9         26.64529298]
 [  1.         -55.10685082]
 [  1.1        -18.22256523]
 [  1.14141667  61.35932925]]","[[0.         1.10712978]
 [0.1        1.44615803]
 [0.2        1.25967469]
 [0.3        0.20781614]
 [0.4        0.33459003]
 [0.5        0.46876696]
 [0.6        0.47313469]
 [0.7        0.39569402]
 [0.8        1.30666007]
 [0.9        1.95577036]
 [1.         0.02933321]
 [1.1        0.7247038 ]
 [1.14141667 0.67386771]]",0,0.504
8749218289,f,19,french,4,5,french,2024-01-25 10:40:30.095649,False,2,274,sounds\french\audio/french_961.wav,"[[  0.         -57.76361631]
 [  0.1         25.39331568]
 [  0.2         12.35143873]
 [  0.3         22.75517226]
 [  0.4        -18.00705604]
 [  0.5        -39.89863119]
 [  0.6        -14.96300277]
 [  0.7        -94.00933824]
 [  0.8          3.75296714]
 [  0.9        -65.25681875]
 [  1.         -36.72733908]
 [  1.1        -39.85327237]
 [  1.14141667  88.04121989]]","[[0.         0.10893139]
 [0.1        1.43252878]
 [0.2        0.92444386]
 [0.3        1.05401088]
 [0.4        0.76286408]
 [0.5        0.39968066]
 [0.6        1.49971695]
 [0.7        0.233123  ]
 [0.8        0.79401243]
 [0.9        0.70841327]
 [1.         0.02300455]
 [1.1        1.99640547]
 [1.14141667 1.78012452]]",1,0.258
8749218289,f,19,french,4,5,french,2024-01-25 10:40:30.095649,False,2,275,sounds\french\audio/french_729.wav,"[[  0.           6.02970532]
 [  0.1        -58.23115064]
 [  0.2        -79.4524648 ]
 [  0.3         25.31289493]
 [  0.4        -60.34707627]
 [  0.5        -88.40589566]
 [  0.6         51.21957515]
 [  0.7         27.50218474]
 [  0.8         -8.138588  ]
 [  0.9         -7.03673711]
 [  1.          94.92373652]
 [  1.1        -56.45846908]
 [  1.14141667  -5.25957002]]","[[0.         1.61080248]
 [0.1        1.8035096 ]
 [0.2        1.53819495]
 [0.3        0.27769673]
 [0.4        0.7897534 ]
 [0.5        0.63490444]
 [0.6        0.80684979]
 [0.7        1.59337723]
 [0.8        1.66290077]
 [0.9        1.10338309]
 [1.         1.7929398 ]
 [1.1        1.95609229]
 [1.14141667 1.67314896]]",1,0.414
8749218289,f,19,french,4,5,french,2024-01-25 10:40:30.095649,False,2,276,sounds\french\audio/french_145.wav,"[[  0.          47.06287253]
 [  0.1         -3.58159028]
 [  0.2        -40.8693055 ]
 [  0.3        -80.8752163 ]
 [  0.4        -29.67084936]
 [  0.5        -16.09636873]
 [  0.6         28.46658229]
 [  0.7          4.2007743 ]
 [  0.8         22.24117317]
 [  0.9         33.5185267 ]
 [  1.         -45.71589409]
 [  1.1        -31.5800077 ]
 [  1.14141667 -68.85261891]]","[[0.         0.66108   ]
 [0.1        1.76438723]
 [0.2        1.27982498]
 [0.3        1.02482856]
 [0.4        1.23928714]
 [0.5        0.03289303]
 [0.6        1.30220706]
 [0.7        0.00879255]
 [0.8        1.14421532]
 [0.9        1.29113643]
 [1.         0.21462711]
 [1.1        0.76658856]
 [1.14141667 0.02669372]]",0,0.466
8749218289,f,19,french,4,5,french,2024-01-25 10:40:30.095649,False,2,277,sounds\french\audio/french_181.wav,"[[  0.         -95.95313982]
 [  0.1         91.63677354]
 [  0.2        -91.79980108]
 [  0.3         95.40210499]
 [  0.4         68.17989767]
 [  0.5         91.86803384]
 [  0.6         20.20115402]
 [  0.7        -36.24540979]
 [  0.8         20.77489363]
 [  0.9        -36.30620857]
 [  1.         -52.43059698]
 [  1.1        -66.44451369]
 [  1.14141667 -36.9073082 ]]","[[0.         0.44165639]
 [0.1        1.91213413]
 [0.2        1.20479938]
 [0.3        1.03854449]
 [0.4        0.34466606]
 [0.5        1.08947615]
 [0.6        0.89950013]
 [0.7        1.58660506]
 [0.8        1.10035668]
 [0.9        1.78772501]
 [1.         0.45092467]
 [1.1        1.08205846]
 [1.14141667 1.12829283]]",0,0.317
8749218289,f,19,french,4,5,french,2024-01-25 10:40:30.095649,False,2,278,sounds\french\audio/french_509.wav,"[[  0.         -79.28359824]
 [  0.1        -85.11040144]
 [  0.2         58.20689337]
 [  0.3        -53.07212842]
 [  0.4         14.54054596]
 [  0.5         38.89832363]
 [  0.6        -59.04867319]
 [  0.7        -18.19891129]
 [  0.8        -73.30058077]
 [  0.9          9.43722615]
 [  1.           2.35167022]
 [  1.1        -85.32824264]
 [  1.14141667  19.13063021]]","[[0.         1.76643555]
 [0.1        0.57920492]
 [0.2        0.89396937]
 [0.3        0.80048379]
 [0.4        1.05618514]
 [0.5        0.5299581 ]
 [0.6        1.30906386]
 [0.7        0.47184047]
 [0.8        0.61756094]
 [0.9        0.62383509]
 [1.         1.37177888]
 [1.1        0.23324254]
 [1.14141667 0.91376092]]",0,0.884
8749218289,f,19,french,4,5,french,2024-01-25 10:40:30.095649,False,2,279,sounds\french\audio/french_320.wav,"[[  0.          29.0077802 ]
 [  0.1         57.10058807]
 [  0.2        -58.71455915]
 [  0.3          9.47208013]
 [  0.4         33.55679918]
 [  0.5         30.29342924]
 [  0.6         35.793456  ]
 [  0.7         48.27550343]
 [  0.8          2.54884744]
 [  0.9         11.92843599]
 [  1.         -58.08388318]
 [  1.1        -15.70500576]
 [  1.14141667   2.2106655 ]]","[[0.         1.65272351]
 [0.1        1.38707965]
 [0.2        0.9425519 ]
 [0.3        1.24337659]
 [0.4        0.6156105 ]
 [0.5        0.19227327]
 [0.6        1.76797578]
 [0.7        1.38419028]
 [0.8        0.97487745]
 [0.9        1.02395527]
 [1.         1.53932166]
 [1.1        1.67437481]
 [1.14141667 0.12258709]]",0,0.628
8749218289,f,19,french,4,5,french,2024-01-25 10:40:30.095649,False,2,280,sounds\french\audio/french_910.wav,"[[  0.          48.88340935]
 [  0.1         -0.9314083 ]
 [  0.2         10.65492222]
 [  0.3         53.80361557]
 [  0.4        -55.5093235 ]
 [  0.5         25.35597856]
 [  0.6         30.25602932]
 [  0.7        -14.25396351]
 [  0.8        -99.95037684]
 [  0.9        -31.56392694]
 [  1.           4.49716215]
 [  1.1         30.67655198]
 [  1.14141667 -27.21370615]]","[[0.         1.81109224]
 [0.1        0.91261377]
 [0.2        0.6391442 ]
 [0.3        1.7256034 ]
 [0.4        1.10196828]
 [0.5        1.92121955]
 [0.6        1.45045528]
 [0.7        1.70872625]
 [0.8        0.23726838]
 [0.9        0.64113417]
 [1.         1.46769435]
 [1.1        0.95921   ]
 [1.14141667 0.8849765 ]]",0,0.513
8749218289,f,19,french,4,5,french,2024-01-25 10:40:30.095649,False,2,281,sounds\french\audio/french_343.wav,"[[  0.          55.30820306]
 [  0.1        -11.48156173]
 [  0.2        -61.33934281]
 [  0.3        -78.79796184]
 [  0.4         -3.55277636]
 [  0.5         40.8675343 ]
 [  0.6         88.78635161]
 [  0.7        -70.07472114]
 [  0.8        -79.01069817]
 [  0.9        -38.36075722]
 [  1.         -74.7385536 ]
 [  1.1         67.32009961]
 [  1.14141667  18.80940086]]","[[0.         1.58034267]
 [0.1        1.0596038 ]
 [0.2        1.28163155]
 [0.3        0.20032202]
 [0.4        1.05316587]
 [0.5        0.79348198]
 [0.6        0.11297715]
 [0.7        1.23835329]
 [0.8        1.37036254]
 [0.9        1.08523433]
 [1.         0.49176562]
 [1.1        1.89620137]
 [1.14141667 0.66544547]]",1,0.558
8749218289,f,19,french,4,5,french,2024-01-25 10:40:30.095649,False,2,282,sounds\french\audio/french_651.wav,"[[  0.         -31.7609884 ]
 [  0.1         52.52680229]
 [  0.2          7.85876219]
 [  0.3        -92.85880299]
 [  0.4        -32.19396237]
 [  0.5        -28.65780659]
 [  0.6          6.85787083]
 [  0.7         39.81262841]
 [  0.8        -67.00385353]
 [  0.9        -43.82258998]
 [  1.          24.68405128]
 [  1.1        -55.05960981]
 [  1.14141667 -24.80841555]]","[[0.         1.50568683]
 [0.1        0.67521246]
 [0.2        0.9805251 ]
 [0.3        0.97060286]
 [0.4        1.17347833]
 [0.5        0.21577742]
 [0.6        1.38579708]
 [0.7        1.21350763]
 [0.8        0.81689615]
 [0.9        0.87721586]
 [1.         0.52438845]
 [1.1        1.4125197 ]
 [1.14141667 1.30711742]]",1,0.431
8749218289,f,19,french,4,5,french,2024-01-25 10:40:30.095649,False,2,283,sounds\french\audio/french_104.wav,"[[  0.         -10.82069804]
 [  0.1        -46.9179638 ]
 [  0.2        -54.48570272]
 [  0.3          3.05404722]
 [  0.4         53.05029039]
 [  0.5         41.93888619]
 [  0.6         38.59618791]
 [  0.7         19.43152578]
 [  0.8         77.35445073]
 [  0.9         32.46536794]
 [  1.         -22.38343672]
 [  1.1         12.24635973]
 [  1.14141667 -33.54926905]]","[[0.         0.1966368 ]
 [0.1        1.84976789]
 [0.2        1.33623315]
 [0.3        1.29159713]
 [0.4        0.83782165]
 [0.5        1.8090238 ]
 [0.6        0.45654873]
 [0.7        1.50843582]
 [0.8        0.98312763]
 [0.9        0.62069846]
 [1.         0.12277995]
 [1.1        0.0590951 ]
 [1.14141667 0.80794126]]",0,0.719
8749218289,f,19,french,4,5,french,2024-01-25 10:40:30.095649,False,2,284,sounds\french\audio/french_237.wav,"[[  0.          31.70987786]
 [  0.1         44.65820907]
 [  0.2         13.3186434 ]
 [  0.3         66.1783484 ]
 [  0.4          9.82166226]
 [  0.5        -28.83229096]
 [  0.6         76.24548925]
 [  0.7         34.63949689]
 [  0.8        -48.33331205]
 [  0.9         50.34000449]
 [  1.          49.76225002]
 [  1.1         67.38211301]
 [  1.14141667  80.88052333]]","[[0.         1.31590513]
 [0.1        0.84112054]
 [0.2        0.69527524]
 [0.3        1.26135679]
 [0.4        1.98640285]
 [0.5        0.12218975]
 [0.6        0.73409952]
 [0.7        1.11406015]
 [0.8        1.16947058]
 [0.9        0.6556194 ]
 [1.         1.40941557]
 [1.1        0.44515823]
 [1.14141667 0.0317855 ]]",1,0.872
8749218289,f,19,french,4,5,french,2024-01-25 10:40:30.095649,False,2,285,sounds\french\audio/french_514.wav,"[[  0.          19.52749286]
 [  0.1        -18.57686292]
 [  0.2        -11.65218112]
 [  0.3         67.73335024]
 [  0.4          2.50414412]
 [  0.5          9.98358294]
 [  0.6        -79.6394771 ]
 [  0.7        -56.69454189]
 [  0.8        -18.40953805]
 [  0.9        -52.29201997]
 [  1.          65.08217065]
 [  1.1        -33.80106577]
 [  1.14141667  66.85973887]]","[[0.         0.20353533]
 [0.1        0.56212811]
 [0.2        1.19554763]
 [0.3        1.25373802]
 [0.4        0.49820491]
 [0.5        0.39911731]
 [0.6        1.7639196 ]
 [0.7        0.02096069]
 [0.8        1.56380325]
 [0.9        0.9626698 ]
 [1.         1.00011748]
 [1.1        1.32853589]
 [1.14141667 0.17517316]]",1,1.856
8749218289,f,19,french,4,5,french,2024-01-25 10:40:30.095649,False,2,286,sounds\french\audio/french_539.wav,"[[  0.          48.58834425]
 [  0.1        -56.64619482]
 [  0.2         12.72257351]
 [  0.3         14.57779112]
 [  0.4        -53.79115146]
 [  0.5         -9.39809755]
 [  0.6         67.43376648]
 [  0.7        -72.51273076]
 [  0.8          3.43276355]
 [  0.9         40.14425687]
 [  1.          54.85231258]
 [  1.1        -17.29716808]
 [  1.14141667  36.80649937]]","[[0.         0.55713702]
 [0.1        0.83408519]
 [0.2        0.22105139]
 [0.3        1.24631237]
 [0.4        1.80108834]
 [0.5        0.10826692]
 [0.6        1.35746598]
 [0.7        0.14156413]
 [0.8        0.59340931]
 [0.9        0.46199534]
 [1.         1.89990392]
 [1.1        0.79928212]
 [1.14141667 0.04454349]]",1,0.869
8749218289,f,19,french,4,5,french,2024-01-25 10:40:30.095649,False,2,287,sounds\french\audio/french_461.wav,"[[  0.          94.32370933]
 [  0.1        -20.71306493]
 [  0.2        -52.8787947 ]
 [  0.3         54.58301415]
 [  0.4         77.43262349]
 [  0.5         91.72055328]
 [  0.6        -68.29048705]
 [  0.7        -57.37161044]
 [  0.8         31.76308417]
 [  0.9        -99.65529565]
 [  1.         -27.48817095]
 [  1.1         97.80822664]
 [  1.14141667  42.47593373]]","[[0.         1.08116474]
 [0.1        0.77352279]
 [0.2        1.72406451]
 [0.3        1.0712012 ]
 [0.4        1.46762268]
 [0.5        1.02267728]
 [0.6        1.62970382]
 [0.7        0.33624611]
 [0.8        1.07879651]
 [0.9        0.11108974]
 [1.         0.0578911 ]
 [1.1        1.12963754]
 [1.14141667 1.30381109]]",0,0.613
8749218289,f,19,french,4,5,french,2024-01-25 10:40:30.095649,False,2,288,sounds\french\audio/french_943.wav,"[[  0.         -39.69174356]
 [  0.1          9.71823043]
 [  0.2         47.82156503]
 [  0.3        -70.45683827]
 [  0.4        -70.36375892]
 [  0.5        -78.09117144]
 [  0.6         43.3001696 ]
 [  0.7         27.56713446]
 [  0.8         54.98161832]
 [  0.9        -79.78278868]
 [  1.          66.03849917]
 [  1.1        -45.24869993]
 [  1.14141667 -78.78234865]]","[[0.         1.76181843]
 [0.1        0.25866572]
 [0.2        1.61194964]
 [0.3        1.00408981]
 [0.4        1.40275429]
 [0.5        0.47534453]
 [0.6        1.96075546]
 [0.7        0.78248667]
 [0.8        1.42706625]
 [0.9        0.63840216]
 [1.         0.77310904]
 [1.1        1.03848478]
 [1.14141667 0.62693219]]",0,0.183
8749218289,f,19,french,4,5,french,2024-01-25 10:40:30.095649,False,2,289,sounds\french\audio/french_521.wav,"[[  0.           2.02303426]
 [  0.1         27.55245524]
 [  0.2        -46.69757278]
 [  0.3        -94.98250694]
 [  0.4          2.66667068]
 [  0.5         83.78734232]
 [  0.6        -80.30851908]
 [  0.7        -90.0764255 ]
 [  0.8         21.33552602]
 [  0.9        -61.83607635]
 [  1.         -92.49710651]
 [  1.1        -32.3485136 ]
 [  1.14141667   8.4434574 ]]","[[0.         0.20556186]
 [0.1        0.44198605]
 [0.2        0.76515597]
 [0.3        1.70762069]
 [0.4        1.19903269]
 [0.5        0.59862631]
 [0.6        1.39546585]
 [0.7        1.18274747]
 [0.8        1.17625485]
 [0.9        0.38414308]
 [1.         1.18179738]
 [1.1        1.02663222]
 [1.14141667 0.71900975]]",0,0.501
8749218289,f,19,french,4,5,french,2024-01-25 10:40:30.095649,False,2,290,sounds\french\audio/french_548.wav,"[[  0.          54.86314065]
 [  0.1        -70.60670497]
 [  0.2         55.69352869]
 [  0.3        -61.47878925]
 [  0.4        -11.97900613]
 [  0.5         18.14617596]
 [  0.6         80.02860728]
 [  0.7        -44.1411094 ]
 [  0.8        -45.71218284]
 [  0.9         63.93029421]
 [  1.          -1.52565372]
 [  1.1        -65.11467392]
 [  1.14141667  11.82578627]]","[[0.         1.81744547]
 [0.1        0.33721892]
 [0.2        1.2286075 ]
 [0.3        0.67541423]
 [0.4        1.75778453]
 [0.5        1.03239779]
 [0.6        1.13159617]
 [0.7        1.06156024]
 [0.8        1.283306  ]
 [0.9        0.64876388]
 [1.         0.73723592]
 [1.1        1.25903075]
 [1.14141667 0.35535235]]",0,0.345
8749218289,f,19,french,4,5,french,2024-01-25 10:40:30.095649,False,2,291,sounds\french\audio/french_626.wav,"[[  0.          10.19360292]
 [  0.1         82.13961964]
 [  0.2        -91.88565353]
 [  0.3        -30.24557652]
 [  0.4        -43.59153267]
 [  0.5        -15.21775232]
 [  0.6         37.21649368]
 [  0.7         57.1809589 ]
 [  0.8        -44.2684999 ]
 [  0.9         16.56515744]
 [  1.         -45.54877222]
 [  1.1         41.50051327]
 [  1.14141667 -53.34907956]]","[[0.         0.93552428]
 [0.1        1.5639108 ]
 [0.2        0.54149797]
 [0.3        1.77619129]
 [0.4        1.46344574]
 [0.5        0.20286753]
 [0.6        1.6090377 ]
 [0.7        1.90666988]
 [0.8        1.70214312]
 [0.9        0.19372922]
 [1.         0.55446441]
 [1.1        0.42094173]
 [1.14141667 1.23447696]]",0,0.481
8749218289,f,19,french,4,5,french,2024-01-25 10:40:30.095649,False,2,292,sounds\french\audio/french_854.wav,"[[  0.         -84.34166264]
 [  0.1         84.957105  ]
 [  0.2        -75.25231073]
 [  0.3         65.5230415 ]
 [  0.4         19.1345831 ]
 [  0.5        -49.51780093]
 [  0.6        -99.22511646]
 [  0.7         68.97565422]
 [  0.8        -53.31062312]
 [  0.9          1.33468715]
 [  1.           0.86331226]
 [  1.1         43.96559109]
 [  1.14141667  26.73107262]]","[[0.         1.84057999]
 [0.1        0.73718017]
 [0.2        1.41154928]
 [0.3        1.17124469]
 [0.4        0.72588649]
 [0.5        1.4038491 ]
 [0.6        1.40303457]
 [0.7        1.27711643]
 [0.8        0.55715751]
 [0.9        1.82879395]
 [1.         1.15444978]
 [1.1        0.64968484]
 [1.14141667 0.58965928]]",0,0.399
8749218289,f,19,french,4,5,french,2024-01-25 10:40:30.095649,False,2,293,sounds\french\audio/french_448.wav,"[[  0.         -49.41608192]
 [  0.1        -30.3512703 ]
 [  0.2         67.54613393]
 [  0.3        -93.47597167]
 [  0.4         23.22725928]
 [  0.5         60.03248628]
 [  0.6         26.16426079]
 [  0.7         19.22865529]
 [  0.8        -91.4658834 ]
 [  0.9        -80.8404627 ]
 [  1.         -14.65228926]
 [  1.1        -63.24456299]
 [  1.14141667 -10.86817626]]","[[0.         0.77831595]
 [0.1        1.71978765]
 [0.2        0.27102863]
 [0.3        1.6891978 ]
 [0.4        1.07215267]
 [0.5        0.57646816]
 [0.6        0.14253766]
 [0.7        1.98223022]
 [0.8        0.38558498]
 [0.9        0.04175319]
 [1.         0.76552701]
 [1.1        1.41782634]
 [1.14141667 0.38733853]]",1,3.223
8749218289,f,19,french,4,5,french,2024-01-25 10:40:30.095649,False,2,294,sounds\french\audio/french_113.wav,"[[  0.          51.06943886]
 [  0.1         24.37567111]
 [  0.2        -30.40960405]
 [  0.3        -91.25272525]
 [  0.4         87.90673924]
 [  0.5          2.42955661]
 [  0.6         36.08285451]
 [  0.7        -99.48293301]
 [  0.8         59.12958731]
 [  0.9        -71.36695162]
 [  1.         -86.60100387]
 [  1.1        -70.30574561]
 [  1.14141667  72.13764249]]","[[0.         1.16712097]
 [0.1        0.22717449]
 [0.2        0.5815837 ]
 [0.3        0.50497114]
 [0.4        1.37233966]
 [0.5        1.42439941]
 [0.6        1.26104805]
 [0.7        1.48988751]
 [0.8        1.64050353]
 [0.9        1.39380246]
 [1.         1.34922295]
 [1.1        0.5132175 ]
 [1.14141667 0.46186768]]",1,0.347
8749218289,f,19,french,4,5,french,2024-01-25 10:40:30.095649,False,2,295,sounds\french\audio/french_330.wav,"[[  0.          79.95487352]
 [  0.1          7.2273164 ]
 [  0.2        -46.18281556]
 [  0.3         71.79513562]
 [  0.4        -55.81483833]
 [  0.5         -0.36311167]
 [  0.6        -26.48743473]
 [  0.7        -83.94185596]
 [  0.8        -33.65600914]
 [  0.9         64.51376195]
 [  1.         -29.49606256]
 [  1.1        -20.74888201]
 [  1.14141667  37.10154127]]","[[0.         1.29283894]
 [0.1        0.83120423]
 [0.2        1.08340912]
 [0.3        0.67737942]
 [0.4        0.73711237]
 [0.5        0.48894153]
 [0.6        0.26964317]
 [0.7        1.53010393]
 [0.8        0.84264515]
 [0.9        1.9810336 ]
 [1.         0.43026632]
 [1.1        0.7309591 ]
 [1.14141667 1.84112847]]",1,0.203
8749218289,f,19,french,4,5,french,2024-01-25 10:40:30.095649,False,2,296,sounds\french\audio/french_604.wav,"[[  0.          68.10611108]
 [  0.1         63.99388414]
 [  0.2        -77.78267876]
 [  0.3         60.87409142]
 [  0.4        -14.91542268]
 [  0.5        -77.93180804]
 [  0.6         -7.81349461]
 [  0.7        -84.16622539]
 [  0.8         35.51945386]
 [  0.9        -86.69827035]
 [  1.         -94.13173546]
 [  1.1         23.0579156 ]
 [  1.14141667  17.93273323]]","[[0.         1.35759712]
 [0.1        0.2485611 ]
 [0.2        1.02499907]
 [0.3        1.93810497]
 [0.4        1.6573055 ]
 [0.5        0.98370732]
 [0.6        1.37690628]
 [0.7        0.46296761]
 [0.8        0.51335832]
 [0.9        0.88073963]
 [1.         1.51448748]
 [1.1        1.13726211]
 [1.14141667 0.33901192]]",1,0.623
8749218289,f,19,french,4,5,french,2024-01-25 10:40:30.095649,False,2,297,sounds\french\audio/french_974.wav,"[[  0.          70.97382946]
 [  0.1        -11.51206682]
 [  0.2         21.14590895]
 [  0.3         -1.24336301]
 [  0.4         -7.59562756]
 [  0.5         98.81108041]
 [  0.6          1.5690047 ]
 [  0.7         32.73857184]
 [  0.8         21.15705836]
 [  0.9         24.28285736]
 [  1.         -18.85169767]
 [  1.1        -83.94572859]
 [  1.14141667 -90.55748201]]","[[0.         1.27524467]
 [0.1        0.96634171]
 [0.2        1.94727541]
 [0.3        0.55924313]
 [0.4        0.16409288]
 [0.5        0.65824955]
 [0.6        1.04527507]
 [0.7        1.28112397]
 [0.8        1.89872216]
 [0.9        0.65988414]
 [1.         1.70679925]
 [1.1        1.83803483]
 [1.14141667 1.54364757]]",1,1.734
8749218289,f,19,french,4,5,french,2024-01-25 10:40:30.095649,False,2,298,sounds\french\audio/french_566.wav,"[[  0.         -16.96845305]
 [  0.1         84.38851632]
 [  0.2         41.85960526]
 [  0.3        -39.90379286]
 [  0.4         20.08999337]
 [  0.5         -6.78108425]
 [  0.6         72.17198407]
 [  0.7          9.98770154]
 [  0.8        -19.58429309]
 [  0.9         -9.24609078]
 [  1.         -71.96197816]
 [  1.1         93.08203499]
 [  1.14141667 -67.92077118]]","[[0.         1.17622885]
 [0.1        1.73242098]
 [0.2        0.81564824]
 [0.3        1.52203287]
 [0.4        1.59966219]
 [0.5        1.81966132]
 [0.6        0.1494381 ]
 [0.7        0.70489318]
 [0.8        0.97523256]
 [0.9        1.39455087]
 [1.         1.80039842]
 [1.1        1.02671829]
 [1.14141667 0.56763023]]",1,0.052
8749218289,f,19,french,4,5,french,2024-01-25 10:40:30.095649,False,2,299,sounds\french\audio/french_617.wav,"[[  0.          41.18921531]
 [  0.1        -35.03636924]
 [  0.2        -74.98228457]
 [  0.3        -36.51435822]
 [  0.4        -95.32464294]
 [  0.5         84.01929298]
 [  0.6         32.67157622]
 [  0.7        -71.7342706 ]
 [  0.8        -45.86213667]
 [  0.9         87.19566362]
 [  1.         -47.72681817]
 [  1.1         15.937344  ]
 [  1.14141667  72.65175015]]","[[0.         0.91184006]
 [0.1        1.24340801]
 [0.2        1.94725418]
 [0.3        0.5653448 ]
 [0.4        1.52373912]
 [0.5        1.56026974]
 [0.6        0.19851572]
 [0.7        1.89713844]
 [0.8        1.81378599]
 [0.9        1.31045157]
 [1.         0.66805601]
 [1.1        0.14648847]
 [1.14141667 0.64127007]]",1,0.286
8749218289,f,19,french,4,5,french,2024-01-25 10:40:30.095649,False,2,300,sounds\french\audio/french_208.wav,"[[  0.          22.05412131]
 [  0.1        -81.24093625]
 [  0.2        -56.8023019 ]
 [  0.3         42.11803464]
 [  0.4        -62.30011739]
 [  0.5        -54.22793596]
 [  0.6        -22.54029576]
 [  0.7          3.64260812]
 [  0.8         34.77853372]
 [  0.9        -69.5924933 ]
 [  1.         -81.19588074]
 [  1.1        -23.61160916]
 [  1.14141667  -3.35496918]]","[[0.         0.76725809]
 [0.1        1.19895138]
 [0.2        1.75036409]
 [0.3        1.11519781]
 [0.4        0.53587167]
 [0.5        0.06074171]
 [0.6        0.24306128]
 [0.7        0.45122919]
 [0.8        0.41059711]
 [0.9        0.57249987]
 [1.         1.0921966 ]
 [1.1        1.04543031]
 [1.14141667 1.92109129]]",1,0.084
8749218289,f,19,french,4,5,french,2024-01-25 10:40:30.095649,False,2,301,sounds\french\audio/french_191.wav,"[[  0.         -39.99340478]
 [  0.1         11.63414549]
 [  0.2        -36.35828588]
 [  0.3        -98.69172467]
 [  0.4         45.8146994 ]
 [  0.5        -81.34234862]
 [  0.6         76.85689755]
 [  0.7         30.77762716]
 [  0.8         69.05359103]
 [  0.9        -46.7773051 ]
 [  1.         -87.86133128]
 [  1.1         49.92457354]
 [  1.14141667 -23.83679331]]","[[0.         0.51561269]
 [0.1        1.02814661]
 [0.2        0.59773473]
 [0.3        0.28838803]
 [0.4        0.36122414]
 [0.5        0.73128969]
 [0.6        0.79641924]
 [0.7        1.01273186]
 [0.8        0.26915511]
 [0.9        0.61564868]
 [1.         0.74101429]
 [1.1        1.64291894]
 [1.14141667 1.52790896]]",0,0.126
8749218289,f,19,french,4,5,french,2024-01-25 10:40:30.095649,False,2,302,sounds\french\audio/french_1.wav,"[[  0.          26.36257075]
 [  0.1         14.94364535]
 [  0.2        -55.06667651]
 [  0.3          9.22256956]
 [  0.4          5.26534665]
 [  0.5        -77.31029628]
 [  0.6         18.7127075 ]
 [  0.7         48.0646471 ]
 [  0.8         14.57442759]
 [  0.9          7.89361979]
 [  1.          -7.03618507]
 [  1.1        -82.88207817]
 [  1.14141667   7.58831171]]","[[0.         0.46363332]
 [0.1        1.03691061]
 [0.2        1.41963097]
 [0.3        1.61805148]
 [0.4        1.72014778]
 [0.5        1.90147838]
 [0.6        0.04284443]
 [0.7        1.2283672 ]
 [0.8        1.41746685]
 [0.9        0.09918081]
 [1.         1.02614047]
 [1.1        1.00877048]
 [1.14141667 0.67836911]]",0,0.358
8749218289,f,19,french,4,5,french,2024-01-25 10:40:30.095649,False,2,303,sounds\french\audio/french_939.wav,"[[  0.          68.2384799 ]
 [  0.1         98.20525801]
 [  0.2        -42.19761406]
 [  0.3         43.17355225]
 [  0.4        -14.96635905]
 [  0.5        -43.49672798]
 [  0.6         41.76813315]
 [  0.7         88.36147994]
 [  0.8         59.42037908]
 [  0.9         86.723379  ]
 [  1.         -78.72989076]
 [  1.1        -26.66254955]
 [  1.14141667 -48.10200682]]","[[0.         0.18942364]
 [0.1        1.24422322]
 [0.2        0.84726027]
 [0.3        0.63121745]
 [0.4        1.39450382]
 [0.5        1.83680784]
 [0.6        1.84374711]
 [0.7        0.72560086]
 [0.8        1.11819201]
 [0.9        1.00539219]
 [1.         1.52240486]
 [1.1        1.78566065]
 [1.14141667 1.0817634 ]]",1,0.627
8749218289,f,19,french,4,5,french,2024-01-25 10:40:30.095649,False,2,304,sounds\french\audio/french_483.wav,"[[  0.          50.89359321]
 [  0.1         67.76879412]
 [  0.2        -81.54654368]
 [  0.3         43.01535886]
 [  0.4         70.5994589 ]
 [  0.5         54.22966785]
 [  0.6         63.66278597]
 [  0.7         54.80881275]
 [  0.8        -36.8716549 ]
 [  0.9        -16.05414027]
 [  1.          26.79902818]
 [  1.1         42.00785038]
 [  1.14141667 -97.97546667]]","[[0.         0.2476649 ]
 [0.1        1.0854265 ]
 [0.2        0.81961479]
 [0.3        0.19337372]
 [0.4        1.4133999 ]
 [0.5        1.87052434]
 [0.6        1.18003603]
 [0.7        0.71997381]
 [0.8        1.84179943]
 [0.9        1.80548829]
 [1.         1.35265762]
 [1.1        1.5454492 ]
 [1.14141667 1.76672178]]",1,0.295
8749218289,f,19,french,4,5,french,2024-01-25 10:40:30.095649,False,2,305,sounds\french\audio/french_325.wav,"[[  0.         -33.01798488]
 [  0.1        -57.75408991]
 [  0.2          9.72119817]
 [  0.3        -94.23259059]
 [  0.4        -74.75409549]
 [  0.5        -37.40294442]
 [  0.6        -53.45534346]
 [  0.7        -51.83136357]
 [  0.8         25.19041356]
 [  0.9         -8.8113376 ]
 [  1.         -26.55450811]
 [  1.1        -53.37083402]
 [  1.14141667  85.80939648]]","[[0.         0.50600745]
 [0.1        0.27831477]
 [0.2        1.8163001 ]
 [0.3        0.69374934]
 [0.4        0.94399778]
 [0.5        0.497515  ]
 [0.6        1.68859293]
 [0.7        0.3557352 ]
 [0.8        1.56729083]
 [0.9        1.34955394]
 [1.         0.71664369]
 [1.1        0.20609589]
 [1.14141667 1.35438134]]",1,0.416
8749218289,f,19,french,4,5,french,2024-01-25 10:40:30.095649,False,2,306,sounds\french\audio/french_671.wav,"[[  0.         -12.85470068]
 [  0.1          2.67819686]
 [  0.2         95.59247328]
 [  0.3        -13.98443503]
 [  0.4         68.80637955]
 [  0.5          1.26765297]
 [  0.6        -70.75583684]
 [  0.7        -41.351183  ]
 [  0.8         50.28106636]
 [  0.9        -33.24209559]
 [  1.          -0.53326813]
 [  1.1        -87.23485775]
 [  1.14141667 -62.69796975]]","[[0.         1.28020636]
 [0.1        0.37059178]
 [0.2        0.84310037]
 [0.3        0.70560659]
 [0.4        0.37083609]
 [0.5        0.87313921]
 [0.6        1.92523748]
 [0.7        1.65594106]
 [0.8        1.80795109]
 [0.9        1.68291782]
 [1.         0.5471334 ]
 [1.1        0.64128997]
 [1.14141667 0.27161171]]",0,0.906
8749218289,f,19,french,4,5,french,2024-01-25 10:40:30.095649,False,2,307,sounds\french\audio/french_317.wav,"[[  0.          40.8685805 ]
 [  0.1        -18.25010816]
 [  0.2         21.38431057]
 [  0.3         95.9205375 ]
 [  0.4         38.32089871]
 [  0.5        -21.23529277]
 [  0.6         77.91728969]
 [  0.7         80.74208796]
 [  0.8          7.4329056 ]
 [  0.9         43.55624299]
 [  1.          -3.0789023 ]
 [  1.1         53.49310135]
 [  1.14141667  20.73152809]]","[[0.         0.12762298]
 [0.1        0.46117381]
 [0.2        0.51489794]
 [0.3        0.84411481]
 [0.4        0.32765242]
 [0.5        0.79138261]
 [0.6        0.47375235]
 [0.7        0.7422914 ]
 [0.8        0.34355832]
 [0.9        0.04625658]
 [1.         1.28889799]
 [1.1        1.94514932]
 [1.14141667 0.29763753]]",0,0.45
8749218289,f,19,french,4,5,french,2024-01-25 10:40:30.095649,False,2,308,sounds\french\audio/french_52.wav,"[[  0.          93.38164969]
 [  0.1         -4.17463196]
 [  0.2         43.01045584]
 [  0.3         79.89764716]
 [  0.4         89.53615732]
 [  0.5         -1.91048344]
 [  0.6         -9.63392165]
 [  0.7        -91.20147798]
 [  0.8        -22.16876699]
 [  0.9         26.46243178]
 [  1.         -96.25408509]
 [  1.1        -45.87026752]
 [  1.14141667 -15.0624862 ]]","[[0.         0.21743143]
 [0.1        1.66269787]
 [0.2        0.38714673]
 [0.3        1.29835481]
 [0.4        1.7255644 ]
 [0.5        0.55155407]
 [0.6        0.27578942]
 [0.7        1.40308441]
 [0.8        1.87234948]
 [0.9        1.88038075]
 [1.         1.06731664]
 [1.1        1.74934034]
 [1.14141667 1.38742842]]",1,0.576
8749218289,f,19,french,4,5,french,2024-01-25 10:40:30.095649,False,2,309,sounds\french\audio/french_978.wav,"[[  0.          40.36214047]
 [  0.1         27.48362985]
 [  0.2         40.29852831]
 [  0.3        -43.85061163]
 [  0.4         67.88325766]
 [  0.5        -16.70318953]
 [  0.6        -33.19947882]
 [  0.7         50.84300547]
 [  0.8         85.59312257]
 [  0.9        -72.45512146]
 [  1.         -13.92502552]
 [  1.1         24.95517316]
 [  1.14141667 -51.28447362]]","[[0.         1.71110023]
 [0.1        0.87420818]
 [0.2        1.60194799]
 [0.3        1.28609491]
 [0.4        1.65987261]
 [0.5        1.36246258]
 [0.6        1.20639467]
 [0.7        0.49083377]
 [0.8        0.35642981]
 [0.9        1.25854162]
 [1.         1.89656772]
 [1.1        1.25997973]
 [1.14141667 1.23391695]]",1,0.872
8749218289,f,19,french,4,5,french,2024-01-25 10:40:30.095649,False,2,310,sounds\french\audio/french_632.wav,"[[  0.         -61.06763991]
 [  0.1        -57.8130529 ]
 [  0.2         54.35735824]
 [  0.3        -58.91236726]
 [  0.4        -64.13325835]
 [  0.5          1.3996077 ]
 [  0.6         96.59752588]
 [  0.7         43.3805339 ]
 [  0.8         -5.42806786]
 [  0.9        -58.66284966]
 [  1.         -47.33386135]
 [  1.1        -21.19098869]
 [  1.14141667  97.6648062 ]]","[[0.         1.6452416 ]
 [0.1        0.41885381]
 [0.2        1.5481505 ]
 [0.3        1.62022086]
 [0.4        0.90453309]
 [0.5        1.75325833]
 [0.6        1.95765898]
 [0.7        1.0798425 ]
 [0.8        1.87572571]
 [0.9        0.40799894]
 [1.         1.4956973 ]
 [1.1        1.53768765]
 [1.14141667 1.52822814]]",1,0.532
8749218289,f,19,french,4,5,french,2024-01-25 10:40:30.095649,False,2,311,sounds\french\audio/french_418.wav,"[[  0.          30.8158802 ]
 [  0.1        -49.53284919]
 [  0.2         36.79712785]
 [  0.3        -99.55359759]
 [  0.4         68.9088774 ]
 [  0.5         80.99957915]
 [  0.6          4.26486526]
 [  0.7        -17.5210691 ]
 [  0.8         62.53897835]
 [  0.9        -85.84748653]
 [  1.         -46.33715828]
 [  1.1         42.67097057]
 [  1.14141667 -75.9263862 ]]","[[0.         0.39666711]
 [0.1        1.06359174]
 [0.2        0.64757436]
 [0.3        1.7224486 ]
 [0.4        0.44902576]
 [0.5        1.67719648]
 [0.6        1.66921538]
 [0.7        1.5326406 ]
 [0.8        0.45272356]
 [0.9        1.5121066 ]
 [1.         0.28461943]
 [1.1        0.94734784]
 [1.14141667 0.46817887]]",0,0.542
8749218289,f,19,french,4,5,french,2024-01-25 10:40:30.095649,False,2,312,sounds\french\audio/french_788.wav,"[[  0.          84.88181246]
 [  0.1        -53.361196  ]
 [  0.2        -79.83183492]
 [  0.3        -81.43667249]
 [  0.4        -84.26984857]
 [  0.5         -6.78913133]
 [  0.6        -92.03119161]
 [  0.7        -49.77310548]
 [  0.8        -47.02560552]
 [  0.9        -18.72561961]
 [  1.         -17.58583792]
 [  1.1        -51.68507601]
 [  1.14141667 -51.32861943]]","[[0.         0.03175168]
 [0.1        0.85169606]
 [0.2        1.06249642]
 [0.3        0.33118056]
 [0.4        0.56264905]
 [0.5        1.04297642]
 [0.6        0.21097219]
 [0.7        0.74540568]
 [0.8        0.91078692]
 [0.9        1.76633496]
 [1.         0.74480247]
 [1.1        0.45106358]
 [1.14141667 1.35846838]]",1,0.432
8749218289,f,19,french,4,5,french,2024-01-25 10:40:30.095649,False,2,313,sounds\french\audio/french_712.wav,"[[  0.         -95.66069785]
 [  0.1         -6.05322415]
 [  0.2        -14.42781433]
 [  0.3         32.58463251]
 [  0.4        -88.6066963 ]
 [  0.5        -30.98319164]
 [  0.6         76.39467543]
 [  0.7        -64.68968395]
 [  0.8        -71.89558722]
 [  0.9         67.69667977]
 [  1.          18.20955726]
 [  1.1        -31.46092163]
 [  1.14141667  29.12914815]]","[[0.         1.85127754]
 [0.1        1.47951206]
 [0.2        1.70422178]
 [0.3        1.42320081]
 [0.4        1.1647441 ]
 [0.5        1.7308951 ]
 [0.6        0.03424579]
 [0.7        0.15973474]
 [0.8        1.61824192]
 [0.9        0.80414017]
 [1.         1.37598527]
 [1.1        0.55072858]
 [1.14141667 1.89981007]]",1,0.487
8749218289,f,19,french,4,5,french,2024-01-25 10:40:30.095649,False,2,314,sounds\french\audio/french_509.wav,"[[  0.         -79.28359824]
 [  0.1        -85.11040144]
 [  0.2         58.20689337]
 [  0.3        -53.07212842]
 [  0.4         14.54054596]
 [  0.5         38.89832363]
 [  0.6        -59.04867319]
 [  0.7        -18.19891129]
 [  0.8        -73.30058077]
 [  0.9          9.43722615]
 [  1.           2.35167022]
 [  1.1        -85.32824264]
 [  1.14141667  19.13063021]]","[[0.         1.76643555]
 [0.1        0.57920492]
 [0.2        0.89396937]
 [0.3        0.80048379]
 [0.4        1.05618514]
 [0.5        0.5299581 ]
 [0.6        1.30906386]
 [0.7        0.47184047]
 [0.8        0.61756094]
 [0.9        0.62383509]
 [1.         1.37177888]
 [1.1        0.23324254]
 [1.14141667 0.91376092]]",0,0.512
8749218289,f,19,french,4,5,french,2024-01-25 10:40:30.095649,False,2,315,sounds\french\audio/french_38.wav,"[[  0.          40.69692625]
 [  0.1         83.11806361]
 [  0.2         18.12214919]
 [  0.3        -19.25038889]
 [  0.4         76.29170631]
 [  0.5        -93.04323891]
 [  0.6         29.67195094]
 [  0.7        -14.70137235]
 [  0.8         85.48410819]
 [  0.9         68.26582685]
 [  1.         -29.21602996]
 [  1.1        -39.50968765]
 [  1.14141667  48.64216134]]","[[0.         0.35088988]
 [0.1        0.52815391]
 [0.2        0.42903125]
 [0.3        1.56660171]
 [0.4        1.50314168]
 [0.5        0.64027928]
 [0.6        1.95048915]
 [0.7        1.01169212]
 [0.8        0.30617126]
 [0.9        1.37718683]
 [1.         1.41030957]
 [1.1        1.24571364]
 [1.14141667 1.9075345 ]]",1,0.558
8749218289,f,19,french,4,5,french,2024-01-25 10:40:30.095649,False,2,316,sounds\french\audio/french_206.wav,"[[  0.          43.92395117]
 [  0.1         39.31302251]
 [  0.2        -42.8927459 ]
 [  0.3        -42.74094368]
 [  0.4        -54.37015978]
 [  0.5         58.70658254]
 [  0.6        -93.65162754]
 [  0.7         21.97210984]
 [  0.8        -19.85883058]
 [  0.9         52.86747229]
 [  1.          28.65042427]
 [  1.1         97.07118546]
 [  1.14141667  -9.08669324]]","[[0.         1.77403628]
 [0.1        1.60288441]
 [0.2        1.13153884]
 [0.3        1.48428597]
 [0.4        0.87838006]
 [0.5        1.89671484]
 [0.6        0.9605472 ]
 [0.7        1.59310841]
 [0.8        0.68468678]
 [0.9        1.01785064]
 [1.         1.27680634]
 [1.1        0.38746368]
 [1.14141667 1.12107316]]",0,0.837
8749218289,f,19,french,4,5,french,2024-01-25 10:40:30.095649,False,2,317,sounds\french\audio/french_862.wav,"[[  0.         -14.63662445]
 [  0.1         28.45864879]
 [  0.2         -0.68000434]
 [  0.3        -26.73602813]
 [  0.4         -7.71050008]
 [  0.5         33.14788708]
 [  0.6         78.18456635]
 [  0.7         24.14901592]
 [  0.8         45.35031598]
 [  0.9         65.59077206]
 [  1.          11.68649512]
 [  1.1         25.97419467]
 [  1.14141667 -65.02919288]]","[[0.         0.11578422]
 [0.1        0.2814116 ]
 [0.2        0.85291147]
 [0.3        1.69973262]
 [0.4        1.01442459]
 [0.5        1.55366455]
 [0.6        0.0771969 ]
 [0.7        1.35224055]
 [0.8        0.5357761 ]
 [0.9        0.6562808 ]
 [1.         0.44961624]
 [1.1        0.01039806]
 [1.14141667 0.96489683]]",0,0.586
8749218289,f,19,french,4,5,french,2024-01-25 10:40:30.095649,False,2,318,sounds\french\audio/french_52.wav,"[[  0.          93.38164969]
 [  0.1         -4.17463196]
 [  0.2         43.01045584]
 [  0.3         79.89764716]
 [  0.4         89.53615732]
 [  0.5         -1.91048344]
 [  0.6         -9.63392165]
 [  0.7        -91.20147798]
 [  0.8        -22.16876699]
 [  0.9         26.46243178]
 [  1.         -96.25408509]
 [  1.1        -45.87026752]
 [  1.14141667 -15.0624862 ]]","[[0.         0.21743143]
 [0.1        1.66269787]
 [0.2        0.38714673]
 [0.3        1.29835481]
 [0.4        1.7255644 ]
 [0.5        0.55155407]
 [0.6        0.27578942]
 [0.7        1.40308441]
 [0.8        1.87234948]
 [0.9        1.88038075]
 [1.         1.06731664]
 [1.1        1.74934034]
 [1.14141667 1.38742842]]",0,0.856
8749218289,f,19,french,4,5,french,2024-01-25 10:40:30.095649,False,2,319,sounds\french\audio/french_685.wav,"[[  0.          15.72275415]
 [  0.1        -17.98823356]
 [  0.2         65.15130869]
 [  0.3        -29.09849503]
 [  0.4         80.3913755 ]
 [  0.5         69.16437222]
 [  0.6         94.4311828 ]
 [  0.7        -34.30157349]
 [  0.8         54.54653623]
 [  0.9         70.83768359]
 [  1.          85.61297077]
 [  1.1         27.81589557]
 [  1.14141667  -9.10708793]]","[[0.         0.3186228 ]
 [0.1        0.55293097]
 [0.2        1.61552047]
 [0.3        1.16824703]
 [0.4        1.52008085]
 [0.5        0.87763706]
 [0.6        1.87993666]
 [0.7        1.65434325]
 [0.8        0.05536448]
 [0.9        1.1397735 ]
 [1.         0.83672501]
 [1.1        0.56110169]
 [1.14141667 0.81567385]]",1,1.829
8749218289,f,19,french,4,5,french,2024-01-25 10:40:30.095649,False,2,320,sounds\french\audio/french_918.wav,"[[  0.          -2.67893581]
 [  0.1        -86.66912791]
 [  0.2         13.19664365]
 [  0.3         21.91008155]
 [  0.4         45.19898324]
 [  0.5        -61.98176128]
 [  0.6        -32.0210955 ]
 [  0.7        -56.67296374]
 [  0.8        -69.82955016]
 [  0.9         71.11041844]
 [  1.         -91.16742521]
 [  1.1        -50.98363321]
 [  1.14141667  10.7461397 ]]","[[0.         1.74350248]
 [0.1        1.24019067]
 [0.2        1.00107396]
 [0.3        1.28680607]
 [0.4        0.62507084]
 [0.5        0.85364819]
 [0.6        0.7136194 ]
 [0.7        0.47996765]
 [0.8        1.02040943]
 [0.9        1.48734385]
 [1.         1.67065693]
 [1.1        0.14001191]
 [1.14141667 0.38979864]]",1,0.983
8749218289,f,19,french,4,5,french,2024-01-25 10:40:30.095649,False,2,321,sounds\french\audio/french_659.wav,"[[  0.          48.90062575]
 [  0.1        -69.07148134]
 [  0.2         -3.79784226]
 [  0.3        -19.68077466]
 [  0.4        -75.20346612]
 [  0.5         -0.60792706]
 [  0.6        -47.33415621]
 [  0.7         16.4811279 ]
 [  0.8        -17.31210465]
 [  0.9         20.64222746]
 [  1.         -84.81869406]
 [  1.1         51.19867418]
 [  1.14141667 -21.12219149]]","[[0.         0.78276201]
 [0.1        0.68861519]
 [0.2        1.39122564]
 [0.3        1.3824081 ]
 [0.4        0.76200862]
 [0.5        0.97964197]
 [0.6        0.23275502]
 [0.7        0.02741707]
 [0.8        0.38511578]
 [0.9        0.30541253]
 [1.         1.78035006]
 [1.1        1.15663372]
 [1.14141667 0.69322275]]",0,0.346
8749218289,f,19,french,4,5,french,2024-01-25 10:40:30.095649,False,2,322,sounds\french\audio/french_2.wav,"[[  0.         -86.87483072]
 [  0.1         30.88471   ]
 [  0.2        -63.05424844]
 [  0.3         51.55101831]
 [  0.4        -97.82970137]
 [  0.5         51.42109266]
 [  0.6        -29.2060834 ]
 [  0.7         90.68379187]
 [  0.8        -68.59815448]
 [  0.9         51.41543925]
 [  1.         -33.48006024]
 [  1.1          2.14765409]
 [  1.14141667  40.23091812]]","[[0.         0.90329499]
 [0.1        1.75440235]
 [0.2        0.77448186]
 [0.3        0.99965543]
 [0.4        0.9023396 ]
 [0.5        1.28884098]
 [0.6        1.83503208]
 [0.7        0.07032507]
 [0.8        1.25711652]
 [0.9        1.0016667 ]
 [1.         0.4903742 ]
 [1.1        1.09021934]
 [1.14141667 0.46007065]]",1,0.275
8749218289,f,19,french,4,5,french,2024-01-25 10:40:30.095649,False,2,323,sounds\french\audio/french_331.wav,"[[  0.          -5.76763244]
 [  0.1        -52.64550288]
 [  0.2         33.91369618]
 [  0.3          2.76494439]
 [  0.4         28.25566851]
 [  0.5        -26.62339469]
 [  0.6        -38.99536657]
 [  0.7        -41.39460314]
 [  0.8        -52.63700737]
 [  0.9        -41.88182254]
 [  1.          28.65752822]
 [  1.1         11.07498327]
 [  1.14141667 -55.36680151]]","[[0.         0.44927082]
 [0.1        0.18129642]
 [0.2        1.34006101]
 [0.3        1.82406292]
 [0.4        0.80324024]
 [0.5        0.48532471]
 [0.6        0.16806237]
 [0.7        1.79111184]
 [0.8        0.66376549]
 [0.9        0.25387795]
 [1.         0.21815643]
 [1.1        1.03351958]
 [1.14141667 0.55793758]]",0,0.65
8749218289,f,19,french,4,5,french,2024-01-25 10:40:30.095649,False,2,324,sounds\french\audio/french_862.wav,"[[  0.         -14.63662445]
 [  0.1         28.45864879]
 [  0.2         -0.68000434]
 [  0.3        -26.73602813]
 [  0.4         -7.71050008]
 [  0.5         33.14788708]
 [  0.6         78.18456635]
 [  0.7         24.14901592]
 [  0.8         45.35031598]
 [  0.9         65.59077206]
 [  1.          11.68649512]
 [  1.1         25.97419467]
 [  1.14141667 -65.02919288]]","[[0.         0.11578422]
 [0.1        0.2814116 ]
 [0.2        0.85291147]
 [0.3        1.69973262]
 [0.4        1.01442459]
 [0.5        1.55366455]
 [0.6        0.0771969 ]
 [0.7        1.35224055]
 [0.8        0.5357761 ]
 [0.9        0.6562808 ]
 [1.         0.44961624]
 [1.1        0.01039806]
 [1.14141667 0.96489683]]",0,0.377
8749218289,f,19,french,4,5,french,2024-01-25 10:40:30.095649,False,2,325,sounds\french\audio/french_83.wav,"[[  0.          30.44967783]
 [  0.1         32.59822127]
 [  0.2         50.8682146 ]
 [  0.3          0.11779037]
 [  0.4         16.37029834]
 [  0.5         90.79022832]
 [  0.6        -75.94380669]
 [  0.7         34.13478403]
 [  0.8        -27.50152867]
 [  0.9          9.93495342]
 [  1.          58.3619145 ]
 [  1.1         15.44979308]
 [  1.14141667  13.85594834]]","[[0.         0.42165273]
 [0.1        0.3238076 ]
 [0.2        0.37913611]
 [0.3        0.78724258]
 [0.4        1.0594663 ]
 [0.5        0.48377765]
 [0.6        0.29353951]
 [0.7        1.31767934]
 [0.8        0.23770737]
 [0.9        0.58296712]
 [1.         0.64820026]
 [1.1        0.12158815]
 [1.14141667 0.38899467]]",1,0.768
8749218289,f,19,french,4,5,french,2024-01-25 10:40:30.095649,False,2,326,sounds\french\audio/french_973.wav,"[[  0.         -86.39839216]
 [  0.1          1.20679898]
 [  0.2         15.58231858]
 [  0.3        -75.27995911]
 [  0.4         91.87969764]
 [  0.5        -44.549451  ]
 [  0.6         14.10135861]
 [  0.7         34.76220083]
 [  0.8         56.57853654]
 [  0.9        -35.36373117]
 [  1.          61.49745855]
 [  1.1         42.44556921]
 [  1.14141667  36.91066047]]","[[0.         0.1983517 ]
 [0.1        0.23187488]
 [0.2        0.04321491]
 [0.3        0.48652298]
 [0.4        1.31905272]
 [0.5        1.13684952]
 [0.6        1.60418298]
 [0.7        0.57933273]
 [0.8        0.47519185]
 [0.9        0.24624019]
 [1.         0.64920292]
 [1.1        1.98431644]
 [1.14141667 0.99098836]]",1,1.471
8749218289,f,19,french,4,5,french,2024-01-25 10:40:30.095649,False,2,327,sounds\french\audio/french_529.wav,"[[  0.          68.21405675]
 [  0.1        -26.26254382]
 [  0.2         35.91187259]
 [  0.3        -90.62874651]
 [  0.4         48.9626863 ]
 [  0.5        -34.38890804]
 [  0.6        -26.35114845]
 [  0.7         76.17282181]
 [  0.8        -86.28711417]
 [  0.9        -66.41984683]
 [  1.          74.29634714]
 [  1.1        -35.97062469]
 [  1.14141667  81.32540921]]","[[0.         0.55022537]
 [0.1        1.84018601]
 [0.2        1.28391887]
 [0.3        0.7250288 ]
 [0.4        0.78464607]
 [0.5        0.26698233]
 [0.6        0.62081799]
 [0.7        1.40858926]
 [0.8        0.07240201]
 [0.9        0.58270484]
 [1.         0.30597621]
 [1.1        0.43438998]
 [1.14141667 1.7101157 ]]",1,1.087
8749218289,f,19,french,4,5,french,2024-01-25 10:40:30.095649,False,2,328,sounds\french\audio/french_474.wav,"[[  0.         -88.88128127]
 [  0.1        -87.53662443]
 [  0.2        -73.33591132]
 [  0.3        -58.54144931]
 [  0.4         49.04087255]
 [  0.5        -72.76699617]
 [  0.6         68.67659858]
 [  0.7         -5.36671532]
 [  0.8        -23.75884682]
 [  0.9         13.28179405]
 [  1.         -83.28350747]
 [  1.1        -48.16746349]
 [  1.14141667 -41.26290456]]","[[0.         1.51183911]
 [0.1        1.47760971]
 [0.2        0.71617893]
 [0.3        1.42177569]
 [0.4        1.82178252]
 [0.5        1.89638194]
 [0.6        1.23818799]
 [0.7        1.42903819]
 [0.8        1.21070139]
 [0.9        0.77635249]
 [1.         1.90244772]
 [1.1        0.64536469]
 [1.14141667 0.1097674 ]]",0,0.313
8749218289,f,19,french,4,5,french,2024-01-25 10:40:30.095649,False,2,329,sounds\french\audio/french_619.wav,"[[  0.          37.43834517]
 [  0.1         19.08585466]
 [  0.2        -55.02113763]
 [  0.3         71.54314084]
 [  0.4        -65.77911802]
 [  0.5        -62.43541847]
 [  0.6        -37.71836926]
 [  0.7        -81.46973141]
 [  0.8        -48.66688444]
 [  0.9        -62.28645138]
 [  1.         -86.39361494]
 [  1.1         -0.89019508]
 [  1.14141667 -28.85036812]]","[[0.         0.27361377]
 [0.1        0.02727983]
 [0.2        1.5368766 ]
 [0.3        1.18403029]
 [0.4        1.92242857]
 [0.5        0.23418977]
 [0.6        1.08287507]
 [0.7        0.66039597]
 [0.8        1.24560316]
 [0.9        0.7202251 ]
 [1.         1.31835943]
 [1.1        1.07015468]
 [1.14141667 1.11609761]]",1,1.132
8749218289,f,19,french,4,5,french,2024-01-25 10:40:30.095649,False,2,330,sounds\french\audio/french_498.wav,"[[  0.         -74.21506938]
 [  0.1         45.43383025]
 [  0.2          1.12815535]
 [  0.3         43.90579244]
 [  0.4        -44.65185704]
 [  0.5        -30.05431109]
 [  0.6          3.76580736]
 [  0.7         14.97201551]
 [  0.8        -73.99463239]
 [  0.9         52.14411397]
 [  1.         -35.13239516]
 [  1.1        -15.67196842]
 [  1.14141667 -23.74164462]]","[[0.         1.57035706]
 [0.1        1.13989377]
 [0.2        1.20975959]
 [0.3        1.4621483 ]
 [0.4        1.80543681]
 [0.5        0.94375912]
 [0.6        0.61619731]
 [0.7        0.58171647]
 [0.8        0.30670665]
 [0.9        1.23149127]
 [1.         0.14479137]
 [1.1        0.69176192]
 [1.14141667 1.69964256]]",1,0.578
8749218289,f,19,french,4,5,french,2024-01-25 10:40:30.095649,False,2,331,sounds\french\audio/french_67.wav,"[[  0.          -8.80419895]
 [  0.1        -89.09971713]
 [  0.2         52.16664129]
 [  0.3         75.50765895]
 [  0.4        -50.4048012 ]
 [  0.5          2.92186318]
 [  0.6         -2.99274005]
 [  0.7        -60.68394197]
 [  0.8         84.35232492]
 [  0.9        -25.72248864]
 [  1.          11.86313501]
 [  1.1         19.03354401]
 [  1.14141667  81.65120736]]","[[0.         1.71520909]
 [0.1        1.65194622]
 [0.2        1.05692719]
 [0.3        0.39640522]
 [0.4        1.79941734]
 [0.5        1.20893726]
 [0.6        1.83305713]
 [0.7        0.33461142]
 [0.8        0.31328661]
 [0.9        0.81923703]
 [1.         0.47881167]
 [1.1        1.95724467]
 [1.14141667 0.25508289]]",0,0.153
8749218289,f,19,french,4,5,french,2024-01-25 10:40:30.095649,False,2,332,sounds\french\audio/french_809.wav,"[[  0.         -97.7648991 ]
 [  0.1        -16.18124336]
 [  0.2        -71.88539975]
 [  0.3        -75.84617329]
 [  0.4        -56.68697986]
 [  0.5         17.73104693]
 [  0.6         -2.03944779]
 [  0.7        -23.40421354]
 [  0.8         79.78220222]
 [  0.9         49.19641655]
 [  1.           6.2438068 ]
 [  1.1         -8.92121489]
 [  1.14141667  -7.95185914]]","[[0.         0.21825072]
 [0.1        0.34685571]
 [0.2        1.98263416]
 [0.3        0.64349693]
 [0.4        1.61870407]
 [0.5        0.29134017]
 [0.6        0.74693677]
 [0.7        1.6892509 ]
 [0.8        0.75730555]
 [0.9        1.52241905]
 [1.         0.50964644]
 [1.1        1.05106393]
 [1.14141667 0.92890258]]",1,0.292
8749218289,f,19,french,4,5,french,2024-01-25 10:40:30.095649,False,2,333,sounds\french\audio/french_65.wav,"[[  0.          90.25303481]
 [  0.1        -68.20435052]
 [  0.2        -29.40329428]
 [  0.3         46.42632137]
 [  0.4        -28.79951441]
 [  0.5        -14.64344063]
 [  0.6         55.39931543]
 [  0.7        -54.55605034]
 [  0.8         84.8250898 ]
 [  0.9         60.3117994 ]
 [  1.         -27.81288119]
 [  1.1         65.1988238 ]
 [  1.14141667  -4.75581652]]","[[0.         0.53945939]
 [0.1        0.42688683]
 [0.2        0.27290811]
 [0.3        1.55081286]
 [0.4        1.45770659]
 [0.5        1.99435488]
 [0.6        1.36766936]
 [0.7        1.57729108]
 [0.8        1.17309042]
 [0.9        0.17286677]
 [1.         1.4236834 ]
 [1.1        1.20315137]
 [1.14141667 1.51714563]]",0,0.422
8749218289,f,19,french,4,5,french,2024-01-25 10:40:30.095649,False,2,334,sounds\french\audio/french_320.wav,"[[  0.          29.0077802 ]
 [  0.1         57.10058807]
 [  0.2        -58.71455915]
 [  0.3          9.47208013]
 [  0.4         33.55679918]
 [  0.5         30.29342924]
 [  0.6         35.793456  ]
 [  0.7         48.27550343]
 [  0.8          2.54884744]
 [  0.9         11.92843599]
 [  1.         -58.08388318]
 [  1.1        -15.70500576]
 [  1.14141667   2.2106655 ]]","[[0.         1.65272351]
 [0.1        1.38707965]
 [0.2        0.9425519 ]
 [0.3        1.24337659]
 [0.4        0.6156105 ]
 [0.5        0.19227327]
 [0.6        1.76797578]
 [0.7        1.38419028]
 [0.8        0.97487745]
 [0.9        1.02395527]
 [1.         1.53932166]
 [1.1        1.67437481]
 [1.14141667 0.12258709]]",0,0.228
8749218289,f,19,french,4,5,french,2024-01-25 10:40:30.095649,False,2,335,sounds\french\audio/french_877.wav,"[[  0.          35.01358719]
 [  0.1         44.86740008]
 [  0.2        -79.59292407]
 [  0.3         -7.22750522]
 [  0.4         -2.5216875 ]
 [  0.5        -30.65077741]
 [  0.6         -4.86146078]
 [  0.7        -89.51285107]
 [  0.8        -40.02073069]
 [  0.9         96.12185009]
 [  1.          90.68588052]
 [  1.1         18.23570323]
 [  1.14141667 -87.75305818]]","[[0.         1.80553919]
 [0.1        1.10205229]
 [0.2        1.66583823]
 [0.3        0.82975553]
 [0.4        1.38376145]
 [0.5        0.89494766]
 [0.6        0.02389059]
 [0.7        1.19273137]
 [0.8        0.7956871 ]
 [0.9        1.13306   ]
 [1.         0.93972062]
 [1.1        0.41860884]
 [1.14141667 1.12017052]]",1,0.319
8749218289,f,19,french,4,5,french,2024-01-25 10:40:30.095649,False,2,336,sounds\french\audio/french_882.wav,"[[  0.         -81.86021221]
 [  0.1        -38.71029223]
 [  0.2        -87.95798325]
 [  0.3         64.64799839]
 [  0.4         46.25884824]
 [  0.5        -79.81084627]
 [  0.6         63.83558359]
 [  0.7         52.64588214]
 [  0.8         26.08689515]
 [  0.9        -62.73363803]
 [  1.          -4.49298081]
 [  1.1         30.81537457]
 [  1.14141667  66.97281878]]","[[0.         0.3759178 ]
 [0.1        0.35952644]
 [0.2        0.62161924]
 [0.3        1.70435044]
 [0.4        0.36582707]
 [0.5        1.39801288]
 [0.6        1.87495394]
 [0.7        1.93367686]
 [0.8        1.9588609 ]
 [0.9        0.95894244]
 [1.         0.61415959]
 [1.1        0.47891102]
 [1.14141667 0.6437554 ]]",1,0.38
8749218289,f,19,french,4,5,french,2024-01-25 10:40:30.095649,False,2,337,sounds\french\audio/french_309.wav,"[[  0.          88.86072846]
 [  0.1        -92.30784176]
 [  0.2         82.47612196]
 [  0.3         57.0914166 ]
 [  0.4         66.45676368]
 [  0.5         72.19100472]
 [  0.6         35.35255388]
 [  0.7        -77.76741336]
 [  0.8         54.34179283]
 [  0.9        -68.94607686]
 [  1.          31.97810202]
 [  1.1        -11.94966658]
 [  1.14141667  53.65953482]]","[[0.         0.49259138]
 [0.1        1.03565122]
 [0.2        1.68879094]
 [0.3        0.15996054]
 [0.4        0.58460838]
 [0.5        1.83489212]
 [0.6        0.91773079]
 [0.7        1.18228681]
 [0.8        1.82634316]
 [0.9        1.45479271]
 [1.         1.70391198]
 [1.1        1.08327525]
 [1.14141667 1.25779548]]",1,0.689
8749218289,f,19,french,4,5,french,2024-01-25 10:40:30.095649,False,2,338,sounds\french\audio/french_42.wav,"[[  0.         -33.44516667]
 [  0.1        -18.2362548 ]
 [  0.2         70.60331137]
 [  0.3         15.02229491]
 [  0.4         13.99889807]
 [  0.5          8.49741074]
 [  0.6        -62.69867685]
 [  0.7        -88.15009816]
 [  0.8        -56.36247825]
 [  0.9        -57.25753142]
 [  1.          79.34275566]
 [  1.1        -83.70982002]
 [  1.14141667  63.35287438]]","[[0.         1.55856446]
 [0.1        1.2097728 ]
 [0.2        0.78889557]
 [0.3        0.44641372]
 [0.4        0.084883  ]
 [0.5        0.91437331]
 [0.6        0.35744041]
 [0.7        1.68547632]
 [0.8        0.07992016]
 [0.9        0.30520065]
 [1.         1.86650183]
 [1.1        1.79164729]
 [1.14141667 0.80936933]]",0,0.273
8749218289,f,19,french,4,5,french,2024-01-25 10:40:30.095649,False,2,339,sounds\french\audio/french_564.wav,"[[  0.           5.8966443 ]
 [  0.1        -15.54380544]
 [  0.2         58.15561903]
 [  0.3        -16.52706825]
 [  0.4          2.31267316]
 [  0.5        -11.97797107]
 [  0.6          1.32687996]
 [  0.7        -19.4298846 ]
 [  0.8        -79.35094672]
 [  0.9         18.14155436]
 [  1.          28.79693358]
 [  1.1         84.00888802]
 [  1.14141667 -69.56382184]]","[[0.         0.94077473]
 [0.1        1.2475432 ]
 [0.2        0.38395722]
 [0.3        0.67240196]
 [0.4        1.16524636]
 [0.5        0.88127423]
 [0.6        0.97845097]
 [0.7        0.42689353]
 [0.8        1.99355282]
 [0.9        1.23446663]
 [1.         1.12515652]
 [1.1        0.49124917]
 [1.14141667 1.22864195]]",1,0.341
8749218289,f,19,french,4,5,french,2024-01-25 10:40:30.095649,False,2,340,sounds\french\audio/french_800.wav,"[[  0.          -4.25631197]
 [  0.1         22.66632576]
 [  0.2         10.28900554]
 [  0.3         38.91231447]
 [  0.4        -12.27796799]
 [  0.5        -44.30581187]
 [  0.6        -22.88012932]
 [  0.7        -52.86195267]
 [  0.8         54.71772215]
 [  0.9        -51.65672109]
 [  1.         -51.77252424]
 [  1.1          7.38633242]
 [  1.14141667  17.65920114]]","[[0.         0.80468249]
 [0.1        1.14959191]
 [0.2        1.74323515]
 [0.3        0.77183711]
 [0.4        1.35051127]
 [0.5        1.94130964]
 [0.6        1.17392808]
 [0.7        1.52994111]
 [0.8        1.58058267]
 [0.9        1.58832666]
 [1.         1.09850348]
 [1.1        0.30985734]
 [1.14141667 1.66023428]]",0,0.235
8749218289,f,19,french,4,5,french,2024-01-25 10:40:30.095649,False,2,341,sounds\french\audio/french_183.wav,"[[  0.          26.98397873]
 [  0.1        -55.24874641]
 [  0.2         18.20332103]
 [  0.3         67.42590675]
 [  0.4        -24.39664935]
 [  0.5         -9.29989097]
 [  0.6        -39.43705055]
 [  0.7         48.44121723]
 [  0.8         50.00257742]
 [  0.9        -30.20627693]
 [  1.           7.87797216]
 [  1.1        -90.64433498]
 [  1.14141667 -74.1714296 ]]","[[0.         1.58263986]
 [0.1        0.74614587]
 [0.2        0.26654037]
 [0.3        1.09442227]
 [0.4        0.715011  ]
 [0.5        1.90230489]
 [0.6        0.70435555]
 [0.7        1.50464071]
 [0.8        0.45887465]
 [0.9        0.97480257]
 [1.         0.50545389]
 [1.1        1.04759182]
 [1.14141667 0.84145253]]",0,0.678
8749218289,f,19,french,4,5,french,2024-01-25 10:40:30.095649,False,2,342,sounds\french\audio/french_270.wav,"[[  0.         -97.04983101]
 [  0.1         60.00565708]
 [  0.2         76.40876054]
 [  0.3         -1.09114821]
 [  0.4        -55.42967624]
 [  0.5         76.10190696]
 [  0.6        -14.49000559]
 [  0.7        -18.39436764]
 [  0.8          6.68432626]
 [  0.9         44.25222183]
 [  1.         -22.5745957 ]
 [  1.1         89.38743266]
 [  1.14141667  34.53807187]]","[[0.         1.00266553]
 [0.1        1.57824115]
 [0.2        0.26882086]
 [0.3        1.94280474]
 [0.4        0.12401985]
 [0.5        0.90937014]
 [0.6        1.06197606]
 [0.7        0.84568666]
 [0.8        1.76648668]
 [0.9        1.73433415]
 [1.         1.92314935]
 [1.1        1.47806691]
 [1.14141667 0.01067189]]",1,0.222
8749218289,f,19,french,4,5,french,2024-01-25 10:40:30.095649,False,2,343,sounds\french\audio/french_294.wav,"[[  0.          46.81190633]
 [  0.1        -55.55833329]
 [  0.2        -78.93236635]
 [  0.3         80.59595566]
 [  0.4         54.71021816]
 [  0.5        -35.95549528]
 [  0.6         90.04358931]
 [  0.7         48.97978382]
 [  0.8         85.35893159]
 [  0.9         37.71160702]
 [  1.         -84.35185751]
 [  1.1        -45.28301264]
 [  1.14141667  78.04325437]]","[[0.         0.85502539]
 [0.1        0.73187702]
 [0.2        1.40827844]
 [0.3        1.8594958 ]
 [0.4        1.03951107]
 [0.5        0.90602699]
 [0.6        0.40420579]
 [0.7        0.11158967]
 [0.8        1.1950669 ]
 [0.9        0.53171982]
 [1.         0.12056925]
 [1.1        1.01856401]
 [1.14141667 1.12267397]]",0,0.672
8749218289,f,19,french,4,5,french,2024-01-25 10:40:30.095649,False,2,344,sounds\french\audio/french_882.wav,"[[  0.         -81.86021221]
 [  0.1        -38.71029223]
 [  0.2        -87.95798325]
 [  0.3         64.64799839]
 [  0.4         46.25884824]
 [  0.5        -79.81084627]
 [  0.6         63.83558359]
 [  0.7         52.64588214]
 [  0.8         26.08689515]
 [  0.9        -62.73363803]
 [  1.          -4.49298081]
 [  1.1         30.81537457]
 [  1.14141667  66.97281878]]","[[0.         0.3759178 ]
 [0.1        0.35952644]
 [0.2        0.62161924]
 [0.3        1.70435044]
 [0.4        0.36582707]
 [0.5        1.39801288]
 [0.6        1.87495394]
 [0.7        1.93367686]
 [0.8        1.9588609 ]
 [0.9        0.95894244]
 [1.         0.61415959]
 [1.1        0.47891102]
 [1.14141667 0.6437554 ]]",1,0.653
8749218289,f,19,french,4,5,french,2024-01-25 10:40:30.095649,False,2,345,sounds\french\audio/french_494.wav,"[[  0.         -63.06404362]
 [  0.1         96.51347021]
 [  0.2         -2.42253065]
 [  0.3        -48.75339143]
 [  0.4        -24.81746908]
 [  0.5         48.2850129 ]
 [  0.6         54.45085632]
 [  0.7        -83.01359294]
 [  0.8        -84.59229686]
 [  0.9        -65.14189239]
 [  1.         -11.3391069 ]
 [  1.1         78.07442638]
 [  1.14141667 -31.23345007]]","[[0.         1.09976962]
 [0.1        1.87842448]
 [0.2        1.92383282]
 [0.3        1.77831814]
 [0.4        0.55991085]
 [0.5        1.16635493]
 [0.6        1.39460853]
 [0.7        1.30103041]
 [0.8        1.62563762]
 [0.9        0.22506805]
 [1.         0.45947007]
 [1.1        0.29396602]
 [1.14141667 0.46095403]]",1,0.773
8749218289,f,19,french,4,5,french,2024-01-25 10:40:30.095649,False,2,346,sounds\french\audio/french_5.wav,"[[  0.          67.84600602]
 [  0.1         36.11985477]
 [  0.2         27.42056963]
 [  0.3        -51.17670217]
 [  0.4        -40.37414298]
 [  0.5        -24.2536038 ]
 [  0.6        -18.35468105]
 [  0.7         -4.97614975]
 [  0.8         48.20606938]
 [  0.9         15.99502717]
 [  1.         -62.82085154]
 [  1.1         -6.95701983]
 [  1.14141667 -66.75848558]]","[[0.         1.17631247]
 [0.1        0.77880018]
 [0.2        1.26171942]
 [0.3        1.79238294]
 [0.4        0.78218598]
 [0.5        0.94203558]
 [0.6        1.40818336]
 [0.7        1.58219359]
 [0.8        0.2158889 ]
 [0.9        1.46917473]
 [1.         1.96668642]
 [1.1        0.54762735]
 [1.14141667 0.46814151]]",0,0.589
8749218289,f,19,french,4,5,french,2024-01-25 10:40:30.095649,False,2,347,sounds\french\audio/french_952.wav,"[[  0.         -16.04149759]
 [  0.1         46.67121849]
 [  0.2         -7.75723509]
 [  0.3         25.03407062]
 [  0.4         58.48775829]
 [  0.5         71.77333472]
 [  0.6         88.64449387]
 [  0.7        -10.04237369]
 [  0.8         53.30903822]
 [  0.9         77.56829483]
 [  1.          70.17417278]
 [  1.1        -41.2052464 ]
 [  1.14141667  70.81168009]]","[[0.         1.63363299]
 [0.1        0.65674372]
 [0.2        0.94426956]
 [0.3        0.96418077]
 [0.4        1.76592992]
 [0.5        1.79494342]
 [0.6        1.63409215]
 [0.7        1.58467162]
 [0.8        1.58753119]
 [0.9        0.34334886]
 [1.         0.58364948]
 [1.1        0.18580202]
 [1.14141667 1.37774726]]",0,0.737
8749218289,f,19,french,4,5,french,2024-01-25 10:40:30.095649,False,2,348,sounds\french\audio/french_111.wav,"[[  0.          14.77849199]
 [  0.1        -93.87823823]
 [  0.2         64.26417709]
 [  0.3        -22.82520637]
 [  0.4         98.98633094]
 [  0.5         61.91694484]
 [  0.6        -14.22171185]
 [  0.7         13.64889923]
 [  0.8         16.45015469]
 [  0.9         68.39985611]
 [  1.           9.08640089]
 [  1.1         -0.24488945]
 [  1.14141667 -45.33321106]]","[[0.         0.705567  ]
 [0.1        1.75025846]
 [0.2        0.64729838]
 [0.3        0.85969061]
 [0.4        0.27217842]
 [0.5        1.89781194]
 [0.6        0.81989365]
 [0.7        1.01021301]
 [0.8        0.3816251 ]
 [0.9        1.4301898 ]
 [1.         1.68654452]
 [1.1        0.43604245]
 [1.14141667 1.24858314]]",1,3.207
8749218289,f,19,french,4,5,french,2024-01-25 10:40:30.095649,False,2,349,sounds\french\audio/french_321.wav,"[[  0.         -17.43290113]
 [  0.1        -75.13063007]
 [  0.2         21.04236254]
 [  0.3         72.8638134 ]
 [  0.4        -64.71622609]
 [  0.5         38.46531761]
 [  0.6         16.71176919]
 [  0.7        -79.68428787]
 [  0.8        -11.06096096]
 [  0.9         92.10217905]
 [  1.         -37.60449635]
 [  1.1        -59.94541406]
 [  1.14141667  51.49701243]]","[[0.         1.16678301]
 [0.1        0.91554507]
 [0.2        0.06135462]
 [0.3        1.76394003]
 [0.4        0.62597265]
 [0.5        1.09057474]
 [0.6        1.39570294]
 [0.7        1.76893105]
 [0.8        1.4722675 ]
 [0.9        0.23544571]
 [1.         1.24526823]
 [1.1        1.52804518]
 [1.14141667 1.57997297]]",1,0.955
8749218289,f,19,french,4,5,french,2024-01-25 10:40:30.095649,False,2,350,sounds\french\audio/french_805.wav,"[[  0.         -44.55735502]
 [  0.1        -15.81782327]
 [  0.2        -60.55488751]
 [  0.3        -22.03480197]
 [  0.4        -82.42416276]
 [  0.5         26.6793054 ]
 [  0.6        -90.86223061]
 [  0.7        -32.61383863]
 [  0.8        -25.8862389 ]
 [  0.9        -83.72221214]
 [  1.           9.78399033]
 [  1.1        -75.28148503]
 [  1.14141667 -45.84381211]]","[[0.         0.30537306]
 [0.1        0.95683225]
 [0.2        1.47185568]
 [0.3        0.27583044]
 [0.4        1.40306371]
 [0.5        0.29904003]
 [0.6        0.10571209]
 [0.7        1.80090028]
 [0.8        1.4046027 ]
 [0.9        1.0925065 ]
 [1.         0.78385676]
 [1.1        0.24940616]
 [1.14141667 0.58218615]]",0,0.372
8749218289,f,19,french,4,5,french,2024-01-25 10:40:30.095649,False,2,351,sounds\french\audio/french_337.wav,"[[  0.         -54.36724897]
 [  0.1         47.20909077]
 [  0.2        -38.31746159]
 [  0.3        -61.13963937]
 [  0.4         13.36429747]
 [  0.5         11.60122819]
 [  0.6        -37.13411098]
 [  0.7         16.0551706 ]
 [  0.8        -76.84632417]
 [  0.9          7.55549957]
 [  1.          -1.43284295]
 [  1.1         70.59581093]
 [  1.14141667 -22.88982384]]","[[0.         1.61515364]
 [0.1        1.4185112 ]
 [0.2        0.32887669]
 [0.3        0.02610503]
 [0.4        0.46832004]
 [0.5        0.11209332]
 [0.6        1.89414481]
 [0.7        0.78679118]
 [0.8        0.16086144]
 [0.9        1.28761221]
 [1.         0.94282924]
 [1.1        0.25063138]
 [1.14141667 0.65987502]]",0,0.275
8749218289,f,19,french,4,5,french,2024-01-25 10:40:30.095649,False,2,352,sounds\french\audio/french_837.wav,"[[  0.          34.6621091 ]
 [  0.1        -53.39181475]
 [  0.2         38.65137653]
 [  0.3         -5.64857337]
 [  0.4          5.32229156]
 [  0.5        -93.06741103]
 [  0.6         39.95935059]
 [  0.7        -37.33008752]
 [  0.8         -7.80767782]
 [  0.9        -15.11794558]
 [  1.         -80.90661013]
 [  1.1        -34.66147377]
 [  1.14141667   1.95643496]]","[[0.         1.45663482]
 [0.1        0.54858462]
 [0.2        0.77512748]
 [0.3        0.90306389]
 [0.4        0.08877691]
 [0.5        1.40271651]
 [0.6        0.88374871]
 [0.7        0.79171605]
 [0.8        0.91621494]
 [0.9        0.25418764]
 [1.         0.01558732]
 [1.1        0.82338679]
 [1.14141667 1.44444872]]",0,0.471
8749218289,f,19,french,4,5,french,2024-01-25 10:40:30.095649,False,2,353,sounds\french\audio/french_70.wav,"[[  0.          68.41479291]
 [  0.1        -31.57074258]
 [  0.2         54.18509107]
 [  0.3        -27.61159617]
 [  0.4          9.88541267]
 [  0.5        -66.17038178]
 [  0.6         16.79110143]
 [  0.7        -71.29172846]
 [  0.8        -78.6433042 ]
 [  0.9         65.673143  ]
 [  1.         -39.65305515]
 [  1.1         60.42476441]
 [  1.14141667  30.88064967]]","[[0.         0.92661768]
 [0.1        1.34654012]
 [0.2        1.48916953]
 [0.3        1.1176716 ]
 [0.4        0.7045852 ]
 [0.5        1.36995745]
 [0.6        1.75041761]
 [0.7        1.65540967]
 [0.8        0.08362863]
 [0.9        1.74250385]
 [1.         1.28772167]
 [1.1        1.44177421]
 [1.14141667 0.77305231]]",1,0.175
8749218289,f,19,french,4,5,french,2024-01-25 10:40:30.095649,False,2,354,sounds\french\audio/french_325.wav,"[[  0.         -33.01798488]
 [  0.1        -57.75408991]
 [  0.2          9.72119817]
 [  0.3        -94.23259059]
 [  0.4        -74.75409549]
 [  0.5        -37.40294442]
 [  0.6        -53.45534346]
 [  0.7        -51.83136357]
 [  0.8         25.19041356]
 [  0.9         -8.8113376 ]
 [  1.         -26.55450811]
 [  1.1        -53.37083402]
 [  1.14141667  85.80939648]]","[[0.         0.50600745]
 [0.1        0.27831477]
 [0.2        1.8163001 ]
 [0.3        0.69374934]
 [0.4        0.94399778]
 [0.5        0.497515  ]
 [0.6        1.68859293]
 [0.7        0.3557352 ]
 [0.8        1.56729083]
 [0.9        1.34955394]
 [1.         0.71664369]
 [1.1        0.20609589]
 [1.14141667 1.35438134]]",1,0.268
8749218289,f,19,french,4,5,french,2024-01-25 10:40:30.095649,False,2,355,sounds\french\audio/french_18.wav,"[[  0.          93.52743688]
 [  0.1         75.80838578]
 [  0.2         -9.29580861]
 [  0.3        -14.85608386]
 [  0.4         47.7084462 ]
 [  0.5        -86.34780257]
 [  0.6         56.10837569]
 [  0.7        -52.07621897]
 [  0.8         35.05417357]
 [  0.9         46.67766368]
 [  1.         -74.34797605]
 [  1.1        -14.43524118]
 [  1.14141667  27.72939281]]","[[0.         0.76387958]
 [0.1        1.75297182]
 [0.2        0.15580834]
 [0.3        1.56760651]
 [0.4        0.03729265]
 [0.5        1.22925424]
 [0.6        0.55659065]
 [0.7        1.75613793]
 [0.8        0.81523904]
 [0.9        0.36189217]
 [1.         1.53764015]
 [1.1        1.56618903]
 [1.14141667 1.06338948]]",0,0.427
8749218289,f,19,french,4,5,french,2024-01-25 10:40:30.095649,False,2,356,sounds\french\audio/french_167.wav,"[[  0.          67.37441669]
 [  0.1         69.70827651]
 [  0.2         49.7198351 ]
 [  0.3         36.67968206]
 [  0.4        -47.79492006]
 [  0.5        -29.74098428]
 [  0.6        -47.95963057]
 [  0.7         75.79544294]
 [  0.8         14.48235506]
 [  0.9         15.77152332]
 [  1.         -40.25391992]
 [  1.1        -54.85246088]
 [  1.14141667 -75.95368518]]","[[0.         0.86747482]
 [0.1        0.63450919]
 [0.2        1.21543223]
 [0.3        1.05473401]
 [0.4        0.08529401]
 [0.5        1.27324493]
 [0.6        1.42038522]
 [0.7        1.13517299]
 [0.8        1.62550771]
 [0.9        0.2462689 ]
 [1.         0.39322883]
 [1.1        1.05332498]
 [1.14141667 1.73203193]]",0,0.552
8749218289,f,19,french,4,5,french,2024-01-25 10:40:30.095649,False,2,357,sounds\french\audio/french_314.wav,"[[  0.          98.47852425]
 [  0.1         -4.76765087]
 [  0.2         98.99563551]
 [  0.3        -26.02974157]
 [  0.4          3.57072729]
 [  0.5        -27.39105802]
 [  0.6        -34.46329074]
 [  0.7        -19.61563284]
 [  0.8         86.50042899]
 [  0.9        -30.62380752]
 [  1.          68.66999994]
 [  1.1         18.64968658]
 [  1.14141667  83.99037415]]","[[0.         0.84050002]
 [0.1        1.9178096 ]
 [0.2        1.48544664]
 [0.3        0.28338038]
 [0.4        1.67118839]
 [0.5        0.9666753 ]
 [0.6        0.67276738]
 [0.7        1.19975177]
 [0.8        0.06283499]
 [0.9        0.69763895]
 [1.         1.73674877]
 [1.1        1.35552755]
 [1.14141667 1.19565214]]",0,0.428
8749218289,f,19,french,4,5,french,2024-01-25 10:40:30.095649,False,2,358,sounds\french\audio/french_182.wav,"[[  0.          -1.80719852]
 [  0.1        -86.38296603]
 [  0.2         77.81601349]
 [  0.3        -40.76981119]
 [  0.4         96.11612161]
 [  0.5         56.13496865]
 [  0.6        -15.01612677]
 [  0.7        -25.89223892]
 [  0.8         46.38706832]
 [  0.9         22.16189173]
 [  1.         -49.34607592]
 [  1.1         16.67528468]
 [  1.14141667  51.37064107]]","[[0.         0.94118243]
 [0.1        1.59521765]
 [0.2        0.24326289]
 [0.3        0.0251898 ]
 [0.4        0.07916052]
 [0.5        0.19795199]
 [0.6        0.82804974]
 [0.7        1.07596575]
 [0.8        1.00514745]
 [0.9        1.48875396]
 [1.         0.94795205]
 [1.1        1.37410424]
 [1.14141667 0.38252784]]",1,0.565
8749218289,f,19,french,4,5,french,2024-01-25 10:40:30.095649,False,2,359,sounds\french\audio/french_320.wav,"[[  0.          29.0077802 ]
 [  0.1         57.10058807]
 [  0.2        -58.71455915]
 [  0.3          9.47208013]
 [  0.4         33.55679918]
 [  0.5         30.29342924]
 [  0.6         35.793456  ]
 [  0.7         48.27550343]
 [  0.8          2.54884744]
 [  0.9         11.92843599]
 [  1.         -58.08388318]
 [  1.1        -15.70500576]
 [  1.14141667   2.2106655 ]]","[[0.         1.65272351]
 [0.1        1.38707965]
 [0.2        0.9425519 ]
 [0.3        1.24337659]
 [0.4        0.6156105 ]
 [0.5        0.19227327]
 [0.6        1.76797578]
 [0.7        1.38419028]
 [0.8        0.97487745]
 [0.9        1.02395527]
 [1.         1.53932166]
 [1.1        1.67437481]
 [1.14141667 0.12258709]]",1,0.708
8749218289,f,19,french,4,5,french,2024-01-25 10:40:30.095649,False,2,360,sounds\french\audio/french_933.wav,"[[  0.         -37.43352781]
 [  0.1         15.82558876]
 [  0.2         11.44233804]
 [  0.3         86.94047545]
 [  0.4         37.92501629]
 [  0.5        -35.56187113]
 [  0.6         59.84524001]
 [  0.7         24.35368068]
 [  0.8         67.82444353]
 [  0.9        -52.71000344]
 [  1.         -54.70339119]
 [  1.1        -41.48635512]
 [  1.14141667  11.82766033]]","[[0.         0.98661175]
 [0.1        1.72794901]
 [0.2        1.10536982]
 [0.3        1.85590912]
 [0.4        1.60290293]
 [0.5        0.81732851]
 [0.6        1.28262622]
 [0.7        1.01556076]
 [0.8        0.86505333]
 [0.9        1.28433396]
 [1.         0.40007403]
 [1.1        0.04539202]
 [1.14141667 0.17405222]]",0,0.391
8749218289,f,19,french,4,5,french,2024-01-25 10:40:30.095649,False,2,361,sounds\french\audio/french_316.wav,"[[  0.         -12.35150473]
 [  0.1        -57.71955323]
 [  0.2        -23.70518109]
 [  0.3        -30.25273583]
 [  0.4         -1.94999705]
 [  0.5         31.73989536]
 [  0.6        -85.31776934]
 [  0.7         10.96594736]
 [  0.8        -63.85009412]
 [  0.9        -24.55332766]
 [  1.          11.20080051]
 [  1.1         59.4445927 ]
 [  1.14141667  51.5786605 ]]","[[0.         1.31203929]
 [0.1        1.95651638]
 [0.2        0.28891018]
 [0.3        0.36356292]
 [0.4        0.0390578 ]
 [0.5        1.33065027]
 [0.6        1.4200316 ]
 [0.7        0.11141775]
 [0.8        1.65984218]
 [0.9        0.45014395]
 [1.         0.76494991]
 [1.1        1.39303247]
 [1.14141667 1.44009832]]",0,0.473
8749218289,f,19,french,4,5,french,2024-01-25 10:40:30.095649,False,2,362,sounds\french\audio/french_237.wav,"[[  0.          31.70987786]
 [  0.1         44.65820907]
 [  0.2         13.3186434 ]
 [  0.3         66.1783484 ]
 [  0.4          9.82166226]
 [  0.5        -28.83229096]
 [  0.6         76.24548925]
 [  0.7         34.63949689]
 [  0.8        -48.33331205]
 [  0.9         50.34000449]
 [  1.          49.76225002]
 [  1.1         67.38211301]
 [  1.14141667  80.88052333]]","[[0.         1.31590513]
 [0.1        0.84112054]
 [0.2        0.69527524]
 [0.3        1.26135679]
 [0.4        1.98640285]
 [0.5        0.12218975]
 [0.6        0.73409952]
 [0.7        1.11406015]
 [0.8        1.16947058]
 [0.9        0.6556194 ]
 [1.         1.40941557]
 [1.1        0.44515823]
 [1.14141667 0.0317855 ]]",0,0.315
8749218289,f,19,french,4,5,french,2024-01-25 10:40:30.095649,False,2,363,sounds\french\audio/french_554.wav,"[[  0.         -63.33551975]
 [  0.1        -76.57986439]
 [  0.2        -22.17813556]
 [  0.3        -68.90025731]
 [  0.4        -20.79960873]
 [  0.5         79.3432264 ]
 [  0.6         28.49124228]
 [  0.7        -51.7988221 ]
 [  0.8         14.88226082]
 [  0.9         47.41470029]
 [  1.         -31.15234452]
 [  1.1         50.45092822]
 [  1.14141667  -4.11874255]]","[[0.         1.80292439]
 [0.1        1.19257657]
 [0.2        1.70801265]
 [0.3        0.22316488]
 [0.4        1.5813195 ]
 [0.5        0.09042066]
 [0.6        1.08370357]
 [0.7        1.08104   ]
 [0.8        0.69564773]
 [0.9        1.14902191]
 [1.         1.78078558]
 [1.1        0.72980641]
 [1.14141667 0.82846414]]",1,0.499
8749218289,f,19,french,4,5,french,2024-01-25 10:40:30.095649,False,2,364,sounds\french\audio/french_532.wav,"[[  0.          85.83623854]
 [  0.1         84.10541783]
 [  0.2         26.42202154]
 [  0.3         79.07795266]
 [  0.4        -79.74270865]
 [  0.5         95.386086  ]
 [  0.6         72.0692702 ]
 [  0.7         -9.08909472]
 [  0.8         -4.90273931]
 [  0.9          5.30793597]
 [  1.         -72.96309884]
 [  1.1        -95.33528515]
 [  1.14141667 -74.8568227 ]]","[[0.         1.76274874]
 [0.1        0.70179858]
 [0.2        1.88377086]
 [0.3        0.03665049]
 [0.4        0.9425884 ]
 [0.5        1.22571827]
 [0.6        0.12096615]
 [0.7        0.73907677]
 [0.8        1.49339614]
 [0.9        0.96320852]
 [1.         1.02982353]
 [1.1        1.03939041]
 [1.14141667 1.59124295]]",1,0.496
8749218289,f,19,french,4,5,french,2024-01-25 10:40:30.095649,False,2,365,sounds\french\audio/french_664.wav,"[[  0.         -91.74200012]
 [  0.1         67.3163071 ]
 [  0.2        -14.92110663]
 [  0.3        -15.00532605]
 [  0.4        -71.83608899]
 [  0.5         60.19723794]
 [  0.6        -88.50711363]
 [  0.7         29.2172503 ]
 [  0.8         46.83116703]
 [  0.9        -16.00706746]
 [  1.           0.77059242]
 [  1.1        -11.58487906]
 [  1.14141667 -15.46228134]]","[[0.         1.5436769 ]
 [0.1        1.28396624]
 [0.2        0.86320374]
 [0.3        1.18530683]
 [0.4        0.7104349 ]
 [0.5        0.80286179]
 [0.6        0.79382779]
 [0.7        0.16919782]
 [0.8        1.5381824 ]
 [0.9        1.94367969]
 [1.         1.56397286]
 [1.1        0.83434339]
 [1.14141667 1.77198089]]",1,0.788
8749218289,f,19,french,4,5,french,2024-01-25 10:40:30.095649,False,2,366,sounds\french\audio/french_601.wav,"[[  0.         -60.16261887]
 [  0.1         58.32501749]
 [  0.2        -44.78853843]
 [  0.3        -17.24266457]
 [  0.4        -78.33579563]
 [  0.5         79.97866624]
 [  0.6        -20.55581515]
 [  0.7         43.78837108]
 [  0.8        -73.15029891]
 [  0.9         90.05348961]
 [  1.          37.64890544]
 [  1.1         22.47191591]
 [  1.14141667  73.82058256]]","[[0.         1.95619765]
 [0.1        1.42765137]
 [0.2        0.44130142]
 [0.3        1.17849708]
 [0.4        0.56027503]
 [0.5        1.3872376 ]
 [0.6        0.54116968]
 [0.7        0.9642546 ]
 [0.8        1.93227631]
 [0.9        1.38785467]
 [1.         0.37718019]
 [1.1        0.7210926 ]
 [1.14141667 0.61108632]]",0,0.577
8749218289,f,19,french,4,5,french,2024-01-25 10:40:30.095649,False,2,367,sounds\french\audio/french_886.wav,"[[  0.          -3.07847079]
 [  0.1         22.70145426]
 [  0.2         32.76367051]
 [  0.3        -31.71032565]
 [  0.4        -28.18750434]
 [  0.5        -18.1748931 ]
 [  0.6        -27.03025386]
 [  0.7         12.34522068]
 [  0.8         20.95996339]
 [  0.9         17.46922546]
 [  1.         -31.18262411]
 [  1.1         16.14877288]
 [  1.14141667 -36.04372934]]","[[0.         0.23703277]
 [0.1        1.62366196]
 [0.2        0.51146608]
 [0.3        0.96426713]
 [0.4        0.43793295]
 [0.5        1.33868978]
 [0.6        0.31800764]
 [0.7        1.44789936]
 [0.8        1.67391832]
 [0.9        1.19275698]
 [1.         0.34476604]
 [1.1        1.95768513]
 [1.14141667 1.10523987]]",1,0.494
8749218289,f,19,french,4,5,french,2024-01-25 10:40:30.095649,False,2,368,sounds\french\audio/french_821.wav,"[[  0.          29.40484442]
 [  0.1        -82.9706924 ]
 [  0.2        -20.36055848]
 [  0.3         70.67916019]
 [  0.4         97.39088207]
 [  0.5        -30.70591252]
 [  0.6         -3.37730477]
 [  0.7         -0.47603145]
 [  0.8        -91.88596282]
 [  0.9         98.16537349]
 [  1.         -18.87996809]
 [  1.1        -47.32913681]
 [  1.14141667 -49.13726548]]","[[0.         0.95426299]
 [0.1        1.5819304 ]
 [0.2        0.87869467]
 [0.3        1.08099797]
 [0.4        0.67073914]
 [0.5        0.41474844]
 [0.6        1.79777915]
 [0.7        0.30685212]
 [0.8        1.93131035]
 [0.9        0.96154714]
 [1.         1.35337515]
 [1.1        1.56630163]
 [1.14141667 0.77030274]]",1,0.563
8749218289,f,19,french,4,5,french,2024-01-25 10:40:30.095649,False,2,369,sounds\french\audio/french_337.wav,"[[  0.         -54.36724897]
 [  0.1         47.20909077]
 [  0.2        -38.31746159]
 [  0.3        -61.13963937]
 [  0.4         13.36429747]
 [  0.5         11.60122819]
 [  0.6        -37.13411098]
 [  0.7         16.0551706 ]
 [  0.8        -76.84632417]
 [  0.9          7.55549957]
 [  1.          -1.43284295]
 [  1.1         70.59581093]
 [  1.14141667 -22.88982384]]","[[0.         1.61515364]
 [0.1        1.4185112 ]
 [0.2        0.32887669]
 [0.3        0.02610503]
 [0.4        0.46832004]
 [0.5        0.11209332]
 [0.6        1.89414481]
 [0.7        0.78679118]
 [0.8        0.16086144]
 [0.9        1.28761221]
 [1.         0.94282924]
 [1.1        0.25063138]
 [1.14141667 0.65987502]]",0,1.727
8749218289,f,19,french,4,5,french,2024-01-25 10:40:30.095649,False,2,370,sounds\french\audio/french_815.wav,"[[  0.          43.47811109]
 [  0.1        -39.69317674]
 [  0.2         70.70027906]
 [  0.3         -4.04220679]
 [  0.4         77.25732101]
 [  0.5        -48.82932979]
 [  0.6         14.54543285]
 [  0.7         23.58613037]
 [  0.8         11.08048431]
 [  0.9         11.05185943]
 [  1.          49.96011954]
 [  1.1        -42.44433744]
 [  1.14141667 -96.60163856]]","[[0.         1.27638717]
 [0.1        1.25031866]
 [0.2        0.78335521]
 [0.3        1.7307952 ]
 [0.4        1.69406415]
 [0.5        1.17209267]
 [0.6        1.23520838]
 [0.7        0.19395841]
 [0.8        1.25730834]
 [0.9        1.56641554]
 [1.         0.33329842]
 [1.1        1.48663226]
 [1.14141667 0.56490633]]",0,0.475
8749218289,f,19,french,4,5,french,2024-01-25 10:40:30.095649,False,2,371,sounds\french\audio/french_220.wav,"[[  0.         -47.86203104]
 [  0.1         -2.12019525]
 [  0.2         11.33443683]
 [  0.3         26.73426002]
 [  0.4        -20.00864526]
 [  0.5         66.4142843 ]
 [  0.6        -25.00808868]
 [  0.7        -40.0848978 ]
 [  0.8         72.97244598]
 [  0.9         77.81836091]
 [  1.          14.03709177]
 [  1.1         33.22448401]
 [  1.14141667   8.56507439]]","[[0.         0.17649175]
 [0.1        0.55844568]
 [0.2        0.51968643]
 [0.3        0.91323903]
 [0.4        1.83941424]
 [0.5        1.66792491]
 [0.6        1.72207121]
 [0.7        0.69900455]
 [0.8        1.89129623]
 [0.9        1.89462756]
 [1.         1.13767499]
 [1.1        0.48678829]
 [1.14141667 1.85900383]]",0,0.801
8749218289,f,19,french,4,5,french,2024-01-25 10:40:30.095649,False,2,372,sounds\french\audio/french_155.wav,"[[  0.         -92.78133148]
 [  0.1         20.93258494]
 [  0.2        -47.18952132]
 [  0.3         87.6623856 ]
 [  0.4         53.55190164]
 [  0.5         73.72044222]
 [  0.6         13.17734525]
 [  0.7         33.07505579]
 [  0.8         11.21533307]
 [  0.9        -11.15187706]
 [  1.          62.83057895]
 [  1.1          5.84907356]
 [  1.14141667 -41.38043494]]","[[0.         0.96654008]
 [0.1        1.69709924]
 [0.2        1.53182227]
 [0.3        0.2401229 ]
 [0.4        0.46921424]
 [0.5        1.76971401]
 [0.6        0.8491776 ]
 [0.7        1.18179357]
 [0.8        0.90499885]
 [0.9        0.79006401]
 [1.         1.00554233]
 [1.1        1.3461564 ]
 [1.14141667 0.10111809]]",1,0.305
8749218289,f,19,french,4,5,french,2024-01-25 10:40:30.095649,False,2,373,sounds\french\audio/french_503.wav,"[[  0.          89.71427056]
 [  0.1        -70.51005578]
 [  0.2         75.84374713]
 [  0.3        -65.96801952]
 [  0.4        -99.12862023]
 [  0.5         42.18807517]
 [  0.6         25.95406096]
 [  0.7        -40.09314125]
 [  0.8         44.47277883]
 [  0.9         16.62214307]
 [  1.          77.66452295]
 [  1.1        -63.87625715]
 [  1.14141667 -12.54613401]]","[[0.         1.01776628]
 [0.1        1.96713819]
 [0.2        1.27326549]
 [0.3        1.01915637]
 [0.4        1.08509297]
 [0.5        1.85501182]
 [0.6        1.3585005 ]
 [0.7        0.2752787 ]
 [0.8        0.00986065]
 [0.9        1.75352346]
 [1.         0.69056339]
 [1.1        1.66617346]
 [1.14141667 1.22968396]]",0,0.434
