subj,trial,block,date,stim,stim_order,response,rt,age,english,french,language,sex,param_index,segment,pitch,stretch
5a297877edcbca00015f351f,0,0,2024-02-24T08:11:28.849Z,english_541.wav,0,peel,4755,25,5,3,English,m,0,0.0,-20.13323906,0.51383156
5a297877edcbca00015f351f,0,0,2024-02-24T08:11:28.849Z,english_541.wav,0,peel,4755,25,5,3,English,m,1,0.1,2.48768759,0.65082056
5a297877edcbca00015f351f,0,0,2024-02-24T08:11:28.849Z,english_541.wav,0,peel,4755,25,5,3,English,m,2,0.2,-86.20966861,0.48716137
5a297877edcbca00015f351f,0,0,2024-02-24T08:11:28.849Z,english_541.wav,0,peel,4755,25,5,3,English,m,3,0.3,59.01445297,0.54905673
5a297877edcbca00015f351f,0,0,2024-02-24T08:11:28.849Z,english_541.wav,0,peel,4755,25,5,3,English,m,4,0.32341667,61.23853539,1.76268899
5a297877edcbca00015f351f,1,0,2024-02-24T08:11:28.849Z,english_474.wav,0,peel,3343,25,5,3,English,m,0,0.0,42.88606971,0.87351765
5a297877edcbca00015f351f,1,0,2024-02-24T08:11:28.849Z,english_474.wav,0,peel,3343,25,5,3,English,m,1,0.1,6.82691085,1.08551449
5a297877edcbca00015f351f,1,0,2024-02-24T08:11:28.849Z,english_474.wav,0,peel,3343,25,5,3,English,m,2,0.2,-33.80031927,1.99847166
5a297877edcbca00015f351f,1,0,2024-02-24T08:11:28.849Z,english_474.wav,0,peel,3343,25,5,3,English,m,3,0.3,-97.18672796,0.27470298
5a297877edcbca00015f351f,1,0,2024-02-24T08:11:28.849Z,english_474.wav,0,peel,3343,25,5,3,English,m,4,0.32341667,-4.7462475,0.02962094
5a297877edcbca00015f351f,2,0,2024-02-24T08:11:28.849Z,english_321.wav,0,pill,2975,25,5,3,English,m,0,0.0,2.07721816,1.69623759
5a297877edcbca00015f351f,2,0,2024-02-24T08:11:28.849Z,english_321.wav,0,pill,2975,25,5,3,English,m,1,0.1,59.48735819,1.35736687
5a297877edcbca00015f351f,2,0,2024-02-24T08:11:28.849Z,english_321.wav,0,pill,2975,25,5,3,English,m,2,0.2,64.78149714,1.92920457
5a297877edcbca00015f351f,2,0,2024-02-24T08:11:28.849Z,english_321.wav,0,pill,2975,25,5,3,English,m,3,0.3,65.58393414,0.66559077
5a297877edcbca00015f351f,2,0,2024-02-24T08:11:28.849Z,english_321.wav,0,pill,2975,25,5,3,English,m,4,0.32341667,14.66673939,1.66523208
5a297877edcbca00015f351f,3,0,2024-02-24T08:11:28.849Z,english_52.wav,0,pill,628,25,5,3,English,m,0,0.0,54.63859099,0.91426261
5a297877edcbca00015f351f,3,0,2024-02-24T08:11:28.849Z,english_52.wav,0,pill,628,25,5,3,English,m,1,0.1,-85.67195477,1.20728413
5a297877edcbca00015f351f,3,0,2024-02-24T08:11:28.849Z,english_52.wav,0,pill,628,25,5,3,English,m,2,0.2,2.4878885,0.71733995
5a297877edcbca00015f351f,3,0,2024-02-24T08:11:28.849Z,english_52.wav,0,pill,628,25,5,3,English,m,3,0.3,86.13143505,1.54149443
5a297877edcbca00015f351f,3,0,2024-02-24T08:11:28.849Z,english_52.wav,0,pill,628,25,5,3,English,m,4,0.32341667,-53.30399902,1.3376245
5a297877edcbca00015f351f,4,0,2024-02-24T08:11:28.849Z,english_179.wav,0,pill,591,25,5,3,English,m,0,0.0,76.93131114,0.23318107
5a297877edcbca00015f351f,4,0,2024-02-24T08:11:28.849Z,english_179.wav,0,pill,591,25,5,3,English,m,1,0.1,5.5150778,0.47080089
5a297877edcbca00015f351f,4,0,2024-02-24T08:11:28.849Z,english_179.wav,0,pill,591,25,5,3,English,m,2,0.2,3.89208722,1.31062884
5a297877edcbca00015f351f,4,0,2024-02-24T08:11:28.849Z,english_179.wav,0,pill,591,25,5,3,English,m,3,0.3,-8.47825544,0.27743795
5a297877edcbca00015f351f,4,0,2024-02-24T08:11:28.849Z,english_179.wav,0,pill,591,25,5,3,English,m,4,0.32341667,50.73924617,0.83516241
5a297877edcbca00015f351f,5,0,2024-02-24T08:11:28.849Z,english_85.wav,0,peel,1300,25,5,3,English,m,0,0.0,69.91092253,1.07696769
5a297877edcbca00015f351f,5,0,2024-02-24T08:11:28.849Z,english_85.wav,0,peel,1300,25,5,3,English,m,1,0.1,90.04885235,1.65675227
5a297877edcbca00015f351f,5,0,2024-02-24T08:11:28.849Z,english_85.wav,0,peel,1300,25,5,3,English,m,2,0.2,-54.471964,1.18566865
5a297877edcbca00015f351f,5,0,2024-02-24T08:11:28.849Z,english_85.wav,0,peel,1300,25,5,3,English,m,3,0.3,-32.42862041,0.43131811
5a297877edcbca00015f351f,5,0,2024-02-24T08:11:28.849Z,english_85.wav,0,peel,1300,25,5,3,English,m,4,0.32341667,-26.25094384,1.88641509
5a297877edcbca00015f351f,6,0,2024-02-24T08:11:28.849Z,english_616.wav,0,peel,927,25,5,3,English,m,0,0.0,-71.12360497,0.83412473
5a297877edcbca00015f351f,6,0,2024-02-24T08:11:28.849Z,english_616.wav,0,peel,927,25,5,3,English,m,1,0.1,55.35355355,1.49185731
5a297877edcbca00015f351f,6,0,2024-02-24T08:11:28.849Z,english_616.wav,0,peel,927,25,5,3,English,m,2,0.2,-15.85026512,1.32170209
5a297877edcbca00015f351f,6,0,2024-02-24T08:11:28.849Z,english_616.wav,0,peel,927,25,5,3,English,m,3,0.3,-22.60587367,0.90458331
5a297877edcbca00015f351f,6,0,2024-02-24T08:11:28.849Z,english_616.wav,0,peel,927,25,5,3,English,m,4,0.32341667,-45.64131884,1.17134835
5a297877edcbca00015f351f,7,0,2024-02-24T08:11:28.849Z,english_212.wav,0,pill,763,25,5,3,English,m,0,0.0,-8.03708838,0.69940518
5a297877edcbca00015f351f,7,0,2024-02-24T08:11:28.849Z,english_212.wav,0,pill,763,25,5,3,English,m,1,0.1,72.60121642,1.0039509
5a297877edcbca00015f351f,7,0,2024-02-24T08:11:28.849Z,english_212.wav,0,pill,763,25,5,3,English,m,2,0.2,-98.76374397,1.17731185
5a297877edcbca00015f351f,7,0,2024-02-24T08:11:28.849Z,english_212.wav,0,pill,763,25,5,3,English,m,3,0.3,31.47742107,0.88066499
5a297877edcbca00015f351f,7,0,2024-02-24T08:11:28.849Z,english_212.wav,0,pill,763,25,5,3,English,m,4,0.32341667,53.59344022,0.33624016
5a297877edcbca00015f351f,8,0,2024-02-24T08:11:28.849Z,english_167.wav,0,pill,3738,25,5,3,English,m,0,0.0,57.26975159,0.44729063
5a297877edcbca00015f351f,8,0,2024-02-24T08:11:28.849Z,english_167.wav,0,pill,3738,25,5,3,English,m,1,0.1,54.31010869,1.623568
5a297877edcbca00015f351f,8,0,2024-02-24T08:11:28.849Z,english_167.wav,0,pill,3738,25,5,3,English,m,2,0.2,99.57020207,0.28743218
5a297877edcbca00015f351f,8,0,2024-02-24T08:11:28.849Z,english_167.wav,0,pill,3738,25,5,3,English,m,3,0.3,27.92735821,0.71837494
5a297877edcbca00015f351f,8,0,2024-02-24T08:11:28.849Z,english_167.wav,0,pill,3738,25,5,3,English,m,4,0.32341667,73.13424206,1.35815305
5a297877edcbca00015f351f,9,0,2024-02-24T08:11:28.849Z,english_989.wav,0,peel,2151,25,5,3,English,m,0,0.0,-51.1051603,1.00035195
5a297877edcbca00015f351f,9,0,2024-02-24T08:11:28.849Z,english_989.wav,0,peel,2151,25,5,3,English,m,1,0.1,-91.26717948,0.46124463
5a297877edcbca00015f351f,9,0,2024-02-24T08:11:28.849Z,english_989.wav,0,peel,2151,25,5,3,English,m,2,0.2,73.5145218,0.77735517
5a297877edcbca00015f351f,9,0,2024-02-24T08:11:28.849Z,english_989.wav,0,peel,2151,25,5,3,English,m,3,0.3,54.43703181,1.21549894
5a297877edcbca00015f351f,9,0,2024-02-24T08:11:28.849Z,english_989.wav,0,peel,2151,25,5,3,English,m,4,0.32341667,-36.95823638,0.33045291
5a297877edcbca00015f351f,10,0,2024-02-24T08:11:28.849Z,english_869.wav,0,peel,709,25,5,3,English,m,0,0.0,31.82870938,0.91730192
5a297877edcbca00015f351f,10,0,2024-02-24T08:11:28.849Z,english_869.wav,0,peel,709,25,5,3,English,m,1,0.1,55.69153841,1.54634356
5a297877edcbca00015f351f,10,0,2024-02-24T08:11:28.849Z,english_869.wav,0,peel,709,25,5,3,English,m,2,0.2,44.83997999,0.32401745
5a297877edcbca00015f351f,10,0,2024-02-24T08:11:28.849Z,english_869.wav,0,peel,709,25,5,3,English,m,3,0.3,-64.6596515,1.34292926
5a297877edcbca00015f351f,10,0,2024-02-24T08:11:28.849Z,english_869.wav,0,peel,709,25,5,3,English,m,4,0.32341667,-51.58434075,0.99771643
5a297877edcbca00015f351f,11,0,2024-02-24T08:11:28.849Z,english_619.wav,0,peel,1384,25,5,3,English,m,0,0.0,38.53351318,1.25542912
5a297877edcbca00015f351f,11,0,2024-02-24T08:11:28.849Z,english_619.wav,0,peel,1384,25,5,3,English,m,1,0.1,-11.21157995,0.83005785
5a297877edcbca00015f351f,11,0,2024-02-24T08:11:28.849Z,english_619.wav,0,peel,1384,25,5,3,English,m,2,0.2,29.79887689,1.51254928
5a297877edcbca00015f351f,11,0,2024-02-24T08:11:28.849Z,english_619.wav,0,peel,1384,25,5,3,English,m,3,0.3,48.6384615,0.37972577
5a297877edcbca00015f351f,11,0,2024-02-24T08:11:28.849Z,english_619.wav,0,peel,1384,25,5,3,English,m,4,0.32341667,-66.5905708,0.44889873
5a297877edcbca00015f351f,12,0,2024-02-24T08:11:28.849Z,english_884.wav,0,pill,1376,25,5,3,English,m,0,0.0,77.1498115,1.83268558
5a297877edcbca00015f351f,12,0,2024-02-24T08:11:28.849Z,english_884.wav,0,pill,1376,25,5,3,English,m,1,0.1,10.32602389,0.76817862
5a297877edcbca00015f351f,12,0,2024-02-24T08:11:28.849Z,english_884.wav,0,pill,1376,25,5,3,English,m,2,0.2,4.15464736,1.59331573
5a297877edcbca00015f351f,12,0,2024-02-24T08:11:28.849Z,english_884.wav,0,pill,1376,25,5,3,English,m,3,0.3,21.19252889,0.58913169
5a297877edcbca00015f351f,12,0,2024-02-24T08:11:28.849Z,english_884.wav,0,pill,1376,25,5,3,English,m,4,0.32341667,-7.11336122,0.81393531
5a297877edcbca00015f351f,13,0,2024-02-24T08:11:28.849Z,english_152.wav,0,pill,510,25,5,3,English,m,0,0.0,-21.97873044,1.75752799
5a297877edcbca00015f351f,13,0,2024-02-24T08:11:28.849Z,english_152.wav,0,pill,510,25,5,3,English,m,1,0.1,85.66675034,1.21467008
5a297877edcbca00015f351f,13,0,2024-02-24T08:11:28.849Z,english_152.wav,0,pill,510,25,5,3,English,m,2,0.2,-66.57447909,0.82299352
5a297877edcbca00015f351f,13,0,2024-02-24T08:11:28.849Z,english_152.wav,0,pill,510,25,5,3,English,m,3,0.3,-33.8772441,0.48869868
5a297877edcbca00015f351f,13,0,2024-02-24T08:11:28.849Z,english_152.wav,0,pill,510,25,5,3,English,m,4,0.32341667,-46.50239179,0.31705885
5a297877edcbca00015f351f,14,0,2024-02-24T08:11:28.849Z,english_425.wav,0,peel,1110,25,5,3,English,m,0,0.0,52.16022051,1.95369626
5a297877edcbca00015f351f,14,0,2024-02-24T08:11:28.849Z,english_425.wav,0,peel,1110,25,5,3,English,m,1,0.1,-4.0342476,0.01224448
5a297877edcbca00015f351f,14,0,2024-02-24T08:11:28.849Z,english_425.wav,0,peel,1110,25,5,3,English,m,2,0.2,71.82190917,1.45838463
5a297877edcbca00015f351f,14,0,2024-02-24T08:11:28.849Z,english_425.wav,0,peel,1110,25,5,3,English,m,3,0.3,77.8432037,1.1656734
5a297877edcbca00015f351f,14,0,2024-02-24T08:11:28.849Z,english_425.wav,0,peel,1110,25,5,3,English,m,4,0.32341667,29.14791909,1.54078916
5a297877edcbca00015f351f,15,0,2024-02-24T08:11:28.849Z,english_983.wav,0,pill,1126,25,5,3,English,m,0,0.0,32.38711768,0.79408654
5a297877edcbca00015f351f,15,0,2024-02-24T08:11:28.849Z,english_983.wav,0,pill,1126,25,5,3,English,m,1,0.1,-65.51600844,1.57845546
5a297877edcbca00015f351f,15,0,2024-02-24T08:11:28.849Z,english_983.wav,0,pill,1126,25,5,3,English,m,2,0.2,12.03576385,1.23356187
5a297877edcbca00015f351f,15,0,2024-02-24T08:11:28.849Z,english_983.wav,0,pill,1126,25,5,3,English,m,3,0.3,-64.14785636,0.65581831
5a297877edcbca00015f351f,15,0,2024-02-24T08:11:28.849Z,english_983.wav,0,pill,1126,25,5,3,English,m,4,0.32341667,-72.48499617,0.27936162
5a297877edcbca00015f351f,16,0,2024-02-24T08:11:28.849Z,english_35.wav,0,pill,1654,25,5,3,English,m,0,0.0,-35.14158545,0.855771
5a297877edcbca00015f351f,16,0,2024-02-24T08:11:28.849Z,english_35.wav,0,pill,1654,25,5,3,English,m,1,0.1,-54.49669119,0.5452371
5a297877edcbca00015f351f,16,0,2024-02-24T08:11:28.849Z,english_35.wav,0,pill,1654,25,5,3,English,m,2,0.2,37.91149238,1.65995376
5a297877edcbca00015f351f,16,0,2024-02-24T08:11:28.849Z,english_35.wav,0,pill,1654,25,5,3,English,m,3,0.3,-55.38086503,0.74505496
5a297877edcbca00015f351f,16,0,2024-02-24T08:11:28.849Z,english_35.wav,0,pill,1654,25,5,3,English,m,4,0.32341667,54.77667999,0.83530932
5a297877edcbca00015f351f,17,0,2024-02-24T08:11:28.849Z,english_172.wav,0,pill,2229,25,5,3,English,m,0,0.0,8.59493981,0.93080222
5a297877edcbca00015f351f,17,0,2024-02-24T08:11:28.849Z,english_172.wav,0,pill,2229,25,5,3,English,m,1,0.1,-56.34346079,0.53387901
5a297877edcbca00015f351f,17,0,2024-02-24T08:11:28.849Z,english_172.wav,0,pill,2229,25,5,3,English,m,2,0.2,-95.76423912,0.34406097
5a297877edcbca00015f351f,17,0,2024-02-24T08:11:28.849Z,english_172.wav,0,pill,2229,25,5,3,English,m,3,0.3,11.69646411,0.74935371
5a297877edcbca00015f351f,17,0,2024-02-24T08:11:28.849Z,english_172.wav,0,pill,2229,25,5,3,English,m,4,0.32341667,-55.10661496,0.42041327
5a297877edcbca00015f351f,18,0,2024-02-24T08:11:28.849Z,english_875.wav,0,peel,1175,25,5,3,English,m,0,0.0,-72.29566874,0.47412948
5a297877edcbca00015f351f,18,0,2024-02-24T08:11:28.849Z,english_875.wav,0,peel,1175,25,5,3,English,m,1,0.1,40.49821439,0.97105678
5a297877edcbca00015f351f,18,0,2024-02-24T08:11:28.849Z,english_875.wav,0,peel,1175,25,5,3,English,m,2,0.2,61.66936014,1.31175081
5a297877edcbca00015f351f,18,0,2024-02-24T08:11:28.849Z,english_875.wav,0,peel,1175,25,5,3,English,m,3,0.3,36.92950197,0.55015514
5a297877edcbca00015f351f,18,0,2024-02-24T08:11:28.849Z,english_875.wav,0,peel,1175,25,5,3,English,m,4,0.32341667,61.03530789,1.23529794
5a297877edcbca00015f351f,19,0,2024-02-24T08:11:28.849Z,english_902.wav,0,peel,1368,25,5,3,English,m,0,0.0,-4.27617126,0.16330526
5a297877edcbca00015f351f,19,0,2024-02-24T08:11:28.849Z,english_902.wav,0,peel,1368,25,5,3,English,m,1,0.1,-5.01127315,0.62492789
5a297877edcbca00015f351f,19,0,2024-02-24T08:11:28.849Z,english_902.wav,0,peel,1368,25,5,3,English,m,2,0.2,83.22080084,1.08638924
5a297877edcbca00015f351f,19,0,2024-02-24T08:11:28.849Z,english_902.wav,0,peel,1368,25,5,3,English,m,3,0.3,77.56473772,1.61764227
5a297877edcbca00015f351f,19,0,2024-02-24T08:11:28.849Z,english_902.wav,0,peel,1368,25,5,3,English,m,4,0.32341667,-13.02741535,1.72075309
5a297877edcbca00015f351f,20,0,2024-02-24T08:11:28.849Z,english_20.wav,0,pill,990,25,5,3,English,m,0,0.0,-56.6830557,0.06363068
5a297877edcbca00015f351f,20,0,2024-02-24T08:11:28.849Z,english_20.wav,0,pill,990,25,5,3,English,m,1,0.1,50.66790367,1.80739158
5a297877edcbca00015f351f,20,0,2024-02-24T08:11:28.849Z,english_20.wav,0,pill,990,25,5,3,English,m,2,0.2,-18.96445326,1.41045117
5a297877edcbca00015f351f,20,0,2024-02-24T08:11:28.849Z,english_20.wav,0,pill,990,25,5,3,English,m,3,0.3,-25.44345058,0.2049667
5a297877edcbca00015f351f,20,0,2024-02-24T08:11:28.849Z,english_20.wav,0,pill,990,25,5,3,English,m,4,0.32341667,12.75548414,0.27136646
5a297877edcbca00015f351f,21,0,2024-02-24T08:11:28.849Z,english_380.wav,0,peel,932,25,5,3,English,m,0,0.0,-44.61260121,1.04167661
5a297877edcbca00015f351f,21,0,2024-02-24T08:11:28.849Z,english_380.wav,0,peel,932,25,5,3,English,m,1,0.1,-47.89967478,0.43386817
5a297877edcbca00015f351f,21,0,2024-02-24T08:11:28.849Z,english_380.wav,0,peel,932,25,5,3,English,m,2,0.2,34.91352544,0.93219588
5a297877edcbca00015f351f,21,0,2024-02-24T08:11:28.849Z,english_380.wav,0,peel,932,25,5,3,English,m,3,0.3,-71.89465654,0.8109376
5a297877edcbca00015f351f,21,0,2024-02-24T08:11:28.849Z,english_380.wav,0,peel,932,25,5,3,English,m,4,0.32341667,84.67713906,0.64473949
5a297877edcbca00015f351f,22,0,2024-02-24T08:11:28.849Z,english_936.wav,0,peel,1233,25,5,3,English,m,0,0.0,48.39129511,0.54114143
5a297877edcbca00015f351f,22,0,2024-02-24T08:11:28.849Z,english_936.wav,0,peel,1233,25,5,3,English,m,1,0.1,-60.21618585,1.68728974
5a297877edcbca00015f351f,22,0,2024-02-24T08:11:28.849Z,english_936.wav,0,peel,1233,25,5,3,English,m,2,0.2,21.92845445,1.39155326
5a297877edcbca00015f351f,22,0,2024-02-24T08:11:28.849Z,english_936.wav,0,peel,1233,25,5,3,English,m,3,0.3,72.85258749,0.90488419
5a297877edcbca00015f351f,22,0,2024-02-24T08:11:28.849Z,english_936.wav,0,peel,1233,25,5,3,English,m,4,0.32341667,60.11152814,1.20326098
5a297877edcbca00015f351f,23,0,2024-02-24T08:11:28.849Z,english_564.wav,0,pill,1832,25,5,3,English,m,0,0.0,-4.16228192,1.35245187
5a297877edcbca00015f351f,23,0,2024-02-24T08:11:28.849Z,english_564.wav,0,pill,1832,25,5,3,English,m,1,0.1,-8.38376801,0.24798142
5a297877edcbca00015f351f,23,0,2024-02-24T08:11:28.849Z,english_564.wav,0,pill,1832,25,5,3,English,m,2,0.2,52.82752554,1.26376743
5a297877edcbca00015f351f,23,0,2024-02-24T08:11:28.849Z,english_564.wav,0,pill,1832,25,5,3,English,m,3,0.3,-92.64870354,0.73548171
5a297877edcbca00015f351f,23,0,2024-02-24T08:11:28.849Z,english_564.wav,0,pill,1832,25,5,3,English,m,4,0.32341667,-48.86146536,0.1394123
5a297877edcbca00015f351f,24,0,2024-02-24T08:11:28.849Z,english_576.wav,0,pill,2284,25,5,3,English,m,0,0.0,70.71636046,1.40655209
5a297877edcbca00015f351f,24,0,2024-02-24T08:11:28.849Z,english_576.wav,0,pill,2284,25,5,3,English,m,1,0.1,-53.10414049,0.7609351
5a297877edcbca00015f351f,24,0,2024-02-24T08:11:28.849Z,english_576.wav,0,pill,2284,25,5,3,English,m,2,0.2,34.4374047,1.0155723
5a297877edcbca00015f351f,24,0,2024-02-24T08:11:28.849Z,english_576.wav,0,pill,2284,25,5,3,English,m,3,0.3,19.64113521,1.45906276
5a297877edcbca00015f351f,24,0,2024-02-24T08:11:28.849Z,english_576.wav,0,pill,2284,25,5,3,English,m,4,0.32341667,36.63265498,1.49724695
5a297877edcbca00015f351f,25,0,2024-02-24T08:11:28.849Z,english_156.wav,0,peel,1379,25,5,3,English,m,0,0.0,93.86570948,0.27803573
5a297877edcbca00015f351f,25,0,2024-02-24T08:11:28.849Z,english_156.wav,0,peel,1379,25,5,3,English,m,1,0.1,63.74639013,0.76121308
5a297877edcbca00015f351f,25,0,2024-02-24T08:11:28.849Z,english_156.wav,0,peel,1379,25,5,3,English,m,2,0.2,-97.10775444,0.98438609
5a297877edcbca00015f351f,25,0,2024-02-24T08:11:28.849Z,english_156.wav,0,peel,1379,25,5,3,English,m,3,0.3,99.76737427,0.34877861
5a297877edcbca00015f351f,25,0,2024-02-24T08:11:28.849Z,english_156.wav,0,peel,1379,25,5,3,English,m,4,0.32341667,11.29868277,0.58154428
5a297877edcbca00015f351f,26,0,2024-02-24T08:11:28.849Z,english_526.wav,0,peel,929,25,5,3,English,m,0,0.0,-32.34532461,0.924261
5a297877edcbca00015f351f,26,0,2024-02-24T08:11:28.849Z,english_526.wav,0,peel,929,25,5,3,English,m,1,0.1,-46.6208459,0.25414499
5a297877edcbca00015f351f,26,0,2024-02-24T08:11:28.849Z,english_526.wav,0,peel,929,25,5,3,English,m,2,0.2,-42.84927068,1.01925886
5a297877edcbca00015f351f,26,0,2024-02-24T08:11:28.849Z,english_526.wav,0,peel,929,25,5,3,English,m,3,0.3,3.47643827,0.65966822
5a297877edcbca00015f351f,26,0,2024-02-24T08:11:28.849Z,english_526.wav,0,peel,929,25,5,3,English,m,4,0.32341667,52.79087598,1.50872035
5a297877edcbca00015f351f,27,0,2024-02-24T08:11:28.849Z,english_331.wav,0,peel,996,25,5,3,English,m,0,0.0,12.66323204,1.93220763
5a297877edcbca00015f351f,27,0,2024-02-24T08:11:28.849Z,english_331.wav,0,peel,996,25,5,3,English,m,1,0.1,-81.78605138,1.48237299
5a297877edcbca00015f351f,27,0,2024-02-24T08:11:28.849Z,english_331.wav,0,peel,996,25,5,3,English,m,2,0.2,59.07546792,1.15413743
5a297877edcbca00015f351f,27,0,2024-02-24T08:11:28.849Z,english_331.wav,0,peel,996,25,5,3,English,m,3,0.3,-83.73170191,1.02182823
5a297877edcbca00015f351f,27,0,2024-02-24T08:11:28.849Z,english_331.wav,0,peel,996,25,5,3,English,m,4,0.32341667,3.10587362,0.81670354
5a297877edcbca00015f351f,28,0,2024-02-24T08:11:28.849Z,english_671.wav,0,peel,492,25,5,3,English,m,0,0.0,32.91930287,1.74193101
5a297877edcbca00015f351f,28,0,2024-02-24T08:11:28.849Z,english_671.wav,0,peel,492,25,5,3,English,m,1,0.1,6.16976114,0.51820224
5a297877edcbca00015f351f,28,0,2024-02-24T08:11:28.849Z,english_671.wav,0,peel,492,25,5,3,English,m,2,0.2,-34.00390264,0.07120536
5a297877edcbca00015f351f,28,0,2024-02-24T08:11:28.849Z,english_671.wav,0,peel,492,25,5,3,English,m,3,0.3,18.374511,0.3828633
5a297877edcbca00015f351f,28,0,2024-02-24T08:11:28.849Z,english_671.wav,0,peel,492,25,5,3,English,m,4,0.32341667,-2.98713897,1.2592669
5a297877edcbca00015f351f,29,0,2024-02-24T08:11:28.849Z,english_231.wav,0,peel,1070,25,5,3,English,m,0,0.0,-57.04299033,1.30850831
5a297877edcbca00015f351f,29,0,2024-02-24T08:11:28.849Z,english_231.wav,0,peel,1070,25,5,3,English,m,1,0.1,-61.30294243,1.06317761
5a297877edcbca00015f351f,29,0,2024-02-24T08:11:28.849Z,english_231.wav,0,peel,1070,25,5,3,English,m,2,0.2,11.10207427,1.86768436
5a297877edcbca00015f351f,29,0,2024-02-24T08:11:28.849Z,english_231.wav,0,peel,1070,25,5,3,English,m,3,0.3,-1.38864911,1.42169342
5a297877edcbca00015f351f,29,0,2024-02-24T08:11:28.849Z,english_231.wav,0,peel,1070,25,5,3,English,m,4,0.32341667,-40.37897369,0.58634772
5a297877edcbca00015f351f,30,0,2024-02-24T08:11:28.849Z,english_149.wav,0,peel,1375,25,5,3,English,m,0,0.0,84.22842235,1.59516341
5a297877edcbca00015f351f,30,0,2024-02-24T08:11:28.849Z,english_149.wav,0,peel,1375,25,5,3,English,m,1,0.1,-27.4405272,0.66089578
5a297877edcbca00015f351f,30,0,2024-02-24T08:11:28.849Z,english_149.wav,0,peel,1375,25,5,3,English,m,2,0.2,-61.08664731,1.85372623
5a297877edcbca00015f351f,30,0,2024-02-24T08:11:28.849Z,english_149.wav,0,peel,1375,25,5,3,English,m,3,0.3,-73.42064763,1.25159901
5a297877edcbca00015f351f,30,0,2024-02-24T08:11:28.849Z,english_149.wav,0,peel,1375,25,5,3,English,m,4,0.32341667,74.80057547,1.10687529
5a297877edcbca00015f351f,31,0,2024-02-24T08:11:28.849Z,english_72.wav,0,peel,1772,25,5,3,English,m,0,0.0,3.79788214,1.04175162
5a297877edcbca00015f351f,31,0,2024-02-24T08:11:28.849Z,english_72.wav,0,peel,1772,25,5,3,English,m,1,0.1,-35.73428138,0.91099175
5a297877edcbca00015f351f,31,0,2024-02-24T08:11:28.849Z,english_72.wav,0,peel,1772,25,5,3,English,m,2,0.2,-30.83181688,0.34322307
5a297877edcbca00015f351f,31,0,2024-02-24T08:11:28.849Z,english_72.wav,0,peel,1772,25,5,3,English,m,3,0.3,-68.4260973,1.39599539
5a297877edcbca00015f351f,31,0,2024-02-24T08:11:28.849Z,english_72.wav,0,peel,1772,25,5,3,English,m,4,0.32341667,-10.87667298,0.78322702
5a297877edcbca00015f351f,32,0,2024-02-24T08:11:28.849Z,english_647.wav,0,peel,1085,25,5,3,English,m,0,0.0,-8.76796469,1.6238225
5a297877edcbca00015f351f,32,0,2024-02-24T08:11:28.849Z,english_647.wav,0,peel,1085,25,5,3,English,m,1,0.1,-49.13996982,1.56934089
5a297877edcbca00015f351f,32,0,2024-02-24T08:11:28.849Z,english_647.wav,0,peel,1085,25,5,3,English,m,2,0.2,43.79634461,0.78560304
5a297877edcbca00015f351f,32,0,2024-02-24T08:11:28.849Z,english_647.wav,0,peel,1085,25,5,3,English,m,3,0.3,5.5781311,0.61771672
5a297877edcbca00015f351f,32,0,2024-02-24T08:11:28.849Z,english_647.wav,0,peel,1085,25,5,3,English,m,4,0.32341667,17.41251701,1.2404866
5a297877edcbca00015f351f,33,0,2024-02-24T08:11:28.849Z,english_742.wav,0,pill,1409,25,5,3,English,m,0,0.0,12.62363586,1.26368295
5a297877edcbca00015f351f,33,0,2024-02-24T08:11:28.849Z,english_742.wav,0,pill,1409,25,5,3,English,m,1,0.1,23.02085171,0.7448394
5a297877edcbca00015f351f,33,0,2024-02-24T08:11:28.849Z,english_742.wav,0,pill,1409,25,5,3,English,m,2,0.2,23.36423086,0.05261082
5a297877edcbca00015f351f,33,0,2024-02-24T08:11:28.849Z,english_742.wav,0,pill,1409,25,5,3,English,m,3,0.3,97.70614946,1.01748925
5a297877edcbca00015f351f,33,0,2024-02-24T08:11:28.849Z,english_742.wav,0,pill,1409,25,5,3,English,m,4,0.32341667,-25.72861775,0.88645775
5a297877edcbca00015f351f,34,0,2024-02-24T08:11:28.849Z,english_426.wav,0,peel,779,25,5,3,English,m,0,0.0,84.66887763,0.58495982
5a297877edcbca00015f351f,34,0,2024-02-24T08:11:28.849Z,english_426.wav,0,peel,779,25,5,3,English,m,1,0.1,6.08176803,0.31710055
5a297877edcbca00015f351f,34,0,2024-02-24T08:11:28.849Z,english_426.wav,0,peel,779,25,5,3,English,m,2,0.2,90.82211143,1.7123379
5a297877edcbca00015f351f,34,0,2024-02-24T08:11:28.849Z,english_426.wav,0,peel,779,25,5,3,English,m,3,0.3,42.04787562,1.38911617
5a297877edcbca00015f351f,34,0,2024-02-24T08:11:28.849Z,english_426.wav,0,peel,779,25,5,3,English,m,4,0.32341667,-40.19306584,1.84862951
5a297877edcbca00015f351f,35,0,2024-02-24T08:11:28.849Z,english_48.wav,0,pill,768,25,5,3,English,m,0,0.0,73.79399561,0.74385981
5a297877edcbca00015f351f,35,0,2024-02-24T08:11:28.849Z,english_48.wav,0,pill,768,25,5,3,English,m,1,0.1,-6.33056249,1.05457567
5a297877edcbca00015f351f,35,0,2024-02-24T08:11:28.849Z,english_48.wav,0,pill,768,25,5,3,English,m,2,0.2,-25.55346814,0.45493163
5a297877edcbca00015f351f,35,0,2024-02-24T08:11:28.849Z,english_48.wav,0,pill,768,25,5,3,English,m,3,0.3,46.43305776,0.06513279
5a297877edcbca00015f351f,35,0,2024-02-24T08:11:28.849Z,english_48.wav,0,pill,768,25,5,3,English,m,4,0.32341667,-46.56414761,0.46755714
5a297877edcbca00015f351f,36,0,2024-02-24T08:11:28.849Z,english_6.wav,0,peel,2144,25,5,3,English,m,0,0.0,-8.2116192,1.24832701
5a297877edcbca00015f351f,36,0,2024-02-24T08:11:28.849Z,english_6.wav,0,peel,2144,25,5,3,English,m,1,0.1,-28.50933877,0.74984456
5a297877edcbca00015f351f,36,0,2024-02-24T08:11:28.849Z,english_6.wav,0,peel,2144,25,5,3,English,m,2,0.2,-90.20174912,1.37568362
5a297877edcbca00015f351f,36,0,2024-02-24T08:11:28.849Z,english_6.wav,0,peel,2144,25,5,3,English,m,3,0.3,-7.18062469,0.47637706
5a297877edcbca00015f351f,36,0,2024-02-24T08:11:28.849Z,english_6.wav,0,peel,2144,25,5,3,English,m,4,0.32341667,-36.83558467,0.68255954
5a297877edcbca00015f351f,37,0,2024-02-24T08:11:28.849Z,english_242.wav,0,peel,476,25,5,3,English,m,0,0.0,26.44185099,0.44763058
5a297877edcbca00015f351f,37,0,2024-02-24T08:11:28.849Z,english_242.wav,0,peel,476,25,5,3,English,m,1,0.1,44.29547205,1.06541359
5a297877edcbca00015f351f,37,0,2024-02-24T08:11:28.849Z,english_242.wav,0,peel,476,25,5,3,English,m,2,0.2,-3.86423299,0.64111919
5a297877edcbca00015f351f,37,0,2024-02-24T08:11:28.849Z,english_242.wav,0,peel,476,25,5,3,English,m,3,0.3,60.29108386,0.35225786
5a297877edcbca00015f351f,37,0,2024-02-24T08:11:28.849Z,english_242.wav,0,peel,476,25,5,3,English,m,4,0.32341667,18.66576556,1.0072971
5a297877edcbca00015f351f,38,0,2024-02-24T08:11:28.849Z,english_945.wav,0,peel,621,25,5,3,English,m,0,0.0,63.16075011,1.8314946
5a297877edcbca00015f351f,38,0,2024-02-24T08:11:28.849Z,english_945.wav,0,peel,621,25,5,3,English,m,1,0.1,87.55520176,1.3737613
5a297877edcbca00015f351f,38,0,2024-02-24T08:11:28.849Z,english_945.wav,0,peel,621,25,5,3,English,m,2,0.2,-69.60467193,0.61639792
5a297877edcbca00015f351f,38,0,2024-02-24T08:11:28.849Z,english_945.wav,0,peel,621,25,5,3,English,m,3,0.3,-69.25530384,1.67239747
5a297877edcbca00015f351f,38,0,2024-02-24T08:11:28.849Z,english_945.wav,0,peel,621,25,5,3,English,m,4,0.32341667,-47.64160087,1.88344595
5a297877edcbca00015f351f,39,0,2024-02-24T08:11:28.849Z,english_907.wav,0,peel,844,25,5,3,English,m,0,0.0,13.97638225,0.68575839
5a297877edcbca00015f351f,39,0,2024-02-24T08:11:28.849Z,english_907.wav,0,peel,844,25,5,3,English,m,1,0.1,36.81481791,1.58611259
5a297877edcbca00015f351f,39,0,2024-02-24T08:11:28.849Z,english_907.wav,0,peel,844,25,5,3,English,m,2,0.2,1.21651202,1.59547025
5a297877edcbca00015f351f,39,0,2024-02-24T08:11:28.849Z,english_907.wav,0,peel,844,25,5,3,English,m,3,0.3,35.47405672,0.75888392
5a297877edcbca00015f351f,39,0,2024-02-24T08:11:28.849Z,english_907.wav,0,peel,844,25,5,3,English,m,4,0.32341667,-27.93760057,0.06937964
5a297877edcbca00015f351f,40,0,2024-02-24T08:11:28.849Z,english_705.wav,0,peel,1142,25,5,3,English,m,0,0.0,3.76426423,0.9500377
5a297877edcbca00015f351f,40,0,2024-02-24T08:11:28.849Z,english_705.wav,0,peel,1142,25,5,3,English,m,1,0.1,90.96696755,0.74173997
5a297877edcbca00015f351f,40,0,2024-02-24T08:11:28.849Z,english_705.wav,0,peel,1142,25,5,3,English,m,2,0.2,-32.86898574,1.78776637
5a297877edcbca00015f351f,40,0,2024-02-24T08:11:28.849Z,english_705.wav,0,peel,1142,25,5,3,English,m,3,0.3,-21.12550784,0.8178788
5a297877edcbca00015f351f,40,0,2024-02-24T08:11:28.849Z,english_705.wav,0,peel,1142,25,5,3,English,m,4,0.32341667,39.74077299,1.54913024
5a297877edcbca00015f351f,41,0,2024-02-24T08:11:28.849Z,english_27.wav,0,peel,1626,25,5,3,English,m,0,0.0,-6.18374659,1.89085405
5a297877edcbca00015f351f,41,0,2024-02-24T08:11:28.849Z,english_27.wav,0,peel,1626,25,5,3,English,m,1,0.1,32.21095844,0.80138328
5a297877edcbca00015f351f,41,0,2024-02-24T08:11:28.849Z,english_27.wav,0,peel,1626,25,5,3,English,m,2,0.2,21.02729748,1.01248602
5a297877edcbca00015f351f,41,0,2024-02-24T08:11:28.849Z,english_27.wav,0,peel,1626,25,5,3,English,m,3,0.3,4.79829383,1.67412938
5a297877edcbca00015f351f,41,0,2024-02-24T08:11:28.849Z,english_27.wav,0,peel,1626,25,5,3,English,m,4,0.32341667,-70.7577659,0.3387802
5a297877edcbca00015f351f,42,0,2024-02-24T08:11:28.849Z,english_790.wav,0,peel,680,25,5,3,English,m,0,0.0,51.18493756,0.66657869
5a297877edcbca00015f351f,42,0,2024-02-24T08:11:28.849Z,english_790.wav,0,peel,680,25,5,3,English,m,1,0.1,-64.70105349,0.91857876
5a297877edcbca00015f351f,42,0,2024-02-24T08:11:28.849Z,english_790.wav,0,peel,680,25,5,3,English,m,2,0.2,-90.57968214,1.26779222
5a297877edcbca00015f351f,42,0,2024-02-24T08:11:28.849Z,english_790.wav,0,peel,680,25,5,3,English,m,3,0.3,-94.64625917,1.54144859
5a297877edcbca00015f351f,42,0,2024-02-24T08:11:28.849Z,english_790.wav,0,peel,680,25,5,3,English,m,4,0.32341667,-38.85953331,1.32367104
5a297877edcbca00015f351f,43,0,2024-02-24T08:11:28.849Z,english_657.wav,0,pill,1316,25,5,3,English,m,0,0.0,30.03208284,1.42095662
5a297877edcbca00015f351f,43,0,2024-02-24T08:11:28.849Z,english_657.wav,0,pill,1316,25,5,3,English,m,1,0.1,-5.57127058,1.29790323
5a297877edcbca00015f351f,43,0,2024-02-24T08:11:28.849Z,english_657.wav,0,pill,1316,25,5,3,English,m,2,0.2,9.55793083,0.51612643
5a297877edcbca00015f351f,43,0,2024-02-24T08:11:28.849Z,english_657.wav,0,pill,1316,25,5,3,English,m,3,0.3,3.39766504,0.37671101
5a297877edcbca00015f351f,43,0,2024-02-24T08:11:28.849Z,english_657.wav,0,pill,1316,25,5,3,English,m,4,0.32341667,84.38659916,1.20124021
5a297877edcbca00015f351f,44,0,2024-02-24T08:11:28.849Z,english_778.wav,0,pill,536,25,5,3,English,m,0,0.0,99.37283207,0.92158405
5a297877edcbca00015f351f,44,0,2024-02-24T08:11:28.849Z,english_778.wav,0,pill,536,25,5,3,English,m,1,0.1,61.02900927,1.90392814
5a297877edcbca00015f351f,44,0,2024-02-24T08:11:28.849Z,english_778.wav,0,pill,536,25,5,3,English,m,2,0.2,-43.89505842,0.34916702
5a297877edcbca00015f351f,44,0,2024-02-24T08:11:28.849Z,english_778.wav,0,pill,536,25,5,3,English,m,3,0.3,-6.51139434,1.21087231
5a297877edcbca00015f351f,44,0,2024-02-24T08:11:28.849Z,english_778.wav,0,pill,536,25,5,3,English,m,4,0.32341667,-98.37213751,0.72140227
5a297877edcbca00015f351f,45,0,2024-02-24T08:11:28.849Z,english_548.wav,0,peel,2332,25,5,3,English,m,0,0.0,19.39315344,0.41811488
5a297877edcbca00015f351f,45,0,2024-02-24T08:11:28.849Z,english_548.wav,0,peel,2332,25,5,3,English,m,1,0.1,82.09582914,1.70384437
5a297877edcbca00015f351f,45,0,2024-02-24T08:11:28.849Z,english_548.wav,0,peel,2332,25,5,3,English,m,2,0.2,-65.55781301,1.82142436
5a297877edcbca00015f351f,45,0,2024-02-24T08:11:28.849Z,english_548.wav,0,peel,2332,25,5,3,English,m,3,0.3,-5.02691035,1.13784798
5a297877edcbca00015f351f,45,0,2024-02-24T08:11:28.849Z,english_548.wav,0,peel,2332,25,5,3,English,m,4,0.32341667,62.63141303,1.73168063
5a297877edcbca00015f351f,46,0,2024-02-24T08:11:28.849Z,english_26.wav,0,peel,1398,25,5,3,English,m,0,0.0,54.38966875,1.86679487
5a297877edcbca00015f351f,46,0,2024-02-24T08:11:28.849Z,english_26.wav,0,peel,1398,25,5,3,English,m,1,0.1,0.3460174,0.79762949
5a297877edcbca00015f351f,46,0,2024-02-24T08:11:28.849Z,english_26.wav,0,peel,1398,25,5,3,English,m,2,0.2,-72.33258957,0.93682052
5a297877edcbca00015f351f,46,0,2024-02-24T08:11:28.849Z,english_26.wav,0,peel,1398,25,5,3,English,m,3,0.3,67.09142092,1.42469209
5a297877edcbca00015f351f,46,0,2024-02-24T08:11:28.849Z,english_26.wav,0,peel,1398,25,5,3,English,m,4,0.32341667,16.00565239,1.17807545
5a297877edcbca00015f351f,47,0,2024-02-24T08:11:28.849Z,english_917.wav,0,pill,906,25,5,3,English,m,0,0.0,-2.28432431,0.51220006
5a297877edcbca00015f351f,47,0,2024-02-24T08:11:28.849Z,english_917.wav,0,pill,906,25,5,3,English,m,1,0.1,-50.4941454,0.3783057
5a297877edcbca00015f351f,47,0,2024-02-24T08:11:28.849Z,english_917.wav,0,pill,906,25,5,3,English,m,2,0.2,86.41176613,0.52629226
5a297877edcbca00015f351f,47,0,2024-02-24T08:11:28.849Z,english_917.wav,0,pill,906,25,5,3,English,m,3,0.3,-50.97734163,0.68389314
5a297877edcbca00015f351f,47,0,2024-02-24T08:11:28.849Z,english_917.wav,0,pill,906,25,5,3,English,m,4,0.32341667,97.13453513,1.73708117
5a297877edcbca00015f351f,48,0,2024-02-24T08:11:28.849Z,english_535.wav,0,peel,684,25,5,3,English,m,0,0.0,-5.32882057,0.21055966
5a297877edcbca00015f351f,48,0,2024-02-24T08:11:28.849Z,english_535.wav,0,peel,684,25,5,3,English,m,1,0.1,-34.98045039,0.89683134
5a297877edcbca00015f351f,48,0,2024-02-24T08:11:28.849Z,english_535.wav,0,peel,684,25,5,3,English,m,2,0.2,30.10834221,1.11178172
5a297877edcbca00015f351f,48,0,2024-02-24T08:11:28.849Z,english_535.wav,0,peel,684,25,5,3,English,m,3,0.3,-70.22542568,0.20123235
5a297877edcbca00015f351f,48,0,2024-02-24T08:11:28.849Z,english_535.wav,0,peel,684,25,5,3,English,m,4,0.32341667,-73.0016054,0.99564794
5a297877edcbca00015f351f,49,0,2024-02-24T08:11:28.849Z,english_375.wav,0,peel,1060,25,5,3,English,m,0,0.0,18.096335,0.30735121
5a297877edcbca00015f351f,49,0,2024-02-24T08:11:28.849Z,english_375.wav,0,peel,1060,25,5,3,English,m,1,0.1,-55.77885891,1.17808606
5a297877edcbca00015f351f,49,0,2024-02-24T08:11:28.849Z,english_375.wav,0,peel,1060,25,5,3,English,m,2,0.2,-79.80603762,1.03107785
5a297877edcbca00015f351f,49,0,2024-02-24T08:11:28.849Z,english_375.wav,0,peel,1060,25,5,3,English,m,3,0.3,-57.7566014,0.46519988
5a297877edcbca00015f351f,49,0,2024-02-24T08:11:28.849Z,english_375.wav,0,peel,1060,25,5,3,English,m,4,0.32341667,74.14673873,1.41875211
5a297877edcbca00015f351f,50,1,2024-02-24T08:11:28.849Z,english_199.wav,0,peel,3030,25,5,3,English,m,0,0.0,-24.89956817,0.07306367
5a297877edcbca00015f351f,50,1,2024-02-24T08:11:28.849Z,english_199.wav,0,peel,3030,25,5,3,English,m,1,0.1,-48.49200931,0.10334581
5a297877edcbca00015f351f,50,1,2024-02-24T08:11:28.849Z,english_199.wav,0,peel,3030,25,5,3,English,m,2,0.2,-89.66548778,1.49062114
5a297877edcbca00015f351f,50,1,2024-02-24T08:11:28.849Z,english_199.wav,0,peel,3030,25,5,3,English,m,3,0.3,29.20785813,0.36717513
5a297877edcbca00015f351f,50,1,2024-02-24T08:11:28.849Z,english_199.wav,0,peel,3030,25,5,3,English,m,4,0.32341667,-88.68286362,1.33179809
5a297877edcbca00015f351f,51,1,2024-02-24T08:11:28.849Z,english_964.wav,0,pill,614,25,5,3,English,m,0,0.0,11.04708611,0.74384055
5a297877edcbca00015f351f,51,1,2024-02-24T08:11:28.849Z,english_964.wav,0,pill,614,25,5,3,English,m,1,0.1,-10.67848967,0.46038505
5a297877edcbca00015f351f,51,1,2024-02-24T08:11:28.849Z,english_964.wav,0,pill,614,25,5,3,English,m,2,0.2,64.95328634,0.80934661
5a297877edcbca00015f351f,51,1,2024-02-24T08:11:28.849Z,english_964.wav,0,pill,614,25,5,3,English,m,3,0.3,-78.10341524,1.94282647
5a297877edcbca00015f351f,51,1,2024-02-24T08:11:28.849Z,english_964.wav,0,pill,614,25,5,3,English,m,4,0.32341667,-48.61651995,1.99482071
5a297877edcbca00015f351f,52,1,2024-02-24T08:11:28.849Z,english_358.wav,0,pill,535,25,5,3,English,m,0,0.0,-24.40280242,0.64702298
5a297877edcbca00015f351f,52,1,2024-02-24T08:11:28.849Z,english_358.wav,0,pill,535,25,5,3,English,m,1,0.1,62.18566088,0.86836285
5a297877edcbca00015f351f,52,1,2024-02-24T08:11:28.849Z,english_358.wav,0,pill,535,25,5,3,English,m,2,0.2,5.26675109,1.05826104
5a297877edcbca00015f351f,52,1,2024-02-24T08:11:28.849Z,english_358.wav,0,pill,535,25,5,3,English,m,3,0.3,-31.91571391,1.98011631
5a297877edcbca00015f351f,52,1,2024-02-24T08:11:28.849Z,english_358.wav,0,pill,535,25,5,3,English,m,4,0.32341667,27.35112364,0.35058307
5a297877edcbca00015f351f,53,1,2024-02-24T08:11:28.849Z,english_289.wav,0,pill,1314,25,5,3,English,m,0,0.0,-55.97739865,0.95213243
5a297877edcbca00015f351f,53,1,2024-02-24T08:11:28.849Z,english_289.wav,0,pill,1314,25,5,3,English,m,1,0.1,-97.9801122,0.81858491
5a297877edcbca00015f351f,53,1,2024-02-24T08:11:28.849Z,english_289.wav,0,pill,1314,25,5,3,English,m,2,0.2,44.28679287,1.16094748
5a297877edcbca00015f351f,53,1,2024-02-24T08:11:28.849Z,english_289.wav,0,pill,1314,25,5,3,English,m,3,0.3,-74.0895039,0.92969459
5a297877edcbca00015f351f,53,1,2024-02-24T08:11:28.849Z,english_289.wav,0,pill,1314,25,5,3,English,m,4,0.32341667,-44.25845537,0.41504245
5a297877edcbca00015f351f,54,1,2024-02-24T08:11:28.849Z,english_909.wav,0,pill,3081,25,5,3,English,m,0,0.0,-19.4205152,0.17681169
5a297877edcbca00015f351f,54,1,2024-02-24T08:11:28.849Z,english_909.wav,0,pill,3081,25,5,3,English,m,1,0.1,-31.830868,1.02014656
5a297877edcbca00015f351f,54,1,2024-02-24T08:11:28.849Z,english_909.wav,0,pill,3081,25,5,3,English,m,2,0.2,71.05598051,1.59945112
5a297877edcbca00015f351f,54,1,2024-02-24T08:11:28.849Z,english_909.wav,0,pill,3081,25,5,3,English,m,3,0.3,-13.09259164,1.33685121
5a297877edcbca00015f351f,54,1,2024-02-24T08:11:28.849Z,english_909.wav,0,pill,3081,25,5,3,English,m,4,0.32341667,-99.47743822,0.41114962
5a297877edcbca00015f351f,55,1,2024-02-24T08:11:28.849Z,english_532.wav,0,pill,500,25,5,3,English,m,0,0.0,-19.59321792,1.69826346
5a297877edcbca00015f351f,55,1,2024-02-24T08:11:28.849Z,english_532.wav,0,pill,500,25,5,3,English,m,1,0.1,84.44945775,1.19849103
5a297877edcbca00015f351f,55,1,2024-02-24T08:11:28.849Z,english_532.wav,0,pill,500,25,5,3,English,m,2,0.2,-5.6477907,0.05164805
5a297877edcbca00015f351f,55,1,2024-02-24T08:11:28.849Z,english_532.wav,0,pill,500,25,5,3,English,m,3,0.3,-66.11375502,0.74129516
5a297877edcbca00015f351f,55,1,2024-02-24T08:11:28.849Z,english_532.wav,0,pill,500,25,5,3,English,m,4,0.32341667,-46.16722618,0.11393119
5a297877edcbca00015f351f,56,1,2024-02-24T08:11:28.849Z,english_492.wav,0,peel,492,25,5,3,English,m,0,0.0,-66.2832746,0.52930651
5a297877edcbca00015f351f,56,1,2024-02-24T08:11:28.849Z,english_492.wav,0,peel,492,25,5,3,English,m,1,0.1,-19.36008054,1.11739795
5a297877edcbca00015f351f,56,1,2024-02-24T08:11:28.849Z,english_492.wav,0,peel,492,25,5,3,English,m,2,0.2,95.25769545,1.86018292
5a297877edcbca00015f351f,56,1,2024-02-24T08:11:28.849Z,english_492.wav,0,peel,492,25,5,3,English,m,3,0.3,-42.69351484,0.07313262
5a297877edcbca00015f351f,56,1,2024-02-24T08:11:28.849Z,english_492.wav,0,peel,492,25,5,3,English,m,4,0.32341667,48.13359561,0.30480454
5a297877edcbca00015f351f,57,1,2024-02-24T08:11:28.849Z,english_233.wav,0,peel,305,25,5,3,English,m,0,0.0,-3.83672366,0.89757337
5a297877edcbca00015f351f,57,1,2024-02-24T08:11:28.849Z,english_233.wav,0,peel,305,25,5,3,English,m,1,0.1,-39.8423846,0.76715273
5a297877edcbca00015f351f,57,1,2024-02-24T08:11:28.849Z,english_233.wav,0,peel,305,25,5,3,English,m,2,0.2,85.69163348,1.38961473
5a297877edcbca00015f351f,57,1,2024-02-24T08:11:28.849Z,english_233.wav,0,peel,305,25,5,3,English,m,3,0.3,40.61484277,0.78787282
5a297877edcbca00015f351f,57,1,2024-02-24T08:11:28.849Z,english_233.wav,0,peel,305,25,5,3,English,m,4,0.32341667,-44.9800047,0.48224738
5a297877edcbca00015f351f,58,1,2024-02-24T08:11:28.849Z,english_407.wav,0,peel,234,25,5,3,English,m,0,0.0,-13.68776922,0.77658743
5a297877edcbca00015f351f,58,1,2024-02-24T08:11:28.849Z,english_407.wav,0,peel,234,25,5,3,English,m,1,0.1,-57.11899702,1.53398674
5a297877edcbca00015f351f,58,1,2024-02-24T08:11:28.849Z,english_407.wav,0,peel,234,25,5,3,English,m,2,0.2,62.94325807,0.70379875
5a297877edcbca00015f351f,58,1,2024-02-24T08:11:28.849Z,english_407.wav,0,peel,234,25,5,3,English,m,3,0.3,-27.77030003,0.72470084
5a297877edcbca00015f351f,58,1,2024-02-24T08:11:28.849Z,english_407.wav,0,peel,234,25,5,3,English,m,4,0.32341667,-61.90605897,0.771678
5a297877edcbca00015f351f,59,1,2024-02-24T08:11:28.849Z,english_957.wav,0,peel,279,25,5,3,English,m,0,0.0,-8.34255742,0.77577071
5a297877edcbca00015f351f,59,1,2024-02-24T08:11:28.849Z,english_957.wav,0,peel,279,25,5,3,English,m,1,0.1,-36.8236739,1.35435363
5a297877edcbca00015f351f,59,1,2024-02-24T08:11:28.849Z,english_957.wav,0,peel,279,25,5,3,English,m,2,0.2,6.68978896,0.94592229
5a297877edcbca00015f351f,59,1,2024-02-24T08:11:28.849Z,english_957.wav,0,peel,279,25,5,3,English,m,3,0.3,-85.51463088,0.8988777
5a297877edcbca00015f351f,59,1,2024-02-24T08:11:28.849Z,english_957.wav,0,peel,279,25,5,3,English,m,4,0.32341667,-16.82289389,0.34403417
5a297877edcbca00015f351f,60,1,2024-02-24T08:11:28.849Z,english_621.wav,0,peel,273,25,5,3,English,m,0,0.0,-58.25251841,1.01186344
5a297877edcbca00015f351f,60,1,2024-02-24T08:11:28.849Z,english_621.wav,0,peel,273,25,5,3,English,m,1,0.1,21.8974524,1.03560921
5a297877edcbca00015f351f,60,1,2024-02-24T08:11:28.849Z,english_621.wav,0,peel,273,25,5,3,English,m,2,0.2,-22.03552483,0.97057504
5a297877edcbca00015f351f,60,1,2024-02-24T08:11:28.849Z,english_621.wav,0,peel,273,25,5,3,English,m,3,0.3,-56.80446909,1.33131235
5a297877edcbca00015f351f,60,1,2024-02-24T08:11:28.849Z,english_621.wav,0,peel,273,25,5,3,English,m,4,0.32341667,-23.41760562,0.49151525
5a297877edcbca00015f351f,61,1,2024-02-24T08:11:28.849Z,english_518.wav,0,peel,246,25,5,3,English,m,0,0.0,52.37511869,0.23824141
5a297877edcbca00015f351f,61,1,2024-02-24T08:11:28.849Z,english_518.wav,0,peel,246,25,5,3,English,m,1,0.1,-33.3490586,0.80559068
5a297877edcbca00015f351f,61,1,2024-02-24T08:11:28.849Z,english_518.wav,0,peel,246,25,5,3,English,m,2,0.2,-71.20035434,1.24725456
5a297877edcbca00015f351f,61,1,2024-02-24T08:11:28.849Z,english_518.wav,0,peel,246,25,5,3,English,m,3,0.3,6.23243823,1.01334401
5a297877edcbca00015f351f,61,1,2024-02-24T08:11:28.849Z,english_518.wav,0,peel,246,25,5,3,English,m,4,0.32341667,-29.48660546,1.51264586
5a297877edcbca00015f351f,62,1,2024-02-24T08:11:28.849Z,english_756.wav,0,peel,200,25,5,3,English,m,0,0.0,-75.60908863,1.29894989
5a297877edcbca00015f351f,62,1,2024-02-24T08:11:28.849Z,english_756.wav,0,peel,200,25,5,3,English,m,1,0.1,-4.30259752,0.61363685
5a297877edcbca00015f351f,62,1,2024-02-24T08:11:28.849Z,english_756.wav,0,peel,200,25,5,3,English,m,2,0.2,20.94377522,1.41793961
5a297877edcbca00015f351f,62,1,2024-02-24T08:11:28.849Z,english_756.wav,0,peel,200,25,5,3,English,m,3,0.3,10.45062111,1.73528762
5a297877edcbca00015f351f,62,1,2024-02-24T08:11:28.849Z,english_756.wav,0,peel,200,25,5,3,English,m,4,0.32341667,86.50209298,0.4791473
5a297877edcbca00015f351f,63,1,2024-02-24T08:11:28.849Z,english_452.wav,0,pill,497,25,5,3,English,m,0,0.0,-15.91859121,0.16050204
5a297877edcbca00015f351f,63,1,2024-02-24T08:11:28.849Z,english_452.wav,0,pill,497,25,5,3,English,m,1,0.1,66.54493607,1.05820221
5a297877edcbca00015f351f,63,1,2024-02-24T08:11:28.849Z,english_452.wav,0,pill,497,25,5,3,English,m,2,0.2,49.2405228,1.42476674
5a297877edcbca00015f351f,63,1,2024-02-24T08:11:28.849Z,english_452.wav,0,pill,497,25,5,3,English,m,3,0.3,-8.75382859,0.48128336
5a297877edcbca00015f351f,63,1,2024-02-24T08:11:28.849Z,english_452.wav,0,pill,497,25,5,3,English,m,4,0.32341667,-35.51952716,0.52453318
5a297877edcbca00015f351f,64,1,2024-02-24T08:11:28.849Z,english_818.wav,0,peel,505,25,5,3,English,m,0,0.0,88.49542613,1.4873036
5a297877edcbca00015f351f,64,1,2024-02-24T08:11:28.849Z,english_818.wav,0,peel,505,25,5,3,English,m,1,0.1,-7.37005163,1.25102077
5a297877edcbca00015f351f,64,1,2024-02-24T08:11:28.849Z,english_818.wav,0,peel,505,25,5,3,English,m,2,0.2,-1.58613611,0.80764036
5a297877edcbca00015f351f,64,1,2024-02-24T08:11:28.849Z,english_818.wav,0,peel,505,25,5,3,English,m,3,0.3,-69.41222379,0.80656775
5a297877edcbca00015f351f,64,1,2024-02-24T08:11:28.849Z,english_818.wav,0,peel,505,25,5,3,English,m,4,0.32341667,14.01707612,1.41859799
5a297877edcbca00015f351f,65,1,2024-02-24T08:11:28.849Z,english_702.wav,0,peel,368,25,5,3,English,m,0,0.0,-19.6614881,1.13820402
5a297877edcbca00015f351f,65,1,2024-02-24T08:11:28.849Z,english_702.wav,0,peel,368,25,5,3,English,m,1,0.1,-92.60133235,1.47755069
5a297877edcbca00015f351f,65,1,2024-02-24T08:11:28.849Z,english_702.wav,0,peel,368,25,5,3,English,m,2,0.2,-18.01071493,1.33705675
5a297877edcbca00015f351f,65,1,2024-02-24T08:11:28.849Z,english_702.wav,0,peel,368,25,5,3,English,m,3,0.3,91.54675011,0.59768286
5a297877edcbca00015f351f,65,1,2024-02-24T08:11:28.849Z,english_702.wav,0,peel,368,25,5,3,English,m,4,0.32341667,23.09112348,0.82103567
5a297877edcbca00015f351f,66,1,2024-02-24T08:11:28.849Z,english_272.wav,0,peel,296,25,5,3,English,m,0,0.0,61.82030971,1.51341556
5a297877edcbca00015f351f,66,1,2024-02-24T08:11:28.849Z,english_272.wav,0,peel,296,25,5,3,English,m,1,0.1,4.16580657,0.43290826
5a297877edcbca00015f351f,66,1,2024-02-24T08:11:28.849Z,english_272.wav,0,peel,296,25,5,3,English,m,2,0.2,-53.2567432,1.82734584
5a297877edcbca00015f351f,66,1,2024-02-24T08:11:28.849Z,english_272.wav,0,peel,296,25,5,3,English,m,3,0.3,-52.99830768,0.22094446
5a297877edcbca00015f351f,66,1,2024-02-24T08:11:28.849Z,english_272.wav,0,peel,296,25,5,3,English,m,4,0.32341667,-92.9943793,1.88040337
5a297877edcbca00015f351f,67,1,2024-02-24T08:11:28.849Z,english_424.wav,0,peel,426,25,5,3,English,m,0,0.0,-7.44814198,1.7438251
5a297877edcbca00015f351f,67,1,2024-02-24T08:11:28.849Z,english_424.wav,0,peel,426,25,5,3,English,m,1,0.1,9.0703424,1.33993463
5a297877edcbca00015f351f,67,1,2024-02-24T08:11:28.849Z,english_424.wav,0,peel,426,25,5,3,English,m,2,0.2,-65.6005214,0.96535207
5a297877edcbca00015f351f,67,1,2024-02-24T08:11:28.849Z,english_424.wav,0,peel,426,25,5,3,English,m,3,0.3,79.88163057,0.39557207
5a297877edcbca00015f351f,67,1,2024-02-24T08:11:28.849Z,english_424.wav,0,peel,426,25,5,3,English,m,4,0.32341667,48.78273262,0.47346175
5a297877edcbca00015f351f,68,1,2024-02-24T08:11:28.849Z,english_644.wav,0,pill,310,25,5,3,English,m,0,0.0,21.57551932,1.87520752
5a297877edcbca00015f351f,68,1,2024-02-24T08:11:28.849Z,english_644.wav,0,pill,310,25,5,3,English,m,1,0.1,-11.98636437,1.28750901
5a297877edcbca00015f351f,68,1,2024-02-24T08:11:28.849Z,english_644.wav,0,pill,310,25,5,3,English,m,2,0.2,-86.21942338,0.33708129
5a297877edcbca00015f351f,68,1,2024-02-24T08:11:28.849Z,english_644.wav,0,pill,310,25,5,3,English,m,3,0.3,-38.98906039,1.53524213
5a297877edcbca00015f351f,68,1,2024-02-24T08:11:28.849Z,english_644.wav,0,pill,310,25,5,3,English,m,4,0.32341667,-28.58177745,0.3058721
5a297877edcbca00015f351f,69,1,2024-02-24T08:11:28.849Z,english_976.wav,0,peel,350,25,5,3,English,m,0,0.0,-92.49082032,0.30893725
5a297877edcbca00015f351f,69,1,2024-02-24T08:11:28.849Z,english_976.wav,0,peel,350,25,5,3,English,m,1,0.1,92.01562452,1.54393752
5a297877edcbca00015f351f,69,1,2024-02-24T08:11:28.849Z,english_976.wav,0,peel,350,25,5,3,English,m,2,0.2,-80.55764576,1.31466429
5a297877edcbca00015f351f,69,1,2024-02-24T08:11:28.849Z,english_976.wav,0,peel,350,25,5,3,English,m,3,0.3,-70.09009567,1.88171095
5a297877edcbca00015f351f,69,1,2024-02-24T08:11:28.849Z,english_976.wav,0,peel,350,25,5,3,English,m,4,0.32341667,-7.5394989,1.71314556
5a297877edcbca00015f351f,70,1,2024-02-24T08:11:28.849Z,english_177.wav,0,pill,448,25,5,3,English,m,0,0.0,87.98258728,1.54790065
5a297877edcbca00015f351f,70,1,2024-02-24T08:11:28.849Z,english_177.wav,0,pill,448,25,5,3,English,m,1,0.1,87.12011565,0.90861448
5a297877edcbca00015f351f,70,1,2024-02-24T08:11:28.849Z,english_177.wav,0,pill,448,25,5,3,English,m,2,0.2,-29.82518494,0.58649069
5a297877edcbca00015f351f,70,1,2024-02-24T08:11:28.849Z,english_177.wav,0,pill,448,25,5,3,English,m,3,0.3,54.38835911,0.51296238
5a297877edcbca00015f351f,70,1,2024-02-24T08:11:28.849Z,english_177.wav,0,pill,448,25,5,3,English,m,4,0.32341667,53.98423531,1.78492888
5a297877edcbca00015f351f,71,1,2024-02-24T08:11:28.849Z,english_125.wav,0,pill,398,25,5,3,English,m,0,0.0,-5.59692586,0.61478703
5a297877edcbca00015f351f,71,1,2024-02-24T08:11:28.849Z,english_125.wav,0,pill,398,25,5,3,English,m,1,0.1,45.61970603,0.5852269
5a297877edcbca00015f351f,71,1,2024-02-24T08:11:28.849Z,english_125.wav,0,pill,398,25,5,3,English,m,2,0.2,-80.48713695,1.26290546
5a297877edcbca00015f351f,71,1,2024-02-24T08:11:28.849Z,english_125.wav,0,pill,398,25,5,3,English,m,3,0.3,76.65956808,1.54178375
5a297877edcbca00015f351f,71,1,2024-02-24T08:11:28.849Z,english_125.wav,0,pill,398,25,5,3,English,m,4,0.32341667,-9.14506838,0.79261171
5a297877edcbca00015f351f,72,1,2024-02-24T08:11:28.849Z,english_90.wav,0,pill,320,25,5,3,English,m,0,0.0,82.68866707,0.54239523
5a297877edcbca00015f351f,72,1,2024-02-24T08:11:28.849Z,english_90.wav,0,pill,320,25,5,3,English,m,1,0.1,-81.25370946,1.03335699
5a297877edcbca00015f351f,72,1,2024-02-24T08:11:28.849Z,english_90.wav,0,pill,320,25,5,3,English,m,2,0.2,56.28719083,1.93576477
5a297877edcbca00015f351f,72,1,2024-02-24T08:11:28.849Z,english_90.wav,0,pill,320,25,5,3,English,m,3,0.3,-46.43338119,0.74570916
5a297877edcbca00015f351f,72,1,2024-02-24T08:11:28.849Z,english_90.wav,0,pill,320,25,5,3,English,m,4,0.32341667,-19.93520327,1.11115504
5a297877edcbca00015f351f,73,1,2024-02-24T08:11:28.849Z,english_186.wav,0,peel,596,25,5,3,English,m,0,0.0,-54.7664391,1.87021502
5a297877edcbca00015f351f,73,1,2024-02-24T08:11:28.849Z,english_186.wav,0,peel,596,25,5,3,English,m,1,0.1,-8.4263529,1.36390049
5a297877edcbca00015f351f,73,1,2024-02-24T08:11:28.849Z,english_186.wav,0,peel,596,25,5,3,English,m,2,0.2,6.22451559,1.69942617
5a297877edcbca00015f351f,73,1,2024-02-24T08:11:28.849Z,english_186.wav,0,peel,596,25,5,3,English,m,3,0.3,-12.35671223,1.8066537
5a297877edcbca00015f351f,73,1,2024-02-24T08:11:28.849Z,english_186.wav,0,peel,596,25,5,3,English,m,4,0.32341667,86.21839615,1.2511354
5a297877edcbca00015f351f,74,1,2024-02-24T08:11:28.849Z,english_353.wav,0,pill,340,25,5,3,English,m,0,0.0,51.44050484,0.16518243
5a297877edcbca00015f351f,74,1,2024-02-24T08:11:28.849Z,english_353.wav,0,pill,340,25,5,3,English,m,1,0.1,-8.32491594,1.32533476
5a297877edcbca00015f351f,74,1,2024-02-24T08:11:28.849Z,english_353.wav,0,pill,340,25,5,3,English,m,2,0.2,-53.32966552,0.41923861
5a297877edcbca00015f351f,74,1,2024-02-24T08:11:28.849Z,english_353.wav,0,pill,340,25,5,3,English,m,3,0.3,68.29246543,1.87374553
5a297877edcbca00015f351f,74,1,2024-02-24T08:11:28.849Z,english_353.wav,0,pill,340,25,5,3,English,m,4,0.32341667,-32.22441747,1.13071195
5a297877edcbca00015f351f,75,1,2024-02-24T08:11:28.849Z,english_12.wav,0,peel,1170,25,5,3,English,m,0,0.0,48.33680056,1.48429429
5a297877edcbca00015f351f,75,1,2024-02-24T08:11:28.849Z,english_12.wav,0,peel,1170,25,5,3,English,m,1,0.1,27.41870997,0.15715938
5a297877edcbca00015f351f,75,1,2024-02-24T08:11:28.849Z,english_12.wav,0,peel,1170,25,5,3,English,m,2,0.2,-39.95667364,0.62940339
5a297877edcbca00015f351f,75,1,2024-02-24T08:11:28.849Z,english_12.wav,0,peel,1170,25,5,3,English,m,3,0.3,73.52964836,0.05281398
5a297877edcbca00015f351f,75,1,2024-02-24T08:11:28.849Z,english_12.wav,0,peel,1170,25,5,3,English,m,4,0.32341667,-36.35494906,1.6412938
5a297877edcbca00015f351f,76,1,2024-02-24T08:11:28.849Z,english_692.wav,0,pill,396,25,5,3,English,m,0,0.0,-29.13306787,0.55849531
5a297877edcbca00015f351f,76,1,2024-02-24T08:11:28.849Z,english_692.wav,0,pill,396,25,5,3,English,m,1,0.1,-41.86406343,1.96517265
5a297877edcbca00015f351f,76,1,2024-02-24T08:11:28.849Z,english_692.wav,0,pill,396,25,5,3,English,m,2,0.2,-94.94051661,0.19953253
5a297877edcbca00015f351f,76,1,2024-02-24T08:11:28.849Z,english_692.wav,0,pill,396,25,5,3,English,m,3,0.3,78.40426091,1.89357941
5a297877edcbca00015f351f,76,1,2024-02-24T08:11:28.849Z,english_692.wav,0,pill,396,25,5,3,English,m,4,0.32341667,-47.11562344,1.37874109
5a297877edcbca00015f351f,77,1,2024-02-24T08:11:28.849Z,english_783.wav,0,peel,1109,25,5,3,English,m,0,0.0,23.05268069,1.49549247
5a297877edcbca00015f351f,77,1,2024-02-24T08:11:28.849Z,english_783.wav,0,peel,1109,25,5,3,English,m,1,0.1,9.36005369,0.13797177
5a297877edcbca00015f351f,77,1,2024-02-24T08:11:28.849Z,english_783.wav,0,peel,1109,25,5,3,English,m,2,0.2,62.81522218,1.80236654
5a297877edcbca00015f351f,77,1,2024-02-24T08:11:28.849Z,english_783.wav,0,peel,1109,25,5,3,English,m,3,0.3,67.71456376,0.33800471
5a297877edcbca00015f351f,77,1,2024-02-24T08:11:28.849Z,english_783.wav,0,peel,1109,25,5,3,English,m,4,0.32341667,77.96788237,1.97708045
5a297877edcbca00015f351f,78,1,2024-02-24T08:11:28.849Z,english_513.wav,0,pill,1064,25,5,3,English,m,0,0.0,76.78578212,0.02403043
5a297877edcbca00015f351f,78,1,2024-02-24T08:11:28.849Z,english_513.wav,0,pill,1064,25,5,3,English,m,1,0.1,20.42124481,0.85164369
5a297877edcbca00015f351f,78,1,2024-02-24T08:11:28.849Z,english_513.wav,0,pill,1064,25,5,3,English,m,2,0.2,83.32251122,1.08658436
5a297877edcbca00015f351f,78,1,2024-02-24T08:11:28.849Z,english_513.wav,0,pill,1064,25,5,3,English,m,3,0.3,47.28432413,0.40639055
5a297877edcbca00015f351f,78,1,2024-02-24T08:11:28.849Z,english_513.wav,0,pill,1064,25,5,3,English,m,4,0.32341667,-50.64117466,1.29336046
5a297877edcbca00015f351f,79,1,2024-02-24T08:11:28.849Z,english_708.wav,0,pill,411,25,5,3,English,m,0,0.0,-27.19248895,0.74061838
5a297877edcbca00015f351f,79,1,2024-02-24T08:11:28.849Z,english_708.wav,0,pill,411,25,5,3,English,m,1,0.1,84.25795725,1.13599963
5a297877edcbca00015f351f,79,1,2024-02-24T08:11:28.849Z,english_708.wav,0,pill,411,25,5,3,English,m,2,0.2,-19.19551503,1.10086254
5a297877edcbca00015f351f,79,1,2024-02-24T08:11:28.849Z,english_708.wav,0,pill,411,25,5,3,English,m,3,0.3,29.88012033,0.53054382
5a297877edcbca00015f351f,79,1,2024-02-24T08:11:28.849Z,english_708.wav,0,pill,411,25,5,3,English,m,4,0.32341667,46.0858662,1.51974387
5a297877edcbca00015f351f,80,1,2024-02-24T08:11:28.849Z,english_804.wav,0,pill,392,25,5,3,English,m,0,0.0,11.23319328,0.16159815
5a297877edcbca00015f351f,80,1,2024-02-24T08:11:28.849Z,english_804.wav,0,pill,392,25,5,3,English,m,1,0.1,-75.15189859,1.76023076
5a297877edcbca00015f351f,80,1,2024-02-24T08:11:28.849Z,english_804.wav,0,pill,392,25,5,3,English,m,2,0.2,5.39397939,0.7355024
5a297877edcbca00015f351f,80,1,2024-02-24T08:11:28.849Z,english_804.wav,0,pill,392,25,5,3,English,m,3,0.3,42.92141331,1.74636497
5a297877edcbca00015f351f,80,1,2024-02-24T08:11:28.849Z,english_804.wav,0,pill,392,25,5,3,English,m,4,0.32341667,-79.84726866,1.05562007
5a297877edcbca00015f351f,81,1,2024-02-24T08:11:28.849Z,english_381.wav,0,pill,481,25,5,3,English,m,0,0.0,-64.83599525,0.77808766
5a297877edcbca00015f351f,81,1,2024-02-24T08:11:28.849Z,english_381.wav,0,pill,481,25,5,3,English,m,1,0.1,97.61236857,1.62635576
5a297877edcbca00015f351f,81,1,2024-02-24T08:11:28.849Z,english_381.wav,0,pill,481,25,5,3,English,m,2,0.2,-60.27157178,0.65298664
5a297877edcbca00015f351f,81,1,2024-02-24T08:11:28.849Z,english_381.wav,0,pill,481,25,5,3,English,m,3,0.3,84.45732791,0.46881793
5a297877edcbca00015f351f,81,1,2024-02-24T08:11:28.849Z,english_381.wav,0,pill,481,25,5,3,English,m,4,0.32341667,-87.53832291,1.22836965
5a297877edcbca00015f351f,82,1,2024-02-24T08:11:28.849Z,english_281.wav,0,pill,422,25,5,3,English,m,0,0.0,-55.42099824,1.64310908
5a297877edcbca00015f351f,82,1,2024-02-24T08:11:28.849Z,english_281.wav,0,pill,422,25,5,3,English,m,1,0.1,30.44020676,0.76997124
5a297877edcbca00015f351f,82,1,2024-02-24T08:11:28.849Z,english_281.wav,0,pill,422,25,5,3,English,m,2,0.2,53.34739709,0.1940809
5a297877edcbca00015f351f,82,1,2024-02-24T08:11:28.849Z,english_281.wav,0,pill,422,25,5,3,English,m,3,0.3,-32.26512488,0.25794937
5a297877edcbca00015f351f,82,1,2024-02-24T08:11:28.849Z,english_281.wav,0,pill,422,25,5,3,English,m,4,0.32341667,-59.86883114,1.27043487
5a297877edcbca00015f351f,83,1,2024-02-24T08:11:28.849Z,english_257.wav,0,pill,434,25,5,3,English,m,0,0.0,-68.31428674,1.40239735
5a297877edcbca00015f351f,83,1,2024-02-24T08:11:28.849Z,english_257.wav,0,pill,434,25,5,3,English,m,1,0.1,-13.90908686,1.49673114
5a297877edcbca00015f351f,83,1,2024-02-24T08:11:28.849Z,english_257.wav,0,pill,434,25,5,3,English,m,2,0.2,54.08743226,1.07658057
5a297877edcbca00015f351f,83,1,2024-02-24T08:11:28.849Z,english_257.wav,0,pill,434,25,5,3,English,m,3,0.3,-42.73693867,0.27427112
5a297877edcbca00015f351f,83,1,2024-02-24T08:11:28.849Z,english_257.wav,0,pill,434,25,5,3,English,m,4,0.32341667,-1.03846516,1.90516482
5a297877edcbca00015f351f,84,1,2024-02-24T08:11:28.849Z,english_815.wav,0,peel,656,25,5,3,English,m,0,0.0,-76.1669867,0.29426078
5a297877edcbca00015f351f,84,1,2024-02-24T08:11:28.849Z,english_815.wav,0,peel,656,25,5,3,English,m,1,0.1,-40.517901,0.96858733
5a297877edcbca00015f351f,84,1,2024-02-24T08:11:28.849Z,english_815.wav,0,peel,656,25,5,3,English,m,2,0.2,-46.68959253,0.83382199
5a297877edcbca00015f351f,84,1,2024-02-24T08:11:28.849Z,english_815.wav,0,peel,656,25,5,3,English,m,3,0.3,-79.23468646,1.13727176
5a297877edcbca00015f351f,84,1,2024-02-24T08:11:28.849Z,english_815.wav,0,peel,656,25,5,3,English,m,4,0.32341667,-63.63497058,0.09357312
5a297877edcbca00015f351f,85,1,2024-02-24T08:11:28.849Z,english_246.wav,0,pill,1319,25,5,3,English,m,0,0.0,-62.23082525,0.02615808
5a297877edcbca00015f351f,85,1,2024-02-24T08:11:28.849Z,english_246.wav,0,pill,1319,25,5,3,English,m,1,0.1,59.67623932,1.52596932
5a297877edcbca00015f351f,85,1,2024-02-24T08:11:28.849Z,english_246.wav,0,pill,1319,25,5,3,English,m,2,0.2,-63.30715513,1.87080553
5a297877edcbca00015f351f,85,1,2024-02-24T08:11:28.849Z,english_246.wav,0,pill,1319,25,5,3,English,m,3,0.3,15.41118057,0.81226596
5a297877edcbca00015f351f,85,1,2024-02-24T08:11:28.849Z,english_246.wav,0,pill,1319,25,5,3,English,m,4,0.32341667,90.60814582,0.64975072
5a297877edcbca00015f351f,86,1,2024-02-24T08:11:28.849Z,english_672.wav,0,pill,440,25,5,3,English,m,0,0.0,30.04022321,0.7872581
5a297877edcbca00015f351f,86,1,2024-02-24T08:11:28.849Z,english_672.wav,0,pill,440,25,5,3,English,m,1,0.1,-49.20146972,1.24822874
5a297877edcbca00015f351f,86,1,2024-02-24T08:11:28.849Z,english_672.wav,0,pill,440,25,5,3,English,m,2,0.2,68.57510342,1.0921985
5a297877edcbca00015f351f,86,1,2024-02-24T08:11:28.849Z,english_672.wav,0,pill,440,25,5,3,English,m,3,0.3,46.99705545,1.42682896
5a297877edcbca00015f351f,86,1,2024-02-24T08:11:28.849Z,english_672.wav,0,pill,440,25,5,3,English,m,4,0.32341667,-96.75951233,0.39437363
5a297877edcbca00015f351f,87,1,2024-02-24T08:11:28.849Z,english_755.wav,0,pill,482,25,5,3,English,m,0,0.0,-15.85533995,0.06987403
5a297877edcbca00015f351f,87,1,2024-02-24T08:11:28.849Z,english_755.wav,0,pill,482,25,5,3,English,m,1,0.1,-97.95934782,0.83204773
5a297877edcbca00015f351f,87,1,2024-02-24T08:11:28.849Z,english_755.wav,0,pill,482,25,5,3,English,m,2,0.2,-5.14559719,1.06816443
5a297877edcbca00015f351f,87,1,2024-02-24T08:11:28.849Z,english_755.wav,0,pill,482,25,5,3,English,m,3,0.3,32.74087849,1.42856986
5a297877edcbca00015f351f,87,1,2024-02-24T08:11:28.849Z,english_755.wav,0,pill,482,25,5,3,English,m,4,0.32341667,-56.93437429,0.58130438
5a297877edcbca00015f351f,88,1,2024-02-24T08:11:28.849Z,english_128.wav,0,pill,545,25,5,3,English,m,0,0.0,-84.07301703,0.96445051
5a297877edcbca00015f351f,88,1,2024-02-24T08:11:28.849Z,english_128.wav,0,pill,545,25,5,3,English,m,1,0.1,0.2051398,0.77165422
5a297877edcbca00015f351f,88,1,2024-02-24T08:11:28.849Z,english_128.wav,0,pill,545,25,5,3,English,m,2,0.2,50.77588291,0.60279997
5a297877edcbca00015f351f,88,1,2024-02-24T08:11:28.849Z,english_128.wav,0,pill,545,25,5,3,English,m,3,0.3,3.27834455,0.59915485
5a297877edcbca00015f351f,88,1,2024-02-24T08:11:28.849Z,english_128.wav,0,pill,545,25,5,3,English,m,4,0.32341667,59.5943459,0.43521132
5a297877edcbca00015f351f,89,1,2024-02-24T08:11:28.849Z,english_356.wav,0,peel,310,25,5,3,English,m,0,0.0,87.74309864,0.22820547
5a297877edcbca00015f351f,89,1,2024-02-24T08:11:28.849Z,english_356.wav,0,peel,310,25,5,3,English,m,1,0.1,-4.48264388,1.49009691
5a297877edcbca00015f351f,89,1,2024-02-24T08:11:28.849Z,english_356.wav,0,peel,310,25,5,3,English,m,2,0.2,90.19031952,1.39023362
5a297877edcbca00015f351f,89,1,2024-02-24T08:11:28.849Z,english_356.wav,0,peel,310,25,5,3,English,m,3,0.3,-69.40540064,1.78473098
5a297877edcbca00015f351f,89,1,2024-02-24T08:11:28.849Z,english_356.wav,0,peel,310,25,5,3,English,m,4,0.32341667,65.10278108,0.80628385
5a297877edcbca00015f351f,90,1,2024-02-24T08:11:28.849Z,english_679.wav,0,peel,554,25,5,3,English,m,0,0.0,37.61966445,0.05085037
5a297877edcbca00015f351f,90,1,2024-02-24T08:11:28.849Z,english_679.wav,0,peel,554,25,5,3,English,m,1,0.1,51.99791738,0.83446012
5a297877edcbca00015f351f,90,1,2024-02-24T08:11:28.849Z,english_679.wav,0,peel,554,25,5,3,English,m,2,0.2,47.28862711,0.17034906
5a297877edcbca00015f351f,90,1,2024-02-24T08:11:28.849Z,english_679.wav,0,peel,554,25,5,3,English,m,3,0.3,96.96405016,1.15010704
5a297877edcbca00015f351f,90,1,2024-02-24T08:11:28.849Z,english_679.wav,0,peel,554,25,5,3,English,m,4,0.32341667,17.22990972,1.32170415
5a297877edcbca00015f351f,91,1,2024-02-24T08:11:28.849Z,english_861.wav,0,pill,392,25,5,3,English,m,0,0.0,-30.19921015,0.56503536
5a297877edcbca00015f351f,91,1,2024-02-24T08:11:28.849Z,english_861.wav,0,pill,392,25,5,3,English,m,1,0.1,75.2433288,1.43622494
5a297877edcbca00015f351f,91,1,2024-02-24T08:11:28.849Z,english_861.wav,0,pill,392,25,5,3,English,m,2,0.2,-49.47813624,1.73497671
5a297877edcbca00015f351f,91,1,2024-02-24T08:11:28.849Z,english_861.wav,0,pill,392,25,5,3,English,m,3,0.3,86.59581665,0.70763908
5a297877edcbca00015f351f,91,1,2024-02-24T08:11:28.849Z,english_861.wav,0,pill,392,25,5,3,English,m,4,0.32341667,58.40562581,1.29518241
5a297877edcbca00015f351f,92,1,2024-02-24T08:11:28.849Z,english_561.wav,0,peel,500,25,5,3,English,m,0,0.0,62.21065415,1.32725493
5a297877edcbca00015f351f,92,1,2024-02-24T08:11:28.849Z,english_561.wav,0,peel,500,25,5,3,English,m,1,0.1,-9.84770717,1.15871491
5a297877edcbca00015f351f,92,1,2024-02-24T08:11:28.849Z,english_561.wav,0,peel,500,25,5,3,English,m,2,0.2,-12.92274306,0.82816789
5a297877edcbca00015f351f,92,1,2024-02-24T08:11:28.849Z,english_561.wav,0,peel,500,25,5,3,English,m,3,0.3,16.08334811,1.72308293
5a297877edcbca00015f351f,92,1,2024-02-24T08:11:28.849Z,english_561.wav,0,peel,500,25,5,3,English,m,4,0.32341667,-22.38830035,0.72943893
5a297877edcbca00015f351f,93,1,2024-02-24T08:11:28.849Z,english_343.wav,0,pill,473,25,5,3,English,m,0,0.0,-26.15456552,0.99905336
5a297877edcbca00015f351f,93,1,2024-02-24T08:11:28.849Z,english_343.wav,0,pill,473,25,5,3,English,m,1,0.1,-4.26522308,0.59066439
5a297877edcbca00015f351f,93,1,2024-02-24T08:11:28.849Z,english_343.wav,0,pill,473,25,5,3,English,m,2,0.2,55.3227334,1.69088488
5a297877edcbca00015f351f,93,1,2024-02-24T08:11:28.849Z,english_343.wav,0,pill,473,25,5,3,English,m,3,0.3,-26.26518208,1.70645599
5a297877edcbca00015f351f,93,1,2024-02-24T08:11:28.849Z,english_343.wav,0,pill,473,25,5,3,English,m,4,0.32341667,-18.3065251,0.13143106
5a297877edcbca00015f351f,94,1,2024-02-24T08:11:28.849Z,english_731.wav,0,peel,473,25,5,3,English,m,0,0.0,91.74609406,0.2840719
5a297877edcbca00015f351f,94,1,2024-02-24T08:11:28.849Z,english_731.wav,0,peel,473,25,5,3,English,m,1,0.1,96.5637085,1.75324284
5a297877edcbca00015f351f,94,1,2024-02-24T08:11:28.849Z,english_731.wav,0,peel,473,25,5,3,English,m,2,0.2,-58.02596537,1.43086201
5a297877edcbca00015f351f,94,1,2024-02-24T08:11:28.849Z,english_731.wav,0,peel,473,25,5,3,English,m,3,0.3,21.59328018,1.68336342
5a297877edcbca00015f351f,94,1,2024-02-24T08:11:28.849Z,english_731.wav,0,peel,473,25,5,3,English,m,4,0.32341667,13.26044458,0.60031718
5a297877edcbca00015f351f,95,1,2024-02-24T08:11:28.849Z,english_195.wav,0,peel,460,25,5,3,English,m,0,0.0,88.76446124,0.85936173
5a297877edcbca00015f351f,95,1,2024-02-24T08:11:28.849Z,english_195.wav,0,peel,460,25,5,3,English,m,1,0.1,56.50909504,1.06337161
5a297877edcbca00015f351f,95,1,2024-02-24T08:11:28.849Z,english_195.wav,0,peel,460,25,5,3,English,m,2,0.2,-5.11157055,1.01766647
5a297877edcbca00015f351f,95,1,2024-02-24T08:11:28.849Z,english_195.wav,0,peel,460,25,5,3,English,m,3,0.3,14.19517065,1.03928052
5a297877edcbca00015f351f,95,1,2024-02-24T08:11:28.849Z,english_195.wav,0,peel,460,25,5,3,English,m,4,0.32341667,67.19148892,1.18131313
5a297877edcbca00015f351f,96,1,2024-02-24T08:11:28.849Z,english_986.wav,0,pill,809,25,5,3,English,m,0,0.0,36.93997263,1.7539978
5a297877edcbca00015f351f,96,1,2024-02-24T08:11:28.849Z,english_986.wav,0,pill,809,25,5,3,English,m,1,0.1,-76.80061303,1.40735445
5a297877edcbca00015f351f,96,1,2024-02-24T08:11:28.849Z,english_986.wav,0,pill,809,25,5,3,English,m,2,0.2,60.8418497,0.62226098
5a297877edcbca00015f351f,96,1,2024-02-24T08:11:28.849Z,english_986.wav,0,pill,809,25,5,3,English,m,3,0.3,-27.90828951,0.48175931
5a297877edcbca00015f351f,96,1,2024-02-24T08:11:28.849Z,english_986.wav,0,pill,809,25,5,3,English,m,4,0.32341667,99.51838141,1.5918282
5a297877edcbca00015f351f,97,1,2024-02-24T08:11:28.849Z,english_138.wav,0,pill,404,25,5,3,English,m,0,0.0,-79.80620147,0.37063564
5a297877edcbca00015f351f,97,1,2024-02-24T08:11:28.849Z,english_138.wav,0,pill,404,25,5,3,English,m,1,0.1,-15.42889109,0.81801141
5a297877edcbca00015f351f,97,1,2024-02-24T08:11:28.849Z,english_138.wav,0,pill,404,25,5,3,English,m,2,0.2,-88.31677226,0.0634538
5a297877edcbca00015f351f,97,1,2024-02-24T08:11:28.849Z,english_138.wav,0,pill,404,25,5,3,English,m,3,0.3,26.6486106,1.85131452
5a297877edcbca00015f351f,97,1,2024-02-24T08:11:28.849Z,english_138.wav,0,pill,404,25,5,3,English,m,4,0.32341667,-42.18894711,1.66059024
5a297877edcbca00015f351f,98,1,2024-02-24T08:11:28.849Z,english_771.wav,0,pill,353,25,5,3,English,m,0,0.0,52.29619013,1.65909918
5a297877edcbca00015f351f,98,1,2024-02-24T08:11:28.849Z,english_771.wav,0,pill,353,25,5,3,English,m,1,0.1,55.26271333,1.05958749
5a297877edcbca00015f351f,98,1,2024-02-24T08:11:28.849Z,english_771.wav,0,pill,353,25,5,3,English,m,2,0.2,49.2587818,1.33758239
5a297877edcbca00015f351f,98,1,2024-02-24T08:11:28.849Z,english_771.wav,0,pill,353,25,5,3,English,m,3,0.3,48.45532009,1.75478958
5a297877edcbca00015f351f,98,1,2024-02-24T08:11:28.849Z,english_771.wav,0,pill,353,25,5,3,English,m,4,0.32341667,-98.45631565,0.37013483
5a297877edcbca00015f351f,99,1,2024-02-24T08:11:28.849Z,english_369.wav,0,pill,244,25,5,3,English,m,0,0.0,-12.14177447,1.64093778
5a297877edcbca00015f351f,99,1,2024-02-24T08:11:28.849Z,english_369.wav,0,pill,244,25,5,3,English,m,1,0.1,76.29699147,1.47479283
5a297877edcbca00015f351f,99,1,2024-02-24T08:11:28.849Z,english_369.wav,0,pill,244,25,5,3,English,m,2,0.2,-85.49552365,1.31757561
5a297877edcbca00015f351f,99,1,2024-02-24T08:11:28.849Z,english_369.wav,0,pill,244,25,5,3,English,m,3,0.3,-68.94608988,1.92077404
5a297877edcbca00015f351f,99,1,2024-02-24T08:11:28.849Z,english_369.wav,0,pill,244,25,5,3,English,m,4,0.32341667,40.32615784,1.4628922
5a297877edcbca00015f351f,100,2,2024-02-24T08:11:28.849Z,english_952.wav,0,pill,492,25,5,3,English,m,0,0.0,64.91746033,1.00586425
5a297877edcbca00015f351f,100,2,2024-02-24T08:11:28.849Z,english_952.wav,0,pill,492,25,5,3,English,m,1,0.1,-25.84234774,1.28790365
5a297877edcbca00015f351f,100,2,2024-02-24T08:11:28.849Z,english_952.wav,0,pill,492,25,5,3,English,m,2,0.2,60.30097417,1.6668124
5a297877edcbca00015f351f,100,2,2024-02-24T08:11:28.849Z,english_952.wav,0,pill,492,25,5,3,English,m,3,0.3,-98.0606555,1.44616756
5a297877edcbca00015f351f,100,2,2024-02-24T08:11:28.849Z,english_952.wav,0,pill,492,25,5,3,English,m,4,0.32341667,-77.98984902,0.15831209
5a297877edcbca00015f351f,101,2,2024-02-24T08:11:28.849Z,english_161.wav,0,pill,368,25,5,3,English,m,0,0.0,16.17182642,0.80971259
5a297877edcbca00015f351f,101,2,2024-02-24T08:11:28.849Z,english_161.wav,0,pill,368,25,5,3,English,m,1,0.1,51.23408036,1.56168911
5a297877edcbca00015f351f,101,2,2024-02-24T08:11:28.849Z,english_161.wav,0,pill,368,25,5,3,English,m,2,0.2,56.55598601,0.91666403
5a297877edcbca00015f351f,101,2,2024-02-24T08:11:28.849Z,english_161.wav,0,pill,368,25,5,3,English,m,3,0.3,-25.08054758,1.93998208
5a297877edcbca00015f351f,101,2,2024-02-24T08:11:28.849Z,english_161.wav,0,pill,368,25,5,3,English,m,4,0.32341667,-70.36900789,0.76147365
5a297877edcbca00015f351f,102,2,2024-02-24T08:11:28.849Z,english_145.wav,0,pill,398,25,5,3,English,m,0,0.0,-29.75830226,1.9441914
5a297877edcbca00015f351f,102,2,2024-02-24T08:11:28.849Z,english_145.wav,0,pill,398,25,5,3,English,m,1,0.1,0.94664025,0.04744273
5a297877edcbca00015f351f,102,2,2024-02-24T08:11:28.849Z,english_145.wav,0,pill,398,25,5,3,English,m,2,0.2,-55.39340023,1.27144901
5a297877edcbca00015f351f,102,2,2024-02-24T08:11:28.849Z,english_145.wav,0,pill,398,25,5,3,English,m,3,0.3,-49.58722608,0.20842421
5a297877edcbca00015f351f,102,2,2024-02-24T08:11:28.849Z,english_145.wav,0,pill,398,25,5,3,English,m,4,0.32341667,-83.35110665,0.85478836
5a297877edcbca00015f351f,103,2,2024-02-24T08:11:28.849Z,english_434.wav,0,pill,488,25,5,3,English,m,0,0.0,-4.12787863,0.96421208
5a297877edcbca00015f351f,103,2,2024-02-24T08:11:28.849Z,english_434.wav,0,pill,488,25,5,3,English,m,1,0.1,-30.19441281,1.08561731
5a297877edcbca00015f351f,103,2,2024-02-24T08:11:28.849Z,english_434.wav,0,pill,488,25,5,3,English,m,2,0.2,41.04377471,1.46356301
5a297877edcbca00015f351f,103,2,2024-02-24T08:11:28.849Z,english_434.wav,0,pill,488,25,5,3,English,m,3,0.3,-32.43591961,0.25116585
5a297877edcbca00015f351f,103,2,2024-02-24T08:11:28.849Z,english_434.wav,0,pill,488,25,5,3,English,m,4,0.32341667,61.53108406,0.73120458
5a297877edcbca00015f351f,104,2,2024-02-24T08:11:28.849Z,english_333.wav,0,peel,517,25,5,3,English,m,0,0.0,61.26933292,0.50090252
5a297877edcbca00015f351f,104,2,2024-02-24T08:11:28.849Z,english_333.wav,0,peel,517,25,5,3,English,m,1,0.1,38.65533839,1.61630161
5a297877edcbca00015f351f,104,2,2024-02-24T08:11:28.849Z,english_333.wav,0,peel,517,25,5,3,English,m,2,0.2,-27.91605269,1.73322278
5a297877edcbca00015f351f,104,2,2024-02-24T08:11:28.849Z,english_333.wav,0,peel,517,25,5,3,English,m,3,0.3,36.00101096,0.67742762
5a297877edcbca00015f351f,104,2,2024-02-24T08:11:28.849Z,english_333.wav,0,peel,517,25,5,3,English,m,4,0.32341667,-78.35943708,0.46993908
5a297877edcbca00015f351f,105,2,2024-02-24T08:11:28.849Z,english_840.wav,0,pill,638,25,5,3,English,m,0,0.0,-27.11425843,1.31301797
5a297877edcbca00015f351f,105,2,2024-02-24T08:11:28.849Z,english_840.wav,0,pill,638,25,5,3,English,m,1,0.1,-47.31494811,0.54280133
5a297877edcbca00015f351f,105,2,2024-02-24T08:11:28.849Z,english_840.wav,0,pill,638,25,5,3,English,m,2,0.2,-88.66887426,0.14090987
5a297877edcbca00015f351f,105,2,2024-02-24T08:11:28.849Z,english_840.wav,0,pill,638,25,5,3,English,m,3,0.3,7.86940595,0.11950116
5a297877edcbca00015f351f,105,2,2024-02-24T08:11:28.849Z,english_840.wav,0,pill,638,25,5,3,English,m,4,0.32341667,87.61758205,1.48166624
5a297877edcbca00015f351f,106,2,2024-02-24T08:11:28.849Z,english_277.wav,0,pill,865,25,5,3,English,m,0,0.0,57.10742469,0.00973607
5a297877edcbca00015f351f,106,2,2024-02-24T08:11:28.849Z,english_277.wav,0,pill,865,25,5,3,English,m,1,0.1,-91.86277199,0.30409245
5a297877edcbca00015f351f,106,2,2024-02-24T08:11:28.849Z,english_277.wav,0,pill,865,25,5,3,English,m,2,0.2,15.18492706,1.04533503
5a297877edcbca00015f351f,106,2,2024-02-24T08:11:28.849Z,english_277.wav,0,pill,865,25,5,3,English,m,3,0.3,-70.52173838,1.32138987
5a297877edcbca00015f351f,106,2,2024-02-24T08:11:28.849Z,english_277.wav,0,pill,865,25,5,3,English,m,4,0.32341667,87.41438228,0.22027268
5a297877edcbca00015f351f,107,2,2024-02-24T08:11:28.849Z,english_415.wav,0,pill,524,25,5,3,English,m,0,0.0,36.00223879,1.49199547
5a297877edcbca00015f351f,107,2,2024-02-24T08:11:28.849Z,english_415.wav,0,pill,524,25,5,3,English,m,1,0.1,-82.63332374,1.79959711
5a297877edcbca00015f351f,107,2,2024-02-24T08:11:28.849Z,english_415.wav,0,pill,524,25,5,3,English,m,2,0.2,57.55038703,0.64689267
5a297877edcbca00015f351f,107,2,2024-02-24T08:11:28.849Z,english_415.wav,0,pill,524,25,5,3,English,m,3,0.3,-9.83064734,0.31881377
5a297877edcbca00015f351f,107,2,2024-02-24T08:11:28.849Z,english_415.wav,0,pill,524,25,5,3,English,m,4,0.32341667,-29.78573939,0.18568486
5a297877edcbca00015f351f,108,2,2024-02-24T08:11:28.849Z,english_267.wav,0,pill,473,25,5,3,English,m,0,0.0,-83.13365237,1.47105267
5a297877edcbca00015f351f,108,2,2024-02-24T08:11:28.849Z,english_267.wav,0,pill,473,25,5,3,English,m,1,0.1,76.30308178,0.87521108
5a297877edcbca00015f351f,108,2,2024-02-24T08:11:28.849Z,english_267.wav,0,pill,473,25,5,3,English,m,2,0.2,53.87961391,1.04060287
5a297877edcbca00015f351f,108,2,2024-02-24T08:11:28.849Z,english_267.wav,0,pill,473,25,5,3,English,m,3,0.3,62.72167491,0.25080793
5a297877edcbca00015f351f,108,2,2024-02-24T08:11:28.849Z,english_267.wav,0,pill,473,25,5,3,English,m,4,0.32341667,-33.79574379,1.11989054
5a297877edcbca00015f351f,109,2,2024-02-24T08:11:28.849Z,english_601.wav,0,pill,398,25,5,3,English,m,0,0.0,54.32401431,0.08668951
5a297877edcbca00015f351f,109,2,2024-02-24T08:11:28.849Z,english_601.wav,0,pill,398,25,5,3,English,m,1,0.1,-6.72935942,1.16468766
5a297877edcbca00015f351f,109,2,2024-02-24T08:11:28.849Z,english_601.wav,0,pill,398,25,5,3,English,m,2,0.2,39.12079493,1.8612572
5a297877edcbca00015f351f,109,2,2024-02-24T08:11:28.849Z,english_601.wav,0,pill,398,25,5,3,English,m,3,0.3,39.92141387,0.92171433
5a297877edcbca00015f351f,109,2,2024-02-24T08:11:28.849Z,english_601.wav,0,pill,398,25,5,3,English,m,4,0.32341667,-27.14681087,0.50419734
5a297877edcbca00015f351f,110,2,2024-02-24T08:11:28.849Z,english_962.wav,0,pill,448,25,5,3,English,m,0,0.0,-55.512918,1.78332996
5a297877edcbca00015f351f,110,2,2024-02-24T08:11:28.849Z,english_962.wav,0,pill,448,25,5,3,English,m,1,0.1,90.34773129,1.25956614
5a297877edcbca00015f351f,110,2,2024-02-24T08:11:28.849Z,english_962.wav,0,pill,448,25,5,3,English,m,2,0.2,-3.10818459,0.72891593
5a297877edcbca00015f351f,110,2,2024-02-24T08:11:28.849Z,english_962.wav,0,pill,448,25,5,3,English,m,3,0.3,50.27619033,1.49954356
5a297877edcbca00015f351f,110,2,2024-02-24T08:11:28.849Z,english_962.wav,0,pill,448,25,5,3,English,m,4,0.32341667,-47.3196173,0.96339983
5a297877edcbca00015f351f,111,2,2024-02-24T08:11:28.849Z,english_436.wav,0,pill,491,25,5,3,English,m,0,0.0,58.73131257,0.30497449
5a297877edcbca00015f351f,111,2,2024-02-24T08:11:28.849Z,english_436.wav,0,pill,491,25,5,3,English,m,1,0.1,65.29204538,1.04665744
5a297877edcbca00015f351f,111,2,2024-02-24T08:11:28.849Z,english_436.wav,0,pill,491,25,5,3,English,m,2,0.2,7.63213906,1.03883923
5a297877edcbca00015f351f,111,2,2024-02-24T08:11:28.849Z,english_436.wav,0,pill,491,25,5,3,English,m,3,0.3,-2.54756362,0.97345352
5a297877edcbca00015f351f,111,2,2024-02-24T08:11:28.849Z,english_436.wav,0,pill,491,25,5,3,English,m,4,0.32341667,-11.40614268,0.16121918
5a297877edcbca00015f351f,112,2,2024-02-24T08:11:28.849Z,english_391.wav,0,pill,626,25,5,3,English,m,0,0.0,67.64906061,0.41951577
5a297877edcbca00015f351f,112,2,2024-02-24T08:11:28.849Z,english_391.wav,0,pill,626,25,5,3,English,m,1,0.1,79.28195584,0.03526883
5a297877edcbca00015f351f,112,2,2024-02-24T08:11:28.849Z,english_391.wav,0,pill,626,25,5,3,English,m,2,0.2,62.27299227,0.81828659
5a297877edcbca00015f351f,112,2,2024-02-24T08:11:28.849Z,english_391.wav,0,pill,626,25,5,3,English,m,3,0.3,-11.10764883,1.2900604
5a297877edcbca00015f351f,112,2,2024-02-24T08:11:28.849Z,english_391.wav,0,pill,626,25,5,3,English,m,4,0.32341667,57.41338752,1.95373865
5a297877edcbca00015f351f,113,2,2024-02-24T08:11:28.849Z,english_157.wav,0,pill,341,25,5,3,English,m,0,0.0,-74.01864956,1.10168906
5a297877edcbca00015f351f,113,2,2024-02-24T08:11:28.849Z,english_157.wav,0,pill,341,25,5,3,English,m,1,0.1,1.44529667,1.71225259
5a297877edcbca00015f351f,113,2,2024-02-24T08:11:28.849Z,english_157.wav,0,pill,341,25,5,3,English,m,2,0.2,-42.76251303,1.71884561
5a297877edcbca00015f351f,113,2,2024-02-24T08:11:28.849Z,english_157.wav,0,pill,341,25,5,3,English,m,3,0.3,-49.01483239,1.47822148
5a297877edcbca00015f351f,113,2,2024-02-24T08:11:28.849Z,english_157.wav,0,pill,341,25,5,3,English,m,4,0.32341667,-96.85595697,1.36273156
5a297877edcbca00015f351f,114,2,2024-02-24T08:11:28.849Z,english_824.wav,0,peel,584,25,5,3,English,m,0,0.0,80.46503136,1.43025592
5a297877edcbca00015f351f,114,2,2024-02-24T08:11:28.849Z,english_824.wav,0,peel,584,25,5,3,English,m,1,0.1,-48.668347,0.89138167
5a297877edcbca00015f351f,114,2,2024-02-24T08:11:28.849Z,english_824.wav,0,peel,584,25,5,3,English,m,2,0.2,37.27765876,1.91281619
5a297877edcbca00015f351f,114,2,2024-02-24T08:11:28.849Z,english_824.wav,0,peel,584,25,5,3,English,m,3,0.3,-91.29945309,0.71335031
5a297877edcbca00015f351f,114,2,2024-02-24T08:11:28.849Z,english_824.wav,0,peel,584,25,5,3,English,m,4,0.32341667,14.46507007,0.89780818
5a297877edcbca00015f351f,115,2,2024-02-24T08:11:28.849Z,english_704.wav,0,peel,336,25,5,3,English,m,0,0.0,-24.48288207,0.92043902
5a297877edcbca00015f351f,115,2,2024-02-24T08:11:28.849Z,english_704.wav,0,peel,336,25,5,3,English,m,1,0.1,-9.94163531,0.96595902
5a297877edcbca00015f351f,115,2,2024-02-24T08:11:28.849Z,english_704.wav,0,peel,336,25,5,3,English,m,2,0.2,74.85271107,1.40327859
5a297877edcbca00015f351f,115,2,2024-02-24T08:11:28.849Z,english_704.wav,0,peel,336,25,5,3,English,m,3,0.3,-38.44921803,1.07325586
5a297877edcbca00015f351f,115,2,2024-02-24T08:11:28.849Z,english_704.wav,0,peel,336,25,5,3,English,m,4,0.32341667,-21.20994959,1.87555588
5a297877edcbca00015f351f,116,2,2024-02-24T08:11:28.849Z,english_660.wav,0,peel,550,25,5,3,English,m,0,0.0,-18.17224728,0.25133372
5a297877edcbca00015f351f,116,2,2024-02-24T08:11:28.849Z,english_660.wav,0,peel,550,25,5,3,English,m,1,0.1,-51.94390165,0.1756709
5a297877edcbca00015f351f,116,2,2024-02-24T08:11:28.849Z,english_660.wav,0,peel,550,25,5,3,English,m,2,0.2,-79.57293034,0.660284
5a297877edcbca00015f351f,116,2,2024-02-24T08:11:28.849Z,english_660.wav,0,peel,550,25,5,3,English,m,3,0.3,67.99606973,1.08301436
5a297877edcbca00015f351f,116,2,2024-02-24T08:11:28.849Z,english_660.wav,0,peel,550,25,5,3,English,m,4,0.32341667,-2.00416122,0.81155284
5a297877edcbca00015f351f,117,2,2024-02-24T08:11:28.849Z,english_863.wav,0,pill,346,25,5,3,English,m,0,0.0,52.03013683,1.83111202
5a297877edcbca00015f351f,117,2,2024-02-24T08:11:28.849Z,english_863.wav,0,pill,346,25,5,3,English,m,1,0.1,21.53783975,0.9779226
5a297877edcbca00015f351f,117,2,2024-02-24T08:11:28.849Z,english_863.wav,0,pill,346,25,5,3,English,m,2,0.2,-42.8061331,1.19089157
5a297877edcbca00015f351f,117,2,2024-02-24T08:11:28.849Z,english_863.wav,0,pill,346,25,5,3,English,m,3,0.3,-9.69253087,0.269847
5a297877edcbca00015f351f,117,2,2024-02-24T08:11:28.849Z,english_863.wav,0,pill,346,25,5,3,English,m,4,0.32341667,56.44290307,0.87913369
5a297877edcbca00015f351f,118,2,2024-02-24T08:11:28.849Z,english_116.wav,0,peel,402,25,5,3,English,m,0,0.0,47.3382154,1.30986561
5a297877edcbca00015f351f,118,2,2024-02-24T08:11:28.849Z,english_116.wav,0,peel,402,25,5,3,English,m,1,0.1,-82.57412589,0.36649927
5a297877edcbca00015f351f,118,2,2024-02-24T08:11:28.849Z,english_116.wav,0,peel,402,25,5,3,English,m,2,0.2,24.81754674,1.53598436
5a297877edcbca00015f351f,118,2,2024-02-24T08:11:28.849Z,english_116.wav,0,peel,402,25,5,3,English,m,3,0.3,61.93416492,1.65694634
5a297877edcbca00015f351f,118,2,2024-02-24T08:11:28.849Z,english_116.wav,0,peel,402,25,5,3,English,m,4,0.32341667,-97.8286579,0.40343631
5a297877edcbca00015f351f,119,2,2024-02-24T08:11:28.849Z,english_968.wav,0,pill,388,25,5,3,English,m,0,0.0,-36.76350372,0.52322451
5a297877edcbca00015f351f,119,2,2024-02-24T08:11:28.849Z,english_968.wav,0,pill,388,25,5,3,English,m,1,0.1,-99.8991193,0.66419732
5a297877edcbca00015f351f,119,2,2024-02-24T08:11:28.849Z,english_968.wav,0,pill,388,25,5,3,English,m,2,0.2,27.503089,0.44232096
5a297877edcbca00015f351f,119,2,2024-02-24T08:11:28.849Z,english_968.wav,0,pill,388,25,5,3,English,m,3,0.3,-34.85106147,1.90778707
5a297877edcbca00015f351f,119,2,2024-02-24T08:11:28.849Z,english_968.wav,0,pill,388,25,5,3,English,m,4,0.32341667,68.2869663,0.59652698
5a297877edcbca00015f351f,120,2,2024-02-24T08:11:28.849Z,english_984.wav,0,peel,536,25,5,3,English,m,0,0.0,-4.00148485,1.68596177
5a297877edcbca00015f351f,120,2,2024-02-24T08:11:28.849Z,english_984.wav,0,peel,536,25,5,3,English,m,1,0.1,26.28173365,0.06678014
5a297877edcbca00015f351f,120,2,2024-02-24T08:11:28.849Z,english_984.wav,0,peel,536,25,5,3,English,m,2,0.2,80.79042683,0.65490985
5a297877edcbca00015f351f,120,2,2024-02-24T08:11:28.849Z,english_984.wav,0,peel,536,25,5,3,English,m,3,0.3,94.69131331,0.57269921
5a297877edcbca00015f351f,120,2,2024-02-24T08:11:28.849Z,english_984.wav,0,peel,536,25,5,3,English,m,4,0.32341667,75.17511154,0.71264295
5a297877edcbca00015f351f,121,2,2024-02-24T08:11:28.849Z,english_830.wav,0,pill,378,25,5,3,English,m,0,0.0,2.63258607,0.89301132
5a297877edcbca00015f351f,121,2,2024-02-24T08:11:28.849Z,english_830.wav,0,pill,378,25,5,3,English,m,1,0.1,-31.8387274,1.32560067
5a297877edcbca00015f351f,121,2,2024-02-24T08:11:28.849Z,english_830.wav,0,pill,378,25,5,3,English,m,2,0.2,-6.78563658,1.08718884
5a297877edcbca00015f351f,121,2,2024-02-24T08:11:28.849Z,english_830.wav,0,pill,378,25,5,3,English,m,3,0.3,-57.52390495,0.53430446
5a297877edcbca00015f351f,121,2,2024-02-24T08:11:28.849Z,english_830.wav,0,pill,378,25,5,3,English,m,4,0.32341667,51.13575953,0.53816607
5a297877edcbca00015f351f,122,2,2024-02-24T08:11:28.849Z,english_287.wav,0,pill,520,25,5,3,English,m,0,0.0,-5.71925808,1.04112926
5a297877edcbca00015f351f,122,2,2024-02-24T08:11:28.849Z,english_287.wav,0,pill,520,25,5,3,English,m,1,0.1,-94.78041007,0.35149142
5a297877edcbca00015f351f,122,2,2024-02-24T08:11:28.849Z,english_287.wav,0,pill,520,25,5,3,English,m,2,0.2,8.34641368,0.86781598
5a297877edcbca00015f351f,122,2,2024-02-24T08:11:28.849Z,english_287.wav,0,pill,520,25,5,3,English,m,3,0.3,36.34893025,1.897904
5a297877edcbca00015f351f,122,2,2024-02-24T08:11:28.849Z,english_287.wav,0,pill,520,25,5,3,English,m,4,0.32341667,-22.47689594,0.5607403
5a297877edcbca00015f351f,123,2,2024-02-24T08:11:28.849Z,english_280.wav,0,pill,748,25,5,3,English,m,0,0.0,88.60957906,0.0301642
5a297877edcbca00015f351f,123,2,2024-02-24T08:11:28.849Z,english_280.wav,0,pill,748,25,5,3,English,m,1,0.1,84.68226706,1.61205195
5a297877edcbca00015f351f,123,2,2024-02-24T08:11:28.849Z,english_280.wav,0,pill,748,25,5,3,English,m,2,0.2,-77.43679957,1.42137195
5a297877edcbca00015f351f,123,2,2024-02-24T08:11:28.849Z,english_280.wav,0,pill,748,25,5,3,English,m,3,0.3,45.11946934,1.73240953
5a297877edcbca00015f351f,123,2,2024-02-24T08:11:28.849Z,english_280.wav,0,pill,748,25,5,3,English,m,4,0.32341667,-36.96988582,0.09602122
5a297877edcbca00015f351f,124,2,2024-02-24T08:11:28.849Z,english_302.wav,0,pill,789,25,5,3,English,m,0,0.0,-63.95927305,1.3663617
5a297877edcbca00015f351f,124,2,2024-02-24T08:11:28.849Z,english_302.wav,0,pill,789,25,5,3,English,m,1,0.1,-82.44028643,1.24112643
5a297877edcbca00015f351f,124,2,2024-02-24T08:11:28.849Z,english_302.wav,0,pill,789,25,5,3,English,m,2,0.2,-63.33590257,1.83999602
5a297877edcbca00015f351f,124,2,2024-02-24T08:11:28.849Z,english_302.wav,0,pill,789,25,5,3,English,m,3,0.3,-82.33590521,0.89576132
5a297877edcbca00015f351f,124,2,2024-02-24T08:11:28.849Z,english_302.wav,0,pill,789,25,5,3,English,m,4,0.32341667,-77.43124585,1.51483357
5a297877edcbca00015f351f,125,2,2024-02-24T08:11:28.849Z,english_191.wav,0,pill,418,25,5,3,English,m,0,0.0,5.22709543,0.24693927
5a297877edcbca00015f351f,125,2,2024-02-24T08:11:28.849Z,english_191.wav,0,pill,418,25,5,3,English,m,1,0.1,-51.29785688,1.61528443
5a297877edcbca00015f351f,125,2,2024-02-24T08:11:28.849Z,english_191.wav,0,pill,418,25,5,3,English,m,2,0.2,14.39503603,0.10158113
5a297877edcbca00015f351f,125,2,2024-02-24T08:11:28.849Z,english_191.wav,0,pill,418,25,5,3,English,m,3,0.3,60.50312404,1.02883866
5a297877edcbca00015f351f,125,2,2024-02-24T08:11:28.849Z,english_191.wav,0,pill,418,25,5,3,English,m,4,0.32341667,68.15927452,0.69870432
5a297877edcbca00015f351f,126,2,2024-02-24T08:11:28.849Z,english_385.wav,0,pill,1004,25,5,3,English,m,0,0.0,-55.07910634,1.75648555
5a297877edcbca00015f351f,126,2,2024-02-24T08:11:28.849Z,english_385.wav,0,pill,1004,25,5,3,English,m,1,0.1,-94.47680079,1.20856462
5a297877edcbca00015f351f,126,2,2024-02-24T08:11:28.849Z,english_385.wav,0,pill,1004,25,5,3,English,m,2,0.2,38.70414457,0.98103352
5a297877edcbca00015f351f,126,2,2024-02-24T08:11:28.849Z,english_385.wav,0,pill,1004,25,5,3,English,m,3,0.3,-46.17691,1.45745263
5a297877edcbca00015f351f,126,2,2024-02-24T08:11:28.849Z,english_385.wav,0,pill,1004,25,5,3,English,m,4,0.32341667,2.5941508,0.88353815
5a297877edcbca00015f351f,127,2,2024-02-24T08:11:28.849Z,english_162.wav,0,pill,476,25,5,3,English,m,0,0.0,-93.72635155,0.46304305
5a297877edcbca00015f351f,127,2,2024-02-24T08:11:28.849Z,english_162.wav,0,pill,476,25,5,3,English,m,1,0.1,-77.68974918,1.90149112
5a297877edcbca00015f351f,127,2,2024-02-24T08:11:28.849Z,english_162.wav,0,pill,476,25,5,3,English,m,2,0.2,15.19581884,1.02605911
5a297877edcbca00015f351f,127,2,2024-02-24T08:11:28.849Z,english_162.wav,0,pill,476,25,5,3,English,m,3,0.3,64.44828449,1.67084882
5a297877edcbca00015f351f,127,2,2024-02-24T08:11:28.849Z,english_162.wav,0,pill,476,25,5,3,English,m,4,0.32341667,-98.3856278,0.11792656
5a297877edcbca00015f351f,128,2,2024-02-24T08:11:28.849Z,english_608.wav,0,pill,356,25,5,3,English,m,0,0.0,78.8022196,1.54390555
5a297877edcbca00015f351f,128,2,2024-02-24T08:11:28.849Z,english_608.wav,0,pill,356,25,5,3,English,m,1,0.1,59.03316834,1.36513164
5a297877edcbca00015f351f,128,2,2024-02-24T08:11:28.849Z,english_608.wav,0,pill,356,25,5,3,English,m,2,0.2,-13.94961152,0.78716897
5a297877edcbca00015f351f,128,2,2024-02-24T08:11:28.849Z,english_608.wav,0,pill,356,25,5,3,English,m,3,0.3,55.83681575,1.29889886
5a297877edcbca00015f351f,128,2,2024-02-24T08:11:28.849Z,english_608.wav,0,pill,356,25,5,3,English,m,4,0.32341667,-13.77656228,0.44376749
5a297877edcbca00015f351f,129,2,2024-02-24T08:11:28.849Z,english_86.wav,0,peel,365,25,5,3,English,m,0,0.0,-48.59393833,1.45450552
5a297877edcbca00015f351f,129,2,2024-02-24T08:11:28.849Z,english_86.wav,0,peel,365,25,5,3,English,m,1,0.1,77.37095157,1.8635573
5a297877edcbca00015f351f,129,2,2024-02-24T08:11:28.849Z,english_86.wav,0,peel,365,25,5,3,English,m,2,0.2,44.19816726,1.174515
5a297877edcbca00015f351f,129,2,2024-02-24T08:11:28.849Z,english_86.wav,0,peel,365,25,5,3,English,m,3,0.3,-99.780271,1.46785746
5a297877edcbca00015f351f,129,2,2024-02-24T08:11:28.849Z,english_86.wav,0,peel,365,25,5,3,English,m,4,0.32341667,38.96545556,0.99607158
5a297877edcbca00015f351f,130,2,2024-02-24T08:11:28.849Z,english_799.wav,0,peel,366,25,5,3,English,m,0,0.0,-48.4958847,1.9233431
5a297877edcbca00015f351f,130,2,2024-02-24T08:11:28.849Z,english_799.wav,0,peel,366,25,5,3,English,m,1,0.1,-9.52866418,1.11542891
5a297877edcbca00015f351f,130,2,2024-02-24T08:11:28.849Z,english_799.wav,0,peel,366,25,5,3,English,m,2,0.2,1.94176449,0.95865462
5a297877edcbca00015f351f,130,2,2024-02-24T08:11:28.849Z,english_799.wav,0,peel,366,25,5,3,English,m,3,0.3,5.71676827,0.6616034
5a297877edcbca00015f351f,130,2,2024-02-24T08:11:28.849Z,english_799.wav,0,peel,366,25,5,3,English,m,4,0.32341667,30.27282792,1.91183458
5a297877edcbca00015f351f,131,2,2024-02-24T08:11:28.849Z,english_524.wav,0,peel,469,25,5,3,English,m,0,0.0,-67.97449296,0.75247726
5a297877edcbca00015f351f,131,2,2024-02-24T08:11:28.849Z,english_524.wav,0,peel,469,25,5,3,English,m,1,0.1,11.07328714,0.25589602
5a297877edcbca00015f351f,131,2,2024-02-24T08:11:28.849Z,english_524.wav,0,peel,469,25,5,3,English,m,2,0.2,-43.89657964,0.70559599
5a297877edcbca00015f351f,131,2,2024-02-24T08:11:28.849Z,english_524.wav,0,peel,469,25,5,3,English,m,3,0.3,-41.15015074,0.70218971
5a297877edcbca00015f351f,131,2,2024-02-24T08:11:28.849Z,english_524.wav,0,peel,469,25,5,3,English,m,4,0.32341667,-33.76804681,0.11352048
5a297877edcbca00015f351f,132,2,2024-02-24T08:11:28.849Z,english_675.wav,0,peel,374,25,5,3,English,m,0,0.0,-31.75128323,1.35198954
5a297877edcbca00015f351f,132,2,2024-02-24T08:11:28.849Z,english_675.wav,0,peel,374,25,5,3,English,m,1,0.1,60.52679753,1.32787853
5a297877edcbca00015f351f,132,2,2024-02-24T08:11:28.849Z,english_675.wav,0,peel,374,25,5,3,English,m,2,0.2,-22.8835824,1.57632911
5a297877edcbca00015f351f,132,2,2024-02-24T08:11:28.849Z,english_675.wav,0,peel,374,25,5,3,English,m,3,0.3,-6.32596177,0.80140737
5a297877edcbca00015f351f,132,2,2024-02-24T08:11:28.849Z,english_675.wav,0,peel,374,25,5,3,English,m,4,0.32341667,-61.06491024,0.99818917
5a297877edcbca00015f351f,133,2,2024-02-24T08:11:28.849Z,english_41.wav,0,peel,1017,25,5,3,English,m,0,0.0,42.21237724,0.98996482
5a297877edcbca00015f351f,133,2,2024-02-24T08:11:28.849Z,english_41.wav,0,peel,1017,25,5,3,English,m,1,0.1,33.8271633,0.77076848
5a297877edcbca00015f351f,133,2,2024-02-24T08:11:28.849Z,english_41.wav,0,peel,1017,25,5,3,English,m,2,0.2,20.96644351,0.37402384
5a297877edcbca00015f351f,133,2,2024-02-24T08:11:28.849Z,english_41.wav,0,peel,1017,25,5,3,English,m,3,0.3,-53.61985723,1.98545705
5a297877edcbca00015f351f,133,2,2024-02-24T08:11:28.849Z,english_41.wav,0,peel,1017,25,5,3,English,m,4,0.32341667,-55.68725705,1.53352273
5a297877edcbca00015f351f,134,2,2024-02-24T08:11:28.849Z,english_249.wav,0,peel,422,25,5,3,English,m,0,0.0,78.40227579,1.91339694
5a297877edcbca00015f351f,134,2,2024-02-24T08:11:28.849Z,english_249.wav,0,peel,422,25,5,3,English,m,1,0.1,-55.1129652,1.00834957
5a297877edcbca00015f351f,134,2,2024-02-24T08:11:28.849Z,english_249.wav,0,peel,422,25,5,3,English,m,2,0.2,6.74447168,0.29418026
5a297877edcbca00015f351f,134,2,2024-02-24T08:11:28.849Z,english_249.wav,0,peel,422,25,5,3,English,m,3,0.3,27.3376716,1.53256547
5a297877edcbca00015f351f,134,2,2024-02-24T08:11:28.849Z,english_249.wav,0,peel,422,25,5,3,English,m,4,0.32341667,-97.08031886,0.99264532
5a297877edcbca00015f351f,135,2,2024-02-24T08:11:28.849Z,english_860.wav,0,peel,430,25,5,3,English,m,0,0.0,10.25066679,1.47817545
5a297877edcbca00015f351f,135,2,2024-02-24T08:11:28.849Z,english_860.wav,0,peel,430,25,5,3,English,m,1,0.1,55.87909831,1.32859058
5a297877edcbca00015f351f,135,2,2024-02-24T08:11:28.849Z,english_860.wav,0,peel,430,25,5,3,English,m,2,0.2,81.09373959,0.99201561
5a297877edcbca00015f351f,135,2,2024-02-24T08:11:28.849Z,english_860.wav,0,peel,430,25,5,3,English,m,3,0.3,15.52286826,0.3312489
5a297877edcbca00015f351f,135,2,2024-02-24T08:11:28.849Z,english_860.wav,0,peel,430,25,5,3,English,m,4,0.32341667,58.18702512,0.66001743
5a297877edcbca00015f351f,136,2,2024-02-24T08:11:28.849Z,english_898.wav,0,peel,343,25,5,3,English,m,0,0.0,77.23607787,0.41308158
5a297877edcbca00015f351f,136,2,2024-02-24T08:11:28.849Z,english_898.wav,0,peel,343,25,5,3,English,m,1,0.1,-36.99854877,1.59324842
5a297877edcbca00015f351f,136,2,2024-02-24T08:11:28.849Z,english_898.wav,0,peel,343,25,5,3,English,m,2,0.2,16.09723403,1.42339693
5a297877edcbca00015f351f,136,2,2024-02-24T08:11:28.849Z,english_898.wav,0,peel,343,25,5,3,English,m,3,0.3,29.12208023,1.17478291
5a297877edcbca00015f351f,136,2,2024-02-24T08:11:28.849Z,english_898.wav,0,peel,343,25,5,3,English,m,4,0.32341667,-69.45423228,1.88393163
5a297877edcbca00015f351f,137,2,2024-02-24T08:11:28.849Z,english_827.wav,0,peel,370,25,5,3,English,m,0,0.0,-49.24128803,1.70838213
5a297877edcbca00015f351f,137,2,2024-02-24T08:11:28.849Z,english_827.wav,0,peel,370,25,5,3,English,m,1,0.1,62.6158679,0.88048656
5a297877edcbca00015f351f,137,2,2024-02-24T08:11:28.849Z,english_827.wav,0,peel,370,25,5,3,English,m,2,0.2,-85.72053716,1.47530841
5a297877edcbca00015f351f,137,2,2024-02-24T08:11:28.849Z,english_827.wav,0,peel,370,25,5,3,English,m,3,0.3,-65.54354982,0.04991031
5a297877edcbca00015f351f,137,2,2024-02-24T08:11:28.849Z,english_827.wav,0,peel,370,25,5,3,English,m,4,0.32341667,-42.30235352,0.1531298
5a297877edcbca00015f351f,138,2,2024-02-24T08:11:28.849Z,english_130.wav,0,pill,417,25,5,3,English,m,0,0.0,-27.4951122,0.83907871
5a297877edcbca00015f351f,138,2,2024-02-24T08:11:28.849Z,english_130.wav,0,pill,417,25,5,3,English,m,1,0.1,-38.07775804,1.38560413
5a297877edcbca00015f351f,138,2,2024-02-24T08:11:28.849Z,english_130.wav,0,pill,417,25,5,3,English,m,2,0.2,-9.69340922,0.50531735
5a297877edcbca00015f351f,138,2,2024-02-24T08:11:28.849Z,english_130.wav,0,pill,417,25,5,3,English,m,3,0.3,-88.09187015,0.53414674
5a297877edcbca00015f351f,138,2,2024-02-24T08:11:28.849Z,english_130.wav,0,pill,417,25,5,3,English,m,4,0.32341667,-47.45461314,1.10107345
5a297877edcbca00015f351f,139,2,2024-02-24T08:11:28.849Z,english_562.wav,0,pill,391,25,5,3,English,m,0,0.0,-40.22672309,0.64031882
5a297877edcbca00015f351f,139,2,2024-02-24T08:11:28.849Z,english_562.wav,0,pill,391,25,5,3,English,m,1,0.1,77.961849,0.7637006
5a297877edcbca00015f351f,139,2,2024-02-24T08:11:28.849Z,english_562.wav,0,pill,391,25,5,3,English,m,2,0.2,25.52463525,0.87632482
5a297877edcbca00015f351f,139,2,2024-02-24T08:11:28.849Z,english_562.wav,0,pill,391,25,5,3,English,m,3,0.3,84.62788358,0.98972612
5a297877edcbca00015f351f,139,2,2024-02-24T08:11:28.849Z,english_562.wav,0,pill,391,25,5,3,English,m,4,0.32341667,-53.67427145,0.74010285
5a297877edcbca00015f351f,140,2,2024-02-24T08:11:28.849Z,english_14.wav,0,pill,386,25,5,3,English,m,0,0.0,98.00979643,0.92494293
5a297877edcbca00015f351f,140,2,2024-02-24T08:11:28.849Z,english_14.wav,0,pill,386,25,5,3,English,m,1,0.1,-39.90204919,0.80403915
5a297877edcbca00015f351f,140,2,2024-02-24T08:11:28.849Z,english_14.wav,0,pill,386,25,5,3,English,m,2,0.2,51.0517473,0.29426005
5a297877edcbca00015f351f,140,2,2024-02-24T08:11:28.849Z,english_14.wav,0,pill,386,25,5,3,English,m,3,0.3,-8.39716694,0.14957292
5a297877edcbca00015f351f,140,2,2024-02-24T08:11:28.849Z,english_14.wav,0,pill,386,25,5,3,English,m,4,0.32341667,82.54419716,0.1717279
5a297877edcbca00015f351f,141,2,2024-02-24T08:11:28.849Z,english_711.wav,0,pill,325,25,5,3,English,m,0,0.0,40.88671478,0.99029016
5a297877edcbca00015f351f,141,2,2024-02-24T08:11:28.849Z,english_711.wav,0,pill,325,25,5,3,English,m,1,0.1,9.07407961,0.54320223
5a297877edcbca00015f351f,141,2,2024-02-24T08:11:28.849Z,english_711.wav,0,pill,325,25,5,3,English,m,2,0.2,-23.01321115,1.60107
5a297877edcbca00015f351f,141,2,2024-02-24T08:11:28.849Z,english_711.wav,0,pill,325,25,5,3,English,m,3,0.3,-10.85681813,1.574764
5a297877edcbca00015f351f,141,2,2024-02-24T08:11:28.849Z,english_711.wav,0,pill,325,25,5,3,English,m,4,0.32341667,87.87195083,1.34863725
5a297877edcbca00015f351f,142,2,2024-02-24T08:11:28.849Z,english_842.wav,0,pill,384,25,5,3,English,m,0,0.0,-48.5952207,0.12382156
5a297877edcbca00015f351f,142,2,2024-02-24T08:11:28.849Z,english_842.wav,0,pill,384,25,5,3,English,m,1,0.1,29.19485822,1.75564688
5a297877edcbca00015f351f,142,2,2024-02-24T08:11:28.849Z,english_842.wav,0,pill,384,25,5,3,English,m,2,0.2,84.54328152,0.24815543
5a297877edcbca00015f351f,142,2,2024-02-24T08:11:28.849Z,english_842.wav,0,pill,384,25,5,3,English,m,3,0.3,69.99994667,1.2885643
5a297877edcbca00015f351f,142,2,2024-02-24T08:11:28.849Z,english_842.wav,0,pill,384,25,5,3,English,m,4,0.32341667,56.72069463,0.70518165
5a297877edcbca00015f351f,143,2,2024-02-24T08:11:28.849Z,english_590.wav,0,peel,445,25,5,3,English,m,0,0.0,-36.198224,1.58650853
5a297877edcbca00015f351f,143,2,2024-02-24T08:11:28.849Z,english_590.wav,0,peel,445,25,5,3,English,m,1,0.1,-81.6019347,0.24081988
5a297877edcbca00015f351f,143,2,2024-02-24T08:11:28.849Z,english_590.wav,0,peel,445,25,5,3,English,m,2,0.2,23.00860846,0.40073912
5a297877edcbca00015f351f,143,2,2024-02-24T08:11:28.849Z,english_590.wav,0,peel,445,25,5,3,English,m,3,0.3,-40.72667736,0.83686248
5a297877edcbca00015f351f,143,2,2024-02-24T08:11:28.849Z,english_590.wav,0,peel,445,25,5,3,English,m,4,0.32341667,31.06175796,1.43958247
5a297877edcbca00015f351f,144,2,2024-02-24T08:11:28.849Z,english_555.wav,0,peel,1250,25,5,3,English,m,0,0.0,69.49762262,1.08530069
5a297877edcbca00015f351f,144,2,2024-02-24T08:11:28.849Z,english_555.wav,0,peel,1250,25,5,3,English,m,1,0.1,42.72159746,0.99979939
5a297877edcbca00015f351f,144,2,2024-02-24T08:11:28.849Z,english_555.wav,0,peel,1250,25,5,3,English,m,2,0.2,96.74773092,1.75882447
5a297877edcbca00015f351f,144,2,2024-02-24T08:11:28.849Z,english_555.wav,0,peel,1250,25,5,3,English,m,3,0.3,-27.92411753,1.36775981
5a297877edcbca00015f351f,144,2,2024-02-24T08:11:28.849Z,english_555.wav,0,peel,1250,25,5,3,English,m,4,0.32341667,33.93273626,0.90104071
5a297877edcbca00015f351f,145,2,2024-02-24T08:11:28.849Z,english_220.wav,0,peel,390,25,5,3,English,m,0,0.0,-49.83323752,1.6244524
5a297877edcbca00015f351f,145,2,2024-02-24T08:11:28.849Z,english_220.wav,0,peel,390,25,5,3,English,m,1,0.1,49.13629021,0.7812698
5a297877edcbca00015f351f,145,2,2024-02-24T08:11:28.849Z,english_220.wav,0,peel,390,25,5,3,English,m,2,0.2,10.673463,1.29736816
5a297877edcbca00015f351f,145,2,2024-02-24T08:11:28.849Z,english_220.wav,0,peel,390,25,5,3,English,m,3,0.3,-2.35218347,1.3419496
5a297877edcbca00015f351f,145,2,2024-02-24T08:11:28.849Z,english_220.wav,0,peel,390,25,5,3,English,m,4,0.32341667,-2.61587219,1.06575232
5a297877edcbca00015f351f,146,2,2024-02-24T08:11:28.849Z,english_255.wav,0,pill,431,25,5,3,English,m,0,0.0,-42.74550593,1.65518669
5a297877edcbca00015f351f,146,2,2024-02-24T08:11:28.849Z,english_255.wav,0,pill,431,25,5,3,English,m,1,0.1,35.44578771,1.85823386
5a297877edcbca00015f351f,146,2,2024-02-24T08:11:28.849Z,english_255.wav,0,pill,431,25,5,3,English,m,2,0.2,98.7346041,1.2123315
5a297877edcbca00015f351f,146,2,2024-02-24T08:11:28.849Z,english_255.wav,0,pill,431,25,5,3,English,m,3,0.3,14.08839822,0.62099519
5a297877edcbca00015f351f,146,2,2024-02-24T08:11:28.849Z,english_255.wav,0,pill,431,25,5,3,English,m,4,0.32341667,-55.38739786,1.08486436
5a297877edcbca00015f351f,147,2,2024-02-24T08:11:28.849Z,english_295.wav,0,peel,613,25,5,3,English,m,0,0.0,-76.51454746,1.12273409
5a297877edcbca00015f351f,147,2,2024-02-24T08:11:28.849Z,english_295.wav,0,peel,613,25,5,3,English,m,1,0.1,-96.9380047,0.2018376
5a297877edcbca00015f351f,147,2,2024-02-24T08:11:28.849Z,english_295.wav,0,peel,613,25,5,3,English,m,2,0.2,-72.79782389,1.81703153
5a297877edcbca00015f351f,147,2,2024-02-24T08:11:28.849Z,english_295.wav,0,peel,613,25,5,3,English,m,3,0.3,-31.86888898,0.31799467
5a297877edcbca00015f351f,147,2,2024-02-24T08:11:28.849Z,english_295.wav,0,peel,613,25,5,3,English,m,4,0.32341667,-51.47839766,0.71777059
5a297877edcbca00015f351f,148,2,2024-02-24T08:11:28.849Z,english_422.wav,0,peel,529,25,5,3,English,m,0,0.0,-79.81150205,1.34332733
5a297877edcbca00015f351f,148,2,2024-02-24T08:11:28.849Z,english_422.wav,0,peel,529,25,5,3,English,m,1,0.1,-2.02836706,0.77514932
5a297877edcbca00015f351f,148,2,2024-02-24T08:11:28.849Z,english_422.wav,0,peel,529,25,5,3,English,m,2,0.2,-11.18998235,0.33214039
5a297877edcbca00015f351f,148,2,2024-02-24T08:11:28.849Z,english_422.wav,0,peel,529,25,5,3,English,m,3,0.3,52.04958687,0.53493982
5a297877edcbca00015f351f,148,2,2024-02-24T08:11:28.849Z,english_422.wav,0,peel,529,25,5,3,English,m,4,0.32341667,-63.48776447,0.45685022
5a297877edcbca00015f351f,149,2,2024-02-24T08:11:28.849Z,english_589.wav,0,peel,861,25,5,3,English,m,0,0.0,58.55453646,1.98928345
5a297877edcbca00015f351f,149,2,2024-02-24T08:11:28.849Z,english_589.wav,0,peel,861,25,5,3,English,m,1,0.1,30.45164265,1.49107718
5a297877edcbca00015f351f,149,2,2024-02-24T08:11:28.849Z,english_589.wav,0,peel,861,25,5,3,English,m,2,0.2,-45.43400091,0.52639062
5a297877edcbca00015f351f,149,2,2024-02-24T08:11:28.849Z,english_589.wav,0,peel,861,25,5,3,English,m,3,0.3,84.99084473,0.34590986
5a297877edcbca00015f351f,149,2,2024-02-24T08:11:28.849Z,english_589.wav,0,peel,861,25,5,3,English,m,4,0.32341667,65.45411119,0.67022481
5a297877edcbca00015f351f,150,3,2024-02-24T08:11:28.849Z,english_309.wav,0,peel,1384,25,5,3,English,m,0,0.0,59.8258624,0.58100331
5a297877edcbca00015f351f,150,3,2024-02-24T08:11:28.849Z,english_309.wav,0,peel,1384,25,5,3,English,m,1,0.1,73.70427758,0.81024997
5a297877edcbca00015f351f,150,3,2024-02-24T08:11:28.849Z,english_309.wav,0,peel,1384,25,5,3,English,m,2,0.2,-8.71125849,0.10827203
5a297877edcbca00015f351f,150,3,2024-02-24T08:11:28.849Z,english_309.wav,0,peel,1384,25,5,3,English,m,3,0.3,-86.6882155,0.09670208
5a297877edcbca00015f351f,150,3,2024-02-24T08:11:28.849Z,english_309.wav,0,peel,1384,25,5,3,English,m,4,0.32341667,-90.77340978,1.53063904
5a297877edcbca00015f351f,151,3,2024-02-24T08:11:28.849Z,english_990.wav,0,peel,864,25,5,3,English,m,0,0.0,-17.98511021,0.6190444
5a297877edcbca00015f351f,151,3,2024-02-24T08:11:28.849Z,english_990.wav,0,peel,864,25,5,3,English,m,1,0.1,-90.3005676,0.77548775
5a297877edcbca00015f351f,151,3,2024-02-24T08:11:28.849Z,english_990.wav,0,peel,864,25,5,3,English,m,2,0.2,4.37005684,0.55013224
5a297877edcbca00015f351f,151,3,2024-02-24T08:11:28.849Z,english_990.wav,0,peel,864,25,5,3,English,m,3,0.3,83.93705034,0.66784051
5a297877edcbca00015f351f,151,3,2024-02-24T08:11:28.849Z,english_990.wav,0,peel,864,25,5,3,English,m,4,0.32341667,-36.57803625,0.32384409
5a297877edcbca00015f351f,152,3,2024-02-24T08:11:28.849Z,english_534.wav,0,peel,832,25,5,3,English,m,0,0.0,-42.4271338,1.1267565
5a297877edcbca00015f351f,152,3,2024-02-24T08:11:28.849Z,english_534.wav,0,peel,832,25,5,3,English,m,1,0.1,-80.6424644,0.6842577
5a297877edcbca00015f351f,152,3,2024-02-24T08:11:28.849Z,english_534.wav,0,peel,832,25,5,3,English,m,2,0.2,59.29592388,0.01459656
5a297877edcbca00015f351f,152,3,2024-02-24T08:11:28.849Z,english_534.wav,0,peel,832,25,5,3,English,m,3,0.3,75.02007223,1.03701198
5a297877edcbca00015f351f,152,3,2024-02-24T08:11:28.849Z,english_534.wav,0,peel,832,25,5,3,English,m,4,0.32341667,-57.55026449,1.25840342
5a297877edcbca00015f351f,153,3,2024-02-24T08:11:28.849Z,english_292.wav,0,peel,826,25,5,3,English,m,0,0.0,-39.45275529,0.85174507
5a297877edcbca00015f351f,153,3,2024-02-24T08:11:28.849Z,english_292.wav,0,peel,826,25,5,3,English,m,1,0.1,-35.03464337,0.73996191
5a297877edcbca00015f351f,153,3,2024-02-24T08:11:28.849Z,english_292.wav,0,peel,826,25,5,3,English,m,2,0.2,31.68370279,1.42892595
