subj,trial,block,date,stim,stim_order,response,rt,age,english,french,language,sex,param_index,segment,pitch,stretch
651d3da180d4b0d9a79c33dd,0,0,2024-02-26T09:36:04.766Z,english_848.wav,0,pill,6428,18,5,4,english,m,0,0.0,43.30233352,0.12582596
651d3da180d4b0d9a79c33dd,0,0,2024-02-26T09:36:04.766Z,english_848.wav,0,pill,6428,18,5,4,english,m,1,0.1,-77.77691247,1.72621372
651d3da180d4b0d9a79c33dd,0,0,2024-02-26T09:36:04.766Z,english_848.wav,0,pill,6428,18,5,4,english,m,2,0.2,-68.99020863,1.753656
651d3da180d4b0d9a79c33dd,0,0,2024-02-26T09:36:04.766Z,english_848.wav,0,pill,6428,18,5,4,english,m,3,0.3,-43.68641023,1.37442753
651d3da180d4b0d9a79c33dd,0,0,2024-02-26T09:36:04.766Z,english_848.wav,0,pill,6428,18,5,4,english,m,4,0.32341667,-14.19502025,1.04930351
651d3da180d4b0d9a79c33dd,1,0,2024-02-26T09:36:04.766Z,english_599.wav,0,peel,1502,18,5,4,english,m,0,0.0,-57.09760884,1.03382432
651d3da180d4b0d9a79c33dd,1,0,2024-02-26T09:36:04.766Z,english_599.wav,0,peel,1502,18,5,4,english,m,1,0.1,31.85682387,1.26885403
651d3da180d4b0d9a79c33dd,1,0,2024-02-26T09:36:04.766Z,english_599.wav,0,peel,1502,18,5,4,english,m,2,0.2,-6.73425875,1.24717465
651d3da180d4b0d9a79c33dd,1,0,2024-02-26T09:36:04.766Z,english_599.wav,0,peel,1502,18,5,4,english,m,3,0.3,47.95830633,1.34338376
651d3da180d4b0d9a79c33dd,1,0,2024-02-26T09:36:04.766Z,english_599.wav,0,peel,1502,18,5,4,english,m,4,0.32341667,-83.8084816,0.34550335
651d3da180d4b0d9a79c33dd,2,0,2024-02-26T09:36:04.766Z,english_61.wav,0,pill,2274,18,5,4,english,m,0,0.0,-58.73450167,1.5196582
651d3da180d4b0d9a79c33dd,2,0,2024-02-26T09:36:04.766Z,english_61.wav,0,pill,2274,18,5,4,english,m,1,0.1,-68.77732169,0.79346499
651d3da180d4b0d9a79c33dd,2,0,2024-02-26T09:36:04.766Z,english_61.wav,0,pill,2274,18,5,4,english,m,2,0.2,-61.07430116,0.90548432
651d3da180d4b0d9a79c33dd,2,0,2024-02-26T09:36:04.766Z,english_61.wav,0,pill,2274,18,5,4,english,m,3,0.3,-87.12791991,1.71431728
651d3da180d4b0d9a79c33dd,2,0,2024-02-26T09:36:04.766Z,english_61.wav,0,pill,2274,18,5,4,english,m,4,0.32341667,47.32358741,0.57778581
651d3da180d4b0d9a79c33dd,3,0,2024-02-26T09:36:04.766Z,english_302.wav,0,pill,2463,18,5,4,english,m,0,0.0,-63.95927305,1.3663617
651d3da180d4b0d9a79c33dd,3,0,2024-02-26T09:36:04.766Z,english_302.wav,0,pill,2463,18,5,4,english,m,1,0.1,-82.44028643,1.24112643
651d3da180d4b0d9a79c33dd,3,0,2024-02-26T09:36:04.766Z,english_302.wav,0,pill,2463,18,5,4,english,m,2,0.2,-63.33590257,1.83999602
651d3da180d4b0d9a79c33dd,3,0,2024-02-26T09:36:04.766Z,english_302.wav,0,pill,2463,18,5,4,english,m,3,0.3,-82.33590521,0.89576132
651d3da180d4b0d9a79c33dd,3,0,2024-02-26T09:36:04.766Z,english_302.wav,0,pill,2463,18,5,4,english,m,4,0.32341667,-77.43124585,1.51483357
651d3da180d4b0d9a79c33dd,4,0,2024-02-26T09:36:04.766Z,english_658.wav,0,peel,2881,18,5,4,english,m,0,0.0,-80.21976745,0.49170119
651d3da180d4b0d9a79c33dd,4,0,2024-02-26T09:36:04.766Z,english_658.wav,0,peel,2881,18,5,4,english,m,1,0.1,11.23314836,0.6994793
651d3da180d4b0d9a79c33dd,4,0,2024-02-26T09:36:04.766Z,english_658.wav,0,peel,2881,18,5,4,english,m,2,0.2,8.94946791,1.18458539
651d3da180d4b0d9a79c33dd,4,0,2024-02-26T09:36:04.766Z,english_658.wav,0,peel,2881,18,5,4,english,m,3,0.3,17.22411688,0.7091276
651d3da180d4b0d9a79c33dd,4,0,2024-02-26T09:36:04.766Z,english_658.wav,0,peel,2881,18,5,4,english,m,4,0.32341667,10.67081381,1.7453453
651d3da180d4b0d9a79c33dd,5,0,2024-02-26T09:36:04.766Z,english_979.wav,0,peel,1836,18,5,4,english,m,0,0.0,-1.00654814,1.61411081
651d3da180d4b0d9a79c33dd,5,0,2024-02-26T09:36:04.766Z,english_979.wav,0,peel,1836,18,5,4,english,m,1,0.1,18.39835707,1.30464512
651d3da180d4b0d9a79c33dd,5,0,2024-02-26T09:36:04.766Z,english_979.wav,0,peel,1836,18,5,4,english,m,2,0.2,-42.91789413,0.93120215
651d3da180d4b0d9a79c33dd,5,0,2024-02-26T09:36:04.766Z,english_979.wav,0,peel,1836,18,5,4,english,m,3,0.3,-58.29527223,0.87145212
651d3da180d4b0d9a79c33dd,5,0,2024-02-26T09:36:04.766Z,english_979.wav,0,peel,1836,18,5,4,english,m,4,0.32341667,86.14740424,1.17332389
651d3da180d4b0d9a79c33dd,6,0,2024-02-26T09:36:04.766Z,english_307.wav,0,peel,1194,18,5,4,english,m,0,0.0,-38.93106299,1.91951228
651d3da180d4b0d9a79c33dd,6,0,2024-02-26T09:36:04.766Z,english_307.wav,0,peel,1194,18,5,4,english,m,1,0.1,-30.40144858,0.50419792
651d3da180d4b0d9a79c33dd,6,0,2024-02-26T09:36:04.766Z,english_307.wav,0,peel,1194,18,5,4,english,m,2,0.2,2.19081651,0.76602689
651d3da180d4b0d9a79c33dd,6,0,2024-02-26T09:36:04.766Z,english_307.wav,0,peel,1194,18,5,4,english,m,3,0.3,30.82741361,0.59904457
651d3da180d4b0d9a79c33dd,6,0,2024-02-26T09:36:04.766Z,english_307.wav,0,peel,1194,18,5,4,english,m,4,0.32341667,46.9007513,1.94941235
651d3da180d4b0d9a79c33dd,7,0,2024-02-26T09:36:04.766Z,english_899.wav,0,peel,2417,18,5,4,english,m,0,0.0,34.44970312,1.0262563
651d3da180d4b0d9a79c33dd,7,0,2024-02-26T09:36:04.766Z,english_899.wav,0,peel,2417,18,5,4,english,m,1,0.1,-73.97598586,0.5565938
651d3da180d4b0d9a79c33dd,7,0,2024-02-26T09:36:04.766Z,english_899.wav,0,peel,2417,18,5,4,english,m,2,0.2,4.84970015,0.08950317
651d3da180d4b0d9a79c33dd,7,0,2024-02-26T09:36:04.766Z,english_899.wav,0,peel,2417,18,5,4,english,m,3,0.3,25.99530817,1.10823657
651d3da180d4b0d9a79c33dd,7,0,2024-02-26T09:36:04.766Z,english_899.wav,0,peel,2417,18,5,4,english,m,4,0.32341667,7.0197251,1.27665612
651d3da180d4b0d9a79c33dd,8,0,2024-02-26T09:36:04.766Z,english_807.wav,0,peel,5094,18,5,4,english,m,0,0.0,-70.27095807,1.48455572
651d3da180d4b0d9a79c33dd,8,0,2024-02-26T09:36:04.766Z,english_807.wav,0,peel,5094,18,5,4,english,m,1,0.1,84.77391363,1.24837561
651d3da180d4b0d9a79c33dd,8,0,2024-02-26T09:36:04.766Z,english_807.wav,0,peel,5094,18,5,4,english,m,2,0.2,-27.52537388,0.77726095
651d3da180d4b0d9a79c33dd,8,0,2024-02-26T09:36:04.766Z,english_807.wav,0,peel,5094,18,5,4,english,m,3,0.3,36.82986288,1.65388598
651d3da180d4b0d9a79c33dd,8,0,2024-02-26T09:36:04.766Z,english_807.wav,0,peel,5094,18,5,4,english,m,4,0.32341667,16.63983573,1.10343216
651d3da180d4b0d9a79c33dd,9,0,2024-02-26T09:36:04.766Z,english_382.wav,0,peel,2222,18,5,4,english,m,0,0.0,-83.35497559,1.24516413
651d3da180d4b0d9a79c33dd,9,0,2024-02-26T09:36:04.766Z,english_382.wav,0,peel,2222,18,5,4,english,m,1,0.1,7.83115402,0.59675254
651d3da180d4b0d9a79c33dd,9,0,2024-02-26T09:36:04.766Z,english_382.wav,0,peel,2222,18,5,4,english,m,2,0.2,77.46115257,0.61036026
651d3da180d4b0d9a79c33dd,9,0,2024-02-26T09:36:04.766Z,english_382.wav,0,peel,2222,18,5,4,english,m,3,0.3,89.755233,1.95554414
651d3da180d4b0d9a79c33dd,9,0,2024-02-26T09:36:04.766Z,english_382.wav,0,peel,2222,18,5,4,english,m,4,0.32341667,-36.08570956,1.60845727
651d3da180d4b0d9a79c33dd,10,0,2024-02-26T09:36:04.766Z,english_75.wav,0,pill,6174,18,5,4,english,m,0,0.0,-9.18091647,0.92930856
651d3da180d4b0d9a79c33dd,10,0,2024-02-26T09:36:04.766Z,english_75.wav,0,pill,6174,18,5,4,english,m,1,0.1,-62.02164907,1.94000482
651d3da180d4b0d9a79c33dd,10,0,2024-02-26T09:36:04.766Z,english_75.wav,0,pill,6174,18,5,4,english,m,2,0.2,-12.90623207,1.2183621
651d3da180d4b0d9a79c33dd,10,0,2024-02-26T09:36:04.766Z,english_75.wav,0,pill,6174,18,5,4,english,m,3,0.3,15.17089036,0.47349695
651d3da180d4b0d9a79c33dd,10,0,2024-02-26T09:36:04.766Z,english_75.wav,0,pill,6174,18,5,4,english,m,4,0.32341667,10.89352922,1.02561006
651d3da180d4b0d9a79c33dd,11,0,2024-02-26T09:36:04.766Z,english_929.wav,0,pill,7413,18,5,4,english,m,0,0.0,29.19700723,1.75028237
651d3da180d4b0d9a79c33dd,11,0,2024-02-26T09:36:04.766Z,english_929.wav,0,pill,7413,18,5,4,english,m,1,0.1,15.63825327,0.16776534
651d3da180d4b0d9a79c33dd,11,0,2024-02-26T09:36:04.766Z,english_929.wav,0,pill,7413,18,5,4,english,m,2,0.2,3.65085895,0.15899819
651d3da180d4b0d9a79c33dd,11,0,2024-02-26T09:36:04.766Z,english_929.wav,0,pill,7413,18,5,4,english,m,3,0.3,-91.18848108,0.41497916
651d3da180d4b0d9a79c33dd,11,0,2024-02-26T09:36:04.766Z,english_929.wav,0,pill,7413,18,5,4,english,m,4,0.32341667,53.29025089,0.946821
651d3da180d4b0d9a79c33dd,12,0,2024-02-26T09:36:04.766Z,english_884.wav,0,pill,1857,18,5,4,english,m,0,0.0,77.1498115,1.83268558
651d3da180d4b0d9a79c33dd,12,0,2024-02-26T09:36:04.766Z,english_884.wav,0,pill,1857,18,5,4,english,m,1,0.1,10.32602389,0.76817862
651d3da180d4b0d9a79c33dd,12,0,2024-02-26T09:36:04.766Z,english_884.wav,0,pill,1857,18,5,4,english,m,2,0.2,4.15464736,1.59331573
651d3da180d4b0d9a79c33dd,12,0,2024-02-26T09:36:04.766Z,english_884.wav,0,pill,1857,18,5,4,english,m,3,0.3,21.19252889,0.58913169
651d3da180d4b0d9a79c33dd,12,0,2024-02-26T09:36:04.766Z,english_884.wav,0,pill,1857,18,5,4,english,m,4,0.32341667,-7.11336122,0.81393531
651d3da180d4b0d9a79c33dd,13,0,2024-02-26T09:36:04.766Z,english_805.wav,0,pill,2341,18,5,4,english,m,0,0.0,-11.97504695,0.06029378
651d3da180d4b0d9a79c33dd,13,0,2024-02-26T09:36:04.766Z,english_805.wav,0,pill,2341,18,5,4,english,m,1,0.1,96.82911573,0.81391401
651d3da180d4b0d9a79c33dd,13,0,2024-02-26T09:36:04.766Z,english_805.wav,0,pill,2341,18,5,4,english,m,2,0.2,7.51835152,1.33531055
651d3da180d4b0d9a79c33dd,13,0,2024-02-26T09:36:04.766Z,english_805.wav,0,pill,2341,18,5,4,english,m,3,0.3,2.47378187,1.7608484
651d3da180d4b0d9a79c33dd,13,0,2024-02-26T09:36:04.766Z,english_805.wav,0,pill,2341,18,5,4,english,m,4,0.32341667,-43.26336213,1.4289718
651d3da180d4b0d9a79c33dd,14,0,2024-02-26T09:36:04.766Z,english_841.wav,0,pill,1917,18,5,4,english,m,0,0.0,36.57834023,0.37598589
651d3da180d4b0d9a79c33dd,14,0,2024-02-26T09:36:04.766Z,english_841.wav,0,pill,1917,18,5,4,english,m,1,0.1,81.12994836,1.18949815
651d3da180d4b0d9a79c33dd,14,0,2024-02-26T09:36:04.766Z,english_841.wav,0,pill,1917,18,5,4,english,m,2,0.2,55.4316434,1.24219065
651d3da180d4b0d9a79c33dd,14,0,2024-02-26T09:36:04.766Z,english_841.wav,0,pill,1917,18,5,4,english,m,3,0.3,-50.85387517,1.45004046
651d3da180d4b0d9a79c33dd,14,0,2024-02-26T09:36:04.766Z,english_841.wav,0,pill,1917,18,5,4,english,m,4,0.32341667,-52.13814436,0.19253582
651d3da180d4b0d9a79c33dd,15,0,2024-02-26T09:36:04.766Z,english_374.wav,0,pill,2872,18,5,4,english,m,0,0.0,-43.98521466,1.11607514
651d3da180d4b0d9a79c33dd,15,0,2024-02-26T09:36:04.766Z,english_374.wav,0,pill,2872,18,5,4,english,m,1,0.1,-24.87181663,0.38249505
651d3da180d4b0d9a79c33dd,15,0,2024-02-26T09:36:04.766Z,english_374.wav,0,pill,2872,18,5,4,english,m,2,0.2,-29.31566683,1.56774755
651d3da180d4b0d9a79c33dd,15,0,2024-02-26T09:36:04.766Z,english_374.wav,0,pill,2872,18,5,4,english,m,3,0.3,-43.36019392,1.33837662
651d3da180d4b0d9a79c33dd,15,0,2024-02-26T09:36:04.766Z,english_374.wav,0,pill,2872,18,5,4,english,m,4,0.32341667,-35.5175379,0.68793086
651d3da180d4b0d9a79c33dd,16,0,2024-02-26T09:36:04.766Z,english_428.wav,0,pill,2823,18,5,4,english,m,0,0.0,-98.34466569,1.83106884
651d3da180d4b0d9a79c33dd,16,0,2024-02-26T09:36:04.766Z,english_428.wav,0,pill,2823,18,5,4,english,m,1,0.1,-10.51162175,1.34345266
651d3da180d4b0d9a79c33dd,16,0,2024-02-26T09:36:04.766Z,english_428.wav,0,pill,2823,18,5,4,english,m,2,0.2,97.93427859,0.65853672
651d3da180d4b0d9a79c33dd,16,0,2024-02-26T09:36:04.766Z,english_428.wav,0,pill,2823,18,5,4,english,m,3,0.3,35.61870537,1.28105878
651d3da180d4b0d9a79c33dd,16,0,2024-02-26T09:36:04.766Z,english_428.wav,0,pill,2823,18,5,4,english,m,4,0.32341667,-12.49352836,0.15324236
651d3da180d4b0d9a79c33dd,17,0,2024-02-26T09:36:04.766Z,english_434.wav,0,pill,4291,18,5,4,english,m,0,0.0,-4.12787863,0.96421208
651d3da180d4b0d9a79c33dd,17,0,2024-02-26T09:36:04.766Z,english_434.wav,0,pill,4291,18,5,4,english,m,1,0.1,-30.19441281,1.08561731
651d3da180d4b0d9a79c33dd,17,0,2024-02-26T09:36:04.766Z,english_434.wav,0,pill,4291,18,5,4,english,m,2,0.2,41.04377471,1.46356301
651d3da180d4b0d9a79c33dd,17,0,2024-02-26T09:36:04.766Z,english_434.wav,0,pill,4291,18,5,4,english,m,3,0.3,-32.43591961,0.25116585
651d3da180d4b0d9a79c33dd,17,0,2024-02-26T09:36:04.766Z,english_434.wav,0,pill,4291,18,5,4,english,m,4,0.32341667,61.53108406,0.73120458
651d3da180d4b0d9a79c33dd,18,0,2024-02-26T09:36:04.766Z,english_265.wav,0,pill,1451,18,5,4,english,m,0,0.0,-30.2287418,1.31067296
651d3da180d4b0d9a79c33dd,18,0,2024-02-26T09:36:04.766Z,english_265.wav,0,pill,1451,18,5,4,english,m,1,0.1,86.62283936,0.87427745
651d3da180d4b0d9a79c33dd,18,0,2024-02-26T09:36:04.766Z,english_265.wav,0,pill,1451,18,5,4,english,m,2,0.2,-21.47577863,1.37620008
651d3da180d4b0d9a79c33dd,18,0,2024-02-26T09:36:04.766Z,english_265.wav,0,pill,1451,18,5,4,english,m,3,0.3,84.9300577,0.45825557
651d3da180d4b0d9a79c33dd,18,0,2024-02-26T09:36:04.766Z,english_265.wav,0,pill,1451,18,5,4,english,m,4,0.32341667,59.52250756,1.13518739
651d3da180d4b0d9a79c33dd,19,0,2024-02-26T09:36:04.766Z,english_465.wav,0,pill,1076,18,5,4,english,m,0,0.0,40.04056426,1.33778995
651d3da180d4b0d9a79c33dd,19,0,2024-02-26T09:36:04.766Z,english_465.wav,0,pill,1076,18,5,4,english,m,1,0.1,-97.28817369,0.1899685
651d3da180d4b0d9a79c33dd,19,0,2024-02-26T09:36:04.766Z,english_465.wav,0,pill,1076,18,5,4,english,m,2,0.2,-58.72937184,1.35609136
651d3da180d4b0d9a79c33dd,19,0,2024-02-26T09:36:04.766Z,english_465.wav,0,pill,1076,18,5,4,english,m,3,0.3,82.2448524,1.94032164
651d3da180d4b0d9a79c33dd,19,0,2024-02-26T09:36:04.766Z,english_465.wav,0,pill,1076,18,5,4,english,m,4,0.32341667,-29.20233879,0.27858753
651d3da180d4b0d9a79c33dd,20,0,2024-02-26T09:36:04.766Z,english_237.wav,0,peel,2280,18,5,4,english,m,0,0.0,-40.35335157,0.42178982
651d3da180d4b0d9a79c33dd,20,0,2024-02-26T09:36:04.766Z,english_237.wav,0,peel,2280,18,5,4,english,m,1,0.1,42.86374565,0.6060796
651d3da180d4b0d9a79c33dd,20,0,2024-02-26T09:36:04.766Z,english_237.wav,0,peel,2280,18,5,4,english,m,2,0.2,7.79480372,0.58312984
651d3da180d4b0d9a79c33dd,20,0,2024-02-26T09:36:04.766Z,english_237.wav,0,peel,2280,18,5,4,english,m,3,0.3,-48.50613844,1.50499267
651d3da180d4b0d9a79c33dd,20,0,2024-02-26T09:36:04.766Z,english_237.wav,0,peel,2280,18,5,4,english,m,4,0.32341667,17.78174719,1.72211243
651d3da180d4b0d9a79c33dd,21,0,2024-02-26T09:36:04.766Z,english_487.wav,0,pill,930,18,5,4,english,m,0,0.0,57.34447058,0.27098038
651d3da180d4b0d9a79c33dd,21,0,2024-02-26T09:36:04.766Z,english_487.wav,0,pill,930,18,5,4,english,m,1,0.1,-38.59224607,1.03105808
651d3da180d4b0d9a79c33dd,21,0,2024-02-26T09:36:04.766Z,english_487.wav,0,pill,930,18,5,4,english,m,2,0.2,-30.93562102,0.17810411
651d3da180d4b0d9a79c33dd,21,0,2024-02-26T09:36:04.766Z,english_487.wav,0,pill,930,18,5,4,english,m,3,0.3,-21.39452484,0.81608244
651d3da180d4b0d9a79c33dd,21,0,2024-02-26T09:36:04.766Z,english_487.wav,0,pill,930,18,5,4,english,m,4,0.32341667,-98.93333205,1.1056793
651d3da180d4b0d9a79c33dd,22,0,2024-02-26T09:36:04.766Z,english_119.wav,0,pill,1651,18,5,4,english,m,0,0.0,-72.13623542,1.33116293
651d3da180d4b0d9a79c33dd,22,0,2024-02-26T09:36:04.766Z,english_119.wav,0,pill,1651,18,5,4,english,m,1,0.1,-47.93500709,0.14257244
651d3da180d4b0d9a79c33dd,22,0,2024-02-26T09:36:04.766Z,english_119.wav,0,pill,1651,18,5,4,english,m,2,0.2,91.39212861,1.10285667
651d3da180d4b0d9a79c33dd,22,0,2024-02-26T09:36:04.766Z,english_119.wav,0,pill,1651,18,5,4,english,m,3,0.3,-4.62561099,0.57572872
651d3da180d4b0d9a79c33dd,22,0,2024-02-26T09:36:04.766Z,english_119.wav,0,pill,1651,18,5,4,english,m,4,0.32341667,-33.86599352,1.36512269
651d3da180d4b0d9a79c33dd,23,0,2024-02-26T09:36:04.766Z,english_57.wav,0,pill,1056,18,5,4,english,m,0,0.0,-27.39668164,1.97835384
651d3da180d4b0d9a79c33dd,23,0,2024-02-26T09:36:04.766Z,english_57.wav,0,pill,1056,18,5,4,english,m,1,0.1,63.52389761,0.69906452
651d3da180d4b0d9a79c33dd,23,0,2024-02-26T09:36:04.766Z,english_57.wav,0,pill,1056,18,5,4,english,m,2,0.2,-55.42033209,0.75389415
651d3da180d4b0d9a79c33dd,23,0,2024-02-26T09:36:04.766Z,english_57.wav,0,pill,1056,18,5,4,english,m,3,0.3,40.81906742,0.20375649
651d3da180d4b0d9a79c33dd,23,0,2024-02-26T09:36:04.766Z,english_57.wav,0,pill,1056,18,5,4,english,m,4,0.32341667,-12.75543821,1.65585112
651d3da180d4b0d9a79c33dd,24,0,2024-02-26T09:36:04.766Z,english_478.wav,0,pill,5274,18,5,4,english,m,0,0.0,-70.9954821,0.91489342
651d3da180d4b0d9a79c33dd,24,0,2024-02-26T09:36:04.766Z,english_478.wav,0,pill,5274,18,5,4,english,m,1,0.1,18.763036,1.0325944
651d3da180d4b0d9a79c33dd,24,0,2024-02-26T09:36:04.766Z,english_478.wav,0,pill,5274,18,5,4,english,m,2,0.2,84.30682023,1.47139294
651d3da180d4b0d9a79c33dd,24,0,2024-02-26T09:36:04.766Z,english_478.wav,0,pill,5274,18,5,4,english,m,3,0.3,96.70790152,0.31719256
651d3da180d4b0d9a79c33dd,24,0,2024-02-26T09:36:04.766Z,english_478.wav,0,pill,5274,18,5,4,english,m,4,0.32341667,-65.75430749,1.1469235
651d3da180d4b0d9a79c33dd,25,0,2024-02-26T09:36:04.766Z,english_939.wav,0,pill,1021,18,5,4,english,m,0,0.0,-23.2558256,0.1774722
651d3da180d4b0d9a79c33dd,25,0,2024-02-26T09:36:04.766Z,english_939.wav,0,pill,1021,18,5,4,english,m,1,0.1,-16.62065377,0.56271239
651d3da180d4b0d9a79c33dd,25,0,2024-02-26T09:36:04.766Z,english_939.wav,0,pill,1021,18,5,4,english,m,2,0.2,-49.54734698,1.42782479
651d3da180d4b0d9a79c33dd,25,0,2024-02-26T09:36:04.766Z,english_939.wav,0,pill,1021,18,5,4,english,m,3,0.3,22.82101289,0.76516147
651d3da180d4b0d9a79c33dd,25,0,2024-02-26T09:36:04.766Z,english_939.wav,0,pill,1021,18,5,4,english,m,4,0.32341667,28.63490654,1.70219777
651d3da180d4b0d9a79c33dd,26,0,2024-02-26T09:36:04.766Z,english_93.wav,0,pill,1601,18,5,4,english,m,0,0.0,-63.58558414,0.84265136
651d3da180d4b0d9a79c33dd,26,0,2024-02-26T09:36:04.766Z,english_93.wav,0,pill,1601,18,5,4,english,m,1,0.1,47.93190562,0.45441634
651d3da180d4b0d9a79c33dd,26,0,2024-02-26T09:36:04.766Z,english_93.wav,0,pill,1601,18,5,4,english,m,2,0.2,74.1463043,1.33476805
651d3da180d4b0d9a79c33dd,26,0,2024-02-26T09:36:04.766Z,english_93.wav,0,pill,1601,18,5,4,english,m,3,0.3,46.42515129,0.61821532
651d3da180d4b0d9a79c33dd,26,0,2024-02-26T09:36:04.766Z,english_93.wav,0,pill,1601,18,5,4,english,m,4,0.32341667,-19.17332826,1.94889868
651d3da180d4b0d9a79c33dd,27,0,2024-02-26T09:36:04.766Z,english_988.wav,0,peel,929,18,5,4,english,m,0,0.0,23.53561789,0.18772999
651d3da180d4b0d9a79c33dd,27,0,2024-02-26T09:36:04.766Z,english_988.wav,0,peel,929,18,5,4,english,m,1,0.1,39.09545525,0.71537172
651d3da180d4b0d9a79c33dd,27,0,2024-02-26T09:36:04.766Z,english_988.wav,0,peel,929,18,5,4,english,m,2,0.2,-32.2225044,0.50944864
651d3da180d4b0d9a79c33dd,27,0,2024-02-26T09:36:04.766Z,english_988.wav,0,peel,929,18,5,4,english,m,3,0.3,5.54449519,0.59930705
651d3da180d4b0d9a79c33dd,27,0,2024-02-26T09:36:04.766Z,english_988.wav,0,peel,929,18,5,4,english,m,4,0.32341667,-94.58480047,1.43881296
651d3da180d4b0d9a79c33dd,28,0,2024-02-26T09:36:04.766Z,english_999.wav,0,peel,1675,18,5,4,english,m,0,0.0,-43.88463807,1.5561212
651d3da180d4b0d9a79c33dd,28,0,2024-02-26T09:36:04.766Z,english_999.wav,0,peel,1675,18,5,4,english,m,1,0.1,-19.69329198,1.76032244
651d3da180d4b0d9a79c33dd,28,0,2024-02-26T09:36:04.766Z,english_999.wav,0,peel,1675,18,5,4,english,m,2,0.2,-16.47401585,0.67323911
651d3da180d4b0d9a79c33dd,28,0,2024-02-26T09:36:04.766Z,english_999.wav,0,peel,1675,18,5,4,english,m,3,0.3,-27.91485083,0.0725875
651d3da180d4b0d9a79c33dd,28,0,2024-02-26T09:36:04.766Z,english_999.wav,0,peel,1675,18,5,4,english,m,4,0.32341667,-38.65265262,0.89314247
651d3da180d4b0d9a79c33dd,29,0,2024-02-26T09:36:04.766Z,english_44.wav,0,peel,1304,18,5,4,english,m,0,0.0,-68.86201344,1.38154723
651d3da180d4b0d9a79c33dd,29,0,2024-02-26T09:36:04.766Z,english_44.wav,0,peel,1304,18,5,4,english,m,1,0.1,36.61833882,0.11193842
651d3da180d4b0d9a79c33dd,29,0,2024-02-26T09:36:04.766Z,english_44.wav,0,peel,1304,18,5,4,english,m,2,0.2,-60.65796264,0.83798569
651d3da180d4b0d9a79c33dd,29,0,2024-02-26T09:36:04.766Z,english_44.wav,0,peel,1304,18,5,4,english,m,3,0.3,-99.582901,0.3073865
651d3da180d4b0d9a79c33dd,29,0,2024-02-26T09:36:04.766Z,english_44.wav,0,peel,1304,18,5,4,english,m,4,0.32341667,68.59920212,1.10922951
651d3da180d4b0d9a79c33dd,30,0,2024-02-26T09:36:04.766Z,english_890.wav,0,peel,1971,18,5,4,english,m,0,0.0,-68.21158685,0.82535308
651d3da180d4b0d9a79c33dd,30,0,2024-02-26T09:36:04.766Z,english_890.wav,0,peel,1971,18,5,4,english,m,1,0.1,-83.19360642,1.79167423
651d3da180d4b0d9a79c33dd,30,0,2024-02-26T09:36:04.766Z,english_890.wav,0,peel,1971,18,5,4,english,m,2,0.2,79.13343252,0.78297904
651d3da180d4b0d9a79c33dd,30,0,2024-02-26T09:36:04.766Z,english_890.wav,0,peel,1971,18,5,4,english,m,3,0.3,80.54326003,0.23441015
651d3da180d4b0d9a79c33dd,30,0,2024-02-26T09:36:04.766Z,english_890.wav,0,peel,1971,18,5,4,english,m,4,0.32341667,-30.48737523,1.41044901
651d3da180d4b0d9a79c33dd,31,0,2024-02-26T09:36:04.766Z,english_746.wav,0,peel,1321,18,5,4,english,m,0,0.0,-1.32395796,1.72273729
651d3da180d4b0d9a79c33dd,31,0,2024-02-26T09:36:04.766Z,english_746.wav,0,peel,1321,18,5,4,english,m,1,0.1,-67.07117971,1.22961235
651d3da180d4b0d9a79c33dd,31,0,2024-02-26T09:36:04.766Z,english_746.wav,0,peel,1321,18,5,4,english,m,2,0.2,75.09604974,1.29107068
651d3da180d4b0d9a79c33dd,31,0,2024-02-26T09:36:04.766Z,english_746.wav,0,peel,1321,18,5,4,english,m,3,0.3,-48.59278454,1.34694816
651d3da180d4b0d9a79c33dd,31,0,2024-02-26T09:36:04.766Z,english_746.wav,0,peel,1321,18,5,4,english,m,4,0.32341667,-6.52080997,0.94274536
651d3da180d4b0d9a79c33dd,32,0,2024-02-26T09:36:04.766Z,english_872.wav,0,pill,2333,18,5,4,english,m,0,0.0,0.56374655,0.10935802
651d3da180d4b0d9a79c33dd,32,0,2024-02-26T09:36:04.766Z,english_872.wav,0,pill,2333,18,5,4,english,m,1,0.1,-70.88107799,0.91778609
651d3da180d4b0d9a79c33dd,32,0,2024-02-26T09:36:04.766Z,english_872.wav,0,pill,2333,18,5,4,english,m,2,0.2,6.46677515,1.38740199
651d3da180d4b0d9a79c33dd,32,0,2024-02-26T09:36:04.766Z,english_872.wav,0,pill,2333,18,5,4,english,m,3,0.3,-23.51354109,0.12682507
651d3da180d4b0d9a79c33dd,32,0,2024-02-26T09:36:04.766Z,english_872.wav,0,pill,2333,18,5,4,english,m,4,0.32341667,81.64578493,0.71067476
651d3da180d4b0d9a79c33dd,33,0,2024-02-26T09:36:04.766Z,english_332.wav,0,pill,1689,18,5,4,english,m,0,0.0,-51.41680869,1.58782391
651d3da180d4b0d9a79c33dd,33,0,2024-02-26T09:36:04.766Z,english_332.wav,0,pill,1689,18,5,4,english,m,1,0.1,4.985172,0.72138411
651d3da180d4b0d9a79c33dd,33,0,2024-02-26T09:36:04.766Z,english_332.wav,0,pill,1689,18,5,4,english,m,2,0.2,88.20327684,1.12265768
651d3da180d4b0d9a79c33dd,33,0,2024-02-26T09:36:04.766Z,english_332.wav,0,pill,1689,18,5,4,english,m,3,0.3,-58.40734817,0.23569111
651d3da180d4b0d9a79c33dd,33,0,2024-02-26T09:36:04.766Z,english_332.wav,0,pill,1689,18,5,4,english,m,4,0.32341667,68.30800912,1.23583309
651d3da180d4b0d9a79c33dd,34,0,2024-02-26T09:36:04.766Z,english_854.wav,0,pill,3576,18,5,4,english,m,0,0.0,-3.2532791,1.78139632
651d3da180d4b0d9a79c33dd,34,0,2024-02-26T09:36:04.766Z,english_854.wav,0,pill,3576,18,5,4,english,m,1,0.1,19.40039505,1.50161717
651d3da180d4b0d9a79c33dd,34,0,2024-02-26T09:36:04.766Z,english_854.wav,0,pill,3576,18,5,4,english,m,2,0.2,-14.62360686,0.8978804
651d3da180d4b0d9a79c33dd,34,0,2024-02-26T09:36:04.766Z,english_854.wav,0,pill,3576,18,5,4,english,m,3,0.3,-63.13820282,1.66267041
651d3da180d4b0d9a79c33dd,34,0,2024-02-26T09:36:04.766Z,english_854.wav,0,pill,3576,18,5,4,english,m,4,0.32341667,44.42181264,1.68588082
651d3da180d4b0d9a79c33dd,35,0,2024-02-26T09:36:04.766Z,english_260.wav,0,peel,581,18,5,4,english,m,0,0.0,-45.73422918,1.75247731
651d3da180d4b0d9a79c33dd,35,0,2024-02-26T09:36:04.766Z,english_260.wav,0,peel,581,18,5,4,english,m,1,0.1,-23.757295,1.29821829
651d3da180d4b0d9a79c33dd,35,0,2024-02-26T09:36:04.766Z,english_260.wav,0,peel,581,18,5,4,english,m,2,0.2,-1.17180464,0.50372963
651d3da180d4b0d9a79c33dd,35,0,2024-02-26T09:36:04.766Z,english_260.wav,0,peel,581,18,5,4,english,m,3,0.3,42.98000529,1.19905143
651d3da180d4b0d9a79c33dd,35,0,2024-02-26T09:36:04.766Z,english_260.wav,0,peel,581,18,5,4,english,m,4,0.32341667,7.49715463,0.66690199
651d3da180d4b0d9a79c33dd,36,0,2024-02-26T09:36:04.766Z,english_179.wav,0,pill,1392,18,5,4,english,m,0,0.0,76.93131114,0.23318107
651d3da180d4b0d9a79c33dd,36,0,2024-02-26T09:36:04.766Z,english_179.wav,0,pill,1392,18,5,4,english,m,1,0.1,5.5150778,0.47080089
651d3da180d4b0d9a79c33dd,36,0,2024-02-26T09:36:04.766Z,english_179.wav,0,pill,1392,18,5,4,english,m,2,0.2,3.89208722,1.31062884
651d3da180d4b0d9a79c33dd,36,0,2024-02-26T09:36:04.766Z,english_179.wav,0,pill,1392,18,5,4,english,m,3,0.3,-8.47825544,0.27743795
651d3da180d4b0d9a79c33dd,36,0,2024-02-26T09:36:04.766Z,english_179.wav,0,pill,1392,18,5,4,english,m,4,0.32341667,50.73924617,0.83516241
651d3da180d4b0d9a79c33dd,37,0,2024-02-26T09:36:04.766Z,english_115.wav,0,peel,732,18,5,4,english,m,0,0.0,-6.4126324,0.37361158
651d3da180d4b0d9a79c33dd,37,0,2024-02-26T09:36:04.766Z,english_115.wav,0,peel,732,18,5,4,english,m,1,0.1,-78.70213007,1.5865766
651d3da180d4b0d9a79c33dd,37,0,2024-02-26T09:36:04.766Z,english_115.wav,0,peel,732,18,5,4,english,m,2,0.2,-0.36204046,1.00360432
651d3da180d4b0d9a79c33dd,37,0,2024-02-26T09:36:04.766Z,english_115.wav,0,peel,732,18,5,4,english,m,3,0.3,-47.97210547,1.3933449
651d3da180d4b0d9a79c33dd,37,0,2024-02-26T09:36:04.766Z,english_115.wav,0,peel,732,18,5,4,english,m,4,0.32341667,3.06964689,1.1205092
651d3da180d4b0d9a79c33dd,38,0,2024-02-26T09:36:04.766Z,english_726.wav,0,peel,2328,18,5,4,english,m,0,0.0,76.65318619,0.71374833
651d3da180d4b0d9a79c33dd,38,0,2024-02-26T09:36:04.766Z,english_726.wav,0,peel,2328,18,5,4,english,m,1,0.1,62.97746083,1.94407191
651d3da180d4b0d9a79c33dd,38,0,2024-02-26T09:36:04.766Z,english_726.wav,0,peel,2328,18,5,4,english,m,2,0.2,-20.72245964,0.55951675
651d3da180d4b0d9a79c33dd,38,0,2024-02-26T09:36:04.766Z,english_726.wav,0,peel,2328,18,5,4,english,m,3,0.3,42.64953343,0.7826891
651d3da180d4b0d9a79c33dd,38,0,2024-02-26T09:36:04.766Z,english_726.wav,0,peel,2328,18,5,4,english,m,4,0.32341667,23.5514061,0.11592549
651d3da180d4b0d9a79c33dd,39,0,2024-02-26T09:36:04.766Z,english_245.wav,0,peel,1079,18,5,4,english,m,0,0.0,74.89239003,1.30710747
651d3da180d4b0d9a79c33dd,39,0,2024-02-26T09:36:04.766Z,english_245.wav,0,peel,1079,18,5,4,english,m,1,0.1,41.98679172,0.93119149
651d3da180d4b0d9a79c33dd,39,0,2024-02-26T09:36:04.766Z,english_245.wav,0,peel,1079,18,5,4,english,m,2,0.2,99.42105985,1.84379828
651d3da180d4b0d9a79c33dd,39,0,2024-02-26T09:36:04.766Z,english_245.wav,0,peel,1079,18,5,4,english,m,3,0.3,-75.11958538,1.72828743
651d3da180d4b0d9a79c33dd,39,0,2024-02-26T09:36:04.766Z,english_245.wav,0,peel,1079,18,5,4,english,m,4,0.32341667,-62.10664415,0.50124118
651d3da180d4b0d9a79c33dd,40,0,2024-02-26T09:36:04.766Z,english_799.wav,0,pill,1301,18,5,4,english,m,0,0.0,-48.4958847,1.9233431
651d3da180d4b0d9a79c33dd,40,0,2024-02-26T09:36:04.766Z,english_799.wav,0,pill,1301,18,5,4,english,m,1,0.1,-9.52866418,1.11542891
651d3da180d4b0d9a79c33dd,40,0,2024-02-26T09:36:04.766Z,english_799.wav,0,pill,1301,18,5,4,english,m,2,0.2,1.94176449,0.95865462
651d3da180d4b0d9a79c33dd,40,0,2024-02-26T09:36:04.766Z,english_799.wav,0,pill,1301,18,5,4,english,m,3,0.3,5.71676827,0.6616034
651d3da180d4b0d9a79c33dd,40,0,2024-02-26T09:36:04.766Z,english_799.wav,0,pill,1301,18,5,4,english,m,4,0.32341667,30.27282792,1.91183458
651d3da180d4b0d9a79c33dd,41,0,2024-02-26T09:36:04.766Z,english_863.wav,0,pill,792,18,5,4,english,m,0,0.0,52.03013683,1.83111202
651d3da180d4b0d9a79c33dd,41,0,2024-02-26T09:36:04.766Z,english_863.wav,0,pill,792,18,5,4,english,m,1,0.1,21.53783975,0.9779226
651d3da180d4b0d9a79c33dd,41,0,2024-02-26T09:36:04.766Z,english_863.wav,0,pill,792,18,5,4,english,m,2,0.2,-42.8061331,1.19089157
651d3da180d4b0d9a79c33dd,41,0,2024-02-26T09:36:04.766Z,english_863.wav,0,pill,792,18,5,4,english,m,3,0.3,-9.69253087,0.269847
651d3da180d4b0d9a79c33dd,41,0,2024-02-26T09:36:04.766Z,english_863.wav,0,pill,792,18,5,4,english,m,4,0.32341667,56.44290307,0.87913369
651d3da180d4b0d9a79c33dd,42,0,2024-02-26T09:36:04.766Z,english_637.wav,0,pill,1672,18,5,4,english,m,0,0.0,-1.71458324,1.21739028
651d3da180d4b0d9a79c33dd,42,0,2024-02-26T09:36:04.766Z,english_637.wav,0,pill,1672,18,5,4,english,m,1,0.1,-8.03758275,0.51882016
651d3da180d4b0d9a79c33dd,42,0,2024-02-26T09:36:04.766Z,english_637.wav,0,pill,1672,18,5,4,english,m,2,0.2,-8.49550443,1.63519413
651d3da180d4b0d9a79c33dd,42,0,2024-02-26T09:36:04.766Z,english_637.wav,0,pill,1672,18,5,4,english,m,3,0.3,-8.27727969,1.34863813
651d3da180d4b0d9a79c33dd,42,0,2024-02-26T09:36:04.766Z,english_637.wav,0,pill,1672,18,5,4,english,m,4,0.32341667,64.42471467,1.93003029
651d3da180d4b0d9a79c33dd,43,0,2024-02-26T09:36:04.766Z,english_724.wav,0,pill,858,18,5,4,english,m,0,0.0,-91.46740291,0.46376674
651d3da180d4b0d9a79c33dd,43,0,2024-02-26T09:36:04.766Z,english_724.wav,0,pill,858,18,5,4,english,m,1,0.1,23.01616352,1.84849858
651d3da180d4b0d9a79c33dd,43,0,2024-02-26T09:36:04.766Z,english_724.wav,0,pill,858,18,5,4,english,m,2,0.2,-29.32408493,1.44978715
651d3da180d4b0d9a79c33dd,43,0,2024-02-26T09:36:04.766Z,english_724.wav,0,pill,858,18,5,4,english,m,3,0.3,-79.49145217,1.24719002
651d3da180d4b0d9a79c33dd,43,0,2024-02-26T09:36:04.766Z,english_724.wav,0,pill,858,18,5,4,english,m,4,0.32341667,82.35247912,0.99570929
651d3da180d4b0d9a79c33dd,44,0,2024-02-26T09:36:04.766Z,english_221.wav,0,pill,956,18,5,4,english,m,0,0.0,85.84184869,1.38100565
651d3da180d4b0d9a79c33dd,44,0,2024-02-26T09:36:04.766Z,english_221.wav,0,pill,956,18,5,4,english,m,1,0.1,-20.37513589,0.79531516
651d3da180d4b0d9a79c33dd,44,0,2024-02-26T09:36:04.766Z,english_221.wav,0,pill,956,18,5,4,english,m,2,0.2,-89.75984637,0.9538446
651d3da180d4b0d9a79c33dd,44,0,2024-02-26T09:36:04.766Z,english_221.wav,0,pill,956,18,5,4,english,m,3,0.3,50.66879934,1.56492426
651d3da180d4b0d9a79c33dd,44,0,2024-02-26T09:36:04.766Z,english_221.wav,0,pill,956,18,5,4,english,m,4,0.32341667,20.92538743,1.60855456
651d3da180d4b0d9a79c33dd,45,0,2024-02-26T09:36:04.766Z,english_418.wav,0,pill,1291,18,5,4,english,m,0,0.0,-7.92859899,0.20369216
651d3da180d4b0d9a79c33dd,45,0,2024-02-26T09:36:04.766Z,english_418.wav,0,pill,1291,18,5,4,english,m,1,0.1,10.19863107,0.15242613
651d3da180d4b0d9a79c33dd,45,0,2024-02-26T09:36:04.766Z,english_418.wav,0,pill,1291,18,5,4,english,m,2,0.2,-44.82770696,0.77695319
651d3da180d4b0d9a79c33dd,45,0,2024-02-26T09:36:04.766Z,english_418.wav,0,pill,1291,18,5,4,english,m,3,0.3,-80.4141896,0.71786342
651d3da180d4b0d9a79c33dd,45,0,2024-02-26T09:36:04.766Z,english_418.wav,0,pill,1291,18,5,4,english,m,4,0.32341667,32.43674468,1.20494416
651d3da180d4b0d9a79c33dd,46,0,2024-02-26T09:36:04.766Z,english_191.wav,0,pill,1372,18,5,4,english,m,0,0.0,5.22709543,0.24693927
651d3da180d4b0d9a79c33dd,46,0,2024-02-26T09:36:04.766Z,english_191.wav,0,pill,1372,18,5,4,english,m,1,0.1,-51.29785688,1.61528443
651d3da180d4b0d9a79c33dd,46,0,2024-02-26T09:36:04.766Z,english_191.wav,0,pill,1372,18,5,4,english,m,2,0.2,14.39503603,0.10158113
651d3da180d4b0d9a79c33dd,46,0,2024-02-26T09:36:04.766Z,english_191.wav,0,pill,1372,18,5,4,english,m,3,0.3,60.50312404,1.02883866
651d3da180d4b0d9a79c33dd,46,0,2024-02-26T09:36:04.766Z,english_191.wav,0,pill,1372,18,5,4,english,m,4,0.32341667,68.15927452,0.69870432
651d3da180d4b0d9a79c33dd,47,0,2024-02-26T09:36:04.766Z,english_526.wav,0,peel,1947,18,5,4,english,m,0,0.0,-32.34532461,0.924261
651d3da180d4b0d9a79c33dd,47,0,2024-02-26T09:36:04.766Z,english_526.wav,0,peel,1947,18,5,4,english,m,1,0.1,-46.6208459,0.25414499
651d3da180d4b0d9a79c33dd,47,0,2024-02-26T09:36:04.766Z,english_526.wav,0,peel,1947,18,5,4,english,m,2,0.2,-42.84927068,1.01925886
651d3da180d4b0d9a79c33dd,47,0,2024-02-26T09:36:04.766Z,english_526.wav,0,peel,1947,18,5,4,english,m,3,0.3,3.47643827,0.65966822
651d3da180d4b0d9a79c33dd,47,0,2024-02-26T09:36:04.766Z,english_526.wav,0,peel,1947,18,5,4,english,m,4,0.32341667,52.79087598,1.50872035
651d3da180d4b0d9a79c33dd,48,0,2024-02-26T09:36:04.766Z,english_435.wav,0,pill,449,18,5,4,english,m,0,0.0,-61.49548479,0.36819492
651d3da180d4b0d9a79c33dd,48,0,2024-02-26T09:36:04.766Z,english_435.wav,0,pill,449,18,5,4,english,m,1,0.1,18.53940612,1.77990606
651d3da180d4b0d9a79c33dd,48,0,2024-02-26T09:36:04.766Z,english_435.wav,0,pill,449,18,5,4,english,m,2,0.2,-39.20879804,1.09377229
651d3da180d4b0d9a79c33dd,48,0,2024-02-26T09:36:04.766Z,english_435.wav,0,pill,449,18,5,4,english,m,3,0.3,-30.66509024,1.98213584
651d3da180d4b0d9a79c33dd,48,0,2024-02-26T09:36:04.766Z,english_435.wav,0,pill,449,18,5,4,english,m,4,0.32341667,7.07056367,0.5936591
651d3da180d4b0d9a79c33dd,49,0,2024-02-26T09:36:04.766Z,english_709.wav,0,pill,867,18,5,4,english,m,0,0.0,-57.85840644,1.64294201
651d3da180d4b0d9a79c33dd,49,0,2024-02-26T09:36:04.766Z,english_709.wav,0,pill,867,18,5,4,english,m,1,0.1,-9.03046344,1.39808038
651d3da180d4b0d9a79c33dd,49,0,2024-02-26T09:36:04.766Z,english_709.wav,0,pill,867,18,5,4,english,m,2,0.2,-83.08592789,1.46645034
651d3da180d4b0d9a79c33dd,49,0,2024-02-26T09:36:04.766Z,english_709.wav,0,pill,867,18,5,4,english,m,3,0.3,-30.28779026,1.11724372
651d3da180d4b0d9a79c33dd,49,0,2024-02-26T09:36:04.766Z,english_709.wav,0,pill,867,18,5,4,english,m,4,0.32341667,-42.69418167,0.30195694
651d3da180d4b0d9a79c33dd,50,1,2024-02-26T09:36:04.766Z,english_463.wav,0,pill,718,18,5,4,english,m,0,0.0,-17.89775534,1.84132871
651d3da180d4b0d9a79c33dd,50,1,2024-02-26T09:36:04.766Z,english_463.wav,0,pill,718,18,5,4,english,m,1,0.1,-21.51631701,1.66361617
651d3da180d4b0d9a79c33dd,50,1,2024-02-26T09:36:04.766Z,english_463.wav,0,pill,718,18,5,4,english,m,2,0.2,-12.53951077,0.64060514
651d3da180d4b0d9a79c33dd,50,1,2024-02-26T09:36:04.766Z,english_463.wav,0,pill,718,18,5,4,english,m,3,0.3,33.47501925,1.01091097
651d3da180d4b0d9a79c33dd,50,1,2024-02-26T09:36:04.766Z,english_463.wav,0,pill,718,18,5,4,english,m,4,0.32341667,-93.09525534,0.69499506
651d3da180d4b0d9a79c33dd,51,1,2024-02-26T09:36:04.766Z,english_734.wav,0,peel,735,18,5,4,english,m,0,0.0,23.12527103,1.15728247
651d3da180d4b0d9a79c33dd,51,1,2024-02-26T09:36:04.766Z,english_734.wav,0,peel,735,18,5,4,english,m,1,0.1,70.97885261,1.10975856
651d3da180d4b0d9a79c33dd,51,1,2024-02-26T09:36:04.766Z,english_734.wav,0,peel,735,18,5,4,english,m,2,0.2,-68.62860591,0.41126476
651d3da180d4b0d9a79c33dd,51,1,2024-02-26T09:36:04.766Z,english_734.wav,0,peel,735,18,5,4,english,m,3,0.3,-14.81239301,1.45213782
651d3da180d4b0d9a79c33dd,51,1,2024-02-26T09:36:04.766Z,english_734.wav,0,peel,735,18,5,4,english,m,4,0.32341667,-74.40513958,1.98917216
651d3da180d4b0d9a79c33dd,52,1,2024-02-26T09:36:04.766Z,english_132.wav,0,pill,632,18,5,4,english,m,0,0.0,-72.51222148,1.10010631
651d3da180d4b0d9a79c33dd,52,1,2024-02-26T09:36:04.766Z,english_132.wav,0,pill,632,18,5,4,english,m,1,0.1,-7.68798614,1.14985521
651d3da180d4b0d9a79c33dd,52,1,2024-02-26T09:36:04.766Z,english_132.wav,0,pill,632,18,5,4,english,m,2,0.2,-26.80347179,1.49426164
651d3da180d4b0d9a79c33dd,52,1,2024-02-26T09:36:04.766Z,english_132.wav,0,pill,632,18,5,4,english,m,3,0.3,-51.62992771,1.25622472
651d3da180d4b0d9a79c33dd,52,1,2024-02-26T09:36:04.766Z,english_132.wav,0,pill,632,18,5,4,english,m,4,0.32341667,-1.85745595,0.89976888
651d3da180d4b0d9a79c33dd,53,1,2024-02-26T09:36:04.766Z,english_101.wav,0,pill,2213,18,5,4,english,m,0,0.0,60.77829508,0.77962125
651d3da180d4b0d9a79c33dd,53,1,2024-02-26T09:36:04.766Z,english_101.wav,0,pill,2213,18,5,4,english,m,1,0.1,43.41373716,0.02040908
651d3da180d4b0d9a79c33dd,53,1,2024-02-26T09:36:04.766Z,english_101.wav,0,pill,2213,18,5,4,english,m,2,0.2,56.16195873,0.79248433
651d3da180d4b0d9a79c33dd,53,1,2024-02-26T09:36:04.766Z,english_101.wav,0,pill,2213,18,5,4,english,m,3,0.3,-99.94719329,1.74003505
651d3da180d4b0d9a79c33dd,53,1,2024-02-26T09:36:04.766Z,english_101.wav,0,pill,2213,18,5,4,english,m,4,0.32341667,-1.35074094,1.66206156
651d3da180d4b0d9a79c33dd,54,1,2024-02-26T09:36:04.766Z,english_249.wav,0,pill,1137,18,5,4,english,m,0,0.0,78.40227579,1.91339694
651d3da180d4b0d9a79c33dd,54,1,2024-02-26T09:36:04.766Z,english_249.wav,0,pill,1137,18,5,4,english,m,1,0.1,-55.1129652,1.00834957
651d3da180d4b0d9a79c33dd,54,1,2024-02-26T09:36:04.766Z,english_249.wav,0,pill,1137,18,5,4,english,m,2,0.2,6.74447168,0.29418026
651d3da180d4b0d9a79c33dd,54,1,2024-02-26T09:36:04.766Z,english_249.wav,0,pill,1137,18,5,4,english,m,3,0.3,27.3376716,1.53256547
651d3da180d4b0d9a79c33dd,54,1,2024-02-26T09:36:04.766Z,english_249.wav,0,pill,1137,18,5,4,english,m,4,0.32341667,-97.08031886,0.99264532
651d3da180d4b0d9a79c33dd,55,1,2024-02-26T09:36:04.766Z,english_390.wav,0,pill,601,18,5,4,english,m,0,0.0,-50.40750922,1.41643644
651d3da180d4b0d9a79c33dd,55,1,2024-02-26T09:36:04.766Z,english_390.wav,0,pill,601,18,5,4,english,m,1,0.1,-38.67641955,0.84399933
651d3da180d4b0d9a79c33dd,55,1,2024-02-26T09:36:04.766Z,english_390.wav,0,pill,601,18,5,4,english,m,2,0.2,-37.03459725,1.67796426
651d3da180d4b0d9a79c33dd,55,1,2024-02-26T09:36:04.766Z,english_390.wav,0,pill,601,18,5,4,english,m,3,0.3,-24.07335547,0.43781117
651d3da180d4b0d9a79c33dd,55,1,2024-02-26T09:36:04.766Z,english_390.wav,0,pill,601,18,5,4,english,m,4,0.32341667,75.09366884,0.01225463
651d3da180d4b0d9a79c33dd,56,1,2024-02-26T09:36:04.766Z,english_182.wav,0,pill,670,18,5,4,english,m,0,0.0,57.43769915,0.89919812
651d3da180d4b0d9a79c33dd,56,1,2024-02-26T09:36:04.766Z,english_182.wav,0,pill,670,18,5,4,english,m,1,0.1,-87.06676545,1.25243937
651d3da180d4b0d9a79c33dd,56,1,2024-02-26T09:36:04.766Z,english_182.wav,0,pill,670,18,5,4,english,m,2,0.2,-91.52107401,1.35021358
651d3da180d4b0d9a79c33dd,56,1,2024-02-26T09:36:04.766Z,english_182.wav,0,pill,670,18,5,4,english,m,3,0.3,52.0843588,0.52787795
651d3da180d4b0d9a79c33dd,56,1,2024-02-26T09:36:04.766Z,english_182.wav,0,pill,670,18,5,4,english,m,4,0.32341667,18.07264914,0.72620624
651d3da180d4b0d9a79c33dd,57,1,2024-02-26T09:36:04.766Z,english_578.wav,0,pill,569,18,5,4,english,m,0,0.0,-76.90925642,1.21901793
651d3da180d4b0d9a79c33dd,57,1,2024-02-26T09:36:04.766Z,english_578.wav,0,pill,569,18,5,4,english,m,1,0.1,-68.48676994,1.4118495
651d3da180d4b0d9a79c33dd,57,1,2024-02-26T09:36:04.766Z,english_578.wav,0,pill,569,18,5,4,english,m,2,0.2,36.30884798,0.05521057
651d3da180d4b0d9a79c33dd,57,1,2024-02-26T09:36:04.766Z,english_578.wav,0,pill,569,18,5,4,english,m,3,0.3,-36.82491274,1.45629656
651d3da180d4b0d9a79c33dd,57,1,2024-02-26T09:36:04.766Z,english_578.wav,0,pill,569,18,5,4,english,m,4,0.32341667,-4.04717442,1.80268091
651d3da180d4b0d9a79c33dd,58,1,2024-02-26T09:36:04.766Z,english_937.wav,0,peel,1003,18,5,4,english,m,0,0.0,76.77394395,1.55370699
651d3da180d4b0d9a79c33dd,58,1,2024-02-26T09:36:04.766Z,english_937.wav,0,peel,1003,18,5,4,english,m,1,0.1,49.33576264,1.82028848
651d3da180d4b0d9a79c33dd,58,1,2024-02-26T09:36:04.766Z,english_937.wav,0,peel,1003,18,5,4,english,m,2,0.2,-87.39935237,1.42487505
651d3da180d4b0d9a79c33dd,58,1,2024-02-26T09:36:04.766Z,english_937.wav,0,peel,1003,18,5,4,english,m,3,0.3,11.02170053,0.87896062
651d3da180d4b0d9a79c33dd,58,1,2024-02-26T09:36:04.766Z,english_937.wav,0,peel,1003,18,5,4,english,m,4,0.32341667,91.99381322,0.96516852
651d3da180d4b0d9a79c33dd,59,1,2024-02-26T09:36:04.766Z,english_395.wav,0,peel,685,18,5,4,english,m,0,0.0,12.69072165,1.18485033
651d3da180d4b0d9a79c33dd,59,1,2024-02-26T09:36:04.766Z,english_395.wav,0,peel,685,18,5,4,english,m,1,0.1,16.88915645,0.64230571
651d3da180d4b0d9a79c33dd,59,1,2024-02-26T09:36:04.766Z,english_395.wav,0,peel,685,18,5,4,english,m,2,0.2,49.23789678,0.95454364
651d3da180d4b0d9a79c33dd,59,1,2024-02-26T09:36:04.766Z,english_395.wav,0,peel,685,18,5,4,english,m,3,0.3,39.87613746,0.75997929
651d3da180d4b0d9a79c33dd,59,1,2024-02-26T09:36:04.766Z,english_395.wav,0,peel,685,18,5,4,english,m,4,0.32341667,70.90138048,1.50770695
651d3da180d4b0d9a79c33dd,60,1,2024-02-26T09:36:04.766Z,english_88.wav,0,peel,983,18,5,4,english,m,0,0.0,26.55889683,1.3027014
651d3da180d4b0d9a79c33dd,60,1,2024-02-26T09:36:04.766Z,english_88.wav,0,peel,983,18,5,4,english,m,1,0.1,31.00356365,0.67122251
651d3da180d4b0d9a79c33dd,60,1,2024-02-26T09:36:04.766Z,english_88.wav,0,peel,983,18,5,4,english,m,2,0.2,-60.56468942,0.59704477
651d3da180d4b0d9a79c33dd,60,1,2024-02-26T09:36:04.766Z,english_88.wav,0,peel,983,18,5,4,english,m,3,0.3,-56.53017227,1.68194373
651d3da180d4b0d9a79c33dd,60,1,2024-02-26T09:36:04.766Z,english_88.wav,0,peel,983,18,5,4,english,m,4,0.32341667,-78.90279024,0.42277005
651d3da180d4b0d9a79c33dd,61,1,2024-02-26T09:36:04.766Z,english_305.wav,0,pill,1854,18,5,4,english,m,0,0.0,-23.95553444,0.70401859
651d3da180d4b0d9a79c33dd,61,1,2024-02-26T09:36:04.766Z,english_305.wav,0,pill,1854,18,5,4,english,m,1,0.1,-97.95184299,0.00875292
651d3da180d4b0d9a79c33dd,61,1,2024-02-26T09:36:04.766Z,english_305.wav,0,pill,1854,18,5,4,english,m,2,0.2,95.23338475,1.8427633
651d3da180d4b0d9a79c33dd,61,1,2024-02-26T09:36:04.766Z,english_305.wav,0,pill,1854,18,5,4,english,m,3,0.3,10.74081096,1.83453859
651d3da180d4b0d9a79c33dd,61,1,2024-02-26T09:36:04.766Z,english_305.wav,0,pill,1854,18,5,4,english,m,4,0.32341667,24.9757793,1.77535614
651d3da180d4b0d9a79c33dd,62,1,2024-02-26T09:36:04.766Z,english_993.wav,0,pill,2780,18,5,4,english,m,0,0.0,-66.15449332,1.17508471
651d3da180d4b0d9a79c33dd,62,1,2024-02-26T09:36:04.766Z,english_993.wav,0,pill,2780,18,5,4,english,m,1,0.1,33.08083728,0.94744004
651d3da180d4b0d9a79c33dd,62,1,2024-02-26T09:36:04.766Z,english_993.wav,0,pill,2780,18,5,4,english,m,2,0.2,51.46479562,0.74931244
651d3da180d4b0d9a79c33dd,62,1,2024-02-26T09:36:04.766Z,english_993.wav,0,pill,2780,18,5,4,english,m,3,0.3,-80.58676237,0.35628979
651d3da180d4b0d9a79c33dd,62,1,2024-02-26T09:36:04.766Z,english_993.wav,0,pill,2780,18,5,4,english,m,4,0.32341667,81.97884737,1.25416847
651d3da180d4b0d9a79c33dd,63,1,2024-02-26T09:36:04.766Z,english_231.wav,0,peel,1526,18,5,4,english,m,0,0.0,-57.04299033,1.30850831
651d3da180d4b0d9a79c33dd,63,1,2024-02-26T09:36:04.766Z,english_231.wav,0,peel,1526,18,5,4,english,m,1,0.1,-61.30294243,1.06317761
651d3da180d4b0d9a79c33dd,63,1,2024-02-26T09:36:04.766Z,english_231.wav,0,peel,1526,18,5,4,english,m,2,0.2,11.10207427,1.86768436
651d3da180d4b0d9a79c33dd,63,1,2024-02-26T09:36:04.766Z,english_231.wav,0,peel,1526,18,5,4,english,m,3,0.3,-1.38864911,1.42169342
651d3da180d4b0d9a79c33dd,63,1,2024-02-26T09:36:04.766Z,english_231.wav,0,peel,1526,18,5,4,english,m,4,0.32341667,-40.37897369,0.58634772
651d3da180d4b0d9a79c33dd,64,1,2024-02-26T09:36:04.766Z,english_531.wav,0,pill,1082,18,5,4,english,m,0,0.0,-79.40575395,0.23141906
651d3da180d4b0d9a79c33dd,64,1,2024-02-26T09:36:04.766Z,english_531.wav,0,pill,1082,18,5,4,english,m,1,0.1,24.69139357,1.34739197
651d3da180d4b0d9a79c33dd,64,1,2024-02-26T09:36:04.766Z,english_531.wav,0,pill,1082,18,5,4,english,m,2,0.2,31.85465478,0.44473315
651d3da180d4b0d9a79c33dd,64,1,2024-02-26T09:36:04.766Z,english_531.wav,0,pill,1082,18,5,4,english,m,3,0.3,0.37788074,1.31624907
651d3da180d4b0d9a79c33dd,64,1,2024-02-26T09:36:04.766Z,english_531.wav,0,pill,1082,18,5,4,english,m,4,0.32341667,-42.85922685,0.82105614
651d3da180d4b0d9a79c33dd,65,1,2024-02-26T09:36:04.766Z,english_539.wav,0,pill,961,18,5,4,english,m,0,0.0,-67.77604021,0.83598486
651d3da180d4b0d9a79c33dd,65,1,2024-02-26T09:36:04.766Z,english_539.wav,0,pill,961,18,5,4,english,m,1,0.1,61.22104537,1.51877163
651d3da180d4b0d9a79c33dd,65,1,2024-02-26T09:36:04.766Z,english_539.wav,0,pill,961,18,5,4,english,m,2,0.2,38.09257369,1.73578169
651d3da180d4b0d9a79c33dd,65,1,2024-02-26T09:36:04.766Z,english_539.wav,0,pill,961,18,5,4,english,m,3,0.3,-20.76875757,0.52680037
651d3da180d4b0d9a79c33dd,65,1,2024-02-26T09:36:04.766Z,english_539.wav,0,pill,961,18,5,4,english,m,4,0.32341667,-47.71444482,1.99278149
651d3da180d4b0d9a79c33dd,66,1,2024-02-26T09:36:04.766Z,english_566.wav,0,pill,1969,18,5,4,english,m,0,0.0,70.56000247,1.04698608
651d3da180d4b0d9a79c33dd,66,1,2024-02-26T09:36:04.766Z,english_566.wav,0,pill,1969,18,5,4,english,m,1,0.1,-0.18246418,1.13826263
651d3da180d4b0d9a79c33dd,66,1,2024-02-26T09:36:04.766Z,english_566.wav,0,pill,1969,18,5,4,english,m,2,0.2,-23.7188651,1.91259561
651d3da180d4b0d9a79c33dd,66,1,2024-02-26T09:36:04.766Z,english_566.wav,0,pill,1969,18,5,4,english,m,3,0.3,12.5469797,1.08561121
651d3da180d4b0d9a79c33dd,66,1,2024-02-26T09:36:04.766Z,english_566.wav,0,pill,1969,18,5,4,english,m,4,0.32341667,-84.37997634,1.98926692
651d3da180d4b0d9a79c33dd,67,1,2024-02-26T09:36:04.766Z,english_591.wav,0,pill,1185,18,5,4,english,m,0,0.0,-17.23532002,0.16408748
651d3da180d4b0d9a79c33dd,67,1,2024-02-26T09:36:04.766Z,english_591.wav,0,pill,1185,18,5,4,english,m,1,0.1,-55.20494434,0.21361432
651d3da180d4b0d9a79c33dd,67,1,2024-02-26T09:36:04.766Z,english_591.wav,0,pill,1185,18,5,4,english,m,2,0.2,-36.65883109,0.19384467
651d3da180d4b0d9a79c33dd,67,1,2024-02-26T09:36:04.766Z,english_591.wav,0,pill,1185,18,5,4,english,m,3,0.3,75.34514139,0.82850175
651d3da180d4b0d9a79c33dd,67,1,2024-02-26T09:36:04.766Z,english_591.wav,0,pill,1185,18,5,4,english,m,4,0.32341667,31.2832342,1.471328
651d3da180d4b0d9a79c33dd,68,1,2024-02-26T09:36:04.766Z,english_987.wav,0,pill,1788,18,5,4,english,m,0,0.0,91.33137772,1.82656395
651d3da180d4b0d9a79c33dd,68,1,2024-02-26T09:36:04.766Z,english_987.wav,0,pill,1788,18,5,4,english,m,1,0.1,-39.20299527,1.12122948
651d3da180d4b0d9a79c33dd,68,1,2024-02-26T09:36:04.766Z,english_987.wav,0,pill,1788,18,5,4,english,m,2,0.2,78.9852337,1.12025045
651d3da180d4b0d9a79c33dd,68,1,2024-02-26T09:36:04.766Z,english_987.wav,0,pill,1788,18,5,4,english,m,3,0.3,-94.66209845,1.02557261
651d3da180d4b0d9a79c33dd,68,1,2024-02-26T09:36:04.766Z,english_987.wav,0,pill,1788,18,5,4,english,m,4,0.32341667,-71.76730894,1.06580695
651d3da180d4b0d9a79c33dd,69,1,2024-02-26T09:36:04.766Z,english_563.wav,0,pill,1026,18,5,4,english,m,0,0.0,19.758909,0.0609285
651d3da180d4b0d9a79c33dd,69,1,2024-02-26T09:36:04.766Z,english_563.wav,0,pill,1026,18,5,4,english,m,1,0.1,33.70416131,1.63852294
651d3da180d4b0d9a79c33dd,69,1,2024-02-26T09:36:04.766Z,english_563.wav,0,pill,1026,18,5,4,english,m,2,0.2,-28.26228599,0.53834051
651d3da180d4b0d9a79c33dd,69,1,2024-02-26T09:36:04.766Z,english_563.wav,0,pill,1026,18,5,4,english,m,3,0.3,77.25360299,0.54558093
651d3da180d4b0d9a79c33dd,69,1,2024-02-26T09:36:04.766Z,english_563.wav,0,pill,1026,18,5,4,english,m,4,0.32341667,-40.65982077,0.29994173
651d3da180d4b0d9a79c33dd,70,1,2024-02-26T09:36:04.766Z,english_982.wav,0,pill,1611,18,5,4,english,m,0,0.0,12.44046596,0.81508625
651d3da180d4b0d9a79c33dd,70,1,2024-02-26T09:36:04.766Z,english_982.wav,0,pill,1611,18,5,4,english,m,1,0.1,-60.41666302,0.92712357
651d3da180d4b0d9a79c33dd,70,1,2024-02-26T09:36:04.766Z,english_982.wav,0,pill,1611,18,5,4,english,m,2,0.2,-35.31499742,0.77678916
651d3da180d4b0d9a79c33dd,70,1,2024-02-26T09:36:04.766Z,english_982.wav,0,pill,1611,18,5,4,english,m,3,0.3,-10.96739076,1.0294352
651d3da180d4b0d9a79c33dd,70,1,2024-02-26T09:36:04.766Z,english_982.wav,0,pill,1611,18,5,4,english,m,4,0.32341667,44.50624474,1.1322674
651d3da180d4b0d9a79c33dd,71,1,2024-02-26T09:36:04.766Z,english_246.wav,0,pill,1789,18,5,4,english,m,0,0.0,-62.23082525,0.02615808
651d3da180d4b0d9a79c33dd,71,1,2024-02-26T09:36:04.766Z,english_246.wav,0,pill,1789,18,5,4,english,m,1,0.1,59.67623932,1.52596932
651d3da180d4b0d9a79c33dd,71,1,2024-02-26T09:36:04.766Z,english_246.wav,0,pill,1789,18,5,4,english,m,2,0.2,-63.30715513,1.87080553
651d3da180d4b0d9a79c33dd,71,1,2024-02-26T09:36:04.766Z,english_246.wav,0,pill,1789,18,5,4,english,m,3,0.3,15.41118057,0.81226596
651d3da180d4b0d9a79c33dd,71,1,2024-02-26T09:36:04.766Z,english_246.wav,0,pill,1789,18,5,4,english,m,4,0.32341667,90.60814582,0.64975072
651d3da180d4b0d9a79c33dd,72,1,2024-02-26T09:36:04.766Z,english_196.wav,0,peel,1119,18,5,4,english,m,0,0.0,-86.38202104,1.63362226
651d3da180d4b0d9a79c33dd,72,1,2024-02-26T09:36:04.766Z,english_196.wav,0,peel,1119,18,5,4,english,m,1,0.1,0.95731439,1.36148231
651d3da180d4b0d9a79c33dd,72,1,2024-02-26T09:36:04.766Z,english_196.wav,0,peel,1119,18,5,4,english,m,2,0.2,-48.4797064,0.68683683
651d3da180d4b0d9a79c33dd,72,1,2024-02-26T09:36:04.766Z,english_196.wav,0,peel,1119,18,5,4,english,m,3,0.3,50.57477866,1.59869277
651d3da180d4b0d9a79c33dd,72,1,2024-02-26T09:36:04.766Z,english_196.wav,0,peel,1119,18,5,4,english,m,4,0.32341667,-52.07184875,0.40963154
651d3da180d4b0d9a79c33dd,73,1,2024-02-26T09:36:04.766Z,english_994.wav,0,pill,1113,18,5,4,english,m,0,0.0,53.6083957,1.72152032
651d3da180d4b0d9a79c33dd,73,1,2024-02-26T09:36:04.766Z,english_994.wav,0,pill,1113,18,5,4,english,m,1,0.1,62.5650281,0.97077126
651d3da180d4b0d9a79c33dd,73,1,2024-02-26T09:36:04.766Z,english_994.wav,0,pill,1113,18,5,4,english,m,2,0.2,91.00734213,1.1154275
651d3da180d4b0d9a79c33dd,73,1,2024-02-26T09:36:04.766Z,english_994.wav,0,pill,1113,18,5,4,english,m,3,0.3,-14.6853323,0.93534142
651d3da180d4b0d9a79c33dd,73,1,2024-02-26T09:36:04.766Z,english_994.wav,0,pill,1113,18,5,4,english,m,4,0.32341667,42.94025292,1.51312842
651d3da180d4b0d9a79c33dd,74,1,2024-02-26T09:36:04.766Z,english_198.wav,0,peel,1600,18,5,4,english,m,0,0.0,-3.53881338,0.6033193
651d3da180d4b0d9a79c33dd,74,1,2024-02-26T09:36:04.766Z,english_198.wav,0,peel,1600,18,5,4,english,m,1,0.1,58.04445454,0.57837506
651d3da180d4b0d9a79c33dd,74,1,2024-02-26T09:36:04.766Z,english_198.wav,0,peel,1600,18,5,4,english,m,2,0.2,67.39523563,1.37850613
651d3da180d4b0d9a79c33dd,74,1,2024-02-26T09:36:04.766Z,english_198.wav,0,peel,1600,18,5,4,english,m,3,0.3,56.58835275,0.73107668
651d3da180d4b0d9a79c33dd,74,1,2024-02-26T09:36:04.766Z,english_198.wav,0,peel,1600,18,5,4,english,m,4,0.32341667,7.34595052,0.42006089
651d3da180d4b0d9a79c33dd,75,1,2024-02-26T09:36:04.766Z,english_287.wav,0,pill,2235,18,5,4,english,m,0,0.0,-5.71925808,1.04112926
651d3da180d4b0d9a79c33dd,75,1,2024-02-26T09:36:04.766Z,english_287.wav,0,pill,2235,18,5,4,english,m,1,0.1,-94.78041007,0.35149142
651d3da180d4b0d9a79c33dd,75,1,2024-02-26T09:36:04.766Z,english_287.wav,0,pill,2235,18,5,4,english,m,2,0.2,8.34641368,0.86781598
651d3da180d4b0d9a79c33dd,75,1,2024-02-26T09:36:04.766Z,english_287.wav,0,pill,2235,18,5,4,english,m,3,0.3,36.34893025,1.897904
651d3da180d4b0d9a79c33dd,75,1,2024-02-26T09:36:04.766Z,english_287.wav,0,pill,2235,18,5,4,english,m,4,0.32341667,-22.47689594,0.5607403
651d3da180d4b0d9a79c33dd,76,1,2024-02-26T09:36:04.766Z,english_298.wav,0,pill,1534,18,5,4,english,m,0,0.0,-71.75530507,0.91890611
651d3da180d4b0d9a79c33dd,76,1,2024-02-26T09:36:04.766Z,english_298.wav,0,pill,1534,18,5,4,english,m,1,0.1,76.25876358,0.7322353
651d3da180d4b0d9a79c33dd,76,1,2024-02-26T09:36:04.766Z,english_298.wav,0,pill,1534,18,5,4,english,m,2,0.2,11.95102224,0.50601445
651d3da180d4b0d9a79c33dd,76,1,2024-02-26T09:36:04.766Z,english_298.wav,0,pill,1534,18,5,4,english,m,3,0.3,79.91037795,0.41160049
651d3da180d4b0d9a79c33dd,76,1,2024-02-26T09:36:04.766Z,english_298.wav,0,pill,1534,18,5,4,english,m,4,0.32341667,30.12462174,0.81223035
651d3da180d4b0d9a79c33dd,77,1,2024-02-26T09:36:04.766Z,english_100.wav,0,peel,1354,18,5,4,english,m,0,0.0,-66.86198445,0.79522553
651d3da180d4b0d9a79c33dd,77,1,2024-02-26T09:36:04.766Z,english_100.wav,0,peel,1354,18,5,4,english,m,1,0.1,32.23990363,0.27784591
651d3da180d4b0d9a79c33dd,77,1,2024-02-26T09:36:04.766Z,english_100.wav,0,peel,1354,18,5,4,english,m,2,0.2,-63.31896149,1.76330212
651d3da180d4b0d9a79c33dd,77,1,2024-02-26T09:36:04.766Z,english_100.wav,0,peel,1354,18,5,4,english,m,3,0.3,-73.00038049,0.60946618
651d3da180d4b0d9a79c33dd,77,1,2024-02-26T09:36:04.766Z,english_100.wav,0,peel,1354,18,5,4,english,m,4,0.32341667,32.15710315,0.42695433
651d3da180d4b0d9a79c33dd,78,1,2024-02-26T09:36:04.766Z,english_153.wav,0,peel,7378,18,5,4,english,m,0,0.0,1.34878197,1.20280718
651d3da180d4b0d9a79c33dd,78,1,2024-02-26T09:36:04.766Z,english_153.wav,0,peel,7378,18,5,4,english,m,1,0.1,-86.14475674,1.60924223
651d3da180d4b0d9a79c33dd,78,1,2024-02-26T09:36:04.766Z,english_153.wav,0,peel,7378,18,5,4,english,m,2,0.2,3.24582423,0.94422247
651d3da180d4b0d9a79c33dd,78,1,2024-02-26T09:36:04.766Z,english_153.wav,0,peel,7378,18,5,4,english,m,3,0.3,-6.94068795,0.98008297
651d3da180d4b0d9a79c33dd,78,1,2024-02-26T09:36:04.766Z,english_153.wav,0,peel,7378,18,5,4,english,m,4,0.32341667,-76.91560753,0.34988026
651d3da180d4b0d9a79c33dd,79,1,2024-02-26T09:36:04.766Z,english_683.wav,0,peel,1979,18,5,4,english,m,0,0.0,-73.37543508,1.70409633
651d3da180d4b0d9a79c33dd,79,1,2024-02-26T09:36:04.766Z,english_683.wav,0,peel,1979,18,5,4,english,m,1,0.1,66.4080647,1.25556383
651d3da180d4b0d9a79c33dd,79,1,2024-02-26T09:36:04.766Z,english_683.wav,0,peel,1979,18,5,4,english,m,2,0.2,46.46812351,0.87554738
651d3da180d4b0d9a79c33dd,79,1,2024-02-26T09:36:04.766Z,english_683.wav,0,peel,1979,18,5,4,english,m,3,0.3,71.67755016,1.32863005
651d3da180d4b0d9a79c33dd,79,1,2024-02-26T09:36:04.766Z,english_683.wav,0,peel,1979,18,5,4,english,m,4,0.32341667,2.86253031,0.20364682
651d3da180d4b0d9a79c33dd,80,1,2024-02-26T09:36:04.766Z,english_592.wav,0,pill,3953,18,5,4,english,m,0,0.0,-77.34060672,0.96869857
651d3da180d4b0d9a79c33dd,80,1,2024-02-26T09:36:04.766Z,english_592.wav,0,pill,3953,18,5,4,english,m,1,0.1,27.41551815,1.75134411
651d3da180d4b0d9a79c33dd,80,1,2024-02-26T09:36:04.766Z,english_592.wav,0,pill,3953,18,5,4,english,m,2,0.2,-17.47445882,1.41680483
651d3da180d4b0d9a79c33dd,80,1,2024-02-26T09:36:04.766Z,english_592.wav,0,pill,3953,18,5,4,english,m,3,0.3,-61.08462212,1.07260777
651d3da180d4b0d9a79c33dd,80,1,2024-02-26T09:36:04.766Z,english_592.wav,0,pill,3953,18,5,4,english,m,4,0.32341667,74.7675789,0.73150904
651d3da180d4b0d9a79c33dd,81,1,2024-02-26T09:36:04.766Z,english_311.wav,0,peel,1142,18,5,4,english,m,0,0.0,-35.59355899,0.16094856
651d3da180d4b0d9a79c33dd,81,1,2024-02-26T09:36:04.766Z,english_311.wav,0,peel,1142,18,5,4,english,m,1,0.1,-50.39310557,1.33895436
651d3da180d4b0d9a79c33dd,81,1,2024-02-26T09:36:04.766Z,english_311.wav,0,peel,1142,18,5,4,english,m,2,0.2,-53.37222601,0.01028283
651d3da180d4b0d9a79c33dd,81,1,2024-02-26T09:36:04.766Z,english_311.wav,0,peel,1142,18,5,4,english,m,3,0.3,72.25802658,0.48497386
651d3da180d4b0d9a79c33dd,81,1,2024-02-26T09:36:04.766Z,english_311.wav,0,peel,1142,18,5,4,english,m,4,0.32341667,48.72421008,0.48591183
651d3da180d4b0d9a79c33dd,82,1,2024-02-26T09:36:04.766Z,english_912.wav,0,pill,1429,18,5,4,english,m,0,0.0,-43.64864707,0.87210048
651d3da180d4b0d9a79c33dd,82,1,2024-02-26T09:36:04.766Z,english_912.wav,0,pill,1429,18,5,4,english,m,1,0.1,94.54433808,1.43243955
651d3da180d4b0d9a79c33dd,82,1,2024-02-26T09:36:04.766Z,english_912.wav,0,pill,1429,18,5,4,english,m,2,0.2,67.98324072,1.49899487
651d3da180d4b0d9a79c33dd,82,1,2024-02-26T09:36:04.766Z,english_912.wav,0,pill,1429,18,5,4,english,m,3,0.3,9.27329172,0.42663795
651d3da180d4b0d9a79c33dd,82,1,2024-02-26T09:36:04.766Z,english_912.wav,0,pill,1429,18,5,4,english,m,4,0.32341667,-55.44973818,0.19299009
651d3da180d4b0d9a79c33dd,83,1,2024-02-26T09:36:04.766Z,english_639.wav,0,pill,965,18,5,4,english,m,0,0.0,-8.64176861,1.80061108
651d3da180d4b0d9a79c33dd,83,1,2024-02-26T09:36:04.766Z,english_639.wav,0,pill,965,18,5,4,english,m,1,0.1,-2.28240571,0.32075858
651d3da180d4b0d9a79c33dd,83,1,2024-02-26T09:36:04.766Z,english_639.wav,0,pill,965,18,5,4,english,m,2,0.2,61.07673865,0.35362442
651d3da180d4b0d9a79c33dd,83,1,2024-02-26T09:36:04.766Z,english_639.wav,0,pill,965,18,5,4,english,m,3,0.3,-20.33592136,1.48415136
651d3da180d4b0d9a79c33dd,83,1,2024-02-26T09:36:04.766Z,english_639.wav,0,pill,965,18,5,4,english,m,4,0.32341667,-24.05835486,0.14560931
651d3da180d4b0d9a79c33dd,84,1,2024-02-26T09:36:04.766Z,english_824.wav,0,pill,2167,18,5,4,english,m,0,0.0,80.46503136,1.43025592
651d3da180d4b0d9a79c33dd,84,1,2024-02-26T09:36:04.766Z,english_824.wav,0,pill,2167,18,5,4,english,m,1,0.1,-48.668347,0.89138167
651d3da180d4b0d9a79c33dd,84,1,2024-02-26T09:36:04.766Z,english_824.wav,0,pill,2167,18,5,4,english,m,2,0.2,37.27765876,1.91281619
651d3da180d4b0d9a79c33dd,84,1,2024-02-26T09:36:04.766Z,english_824.wav,0,pill,2167,18,5,4,english,m,3,0.3,-91.29945309,0.71335031
651d3da180d4b0d9a79c33dd,84,1,2024-02-26T09:36:04.766Z,english_824.wav,0,pill,2167,18,5,4,english,m,4,0.32341667,14.46507007,0.89780818
651d3da180d4b0d9a79c33dd,85,1,2024-02-26T09:36:04.766Z,english_624.wav,0,peel,2800,18,5,4,english,m,0,0.0,-66.94889137,0.79130031
651d3da180d4b0d9a79c33dd,85,1,2024-02-26T09:36:04.766Z,english_624.wav,0,peel,2800,18,5,4,english,m,1,0.1,-6.87427926,1.85178888
651d3da180d4b0d9a79c33dd,85,1,2024-02-26T09:36:04.766Z,english_624.wav,0,peel,2800,18,5,4,english,m,2,0.2,69.52298075,0.79988954
651d3da180d4b0d9a79c33dd,85,1,2024-02-26T09:36:04.766Z,english_624.wav,0,peel,2800,18,5,4,english,m,3,0.3,-45.26015132,0.87521033
651d3da180d4b0d9a79c33dd,85,1,2024-02-26T09:36:04.766Z,english_624.wav,0,peel,2800,18,5,4,english,m,4,0.32341667,-50.37935108,1.50754026
651d3da180d4b0d9a79c33dd,86,1,2024-02-26T09:36:04.766Z,english_543.wav,0,pill,3247,18,5,4,english,m,0,0.0,13.74009622,0.63900578
651d3da180d4b0d9a79c33dd,86,1,2024-02-26T09:36:04.766Z,english_543.wav,0,pill,3247,18,5,4,english,m,1,0.1,51.80972721,1.6206981
651d3da180d4b0d9a79c33dd,86,1,2024-02-26T09:36:04.766Z,english_543.wav,0,pill,3247,18,5,4,english,m,2,0.2,86.3964352,0.03304675
651d3da180d4b0d9a79c33dd,86,1,2024-02-26T09:36:04.766Z,english_543.wav,0,pill,3247,18,5,4,english,m,3,0.3,-66.39783761,1.7049324
651d3da180d4b0d9a79c33dd,86,1,2024-02-26T09:36:04.766Z,english_543.wav,0,pill,3247,18,5,4,english,m,4,0.32341667,31.11863834,1.46507556
651d3da180d4b0d9a79c33dd,87,1,2024-02-26T09:36:04.766Z,english_401.wav,0,pill,2763,18,5,4,english,m,0,0.0,-70.37998858,1.11338134
651d3da180d4b0d9a79c33dd,87,1,2024-02-26T09:36:04.766Z,english_401.wav,0,pill,2763,18,5,4,english,m,1,0.1,49.27188779,1.59691292
651d3da180d4b0d9a79c33dd,87,1,2024-02-26T09:36:04.766Z,english_401.wav,0,pill,2763,18,5,4,english,m,2,0.2,5.09566389,0.88679935
651d3da180d4b0d9a79c33dd,87,1,2024-02-26T09:36:04.766Z,english_401.wav,0,pill,2763,18,5,4,english,m,3,0.3,58.42368176,1.89749174
651d3da180d4b0d9a79c33dd,87,1,2024-02-26T09:36:04.766Z,english_401.wav,0,pill,2763,18,5,4,english,m,4,0.32341667,-43.06407799,1.35831765
651d3da180d4b0d9a79c33dd,88,1,2024-02-26T09:36:04.766Z,english_648.wav,0,pill,1388,18,5,4,english,m,0,0.0,-36.17742204,0.57576188
651d3da180d4b0d9a79c33dd,88,1,2024-02-26T09:36:04.766Z,english_648.wav,0,pill,1388,18,5,4,english,m,1,0.1,30.10697278,1.1310908
651d3da180d4b0d9a79c33dd,88,1,2024-02-26T09:36:04.766Z,english_648.wav,0,pill,1388,18,5,4,english,m,2,0.2,-67.31320052,1.67112441
651d3da180d4b0d9a79c33dd,88,1,2024-02-26T09:36:04.766Z,english_648.wav,0,pill,1388,18,5,4,english,m,3,0.3,-10.94597212,0.39641968
651d3da180d4b0d9a79c33dd,88,1,2024-02-26T09:36:04.766Z,english_648.wav,0,pill,1388,18,5,4,english,m,4,0.32341667,72.59648235,1.93789316
651d3da180d4b0d9a79c33dd,89,1,2024-02-26T09:36:04.766Z,english_208.wav,0,peel,4685,18,5,4,english,m,0,0.0,-16.36413188,1.19542909
651d3da180d4b0d9a79c33dd,89,1,2024-02-26T09:36:04.766Z,english_208.wav,0,peel,4685,18,5,4,english,m,1,0.1,25.67725806,0.42717457
651d3da180d4b0d9a79c33dd,89,1,2024-02-26T09:36:04.766Z,english_208.wav,0,peel,4685,18,5,4,english,m,2,0.2,15.43722313,1.01088833
651d3da180d4b0d9a79c33dd,89,1,2024-02-26T09:36:04.766Z,english_208.wav,0,peel,4685,18,5,4,english,m,3,0.3,-39.3158007,1.09044814
651d3da180d4b0d9a79c33dd,89,1,2024-02-26T09:36:04.766Z,english_208.wav,0,peel,4685,18,5,4,english,m,4,0.32341667,38.48956167,1.60091335
651d3da180d4b0d9a79c33dd,90,1,2024-02-26T09:36:04.766Z,english_327.wav,0,pill,635,18,5,4,english,m,0,0.0,-65.34261839,0.94624792
651d3da180d4b0d9a79c33dd,90,1,2024-02-26T09:36:04.766Z,english_327.wav,0,pill,635,18,5,4,english,m,1,0.1,-88.88296173,0.88463276
651d3da180d4b0d9a79c33dd,90,1,2024-02-26T09:36:04.766Z,english_327.wav,0,pill,635,18,5,4,english,m,2,0.2,-52.48624316,0.8064175
651d3da180d4b0d9a79c33dd,90,1,2024-02-26T09:36:04.766Z,english_327.wav,0,pill,635,18,5,4,english,m,3,0.3,35.3894457,1.08656597
651d3da180d4b0d9a79c33dd,90,1,2024-02-26T09:36:04.766Z,english_327.wav,0,pill,635,18,5,4,english,m,4,0.32341667,-31.26503482,0.95323019
651d3da180d4b0d9a79c33dd,91,1,2024-02-26T09:36:04.766Z,english_177.wav,0,peel,1423,18,5,4,english,m,0,0.0,87.98258728,1.54790065
651d3da180d4b0d9a79c33dd,91,1,2024-02-26T09:36:04.766Z,english_177.wav,0,peel,1423,18,5,4,english,m,1,0.1,87.12011565,0.90861448
651d3da180d4b0d9a79c33dd,91,1,2024-02-26T09:36:04.766Z,english_177.wav,0,peel,1423,18,5,4,english,m,2,0.2,-29.82518494,0.58649069
651d3da180d4b0d9a79c33dd,91,1,2024-02-26T09:36:04.766Z,english_177.wav,0,peel,1423,18,5,4,english,m,3,0.3,54.38835911,0.51296238
651d3da180d4b0d9a79c33dd,91,1,2024-02-26T09:36:04.766Z,english_177.wav,0,peel,1423,18,5,4,english,m,4,0.32341667,53.98423531,1.78492888
651d3da180d4b0d9a79c33dd,92,1,2024-02-26T09:36:04.766Z,english_757.wav,0,pill,906,18,5,4,english,m,0,0.0,-71.37581006,0.57944866
651d3da180d4b0d9a79c33dd,92,1,2024-02-26T09:36:04.766Z,english_757.wav,0,pill,906,18,5,4,english,m,1,0.1,-34.89028362,1.76833087
651d3da180d4b0d9a79c33dd,92,1,2024-02-26T09:36:04.766Z,english_757.wav,0,pill,906,18,5,4,english,m,2,0.2,97.72444176,0.43040584
651d3da180d4b0d9a79c33dd,92,1,2024-02-26T09:36:04.766Z,english_757.wav,0,pill,906,18,5,4,english,m,3,0.3,8.64322444,1.84780211
651d3da180d4b0d9a79c33dd,92,1,2024-02-26T09:36:04.766Z,english_757.wav,0,pill,906,18,5,4,english,m,4,0.32341667,-59.15215987,0.21714226
651d3da180d4b0d9a79c33dd,93,1,2024-02-26T09:36:04.766Z,english_528.wav,0,pill,1310,18,5,4,english,m,0,0.0,34.31610554,1.55529168
651d3da180d4b0d9a79c33dd,93,1,2024-02-26T09:36:04.766Z,english_528.wav,0,pill,1310,18,5,4,english,m,1,0.1,28.08911917,0.29936297
651d3da180d4b0d9a79c33dd,93,1,2024-02-26T09:36:04.766Z,english_528.wav,0,pill,1310,18,5,4,english,m,2,0.2,-86.77613696,0.95155831
651d3da180d4b0d9a79c33dd,93,1,2024-02-26T09:36:04.766Z,english_528.wav,0,pill,1310,18,5,4,english,m,3,0.3,-45.45420678,1.46511459
651d3da180d4b0d9a79c33dd,93,1,2024-02-26T09:36:04.766Z,english_528.wav,0,pill,1310,18,5,4,english,m,4,0.32341667,-58.86275596,0.63923396
651d3da180d4b0d9a79c33dd,94,1,2024-02-26T09:36:04.766Z,english_922.wav,0,pill,928,18,5,4,english,m,0,0.0,-90.36253489,0.33253962
651d3da180d4b0d9a79c33dd,94,1,2024-02-26T09:36:04.766Z,english_922.wav,0,pill,928,18,5,4,english,m,1,0.1,-6.38761956,1.51366693
651d3da180d4b0d9a79c33dd,94,1,2024-02-26T09:36:04.766Z,english_922.wav,0,pill,928,18,5,4,english,m,2,0.2,-78.09661245,0.40049791
651d3da180d4b0d9a79c33dd,94,1,2024-02-26T09:36:04.766Z,english_922.wav,0,pill,928,18,5,4,english,m,3,0.3,-92.75722173,1.29207892
651d3da180d4b0d9a79c33dd,94,1,2024-02-26T09:36:04.766Z,english_922.wav,0,pill,928,18,5,4,english,m,4,0.32341667,-80.16719401,1.40400382
651d3da180d4b0d9a79c33dd,95,1,2024-02-26T09:36:04.766Z,english_529.wav,0,pill,1479,18,5,4,english,m,0,0.0,13.90759343,0.83001961
651d3da180d4b0d9a79c33dd,95,1,2024-02-26T09:36:04.766Z,english_529.wav,0,pill,1479,18,5,4,english,m,1,0.1,-33.526088,0.02518437
651d3da180d4b0d9a79c33dd,95,1,2024-02-26T09:36:04.766Z,english_529.wav,0,pill,1479,18,5,4,english,m,2,0.2,-34.32120589,1.61112877
651d3da180d4b0d9a79c33dd,95,1,2024-02-26T09:36:04.766Z,english_529.wav,0,pill,1479,18,5,4,english,m,3,0.3,-18.30112723,0.91948239
651d3da180d4b0d9a79c33dd,95,1,2024-02-26T09:36:04.766Z,english_529.wav,0,pill,1479,18,5,4,english,m,4,0.32341667,16.4796061,0.33204613
651d3da180d4b0d9a79c33dd,96,1,2024-02-26T09:36:04.766Z,english_687.wav,0,pill,948,18,5,4,english,m,0,0.0,86.90300909,0.475784
651d3da180d4b0d9a79c33dd,96,1,2024-02-26T09:36:04.766Z,english_687.wav,0,pill,948,18,5,4,english,m,1,0.1,79.71843279,0.40603367
651d3da180d4b0d9a79c33dd,96,1,2024-02-26T09:36:04.766Z,english_687.wav,0,pill,948,18,5,4,english,m,2,0.2,34.94433723,0.97706088
651d3da180d4b0d9a79c33dd,96,1,2024-02-26T09:36:04.766Z,english_687.wav,0,pill,948,18,5,4,english,m,3,0.3,-45.53952821,0.65075382
651d3da180d4b0d9a79c33dd,96,1,2024-02-26T09:36:04.766Z,english_687.wav,0,pill,948,18,5,4,english,m,4,0.32341667,63.0204093,0.93918167
651d3da180d4b0d9a79c33dd,97,1,2024-02-26T09:36:04.766Z,english_58.wav,0,peel,2388,18,5,4,english,m,0,0.0,20.12478601,1.19415515
651d3da180d4b0d9a79c33dd,97,1,2024-02-26T09:36:04.766Z,english_58.wav,0,peel,2388,18,5,4,english,m,1,0.1,-22.60038942,0.26098942
651d3da180d4b0d9a79c33dd,97,1,2024-02-26T09:36:04.766Z,english_58.wav,0,peel,2388,18,5,4,english,m,2,0.2,34.38627512,1.99195241
651d3da180d4b0d9a79c33dd,97,1,2024-02-26T09:36:04.766Z,english_58.wav,0,peel,2388,18,5,4,english,m,3,0.3,30.90369434,0.42925074
651d3da180d4b0d9a79c33dd,97,1,2024-02-26T09:36:04.766Z,english_58.wav,0,peel,2388,18,5,4,english,m,4,0.32341667,11.39971337,0.50368767
651d3da180d4b0d9a79c33dd,98,1,2024-02-26T09:36:04.766Z,english_453.wav,0,peel,1743,18,5,4,english,m,0,0.0,-60.23429987,1.87756573
651d3da180d4b0d9a79c33dd,98,1,2024-02-26T09:36:04.766Z,english_453.wav,0,peel,1743,18,5,4,english,m,1,0.1,80.38725697,0.94070469
651d3da180d4b0d9a79c33dd,98,1,2024-02-26T09:36:04.766Z,english_453.wav,0,peel,1743,18,5,4,english,m,2,0.2,66.16689695,1.71191258
651d3da180d4b0d9a79c33dd,98,1,2024-02-26T09:36:04.766Z,english_453.wav,0,peel,1743,18,5,4,english,m,3,0.3,-59.46214637,0.56012011
651d3da180d4b0d9a79c33dd,98,1,2024-02-26T09:36:04.766Z,english_453.wav,0,peel,1743,18,5,4,english,m,4,0.32341667,-39.76201882,0.35119419
651d3da180d4b0d9a79c33dd,99,1,2024-02-26T09:36:04.766Z,english_157.wav,0,peel,5411,18,5,4,english,m,0,0.0,-74.01864956,1.10168906
651d3da180d4b0d9a79c33dd,99,1,2024-02-26T09:36:04.766Z,english_157.wav,0,peel,5411,18,5,4,english,m,1,0.1,1.44529667,1.71225259
651d3da180d4b0d9a79c33dd,99,1,2024-02-26T09:36:04.766Z,english_157.wav,0,peel,5411,18,5,4,english,m,2,0.2,-42.76251303,1.71884561
651d3da180d4b0d9a79c33dd,99,1,2024-02-26T09:36:04.766Z,english_157.wav,0,peel,5411,18,5,4,english,m,3,0.3,-49.01483239,1.47822148
651d3da180d4b0d9a79c33dd,99,1,2024-02-26T09:36:04.766Z,english_157.wav,0,peel,5411,18,5,4,english,m,4,0.32341667,-96.85595697,1.36273156
651d3da180d4b0d9a79c33dd,100,2,2024-02-26T09:36:04.766Z,english_133.wav,0,peel,1491,18,5,4,english,m,0,0.0,12.35833749,0.72635311
651d3da180d4b0d9a79c33dd,100,2,2024-02-26T09:36:04.766Z,english_133.wav,0,peel,1491,18,5,4,english,m,1,0.1,40.12315016,1.38782059
651d3da180d4b0d9a79c33dd,100,2,2024-02-26T09:36:04.766Z,english_133.wav,0,peel,1491,18,5,4,english,m,2,0.2,21.09458129,0.15947395
651d3da180d4b0d9a79c33dd,100,2,2024-02-26T09:36:04.766Z,english_133.wav,0,peel,1491,18,5,4,english,m,3,0.3,-98.82286682,0.28433836
651d3da180d4b0d9a79c33dd,100,2,2024-02-26T09:36:04.766Z,english_133.wav,0,peel,1491,18,5,4,english,m,4,0.32341667,-85.44748976,1.2581514
651d3da180d4b0d9a79c33dd,101,2,2024-02-26T09:36:04.766Z,english_190.wav,0,peel,1531,18,5,4,english,m,0,0.0,81.66607819,0.126715216
651d3da180d4b0d9a79c33dd,101,2,2024-02-26T09:36:04.766Z,english_190.wav,0,peel,1531,18,5,4,english,m,1,0.1,-14.16938067,0.000178349903
651d3da180d4b0d9a79c33dd,101,2,2024-02-26T09:36:04.766Z,english_190.wav,0,peel,1531,18,5,4,english,m,2,0.2,15.7443745,1.35192229
651d3da180d4b0d9a79c33dd,101,2,2024-02-26T09:36:04.766Z,english_190.wav,0,peel,1531,18,5,4,english,m,3,0.3,85.77694093,1.08905811
651d3da180d4b0d9a79c33dd,101,2,2024-02-26T09:36:04.766Z,english_190.wav,0,peel,1531,18,5,4,english,m,4,0.32341667,33.21115004,1.75580408
651d3da180d4b0d9a79c33dd,102,2,2024-02-26T09:36:04.766Z,english_412.wav,0,pill,2373,18,5,4,english,m,0,0.0,-82.38375592,0.41347899
651d3da180d4b0d9a79c33dd,102,2,2024-02-26T09:36:04.766Z,english_412.wav,0,pill,2373,18,5,4,english,m,1,0.1,-35.89348303,0.05505218
651d3da180d4b0d9a79c33dd,102,2,2024-02-26T09:36:04.766Z,english_412.wav,0,pill,2373,18,5,4,english,m,2,0.2,-78.50422887,1.28972039
651d3da180d4b0d9a79c33dd,102,2,2024-02-26T09:36:04.766Z,english_412.wav,0,pill,2373,18,5,4,english,m,3,0.3,8.19618882,0.97331843
651d3da180d4b0d9a79c33dd,102,2,2024-02-26T09:36:04.766Z,english_412.wav,0,pill,2373,18,5,4,english,m,4,0.32341667,88.30694734,0.22558246
651d3da180d4b0d9a79c33dd,103,2,2024-02-26T09:36:04.766Z,english_864.wav,0,peel,1024,18,5,4,english,m,0,0.0,-41.66547405,0.15536101
651d3da180d4b0d9a79c33dd,103,2,2024-02-26T09:36:04.766Z,english_864.wav,0,peel,1024,18,5,4,english,m,1,0.1,47.36949562,1.78739046
651d3da180d4b0d9a79c33dd,103,2,2024-02-26T09:36:04.766Z,english_864.wav,0,peel,1024,18,5,4,english,m,2,0.2,87.97635609,1.48310956
651d3da180d4b0d9a79c33dd,103,2,2024-02-26T09:36:04.766Z,english_864.wav,0,peel,1024,18,5,4,english,m,3,0.3,-18.88921291,0.35838492
651d3da180d4b0d9a79c33dd,103,2,2024-02-26T09:36:04.766Z,english_864.wav,0,peel,1024,18,5,4,english,m,4,0.32341667,13.88839096,0.21709894
651d3da180d4b0d9a79c33dd,104,2,2024-02-26T09:36:04.766Z,english_915.wav,0,pill,2660,18,5,4,english,m,0,0.0,40.39704719,0.11203387
651d3da180d4b0d9a79c33dd,104,2,2024-02-26T09:36:04.766Z,english_915.wav,0,pill,2660,18,5,4,english,m,1,0.1,-77.86782689,0.449249
651d3da180d4b0d9a79c33dd,104,2,2024-02-26T09:36:04.766Z,english_915.wav,0,pill,2660,18,5,4,english,m,2,0.2,21.84672988,0.02407483
651d3da180d4b0d9a79c33dd,104,2,2024-02-26T09:36:04.766Z,english_915.wav,0,pill,2660,18,5,4,english,m,3,0.3,-56.0972156,1.6502756
651d3da180d4b0d9a79c33dd,104,2,2024-02-26T09:36:04.766Z,english_915.wav,0,pill,2660,18,5,4,english,m,4,0.32341667,65.00594456,0.65362707
651d3da180d4b0d9a79c33dd,105,2,2024-02-26T09:36:04.766Z,english_159.wav,0,peel,2601,18,5,4,english,m,0,0.0,-83.7072706,0.09138871
651d3da180d4b0d9a79c33dd,105,2,2024-02-26T09:36:04.766Z,english_159.wav,0,peel,2601,18,5,4,english,m,1,0.1,-62.69238784,0.63335487
651d3da180d4b0d9a79c33dd,105,2,2024-02-26T09:36:04.766Z,english_159.wav,0,peel,2601,18,5,4,english,m,2,0.2,22.09248507,1.23550763
651d3da180d4b0d9a79c33dd,105,2,2024-02-26T09:36:04.766Z,english_159.wav,0,peel,2601,18,5,4,english,m,3,0.3,-80.94681782,1.83356136
651d3da180d4b0d9a79c33dd,105,2,2024-02-26T09:36:04.766Z,english_159.wav,0,peel,2601,18,5,4,english,m,4,0.32341667,-55.76861956,0.76796393
651d3da180d4b0d9a79c33dd,106,2,2024-02-26T09:36:04.766Z,english_373.wav,0,peel,4102,18,5,4,english,m,0,0.0,-63.66458186,0.61104768
651d3da180d4b0d9a79c33dd,106,2,2024-02-26T09:36:04.766Z,english_373.wav,0,peel,4102,18,5,4,english,m,1,0.1,-61.42386056,1.64905001
651d3da180d4b0d9a79c33dd,106,2,2024-02-26T09:36:04.766Z,english_373.wav,0,peel,4102,18,5,4,english,m,2,0.2,-78.74831974,1.44355649
651d3da180d4b0d9a79c33dd,106,2,2024-02-26T09:36:04.766Z,english_373.wav,0,peel,4102,18,5,4,english,m,3,0.3,-23.23108213,1.63671726
651d3da180d4b0d9a79c33dd,106,2,2024-02-26T09:36:04.766Z,english_373.wav,0,peel,4102,18,5,4,english,m,4,0.32341667,-77.15694383,1.96911306
651d3da180d4b0d9a79c33dd,107,2,2024-02-26T09:36:04.766Z,english_843.wav,0,peel,2949,18,5,4,english,m,0,0.0,-34.38568909,1.38988397
651d3da180d4b0d9a79c33dd,107,2,2024-02-26T09:36:04.766Z,english_843.wav,0,peel,2949,18,5,4,english,m,1,0.1,91.48235516,0.61638546
651d3da180d4b0d9a79c33dd,107,2,2024-02-26T09:36:04.766Z,english_843.wav,0,peel,2949,18,5,4,english,m,2,0.2,45.43581208,1.5800421
651d3da180d4b0d9a79c33dd,107,2,2024-02-26T09:36:04.766Z,english_843.wav,0,peel,2949,18,5,4,english,m,3,0.3,47.04005582,1.07327256
651d3da180d4b0d9a79c33dd,107,2,2024-02-26T09:36:04.766Z,english_843.wav,0,peel,2949,18,5,4,english,m,4,0.32341667,30.80916685,0.46994626
651d3da180d4b0d9a79c33dd,108,2,2024-02-26T09:36:04.766Z,english_571.wav,0,peel,2732,18,5,4,english,m,0,0.0,-42.92588422,0.65590276
651d3da180d4b0d9a79c33dd,108,2,2024-02-26T09:36:04.766Z,english_571.wav,0,peel,2732,18,5,4,english,m,1,0.1,-87.39276897,1.8306878
651d3da180d4b0d9a79c33dd,108,2,2024-02-26T09:36:04.766Z,english_571.wav,0,peel,2732,18,5,4,english,m,2,0.2,19.06282168,0.06889765
651d3da180d4b0d9a79c33dd,108,2,2024-02-26T09:36:04.766Z,english_571.wav,0,peel,2732,18,5,4,english,m,3,0.3,-99.30459792,0.29364209
651d3da180d4b0d9a79c33dd,108,2,2024-02-26T09:36:04.766Z,english_571.wav,0,peel,2732,18,5,4,english,m,4,0.32341667,41.25263337,1.388798
651d3da180d4b0d9a79c33dd,109,2,2024-02-26T09:36:04.766Z,english_949.wav,0,peel,857,18,5,4,english,m,0,0.0,48.32946721,1.50413289
651d3da180d4b0d9a79c33dd,109,2,2024-02-26T09:36:04.766Z,english_949.wav,0,peel,857,18,5,4,english,m,1,0.1,73.83586198,1.55745414
651d3da180d4b0d9a79c33dd,109,2,2024-02-26T09:36:04.766Z,english_949.wav,0,peel,857,18,5,4,english,m,2,0.2,-30.27812065,1.00772566
651d3da180d4b0d9a79c33dd,109,2,2024-02-26T09:36:04.766Z,english_949.wav,0,peel,857,18,5,4,english,m,3,0.3,-32.50397555,0.86702054
651d3da180d4b0d9a79c33dd,109,2,2024-02-26T09:36:04.766Z,english_949.wav,0,peel,857,18,5,4,english,m,4,0.32341667,96.46984971,1.67836019
651d3da180d4b0d9a79c33dd,110,2,2024-02-26T09:36:04.766Z,english_925.wav,0,peel,597,18,5,4,english,m,0,0.0,-23.38055082,1.07708889
651d3da180d4b0d9a79c33dd,110,2,2024-02-26T09:36:04.766Z,english_925.wav,0,peel,597,18,5,4,english,m,1,0.1,12.69502826,1.65606803
651d3da180d4b0d9a79c33dd,110,2,2024-02-26T09:36:04.766Z,english_925.wav,0,peel,597,18,5,4,english,m,2,0.2,77.53463838,0.48648737
651d3da180d4b0d9a79c33dd,110,2,2024-02-26T09:36:04.766Z,english_925.wav,0,peel,597,18,5,4,english,m,3,0.3,58.05299948,0.8939016
651d3da180d4b0d9a79c33dd,110,2,2024-02-26T09:36:04.766Z,english_925.wav,0,peel,597,18,5,4,english,m,4,0.32341667,54.12197927,0.72199492
651d3da180d4b0d9a79c33dd,111,2,2024-02-26T09:36:04.766Z,english_347.wav,0,peel,6562,18,5,4,english,m,0,0.0,34.89178431,1.32203506
651d3da180d4b0d9a79c33dd,111,2,2024-02-26T09:36:04.766Z,english_347.wav,0,peel,6562,18,5,4,english,m,1,0.1,53.24978685,0.28714436
651d3da180d4b0d9a79c33dd,111,2,2024-02-26T09:36:04.766Z,english_347.wav,0,peel,6562,18,5,4,english,m,2,0.2,4.11185022,1.66093526
651d3da180d4b0d9a79c33dd,111,2,2024-02-26T09:36:04.766Z,english_347.wav,0,peel,6562,18,5,4,english,m,3,0.3,89.26663646,1.29826057
651d3da180d4b0d9a79c33dd,111,2,2024-02-26T09:36:04.766Z,english_347.wav,0,peel,6562,18,5,4,english,m,4,0.32341667,-53.02646266,0.05504814
651d3da180d4b0d9a79c33dd,112,2,2024-02-26T09:36:04.766Z,english_120.wav,0,peel,1545,18,5,4,english,m,0,0.0,55.2306484,0.43658612
651d3da180d4b0d9a79c33dd,112,2,2024-02-26T09:36:04.766Z,english_120.wav,0,peel,1545,18,5,4,english,m,1,0.1,82.00530973,0.03999251
651d3da180d4b0d9a79c33dd,112,2,2024-02-26T09:36:04.766Z,english_120.wav,0,peel,1545,18,5,4,english,m,2,0.2,-5.84837635,0.80827096
651d3da180d4b0d9a79c33dd,112,2,2024-02-26T09:36:04.766Z,english_120.wav,0,peel,1545,18,5,4,english,m,3,0.3,66.20489525,1.78669421
651d3da180d4b0d9a79c33dd,112,2,2024-02-26T09:36:04.766Z,english_120.wav,0,peel,1545,18,5,4,english,m,4,0.32341667,-73.22302923,1.04341795
651d3da180d4b0d9a79c33dd,113,2,2024-02-26T09:36:04.766Z,english_335.wav,0,peel,923,18,5,4,english,m,0,0.0,2.73277154,0.73564724
651d3da180d4b0d9a79c33dd,113,2,2024-02-26T09:36:04.766Z,english_335.wav,0,peel,923,18,5,4,english,m,1,0.1,-7.1950175,0.15546095
651d3da180d4b0d9a79c33dd,113,2,2024-02-26T09:36:04.766Z,english_335.wav,0,peel,923,18,5,4,english,m,2,0.2,60.45920583,0.90435367
651d3da180d4b0d9a79c33dd,113,2,2024-02-26T09:36:04.766Z,english_335.wav,0,peel,923,18,5,4,english,m,3,0.3,-26.91989021,0.56661996
651d3da180d4b0d9a79c33dd,113,2,2024-02-26T09:36:04.766Z,english_335.wav,0,peel,923,18,5,4,english,m,4,0.32341667,-2.30142169,1.21763394
651d3da180d4b0d9a79c33dd,114,2,2024-02-26T09:36:04.766Z,english_954.wav,0,peel,425,18,5,4,english,m,0,0.0,-31.7323473,1.78985335
651d3da180d4b0d9a79c33dd,114,2,2024-02-26T09:36:04.766Z,english_954.wav,0,peel,425,18,5,4,english,m,1,0.1,26.42807939,1.38754521
651d3da180d4b0d9a79c33dd,114,2,2024-02-26T09:36:04.766Z,english_954.wav,0,peel,425,18,5,4,english,m,2,0.2,22.25968883,1.54917493
651d3da180d4b0d9a79c33dd,114,2,2024-02-26T09:36:04.766Z,english_954.wav,0,peel,425,18,5,4,english,m,3,0.3,-25.30270181,1.54718362
651d3da180d4b0d9a79c33dd,114,2,2024-02-26T09:36:04.766Z,english_954.wav,0,peel,425,18,5,4,english,m,4,0.32341667,46.97185243,0.09638929
651d3da180d4b0d9a79c33dd,115,2,2024-02-26T09:36:04.766Z,english_202.wav,0,peel,620,18,5,4,english,m,0,0.0,-30.7410802,1.48506999
651d3da180d4b0d9a79c33dd,115,2,2024-02-26T09:36:04.766Z,english_202.wav,0,peel,620,18,5,4,english,m,1,0.1,-19.68361402,1.61937363
651d3da180d4b0d9a79c33dd,115,2,2024-02-26T09:36:04.766Z,english_202.wav,0,peel,620,18,5,4,english,m,2,0.2,-9.93463647,0.73964021
651d3da180d4b0d9a79c33dd,115,2,2024-02-26T09:36:04.766Z,english_202.wav,0,peel,620,18,5,4,english,m,3,0.3,-7.1971022,1.93955383
651d3da180d4b0d9a79c33dd,115,2,2024-02-26T09:36:04.766Z,english_202.wav,0,peel,620,18,5,4,english,m,4,0.32341667,-23.97797133,1.43199581
651d3da180d4b0d9a79c33dd,116,2,2024-02-26T09:36:04.766Z,english_557.wav,0,peel,362,18,5,4,english,m,0,0.0,43.94308994,0.38165316
651d3da180d4b0d9a79c33dd,116,2,2024-02-26T09:36:04.766Z,english_557.wav,0,peel,362,18,5,4,english,m,1,0.1,84.77773598,1.19567933
651d3da180d4b0d9a79c33dd,116,2,2024-02-26T09:36:04.766Z,english_557.wav,0,peel,362,18,5,4,english,m,2,0.2,-14.75143777,1.35103773
651d3da180d4b0d9a79c33dd,116,2,2024-02-26T09:36:04.766Z,english_557.wav,0,peel,362,18,5,4,english,m,3,0.3,-37.76141322,1.69174007
651d3da180d4b0d9a79c33dd,116,2,2024-02-26T09:36:04.766Z,english_557.wav,0,peel,362,18,5,4,english,m,4,0.32341667,-5.99076179,0.4334092
651d3da180d4b0d9a79c33dd,117,2,2024-02-26T09:36:04.766Z,english_568.wav,0,peel,1044,18,5,4,english,m,0,0.0,-80.38325009,1.52383372
651d3da180d4b0d9a79c33dd,117,2,2024-02-26T09:36:04.766Z,english_568.wav,0,peel,1044,18,5,4,english,m,1,0.1,65.28340143,0.37337456
651d3da180d4b0d9a79c33dd,117,2,2024-02-26T09:36:04.766Z,english_568.wav,0,peel,1044,18,5,4,english,m,2,0.2,22.57833022,0.67023469
651d3da180d4b0d9a79c33dd,117,2,2024-02-26T09:36:04.766Z,english_568.wav,0,peel,1044,18,5,4,english,m,3,0.3,-55.44872251,1.98652091
651d3da180d4b0d9a79c33dd,117,2,2024-02-26T09:36:04.766Z,english_568.wav,0,peel,1044,18,5,4,english,m,4,0.32341667,-94.3142815,1.15861726
651d3da180d4b0d9a79c33dd,118,2,2024-02-26T09:36:04.766Z,english_512.wav,0,peel,1803,18,5,4,english,m,0,0.0,92.76608442,1.91273189
651d3da180d4b0d9a79c33dd,118,2,2024-02-26T09:36:04.766Z,english_512.wav,0,peel,1803,18,5,4,english,m,1,0.1,-20.68005196,1.02897077
651d3da180d4b0d9a79c33dd,118,2,2024-02-26T09:36:04.766Z,english_512.wav,0,peel,1803,18,5,4,english,m,2,0.2,-55.10098951,0.7965214
651d3da180d4b0d9a79c33dd,118,2,2024-02-26T09:36:04.766Z,english_512.wav,0,peel,1803,18,5,4,english,m,3,0.3,79.8086149,1.98502062
651d3da180d4b0d9a79c33dd,118,2,2024-02-26T09:36:04.766Z,english_512.wav,0,peel,1803,18,5,4,english,m,4,0.32341667,-91.21136492,0.13323305
651d3da180d4b0d9a79c33dd,119,2,2024-02-26T09:36:04.766Z,english_903.wav,0,peel,1991,18,5,4,english,m,0,0.0,73.58848698,0.30588109
651d3da180d4b0d9a79c33dd,119,2,2024-02-26T09:36:04.766Z,english_903.wav,0,peel,1991,18,5,4,english,m,1,0.1,-95.58060262,0.88963747
651d3da180d4b0d9a79c33dd,119,2,2024-02-26T09:36:04.766Z,english_903.wav,0,peel,1991,18,5,4,english,m,2,0.2,17.41642173,1.73634476
651d3da180d4b0d9a79c33dd,119,2,2024-02-26T09:36:04.766Z,english_903.wav,0,peel,1991,18,5,4,english,m,3,0.3,94.35223882,0.71257749
651d3da180d4b0d9a79c33dd,119,2,2024-02-26T09:36:04.766Z,english_903.wav,0,peel,1991,18,5,4,english,m,4,0.32341667,-49.48803877,1.4824474
651d3da180d4b0d9a79c33dd,120,2,2024-02-26T09:36:04.766Z,english_880.wav,0,peel,530,18,5,4,english,m,0,0.0,3.17154152,0.81183988
651d3da180d4b0d9a79c33dd,120,2,2024-02-26T09:36:04.766Z,english_880.wav,0,peel,530,18,5,4,english,m,1,0.1,-74.02271749,1.44061269
651d3da180d4b0d9a79c33dd,120,2,2024-02-26T09:36:04.766Z,english_880.wav,0,peel,530,18,5,4,english,m,2,0.2,46.15952764,0.42884863
651d3da180d4b0d9a79c33dd,120,2,2024-02-26T09:36:04.766Z,english_880.wav,0,peel,530,18,5,4,english,m,3,0.3,4.14106927,1.93838261
651d3da180d4b0d9a79c33dd,120,2,2024-02-26T09:36:04.766Z,english_880.wav,0,peel,530,18,5,4,english,m,4,0.32341667,26.36707366,1.4503687
651d3da180d4b0d9a79c33dd,121,2,2024-02-26T09:36:04.766Z,english_243.wav,0,peel,862,18,5,4,english,m,0,0.0,-74.41503345,0.65151457
651d3da180d4b0d9a79c33dd,121,2,2024-02-26T09:36:04.766Z,english_243.wav,0,peel,862,18,5,4,english,m,1,0.1,-16.65530333,0.20623253
651d3da180d4b0d9a79c33dd,121,2,2024-02-26T09:36:04.766Z,english_243.wav,0,peel,862,18,5,4,english,m,2,0.2,-1.41224798,0.87153721
651d3da180d4b0d9a79c33dd,121,2,2024-02-26T09:36:04.766Z,english_243.wav,0,peel,862,18,5,4,english,m,3,0.3,37.30419975,0.28583671
651d3da180d4b0d9a79c33dd,121,2,2024-02-26T09:36:04.766Z,english_243.wav,0,peel,862,18,5,4,english,m,4,0.32341667,-3.40378668,1.90700275
651d3da180d4b0d9a79c33dd,122,2,2024-02-26T09:36:04.766Z,english_595.wav,0,peel,415,18,5,4,english,m,0,0.0,-39.84727911,1.6526444
651d3da180d4b0d9a79c33dd,122,2,2024-02-26T09:36:04.766Z,english_595.wav,0,peel,415,18,5,4,english,m,1,0.1,-68.85607622,1.11711065
651d3da180d4b0d9a79c33dd,122,2,2024-02-26T09:36:04.766Z,english_595.wav,0,peel,415,18,5,4,english,m,2,0.2,23.68364187,1.96516016
651d3da180d4b0d9a79c33dd,122,2,2024-02-26T09:36:04.766Z,english_595.wav,0,peel,415,18,5,4,english,m,3,0.3,-80.51887658,0.34053421
651d3da180d4b0d9a79c33dd,122,2,2024-02-26T09:36:04.766Z,english_595.wav,0,peel,415,18,5,4,english,m,4,0.32341667,-94.66311932,1.22603371
651d3da180d4b0d9a79c33dd,123,2,2024-02-26T09:36:04.766Z,english_963.wav,0,peel,428,18,5,4,english,m,0,0.0,-60.03327616,0.86711865
651d3da180d4b0d9a79c33dd,123,2,2024-02-26T09:36:04.766Z,english_963.wav,0,peel,428,18,5,4,english,m,1,0.1,-15.51067414,1.69273621
651d3da180d4b0d9a79c33dd,123,2,2024-02-26T09:36:04.766Z,english_963.wav,0,peel,428,18,5,4,english,m,2,0.2,59.36715957,0.74157302
651d3da180d4b0d9a79c33dd,123,2,2024-02-26T09:36:04.766Z,english_963.wav,0,peel,428,18,5,4,english,m,3,0.3,-98.70464219,1.73078555
651d3da180d4b0d9a79c33dd,123,2,2024-02-26T09:36:04.766Z,english_963.wav,0,peel,428,18,5,4,english,m,4,0.32341667,37.26723218,1.37482324
651d3da180d4b0d9a79c33dd,124,2,2024-02-26T09:36:04.766Z,english_186.wav,0,peel,310,18,5,4,english,m,0,0.0,-54.7664391,1.87021502
651d3da180d4b0d9a79c33dd,124,2,2024-02-26T09:36:04.766Z,english_186.wav,0,peel,310,18,5,4,english,m,1,0.1,-8.4263529,1.36390049
651d3da180d4b0d9a79c33dd,124,2,2024-02-26T09:36:04.766Z,english_186.wav,0,peel,310,18,5,4,english,m,2,0.2,6.22451559,1.69942617
651d3da180d4b0d9a79c33dd,124,2,2024-02-26T09:36:04.766Z,english_186.wav,0,peel,310,18,5,4,english,m,3,0.3,-12.35671223,1.8066537
651d3da180d4b0d9a79c33dd,124,2,2024-02-26T09:36:04.766Z,english_186.wav,0,peel,310,18,5,4,english,m,4,0.32341667,86.21839615,1.2511354
651d3da180d4b0d9a79c33dd,125,2,2024-02-26T09:36:04.766Z,english_613.wav,0,peel,1073,18,5,4,english,m,0,0.0,-12.80235787,0.8409713
651d3da180d4b0d9a79c33dd,125,2,2024-02-26T09:36:04.766Z,english_613.wav,0,peel,1073,18,5,4,english,m,1,0.1,38.67858639,0.30410002
651d3da180d4b0d9a79c33dd,125,2,2024-02-26T09:36:04.766Z,english_613.wav,0,peel,1073,18,5,4,english,m,2,0.2,21.08834288,0.031636
651d3da180d4b0d9a79c33dd,125,2,2024-02-26T09:36:04.766Z,english_613.wav,0,peel,1073,18,5,4,english,m,3,0.3,94.81469787,1.79222997
651d3da180d4b0d9a79c33dd,125,2,2024-02-26T09:36:04.766Z,english_613.wav,0,peel,1073,18,5,4,english,m,4,0.32341667,18.45506868,1.98455664
651d3da180d4b0d9a79c33dd,126,2,2024-02-26T09:36:04.766Z,english_51.wav,0,peel,507,18,5,4,english,m,0,0.0,88.48054236,0.21487201
651d3da180d4b0d9a79c33dd,126,2,2024-02-26T09:36:04.766Z,english_51.wav,0,peel,507,18,5,4,english,m,1,0.1,-53.5534646,0.90061677
651d3da180d4b0d9a79c33dd,126,2,2024-02-26T09:36:04.766Z,english_51.wav,0,peel,507,18,5,4,english,m,2,0.2,-33.31344908,0.24834744
651d3da180d4b0d9a79c33dd,126,2,2024-02-26T09:36:04.766Z,english_51.wav,0,peel,507,18,5,4,english,m,3,0.3,87.0533187,1.31052611
651d3da180d4b0d9a79c33dd,126,2,2024-02-26T09:36:04.766Z,english_51.wav,0,peel,507,18,5,4,english,m,4,0.32341667,-16.55219825,0.58644625
651d3da180d4b0d9a79c33dd,127,2,2024-02-26T09:36:04.766Z,english_259.wav,0,peel,546,18,5,4,english,m,0,0.0,7.90187791,1.3064553
651d3da180d4b0d9a79c33dd,127,2,2024-02-26T09:36:04.766Z,english_259.wav,0,peel,546,18,5,4,english,m,1,0.1,31.67295647,1.01100372
651d3da180d4b0d9a79c33dd,127,2,2024-02-26T09:36:04.766Z,english_259.wav,0,peel,546,18,5,4,english,m,2,0.2,-53.65780041,0.35520266
651d3da180d4b0d9a79c33dd,127,2,2024-02-26T09:36:04.766Z,english_259.wav,0,peel,546,18,5,4,english,m,3,0.3,-72.94929757,1.35187683
651d3da180d4b0d9a79c33dd,127,2,2024-02-26T09:36:04.766Z,english_259.wav,0,peel,546,18,5,4,english,m,4,0.32341667,58.35152721,1.39599087
651d3da180d4b0d9a79c33dd,128,2,2024-02-26T09:36:04.766Z,english_623.wav,0,peel,570,18,5,4,english,m,0,0.0,-23.54178515,1.91881792
651d3da180d4b0d9a79c33dd,128,2,2024-02-26T09:36:04.766Z,english_623.wav,0,peel,570,18,5,4,english,m,1,0.1,-47.52772515,0.99675119
651d3da180d4b0d9a79c33dd,128,2,2024-02-26T09:36:04.766Z,english_623.wav,0,peel,570,18,5,4,english,m,2,0.2,47.20668934,0.26332691
651d3da180d4b0d9a79c33dd,128,2,2024-02-26T09:36:04.766Z,english_623.wav,0,peel,570,18,5,4,english,m,3,0.3,-98.32001938,1.33317057
651d3da180d4b0d9a79c33dd,128,2,2024-02-26T09:36:04.766Z,english_623.wav,0,peel,570,18,5,4,english,m,4,0.32341667,-63.09014275,1.04211108
651d3da180d4b0d9a79c33dd,129,2,2024-02-26T09:36:04.766Z,english_712.wav,0,peel,623,18,5,4,english,m,0,0.0,-69.83835125,1.15670948
651d3da180d4b0d9a79c33dd,129,2,2024-02-26T09:36:04.766Z,english_712.wav,0,peel,623,18,5,4,english,m,1,0.1,-89.98535393,0.40201287
651d3da180d4b0d9a79c33dd,129,2,2024-02-26T09:36:04.766Z,english_712.wav,0,peel,623,18,5,4,english,m,2,0.2,47.33040466,0.06412681
651d3da180d4b0d9a79c33dd,129,2,2024-02-26T09:36:04.766Z,english_712.wav,0,peel,623,18,5,4,english,m,3,0.3,-32.03166139,1.50973484
651d3da180d4b0d9a79c33dd,129,2,2024-02-26T09:36:04.766Z,english_712.wav,0,peel,623,18,5,4,english,m,4,0.32341667,-5.29851616,1.18377017
651d3da180d4b0d9a79c33dd,130,2,2024-02-26T09:36:04.766Z,english_46.wav,0,peel,637,18,5,4,english,m,0,0.0,-29.32250151,0.64118776
651d3da180d4b0d9a79c33dd,130,2,2024-02-26T09:36:04.766Z,english_46.wav,0,peel,637,18,5,4,english,m,1,0.1,-3.06808063,0.73649566
651d3da180d4b0d9a79c33dd,130,2,2024-02-26T09:36:04.766Z,english_46.wav,0,peel,637,18,5,4,english,m,2,0.2,90.97923358,1.88790792
651d3da180d4b0d9a79c33dd,130,2,2024-02-26T09:36:04.766Z,english_46.wav,0,peel,637,18,5,4,english,m,3,0.3,10.7462216,0.26788582
651d3da180d4b0d9a79c33dd,130,2,2024-02-26T09:36:04.766Z,english_46.wav,0,peel,637,18,5,4,english,m,4,0.32341667,-76.74347892,0.543593
651d3da180d4b0d9a79c33dd,131,2,2024-02-26T09:36:04.766Z,english_585.wav,0,peel,795,18,5,4,english,m,0,0.0,-47.47167609,0.91486293
651d3da180d4b0d9a79c33dd,131,2,2024-02-26T09:36:04.766Z,english_585.wav,0,peel,795,18,5,4,english,m,1,0.1,-85.73018253,0.8051019
651d3da180d4b0d9a79c33dd,131,2,2024-02-26T09:36:04.766Z,english_585.wav,0,peel,795,18,5,4,english,m,2,0.2,4.69567907,1.25289508
651d3da180d4b0d9a79c33dd,131,2,2024-02-26T09:36:04.766Z,english_585.wav,0,peel,795,18,5,4,english,m,3,0.3,51.83381109,0.83258124
651d3da180d4b0d9a79c33dd,131,2,2024-02-26T09:36:04.766Z,english_585.wav,0,peel,795,18,5,4,english,m,4,0.32341667,14.12777642,1.43411439
651d3da180d4b0d9a79c33dd,132,2,2024-02-26T09:36:04.766Z,english_325.wav,0,peel,555,18,5,4,english,m,0,0.0,-36.86035688,0.2784687
651d3da180d4b0d9a79c33dd,132,2,2024-02-26T09:36:04.766Z,english_325.wav,0,peel,555,18,5,4,english,m,1,0.1,-55.38569655,1.41229923
651d3da180d4b0d9a79c33dd,132,2,2024-02-26T09:36:04.766Z,english_325.wav,0,peel,555,18,5,4,english,m,2,0.2,-56.86017215,0.83316938
651d3da180d4b0d9a79c33dd,132,2,2024-02-26T09:36:04.766Z,english_325.wav,0,peel,555,18,5,4,english,m,3,0.3,-98.19449268,0.3465596
651d3da180d4b0d9a79c33dd,132,2,2024-02-26T09:36:04.766Z,english_325.wav,0,peel,555,18,5,4,english,m,4,0.32341667,-6.42447902,1.41863786
651d3da180d4b0d9a79c33dd,133,2,2024-02-26T09:36:04.766Z,english_240.wav,0,peel,533,18,5,4,english,m,0,0.0,-96.55121617,1.04823872
651d3da180d4b0d9a79c33dd,133,2,2024-02-26T09:36:04.766Z,english_240.wav,0,peel,533,18,5,4,english,m,1,0.1,73.99435309,1.11556714
651d3da180d4b0d9a79c33dd,133,2,2024-02-26T09:36:04.766Z,english_240.wav,0,peel,533,18,5,4,english,m,2,0.2,-27.17256968,0.68795106
651d3da180d4b0d9a79c33dd,133,2,2024-02-26T09:36:04.766Z,english_240.wav,0,peel,533,18,5,4,english,m,3,0.3,-2.05185553,1.30325309
651d3da180d4b0d9a79c33dd,133,2,2024-02-26T09:36:04.766Z,english_240.wav,0,peel,533,18,5,4,english,m,4,0.32341667,80.37406519,0.86977317
651d3da180d4b0d9a79c33dd,134,2,2024-02-26T09:36:04.766Z,english_791.wav,0,peel,471,18,5,4,english,m,0,0.0,65.91759783,1.00744019
651d3da180d4b0d9a79c33dd,134,2,2024-02-26T09:36:04.766Z,english_791.wav,0,peel,471,18,5,4,english,m,1,0.1,-36.70731143,0.67929445
651d3da180d4b0d9a79c33dd,134,2,2024-02-26T09:36:04.766Z,english_791.wav,0,peel,471,18,5,4,english,m,2,0.2,67.54354156,0.95779159
651d3da180d4b0d9a79c33dd,134,2,2024-02-26T09:36:04.766Z,english_791.wav,0,peel,471,18,5,4,english,m,3,0.3,2.89249458,1.93585264
651d3da180d4b0d9a79c33dd,134,2,2024-02-26T09:36:04.766Z,english_791.wav,0,peel,471,18,5,4,english,m,4,0.32341667,-55.92630603,0.7587469
651d3da180d4b0d9a79c33dd,135,2,2024-02-26T09:36:04.766Z,english_330.wav,0,peel,564,18,5,4,english,m,0,0.0,-66.0623823,1.84658225
651d3da180d4b0d9a79c33dd,135,2,2024-02-26T09:36:04.766Z,english_330.wav,0,peel,564,18,5,4,english,m,1,0.1,-90.7862333,0.94726644
651d3da180d4b0d9a79c33dd,135,2,2024-02-26T09:36:04.766Z,english_330.wav,0,peel,564,18,5,4,english,m,2,0.2,-0.00810713819,1.52006519
651d3da180d4b0d9a79c33dd,135,2,2024-02-26T09:36:04.766Z,english_330.wav,0,peel,564,18,5,4,english,m,3,0.3,-61.2450651,1.63286843
651d3da180d4b0d9a79c33dd,135,2,2024-02-26T09:36:04.766Z,english_330.wav,0,peel,564,18,5,4,english,m,4,0.323416667,-0.344586516,1.74173618
651d3da180d4b0d9a79c33dd,136,2,2024-02-26T09:36:04.766Z,english_600.wav,0,peel,411,18,5,4,english,m,0,0.0,37.30285492,1.23507691
651d3da180d4b0d9a79c33dd,136,2,2024-02-26T09:36:04.766Z,english_600.wav,0,peel,411,18,5,4,english,m,1,0.1,57.58729363,0.65453179
651d3da180d4b0d9a79c33dd,136,2,2024-02-26T09:36:04.766Z,english_600.wav,0,peel,411,18,5,4,english,m,2,0.2,-74.33256695,1.70226061
651d3da180d4b0d9a79c33dd,136,2,2024-02-26T09:36:04.766Z,english_600.wav,0,peel,411,18,5,4,english,m,3,0.3,-35.711252,0.4723836
651d3da180d4b0d9a79c33dd,136,2,2024-02-26T09:36:04.766Z,english_600.wav,0,peel,411,18,5,4,english,m,4,0.32341667,3.54782198,0.49080622
651d3da180d4b0d9a79c33dd,137,2,2024-02-26T09:36:04.766Z,english_564.wav,0,peel,575,18,5,4,english,m,0,0.0,-4.16228192,1.35245187
651d3da180d4b0d9a79c33dd,137,2,2024-02-26T09:36:04.766Z,english_564.wav,0,peel,575,18,5,4,english,m,1,0.1,-8.38376801,0.24798142
651d3da180d4b0d9a79c33dd,137,2,2024-02-26T09:36:04.766Z,english_564.wav,0,peel,575,18,5,4,english,m,2,0.2,52.82752554,1.26376743
651d3da180d4b0d9a79c33dd,137,2,2024-02-26T09:36:04.766Z,english_564.wav,0,peel,575,18,5,4,english,m,3,0.3,-92.64870354,0.73548171
651d3da180d4b0d9a79c33dd,137,2,2024-02-26T09:36:04.766Z,english_564.wav,0,peel,575,18,5,4,english,m,4,0.32341667,-48.86146536,0.1394123
651d3da180d4b0d9a79c33dd,138,2,2024-02-26T09:36:04.766Z,english_754.wav,0,peel,764,18,5,4,english,m,0,0.0,-19.76675532,0.85408869
651d3da180d4b0d9a79c33dd,138,2,2024-02-26T09:36:04.766Z,english_754.wav,0,peel,764,18,5,4,english,m,1,0.1,34.48414938,1.68072852
651d3da180d4b0d9a79c33dd,138,2,2024-02-26T09:36:04.766Z,english_754.wav,0,peel,764,18,5,4,english,m,2,0.2,62.52568934,1.92334892
651d3da180d4b0d9a79c33dd,138,2,2024-02-26T09:36:04.766Z,english_754.wav,0,peel,764,18,5,4,english,m,3,0.3,25.41574935,0.35114342
651d3da180d4b0d9a79c33dd,138,2,2024-02-26T09:36:04.766Z,english_754.wav,0,peel,764,18,5,4,english,m,4,0.32341667,-36.16911462,0.9845535
651d3da180d4b0d9a79c33dd,139,2,2024-02-26T09:36:04.766Z,english_113.wav,0,pill,1055,18,5,4,english,m,0,0.0,8.7952765,0.51001639
651d3da180d4b0d9a79c33dd,139,2,2024-02-26T09:36:04.766Z,english_113.wav,0,pill,1055,18,5,4,english,m,1,0.1,91.94692023,1.45766025
651d3da180d4b0d9a79c33dd,139,2,2024-02-26T09:36:04.766Z,english_113.wav,0,pill,1055,18,5,4,english,m,2,0.2,-6.68088057,1.25674442
651d3da180d4b0d9a79c33dd,139,2,2024-02-26T09:36:04.766Z,english_113.wav,0,pill,1055,18,5,4,english,m,3,0.3,38.28142065,1.93213547
651d3da180d4b0d9a79c33dd,139,2,2024-02-26T09:36:04.766Z,english_113.wav,0,pill,1055,18,5,4,english,m,4,0.32341667,-37.19939988,0.45590133
651d3da180d4b0d9a79c33dd,140,2,2024-02-26T09:36:04.766Z,english_547.wav,0,peel,831,18,5,4,english,m,0,0.0,30.48969685,1.04682874
651d3da180d4b0d9a79c33dd,140,2,2024-02-26T09:36:04.766Z,english_547.wav,0,peel,831,18,5,4,english,m,1,0.1,-38.27442703,0.75017858
651d3da180d4b0d9a79c33dd,140,2,2024-02-26T09:36:04.766Z,english_547.wav,0,peel,831,18,5,4,english,m,2,0.2,29.58442849,0.7996645
651d3da180d4b0d9a79c33dd,140,2,2024-02-26T09:36:04.766Z,english_547.wav,0,peel,831,18,5,4,english,m,3,0.3,-4.27268154,1.92102789
651d3da180d4b0d9a79c33dd,140,2,2024-02-26T09:36:04.766Z,english_547.wav,0,peel,831,18,5,4,english,m,4,0.32341667,58.02076364,1.77056707
651d3da180d4b0d9a79c33dd,141,2,2024-02-26T09:36:04.766Z,english_924.wav,0,pill,1003,18,5,4,english,m,0,0.0,63.64154058,1.83477076
651d3da180d4b0d9a79c33dd,141,2,2024-02-26T09:36:04.766Z,english_924.wav,0,pill,1003,18,5,4,english,m,1,0.1,-60.55254199,0.21366754
651d3da180d4b0d9a79c33dd,141,2,2024-02-26T09:36:04.766Z,english_924.wav,0,pill,1003,18,5,4,english,m,2,0.2,-47.94670646,1.07859551
651d3da180d4b0d9a79c33dd,141,2,2024-02-26T09:36:04.766Z,english_924.wav,0,pill,1003,18,5,4,english,m,3,0.3,-76.50696127,1.9507375
651d3da180d4b0d9a79c33dd,141,2,2024-02-26T09:36:04.766Z,english_924.wav,0,pill,1003,18,5,4,english,m,4,0.32341667,44.23103111,1.33476666
651d3da180d4b0d9a79c33dd,142,2,2024-02-26T09:36:04.766Z,english_997.wav,0,peel,1256,18,5,4,english,m,0,0.0,93.4252615,0.4603395
651d3da180d4b0d9a79c33dd,142,2,2024-02-26T09:36:04.766Z,english_997.wav,0,peel,1256,18,5,4,english,m,1,0.1,62.16088314,0.21654412
651d3da180d4b0d9a79c33dd,142,2,2024-02-26T09:36:04.766Z,english_997.wav,0,peel,1256,18,5,4,english,m,2,0.2,-26.38638022,1.36234896
651d3da180d4b0d9a79c33dd,142,2,2024-02-26T09:36:04.766Z,english_997.wav,0,peel,1256,18,5,4,english,m,3,0.3,89.15363163,1.07462804
651d3da180d4b0d9a79c33dd,142,2,2024-02-26T09:36:04.766Z,english_997.wav,0,peel,1256,18,5,4,english,m,4,0.32341667,-25.83137337,0.84007196
651d3da180d4b0d9a79c33dd,143,2,2024-02-26T09:36:04.766Z,english_620.wav,0,pill,880,18,5,4,english,m,0,0.0,-92.9203055,0.43561856
651d3da180d4b0d9a79c33dd,143,2,2024-02-26T09:36:04.766Z,english_620.wav,0,pill,880,18,5,4,english,m,1,0.1,26.7086056,0.24535421
651d3da180d4b0d9a79c33dd,143,2,2024-02-26T09:36:04.766Z,english_620.wav,0,pill,880,18,5,4,english,m,2,0.2,89.1883135,1.34102831
651d3da180d4b0d9a79c33dd,143,2,2024-02-26T09:36:04.766Z,english_620.wav,0,pill,880,18,5,4,english,m,3,0.3,-0.0557738795,1.80103954
651d3da180d4b0d9a79c33dd,143,2,2024-02-26T09:36:04.766Z,english_620.wav,0,pill,880,18,5,4,english,m,4,0.323416667,2.9787243,0.21248525
651d3da180d4b0d9a79c33dd,144,2,2024-02-26T09:36:04.766Z,english_909.wav,0,pill,1568,18,5,4,english,m,0,0.0,-19.4205152,0.17681169
651d3da180d4b0d9a79c33dd,144,2,2024-02-26T09:36:04.766Z,english_909.wav,0,pill,1568,18,5,4,english,m,1,0.1,-31.830868,1.02014656
651d3da180d4b0d9a79c33dd,144,2,2024-02-26T09:36:04.766Z,english_909.wav,0,pill,1568,18,5,4,english,m,2,0.2,71.05598051,1.59945112
651d3da180d4b0d9a79c33dd,144,2,2024-02-26T09:36:04.766Z,english_909.wav,0,pill,1568,18,5,4,english,m,3,0.3,-13.09259164,1.33685121
651d3da180d4b0d9a79c33dd,144,2,2024-02-26T09:36:04.766Z,english_909.wav,0,pill,1568,18,5,4,english,m,4,0.32341667,-99.47743822,0.41114962
651d3da180d4b0d9a79c33dd,145,2,2024-02-26T09:36:04.766Z,english_388.wav,0,pill,694,18,5,4,english,m,0,0.0,17.9760939,0.95494184
651d3da180d4b0d9a79c33dd,145,2,2024-02-26T09:36:04.766Z,english_388.wav,0,pill,694,18,5,4,english,m,1,0.1,-43.00340989,0.10281418
651d3da180d4b0d9a79c33dd,145,2,2024-02-26T09:36:04.766Z,english_388.wav,0,pill,694,18,5,4,english,m,2,0.2,-30.55059063,1.52164503
651d3da180d4b0d9a79c33dd,145,2,2024-02-26T09:36:04.766Z,english_388.wav,0,pill,694,18,5,4,english,m,3,0.3,-92.55876504,1.24827519
651d3da180d4b0d9a79c33dd,145,2,2024-02-26T09:36:04.766Z,english_388.wav,0,pill,694,18,5,4,english,m,4,0.32341667,-64.21175873,0.08180338
651d3da180d4b0d9a79c33dd,146,2,2024-02-26T09:36:04.766Z,english_969.wav,0,peel,1074,18,5,4,english,m,0,0.0,0.27440165,1.49550116
651d3da180d4b0d9a79c33dd,146,2,2024-02-26T09:36:04.766Z,english_969.wav,0,peel,1074,18,5,4,english,m,1,0.1,32.90941676,1.08086357
651d3da180d4b0d9a79c33dd,146,2,2024-02-26T09:36:04.766Z,english_969.wav,0,peel,1074,18,5,4,english,m,2,0.2,65.54691775,0.25687245
651d3da180d4b0d9a79c33dd,146,2,2024-02-26T09:36:04.766Z,english_969.wav,0,peel,1074,18,5,4,english,m,3,0.3,38.11090315,0.33107225
651d3da180d4b0d9a79c33dd,146,2,2024-02-26T09:36:04.766Z,english_969.wav,0,peel,1074,18,5,4,english,m,4,0.32341667,-66.49311905,0.72842933
651d3da180d4b0d9a79c33dd,147,2,2024-02-26T09:36:04.766Z,english_38.wav,0,pill,941,18,5,4,english,m,0,0.0,-2.78484508,0.45448836
651d3da180d4b0d9a79c33dd,147,2,2024-02-26T09:36:04.766Z,english_38.wav,0,pill,941,18,5,4,english,m,1,0.1,-57.68912839,0.86252605
651d3da180d4b0d9a79c33dd,147,2,2024-02-26T09:36:04.766Z,english_38.wav,0,pill,941,18,5,4,english,m,2,0.2,-17.27242754,1.61904865
651d3da180d4b0d9a79c33dd,147,2,2024-02-26T09:36:04.766Z,english_38.wav,0,pill,941,18,5,4,english,m,3,0.3,-2.64514482,1.39130822
651d3da180d4b0d9a79c33dd,147,2,2024-02-26T09:36:04.766Z,english_38.wav,0,pill,941,18,5,4,english,m,4,0.32341667,55.14373267,1.59066599
651d3da180d4b0d9a79c33dd,148,2,2024-02-26T09:36:04.766Z,english_197.wav,0,peel,586,18,5,4,english,m,0,0.0,-60.72223742,1.8449777
651d3da180d4b0d9a79c33dd,148,2,2024-02-26T09:36:04.766Z,english_197.wav,0,peel,586,18,5,4,english,m,1,0.1,-88.93421142,1.74693134
651d3da180d4b0d9a79c33dd,148,2,2024-02-26T09:36:04.766Z,english_197.wav,0,peel,586,18,5,4,english,m,2,0.2,51.43827126,1.11057597
651d3da180d4b0d9a79c33dd,148,2,2024-02-26T09:36:04.766Z,english_197.wav,0,peel,586,18,5,4,english,m,3,0.3,7.80125839,1.67371275
651d3da180d4b0d9a79c33dd,148,2,2024-02-26T09:36:04.766Z,english_197.wav,0,peel,586,18,5,4,english,m,4,0.32341667,-53.06876459,1.16077516
651d3da180d4b0d9a79c33dd,149,2,2024-02-26T09:36:04.766Z,english_634.wav,0,pill,591,18,5,4,english,m,0,0.0,-94.29539956,0.6011183
651d3da180d4b0d9a79c33dd,149,2,2024-02-26T09:36:04.766Z,english_634.wav,0,pill,591,18,5,4,english,m,1,0.1,28.41708136,1.15242669
651d3da180d4b0d9a79c33dd,149,2,2024-02-26T09:36:04.766Z,english_634.wav,0,pill,591,18,5,4,english,m,2,0.2,-99.13935281,0.68826906
651d3da180d4b0d9a79c33dd,149,2,2024-02-26T09:36:04.766Z,english_634.wav,0,pill,591,18,5,4,english,m,3,0.3,-78.11216949,1.44169335
651d3da180d4b0d9a79c33dd,149,2,2024-02-26T09:36:04.766Z,english_634.wav,0,pill,591,18,5,4,english,m,4,0.32341667,-54.5881907,0.90266094
651d3da180d4b0d9a79c33dd,150,3,2024-02-26T09:36:04.766Z,english_10.wav,0,peel,1208,18,5,4,english,m,0,0.0,-80.92247099,1.33142191
651d3da180d4b0d9a79c33dd,150,3,2024-02-26T09:36:04.766Z,english_10.wav,0,peel,1208,18,5,4,english,m,1,0.1,11.56157957,0.6588087
651d3da180d4b0d9a79c33dd,150,3,2024-02-26T09:36:04.766Z,english_10.wav,0,peel,1208,18,5,4,english,m,2,0.2,72.61501241,1.62851887
651d3da180d4b0d9a79c33dd,150,3,2024-02-26T09:36:04.766Z,english_10.wav,0,peel,1208,18,5,4,english,m,3,0.3,91.01400741,1.4109269
651d3da180d4b0d9a79c33dd,150,3,2024-02-26T09:36:04.766Z,english_10.wav,0,peel,1208,18,5,4,english,m,4,0.32341667,-64.58672822,0.76235223
651d3da180d4b0d9a79c33dd,151,3,2024-02-26T09:36:04.766Z,english_847.wav,0,pill,479,18,5,4,english,m,0,0.0,76.45550118,0.38890762
651d3da180d4b0d9a79c33dd,151,3,2024-02-26T09:36:04.766Z,english_847.wav,0,pill,479,18,5,4,english,m,1,0.1,-18.38123868,1.01718805
651d3da180d4b0d9a79c33dd,151,3,2024-02-26T09:36:04.766Z,english_847.wav,0,pill,479,18,5,4,english,m,2,0.2,18.403778,1.24872656
651d3da180d4b0d9a79c33dd,151,3,2024-02-26T09:36:04.766Z,english_847.wav,0,pill,479,18,5,4,english,m,3,0.3,57.196546,0.81951257
651d3da180d4b0d9a79c33dd,151,3,2024-02-26T09:36:04.766Z,english_847.wav,0,pill,479,18,5,4,english,m,4,0.32341667,32.99763753,0.74194876
651d3da180d4b0d9a79c33dd,152,3,2024-02-26T09:36:04.766Z,english_135.wav,0,peel,598,18,5,4,english,m,0,0.0,92.53632507,0.8813083
651d3da180d4b0d9a79c33dd,152,3,2024-02-26T09:36:04.766Z,english_135.wav,0,peel,598,18,5,4,english,m,1,0.1,42.68843281,1.60503348
651d3da180d4b0d9a79c33dd,152,3,2024-02-26T09:36:04.766Z,english_135.wav,0,peel,598,18,5,4,english,m,2,0.2,87.27237188,0.22265806
651d3da180d4b0d9a79c33dd,152,3,2024-02-26T09:36:04.766Z,english_135.wav,0,peel,598,18,5,4,english,m,3,0.3,-70.62725941,0.4233462
651d3da180d4b0d9a79c33dd,152,3,2024-02-26T09:36:04.766Z,english_135.wav,0,peel,598,18,5,4,english,m,4,0.32341667,91.37204548,0.99500327
