subj,trial,block,date,stim,stim_order,response,rt,age,english,french,language,sex,param_index,segment,pitch,stretch
5e2e147d047efa000c6b833d,0,0,2024-02-27T14:12:51.102Z,english_952.wav,0,pill,2943,36,5,2,English,m,0,0.0,64.91746033,1.00586425
5e2e147d047efa000c6b833d,0,0,2024-02-27T14:12:51.102Z,english_952.wav,0,pill,2943,36,5,2,English,m,1,0.1,-25.84234774,1.28790365
5e2e147d047efa000c6b833d,0,0,2024-02-27T14:12:51.102Z,english_952.wav,0,pill,2943,36,5,2,English,m,2,0.2,60.30097417,1.6668124
5e2e147d047efa000c6b833d,0,0,2024-02-27T14:12:51.102Z,english_952.wav,0,pill,2943,36,5,2,English,m,3,0.3,-98.0606555,1.44616756
5e2e147d047efa000c6b833d,0,0,2024-02-27T14:12:51.102Z,english_952.wav,0,pill,2943,36,5,2,English,m,4,0.32341667,-77.98984902,0.15831209
5e2e147d047efa000c6b833d,1,0,2024-02-27T14:12:51.102Z,english_200.wav,0,peel,1033,36,5,2,English,m,0,0.0,48.98677304,1.07797747
5e2e147d047efa000c6b833d,1,0,2024-02-27T14:12:51.102Z,english_200.wav,0,peel,1033,36,5,2,English,m,1,0.1,13.54292536,1.23698451
5e2e147d047efa000c6b833d,1,0,2024-02-27T14:12:51.102Z,english_200.wav,0,peel,1033,36,5,2,English,m,2,0.2,15.98335964,0.85343662
5e2e147d047efa000c6b833d,1,0,2024-02-27T14:12:51.102Z,english_200.wav,0,peel,1033,36,5,2,English,m,3,0.3,-46.7743147,1.38707984
5e2e147d047efa000c6b833d,1,0,2024-02-27T14:12:51.102Z,english_200.wav,0,peel,1033,36,5,2,English,m,4,0.32341667,-12.18386714,0.65409939
5e2e147d047efa000c6b833d,2,0,2024-02-27T14:12:51.102Z,english_328.wav,0,pill,1627,36,5,2,English,m,0,0.0,-24.96515822,0.68772771
5e2e147d047efa000c6b833d,2,0,2024-02-27T14:12:51.102Z,english_328.wav,0,pill,1627,36,5,2,English,m,1,0.1,36.64267249,0.30369637
5e2e147d047efa000c6b833d,2,0,2024-02-27T14:12:51.102Z,english_328.wav,0,pill,1627,36,5,2,English,m,2,0.2,-93.60804347,1.16330199
5e2e147d047efa000c6b833d,2,0,2024-02-27T14:12:51.102Z,english_328.wav,0,pill,1627,36,5,2,English,m,3,0.3,9.86556644,0.69001341
5e2e147d047efa000c6b833d,2,0,2024-02-27T14:12:51.102Z,english_328.wav,0,pill,1627,36,5,2,English,m,4,0.32341667,-17.13685423,0.54642887
5e2e147d047efa000c6b833d,3,0,2024-02-27T14:12:51.102Z,english_163.wav,0,peel,621,36,5,2,English,m,0,0.0,-28.85321754,1.43434597
5e2e147d047efa000c6b833d,3,0,2024-02-27T14:12:51.102Z,english_163.wav,0,peel,621,36,5,2,English,m,1,0.1,9.37410395,1.75766865
5e2e147d047efa000c6b833d,3,0,2024-02-27T14:12:51.102Z,english_163.wav,0,peel,621,36,5,2,English,m,2,0.2,-43.22266742,0.90391943
5e2e147d047efa000c6b833d,3,0,2024-02-27T14:12:51.102Z,english_163.wav,0,peel,621,36,5,2,English,m,3,0.3,48.63715122,1.21743426
5e2e147d047efa000c6b833d,3,0,2024-02-27T14:12:51.102Z,english_163.wav,0,peel,621,36,5,2,English,m,4,0.32341667,-94.22333204,1.8516503
5e2e147d047efa000c6b833d,4,0,2024-02-27T14:12:51.102Z,english_435.wav,0,peel,389,36,5,2,English,m,0,0.0,-61.49548479,0.36819492
5e2e147d047efa000c6b833d,4,0,2024-02-27T14:12:51.102Z,english_435.wav,0,peel,389,36,5,2,English,m,1,0.1,18.53940612,1.77990606
5e2e147d047efa000c6b833d,4,0,2024-02-27T14:12:51.102Z,english_435.wav,0,peel,389,36,5,2,English,m,2,0.2,-39.20879804,1.09377229
5e2e147d047efa000c6b833d,4,0,2024-02-27T14:12:51.102Z,english_435.wav,0,peel,389,36,5,2,English,m,3,0.3,-30.66509024,1.98213584
5e2e147d047efa000c6b833d,4,0,2024-02-27T14:12:51.102Z,english_435.wav,0,peel,389,36,5,2,English,m,4,0.32341667,7.07056367,0.5936591
5e2e147d047efa000c6b833d,5,0,2024-02-27T14:12:51.102Z,english_932.wav,0,peel,985,36,5,2,English,m,0,0.0,-3.8848098,1.00949787
5e2e147d047efa000c6b833d,5,0,2024-02-27T14:12:51.102Z,english_932.wav,0,peel,985,36,5,2,English,m,1,0.1,-32.48916274,1.44703087
5e2e147d047efa000c6b833d,5,0,2024-02-27T14:12:51.102Z,english_932.wav,0,peel,985,36,5,2,English,m,2,0.2,81.26251807,0.10808594
5e2e147d047efa000c6b833d,5,0,2024-02-27T14:12:51.102Z,english_932.wav,0,peel,985,36,5,2,English,m,3,0.3,-18.23478105,0.03465182
5e2e147d047efa000c6b833d,5,0,2024-02-27T14:12:51.102Z,english_932.wav,0,peel,985,36,5,2,English,m,4,0.32341667,7.90132089,0.79845554
5e2e147d047efa000c6b833d,6,0,2024-02-27T14:12:51.102Z,english_729.wav,0,pill,863,36,5,2,English,m,0,0.0,31.16849918,1.30127688
5e2e147d047efa000c6b833d,6,0,2024-02-27T14:12:51.102Z,english_729.wav,0,pill,863,36,5,2,English,m,1,0.1,-74.04657477,1.28998605
5e2e147d047efa000c6b833d,6,0,2024-02-27T14:12:51.102Z,english_729.wav,0,pill,863,36,5,2,English,m,2,0.2,98.28479208,0.71365363
5e2e147d047efa000c6b833d,6,0,2024-02-27T14:12:51.102Z,english_729.wav,0,pill,863,36,5,2,English,m,3,0.3,45.68234461,0.61436371
5e2e147d047efa000c6b833d,6,0,2024-02-27T14:12:51.102Z,english_729.wav,0,pill,863,36,5,2,English,m,4,0.32341667,-23.12232547,0.96520681
5e2e147d047efa000c6b833d,7,0,2024-02-27T14:12:51.102Z,english_381.wav,0,pill,693,36,5,2,English,m,0,0.0,-64.83599525,0.77808766
5e2e147d047efa000c6b833d,7,0,2024-02-27T14:12:51.102Z,english_381.wav,0,pill,693,36,5,2,English,m,1,0.1,97.61236857,1.62635576
5e2e147d047efa000c6b833d,7,0,2024-02-27T14:12:51.102Z,english_381.wav,0,pill,693,36,5,2,English,m,2,0.2,-60.27157178,0.65298664
5e2e147d047efa000c6b833d,7,0,2024-02-27T14:12:51.102Z,english_381.wav,0,pill,693,36,5,2,English,m,3,0.3,84.45732791,0.46881793
5e2e147d047efa000c6b833d,7,0,2024-02-27T14:12:51.102Z,english_381.wav,0,pill,693,36,5,2,English,m,4,0.32341667,-87.53832291,1.22836965
5e2e147d047efa000c6b833d,8,0,2024-02-27T14:12:51.102Z,english_158.wav,0,pill,301,36,5,2,English,m,0,0.0,33.09785739,1.71128449
5e2e147d047efa000c6b833d,8,0,2024-02-27T14:12:51.102Z,english_158.wav,0,pill,301,36,5,2,English,m,1,0.1,-85.08083727,1.56145129
5e2e147d047efa000c6b833d,8,0,2024-02-27T14:12:51.102Z,english_158.wav,0,pill,301,36,5,2,English,m,2,0.2,97.70701203,0.69707892
5e2e147d047efa000c6b833d,8,0,2024-02-27T14:12:51.102Z,english_158.wav,0,pill,301,36,5,2,English,m,3,0.3,2.54261044,1.19647348
5e2e147d047efa000c6b833d,8,0,2024-02-27T14:12:51.102Z,english_158.wav,0,pill,301,36,5,2,English,m,4,0.32341667,-59.73934841,1.17782448
5e2e147d047efa000c6b833d,9,0,2024-02-27T14:12:51.102Z,english_697.wav,0,pill,479,36,5,2,English,m,0,0.0,34.8877197,0.10761674
5e2e147d047efa000c6b833d,9,0,2024-02-27T14:12:51.102Z,english_697.wav,0,pill,479,36,5,2,English,m,1,0.1,-0.0129750448,0.88035305
5e2e147d047efa000c6b833d,9,0,2024-02-27T14:12:51.102Z,english_697.wav,0,pill,479,36,5,2,English,m,2,0.2,48.8877829,0.12183403
5e2e147d047efa000c6b833d,9,0,2024-02-27T14:12:51.102Z,english_697.wav,0,pill,479,36,5,2,English,m,3,0.3,68.5745634,0.55306263
5e2e147d047efa000c6b833d,9,0,2024-02-27T14:12:51.102Z,english_697.wav,0,pill,479,36,5,2,English,m,4,0.323416667,18.9536775,1.83833688
5e2e147d047efa000c6b833d,10,0,2024-02-27T14:12:51.102Z,english_738.wav,0,peel,235,36,5,2,English,m,0,0.0,-37.88087101,1.83397703
5e2e147d047efa000c6b833d,10,0,2024-02-27T14:12:51.102Z,english_738.wav,0,peel,235,36,5,2,English,m,1,0.1,-16.85966727,1.52099356
5e2e147d047efa000c6b833d,10,0,2024-02-27T14:12:51.102Z,english_738.wav,0,peel,235,36,5,2,English,m,2,0.2,-79.76891938,1.69283951
5e2e147d047efa000c6b833d,10,0,2024-02-27T14:12:51.102Z,english_738.wav,0,peel,235,36,5,2,English,m,3,0.3,-82.30918252,1.81957343
5e2e147d047efa000c6b833d,10,0,2024-02-27T14:12:51.102Z,english_738.wav,0,peel,235,36,5,2,English,m,4,0.32341667,59.65991076,0.75908376
5e2e147d047efa000c6b833d,11,0,2024-02-27T14:12:51.102Z,english_502.wav,0,peel,674,36,5,2,English,m,0,0.0,-23.73065935,0.0797034
5e2e147d047efa000c6b833d,11,0,2024-02-27T14:12:51.102Z,english_502.wav,0,peel,674,36,5,2,English,m,1,0.1,2.70754613,1.83600464
5e2e147d047efa000c6b833d,11,0,2024-02-27T14:12:51.102Z,english_502.wav,0,peel,674,36,5,2,English,m,2,0.2,25.650451,1.48948742
5e2e147d047efa000c6b833d,11,0,2024-02-27T14:12:51.102Z,english_502.wav,0,peel,674,36,5,2,English,m,3,0.3,-49.55254658,1.22465236
5e2e147d047efa000c6b833d,11,0,2024-02-27T14:12:51.102Z,english_502.wav,0,peel,674,36,5,2,English,m,4,0.32341667,16.82642172,1.41984075
5e2e147d047efa000c6b833d,12,0,2024-02-27T14:12:51.102Z,english_448.wav,0,peel,916,36,5,2,English,m,0,0.0,0.37188167,1.15390094
5e2e147d047efa000c6b833d,12,0,2024-02-27T14:12:51.102Z,english_448.wav,0,peel,916,36,5,2,English,m,1,0.1,-67.82723624,1.58767458
5e2e147d047efa000c6b833d,12,0,2024-02-27T14:12:51.102Z,english_448.wav,0,peel,916,36,5,2,English,m,2,0.2,65.77705469,1.13313853
5e2e147d047efa000c6b833d,12,0,2024-02-27T14:12:51.102Z,english_448.wav,0,peel,916,36,5,2,English,m,3,0.3,83.31626383,0.27075507
5e2e147d047efa000c6b833d,12,0,2024-02-27T14:12:51.102Z,english_448.wav,0,peel,916,36,5,2,English,m,4,0.32341667,-27.56829045,1.20964916
5e2e147d047efa000c6b833d,13,0,2024-02-27T14:12:51.102Z,english_369.wav,0,pill,179,36,5,2,English,m,0,0.0,-12.14177447,1.64093778
5e2e147d047efa000c6b833d,13,0,2024-02-27T14:12:51.102Z,english_369.wav,0,pill,179,36,5,2,English,m,1,0.1,76.29699147,1.47479283
5e2e147d047efa000c6b833d,13,0,2024-02-27T14:12:51.102Z,english_369.wav,0,pill,179,36,5,2,English,m,2,0.2,-85.49552365,1.31757561
5e2e147d047efa000c6b833d,13,0,2024-02-27T14:12:51.102Z,english_369.wav,0,pill,179,36,5,2,English,m,3,0.3,-68.94608988,1.92077404
5e2e147d047efa000c6b833d,13,0,2024-02-27T14:12:51.102Z,english_369.wav,0,pill,179,36,5,2,English,m,4,0.32341667,40.32615784,1.4628922
5e2e147d047efa000c6b833d,14,0,2024-02-27T14:12:51.102Z,english_511.wav,0,pill,149,36,5,2,English,m,0,0.0,-54.05076571,1.68448531
5e2e147d047efa000c6b833d,14,0,2024-02-27T14:12:51.102Z,english_511.wav,0,pill,149,36,5,2,English,m,1,0.1,58.21305336,0.64957271
5e2e147d047efa000c6b833d,14,0,2024-02-27T14:12:51.102Z,english_511.wav,0,pill,149,36,5,2,English,m,2,0.2,93.28984864,1.47534814
5e2e147d047efa000c6b833d,14,0,2024-02-27T14:12:51.102Z,english_511.wav,0,pill,149,36,5,2,English,m,3,0.3,-93.08437199,1.38615571
5e2e147d047efa000c6b833d,14,0,2024-02-27T14:12:51.102Z,english_511.wav,0,pill,149,36,5,2,English,m,4,0.32341667,48.49476441,0.71972648
5e2e147d047efa000c6b833d,15,0,2024-02-27T14:12:51.102Z,english_270.wav,0,pill,144,36,5,2,English,m,0,0.0,-54.89328754,1.02368747
5e2e147d047efa000c6b833d,15,0,2024-02-27T14:12:51.102Z,english_270.wav,0,pill,144,36,5,2,English,m,1,0.1,-41.12345733,1.74263534
5e2e147d047efa000c6b833d,15,0,2024-02-27T14:12:51.102Z,english_270.wav,0,pill,144,36,5,2,English,m,2,0.2,79.03328036,0.45342006
5e2e147d047efa000c6b833d,15,0,2024-02-27T14:12:51.102Z,english_270.wav,0,pill,144,36,5,2,English,m,3,0.3,-87.71335894,1.29911503
5e2e147d047efa000c6b833d,15,0,2024-02-27T14:12:51.102Z,english_270.wav,0,pill,144,36,5,2,English,m,4,0.32341667,-48.20373708,0.95859349
5e2e147d047efa000c6b833d,16,0,2024-02-27T14:12:51.102Z,english_14.wav,0,pill,246,36,5,2,English,m,0,0.0,98.00979643,0.92494293
5e2e147d047efa000c6b833d,16,0,2024-02-27T14:12:51.102Z,english_14.wav,0,pill,246,36,5,2,English,m,1,0.1,-39.90204919,0.80403915
5e2e147d047efa000c6b833d,16,0,2024-02-27T14:12:51.102Z,english_14.wav,0,pill,246,36,5,2,English,m,2,0.2,51.0517473,0.29426005
5e2e147d047efa000c6b833d,16,0,2024-02-27T14:12:51.102Z,english_14.wav,0,pill,246,36,5,2,English,m,3,0.3,-8.39716694,0.14957292
5e2e147d047efa000c6b833d,16,0,2024-02-27T14:12:51.102Z,english_14.wav,0,pill,246,36,5,2,English,m,4,0.32341667,82.54419716,0.1717279
5e2e147d047efa000c6b833d,17,0,2024-02-27T14:12:51.102Z,english_895.wav,0,pill,474,36,5,2,English,m,0,0.0,-36.05432491,1.57991636
5e2e147d047efa000c6b833d,17,0,2024-02-27T14:12:51.102Z,english_895.wav,0,pill,474,36,5,2,English,m,1,0.1,0.27991529,1.29141926
5e2e147d047efa000c6b833d,17,0,2024-02-27T14:12:51.102Z,english_895.wav,0,pill,474,36,5,2,English,m,2,0.2,-68.50060493,0.78617821
5e2e147d047efa000c6b833d,17,0,2024-02-27T14:12:51.102Z,english_895.wav,0,pill,474,36,5,2,English,m,3,0.3,-65.34452755,0.53071912
5e2e147d047efa000c6b833d,17,0,2024-02-27T14:12:51.102Z,english_895.wav,0,pill,474,36,5,2,English,m,4,0.32341667,44.30205494,1.44568828
5e2e147d047efa000c6b833d,18,0,2024-02-27T14:12:51.102Z,english_237.wav,0,peel,532,36,5,2,English,m,0,0.0,-40.35335157,0.42178982
5e2e147d047efa000c6b833d,18,0,2024-02-27T14:12:51.102Z,english_237.wav,0,peel,532,36,5,2,English,m,1,0.1,42.86374565,0.6060796
5e2e147d047efa000c6b833d,18,0,2024-02-27T14:12:51.102Z,english_237.wav,0,peel,532,36,5,2,English,m,2,0.2,7.79480372,0.58312984
5e2e147d047efa000c6b833d,18,0,2024-02-27T14:12:51.102Z,english_237.wav,0,peel,532,36,5,2,English,m,3,0.3,-48.50613844,1.50499267
5e2e147d047efa000c6b833d,18,0,2024-02-27T14:12:51.102Z,english_237.wav,0,peel,532,36,5,2,English,m,4,0.32341667,17.78174719,1.72211243
5e2e147d047efa000c6b833d,19,0,2024-02-27T14:12:51.102Z,english_141.wav,0,peel,375,36,5,2,English,m,0,0.0,-85.83390244,1.36546316
5e2e147d047efa000c6b833d,19,0,2024-02-27T14:12:51.102Z,english_141.wav,0,peel,375,36,5,2,English,m,1,0.1,-83.68236309,0.39424104
5e2e147d047efa000c6b833d,19,0,2024-02-27T14:12:51.102Z,english_141.wav,0,peel,375,36,5,2,English,m,2,0.2,-69.95552588,1.31629396
5e2e147d047efa000c6b833d,19,0,2024-02-27T14:12:51.102Z,english_141.wav,0,peel,375,36,5,2,English,m,3,0.3,-14.67715053,0.23786768
5e2e147d047efa000c6b833d,19,0,2024-02-27T14:12:51.102Z,english_141.wav,0,peel,375,36,5,2,English,m,4,0.32341667,73.76142723,0.2069198
5e2e147d047efa000c6b833d,20,0,2024-02-27T14:12:51.102Z,english_782.wav,0,peel,376,36,5,2,English,m,0,0.0,-98.70381677,1.47488053
5e2e147d047efa000c6b833d,20,0,2024-02-27T14:12:51.102Z,english_782.wav,0,peel,376,36,5,2,English,m,1,0.1,-69.82387258,0.7270016
5e2e147d047efa000c6b833d,20,0,2024-02-27T14:12:51.102Z,english_782.wav,0,peel,376,36,5,2,English,m,2,0.2,35.26613747,0.08778447
5e2e147d047efa000c6b833d,20,0,2024-02-27T14:12:51.102Z,english_782.wav,0,peel,376,36,5,2,English,m,3,0.3,-81.38004879,1.16903228
5e2e147d047efa000c6b833d,20,0,2024-02-27T14:12:51.102Z,english_782.wav,0,peel,376,36,5,2,English,m,4,0.32341667,-61.83067014,0.92727902
5e2e147d047efa000c6b833d,21,0,2024-02-27T14:12:51.102Z,english_402.wav,0,pill,512,36,5,2,English,m,0,0.0,-69.75327375,0.88104294
5e2e147d047efa000c6b833d,21,0,2024-02-27T14:12:51.102Z,english_402.wav,0,pill,512,36,5,2,English,m,1,0.1,-37.13247603,1.50830761
5e2e147d047efa000c6b833d,21,0,2024-02-27T14:12:51.102Z,english_402.wav,0,pill,512,36,5,2,English,m,2,0.2,95.06865819,0.86613458
5e2e147d047efa000c6b833d,21,0,2024-02-27T14:12:51.102Z,english_402.wav,0,pill,512,36,5,2,English,m,3,0.3,-83.65219271,1.46195184
5e2e147d047efa000c6b833d,21,0,2024-02-27T14:12:51.102Z,english_402.wav,0,pill,512,36,5,2,English,m,4,0.32341667,-39.65623645,1.78030697
5e2e147d047efa000c6b833d,22,0,2024-02-27T14:12:51.102Z,english_384.wav,0,pill,356,36,5,2,English,m,0,0.0,-38.96228733,0.34616893
5e2e147d047efa000c6b833d,22,0,2024-02-27T14:12:51.102Z,english_384.wav,0,pill,356,36,5,2,English,m,1,0.1,2.386347,0.04115024
5e2e147d047efa000c6b833d,22,0,2024-02-27T14:12:51.102Z,english_384.wav,0,pill,356,36,5,2,English,m,2,0.2,48.26486793,0.35900131
5e2e147d047efa000c6b833d,22,0,2024-02-27T14:12:51.102Z,english_384.wav,0,pill,356,36,5,2,English,m,3,0.3,-48.11903655,1.58519606
5e2e147d047efa000c6b833d,22,0,2024-02-27T14:12:51.102Z,english_384.wav,0,pill,356,36,5,2,English,m,4,0.32341667,19.29531145,0.95531857
5e2e147d047efa000c6b833d,23,0,2024-02-27T14:12:51.102Z,english_130.wav,0,pill,363,36,5,2,English,m,0,0.0,-27.4951122,0.83907871
5e2e147d047efa000c6b833d,23,0,2024-02-27T14:12:51.102Z,english_130.wav,0,pill,363,36,5,2,English,m,1,0.1,-38.07775804,1.38560413
5e2e147d047efa000c6b833d,23,0,2024-02-27T14:12:51.102Z,english_130.wav,0,pill,363,36,5,2,English,m,2,0.2,-9.69340922,0.50531735
5e2e147d047efa000c6b833d,23,0,2024-02-27T14:12:51.102Z,english_130.wav,0,pill,363,36,5,2,English,m,3,0.3,-88.09187015,0.53414674
5e2e147d047efa000c6b833d,23,0,2024-02-27T14:12:51.102Z,english_130.wav,0,pill,363,36,5,2,English,m,4,0.32341667,-47.45461314,1.10107345
5e2e147d047efa000c6b833d,24,0,2024-02-27T14:12:51.102Z,english_111.wav,0,peel,695,36,5,2,English,m,0,0.0,43.12539807,1.84745579
5e2e147d047efa000c6b833d,24,0,2024-02-27T14:12:51.102Z,english_111.wav,0,peel,695,36,5,2,English,m,1,0.1,63.99665526,0.92577031
5e2e147d047efa000c6b833d,24,0,2024-02-27T14:12:51.102Z,english_111.wav,0,peel,695,36,5,2,English,m,2,0.2,86.04570556,0.31264784
5e2e147d047efa000c6b833d,24,0,2024-02-27T14:12:51.102Z,english_111.wav,0,peel,695,36,5,2,English,m,3,0.3,-25.76798659,0.89352032
5e2e147d047efa000c6b833d,24,0,2024-02-27T14:12:51.102Z,english_111.wav,0,peel,695,36,5,2,English,m,4,0.32341667,-36.14422463,0.32138535
5e2e147d047efa000c6b833d,25,0,2024-02-27T14:12:51.102Z,english_704.wav,0,peel,451,36,5,2,English,m,0,0.0,-24.48288207,0.92043902
5e2e147d047efa000c6b833d,25,0,2024-02-27T14:12:51.102Z,english_704.wav,0,peel,451,36,5,2,English,m,1,0.1,-9.94163531,0.96595902
5e2e147d047efa000c6b833d,25,0,2024-02-27T14:12:51.102Z,english_704.wav,0,peel,451,36,5,2,English,m,2,0.2,74.85271107,1.40327859
5e2e147d047efa000c6b833d,25,0,2024-02-27T14:12:51.102Z,english_704.wav,0,peel,451,36,5,2,English,m,3,0.3,-38.44921803,1.07325586
5e2e147d047efa000c6b833d,25,0,2024-02-27T14:12:51.102Z,english_704.wav,0,peel,451,36,5,2,English,m,4,0.32341667,-21.20994959,1.87555588
5e2e147d047efa000c6b833d,26,0,2024-02-27T14:12:51.102Z,english_770.wav,0,pill,430,36,5,2,English,m,0,0.0,-33.21947329,1.48551245
5e2e147d047efa000c6b833d,26,0,2024-02-27T14:12:51.102Z,english_770.wav,0,pill,430,36,5,2,English,m,1,0.1,63.53746239,1.21485607
5e2e147d047efa000c6b833d,26,0,2024-02-27T14:12:51.102Z,english_770.wav,0,pill,430,36,5,2,English,m,2,0.2,-62.38231874,1.11129762
5e2e147d047efa000c6b833d,26,0,2024-02-27T14:12:51.102Z,english_770.wav,0,pill,430,36,5,2,English,m,3,0.3,57.5515188,1.59702794
5e2e147d047efa000c6b833d,26,0,2024-02-27T14:12:51.102Z,english_770.wav,0,pill,430,36,5,2,English,m,4,0.32341667,-11.94001254,1.16110171
5e2e147d047efa000c6b833d,27,0,2024-02-27T14:12:51.102Z,english_177.wav,0,peel,255,36,5,2,English,m,0,0.0,87.98258728,1.54790065
5e2e147d047efa000c6b833d,27,0,2024-02-27T14:12:51.102Z,english_177.wav,0,peel,255,36,5,2,English,m,1,0.1,87.12011565,0.90861448
5e2e147d047efa000c6b833d,27,0,2024-02-27T14:12:51.102Z,english_177.wav,0,peel,255,36,5,2,English,m,2,0.2,-29.82518494,0.58649069
5e2e147d047efa000c6b833d,27,0,2024-02-27T14:12:51.102Z,english_177.wav,0,peel,255,36,5,2,English,m,3,0.3,54.38835911,0.51296238
5e2e147d047efa000c6b833d,27,0,2024-02-27T14:12:51.102Z,english_177.wav,0,peel,255,36,5,2,English,m,4,0.32341667,53.98423531,1.78492888
5e2e147d047efa000c6b833d,28,0,2024-02-27T14:12:51.102Z,english_866.wav,0,peel,201,36,5,2,English,m,0,0.0,-75.90204766,0.10539101
5e2e147d047efa000c6b833d,28,0,2024-02-27T14:12:51.102Z,english_866.wav,0,peel,201,36,5,2,English,m,1,0.1,-89.66881049,1.63294926
5e2e147d047efa000c6b833d,28,0,2024-02-27T14:12:51.102Z,english_866.wav,0,peel,201,36,5,2,English,m,2,0.2,-86.78535298,0.21421971
5e2e147d047efa000c6b833d,28,0,2024-02-27T14:12:51.102Z,english_866.wav,0,peel,201,36,5,2,English,m,3,0.3,50.96369643,1.47001367
5e2e147d047efa000c6b833d,28,0,2024-02-27T14:12:51.102Z,english_866.wav,0,peel,201,36,5,2,English,m,4,0.32341667,36.94157773,1.56453662
5e2e147d047efa000c6b833d,29,0,2024-02-27T14:12:51.102Z,english_265.wav,0,peel,190,36,5,2,English,m,0,0.0,-30.2287418,1.31067296
5e2e147d047efa000c6b833d,29,0,2024-02-27T14:12:51.102Z,english_265.wav,0,peel,190,36,5,2,English,m,1,0.1,86.62283936,0.87427745
5e2e147d047efa000c6b833d,29,0,2024-02-27T14:12:51.102Z,english_265.wav,0,peel,190,36,5,2,English,m,2,0.2,-21.47577863,1.37620008
5e2e147d047efa000c6b833d,29,0,2024-02-27T14:12:51.102Z,english_265.wav,0,peel,190,36,5,2,English,m,3,0.3,84.9300577,0.45825557
5e2e147d047efa000c6b833d,29,0,2024-02-27T14:12:51.102Z,english_265.wav,0,peel,190,36,5,2,English,m,4,0.32341667,59.52250756,1.13518739
5e2e147d047efa000c6b833d,30,0,2024-02-27T14:12:51.102Z,english_139.wav,0,pill,30,36,5,2,English,m,0,0.0,55.35526281,1.40478417
5e2e147d047efa000c6b833d,30,0,2024-02-27T14:12:51.102Z,english_139.wav,0,pill,30,36,5,2,English,m,1,0.1,-66.48550036,1.12007301
5e2e147d047efa000c6b833d,30,0,2024-02-27T14:12:51.102Z,english_139.wav,0,pill,30,36,5,2,English,m,2,0.2,21.45340352,1.58559909
5e2e147d047efa000c6b833d,30,0,2024-02-27T14:12:51.102Z,english_139.wav,0,pill,30,36,5,2,English,m,3,0.3,-32.80413748,1.13081383
5e2e147d047efa000c6b833d,30,0,2024-02-27T14:12:51.102Z,english_139.wav,0,pill,30,36,5,2,English,m,4,0.32341667,-77.32206638,0.38560717
5e2e147d047efa000c6b833d,31,0,2024-02-27T14:12:51.102Z,english_366.wav,0,pill,111,36,5,2,English,m,0,0.0,30.08929792,0.87054072
5e2e147d047efa000c6b833d,31,0,2024-02-27T14:12:51.102Z,english_366.wav,0,pill,111,36,5,2,English,m,1,0.1,-17.9139155,0.34658018
5e2e147d047efa000c6b833d,31,0,2024-02-27T14:12:51.102Z,english_366.wav,0,pill,111,36,5,2,English,m,2,0.2,-66.75779592,0.49970414
5e2e147d047efa000c6b833d,31,0,2024-02-27T14:12:51.102Z,english_366.wav,0,pill,111,36,5,2,English,m,3,0.3,77.64459909,1.94720887
5e2e147d047efa000c6b833d,31,0,2024-02-27T14:12:51.102Z,english_366.wav,0,pill,111,36,5,2,English,m,4,0.32341667,72.64294537,1.76390144
5e2e147d047efa000c6b833d,32,0,2024-02-27T14:12:51.102Z,english_160.wav,0,pill,233,36,5,2,English,m,0,0.0,2.54964477,0.54357393
5e2e147d047efa000c6b833d,32,0,2024-02-27T14:12:51.102Z,english_160.wav,0,pill,233,36,5,2,English,m,1,0.1,26.84692557,1.29343216
5e2e147d047efa000c6b833d,32,0,2024-02-27T14:12:51.102Z,english_160.wav,0,pill,233,36,5,2,English,m,2,0.2,72.58457191,0.42070854
5e2e147d047efa000c6b833d,32,0,2024-02-27T14:12:51.102Z,english_160.wav,0,pill,233,36,5,2,English,m,3,0.3,-6.94481249,1.04489529
5e2e147d047efa000c6b833d,32,0,2024-02-27T14:12:51.102Z,english_160.wav,0,pill,233,36,5,2,English,m,4,0.32341667,35.80656171,0.26802137
5e2e147d047efa000c6b833d,33,0,2024-02-27T14:12:51.102Z,english_990.wav,0,pill,456,36,5,2,English,m,0,0.0,-17.98511021,0.6190444
5e2e147d047efa000c6b833d,33,0,2024-02-27T14:12:51.102Z,english_990.wav,0,pill,456,36,5,2,English,m,1,0.1,-90.3005676,0.77548775
5e2e147d047efa000c6b833d,33,0,2024-02-27T14:12:51.102Z,english_990.wav,0,pill,456,36,5,2,English,m,2,0.2,4.37005684,0.55013224
5e2e147d047efa000c6b833d,33,0,2024-02-27T14:12:51.102Z,english_990.wav,0,pill,456,36,5,2,English,m,3,0.3,83.93705034,0.66784051
5e2e147d047efa000c6b833d,33,0,2024-02-27T14:12:51.102Z,english_990.wav,0,pill,456,36,5,2,English,m,4,0.32341667,-36.57803625,0.32384409
5e2e147d047efa000c6b833d,34,0,2024-02-27T14:12:51.102Z,english_179.wav,0,pill,312,36,5,2,English,m,0,0.0,76.93131114,0.23318107
5e2e147d047efa000c6b833d,34,0,2024-02-27T14:12:51.102Z,english_179.wav,0,pill,312,36,5,2,English,m,1,0.1,5.5150778,0.47080089
5e2e147d047efa000c6b833d,34,0,2024-02-27T14:12:51.102Z,english_179.wav,0,pill,312,36,5,2,English,m,2,0.2,3.89208722,1.31062884
5e2e147d047efa000c6b833d,34,0,2024-02-27T14:12:51.102Z,english_179.wav,0,pill,312,36,5,2,English,m,3,0.3,-8.47825544,0.27743795
5e2e147d047efa000c6b833d,34,0,2024-02-27T14:12:51.102Z,english_179.wav,0,pill,312,36,5,2,English,m,4,0.32341667,50.73924617,0.83516241
5e2e147d047efa000c6b833d,35,0,2024-02-27T14:12:51.102Z,english_850.wav,0,pill,260,36,5,2,English,m,0,0.0,79.79173837,1.46721922
5e2e147d047efa000c6b833d,35,0,2024-02-27T14:12:51.102Z,english_850.wav,0,pill,260,36,5,2,English,m,1,0.1,-44.24877139,0.57242606
5e2e147d047efa000c6b833d,35,0,2024-02-27T14:12:51.102Z,english_850.wav,0,pill,260,36,5,2,English,m,2,0.2,74.77623955,0.15597525
5e2e147d047efa000c6b833d,35,0,2024-02-27T14:12:51.102Z,english_850.wav,0,pill,260,36,5,2,English,m,3,0.3,-86.32612653,1.3358867
5e2e147d047efa000c6b833d,35,0,2024-02-27T14:12:51.102Z,english_850.wav,0,pill,260,36,5,2,English,m,4,0.32341667,-11.10230867,1.14618682
5e2e147d047efa000c6b833d,36,0,2024-02-27T14:12:51.102Z,english_647.wav,0,peel,332,36,5,2,English,m,0,0.0,-8.76796469,1.6238225
5e2e147d047efa000c6b833d,36,0,2024-02-27T14:12:51.102Z,english_647.wav,0,peel,332,36,5,2,English,m,1,0.1,-49.13996982,1.56934089
5e2e147d047efa000c6b833d,36,0,2024-02-27T14:12:51.102Z,english_647.wav,0,peel,332,36,5,2,English,m,2,0.2,43.79634461,0.78560304
5e2e147d047efa000c6b833d,36,0,2024-02-27T14:12:51.102Z,english_647.wav,0,peel,332,36,5,2,English,m,3,0.3,5.5781311,0.61771672
5e2e147d047efa000c6b833d,36,0,2024-02-27T14:12:51.102Z,english_647.wav,0,peel,332,36,5,2,English,m,4,0.32341667,17.41251701,1.2404866
5e2e147d047efa000c6b833d,37,0,2024-02-27T14:12:51.102Z,english_322.wav,0,peel,247,36,5,2,English,m,0,0.0,-27.28438319,0.79345249
5e2e147d047efa000c6b833d,37,0,2024-02-27T14:12:51.102Z,english_322.wav,0,peel,247,36,5,2,English,m,1,0.1,-98.66999083,0.28651419
5e2e147d047efa000c6b833d,37,0,2024-02-27T14:12:51.102Z,english_322.wav,0,peel,247,36,5,2,English,m,2,0.2,-54.08694108,1.26482546
5e2e147d047efa000c6b833d,37,0,2024-02-27T14:12:51.102Z,english_322.wav,0,peel,247,36,5,2,English,m,3,0.3,-7.3933801,0.6947791
5e2e147d047efa000c6b833d,37,0,2024-02-27T14:12:51.102Z,english_322.wav,0,peel,247,36,5,2,English,m,4,0.32341667,72.49489683,0.74875353
5e2e147d047efa000c6b833d,38,0,2024-02-27T14:12:51.102Z,english_236.wav,0,pill,220,36,5,2,English,m,0,0.0,14.26564849,0.89253674
5e2e147d047efa000c6b833d,38,0,2024-02-27T14:12:51.102Z,english_236.wav,0,pill,220,36,5,2,English,m,1,0.1,60.97219358,0.38957934
5e2e147d047efa000c6b833d,38,0,2024-02-27T14:12:51.102Z,english_236.wav,0,pill,220,36,5,2,English,m,2,0.2,-12.39626346,1.55558051
5e2e147d047efa000c6b833d,38,0,2024-02-27T14:12:51.102Z,english_236.wav,0,pill,220,36,5,2,English,m,3,0.3,-62.87774076,0.2682718
5e2e147d047efa000c6b833d,38,0,2024-02-27T14:12:51.102Z,english_236.wav,0,pill,220,36,5,2,English,m,4,0.32341667,-75.97684705,1.92182597
5e2e147d047efa000c6b833d,39,0,2024-02-27T14:12:51.102Z,english_9.wav,0,peel,173,36,5,2,English,m,0,0.0,24.77706225,1.13145128
5e2e147d047efa000c6b833d,39,0,2024-02-27T14:12:51.102Z,english_9.wav,0,peel,173,36,5,2,English,m,1,0.1,91.05524194,1.19326311
5e2e147d047efa000c6b833d,39,0,2024-02-27T14:12:51.102Z,english_9.wav,0,peel,173,36,5,2,English,m,2,0.2,30.20964975,1.50029029
5e2e147d047efa000c6b833d,39,0,2024-02-27T14:12:51.102Z,english_9.wav,0,peel,173,36,5,2,English,m,3,0.3,-69.66301283,1.4622179
5e2e147d047efa000c6b833d,39,0,2024-02-27T14:12:51.102Z,english_9.wav,0,peel,173,36,5,2,English,m,4,0.32341667,-3.83240646,1.9316504
5e2e147d047efa000c6b833d,40,0,2024-02-27T14:12:51.102Z,english_258.wav,0,peel,288,36,5,2,English,m,0,0.0,-7.1133109,1.89026761
5e2e147d047efa000c6b833d,40,0,2024-02-27T14:12:51.102Z,english_258.wav,0,peel,288,36,5,2,English,m,1,0.1,44.58564752,1.79361992
5e2e147d047efa000c6b833d,40,0,2024-02-27T14:12:51.102Z,english_258.wav,0,peel,288,36,5,2,English,m,2,0.2,45.36800295,0.43687845
5e2e147d047efa000c6b833d,40,0,2024-02-27T14:12:51.102Z,english_258.wav,0,peel,288,36,5,2,English,m,3,0.3,25.81301737,0.04688612
5e2e147d047efa000c6b833d,40,0,2024-02-27T14:12:51.102Z,english_258.wav,0,peel,288,36,5,2,English,m,4,0.32341667,-77.97513924,0.52567924
5e2e147d047efa000c6b833d,41,0,2024-02-27T14:12:51.102Z,english_701.wav,0,peel,668,36,5,2,English,m,0,0.0,87.15265727,1.41120649
5e2e147d047efa000c6b833d,41,0,2024-02-27T14:12:51.102Z,english_701.wav,0,peel,668,36,5,2,English,m,1,0.1,38.39882515,0.44004622
5e2e147d047efa000c6b833d,41,0,2024-02-27T14:12:51.102Z,english_701.wav,0,peel,668,36,5,2,English,m,2,0.2,64.60201562,1.15462264
5e2e147d047efa000c6b833d,41,0,2024-02-27T14:12:51.102Z,english_701.wav,0,peel,668,36,5,2,English,m,3,0.3,12.58613119,1.17454355
5e2e147d047efa000c6b833d,41,0,2024-02-27T14:12:51.102Z,english_701.wav,0,peel,668,36,5,2,English,m,4,0.32341667,46.94968762,1.38716818
5e2e147d047efa000c6b833d,42,0,2024-02-27T14:12:51.102Z,english_21.wav,0,peel,640,36,5,2,English,m,0,0.0,-21.85116114,1.17417274
5e2e147d047efa000c6b833d,42,0,2024-02-27T14:12:51.102Z,english_21.wav,0,peel,640,36,5,2,English,m,1,0.1,-94.69976897,0.84289237
5e2e147d047efa000c6b833d,42,0,2024-02-27T14:12:51.102Z,english_21.wav,0,peel,640,36,5,2,English,m,2,0.2,59.00053046,1.58737119
5e2e147d047efa000c6b833d,42,0,2024-02-27T14:12:51.102Z,english_21.wav,0,peel,640,36,5,2,English,m,3,0.3,-81.44868512,0.70500889
5e2e147d047efa000c6b833d,42,0,2024-02-27T14:12:51.102Z,english_21.wav,0,peel,640,36,5,2,English,m,4,0.32341667,-68.72650823,1.41810016
5e2e147d047efa000c6b833d,43,0,2024-02-27T14:12:51.102Z,english_264.wav,0,pill,971,36,5,2,English,m,0,0.0,16.10521774,1.02407609
5e2e147d047efa000c6b833d,43,0,2024-02-27T14:12:51.102Z,english_264.wav,0,pill,971,36,5,2,English,m,1,0.1,-43.55481907,1.4393598
5e2e147d047efa000c6b833d,43,0,2024-02-27T14:12:51.102Z,english_264.wav,0,pill,971,36,5,2,English,m,2,0.2,-16.87093852,1.31552174
5e2e147d047efa000c6b833d,43,0,2024-02-27T14:12:51.102Z,english_264.wav,0,pill,971,36,5,2,English,m,3,0.3,-81.41755984,1.17516842
5e2e147d047efa000c6b833d,43,0,2024-02-27T14:12:51.102Z,english_264.wav,0,pill,971,36,5,2,English,m,4,0.32341667,-76.00277997,0.613195
5e2e147d047efa000c6b833d,44,0,2024-02-27T14:12:51.102Z,english_537.wav,0,pill,290,36,5,2,English,m,0,0.0,70.8709352,0.55947112
5e2e147d047efa000c6b833d,44,0,2024-02-27T14:12:51.102Z,english_537.wav,0,pill,290,36,5,2,English,m,1,0.1,32.34369018,1.10627241
5e2e147d047efa000c6b833d,44,0,2024-02-27T14:12:51.102Z,english_537.wav,0,pill,290,36,5,2,English,m,2,0.2,-92.9302278,1.10842043
5e2e147d047efa000c6b833d,44,0,2024-02-27T14:12:51.102Z,english_537.wav,0,pill,290,36,5,2,English,m,3,0.3,14.89115364,0.86800797
5e2e147d047efa000c6b833d,44,0,2024-02-27T14:12:51.102Z,english_537.wav,0,pill,290,36,5,2,English,m,4,0.32341667,-67.12260703,1.7659473
5e2e147d047efa000c6b833d,45,0,2024-02-27T14:12:51.102Z,english_510.wav,0,peel,1286,36,5,2,English,m,0,0.0,-39.77235695,0.97080384
5e2e147d047efa000c6b833d,45,0,2024-02-27T14:12:51.102Z,english_510.wav,0,peel,1286,36,5,2,English,m,1,0.1,-55.9025784,0.1022914
5e2e147d047efa000c6b833d,45,0,2024-02-27T14:12:51.102Z,english_510.wav,0,peel,1286,36,5,2,English,m,2,0.2,42.12378864,1.56878682
5e2e147d047efa000c6b833d,45,0,2024-02-27T14:12:51.102Z,english_510.wav,0,peel,1286,36,5,2,English,m,3,0.3,-5.9333084,1.19302163
5e2e147d047efa000c6b833d,45,0,2024-02-27T14:12:51.102Z,english_510.wav,0,peel,1286,36,5,2,English,m,4,0.32341667,84.8199861,1.45606517
5e2e147d047efa000c6b833d,46,0,2024-02-27T14:12:51.102Z,english_120.wav,0,pill,320,36,5,2,English,m,0,0.0,55.2306484,0.43658612
5e2e147d047efa000c6b833d,46,0,2024-02-27T14:12:51.102Z,english_120.wav,0,pill,320,36,5,2,English,m,1,0.1,82.00530973,0.03999251
5e2e147d047efa000c6b833d,46,0,2024-02-27T14:12:51.102Z,english_120.wav,0,pill,320,36,5,2,English,m,2,0.2,-5.84837635,0.80827096
5e2e147d047efa000c6b833d,46,0,2024-02-27T14:12:51.102Z,english_120.wav,0,pill,320,36,5,2,English,m,3,0.3,66.20489525,1.78669421
5e2e147d047efa000c6b833d,46,0,2024-02-27T14:12:51.102Z,english_120.wav,0,pill,320,36,5,2,English,m,4,0.32341667,-73.22302923,1.04341795
5e2e147d047efa000c6b833d,47,0,2024-02-27T14:12:51.102Z,english_681.wav,0,peel,438,36,5,2,English,m,0,0.0,65.45313908,1.43173201
5e2e147d047efa000c6b833d,47,0,2024-02-27T14:12:51.102Z,english_681.wav,0,peel,438,36,5,2,English,m,1,0.1,23.22224239,1.64604346
5e2e147d047efa000c6b833d,47,0,2024-02-27T14:12:51.102Z,english_681.wav,0,peel,438,36,5,2,English,m,2,0.2,44.35096717,0.82186037
5e2e147d047efa000c6b833d,47,0,2024-02-27T14:12:51.102Z,english_681.wav,0,peel,438,36,5,2,English,m,3,0.3,67.45757963,0.26689352
5e2e147d047efa000c6b833d,47,0,2024-02-27T14:12:51.102Z,english_681.wav,0,peel,438,36,5,2,English,m,4,0.32341667,55.5822091,1.64490636
5e2e147d047efa000c6b833d,48,0,2024-02-27T14:12:51.102Z,english_595.wav,0,peel,2067,36,5,2,English,m,0,0.0,-39.84727911,1.6526444
5e2e147d047efa000c6b833d,48,0,2024-02-27T14:12:51.102Z,english_595.wav,0,peel,2067,36,5,2,English,m,1,0.1,-68.85607622,1.11711065
5e2e147d047efa000c6b833d,48,0,2024-02-27T14:12:51.102Z,english_595.wav,0,peel,2067,36,5,2,English,m,2,0.2,23.68364187,1.96516016
5e2e147d047efa000c6b833d,48,0,2024-02-27T14:12:51.102Z,english_595.wav,0,peel,2067,36,5,2,English,m,3,0.3,-80.51887658,0.34053421
5e2e147d047efa000c6b833d,48,0,2024-02-27T14:12:51.102Z,english_595.wav,0,peel,2067,36,5,2,English,m,4,0.32341667,-94.66311932,1.22603371
5e2e147d047efa000c6b833d,49,0,2024-02-27T14:12:51.102Z,english_958.wav,0,peel,978,36,5,2,English,m,0,0.0,17.32592779,0.33109802
5e2e147d047efa000c6b833d,49,0,2024-02-27T14:12:51.102Z,english_958.wav,0,peel,978,36,5,2,English,m,1,0.1,89.03376041,1.83345348
5e2e147d047efa000c6b833d,49,0,2024-02-27T14:12:51.102Z,english_958.wav,0,peel,978,36,5,2,English,m,2,0.2,-24.89219777,1.95859429
5e2e147d047efa000c6b833d,49,0,2024-02-27T14:12:51.102Z,english_958.wav,0,peel,978,36,5,2,English,m,3,0.3,-92.10798137,1.50296341
5e2e147d047efa000c6b833d,49,0,2024-02-27T14:12:51.102Z,english_958.wav,0,peel,978,36,5,2,English,m,4,0.32341667,3.27828718,0.1474067
5e2e147d047efa000c6b833d,50,1,2024-02-27T14:12:51.102Z,english_734.wav,0,pill,961,36,5,2,English,m,0,0.0,23.12527103,1.15728247
5e2e147d047efa000c6b833d,50,1,2024-02-27T14:12:51.102Z,english_734.wav,0,pill,961,36,5,2,English,m,1,0.1,70.97885261,1.10975856
5e2e147d047efa000c6b833d,50,1,2024-02-27T14:12:51.102Z,english_734.wav,0,pill,961,36,5,2,English,m,2,0.2,-68.62860591,0.41126476
5e2e147d047efa000c6b833d,50,1,2024-02-27T14:12:51.102Z,english_734.wav,0,pill,961,36,5,2,English,m,3,0.3,-14.81239301,1.45213782
5e2e147d047efa000c6b833d,50,1,2024-02-27T14:12:51.102Z,english_734.wav,0,pill,961,36,5,2,English,m,4,0.32341667,-74.40513958,1.98917216
5e2e147d047efa000c6b833d,51,1,2024-02-27T14:12:51.102Z,english_34.wav,0,peel,309,36,5,2,English,m,0,0.0,-48.07924103,1.44836266
5e2e147d047efa000c6b833d,51,1,2024-02-27T14:12:51.102Z,english_34.wav,0,peel,309,36,5,2,English,m,1,0.1,-64.84739183,1.89580324
5e2e147d047efa000c6b833d,51,1,2024-02-27T14:12:51.102Z,english_34.wav,0,peel,309,36,5,2,English,m,2,0.2,-20.81716265,0.64308549
5e2e147d047efa000c6b833d,51,1,2024-02-27T14:12:51.102Z,english_34.wav,0,peel,309,36,5,2,English,m,3,0.3,91.13652067,0.0848332
5e2e147d047efa000c6b833d,51,1,2024-02-27T14:12:51.102Z,english_34.wav,0,peel,309,36,5,2,English,m,4,0.32341667,-54.46543937,0.8036564
5e2e147d047efa000c6b833d,52,1,2024-02-27T14:12:51.102Z,english_42.wav,0,peel,1417,36,5,2,English,m,0,0.0,-15.36487641,1.81244548
5e2e147d047efa000c6b833d,52,1,2024-02-27T14:12:51.102Z,english_42.wav,0,peel,1417,36,5,2,English,m,1,0.1,11.43696078,1.472484
5e2e147d047efa000c6b833d,52,1,2024-02-27T14:12:51.102Z,english_42.wav,0,peel,1417,36,5,2,English,m,2,0.2,34.58464447,0.21504119
5e2e147d047efa000c6b833d,52,1,2024-02-27T14:12:51.102Z,english_42.wav,0,peel,1417,36,5,2,English,m,3,0.3,68.67640378,0.80253652
5e2e147d047efa000c6b833d,52,1,2024-02-27T14:12:51.102Z,english_42.wav,0,peel,1417,36,5,2,English,m,4,0.32341667,-67.59461511,1.53231421
5e2e147d047efa000c6b833d,53,1,2024-02-27T14:12:51.102Z,english_278.wav,0,pill,330,36,5,2,English,m,0,0.0,-49.55521664,0.96598769
5e2e147d047efa000c6b833d,53,1,2024-02-27T14:12:51.102Z,english_278.wav,0,pill,330,36,5,2,English,m,1,0.1,60.24292507,1.32709354
5e2e147d047efa000c6b833d,53,1,2024-02-27T14:12:51.102Z,english_278.wav,0,pill,330,36,5,2,English,m,2,0.2,34.32984246,0.84496159
5e2e147d047efa000c6b833d,53,1,2024-02-27T14:12:51.102Z,english_278.wav,0,pill,330,36,5,2,English,m,3,0.3,91.69210883,1.50157491
5e2e147d047efa000c6b833d,53,1,2024-02-27T14:12:51.102Z,english_278.wav,0,pill,330,36,5,2,English,m,4,0.32341667,78.84715657,1.85534648
5e2e147d047efa000c6b833d,54,1,2024-02-27T14:12:51.102Z,english_848.wav,0,peel,886,36,5,2,English,m,0,0.0,43.30233352,0.12582596
5e2e147d047efa000c6b833d,54,1,2024-02-27T14:12:51.102Z,english_848.wav,0,peel,886,36,5,2,English,m,1,0.1,-77.77691247,1.72621372
5e2e147d047efa000c6b833d,54,1,2024-02-27T14:12:51.102Z,english_848.wav,0,peel,886,36,5,2,English,m,2,0.2,-68.99020863,1.753656
5e2e147d047efa000c6b833d,54,1,2024-02-27T14:12:51.102Z,english_848.wav,0,peel,886,36,5,2,English,m,3,0.3,-43.68641023,1.37442753
5e2e147d047efa000c6b833d,54,1,2024-02-27T14:12:51.102Z,english_848.wav,0,peel,886,36,5,2,English,m,4,0.32341667,-14.19502025,1.04930351
5e2e147d047efa000c6b833d,55,1,2024-02-27T14:12:51.102Z,english_803.wav,0,peel,952,36,5,2,English,m,0,0.0,8.73756077,1.22190991
5e2e147d047efa000c6b833d,55,1,2024-02-27T14:12:51.102Z,english_803.wav,0,peel,952,36,5,2,English,m,1,0.1,-41.53503623,1.08276728
5e2e147d047efa000c6b833d,55,1,2024-02-27T14:12:51.102Z,english_803.wav,0,peel,952,36,5,2,English,m,2,0.2,-84.76471985,1.59545905
5e2e147d047efa000c6b833d,55,1,2024-02-27T14:12:51.102Z,english_803.wav,0,peel,952,36,5,2,English,m,3,0.3,-27.96408635,1.3875394
5e2e147d047efa000c6b833d,55,1,2024-02-27T14:12:51.102Z,english_803.wav,0,peel,952,36,5,2,English,m,4,0.32341667,72.02290108,0.92287786
5e2e147d047efa000c6b833d,56,1,2024-02-27T14:12:51.102Z,english_917.wav,0,pill,624,36,5,2,English,m,0,0.0,-2.28432431,0.51220006
5e2e147d047efa000c6b833d,56,1,2024-02-27T14:12:51.102Z,english_917.wav,0,pill,624,36,5,2,English,m,1,0.1,-50.4941454,0.3783057
5e2e147d047efa000c6b833d,56,1,2024-02-27T14:12:51.102Z,english_917.wav,0,pill,624,36,5,2,English,m,2,0.2,86.41176613,0.52629226
5e2e147d047efa000c6b833d,56,1,2024-02-27T14:12:51.102Z,english_917.wav,0,pill,624,36,5,2,English,m,3,0.3,-50.97734163,0.68389314
5e2e147d047efa000c6b833d,56,1,2024-02-27T14:12:51.102Z,english_917.wav,0,pill,624,36,5,2,English,m,4,0.32341667,97.13453513,1.73708117
5e2e147d047efa000c6b833d,57,1,2024-02-27T14:12:51.102Z,english_563.wav,0,pill,368,36,5,2,English,m,0,0.0,19.758909,0.0609285
5e2e147d047efa000c6b833d,57,1,2024-02-27T14:12:51.102Z,english_563.wav,0,pill,368,36,5,2,English,m,1,0.1,33.70416131,1.63852294
5e2e147d047efa000c6b833d,57,1,2024-02-27T14:12:51.102Z,english_563.wav,0,pill,368,36,5,2,English,m,2,0.2,-28.26228599,0.53834051
5e2e147d047efa000c6b833d,57,1,2024-02-27T14:12:51.102Z,english_563.wav,0,pill,368,36,5,2,English,m,3,0.3,77.25360299,0.54558093
5e2e147d047efa000c6b833d,57,1,2024-02-27T14:12:51.102Z,english_563.wav,0,pill,368,36,5,2,English,m,4,0.32341667,-40.65982077,0.29994173
5e2e147d047efa000c6b833d,58,1,2024-02-27T14:12:51.102Z,english_503.wav,0,pill,24,36,5,2,English,m,0,0.0,-62.81458057,1.15988152
5e2e147d047efa000c6b833d,58,1,2024-02-27T14:12:51.102Z,english_503.wav,0,pill,24,36,5,2,English,m,1,0.1,17.97702429,0.58853345
5e2e147d047efa000c6b833d,58,1,2024-02-27T14:12:51.102Z,english_503.wav,0,pill,24,36,5,2,English,m,2,0.2,-8.2980926,1.29983279
5e2e147d047efa000c6b833d,58,1,2024-02-27T14:12:51.102Z,english_503.wav,0,pill,24,36,5,2,English,m,3,0.3,-62.4217389,1.42406205
5e2e147d047efa000c6b833d,58,1,2024-02-27T14:12:51.102Z,english_503.wav,0,pill,24,36,5,2,English,m,4,0.32341667,18.11027086,0.84018378
5e2e147d047efa000c6b833d,59,1,2024-02-27T14:12:51.102Z,english_965.wav,0,peel,719,36,5,2,English,m,0,0.0,-19.49526798,1.71910172
5e2e147d047efa000c6b833d,59,1,2024-02-27T14:12:51.102Z,english_965.wav,0,peel,719,36,5,2,English,m,1,0.1,-33.46093545,1.16323176
5e2e147d047efa000c6b833d,59,1,2024-02-27T14:12:51.102Z,english_965.wav,0,peel,719,36,5,2,English,m,2,0.2,95.24809114,0.56514201
5e2e147d047efa000c6b833d,59,1,2024-02-27T14:12:51.102Z,english_965.wav,0,peel,719,36,5,2,English,m,3,0.3,26.23968625,1.82539978
5e2e147d047efa000c6b833d,59,1,2024-02-27T14:12:51.102Z,english_965.wav,0,peel,719,36,5,2,English,m,4,0.32341667,15.70217089,1.7659451
5e2e147d047efa000c6b833d,60,1,2024-02-27T14:12:51.102Z,english_558.wav,0,pill,255,36,5,2,English,m,0,0.0,-73.38624366,1.58797859
5e2e147d047efa000c6b833d,60,1,2024-02-27T14:12:51.102Z,english_558.wav,0,pill,255,36,5,2,English,m,1,0.1,-42.42633216,1.10525313
5e2e147d047efa000c6b833d,60,1,2024-02-27T14:12:51.102Z,english_558.wav,0,pill,255,36,5,2,English,m,2,0.2,15.99713578,0.42598769
5e2e147d047efa000c6b833d,60,1,2024-02-27T14:12:51.102Z,english_558.wav,0,pill,255,36,5,2,English,m,3,0.3,-33.12568725,0.25629603
5e2e147d047efa000c6b833d,60,1,2024-02-27T14:12:51.102Z,english_558.wav,0,pill,255,36,5,2,English,m,4,0.32341667,44.00446366,1.81995896
5e2e147d047efa000c6b833d,61,1,2024-02-27T14:12:51.102Z,english_892.wav,0,pill,285,36,5,2,English,m,0,0.0,38.63128374,0.97893944
5e2e147d047efa000c6b833d,61,1,2024-02-27T14:12:51.102Z,english_892.wav,0,pill,285,36,5,2,English,m,1,0.1,22.49899687,0.66551001
5e2e147d047efa000c6b833d,61,1,2024-02-27T14:12:51.102Z,english_892.wav,0,pill,285,36,5,2,English,m,2,0.2,28.84135264,0.36795179
5e2e147d047efa000c6b833d,61,1,2024-02-27T14:12:51.102Z,english_892.wav,0,pill,285,36,5,2,English,m,3,0.3,81.19740532,1.0840826
5e2e147d047efa000c6b833d,61,1,2024-02-27T14:12:51.102Z,english_892.wav,0,pill,285,36,5,2,English,m,4,0.32341667,22.37782167,0.83637256
5e2e147d047efa000c6b833d,62,1,2024-02-27T14:12:51.102Z,english_686.wav,0,pill,26,36,5,2,English,m,0,0.0,-30.40223154,0.36787347
5e2e147d047efa000c6b833d,62,1,2024-02-27T14:12:51.102Z,english_686.wav,0,pill,26,36,5,2,English,m,1,0.1,40.30213926,1.54584144
5e2e147d047efa000c6b833d,62,1,2024-02-27T14:12:51.102Z,english_686.wav,0,pill,26,36,5,2,English,m,2,0.2,68.68183252,1.54645212
5e2e147d047efa000c6b833d,62,1,2024-02-27T14:12:51.102Z,english_686.wav,0,pill,26,36,5,2,English,m,3,0.3,82.36920372,1.04035585
5e2e147d047efa000c6b833d,62,1,2024-02-27T14:12:51.102Z,english_686.wav,0,pill,26,36,5,2,English,m,4,0.32341667,5.8000707,1.51520661
5e2e147d047efa000c6b833d,63,1,2024-02-27T14:12:51.102Z,english_596.wav,0,pill,655,36,5,2,English,m,0,0.0,90.29147433,0.88361056
5e2e147d047efa000c6b833d,63,1,2024-02-27T14:12:51.102Z,english_596.wav,0,pill,655,36,5,2,English,m,1,0.1,12.52853873,0.63799557
5e2e147d047efa000c6b833d,63,1,2024-02-27T14:12:51.102Z,english_596.wav,0,pill,655,36,5,2,English,m,2,0.2,50.53853174,0.09787331
5e2e147d047efa000c6b833d,63,1,2024-02-27T14:12:51.102Z,english_596.wav,0,pill,655,36,5,2,English,m,3,0.3,-77.3590695,1.15168959
5e2e147d047efa000c6b833d,63,1,2024-02-27T14:12:51.102Z,english_596.wav,0,pill,655,36,5,2,English,m,4,0.32341667,-1.65440801,0.06773829
5e2e147d047efa000c6b833d,64,1,2024-02-27T14:12:51.102Z,english_591.wav,0,peel,928,36,5,2,English,m,0,0.0,-17.23532002,0.16408748
5e2e147d047efa000c6b833d,64,1,2024-02-27T14:12:51.102Z,english_591.wav,0,peel,928,36,5,2,English,m,1,0.1,-55.20494434,0.21361432
5e2e147d047efa000c6b833d,64,1,2024-02-27T14:12:51.102Z,english_591.wav,0,peel,928,36,5,2,English,m,2,0.2,-36.65883109,0.19384467
5e2e147d047efa000c6b833d,64,1,2024-02-27T14:12:51.102Z,english_591.wav,0,peel,928,36,5,2,English,m,3,0.3,75.34514139,0.82850175
5e2e147d047efa000c6b833d,64,1,2024-02-27T14:12:51.102Z,english_591.wav,0,peel,928,36,5,2,English,m,4,0.32341667,31.2832342,1.471328
5e2e147d047efa000c6b833d,65,1,2024-02-27T14:12:51.102Z,english_771.wav,0,peel,239,36,5,2,English,m,0,0.0,52.29619013,1.65909918
5e2e147d047efa000c6b833d,65,1,2024-02-27T14:12:51.102Z,english_771.wav,0,peel,239,36,5,2,English,m,1,0.1,55.26271333,1.05958749
5e2e147d047efa000c6b833d,65,1,2024-02-27T14:12:51.102Z,english_771.wav,0,peel,239,36,5,2,English,m,2,0.2,49.2587818,1.33758239
5e2e147d047efa000c6b833d,65,1,2024-02-27T14:12:51.102Z,english_771.wav,0,peel,239,36,5,2,English,m,3,0.3,48.45532009,1.75478958
5e2e147d047efa000c6b833d,65,1,2024-02-27T14:12:51.102Z,english_771.wav,0,peel,239,36,5,2,English,m,4,0.32341667,-98.45631565,0.37013483
5e2e147d047efa000c6b833d,66,1,2024-02-27T14:12:51.102Z,english_150.wav,0,peel,217,36,5,2,English,m,0,0.0,-51.77489255,0.6625495
5e2e147d047efa000c6b833d,66,1,2024-02-27T14:12:51.102Z,english_150.wav,0,peel,217,36,5,2,English,m,1,0.1,16.7322824,1.26353984
5e2e147d047efa000c6b833d,66,1,2024-02-27T14:12:51.102Z,english_150.wav,0,peel,217,36,5,2,English,m,2,0.2,-56.19561079,0.38378194
5e2e147d047efa000c6b833d,66,1,2024-02-27T14:12:51.102Z,english_150.wav,0,peel,217,36,5,2,English,m,3,0.3,36.81691324,1.59154348
5e2e147d047efa000c6b833d,66,1,2024-02-27T14:12:51.102Z,english_150.wav,0,peel,217,36,5,2,English,m,4,0.32341667,-97.11243964,0.94821753
5e2e147d047efa000c6b833d,67,1,2024-02-27T14:12:51.102Z,english_414.wav,0,peel,253,36,5,2,English,m,0,0.0,19.47839865,0.9434816
5e2e147d047efa000c6b833d,67,1,2024-02-27T14:12:51.102Z,english_414.wav,0,peel,253,36,5,2,English,m,1,0.1,59.9490877,1.1146936
5e2e147d047efa000c6b833d,67,1,2024-02-27T14:12:51.102Z,english_414.wav,0,peel,253,36,5,2,English,m,2,0.2,22.33981162,0.48476454
5e2e147d047efa000c6b833d,67,1,2024-02-27T14:12:51.102Z,english_414.wav,0,peel,253,36,5,2,English,m,3,0.3,18.97426154,0.23554241
5e2e147d047efa000c6b833d,67,1,2024-02-27T14:12:51.102Z,english_414.wav,0,peel,253,36,5,2,English,m,4,0.32341667,15.16306506,1.13007685
5e2e147d047efa000c6b833d,68,1,2024-02-27T14:12:51.102Z,english_920.wav,0,peel,515,36,5,2,English,m,0,0.0,95.7501832,1.54313256
5e2e147d047efa000c6b833d,68,1,2024-02-27T14:12:51.102Z,english_920.wav,0,peel,515,36,5,2,English,m,1,0.1,-3.19831823,1.33500472
5e2e147d047efa000c6b833d,68,1,2024-02-27T14:12:51.102Z,english_920.wav,0,peel,515,36,5,2,English,m,2,0.2,-16.96134457,1.12819963
5e2e147d047efa000c6b833d,68,1,2024-02-27T14:12:51.102Z,english_920.wav,0,peel,515,36,5,2,English,m,3,0.3,-28.81747413,1.72147256
5e2e147d047efa000c6b833d,68,1,2024-02-27T14:12:51.102Z,english_920.wav,0,peel,515,36,5,2,English,m,4,0.32341667,42.63505928,0.57593815
5e2e147d047efa000c6b833d,69,1,2024-02-27T14:12:51.102Z,english_851.wav,0,pill,1568,36,5,2,English,m,0,0.0,-83.90491711,1.65488062
5e2e147d047efa000c6b833d,69,1,2024-02-27T14:12:51.102Z,english_851.wav,0,pill,1568,36,5,2,English,m,1,0.1,92.94065497,0.14315595
5e2e147d047efa000c6b833d,69,1,2024-02-27T14:12:51.102Z,english_851.wav,0,pill,1568,36,5,2,English,m,2,0.2,-63.47542883,0.84481863
5e2e147d047efa000c6b833d,69,1,2024-02-27T14:12:51.102Z,english_851.wav,0,pill,1568,36,5,2,English,m,3,0.3,13.34025436,1.9580918
5e2e147d047efa000c6b833d,69,1,2024-02-27T14:12:51.102Z,english_851.wav,0,pill,1568,36,5,2,English,m,4,0.32341667,32.96474042,0.23608581
5e2e147d047efa000c6b833d,70,1,2024-02-27T14:12:51.102Z,english_390.wav,0,peel,690,36,5,2,English,m,0,0.0,-50.40750922,1.41643644
5e2e147d047efa000c6b833d,70,1,2024-02-27T14:12:51.102Z,english_390.wav,0,peel,690,36,5,2,English,m,1,0.1,-38.67641955,0.84399933
5e2e147d047efa000c6b833d,70,1,2024-02-27T14:12:51.102Z,english_390.wav,0,peel,690,36,5,2,English,m,2,0.2,-37.03459725,1.67796426
5e2e147d047efa000c6b833d,70,1,2024-02-27T14:12:51.102Z,english_390.wav,0,peel,690,36,5,2,English,m,3,0.3,-24.07335547,0.43781117
5e2e147d047efa000c6b833d,70,1,2024-02-27T14:12:51.102Z,english_390.wav,0,peel,690,36,5,2,English,m,4,0.32341667,75.09366884,0.01225463
5e2e147d047efa000c6b833d,71,1,2024-02-27T14:12:51.102Z,english_275.wav,0,pill,503,36,5,2,English,m,0,0.0,-1.14725012,0.71691039
5e2e147d047efa000c6b833d,71,1,2024-02-27T14:12:51.102Z,english_275.wav,0,pill,503,36,5,2,English,m,1,0.1,-90.43848863,0.74614953
5e2e147d047efa000c6b833d,71,1,2024-02-27T14:12:51.102Z,english_275.wav,0,pill,503,36,5,2,English,m,2,0.2,-40.03711279,1.94843862
5e2e147d047efa000c6b833d,71,1,2024-02-27T14:12:51.102Z,english_275.wav,0,pill,503,36,5,2,English,m,3,0.3,-29.12549604,0.32495742
5e2e147d047efa000c6b833d,71,1,2024-02-27T14:12:51.102Z,english_275.wav,0,pill,503,36,5,2,English,m,4,0.32341667,77.33253221,0.61649877
5e2e147d047efa000c6b833d,72,1,2024-02-27T14:12:51.102Z,english_606.wav,0,pill,613,36,5,2,English,m,0,0.0,-54.19201916,1.71730642
5e2e147d047efa000c6b833d,72,1,2024-02-27T14:12:51.102Z,english_606.wav,0,pill,613,36,5,2,English,m,1,0.1,-9.49104439,0.42216081
5e2e147d047efa000c6b833d,72,1,2024-02-27T14:12:51.102Z,english_606.wav,0,pill,613,36,5,2,English,m,2,0.2,1.17868262,1.31506394
5e2e147d047efa000c6b833d,72,1,2024-02-27T14:12:51.102Z,english_606.wav,0,pill,613,36,5,2,English,m,3,0.3,-95.39718692,0.06922913
5e2e147d047efa000c6b833d,72,1,2024-02-27T14:12:51.102Z,english_606.wav,0,pill,613,36,5,2,English,m,4,0.32341667,-48.659775,0.08316227
5e2e147d047efa000c6b833d,73,1,2024-02-27T14:12:51.102Z,english_985.wav,0,pill,451,36,5,2,English,m,0,0.0,31.76144354,0.46805505
5e2e147d047efa000c6b833d,73,1,2024-02-27T14:12:51.102Z,english_985.wav,0,pill,451,36,5,2,English,m,1,0.1,49.0534069,1.72857245
5e2e147d047efa000c6b833d,73,1,2024-02-27T14:12:51.102Z,english_985.wav,0,pill,451,36,5,2,English,m,2,0.2,-59.14058353,0.05336254
5e2e147d047efa000c6b833d,73,1,2024-02-27T14:12:51.102Z,english_985.wav,0,pill,451,36,5,2,English,m,3,0.3,-36.25561351,0.45417652
5e2e147d047efa000c6b833d,73,1,2024-02-27T14:12:51.102Z,english_985.wav,0,pill,451,36,5,2,English,m,4,0.32341667,-53.50268286,1.33850641
5e2e147d047efa000c6b833d,74,1,2024-02-27T14:12:51.102Z,english_519.wav,0,peel,535,36,5,2,English,m,0,0.0,-8.06946753,0.14231686
5e2e147d047efa000c6b833d,74,1,2024-02-27T14:12:51.102Z,english_519.wav,0,peel,535,36,5,2,English,m,1,0.1,-66.74939098,1.74411569
5e2e147d047efa000c6b833d,74,1,2024-02-27T14:12:51.102Z,english_519.wav,0,peel,535,36,5,2,English,m,2,0.2,-27.98142454,1.42967772
5e2e147d047efa000c6b833d,74,1,2024-02-27T14:12:51.102Z,english_519.wav,0,peel,535,36,5,2,English,m,3,0.3,-72.75033344,0.44774012
5e2e147d047efa000c6b833d,74,1,2024-02-27T14:12:51.102Z,english_519.wav,0,peel,535,36,5,2,English,m,4,0.32341667,-36.15575878,1.4256209
5e2e147d047efa000c6b833d,75,1,2024-02-27T14:12:51.102Z,english_799.wav,0,peel,237,36,5,2,English,m,0,0.0,-48.4958847,1.9233431
5e2e147d047efa000c6b833d,75,1,2024-02-27T14:12:51.102Z,english_799.wav,0,peel,237,36,5,2,English,m,1,0.1,-9.52866418,1.11542891
5e2e147d047efa000c6b833d,75,1,2024-02-27T14:12:51.102Z,english_799.wav,0,peel,237,36,5,2,English,m,2,0.2,1.94176449,0.95865462
5e2e147d047efa000c6b833d,75,1,2024-02-27T14:12:51.102Z,english_799.wav,0,peel,237,36,5,2,English,m,3,0.3,5.71676827,0.6616034
5e2e147d047efa000c6b833d,75,1,2024-02-27T14:12:51.102Z,english_799.wav,0,peel,237,36,5,2,English,m,4,0.32341667,30.27282792,1.91183458
5e2e147d047efa000c6b833d,76,1,2024-02-27T14:12:51.102Z,english_748.wav,0,peel,176,36,5,2,English,m,0,0.0,0.23647087,0.91094575
5e2e147d047efa000c6b833d,76,1,2024-02-27T14:12:51.102Z,english_748.wav,0,peel,176,36,5,2,English,m,1,0.1,45.60572596,1.68800655
5e2e147d047efa000c6b833d,76,1,2024-02-27T14:12:51.102Z,english_748.wav,0,peel,176,36,5,2,English,m,2,0.2,6.14588966,1.37684191
5e2e147d047efa000c6b833d,76,1,2024-02-27T14:12:51.102Z,english_748.wav,0,peel,176,36,5,2,English,m,3,0.3,-10.39850874,0.70556294
5e2e147d047efa000c6b833d,76,1,2024-02-27T14:12:51.102Z,english_748.wav,0,peel,176,36,5,2,English,m,4,0.32341667,-7.86503132,1.52987196
5e2e147d047efa000c6b833d,77,1,2024-02-27T14:12:51.102Z,english_431.wav,0,peel,94,36,5,2,English,m,0,0.0,-28.91437381,1.3282391
5e2e147d047efa000c6b833d,77,1,2024-02-27T14:12:51.102Z,english_431.wav,0,peel,94,36,5,2,English,m,1,0.1,30.6479342,1.9405757
5e2e147d047efa000c6b833d,77,1,2024-02-27T14:12:51.102Z,english_431.wav,0,peel,94,36,5,2,English,m,2,0.2,41.25713347,1.67607787
5e2e147d047efa000c6b833d,77,1,2024-02-27T14:12:51.102Z,english_431.wav,0,peel,94,36,5,2,English,m,3,0.3,9.19018397,0.62213613
5e2e147d047efa000c6b833d,77,1,2024-02-27T14:12:51.102Z,english_431.wav,0,peel,94,36,5,2,English,m,4,0.32341667,-61.77590044,0.50881411
5e2e147d047efa000c6b833d,78,1,2024-02-27T14:12:51.102Z,english_819.wav,0,peel,136,36,5,2,English,m,0,0.0,56.56933068,1.61805944
5e2e147d047efa000c6b833d,78,1,2024-02-27T14:12:51.102Z,english_819.wav,0,peel,136,36,5,2,English,m,1,0.1,16.98960986,1.69207785
5e2e147d047efa000c6b833d,78,1,2024-02-27T14:12:51.102Z,english_819.wav,0,peel,136,36,5,2,English,m,2,0.2,-13.59600893,1.33633205
5e2e147d047efa000c6b833d,78,1,2024-02-27T14:12:51.102Z,english_819.wav,0,peel,136,36,5,2,English,m,3,0.3,79.1710335,0.49452457
5e2e147d047efa000c6b833d,78,1,2024-02-27T14:12:51.102Z,english_819.wav,0,peel,136,36,5,2,English,m,4,0.32341667,25.34620926,1.97134574
5e2e147d047efa000c6b833d,79,1,2024-02-27T14:12:51.102Z,english_871.wav,0,pill,3681,36,5,2,English,m,0,0.0,84.63625516,0.21643415
5e2e147d047efa000c6b833d,79,1,2024-02-27T14:12:51.102Z,english_871.wav,0,pill,3681,36,5,2,English,m,1,0.1,-19.11058767,1.23538017
5e2e147d047efa000c6b833d,79,1,2024-02-27T14:12:51.102Z,english_871.wav,0,pill,3681,36,5,2,English,m,2,0.2,49.1497137,1.26375285
5e2e147d047efa000c6b833d,79,1,2024-02-27T14:12:51.102Z,english_871.wav,0,pill,3681,36,5,2,English,m,3,0.3,-83.07816512,0.03257235
5e2e147d047efa000c6b833d,79,1,2024-02-27T14:12:51.102Z,english_871.wav,0,pill,3681,36,5,2,English,m,4,0.32341667,11.22002909,1.90703832
5e2e147d047efa000c6b833d,80,1,2024-02-27T14:12:51.102Z,english_80.wav,0,peel,459,36,5,2,English,m,0,0.0,33.21374474,1.09809668
5e2e147d047efa000c6b833d,80,1,2024-02-27T14:12:51.102Z,english_80.wav,0,peel,459,36,5,2,English,m,1,0.1,-72.2618742,1.73594877
5e2e147d047efa000c6b833d,80,1,2024-02-27T14:12:51.102Z,english_80.wav,0,peel,459,36,5,2,English,m,2,0.2,-29.44860443,0.30037535
5e2e147d047efa000c6b833d,80,1,2024-02-27T14:12:51.102Z,english_80.wav,0,peel,459,36,5,2,English,m,3,0.3,-33.36418129,0.36613598
5e2e147d047efa000c6b833d,80,1,2024-02-27T14:12:51.102Z,english_80.wav,0,peel,459,36,5,2,English,m,4,0.32341667,-65.11319145,0.50687614
5e2e147d047efa000c6b833d,81,1,2024-02-27T14:12:51.102Z,english_772.wav,0,peel,369,36,5,2,English,m,0,0.0,-76.23750274,0.54712598
5e2e147d047efa000c6b833d,81,1,2024-02-27T14:12:51.102Z,english_772.wav,0,peel,369,36,5,2,English,m,1,0.1,54.42820472,1.66698734
5e2e147d047efa000c6b833d,81,1,2024-02-27T14:12:51.102Z,english_772.wav,0,peel,369,36,5,2,English,m,2,0.2,26.41325181,1.761061
5e2e147d047efa000c6b833d,81,1,2024-02-27T14:12:51.102Z,english_772.wav,0,peel,369,36,5,2,English,m,3,0.3,14.10037165,1.80899506
5e2e147d047efa000c6b833d,81,1,2024-02-27T14:12:51.102Z,english_772.wav,0,peel,369,36,5,2,English,m,4,0.32341667,-75.83605273,1.29882268
5e2e147d047efa000c6b833d,82,1,2024-02-27T14:12:51.102Z,english_621.wav,0,peel,310,36,5,2,English,m,0,0.0,-58.25251841,1.01186344
5e2e147d047efa000c6b833d,82,1,2024-02-27T14:12:51.102Z,english_621.wav,0,peel,310,36,5,2,English,m,1,0.1,21.8974524,1.03560921
5e2e147d047efa000c6b833d,82,1,2024-02-27T14:12:51.102Z,english_621.wav,0,peel,310,36,5,2,English,m,2,0.2,-22.03552483,0.97057504
5e2e147d047efa000c6b833d,82,1,2024-02-27T14:12:51.102Z,english_621.wav,0,peel,310,36,5,2,English,m,3,0.3,-56.80446909,1.33131235
5e2e147d047efa000c6b833d,82,1,2024-02-27T14:12:51.102Z,english_621.wav,0,peel,310,36,5,2,English,m,4,0.32341667,-23.41760562,0.49151525
5e2e147d047efa000c6b833d,83,1,2024-02-27T14:12:51.102Z,english_171.wav,0,pill,281,36,5,2,English,m,0,0.0,13.65984607,0.71637608
5e2e147d047efa000c6b833d,83,1,2024-02-27T14:12:51.102Z,english_171.wav,0,pill,281,36,5,2,English,m,1,0.1,70.55092655,1.80826384
5e2e147d047efa000c6b833d,83,1,2024-02-27T14:12:51.102Z,english_171.wav,0,pill,281,36,5,2,English,m,2,0.2,57.57935127,0.47277884
5e2e147d047efa000c6b833d,83,1,2024-02-27T14:12:51.102Z,english_171.wav,0,pill,281,36,5,2,English,m,3,0.3,-55.35579571,1.22036711
5e2e147d047efa000c6b833d,83,1,2024-02-27T14:12:51.102Z,english_171.wav,0,pill,281,36,5,2,English,m,4,0.32341667,13.04572565,0.00907712
5e2e147d047efa000c6b833d,84,1,2024-02-27T14:12:51.102Z,english_912.wav,0,peel,548,36,5,2,English,m,0,0.0,-43.64864707,0.87210048
5e2e147d047efa000c6b833d,84,1,2024-02-27T14:12:51.102Z,english_912.wav,0,peel,548,36,5,2,English,m,1,0.1,94.54433808,1.43243955
5e2e147d047efa000c6b833d,84,1,2024-02-27T14:12:51.102Z,english_912.wav,0,peel,548,36,5,2,English,m,2,0.2,67.98324072,1.49899487
5e2e147d047efa000c6b833d,84,1,2024-02-27T14:12:51.102Z,english_912.wav,0,peel,548,36,5,2,English,m,3,0.3,9.27329172,0.42663795
5e2e147d047efa000c6b833d,84,1,2024-02-27T14:12:51.102Z,english_912.wav,0,peel,548,36,5,2,English,m,4,0.32341667,-55.44973818,0.19299009
5e2e147d047efa000c6b833d,85,1,2024-02-27T14:12:51.102Z,english_986.wav,0,peel,177,36,5,2,English,m,0,0.0,36.93997263,1.7539978
5e2e147d047efa000c6b833d,85,1,2024-02-27T14:12:51.102Z,english_986.wav,0,peel,177,36,5,2,English,m,1,0.1,-76.80061303,1.40735445
5e2e147d047efa000c6b833d,85,1,2024-02-27T14:12:51.102Z,english_986.wav,0,peel,177,36,5,2,English,m,2,0.2,60.8418497,0.62226098
5e2e147d047efa000c6b833d,85,1,2024-02-27T14:12:51.102Z,english_986.wav,0,peel,177,36,5,2,English,m,3,0.3,-27.90828951,0.48175931
5e2e147d047efa000c6b833d,85,1,2024-02-27T14:12:51.102Z,english_986.wav,0,peel,177,36,5,2,English,m,4,0.32341667,99.51838141,1.5918282
5e2e147d047efa000c6b833d,86,1,2024-02-27T14:12:51.102Z,english_638.wav,0,peel,676,36,5,2,English,m,0,0.0,6.92468799,1.1702122
5e2e147d047efa000c6b833d,86,1,2024-02-27T14:12:51.102Z,english_638.wav,0,peel,676,36,5,2,English,m,1,0.1,52.10042521,0.51269982
5e2e147d047efa000c6b833d,86,1,2024-02-27T14:12:51.102Z,english_638.wav,0,peel,676,36,5,2,English,m,2,0.2,-39.07293948,0.1912204
5e2e147d047efa000c6b833d,86,1,2024-02-27T14:12:51.102Z,english_638.wav,0,peel,676,36,5,2,English,m,3,0.3,38.46029754,0.91406415
5e2e147d047efa000c6b833d,86,1,2024-02-27T14:12:51.102Z,english_638.wav,0,peel,676,36,5,2,English,m,4,0.32341667,-16.6630855,1.67689755
5e2e147d047efa000c6b833d,87,1,2024-02-27T14:12:51.102Z,english_521.wav,0,peel,377,36,5,2,English,m,0,0.0,-39.78859965,1.84590666
5e2e147d047efa000c6b833d,87,1,2024-02-27T14:12:51.102Z,english_521.wav,0,peel,377,36,5,2,English,m,1,0.1,94.65680132,0.33665341
5e2e147d047efa000c6b833d,87,1,2024-02-27T14:12:51.102Z,english_521.wav,0,peel,377,36,5,2,English,m,2,0.2,-68.68225016,1.01474729
5e2e147d047efa000c6b833d,87,1,2024-02-27T14:12:51.102Z,english_521.wav,0,peel,377,36,5,2,English,m,3,0.3,19.56493677,0.73624599
5e2e147d047efa000c6b833d,87,1,2024-02-27T14:12:51.102Z,english_521.wav,0,peel,377,36,5,2,English,m,4,0.32341667,69.42990376,1.4391639
5e2e147d047efa000c6b833d,88,1,2024-02-27T14:12:51.102Z,english_926.wav,0,pill,471,36,5,2,English,m,0,0.0,-21.84910749,1.63725542
5e2e147d047efa000c6b833d,88,1,2024-02-27T14:12:51.102Z,english_926.wav,0,pill,471,36,5,2,English,m,1,0.1,92.62617727,0.91190035
5e2e147d047efa000c6b833d,88,1,2024-02-27T14:12:51.102Z,english_926.wav,0,pill,471,36,5,2,English,m,2,0.2,-40.07927874,0.45967153
5e2e147d047efa000c6b833d,88,1,2024-02-27T14:12:51.102Z,english_926.wav,0,pill,471,36,5,2,English,m,3,0.3,30.58508574,0.64362954
5e2e147d047efa000c6b833d,88,1,2024-02-27T14:12:51.102Z,english_926.wav,0,pill,471,36,5,2,English,m,4,0.32341667,-68.98646438,1.44788087
5e2e147d047efa000c6b833d,89,1,2024-02-27T14:12:51.102Z,english_714.wav,0,peel,452,36,5,2,English,m,0,0.0,6.62463448,0.98205871
5e2e147d047efa000c6b833d,89,1,2024-02-27T14:12:51.102Z,english_714.wav,0,peel,452,36,5,2,English,m,1,0.1,-7.37775178,1.90018259
5e2e147d047efa000c6b833d,89,1,2024-02-27T14:12:51.102Z,english_714.wav,0,peel,452,36,5,2,English,m,2,0.2,-58.74003357,1.33033281
5e2e147d047efa000c6b833d,89,1,2024-02-27T14:12:51.102Z,english_714.wav,0,peel,452,36,5,2,English,m,3,0.3,-38.84014254,0.20009115
5e2e147d047efa000c6b833d,89,1,2024-02-27T14:12:51.102Z,english_714.wav,0,peel,452,36,5,2,English,m,4,0.32341667,-23.67047323,0.44650169
5e2e147d047efa000c6b833d,90,1,2024-02-27T14:12:51.102Z,english_339.wav,0,peel,475,36,5,2,English,m,0,0.0,-58.67599578,0.13141934
5e2e147d047efa000c6b833d,90,1,2024-02-27T14:12:51.102Z,english_339.wav,0,peel,475,36,5,2,English,m,1,0.1,-13.30258388,0.16133177
5e2e147d047efa000c6b833d,90,1,2024-02-27T14:12:51.102Z,english_339.wav,0,peel,475,36,5,2,English,m,2,0.2,-52.40820381,1.13500643
5e2e147d047efa000c6b833d,90,1,2024-02-27T14:12:51.102Z,english_339.wav,0,peel,475,36,5,2,English,m,3,0.3,11.33062491,0.98717522
5e2e147d047efa000c6b833d,90,1,2024-02-27T14:12:51.102Z,english_339.wav,0,peel,475,36,5,2,English,m,4,0.32341667,9.6385593,0.10332776
5e2e147d047efa000c6b833d,91,1,2024-02-27T14:12:51.102Z,english_941.wav,0,pill,198,36,5,2,English,m,0,0.0,88.25484185,1.5236155
5e2e147d047efa000c6b833d,91,1,2024-02-27T14:12:51.102Z,english_941.wav,0,pill,198,36,5,2,English,m,1,0.1,29.23312353,0.93469446
5e2e147d047efa000c6b833d,91,1,2024-02-27T14:12:51.102Z,english_941.wav,0,pill,198,36,5,2,English,m,2,0.2,-73.60888885,0.44203051
5e2e147d047efa000c6b833d,91,1,2024-02-27T14:12:51.102Z,english_941.wav,0,pill,198,36,5,2,English,m,3,0.3,-38.35663254,1.28625712
5e2e147d047efa000c6b833d,91,1,2024-02-27T14:12:51.102Z,english_941.wav,0,pill,198,36,5,2,English,m,4,0.32341667,-37.21470774,1.264942
5e2e147d047efa000c6b833d,92,1,2024-02-27T14:12:51.102Z,english_229.wav,0,peel,550,36,5,2,English,m,0,0.0,51.56916705,1.25898044
5e2e147d047efa000c6b833d,92,1,2024-02-27T14:12:51.102Z,english_229.wav,0,peel,550,36,5,2,English,m,1,0.1,-51.28327497,0.34588319
5e2e147d047efa000c6b833d,92,1,2024-02-27T14:12:51.102Z,english_229.wav,0,peel,550,36,5,2,English,m,2,0.2,97.78221202,1.91985924
5e2e147d047efa000c6b833d,92,1,2024-02-27T14:12:51.102Z,english_229.wav,0,peel,550,36,5,2,English,m,3,0.3,-75.98126047,0.82059623
5e2e147d047efa000c6b833d,92,1,2024-02-27T14:12:51.102Z,english_229.wav,0,peel,550,36,5,2,English,m,4,0.32341667,-44.05308002,1.38191391
5e2e147d047efa000c6b833d,93,1,2024-02-27T14:12:51.102Z,english_101.wav,0,peel,225,36,5,2,English,m,0,0.0,60.77829508,0.77962125
5e2e147d047efa000c6b833d,93,1,2024-02-27T14:12:51.102Z,english_101.wav,0,peel,225,36,5,2,English,m,1,0.1,43.41373716,0.02040908
5e2e147d047efa000c6b833d,93,1,2024-02-27T14:12:51.102Z,english_101.wav,0,peel,225,36,5,2,English,m,2,0.2,56.16195873,0.79248433
5e2e147d047efa000c6b833d,93,1,2024-02-27T14:12:51.102Z,english_101.wav,0,peel,225,36,5,2,English,m,3,0.3,-99.94719329,1.74003505
5e2e147d047efa000c6b833d,93,1,2024-02-27T14:12:51.102Z,english_101.wav,0,peel,225,36,5,2,English,m,4,0.32341667,-1.35074094,1.66206156
5e2e147d047efa000c6b833d,94,1,2024-02-27T14:12:51.102Z,english_717.wav,0,pill,156,36,5,2,English,m,0,0.0,11.70361719,1.43236824
5e2e147d047efa000c6b833d,94,1,2024-02-27T14:12:51.102Z,english_717.wav,0,pill,156,36,5,2,English,m,1,0.1,-43.41962,0.38419888
5e2e147d047efa000c6b833d,94,1,2024-02-27T14:12:51.102Z,english_717.wav,0,pill,156,36,5,2,English,m,2,0.2,-38.6653904,1.88953633
5e2e147d047efa000c6b833d,94,1,2024-02-27T14:12:51.102Z,english_717.wav,0,pill,156,36,5,2,English,m,3,0.3,-38.11833374,1.28007762
5e2e147d047efa000c6b833d,94,1,2024-02-27T14:12:51.102Z,english_717.wav,0,pill,156,36,5,2,English,m,4,0.32341667,93.29743671,0.67082429
5e2e147d047efa000c6b833d,95,1,2024-02-27T14:12:51.102Z,english_185.wav,0,peel,664,36,5,2,English,m,0,0.0,-67.20213277,0.62417316
5e2e147d047efa000c6b833d,95,1,2024-02-27T14:12:51.102Z,english_185.wav,0,peel,664,36,5,2,English,m,1,0.1,-70.91279736,1.12829576
5e2e147d047efa000c6b833d,95,1,2024-02-27T14:12:51.102Z,english_185.wav,0,peel,664,36,5,2,English,m,2,0.2,11.55913655,0.70978518
5e2e147d047efa000c6b833d,95,1,2024-02-27T14:12:51.102Z,english_185.wav,0,peel,664,36,5,2,English,m,3,0.3,-88.76292025,0.02882377
5e2e147d047efa000c6b833d,95,1,2024-02-27T14:12:51.102Z,english_185.wav,0,peel,664,36,5,2,English,m,4,0.32341667,-25.67800099,0.52970381
5e2e147d047efa000c6b833d,96,1,2024-02-27T14:12:51.102Z,english_592.wav,0,peel,315,36,5,2,English,m,0,0.0,-77.34060672,0.96869857
5e2e147d047efa000c6b833d,96,1,2024-02-27T14:12:51.102Z,english_592.wav,0,peel,315,36,5,2,English,m,1,0.1,27.41551815,1.75134411
5e2e147d047efa000c6b833d,96,1,2024-02-27T14:12:51.102Z,english_592.wav,0,peel,315,36,5,2,English,m,2,0.2,-17.47445882,1.41680483
5e2e147d047efa000c6b833d,96,1,2024-02-27T14:12:51.102Z,english_592.wav,0,peel,315,36,5,2,English,m,3,0.3,-61.08462212,1.07260777
5e2e147d047efa000c6b833d,96,1,2024-02-27T14:12:51.102Z,english_592.wav,0,peel,315,36,5,2,English,m,4,0.32341667,74.7675789,0.73150904
5e2e147d047efa000c6b833d,97,1,2024-02-27T14:12:51.102Z,english_346.wav,0,pill,215,36,5,2,English,m,0,0.0,29.51078372,1.24489428
5e2e147d047efa000c6b833d,97,1,2024-02-27T14:12:51.102Z,english_346.wav,0,pill,215,36,5,2,English,m,1,0.1,86.25753287,1.77356048
5e2e147d047efa000c6b833d,97,1,2024-02-27T14:12:51.102Z,english_346.wav,0,pill,215,36,5,2,English,m,2,0.2,95.6553577,1.30862901
5e2e147d047efa000c6b833d,97,1,2024-02-27T14:12:51.102Z,english_346.wav,0,pill,215,36,5,2,English,m,3,0.3,-65.97707071,0.68318311
5e2e147d047efa000c6b833d,97,1,2024-02-27T14:12:51.102Z,english_346.wav,0,pill,215,36,5,2,English,m,4,0.32341667,49.79896228,1.63073528
5e2e147d047efa000c6b833d,98,1,2024-02-27T14:12:51.102Z,english_162.wav,0,pill,104,36,5,2,English,m,0,0.0,-93.72635155,0.46304305
5e2e147d047efa000c6b833d,98,1,2024-02-27T14:12:51.102Z,english_162.wav,0,pill,104,36,5,2,English,m,1,0.1,-77.68974918,1.90149112
5e2e147d047efa000c6b833d,98,1,2024-02-27T14:12:51.102Z,english_162.wav,0,pill,104,36,5,2,English,m,2,0.2,15.19581884,1.02605911
5e2e147d047efa000c6b833d,98,1,2024-02-27T14:12:51.102Z,english_162.wav,0,pill,104,36,5,2,English,m,3,0.3,64.44828449,1.67084882
5e2e147d047efa000c6b833d,98,1,2024-02-27T14:12:51.102Z,english_162.wav,0,pill,104,36,5,2,English,m,4,0.32341667,-98.3856278,0.11792656
5e2e147d047efa000c6b833d,99,1,2024-02-27T14:12:51.102Z,english_118.wav,0,pill,104,36,5,2,English,m,0,0.0,-46.26080879,0.77156844
5e2e147d047efa000c6b833d,99,1,2024-02-27T14:12:51.102Z,english_118.wav,0,pill,104,36,5,2,English,m,1,0.1,-14.63576669,0.55135676
5e2e147d047efa000c6b833d,99,1,2024-02-27T14:12:51.102Z,english_118.wav,0,pill,104,36,5,2,English,m,2,0.2,85.04541628,0.92804695
5e2e147d047efa000c6b833d,99,1,2024-02-27T14:12:51.102Z,english_118.wav,0,pill,104,36,5,2,English,m,3,0.3,-49.31762638,1.40435072
5e2e147d047efa000c6b833d,99,1,2024-02-27T14:12:51.102Z,english_118.wav,0,pill,104,36,5,2,English,m,4,0.32341667,16.64479416,1.67291824
5e2e147d047efa000c6b833d,100,2,2024-02-27T14:12:51.102Z,english_525.wav,0,pill,386,36,5,2,English,m,0,0.0,-21.23223701,1.69398532
5e2e147d047efa000c6b833d,100,2,2024-02-27T14:12:51.102Z,english_525.wav,0,pill,386,36,5,2,English,m,1,0.1,3.49974992,0.25491439
5e2e147d047efa000c6b833d,100,2,2024-02-27T14:12:51.102Z,english_525.wav,0,pill,386,36,5,2,English,m,2,0.2,-75.71526263,0.17370365
5e2e147d047efa000c6b833d,100,2,2024-02-27T14:12:51.102Z,english_525.wav,0,pill,386,36,5,2,English,m,3,0.3,-52.87512147,0.81797459
5e2e147d047efa000c6b833d,100,2,2024-02-27T14:12:51.102Z,english_525.wav,0,pill,386,36,5,2,English,m,4,0.32341667,17.79573657,0.70176203
5e2e147d047efa000c6b833d,101,2,2024-02-27T14:12:51.102Z,english_226.wav,0,peel,531,36,5,2,English,m,0,0.0,-56.53605181,0.51185795
5e2e147d047efa000c6b833d,101,2,2024-02-27T14:12:51.102Z,english_226.wav,0,peel,531,36,5,2,English,m,1,0.1,-5.93547338,0.73377568
5e2e147d047efa000c6b833d,101,2,2024-02-27T14:12:51.102Z,english_226.wav,0,peel,531,36,5,2,English,m,2,0.2,-81.0596442,1.62034912
5e2e147d047efa000c6b833d,101,2,2024-02-27T14:12:51.102Z,english_226.wav,0,peel,531,36,5,2,English,m,3,0.3,-12.14261426,0.19474782
5e2e147d047efa000c6b833d,101,2,2024-02-27T14:12:51.102Z,english_226.wav,0,peel,531,36,5,2,English,m,4,0.32341667,40.67667876,0.1395898
5e2e147d047efa000c6b833d,102,2,2024-02-27T14:12:51.102Z,english_460.wav,0,peel,510,36,5,2,English,m,0,0.0,-93.21492338,1.97422145
5e2e147d047efa000c6b833d,102,2,2024-02-27T14:12:51.102Z,english_460.wav,0,peel,510,36,5,2,English,m,1,0.1,-65.59669931,0.48313428
5e2e147d047efa000c6b833d,102,2,2024-02-27T14:12:51.102Z,english_460.wav,0,peel,510,36,5,2,English,m,2,0.2,76.47030005,0.91916034
5e2e147d047efa000c6b833d,102,2,2024-02-27T14:12:51.102Z,english_460.wav,0,peel,510,36,5,2,English,m,3,0.3,-24.62267943,0.34121923
5e2e147d047efa000c6b833d,102,2,2024-02-27T14:12:51.102Z,english_460.wav,0,peel,510,36,5,2,English,m,4,0.32341667,17.6428759,0.75894887
5e2e147d047efa000c6b833d,103,2,2024-02-27T14:12:51.102Z,english_859.wav,0,pill,1230,36,5,2,English,m,0,0.0,71.31858369,0.11764496
5e2e147d047efa000c6b833d,103,2,2024-02-27T14:12:51.102Z,english_859.wav,0,pill,1230,36,5,2,English,m,1,0.1,-33.60875554,0.29827778
5e2e147d047efa000c6b833d,103,2,2024-02-27T14:12:51.102Z,english_859.wav,0,pill,1230,36,5,2,English,m,2,0.2,-64.15502461,0.43254339
5e2e147d047efa000c6b833d,103,2,2024-02-27T14:12:51.102Z,english_859.wav,0,pill,1230,36,5,2,English,m,3,0.3,-36.22537369,0.12368506
5e2e147d047efa000c6b833d,103,2,2024-02-27T14:12:51.102Z,english_859.wav,0,pill,1230,36,5,2,English,m,4,0.32341667,-23.59955866,0.97858169
5e2e147d047efa000c6b833d,104,2,2024-02-27T14:12:51.102Z,english_312.wav,0,pill,365,36,5,2,English,m,0,0.0,44.01610098,1.36033213
5e2e147d047efa000c6b833d,104,2,2024-02-27T14:12:51.102Z,english_312.wav,0,pill,365,36,5,2,English,m,1,0.1,-34.76139374,0.08557756
5e2e147d047efa000c6b833d,104,2,2024-02-27T14:12:51.102Z,english_312.wav,0,pill,365,36,5,2,English,m,2,0.2,-43.47986862,1.06509633
5e2e147d047efa000c6b833d,104,2,2024-02-27T14:12:51.102Z,english_312.wav,0,pill,365,36,5,2,English,m,3,0.3,-9.79517271,0.67257935
5e2e147d047efa000c6b833d,104,2,2024-02-27T14:12:51.102Z,english_312.wav,0,pill,365,36,5,2,English,m,4,0.32341667,85.48914895,0.12614926
5e2e147d047efa000c6b833d,105,2,2024-02-27T14:12:51.102Z,english_856.wav,0,peel,303,36,5,2,English,m,0,0.0,-44.08940674,1.51880133
5e2e147d047efa000c6b833d,105,2,2024-02-27T14:12:51.102Z,english_856.wav,0,peel,303,36,5,2,English,m,1,0.1,-25.77644107,0.99524475
5e2e147d047efa000c6b833d,105,2,2024-02-27T14:12:51.102Z,english_856.wav,0,peel,303,36,5,2,English,m,2,0.2,6.39263247,1.11391415
5e2e147d047efa000c6b833d,105,2,2024-02-27T14:12:51.102Z,english_856.wav,0,peel,303,36,5,2,English,m,3,0.3,92.67536145,0.95575529
5e2e147d047efa000c6b833d,105,2,2024-02-27T14:12:51.102Z,english_856.wav,0,peel,303,36,5,2,English,m,4,0.32341667,45.15991817,1.02944292
5e2e147d047efa000c6b833d,106,2,2024-02-27T14:12:51.102Z,english_354.wav,0,peel,330,36,5,2,English,m,0,0.0,-63.97501145,0.52067601
5e2e147d047efa000c6b833d,106,2,2024-02-27T14:12:51.102Z,english_354.wav,0,peel,330,36,5,2,English,m,1,0.1,-43.11314734,0.59903392
5e2e147d047efa000c6b833d,106,2,2024-02-27T14:12:51.102Z,english_354.wav,0,peel,330,36,5,2,English,m,2,0.2,10.53928595,0.9992363
5e2e147d047efa000c6b833d,106,2,2024-02-27T14:12:51.102Z,english_354.wav,0,peel,330,36,5,2,English,m,3,0.3,-23.15258088,1.16142831
5e2e147d047efa000c6b833d,106,2,2024-02-27T14:12:51.102Z,english_354.wav,0,peel,330,36,5,2,English,m,4,0.32341667,3.22925066,0.37639432
5e2e147d047efa000c6b833d,107,2,2024-02-27T14:12:51.102Z,english_827.wav,0,peel,300,36,5,2,English,m,0,0.0,-49.24128803,1.70838213
5e2e147d047efa000c6b833d,107,2,2024-02-27T14:12:51.102Z,english_827.wav,0,peel,300,36,5,2,English,m,1,0.1,62.6158679,0.88048656
5e2e147d047efa000c6b833d,107,2,2024-02-27T14:12:51.102Z,english_827.wav,0,peel,300,36,5,2,English,m,2,0.2,-85.72053716,1.47530841
5e2e147d047efa000c6b833d,107,2,2024-02-27T14:12:51.102Z,english_827.wav,0,peel,300,36,5,2,English,m,3,0.3,-65.54354982,0.04991031
5e2e147d047efa000c6b833d,107,2,2024-02-27T14:12:51.102Z,english_827.wav,0,peel,300,36,5,2,English,m,4,0.32341667,-42.30235352,0.1531298
5e2e147d047efa000c6b833d,108,2,2024-02-27T14:12:51.102Z,english_425.wav,0,peel,198,36,5,2,English,m,0,0.0,52.16022051,1.95369626
5e2e147d047efa000c6b833d,108,2,2024-02-27T14:12:51.102Z,english_425.wav,0,peel,198,36,5,2,English,m,1,0.1,-4.0342476,0.01224448
5e2e147d047efa000c6b833d,108,2,2024-02-27T14:12:51.102Z,english_425.wav,0,peel,198,36,5,2,English,m,2,0.2,71.82190917,1.45838463
5e2e147d047efa000c6b833d,108,2,2024-02-27T14:12:51.102Z,english_425.wav,0,peel,198,36,5,2,English,m,3,0.3,77.8432037,1.1656734
5e2e147d047efa000c6b833d,108,2,2024-02-27T14:12:51.102Z,english_425.wav,0,peel,198,36,5,2,English,m,4,0.32341667,29.14791909,1.54078916
5e2e147d047efa000c6b833d,109,2,2024-02-27T14:12:51.102Z,english_597.wav,0,peel,151,36,5,2,English,m,0,0.0,-83.66792118,0.17389721
5e2e147d047efa000c6b833d,109,2,2024-02-27T14:12:51.102Z,english_597.wav,0,peel,151,36,5,2,English,m,1,0.1,-19.98744657,0.39349672
5e2e147d047efa000c6b833d,109,2,2024-02-27T14:12:51.102Z,english_597.wav,0,peel,151,36,5,2,English,m,2,0.2,-30.38458549,1.97590818
5e2e147d047efa000c6b833d,109,2,2024-02-27T14:12:51.102Z,english_597.wav,0,peel,151,36,5,2,English,m,3,0.3,-63.4406446,1.84988074
5e2e147d047efa000c6b833d,109,2,2024-02-27T14:12:51.102Z,english_597.wav,0,peel,151,36,5,2,English,m,4,0.32341667,25.67812426,1.17620678
5e2e147d047efa000c6b833d,110,2,2024-02-27T14:12:51.102Z,english_209.wav,0,peel,193,36,5,2,English,m,0,0.0,14.15361396,1.44232267
5e2e147d047efa000c6b833d,110,2,2024-02-27T14:12:51.102Z,english_209.wav,0,peel,193,36,5,2,English,m,1,0.1,85.95109622,1.49291498
5e2e147d047efa000c6b833d,110,2,2024-02-27T14:12:51.102Z,english_209.wav,0,peel,193,36,5,2,English,m,2,0.2,18.04804687,1.19611731
5e2e147d047efa000c6b833d,110,2,2024-02-27T14:12:51.102Z,english_209.wav,0,peel,193,36,5,2,English,m,3,0.3,28.2522976,1.49647535
5e2e147d047efa000c6b833d,110,2,2024-02-27T14:12:51.102Z,english_209.wav,0,peel,193,36,5,2,English,m,4,0.32341667,5.36776296,0.30324849
5e2e147d047efa000c6b833d,111,2,2024-02-27T14:12:51.102Z,english_675.wav,0,pill,104,36,5,2,English,m,0,0.0,-31.75128323,1.35198954
5e2e147d047efa000c6b833d,111,2,2024-02-27T14:12:51.102Z,english_675.wav,0,pill,104,36,5,2,English,m,1,0.1,60.52679753,1.32787853
5e2e147d047efa000c6b833d,111,2,2024-02-27T14:12:51.102Z,english_675.wav,0,pill,104,36,5,2,English,m,2,0.2,-22.8835824,1.57632911
5e2e147d047efa000c6b833d,111,2,2024-02-27T14:12:51.102Z,english_675.wav,0,pill,104,36,5,2,English,m,3,0.3,-6.32596177,0.80140737
5e2e147d047efa000c6b833d,111,2,2024-02-27T14:12:51.102Z,english_675.wav,0,pill,104,36,5,2,English,m,4,0.32341667,-61.06491024,0.99818917
5e2e147d047efa000c6b833d,112,2,2024-02-27T14:12:51.102Z,english_263.wav,0,pill,216,36,5,2,English,m,0,0.0,4.78285782,1.6410762
5e2e147d047efa000c6b833d,112,2,2024-02-27T14:12:51.102Z,english_263.wav,0,pill,216,36,5,2,English,m,1,0.1,13.60270601,0.7602565
5e2e147d047efa000c6b833d,112,2,2024-02-27T14:12:51.102Z,english_263.wav,0,pill,216,36,5,2,English,m,2,0.2,39.50896912,0.2694778
5e2e147d047efa000c6b833d,112,2,2024-02-27T14:12:51.102Z,english_263.wav,0,pill,216,36,5,2,English,m,3,0.3,22.44107494,1.51649535
5e2e147d047efa000c6b833d,112,2,2024-02-27T14:12:51.102Z,english_263.wav,0,pill,216,36,5,2,English,m,4,0.32341667,-36.00172497,0.60574629
5e2e147d047efa000c6b833d,113,2,2024-02-27T14:12:51.102Z,english_397.wav,0,pill,277,36,5,2,English,m,0,0.0,89.67962381,0.42719638
5e2e147d047efa000c6b833d,113,2,2024-02-27T14:12:51.102Z,english_397.wav,0,pill,277,36,5,2,English,m,1,0.1,-80.29722345,0.89466904
5e2e147d047efa000c6b833d,113,2,2024-02-27T14:12:51.102Z,english_397.wav,0,pill,277,36,5,2,English,m,2,0.2,60.53564011,0.56174568
5e2e147d047efa000c6b833d,113,2,2024-02-27T14:12:51.102Z,english_397.wav,0,pill,277,36,5,2,English,m,3,0.3,9.94565725,0.1553242
5e2e147d047efa000c6b833d,113,2,2024-02-27T14:12:51.102Z,english_397.wav,0,pill,277,36,5,2,English,m,4,0.32341667,0.1319882,1.89079641
5e2e147d047efa000c6b833d,114,2,2024-02-27T14:12:51.102Z,english_702.wav,0,pill,38,36,5,2,English,m,0,0.0,-19.6614881,1.13820402
5e2e147d047efa000c6b833d,114,2,2024-02-27T14:12:51.102Z,english_702.wav,0,pill,38,36,5,2,English,m,1,0.1,-92.60133235,1.47755069
5e2e147d047efa000c6b833d,114,2,2024-02-27T14:12:51.102Z,english_702.wav,0,pill,38,36,5,2,English,m,2,0.2,-18.01071493,1.33705675
5e2e147d047efa000c6b833d,114,2,2024-02-27T14:12:51.102Z,english_702.wav,0,pill,38,36,5,2,English,m,3,0.3,91.54675011,0.59768286
5e2e147d047efa000c6b833d,114,2,2024-02-27T14:12:51.102Z,english_702.wav,0,pill,38,36,5,2,English,m,4,0.32341667,23.09112348,0.82103567
5e2e147d047efa000c6b833d,115,2,2024-02-27T14:12:51.102Z,english_639.wav,0,peel,265,36,5,2,English,m,0,0.0,-8.64176861,1.80061108
5e2e147d047efa000c6b833d,115,2,2024-02-27T14:12:51.102Z,english_639.wav,0,peel,265,36,5,2,English,m,1,0.1,-2.28240571,0.32075858
5e2e147d047efa000c6b833d,115,2,2024-02-27T14:12:51.102Z,english_639.wav,0,peel,265,36,5,2,English,m,2,0.2,61.07673865,0.35362442
5e2e147d047efa000c6b833d,115,2,2024-02-27T14:12:51.102Z,english_639.wav,0,peel,265,36,5,2,English,m,3,0.3,-20.33592136,1.48415136
5e2e147d047efa000c6b833d,115,2,2024-02-27T14:12:51.102Z,english_639.wav,0,peel,265,36,5,2,English,m,4,0.32341667,-24.05835486,0.14560931
5e2e147d047efa000c6b833d,116,2,2024-02-27T14:12:51.102Z,english_676.wav,0,pill,406,36,5,2,English,m,0,0.0,3.93099148,1.7716209
5e2e147d047efa000c6b833d,116,2,2024-02-27T14:12:51.102Z,english_676.wav,0,pill,406,36,5,2,English,m,1,0.1,73.76311644,1.97281878
5e2e147d047efa000c6b833d,116,2,2024-02-27T14:12:51.102Z,english_676.wav,0,pill,406,36,5,2,English,m,2,0.2,-26.92634129,1.42487848
5e2e147d047efa000c6b833d,116,2,2024-02-27T14:12:51.102Z,english_676.wav,0,pill,406,36,5,2,English,m,3,0.3,51.70874443,1.45099775
5e2e147d047efa000c6b833d,116,2,2024-02-27T14:12:51.102Z,english_676.wav,0,pill,406,36,5,2,English,m,4,0.32341667,-48.7675791,1.84822532
5e2e147d047efa000c6b833d,117,2,2024-02-27T14:12:51.102Z,english_191.wav,0,pill,362,36,5,2,English,m,0,0.0,5.22709543,0.24693927
5e2e147d047efa000c6b833d,117,2,2024-02-27T14:12:51.102Z,english_191.wav,0,pill,362,36,5,2,English,m,1,0.1,-51.29785688,1.61528443
5e2e147d047efa000c6b833d,117,2,2024-02-27T14:12:51.102Z,english_191.wav,0,pill,362,36,5,2,English,m,2,0.2,14.39503603,0.10158113
5e2e147d047efa000c6b833d,117,2,2024-02-27T14:12:51.102Z,english_191.wav,0,pill,362,36,5,2,English,m,3,0.3,60.50312404,1.02883866
5e2e147d047efa000c6b833d,117,2,2024-02-27T14:12:51.102Z,english_191.wav,0,pill,362,36,5,2,English,m,4,0.32341667,68.15927452,0.69870432
5e2e147d047efa000c6b833d,118,2,2024-02-27T14:12:51.102Z,english_787.wav,0,pill,1016,36,5,2,English,m,0,0.0,57.99353047,1.96251481
5e2e147d047efa000c6b833d,118,2,2024-02-27T14:12:51.102Z,english_787.wav,0,pill,1016,36,5,2,English,m,1,0.1,-40.79525362,0.94444479
5e2e147d047efa000c6b833d,118,2,2024-02-27T14:12:51.102Z,english_787.wav,0,pill,1016,36,5,2,English,m,2,0.2,23.78072576,0.924778
5e2e147d047efa000c6b833d,118,2,2024-02-27T14:12:51.102Z,english_787.wav,0,pill,1016,36,5,2,English,m,3,0.3,72.96982422,0.31383508
5e2e147d047efa000c6b833d,118,2,2024-02-27T14:12:51.102Z,english_787.wav,0,pill,1016,36,5,2,English,m,4,0.32341667,53.76957631,0.68947425
5e2e147d047efa000c6b833d,119,2,2024-02-27T14:12:51.102Z,english_921.wav,0,pill,625,36,5,2,English,m,0,0.0,60.93482672,0.06624465
5e2e147d047efa000c6b833d,119,2,2024-02-27T14:12:51.102Z,english_921.wav,0,pill,625,36,5,2,English,m,1,0.1,-71.63665921,1.88925143
5e2e147d047efa000c6b833d,119,2,2024-02-27T14:12:51.102Z,english_921.wav,0,pill,625,36,5,2,English,m,2,0.2,-30.77028929,0.40013084
5e2e147d047efa000c6b833d,119,2,2024-02-27T14:12:51.102Z,english_921.wav,0,pill,625,36,5,2,English,m,3,0.3,-44.68164597,1.26601564
5e2e147d047efa000c6b833d,119,2,2024-02-27T14:12:51.102Z,english_921.wav,0,pill,625,36,5,2,English,m,4,0.32341667,34.59415858,1.98956357
5e2e147d047efa000c6b833d,120,2,2024-02-27T14:12:51.102Z,english_8.wav,0,pill,423,36,5,2,English,m,0,0.0,-11.83025711,1.51300734
5e2e147d047efa000c6b833d,120,2,2024-02-27T14:12:51.102Z,english_8.wav,0,pill,423,36,5,2,English,m,1,0.1,8.7470631,0.24000547
5e2e147d047efa000c6b833d,120,2,2024-02-27T14:12:51.102Z,english_8.wav,0,pill,423,36,5,2,English,m,2,0.2,-15.41843982,1.17952525
5e2e147d047efa000c6b833d,120,2,2024-02-27T14:12:51.102Z,english_8.wav,0,pill,423,36,5,2,English,m,3,0.3,-87.7437633,1.57032258
5e2e147d047efa000c6b833d,120,2,2024-02-27T14:12:51.102Z,english_8.wav,0,pill,423,36,5,2,English,m,4,0.32341667,-40.85253846,0.7584977
5e2e147d047efa000c6b833d,121,2,2024-02-27T14:12:51.102Z,english_957.wav,0,pill,385,36,5,2,English,m,0,0.0,-8.34255742,0.77577071
5e2e147d047efa000c6b833d,121,2,2024-02-27T14:12:51.102Z,english_957.wav,0,pill,385,36,5,2,English,m,1,0.1,-36.8236739,1.35435363
5e2e147d047efa000c6b833d,121,2,2024-02-27T14:12:51.102Z,english_957.wav,0,pill,385,36,5,2,English,m,2,0.2,6.68978896,0.94592229
5e2e147d047efa000c6b833d,121,2,2024-02-27T14:12:51.102Z,english_957.wav,0,pill,385,36,5,2,English,m,3,0.3,-85.51463088,0.8988777
5e2e147d047efa000c6b833d,121,2,2024-02-27T14:12:51.102Z,english_957.wav,0,pill,385,36,5,2,English,m,4,0.32341667,-16.82289389,0.34403417
5e2e147d047efa000c6b833d,122,2,2024-02-27T14:12:51.102Z,english_166.wav,0,peel,278,36,5,2,English,m,0,0.0,37.27670025,1.42766663
5e2e147d047efa000c6b833d,122,2,2024-02-27T14:12:51.102Z,english_166.wav,0,peel,278,36,5,2,English,m,1,0.1,34.38847046,0.72731767
5e2e147d047efa000c6b833d,122,2,2024-02-27T14:12:51.102Z,english_166.wav,0,peel,278,36,5,2,English,m,2,0.2,49.91842175,1.80608275
5e2e147d047efa000c6b833d,122,2,2024-02-27T14:12:51.102Z,english_166.wav,0,peel,278,36,5,2,English,m,3,0.3,56.9541748,1.91598421
5e2e147d047efa000c6b833d,122,2,2024-02-27T14:12:51.102Z,english_166.wav,0,peel,278,36,5,2,English,m,4,0.32341667,10.97290623,1.21084105
5e2e147d047efa000c6b833d,123,2,2024-02-27T14:12:51.102Z,english_845.wav,0,peel,796,36,5,2,English,m,0,0.0,-39.21264236,0.82761504
5e2e147d047efa000c6b833d,123,2,2024-02-27T14:12:51.102Z,english_845.wav,0,peel,796,36,5,2,English,m,1,0.1,99.78041888,0.53375751
5e2e147d047efa000c6b833d,123,2,2024-02-27T14:12:51.102Z,english_845.wav,0,peel,796,36,5,2,English,m,2,0.2,-59.29104422,1.24236426
5e2e147d047efa000c6b833d,123,2,2024-02-27T14:12:51.102Z,english_845.wav,0,peel,796,36,5,2,English,m,3,0.3,57.0409613,1.27736464
5e2e147d047efa000c6b833d,123,2,2024-02-27T14:12:51.102Z,english_845.wav,0,peel,796,36,5,2,English,m,4,0.32341667,-93.6361214,0.79024728
5e2e147d047efa000c6b833d,124,2,2024-02-27T14:12:51.102Z,english_480.wav,0,pill,638,36,5,2,English,m,0,0.0,-9.10453384,0.61491247
5e2e147d047efa000c6b833d,124,2,2024-02-27T14:12:51.102Z,english_480.wav,0,pill,638,36,5,2,English,m,1,0.1,72.09708103,1.35502449
5e2e147d047efa000c6b833d,124,2,2024-02-27T14:12:51.102Z,english_480.wav,0,pill,638,36,5,2,English,m,2,0.2,-73.7181862,0.28674933
5e2e147d047efa000c6b833d,124,2,2024-02-27T14:12:51.102Z,english_480.wav,0,pill,638,36,5,2,English,m,3,0.3,18.73451671,0.14653082
5e2e147d047efa000c6b833d,124,2,2024-02-27T14:12:51.102Z,english_480.wav,0,pill,638,36,5,2,English,m,4,0.32341667,83.35837597,1.34653786
5e2e147d047efa000c6b833d,125,2,2024-02-27T14:12:51.102Z,english_725.wav,0,pill,751,36,5,2,English,m,0,0.0,26.80600371,0.25466557
5e2e147d047efa000c6b833d,125,2,2024-02-27T14:12:51.102Z,english_725.wav,0,pill,751,36,5,2,English,m,1,0.1,82.24352357,0.77088778
5e2e147d047efa000c6b833d,125,2,2024-02-27T14:12:51.102Z,english_725.wav,0,pill,751,36,5,2,English,m,2,0.2,-3.79901328,0.70697722
5e2e147d047efa000c6b833d,125,2,2024-02-27T14:12:51.102Z,english_725.wav,0,pill,751,36,5,2,English,m,3,0.3,68.54562933,1.24247197
5e2e147d047efa000c6b833d,125,2,2024-02-27T14:12:51.102Z,english_725.wav,0,pill,751,36,5,2,English,m,4,0.32341667,-39.79698803,1.34526742
5e2e147d047efa000c6b833d,126,2,2024-02-27T14:12:51.102Z,english_680.wav,0,peel,287,36,5,2,English,m,0,0.0,93.24972168,1.89994278
5e2e147d047efa000c6b833d,126,2,2024-02-27T14:12:51.102Z,english_680.wav,0,peel,287,36,5,2,English,m,1,0.1,21.55707386,1.06559033
5e2e147d047efa000c6b833d,126,2,2024-02-27T14:12:51.102Z,english_680.wav,0,peel,287,36,5,2,English,m,2,0.2,-58.84044748,0.79606997
5e2e147d047efa000c6b833d,126,2,2024-02-27T14:12:51.102Z,english_680.wav,0,peel,287,36,5,2,English,m,3,0.3,-13.55367876,0.35899559
5e2e147d047efa000c6b833d,126,2,2024-02-27T14:12:51.102Z,english_680.wav,0,peel,287,36,5,2,English,m,4,0.32341667,17.98073729,1.50925573
5e2e147d047efa000c6b833d,127,2,2024-02-27T14:12:51.102Z,english_557.wav,0,pill,139,36,5,2,English,m,0,0.0,43.94308994,0.38165316
5e2e147d047efa000c6b833d,127,2,2024-02-27T14:12:51.102Z,english_557.wav,0,pill,139,36,5,2,English,m,1,0.1,84.77773598,1.19567933
5e2e147d047efa000c6b833d,127,2,2024-02-27T14:12:51.102Z,english_557.wav,0,pill,139,36,5,2,English,m,2,0.2,-14.75143777,1.35103773
5e2e147d047efa000c6b833d,127,2,2024-02-27T14:12:51.102Z,english_557.wav,0,pill,139,36,5,2,English,m,3,0.3,-37.76141322,1.69174007
5e2e147d047efa000c6b833d,127,2,2024-02-27T14:12:51.102Z,english_557.wav,0,pill,139,36,5,2,English,m,4,0.32341667,-5.99076179,0.4334092
5e2e147d047efa000c6b833d,128,2,2024-02-27T14:12:51.102Z,english_682.wav,0,pill,699,36,5,2,English,m,0,0.0,-19.80167737,1.6131825
5e2e147d047efa000c6b833d,128,2,2024-02-27T14:12:51.102Z,english_682.wav,0,pill,699,36,5,2,English,m,1,0.1,-30.98220326,1.03205672
5e2e147d047efa000c6b833d,128,2,2024-02-27T14:12:51.102Z,english_682.wav,0,pill,699,36,5,2,English,m,2,0.2,26.07010201,1.08357256
5e2e147d047efa000c6b833d,128,2,2024-02-27T14:12:51.102Z,english_682.wav,0,pill,699,36,5,2,English,m,3,0.3,-7.79776739,1.70642947
5e2e147d047efa000c6b833d,128,2,2024-02-27T14:12:51.102Z,english_682.wav,0,pill,699,36,5,2,English,m,4,0.32341667,-10.9148898,0.86858281
5e2e147d047efa000c6b833d,129,2,2024-02-27T14:12:51.102Z,english_453.wav,0,peel,215,36,5,2,English,m,0,0.0,-60.23429987,1.87756573
5e2e147d047efa000c6b833d,129,2,2024-02-27T14:12:51.102Z,english_453.wav,0,peel,215,36,5,2,English,m,1,0.1,80.38725697,0.94070469
5e2e147d047efa000c6b833d,129,2,2024-02-27T14:12:51.102Z,english_453.wav,0,peel,215,36,5,2,English,m,2,0.2,66.16689695,1.71191258
5e2e147d047efa000c6b833d,129,2,2024-02-27T14:12:51.102Z,english_453.wav,0,peel,215,36,5,2,English,m,3,0.3,-59.46214637,0.56012011
5e2e147d047efa000c6b833d,129,2,2024-02-27T14:12:51.102Z,english_453.wav,0,peel,215,36,5,2,English,m,4,0.32341667,-39.76201882,0.35119419
5e2e147d047efa000c6b833d,130,2,2024-02-27T14:12:51.102Z,english_518.wav,0,pill,528,36,5,2,English,m,0,0.0,52.37511869,0.23824141
5e2e147d047efa000c6b833d,130,2,2024-02-27T14:12:51.102Z,english_518.wav,0,pill,528,36,5,2,English,m,1,0.1,-33.3490586,0.80559068
5e2e147d047efa000c6b833d,130,2,2024-02-27T14:12:51.102Z,english_518.wav,0,pill,528,36,5,2,English,m,2,0.2,-71.20035434,1.24725456
5e2e147d047efa000c6b833d,130,2,2024-02-27T14:12:51.102Z,english_518.wav,0,pill,528,36,5,2,English,m,3,0.3,6.23243823,1.01334401
5e2e147d047efa000c6b833d,130,2,2024-02-27T14:12:51.102Z,english_518.wav,0,pill,528,36,5,2,English,m,4,0.32341667,-29.48660546,1.51264586
5e2e147d047efa000c6b833d,131,2,2024-02-27T14:12:51.102Z,english_885.wav,0,peel,981,36,5,2,English,m,0,0.0,36.3288655,0.78617108
5e2e147d047efa000c6b833d,131,2,2024-02-27T14:12:51.102Z,english_885.wav,0,peel,981,36,5,2,English,m,1,0.1,-33.4786966,0.96292114
5e2e147d047efa000c6b833d,131,2,2024-02-27T14:12:51.102Z,english_885.wav,0,peel,981,36,5,2,English,m,2,0.2,8.05827153,0.70266535
5e2e147d047efa000c6b833d,131,2,2024-02-27T14:12:51.102Z,english_885.wav,0,peel,981,36,5,2,English,m,3,0.3,84.98004341,0.45613544
5e2e147d047efa000c6b833d,131,2,2024-02-27T14:12:51.102Z,english_885.wav,0,peel,981,36,5,2,English,m,4,0.32341667,-34.65749493,0.81873504
5e2e147d047efa000c6b833d,132,2,2024-02-27T14:12:51.102Z,english_375.wav,0,peel,977,36,5,2,English,m,0,0.0,18.096335,0.30735121
5e2e147d047efa000c6b833d,132,2,2024-02-27T14:12:51.102Z,english_375.wav,0,peel,977,36,5,2,English,m,1,0.1,-55.77885891,1.17808606
5e2e147d047efa000c6b833d,132,2,2024-02-27T14:12:51.102Z,english_375.wav,0,peel,977,36,5,2,English,m,2,0.2,-79.80603762,1.03107785
5e2e147d047efa000c6b833d,132,2,2024-02-27T14:12:51.102Z,english_375.wav,0,peel,977,36,5,2,English,m,3,0.3,-57.7566014,0.46519988
5e2e147d047efa000c6b833d,132,2,2024-02-27T14:12:51.102Z,english_375.wav,0,peel,977,36,5,2,English,m,4,0.32341667,74.14673873,1.41875211
5e2e147d047efa000c6b833d,133,2,2024-02-27T14:12:51.102Z,english_587.wav,0,peel,227,36,5,2,English,m,0,0.0,-33.32102811,0.7972352
5e2e147d047efa000c6b833d,133,2,2024-02-27T14:12:51.102Z,english_587.wav,0,peel,227,36,5,2,English,m,1,0.1,46.1287001,1.97425238
5e2e147d047efa000c6b833d,133,2,2024-02-27T14:12:51.102Z,english_587.wav,0,peel,227,36,5,2,English,m,2,0.2,-62.23894368,0.99609006
5e2e147d047efa000c6b833d,133,2,2024-02-27T14:12:51.102Z,english_587.wav,0,peel,227,36,5,2,English,m,3,0.3,36.67711132,1.18577707
5e2e147d047efa000c6b833d,133,2,2024-02-27T14:12:51.102Z,english_587.wav,0,peel,227,36,5,2,English,m,4,0.32341667,-11.53320103,1.64089558
5e2e147d047efa000c6b833d,134,2,2024-02-27T14:12:51.102Z,english_567.wav,0,pill,251,36,5,2,English,m,0,0.0,26.28994663,0.43358591
5e2e147d047efa000c6b833d,134,2,2024-02-27T14:12:51.102Z,english_567.wav,0,pill,251,36,5,2,English,m,1,0.1,-84.76959918,0.96759171
5e2e147d047efa000c6b833d,134,2,2024-02-27T14:12:51.102Z,english_567.wav,0,pill,251,36,5,2,English,m,2,0.2,-17.21635209,0.27115372
5e2e147d047efa000c6b833d,134,2,2024-02-27T14:12:51.102Z,english_567.wav,0,pill,251,36,5,2,English,m,3,0.3,-93.28005251,1.2000135
5e2e147d047efa000c6b833d,134,2,2024-02-27T14:12:51.102Z,english_567.wav,0,pill,251,36,5,2,English,m,4,0.32341667,55.01605665,1.11881456
5e2e147d047efa000c6b833d,135,2,2024-02-27T14:12:51.102Z,english_773.wav,0,pill,192,36,5,2,English,m,0,0.0,-97.46951928,0.54003315
5e2e147d047efa000c6b833d,135,2,2024-02-27T14:12:51.102Z,english_773.wav,0,pill,192,36,5,2,English,m,1,0.1,85.58858853,1.35505424
5e2e147d047efa000c6b833d,135,2,2024-02-27T14:12:51.102Z,english_773.wav,0,pill,192,36,5,2,English,m,2,0.2,-54.69649905,1.09283168
5e2e147d047efa000c6b833d,135,2,2024-02-27T14:12:51.102Z,english_773.wav,0,pill,192,36,5,2,English,m,3,0.3,-97.24656559,1.42526307
5e2e147d047efa000c6b833d,135,2,2024-02-27T14:12:51.102Z,english_773.wav,0,pill,192,36,5,2,English,m,4,0.32341667,40.28006613,0.69844725
5e2e147d047efa000c6b833d,136,2,2024-02-27T14:12:51.102Z,english_257.wav,0,pill,83,36,5,2,English,m,0,0.0,-68.31428674,1.40239735
5e2e147d047efa000c6b833d,136,2,2024-02-27T14:12:51.102Z,english_257.wav,0,pill,83,36,5,2,English,m,1,0.1,-13.90908686,1.49673114
5e2e147d047efa000c6b833d,136,2,2024-02-27T14:12:51.102Z,english_257.wav,0,pill,83,36,5,2,English,m,2,0.2,54.08743226,1.07658057
5e2e147d047efa000c6b833d,136,2,2024-02-27T14:12:51.102Z,english_257.wav,0,pill,83,36,5,2,English,m,3,0.3,-42.73693867,0.27427112
5e2e147d047efa000c6b833d,136,2,2024-02-27T14:12:51.102Z,english_257.wav,0,pill,83,36,5,2,English,m,4,0.32341667,-1.03846516,1.90516482
5e2e147d047efa000c6b833d,137,2,2024-02-27T14:12:51.102Z,english_400.wav,0,pill,127,36,5,2,English,m,0,0.0,-9.17924521,1.06898792
5e2e147d047efa000c6b833d,137,2,2024-02-27T14:12:51.102Z,english_400.wav,0,pill,127,36,5,2,English,m,1,0.1,-51.0410118,0.05890524
5e2e147d047efa000c6b833d,137,2,2024-02-27T14:12:51.102Z,english_400.wav,0,pill,127,36,5,2,English,m,2,0.2,66.2548805,1.54728483
5e2e147d047efa000c6b833d,137,2,2024-02-27T14:12:51.102Z,english_400.wav,0,pill,127,36,5,2,English,m,3,0.3,92.33374018,1.43953162
5e2e147d047efa000c6b833d,137,2,2024-02-27T14:12:51.102Z,english_400.wav,0,pill,127,36,5,2,English,m,4,0.32341667,-60.80730989,1.12546459
5e2e147d047efa000c6b833d,138,2,2024-02-27T14:12:51.102Z,english_944.wav,0,pill,696,36,5,2,English,m,0,0.0,70.24274457,0.61048125
5e2e147d047efa000c6b833d,138,2,2024-02-27T14:12:51.102Z,english_944.wav,0,pill,696,36,5,2,English,m,1,0.1,-48.79231442,1.63310511
5e2e147d047efa000c6b833d,138,2,2024-02-27T14:12:51.102Z,english_944.wav,0,pill,696,36,5,2,English,m,2,0.2,-6.42324239,0.21687347
5e2e147d047efa000c6b833d,138,2,2024-02-27T14:12:51.102Z,english_944.wav,0,pill,696,36,5,2,English,m,3,0.3,-7.7338836,0.45027042
5e2e147d047efa000c6b833d,138,2,2024-02-27T14:12:51.102Z,english_944.wav,0,pill,696,36,5,2,English,m,4,0.32341667,69.46240638,0.90306897
5e2e147d047efa000c6b833d,139,2,2024-02-27T14:12:51.102Z,english_417.wav,0,peel,184,36,5,2,English,m,0,0.0,-17.25972862,1.29903721
5e2e147d047efa000c6b833d,139,2,2024-02-27T14:12:51.102Z,english_417.wav,0,peel,184,36,5,2,English,m,1,0.1,72.11413149,0.87773419
5e2e147d047efa000c6b833d,139,2,2024-02-27T14:12:51.102Z,english_417.wav,0,peel,184,36,5,2,English,m,2,0.2,83.70212603,1.45838331
5e2e147d047efa000c6b833d,139,2,2024-02-27T14:12:51.102Z,english_417.wav,0,peel,184,36,5,2,English,m,3,0.3,67.19530478,0.90979472
5e2e147d047efa000c6b833d,139,2,2024-02-27T14:12:51.102Z,english_417.wav,0,peel,184,36,5,2,English,m,4,0.32341667,29.72084594,0.1224986
5e2e147d047efa000c6b833d,140,2,2024-02-27T14:12:51.102Z,english_698.wav,0,peel,93,36,5,2,English,m,0,0.0,-86.30999669,1.66322514
5e2e147d047efa000c6b833d,140,2,2024-02-27T14:12:51.102Z,english_698.wav,0,peel,93,36,5,2,English,m,1,0.1,-91.60158578,1.16924533
5e2e147d047efa000c6b833d,140,2,2024-02-27T14:12:51.102Z,english_698.wav,0,peel,93,36,5,2,English,m,2,0.2,-41.16326515,1.29610919
5e2e147d047efa000c6b833d,140,2,2024-02-27T14:12:51.102Z,english_698.wav,0,peel,93,36,5,2,English,m,3,0.3,7.86252123,1.21006153
5e2e147d047efa000c6b833d,140,2,2024-02-27T14:12:51.102Z,english_698.wav,0,peel,93,36,5,2,English,m,4,0.32341667,25.04181708,1.83628755
5e2e147d047efa000c6b833d,141,2,2024-02-27T14:12:51.102Z,english_764.wav,0,peel,181,36,5,2,English,m,0,0.0,7.00590276,1.84020442
5e2e147d047efa000c6b833d,141,2,2024-02-27T14:12:51.102Z,english_764.wav,0,peel,181,36,5,2,English,m,1,0.1,-69.33047837,0.1607256
5e2e147d047efa000c6b833d,141,2,2024-02-27T14:12:51.102Z,english_764.wav,0,peel,181,36,5,2,English,m,2,0.2,-20.89747671,1.70981587
5e2e147d047efa000c6b833d,141,2,2024-02-27T14:12:51.102Z,english_764.wav,0,peel,181,36,5,2,English,m,3,0.3,-96.63564891,1.13854431
5e2e147d047efa000c6b833d,141,2,2024-02-27T14:12:51.102Z,english_764.wav,0,peel,181,36,5,2,English,m,4,0.32341667,78.55111455,1.5536836
5e2e147d047efa000c6b833d,142,2,2024-02-27T14:12:51.102Z,english_775.wav,0,peel,228,36,5,2,English,m,0,0.0,58.00753923,1.75560269
5e2e147d047efa000c6b833d,142,2,2024-02-27T14:12:51.102Z,english_775.wav,0,peel,228,36,5,2,English,m,1,0.1,88.61433734,0.86519841
5e2e147d047efa000c6b833d,142,2,2024-02-27T14:12:51.102Z,english_775.wav,0,peel,228,36,5,2,English,m,2,0.2,97.9031651,0.93867241
5e2e147d047efa000c6b833d,142,2,2024-02-27T14:12:51.102Z,english_775.wav,0,peel,228,36,5,2,English,m,3,0.3,14.61974867,1.86901891
5e2e147d047efa000c6b833d,142,2,2024-02-27T14:12:51.102Z,english_775.wav,0,peel,228,36,5,2,English,m,4,0.32341667,-5.44703254,0.0946911
5e2e147d047efa000c6b833d,143,2,2024-02-27T14:12:51.102Z,english_361.wav,0,pill,1061,36,5,2,English,m,0,0.0,47.37783877,1.2281625
5e2e147d047efa000c6b833d,143,2,2024-02-27T14:12:51.102Z,english_361.wav,0,pill,1061,36,5,2,English,m,1,0.1,41.96620543,0.32170701
5e2e147d047efa000c6b833d,143,2,2024-02-27T14:12:51.102Z,english_361.wav,0,pill,1061,36,5,2,English,m,2,0.2,-99.83447432,0.41267147
5e2e147d047efa000c6b833d,143,2,2024-02-27T14:12:51.102Z,english_361.wav,0,pill,1061,36,5,2,English,m,3,0.3,-83.75612903,0.32528287
5e2e147d047efa000c6b833d,143,2,2024-02-27T14:12:51.102Z,english_361.wav,0,pill,1061,36,5,2,English,m,4,0.32341667,99.31228573,0.29737668
5e2e147d047efa000c6b833d,144,2,2024-02-27T14:12:51.102Z,english_412.wav,0,pill,463,36,5,2,English,m,0,0.0,-82.38375592,0.41347899
5e2e147d047efa000c6b833d,144,2,2024-02-27T14:12:51.102Z,english_412.wav,0,pill,463,36,5,2,English,m,1,0.1,-35.89348303,0.05505218
5e2e147d047efa000c6b833d,144,2,2024-02-27T14:12:51.102Z,english_412.wav,0,pill,463,36,5,2,English,m,2,0.2,-78.50422887,1.28972039
5e2e147d047efa000c6b833d,144,2,2024-02-27T14:12:51.102Z,english_412.wav,0,pill,463,36,5,2,English,m,3,0.3,8.19618882,0.97331843
5e2e147d047efa000c6b833d,144,2,2024-02-27T14:12:51.102Z,english_412.wav,0,pill,463,36,5,2,English,m,4,0.32341667,88.30694734,0.22558246
5e2e147d047efa000c6b833d,145,2,2024-02-27T14:12:51.102Z,english_708.wav,0,pill,993,36,5,2,English,m,0,0.0,-27.19248895,0.74061838
5e2e147d047efa000c6b833d,145,2,2024-02-27T14:12:51.102Z,english_708.wav,0,pill,993,36,5,2,English,m,1,0.1,84.25795725,1.13599963
5e2e147d047efa000c6b833d,145,2,2024-02-27T14:12:51.102Z,english_708.wav,0,pill,993,36,5,2,English,m,2,0.2,-19.19551503,1.10086254
5e2e147d047efa000c6b833d,145,2,2024-02-27T14:12:51.102Z,english_708.wav,0,pill,993,36,5,2,English,m,3,0.3,29.88012033,0.53054382
5e2e147d047efa000c6b833d,145,2,2024-02-27T14:12:51.102Z,english_708.wav,0,pill,993,36,5,2,English,m,4,0.32341667,46.0858662,1.51974387
5e2e147d047efa000c6b833d,146,2,2024-02-27T14:12:51.102Z,english_320.wav,0,pill,360,36,5,2,English,m,0,0.0,-85.59568725,1.40519879
5e2e147d047efa000c6b833d,146,2,2024-02-27T14:12:51.102Z,english_320.wav,0,pill,360,36,5,2,English,m,1,0.1,-85.79055124,0.4213256
5e2e147d047efa000c6b833d,146,2,2024-02-27T14:12:51.102Z,english_320.wav,0,pill,360,36,5,2,English,m,2,0.2,-34.52195848,0.82537755
5e2e147d047efa000c6b833d,146,2,2024-02-27T14:12:51.102Z,english_320.wav,0,pill,360,36,5,2,English,m,3,0.3,14.03031204,0.50617831
5e2e147d047efa000c6b833d,146,2,2024-02-27T14:12:51.102Z,english_320.wav,0,pill,360,36,5,2,English,m,4,0.32341667,45.83597199,1.22725326
5e2e147d047efa000c6b833d,147,2,2024-02-27T14:12:51.102Z,english_321.wav,0,peel,326,36,5,2,English,m,0,0.0,2.07721816,1.69623759
5e2e147d047efa000c6b833d,147,2,2024-02-27T14:12:51.102Z,english_321.wav,0,peel,326,36,5,2,English,m,1,0.1,59.48735819,1.35736687
5e2e147d047efa000c6b833d,147,2,2024-02-27T14:12:51.102Z,english_321.wav,0,peel,326,36,5,2,English,m,2,0.2,64.78149714,1.92920457
5e2e147d047efa000c6b833d,147,2,2024-02-27T14:12:51.102Z,english_321.wav,0,peel,326,36,5,2,English,m,3,0.3,65.58393414,0.66559077
5e2e147d047efa000c6b833d,147,2,2024-02-27T14:12:51.102Z,english_321.wav,0,peel,326,36,5,2,English,m,4,0.32341667,14.66673939,1.66523208
5e2e147d047efa000c6b833d,148,2,2024-02-27T14:12:51.102Z,english_615.wav,0,peel,198,36,5,2,English,m,0,0.0,76.05955912,1.68553334
5e2e147d047efa000c6b833d,148,2,2024-02-27T14:12:51.102Z,english_615.wav,0,peel,198,36,5,2,English,m,1,0.1,54.62950786,1.5058876
5e2e147d047efa000c6b833d,148,2,2024-02-27T14:12:51.102Z,english_615.wav,0,peel,198,36,5,2,English,m,2,0.2,-31.02204933,1.66676809
5e2e147d047efa000c6b833d,148,2,2024-02-27T14:12:51.102Z,english_615.wav,0,peel,198,36,5,2,English,m,3,0.3,-3.27946314,1.09840801
5e2e147d047efa000c6b833d,148,2,2024-02-27T14:12:51.102Z,english_615.wav,0,peel,198,36,5,2,English,m,4,0.32341667,51.350795,0.25314986
5e2e147d047efa000c6b833d,149,2,2024-02-27T14:12:51.102Z,english_905.wav,0,peel,709,36,5,2,English,m,0,0.0,73.76258642,1.30259847
5e2e147d047efa000c6b833d,149,2,2024-02-27T14:12:51.102Z,english_905.wav,0,peel,709,36,5,2,English,m,1,0.1,49.84186991,0.15786419
5e2e147d047efa000c6b833d,149,2,2024-02-27T14:12:51.102Z,english_905.wav,0,peel,709,36,5,2,English,m,2,0.2,-84.55275191,0.47562292
5e2e147d047efa000c6b833d,149,2,2024-02-27T14:12:51.102Z,english_905.wav,0,peel,709,36,5,2,English,m,3,0.3,70.45460649,1.69272047
5e2e147d047efa000c6b833d,149,2,2024-02-27T14:12:51.102Z,english_905.wav,0,peel,709,36,5,2,English,m,4,0.32341667,-84.87734561,1.28570309
5e2e147d047efa000c6b833d,150,3,2024-02-27T14:12:51.102Z,english_953.wav,0,peel,440,36,5,2,English,m,0,0.0,-16.02430182,0.31806788
5e2e147d047efa000c6b833d,150,3,2024-02-27T14:12:51.102Z,english_953.wav,0,peel,440,36,5,2,English,m,1,0.1,29.58660593,0.5983964
5e2e147d047efa000c6b833d,150,3,2024-02-27T14:12:51.102Z,english_953.wav,0,peel,440,36,5,2,English,m,2,0.2,-69.77021268,1.47459901
5e2e147d047efa000c6b833d,150,3,2024-02-27T14:12:51.102Z,english_953.wav,0,peel,440,36,5,2,English,m,3,0.3,10.24378989,1.63555671
5e2e147d047efa000c6b833d,150,3,2024-02-27T14:12:51.102Z,english_953.wav,0,peel,440,36,5,2,English,m,4,0.32341667,-68.66835117,1.74756834
5e2e147d047efa000c6b833d,151,3,2024-02-27T14:12:51.102Z,english_721.wav,0,peel,214,36,5,2,English,m,0,0.0,-1.67193172,0.23966059
5e2e147d047efa000c6b833d,151,3,2024-02-27T14:12:51.102Z,english_721.wav,0,peel,214,36,5,2,English,m,1,0.1,23.81304459,1.61361986
5e2e147d047efa000c6b833d,151,3,2024-02-27T14:12:51.102Z,english_721.wav,0,peel,214,36,5,2,English,m,2,0.2,94.27532923,0.58045828
5e2e147d047efa000c6b833d,151,3,2024-02-27T14:12:51.102Z,english_721.wav,0,peel,214,36,5,2,English,m,3,0.3,10.08520391,1.63757532
5e2e147d047efa000c6b833d,151,3,2024-02-27T14:12:51.102Z,english_721.wav,0,peel,214,36,5,2,English,m,4,0.32341667,-26.68837018,1.4581473
5e2e147d047efa000c6b833d,152,3,2024-02-27T14:12:51.102Z,english_611.wav,0,peel,285,36,5,2,English,m,0,0.0,4.04989913,1.48647041
5e2e147d047efa000c6b833d,152,3,2024-02-27T14:12:51.102Z,english_611.wav,0,peel,285,36,5,2,English,m,1,0.1,-26.35519993,0.87297853
5e2e147d047efa000c6b833d,152,3,2024-02-27T14:12:51.102Z,english_611.wav,0,peel,285,36,5,2,English,m,2,0.2,-41.22744209,0.91907267
5e2e147d047efa000c6b833d,152,3,2024-02-27T14:12:51.102Z,english_611.wav,0,peel,285,36,5,2,English,m,3,0.3,-72.41198747,0.12624761
5e2e147d047efa000c6b833d,152,3,2024-02-27T14:12:51.102Z,english_611.wav,0,peel,285,36,5,2,English,m,4,0.32341667,-60.09703168,0.964981
5e2e147d047efa000c6b833d,153,3,2024-02-27T14:12:51.102Z,english_781.wav,0,peel,206,36,5,2,English,m,0,0.0,22.64916165,0.31928057
5e2e147d047efa000c6b833d,153,3,2024-02-27T14:12:51.102Z,english_781.wav,0,peel,206,36,5,2,English,m,1,0.1,6.89582518,1.4040275
5e2e147d047efa000c6b833d,153,3,2024-02-27T14:12:51.102Z,english_781.wav,0,peel,206,36,5,2,English,m,2,0.2,-79.07711894,0.86558079
5e2e147d047efa000c6b833d,153,3,2024-02-27T14:12:51.102Z,english_781.wav,0,peel,206,36,5,2,English,m,3,0.3,66.534152,0.14510309
