subj,trial,block,date,stim,stim_order,response,rt,age,english,french,language,sex,param_index,segment,pitch,stretch
6529903a2b342f805e02188c,0,0,2024-02-27T14:19:31.205Z,english_303.wav,0,pill,2050,48,5,4,English,m,0,0.0,67.00540241,1.22520816
6529903a2b342f805e02188c,0,0,2024-02-27T14:19:31.205Z,english_303.wav,0,pill,2050,48,5,4,English,m,1,0.1,32.95821842,1.22732479
6529903a2b342f805e02188c,0,0,2024-02-27T14:19:31.205Z,english_303.wav,0,pill,2050,48,5,4,English,m,2,0.2,-23.67517146,0.54923068
6529903a2b342f805e02188c,0,0,2024-02-27T14:19:31.205Z,english_303.wav,0,pill,2050,48,5,4,English,m,3,0.3,-66.94926695,0.8977578
6529903a2b342f805e02188c,0,0,2024-02-27T14:19:31.205Z,english_303.wav,0,pill,2050,48,5,4,English,m,4,0.32341667,65.71723135,1.41807679
6529903a2b342f805e02188c,1,0,2024-02-27T14:19:46.663Z,english_274.wav,0,peel,1185,48,5,4,English,m,0,0.0,-30.61452779,0.78021116
6529903a2b342f805e02188c,1,0,2024-02-27T14:19:46.663Z,english_274.wav,0,peel,1185,48,5,4,English,m,1,0.1,-42.14612233,1.93993358
6529903a2b342f805e02188c,1,0,2024-02-27T14:19:46.663Z,english_274.wav,0,peel,1185,48,5,4,English,m,2,0.2,32.00602795,0.32963606
6529903a2b342f805e02188c,1,0,2024-02-27T14:19:46.663Z,english_274.wav,0,peel,1185,48,5,4,English,m,3,0.3,-37.74375581,1.46133782
6529903a2b342f805e02188c,1,0,2024-02-27T14:19:46.663Z,english_274.wav,0,peel,1185,48,5,4,English,m,4,0.32341667,-54.5397802,1.53178785
6529903a2b342f805e02188c,2,0,2024-02-27T14:19:46.663Z,english_309.wav,0,peel,965,48,5,4,English,m,0,0.0,59.8258624,0.58100331
6529903a2b342f805e02188c,2,0,2024-02-27T14:19:46.663Z,english_309.wav,0,peel,965,48,5,4,English,m,1,0.1,73.70427758,0.81024997
6529903a2b342f805e02188c,2,0,2024-02-27T14:19:46.663Z,english_309.wav,0,peel,965,48,5,4,English,m,2,0.2,-8.71125849,0.10827203
6529903a2b342f805e02188c,2,0,2024-02-27T14:19:46.663Z,english_309.wav,0,peel,965,48,5,4,English,m,3,0.3,-86.6882155,0.09670208
6529903a2b342f805e02188c,2,0,2024-02-27T14:19:46.663Z,english_309.wav,0,peel,965,48,5,4,English,m,4,0.32341667,-90.77340978,1.53063904
6529903a2b342f805e02188c,3,0,2024-02-27T14:19:46.663Z,english_126.wav,0,pill,3920,48,5,4,English,m,0,0.0,-71.89060105,0.84485729
6529903a2b342f805e02188c,3,0,2024-02-27T14:19:46.663Z,english_126.wav,0,pill,3920,48,5,4,English,m,1,0.1,-54.28004149,1.61340521
6529903a2b342f805e02188c,3,0,2024-02-27T14:19:46.663Z,english_126.wav,0,pill,3920,48,5,4,English,m,2,0.2,67.0997098,1.10892805
6529903a2b342f805e02188c,3,0,2024-02-27T14:19:46.663Z,english_126.wav,0,pill,3920,48,5,4,English,m,3,0.3,-96.31741745,1.20133652
6529903a2b342f805e02188c,3,0,2024-02-27T14:19:46.663Z,english_126.wav,0,pill,3920,48,5,4,English,m,4,0.32341667,22.67293764,0.33470898
6529903a2b342f805e02188c,4,0,2024-02-27T14:19:46.663Z,english_785.wav,0,peel,1269,48,5,4,English,m,0,0.0,41.51350967,0.93543931
6529903a2b342f805e02188c,4,0,2024-02-27T14:19:46.663Z,english_785.wav,0,peel,1269,48,5,4,English,m,1,0.1,26.23517368,1.17819894
6529903a2b342f805e02188c,4,0,2024-02-27T14:19:46.663Z,english_785.wav,0,peel,1269,48,5,4,English,m,2,0.2,-12.63822228,1.98833146
6529903a2b342f805e02188c,4,0,2024-02-27T14:19:46.663Z,english_785.wav,0,peel,1269,48,5,4,English,m,3,0.3,-30.66588474,0.80021218
6529903a2b342f805e02188c,4,0,2024-02-27T14:19:46.663Z,english_785.wav,0,peel,1269,48,5,4,English,m,4,0.32341667,26.08399401,1.2737519
6529903a2b342f805e02188c,5,0,2024-02-27T14:19:46.663Z,english_470.wav,0,peel,1728,48,5,4,English,m,0,0.0,-20.39789813,1.83124966
6529903a2b342f805e02188c,5,0,2024-02-27T14:19:46.663Z,english_470.wav,0,peel,1728,48,5,4,English,m,1,0.1,20.62750989,0.41787925
6529903a2b342f805e02188c,5,0,2024-02-27T14:19:46.663Z,english_470.wav,0,peel,1728,48,5,4,English,m,2,0.2,-59.78251605,1.85790598
6529903a2b342f805e02188c,5,0,2024-02-27T14:19:46.663Z,english_470.wav,0,peel,1728,48,5,4,English,m,3,0.3,-88.74051682,0.99710793
6529903a2b342f805e02188c,5,0,2024-02-27T14:19:46.663Z,english_470.wav,0,peel,1728,48,5,4,English,m,4,0.32341667,8.31634628,0.56985764
6529903a2b342f805e02188c,6,0,2024-02-27T14:19:46.663Z,english_196.wav,0,peel,2650,48,5,4,English,m,0,0.0,-86.38202104,1.63362226
6529903a2b342f805e02188c,6,0,2024-02-27T14:19:46.663Z,english_196.wav,0,peel,2650,48,5,4,English,m,1,0.1,0.95731439,1.36148231
6529903a2b342f805e02188c,6,0,2024-02-27T14:19:46.663Z,english_196.wav,0,peel,2650,48,5,4,English,m,2,0.2,-48.4797064,0.68683683
6529903a2b342f805e02188c,6,0,2024-02-27T14:19:46.663Z,english_196.wav,0,peel,2650,48,5,4,English,m,3,0.3,50.57477866,1.59869277
6529903a2b342f805e02188c,6,0,2024-02-27T14:19:46.663Z,english_196.wav,0,peel,2650,48,5,4,English,m,4,0.32341667,-52.07184875,0.40963154
6529903a2b342f805e02188c,7,0,2024-02-27T14:19:46.663Z,english_547.wav,0,pill,2350,48,5,4,English,m,0,0.0,30.48969685,1.04682874
6529903a2b342f805e02188c,7,0,2024-02-27T14:19:46.663Z,english_547.wav,0,pill,2350,48,5,4,English,m,1,0.1,-38.27442703,0.75017858
6529903a2b342f805e02188c,7,0,2024-02-27T14:19:46.663Z,english_547.wav,0,pill,2350,48,5,4,English,m,2,0.2,29.58442849,0.7996645
6529903a2b342f805e02188c,7,0,2024-02-27T14:19:46.663Z,english_547.wav,0,pill,2350,48,5,4,English,m,3,0.3,-4.27268154,1.92102789
6529903a2b342f805e02188c,7,0,2024-02-27T14:19:46.663Z,english_547.wav,0,pill,2350,48,5,4,English,m,4,0.32341667,58.02076364,1.77056707
6529903a2b342f805e02188c,8,0,2024-02-27T14:19:46.663Z,english_19.wav,0,peel,734,48,5,4,English,m,0,0.0,51.84788699,0.3981759
6529903a2b342f805e02188c,8,0,2024-02-27T14:19:46.663Z,english_19.wav,0,peel,734,48,5,4,English,m,1,0.1,59.68091475,1.61217409
6529903a2b342f805e02188c,8,0,2024-02-27T14:19:46.663Z,english_19.wav,0,peel,734,48,5,4,English,m,2,0.2,-27.71167756,0.35158216
6529903a2b342f805e02188c,8,0,2024-02-27T14:19:46.663Z,english_19.wav,0,peel,734,48,5,4,English,m,3,0.3,-29.56443604,0.8770992
6529903a2b342f805e02188c,8,0,2024-02-27T14:19:46.663Z,english_19.wav,0,peel,734,48,5,4,English,m,4,0.32341667,-58.55228515,0.51670124
6529903a2b342f805e02188c,9,0,2024-02-27T14:19:46.663Z,english_624.wav,0,peel,1277,48,5,4,English,m,0,0.0,-66.94889137,0.79130031
6529903a2b342f805e02188c,9,0,2024-02-27T14:19:46.663Z,english_624.wav,0,peel,1277,48,5,4,English,m,1,0.1,-6.87427926,1.85178888
6529903a2b342f805e02188c,9,0,2024-02-27T14:19:46.663Z,english_624.wav,0,peel,1277,48,5,4,English,m,2,0.2,69.52298075,0.79988954
6529903a2b342f805e02188c,9,0,2024-02-27T14:19:46.663Z,english_624.wav,0,peel,1277,48,5,4,English,m,3,0.3,-45.26015132,0.87521033
6529903a2b342f805e02188c,9,0,2024-02-27T14:19:46.663Z,english_624.wav,0,peel,1277,48,5,4,English,m,4,0.32341667,-50.37935108,1.50754026
6529903a2b342f805e02188c,10,0,2024-02-27T14:19:46.663Z,english_161.wav,0,peel,1129,48,5,4,English,m,0,0.0,16.17182642,0.80971259
6529903a2b342f805e02188c,10,0,2024-02-27T14:19:46.663Z,english_161.wav,0,peel,1129,48,5,4,English,m,1,0.1,51.23408036,1.56168911
6529903a2b342f805e02188c,10,0,2024-02-27T14:19:46.663Z,english_161.wav,0,peel,1129,48,5,4,English,m,2,0.2,56.55598601,0.91666403
6529903a2b342f805e02188c,10,0,2024-02-27T14:19:46.663Z,english_161.wav,0,peel,1129,48,5,4,English,m,3,0.3,-25.08054758,1.93998208
6529903a2b342f805e02188c,10,0,2024-02-27T14:19:46.663Z,english_161.wav,0,peel,1129,48,5,4,English,m,4,0.32341667,-70.36900789,0.76147365
6529903a2b342f805e02188c,11,0,2024-02-27T14:19:46.663Z,english_218.wav,0,peel,1357,48,5,4,English,m,0,0.0,87.3373499,1.94084006
6529903a2b342f805e02188c,11,0,2024-02-27T14:19:46.663Z,english_218.wav,0,peel,1357,48,5,4,English,m,1,0.1,-14.87903436,0.13305972
6529903a2b342f805e02188c,11,0,2024-02-27T14:19:46.663Z,english_218.wav,0,peel,1357,48,5,4,English,m,2,0.2,-31.97943339,1.11441312
6529903a2b342f805e02188c,11,0,2024-02-27T14:19:46.663Z,english_218.wav,0,peel,1357,48,5,4,English,m,3,0.3,-60.49311609,1.83933377
6529903a2b342f805e02188c,11,0,2024-02-27T14:19:46.663Z,english_218.wav,0,peel,1357,48,5,4,English,m,4,0.32341667,-63.68242647,1.41053301
6529903a2b342f805e02188c,12,0,2024-02-27T14:19:46.663Z,english_240.wav,0,peel,1940,48,5,4,English,m,0,0.0,-96.55121617,1.04823872
6529903a2b342f805e02188c,12,0,2024-02-27T14:19:46.663Z,english_240.wav,0,peel,1940,48,5,4,English,m,1,0.1,73.99435309,1.11556714
6529903a2b342f805e02188c,12,0,2024-02-27T14:19:46.663Z,english_240.wav,0,peel,1940,48,5,4,English,m,2,0.2,-27.17256968,0.68795106
6529903a2b342f805e02188c,12,0,2024-02-27T14:19:46.663Z,english_240.wav,0,peel,1940,48,5,4,English,m,3,0.3,-2.05185553,1.30325309
6529903a2b342f805e02188c,12,0,2024-02-27T14:19:46.663Z,english_240.wav,0,peel,1940,48,5,4,English,m,4,0.32341667,80.37406519,0.86977317
6529903a2b342f805e02188c,13,0,2024-02-27T14:19:46.663Z,english_400.wav,0,pill,1697,48,5,4,English,m,0,0.0,-9.17924521,1.06898792
6529903a2b342f805e02188c,13,0,2024-02-27T14:19:46.663Z,english_400.wav,0,pill,1697,48,5,4,English,m,1,0.1,-51.0410118,0.05890524
6529903a2b342f805e02188c,13,0,2024-02-27T14:19:46.663Z,english_400.wav,0,pill,1697,48,5,4,English,m,2,0.2,66.2548805,1.54728483
6529903a2b342f805e02188c,13,0,2024-02-27T14:19:46.663Z,english_400.wav,0,pill,1697,48,5,4,English,m,3,0.3,92.33374018,1.43953162
6529903a2b342f805e02188c,13,0,2024-02-27T14:19:46.663Z,english_400.wav,0,pill,1697,48,5,4,English,m,4,0.32341667,-60.80730989,1.12546459
6529903a2b342f805e02188c,14,0,2024-02-27T14:19:46.663Z,english_885.wav,0,peel,2519,48,5,4,English,m,0,0.0,36.3288655,0.78617108
6529903a2b342f805e02188c,14,0,2024-02-27T14:19:46.663Z,english_885.wav,0,peel,2519,48,5,4,English,m,1,0.1,-33.4786966,0.96292114
6529903a2b342f805e02188c,14,0,2024-02-27T14:19:46.663Z,english_885.wav,0,peel,2519,48,5,4,English,m,2,0.2,8.05827153,0.70266535
6529903a2b342f805e02188c,14,0,2024-02-27T14:19:46.663Z,english_885.wav,0,peel,2519,48,5,4,English,m,3,0.3,84.98004341,0.45613544
6529903a2b342f805e02188c,14,0,2024-02-27T14:19:46.663Z,english_885.wav,0,peel,2519,48,5,4,English,m,4,0.32341667,-34.65749493,0.81873504
6529903a2b342f805e02188c,15,0,2024-02-27T14:19:46.663Z,english_505.wav,0,peel,2284,48,5,4,English,m,0,0.0,-14.1569725,0.45361713
6529903a2b342f805e02188c,15,0,2024-02-27T14:19:46.663Z,english_505.wav,0,peel,2284,48,5,4,English,m,1,0.1,55.52926248,0.94516805
6529903a2b342f805e02188c,15,0,2024-02-27T14:19:46.663Z,english_505.wav,0,peel,2284,48,5,4,English,m,2,0.2,53.00334781,0.85342654
6529903a2b342f805e02188c,15,0,2024-02-27T14:19:46.663Z,english_505.wav,0,peel,2284,48,5,4,English,m,3,0.3,75.03788466,1.32942474
6529903a2b342f805e02188c,15,0,2024-02-27T14:19:46.663Z,english_505.wav,0,peel,2284,48,5,4,English,m,4,0.32341667,-7.91266729,0.93790665
6529903a2b342f805e02188c,16,0,2024-02-27T14:19:46.663Z,english_471.wav,0,peel,2759,48,5,4,English,m,0,0.0,47.42131089,0.58869392
6529903a2b342f805e02188c,16,0,2024-02-27T14:19:46.663Z,english_471.wav,0,peel,2759,48,5,4,English,m,1,0.1,-63.95282256,1.74739294
6529903a2b342f805e02188c,16,0,2024-02-27T14:19:46.663Z,english_471.wav,0,peel,2759,48,5,4,English,m,2,0.2,31.67244378,1.10105994
6529903a2b342f805e02188c,16,0,2024-02-27T14:19:46.663Z,english_471.wav,0,peel,2759,48,5,4,English,m,3,0.3,40.6572625,0.54790015
6529903a2b342f805e02188c,16,0,2024-02-27T14:19:46.663Z,english_471.wav,0,peel,2759,48,5,4,English,m,4,0.32341667,-18.6332399,1.33029013
6529903a2b342f805e02188c,17,0,2024-02-27T14:19:46.663Z,english_515.wav,0,pill,2257,48,5,4,English,m,0,0.0,-51.44071002,1.17100165
6529903a2b342f805e02188c,17,0,2024-02-27T14:19:46.663Z,english_515.wav,0,pill,2257,48,5,4,English,m,1,0.1,-54.80209221,0.37535268
6529903a2b342f805e02188c,17,0,2024-02-27T14:19:46.663Z,english_515.wav,0,pill,2257,48,5,4,English,m,2,0.2,64.47174239,1.31079719
6529903a2b342f805e02188c,17,0,2024-02-27T14:19:46.663Z,english_515.wav,0,pill,2257,48,5,4,English,m,3,0.3,-10.56071982,1.40472496
6529903a2b342f805e02188c,17,0,2024-02-27T14:19:46.663Z,english_515.wav,0,pill,2257,48,5,4,English,m,4,0.32341667,-39.86348554,0.6392892
6529903a2b342f805e02188c,18,0,2024-02-27T14:19:46.663Z,english_247.wav,0,pill,1124,48,5,4,English,m,0,0.0,48.65693284,0.25539499
6529903a2b342f805e02188c,18,0,2024-02-27T14:19:46.663Z,english_247.wav,0,pill,1124,48,5,4,English,m,1,0.1,-27.64572099,1.09429421
6529903a2b342f805e02188c,18,0,2024-02-27T14:19:46.663Z,english_247.wav,0,pill,1124,48,5,4,English,m,2,0.2,-20.19701808,0.88115619
6529903a2b342f805e02188c,18,0,2024-02-27T14:19:46.663Z,english_247.wav,0,pill,1124,48,5,4,English,m,3,0.3,-10.74442668,1.97859338
6529903a2b342f805e02188c,18,0,2024-02-27T14:19:46.663Z,english_247.wav,0,pill,1124,48,5,4,English,m,4,0.32341667,91.42432082,0.10638235
6529903a2b342f805e02188c,19,0,2024-02-27T14:19:46.663Z,english_191.wav,0,pill,3062,48,5,4,English,m,0,0.0,5.22709543,0.24693927
6529903a2b342f805e02188c,19,0,2024-02-27T14:19:46.663Z,english_191.wav,0,pill,3062,48,5,4,English,m,1,0.1,-51.29785688,1.61528443
6529903a2b342f805e02188c,19,0,2024-02-27T14:19:46.663Z,english_191.wav,0,pill,3062,48,5,4,English,m,2,0.2,14.39503603,0.10158113
6529903a2b342f805e02188c,19,0,2024-02-27T14:19:46.663Z,english_191.wav,0,pill,3062,48,5,4,English,m,3,0.3,60.50312404,1.02883866
6529903a2b342f805e02188c,19,0,2024-02-27T14:19:46.663Z,english_191.wav,0,pill,3062,48,5,4,English,m,4,0.32341667,68.15927452,0.69870432
6529903a2b342f805e02188c,20,0,2024-02-27T14:19:46.663Z,english_591.wav,0,pill,2830,48,5,4,English,m,0,0.0,-17.23532002,0.16408748
6529903a2b342f805e02188c,20,0,2024-02-27T14:19:46.663Z,english_591.wav,0,pill,2830,48,5,4,English,m,1,0.1,-55.20494434,0.21361432
6529903a2b342f805e02188c,20,0,2024-02-27T14:19:46.663Z,english_591.wav,0,pill,2830,48,5,4,English,m,2,0.2,-36.65883109,0.19384467
6529903a2b342f805e02188c,20,0,2024-02-27T14:19:46.663Z,english_591.wav,0,pill,2830,48,5,4,English,m,3,0.3,75.34514139,0.82850175
6529903a2b342f805e02188c,20,0,2024-02-27T14:19:46.663Z,english_591.wav,0,pill,2830,48,5,4,English,m,4,0.32341667,31.2832342,1.471328
6529903a2b342f805e02188c,21,0,2024-02-27T14:19:46.663Z,english_817.wav,0,peel,1530,48,5,4,English,m,0,0.0,58.06319333,0.77394069
6529903a2b342f805e02188c,21,0,2024-02-27T14:19:46.663Z,english_817.wav,0,peel,1530,48,5,4,English,m,1,0.1,0.91206114,0.81778066
6529903a2b342f805e02188c,21,0,2024-02-27T14:19:46.663Z,english_817.wav,0,peel,1530,48,5,4,English,m,2,0.2,-27.80824757,1.48752315
6529903a2b342f805e02188c,21,0,2024-02-27T14:19:46.663Z,english_817.wav,0,peel,1530,48,5,4,English,m,3,0.3,-73.7491051,0.41888886
6529903a2b342f805e02188c,21,0,2024-02-27T14:19:46.663Z,english_817.wav,0,peel,1530,48,5,4,English,m,4,0.32341667,69.75698508,0.93012443
6529903a2b342f805e02188c,22,0,2024-02-27T14:19:46.663Z,english_54.wav,0,peel,1617,48,5,4,English,m,0,0.0,1.86764875,1.47639799
6529903a2b342f805e02188c,22,0,2024-02-27T14:19:46.663Z,english_54.wav,0,peel,1617,48,5,4,English,m,1,0.1,-1.78672474,1.92944336
6529903a2b342f805e02188c,22,0,2024-02-27T14:19:46.663Z,english_54.wav,0,peel,1617,48,5,4,English,m,2,0.2,-26.58380414,0.76292987
6529903a2b342f805e02188c,22,0,2024-02-27T14:19:46.663Z,english_54.wav,0,peel,1617,48,5,4,English,m,3,0.3,-2.56688864,1.78735236
6529903a2b342f805e02188c,22,0,2024-02-27T14:19:46.663Z,english_54.wav,0,peel,1617,48,5,4,English,m,4,0.32341667,-76.29238916,0.80366269
6529903a2b342f805e02188c,23,0,2024-02-27T14:19:46.663Z,english_437.wav,0,peel,1871,48,5,4,English,m,0,0.0,61.91803223,0.36516876
6529903a2b342f805e02188c,23,0,2024-02-27T14:19:46.663Z,english_437.wav,0,peel,1871,48,5,4,English,m,1,0.1,0.99543568,0.43500315
6529903a2b342f805e02188c,23,0,2024-02-27T14:19:46.663Z,english_437.wav,0,peel,1871,48,5,4,English,m,2,0.2,-50.96874522,1.25398366
6529903a2b342f805e02188c,23,0,2024-02-27T14:19:46.663Z,english_437.wav,0,peel,1871,48,5,4,English,m,3,0.3,-47.73319396,0.60570222
6529903a2b342f805e02188c,23,0,2024-02-27T14:19:46.663Z,english_437.wav,0,peel,1871,48,5,4,English,m,4,0.32341667,15.35939938,0.97208355
6529903a2b342f805e02188c,24,0,2024-02-27T14:19:46.663Z,english_643.wav,0,peel,2292,48,5,4,English,m,0,0.0,-40.15003434,1.60262153
6529903a2b342f805e02188c,24,0,2024-02-27T14:19:46.663Z,english_643.wav,0,peel,2292,48,5,4,English,m,1,0.1,-24.12893917,1.7682358
6529903a2b342f805e02188c,24,0,2024-02-27T14:19:46.663Z,english_643.wav,0,peel,2292,48,5,4,English,m,2,0.2,-40.66556796,0.31725537
6529903a2b342f805e02188c,24,0,2024-02-27T14:19:46.663Z,english_643.wav,0,peel,2292,48,5,4,English,m,3,0.3,75.01987067,0.56722121
6529903a2b342f805e02188c,24,0,2024-02-27T14:19:46.663Z,english_643.wav,0,peel,2292,48,5,4,English,m,4,0.32341667,29.71481383,1.87277365
6529903a2b342f805e02188c,25,0,2024-02-27T14:19:46.663Z,english_741.wav,0,peel,2322,48,5,4,English,m,0,0.0,-74.62614727,1.92216761
6529903a2b342f805e02188c,25,0,2024-02-27T14:19:46.663Z,english_741.wav,0,peel,2322,48,5,4,English,m,1,0.1,33.834367,1.50741835
6529903a2b342f805e02188c,25,0,2024-02-27T14:19:46.663Z,english_741.wav,0,peel,2322,48,5,4,English,m,2,0.2,-60.21329901,0.74273648
6529903a2b342f805e02188c,25,0,2024-02-27T14:19:46.663Z,english_741.wav,0,peel,2322,48,5,4,English,m,3,0.3,-95.39639135,0.98175705
6529903a2b342f805e02188c,25,0,2024-02-27T14:19:46.663Z,english_741.wav,0,peel,2322,48,5,4,English,m,4,0.32341667,3.10560698,0.9878567
6529903a2b342f805e02188c,26,0,2024-02-27T14:19:46.663Z,english_248.wav,0,peel,2268,48,5,4,English,m,0,0.0,62.49888219,0.01612638
6529903a2b342f805e02188c,26,0,2024-02-27T14:19:46.663Z,english_248.wav,0,peel,2268,48,5,4,English,m,1,0.1,-37.43052778,0.65001727
6529903a2b342f805e02188c,26,0,2024-02-27T14:19:46.663Z,english_248.wav,0,peel,2268,48,5,4,English,m,2,0.2,50.26474258,1.10053755
6529903a2b342f805e02188c,26,0,2024-02-27T14:19:46.663Z,english_248.wav,0,peel,2268,48,5,4,English,m,3,0.3,-90.47385391,0.93833438
6529903a2b342f805e02188c,26,0,2024-02-27T14:19:46.663Z,english_248.wav,0,peel,2268,48,5,4,English,m,4,0.32341667,-16.4169983,1.90627888
6529903a2b342f805e02188c,27,0,2024-02-27T14:19:46.663Z,english_474.wav,0,peel,1018,48,5,4,English,m,0,0.0,42.88606971,0.87351765
6529903a2b342f805e02188c,27,0,2024-02-27T14:19:46.663Z,english_474.wav,0,peel,1018,48,5,4,English,m,1,0.1,6.82691085,1.08551449
6529903a2b342f805e02188c,27,0,2024-02-27T14:19:46.663Z,english_474.wav,0,peel,1018,48,5,4,English,m,2,0.2,-33.80031927,1.99847166
6529903a2b342f805e02188c,27,0,2024-02-27T14:19:46.663Z,english_474.wav,0,peel,1018,48,5,4,English,m,3,0.3,-97.18672796,0.27470298
6529903a2b342f805e02188c,27,0,2024-02-27T14:19:46.663Z,english_474.wav,0,peel,1018,48,5,4,English,m,4,0.32341667,-4.7462475,0.02962094
6529903a2b342f805e02188c,28,0,2024-02-27T14:19:46.663Z,english_868.wav,0,peel,1891,48,5,4,English,m,0,0.0,-32.61379415,0.76599538
6529903a2b342f805e02188c,28,0,2024-02-27T14:19:46.663Z,english_868.wav,0,peel,1891,48,5,4,English,m,1,0.1,-13.61007492,0.34348987
6529903a2b342f805e02188c,28,0,2024-02-27T14:19:46.663Z,english_868.wav,0,peel,1891,48,5,4,English,m,2,0.2,-35.23756027,0.26787397
6529903a2b342f805e02188c,28,0,2024-02-27T14:19:46.663Z,english_868.wav,0,peel,1891,48,5,4,English,m,3,0.3,83.12333319,0.46343078
6529903a2b342f805e02188c,28,0,2024-02-27T14:19:46.663Z,english_868.wav,0,peel,1891,48,5,4,English,m,4,0.32341667,62.80865362,1.59158725
6529903a2b342f805e02188c,29,0,2024-02-27T14:19:46.663Z,english_8.wav,0,peel,2169,48,5,4,English,m,0,0.0,-11.83025711,1.51300734
6529903a2b342f805e02188c,29,0,2024-02-27T14:19:46.663Z,english_8.wav,0,peel,2169,48,5,4,English,m,1,0.1,8.7470631,0.24000547
6529903a2b342f805e02188c,29,0,2024-02-27T14:19:46.663Z,english_8.wav,0,peel,2169,48,5,4,English,m,2,0.2,-15.41843982,1.17952525
6529903a2b342f805e02188c,29,0,2024-02-27T14:19:46.663Z,english_8.wav,0,peel,2169,48,5,4,English,m,3,0.3,-87.7437633,1.57032258
6529903a2b342f805e02188c,29,0,2024-02-27T14:19:46.663Z,english_8.wav,0,peel,2169,48,5,4,English,m,4,0.32341667,-40.85253846,0.7584977
6529903a2b342f805e02188c,30,0,2024-02-27T14:19:46.663Z,english_759.wav,0,pill,1663,48,5,4,English,m,0,0.0,22.56482953,0.32974928
6529903a2b342f805e02188c,30,0,2024-02-27T14:19:46.663Z,english_759.wav,0,pill,1663,48,5,4,English,m,1,0.1,-26.57515882,0.74944663
6529903a2b342f805e02188c,30,0,2024-02-27T14:19:46.663Z,english_759.wav,0,pill,1663,48,5,4,English,m,2,0.2,58.52096087,0.73148935
6529903a2b342f805e02188c,30,0,2024-02-27T14:19:46.663Z,english_759.wav,0,pill,1663,48,5,4,English,m,3,0.3,67.88336338,0.69769471
6529903a2b342f805e02188c,30,0,2024-02-27T14:19:46.663Z,english_759.wav,0,pill,1663,48,5,4,English,m,4,0.32341667,-98.7178367,1.46371733
6529903a2b342f805e02188c,31,0,2024-02-27T14:19:46.663Z,english_525.wav,0,peel,4064,48,5,4,English,m,0,0.0,-21.23223701,1.69398532
6529903a2b342f805e02188c,31,0,2024-02-27T14:19:46.663Z,english_525.wav,0,peel,4064,48,5,4,English,m,1,0.1,3.49974992,0.25491439
6529903a2b342f805e02188c,31,0,2024-02-27T14:19:46.663Z,english_525.wav,0,peel,4064,48,5,4,English,m,2,0.2,-75.71526263,0.17370365
6529903a2b342f805e02188c,31,0,2024-02-27T14:19:46.663Z,english_525.wav,0,peel,4064,48,5,4,English,m,3,0.3,-52.87512147,0.81797459
6529903a2b342f805e02188c,31,0,2024-02-27T14:19:46.663Z,english_525.wav,0,peel,4064,48,5,4,English,m,4,0.32341667,17.79573657,0.70176203
6529903a2b342f805e02188c,32,0,2024-02-27T14:19:46.663Z,english_697.wav,0,peel,2196,48,5,4,English,m,0,0.0,34.8877197,0.10761674
6529903a2b342f805e02188c,32,0,2024-02-27T14:19:46.663Z,english_697.wav,0,peel,2196,48,5,4,English,m,1,0.1,-0.0129750448,0.88035305
6529903a2b342f805e02188c,32,0,2024-02-27T14:19:46.663Z,english_697.wav,0,peel,2196,48,5,4,English,m,2,0.2,48.8877829,0.12183403
6529903a2b342f805e02188c,32,0,2024-02-27T14:19:46.663Z,english_697.wav,0,peel,2196,48,5,4,English,m,3,0.3,68.5745634,0.55306263
6529903a2b342f805e02188c,32,0,2024-02-27T14:19:46.663Z,english_697.wav,0,peel,2196,48,5,4,English,m,4,0.323416667,18.9536775,1.83833688
6529903a2b342f805e02188c,33,0,2024-02-27T14:19:46.663Z,english_106.wav,0,pill,2737,48,5,4,English,m,0,0.0,-46.25200282,0.21046793
6529903a2b342f805e02188c,33,0,2024-02-27T14:19:46.663Z,english_106.wav,0,pill,2737,48,5,4,English,m,1,0.1,-83.38564728,1.42142181
6529903a2b342f805e02188c,33,0,2024-02-27T14:19:46.663Z,english_106.wav,0,pill,2737,48,5,4,English,m,2,0.2,68.00501759,0.86156936
6529903a2b342f805e02188c,33,0,2024-02-27T14:19:46.663Z,english_106.wav,0,pill,2737,48,5,4,English,m,3,0.3,49.15199267,0.65348811
6529903a2b342f805e02188c,33,0,2024-02-27T14:19:46.663Z,english_106.wav,0,pill,2737,48,5,4,English,m,4,0.32341667,-5.93966373,0.76273979
6529903a2b342f805e02188c,34,0,2024-02-27T14:19:46.663Z,english_679.wav,0,pill,2614,48,5,4,English,m,0,0.0,37.61966445,0.05085037
6529903a2b342f805e02188c,34,0,2024-02-27T14:19:46.663Z,english_679.wav,0,pill,2614,48,5,4,English,m,1,0.1,51.99791738,0.83446012
6529903a2b342f805e02188c,34,0,2024-02-27T14:19:46.663Z,english_679.wav,0,pill,2614,48,5,4,English,m,2,0.2,47.28862711,0.17034906
6529903a2b342f805e02188c,34,0,2024-02-27T14:19:46.663Z,english_679.wav,0,pill,2614,48,5,4,English,m,3,0.3,96.96405016,1.15010704
6529903a2b342f805e02188c,34,0,2024-02-27T14:19:46.663Z,english_679.wav,0,pill,2614,48,5,4,English,m,4,0.32341667,17.22990972,1.32170415
6529903a2b342f805e02188c,35,0,2024-02-27T14:19:46.663Z,english_413.wav,0,peel,950,48,5,4,English,m,0,0.0,-9.66675054,1.82887045
6529903a2b342f805e02188c,35,0,2024-02-27T14:19:46.663Z,english_413.wav,0,peel,950,48,5,4,English,m,1,0.1,15.27504309,0.80668743
6529903a2b342f805e02188c,35,0,2024-02-27T14:19:46.663Z,english_413.wav,0,peel,950,48,5,4,English,m,2,0.2,-94.93171401,0.90586838
6529903a2b342f805e02188c,35,0,2024-02-27T14:19:46.663Z,english_413.wav,0,peel,950,48,5,4,English,m,3,0.3,-42.87800999,1.3937681
6529903a2b342f805e02188c,35,0,2024-02-27T14:19:46.663Z,english_413.wav,0,peel,950,48,5,4,English,m,4,0.32341667,-63.39385234,0.34165264
6529903a2b342f805e02188c,36,0,2024-02-27T14:19:46.663Z,english_585.wav,0,peel,4661,48,5,4,English,m,0,0.0,-47.47167609,0.91486293
6529903a2b342f805e02188c,36,0,2024-02-27T14:19:46.663Z,english_585.wav,0,peel,4661,48,5,4,English,m,1,0.1,-85.73018253,0.8051019
6529903a2b342f805e02188c,36,0,2024-02-27T14:19:46.663Z,english_585.wav,0,peel,4661,48,5,4,English,m,2,0.2,4.69567907,1.25289508
6529903a2b342f805e02188c,36,0,2024-02-27T14:19:46.663Z,english_585.wav,0,peel,4661,48,5,4,English,m,3,0.3,51.83381109,0.83258124
6529903a2b342f805e02188c,36,0,2024-02-27T14:19:46.663Z,english_585.wav,0,peel,4661,48,5,4,English,m,4,0.32341667,14.12777642,1.43411439
6529903a2b342f805e02188c,37,0,2024-02-27T14:19:46.663Z,english_803.wav,0,peel,815,48,5,4,English,m,0,0.0,8.73756077,1.22190991
6529903a2b342f805e02188c,37,0,2024-02-27T14:19:46.663Z,english_803.wav,0,peel,815,48,5,4,English,m,1,0.1,-41.53503623,1.08276728
6529903a2b342f805e02188c,37,0,2024-02-27T14:19:46.663Z,english_803.wav,0,peel,815,48,5,4,English,m,2,0.2,-84.76471985,1.59545905
6529903a2b342f805e02188c,37,0,2024-02-27T14:19:46.663Z,english_803.wav,0,peel,815,48,5,4,English,m,3,0.3,-27.96408635,1.3875394
6529903a2b342f805e02188c,37,0,2024-02-27T14:19:46.663Z,english_803.wav,0,peel,815,48,5,4,English,m,4,0.32341667,72.02290108,0.92287786
6529903a2b342f805e02188c,38,0,2024-02-27T14:19:46.663Z,english_799.wav,0,peel,829,48,5,4,English,m,0,0.0,-48.4958847,1.9233431
6529903a2b342f805e02188c,38,0,2024-02-27T14:19:46.663Z,english_799.wav,0,peel,829,48,5,4,English,m,1,0.1,-9.52866418,1.11542891
6529903a2b342f805e02188c,38,0,2024-02-27T14:19:46.663Z,english_799.wav,0,peel,829,48,5,4,English,m,2,0.2,1.94176449,0.95865462
6529903a2b342f805e02188c,38,0,2024-02-27T14:19:46.663Z,english_799.wav,0,peel,829,48,5,4,English,m,3,0.3,5.71676827,0.6616034
6529903a2b342f805e02188c,38,0,2024-02-27T14:19:46.663Z,english_799.wav,0,peel,829,48,5,4,English,m,4,0.32341667,30.27282792,1.91183458
6529903a2b342f805e02188c,39,0,2024-02-27T14:19:46.663Z,english_347.wav,0,pill,1743,48,5,4,English,m,0,0.0,34.89178431,1.32203506
6529903a2b342f805e02188c,39,0,2024-02-27T14:19:46.663Z,english_347.wav,0,pill,1743,48,5,4,English,m,1,0.1,53.24978685,0.28714436
6529903a2b342f805e02188c,39,0,2024-02-27T14:19:46.663Z,english_347.wav,0,pill,1743,48,5,4,English,m,2,0.2,4.11185022,1.66093526
6529903a2b342f805e02188c,39,0,2024-02-27T14:19:46.663Z,english_347.wav,0,pill,1743,48,5,4,English,m,3,0.3,89.26663646,1.29826057
6529903a2b342f805e02188c,39,0,2024-02-27T14:19:46.663Z,english_347.wav,0,pill,1743,48,5,4,English,m,4,0.32341667,-53.02646266,0.05504814
6529903a2b342f805e02188c,40,0,2024-02-27T14:19:46.663Z,english_716.wav,0,peel,1611,48,5,4,English,m,0,0.0,-41.01159081,1.70683796
6529903a2b342f805e02188c,40,0,2024-02-27T14:19:46.663Z,english_716.wav,0,peel,1611,48,5,4,English,m,1,0.1,-51.78631031,1.57787804
6529903a2b342f805e02188c,40,0,2024-02-27T14:19:46.663Z,english_716.wav,0,peel,1611,48,5,4,English,m,2,0.2,-25.7252513,1.76538287
6529903a2b342f805e02188c,40,0,2024-02-27T14:19:46.663Z,english_716.wav,0,peel,1611,48,5,4,English,m,3,0.3,78.18950514,1.34280163
6529903a2b342f805e02188c,40,0,2024-02-27T14:19:46.663Z,english_716.wav,0,peel,1611,48,5,4,English,m,4,0.32341667,-26.78025651,1.89346788
6529903a2b342f805e02188c,41,0,2024-02-27T14:19:46.663Z,english_849.wav,0,peel,961,48,5,4,English,m,0,0.0,-24.45439181,1.62147024
6529903a2b342f805e02188c,41,0,2024-02-27T14:19:46.663Z,english_849.wav,0,peel,961,48,5,4,English,m,1,0.1,-64.97605389,1.28655358
6529903a2b342f805e02188c,41,0,2024-02-27T14:19:46.663Z,english_849.wav,0,peel,961,48,5,4,English,m,2,0.2,-67.78874915,0.154454
6529903a2b342f805e02188c,41,0,2024-02-27T14:19:46.663Z,english_849.wav,0,peel,961,48,5,4,English,m,3,0.3,-6.53184928,1.49227138
6529903a2b342f805e02188c,41,0,2024-02-27T14:19:46.663Z,english_849.wav,0,peel,961,48,5,4,English,m,4,0.32341667,59.1884023,1.08662162
6529903a2b342f805e02188c,42,0,2024-02-27T14:19:46.663Z,english_64.wav,0,pill,2572,48,5,4,English,m,0,0.0,-77.75081389,0.01503168
6529903a2b342f805e02188c,42,0,2024-02-27T14:19:46.663Z,english_64.wav,0,pill,2572,48,5,4,English,m,1,0.1,47.79712302,0.51971923
6529903a2b342f805e02188c,42,0,2024-02-27T14:19:46.663Z,english_64.wav,0,pill,2572,48,5,4,English,m,2,0.2,-98.04646937,1.01128345
6529903a2b342f805e02188c,42,0,2024-02-27T14:19:46.663Z,english_64.wav,0,pill,2572,48,5,4,English,m,3,0.3,-20.17707595,0.69563875
6529903a2b342f805e02188c,42,0,2024-02-27T14:19:46.663Z,english_64.wav,0,pill,2572,48,5,4,English,m,4,0.32341667,53.05828969,1.51814807
6529903a2b342f805e02188c,43,0,2024-02-27T14:19:46.663Z,english_200.wav,0,peel,841,48,5,4,English,m,0,0.0,48.98677304,1.07797747
6529903a2b342f805e02188c,43,0,2024-02-27T14:19:46.663Z,english_200.wav,0,peel,841,48,5,4,English,m,1,0.1,13.54292536,1.23698451
6529903a2b342f805e02188c,43,0,2024-02-27T14:19:46.663Z,english_200.wav,0,peel,841,48,5,4,English,m,2,0.2,15.98335964,0.85343662
6529903a2b342f805e02188c,43,0,2024-02-27T14:19:46.663Z,english_200.wav,0,peel,841,48,5,4,English,m,3,0.3,-46.7743147,1.38707984
6529903a2b342f805e02188c,43,0,2024-02-27T14:19:46.663Z,english_200.wav,0,peel,841,48,5,4,English,m,4,0.32341667,-12.18386714,0.65409939
6529903a2b342f805e02188c,44,0,2024-02-27T14:19:46.663Z,english_284.wav,0,peel,2404,48,5,4,English,m,0,0.0,-77.15161711,0.74585549
6529903a2b342f805e02188c,44,0,2024-02-27T14:19:46.663Z,english_284.wav,0,peel,2404,48,5,4,English,m,1,0.1,80.53955212,0.017077
6529903a2b342f805e02188c,44,0,2024-02-27T14:19:46.663Z,english_284.wav,0,peel,2404,48,5,4,English,m,2,0.2,-73.74967403,0.284322
6529903a2b342f805e02188c,44,0,2024-02-27T14:19:46.663Z,english_284.wav,0,peel,2404,48,5,4,English,m,3,0.3,-47.67008962,1.04459593
6529903a2b342f805e02188c,44,0,2024-02-27T14:19:46.663Z,english_284.wav,0,peel,2404,48,5,4,English,m,4,0.32341667,40.40758666,0.8536958
6529903a2b342f805e02188c,45,0,2024-02-27T14:19:46.663Z,english_429.wav,0,peel,1297,48,5,4,English,m,0,0.0,-70.82827187,0.34305232
6529903a2b342f805e02188c,45,0,2024-02-27T14:19:46.663Z,english_429.wav,0,peel,1297,48,5,4,English,m,1,0.1,79.2644825,1.15525787
6529903a2b342f805e02188c,45,0,2024-02-27T14:19:46.663Z,english_429.wav,0,peel,1297,48,5,4,English,m,2,0.2,14.29027084,1.85610569
6529903a2b342f805e02188c,45,0,2024-02-27T14:19:46.663Z,english_429.wav,0,peel,1297,48,5,4,English,m,3,0.3,-47.65971945,0.19828098
6529903a2b342f805e02188c,45,0,2024-02-27T14:19:46.663Z,english_429.wav,0,peel,1297,48,5,4,English,m,4,0.32341667,8.9954872,1.51767034
6529903a2b342f805e02188c,46,0,2024-02-27T14:19:46.663Z,english_648.wav,0,peel,2042,48,5,4,English,m,0,0.0,-36.17742204,0.57576188
6529903a2b342f805e02188c,46,0,2024-02-27T14:19:46.663Z,english_648.wav,0,peel,2042,48,5,4,English,m,1,0.1,30.10697278,1.1310908
6529903a2b342f805e02188c,46,0,2024-02-27T14:19:46.663Z,english_648.wav,0,peel,2042,48,5,4,English,m,2,0.2,-67.31320052,1.67112441
6529903a2b342f805e02188c,46,0,2024-02-27T14:19:46.663Z,english_648.wav,0,peel,2042,48,5,4,English,m,3,0.3,-10.94597212,0.39641968
6529903a2b342f805e02188c,46,0,2024-02-27T14:19:46.663Z,english_648.wav,0,peel,2042,48,5,4,English,m,4,0.32341667,72.59648235,1.93789316
6529903a2b342f805e02188c,47,0,2024-02-27T14:19:46.663Z,english_627.wav,0,pill,796,48,5,4,English,m,0,0.0,-53.99355102,0.04887222
6529903a2b342f805e02188c,47,0,2024-02-27T14:19:46.663Z,english_627.wav,0,pill,796,48,5,4,English,m,1,0.1,-3.03417463,0.14119608
6529903a2b342f805e02188c,47,0,2024-02-27T14:19:46.663Z,english_627.wav,0,pill,796,48,5,4,English,m,2,0.2,83.9257281,0.97350107
6529903a2b342f805e02188c,47,0,2024-02-27T14:19:46.663Z,english_627.wav,0,pill,796,48,5,4,English,m,3,0.3,52.52073868,0.6697358
6529903a2b342f805e02188c,47,0,2024-02-27T14:19:46.663Z,english_627.wav,0,pill,796,48,5,4,English,m,4,0.32341667,-13.85481025,0.92660526
6529903a2b342f805e02188c,48,0,2024-02-27T14:19:46.663Z,english_670.wav,0,peel,2029,48,5,4,English,m,0,0.0,64.75672565,1.5535903
6529903a2b342f805e02188c,48,0,2024-02-27T14:19:46.663Z,english_670.wav,0,peel,2029,48,5,4,English,m,1,0.1,85.95156369,0.12522594
6529903a2b342f805e02188c,48,0,2024-02-27T14:19:46.663Z,english_670.wav,0,peel,2029,48,5,4,English,m,2,0.2,-44.32949438,0.22842632
6529903a2b342f805e02188c,48,0,2024-02-27T14:19:46.663Z,english_670.wav,0,peel,2029,48,5,4,English,m,3,0.3,22.57192219,0.17636502
6529903a2b342f805e02188c,48,0,2024-02-27T14:19:46.663Z,english_670.wav,0,peel,2029,48,5,4,English,m,4,0.32341667,34.74005277,0.16208776
6529903a2b342f805e02188c,49,0,2024-02-27T14:19:46.663Z,english_983.wav,0,peel,1017,48,5,4,English,m,0,0.0,32.38711768,0.79408654
6529903a2b342f805e02188c,49,0,2024-02-27T14:19:46.663Z,english_983.wav,0,peel,1017,48,5,4,English,m,1,0.1,-65.51600844,1.57845546
6529903a2b342f805e02188c,49,0,2024-02-27T14:19:46.663Z,english_983.wav,0,peel,1017,48,5,4,English,m,2,0.2,12.03576385,1.23356187
6529903a2b342f805e02188c,49,0,2024-02-27T14:19:46.663Z,english_983.wav,0,peel,1017,48,5,4,English,m,3,0.3,-64.14785636,0.65581831
6529903a2b342f805e02188c,49,0,2024-02-27T14:19:46.663Z,english_983.wav,0,peel,1017,48,5,4,English,m,4,0.32341667,-72.48499617,0.27936162
6529903a2b342f805e02188c,50,1,2024-02-27T14:22:44.716Z,english_633.wav,0,pill,1036,48,5,4,English,m,0,0.0,-53.72283933,1.23998369
6529903a2b342f805e02188c,50,1,2024-02-27T14:22:44.716Z,english_633.wav,0,pill,1036,48,5,4,English,m,1,0.1,14.71438877,1.35266241
6529903a2b342f805e02188c,50,1,2024-02-27T14:22:44.716Z,english_633.wav,0,pill,1036,48,5,4,English,m,2,0.2,95.18630031,0.66132985
6529903a2b342f805e02188c,50,1,2024-02-27T14:22:44.716Z,english_633.wav,0,pill,1036,48,5,4,English,m,3,0.3,96.89096157,0.52728002
6529903a2b342f805e02188c,50,1,2024-02-27T14:22:44.716Z,english_633.wav,0,pill,1036,48,5,4,English,m,4,0.32341667,8.38596779,1.4824282
6529903a2b342f805e02188c,51,1,2024-02-27T14:22:44.716Z,english_266.wav,0,peel,2127,48,5,4,English,m,0,0.0,16.70772117,0.81064175
6529903a2b342f805e02188c,51,1,2024-02-27T14:22:44.716Z,english_266.wav,0,peel,2127,48,5,4,English,m,1,0.1,-61.82971906,1.48442032
6529903a2b342f805e02188c,51,1,2024-02-27T14:22:44.716Z,english_266.wav,0,peel,2127,48,5,4,English,m,2,0.2,-31.41060896,1.39445033
6529903a2b342f805e02188c,51,1,2024-02-27T14:22:44.716Z,english_266.wav,0,peel,2127,48,5,4,English,m,3,0.3,-8.94045194,1.01594082
6529903a2b342f805e02188c,51,1,2024-02-27T14:22:44.716Z,english_266.wav,0,peel,2127,48,5,4,English,m,4,0.32341667,-27.43066022,0.75934284
6529903a2b342f805e02188c,52,1,2024-02-27T14:22:44.716Z,english_791.wav,0,peel,1469,48,5,4,English,m,0,0.0,65.91759783,1.00744019
6529903a2b342f805e02188c,52,1,2024-02-27T14:22:44.716Z,english_791.wav,0,peel,1469,48,5,4,English,m,1,0.1,-36.70731143,0.67929445
6529903a2b342f805e02188c,52,1,2024-02-27T14:22:44.716Z,english_791.wav,0,peel,1469,48,5,4,English,m,2,0.2,67.54354156,0.95779159
6529903a2b342f805e02188c,52,1,2024-02-27T14:22:44.716Z,english_791.wav,0,peel,1469,48,5,4,English,m,3,0.3,2.89249458,1.93585264
6529903a2b342f805e02188c,52,1,2024-02-27T14:22:44.716Z,english_791.wav,0,peel,1469,48,5,4,English,m,4,0.32341667,-55.92630603,0.7587469
6529903a2b342f805e02188c,53,1,2024-02-27T14:22:44.716Z,english_544.wav,0,peel,3144,48,5,4,English,m,0,0.0,96.80704334,1.85115917
6529903a2b342f805e02188c,53,1,2024-02-27T14:22:44.716Z,english_544.wav,0,peel,3144,48,5,4,English,m,1,0.1,70.5198752,0.8718407
6529903a2b342f805e02188c,53,1,2024-02-27T14:22:44.716Z,english_544.wav,0,peel,3144,48,5,4,English,m,2,0.2,78.21609099,1.82238935
6529903a2b342f805e02188c,53,1,2024-02-27T14:22:44.716Z,english_544.wav,0,peel,3144,48,5,4,English,m,3,0.3,-95.7752672,0.25719172
6529903a2b342f805e02188c,53,1,2024-02-27T14:22:44.716Z,english_544.wav,0,peel,3144,48,5,4,English,m,4,0.32341667,-56.58918052,0.72929157
6529903a2b342f805e02188c,54,1,2024-02-27T14:22:44.716Z,english_886.wav,0,pill,1535,48,5,4,English,m,0,0.0,52.0334205,0.43451348
6529903a2b342f805e02188c,54,1,2024-02-27T14:22:44.716Z,english_886.wav,0,pill,1535,48,5,4,English,m,1,0.1,-34.60142464,1.57387994
6529903a2b342f805e02188c,54,1,2024-02-27T14:22:44.716Z,english_886.wav,0,pill,1535,48,5,4,English,m,2,0.2,77.69993065,1.05416836
6529903a2b342f805e02188c,54,1,2024-02-27T14:22:44.716Z,english_886.wav,0,pill,1535,48,5,4,English,m,3,0.3,29.08950905,0.32554246
6529903a2b342f805e02188c,54,1,2024-02-27T14:22:44.716Z,english_886.wav,0,pill,1535,48,5,4,English,m,4,0.32341667,-98.8324779,1.85669509
6529903a2b342f805e02188c,55,1,2024-02-27T14:22:44.716Z,english_985.wav,0,peel,1445,48,5,4,English,m,0,0.0,31.76144354,0.46805505
6529903a2b342f805e02188c,55,1,2024-02-27T14:22:44.716Z,english_985.wav,0,peel,1445,48,5,4,English,m,1,0.1,49.0534069,1.72857245
6529903a2b342f805e02188c,55,1,2024-02-27T14:22:44.716Z,english_985.wav,0,peel,1445,48,5,4,English,m,2,0.2,-59.14058353,0.05336254
6529903a2b342f805e02188c,55,1,2024-02-27T14:22:44.716Z,english_985.wav,0,peel,1445,48,5,4,English,m,3,0.3,-36.25561351,0.45417652
6529903a2b342f805e02188c,55,1,2024-02-27T14:22:44.716Z,english_985.wav,0,peel,1445,48,5,4,English,m,4,0.32341667,-53.50268286,1.33850641
6529903a2b342f805e02188c,56,1,2024-02-27T14:22:44.716Z,english_989.wav,0,peel,2215,48,5,4,English,m,0,0.0,-51.1051603,1.00035195
6529903a2b342f805e02188c,56,1,2024-02-27T14:22:44.716Z,english_989.wav,0,peel,2215,48,5,4,English,m,1,0.1,-91.26717948,0.46124463
6529903a2b342f805e02188c,56,1,2024-02-27T14:22:44.716Z,english_989.wav,0,peel,2215,48,5,4,English,m,2,0.2,73.5145218,0.77735517
6529903a2b342f805e02188c,56,1,2024-02-27T14:22:44.716Z,english_989.wav,0,peel,2215,48,5,4,English,m,3,0.3,54.43703181,1.21549894
6529903a2b342f805e02188c,56,1,2024-02-27T14:22:44.716Z,english_989.wav,0,peel,2215,48,5,4,English,m,4,0.32341667,-36.95823638,0.33045291
6529903a2b342f805e02188c,57,1,2024-02-27T14:22:44.716Z,english_576.wav,0,peel,727,48,5,4,English,m,0,0.0,70.71636046,1.40655209
6529903a2b342f805e02188c,57,1,2024-02-27T14:22:44.716Z,english_576.wav,0,peel,727,48,5,4,English,m,1,0.1,-53.10414049,0.7609351
6529903a2b342f805e02188c,57,1,2024-02-27T14:22:44.716Z,english_576.wav,0,peel,727,48,5,4,English,m,2,0.2,34.4374047,1.0155723
6529903a2b342f805e02188c,57,1,2024-02-27T14:22:44.716Z,english_576.wav,0,peel,727,48,5,4,English,m,3,0.3,19.64113521,1.45906276
6529903a2b342f805e02188c,57,1,2024-02-27T14:22:44.716Z,english_576.wav,0,peel,727,48,5,4,English,m,4,0.32341667,36.63265498,1.49724695
6529903a2b342f805e02188c,58,1,2024-02-27T14:22:44.716Z,english_981.wav,0,pill,1075,48,5,4,English,m,0,0.0,-19.49446297,1.96452006
6529903a2b342f805e02188c,58,1,2024-02-27T14:22:44.716Z,english_981.wav,0,pill,1075,48,5,4,English,m,1,0.1,-69.0386812,1.2006287
6529903a2b342f805e02188c,58,1,2024-02-27T14:22:44.716Z,english_981.wav,0,pill,1075,48,5,4,English,m,2,0.2,-25.77088537,0.98600753
6529903a2b342f805e02188c,58,1,2024-02-27T14:22:44.716Z,english_981.wav,0,pill,1075,48,5,4,English,m,3,0.3,65.67633712,0.21362544
6529903a2b342f805e02188c,58,1,2024-02-27T14:22:44.716Z,english_981.wav,0,pill,1075,48,5,4,English,m,4,0.32341667,-6.1640169,0.33780549
6529903a2b342f805e02188c,59,1,2024-02-27T14:22:44.716Z,english_789.wav,0,peel,844,48,5,4,English,m,0,0.0,70.69388181,1.62690516
6529903a2b342f805e02188c,59,1,2024-02-27T14:22:44.716Z,english_789.wav,0,peel,844,48,5,4,English,m,1,0.1,-91.45782136,1.02092359
6529903a2b342f805e02188c,59,1,2024-02-27T14:22:44.716Z,english_789.wav,0,peel,844,48,5,4,English,m,2,0.2,-94.67801392,0.93437639
6529903a2b342f805e02188c,59,1,2024-02-27T14:22:44.716Z,english_789.wav,0,peel,844,48,5,4,English,m,3,0.3,83.76501612,1.8239896
6529903a2b342f805e02188c,59,1,2024-02-27T14:22:44.716Z,english_789.wav,0,peel,844,48,5,4,English,m,4,0.32341667,-4.60584958,1.29596798
6529903a2b342f805e02188c,60,1,2024-02-27T14:22:44.716Z,english_95.wav,0,peel,1820,48,5,4,English,m,0,0.0,-9.17523314,0.73915747
6529903a2b342f805e02188c,60,1,2024-02-27T14:22:44.716Z,english_95.wav,0,peel,1820,48,5,4,English,m,1,0.1,-95.16832451,1.01172325
6529903a2b342f805e02188c,60,1,2024-02-27T14:22:44.716Z,english_95.wav,0,peel,1820,48,5,4,English,m,2,0.2,-21.6130257,1.19817679
6529903a2b342f805e02188c,60,1,2024-02-27T14:22:44.716Z,english_95.wav,0,peel,1820,48,5,4,English,m,3,0.3,0.51006416,1.53285694
6529903a2b342f805e02188c,60,1,2024-02-27T14:22:44.716Z,english_95.wav,0,peel,1820,48,5,4,English,m,4,0.32341667,43.00131518,1.08383215
6529903a2b342f805e02188c,61,1,2024-02-27T14:22:44.716Z,english_180.wav,0,peel,3358,48,5,4,English,m,0,0.0,-79.96502932,0.84610218
6529903a2b342f805e02188c,61,1,2024-02-27T14:22:44.716Z,english_180.wav,0,peel,3358,48,5,4,English,m,1,0.1,33.21752916,1.88919334
6529903a2b342f805e02188c,61,1,2024-02-27T14:22:44.716Z,english_180.wav,0,peel,3358,48,5,4,English,m,2,0.2,-97.52705813,0.18699196
6529903a2b342f805e02188c,61,1,2024-02-27T14:22:44.716Z,english_180.wav,0,peel,3358,48,5,4,English,m,3,0.3,42.51331828,0.0366283
6529903a2b342f805e02188c,61,1,2024-02-27T14:22:44.716Z,english_180.wav,0,peel,3358,48,5,4,English,m,4,0.32341667,-42.98571984,0.95813987
6529903a2b342f805e02188c,62,1,2024-02-27T14:22:44.716Z,english_592.wav,0,peel,1346,48,5,4,English,m,0,0.0,-77.34060672,0.96869857
6529903a2b342f805e02188c,62,1,2024-02-27T14:22:44.716Z,english_592.wav,0,peel,1346,48,5,4,English,m,1,0.1,27.41551815,1.75134411
6529903a2b342f805e02188c,62,1,2024-02-27T14:22:44.716Z,english_592.wav,0,peel,1346,48,5,4,English,m,2,0.2,-17.47445882,1.41680483
6529903a2b342f805e02188c,62,1,2024-02-27T14:22:44.716Z,english_592.wav,0,peel,1346,48,5,4,English,m,3,0.3,-61.08462212,1.07260777
6529903a2b342f805e02188c,62,1,2024-02-27T14:22:44.716Z,english_592.wav,0,peel,1346,48,5,4,English,m,4,0.32341667,74.7675789,0.73150904
6529903a2b342f805e02188c,63,1,2024-02-27T14:22:44.716Z,english_22.wav,0,peel,1522,48,5,4,English,m,0,0.0,78.11206964,1.48448967
6529903a2b342f805e02188c,63,1,2024-02-27T14:22:44.716Z,english_22.wav,0,peel,1522,48,5,4,English,m,1,0.1,30.08823316,0.28770474
6529903a2b342f805e02188c,63,1,2024-02-27T14:22:44.716Z,english_22.wav,0,peel,1522,48,5,4,English,m,2,0.2,62.70691674,1.03274311
6529903a2b342f805e02188c,63,1,2024-02-27T14:22:44.716Z,english_22.wav,0,peel,1522,48,5,4,English,m,3,0.3,-69.9857022,0.45071415
6529903a2b342f805e02188c,63,1,2024-02-27T14:22:44.716Z,english_22.wav,0,peel,1522,48,5,4,English,m,4,0.32341667,-1.96178027,0.30900593
6529903a2b342f805e02188c,64,1,2024-02-27T14:22:44.716Z,english_13.wav,0,peel,1887,48,5,4,English,m,0,0.0,85.79405153,0.93145275
6529903a2b342f805e02188c,64,1,2024-02-27T14:22:44.716Z,english_13.wav,0,peel,1887,48,5,4,English,m,1,0.1,-22.00296346,0.69811424
6529903a2b342f805e02188c,64,1,2024-02-27T14:22:44.716Z,english_13.wav,0,peel,1887,48,5,4,English,m,2,0.2,45.89988476,1.08090206
6529903a2b342f805e02188c,64,1,2024-02-27T14:22:44.716Z,english_13.wav,0,peel,1887,48,5,4,English,m,3,0.3,-17.47250281,0.35305012
6529903a2b342f805e02188c,64,1,2024-02-27T14:22:44.716Z,english_13.wav,0,peel,1887,48,5,4,English,m,4,0.32341667,-30.34546067,0.65915907
6529903a2b342f805e02188c,65,1,2024-02-27T14:22:44.716Z,english_527.wav,0,pill,684,48,5,4,English,m,0,0.0,-32.70996179,0.06646481
6529903a2b342f805e02188c,65,1,2024-02-27T14:22:44.716Z,english_527.wav,0,pill,684,48,5,4,English,m,1,0.1,-61.96334317,1.75268105
6529903a2b342f805e02188c,65,1,2024-02-27T14:22:44.716Z,english_527.wav,0,pill,684,48,5,4,English,m,2,0.2,86.46317242,0.41061726
6529903a2b342f805e02188c,65,1,2024-02-27T14:22:44.716Z,english_527.wav,0,pill,684,48,5,4,English,m,3,0.3,-18.9429262,1.43024268
6529903a2b342f805e02188c,65,1,2024-02-27T14:22:44.716Z,english_527.wav,0,pill,684,48,5,4,English,m,4,0.32341667,-59.75355058,0.73468543
6529903a2b342f805e02188c,66,1,2024-02-27T14:22:44.716Z,english_640.wav,0,peel,591,48,5,4,English,m,0,0.0,74.95875769,1.81273707
6529903a2b342f805e02188c,66,1,2024-02-27T14:22:44.716Z,english_640.wav,0,peel,591,48,5,4,English,m,1,0.1,87.73764633,1.50076703
6529903a2b342f805e02188c,66,1,2024-02-27T14:22:44.716Z,english_640.wav,0,peel,591,48,5,4,English,m,2,0.2,-71.36544648,0.25286143
6529903a2b342f805e02188c,66,1,2024-02-27T14:22:44.716Z,english_640.wav,0,peel,591,48,5,4,English,m,3,0.3,11.07583082,0.53181051
6529903a2b342f805e02188c,66,1,2024-02-27T14:22:44.716Z,english_640.wav,0,peel,591,48,5,4,English,m,4,0.32341667,18.32643638,0.76351343
6529903a2b342f805e02188c,67,1,2024-02-27T14:22:44.716Z,english_982.wav,0,pill,1621,48,5,4,English,m,0,0.0,12.44046596,0.81508625
6529903a2b342f805e02188c,67,1,2024-02-27T14:22:44.716Z,english_982.wav,0,pill,1621,48,5,4,English,m,1,0.1,-60.41666302,0.92712357
6529903a2b342f805e02188c,67,1,2024-02-27T14:22:44.716Z,english_982.wav,0,pill,1621,48,5,4,English,m,2,0.2,-35.31499742,0.77678916
6529903a2b342f805e02188c,67,1,2024-02-27T14:22:44.716Z,english_982.wav,0,pill,1621,48,5,4,English,m,3,0.3,-10.96739076,1.0294352
6529903a2b342f805e02188c,67,1,2024-02-27T14:22:44.716Z,english_982.wav,0,pill,1621,48,5,4,English,m,4,0.32341667,44.50624474,1.1322674
6529903a2b342f805e02188c,68,1,2024-02-27T14:22:44.716Z,english_292.wav,0,peel,1402,48,5,4,English,m,0,0.0,-39.45275529,0.85174507
6529903a2b342f805e02188c,68,1,2024-02-27T14:22:44.716Z,english_292.wav,0,peel,1402,48,5,4,English,m,1,0.1,-35.03464337,0.73996191
6529903a2b342f805e02188c,68,1,2024-02-27T14:22:44.716Z,english_292.wav,0,peel,1402,48,5,4,English,m,2,0.2,31.68370279,1.42892595
6529903a2b342f805e02188c,68,1,2024-02-27T14:22:44.716Z,english_292.wav,0,peel,1402,48,5,4,English,m,3,0.3,-53.75991965,0.04968332
6529903a2b342f805e02188c,68,1,2024-02-27T14:22:44.716Z,english_292.wav,0,peel,1402,48,5,4,English,m,4,0.32341667,12.49992629,0.58931553
6529903a2b342f805e02188c,69,1,2024-02-27T14:22:44.716Z,english_182.wav,0,peel,1359,48,5,4,English,m,0,0.0,57.43769915,0.89919812
6529903a2b342f805e02188c,69,1,2024-02-27T14:22:44.716Z,english_182.wav,0,peel,1359,48,5,4,English,m,1,0.1,-87.06676545,1.25243937
6529903a2b342f805e02188c,69,1,2024-02-27T14:22:44.716Z,english_182.wav,0,peel,1359,48,5,4,English,m,2,0.2,-91.52107401,1.35021358
6529903a2b342f805e02188c,69,1,2024-02-27T14:22:44.716Z,english_182.wav,0,peel,1359,48,5,4,English,m,3,0.3,52.0843588,0.52787795
6529903a2b342f805e02188c,69,1,2024-02-27T14:22:44.716Z,english_182.wav,0,peel,1359,48,5,4,English,m,4,0.32341667,18.07264914,0.72620624
6529903a2b342f805e02188c,70,1,2024-02-27T14:22:44.716Z,english_158.wav,0,peel,1595,48,5,4,English,m,0,0.0,33.09785739,1.71128449
6529903a2b342f805e02188c,70,1,2024-02-27T14:22:44.716Z,english_158.wav,0,peel,1595,48,5,4,English,m,1,0.1,-85.08083727,1.56145129
6529903a2b342f805e02188c,70,1,2024-02-27T14:22:44.716Z,english_158.wav,0,peel,1595,48,5,4,English,m,2,0.2,97.70701203,0.69707892
6529903a2b342f805e02188c,70,1,2024-02-27T14:22:44.716Z,english_158.wav,0,peel,1595,48,5,4,English,m,3,0.3,2.54261044,1.19647348
6529903a2b342f805e02188c,70,1,2024-02-27T14:22:44.716Z,english_158.wav,0,peel,1595,48,5,4,English,m,4,0.32341667,-59.73934841,1.17782448
6529903a2b342f805e02188c,71,1,2024-02-27T14:22:44.716Z,english_509.wav,0,peel,1193,48,5,4,English,m,0,0.0,58.37136146,0.93627824
6529903a2b342f805e02188c,71,1,2024-02-27T14:22:44.716Z,english_509.wav,0,peel,1193,48,5,4,English,m,1,0.1,-30.59588084,1.268957
6529903a2b342f805e02188c,71,1,2024-02-27T14:22:44.716Z,english_509.wav,0,peel,1193,48,5,4,English,m,2,0.2,-42.62400689,0.87018438
6529903a2b342f805e02188c,71,1,2024-02-27T14:22:44.716Z,english_509.wav,0,peel,1193,48,5,4,English,m,3,0.3,58.46483968,1.67134466
6529903a2b342f805e02188c,71,1,2024-02-27T14:22:44.716Z,english_509.wav,0,peel,1193,48,5,4,English,m,4,0.32341667,44.09610342,1.96584472
6529903a2b342f805e02188c,72,1,2024-02-27T14:22:44.716Z,english_385.wav,0,peel,832,48,5,4,English,m,0,0.0,-55.07910634,1.75648555
6529903a2b342f805e02188c,72,1,2024-02-27T14:22:44.716Z,english_385.wav,0,peel,832,48,5,4,English,m,1,0.1,-94.47680079,1.20856462
6529903a2b342f805e02188c,72,1,2024-02-27T14:22:44.716Z,english_385.wav,0,peel,832,48,5,4,English,m,2,0.2,38.70414457,0.98103352
6529903a2b342f805e02188c,72,1,2024-02-27T14:22:44.716Z,english_385.wav,0,peel,832,48,5,4,English,m,3,0.3,-46.17691,1.45745263
6529903a2b342f805e02188c,72,1,2024-02-27T14:22:44.716Z,english_385.wav,0,peel,832,48,5,4,English,m,4,0.32341667,2.5941508,0.88353815
6529903a2b342f805e02188c,73,1,2024-02-27T14:22:44.716Z,english_189.wav,0,peel,1592,48,5,4,English,m,0,0.0,-22.70456848,0.82906961
6529903a2b342f805e02188c,73,1,2024-02-27T14:22:44.716Z,english_189.wav,0,peel,1592,48,5,4,English,m,1,0.1,-12.00888723,0.58408113
6529903a2b342f805e02188c,73,1,2024-02-27T14:22:44.716Z,english_189.wav,0,peel,1592,48,5,4,English,m,2,0.2,15.14046376,0.19058783
6529903a2b342f805e02188c,73,1,2024-02-27T14:22:44.716Z,english_189.wav,0,peel,1592,48,5,4,English,m,3,0.3,-19.30106293,0.57788611
6529903a2b342f805e02188c,73,1,2024-02-27T14:22:44.716Z,english_189.wav,0,peel,1592,48,5,4,English,m,4,0.32341667,-20.57313834,0.32577637
6529903a2b342f805e02188c,74,1,2024-02-27T14:22:44.716Z,english_216.wav,0,peel,1213,48,5,4,English,m,0,0.0,-62.2888105,1.07577895
6529903a2b342f805e02188c,74,1,2024-02-27T14:22:44.716Z,english_216.wav,0,peel,1213,48,5,4,English,m,1,0.1,-52.19325919,1.07125686
6529903a2b342f805e02188c,74,1,2024-02-27T14:22:44.716Z,english_216.wav,0,peel,1213,48,5,4,English,m,2,0.2,-77.81566322,1.51342084
6529903a2b342f805e02188c,74,1,2024-02-27T14:22:44.716Z,english_216.wav,0,peel,1213,48,5,4,English,m,3,0.3,73.5246301,1.37714716
6529903a2b342f805e02188c,74,1,2024-02-27T14:22:44.716Z,english_216.wav,0,peel,1213,48,5,4,English,m,4,0.32341667,73.4409389,1.55456291
6529903a2b342f805e02188c,75,1,2024-02-27T14:22:44.716Z,english_762.wav,0,peel,1197,48,5,4,English,m,0,0.0,-56.40971946,1.43822993
6529903a2b342f805e02188c,75,1,2024-02-27T14:22:44.716Z,english_762.wav,0,peel,1197,48,5,4,English,m,1,0.1,-9.09046034,1.11776807
6529903a2b342f805e02188c,75,1,2024-02-27T14:22:44.716Z,english_762.wav,0,peel,1197,48,5,4,English,m,2,0.2,20.98892014,0.71531135
6529903a2b342f805e02188c,75,1,2024-02-27T14:22:44.716Z,english_762.wav,0,peel,1197,48,5,4,English,m,3,0.3,-66.43296232,0.54997993
6529903a2b342f805e02188c,75,1,2024-02-27T14:22:44.716Z,english_762.wav,0,peel,1197,48,5,4,English,m,4,0.32341667,-91.78640069,0.26897274
6529903a2b342f805e02188c,76,1,2024-02-27T14:22:44.716Z,english_590.wav,0,peel,1358,48,5,4,English,m,0,0.0,-36.198224,1.58650853
6529903a2b342f805e02188c,76,1,2024-02-27T14:22:44.716Z,english_590.wav,0,peel,1358,48,5,4,English,m,1,0.1,-81.6019347,0.24081988
6529903a2b342f805e02188c,76,1,2024-02-27T14:22:44.716Z,english_590.wav,0,peel,1358,48,5,4,English,m,2,0.2,23.00860846,0.40073912
6529903a2b342f805e02188c,76,1,2024-02-27T14:22:44.716Z,english_590.wav,0,peel,1358,48,5,4,English,m,3,0.3,-40.72667736,0.83686248
6529903a2b342f805e02188c,76,1,2024-02-27T14:22:44.716Z,english_590.wav,0,peel,1358,48,5,4,English,m,4,0.32341667,31.06175796,1.43958247
6529903a2b342f805e02188c,77,1,2024-02-27T14:22:44.716Z,english_333.wav,0,peel,939,48,5,4,English,m,0,0.0,61.26933292,0.50090252
6529903a2b342f805e02188c,77,1,2024-02-27T14:22:44.716Z,english_333.wav,0,peel,939,48,5,4,English,m,1,0.1,38.65533839,1.61630161
6529903a2b342f805e02188c,77,1,2024-02-27T14:22:44.716Z,english_333.wav,0,peel,939,48,5,4,English,m,2,0.2,-27.91605269,1.73322278
6529903a2b342f805e02188c,77,1,2024-02-27T14:22:44.716Z,english_333.wav,0,peel,939,48,5,4,English,m,3,0.3,36.00101096,0.67742762
6529903a2b342f805e02188c,77,1,2024-02-27T14:22:44.716Z,english_333.wav,0,peel,939,48,5,4,English,m,4,0.32341667,-78.35943708,0.46993908
6529903a2b342f805e02188c,78,1,2024-02-27T14:22:44.716Z,english_194.wav,0,peel,1680,48,5,4,English,m,0,0.0,46.99725025,0.38230397
6529903a2b342f805e02188c,78,1,2024-02-27T14:22:44.716Z,english_194.wav,0,peel,1680,48,5,4,English,m,1,0.1,-37.20381284,1.33246395
6529903a2b342f805e02188c,78,1,2024-02-27T14:22:44.716Z,english_194.wav,0,peel,1680,48,5,4,English,m,2,0.2,13.86947558,1.31276464
6529903a2b342f805e02188c,78,1,2024-02-27T14:22:44.716Z,english_194.wav,0,peel,1680,48,5,4,English,m,3,0.3,79.77232086,0.22397005
6529903a2b342f805e02188c,78,1,2024-02-27T14:22:44.716Z,english_194.wav,0,peel,1680,48,5,4,English,m,4,0.32341667,49.46244041,1.74931967
6529903a2b342f805e02188c,79,1,2024-02-27T14:22:44.716Z,english_97.wav,0,pill,2011,48,5,4,English,m,0,0.0,57.21139396,1.63402743
6529903a2b342f805e02188c,79,1,2024-02-27T14:22:44.716Z,english_97.wav,0,pill,2011,48,5,4,English,m,1,0.1,-7.40408397,0.54734888
6529903a2b342f805e02188c,79,1,2024-02-27T14:22:44.716Z,english_97.wav,0,pill,2011,48,5,4,English,m,2,0.2,77.7995227,1.5228594
6529903a2b342f805e02188c,79,1,2024-02-27T14:22:44.716Z,english_97.wav,0,pill,2011,48,5,4,English,m,3,0.3,-51.1747528,1.13050105
6529903a2b342f805e02188c,79,1,2024-02-27T14:22:44.716Z,english_97.wav,0,pill,2011,48,5,4,English,m,4,0.32341667,77.11982253,0.82586999
6529903a2b342f805e02188c,80,1,2024-02-27T14:22:44.716Z,english_252.wav,0,peel,1107,48,5,4,English,m,0,0.0,79.75601627,0.77799761
6529903a2b342f805e02188c,80,1,2024-02-27T14:22:44.716Z,english_252.wav,0,peel,1107,48,5,4,English,m,1,0.1,17.00183399,1.07711339
6529903a2b342f805e02188c,80,1,2024-02-27T14:22:44.716Z,english_252.wav,0,peel,1107,48,5,4,English,m,2,0.2,-25.42800597,0.7917181
6529903a2b342f805e02188c,80,1,2024-02-27T14:22:44.716Z,english_252.wav,0,peel,1107,48,5,4,English,m,3,0.3,-47.65138194,1.47632881
6529903a2b342f805e02188c,80,1,2024-02-27T14:22:44.716Z,english_252.wav,0,peel,1107,48,5,4,English,m,4,0.32341667,35.10652067,1.65919103
6529903a2b342f805e02188c,81,1,2024-02-27T14:22:44.716Z,english_241.wav,0,peel,1248,48,5,4,English,m,0,0.0,68.9743722,1.94478574
6529903a2b342f805e02188c,81,1,2024-02-27T14:22:44.716Z,english_241.wav,0,peel,1248,48,5,4,English,m,1,0.1,68.48567391,1.84895789
6529903a2b342f805e02188c,81,1,2024-02-27T14:22:44.716Z,english_241.wav,0,peel,1248,48,5,4,English,m,2,0.2,12.6952975,1.1085625
6529903a2b342f805e02188c,81,1,2024-02-27T14:22:44.716Z,english_241.wav,0,peel,1248,48,5,4,English,m,3,0.3,61.42298605,1.36682755
6529903a2b342f805e02188c,81,1,2024-02-27T14:22:44.716Z,english_241.wav,0,peel,1248,48,5,4,English,m,4,0.32341667,-18.578671,0.93494379
6529903a2b342f805e02188c,82,1,2024-02-27T14:22:44.716Z,english_257.wav,0,peel,1041,48,5,4,English,m,0,0.0,-68.31428674,1.40239735
6529903a2b342f805e02188c,82,1,2024-02-27T14:22:44.716Z,english_257.wav,0,peel,1041,48,5,4,English,m,1,0.1,-13.90908686,1.49673114
6529903a2b342f805e02188c,82,1,2024-02-27T14:22:44.716Z,english_257.wav,0,peel,1041,48,5,4,English,m,2,0.2,54.08743226,1.07658057
6529903a2b342f805e02188c,82,1,2024-02-27T14:22:44.716Z,english_257.wav,0,peel,1041,48,5,4,English,m,3,0.3,-42.73693867,0.27427112
6529903a2b342f805e02188c,82,1,2024-02-27T14:22:44.716Z,english_257.wav,0,peel,1041,48,5,4,English,m,4,0.32341667,-1.03846516,1.90516482
6529903a2b342f805e02188c,83,1,2024-02-27T14:22:44.716Z,english_926.wav,0,pill,1275,48,5,4,English,m,0,0.0,-21.84910749,1.63725542
6529903a2b342f805e02188c,83,1,2024-02-27T14:22:44.716Z,english_926.wav,0,pill,1275,48,5,4,English,m,1,0.1,92.62617727,0.91190035
6529903a2b342f805e02188c,83,1,2024-02-27T14:22:44.716Z,english_926.wav,0,pill,1275,48,5,4,English,m,2,0.2,-40.07927874,0.45967153
6529903a2b342f805e02188c,83,1,2024-02-27T14:22:44.716Z,english_926.wav,0,pill,1275,48,5,4,English,m,3,0.3,30.58508574,0.64362954
6529903a2b342f805e02188c,83,1,2024-02-27T14:22:44.716Z,english_926.wav,0,pill,1275,48,5,4,English,m,4,0.32341667,-68.98646438,1.44788087
6529903a2b342f805e02188c,84,1,2024-02-27T14:22:44.716Z,english_881.wav,0,peel,2225,48,5,4,English,m,0,0.0,7.28069095,1.60234882
6529903a2b342f805e02188c,84,1,2024-02-27T14:22:44.716Z,english_881.wav,0,peel,2225,48,5,4,English,m,1,0.1,-64.28928902,0.93497238
6529903a2b342f805e02188c,84,1,2024-02-27T14:22:44.716Z,english_881.wav,0,peel,2225,48,5,4,English,m,2,0.2,-2.07432692,0.58107235
6529903a2b342f805e02188c,84,1,2024-02-27T14:22:44.716Z,english_881.wav,0,peel,2225,48,5,4,English,m,3,0.3,51.5536886,1.34691236
6529903a2b342f805e02188c,84,1,2024-02-27T14:22:44.716Z,english_881.wav,0,peel,2225,48,5,4,English,m,4,0.32341667,65.74991707,0.85842561
6529903a2b342f805e02188c,85,1,2024-02-27T14:22:44.716Z,english_204.wav,0,peel,2975,48,5,4,English,m,0,0.0,67.46317025,1.58701212
6529903a2b342f805e02188c,85,1,2024-02-27T14:22:44.716Z,english_204.wav,0,peel,2975,48,5,4,English,m,1,0.1,38.91463365,1.82178317
6529903a2b342f805e02188c,85,1,2024-02-27T14:22:44.716Z,english_204.wav,0,peel,2975,48,5,4,English,m,2,0.2,-85.28377865,1.60361911
6529903a2b342f805e02188c,85,1,2024-02-27T14:22:44.716Z,english_204.wav,0,peel,2975,48,5,4,English,m,3,0.3,55.65505401,0.21823774
6529903a2b342f805e02188c,85,1,2024-02-27T14:22:44.716Z,english_204.wav,0,peel,2975,48,5,4,English,m,4,0.32341667,56.32983288,0.04661671
6529903a2b342f805e02188c,86,1,2024-02-27T14:22:44.716Z,english_96.wav,0,peel,1432,48,5,4,English,m,0,0.0,-2.60251168,1.33849038
6529903a2b342f805e02188c,86,1,2024-02-27T14:22:44.716Z,english_96.wav,0,peel,1432,48,5,4,English,m,1,0.1,3.1808695,1.03790095
6529903a2b342f805e02188c,86,1,2024-02-27T14:22:44.716Z,english_96.wav,0,peel,1432,48,5,4,English,m,2,0.2,-93.89625608,0.32730996
6529903a2b342f805e02188c,86,1,2024-02-27T14:22:44.716Z,english_96.wav,0,peel,1432,48,5,4,English,m,3,0.3,22.03695444,1.15118519
6529903a2b342f805e02188c,86,1,2024-02-27T14:22:44.716Z,english_96.wav,0,peel,1432,48,5,4,English,m,4,0.32341667,89.13776591,1.37996061
6529903a2b342f805e02188c,87,1,2024-02-27T14:22:44.716Z,english_744.wav,0,peel,699,48,5,4,English,m,0,0.0,43.39686976,0.75505854
6529903a2b342f805e02188c,87,1,2024-02-27T14:22:44.716Z,english_744.wav,0,peel,699,48,5,4,English,m,1,0.1,-61.67573043,1.01311725
6529903a2b342f805e02188c,87,1,2024-02-27T14:22:44.716Z,english_744.wav,0,peel,699,48,5,4,English,m,2,0.2,0.51873183,0.73457108
6529903a2b342f805e02188c,87,1,2024-02-27T14:22:44.716Z,english_744.wav,0,peel,699,48,5,4,English,m,3,0.3,12.88130512,0.90154102
6529903a2b342f805e02188c,87,1,2024-02-27T14:22:44.716Z,english_744.wav,0,peel,699,48,5,4,English,m,4,0.32341667,57.31714449,1.01338509
6529903a2b342f805e02188c,88,1,2024-02-27T14:22:44.716Z,english_761.wav,0,peel,1155,48,5,4,English,m,0,0.0,-7.84319468,0.39728316
6529903a2b342f805e02188c,88,1,2024-02-27T14:22:44.716Z,english_761.wav,0,peel,1155,48,5,4,English,m,1,0.1,77.10262164,0.76675063
6529903a2b342f805e02188c,88,1,2024-02-27T14:22:44.716Z,english_761.wav,0,peel,1155,48,5,4,English,m,2,0.2,23.07677451,1.40075404
6529903a2b342f805e02188c,88,1,2024-02-27T14:22:44.716Z,english_761.wav,0,peel,1155,48,5,4,English,m,3,0.3,-22.28856666,0.53792203
6529903a2b342f805e02188c,88,1,2024-02-27T14:22:44.716Z,english_761.wav,0,peel,1155,48,5,4,English,m,4,0.32341667,18.71779046,1.06229189
6529903a2b342f805e02188c,89,1,2024-02-27T14:22:44.716Z,english_971.wav,0,peel,1639,48,5,4,English,m,0,0.0,27.0641734,0.01013217
6529903a2b342f805e02188c,89,1,2024-02-27T14:22:44.716Z,english_971.wav,0,peel,1639,48,5,4,English,m,1,0.1,-43.13434162,0.95424486
6529903a2b342f805e02188c,89,1,2024-02-27T14:22:44.716Z,english_971.wav,0,peel,1639,48,5,4,English,m,2,0.2,83.45364082,1.16332163
6529903a2b342f805e02188c,89,1,2024-02-27T14:22:44.716Z,english_971.wav,0,peel,1639,48,5,4,English,m,3,0.3,46.6736971,0.56494555
6529903a2b342f805e02188c,89,1,2024-02-27T14:22:44.716Z,english_971.wav,0,peel,1639,48,5,4,English,m,4,0.32341667,-28.9166607,0.73596031
6529903a2b342f805e02188c,90,1,2024-02-27T14:22:44.716Z,english_74.wav,0,peel,1716,48,5,4,English,m,0,0.0,86.29588785,1.196208
6529903a2b342f805e02188c,90,1,2024-02-27T14:22:44.716Z,english_74.wav,0,peel,1716,48,5,4,English,m,1,0.1,-14.52381687,1.63208143
6529903a2b342f805e02188c,90,1,2024-02-27T14:22:44.716Z,english_74.wav,0,peel,1716,48,5,4,English,m,2,0.2,77.94321906,0.46125368
6529903a2b342f805e02188c,90,1,2024-02-27T14:22:44.716Z,english_74.wav,0,peel,1716,48,5,4,English,m,3,0.3,-32.33104188,1.38278461
6529903a2b342f805e02188c,90,1,2024-02-27T14:22:44.716Z,english_74.wav,0,peel,1716,48,5,4,English,m,4,0.32341667,9.46602754,0.83147108
6529903a2b342f805e02188c,91,1,2024-02-27T14:22:44.716Z,english_718.wav,0,pill,1436,48,5,4,English,m,0,0.0,-62.54470118,0.40124114
6529903a2b342f805e02188c,91,1,2024-02-27T14:22:44.716Z,english_718.wav,0,pill,1436,48,5,4,English,m,1,0.1,-40.70811043,0.49945062
6529903a2b342f805e02188c,91,1,2024-02-27T14:22:44.716Z,english_718.wav,0,pill,1436,48,5,4,English,m,2,0.2,-11.25435391,1.54880463
6529903a2b342f805e02188c,91,1,2024-02-27T14:22:44.716Z,english_718.wav,0,pill,1436,48,5,4,English,m,3,0.3,-68.52161814,0.39118497
6529903a2b342f805e02188c,91,1,2024-02-27T14:22:44.716Z,english_718.wav,0,pill,1436,48,5,4,English,m,4,0.32341667,-77.89834334,0.07447668
6529903a2b342f805e02188c,92,1,2024-02-27T14:22:44.716Z,english_511.wav,0,pill,1977,48,5,4,English,m,0,0.0,-54.05076571,1.68448531
6529903a2b342f805e02188c,92,1,2024-02-27T14:22:44.716Z,english_511.wav,0,pill,1977,48,5,4,English,m,1,0.1,58.21305336,0.64957271
6529903a2b342f805e02188c,92,1,2024-02-27T14:22:44.716Z,english_511.wav,0,pill,1977,48,5,4,English,m,2,0.2,93.28984864,1.47534814
6529903a2b342f805e02188c,92,1,2024-02-27T14:22:44.716Z,english_511.wav,0,pill,1977,48,5,4,English,m,3,0.3,-93.08437199,1.38615571
6529903a2b342f805e02188c,92,1,2024-02-27T14:22:44.716Z,english_511.wav,0,pill,1977,48,5,4,English,m,4,0.32341667,48.49476441,0.71972648
6529903a2b342f805e02188c,93,1,2024-02-27T14:22:44.716Z,english_53.wav,0,peel,1604,48,5,4,English,m,0,0.0,5.97237457,0.42230306
6529903a2b342f805e02188c,93,1,2024-02-27T14:22:44.716Z,english_53.wav,0,peel,1604,48,5,4,English,m,1,0.1,-76.12131912,0.60624646
6529903a2b342f805e02188c,93,1,2024-02-27T14:22:44.716Z,english_53.wav,0,peel,1604,48,5,4,English,m,2,0.2,55.18337216,0.26369256
6529903a2b342f805e02188c,93,1,2024-02-27T14:22:44.716Z,english_53.wav,0,peel,1604,48,5,4,English,m,3,0.3,70.32610425,1.07400525
6529903a2b342f805e02188c,93,1,2024-02-27T14:22:44.716Z,english_53.wav,0,peel,1604,48,5,4,English,m,4,0.32341667,26.40450832,0.2721545
6529903a2b342f805e02188c,94,1,2024-02-27T14:22:44.716Z,english_642.wav,0,peel,1127,48,5,4,English,m,0,0.0,31.40946548,0.21393667
6529903a2b342f805e02188c,94,1,2024-02-27T14:22:44.716Z,english_642.wav,0,peel,1127,48,5,4,English,m,1,0.1,4.73018903,1.31302396
6529903a2b342f805e02188c,94,1,2024-02-27T14:22:44.716Z,english_642.wav,0,peel,1127,48,5,4,English,m,2,0.2,85.2390777,0.95537026
6529903a2b342f805e02188c,94,1,2024-02-27T14:22:44.716Z,english_642.wav,0,peel,1127,48,5,4,English,m,3,0.3,-59.81643451,1.00167733
6529903a2b342f805e02188c,94,1,2024-02-27T14:22:44.716Z,english_642.wav,0,peel,1127,48,5,4,English,m,4,0.32341667,-42.92691369,0.89750156
6529903a2b342f805e02188c,95,1,2024-02-27T14:22:44.716Z,english_666.wav,0,peel,638,48,5,4,English,m,0,0.0,-6.63307831,0.44221414
6529903a2b342f805e02188c,95,1,2024-02-27T14:22:44.716Z,english_666.wav,0,peel,638,48,5,4,English,m,1,0.1,-47.66524373,1.62559692
6529903a2b342f805e02188c,95,1,2024-02-27T14:22:44.716Z,english_666.wav,0,peel,638,48,5,4,English,m,2,0.2,66.93817534,0.27313334
6529903a2b342f805e02188c,95,1,2024-02-27T14:22:44.716Z,english_666.wav,0,peel,638,48,5,4,English,m,3,0.3,-1.338646,0.46846925
6529903a2b342f805e02188c,95,1,2024-02-27T14:22:44.716Z,english_666.wav,0,peel,638,48,5,4,English,m,4,0.32341667,-14.31927765,1.08883823
6529903a2b342f805e02188c,96,1,2024-02-27T14:22:44.716Z,english_308.wav,0,peel,870,48,5,4,English,m,0,0.0,71.04817524,1.27905886
6529903a2b342f805e02188c,96,1,2024-02-27T14:22:44.716Z,english_308.wav,0,peel,870,48,5,4,English,m,1,0.1,-29.23230128,0.28593244
6529903a2b342f805e02188c,96,1,2024-02-27T14:22:44.716Z,english_308.wav,0,peel,870,48,5,4,English,m,2,0.2,-23.90252129,0.87298087
6529903a2b342f805e02188c,96,1,2024-02-27T14:22:44.716Z,english_308.wav,0,peel,870,48,5,4,English,m,3,0.3,-20.50746627,0.50431278
6529903a2b342f805e02188c,96,1,2024-02-27T14:22:44.716Z,english_308.wav,0,peel,870,48,5,4,English,m,4,0.32341667,-25.31970697,1.06118321
6529903a2b342f805e02188c,97,1,2024-02-27T14:22:44.716Z,english_727.wav,0,pill,968,48,5,4,English,m,0,0.0,86.20347479,1.33530257
6529903a2b342f805e02188c,97,1,2024-02-27T14:22:44.716Z,english_727.wav,0,pill,968,48,5,4,English,m,1,0.1,12.26210304,1.85547333
6529903a2b342f805e02188c,97,1,2024-02-27T14:22:44.716Z,english_727.wav,0,pill,968,48,5,4,English,m,2,0.2,5.59218777,1.19683436
6529903a2b342f805e02188c,97,1,2024-02-27T14:22:44.716Z,english_727.wav,0,pill,968,48,5,4,English,m,3,0.3,-46.39280156,1.89207751
6529903a2b342f805e02188c,97,1,2024-02-27T14:22:44.716Z,english_727.wav,0,pill,968,48,5,4,English,m,4,0.32341667,21.79775503,1.05019022
6529903a2b342f805e02188c,98,1,2024-02-27T14:22:44.716Z,english_711.wav,0,pill,1615,48,5,4,English,m,0,0.0,40.88671478,0.99029016
6529903a2b342f805e02188c,98,1,2024-02-27T14:22:44.716Z,english_711.wav,0,pill,1615,48,5,4,English,m,1,0.1,9.07407961,0.54320223
6529903a2b342f805e02188c,98,1,2024-02-27T14:22:44.716Z,english_711.wav,0,pill,1615,48,5,4,English,m,2,0.2,-23.01321115,1.60107
6529903a2b342f805e02188c,98,1,2024-02-27T14:22:44.716Z,english_711.wav,0,pill,1615,48,5,4,English,m,3,0.3,-10.85681813,1.574764
6529903a2b342f805e02188c,98,1,2024-02-27T14:22:44.716Z,english_711.wav,0,pill,1615,48,5,4,English,m,4,0.32341667,87.87195083,1.34863725
6529903a2b342f805e02188c,99,1,2024-02-27T14:22:44.716Z,english_635.wav,0,pill,1633,48,5,4,English,m,0,0.0,27.7169436,1.98702335
6529903a2b342f805e02188c,99,1,2024-02-27T14:22:44.716Z,english_635.wav,0,pill,1633,48,5,4,English,m,1,0.1,-44.8292656,1.27737447
6529903a2b342f805e02188c,99,1,2024-02-27T14:22:44.716Z,english_635.wav,0,pill,1633,48,5,4,English,m,2,0.2,67.97685769,0.57401651
6529903a2b342f805e02188c,99,1,2024-02-27T14:22:44.716Z,english_635.wav,0,pill,1633,48,5,4,English,m,3,0.3,82.0264667,0.46134276
6529903a2b342f805e02188c,99,1,2024-02-27T14:22:44.716Z,english_635.wav,0,pill,1633,48,5,4,English,m,4,0.32341667,84.34985253,0.71235155
6529903a2b342f805e02188c,100,2,2024-02-27T14:25:20.632Z,english_835.wav,0,pill,668,48,5,4,English,m,0,0.0,-14.38506183,1.1584592
6529903a2b342f805e02188c,100,2,2024-02-27T14:25:20.632Z,english_835.wav,0,pill,668,48,5,4,English,m,1,0.1,-85.63264453,0.74788643
6529903a2b342f805e02188c,100,2,2024-02-27T14:25:20.632Z,english_835.wav,0,pill,668,48,5,4,English,m,2,0.2,-9.08737486,0.99645811
6529903a2b342f805e02188c,100,2,2024-02-27T14:25:20.632Z,english_835.wav,0,pill,668,48,5,4,English,m,3,0.3,-52.4382226,1.13057998
6529903a2b342f805e02188c,100,2,2024-02-27T14:25:20.632Z,english_835.wav,0,pill,668,48,5,4,English,m,4,0.32341667,30.89255677,0.17868889
6529903a2b342f805e02188c,101,2,2024-02-27T14:25:20.632Z,english_579.wav,0,peel,2703,48,5,4,English,m,0,0.0,78.52989573,1.74799876
6529903a2b342f805e02188c,101,2,2024-02-27T14:25:20.632Z,english_579.wav,0,peel,2703,48,5,4,English,m,1,0.1,-26.17758211,0.36264633
6529903a2b342f805e02188c,101,2,2024-02-27T14:25:20.632Z,english_579.wav,0,peel,2703,48,5,4,English,m,2,0.2,-65.60231522,1.15645327
6529903a2b342f805e02188c,101,2,2024-02-27T14:25:20.632Z,english_579.wav,0,peel,2703,48,5,4,English,m,3,0.3,-66.03357835,1.81639149
6529903a2b342f805e02188c,101,2,2024-02-27T14:25:20.632Z,english_579.wav,0,peel,2703,48,5,4,English,m,4,0.32341667,-36.23940811,1.38509752
6529903a2b342f805e02188c,102,2,2024-02-27T14:25:20.632Z,english_104.wav,0,peel,1702,48,5,4,English,m,0,0.0,42.44693926,0.1741435
6529903a2b342f805e02188c,102,2,2024-02-27T14:25:20.632Z,english_104.wav,0,peel,1702,48,5,4,English,m,1,0.1,82.22484934,0.11379641
6529903a2b342f805e02188c,102,2,2024-02-27T14:25:20.632Z,english_104.wav,0,peel,1702,48,5,4,English,m,2,0.2,7.21737924,1.60376175
6529903a2b342f805e02188c,102,2,2024-02-27T14:25:20.632Z,english_104.wav,0,peel,1702,48,5,4,English,m,3,0.3,26.54640215,1.08059257
6529903a2b342f805e02188c,102,2,2024-02-27T14:25:20.632Z,english_104.wav,0,peel,1702,48,5,4,English,m,4,0.32341667,-33.4974026,1.8061622
6529903a2b342f805e02188c,103,2,2024-02-27T14:25:20.632Z,english_570.wav,0,peel,442,48,5,4,English,m,0,0.0,79.72420881,1.67561776
6529903a2b342f805e02188c,103,2,2024-02-27T14:25:20.632Z,english_570.wav,0,peel,442,48,5,4,English,m,1,0.1,-10.34227762,1.50139893
6529903a2b342f805e02188c,103,2,2024-02-27T14:25:20.632Z,english_570.wav,0,peel,442,48,5,4,English,m,2,0.2,18.32754659,1.41834695
6529903a2b342f805e02188c,103,2,2024-02-27T14:25:20.632Z,english_570.wav,0,peel,442,48,5,4,English,m,3,0.3,15.23919529,1.12876239
6529903a2b342f805e02188c,103,2,2024-02-27T14:25:20.632Z,english_570.wav,0,peel,442,48,5,4,English,m,4,0.32341667,-28.05357781,0.72546523
6529903a2b342f805e02188c,104,2,2024-02-27T14:25:20.632Z,english_76.wav,0,peel,378,48,5,4,English,m,0,0.0,24.78743387,1.26829138
6529903a2b342f805e02188c,104,2,2024-02-27T14:25:20.632Z,english_76.wav,0,peel,378,48,5,4,English,m,1,0.1,-7.95135802,1.4446717
6529903a2b342f805e02188c,104,2,2024-02-27T14:25:20.632Z,english_76.wav,0,peel,378,48,5,4,English,m,2,0.2,-9.56689875,0.88177173
6529903a2b342f805e02188c,104,2,2024-02-27T14:25:20.632Z,english_76.wav,0,peel,378,48,5,4,English,m,3,0.3,-78.25819759,1.63003096
6529903a2b342f805e02188c,104,2,2024-02-27T14:25:20.632Z,english_76.wav,0,peel,378,48,5,4,English,m,4,0.32341667,26.4311908,1.97074408
6529903a2b342f805e02188c,105,2,2024-02-27T14:25:20.632Z,english_967.wav,0,peel,442,48,5,4,English,m,0,0.0,-33.19777689,0.76720641
6529903a2b342f805e02188c,105,2,2024-02-27T14:25:20.632Z,english_967.wav,0,peel,442,48,5,4,English,m,1,0.1,83.84847924,1.4094361
6529903a2b342f805e02188c,105,2,2024-02-27T14:25:20.632Z,english_967.wav,0,peel,442,48,5,4,English,m,2,0.2,81.27362124,0.74435637
6529903a2b342f805e02188c,105,2,2024-02-27T14:25:20.632Z,english_967.wav,0,peel,442,48,5,4,English,m,3,0.3,22.78466805,0.29904584
6529903a2b342f805e02188c,105,2,2024-02-27T14:25:20.632Z,english_967.wav,0,peel,442,48,5,4,English,m,4,0.32341667,16.56894366,0.47687807
6529903a2b342f805e02188c,106,2,2024-02-27T14:25:20.632Z,english_769.wav,0,peel,1238,48,5,4,English,m,0,0.0,-12.68288087,1.59358978
6529903a2b342f805e02188c,106,2,2024-02-27T14:25:20.632Z,english_769.wav,0,peel,1238,48,5,4,English,m,1,0.1,13.58895245,0.16681031
6529903a2b342f805e02188c,106,2,2024-02-27T14:25:20.632Z,english_769.wav,0,peel,1238,48,5,4,English,m,2,0.2,-5.57429841,0.74292099
6529903a2b342f805e02188c,106,2,2024-02-27T14:25:20.632Z,english_769.wav,0,peel,1238,48,5,4,English,m,3,0.3,-26.44516544,0.17250104
6529903a2b342f805e02188c,106,2,2024-02-27T14:25:20.632Z,english_769.wav,0,peel,1238,48,5,4,English,m,4,0.32341667,85.93285426,0.16730253
6529903a2b342f805e02188c,107,2,2024-02-27T14:25:20.632Z,english_345.wav,0,peel,447,48,5,4,English,m,0,0.0,-46.00579497,1.58751342
6529903a2b342f805e02188c,107,2,2024-02-27T14:25:20.632Z,english_345.wav,0,peel,447,48,5,4,English,m,1,0.1,-45.5805492,1.0202646
6529903a2b342f805e02188c,107,2,2024-02-27T14:25:20.632Z,english_345.wav,0,peel,447,48,5,4,English,m,2,0.2,-14.04378539,0.61561299
6529903a2b342f805e02188c,107,2,2024-02-27T14:25:20.632Z,english_345.wav,0,peel,447,48,5,4,English,m,3,0.3,63.72413351,1.21547564
6529903a2b342f805e02188c,107,2,2024-02-27T14:25:20.632Z,english_345.wav,0,peel,447,48,5,4,English,m,4,0.32341667,18.03717792,1.47127253
6529903a2b342f805e02188c,108,2,2024-02-27T14:25:20.632Z,english_393.wav,0,peel,1115,48,5,4,English,m,0,0.0,3.63201436,1.68653621
6529903a2b342f805e02188c,108,2,2024-02-27T14:25:20.632Z,english_393.wav,0,peel,1115,48,5,4,English,m,1,0.1,64.52667935,0.22518435
6529903a2b342f805e02188c,108,2,2024-02-27T14:25:20.632Z,english_393.wav,0,peel,1115,48,5,4,English,m,2,0.2,-51.23523019,0.07728703
6529903a2b342f805e02188c,108,2,2024-02-27T14:25:20.632Z,english_393.wav,0,peel,1115,48,5,4,English,m,3,0.3,-89.75219839,0.70962284
6529903a2b342f805e02188c,108,2,2024-02-27T14:25:20.632Z,english_393.wav,0,peel,1115,48,5,4,English,m,4,0.32341667,-66.06218428,0.7432397
6529903a2b342f805e02188c,109,2,2024-02-27T14:25:20.632Z,english_669.wav,0,peel,665,48,5,4,English,m,0,0.0,-58.38123624,0.53455866
6529903a2b342f805e02188c,109,2,2024-02-27T14:25:20.632Z,english_669.wav,0,peel,665,48,5,4,English,m,1,0.1,-80.20155876,0.64376179
6529903a2b342f805e02188c,109,2,2024-02-27T14:25:20.632Z,english_669.wav,0,peel,665,48,5,4,English,m,2,0.2,-25.59737246,0.76694756
6529903a2b342f805e02188c,109,2,2024-02-27T14:25:20.632Z,english_669.wav,0,peel,665,48,5,4,English,m,3,0.3,-30.25633946,1.36842807
6529903a2b342f805e02188c,109,2,2024-02-27T14:25:20.632Z,english_669.wav,0,peel,665,48,5,4,English,m,4,0.32341667,-70.78768349,0.06434218
6529903a2b342f805e02188c,110,2,2024-02-27T14:25:20.632Z,english_962.wav,0,peel,489,48,5,4,English,m,0,0.0,-55.512918,1.78332996
6529903a2b342f805e02188c,110,2,2024-02-27T14:25:20.632Z,english_962.wav,0,peel,489,48,5,4,English,m,1,0.1,90.34773129,1.25956614
6529903a2b342f805e02188c,110,2,2024-02-27T14:25:20.632Z,english_962.wav,0,peel,489,48,5,4,English,m,2,0.2,-3.10818459,0.72891593
6529903a2b342f805e02188c,110,2,2024-02-27T14:25:20.632Z,english_962.wav,0,peel,489,48,5,4,English,m,3,0.3,50.27619033,1.49954356
6529903a2b342f805e02188c,110,2,2024-02-27T14:25:20.632Z,english_962.wav,0,peel,489,48,5,4,English,m,4,0.32341667,-47.3196173,0.96339983
6529903a2b342f805e02188c,111,2,2024-02-27T14:25:20.632Z,english_350.wav,0,pill,653,48,5,4,English,m,0,0.0,97.64268741,0.61487918
6529903a2b342f805e02188c,111,2,2024-02-27T14:25:20.632Z,english_350.wav,0,pill,653,48,5,4,English,m,1,0.1,23.96704837,0.40988424
6529903a2b342f805e02188c,111,2,2024-02-27T14:25:20.632Z,english_350.wav,0,pill,653,48,5,4,English,m,2,0.2,50.30792237,0.86872158
6529903a2b342f805e02188c,111,2,2024-02-27T14:25:20.632Z,english_350.wav,0,pill,653,48,5,4,English,m,3,0.3,71.77937185,1.01783109
6529903a2b342f805e02188c,111,2,2024-02-27T14:25:20.632Z,english_350.wav,0,pill,653,48,5,4,English,m,4,0.32341667,-64.81416361,0.68761283
6529903a2b342f805e02188c,112,2,2024-02-27T14:25:20.632Z,english_681.wav,0,peel,488,48,5,4,English,m,0,0.0,65.45313908,1.43173201
6529903a2b342f805e02188c,112,2,2024-02-27T14:25:20.632Z,english_681.wav,0,peel,488,48,5,4,English,m,1,0.1,23.22224239,1.64604346
6529903a2b342f805e02188c,112,2,2024-02-27T14:25:20.632Z,english_681.wav,0,peel,488,48,5,4,English,m,2,0.2,44.35096717,0.82186037
6529903a2b342f805e02188c,112,2,2024-02-27T14:25:20.632Z,english_681.wav,0,peel,488,48,5,4,English,m,3,0.3,67.45757963,0.26689352
6529903a2b342f805e02188c,112,2,2024-02-27T14:25:20.632Z,english_681.wav,0,peel,488,48,5,4,English,m,4,0.32341667,55.5822091,1.64490636
6529903a2b342f805e02188c,113,2,2024-02-27T14:25:20.632Z,english_476.wav,0,peel,542,48,5,4,English,m,0,0.0,67.27413703,1.71507594
6529903a2b342f805e02188c,113,2,2024-02-27T14:25:20.632Z,english_476.wav,0,peel,542,48,5,4,English,m,1,0.1,-35.99891676,1.5691203
6529903a2b342f805e02188c,113,2,2024-02-27T14:25:20.632Z,english_476.wav,0,peel,542,48,5,4,English,m,2,0.2,53.1347651,0.1869461
6529903a2b342f805e02188c,113,2,2024-02-27T14:25:20.632Z,english_476.wav,0,peel,542,48,5,4,English,m,3,0.3,-27.53585108,0.94822926
6529903a2b342f805e02188c,113,2,2024-02-27T14:25:20.632Z,english_476.wav,0,peel,542,48,5,4,English,m,4,0.32341667,13.88563074,1.63186757
6529903a2b342f805e02188c,114,2,2024-02-27T14:25:20.632Z,english_56.wav,0,peel,551,48,5,4,English,m,0,0.0,47.39262259,1.7837475
6529903a2b342f805e02188c,114,2,2024-02-27T14:25:20.632Z,english_56.wav,0,peel,551,48,5,4,English,m,1,0.1,8.89686315,1.39740624
6529903a2b342f805e02188c,114,2,2024-02-27T14:25:20.632Z,english_56.wav,0,peel,551,48,5,4,English,m,2,0.2,-49.65570225,0.11209095
6529903a2b342f805e02188c,114,2,2024-02-27T14:25:20.632Z,english_56.wav,0,peel,551,48,5,4,English,m,3,0.3,44.77904805,1.4946119
6529903a2b342f805e02188c,114,2,2024-02-27T14:25:20.632Z,english_56.wav,0,peel,551,48,5,4,English,m,4,0.32341667,-94.65832844,1.03498606
6529903a2b342f805e02188c,115,2,2024-02-27T14:25:20.632Z,english_650.wav,0,peel,691,48,5,4,English,m,0,0.0,-14.34164867,1.10695192
6529903a2b342f805e02188c,115,2,2024-02-27T14:25:20.632Z,english_650.wav,0,peel,691,48,5,4,English,m,1,0.1,-59.47569919,1.2442548
6529903a2b342f805e02188c,115,2,2024-02-27T14:25:20.632Z,english_650.wav,0,peel,691,48,5,4,English,m,2,0.2,-47.0995584,0.31281267
6529903a2b342f805e02188c,115,2,2024-02-27T14:25:20.632Z,english_650.wav,0,peel,691,48,5,4,English,m,3,0.3,-55.25841156,1.9869399
6529903a2b342f805e02188c,115,2,2024-02-27T14:25:20.632Z,english_650.wav,0,peel,691,48,5,4,English,m,4,0.32341667,83.92345375,1.10607629
6529903a2b342f805e02188c,116,2,2024-02-27T14:25:20.632Z,english_107.wav,0,pill,688,48,5,4,English,m,0,0.0,-19.24931684,0.69122185
6529903a2b342f805e02188c,116,2,2024-02-27T14:25:20.632Z,english_107.wav,0,pill,688,48,5,4,English,m,1,0.1,24.04874113,0.13674094
6529903a2b342f805e02188c,116,2,2024-02-27T14:25:20.632Z,english_107.wav,0,pill,688,48,5,4,English,m,2,0.2,59.01955179,1.47608642
6529903a2b342f805e02188c,116,2,2024-02-27T14:25:20.632Z,english_107.wav,0,pill,688,48,5,4,English,m,3,0.3,49.74315823,1.52525824
6529903a2b342f805e02188c,116,2,2024-02-27T14:25:20.632Z,english_107.wav,0,pill,688,48,5,4,English,m,4,0.32341667,-75.23844627,0.11985114
6529903a2b342f805e02188c,117,2,2024-02-27T14:25:20.632Z,english_764.wav,0,pill,771,48,5,4,English,m,0,0.0,7.00590276,1.84020442
6529903a2b342f805e02188c,117,2,2024-02-27T14:25:20.632Z,english_764.wav,0,pill,771,48,5,4,English,m,1,0.1,-69.33047837,0.1607256
6529903a2b342f805e02188c,117,2,2024-02-27T14:25:20.632Z,english_764.wav,0,pill,771,48,5,4,English,m,2,0.2,-20.89747671,1.70981587
6529903a2b342f805e02188c,117,2,2024-02-27T14:25:20.632Z,english_764.wav,0,pill,771,48,5,4,English,m,3,0.3,-96.63564891,1.13854431
6529903a2b342f805e02188c,117,2,2024-02-27T14:25:20.632Z,english_764.wav,0,pill,771,48,5,4,English,m,4,0.32341667,78.55111455,1.5536836
6529903a2b342f805e02188c,118,2,2024-02-27T14:25:20.632Z,english_667.wav,0,pill,1760,48,5,4,English,m,0,0.0,-36.96649028,1.3014101
6529903a2b342f805e02188c,118,2,2024-02-27T14:25:20.632Z,english_667.wav,0,pill,1760,48,5,4,English,m,1,0.1,9.08709827,0.05882523
6529903a2b342f805e02188c,118,2,2024-02-27T14:25:20.632Z,english_667.wav,0,pill,1760,48,5,4,English,m,2,0.2,85.36553945,1.428997
6529903a2b342f805e02188c,118,2,2024-02-27T14:25:20.632Z,english_667.wav,0,pill,1760,48,5,4,English,m,3,0.3,-41.19556041,1.2429303
6529903a2b342f805e02188c,118,2,2024-02-27T14:25:20.632Z,english_667.wav,0,pill,1760,48,5,4,English,m,4,0.32341667,-31.79783786,0.97363261
6529903a2b342f805e02188c,119,2,2024-02-27T14:25:20.632Z,english_366.wav,0,peel,1383,48,5,4,English,m,0,0.0,30.08929792,0.87054072
6529903a2b342f805e02188c,119,2,2024-02-27T14:25:20.632Z,english_366.wav,0,peel,1383,48,5,4,English,m,1,0.1,-17.9139155,0.34658018
6529903a2b342f805e02188c,119,2,2024-02-27T14:25:20.632Z,english_366.wav,0,peel,1383,48,5,4,English,m,2,0.2,-66.75779592,0.49970414
6529903a2b342f805e02188c,119,2,2024-02-27T14:25:20.632Z,english_366.wav,0,peel,1383,48,5,4,English,m,3,0.3,77.64459909,1.94720887
6529903a2b342f805e02188c,119,2,2024-02-27T14:25:20.632Z,english_366.wav,0,peel,1383,48,5,4,English,m,4,0.32341667,72.64294537,1.76390144
6529903a2b342f805e02188c,120,2,2024-02-27T14:25:20.632Z,english_165.wav,0,peel,633,48,5,4,English,m,0,0.0,-65.85966689,0.99094124
6529903a2b342f805e02188c,120,2,2024-02-27T14:25:20.632Z,english_165.wav,0,peel,633,48,5,4,English,m,1,0.1,57.4210377,1.25140592
6529903a2b342f805e02188c,120,2,2024-02-27T14:25:20.632Z,english_165.wav,0,peel,633,48,5,4,English,m,2,0.2,-53.4891742,1.66606931
6529903a2b342f805e02188c,120,2,2024-02-27T14:25:20.632Z,english_165.wav,0,peel,633,48,5,4,English,m,3,0.3,-32.80877015,0.56557264
6529903a2b342f805e02188c,120,2,2024-02-27T14:25:20.632Z,english_165.wav,0,peel,633,48,5,4,English,m,4,0.32341667,-23.63509804,1.31427626
6529903a2b342f805e02188c,121,2,2024-02-27T14:25:20.632Z,english_444.wav,0,peel,1384,48,5,4,English,m,0,0.0,57.2872587,0.52242118
6529903a2b342f805e02188c,121,2,2024-02-27T14:25:20.632Z,english_444.wav,0,peel,1384,48,5,4,English,m,1,0.1,68.85097071,1.61316948
6529903a2b342f805e02188c,121,2,2024-02-27T14:25:20.632Z,english_444.wav,0,peel,1384,48,5,4,English,m,2,0.2,-30.10164543,0.15196309
6529903a2b342f805e02188c,121,2,2024-02-27T14:25:20.632Z,english_444.wav,0,peel,1384,48,5,4,English,m,3,0.3,-57.0249627,0.44426911
6529903a2b342f805e02188c,121,2,2024-02-27T14:25:20.632Z,english_444.wav,0,peel,1384,48,5,4,English,m,4,0.32341667,-54.19692118,1.48693747
6529903a2b342f805e02188c,122,2,2024-02-27T14:25:20.632Z,english_556.wav,0,peel,531,48,5,4,English,m,0,0.0,35.62658416,1.88481821
6529903a2b342f805e02188c,122,2,2024-02-27T14:25:20.632Z,english_556.wav,0,peel,531,48,5,4,English,m,1,0.1,28.75181601,0.4023528
6529903a2b342f805e02188c,122,2,2024-02-27T14:25:20.632Z,english_556.wav,0,peel,531,48,5,4,English,m,2,0.2,-2.62389444,1.49364055
6529903a2b342f805e02188c,122,2,2024-02-27T14:25:20.632Z,english_556.wav,0,peel,531,48,5,4,English,m,3,0.3,64.03572584,1.54190039
6529903a2b342f805e02188c,122,2,2024-02-27T14:25:20.632Z,english_556.wav,0,peel,531,48,5,4,English,m,4,0.32341667,72.79696002,0.53435232
6529903a2b342f805e02188c,123,2,2024-02-27T14:25:20.632Z,english_605.wav,0,peel,893,48,5,4,English,m,0,0.0,-82.65591545,0.90945233
6529903a2b342f805e02188c,123,2,2024-02-27T14:25:20.632Z,english_605.wav,0,peel,893,48,5,4,English,m,1,0.1,35.78886654,1.65178877
6529903a2b342f805e02188c,123,2,2024-02-27T14:25:20.632Z,english_605.wav,0,peel,893,48,5,4,English,m,2,0.2,-36.80716754,0.21181898
6529903a2b342f805e02188c,123,2,2024-02-27T14:25:20.632Z,english_605.wav,0,peel,893,48,5,4,English,m,3,0.3,-4.39131435,1.21754483
6529903a2b342f805e02188c,123,2,2024-02-27T14:25:20.632Z,english_605.wav,0,peel,893,48,5,4,English,m,4,0.32341667,-17.17702763,1.60493484
6529903a2b342f805e02188c,124,2,2024-02-27T14:25:20.632Z,english_942.wav,0,pill,1633,48,5,4,English,m,0,0.0,96.26286183,1.14976657
6529903a2b342f805e02188c,124,2,2024-02-27T14:25:20.632Z,english_942.wav,0,pill,1633,48,5,4,English,m,1,0.1,-96.45992778,0.962364
6529903a2b342f805e02188c,124,2,2024-02-27T14:25:20.632Z,english_942.wav,0,pill,1633,48,5,4,English,m,2,0.2,50.93322043,0.99280793
6529903a2b342f805e02188c,124,2,2024-02-27T14:25:20.632Z,english_942.wav,0,pill,1633,48,5,4,English,m,3,0.3,14.6207779,1.92237923
6529903a2b342f805e02188c,124,2,2024-02-27T14:25:20.632Z,english_942.wav,0,pill,1633,48,5,4,English,m,4,0.32341667,7.19296333,1.02094568
6529903a2b342f805e02188c,125,2,2024-02-27T14:25:20.632Z,english_634.wav,0,peel,597,48,5,4,English,m,0,0.0,-94.29539956,0.6011183
6529903a2b342f805e02188c,125,2,2024-02-27T14:25:20.632Z,english_634.wav,0,peel,597,48,5,4,English,m,1,0.1,28.41708136,1.15242669
6529903a2b342f805e02188c,125,2,2024-02-27T14:25:20.632Z,english_634.wav,0,peel,597,48,5,4,English,m,2,0.2,-99.13935281,0.68826906
6529903a2b342f805e02188c,125,2,2024-02-27T14:25:20.632Z,english_634.wav,0,peel,597,48,5,4,English,m,3,0.3,-78.11216949,1.44169335
6529903a2b342f805e02188c,125,2,2024-02-27T14:25:20.632Z,english_634.wav,0,peel,597,48,5,4,English,m,4,0.32341667,-54.5881907,0.90266094
6529903a2b342f805e02188c,126,2,2024-02-27T14:25:20.632Z,english_288.wav,0,pill,1157,48,5,4,English,m,0,0.0,35.15100251,1.01330681
6529903a2b342f805e02188c,126,2,2024-02-27T14:25:20.632Z,english_288.wav,0,pill,1157,48,5,4,English,m,1,0.1,49.55485069,0.90213232
6529903a2b342f805e02188c,126,2,2024-02-27T14:25:20.632Z,english_288.wav,0,pill,1157,48,5,4,English,m,2,0.2,28.604189,1.8181607
6529903a2b342f805e02188c,126,2,2024-02-27T14:25:20.632Z,english_288.wav,0,pill,1157,48,5,4,English,m,3,0.3,38.59633835,1.82579698
6529903a2b342f805e02188c,126,2,2024-02-27T14:25:20.632Z,english_288.wav,0,pill,1157,48,5,4,English,m,4,0.32341667,-98.9026904,0.14571105
6529903a2b342f805e02188c,127,2,2024-02-27T14:25:20.632Z,english_553.wav,0,peel,486,48,5,4,English,m,0,0.0,-18.85071283,1.30647824
6529903a2b342f805e02188c,127,2,2024-02-27T14:25:20.632Z,english_553.wav,0,peel,486,48,5,4,English,m,1,0.1,56.72439372,1.55205535
6529903a2b342f805e02188c,127,2,2024-02-27T14:25:20.632Z,english_553.wav,0,peel,486,48,5,4,English,m,2,0.2,-32.51510613,1.79127341
6529903a2b342f805e02188c,127,2,2024-02-27T14:25:20.632Z,english_553.wav,0,peel,486,48,5,4,English,m,3,0.3,-81.56708954,0.1795284
6529903a2b342f805e02188c,127,2,2024-02-27T14:25:20.632Z,english_553.wav,0,peel,486,48,5,4,English,m,4,0.32341667,42.80590219,0.48805839
6529903a2b342f805e02188c,128,2,2024-02-27T14:25:20.632Z,english_914.wav,0,pill,580,48,5,4,English,m,0,0.0,37.51857345,0.04486829
6529903a2b342f805e02188c,128,2,2024-02-27T14:25:20.632Z,english_914.wav,0,pill,580,48,5,4,English,m,1,0.1,-30.53068311,1.18486584
6529903a2b342f805e02188c,128,2,2024-02-27T14:25:20.632Z,english_914.wav,0,pill,580,48,5,4,English,m,2,0.2,-12.980452,1.58356311
6529903a2b342f805e02188c,128,2,2024-02-27T14:25:20.632Z,english_914.wav,0,pill,580,48,5,4,English,m,3,0.3,-99.09260462,1.35478251
6529903a2b342f805e02188c,128,2,2024-02-27T14:25:20.632Z,english_914.wav,0,pill,580,48,5,4,English,m,4,0.32341667,-34.91402533,1.16671671
6529903a2b342f805e02188c,129,2,2024-02-27T14:25:20.632Z,english_358.wav,0,pill,838,48,5,4,English,m,0,0.0,-24.40280242,0.64702298
6529903a2b342f805e02188c,129,2,2024-02-27T14:25:20.632Z,english_358.wav,0,pill,838,48,5,4,English,m,1,0.1,62.18566088,0.86836285
6529903a2b342f805e02188c,129,2,2024-02-27T14:25:20.632Z,english_358.wav,0,pill,838,48,5,4,English,m,2,0.2,5.26675109,1.05826104
6529903a2b342f805e02188c,129,2,2024-02-27T14:25:20.632Z,english_358.wav,0,pill,838,48,5,4,English,m,3,0.3,-31.91571391,1.98011631
6529903a2b342f805e02188c,129,2,2024-02-27T14:25:20.632Z,english_358.wav,0,pill,838,48,5,4,English,m,4,0.32341667,27.35112364,0.35058307
6529903a2b342f805e02188c,130,2,2024-02-27T14:25:20.632Z,english_836.wav,0,peel,1091,48,5,4,English,m,0,0.0,34.85846782,1.04017402
6529903a2b342f805e02188c,130,2,2024-02-27T14:25:20.632Z,english_836.wav,0,peel,1091,48,5,4,English,m,1,0.1,41.54458908,0.35535359
6529903a2b342f805e02188c,130,2,2024-02-27T14:25:20.632Z,english_836.wav,0,peel,1091,48,5,4,English,m,2,0.2,23.27363575,0.10471693
6529903a2b342f805e02188c,130,2,2024-02-27T14:25:20.632Z,english_836.wav,0,peel,1091,48,5,4,English,m,3,0.3,86.83996211,0.55523491
6529903a2b342f805e02188c,130,2,2024-02-27T14:25:20.632Z,english_836.wav,0,peel,1091,48,5,4,English,m,4,0.32341667,-32.25656931,0.70311776
6529903a2b342f805e02188c,131,2,2024-02-27T14:25:20.632Z,english_367.wav,0,peel,1713,48,5,4,English,m,0,0.0,69.68935346,1.12532443
6529903a2b342f805e02188c,131,2,2024-02-27T14:25:20.632Z,english_367.wav,0,peel,1713,48,5,4,English,m,1,0.1,-21.84293244,1.15903886
6529903a2b342f805e02188c,131,2,2024-02-27T14:25:20.632Z,english_367.wav,0,peel,1713,48,5,4,English,m,2,0.2,-22.40126322,1.68834661
6529903a2b342f805e02188c,131,2,2024-02-27T14:25:20.632Z,english_367.wav,0,peel,1713,48,5,4,English,m,3,0.3,-77.83415675,1.78966274
6529903a2b342f805e02188c,131,2,2024-02-27T14:25:20.632Z,english_367.wav,0,peel,1713,48,5,4,English,m,4,0.32341667,18.42522507,1.57311162
6529903a2b342f805e02188c,132,2,2024-02-27T14:25:20.632Z,english_829.wav,0,peel,894,48,5,4,English,m,0,0.0,60.30417439,0.94286345
6529903a2b342f805e02188c,132,2,2024-02-27T14:25:20.632Z,english_829.wav,0,peel,894,48,5,4,English,m,1,0.1,-26.87459656,0.76756767
6529903a2b342f805e02188c,132,2,2024-02-27T14:25:20.632Z,english_829.wav,0,peel,894,48,5,4,English,m,2,0.2,59.05286014,1.50609211
6529903a2b342f805e02188c,132,2,2024-02-27T14:25:20.632Z,english_829.wav,0,peel,894,48,5,4,English,m,3,0.3,-38.64739237,0.33518122
6529903a2b342f805e02188c,132,2,2024-02-27T14:25:20.632Z,english_829.wav,0,peel,894,48,5,4,English,m,4,0.32341667,68.61732932,1.40687349
6529903a2b342f805e02188c,133,2,2024-02-27T14:25:20.632Z,english_994.wav,0,peel,1526,48,5,4,English,m,0,0.0,53.6083957,1.72152032
6529903a2b342f805e02188c,133,2,2024-02-27T14:25:20.632Z,english_994.wav,0,peel,1526,48,5,4,English,m,1,0.1,62.5650281,0.97077126
6529903a2b342f805e02188c,133,2,2024-02-27T14:25:20.632Z,english_994.wav,0,peel,1526,48,5,4,English,m,2,0.2,91.00734213,1.1154275
6529903a2b342f805e02188c,133,2,2024-02-27T14:25:20.632Z,english_994.wav,0,peel,1526,48,5,4,English,m,3,0.3,-14.6853323,0.93534142
6529903a2b342f805e02188c,133,2,2024-02-27T14:25:20.632Z,english_994.wav,0,peel,1526,48,5,4,English,m,4,0.32341667,42.94025292,1.51312842
6529903a2b342f805e02188c,134,2,2024-02-27T14:25:20.632Z,english_827.wav,0,peel,1064,48,5,4,English,m,0,0.0,-49.24128803,1.70838213
6529903a2b342f805e02188c,134,2,2024-02-27T14:25:20.632Z,english_827.wav,0,peel,1064,48,5,4,English,m,1,0.1,62.6158679,0.88048656
6529903a2b342f805e02188c,134,2,2024-02-27T14:25:20.632Z,english_827.wav,0,peel,1064,48,5,4,English,m,2,0.2,-85.72053716,1.47530841
6529903a2b342f805e02188c,134,2,2024-02-27T14:25:20.632Z,english_827.wav,0,peel,1064,48,5,4,English,m,3,0.3,-65.54354982,0.04991031
6529903a2b342f805e02188c,134,2,2024-02-27T14:25:20.632Z,english_827.wav,0,peel,1064,48,5,4,English,m,4,0.32341667,-42.30235352,0.1531298
6529903a2b342f805e02188c,135,2,2024-02-27T14:25:20.632Z,english_210.wav,0,pill,689,48,5,4,English,m,0,0.0,43.03172008,0.27268056
6529903a2b342f805e02188c,135,2,2024-02-27T14:25:20.632Z,english_210.wav,0,pill,689,48,5,4,English,m,1,0.1,58.48529179,0.59270989
6529903a2b342f805e02188c,135,2,2024-02-27T14:25:20.632Z,english_210.wav,0,pill,689,48,5,4,English,m,2,0.2,57.29337371,1.57355776
6529903a2b342f805e02188c,135,2,2024-02-27T14:25:20.632Z,english_210.wav,0,pill,689,48,5,4,English,m,3,0.3,-45.34642936,1.97663548
6529903a2b342f805e02188c,135,2,2024-02-27T14:25:20.632Z,english_210.wav,0,pill,689,48,5,4,English,m,4,0.32341667,-3.49486879,1.39997912
6529903a2b342f805e02188c,136,2,2024-02-27T14:25:20.632Z,english_36.wav,0,pill,563,48,5,4,English,m,0,0.0,8.79498818,0.0614271
6529903a2b342f805e02188c,136,2,2024-02-27T14:25:20.632Z,english_36.wav,0,pill,563,48,5,4,English,m,1,0.1,-18.99628775,0.22652961
6529903a2b342f805e02188c,136,2,2024-02-27T14:25:20.632Z,english_36.wav,0,pill,563,48,5,4,English,m,2,0.2,-17.40156662,0.46484299
6529903a2b342f805e02188c,136,2,2024-02-27T14:25:20.632Z,english_36.wav,0,pill,563,48,5,4,English,m,3,0.3,-85.73958234,0.81464033
6529903a2b342f805e02188c,136,2,2024-02-27T14:25:20.632Z,english_36.wav,0,pill,563,48,5,4,English,m,4,0.32341667,45.44069908,0.21843777
6529903a2b342f805e02188c,137,2,2024-02-27T14:25:20.632Z,english_283.wav,0,peel,1262,48,5,4,English,m,0,0.0,-27.01977409,1.23470843
6529903a2b342f805e02188c,137,2,2024-02-27T14:25:20.632Z,english_283.wav,0,peel,1262,48,5,4,English,m,1,0.1,-58.6063919,0.41737987
6529903a2b342f805e02188c,137,2,2024-02-27T14:25:20.632Z,english_283.wav,0,peel,1262,48,5,4,English,m,2,0.2,36.15867228,0.64455365
6529903a2b342f805e02188c,137,2,2024-02-27T14:25:20.632Z,english_283.wav,0,peel,1262,48,5,4,English,m,3,0.3,-77.91689069,1.80541824
6529903a2b342f805e02188c,137,2,2024-02-27T14:25:20.632Z,english_283.wav,0,peel,1262,48,5,4,English,m,4,0.32341667,-77.99680679,1.86024907
6529903a2b342f805e02188c,138,2,2024-02-27T14:25:20.632Z,english_125.wav,0,peel,1245,48,5,4,English,m,0,0.0,-5.59692586,0.61478703
6529903a2b342f805e02188c,138,2,2024-02-27T14:25:20.632Z,english_125.wav,0,peel,1245,48,5,4,English,m,1,0.1,45.61970603,0.5852269
6529903a2b342f805e02188c,138,2,2024-02-27T14:25:20.632Z,english_125.wav,0,peel,1245,48,5,4,English,m,2,0.2,-80.48713695,1.26290546
6529903a2b342f805e02188c,138,2,2024-02-27T14:25:20.632Z,english_125.wav,0,peel,1245,48,5,4,English,m,3,0.3,76.65956808,1.54178375
6529903a2b342f805e02188c,138,2,2024-02-27T14:25:20.632Z,english_125.wav,0,peel,1245,48,5,4,English,m,4,0.32341667,-9.14506838,0.79261171
6529903a2b342f805e02188c,139,2,2024-02-27T14:25:20.632Z,english_735.wav,0,pill,730,48,5,4,English,m,0,0.0,51.40973306,0.29099813
6529903a2b342f805e02188c,139,2,2024-02-27T14:25:20.632Z,english_735.wav,0,pill,730,48,5,4,English,m,1,0.1,-5.42867159,1.62833375
6529903a2b342f805e02188c,139,2,2024-02-27T14:25:20.632Z,english_735.wav,0,pill,730,48,5,4,English,m,2,0.2,13.71146629,0.32849247
6529903a2b342f805e02188c,139,2,2024-02-27T14:25:20.632Z,english_735.wav,0,pill,730,48,5,4,English,m,3,0.3,-14.17202169,0.46991549
6529903a2b342f805e02188c,139,2,2024-02-27T14:25:20.632Z,english_735.wav,0,pill,730,48,5,4,English,m,4,0.32341667,14.98699592,0.51625305
6529903a2b342f805e02188c,140,2,2024-02-27T14:25:20.632Z,english_903.wav,0,pill,769,48,5,4,English,m,0,0.0,73.58848698,0.30588109
6529903a2b342f805e02188c,140,2,2024-02-27T14:25:20.632Z,english_903.wav,0,pill,769,48,5,4,English,m,1,0.1,-95.58060262,0.88963747
6529903a2b342f805e02188c,140,2,2024-02-27T14:25:20.632Z,english_903.wav,0,pill,769,48,5,4,English,m,2,0.2,17.41642173,1.73634476
6529903a2b342f805e02188c,140,2,2024-02-27T14:25:20.632Z,english_903.wav,0,pill,769,48,5,4,English,m,3,0.3,94.35223882,0.71257749
6529903a2b342f805e02188c,140,2,2024-02-27T14:25:20.632Z,english_903.wav,0,pill,769,48,5,4,English,m,4,0.32341667,-49.48803877,1.4824474
6529903a2b342f805e02188c,141,2,2024-02-27T14:25:20.632Z,english_197.wav,0,peel,448,48,5,4,English,m,0,0.0,-60.72223742,1.8449777
6529903a2b342f805e02188c,141,2,2024-02-27T14:25:20.632Z,english_197.wav,0,peel,448,48,5,4,English,m,1,0.1,-88.93421142,1.74693134
6529903a2b342f805e02188c,141,2,2024-02-27T14:25:20.632Z,english_197.wav,0,peel,448,48,5,4,English,m,2,0.2,51.43827126,1.11057597
6529903a2b342f805e02188c,141,2,2024-02-27T14:25:20.632Z,english_197.wav,0,peel,448,48,5,4,English,m,3,0.3,7.80125839,1.67371275
6529903a2b342f805e02188c,141,2,2024-02-27T14:25:20.632Z,english_197.wav,0,peel,448,48,5,4,English,m,4,0.32341667,-53.06876459,1.16077516
6529903a2b342f805e02188c,142,2,2024-02-27T14:25:20.632Z,english_685.wav,0,peel,1132,48,5,4,English,m,0,0.0,91.61032892,0.4504418
6529903a2b342f805e02188c,142,2,2024-02-27T14:25:20.632Z,english_685.wav,0,peel,1132,48,5,4,English,m,1,0.1,39.6206555,1.04279806
6529903a2b342f805e02188c,142,2,2024-02-27T14:25:20.632Z,english_685.wav,0,peel,1132,48,5,4,English,m,2,0.2,-3.19880539,1.33634651
6529903a2b342f805e02188c,142,2,2024-02-27T14:25:20.632Z,english_685.wav,0,peel,1132,48,5,4,English,m,3,0.3,-72.84721689,1.25094987
6529903a2b342f805e02188c,142,2,2024-02-27T14:25:20.632Z,english_685.wav,0,peel,1132,48,5,4,English,m,4,0.32341667,98.11411302,0.37726169
6529903a2b342f805e02188c,143,2,2024-02-27T14:25:20.632Z,english_58.wav,0,peel,1109,48,5,4,English,m,0,0.0,20.12478601,1.19415515
6529903a2b342f805e02188c,143,2,2024-02-27T14:25:20.632Z,english_58.wav,0,peel,1109,48,5,4,English,m,1,0.1,-22.60038942,0.26098942
6529903a2b342f805e02188c,143,2,2024-02-27T14:25:20.632Z,english_58.wav,0,peel,1109,48,5,4,English,m,2,0.2,34.38627512,1.99195241
6529903a2b342f805e02188c,143,2,2024-02-27T14:25:20.632Z,english_58.wav,0,peel,1109,48,5,4,English,m,3,0.3,30.90369434,0.42925074
6529903a2b342f805e02188c,143,2,2024-02-27T14:25:20.632Z,english_58.wav,0,peel,1109,48,5,4,English,m,4,0.32341667,11.39971337,0.50368767
6529903a2b342f805e02188c,144,2,2024-02-27T14:25:20.632Z,english_349.wav,0,peel,968,48,5,4,English,m,0,0.0,-10.00495534,0.36915768
6529903a2b342f805e02188c,144,2,2024-02-27T14:25:20.632Z,english_349.wav,0,peel,968,48,5,4,English,m,1,0.1,54.31199814,0.83111041
6529903a2b342f805e02188c,144,2,2024-02-27T14:25:20.632Z,english_349.wav,0,peel,968,48,5,4,English,m,2,0.2,48.17968705,1.70147194
6529903a2b342f805e02188c,144,2,2024-02-27T14:25:20.632Z,english_349.wav,0,peel,968,48,5,4,English,m,3,0.3,8.48926652,1.08588898
6529903a2b342f805e02188c,144,2,2024-02-27T14:25:20.632Z,english_349.wav,0,peel,968,48,5,4,English,m,4,0.32341667,42.05620052,0.02584958
6529903a2b342f805e02188c,145,2,2024-02-27T14:25:20.632Z,english_187.wav,0,pill,961,48,5,4,English,m,0,0.0,-18.35695568,0.61755768
6529903a2b342f805e02188c,145,2,2024-02-27T14:25:20.632Z,english_187.wav,0,pill,961,48,5,4,English,m,1,0.1,10.21632188,1.6626445
6529903a2b342f805e02188c,145,2,2024-02-27T14:25:20.632Z,english_187.wav,0,pill,961,48,5,4,English,m,2,0.2,0.69047377,0.70950015
6529903a2b342f805e02188c,145,2,2024-02-27T14:25:20.632Z,english_187.wav,0,pill,961,48,5,4,English,m,3,0.3,67.68385624,0.8856252
6529903a2b342f805e02188c,145,2,2024-02-27T14:25:20.632Z,english_187.wav,0,pill,961,48,5,4,English,m,4,0.32341667,48.15291114,1.92627472
6529903a2b342f805e02188c,146,2,2024-02-27T14:25:20.632Z,english_814.wav,0,peel,1404,48,5,4,English,m,0,0.0,-63.32480856,1.93717082
6529903a2b342f805e02188c,146,2,2024-02-27T14:25:20.632Z,english_814.wav,0,peel,1404,48,5,4,English,m,1,0.1,34.42157774,0.66627456
6529903a2b342f805e02188c,146,2,2024-02-27T14:25:20.632Z,english_814.wav,0,peel,1404,48,5,4,English,m,2,0.2,-1.27362148,1.33718687
6529903a2b342f805e02188c,146,2,2024-02-27T14:25:20.632Z,english_814.wav,0,peel,1404,48,5,4,English,m,3,0.3,11.18388565,1.12749716
6529903a2b342f805e02188c,146,2,2024-02-27T14:25:20.632Z,english_814.wav,0,peel,1404,48,5,4,English,m,4,0.32341667,-9.56708644,0.66623879
6529903a2b342f805e02188c,147,2,2024-02-27T14:25:20.632Z,english_280.wav,0,pill,1194,48,5,4,English,m,0,0.0,88.60957906,0.0301642
6529903a2b342f805e02188c,147,2,2024-02-27T14:25:20.632Z,english_280.wav,0,pill,1194,48,5,4,English,m,1,0.1,84.68226706,1.61205195
6529903a2b342f805e02188c,147,2,2024-02-27T14:25:20.632Z,english_280.wav,0,pill,1194,48,5,4,English,m,2,0.2,-77.43679957,1.42137195
6529903a2b342f805e02188c,147,2,2024-02-27T14:25:20.632Z,english_280.wav,0,pill,1194,48,5,4,English,m,3,0.3,45.11946934,1.73240953
6529903a2b342f805e02188c,147,2,2024-02-27T14:25:20.632Z,english_280.wav,0,pill,1194,48,5,4,English,m,4,0.32341667,-36.96988582,0.09602122
6529903a2b342f805e02188c,148,2,2024-02-27T14:25:20.632Z,english_346.wav,0,peel,1189,48,5,4,English,m,0,0.0,29.51078372,1.24489428
6529903a2b342f805e02188c,148,2,2024-02-27T14:25:20.632Z,english_346.wav,0,peel,1189,48,5,4,English,m,1,0.1,86.25753287,1.77356048
6529903a2b342f805e02188c,148,2,2024-02-27T14:25:20.632Z,english_346.wav,0,peel,1189,48,5,4,English,m,2,0.2,95.6553577,1.30862901
6529903a2b342f805e02188c,148,2,2024-02-27T14:25:20.632Z,english_346.wav,0,peel,1189,48,5,4,English,m,3,0.3,-65.97707071,0.68318311
6529903a2b342f805e02188c,148,2,2024-02-27T14:25:20.632Z,english_346.wav,0,peel,1189,48,5,4,English,m,4,0.32341667,49.79896228,1.63073528
6529903a2b342f805e02188c,149,2,2024-02-27T14:25:20.632Z,english_28.wav,0,pill,774,48,5,4,English,m,0,0.0,46.68805065,0.37315412
6529903a2b342f805e02188c,149,2,2024-02-27T14:25:20.632Z,english_28.wav,0,pill,774,48,5,4,English,m,1,0.1,-19.91180265,0.08560602
6529903a2b342f805e02188c,149,2,2024-02-27T14:25:20.632Z,english_28.wav,0,pill,774,48,5,4,English,m,2,0.2,30.74929008,0.67724734
6529903a2b342f805e02188c,149,2,2024-02-27T14:25:20.632Z,english_28.wav,0,pill,774,48,5,4,English,m,3,0.3,14.01537548,0.53332652
6529903a2b342f805e02188c,149,2,2024-02-27T14:25:20.632Z,english_28.wav,0,pill,774,48,5,4,English,m,4,0.32341667,-32.95915121,1.33480721
6529903a2b342f805e02188c,150,3,2024-02-27T14:27:06.901Z,english_298.wav,0,pill,703,48,5,4,English,m,0,0.0,-71.75530507,0.91890611
6529903a2b342f805e02188c,150,3,2024-02-27T14:27:06.901Z,english_298.wav,0,pill,703,48,5,4,English,m,1,0.1,76.25876358,0.7322353
6529903a2b342f805e02188c,150,3,2024-02-27T14:27:06.901Z,english_298.wav,0,pill,703,48,5,4,English,m,2,0.2,11.95102224,0.50601445
6529903a2b342f805e02188c,150,3,2024-02-27T14:27:06.901Z,english_298.wav,0,pill,703,48,5,4,English,m,3,0.3,79.91037795,0.41160049
6529903a2b342f805e02188c,150,3,2024-02-27T14:27:06.901Z,english_298.wav,0,pill,703,48,5,4,English,m,4,0.32341667,30.12462174,0.81223035
6529903a2b342f805e02188c,151,3,2024-02-27T14:27:06.901Z,english_752.wav,0,peel,2077,48,5,4,English,m,0,0.0,-89.50526135,1.26833375
6529903a2b342f805e02188c,151,3,2024-02-27T14:27:06.901Z,english_752.wav,0,peel,2077,48,5,4,English,m,1,0.1,16.42916277,1.25445964
6529903a2b342f805e02188c,151,3,2024-02-27T14:27:06.901Z,english_752.wav,0,peel,2077,48,5,4,English,m,2,0.2,-62.11724863,1.84048801
6529903a2b342f805e02188c,151,3,2024-02-27T14:27:06.901Z,english_752.wav,0,peel,2077,48,5,4,English,m,3,0.3,-22.7839786,0.96813738
6529903a2b342f805e02188c,151,3,2024-02-27T14:27:06.901Z,english_752.wav,0,peel,2077,48,5,4,English,m,4,0.32341667,21.77934146,1.95604557
6529903a2b342f805e02188c,152,3,2024-02-27T14:27:06.901Z,english_211.wav,0,peel,1092,48,5,4,English,m,0,0.0,37.34807541,1.77380832
6529903a2b342f805e02188c,152,3,2024-02-27T14:27:06.901Z,english_211.wav,0,peel,1092,48,5,4,English,m,1,0.1,97.98979508,1.35747523
6529903a2b342f805e02188c,152,3,2024-02-27T14:27:06.901Z,english_211.wav,0,peel,1092,48,5,4,English,m,2,0.2,-20.02981109,1.74013371
6529903a2b342f805e02188c,152,3,2024-02-27T14:27:06.901Z,english_211.wav,0,peel,1092,48,5,4,English,m,3,0.3,-69.8116311,0.94808553
6529903a2b342f805e02188c,152,3,2024-02-27T14:27:06.901Z,english_211.wav,0,peel,1092,48,5,4,English,m,4,0.32341667,35.11126142,0.23094119
6529903a2b342f805e02188c,153,3,2024-02-27T14:27:06.901Z,english_701.wav,0,peel,1521,48,5,4,English,m,0,0.0,87.15265727,1.41120649
