subj,trial,block,date,stim,stim_order,response,rt,age,english,french,language,sex,param_index,segment,pitch,stretch
600235988c6b062314984ac0,0,0,2024-02-27T14:15:14.629Z,english_915.wav,0,pill,16101,30,5,4,english,m,0,0.0,40.39704719,0.11203387
600235988c6b062314984ac0,0,0,2024-02-27T14:15:14.629Z,english_915.wav,0,pill,16101,30,5,4,english,m,1,0.1,-77.86782689,0.449249
600235988c6b062314984ac0,0,0,2024-02-27T14:15:14.629Z,english_915.wav,0,pill,16101,30,5,4,english,m,2,0.2,21.84672988,0.02407483
600235988c6b062314984ac0,0,0,2024-02-27T14:15:14.629Z,english_915.wav,0,pill,16101,30,5,4,english,m,3,0.3,-56.0972156,1.6502756
600235988c6b062314984ac0,0,0,2024-02-27T14:15:14.629Z,english_915.wav,0,pill,16101,30,5,4,english,m,4,0.32341667,65.00594456,0.65362707
600235988c6b062314984ac0,1,0,2024-02-27T14:15:14.629Z,english_440.wav,0,peel,712,30,5,4,english,m,0,0.0,44.70308901,1.51497438
600235988c6b062314984ac0,1,0,2024-02-27T14:15:14.629Z,english_440.wav,0,peel,712,30,5,4,english,m,1,0.1,-88.0257567,1.05972447
600235988c6b062314984ac0,1,0,2024-02-27T14:15:14.629Z,english_440.wav,0,peel,712,30,5,4,english,m,2,0.2,1.19893433,0.590820378
600235988c6b062314984ac0,1,0,2024-02-27T14:15:14.629Z,english_440.wav,0,peel,712,30,5,4,english,m,3,0.3,19.45485395,0.680586803
600235988c6b062314984ac0,1,0,2024-02-27T14:15:14.629Z,english_440.wav,0,peel,712,30,5,4,english,m,4,0.32341667,13.00088222,0.000618341324
600235988c6b062314984ac0,2,0,2024-02-27T14:15:14.629Z,english_875.wav,0,peel,344,30,5,4,english,m,0,0.0,-72.29566874,0.47412948
600235988c6b062314984ac0,2,0,2024-02-27T14:15:14.629Z,english_875.wav,0,peel,344,30,5,4,english,m,1,0.1,40.49821439,0.97105678
600235988c6b062314984ac0,2,0,2024-02-27T14:15:14.629Z,english_875.wav,0,peel,344,30,5,4,english,m,2,0.2,61.66936014,1.31175081
600235988c6b062314984ac0,2,0,2024-02-27T14:15:14.629Z,english_875.wav,0,peel,344,30,5,4,english,m,3,0.3,36.92950197,0.55015514
600235988c6b062314984ac0,2,0,2024-02-27T14:15:14.629Z,english_875.wav,0,peel,344,30,5,4,english,m,4,0.32341667,61.03530789,1.23529794
600235988c6b062314984ac0,3,0,2024-02-27T14:15:14.629Z,english_857.wav,0,peel,446,30,5,4,english,m,0,0.0,-33.07031843,1.04325491
600235988c6b062314984ac0,3,0,2024-02-27T14:15:14.629Z,english_857.wav,0,peel,446,30,5,4,english,m,1,0.1,12.9349985,0.44078978
600235988c6b062314984ac0,3,0,2024-02-27T14:15:14.629Z,english_857.wav,0,peel,446,30,5,4,english,m,2,0.2,4.33682254,1.36028147
600235988c6b062314984ac0,3,0,2024-02-27T14:15:14.629Z,english_857.wav,0,peel,446,30,5,4,english,m,3,0.3,90.68056828,1.16905302
600235988c6b062314984ac0,3,0,2024-02-27T14:15:14.629Z,english_857.wav,0,peel,446,30,5,4,english,m,4,0.32341667,37.69781409,1.24618942
600235988c6b062314984ac0,4,0,2024-02-27T14:15:14.629Z,english_767.wav,0,peel,96,30,5,4,english,m,0,0.0,29.63321135,0.17563718
600235988c6b062314984ac0,4,0,2024-02-27T14:15:14.629Z,english_767.wav,0,peel,96,30,5,4,english,m,1,0.1,-31.63783795,0.61981002
600235988c6b062314984ac0,4,0,2024-02-27T14:15:14.629Z,english_767.wav,0,peel,96,30,5,4,english,m,2,0.2,56.53254366,1.38773128
600235988c6b062314984ac0,4,0,2024-02-27T14:15:14.629Z,english_767.wav,0,peel,96,30,5,4,english,m,3,0.3,52.69149806,1.37795514
600235988c6b062314984ac0,4,0,2024-02-27T14:15:14.629Z,english_767.wav,0,peel,96,30,5,4,english,m,4,0.32341667,-0.8536295,1.97315338
600235988c6b062314984ac0,5,0,2024-02-27T14:15:14.629Z,english_978.wav,0,pill,181,30,5,4,english,m,0,0.0,-73.1961296,0.69168228
600235988c6b062314984ac0,5,0,2024-02-27T14:15:14.629Z,english_978.wav,0,pill,181,30,5,4,english,m,1,0.1,-56.98452675,1.28516196
600235988c6b062314984ac0,5,0,2024-02-27T14:15:14.629Z,english_978.wav,0,pill,181,30,5,4,english,m,2,0.2,1.81288897,1.00851945
600235988c6b062314984ac0,5,0,2024-02-27T14:15:14.629Z,english_978.wav,0,pill,181,30,5,4,english,m,3,0.3,-17.93803526,0.05981722
600235988c6b062314984ac0,5,0,2024-02-27T14:15:14.629Z,english_978.wav,0,pill,181,30,5,4,english,m,4,0.32341667,-33.17886565,1.89275203
600235988c6b062314984ac0,6,0,2024-02-27T14:15:14.629Z,english_80.wav,0,pill,183,30,5,4,english,m,0,0.0,33.21374474,1.09809668
600235988c6b062314984ac0,6,0,2024-02-27T14:15:14.629Z,english_80.wav,0,pill,183,30,5,4,english,m,1,0.1,-72.2618742,1.73594877
600235988c6b062314984ac0,6,0,2024-02-27T14:15:14.629Z,english_80.wav,0,pill,183,30,5,4,english,m,2,0.2,-29.44860443,0.30037535
600235988c6b062314984ac0,6,0,2024-02-27T14:15:14.629Z,english_80.wav,0,pill,183,30,5,4,english,m,3,0.3,-33.36418129,0.36613598
600235988c6b062314984ac0,6,0,2024-02-27T14:15:14.629Z,english_80.wav,0,pill,183,30,5,4,english,m,4,0.32341667,-65.11319145,0.50687614
600235988c6b062314984ac0,7,0,2024-02-27T14:15:14.629Z,english_43.wav,0,pill,448,30,5,4,english,m,0,0.0,22.40064366,1.74132857
600235988c6b062314984ac0,7,0,2024-02-27T14:15:14.629Z,english_43.wav,0,pill,448,30,5,4,english,m,1,0.1,-68.20152198,0.12763156
600235988c6b062314984ac0,7,0,2024-02-27T14:15:14.629Z,english_43.wav,0,pill,448,30,5,4,english,m,2,0.2,62.56231291,0.31420738
600235988c6b062314984ac0,7,0,2024-02-27T14:15:14.629Z,english_43.wav,0,pill,448,30,5,4,english,m,3,0.3,45.0736378,0.98572154
600235988c6b062314984ac0,7,0,2024-02-27T14:15:14.629Z,english_43.wav,0,pill,448,30,5,4,english,m,4,0.32341667,-36.46791656,0.91325677
600235988c6b062314984ac0,8,0,2024-02-27T14:15:14.629Z,english_91.wav,0,peel,611,30,5,4,english,m,0,0.0,-67.73951944,0.2772338
600235988c6b062314984ac0,8,0,2024-02-27T14:15:14.629Z,english_91.wav,0,peel,611,30,5,4,english,m,1,0.1,83.83337034,0.0816757
600235988c6b062314984ac0,8,0,2024-02-27T14:15:14.629Z,english_91.wav,0,peel,611,30,5,4,english,m,2,0.2,-12.75649653,0.92538416
600235988c6b062314984ac0,8,0,2024-02-27T14:15:14.629Z,english_91.wav,0,peel,611,30,5,4,english,m,3,0.3,5.95502951,0.40714056
600235988c6b062314984ac0,8,0,2024-02-27T14:15:14.629Z,english_91.wav,0,peel,611,30,5,4,english,m,4,0.32341667,59.56964586,1.8717525
600235988c6b062314984ac0,9,0,2024-02-27T14:15:14.629Z,english_385.wav,0,peel,393,30,5,4,english,m,0,0.0,-55.07910634,1.75648555
600235988c6b062314984ac0,9,0,2024-02-27T14:15:14.629Z,english_385.wav,0,peel,393,30,5,4,english,m,1,0.1,-94.47680079,1.20856462
600235988c6b062314984ac0,9,0,2024-02-27T14:15:14.629Z,english_385.wav,0,peel,393,30,5,4,english,m,2,0.2,38.70414457,0.98103352
600235988c6b062314984ac0,9,0,2024-02-27T14:15:14.629Z,english_385.wav,0,peel,393,30,5,4,english,m,3,0.3,-46.17691,1.45745263
600235988c6b062314984ac0,9,0,2024-02-27T14:15:14.629Z,english_385.wav,0,peel,393,30,5,4,english,m,4,0.32341667,2.5941508,0.88353815
600235988c6b062314984ac0,10,0,2024-02-27T14:15:14.629Z,english_776.wav,0,pill,250,30,5,4,english,m,0,0.0,29.86548478,0.57139857
600235988c6b062314984ac0,10,0,2024-02-27T14:15:14.629Z,english_776.wav,0,pill,250,30,5,4,english,m,1,0.1,2.8025705,1.94435619
600235988c6b062314984ac0,10,0,2024-02-27T14:15:14.629Z,english_776.wav,0,pill,250,30,5,4,english,m,2,0.2,-38.4768188,0.3951066
600235988c6b062314984ac0,10,0,2024-02-27T14:15:14.629Z,english_776.wav,0,pill,250,30,5,4,english,m,3,0.3,-89.49838949,0.29859462
600235988c6b062314984ac0,10,0,2024-02-27T14:15:14.629Z,english_776.wav,0,pill,250,30,5,4,english,m,4,0.32341667,30.18488016,1.93939037
600235988c6b062314984ac0,11,0,2024-02-27T14:15:14.629Z,english_901.wav,0,pill,185,30,5,4,english,m,0,0.0,-14.81770559,1.5194741
600235988c6b062314984ac0,11,0,2024-02-27T14:15:14.629Z,english_901.wav,0,pill,185,30,5,4,english,m,1,0.1,-27.73561163,1.98674938
600235988c6b062314984ac0,11,0,2024-02-27T14:15:14.629Z,english_901.wav,0,pill,185,30,5,4,english,m,2,0.2,-22.44015454,0.54356598
600235988c6b062314984ac0,11,0,2024-02-27T14:15:14.629Z,english_901.wav,0,pill,185,30,5,4,english,m,3,0.3,-41.34815185,1.30497628
600235988c6b062314984ac0,11,0,2024-02-27T14:15:14.629Z,english_901.wav,0,pill,185,30,5,4,english,m,4,0.32341667,10.13492358,0.61526789
600235988c6b062314984ac0,12,0,2024-02-27T14:15:14.629Z,english_756.wav,0,pill,4928,30,5,4,english,m,0,0.0,-75.60908863,1.29894989
600235988c6b062314984ac0,12,0,2024-02-27T14:15:14.629Z,english_756.wav,0,pill,4928,30,5,4,english,m,1,0.1,-4.30259752,0.61363685
600235988c6b062314984ac0,12,0,2024-02-27T14:15:14.629Z,english_756.wav,0,pill,4928,30,5,4,english,m,2,0.2,20.94377522,1.41793961
600235988c6b062314984ac0,12,0,2024-02-27T14:15:14.629Z,english_756.wav,0,pill,4928,30,5,4,english,m,3,0.3,10.45062111,1.73528762
600235988c6b062314984ac0,12,0,2024-02-27T14:15:14.629Z,english_756.wav,0,pill,4928,30,5,4,english,m,4,0.32341667,86.50209298,0.4791473
600235988c6b062314984ac0,13,0,2024-02-27T14:15:14.629Z,english_323.wav,0,peel,285,30,5,4,english,m,0,0.0,92.33188111,1.59668922
600235988c6b062314984ac0,13,0,2024-02-27T14:15:14.629Z,english_323.wav,0,peel,285,30,5,4,english,m,1,0.1,4.22577609,1.75306106
600235988c6b062314984ac0,13,0,2024-02-27T14:15:14.629Z,english_323.wav,0,peel,285,30,5,4,english,m,2,0.2,-35.48560344,1.06071567
600235988c6b062314984ac0,13,0,2024-02-27T14:15:14.629Z,english_323.wav,0,peel,285,30,5,4,english,m,3,0.3,7.73763769,1.9328625
600235988c6b062314984ac0,13,0,2024-02-27T14:15:14.629Z,english_323.wav,0,peel,285,30,5,4,english,m,4,0.32341667,55.62458321,1.27347405
600235988c6b062314984ac0,14,0,2024-02-27T14:15:14.629Z,english_507.wav,0,pill,499,30,5,4,english,m,0,0.0,-61.1842488,1.97653192
600235988c6b062314984ac0,14,0,2024-02-27T14:15:14.629Z,english_507.wav,0,pill,499,30,5,4,english,m,1,0.1,-67.40048172,1.52355847
600235988c6b062314984ac0,14,0,2024-02-27T14:15:14.629Z,english_507.wav,0,pill,499,30,5,4,english,m,2,0.2,12.41471853,0.98006415
600235988c6b062314984ac0,14,0,2024-02-27T14:15:14.629Z,english_507.wav,0,pill,499,30,5,4,english,m,3,0.3,-23.82579329,0.44372312
600235988c6b062314984ac0,14,0,2024-02-27T14:15:14.629Z,english_507.wav,0,pill,499,30,5,4,english,m,4,0.32341667,9.53005369,0.65281453
600235988c6b062314984ac0,15,0,2024-02-27T14:15:14.629Z,english_744.wav,0,peel,348,30,5,4,english,m,0,0.0,43.39686976,0.75505854
600235988c6b062314984ac0,15,0,2024-02-27T14:15:14.629Z,english_744.wav,0,peel,348,30,5,4,english,m,1,0.1,-61.67573043,1.01311725
600235988c6b062314984ac0,15,0,2024-02-27T14:15:14.629Z,english_744.wav,0,peel,348,30,5,4,english,m,2,0.2,0.51873183,0.73457108
600235988c6b062314984ac0,15,0,2024-02-27T14:15:14.629Z,english_744.wav,0,peel,348,30,5,4,english,m,3,0.3,12.88130512,0.90154102
600235988c6b062314984ac0,15,0,2024-02-27T14:15:14.629Z,english_744.wav,0,peel,348,30,5,4,english,m,4,0.32341667,57.31714449,1.01338509
600235988c6b062314984ac0,16,0,2024-02-27T14:15:14.629Z,english_2.wav,0,peel,580,30,5,4,english,m,0,0.0,-99.15346184,1.13720105
600235988c6b062314984ac0,16,0,2024-02-27T14:15:14.629Z,english_2.wav,0,peel,580,30,5,4,english,m,1,0.1,80.90141422,1.91777804
600235988c6b062314984ac0,16,0,2024-02-27T14:15:14.629Z,english_2.wav,0,peel,580,30,5,4,english,m,2,0.2,25.8663891,0.47706995
600235988c6b062314984ac0,16,0,2024-02-27T14:15:14.629Z,english_2.wav,0,peel,580,30,5,4,english,m,3,0.3,75.24606714,0.3458575
600235988c6b062314984ac0,16,0,2024-02-27T14:15:14.629Z,english_2.wav,0,peel,580,30,5,4,english,m,4,0.32341667,-83.41413367,0.38623968
600235988c6b062314984ac0,17,0,2024-02-27T14:15:14.629Z,english_92.wav,0,peel,185,30,5,4,english,m,0,0.0,31.88505953,1.50112375
600235988c6b062314984ac0,17,0,2024-02-27T14:15:14.629Z,english_92.wav,0,peel,185,30,5,4,english,m,1,0.1,-5.62534355,0.35596674
600235988c6b062314984ac0,17,0,2024-02-27T14:15:14.629Z,english_92.wav,0,peel,185,30,5,4,english,m,2,0.2,-66.19250112,1.12270031
600235988c6b062314984ac0,17,0,2024-02-27T14:15:14.629Z,english_92.wav,0,peel,185,30,5,4,english,m,3,0.3,-77.62644198,1.09837269
600235988c6b062314984ac0,17,0,2024-02-27T14:15:14.629Z,english_92.wav,0,peel,185,30,5,4,english,m,4,0.32341667,-66.61656061,1.16274455
600235988c6b062314984ac0,18,0,2024-02-27T14:15:14.629Z,english_624.wav,0,peel,149,30,5,4,english,m,0,0.0,-66.94889137,0.79130031
600235988c6b062314984ac0,18,0,2024-02-27T14:15:14.629Z,english_624.wav,0,peel,149,30,5,4,english,m,1,0.1,-6.87427926,1.85178888
600235988c6b062314984ac0,18,0,2024-02-27T14:15:14.629Z,english_624.wav,0,peel,149,30,5,4,english,m,2,0.2,69.52298075,0.79988954
600235988c6b062314984ac0,18,0,2024-02-27T14:15:14.629Z,english_624.wav,0,peel,149,30,5,4,english,m,3,0.3,-45.26015132,0.87521033
600235988c6b062314984ac0,18,0,2024-02-27T14:15:14.629Z,english_624.wav,0,peel,149,30,5,4,english,m,4,0.32341667,-50.37935108,1.50754026
600235988c6b062314984ac0,19,0,2024-02-27T14:15:14.629Z,english_312.wav,0,pill,498,30,5,4,english,m,0,0.0,44.01610098,1.36033213
600235988c6b062314984ac0,19,0,2024-02-27T14:15:14.629Z,english_312.wav,0,pill,498,30,5,4,english,m,1,0.1,-34.76139374,0.08557756
600235988c6b062314984ac0,19,0,2024-02-27T14:15:14.629Z,english_312.wav,0,pill,498,30,5,4,english,m,2,0.2,-43.47986862,1.06509633
600235988c6b062314984ac0,19,0,2024-02-27T14:15:14.629Z,english_312.wav,0,pill,498,30,5,4,english,m,3,0.3,-9.79517271,0.67257935
600235988c6b062314984ac0,19,0,2024-02-27T14:15:14.629Z,english_312.wav,0,pill,498,30,5,4,english,m,4,0.32341667,85.48914895,0.12614926
600235988c6b062314984ac0,20,0,2024-02-27T14:15:14.629Z,english_39.wav,0,peel,258,30,5,4,english,m,0,0.0,28.0167149,1.3269735
600235988c6b062314984ac0,20,0,2024-02-27T14:15:14.629Z,english_39.wav,0,peel,258,30,5,4,english,m,1,0.1,0.73047565,0.59121622
600235988c6b062314984ac0,20,0,2024-02-27T14:15:14.629Z,english_39.wav,0,peel,258,30,5,4,english,m,2,0.2,-55.83763262,0.32613901
600235988c6b062314984ac0,20,0,2024-02-27T14:15:14.629Z,english_39.wav,0,peel,258,30,5,4,english,m,3,0.3,-59.78026112,1.39661139
600235988c6b062314984ac0,20,0,2024-02-27T14:15:14.629Z,english_39.wav,0,peel,258,30,5,4,english,m,4,0.32341667,81.1603589,0.76065887
600235988c6b062314984ac0,21,0,2024-02-27T14:15:14.629Z,english_641.wav,0,pill,410,30,5,4,english,m,0,0.0,-90.88934322,1.28926835
600235988c6b062314984ac0,21,0,2024-02-27T14:15:14.629Z,english_641.wav,0,pill,410,30,5,4,english,m,1,0.1,13.36673253,0.02464493
600235988c6b062314984ac0,21,0,2024-02-27T14:15:14.629Z,english_641.wav,0,pill,410,30,5,4,english,m,2,0.2,-36.70414591,0.5505433
600235988c6b062314984ac0,21,0,2024-02-27T14:15:14.629Z,english_641.wav,0,pill,410,30,5,4,english,m,3,0.3,-4.62417375,0.52188675
600235988c6b062314984ac0,21,0,2024-02-27T14:15:14.629Z,english_641.wav,0,pill,410,30,5,4,english,m,4,0.32341667,15.34366305,0.01360039
600235988c6b062314984ac0,22,0,2024-02-27T14:15:14.629Z,english_757.wav,0,peel,341,30,5,4,english,m,0,0.0,-71.37581006,0.57944866
600235988c6b062314984ac0,22,0,2024-02-27T14:15:14.629Z,english_757.wav,0,peel,341,30,5,4,english,m,1,0.1,-34.89028362,1.76833087
600235988c6b062314984ac0,22,0,2024-02-27T14:15:14.629Z,english_757.wav,0,peel,341,30,5,4,english,m,2,0.2,97.72444176,0.43040584
600235988c6b062314984ac0,22,0,2024-02-27T14:15:14.629Z,english_757.wav,0,peel,341,30,5,4,english,m,3,0.3,8.64322444,1.84780211
600235988c6b062314984ac0,22,0,2024-02-27T14:15:14.629Z,english_757.wav,0,peel,341,30,5,4,english,m,4,0.32341667,-59.15215987,0.21714226
600235988c6b062314984ac0,23,0,2024-02-27T14:15:14.629Z,english_428.wav,0,pill,260,30,5,4,english,m,0,0.0,-98.34466569,1.83106884
600235988c6b062314984ac0,23,0,2024-02-27T14:15:14.629Z,english_428.wav,0,pill,260,30,5,4,english,m,1,0.1,-10.51162175,1.34345266
600235988c6b062314984ac0,23,0,2024-02-27T14:15:14.629Z,english_428.wav,0,pill,260,30,5,4,english,m,2,0.2,97.93427859,0.65853672
600235988c6b062314984ac0,23,0,2024-02-27T14:15:14.629Z,english_428.wav,0,pill,260,30,5,4,english,m,3,0.3,35.61870537,1.28105878
600235988c6b062314984ac0,23,0,2024-02-27T14:15:14.629Z,english_428.wav,0,pill,260,30,5,4,english,m,4,0.32341667,-12.49352836,0.15324236
600235988c6b062314984ac0,24,0,2024-02-27T14:15:14.629Z,english_646.wav,0,pill,370,30,5,4,english,m,0,0.0,65.65927644,1.85038449
600235988c6b062314984ac0,24,0,2024-02-27T14:15:14.629Z,english_646.wav,0,pill,370,30,5,4,english,m,1,0.1,-31.23211399,1.10748568
600235988c6b062314984ac0,24,0,2024-02-27T14:15:14.629Z,english_646.wav,0,pill,370,30,5,4,english,m,2,0.2,62.59110385,1.14052106
600235988c6b062314984ac0,24,0,2024-02-27T14:15:14.629Z,english_646.wav,0,pill,370,30,5,4,english,m,3,0.3,-86.43369357,1.38971404
600235988c6b062314984ac0,24,0,2024-02-27T14:15:14.629Z,english_646.wav,0,pill,370,30,5,4,english,m,4,0.32341667,41.84315348,0.49971738
600235988c6b062314984ac0,25,0,2024-02-27T14:15:14.629Z,english_667.wav,0,peel,366,30,5,4,english,m,0,0.0,-36.96649028,1.3014101
600235988c6b062314984ac0,25,0,2024-02-27T14:15:14.629Z,english_667.wav,0,peel,366,30,5,4,english,m,1,0.1,9.08709827,0.05882523
600235988c6b062314984ac0,25,0,2024-02-27T14:15:14.629Z,english_667.wav,0,peel,366,30,5,4,english,m,2,0.2,85.36553945,1.428997
600235988c6b062314984ac0,25,0,2024-02-27T14:15:14.629Z,english_667.wav,0,peel,366,30,5,4,english,m,3,0.3,-41.19556041,1.2429303
600235988c6b062314984ac0,25,0,2024-02-27T14:15:14.629Z,english_667.wav,0,peel,366,30,5,4,english,m,4,0.32341667,-31.79783786,0.97363261
600235988c6b062314984ac0,26,0,2024-02-27T14:15:14.629Z,english_216.wav,0,pill,216,30,5,4,english,m,0,0.0,-62.2888105,1.07577895
600235988c6b062314984ac0,26,0,2024-02-27T14:15:14.629Z,english_216.wav,0,pill,216,30,5,4,english,m,1,0.1,-52.19325919,1.07125686
600235988c6b062314984ac0,26,0,2024-02-27T14:15:14.629Z,english_216.wav,0,pill,216,30,5,4,english,m,2,0.2,-77.81566322,1.51342084
600235988c6b062314984ac0,26,0,2024-02-27T14:15:14.629Z,english_216.wav,0,pill,216,30,5,4,english,m,3,0.3,73.5246301,1.37714716
600235988c6b062314984ac0,26,0,2024-02-27T14:15:14.629Z,english_216.wav,0,pill,216,30,5,4,english,m,4,0.32341667,73.4409389,1.55456291
600235988c6b062314984ac0,27,0,2024-02-27T14:15:14.629Z,english_771.wav,0,pill,211,30,5,4,english,m,0,0.0,52.29619013,1.65909918
600235988c6b062314984ac0,27,0,2024-02-27T14:15:14.629Z,english_771.wav,0,pill,211,30,5,4,english,m,1,0.1,55.26271333,1.05958749
600235988c6b062314984ac0,27,0,2024-02-27T14:15:14.629Z,english_771.wav,0,pill,211,30,5,4,english,m,2,0.2,49.2587818,1.33758239
600235988c6b062314984ac0,27,0,2024-02-27T14:15:14.629Z,english_771.wav,0,pill,211,30,5,4,english,m,3,0.3,48.45532009,1.75478958
600235988c6b062314984ac0,27,0,2024-02-27T14:15:14.629Z,english_771.wav,0,pill,211,30,5,4,english,m,4,0.32341667,-98.45631565,0.37013483
600235988c6b062314984ac0,28,0,2024-02-27T14:15:14.629Z,english_376.wav,0,pill,69,30,5,4,english,m,0,0.0,-10.66231765,0.83936518
600235988c6b062314984ac0,28,0,2024-02-27T14:15:14.629Z,english_376.wav,0,pill,69,30,5,4,english,m,1,0.1,-53.95799634,1.7265478
600235988c6b062314984ac0,28,0,2024-02-27T14:15:14.629Z,english_376.wav,0,pill,69,30,5,4,english,m,2,0.2,-44.60014177,0.44309389
600235988c6b062314984ac0,28,0,2024-02-27T14:15:14.629Z,english_376.wav,0,pill,69,30,5,4,english,m,3,0.3,-84.32777745,1.91772458
600235988c6b062314984ac0,28,0,2024-02-27T14:15:14.629Z,english_376.wav,0,pill,69,30,5,4,english,m,4,0.32341667,-2.76179289,0.76255227
600235988c6b062314984ac0,29,0,2024-02-27T14:15:14.629Z,english_359.wav,0,pill,164,30,5,4,english,m,0,0.0,95.13315851,1.5844105
600235988c6b062314984ac0,29,0,2024-02-27T14:15:14.629Z,english_359.wav,0,pill,164,30,5,4,english,m,1,0.1,95.71495863,0.46491803
600235988c6b062314984ac0,29,0,2024-02-27T14:15:14.629Z,english_359.wav,0,pill,164,30,5,4,english,m,2,0.2,4.56295435,1.17107987
600235988c6b062314984ac0,29,0,2024-02-27T14:15:14.629Z,english_359.wav,0,pill,164,30,5,4,english,m,3,0.3,-11.93773809,0.63485582
600235988c6b062314984ac0,29,0,2024-02-27T14:15:14.629Z,english_359.wav,0,pill,164,30,5,4,english,m,4,0.32341667,-75.72789111,0.10666132
600235988c6b062314984ac0,30,0,2024-02-27T14:15:14.629Z,english_812.wav,0,pill,118,30,5,4,english,m,0,0.0,70.24469457,0.85599223
600235988c6b062314984ac0,30,0,2024-02-27T14:15:14.629Z,english_812.wav,0,pill,118,30,5,4,english,m,1,0.1,-27.51466786,0.39005905
600235988c6b062314984ac0,30,0,2024-02-27T14:15:14.629Z,english_812.wav,0,pill,118,30,5,4,english,m,2,0.2,60.55844263,1.43275618
600235988c6b062314984ac0,30,0,2024-02-27T14:15:14.629Z,english_812.wav,0,pill,118,30,5,4,english,m,3,0.3,52.93607499,1.34329238
600235988c6b062314984ac0,30,0,2024-02-27T14:15:14.629Z,english_812.wav,0,pill,118,30,5,4,english,m,4,0.32341667,74.74872052,0.96810209
600235988c6b062314984ac0,31,0,2024-02-27T14:15:14.629Z,english_201.wav,0,pill,442,30,5,4,english,m,0,0.0,-11.66329209,1.59313322
600235988c6b062314984ac0,31,0,2024-02-27T14:15:14.629Z,english_201.wav,0,pill,442,30,5,4,english,m,1,0.1,-73.85436231,1.78385616
600235988c6b062314984ac0,31,0,2024-02-27T14:15:14.629Z,english_201.wav,0,pill,442,30,5,4,english,m,2,0.2,-12.5199597,0.57641365
600235988c6b062314984ac0,31,0,2024-02-27T14:15:14.629Z,english_201.wav,0,pill,442,30,5,4,english,m,3,0.3,-44.18013019,1.54371285
600235988c6b062314984ac0,31,0,2024-02-27T14:15:14.629Z,english_201.wav,0,pill,442,30,5,4,english,m,4,0.32341667,47.68284229,1.11944384
600235988c6b062314984ac0,32,0,2024-02-27T14:15:14.629Z,english_792.wav,0,pill,318,30,5,4,english,m,0,0.0,-56.39949456,1.32676777
600235988c6b062314984ac0,32,0,2024-02-27T14:15:14.629Z,english_792.wav,0,pill,318,30,5,4,english,m,1,0.1,-76.36067248,1.08004851
600235988c6b062314984ac0,32,0,2024-02-27T14:15:14.629Z,english_792.wav,0,pill,318,30,5,4,english,m,2,0.2,-58.44160547,1.5809308
600235988c6b062314984ac0,32,0,2024-02-27T14:15:14.629Z,english_792.wav,0,pill,318,30,5,4,english,m,3,0.3,25.29086486,0.16508433
600235988c6b062314984ac0,32,0,2024-02-27T14:15:14.629Z,english_792.wav,0,pill,318,30,5,4,english,m,4,0.32341667,-6.58788169,1.18870574
600235988c6b062314984ac0,33,0,2024-02-27T14:15:14.629Z,english_287.wav,0,pill,355,30,5,4,english,m,0,0.0,-5.71925808,1.04112926
600235988c6b062314984ac0,33,0,2024-02-27T14:15:14.629Z,english_287.wav,0,pill,355,30,5,4,english,m,1,0.1,-94.78041007,0.35149142
600235988c6b062314984ac0,33,0,2024-02-27T14:15:14.629Z,english_287.wav,0,pill,355,30,5,4,english,m,2,0.2,8.34641368,0.86781598
600235988c6b062314984ac0,33,0,2024-02-27T14:15:14.629Z,english_287.wav,0,pill,355,30,5,4,english,m,3,0.3,36.34893025,1.897904
600235988c6b062314984ac0,33,0,2024-02-27T14:15:14.629Z,english_287.wav,0,pill,355,30,5,4,english,m,4,0.32341667,-22.47689594,0.5607403
600235988c6b062314984ac0,34,0,2024-02-27T14:15:14.629Z,english_498.wav,0,pill,680,30,5,4,english,m,0,0.0,2.49020902,0.78964515
600235988c6b062314984ac0,34,0,2024-02-27T14:15:14.629Z,english_498.wav,0,pill,680,30,5,4,english,m,1,0.1,-20.55300452,0.24391593
600235988c6b062314984ac0,34,0,2024-02-27T14:15:14.629Z,english_498.wav,0,pill,680,30,5,4,english,m,2,0.2,-34.14985779,0.11401041
600235988c6b062314984ac0,34,0,2024-02-27T14:15:14.629Z,english_498.wav,0,pill,680,30,5,4,english,m,3,0.3,79.54997135,1.52582154
600235988c6b062314984ac0,34,0,2024-02-27T14:15:14.629Z,english_498.wav,0,pill,680,30,5,4,english,m,4,0.32341667,20.54695207,0.62547878
600235988c6b062314984ac0,35,0,2024-02-27T14:15:14.629Z,english_684.wav,0,peel,0,30,5,4,english,m,0,0.0,0.36394418,1.65924935
600235988c6b062314984ac0,35,0,2024-02-27T14:15:14.629Z,english_684.wav,0,peel,0,30,5,4,english,m,1,0.1,28.47964645,1.32149406
600235988c6b062314984ac0,35,0,2024-02-27T14:15:14.629Z,english_684.wav,0,peel,0,30,5,4,english,m,2,0.2,60.47995017,0.32417562
600235988c6b062314984ac0,35,0,2024-02-27T14:15:14.629Z,english_684.wav,0,peel,0,30,5,4,english,m,3,0.3,-33.43266819,1.42108385
600235988c6b062314984ac0,35,0,2024-02-27T14:15:14.629Z,english_684.wav,0,peel,0,30,5,4,english,m,4,0.32341667,-31.86672206,1.29243289
600235988c6b062314984ac0,36,0,2024-02-27T14:15:14.629Z,english_174.wav,0,peel,504,30,5,4,english,m,0,0.0,-14.93169449,0.27768215
600235988c6b062314984ac0,36,0,2024-02-27T14:15:14.629Z,english_174.wav,0,peel,504,30,5,4,english,m,1,0.1,-60.50222611,0.13809097
600235988c6b062314984ac0,36,0,2024-02-27T14:15:14.629Z,english_174.wav,0,peel,504,30,5,4,english,m,2,0.2,-88.67347191,0.18584848
600235988c6b062314984ac0,36,0,2024-02-27T14:15:14.629Z,english_174.wav,0,peel,504,30,5,4,english,m,3,0.3,-20.58504224,1.46718454
600235988c6b062314984ac0,36,0,2024-02-27T14:15:14.629Z,english_174.wav,0,peel,504,30,5,4,english,m,4,0.32341667,-52.28073567,0.17567705
600235988c6b062314984ac0,37,0,2024-02-27T14:15:14.629Z,english_605.wav,0,pill,601,30,5,4,english,m,0,0.0,-82.65591545,0.90945233
600235988c6b062314984ac0,37,0,2024-02-27T14:15:14.629Z,english_605.wav,0,pill,601,30,5,4,english,m,1,0.1,35.78886654,1.65178877
600235988c6b062314984ac0,37,0,2024-02-27T14:15:14.629Z,english_605.wav,0,pill,601,30,5,4,english,m,2,0.2,-36.80716754,0.21181898
600235988c6b062314984ac0,37,0,2024-02-27T14:15:14.629Z,english_605.wav,0,pill,601,30,5,4,english,m,3,0.3,-4.39131435,1.21754483
600235988c6b062314984ac0,37,0,2024-02-27T14:15:14.629Z,english_605.wav,0,pill,601,30,5,4,english,m,4,0.32341667,-17.17702763,1.60493484
600235988c6b062314984ac0,38,0,2024-02-27T14:15:14.629Z,english_570.wav,0,pill,135,30,5,4,english,m,0,0.0,79.72420881,1.67561776
600235988c6b062314984ac0,38,0,2024-02-27T14:15:14.629Z,english_570.wav,0,pill,135,30,5,4,english,m,1,0.1,-10.34227762,1.50139893
600235988c6b062314984ac0,38,0,2024-02-27T14:15:14.629Z,english_570.wav,0,pill,135,30,5,4,english,m,2,0.2,18.32754659,1.41834695
600235988c6b062314984ac0,38,0,2024-02-27T14:15:14.629Z,english_570.wav,0,pill,135,30,5,4,english,m,3,0.3,15.23919529,1.12876239
600235988c6b062314984ac0,38,0,2024-02-27T14:15:14.629Z,english_570.wav,0,pill,135,30,5,4,english,m,4,0.32341667,-28.05357781,0.72546523
600235988c6b062314984ac0,39,0,2024-02-27T14:15:14.629Z,english_658.wav,0,peel,425,30,5,4,english,m,0,0.0,-80.21976745,0.49170119
600235988c6b062314984ac0,39,0,2024-02-27T14:15:14.629Z,english_658.wav,0,peel,425,30,5,4,english,m,1,0.1,11.23314836,0.6994793
600235988c6b062314984ac0,39,0,2024-02-27T14:15:14.629Z,english_658.wav,0,peel,425,30,5,4,english,m,2,0.2,8.94946791,1.18458539
600235988c6b062314984ac0,39,0,2024-02-27T14:15:14.629Z,english_658.wav,0,peel,425,30,5,4,english,m,3,0.3,17.22411688,0.7091276
600235988c6b062314984ac0,39,0,2024-02-27T14:15:14.629Z,english_658.wav,0,peel,425,30,5,4,english,m,4,0.32341667,10.67081381,1.7453453
600235988c6b062314984ac0,40,0,2024-02-27T14:15:14.629Z,english_109.wav,0,peel,359,30,5,4,english,m,0,0.0,44.56131593,1.07349586
600235988c6b062314984ac0,40,0,2024-02-27T14:15:14.629Z,english_109.wav,0,peel,359,30,5,4,english,m,1,0.1,-35.23159756,1.27535987
600235988c6b062314984ac0,40,0,2024-02-27T14:15:14.629Z,english_109.wav,0,peel,359,30,5,4,english,m,2,0.2,-19.62269282,1.28483541
600235988c6b062314984ac0,40,0,2024-02-27T14:15:14.629Z,english_109.wav,0,peel,359,30,5,4,english,m,3,0.3,38.10372837,1.04109326
600235988c6b062314984ac0,40,0,2024-02-27T14:15:14.629Z,english_109.wav,0,peel,359,30,5,4,english,m,4,0.32341667,-20.09605057,0.10213448
600235988c6b062314984ac0,41,0,2024-02-27T14:15:14.629Z,english_296.wav,0,pill,532,30,5,4,english,m,0,0.0,-4.92142852,1.99305172
600235988c6b062314984ac0,41,0,2024-02-27T14:15:14.629Z,english_296.wav,0,pill,532,30,5,4,english,m,1,0.1,-5.74196289,0.92633133
600235988c6b062314984ac0,41,0,2024-02-27T14:15:14.629Z,english_296.wav,0,pill,532,30,5,4,english,m,2,0.2,76.26647078,0.44879969
600235988c6b062314984ac0,41,0,2024-02-27T14:15:14.629Z,english_296.wav,0,pill,532,30,5,4,english,m,3,0.3,-62.74030654,1.47417428
600235988c6b062314984ac0,41,0,2024-02-27T14:15:14.629Z,english_296.wav,0,pill,532,30,5,4,english,m,4,0.32341667,-60.661992,1.05571007
600235988c6b062314984ac0,42,0,2024-02-27T14:15:14.629Z,english_866.wav,0,pill,256,30,5,4,english,m,0,0.0,-75.90204766,0.10539101
600235988c6b062314984ac0,42,0,2024-02-27T14:15:14.629Z,english_866.wav,0,pill,256,30,5,4,english,m,1,0.1,-89.66881049,1.63294926
600235988c6b062314984ac0,42,0,2024-02-27T14:15:14.629Z,english_866.wav,0,pill,256,30,5,4,english,m,2,0.2,-86.78535298,0.21421971
600235988c6b062314984ac0,42,0,2024-02-27T14:15:14.629Z,english_866.wav,0,pill,256,30,5,4,english,m,3,0.3,50.96369643,1.47001367
600235988c6b062314984ac0,42,0,2024-02-27T14:15:14.629Z,english_866.wav,0,pill,256,30,5,4,english,m,4,0.32341667,36.94157773,1.56453662
600235988c6b062314984ac0,43,0,2024-02-27T14:15:14.629Z,english_612.wav,0,peel,329,30,5,4,english,m,0,0.0,-84.32217164,1.34068621
600235988c6b062314984ac0,43,0,2024-02-27T14:15:14.629Z,english_612.wav,0,peel,329,30,5,4,english,m,1,0.1,36.55311424,0.03443149
600235988c6b062314984ac0,43,0,2024-02-27T14:15:14.629Z,english_612.wav,0,peel,329,30,5,4,english,m,2,0.2,92.38334081,0.45903509
600235988c6b062314984ac0,43,0,2024-02-27T14:15:14.629Z,english_612.wav,0,peel,329,30,5,4,english,m,3,0.3,11.68953794,0.60209198
600235988c6b062314984ac0,43,0,2024-02-27T14:15:14.629Z,english_612.wav,0,peel,329,30,5,4,english,m,4,0.32341667,43.3279226,0.29533154
600235988c6b062314984ac0,44,0,2024-02-27T14:15:14.629Z,english_132.wav,0,pill,596,30,5,4,english,m,0,0.0,-72.51222148,1.10010631
600235988c6b062314984ac0,44,0,2024-02-27T14:15:14.629Z,english_132.wav,0,pill,596,30,5,4,english,m,1,0.1,-7.68798614,1.14985521
600235988c6b062314984ac0,44,0,2024-02-27T14:15:14.629Z,english_132.wav,0,pill,596,30,5,4,english,m,2,0.2,-26.80347179,1.49426164
600235988c6b062314984ac0,44,0,2024-02-27T14:15:14.629Z,english_132.wav,0,pill,596,30,5,4,english,m,3,0.3,-51.62992771,1.25622472
600235988c6b062314984ac0,44,0,2024-02-27T14:15:14.629Z,english_132.wav,0,pill,596,30,5,4,english,m,4,0.32341667,-1.85745595,0.89976888
600235988c6b062314984ac0,45,0,2024-02-27T14:15:14.629Z,english_453.wav,0,peel,625,30,5,4,english,m,0,0.0,-60.23429987,1.87756573
600235988c6b062314984ac0,45,0,2024-02-27T14:15:14.629Z,english_453.wav,0,peel,625,30,5,4,english,m,1,0.1,80.38725697,0.94070469
600235988c6b062314984ac0,45,0,2024-02-27T14:15:14.629Z,english_453.wav,0,peel,625,30,5,4,english,m,2,0.2,66.16689695,1.71191258
600235988c6b062314984ac0,45,0,2024-02-27T14:15:14.629Z,english_453.wav,0,peel,625,30,5,4,english,m,3,0.3,-59.46214637,0.56012011
600235988c6b062314984ac0,45,0,2024-02-27T14:15:14.629Z,english_453.wav,0,peel,625,30,5,4,english,m,4,0.32341667,-39.76201882,0.35119419
600235988c6b062314984ac0,46,0,2024-02-27T14:15:14.629Z,english_253.wav,0,peel,259,30,5,4,english,m,0,0.0,12.9108365,0.20464585
600235988c6b062314984ac0,46,0,2024-02-27T14:15:14.629Z,english_253.wav,0,peel,259,30,5,4,english,m,1,0.1,-70.83420593,1.97412558
600235988c6b062314984ac0,46,0,2024-02-27T14:15:14.629Z,english_253.wav,0,peel,259,30,5,4,english,m,2,0.2,-6.13796162,1.12401504
600235988c6b062314984ac0,46,0,2024-02-27T14:15:14.629Z,english_253.wav,0,peel,259,30,5,4,english,m,3,0.3,38.03543053,1.75851492
600235988c6b062314984ac0,46,0,2024-02-27T14:15:14.629Z,english_253.wav,0,peel,259,30,5,4,english,m,4,0.32341667,-61.21147917,0.77953826
600235988c6b062314984ac0,47,0,2024-02-27T14:15:14.629Z,english_369.wav,0,peel,181,30,5,4,english,m,0,0.0,-12.14177447,1.64093778
600235988c6b062314984ac0,47,0,2024-02-27T14:15:14.629Z,english_369.wav,0,peel,181,30,5,4,english,m,1,0.1,76.29699147,1.47479283
600235988c6b062314984ac0,47,0,2024-02-27T14:15:14.629Z,english_369.wav,0,peel,181,30,5,4,english,m,2,0.2,-85.49552365,1.31757561
600235988c6b062314984ac0,47,0,2024-02-27T14:15:14.629Z,english_369.wav,0,peel,181,30,5,4,english,m,3,0.3,-68.94608988,1.92077404
600235988c6b062314984ac0,47,0,2024-02-27T14:15:14.629Z,english_369.wav,0,peel,181,30,5,4,english,m,4,0.32341667,40.32615784,1.4628922
600235988c6b062314984ac0,48,0,2024-02-27T14:15:14.629Z,english_989.wav,0,pill,243,30,5,4,english,m,0,0.0,-51.1051603,1.00035195
600235988c6b062314984ac0,48,0,2024-02-27T14:15:14.629Z,english_989.wav,0,pill,243,30,5,4,english,m,1,0.1,-91.26717948,0.46124463
600235988c6b062314984ac0,48,0,2024-02-27T14:15:14.629Z,english_989.wav,0,pill,243,30,5,4,english,m,2,0.2,73.5145218,0.77735517
600235988c6b062314984ac0,48,0,2024-02-27T14:15:14.629Z,english_989.wav,0,pill,243,30,5,4,english,m,3,0.3,54.43703181,1.21549894
600235988c6b062314984ac0,48,0,2024-02-27T14:15:14.629Z,english_989.wav,0,pill,243,30,5,4,english,m,4,0.32341667,-36.95823638,0.33045291
600235988c6b062314984ac0,49,0,2024-02-27T14:15:14.629Z,english_139.wav,0,peel,119,30,5,4,english,m,0,0.0,55.35526281,1.40478417
600235988c6b062314984ac0,49,0,2024-02-27T14:15:14.629Z,english_139.wav,0,peel,119,30,5,4,english,m,1,0.1,-66.48550036,1.12007301
600235988c6b062314984ac0,49,0,2024-02-27T14:15:14.629Z,english_139.wav,0,peel,119,30,5,4,english,m,2,0.2,21.45340352,1.58559909
600235988c6b062314984ac0,49,0,2024-02-27T14:15:14.629Z,english_139.wav,0,peel,119,30,5,4,english,m,3,0.3,-32.80413748,1.13081383
600235988c6b062314984ac0,49,0,2024-02-27T14:15:14.629Z,english_139.wav,0,peel,119,30,5,4,english,m,4,0.32341667,-77.32206638,0.38560717
600235988c6b062314984ac0,50,1,2024-02-27T14:15:14.629Z,english_879.wav,0,peel,253,30,5,4,english,m,0,0.0,-56.32485069,0.53184386
600235988c6b062314984ac0,50,1,2024-02-27T14:15:14.629Z,english_879.wav,0,peel,253,30,5,4,english,m,1,0.1,64.67592183,1.34296213
600235988c6b062314984ac0,50,1,2024-02-27T14:15:14.629Z,english_879.wav,0,peel,253,30,5,4,english,m,2,0.2,25.82204554,0.44649674
600235988c6b062314984ac0,50,1,2024-02-27T14:15:14.629Z,english_879.wav,0,peel,253,30,5,4,english,m,3,0.3,5.66794257,0.79707043
600235988c6b062314984ac0,50,1,2024-02-27T14:15:14.629Z,english_879.wav,0,peel,253,30,5,4,english,m,4,0.32341667,-31.65503708,1.19804995
600235988c6b062314984ac0,51,1,2024-02-27T14:15:14.629Z,english_715.wav,0,peel,253,30,5,4,english,m,0,0.0,-64.21420564,1.80154013
600235988c6b062314984ac0,51,1,2024-02-27T14:15:14.629Z,english_715.wav,0,peel,253,30,5,4,english,m,1,0.1,77.40813629,0.51096517
600235988c6b062314984ac0,51,1,2024-02-27T14:15:14.629Z,english_715.wav,0,peel,253,30,5,4,english,m,2,0.2,-98.26791609,0.49870215
600235988c6b062314984ac0,51,1,2024-02-27T14:15:14.629Z,english_715.wav,0,peel,253,30,5,4,english,m,3,0.3,-32.66334796,0.64344691
600235988c6b062314984ac0,51,1,2024-02-27T14:15:14.629Z,english_715.wav,0,peel,253,30,5,4,english,m,4,0.32341667,93.12500574,1.17662216
600235988c6b062314984ac0,52,1,2024-02-27T14:15:14.629Z,english_165.wav,0,peel,287,30,5,4,english,m,0,0.0,-65.85966689,0.99094124
600235988c6b062314984ac0,52,1,2024-02-27T14:15:14.629Z,english_165.wav,0,peel,287,30,5,4,english,m,1,0.1,57.4210377,1.25140592
600235988c6b062314984ac0,52,1,2024-02-27T14:15:14.629Z,english_165.wav,0,peel,287,30,5,4,english,m,2,0.2,-53.4891742,1.66606931
600235988c6b062314984ac0,52,1,2024-02-27T14:15:14.629Z,english_165.wav,0,peel,287,30,5,4,english,m,3,0.3,-32.80877015,0.56557264
600235988c6b062314984ac0,52,1,2024-02-27T14:15:14.629Z,english_165.wav,0,peel,287,30,5,4,english,m,4,0.32341667,-23.63509804,1.31427626
600235988c6b062314984ac0,53,1,2024-02-27T14:15:14.629Z,english_627.wav,0,pill,308,30,5,4,english,m,0,0.0,-53.99355102,0.04887222
600235988c6b062314984ac0,53,1,2024-02-27T14:15:14.629Z,english_627.wav,0,pill,308,30,5,4,english,m,1,0.1,-3.03417463,0.14119608
600235988c6b062314984ac0,53,1,2024-02-27T14:15:14.629Z,english_627.wav,0,pill,308,30,5,4,english,m,2,0.2,83.9257281,0.97350107
600235988c6b062314984ac0,53,1,2024-02-27T14:15:14.629Z,english_627.wav,0,pill,308,30,5,4,english,m,3,0.3,52.52073868,0.6697358
600235988c6b062314984ac0,53,1,2024-02-27T14:15:14.629Z,english_627.wav,0,pill,308,30,5,4,english,m,4,0.32341667,-13.85481025,0.92660526
600235988c6b062314984ac0,54,1,2024-02-27T14:15:14.629Z,english_802.wav,0,pill,180,30,5,4,english,m,0,0.0,44.11448731,1.89082481
600235988c6b062314984ac0,54,1,2024-02-27T14:15:14.629Z,english_802.wav,0,pill,180,30,5,4,english,m,1,0.1,27.89646601,1.73386287
600235988c6b062314984ac0,54,1,2024-02-27T14:15:14.629Z,english_802.wav,0,pill,180,30,5,4,english,m,2,0.2,-19.36127415,0.34468699
600235988c6b062314984ac0,54,1,2024-02-27T14:15:14.629Z,english_802.wav,0,pill,180,30,5,4,english,m,3,0.3,15.17899174,0.39328876
600235988c6b062314984ac0,54,1,2024-02-27T14:15:14.629Z,english_802.wav,0,pill,180,30,5,4,english,m,4,0.32341667,-18.70870555,1.25778986
600235988c6b062314984ac0,55,1,2024-02-27T14:15:14.629Z,english_799.wav,0,pill,313,30,5,4,english,m,0,0.0,-48.4958847,1.9233431
600235988c6b062314984ac0,55,1,2024-02-27T14:15:14.629Z,english_799.wav,0,pill,313,30,5,4,english,m,1,0.1,-9.52866418,1.11542891
600235988c6b062314984ac0,55,1,2024-02-27T14:15:14.629Z,english_799.wav,0,pill,313,30,5,4,english,m,2,0.2,1.94176449,0.95865462
600235988c6b062314984ac0,55,1,2024-02-27T14:15:14.629Z,english_799.wav,0,pill,313,30,5,4,english,m,3,0.3,5.71676827,0.6616034
600235988c6b062314984ac0,55,1,2024-02-27T14:15:14.629Z,english_799.wav,0,pill,313,30,5,4,english,m,4,0.32341667,30.27282792,1.91183458
600235988c6b062314984ac0,56,1,2024-02-27T14:15:14.629Z,english_496.wav,0,peel,165,30,5,4,english,m,0,0.0,-50.36729616,1.24588939
600235988c6b062314984ac0,56,1,2024-02-27T14:15:14.629Z,english_496.wav,0,peel,165,30,5,4,english,m,1,0.1,43.15166092,1.651593
600235988c6b062314984ac0,56,1,2024-02-27T14:15:14.629Z,english_496.wav,0,peel,165,30,5,4,english,m,2,0.2,-89.08132341,0.94120535
600235988c6b062314984ac0,56,1,2024-02-27T14:15:14.629Z,english_496.wav,0,peel,165,30,5,4,english,m,3,0.3,-31.93753525,0.55989053
600235988c6b062314984ac0,56,1,2024-02-27T14:15:14.629Z,english_496.wav,0,peel,165,30,5,4,english,m,4,0.32341667,-79.66514086,1.95233748
600235988c6b062314984ac0,57,1,2024-02-27T14:15:14.629Z,english_148.wav,0,pill,413,30,5,4,english,m,0,0.0,-15.87588743,0.13468567
600235988c6b062314984ac0,57,1,2024-02-27T14:15:14.629Z,english_148.wav,0,pill,413,30,5,4,english,m,1,0.1,66.05332506,1.11017862
600235988c6b062314984ac0,57,1,2024-02-27T14:15:14.629Z,english_148.wav,0,pill,413,30,5,4,english,m,2,0.2,50.59551539,0.42983488
600235988c6b062314984ac0,57,1,2024-02-27T14:15:14.629Z,english_148.wav,0,pill,413,30,5,4,english,m,3,0.3,-59.45276716,0.2729575
600235988c6b062314984ac0,57,1,2024-02-27T14:15:14.629Z,english_148.wav,0,pill,413,30,5,4,english,m,4,0.32341667,58.4155276,0.65396017
600235988c6b062314984ac0,58,1,2024-02-27T14:15:14.629Z,english_928.wav,0,peel,291,30,5,4,english,m,0,0.0,55.07207497,1.22706758
600235988c6b062314984ac0,58,1,2024-02-27T14:15:14.629Z,english_928.wav,0,peel,291,30,5,4,english,m,1,0.1,83.71672672,0.97206042
600235988c6b062314984ac0,58,1,2024-02-27T14:15:14.629Z,english_928.wav,0,peel,291,30,5,4,english,m,2,0.2,-43.28929986,0.16969859
600235988c6b062314984ac0,58,1,2024-02-27T14:15:14.629Z,english_928.wav,0,peel,291,30,5,4,english,m,3,0.3,-17.1692271,0.90092586
600235988c6b062314984ac0,58,1,2024-02-27T14:15:14.629Z,english_928.wav,0,peel,291,30,5,4,english,m,4,0.32341667,-36.644272,0.43024518
600235988c6b062314984ac0,59,1,2024-02-27T14:15:14.629Z,english_99.wav,0,pill,458,30,5,4,english,m,0,0.0,9.75149611,0.79411887
600235988c6b062314984ac0,59,1,2024-02-27T14:15:14.629Z,english_99.wav,0,pill,458,30,5,4,english,m,1,0.1,-7.37998228,0.53064308
600235988c6b062314984ac0,59,1,2024-02-27T14:15:14.629Z,english_99.wav,0,pill,458,30,5,4,english,m,2,0.2,29.15889261,0.10254027
600235988c6b062314984ac0,59,1,2024-02-27T14:15:14.629Z,english_99.wav,0,pill,458,30,5,4,english,m,3,0.3,-23.23230809,0.53999741
600235988c6b062314984ac0,59,1,2024-02-27T14:15:14.629Z,english_99.wav,0,pill,458,30,5,4,english,m,4,0.32341667,51.25937721,0.74302856
600235988c6b062314984ac0,60,1,2024-02-27T14:15:14.629Z,english_256.wav,0,peel,368,30,5,4,english,m,0,0.0,22.60769813,1.84037168
600235988c6b062314984ac0,60,1,2024-02-27T14:15:14.629Z,english_256.wav,0,peel,368,30,5,4,english,m,1,0.1,-95.01444593,0.47687766
600235988c6b062314984ac0,60,1,2024-02-27T14:15:14.629Z,english_256.wav,0,peel,368,30,5,4,english,m,2,0.2,-19.91310746,0.85339151
600235988c6b062314984ac0,60,1,2024-02-27T14:15:14.629Z,english_256.wav,0,peel,368,30,5,4,english,m,3,0.3,-6.39209363,0.75097161
600235988c6b062314984ac0,60,1,2024-02-27T14:15:14.629Z,english_256.wav,0,peel,368,30,5,4,english,m,4,0.32341667,24.02209282,1.98695073
600235988c6b062314984ac0,61,1,2024-02-27T14:15:14.629Z,english_358.wav,0,peel,232,30,5,4,english,m,0,0.0,-24.40280242,0.64702298
600235988c6b062314984ac0,61,1,2024-02-27T14:15:14.629Z,english_358.wav,0,peel,232,30,5,4,english,m,1,0.1,62.18566088,0.86836285
600235988c6b062314984ac0,61,1,2024-02-27T14:15:14.629Z,english_358.wav,0,peel,232,30,5,4,english,m,2,0.2,5.26675109,1.05826104
600235988c6b062314984ac0,61,1,2024-02-27T14:15:14.629Z,english_358.wav,0,peel,232,30,5,4,english,m,3,0.3,-31.91571391,1.98011631
600235988c6b062314984ac0,61,1,2024-02-27T14:15:14.629Z,english_358.wav,0,peel,232,30,5,4,english,m,4,0.32341667,27.35112364,0.35058307
600235988c6b062314984ac0,62,1,2024-02-27T14:15:14.629Z,english_579.wav,0,peel,305,30,5,4,english,m,0,0.0,78.52989573,1.74799876
600235988c6b062314984ac0,62,1,2024-02-27T14:15:14.629Z,english_579.wav,0,peel,305,30,5,4,english,m,1,0.1,-26.17758211,0.36264633
600235988c6b062314984ac0,62,1,2024-02-27T14:15:14.629Z,english_579.wav,0,peel,305,30,5,4,english,m,2,0.2,-65.60231522,1.15645327
600235988c6b062314984ac0,62,1,2024-02-27T14:15:14.629Z,english_579.wav,0,peel,305,30,5,4,english,m,3,0.3,-66.03357835,1.81639149
600235988c6b062314984ac0,62,1,2024-02-27T14:15:14.629Z,english_579.wav,0,peel,305,30,5,4,english,m,4,0.32341667,-36.23940811,1.38509752
600235988c6b062314984ac0,63,1,2024-02-27T14:15:14.629Z,english_704.wav,0,pill,56,30,5,4,english,m,0,0.0,-24.48288207,0.92043902
600235988c6b062314984ac0,63,1,2024-02-27T14:15:14.629Z,english_704.wav,0,pill,56,30,5,4,english,m,1,0.1,-9.94163531,0.96595902
600235988c6b062314984ac0,63,1,2024-02-27T14:15:14.629Z,english_704.wav,0,pill,56,30,5,4,english,m,2,0.2,74.85271107,1.40327859
600235988c6b062314984ac0,63,1,2024-02-27T14:15:14.629Z,english_704.wav,0,pill,56,30,5,4,english,m,3,0.3,-38.44921803,1.07325586
600235988c6b062314984ac0,63,1,2024-02-27T14:15:14.629Z,english_704.wav,0,pill,56,30,5,4,english,m,4,0.32341667,-21.20994959,1.87555588
600235988c6b062314984ac0,64,1,2024-02-27T14:15:14.629Z,english_781.wav,0,peel,382,30,5,4,english,m,0,0.0,22.64916165,0.31928057
600235988c6b062314984ac0,64,1,2024-02-27T14:15:14.629Z,english_781.wav,0,peel,382,30,5,4,english,m,1,0.1,6.89582518,1.4040275
600235988c6b062314984ac0,64,1,2024-02-27T14:15:14.629Z,english_781.wav,0,peel,382,30,5,4,english,m,2,0.2,-79.07711894,0.86558079
600235988c6b062314984ac0,64,1,2024-02-27T14:15:14.629Z,english_781.wav,0,peel,382,30,5,4,english,m,3,0.3,66.534152,0.14510309
600235988c6b062314984ac0,64,1,2024-02-27T14:15:14.629Z,english_781.wav,0,peel,382,30,5,4,english,m,4,0.32341667,93.30494506,0.79620595
600235988c6b062314984ac0,65,1,2024-02-27T14:15:14.629Z,english_791.wav,0,pill,293,30,5,4,english,m,0,0.0,65.91759783,1.00744019
600235988c6b062314984ac0,65,1,2024-02-27T14:15:14.629Z,english_791.wav,0,pill,293,30,5,4,english,m,1,0.1,-36.70731143,0.67929445
600235988c6b062314984ac0,65,1,2024-02-27T14:15:14.629Z,english_791.wav,0,pill,293,30,5,4,english,m,2,0.2,67.54354156,0.95779159
600235988c6b062314984ac0,65,1,2024-02-27T14:15:14.629Z,english_791.wav,0,pill,293,30,5,4,english,m,3,0.3,2.89249458,1.93585264
600235988c6b062314984ac0,65,1,2024-02-27T14:15:14.629Z,english_791.wav,0,pill,293,30,5,4,english,m,4,0.32341667,-55.92630603,0.7587469
600235988c6b062314984ac0,66,1,2024-02-27T14:15:14.629Z,english_471.wav,0,peel,157,30,5,4,english,m,0,0.0,47.42131089,0.58869392
600235988c6b062314984ac0,66,1,2024-02-27T14:15:14.629Z,english_471.wav,0,peel,157,30,5,4,english,m,1,0.1,-63.95282256,1.74739294
600235988c6b062314984ac0,66,1,2024-02-27T14:15:14.629Z,english_471.wav,0,peel,157,30,5,4,english,m,2,0.2,31.67244378,1.10105994
600235988c6b062314984ac0,66,1,2024-02-27T14:15:14.629Z,english_471.wav,0,peel,157,30,5,4,english,m,3,0.3,40.6572625,0.54790015
600235988c6b062314984ac0,66,1,2024-02-27T14:15:14.629Z,english_471.wav,0,peel,157,30,5,4,english,m,4,0.32341667,-18.6332399,1.33029013
600235988c6b062314984ac0,67,1,2024-02-27T14:15:14.629Z,english_339.wav,0,pill,414,30,5,4,english,m,0,0.0,-58.67599578,0.13141934
600235988c6b062314984ac0,67,1,2024-02-27T14:15:14.629Z,english_339.wav,0,pill,414,30,5,4,english,m,1,0.1,-13.30258388,0.16133177
600235988c6b062314984ac0,67,1,2024-02-27T14:15:14.629Z,english_339.wav,0,pill,414,30,5,4,english,m,2,0.2,-52.40820381,1.13500643
600235988c6b062314984ac0,67,1,2024-02-27T14:15:14.629Z,english_339.wav,0,pill,414,30,5,4,english,m,3,0.3,11.33062491,0.98717522
600235988c6b062314984ac0,67,1,2024-02-27T14:15:14.629Z,english_339.wav,0,pill,414,30,5,4,english,m,4,0.32341667,9.6385593,0.10332776
600235988c6b062314984ac0,68,1,2024-02-27T14:15:14.629Z,english_899.wav,0,peel,496,30,5,4,english,m,0,0.0,34.44970312,1.0262563
600235988c6b062314984ac0,68,1,2024-02-27T14:15:14.629Z,english_899.wav,0,peel,496,30,5,4,english,m,1,0.1,-73.97598586,0.5565938
600235988c6b062314984ac0,68,1,2024-02-27T14:15:14.629Z,english_899.wav,0,peel,496,30,5,4,english,m,2,0.2,4.84970015,0.08950317
600235988c6b062314984ac0,68,1,2024-02-27T14:15:14.629Z,english_899.wav,0,peel,496,30,5,4,english,m,3,0.3,25.99530817,1.10823657
600235988c6b062314984ac0,68,1,2024-02-27T14:15:14.629Z,english_899.wav,0,peel,496,30,5,4,english,m,4,0.32341667,7.0197251,1.27665612
600235988c6b062314984ac0,69,1,2024-02-27T14:15:14.629Z,english_300.wav,0,pill,360,30,5,4,english,m,0,0.0,-57.32903368,1.31106943
600235988c6b062314984ac0,69,1,2024-02-27T14:15:14.629Z,english_300.wav,0,pill,360,30,5,4,english,m,1,0.1,-14.80176218,1.36432179
600235988c6b062314984ac0,69,1,2024-02-27T14:15:14.629Z,english_300.wav,0,pill,360,30,5,4,english,m,2,0.2,17.32090115,1.9756976
600235988c6b062314984ac0,69,1,2024-02-27T14:15:14.629Z,english_300.wav,0,pill,360,30,5,4,english,m,3,0.3,9.38584248,1.38621255
600235988c6b062314984ac0,69,1,2024-02-27T14:15:14.629Z,english_300.wav,0,pill,360,30,5,4,english,m,4,0.32341667,-54.58865419,1.60203422
600235988c6b062314984ac0,70,1,2024-02-27T14:15:14.629Z,english_518.wav,0,pill,601,30,5,4,english,m,0,0.0,52.37511869,0.23824141
600235988c6b062314984ac0,70,1,2024-02-27T14:15:14.629Z,english_518.wav,0,pill,601,30,5,4,english,m,1,0.1,-33.3490586,0.80559068
600235988c6b062314984ac0,70,1,2024-02-27T14:15:14.629Z,english_518.wav,0,pill,601,30,5,4,english,m,2,0.2,-71.20035434,1.24725456
600235988c6b062314984ac0,70,1,2024-02-27T14:15:14.629Z,english_518.wav,0,pill,601,30,5,4,english,m,3,0.3,6.23243823,1.01334401
600235988c6b062314984ac0,70,1,2024-02-27T14:15:14.629Z,english_518.wav,0,pill,601,30,5,4,english,m,4,0.32341667,-29.48660546,1.51264586
600235988c6b062314984ac0,71,1,2024-02-27T14:15:14.629Z,english_374.wav,0,peel,313,30,5,4,english,m,0,0.0,-43.98521466,1.11607514
600235988c6b062314984ac0,71,1,2024-02-27T14:15:14.629Z,english_374.wav,0,peel,313,30,5,4,english,m,1,0.1,-24.87181663,0.38249505
600235988c6b062314984ac0,71,1,2024-02-27T14:15:14.629Z,english_374.wav,0,peel,313,30,5,4,english,m,2,0.2,-29.31566683,1.56774755
600235988c6b062314984ac0,71,1,2024-02-27T14:15:14.629Z,english_374.wav,0,peel,313,30,5,4,english,m,3,0.3,-43.36019392,1.33837662
600235988c6b062314984ac0,71,1,2024-02-27T14:15:14.629Z,english_374.wav,0,peel,313,30,5,4,english,m,4,0.32341667,-35.5175379,0.68793086
600235988c6b062314984ac0,72,1,2024-02-27T14:15:14.629Z,english_609.wav,0,pill,188,30,5,4,english,m,0,0.0,93.61263388,0.51617504
600235988c6b062314984ac0,72,1,2024-02-27T14:15:14.629Z,english_609.wav,0,pill,188,30,5,4,english,m,1,0.1,38.40290552,0.56544547
600235988c6b062314984ac0,72,1,2024-02-27T14:15:14.629Z,english_609.wav,0,pill,188,30,5,4,english,m,2,0.2,-21.94770243,0.43418402
600235988c6b062314984ac0,72,1,2024-02-27T14:15:14.629Z,english_609.wav,0,pill,188,30,5,4,english,m,3,0.3,-11.92302894,1.38818447
600235988c6b062314984ac0,72,1,2024-02-27T14:15:14.629Z,english_609.wav,0,pill,188,30,5,4,english,m,4,0.32341667,30.65806027,1.36410066
600235988c6b062314984ac0,73,1,2024-02-27T14:15:14.629Z,english_906.wav,0,pill,344,30,5,4,english,m,0,0.0,-40.48589107,1.22436898
600235988c6b062314984ac0,73,1,2024-02-27T14:15:14.629Z,english_906.wav,0,pill,344,30,5,4,english,m,1,0.1,47.48995475,1.54823641
600235988c6b062314984ac0,73,1,2024-02-27T14:15:14.629Z,english_906.wav,0,pill,344,30,5,4,english,m,2,0.2,-46.73743802,1.02590908
600235988c6b062314984ac0,73,1,2024-02-27T14:15:14.629Z,english_906.wav,0,pill,344,30,5,4,english,m,3,0.3,-97.96557374,1.74877791
600235988c6b062314984ac0,73,1,2024-02-27T14:15:14.629Z,english_906.wav,0,pill,344,30,5,4,english,m,4,0.32341667,18.48293991,0.76585735
600235988c6b062314984ac0,74,1,2024-02-27T14:15:14.629Z,english_948.wav,0,peel,469,30,5,4,english,m,0,0.0,12.28616187,1.33435242
600235988c6b062314984ac0,74,1,2024-02-27T14:15:14.629Z,english_948.wav,0,peel,469,30,5,4,english,m,1,0.1,33.44634687,1.33862855
600235988c6b062314984ac0,74,1,2024-02-27T14:15:14.629Z,english_948.wav,0,peel,469,30,5,4,english,m,2,0.2,98.80566767,1.25876505
600235988c6b062314984ac0,74,1,2024-02-27T14:15:14.629Z,english_948.wav,0,peel,469,30,5,4,english,m,3,0.3,-93.57044844,1.87938727
600235988c6b062314984ac0,74,1,2024-02-27T14:15:14.629Z,english_948.wav,0,peel,469,30,5,4,english,m,4,0.32341667,-51.09398555,1.88731406
600235988c6b062314984ac0,75,1,2024-02-27T14:15:14.629Z,english_474.wav,0,pill,831,30,5,4,english,m,0,0.0,42.88606971,0.87351765
600235988c6b062314984ac0,75,1,2024-02-27T14:15:14.629Z,english_474.wav,0,pill,831,30,5,4,english,m,1,0.1,6.82691085,1.08551449
600235988c6b062314984ac0,75,1,2024-02-27T14:15:14.629Z,english_474.wav,0,pill,831,30,5,4,english,m,2,0.2,-33.80031927,1.99847166
600235988c6b062314984ac0,75,1,2024-02-27T14:15:14.629Z,english_474.wav,0,pill,831,30,5,4,english,m,3,0.3,-97.18672796,0.27470298
600235988c6b062314984ac0,75,1,2024-02-27T14:15:14.629Z,english_474.wav,0,pill,831,30,5,4,english,m,4,0.32341667,-4.7462475,0.02962094
600235988c6b062314984ac0,76,1,2024-02-27T14:15:14.629Z,english_902.wav,0,pill,276,30,5,4,english,m,0,0.0,-4.27617126,0.16330526
600235988c6b062314984ac0,76,1,2024-02-27T14:15:14.629Z,english_902.wav,0,pill,276,30,5,4,english,m,1,0.1,-5.01127315,0.62492789
600235988c6b062314984ac0,76,1,2024-02-27T14:15:14.629Z,english_902.wav,0,pill,276,30,5,4,english,m,2,0.2,83.22080084,1.08638924
600235988c6b062314984ac0,76,1,2024-02-27T14:15:14.629Z,english_902.wav,0,pill,276,30,5,4,english,m,3,0.3,77.56473772,1.61764227
600235988c6b062314984ac0,76,1,2024-02-27T14:15:14.629Z,english_902.wav,0,pill,276,30,5,4,english,m,4,0.32341667,-13.02741535,1.72075309
600235988c6b062314984ac0,77,1,2024-02-27T14:15:14.629Z,english_836.wav,0,pill,565,30,5,4,english,m,0,0.0,34.85846782,1.04017402
600235988c6b062314984ac0,77,1,2024-02-27T14:15:14.629Z,english_836.wav,0,pill,565,30,5,4,english,m,1,0.1,41.54458908,0.35535359
600235988c6b062314984ac0,77,1,2024-02-27T14:15:14.629Z,english_836.wav,0,pill,565,30,5,4,english,m,2,0.2,23.27363575,0.10471693
600235988c6b062314984ac0,77,1,2024-02-27T14:15:14.629Z,english_836.wav,0,pill,565,30,5,4,english,m,3,0.3,86.83996211,0.55523491
600235988c6b062314984ac0,77,1,2024-02-27T14:15:14.629Z,english_836.wav,0,pill,565,30,5,4,english,m,4,0.32341667,-32.25656931,0.70311776
600235988c6b062314984ac0,78,1,2024-02-27T14:15:14.629Z,english_341.wav,0,peel,802,30,5,4,english,m,0,0.0,-3.29192029,0.92007635
600235988c6b062314984ac0,78,1,2024-02-27T14:15:14.629Z,english_341.wav,0,peel,802,30,5,4,english,m,1,0.1,-63.07334109,0.76766635
600235988c6b062314984ac0,78,1,2024-02-27T14:15:14.629Z,english_341.wav,0,peel,802,30,5,4,english,m,2,0.2,-52.81319379,0.00478881
600235988c6b062314984ac0,78,1,2024-02-27T14:15:14.629Z,english_341.wav,0,peel,802,30,5,4,english,m,3,0.3,47.65296252,0.69804387
600235988c6b062314984ac0,78,1,2024-02-27T14:15:14.629Z,english_341.wav,0,peel,802,30,5,4,english,m,4,0.32341667,-2.67842738,0.15231077
600235988c6b062314984ac0,79,1,2024-02-27T14:15:14.629Z,english_640.wav,0,pill,183,30,5,4,english,m,0,0.0,74.95875769,1.81273707
600235988c6b062314984ac0,79,1,2024-02-27T14:15:14.629Z,english_640.wav,0,pill,183,30,5,4,english,m,1,0.1,87.73764633,1.50076703
600235988c6b062314984ac0,79,1,2024-02-27T14:15:14.629Z,english_640.wav,0,pill,183,30,5,4,english,m,2,0.2,-71.36544648,0.25286143
600235988c6b062314984ac0,79,1,2024-02-27T14:15:14.629Z,english_640.wav,0,pill,183,30,5,4,english,m,3,0.3,11.07583082,0.53181051
600235988c6b062314984ac0,79,1,2024-02-27T14:15:14.629Z,english_640.wav,0,pill,183,30,5,4,english,m,4,0.32341667,18.32643638,0.76351343
600235988c6b062314984ac0,80,1,2024-02-27T14:15:14.629Z,english_444.wav,0,pill,849,30,5,4,english,m,0,0.0,57.2872587,0.52242118
600235988c6b062314984ac0,80,1,2024-02-27T14:15:14.629Z,english_444.wav,0,pill,849,30,5,4,english,m,1,0.1,68.85097071,1.61316948
600235988c6b062314984ac0,80,1,2024-02-27T14:15:14.629Z,english_444.wav,0,pill,849,30,5,4,english,m,2,0.2,-30.10164543,0.15196309
600235988c6b062314984ac0,80,1,2024-02-27T14:15:14.629Z,english_444.wav,0,pill,849,30,5,4,english,m,3,0.3,-57.0249627,0.44426911
600235988c6b062314984ac0,80,1,2024-02-27T14:15:14.629Z,english_444.wav,0,pill,849,30,5,4,english,m,4,0.32341667,-54.19692118,1.48693747
600235988c6b062314984ac0,81,1,2024-02-27T14:15:14.629Z,english_456.wav,0,peel,785,30,5,4,english,m,0,0.0,43.57092671,0.12750432
600235988c6b062314984ac0,81,1,2024-02-27T14:15:14.629Z,english_456.wav,0,peel,785,30,5,4,english,m,1,0.1,59.73787768,0.97340157
600235988c6b062314984ac0,81,1,2024-02-27T14:15:14.629Z,english_456.wav,0,peel,785,30,5,4,english,m,2,0.2,82.18665257,0.43547726
600235988c6b062314984ac0,81,1,2024-02-27T14:15:14.629Z,english_456.wav,0,peel,785,30,5,4,english,m,3,0.3,84.09992258,1.17970357
600235988c6b062314984ac0,81,1,2024-02-27T14:15:14.629Z,english_456.wav,0,peel,785,30,5,4,english,m,4,0.32341667,14.68455092,0.64309566
600235988c6b062314984ac0,82,1,2024-02-27T14:15:14.629Z,english_336.wav,0,pill,586,30,5,4,english,m,0,0.0,29.43389708,1.05594545
600235988c6b062314984ac0,82,1,2024-02-27T14:15:14.629Z,english_336.wav,0,pill,586,30,5,4,english,m,1,0.1,-98.82505887,1.57774783
600235988c6b062314984ac0,82,1,2024-02-27T14:15:14.629Z,english_336.wav,0,pill,586,30,5,4,english,m,2,0.2,33.95949266,1.35373128
600235988c6b062314984ac0,82,1,2024-02-27T14:15:14.629Z,english_336.wav,0,pill,586,30,5,4,english,m,3,0.3,-57.79711044,1.04960404
600235988c6b062314984ac0,82,1,2024-02-27T14:15:14.629Z,english_336.wav,0,pill,586,30,5,4,english,m,4,0.32341667,81.65015026,0.39151968
600235988c6b062314984ac0,83,1,2024-02-27T14:15:14.629Z,english_229.wav,0,pill,482,30,5,4,english,m,0,0.0,51.56916705,1.25898044
600235988c6b062314984ac0,83,1,2024-02-27T14:15:14.629Z,english_229.wav,0,pill,482,30,5,4,english,m,1,0.1,-51.28327497,0.34588319
600235988c6b062314984ac0,83,1,2024-02-27T14:15:14.629Z,english_229.wav,0,pill,482,30,5,4,english,m,2,0.2,97.78221202,1.91985924
600235988c6b062314984ac0,83,1,2024-02-27T14:15:14.629Z,english_229.wav,0,pill,482,30,5,4,english,m,3,0.3,-75.98126047,0.82059623
600235988c6b062314984ac0,83,1,2024-02-27T14:15:14.629Z,english_229.wav,0,pill,482,30,5,4,english,m,4,0.32341667,-44.05308002,1.38191391
600235988c6b062314984ac0,84,1,2024-02-27T14:15:14.629Z,english_362.wav,0,peel,454,30,5,4,english,m,0,0.0,12.71485551,1.44490364
600235988c6b062314984ac0,84,1,2024-02-27T14:15:14.629Z,english_362.wav,0,peel,454,30,5,4,english,m,1,0.1,-18.83660308,1.3029027
600235988c6b062314984ac0,84,1,2024-02-27T14:15:14.629Z,english_362.wav,0,peel,454,30,5,4,english,m,2,0.2,-52.07271323,1.10609828
600235988c6b062314984ac0,84,1,2024-02-27T14:15:14.629Z,english_362.wav,0,peel,454,30,5,4,english,m,3,0.3,-29.96931661,1.18379787
600235988c6b062314984ac0,84,1,2024-02-27T14:15:14.629Z,english_362.wav,0,peel,454,30,5,4,english,m,4,0.32341667,-9.99178163,1.80996789
600235988c6b062314984ac0,85,1,2024-02-27T14:15:14.629Z,english_45.wav,0,pill,414,30,5,4,english,m,0,0.0,72.55677234,0.302627
600235988c6b062314984ac0,85,1,2024-02-27T14:15:14.629Z,english_45.wav,0,pill,414,30,5,4,english,m,1,0.1,34.43244276,1.957389
600235988c6b062314984ac0,85,1,2024-02-27T14:15:14.629Z,english_45.wav,0,pill,414,30,5,4,english,m,2,0.2,12.66368291,1.1456601
600235988c6b062314984ac0,85,1,2024-02-27T14:15:14.629Z,english_45.wav,0,pill,414,30,5,4,english,m,3,0.3,47.17471186,1.77472104
600235988c6b062314984ac0,85,1,2024-02-27T14:15:14.629Z,english_45.wav,0,pill,414,30,5,4,english,m,4,0.32341667,-48.2883803,1.7760992
600235988c6b062314984ac0,86,1,2024-02-27T14:15:14.629Z,english_377.wav,0,pill,21,30,5,4,english,m,0,0.0,74.10679581,1.90218841
600235988c6b062314984ac0,86,1,2024-02-27T14:15:14.629Z,english_377.wav,0,pill,21,30,5,4,english,m,1,0.1,-97.36412995,1.60160035
600235988c6b062314984ac0,86,1,2024-02-27T14:15:14.629Z,english_377.wav,0,pill,21,30,5,4,english,m,2,0.2,-84.25672888,1.668912
600235988c6b062314984ac0,86,1,2024-02-27T14:15:14.629Z,english_377.wav,0,pill,21,30,5,4,english,m,3,0.3,27.09308902,1.51590505
600235988c6b062314984ac0,86,1,2024-02-27T14:15:14.629Z,english_377.wav,0,pill,21,30,5,4,english,m,4,0.32341667,-12.33253686,0.99909344
600235988c6b062314984ac0,87,1,2024-02-27T14:15:14.629Z,english_565.wav,0,peel,318,30,5,4,english,m,0,0.0,-89.95965492,1.93181176
600235988c6b062314984ac0,87,1,2024-02-27T14:15:14.629Z,english_565.wav,0,peel,318,30,5,4,english,m,1,0.1,67.55938023,1.29027557
600235988c6b062314984ac0,87,1,2024-02-27T14:15:14.629Z,english_565.wav,0,peel,318,30,5,4,english,m,2,0.2,26.6208604,0.36054668
600235988c6b062314984ac0,87,1,2024-02-27T14:15:14.629Z,english_565.wav,0,peel,318,30,5,4,english,m,3,0.3,-54.20230035,1.25973455
600235988c6b062314984ac0,87,1,2024-02-27T14:15:14.629Z,english_565.wav,0,peel,318,30,5,4,english,m,4,0.32341667,-98.16020256,0.92743077
600235988c6b062314984ac0,88,1,2024-02-27T14:15:14.629Z,english_204.wav,0,pill,454,30,5,4,english,m,0,0.0,67.46317025,1.58701212
600235988c6b062314984ac0,88,1,2024-02-27T14:15:14.629Z,english_204.wav,0,pill,454,30,5,4,english,m,1,0.1,38.91463365,1.82178317
600235988c6b062314984ac0,88,1,2024-02-27T14:15:14.629Z,english_204.wav,0,pill,454,30,5,4,english,m,2,0.2,-85.28377865,1.60361911
600235988c6b062314984ac0,88,1,2024-02-27T14:15:14.629Z,english_204.wav,0,pill,454,30,5,4,english,m,3,0.3,55.65505401,0.21823774
600235988c6b062314984ac0,88,1,2024-02-27T14:15:14.629Z,english_204.wav,0,pill,454,30,5,4,english,m,4,0.32341667,56.32983288,0.04661671
600235988c6b062314984ac0,89,1,2024-02-27T14:15:14.629Z,english_120.wav,0,peel,461,30,5,4,english,m,0,0.0,55.2306484,0.43658612
600235988c6b062314984ac0,89,1,2024-02-27T14:15:14.629Z,english_120.wav,0,peel,461,30,5,4,english,m,1,0.1,82.00530973,0.03999251
600235988c6b062314984ac0,89,1,2024-02-27T14:15:14.629Z,english_120.wav,0,peel,461,30,5,4,english,m,2,0.2,-5.84837635,0.80827096
600235988c6b062314984ac0,89,1,2024-02-27T14:15:14.629Z,english_120.wav,0,peel,461,30,5,4,english,m,3,0.3,66.20489525,1.78669421
600235988c6b062314984ac0,89,1,2024-02-27T14:15:14.629Z,english_120.wav,0,peel,461,30,5,4,english,m,4,0.32341667,-73.22302923,1.04341795
600235988c6b062314984ac0,90,1,2024-02-27T14:15:14.629Z,english_847.wav,0,pill,434,30,5,4,english,m,0,0.0,76.45550118,0.38890762
600235988c6b062314984ac0,90,1,2024-02-27T14:15:14.629Z,english_847.wav,0,pill,434,30,5,4,english,m,1,0.1,-18.38123868,1.01718805
600235988c6b062314984ac0,90,1,2024-02-27T14:15:14.629Z,english_847.wav,0,pill,434,30,5,4,english,m,2,0.2,18.403778,1.24872656
600235988c6b062314984ac0,90,1,2024-02-27T14:15:14.629Z,english_847.wav,0,pill,434,30,5,4,english,m,3,0.3,57.196546,0.81951257
600235988c6b062314984ac0,90,1,2024-02-27T14:15:14.629Z,english_847.wav,0,pill,434,30,5,4,english,m,4,0.32341667,32.99763753,0.74194876
600235988c6b062314984ac0,91,1,2024-02-27T14:15:14.629Z,english_114.wav,0,peel,163,30,5,4,english,m,0,0.0,32.66189176,0.56529239
600235988c6b062314984ac0,91,1,2024-02-27T14:15:14.629Z,english_114.wav,0,peel,163,30,5,4,english,m,1,0.1,11.50533392,1.79520186
600235988c6b062314984ac0,91,1,2024-02-27T14:15:14.629Z,english_114.wav,0,peel,163,30,5,4,english,m,2,0.2,-73.58201401,1.4619954
600235988c6b062314984ac0,91,1,2024-02-27T14:15:14.629Z,english_114.wav,0,peel,163,30,5,4,english,m,3,0.3,-8.93644113,0.78288211
600235988c6b062314984ac0,91,1,2024-02-27T14:15:14.629Z,english_114.wav,0,peel,163,30,5,4,english,m,4,0.32341667,-2.4794064,0.66376764
600235988c6b062314984ac0,92,1,2024-02-27T14:15:14.629Z,english_768.wav,0,pill,327,30,5,4,english,m,0,0.0,-28.93145359,1.5002074
600235988c6b062314984ac0,92,1,2024-02-27T14:15:14.629Z,english_768.wav,0,pill,327,30,5,4,english,m,1,0.1,59.49166151,1.15432208
600235988c6b062314984ac0,92,1,2024-02-27T14:15:14.629Z,english_768.wav,0,pill,327,30,5,4,english,m,2,0.2,41.87955621,0.01731471
600235988c6b062314984ac0,92,1,2024-02-27T14:15:14.629Z,english_768.wav,0,pill,327,30,5,4,english,m,3,0.3,-92.17589111,0.98337229
600235988c6b062314984ac0,92,1,2024-02-27T14:15:14.629Z,english_768.wav,0,pill,327,30,5,4,english,m,4,0.32341667,15.2364545,0.4381055
600235988c6b062314984ac0,93,1,2024-02-27T14:15:14.629Z,english_618.wav,0,pill,325,30,5,4,english,m,0,0.0,58.31579708,1.46895394
600235988c6b062314984ac0,93,1,2024-02-27T14:15:14.629Z,english_618.wav,0,pill,325,30,5,4,english,m,1,0.1,6.96253647,0.48660613
600235988c6b062314984ac0,93,1,2024-02-27T14:15:14.629Z,english_618.wav,0,pill,325,30,5,4,english,m,2,0.2,-4.41581756,1.00963977
600235988c6b062314984ac0,93,1,2024-02-27T14:15:14.629Z,english_618.wav,0,pill,325,30,5,4,english,m,3,0.3,-63.5775247,1.29399549
600235988c6b062314984ac0,93,1,2024-02-27T14:15:14.629Z,english_618.wav,0,pill,325,30,5,4,english,m,4,0.32341667,97.77631762,0.84060701
600235988c6b062314984ac0,94,1,2024-02-27T14:15:14.629Z,english_801.wav,0,pill,349,30,5,4,english,m,0,0.0,66.50571345,0.19311528
600235988c6b062314984ac0,94,1,2024-02-27T14:15:14.629Z,english_801.wav,0,pill,349,30,5,4,english,m,1,0.1,-53.03260979,0.48683601
600235988c6b062314984ac0,94,1,2024-02-27T14:15:14.629Z,english_801.wav,0,pill,349,30,5,4,english,m,2,0.2,-3.89459646,1.16293258
600235988c6b062314984ac0,94,1,2024-02-27T14:15:14.629Z,english_801.wav,0,pill,349,30,5,4,english,m,3,0.3,8.32951864,1.55734707
600235988c6b062314984ac0,94,1,2024-02-27T14:15:14.629Z,english_801.wav,0,pill,349,30,5,4,english,m,4,0.32341667,-87.46806733,0.63471681
600235988c6b062314984ac0,95,1,2024-02-27T14:15:14.629Z,english_61.wav,0,peel,293,30,5,4,english,m,0,0.0,-58.73450167,1.5196582
600235988c6b062314984ac0,95,1,2024-02-27T14:15:14.629Z,english_61.wav,0,peel,293,30,5,4,english,m,1,0.1,-68.77732169,0.79346499
600235988c6b062314984ac0,95,1,2024-02-27T14:15:14.629Z,english_61.wav,0,peel,293,30,5,4,english,m,2,0.2,-61.07430116,0.90548432
600235988c6b062314984ac0,95,1,2024-02-27T14:15:14.629Z,english_61.wav,0,peel,293,30,5,4,english,m,3,0.3,-87.12791991,1.71431728
600235988c6b062314984ac0,95,1,2024-02-27T14:15:14.629Z,english_61.wav,0,peel,293,30,5,4,english,m,4,0.32341667,47.32358741,0.57778581
600235988c6b062314984ac0,96,1,2024-02-27T14:15:14.629Z,english_763.wav,0,pill,581,30,5,4,english,m,0,0.0,64.63144232,0.7800836
600235988c6b062314984ac0,96,1,2024-02-27T14:15:14.629Z,english_763.wav,0,pill,581,30,5,4,english,m,1,0.1,8.86346429,1.26656169
600235988c6b062314984ac0,96,1,2024-02-27T14:15:14.629Z,english_763.wav,0,pill,581,30,5,4,english,m,2,0.2,32.79569159,1.93170043
600235988c6b062314984ac0,96,1,2024-02-27T14:15:14.629Z,english_763.wav,0,pill,581,30,5,4,english,m,3,0.3,10.55051177,0.29422641
600235988c6b062314984ac0,96,1,2024-02-27T14:15:14.629Z,english_763.wav,0,pill,581,30,5,4,english,m,4,0.32341667,6.38738619,1.43860225
600235988c6b062314984ac0,97,1,2024-02-27T14:15:14.629Z,english_108.wav,0,pill,328,30,5,4,english,m,0,0.0,-20.69942707,0.77052949
600235988c6b062314984ac0,97,1,2024-02-27T14:15:14.629Z,english_108.wav,0,pill,328,30,5,4,english,m,1,0.1,-59.42152954,1.01445352
600235988c6b062314984ac0,97,1,2024-02-27T14:15:14.629Z,english_108.wav,0,pill,328,30,5,4,english,m,2,0.2,-8.09170222,0.42363715
600235988c6b062314984ac0,97,1,2024-02-27T14:15:14.629Z,english_108.wav,0,pill,328,30,5,4,english,m,3,0.3,21.99826779,1.45799831
600235988c6b062314984ac0,97,1,2024-02-27T14:15:14.629Z,english_108.wav,0,pill,328,30,5,4,english,m,4,0.32341667,56.38973361,1.71498507
600235988c6b062314984ac0,98,1,2024-02-27T14:15:14.629Z,english_588.wav,0,peel,343,30,5,4,english,m,0,0.0,99.95047602,0.54608042
600235988c6b062314984ac0,98,1,2024-02-27T14:15:14.629Z,english_588.wav,0,peel,343,30,5,4,english,m,1,0.1,6.8401109,0.86340392
600235988c6b062314984ac0,98,1,2024-02-27T14:15:14.629Z,english_588.wav,0,peel,343,30,5,4,english,m,2,0.2,-15.9093749,0.01522231
600235988c6b062314984ac0,98,1,2024-02-27T14:15:14.629Z,english_588.wav,0,peel,343,30,5,4,english,m,3,0.3,-95.80500507,0.86017392
600235988c6b062314984ac0,98,1,2024-02-27T14:15:14.629Z,english_588.wav,0,peel,343,30,5,4,english,m,4,0.32341667,23.59255786,0.36914066
600235988c6b062314984ac0,99,1,2024-02-27T14:15:14.629Z,english_238.wav,0,pill,459,30,5,4,english,m,0,0.0,87.78466979,1.0750983
600235988c6b062314984ac0,99,1,2024-02-27T14:15:14.629Z,english_238.wav,0,pill,459,30,5,4,english,m,1,0.1,65.39287108,0.03626896
600235988c6b062314984ac0,99,1,2024-02-27T14:15:14.629Z,english_238.wav,0,pill,459,30,5,4,english,m,2,0.2,-38.39100082,1.9832234
600235988c6b062314984ac0,99,1,2024-02-27T14:15:14.629Z,english_238.wav,0,pill,459,30,5,4,english,m,3,0.3,-20.01297649,0.17604691
600235988c6b062314984ac0,99,1,2024-02-27T14:15:14.629Z,english_238.wav,0,pill,459,30,5,4,english,m,4,0.32341667,78.31880556,1.61383808
600235988c6b062314984ac0,100,2,2024-02-27T14:15:14.629Z,english_205.wav,0,peel,8,30,5,4,english,m,0,0.0,55.03693902,1.41699591
600235988c6b062314984ac0,100,2,2024-02-27T14:15:14.629Z,english_205.wav,0,peel,8,30,5,4,english,m,1,0.1,59.05347117,0.25749205
600235988c6b062314984ac0,100,2,2024-02-27T14:15:14.629Z,english_205.wav,0,peel,8,30,5,4,english,m,2,0.2,-51.93258482,1.78695407
600235988c6b062314984ac0,100,2,2024-02-27T14:15:14.629Z,english_205.wav,0,peel,8,30,5,4,english,m,3,0.3,-18.66886592,0.11157042
600235988c6b062314984ac0,100,2,2024-02-27T14:15:14.629Z,english_205.wav,0,peel,8,30,5,4,english,m,4,0.32341667,-25.16213195,1.74030417
600235988c6b062314984ac0,101,2,2024-02-27T14:15:14.629Z,english_929.wav,0,peel,165,30,5,4,english,m,0,0.0,29.19700723,1.75028237
600235988c6b062314984ac0,101,2,2024-02-27T14:15:14.629Z,english_929.wav,0,peel,165,30,5,4,english,m,1,0.1,15.63825327,0.16776534
600235988c6b062314984ac0,101,2,2024-02-27T14:15:14.629Z,english_929.wav,0,peel,165,30,5,4,english,m,2,0.2,3.65085895,0.15899819
600235988c6b062314984ac0,101,2,2024-02-27T14:15:14.629Z,english_929.wav,0,peel,165,30,5,4,english,m,3,0.3,-91.18848108,0.41497916
600235988c6b062314984ac0,101,2,2024-02-27T14:15:14.629Z,english_929.wav,0,peel,165,30,5,4,english,m,4,0.32341667,53.29025089,0.946821
600235988c6b062314984ac0,102,2,2024-02-27T14:15:14.629Z,english_701.wav,0,pill,73,30,5,4,english,m,0,0.0,87.15265727,1.41120649
600235988c6b062314984ac0,102,2,2024-02-27T14:15:14.629Z,english_701.wav,0,pill,73,30,5,4,english,m,1,0.1,38.39882515,0.44004622
600235988c6b062314984ac0,102,2,2024-02-27T14:15:14.629Z,english_701.wav,0,pill,73,30,5,4,english,m,2,0.2,64.60201562,1.15462264
600235988c6b062314984ac0,102,2,2024-02-27T14:15:14.629Z,english_701.wav,0,pill,73,30,5,4,english,m,3,0.3,12.58613119,1.17454355
600235988c6b062314984ac0,102,2,2024-02-27T14:15:14.629Z,english_701.wav,0,pill,73,30,5,4,english,m,4,0.32341667,46.94968762,1.38716818
600235988c6b062314984ac0,103,2,2024-02-27T14:15:14.629Z,english_276.wav,0,pill,35,30,5,4,english,m,0,0.0,-87.25523595,1.1918401
600235988c6b062314984ac0,103,2,2024-02-27T14:15:14.629Z,english_276.wav,0,pill,35,30,5,4,english,m,1,0.1,16.91650801,0.89399115
600235988c6b062314984ac0,103,2,2024-02-27T14:15:14.629Z,english_276.wav,0,pill,35,30,5,4,english,m,2,0.2,-40.09372932,0.89701806
600235988c6b062314984ac0,103,2,2024-02-27T14:15:14.629Z,english_276.wav,0,pill,35,30,5,4,english,m,3,0.3,3.19229046,1.98333504
600235988c6b062314984ac0,103,2,2024-02-27T14:15:14.629Z,english_276.wav,0,pill,35,30,5,4,english,m,4,0.32341667,18.84785296,1.85350493
600235988c6b062314984ac0,104,2,2024-02-27T14:15:14.629Z,english_694.wav,0,pill,608,30,5,4,english,m,0,0.0,-79.88370205,0.99496101
600235988c6b062314984ac0,104,2,2024-02-27T14:15:14.629Z,english_694.wav,0,pill,608,30,5,4,english,m,1,0.1,-58.02841319,0.06406007
600235988c6b062314984ac0,104,2,2024-02-27T14:15:14.629Z,english_694.wav,0,pill,608,30,5,4,english,m,2,0.2,-50.54988317,0.5055253
600235988c6b062314984ac0,104,2,2024-02-27T14:15:14.629Z,english_694.wav,0,pill,608,30,5,4,english,m,3,0.3,-20.79864769,0.19498426
600235988c6b062314984ac0,104,2,2024-02-27T14:15:14.629Z,english_694.wav,0,pill,608,30,5,4,english,m,4,0.32341667,-73.64916114,0.36410653
600235988c6b062314984ac0,105,2,2024-02-27T14:15:14.629Z,english_863.wav,0,peel,610,30,5,4,english,m,0,0.0,52.03013683,1.83111202
600235988c6b062314984ac0,105,2,2024-02-27T14:15:14.629Z,english_863.wav,0,peel,610,30,5,4,english,m,1,0.1,21.53783975,0.9779226
600235988c6b062314984ac0,105,2,2024-02-27T14:15:14.629Z,english_863.wav,0,peel,610,30,5,4,english,m,2,0.2,-42.8061331,1.19089157
600235988c6b062314984ac0,105,2,2024-02-27T14:15:14.629Z,english_863.wav,0,peel,610,30,5,4,english,m,3,0.3,-9.69253087,0.269847
600235988c6b062314984ac0,105,2,2024-02-27T14:15:14.629Z,english_863.wav,0,peel,610,30,5,4,english,m,4,0.32341667,56.44290307,0.87913369
600235988c6b062314984ac0,106,2,2024-02-27T14:15:14.629Z,english_752.wav,0,pill,598,30,5,4,english,m,0,0.0,-89.50526135,1.26833375
600235988c6b062314984ac0,106,2,2024-02-27T14:15:14.629Z,english_752.wav,0,pill,598,30,5,4,english,m,1,0.1,16.42916277,1.25445964
600235988c6b062314984ac0,106,2,2024-02-27T14:15:14.629Z,english_752.wav,0,pill,598,30,5,4,english,m,2,0.2,-62.11724863,1.84048801
600235988c6b062314984ac0,106,2,2024-02-27T14:15:14.629Z,english_752.wav,0,pill,598,30,5,4,english,m,3,0.3,-22.7839786,0.96813738
600235988c6b062314984ac0,106,2,2024-02-27T14:15:14.629Z,english_752.wav,0,pill,598,30,5,4,english,m,4,0.32341667,21.77934146,1.95604557
600235988c6b062314984ac0,107,2,2024-02-27T14:15:14.629Z,english_867.wav,0,peel,155,30,5,4,english,m,0,0.0,9.0283109,0.25019481
600235988c6b062314984ac0,107,2,2024-02-27T14:15:14.629Z,english_867.wav,0,peel,155,30,5,4,english,m,1,0.1,6.96107974,0.62311927
600235988c6b062314984ac0,107,2,2024-02-27T14:15:14.629Z,english_867.wav,0,peel,155,30,5,4,english,m,2,0.2,14.88339172,1.78918939
600235988c6b062314984ac0,107,2,2024-02-27T14:15:14.629Z,english_867.wav,0,peel,155,30,5,4,english,m,3,0.3,-2.73093064,1.34945049
600235988c6b062314984ac0,107,2,2024-02-27T14:15:14.629Z,english_867.wav,0,peel,155,30,5,4,english,m,4,0.32341667,-85.27526638,0.75720604
600235988c6b062314984ac0,108,2,2024-02-27T14:15:14.629Z,english_414.wav,0,pill,128,30,5,4,english,m,0,0.0,19.47839865,0.9434816
600235988c6b062314984ac0,108,2,2024-02-27T14:15:14.629Z,english_414.wav,0,pill,128,30,5,4,english,m,1,0.1,59.9490877,1.1146936
600235988c6b062314984ac0,108,2,2024-02-27T14:15:14.629Z,english_414.wav,0,pill,128,30,5,4,english,m,2,0.2,22.33981162,0.48476454
600235988c6b062314984ac0,108,2,2024-02-27T14:15:14.629Z,english_414.wav,0,pill,128,30,5,4,english,m,3,0.3,18.97426154,0.23554241
600235988c6b062314984ac0,108,2,2024-02-27T14:15:14.629Z,english_414.wav,0,pill,128,30,5,4,english,m,4,0.32341667,15.16306506,1.13007685
600235988c6b062314984ac0,109,2,2024-02-27T14:15:14.629Z,english_510.wav,0,peel,444,30,5,4,english,m,0,0.0,-39.77235695,0.97080384
600235988c6b062314984ac0,109,2,2024-02-27T14:15:14.629Z,english_510.wav,0,peel,444,30,5,4,english,m,1,0.1,-55.9025784,0.1022914
600235988c6b062314984ac0,109,2,2024-02-27T14:15:14.629Z,english_510.wav,0,peel,444,30,5,4,english,m,2,0.2,42.12378864,1.56878682
600235988c6b062314984ac0,109,2,2024-02-27T14:15:14.629Z,english_510.wav,0,peel,444,30,5,4,english,m,3,0.3,-5.9333084,1.19302163
600235988c6b062314984ac0,109,2,2024-02-27T14:15:14.629Z,english_510.wav,0,peel,444,30,5,4,english,m,4,0.32341667,84.8199861,1.45606517
600235988c6b062314984ac0,110,2,2024-02-27T14:15:14.629Z,english_288.wav,0,pill,115,30,5,4,english,m,0,0.0,35.15100251,1.01330681
600235988c6b062314984ac0,110,2,2024-02-27T14:15:14.629Z,english_288.wav,0,pill,115,30,5,4,english,m,1,0.1,49.55485069,0.90213232
600235988c6b062314984ac0,110,2,2024-02-27T14:15:14.629Z,english_288.wav,0,pill,115,30,5,4,english,m,2,0.2,28.604189,1.8181607
600235988c6b062314984ac0,110,2,2024-02-27T14:15:14.629Z,english_288.wav,0,pill,115,30,5,4,english,m,3,0.3,38.59633835,1.82579698
600235988c6b062314984ac0,110,2,2024-02-27T14:15:14.629Z,english_288.wav,0,pill,115,30,5,4,english,m,4,0.32341667,-98.9026904,0.14571105
600235988c6b062314984ac0,111,2,2024-02-27T14:15:14.629Z,english_908.wav,0,pill,86,30,5,4,english,m,0,0.0,48.62867987,1.27180628
600235988c6b062314984ac0,111,2,2024-02-27T14:15:14.629Z,english_908.wav,0,pill,86,30,5,4,english,m,1,0.1,15.18588807,0.65893562
600235988c6b062314984ac0,111,2,2024-02-27T14:15:14.629Z,english_908.wav,0,pill,86,30,5,4,english,m,2,0.2,-42.37345339,1.07678682
600235988c6b062314984ac0,111,2,2024-02-27T14:15:14.629Z,english_908.wav,0,pill,86,30,5,4,english,m,3,0.3,10.74033392,1.66111239
600235988c6b062314984ac0,111,2,2024-02-27T14:15:14.629Z,english_908.wav,0,pill,86,30,5,4,english,m,4,0.32341667,-40.14378972,0.30218678
600235988c6b062314984ac0,112,2,2024-02-27T14:15:14.629Z,english_508.wav,0,peel,386,30,5,4,english,m,0,0.0,-21.23116318,1.79614382
600235988c6b062314984ac0,112,2,2024-02-27T14:15:14.629Z,english_508.wav,0,peel,386,30,5,4,english,m,1,0.1,-27.56583205,0.60449395
600235988c6b062314984ac0,112,2,2024-02-27T14:15:14.629Z,english_508.wav,0,peel,386,30,5,4,english,m,2,0.2,64.21774851,0.56582153
600235988c6b062314984ac0,112,2,2024-02-27T14:15:14.629Z,english_508.wav,0,peel,386,30,5,4,english,m,3,0.3,-9.24056951,1.01665474
600235988c6b062314984ac0,112,2,2024-02-27T14:15:14.629Z,english_508.wav,0,peel,386,30,5,4,english,m,4,0.32341667,-9.74670904,0.78905044
600235988c6b062314984ac0,113,2,2024-02-27T14:15:14.629Z,english_515.wav,0,peel,22,30,5,4,english,m,0,0.0,-51.44071002,1.17100165
600235988c6b062314984ac0,113,2,2024-02-27T14:15:14.629Z,english_515.wav,0,peel,22,30,5,4,english,m,1,0.1,-54.80209221,0.37535268
600235988c6b062314984ac0,113,2,2024-02-27T14:15:14.629Z,english_515.wav,0,peel,22,30,5,4,english,m,2,0.2,64.47174239,1.31079719
600235988c6b062314984ac0,113,2,2024-02-27T14:15:14.629Z,english_515.wav,0,peel,22,30,5,4,english,m,3,0.3,-10.56071982,1.40472496
600235988c6b062314984ac0,113,2,2024-02-27T14:15:14.629Z,english_515.wav,0,peel,22,30,5,4,english,m,4,0.32341667,-39.86348554,0.6392892
600235988c6b062314984ac0,114,2,2024-02-27T14:15:14.629Z,english_87.wav,0,pill,298,30,5,4,english,m,0,0.0,54.83056612,1.56132998
600235988c6b062314984ac0,114,2,2024-02-27T14:15:14.629Z,english_87.wav,0,pill,298,30,5,4,english,m,1,0.1,56.31531505,1.28614089
600235988c6b062314984ac0,114,2,2024-02-27T14:15:14.629Z,english_87.wav,0,pill,298,30,5,4,english,m,2,0.2,-65.55002777,1.44579989
600235988c6b062314984ac0,114,2,2024-02-27T14:15:14.629Z,english_87.wav,0,pill,298,30,5,4,english,m,3,0.3,-25.15788212,0.3607766
600235988c6b062314984ac0,114,2,2024-02-27T14:15:14.629Z,english_87.wav,0,pill,298,30,5,4,english,m,4,0.32341667,22.72349562,0.17745198
600235988c6b062314984ac0,115,2,2024-02-27T14:15:14.629Z,english_574.wav,0,peel,352,30,5,4,english,m,0,0.0,53.128433,0.28349694
600235988c6b062314984ac0,115,2,2024-02-27T14:15:14.629Z,english_574.wav,0,peel,352,30,5,4,english,m,1,0.1,70.24248151,0.66519348
600235988c6b062314984ac0,115,2,2024-02-27T14:15:14.629Z,english_574.wav,0,peel,352,30,5,4,english,m,2,0.2,47.13290739,1.25768036
600235988c6b062314984ac0,115,2,2024-02-27T14:15:14.629Z,english_574.wav,0,peel,352,30,5,4,english,m,3,0.3,52.31480293,1.43482954
600235988c6b062314984ac0,115,2,2024-02-27T14:15:14.629Z,english_574.wav,0,peel,352,30,5,4,english,m,4,0.32341667,-33.06438127,1.23350688
600235988c6b062314984ac0,116,2,2024-02-27T14:15:14.629Z,english_949.wav,0,pill,213,30,5,4,english,m,0,0.0,48.32946721,1.50413289
600235988c6b062314984ac0,116,2,2024-02-27T14:15:14.629Z,english_949.wav,0,pill,213,30,5,4,english,m,1,0.1,73.83586198,1.55745414
600235988c6b062314984ac0,116,2,2024-02-27T14:15:14.629Z,english_949.wav,0,pill,213,30,5,4,english,m,2,0.2,-30.27812065,1.00772566
600235988c6b062314984ac0,116,2,2024-02-27T14:15:14.629Z,english_949.wav,0,pill,213,30,5,4,english,m,3,0.3,-32.50397555,0.86702054
600235988c6b062314984ac0,116,2,2024-02-27T14:15:14.629Z,english_949.wav,0,pill,213,30,5,4,english,m,4,0.32341667,96.46984971,1.67836019
600235988c6b062314984ac0,117,2,2024-02-27T14:15:14.629Z,english_563.wav,0,peel,196,30,5,4,english,m,0,0.0,19.758909,0.0609285
600235988c6b062314984ac0,117,2,2024-02-27T14:15:14.629Z,english_563.wav,0,peel,196,30,5,4,english,m,1,0.1,33.70416131,1.63852294
600235988c6b062314984ac0,117,2,2024-02-27T14:15:14.629Z,english_563.wav,0,peel,196,30,5,4,english,m,2,0.2,-28.26228599,0.53834051
600235988c6b062314984ac0,117,2,2024-02-27T14:15:14.629Z,english_563.wav,0,peel,196,30,5,4,english,m,3,0.3,77.25360299,0.54558093
600235988c6b062314984ac0,117,2,2024-02-27T14:15:14.629Z,english_563.wav,0,peel,196,30,5,4,english,m,4,0.32341667,-40.65982077,0.29994173
600235988c6b062314984ac0,118,2,2024-02-27T14:15:14.629Z,english_431.wav,0,pill,230,30,5,4,english,m,0,0.0,-28.91437381,1.3282391
600235988c6b062314984ac0,118,2,2024-02-27T14:15:14.629Z,english_431.wav,0,pill,230,30,5,4,english,m,1,0.1,30.6479342,1.9405757
600235988c6b062314984ac0,118,2,2024-02-27T14:15:14.629Z,english_431.wav,0,pill,230,30,5,4,english,m,2,0.2,41.25713347,1.67607787
600235988c6b062314984ac0,118,2,2024-02-27T14:15:14.629Z,english_431.wav,0,pill,230,30,5,4,english,m,3,0.3,9.19018397,0.62213613
600235988c6b062314984ac0,118,2,2024-02-27T14:15:14.629Z,english_431.wav,0,pill,230,30,5,4,english,m,4,0.32341667,-61.77590044,0.50881411
600235988c6b062314984ac0,119,2,2024-02-27T14:15:14.629Z,english_947.wav,0,peel,28,30,5,4,english,m,0,0.0,73.13113362,0.1925557
600235988c6b062314984ac0,119,2,2024-02-27T14:15:14.629Z,english_947.wav,0,peel,28,30,5,4,english,m,1,0.1,-55.13077299,1.89478059
600235988c6b062314984ac0,119,2,2024-02-27T14:15:14.629Z,english_947.wav,0,peel,28,30,5,4,english,m,2,0.2,59.32217849,0.99662771
600235988c6b062314984ac0,119,2,2024-02-27T14:15:14.629Z,english_947.wav,0,peel,28,30,5,4,english,m,3,0.3,-71.25946194,0.61263341
600235988c6b062314984ac0,119,2,2024-02-27T14:15:14.629Z,english_947.wav,0,peel,28,30,5,4,english,m,4,0.32341667,39.2274254,0.46373334
600235988c6b062314984ac0,120,2,2024-02-27T14:15:14.629Z,english_125.wav,0,pill,83,30,5,4,english,m,0,0.0,-5.59692586,0.61478703
600235988c6b062314984ac0,120,2,2024-02-27T14:15:14.629Z,english_125.wav,0,pill,83,30,5,4,english,m,1,0.1,45.61970603,0.5852269
600235988c6b062314984ac0,120,2,2024-02-27T14:15:14.629Z,english_125.wav,0,pill,83,30,5,4,english,m,2,0.2,-80.48713695,1.26290546
600235988c6b062314984ac0,120,2,2024-02-27T14:15:14.629Z,english_125.wav,0,pill,83,30,5,4,english,m,3,0.3,76.65956808,1.54178375
600235988c6b062314984ac0,120,2,2024-02-27T14:15:14.629Z,english_125.wav,0,pill,83,30,5,4,english,m,4,0.32341667,-9.14506838,0.79261171
600235988c6b062314984ac0,121,2,2024-02-27T14:15:14.629Z,english_822.wav,0,peel,311,30,5,4,english,m,0,0.0,22.19463519,1.34957498
600235988c6b062314984ac0,121,2,2024-02-27T14:15:14.629Z,english_822.wav,0,peel,311,30,5,4,english,m,1,0.1,46.02970585,1.18534363
600235988c6b062314984ac0,121,2,2024-02-27T14:15:14.629Z,english_822.wav,0,peel,311,30,5,4,english,m,2,0.2,44.31281831,0.88966115
600235988c6b062314984ac0,121,2,2024-02-27T14:15:14.629Z,english_822.wav,0,peel,311,30,5,4,english,m,3,0.3,27.24156044,1.22476657
600235988c6b062314984ac0,121,2,2024-02-27T14:15:14.629Z,english_822.wav,0,peel,311,30,5,4,english,m,4,0.32341667,41.58842879,0.51847317
600235988c6b062314984ac0,122,2,2024-02-27T14:15:14.629Z,english_586.wav,0,peel,775,30,5,4,english,m,0,0.0,-62.23642036,1.06144709
600235988c6b062314984ac0,122,2,2024-02-27T14:15:14.629Z,english_586.wav,0,peel,775,30,5,4,english,m,1,0.1,79.13201234,0.54207142
600235988c6b062314984ac0,122,2,2024-02-27T14:15:14.629Z,english_586.wav,0,peel,775,30,5,4,english,m,2,0.2,-89.54923437,0.72134233
600235988c6b062314984ac0,122,2,2024-02-27T14:15:14.629Z,english_586.wav,0,peel,775,30,5,4,english,m,3,0.3,-19.27573078,0.33417878
600235988c6b062314984ac0,122,2,2024-02-27T14:15:14.629Z,english_586.wav,0,peel,775,30,5,4,english,m,4,0.32341667,-62.71214645,1.54129631
600235988c6b062314984ac0,123,2,2024-02-27T14:15:14.629Z,english_302.wav,0,pill,1422,30,5,4,english,m,0,0.0,-63.95927305,1.3663617
600235988c6b062314984ac0,123,2,2024-02-27T14:15:14.629Z,english_302.wav,0,pill,1422,30,5,4,english,m,1,0.1,-82.44028643,1.24112643
600235988c6b062314984ac0,123,2,2024-02-27T14:15:14.629Z,english_302.wav,0,pill,1422,30,5,4,english,m,2,0.2,-63.33590257,1.83999602
600235988c6b062314984ac0,123,2,2024-02-27T14:15:14.629Z,english_302.wav,0,pill,1422,30,5,4,english,m,3,0.3,-82.33590521,0.89576132
600235988c6b062314984ac0,123,2,2024-02-27T14:15:14.629Z,english_302.wav,0,pill,1422,30,5,4,english,m,4,0.32341667,-77.43124585,1.51483357
600235988c6b062314984ac0,124,2,2024-02-27T14:15:14.629Z,english_503.wav,0,pill,152,30,5,4,english,m,0,0.0,-62.81458057,1.15988152
600235988c6b062314984ac0,124,2,2024-02-27T14:15:14.629Z,english_503.wav,0,pill,152,30,5,4,english,m,1,0.1,17.97702429,0.58853345
600235988c6b062314984ac0,124,2,2024-02-27T14:15:14.629Z,english_503.wav,0,pill,152,30,5,4,english,m,2,0.2,-8.2980926,1.29983279
600235988c6b062314984ac0,124,2,2024-02-27T14:15:14.629Z,english_503.wav,0,pill,152,30,5,4,english,m,3,0.3,-62.4217389,1.42406205
600235988c6b062314984ac0,124,2,2024-02-27T14:15:14.629Z,english_503.wav,0,pill,152,30,5,4,english,m,4,0.32341667,18.11027086,0.84018378
600235988c6b062314984ac0,125,2,2024-02-27T14:15:14.629Z,english_874.wav,0,peel,50,30,5,4,english,m,0,0.0,32.94582558,0.77720789
600235988c6b062314984ac0,125,2,2024-02-27T14:15:14.629Z,english_874.wav,0,peel,50,30,5,4,english,m,1,0.1,73.76521909,1.44852608
600235988c6b062314984ac0,125,2,2024-02-27T14:15:14.629Z,english_874.wav,0,peel,50,30,5,4,english,m,2,0.2,-83.94992572,1.18086928
600235988c6b062314984ac0,125,2,2024-02-27T14:15:14.629Z,english_874.wav,0,peel,50,30,5,4,english,m,3,0.3,-61.86791133,0.75042975
600235988c6b062314984ac0,125,2,2024-02-27T14:15:14.629Z,english_874.wav,0,peel,50,30,5,4,english,m,4,0.32341667,-94.71312943,1.11461748
600235988c6b062314984ac0,126,2,2024-02-27T14:15:14.629Z,english_880.wav,0,pill,61,30,5,4,english,m,0,0.0,3.17154152,0.81183988
600235988c6b062314984ac0,126,2,2024-02-27T14:15:14.629Z,english_880.wav,0,pill,61,30,5,4,english,m,1,0.1,-74.02271749,1.44061269
600235988c6b062314984ac0,126,2,2024-02-27T14:15:14.629Z,english_880.wav,0,pill,61,30,5,4,english,m,2,0.2,46.15952764,0.42884863
600235988c6b062314984ac0,126,2,2024-02-27T14:15:14.629Z,english_880.wav,0,pill,61,30,5,4,english,m,3,0.3,4.14106927,1.93838261
600235988c6b062314984ac0,126,2,2024-02-27T14:15:14.629Z,english_880.wav,0,pill,61,30,5,4,english,m,4,0.32341667,26.36707366,1.4503687
600235988c6b062314984ac0,127,2,2024-02-27T14:15:14.629Z,english_724.wav,0,peel,5,30,5,4,english,m,0,0.0,-91.46740291,0.46376674
600235988c6b062314984ac0,127,2,2024-02-27T14:15:14.629Z,english_724.wav,0,peel,5,30,5,4,english,m,1,0.1,23.01616352,1.84849858
600235988c6b062314984ac0,127,2,2024-02-27T14:15:14.629Z,english_724.wav,0,peel,5,30,5,4,english,m,2,0.2,-29.32408493,1.44978715
600235988c6b062314984ac0,127,2,2024-02-27T14:15:14.629Z,english_724.wav,0,peel,5,30,5,4,english,m,3,0.3,-79.49145217,1.24719002
600235988c6b062314984ac0,127,2,2024-02-27T14:15:14.629Z,english_724.wav,0,peel,5,30,5,4,english,m,4,0.32341667,82.35247912,0.99570929
600235988c6b062314984ac0,128,2,2024-02-27T14:15:14.629Z,english_90.wav,0,pill,36,30,5,4,english,m,0,0.0,82.68866707,0.54239523
600235988c6b062314984ac0,128,2,2024-02-27T14:15:14.629Z,english_90.wav,0,pill,36,30,5,4,english,m,1,0.1,-81.25370946,1.03335699
600235988c6b062314984ac0,128,2,2024-02-27T14:15:14.629Z,english_90.wav,0,pill,36,30,5,4,english,m,2,0.2,56.28719083,1.93576477
600235988c6b062314984ac0,128,2,2024-02-27T14:15:14.629Z,english_90.wav,0,pill,36,30,5,4,english,m,3,0.3,-46.43338119,0.74570916
600235988c6b062314984ac0,128,2,2024-02-27T14:15:14.629Z,english_90.wav,0,pill,36,30,5,4,english,m,4,0.32341667,-19.93520327,1.11115504
600235988c6b062314984ac0,129,2,2024-02-27T14:15:14.629Z,english_354.wav,0,peel,198,30,5,4,english,m,0,0.0,-63.97501145,0.52067601
600235988c6b062314984ac0,129,2,2024-02-27T14:15:14.629Z,english_354.wav,0,peel,198,30,5,4,english,m,1,0.1,-43.11314734,0.59903392
600235988c6b062314984ac0,129,2,2024-02-27T14:15:14.629Z,english_354.wav,0,peel,198,30,5,4,english,m,2,0.2,10.53928595,0.9992363
600235988c6b062314984ac0,129,2,2024-02-27T14:15:14.629Z,english_354.wav,0,peel,198,30,5,4,english,m,3,0.3,-23.15258088,1.16142831
600235988c6b062314984ac0,129,2,2024-02-27T14:15:14.629Z,english_354.wav,0,peel,198,30,5,4,english,m,4,0.32341667,3.22925066,0.37639432
600235988c6b062314984ac0,130,2,2024-02-27T14:15:14.629Z,english_333.wav,0,pill,111,30,5,4,english,m,0,0.0,61.26933292,0.50090252
600235988c6b062314984ac0,130,2,2024-02-27T14:15:14.629Z,english_333.wav,0,pill,111,30,5,4,english,m,1,0.1,38.65533839,1.61630161
600235988c6b062314984ac0,130,2,2024-02-27T14:15:14.629Z,english_333.wav,0,pill,111,30,5,4,english,m,2,0.2,-27.91605269,1.73322278
600235988c6b062314984ac0,130,2,2024-02-27T14:15:14.629Z,english_333.wav,0,pill,111,30,5,4,english,m,3,0.3,36.00101096,0.67742762
600235988c6b062314984ac0,130,2,2024-02-27T14:15:14.629Z,english_333.wav,0,pill,111,30,5,4,english,m,4,0.32341667,-78.35943708,0.46993908
600235988c6b062314984ac0,131,2,2024-02-27T14:15:14.629Z,english_161.wav,0,peel,189,30,5,4,english,m,0,0.0,16.17182642,0.80971259
600235988c6b062314984ac0,131,2,2024-02-27T14:15:14.629Z,english_161.wav,0,peel,189,30,5,4,english,m,1,0.1,51.23408036,1.56168911
600235988c6b062314984ac0,131,2,2024-02-27T14:15:14.629Z,english_161.wav,0,peel,189,30,5,4,english,m,2,0.2,56.55598601,0.91666403
600235988c6b062314984ac0,131,2,2024-02-27T14:15:14.629Z,english_161.wav,0,peel,189,30,5,4,english,m,3,0.3,-25.08054758,1.93998208
600235988c6b062314984ac0,131,2,2024-02-27T14:15:14.629Z,english_161.wav,0,peel,189,30,5,4,english,m,4,0.32341667,-70.36900789,0.76147365
600235988c6b062314984ac0,132,2,2024-02-27T14:15:14.629Z,english_213.wav,0,pill,437,30,5,4,english,m,0,0.0,-29.91874444,1.42031243
600235988c6b062314984ac0,132,2,2024-02-27T14:15:14.629Z,english_213.wav,0,pill,437,30,5,4,english,m,1,0.1,41.64704809,0.59218852
600235988c6b062314984ac0,132,2,2024-02-27T14:15:14.629Z,english_213.wav,0,pill,437,30,5,4,english,m,2,0.2,-87.11075848,1.10576613
600235988c6b062314984ac0,132,2,2024-02-27T14:15:14.629Z,english_213.wav,0,pill,437,30,5,4,english,m,3,0.3,-61.54877495,0.09529021
600235988c6b062314984ac0,132,2,2024-02-27T14:15:14.629Z,english_213.wav,0,pill,437,30,5,4,english,m,4,0.32341667,-34.29429643,1.15583312
600235988c6b062314984ac0,133,2,2024-02-27T14:15:14.629Z,english_722.wav,0,peel,307,30,5,4,english,m,0,0.0,56.33358757,0.09194264
600235988c6b062314984ac0,133,2,2024-02-27T14:15:14.629Z,english_722.wav,0,peel,307,30,5,4,english,m,1,0.1,-63.11389498,1.89550133
600235988c6b062314984ac0,133,2,2024-02-27T14:15:14.629Z,english_722.wav,0,peel,307,30,5,4,english,m,2,0.2,65.64746862,0.18403216
600235988c6b062314984ac0,133,2,2024-02-27T14:15:14.629Z,english_722.wav,0,peel,307,30,5,4,english,m,3,0.3,-93.10605514,1.23223326
600235988c6b062314984ac0,133,2,2024-02-27T14:15:14.629Z,english_722.wav,0,peel,307,30,5,4,english,m,4,0.32341667,-45.92743551,0.28331892
600235988c6b062314984ac0,134,2,2024-02-27T14:15:14.629Z,english_749.wav,0,pill,155,30,5,4,english,m,0,0.0,-84.66020389,1.10062914
600235988c6b062314984ac0,134,2,2024-02-27T14:15:14.629Z,english_749.wav,0,pill,155,30,5,4,english,m,1,0.1,45.42505651,0.81865822
600235988c6b062314984ac0,134,2,2024-02-27T14:15:14.629Z,english_749.wav,0,pill,155,30,5,4,english,m,2,0.2,27.47623271,1.25164699
600235988c6b062314984ac0,134,2,2024-02-27T14:15:14.629Z,english_749.wav,0,pill,155,30,5,4,english,m,3,0.3,44.62305857,1.77685805
600235988c6b062314984ac0,134,2,2024-02-27T14:15:14.629Z,english_749.wav,0,pill,155,30,5,4,english,m,4,0.32341667,-87.62087265,0.97343419
600235988c6b062314984ac0,135,2,2024-02-27T14:15:14.629Z,english_832.wav,0,peel,20,30,5,4,english,m,0,0.0,-21.62855277,1.31372842
600235988c6b062314984ac0,135,2,2024-02-27T14:15:14.629Z,english_832.wav,0,peel,20,30,5,4,english,m,1,0.1,-35.3834786,1.55258378
600235988c6b062314984ac0,135,2,2024-02-27T14:15:14.629Z,english_832.wav,0,peel,20,30,5,4,english,m,2,0.2,52.65867494,1.50567803
600235988c6b062314984ac0,135,2,2024-02-27T14:15:14.629Z,english_832.wav,0,peel,20,30,5,4,english,m,3,0.3,62.52082964,1.2163301
600235988c6b062314984ac0,135,2,2024-02-27T14:15:14.629Z,english_832.wav,0,peel,20,30,5,4,english,m,4,0.32341667,46.66062952,1.20100353
600235988c6b062314984ac0,136,2,2024-02-27T14:15:14.629Z,english_459.wav,0,pill,279,30,5,4,english,m,0,0.0,30.23503988,1.42205963
600235988c6b062314984ac0,136,2,2024-02-27T14:15:14.629Z,english_459.wav,0,pill,279,30,5,4,english,m,1,0.1,-58.09525271,0.13069666
600235988c6b062314984ac0,136,2,2024-02-27T14:15:14.629Z,english_459.wav,0,pill,279,30,5,4,english,m,2,0.2,22.03715272,0.55220733
600235988c6b062314984ac0,136,2,2024-02-27T14:15:14.629Z,english_459.wav,0,pill,279,30,5,4,english,m,3,0.3,-33.09468511,0.48840502
600235988c6b062314984ac0,136,2,2024-02-27T14:15:14.629Z,english_459.wav,0,pill,279,30,5,4,english,m,4,0.32341667,-9.46836848,1.08918734
600235988c6b062314984ac0,137,2,2024-02-27T14:15:14.629Z,english_873.wav,0,peel,419,30,5,4,english,m,0,0.0,85.43762199,1.00056931
600235988c6b062314984ac0,137,2,2024-02-27T14:15:14.629Z,english_873.wav,0,peel,419,30,5,4,english,m,1,0.1,-27.24751419,0.47504393
600235988c6b062314984ac0,137,2,2024-02-27T14:15:14.629Z,english_873.wav,0,peel,419,30,5,4,english,m,2,0.2,-8.79829555,0.788147
600235988c6b062314984ac0,137,2,2024-02-27T14:15:14.629Z,english_873.wav,0,peel,419,30,5,4,english,m,3,0.3,-97.88620301,0.64075463
600235988c6b062314984ac0,137,2,2024-02-27T14:15:14.629Z,english_873.wav,0,peel,419,30,5,4,english,m,4,0.32341667,49.57089273,0.87603086
600235988c6b062314984ac0,138,2,2024-02-27T14:15:14.629Z,english_568.wav,0,pill,252,30,5,4,english,m,0,0.0,-80.38325009,1.52383372
600235988c6b062314984ac0,138,2,2024-02-27T14:15:14.629Z,english_568.wav,0,pill,252,30,5,4,english,m,1,0.1,65.28340143,0.37337456
600235988c6b062314984ac0,138,2,2024-02-27T14:15:14.629Z,english_568.wav,0,pill,252,30,5,4,english,m,2,0.2,22.57833022,0.67023469
600235988c6b062314984ac0,138,2,2024-02-27T14:15:14.629Z,english_568.wav,0,pill,252,30,5,4,english,m,3,0.3,-55.44872251,1.98652091
600235988c6b062314984ac0,138,2,2024-02-27T14:15:14.629Z,english_568.wav,0,pill,252,30,5,4,english,m,4,0.32341667,-94.3142815,1.15861726
600235988c6b062314984ac0,139,2,2024-02-27T14:15:14.629Z,english_884.wav,0,peel,32,30,5,4,english,m,0,0.0,77.1498115,1.83268558
600235988c6b062314984ac0,139,2,2024-02-27T14:15:14.629Z,english_884.wav,0,peel,32,30,5,4,english,m,1,0.1,10.32602389,0.76817862
600235988c6b062314984ac0,139,2,2024-02-27T14:15:14.629Z,english_884.wav,0,peel,32,30,5,4,english,m,2,0.2,4.15464736,1.59331573
600235988c6b062314984ac0,139,2,2024-02-27T14:15:14.629Z,english_884.wav,0,peel,32,30,5,4,english,m,3,0.3,21.19252889,0.58913169
600235988c6b062314984ac0,139,2,2024-02-27T14:15:14.629Z,english_884.wav,0,peel,32,30,5,4,english,m,4,0.32341667,-7.11336122,0.81393531
600235988c6b062314984ac0,140,2,2024-02-27T14:15:14.629Z,english_324.wav,0,pill,109,30,5,4,english,m,0,0.0,49.07155908,0.10864525
600235988c6b062314984ac0,140,2,2024-02-27T14:15:14.629Z,english_324.wav,0,pill,109,30,5,4,english,m,1,0.1,-58.77252084,1.61132735
600235988c6b062314984ac0,140,2,2024-02-27T14:15:14.629Z,english_324.wav,0,pill,109,30,5,4,english,m,2,0.2,-55.40155542,0.60180616
600235988c6b062314984ac0,140,2,2024-02-27T14:15:14.629Z,english_324.wav,0,pill,109,30,5,4,english,m,3,0.3,19.02224292,0.93555132
600235988c6b062314984ac0,140,2,2024-02-27T14:15:14.629Z,english_324.wav,0,pill,109,30,5,4,english,m,4,0.32341667,21.20382854,0.34417591
600235988c6b062314984ac0,141,2,2024-02-27T14:15:14.629Z,english_778.wav,0,pill,0,30,5,4,english,m,0,0.0,99.37283207,0.92158405
600235988c6b062314984ac0,141,2,2024-02-27T14:15:14.629Z,english_778.wav,0,pill,0,30,5,4,english,m,1,0.1,61.02900927,1.90392814
600235988c6b062314984ac0,141,2,2024-02-27T14:15:14.629Z,english_778.wav,0,pill,0,30,5,4,english,m,2,0.2,-43.89505842,0.34916702
600235988c6b062314984ac0,141,2,2024-02-27T14:15:14.629Z,english_778.wav,0,pill,0,30,5,4,english,m,3,0.3,-6.51139434,1.21087231
600235988c6b062314984ac0,141,2,2024-02-27T14:15:14.629Z,english_778.wav,0,pill,0,30,5,4,english,m,4,0.32341667,-98.37213751,0.72140227
600235988c6b062314984ac0,142,2,2024-02-27T14:15:14.629Z,english_274.wav,0,pill,144,30,5,4,english,m,0,0.0,-30.61452779,0.78021116
600235988c6b062314984ac0,142,2,2024-02-27T14:15:14.629Z,english_274.wav,0,pill,144,30,5,4,english,m,1,0.1,-42.14612233,1.93993358
600235988c6b062314984ac0,142,2,2024-02-27T14:15:14.629Z,english_274.wav,0,pill,144,30,5,4,english,m,2,0.2,32.00602795,0.32963606
600235988c6b062314984ac0,142,2,2024-02-27T14:15:14.629Z,english_274.wav,0,pill,144,30,5,4,english,m,3,0.3,-37.74375581,1.46133782
600235988c6b062314984ac0,142,2,2024-02-27T14:15:14.629Z,english_274.wav,0,pill,144,30,5,4,english,m,4,0.32341667,-54.5397802,1.53178785
600235988c6b062314984ac0,143,2,2024-02-27T14:15:14.629Z,english_317.wav,0,pill,1907,30,5,4,english,m,0,0.0,-26.75650792,1.75672771
600235988c6b062314984ac0,143,2,2024-02-27T14:15:14.629Z,english_317.wav,0,pill,1907,30,5,4,english,m,1,0.1,9.07297032,1.82949168
600235988c6b062314984ac0,143,2,2024-02-27T14:15:14.629Z,english_317.wav,0,pill,1907,30,5,4,english,m,2,0.2,17.58512652,1.6954519
600235988c6b062314984ac0,143,2,2024-02-27T14:15:14.629Z,english_317.wav,0,pill,1907,30,5,4,english,m,3,0.3,29.57201507,0.7122411
600235988c6b062314984ac0,143,2,2024-02-27T14:15:14.629Z,english_317.wav,0,pill,1907,30,5,4,english,m,4,0.32341667,56.4667582,1.26753728
600235988c6b062314984ac0,144,2,2024-02-27T14:15:14.629Z,english_472.wav,0,pill,143,30,5,4,english,m,0,0.0,-33.48324222,1.19367533
600235988c6b062314984ac0,144,2,2024-02-27T14:15:14.629Z,english_472.wav,0,pill,143,30,5,4,english,m,1,0.1,-52.47175565,0.64788551
600235988c6b062314984ac0,144,2,2024-02-27T14:15:14.629Z,english_472.wav,0,pill,143,30,5,4,english,m,2,0.2,-13.12063744,0.92970714
600235988c6b062314984ac0,144,2,2024-02-27T14:15:14.629Z,english_472.wav,0,pill,143,30,5,4,english,m,3,0.3,83.57117959,0.61503547
600235988c6b062314984ac0,144,2,2024-02-27T14:15:14.629Z,english_472.wav,0,pill,143,30,5,4,english,m,4,0.32341667,95.60610647,0.52013695
600235988c6b062314984ac0,145,2,2024-02-27T14:15:14.629Z,english_487.wav,0,peel,133,30,5,4,english,m,0,0.0,57.34447058,0.27098038
600235988c6b062314984ac0,145,2,2024-02-27T14:15:14.629Z,english_487.wav,0,peel,133,30,5,4,english,m,1,0.1,-38.59224607,1.03105808
600235988c6b062314984ac0,145,2,2024-02-27T14:15:14.629Z,english_487.wav,0,peel,133,30,5,4,english,m,2,0.2,-30.93562102,0.17810411
600235988c6b062314984ac0,145,2,2024-02-27T14:15:14.629Z,english_487.wav,0,peel,133,30,5,4,english,m,3,0.3,-21.39452484,0.81608244
600235988c6b062314984ac0,145,2,2024-02-27T14:15:14.629Z,english_487.wav,0,peel,133,30,5,4,english,m,4,0.32341667,-98.93333205,1.1056793
600235988c6b062314984ac0,146,2,2024-02-27T14:15:14.629Z,english_452.wav,0,peel,157,30,5,4,english,m,0,0.0,-15.91859121,0.16050204
600235988c6b062314984ac0,146,2,2024-02-27T14:15:14.629Z,english_452.wav,0,peel,157,30,5,4,english,m,1,0.1,66.54493607,1.05820221
600235988c6b062314984ac0,146,2,2024-02-27T14:15:14.629Z,english_452.wav,0,peel,157,30,5,4,english,m,2,0.2,49.2405228,1.42476674
600235988c6b062314984ac0,146,2,2024-02-27T14:15:14.629Z,english_452.wav,0,peel,157,30,5,4,english,m,3,0.3,-8.75382859,0.48128336
600235988c6b062314984ac0,146,2,2024-02-27T14:15:14.629Z,english_452.wav,0,peel,157,30,5,4,english,m,4,0.32341667,-35.51952716,0.52453318
600235988c6b062314984ac0,147,2,2024-02-27T14:15:14.629Z,english_885.wav,0,pill,178,30,5,4,english,m,0,0.0,36.3288655,0.78617108
600235988c6b062314984ac0,147,2,2024-02-27T14:15:14.629Z,english_885.wav,0,pill,178,30,5,4,english,m,1,0.1,-33.4786966,0.96292114
600235988c6b062314984ac0,147,2,2024-02-27T14:15:14.629Z,english_885.wav,0,pill,178,30,5,4,english,m,2,0.2,8.05827153,0.70266535
600235988c6b062314984ac0,147,2,2024-02-27T14:15:14.629Z,english_885.wav,0,pill,178,30,5,4,english,m,3,0.3,84.98004341,0.45613544
600235988c6b062314984ac0,147,2,2024-02-27T14:15:14.629Z,english_885.wav,0,pill,178,30,5,4,english,m,4,0.32341667,-34.65749493,0.81873504
600235988c6b062314984ac0,148,2,2024-02-27T14:15:14.629Z,english_652.wav,0,peel,548,30,5,4,english,m,0,0.0,4.27736911,0.30427218
600235988c6b062314984ac0,148,2,2024-02-27T14:15:14.629Z,english_652.wav,0,peel,548,30,5,4,english,m,1,0.1,18.79087972,0.67520162
600235988c6b062314984ac0,148,2,2024-02-27T14:15:14.629Z,english_652.wav,0,peel,548,30,5,4,english,m,2,0.2,61.32163128,0.66270689
600235988c6b062314984ac0,148,2,2024-02-27T14:15:14.629Z,english_652.wav,0,peel,548,30,5,4,english,m,3,0.3,45.76092148,0.93987847
600235988c6b062314984ac0,148,2,2024-02-27T14:15:14.629Z,english_652.wav,0,peel,548,30,5,4,english,m,4,0.32341667,-45.08671386,1.10617978
600235988c6b062314984ac0,149,2,2024-02-27T14:15:14.629Z,english_269.wav,0,peel,1599,30,5,4,english,m,0,0.0,61.09556447,1.11606818
600235988c6b062314984ac0,149,2,2024-02-27T14:15:14.629Z,english_269.wav,0,peel,1599,30,5,4,english,m,1,0.1,-3.97684721,1.55443041
600235988c6b062314984ac0,149,2,2024-02-27T14:15:14.629Z,english_269.wav,0,peel,1599,30,5,4,english,m,2,0.2,-87.59080112,1.78173809
600235988c6b062314984ac0,149,2,2024-02-27T14:15:14.629Z,english_269.wav,0,peel,1599,30,5,4,english,m,3,0.3,78.47165079,1.73012946
600235988c6b062314984ac0,149,2,2024-02-27T14:15:14.629Z,english_269.wav,0,peel,1599,30,5,4,english,m,4,0.32341667,-52.74135522,0.88090417
600235988c6b062314984ac0,150,3,2024-02-27T14:15:14.629Z,english_730.wav,0,pill,433,30,5,4,english,m,0,0.0,12.15035978,0.91227818
600235988c6b062314984ac0,150,3,2024-02-27T14:15:14.629Z,english_730.wav,0,pill,433,30,5,4,english,m,1,0.1,-56.22765555,1.17022701
600235988c6b062314984ac0,150,3,2024-02-27T14:15:14.629Z,english_730.wav,0,pill,433,30,5,4,english,m,2,0.2,-53.26534685,0.58034143
600235988c6b062314984ac0,150,3,2024-02-27T14:15:14.629Z,english_730.wav,0,pill,433,30,5,4,english,m,3,0.3,-25.75230742,1.9562998
600235988c6b062314984ac0,150,3,2024-02-27T14:15:14.629Z,english_730.wav,0,pill,433,30,5,4,english,m,4,0.32341667,-73.04726616,1.99538846
600235988c6b062314984ac0,151,3,2024-02-27T14:15:14.629Z,english_970.wav,0,peel,102,30,5,4,english,m,0,0.0,37.22911191,0.60712849
600235988c6b062314984ac0,151,3,2024-02-27T14:15:14.629Z,english_970.wav,0,peel,102,30,5,4,english,m,1,0.1,36.57191813,1.26781741
600235988c6b062314984ac0,151,3,2024-02-27T14:15:14.629Z,english_970.wav,0,peel,102,30,5,4,english,m,2,0.2,20.2344678,1.29373459
600235988c6b062314984ac0,151,3,2024-02-27T14:15:14.629Z,english_970.wav,0,peel,102,30,5,4,english,m,3,0.3,-86.31030026,0.18112256
600235988c6b062314984ac0,151,3,2024-02-27T14:15:14.629Z,english_970.wav,0,peel,102,30,5,4,english,m,4,0.32341667,-83.96880691,1.07780169
600235988c6b062314984ac0,152,3,2024-02-27T14:15:14.629Z,english_218.wav,0,pill,515,30,5,4,english,m,0,0.0,87.3373499,1.94084006
600235988c6b062314984ac0,152,3,2024-02-27T14:15:14.629Z,english_218.wav,0,pill,515,30,5,4,english,m,1,0.1,-14.87903436,0.13305972
600235988c6b062314984ac0,152,3,2024-02-27T14:15:14.629Z,english_218.wav,0,pill,515,30,5,4,english,m,2,0.2,-31.97943339,1.11441312
600235988c6b062314984ac0,152,3,2024-02-27T14:15:14.629Z,english_218.wav,0,pill,515,30,5,4,english,m,3,0.3,-60.49311609,1.83933377
600235988c6b062314984ac0,152,3,2024-02-27T14:15:14.629Z,english_218.wav,0,pill,515,30,5,4,english,m,4,0.32341667,-63.68242647,1.41053301
600235988c6b062314984ac0,153,3,2024-02-27T14:15:14.629Z,english_811.wav,0,peel,336,30,5,4,english,m,0,0.0,-51.03425556,1.55055496
600235988c6b062314984ac0,153,3,2024-02-27T14:15:14.629Z,english_811.wav,0,peel,336,30,5,4,english,m,1,0.1,22.81695275,1.74830484
600235988c6b062314984ac0,153,3,2024-02-27T14:15:14.629Z,english_811.wav,0,peel,336,30,5,4,english,m,2,0.2,73.06623682,1.24661488
600235988c6b062314984ac0,153,3,2024-02-27T14:15:14.629Z,english_811.wav,0,peel,336,30,5,4,english,m,3,0.3,-9.17693151,0.09792889
600235988c6b062314984ac0,153,3,2024-02-27T14:15:14.629Z,english_811.wav,0,peel,336,30,5,4,english,m,4,0.32341667,79.97760745,0.03735929
