subj,trial,block,date,stim,stim_order,response,rt,age,english,french,language,sex,param_index,segment,pitch,stretch
645e67cbcb96413bba593c53,0,0,2024-02-26T09:52:41.750Z,english_409.wav,0,pill,11955,66,5,3,English/french,female,0,0.0,-24.04105399,0.29560797
645e67cbcb96413bba593c53,0,0,2024-02-26T09:52:41.750Z,english_409.wav,0,pill,11955,66,5,3,English/french,female,1,0.1,-26.67389605,1.53762848
645e67cbcb96413bba593c53,0,0,2024-02-26T09:52:41.750Z,english_409.wav,0,pill,11955,66,5,3,English/french,female,2,0.2,23.9966363,0.34602898
645e67cbcb96413bba593c53,0,0,2024-02-26T09:52:41.750Z,english_409.wav,0,pill,11955,66,5,3,English/french,female,3,0.3,16.61705293,1.21824435
645e67cbcb96413bba593c53,0,0,2024-02-26T09:52:41.750Z,english_409.wav,0,pill,11955,66,5,3,English/french,female,4,0.32341667,73.09980407,1.55330233
645e67cbcb96413bba593c53,1,0,2024-02-26T09:52:41.750Z,english_32.wav,0,peel,10511,66,5,3,English/french,female,0,0.0,89.50349963,1.73304916
645e67cbcb96413bba593c53,1,0,2024-02-26T09:52:41.750Z,english_32.wav,0,peel,10511,66,5,3,English/french,female,1,0.1,51.51128255,0.02192789
645e67cbcb96413bba593c53,1,0,2024-02-26T09:52:41.750Z,english_32.wav,0,peel,10511,66,5,3,English/french,female,2,0.2,-58.32910347,1.71493142
645e67cbcb96413bba593c53,1,0,2024-02-26T09:52:41.750Z,english_32.wav,0,peel,10511,66,5,3,English/french,female,3,0.3,15.96172744,1.28451373
645e67cbcb96413bba593c53,1,0,2024-02-26T09:52:41.750Z,english_32.wav,0,peel,10511,66,5,3,English/french,female,4,0.32341667,84.40449403,1.22971166
645e67cbcb96413bba593c53,2,0,2024-02-26T09:52:41.750Z,english_612.wav,0,peel,20906,66,5,3,English/french,female,0,0.0,-84.32217164,1.34068621
645e67cbcb96413bba593c53,2,0,2024-02-26T09:52:41.750Z,english_612.wav,0,peel,20906,66,5,3,English/french,female,1,0.1,36.55311424,0.03443149
645e67cbcb96413bba593c53,2,0,2024-02-26T09:52:41.750Z,english_612.wav,0,peel,20906,66,5,3,English/french,female,2,0.2,92.38334081,0.45903509
645e67cbcb96413bba593c53,2,0,2024-02-26T09:52:41.750Z,english_612.wav,0,peel,20906,66,5,3,English/french,female,3,0.3,11.68953794,0.60209198
645e67cbcb96413bba593c53,2,0,2024-02-26T09:52:41.750Z,english_612.wav,0,peel,20906,66,5,3,English/french,female,4,0.32341667,43.3279226,0.29533154
645e67cbcb96413bba593c53,3,0,2024-02-26T09:52:41.750Z,english_545.wav,0,pill,13641,66,5,3,English/french,female,0,0.0,42.99494118,1.37740168
645e67cbcb96413bba593c53,3,0,2024-02-26T09:52:41.750Z,english_545.wav,0,pill,13641,66,5,3,English/french,female,1,0.1,72.53025652,0.91972232
645e67cbcb96413bba593c53,3,0,2024-02-26T09:52:41.750Z,english_545.wav,0,pill,13641,66,5,3,English/french,female,2,0.2,4.60849844,0.73226975
645e67cbcb96413bba593c53,3,0,2024-02-26T09:52:41.750Z,english_545.wav,0,pill,13641,66,5,3,English/french,female,3,0.3,9.93291538,1.52934768
645e67cbcb96413bba593c53,3,0,2024-02-26T09:52:41.750Z,english_545.wav,0,pill,13641,66,5,3,English/french,female,4,0.32341667,-11.25611892,0.18478607
645e67cbcb96413bba593c53,4,0,2024-02-26T09:52:41.750Z,english_346.wav,0,peel,18308,66,5,3,English/french,female,0,0.0,29.51078372,1.24489428
645e67cbcb96413bba593c53,4,0,2024-02-26T09:52:41.750Z,english_346.wav,0,peel,18308,66,5,3,English/french,female,1,0.1,86.25753287,1.77356048
645e67cbcb96413bba593c53,4,0,2024-02-26T09:52:41.750Z,english_346.wav,0,peel,18308,66,5,3,English/french,female,2,0.2,95.6553577,1.30862901
645e67cbcb96413bba593c53,4,0,2024-02-26T09:52:41.750Z,english_346.wav,0,peel,18308,66,5,3,English/french,female,3,0.3,-65.97707071,0.68318311
645e67cbcb96413bba593c53,4,0,2024-02-26T09:52:41.750Z,english_346.wav,0,peel,18308,66,5,3,English/french,female,4,0.32341667,49.79896228,1.63073528
645e67cbcb96413bba593c53,5,0,2024-02-26T09:52:41.750Z,english_97.wav,0,pill,4324,66,5,3,English/french,female,0,0.0,57.21139396,1.63402743
645e67cbcb96413bba593c53,5,0,2024-02-26T09:52:41.750Z,english_97.wav,0,pill,4324,66,5,3,English/french,female,1,0.1,-7.40408397,0.54734888
645e67cbcb96413bba593c53,5,0,2024-02-26T09:52:41.750Z,english_97.wav,0,pill,4324,66,5,3,English/french,female,2,0.2,77.7995227,1.5228594
645e67cbcb96413bba593c53,5,0,2024-02-26T09:52:41.750Z,english_97.wav,0,pill,4324,66,5,3,English/french,female,3,0.3,-51.1747528,1.13050105
645e67cbcb96413bba593c53,5,0,2024-02-26T09:52:41.750Z,english_97.wav,0,pill,4324,66,5,3,English/french,female,4,0.32341667,77.11982253,0.82586999
645e67cbcb96413bba593c53,6,0,2024-02-26T09:52:41.750Z,english_26.wav,0,pill,2898,66,5,3,English/french,female,0,0.0,54.38966875,1.86679487
645e67cbcb96413bba593c53,6,0,2024-02-26T09:52:41.750Z,english_26.wav,0,pill,2898,66,5,3,English/french,female,1,0.1,0.3460174,0.79762949
645e67cbcb96413bba593c53,6,0,2024-02-26T09:52:41.750Z,english_26.wav,0,pill,2898,66,5,3,English/french,female,2,0.2,-72.33258957,0.93682052
645e67cbcb96413bba593c53,6,0,2024-02-26T09:52:41.750Z,english_26.wav,0,pill,2898,66,5,3,English/french,female,3,0.3,67.09142092,1.42469209
645e67cbcb96413bba593c53,6,0,2024-02-26T09:52:41.750Z,english_26.wav,0,pill,2898,66,5,3,English/french,female,4,0.32341667,16.00565239,1.17807545
645e67cbcb96413bba593c53,7,0,2024-02-26T09:52:41.750Z,english_683.wav,0,pill,7391,66,5,3,English/french,female,0,0.0,-73.37543508,1.70409633
645e67cbcb96413bba593c53,7,0,2024-02-26T09:52:41.750Z,english_683.wav,0,pill,7391,66,5,3,English/french,female,1,0.1,66.4080647,1.25556383
645e67cbcb96413bba593c53,7,0,2024-02-26T09:52:41.750Z,english_683.wav,0,pill,7391,66,5,3,English/french,female,2,0.2,46.46812351,0.87554738
645e67cbcb96413bba593c53,7,0,2024-02-26T09:52:41.750Z,english_683.wav,0,pill,7391,66,5,3,English/french,female,3,0.3,71.67755016,1.32863005
645e67cbcb96413bba593c53,7,0,2024-02-26T09:52:41.750Z,english_683.wav,0,pill,7391,66,5,3,English/french,female,4,0.32341667,2.86253031,0.20364682
645e67cbcb96413bba593c53,8,0,2024-02-26T09:52:41.750Z,english_402.wav,0,peel,2016,66,5,3,English/french,female,0,0.0,-69.75327375,0.88104294
645e67cbcb96413bba593c53,8,0,2024-02-26T09:52:41.750Z,english_402.wav,0,peel,2016,66,5,3,English/french,female,1,0.1,-37.13247603,1.50830761
645e67cbcb96413bba593c53,8,0,2024-02-26T09:52:41.750Z,english_402.wav,0,peel,2016,66,5,3,English/french,female,2,0.2,95.06865819,0.86613458
645e67cbcb96413bba593c53,8,0,2024-02-26T09:52:41.750Z,english_402.wav,0,peel,2016,66,5,3,English/french,female,3,0.3,-83.65219271,1.46195184
645e67cbcb96413bba593c53,8,0,2024-02-26T09:52:41.750Z,english_402.wav,0,peel,2016,66,5,3,English/french,female,4,0.32341667,-39.65623645,1.78030697
645e67cbcb96413bba593c53,9,0,2024-02-26T09:52:41.750Z,english_750.wav,0,pill,3989,66,5,3,English/french,female,0,0.0,54.68497377,0.76623701
645e67cbcb96413bba593c53,9,0,2024-02-26T09:52:41.750Z,english_750.wav,0,pill,3989,66,5,3,English/french,female,1,0.1,0.91792919,1.58478782
645e67cbcb96413bba593c53,9,0,2024-02-26T09:52:41.750Z,english_750.wav,0,pill,3989,66,5,3,English/french,female,2,0.2,-67.69423006,0.74884996
645e67cbcb96413bba593c53,9,0,2024-02-26T09:52:41.750Z,english_750.wav,0,pill,3989,66,5,3,English/french,female,3,0.3,20.92985273,0.15814923
645e67cbcb96413bba593c53,9,0,2024-02-26T09:52:41.750Z,english_750.wav,0,pill,3989,66,5,3,English/french,female,4,0.32341667,-39.60032316,1.58320499
645e67cbcb96413bba593c53,10,0,2024-02-26T09:52:41.750Z,english_625.wav,0,pill,2601,66,5,3,English/french,female,0,0.0,25.70847239,1.1960971
645e67cbcb96413bba593c53,10,0,2024-02-26T09:52:41.750Z,english_625.wav,0,pill,2601,66,5,3,English/french,female,1,0.1,-37.82303983,0.02795501
645e67cbcb96413bba593c53,10,0,2024-02-26T09:52:41.750Z,english_625.wav,0,pill,2601,66,5,3,English/french,female,2,0.2,38.52328891,1.10198652
645e67cbcb96413bba593c53,10,0,2024-02-26T09:52:41.750Z,english_625.wav,0,pill,2601,66,5,3,English/french,female,3,0.3,-23.93667478,0.08852642
645e67cbcb96413bba593c53,10,0,2024-02-26T09:52:41.750Z,english_625.wav,0,pill,2601,66,5,3,English/french,female,4,0.32341667,-53.98326942,1.59813041
645e67cbcb96413bba593c53,11,0,2024-02-26T09:52:41.750Z,english_289.wav,0,peel,1471,66,5,3,English/french,female,0,0.0,-55.97739865,0.95213243
645e67cbcb96413bba593c53,11,0,2024-02-26T09:52:41.750Z,english_289.wav,0,peel,1471,66,5,3,English/french,female,1,0.1,-97.9801122,0.81858491
645e67cbcb96413bba593c53,11,0,2024-02-26T09:52:41.750Z,english_289.wav,0,peel,1471,66,5,3,English/french,female,2,0.2,44.28679287,1.16094748
645e67cbcb96413bba593c53,11,0,2024-02-26T09:52:41.750Z,english_289.wav,0,peel,1471,66,5,3,English/french,female,3,0.3,-74.0895039,0.92969459
645e67cbcb96413bba593c53,11,0,2024-02-26T09:52:41.750Z,english_289.wav,0,peel,1471,66,5,3,English/french,female,4,0.32341667,-44.25845537,0.41504245
645e67cbcb96413bba593c53,12,0,2024-02-26T09:52:41.750Z,english_640.wav,0,pill,1341,66,5,3,English/french,female,0,0.0,74.95875769,1.81273707
645e67cbcb96413bba593c53,12,0,2024-02-26T09:52:41.750Z,english_640.wav,0,pill,1341,66,5,3,English/french,female,1,0.1,87.73764633,1.50076703
645e67cbcb96413bba593c53,12,0,2024-02-26T09:52:41.750Z,english_640.wav,0,pill,1341,66,5,3,English/french,female,2,0.2,-71.36544648,0.25286143
645e67cbcb96413bba593c53,12,0,2024-02-26T09:52:41.750Z,english_640.wav,0,pill,1341,66,5,3,English/french,female,3,0.3,11.07583082,0.53181051
645e67cbcb96413bba593c53,12,0,2024-02-26T09:52:41.750Z,english_640.wav,0,pill,1341,66,5,3,English/french,female,4,0.32341667,18.32643638,0.76351343
645e67cbcb96413bba593c53,13,0,2024-02-26T09:52:41.750Z,english_133.wav,0,pill,1310,66,5,3,English/french,female,0,0.0,12.35833749,0.72635311
645e67cbcb96413bba593c53,13,0,2024-02-26T09:52:41.750Z,english_133.wav,0,pill,1310,66,5,3,English/french,female,1,0.1,40.12315016,1.38782059
645e67cbcb96413bba593c53,13,0,2024-02-26T09:52:41.750Z,english_133.wav,0,pill,1310,66,5,3,English/french,female,2,0.2,21.09458129,0.15947395
645e67cbcb96413bba593c53,13,0,2024-02-26T09:52:41.750Z,english_133.wav,0,pill,1310,66,5,3,English/french,female,3,0.3,-98.82286682,0.28433836
645e67cbcb96413bba593c53,13,0,2024-02-26T09:52:41.750Z,english_133.wav,0,pill,1310,66,5,3,English/french,female,4,0.32341667,-85.44748976,1.2581514
645e67cbcb96413bba593c53,14,0,2024-02-26T09:52:41.750Z,english_290.wav,0,peel,1832,66,5,3,English/french,female,0,0.0,73.71968657,0.30552726
645e67cbcb96413bba593c53,14,0,2024-02-26T09:52:41.750Z,english_290.wav,0,peel,1832,66,5,3,English/french,female,1,0.1,-59.85317413,1.31636279
645e67cbcb96413bba593c53,14,0,2024-02-26T09:52:41.750Z,english_290.wav,0,peel,1832,66,5,3,English/french,female,2,0.2,71.1426587,0.54925413
645e67cbcb96413bba593c53,14,0,2024-02-26T09:52:41.750Z,english_290.wav,0,peel,1832,66,5,3,English/french,female,3,0.3,-18.50007061,1.26204455
645e67cbcb96413bba593c53,14,0,2024-02-26T09:52:41.750Z,english_290.wav,0,peel,1832,66,5,3,English/french,female,4,0.32341667,-65.91143137,0.60528556
645e67cbcb96413bba593c53,15,0,2024-02-26T09:52:41.750Z,english_23.wav,0,peel,25790,66,5,3,English/french,female,0,0.0,-50.80982819,0.58244855
645e67cbcb96413bba593c53,15,0,2024-02-26T09:52:41.750Z,english_23.wav,0,peel,25790,66,5,3,English/french,female,1,0.1,76.10516215,1.77510268
645e67cbcb96413bba593c53,15,0,2024-02-26T09:52:41.750Z,english_23.wav,0,peel,25790,66,5,3,English/french,female,2,0.2,-90.32463898,0.60847707
645e67cbcb96413bba593c53,15,0,2024-02-26T09:52:41.750Z,english_23.wav,0,peel,25790,66,5,3,English/french,female,3,0.3,15.76928166,0.62114149
645e67cbcb96413bba593c53,15,0,2024-02-26T09:52:41.750Z,english_23.wav,0,peel,25790,66,5,3,English/french,female,4,0.32341667,-7.56392806,1.60162938
645e67cbcb96413bba593c53,16,0,2024-02-26T09:52:41.750Z,english_849.wav,0,pill,1308,66,5,3,English/french,female,0,0.0,-24.45439181,1.62147024
645e67cbcb96413bba593c53,16,0,2024-02-26T09:52:41.750Z,english_849.wav,0,pill,1308,66,5,3,English/french,female,1,0.1,-64.97605389,1.28655358
645e67cbcb96413bba593c53,16,0,2024-02-26T09:52:41.750Z,english_849.wav,0,pill,1308,66,5,3,English/french,female,2,0.2,-67.78874915,0.154454
645e67cbcb96413bba593c53,16,0,2024-02-26T09:52:41.750Z,english_849.wav,0,pill,1308,66,5,3,English/french,female,3,0.3,-6.53184928,1.49227138
645e67cbcb96413bba593c53,16,0,2024-02-26T09:52:41.750Z,english_849.wav,0,pill,1308,66,5,3,English/french,female,4,0.32341667,59.1884023,1.08662162
645e67cbcb96413bba593c53,17,0,2024-02-26T09:52:41.750Z,english_88.wav,0,pill,992,66,5,3,English/french,female,0,0.0,26.55889683,1.3027014
645e67cbcb96413bba593c53,17,0,2024-02-26T09:52:41.750Z,english_88.wav,0,pill,992,66,5,3,English/french,female,1,0.1,31.00356365,0.67122251
645e67cbcb96413bba593c53,17,0,2024-02-26T09:52:41.750Z,english_88.wav,0,pill,992,66,5,3,English/french,female,2,0.2,-60.56468942,0.59704477
645e67cbcb96413bba593c53,17,0,2024-02-26T09:52:41.750Z,english_88.wav,0,pill,992,66,5,3,English/french,female,3,0.3,-56.53017227,1.68194373
645e67cbcb96413bba593c53,17,0,2024-02-26T09:52:41.750Z,english_88.wav,0,pill,992,66,5,3,English/french,female,4,0.32341667,-78.90279024,0.42277005
645e67cbcb96413bba593c53,18,0,2024-02-26T09:52:41.750Z,english_801.wav,0,pill,3698,66,5,3,English/french,female,0,0.0,66.50571345,0.19311528
645e67cbcb96413bba593c53,18,0,2024-02-26T09:52:41.750Z,english_801.wav,0,pill,3698,66,5,3,English/french,female,1,0.1,-53.03260979,0.48683601
645e67cbcb96413bba593c53,18,0,2024-02-26T09:52:41.750Z,english_801.wav,0,pill,3698,66,5,3,English/french,female,2,0.2,-3.89459646,1.16293258
645e67cbcb96413bba593c53,18,0,2024-02-26T09:52:41.750Z,english_801.wav,0,pill,3698,66,5,3,English/french,female,3,0.3,8.32951864,1.55734707
645e67cbcb96413bba593c53,18,0,2024-02-26T09:52:41.750Z,english_801.wav,0,pill,3698,66,5,3,English/french,female,4,0.32341667,-87.46806733,0.63471681
645e67cbcb96413bba593c53,19,0,2024-02-26T09:52:41.750Z,english_204.wav,0,peel,1193,66,5,3,English/french,female,0,0.0,67.46317025,1.58701212
645e67cbcb96413bba593c53,19,0,2024-02-26T09:52:41.750Z,english_204.wav,0,peel,1193,66,5,3,English/french,female,1,0.1,38.91463365,1.82178317
645e67cbcb96413bba593c53,19,0,2024-02-26T09:52:41.750Z,english_204.wav,0,peel,1193,66,5,3,English/french,female,2,0.2,-85.28377865,1.60361911
645e67cbcb96413bba593c53,19,0,2024-02-26T09:52:41.750Z,english_204.wav,0,peel,1193,66,5,3,English/french,female,3,0.3,55.65505401,0.21823774
645e67cbcb96413bba593c53,19,0,2024-02-26T09:52:41.750Z,english_204.wav,0,peel,1193,66,5,3,English/french,female,4,0.32341667,56.32983288,0.04661671
645e67cbcb96413bba593c53,20,0,2024-02-26T09:52:41.750Z,english_84.wav,0,peel,1383,66,5,3,English/french,female,0,0.0,-42.35488886,0.45116064
645e67cbcb96413bba593c53,20,0,2024-02-26T09:52:41.750Z,english_84.wav,0,peel,1383,66,5,3,English/french,female,1,0.1,17.86576323,1.91320005
645e67cbcb96413bba593c53,20,0,2024-02-26T09:52:41.750Z,english_84.wav,0,peel,1383,66,5,3,English/french,female,2,0.2,-56.36172821,1.53140363
645e67cbcb96413bba593c53,20,0,2024-02-26T09:52:41.750Z,english_84.wav,0,peel,1383,66,5,3,English/french,female,3,0.3,69.8537656,0.53091011
645e67cbcb96413bba593c53,20,0,2024-02-26T09:52:41.750Z,english_84.wav,0,peel,1383,66,5,3,English/french,female,4,0.32341667,-47.30652012,1.59279301
645e67cbcb96413bba593c53,21,0,2024-02-26T09:52:41.750Z,english_60.wav,0,peel,759,66,5,3,English/french,female,0,0.0,82.53369854,0.66834278
645e67cbcb96413bba593c53,21,0,2024-02-26T09:52:41.750Z,english_60.wav,0,peel,759,66,5,3,English/french,female,1,0.1,60.14491878,1.16350573
645e67cbcb96413bba593c53,21,0,2024-02-26T09:52:41.750Z,english_60.wav,0,peel,759,66,5,3,English/french,female,2,0.2,-26.84704149,1.24827189
645e67cbcb96413bba593c53,21,0,2024-02-26T09:52:41.750Z,english_60.wav,0,peel,759,66,5,3,English/french,female,3,0.3,-19.8784386,0.70182905
645e67cbcb96413bba593c53,21,0,2024-02-26T09:52:41.750Z,english_60.wav,0,peel,759,66,5,3,English/french,female,4,0.32341667,-26.04492652,0.20173025
645e67cbcb96413bba593c53,22,0,2024-02-26T09:52:41.750Z,english_509.wav,0,pill,1780,66,5,3,English/french,female,0,0.0,58.37136146,0.93627824
645e67cbcb96413bba593c53,22,0,2024-02-26T09:52:41.750Z,english_509.wav,0,pill,1780,66,5,3,English/french,female,1,0.1,-30.59588084,1.268957
645e67cbcb96413bba593c53,22,0,2024-02-26T09:52:41.750Z,english_509.wav,0,pill,1780,66,5,3,English/french,female,2,0.2,-42.62400689,0.87018438
645e67cbcb96413bba593c53,22,0,2024-02-26T09:52:41.750Z,english_509.wav,0,pill,1780,66,5,3,English/french,female,3,0.3,58.46483968,1.67134466
645e67cbcb96413bba593c53,22,0,2024-02-26T09:52:41.750Z,english_509.wav,0,pill,1780,66,5,3,English/french,female,4,0.32341667,44.09610342,1.96584472
645e67cbcb96413bba593c53,23,0,2024-02-26T09:52:41.750Z,english_697.wav,0,pill,1190,66,5,3,English/french,female,0,0.0,34.8877197,0.10761674
645e67cbcb96413bba593c53,23,0,2024-02-26T09:52:41.750Z,english_697.wav,0,pill,1190,66,5,3,English/french,female,1,0.1,-0.0129750448,0.88035305
645e67cbcb96413bba593c53,23,0,2024-02-26T09:52:41.750Z,english_697.wav,0,pill,1190,66,5,3,English/french,female,2,0.2,48.8877829,0.12183403
645e67cbcb96413bba593c53,23,0,2024-02-26T09:52:41.750Z,english_697.wav,0,pill,1190,66,5,3,English/french,female,3,0.3,68.5745634,0.55306263
645e67cbcb96413bba593c53,23,0,2024-02-26T09:52:41.750Z,english_697.wav,0,pill,1190,66,5,3,English/french,female,4,0.323416667,18.9536775,1.83833688
645e67cbcb96413bba593c53,24,0,2024-02-26T09:52:41.750Z,english_89.wav,0,pill,781,66,5,3,English/french,female,0,0.0,-42.28936571,1.68633095
645e67cbcb96413bba593c53,24,0,2024-02-26T09:52:41.750Z,english_89.wav,0,pill,781,66,5,3,English/french,female,1,0.1,12.96738115,0.49078122
645e67cbcb96413bba593c53,24,0,2024-02-26T09:52:41.750Z,english_89.wav,0,pill,781,66,5,3,English/french,female,2,0.2,-0.92476461,0.75584791
645e67cbcb96413bba593c53,24,0,2024-02-26T09:52:41.750Z,english_89.wav,0,pill,781,66,5,3,English/french,female,3,0.3,54.46155283,1.37155139
645e67cbcb96413bba593c53,24,0,2024-02-26T09:52:41.750Z,english_89.wav,0,pill,781,66,5,3,English/french,female,4,0.32341667,-5.27724964,0.6613642
645e67cbcb96413bba593c53,25,0,2024-02-26T09:52:41.750Z,english_726.wav,0,peel,898,66,5,3,English/french,female,0,0.0,76.65318619,0.71374833
645e67cbcb96413bba593c53,25,0,2024-02-26T09:52:41.750Z,english_726.wav,0,peel,898,66,5,3,English/french,female,1,0.1,62.97746083,1.94407191
645e67cbcb96413bba593c53,25,0,2024-02-26T09:52:41.750Z,english_726.wav,0,peel,898,66,5,3,English/french,female,2,0.2,-20.72245964,0.55951675
645e67cbcb96413bba593c53,25,0,2024-02-26T09:52:41.750Z,english_726.wav,0,peel,898,66,5,3,English/french,female,3,0.3,42.64953343,0.7826891
645e67cbcb96413bba593c53,25,0,2024-02-26T09:52:41.750Z,english_726.wav,0,peel,898,66,5,3,English/french,female,4,0.32341667,23.5514061,0.11592549
645e67cbcb96413bba593c53,26,0,2024-02-26T09:52:41.750Z,english_589.wav,0,peel,521,66,5,3,English/french,female,0,0.0,58.55453646,1.98928345
645e67cbcb96413bba593c53,26,0,2024-02-26T09:52:41.750Z,english_589.wav,0,peel,521,66,5,3,English/french,female,1,0.1,30.45164265,1.49107718
645e67cbcb96413bba593c53,26,0,2024-02-26T09:52:41.750Z,english_589.wav,0,peel,521,66,5,3,English/french,female,2,0.2,-45.43400091,0.52639062
645e67cbcb96413bba593c53,26,0,2024-02-26T09:52:41.750Z,english_589.wav,0,peel,521,66,5,3,English/french,female,3,0.3,84.99084473,0.34590986
645e67cbcb96413bba593c53,26,0,2024-02-26T09:52:41.750Z,english_589.wav,0,peel,521,66,5,3,English/french,female,4,0.32341667,65.45411119,0.67022481
645e67cbcb96413bba593c53,27,0,2024-02-26T09:52:41.750Z,english_903.wav,0,peel,1201,66,5,3,English/french,female,0,0.0,73.58848698,0.30588109
645e67cbcb96413bba593c53,27,0,2024-02-26T09:52:41.750Z,english_903.wav,0,peel,1201,66,5,3,English/french,female,1,0.1,-95.58060262,0.88963747
645e67cbcb96413bba593c53,27,0,2024-02-26T09:52:41.750Z,english_903.wav,0,peel,1201,66,5,3,English/french,female,2,0.2,17.41642173,1.73634476
645e67cbcb96413bba593c53,27,0,2024-02-26T09:52:41.750Z,english_903.wav,0,peel,1201,66,5,3,English/french,female,3,0.3,94.35223882,0.71257749
645e67cbcb96413bba593c53,27,0,2024-02-26T09:52:41.750Z,english_903.wav,0,peel,1201,66,5,3,English/french,female,4,0.32341667,-49.48803877,1.4824474
645e67cbcb96413bba593c53,28,0,2024-02-26T09:52:41.750Z,english_5.wav,0,pill,796,66,5,3,English/french,female,0,0.0,-15.92383461,0.27445408
645e67cbcb96413bba593c53,28,0,2024-02-26T09:52:41.750Z,english_5.wav,0,pill,796,66,5,3,English/french,female,1,0.1,-20.01914587,0.54328549
645e67cbcb96413bba593c53,28,0,2024-02-26T09:52:41.750Z,english_5.wav,0,pill,796,66,5,3,English/french,female,2,0.2,40.70457056,0.32172142
645e67cbcb96413bba593c53,28,0,2024-02-26T09:52:41.750Z,english_5.wav,0,pill,796,66,5,3,English/french,female,3,0.3,-94.67131236,1.15903644
645e67cbcb96413bba593c53,28,0,2024-02-26T09:52:41.750Z,english_5.wav,0,pill,796,66,5,3,English/french,female,4,0.32341667,-88.33027294,0.94870148
645e67cbcb96413bba593c53,29,0,2024-02-26T09:52:41.750Z,english_143.wav,0,pill,902,66,5,3,English/french,female,0,0.0,-40.90047407,0.05812512
645e67cbcb96413bba593c53,29,0,2024-02-26T09:52:41.750Z,english_143.wav,0,pill,902,66,5,3,English/french,female,1,0.1,-35.35291254,0.81203879
645e67cbcb96413bba593c53,29,0,2024-02-26T09:52:41.750Z,english_143.wav,0,pill,902,66,5,3,English/french,female,2,0.2,36.32983964,0.61124866
645e67cbcb96413bba593c53,29,0,2024-02-26T09:52:41.750Z,english_143.wav,0,pill,902,66,5,3,English/french,female,3,0.3,-7.67980486,0.41683772
645e67cbcb96413bba593c53,29,0,2024-02-26T09:52:41.750Z,english_143.wav,0,pill,902,66,5,3,English/french,female,4,0.32341667,-89.59854269,1.86697452
645e67cbcb96413bba593c53,30,0,2024-02-26T09:52:41.750Z,english_213.wav,0,pill,794,66,5,3,English/french,female,0,0.0,-29.91874444,1.42031243
645e67cbcb96413bba593c53,30,0,2024-02-26T09:52:41.750Z,english_213.wav,0,pill,794,66,5,3,English/french,female,1,0.1,41.64704809,0.59218852
645e67cbcb96413bba593c53,30,0,2024-02-26T09:52:41.750Z,english_213.wav,0,pill,794,66,5,3,English/french,female,2,0.2,-87.11075848,1.10576613
645e67cbcb96413bba593c53,30,0,2024-02-26T09:52:41.750Z,english_213.wav,0,pill,794,66,5,3,English/french,female,3,0.3,-61.54877495,0.09529021
645e67cbcb96413bba593c53,30,0,2024-02-26T09:52:41.750Z,english_213.wav,0,pill,794,66,5,3,English/french,female,4,0.32341667,-34.29429643,1.15583312
645e67cbcb96413bba593c53,31,0,2024-02-26T09:52:41.750Z,english_956.wav,0,pill,794,66,5,3,English/french,female,0,0.0,-98.71257913,1.5828524
645e67cbcb96413bba593c53,31,0,2024-02-26T09:52:41.750Z,english_956.wav,0,pill,794,66,5,3,English/french,female,1,0.1,-36.05702295,0.66985857
645e67cbcb96413bba593c53,31,0,2024-02-26T09:52:41.750Z,english_956.wav,0,pill,794,66,5,3,English/french,female,2,0.2,-31.95582623,0.13798036
645e67cbcb96413bba593c53,31,0,2024-02-26T09:52:41.750Z,english_956.wav,0,pill,794,66,5,3,English/french,female,3,0.3,-81.31295359,0.22663358
645e67cbcb96413bba593c53,31,0,2024-02-26T09:52:41.750Z,english_956.wav,0,pill,794,66,5,3,English/french,female,4,0.32341667,45.09425789,0.54862974
645e67cbcb96413bba593c53,32,0,2024-02-26T09:52:41.750Z,english_448.wav,0,peel,938,66,5,3,English/french,female,0,0.0,0.37188167,1.15390094
645e67cbcb96413bba593c53,32,0,2024-02-26T09:52:41.750Z,english_448.wav,0,peel,938,66,5,3,English/french,female,1,0.1,-67.82723624,1.58767458
645e67cbcb96413bba593c53,32,0,2024-02-26T09:52:41.750Z,english_448.wav,0,peel,938,66,5,3,English/french,female,2,0.2,65.77705469,1.13313853
645e67cbcb96413bba593c53,32,0,2024-02-26T09:52:41.750Z,english_448.wav,0,peel,938,66,5,3,English/french,female,3,0.3,83.31626383,0.27075507
645e67cbcb96413bba593c53,32,0,2024-02-26T09:52:41.750Z,english_448.wav,0,peel,938,66,5,3,English/french,female,4,0.32341667,-27.56829045,1.20964916
645e67cbcb96413bba593c53,33,0,2024-02-26T09:52:41.750Z,english_982.wav,0,peel,1213,66,5,3,English/french,female,0,0.0,12.44046596,0.81508625
645e67cbcb96413bba593c53,33,0,2024-02-26T09:52:41.750Z,english_982.wav,0,peel,1213,66,5,3,English/french,female,1,0.1,-60.41666302,0.92712357
645e67cbcb96413bba593c53,33,0,2024-02-26T09:52:41.750Z,english_982.wav,0,peel,1213,66,5,3,English/french,female,2,0.2,-35.31499742,0.77678916
645e67cbcb96413bba593c53,33,0,2024-02-26T09:52:41.750Z,english_982.wav,0,peel,1213,66,5,3,English/french,female,3,0.3,-10.96739076,1.0294352
645e67cbcb96413bba593c53,33,0,2024-02-26T09:52:41.750Z,english_982.wav,0,peel,1213,66,5,3,English/french,female,4,0.32341667,44.50624474,1.1322674
645e67cbcb96413bba593c53,34,0,2024-02-26T09:52:41.750Z,english_950.wav,0,peel,707,66,5,3,English/french,female,0,0.0,-21.9776243,0.20752278
645e67cbcb96413bba593c53,34,0,2024-02-26T09:52:41.750Z,english_950.wav,0,peel,707,66,5,3,English/french,female,1,0.1,-41.40023943,1.93939622
645e67cbcb96413bba593c53,34,0,2024-02-26T09:52:41.750Z,english_950.wav,0,peel,707,66,5,3,English/french,female,2,0.2,48.01515584,1.55608343
645e67cbcb96413bba593c53,34,0,2024-02-26T09:52:41.750Z,english_950.wav,0,peel,707,66,5,3,English/french,female,3,0.3,-87.95551252,1.49634866
645e67cbcb96413bba593c53,34,0,2024-02-26T09:52:41.750Z,english_950.wav,0,peel,707,66,5,3,English/french,female,4,0.32341667,-39.5252386,0.91783384
645e67cbcb96413bba593c53,35,0,2024-02-26T09:52:41.750Z,english_974.wav,0,peel,1542,66,5,3,English/french,female,0,0.0,29.63575745,0.7371821
645e67cbcb96413bba593c53,35,0,2024-02-26T09:52:41.750Z,english_974.wav,0,peel,1542,66,5,3,English/french,female,1,0.1,-49.63946334,1.15838362
645e67cbcb96413bba593c53,35,0,2024-02-26T09:52:41.750Z,english_974.wav,0,peel,1542,66,5,3,English/french,female,2,0.2,87.75163431,1.66312363
645e67cbcb96413bba593c53,35,0,2024-02-26T09:52:41.750Z,english_974.wav,0,peel,1542,66,5,3,English/french,female,3,0.3,-62.39844007,0.85783748
645e67cbcb96413bba593c53,35,0,2024-02-26T09:52:41.750Z,english_974.wav,0,peel,1542,66,5,3,English/french,female,4,0.32341667,-98.5513891,1.53033297
645e67cbcb96413bba593c53,36,0,2024-02-26T09:52:41.750Z,english_992.wav,0,pill,832,66,5,3,English/french,female,0,0.0,-6.68189934,0.46848529
645e67cbcb96413bba593c53,36,0,2024-02-26T09:52:41.750Z,english_992.wav,0,pill,832,66,5,3,English/french,female,1,0.1,78.76679047,0.9874556
645e67cbcb96413bba593c53,36,0,2024-02-26T09:52:41.750Z,english_992.wav,0,pill,832,66,5,3,English/french,female,2,0.2,-58.5917679,0.57881803
645e67cbcb96413bba593c53,36,0,2024-02-26T09:52:41.750Z,english_992.wav,0,pill,832,66,5,3,English/french,female,3,0.3,-98.64651588,0.88425299
645e67cbcb96413bba593c53,36,0,2024-02-26T09:52:41.750Z,english_992.wav,0,pill,832,66,5,3,English/french,female,4,0.32341667,73.76402904,0.6994588
645e67cbcb96413bba593c53,37,0,2024-02-26T09:52:41.750Z,english_543.wav,0,pill,786,66,5,3,English/french,female,0,0.0,13.74009622,0.63900578
645e67cbcb96413bba593c53,37,0,2024-02-26T09:52:41.750Z,english_543.wav,0,pill,786,66,5,3,English/french,female,1,0.1,51.80972721,1.6206981
645e67cbcb96413bba593c53,37,0,2024-02-26T09:52:41.750Z,english_543.wav,0,pill,786,66,5,3,English/french,female,2,0.2,86.3964352,0.03304675
645e67cbcb96413bba593c53,37,0,2024-02-26T09:52:41.750Z,english_543.wav,0,pill,786,66,5,3,English/french,female,3,0.3,-66.39783761,1.7049324
645e67cbcb96413bba593c53,37,0,2024-02-26T09:52:41.750Z,english_543.wav,0,pill,786,66,5,3,English/french,female,4,0.32341667,31.11863834,1.46507556
645e67cbcb96413bba593c53,38,0,2024-02-26T09:52:41.750Z,english_593.wav,0,peel,717,66,5,3,English/french,female,0,0.0,0.23295982,1.83954553
645e67cbcb96413bba593c53,38,0,2024-02-26T09:52:41.750Z,english_593.wav,0,peel,717,66,5,3,English/french,female,1,0.1,-0.52832444,1.77820403
645e67cbcb96413bba593c53,38,0,2024-02-26T09:52:41.750Z,english_593.wav,0,peel,717,66,5,3,English/french,female,2,0.2,18.28609946,0.36770598
645e67cbcb96413bba593c53,38,0,2024-02-26T09:52:41.750Z,english_593.wav,0,peel,717,66,5,3,English/french,female,3,0.3,21.25816485,0.42189114
645e67cbcb96413bba593c53,38,0,2024-02-26T09:52:41.750Z,english_593.wav,0,peel,717,66,5,3,English/french,female,4,0.32341667,60.44039038,0.07588974
645e67cbcb96413bba593c53,39,0,2024-02-26T09:52:41.750Z,english_251.wav,0,peel,711,66,5,3,English/french,female,0,0.0,-35.26640223,1.59441442
645e67cbcb96413bba593c53,39,0,2024-02-26T09:52:41.750Z,english_251.wav,0,peel,711,66,5,3,English/french,female,1,0.1,-82.14936791,1.21410308
645e67cbcb96413bba593c53,39,0,2024-02-26T09:52:41.750Z,english_251.wav,0,peel,711,66,5,3,English/french,female,2,0.2,39.53587687,0.89125894
645e67cbcb96413bba593c53,39,0,2024-02-26T09:52:41.750Z,english_251.wav,0,peel,711,66,5,3,English/french,female,3,0.3,-75.44024907,0.14763688
645e67cbcb96413bba593c53,39,0,2024-02-26T09:52:41.750Z,english_251.wav,0,peel,711,66,5,3,English/french,female,4,0.32341667,26.94148116,1.71797298
645e67cbcb96413bba593c53,40,0,2024-02-26T09:52:41.750Z,english_46.wav,0,peel,722,66,5,3,English/french,female,0,0.0,-29.32250151,0.64118776
645e67cbcb96413bba593c53,40,0,2024-02-26T09:52:41.750Z,english_46.wav,0,peel,722,66,5,3,English/french,female,1,0.1,-3.06808063,0.73649566
645e67cbcb96413bba593c53,40,0,2024-02-26T09:52:41.750Z,english_46.wav,0,peel,722,66,5,3,English/french,female,2,0.2,90.97923358,1.88790792
645e67cbcb96413bba593c53,40,0,2024-02-26T09:52:41.750Z,english_46.wav,0,peel,722,66,5,3,English/french,female,3,0.3,10.7462216,0.26788582
645e67cbcb96413bba593c53,40,0,2024-02-26T09:52:41.750Z,english_46.wav,0,peel,722,66,5,3,English/french,female,4,0.32341667,-76.74347892,0.543593
645e67cbcb96413bba593c53,41,0,2024-02-26T10:12:06.570Z,english_556.wav,0,peel,1139,66,5,3,English/french,female,0,0.0,35.62658416,1.88481821
645e67cbcb96413bba593c53,41,0,2024-02-26T10:12:06.570Z,english_556.wav,0,peel,1139,66,5,3,English/french,female,1,0.1,28.75181601,0.4023528
645e67cbcb96413bba593c53,41,0,2024-02-26T10:12:06.570Z,english_556.wav,0,peel,1139,66,5,3,English/french,female,2,0.2,-2.62389444,1.49364055
645e67cbcb96413bba593c53,41,0,2024-02-26T10:12:06.570Z,english_556.wav,0,peel,1139,66,5,3,English/french,female,3,0.3,64.03572584,1.54190039
645e67cbcb96413bba593c53,41,0,2024-02-26T10:12:06.570Z,english_556.wav,0,peel,1139,66,5,3,English/french,female,4,0.32341667,72.79696002,0.53435232
645e67cbcb96413bba593c53,42,0,2024-02-26T10:12:06.570Z,english_551.wav,0,pill,2260,66,5,3,English/french,female,0,0.0,51.69986033,0.0331047
645e67cbcb96413bba593c53,42,0,2024-02-26T10:12:06.570Z,english_551.wav,0,pill,2260,66,5,3,English/french,female,1,0.1,-91.31948841,0.51079487
645e67cbcb96413bba593c53,42,0,2024-02-26T10:12:06.570Z,english_551.wav,0,pill,2260,66,5,3,English/french,female,2,0.2,12.24586311,1.83581854
645e67cbcb96413bba593c53,42,0,2024-02-26T10:12:06.570Z,english_551.wav,0,pill,2260,66,5,3,English/french,female,3,0.3,-52.90680215,0.12201236
645e67cbcb96413bba593c53,42,0,2024-02-26T10:12:06.570Z,english_551.wav,0,pill,2260,66,5,3,English/french,female,4,0.32341667,-27.23325687,1.55189277
645e67cbcb96413bba593c53,43,0,2024-02-26T10:12:06.570Z,english_433.wav,0,pill,1747,66,5,3,English/french,female,0,0.0,-74.58178472,0.69852952
645e67cbcb96413bba593c53,43,0,2024-02-26T10:12:06.570Z,english_433.wav,0,pill,1747,66,5,3,English/french,female,1,0.1,-50.00917691,1.92405883
645e67cbcb96413bba593c53,43,0,2024-02-26T10:12:06.570Z,english_433.wav,0,pill,1747,66,5,3,English/french,female,2,0.2,48.18572343,0.3905825
645e67cbcb96413bba593c53,43,0,2024-02-26T10:12:06.570Z,english_433.wav,0,pill,1747,66,5,3,English/french,female,3,0.3,-63.95387597,0.31453116
645e67cbcb96413bba593c53,43,0,2024-02-26T10:12:06.570Z,english_433.wav,0,pill,1747,66,5,3,English/french,female,4,0.32341667,-68.91859183,1.4953114
645e67cbcb96413bba593c53,44,0,2024-02-26T10:12:06.570Z,english_19.wav,0,pill,700,66,5,3,English/french,female,0,0.0,51.84788699,0.3981759
645e67cbcb96413bba593c53,44,0,2024-02-26T10:12:06.570Z,english_19.wav,0,pill,700,66,5,3,English/french,female,1,0.1,59.68091475,1.61217409
645e67cbcb96413bba593c53,44,0,2024-02-26T10:12:06.570Z,english_19.wav,0,pill,700,66,5,3,English/french,female,2,0.2,-27.71167756,0.35158216
645e67cbcb96413bba593c53,44,0,2024-02-26T10:12:06.570Z,english_19.wav,0,pill,700,66,5,3,English/french,female,3,0.3,-29.56443604,0.8770992
645e67cbcb96413bba593c53,44,0,2024-02-26T10:12:06.570Z,english_19.wav,0,pill,700,66,5,3,English/french,female,4,0.32341667,-58.55228515,0.51670124
645e67cbcb96413bba593c53,45,0,2024-02-26T10:12:06.570Z,english_412.wav,0,peel,509,66,5,3,English/french,female,0,0.0,-82.38375592,0.41347899
645e67cbcb96413bba593c53,45,0,2024-02-26T10:12:06.570Z,english_412.wav,0,peel,509,66,5,3,English/french,female,1,0.1,-35.89348303,0.05505218
645e67cbcb96413bba593c53,45,0,2024-02-26T10:12:06.570Z,english_412.wav,0,peel,509,66,5,3,English/french,female,2,0.2,-78.50422887,1.28972039
645e67cbcb96413bba593c53,45,0,2024-02-26T10:12:06.570Z,english_412.wav,0,peel,509,66,5,3,English/french,female,3,0.3,8.19618882,0.97331843
645e67cbcb96413bba593c53,45,0,2024-02-26T10:12:06.570Z,english_412.wav,0,peel,509,66,5,3,English/french,female,4,0.32341667,88.30694734,0.22558246
645e67cbcb96413bba593c53,46,0,2024-02-26T10:12:06.570Z,english_117.wav,0,pill,835,66,5,3,English/french,female,0,0.0,-98.72491255,1.42659946
645e67cbcb96413bba593c53,46,0,2024-02-26T10:12:06.570Z,english_117.wav,0,pill,835,66,5,3,English/french,female,1,0.1,-15.15642563,1.64599539
645e67cbcb96413bba593c53,46,0,2024-02-26T10:12:06.570Z,english_117.wav,0,pill,835,66,5,3,English/french,female,2,0.2,24.45806353,0.97767705
645e67cbcb96413bba593c53,46,0,2024-02-26T10:12:06.570Z,english_117.wav,0,pill,835,66,5,3,English/french,female,3,0.3,-80.67224668,0.37962884
645e67cbcb96413bba593c53,46,0,2024-02-26T10:12:06.570Z,english_117.wav,0,pill,835,66,5,3,English/french,female,4,0.32341667,-97.50349755,0.74274723
645e67cbcb96413bba593c53,47,0,2024-02-26T10:12:06.570Z,english_302.wav,0,pill,477,66,5,3,English/french,female,0,0.0,-63.95927305,1.3663617
645e67cbcb96413bba593c53,47,0,2024-02-26T10:12:06.570Z,english_302.wav,0,pill,477,66,5,3,English/french,female,1,0.1,-82.44028643,1.24112643
645e67cbcb96413bba593c53,47,0,2024-02-26T10:12:06.570Z,english_302.wav,0,pill,477,66,5,3,English/french,female,2,0.2,-63.33590257,1.83999602
645e67cbcb96413bba593c53,47,0,2024-02-26T10:12:06.570Z,english_302.wav,0,pill,477,66,5,3,English/french,female,3,0.3,-82.33590521,0.89576132
645e67cbcb96413bba593c53,47,0,2024-02-26T10:12:06.570Z,english_302.wav,0,pill,477,66,5,3,English/french,female,4,0.32341667,-77.43124585,1.51483357
645e67cbcb96413bba593c53,48,0,2024-02-26T10:12:06.570Z,english_29.wav,0,peel,565,66,5,3,English/french,female,0,0.0,-2.71310826,1.50712016
645e67cbcb96413bba593c53,48,0,2024-02-26T10:12:06.570Z,english_29.wav,0,peel,565,66,5,3,English/french,female,1,0.1,17.7201972,0.83644439
645e67cbcb96413bba593c53,48,0,2024-02-26T10:12:06.570Z,english_29.wav,0,peel,565,66,5,3,English/french,female,2,0.2,-20.17501418,0.76078741
645e67cbcb96413bba593c53,48,0,2024-02-26T10:12:06.570Z,english_29.wav,0,peel,565,66,5,3,English/french,female,3,0.3,12.48271646,0.17009155
645e67cbcb96413bba593c53,48,0,2024-02-26T10:12:06.570Z,english_29.wav,0,peel,565,66,5,3,English/french,female,4,0.32341667,29.42079391,1.26727983
645e67cbcb96413bba593c53,49,0,2024-02-26T10:12:06.570Z,english_731.wav,0,pill,256,66,5,3,English/french,female,0,0.0,91.74609406,0.2840719
645e67cbcb96413bba593c53,49,0,2024-02-26T10:12:06.570Z,english_731.wav,0,pill,256,66,5,3,English/french,female,1,0.1,96.5637085,1.75324284
645e67cbcb96413bba593c53,49,0,2024-02-26T10:12:06.570Z,english_731.wav,0,pill,256,66,5,3,English/french,female,2,0.2,-58.02596537,1.43086201
645e67cbcb96413bba593c53,49,0,2024-02-26T10:12:06.570Z,english_731.wav,0,pill,256,66,5,3,English/french,female,3,0.3,21.59328018,1.68336342
645e67cbcb96413bba593c53,49,0,2024-02-26T10:12:06.570Z,english_731.wav,0,pill,256,66,5,3,English/french,female,4,0.32341667,13.26044458,0.60031718
645e67cbcb96413bba593c53,50,1,2024-02-26T10:12:06.570Z,english_194.wav,0,pill,433,66,5,3,English/french,female,0,0.0,46.99725025,0.38230397
645e67cbcb96413bba593c53,50,1,2024-02-26T10:12:06.570Z,english_194.wav,0,pill,433,66,5,3,English/french,female,1,0.1,-37.20381284,1.33246395
645e67cbcb96413bba593c53,50,1,2024-02-26T10:12:06.570Z,english_194.wav,0,pill,433,66,5,3,English/french,female,2,0.2,13.86947558,1.31276464
645e67cbcb96413bba593c53,50,1,2024-02-26T10:12:06.570Z,english_194.wav,0,pill,433,66,5,3,English/french,female,3,0.3,79.77232086,0.22397005
645e67cbcb96413bba593c53,50,1,2024-02-26T10:12:06.570Z,english_194.wav,0,pill,433,66,5,3,English/french,female,4,0.32341667,49.46244041,1.74931967
645e67cbcb96413bba593c53,51,1,2024-02-26T10:12:06.570Z,english_597.wav,0,pill,245,66,5,3,English/french,female,0,0.0,-83.66792118,0.17389721
645e67cbcb96413bba593c53,51,1,2024-02-26T10:12:06.570Z,english_597.wav,0,pill,245,66,5,3,English/french,female,1,0.1,-19.98744657,0.39349672
645e67cbcb96413bba593c53,51,1,2024-02-26T10:12:06.570Z,english_597.wav,0,pill,245,66,5,3,English/french,female,2,0.2,-30.38458549,1.97590818
645e67cbcb96413bba593c53,51,1,2024-02-26T10:12:06.570Z,english_597.wav,0,pill,245,66,5,3,English/french,female,3,0.3,-63.4406446,1.84988074
645e67cbcb96413bba593c53,51,1,2024-02-26T10:12:06.570Z,english_597.wav,0,pill,245,66,5,3,English/french,female,4,0.32341667,25.67812426,1.17620678
645e67cbcb96413bba593c53,52,1,2024-02-26T10:12:06.570Z,english_752.wav,0,pill,243,66,5,3,English/french,female,0,0.0,-89.50526135,1.26833375
645e67cbcb96413bba593c53,52,1,2024-02-26T10:12:06.570Z,english_752.wav,0,pill,243,66,5,3,English/french,female,1,0.1,16.42916277,1.25445964
645e67cbcb96413bba593c53,52,1,2024-02-26T10:12:06.570Z,english_752.wav,0,pill,243,66,5,3,English/french,female,2,0.2,-62.11724863,1.84048801
645e67cbcb96413bba593c53,52,1,2024-02-26T10:12:06.570Z,english_752.wav,0,pill,243,66,5,3,English/french,female,3,0.3,-22.7839786,0.96813738
645e67cbcb96413bba593c53,52,1,2024-02-26T10:12:06.570Z,english_752.wav,0,pill,243,66,5,3,English/french,female,4,0.32341667,21.77934146,1.95604557
645e67cbcb96413bba593c53,53,1,2024-02-26T10:12:06.570Z,english_846.wav,0,peel,492,66,5,3,English/french,female,0,0.0,61.87306923,1.6800264
645e67cbcb96413bba593c53,53,1,2024-02-26T10:12:06.570Z,english_846.wav,0,peel,492,66,5,3,English/french,female,1,0.1,-5.64177324,0.32387551
645e67cbcb96413bba593c53,53,1,2024-02-26T10:12:06.570Z,english_846.wav,0,peel,492,66,5,3,English/french,female,2,0.2,86.75305487,0.09122421
645e67cbcb96413bba593c53,53,1,2024-02-26T10:12:06.570Z,english_846.wav,0,peel,492,66,5,3,English/french,female,3,0.3,-27.71752308,0.55014386
645e67cbcb96413bba593c53,53,1,2024-02-26T10:12:06.570Z,english_846.wav,0,peel,492,66,5,3,English/french,female,4,0.32341667,-26.78048177,0.82256102
645e67cbcb96413bba593c53,54,1,2024-02-26T10:12:06.570Z,english_555.wav,0,pill,215,66,5,3,English/french,female,0,0.0,69.49762262,1.08530069
645e67cbcb96413bba593c53,54,1,2024-02-26T10:12:06.570Z,english_555.wav,0,pill,215,66,5,3,English/french,female,1,0.1,42.72159746,0.99979939
645e67cbcb96413bba593c53,54,1,2024-02-26T10:12:06.570Z,english_555.wav,0,pill,215,66,5,3,English/french,female,2,0.2,96.74773092,1.75882447
645e67cbcb96413bba593c53,54,1,2024-02-26T10:12:06.570Z,english_555.wav,0,pill,215,66,5,3,English/french,female,3,0.3,-27.92411753,1.36775981
645e67cbcb96413bba593c53,54,1,2024-02-26T10:12:06.570Z,english_555.wav,0,pill,215,66,5,3,English/french,female,4,0.32341667,33.93273626,0.90104071
645e67cbcb96413bba593c53,55,1,2024-02-26T10:12:06.570Z,english_263.wav,0,peel,494,66,5,3,English/french,female,0,0.0,4.78285782,1.6410762
645e67cbcb96413bba593c53,55,1,2024-02-26T10:12:06.570Z,english_263.wav,0,peel,494,66,5,3,English/french,female,1,0.1,13.60270601,0.7602565
645e67cbcb96413bba593c53,55,1,2024-02-26T10:12:06.570Z,english_263.wav,0,peel,494,66,5,3,English/french,female,2,0.2,39.50896912,0.2694778
645e67cbcb96413bba593c53,55,1,2024-02-26T10:12:06.570Z,english_263.wav,0,peel,494,66,5,3,English/french,female,3,0.3,22.44107494,1.51649535
645e67cbcb96413bba593c53,55,1,2024-02-26T10:12:06.570Z,english_263.wav,0,peel,494,66,5,3,English/french,female,4,0.32341667,-36.00172497,0.60574629
645e67cbcb96413bba593c53,56,1,2024-02-26T10:12:06.570Z,english_3.wav,0,pill,255,66,5,3,English/french,female,0,0.0,-57.66547148,1.73485112
645e67cbcb96413bba593c53,56,1,2024-02-26T10:12:06.570Z,english_3.wav,0,pill,255,66,5,3,English/french,female,1,0.1,-70.60568286,1.4226462
645e67cbcb96413bba593c53,56,1,2024-02-26T10:12:06.570Z,english_3.wav,0,pill,255,66,5,3,English/french,female,2,0.2,70.86912423,1.06235888
645e67cbcb96413bba593c53,56,1,2024-02-26T10:12:06.570Z,english_3.wav,0,pill,255,66,5,3,English/french,female,3,0.3,-17.39285893,1.05619652
645e67cbcb96413bba593c53,56,1,2024-02-26T10:12:06.570Z,english_3.wav,0,pill,255,66,5,3,English/french,female,4,0.32341667,-60.61780379,1.35606233
645e67cbcb96413bba593c53,57,1,2024-02-26T10:12:06.570Z,english_146.wav,0,peel,567,66,5,3,English/french,female,0,0.0,-7.47107612,0.36907021
645e67cbcb96413bba593c53,57,1,2024-02-26T10:12:06.570Z,english_146.wav,0,peel,567,66,5,3,English/french,female,1,0.1,-10.73298436,0.24473139
645e67cbcb96413bba593c53,57,1,2024-02-26T10:12:06.570Z,english_146.wav,0,peel,567,66,5,3,English/french,female,2,0.2,-4.63341632,1.01983542
645e67cbcb96413bba593c53,57,1,2024-02-26T10:12:06.570Z,english_146.wav,0,peel,567,66,5,3,English/french,female,3,0.3,14.65491039,0.62607899
645e67cbcb96413bba593c53,57,1,2024-02-26T10:12:06.570Z,english_146.wav,0,peel,567,66,5,3,English/french,female,4,0.32341667,19.96333333,1.1005899
645e67cbcb96413bba593c53,58,1,2024-02-26T10:12:06.570Z,english_193.wav,0,pill,56,66,5,3,English/french,female,0,0.0,98.63199606,1.10219899
645e67cbcb96413bba593c53,58,1,2024-02-26T10:12:06.570Z,english_193.wav,0,pill,56,66,5,3,English/french,female,1,0.1,38.06859183,1.75752318
645e67cbcb96413bba593c53,58,1,2024-02-26T10:12:06.570Z,english_193.wav,0,pill,56,66,5,3,English/french,female,2,0.2,58.19309996,1.8701857
645e67cbcb96413bba593c53,58,1,2024-02-26T10:12:06.570Z,english_193.wav,0,pill,56,66,5,3,English/french,female,3,0.3,70.68425501,1.90449871
645e67cbcb96413bba593c53,58,1,2024-02-26T10:12:06.570Z,english_193.wav,0,pill,56,66,5,3,English/french,female,4,0.32341667,89.06926868,1.70479661
645e67cbcb96413bba593c53,59,1,2024-02-26T10:12:06.570Z,english_82.wav,0,pill,274,66,5,3,English/french,female,0,0.0,-21.02351082,0.76668052
645e67cbcb96413bba593c53,59,1,2024-02-26T10:12:06.570Z,english_82.wav,0,pill,274,66,5,3,English/french,female,1,0.1,1.53612588,0.94640395
645e67cbcb96413bba593c53,59,1,2024-02-26T10:12:06.570Z,english_82.wav,0,pill,274,66,5,3,English/french,female,2,0.2,82.9198569,1.02754902
645e67cbcb96413bba593c53,59,1,2024-02-26T10:12:06.570Z,english_82.wav,0,pill,274,66,5,3,English/french,female,3,0.3,67.34737065,1.57368428
645e67cbcb96413bba593c53,59,1,2024-02-26T10:12:06.570Z,english_82.wav,0,pill,274,66,5,3,English/french,female,4,0.32341667,-34.9418752,0.67195212
645e67cbcb96413bba593c53,60,1,2024-02-26T10:12:06.570Z,english_977.wav,0,pill,325,66,5,3,English/french,female,0,0.0,63.46196139,0.87194913
645e67cbcb96413bba593c53,60,1,2024-02-26T10:12:06.570Z,english_977.wav,0,pill,325,66,5,3,English/french,female,1,0.1,-23.64022125,1.67919547
645e67cbcb96413bba593c53,60,1,2024-02-26T10:12:06.570Z,english_977.wav,0,pill,325,66,5,3,English/french,female,2,0.2,31.65242203,0.97011806
645e67cbcb96413bba593c53,60,1,2024-02-26T10:12:06.570Z,english_977.wav,0,pill,325,66,5,3,English/french,female,3,0.3,16.19881364,1.40431802
645e67cbcb96413bba593c53,60,1,2024-02-26T10:12:06.570Z,english_977.wav,0,pill,325,66,5,3,English/french,female,4,0.32341667,-33.08554183,1.02563167
645e67cbcb96413bba593c53,61,1,2024-02-26T10:12:06.570Z,english_563.wav,0,pill,1273,66,5,3,English/french,female,0,0.0,19.758909,0.0609285
645e67cbcb96413bba593c53,61,1,2024-02-26T10:12:06.570Z,english_563.wav,0,pill,1273,66,5,3,English/french,female,1,0.1,33.70416131,1.63852294
645e67cbcb96413bba593c53,61,1,2024-02-26T10:12:06.570Z,english_563.wav,0,pill,1273,66,5,3,English/french,female,2,0.2,-28.26228599,0.53834051
645e67cbcb96413bba593c53,61,1,2024-02-26T10:12:06.570Z,english_563.wav,0,pill,1273,66,5,3,English/french,female,3,0.3,77.25360299,0.54558093
645e67cbcb96413bba593c53,61,1,2024-02-26T10:12:06.570Z,english_563.wav,0,pill,1273,66,5,3,English/french,female,4,0.32341667,-40.65982077,0.29994173
645e67cbcb96413bba593c53,62,1,2024-02-26T10:12:06.570Z,english_465.wav,0,pill,620,66,5,3,English/french,female,0,0.0,40.04056426,1.33778995
645e67cbcb96413bba593c53,62,1,2024-02-26T10:12:06.570Z,english_465.wav,0,pill,620,66,5,3,English/french,female,1,0.1,-97.28817369,0.1899685
645e67cbcb96413bba593c53,62,1,2024-02-26T10:12:06.570Z,english_465.wav,0,pill,620,66,5,3,English/french,female,2,0.2,-58.72937184,1.35609136
645e67cbcb96413bba593c53,62,1,2024-02-26T10:12:06.570Z,english_465.wav,0,pill,620,66,5,3,English/french,female,3,0.3,82.2448524,1.94032164
645e67cbcb96413bba593c53,62,1,2024-02-26T10:12:06.570Z,english_465.wav,0,pill,620,66,5,3,English/french,female,4,0.32341667,-29.20233879,0.27858753
645e67cbcb96413bba593c53,63,1,2024-02-26T10:12:06.570Z,english_518.wav,0,pill,286,66,5,3,English/french,female,0,0.0,52.37511869,0.23824141
645e67cbcb96413bba593c53,63,1,2024-02-26T10:12:06.570Z,english_518.wav,0,pill,286,66,5,3,English/french,female,1,0.1,-33.3490586,0.80559068
645e67cbcb96413bba593c53,63,1,2024-02-26T10:12:06.570Z,english_518.wav,0,pill,286,66,5,3,English/french,female,2,0.2,-71.20035434,1.24725456
645e67cbcb96413bba593c53,63,1,2024-02-26T10:12:06.570Z,english_518.wav,0,pill,286,66,5,3,English/french,female,3,0.3,6.23243823,1.01334401
645e67cbcb96413bba593c53,63,1,2024-02-26T10:12:06.570Z,english_518.wav,0,pill,286,66,5,3,English/french,female,4,0.32341667,-29.48660546,1.51264586
645e67cbcb96413bba593c53,64,1,2024-02-26T10:12:06.570Z,english_126.wav,0,pill,386,66,5,3,English/french,female,0,0.0,-71.89060105,0.84485729
645e67cbcb96413bba593c53,64,1,2024-02-26T10:12:06.570Z,english_126.wav,0,pill,386,66,5,3,English/french,female,1,0.1,-54.28004149,1.61340521
645e67cbcb96413bba593c53,64,1,2024-02-26T10:12:06.570Z,english_126.wav,0,pill,386,66,5,3,English/french,female,2,0.2,67.0997098,1.10892805
645e67cbcb96413bba593c53,64,1,2024-02-26T10:12:06.570Z,english_126.wav,0,pill,386,66,5,3,English/french,female,3,0.3,-96.31741745,1.20133652
645e67cbcb96413bba593c53,64,1,2024-02-26T10:12:06.570Z,english_126.wav,0,pill,386,66,5,3,English/french,female,4,0.32341667,22.67293764,0.33470898
645e67cbcb96413bba593c53,65,1,2024-02-26T10:12:06.570Z,english_131.wav,0,pill,311,66,5,3,English/french,female,0,0.0,-90.65248477,1.67513221
645e67cbcb96413bba593c53,65,1,2024-02-26T10:12:06.570Z,english_131.wav,0,pill,311,66,5,3,English/french,female,1,0.1,7.0988446,1.62916956
645e67cbcb96413bba593c53,65,1,2024-02-26T10:12:06.570Z,english_131.wav,0,pill,311,66,5,3,English/french,female,2,0.2,-30.94637352,1.4017665
645e67cbcb96413bba593c53,65,1,2024-02-26T10:12:06.570Z,english_131.wav,0,pill,311,66,5,3,English/french,female,3,0.3,-31.86179524,1.07276153
645e67cbcb96413bba593c53,65,1,2024-02-26T10:12:06.570Z,english_131.wav,0,pill,311,66,5,3,English/french,female,4,0.32341667,1.85809033,1.80109071
645e67cbcb96413bba593c53,66,1,2024-02-26T10:12:06.570Z,english_981.wav,0,pill,787,66,5,3,English/french,female,0,0.0,-19.49446297,1.96452006
645e67cbcb96413bba593c53,66,1,2024-02-26T10:12:06.570Z,english_981.wav,0,pill,787,66,5,3,English/french,female,1,0.1,-69.0386812,1.2006287
645e67cbcb96413bba593c53,66,1,2024-02-26T10:12:06.570Z,english_981.wav,0,pill,787,66,5,3,English/french,female,2,0.2,-25.77088537,0.98600753
645e67cbcb96413bba593c53,66,1,2024-02-26T10:12:06.570Z,english_981.wav,0,pill,787,66,5,3,English/french,female,3,0.3,65.67633712,0.21362544
645e67cbcb96413bba593c53,66,1,2024-02-26T10:12:06.570Z,english_981.wav,0,pill,787,66,5,3,English/french,female,4,0.32341667,-6.1640169,0.33780549
645e67cbcb96413bba593c53,67,1,2024-02-26T10:12:06.570Z,english_347.wav,0,pill,1052,66,5,3,English/french,female,0,0.0,34.89178431,1.32203506
645e67cbcb96413bba593c53,67,1,2024-02-26T10:12:06.570Z,english_347.wav,0,pill,1052,66,5,3,English/french,female,1,0.1,53.24978685,0.28714436
645e67cbcb96413bba593c53,67,1,2024-02-26T10:12:06.570Z,english_347.wav,0,pill,1052,66,5,3,English/french,female,2,0.2,4.11185022,1.66093526
645e67cbcb96413bba593c53,67,1,2024-02-26T10:12:06.570Z,english_347.wav,0,pill,1052,66,5,3,English/french,female,3,0.3,89.26663646,1.29826057
645e67cbcb96413bba593c53,67,1,2024-02-26T10:12:06.570Z,english_347.wav,0,pill,1052,66,5,3,English/french,female,4,0.32341667,-53.02646266,0.05504814
645e67cbcb96413bba593c53,68,1,2024-02-26T10:12:06.570Z,english_938.wav,0,peel,578,66,5,3,English/french,female,0,0.0,55.68553541,1.13527087
645e67cbcb96413bba593c53,68,1,2024-02-26T10:12:06.570Z,english_938.wav,0,peel,578,66,5,3,English/french,female,1,0.1,19.57508628,0.57526943
645e67cbcb96413bba593c53,68,1,2024-02-26T10:12:06.570Z,english_938.wav,0,peel,578,66,5,3,English/french,female,2,0.2,99.59707332,0.71873046
645e67cbcb96413bba593c53,68,1,2024-02-26T10:12:06.570Z,english_938.wav,0,peel,578,66,5,3,English/french,female,3,0.3,-43.3789335,0.88566698
645e67cbcb96413bba593c53,68,1,2024-02-26T10:12:06.570Z,english_938.wav,0,peel,578,66,5,3,English/french,female,4,0.32341667,90.00594125,0.39461425
645e67cbcb96413bba593c53,69,1,2024-02-26T10:12:06.570Z,english_185.wav,0,peel,706,66,5,3,English/french,female,0,0.0,-67.20213277,0.62417316
645e67cbcb96413bba593c53,69,1,2024-02-26T10:12:06.570Z,english_185.wav,0,peel,706,66,5,3,English/french,female,1,0.1,-70.91279736,1.12829576
645e67cbcb96413bba593c53,69,1,2024-02-26T10:12:06.570Z,english_185.wav,0,peel,706,66,5,3,English/french,female,2,0.2,11.55913655,0.70978518
645e67cbcb96413bba593c53,69,1,2024-02-26T10:12:06.570Z,english_185.wav,0,peel,706,66,5,3,English/french,female,3,0.3,-88.76292025,0.02882377
645e67cbcb96413bba593c53,69,1,2024-02-26T10:12:06.570Z,english_185.wav,0,peel,706,66,5,3,English/french,female,4,0.32341667,-25.67800099,0.52970381
645e67cbcb96413bba593c53,70,1,2024-02-26T10:12:06.570Z,english_661.wav,0,pill,634,66,5,3,English/french,female,0,0.0,14.15805194,1.06290545
645e67cbcb96413bba593c53,70,1,2024-02-26T10:12:06.570Z,english_661.wav,0,pill,634,66,5,3,English/french,female,1,0.1,-77.97020538,1.12952287
645e67cbcb96413bba593c53,70,1,2024-02-26T10:12:06.570Z,english_661.wav,0,pill,634,66,5,3,English/french,female,2,0.2,-31.78835068,1.47556517
645e67cbcb96413bba593c53,70,1,2024-02-26T10:12:06.570Z,english_661.wav,0,pill,634,66,5,3,English/french,female,3,0.3,1.84085651,0.41137052
645e67cbcb96413bba593c53,70,1,2024-02-26T10:12:06.570Z,english_661.wav,0,pill,634,66,5,3,English/french,female,4,0.32341667,31.49677972,1.48872703
645e67cbcb96413bba593c53,71,1,2024-02-26T10:12:06.570Z,english_581.wav,0,peel,2463,66,5,3,English/french,female,0,0.0,-4.1565262,0.01704603
645e67cbcb96413bba593c53,71,1,2024-02-26T10:12:06.570Z,english_581.wav,0,peel,2463,66,5,3,English/french,female,1,0.1,84.55344465,1.32903406
645e67cbcb96413bba593c53,71,1,2024-02-26T10:12:06.570Z,english_581.wav,0,peel,2463,66,5,3,English/french,female,2,0.2,-57.45750027,1.58046526
645e67cbcb96413bba593c53,71,1,2024-02-26T10:12:06.570Z,english_581.wav,0,peel,2463,66,5,3,English/french,female,3,0.3,-14.35569009,1.16633299
645e67cbcb96413bba593c53,71,1,2024-02-26T10:12:06.570Z,english_581.wav,0,peel,2463,66,5,3,English/french,female,4,0.32341667,-54.33758456,1.20758605
645e67cbcb96413bba593c53,72,1,2024-02-26T10:12:06.570Z,english_390.wav,0,pill,666,66,5,3,English/french,female,0,0.0,-50.40750922,1.41643644
645e67cbcb96413bba593c53,72,1,2024-02-26T10:12:06.570Z,english_390.wav,0,pill,666,66,5,3,English/french,female,1,0.1,-38.67641955,0.84399933
645e67cbcb96413bba593c53,72,1,2024-02-26T10:12:06.570Z,english_390.wav,0,pill,666,66,5,3,English/french,female,2,0.2,-37.03459725,1.67796426
645e67cbcb96413bba593c53,72,1,2024-02-26T10:12:06.570Z,english_390.wav,0,pill,666,66,5,3,English/french,female,3,0.3,-24.07335547,0.43781117
645e67cbcb96413bba593c53,72,1,2024-02-26T10:12:06.570Z,english_390.wav,0,pill,666,66,5,3,English/french,female,4,0.32341667,75.09366884,0.01225463
645e67cbcb96413bba593c53,73,1,2024-02-26T10:12:06.570Z,english_814.wav,0,pill,469,66,5,3,English/french,female,0,0.0,-63.32480856,1.93717082
645e67cbcb96413bba593c53,73,1,2024-02-26T10:12:06.570Z,english_814.wav,0,pill,469,66,5,3,English/french,female,1,0.1,34.42157774,0.66627456
645e67cbcb96413bba593c53,73,1,2024-02-26T10:12:06.570Z,english_814.wav,0,pill,469,66,5,3,English/french,female,2,0.2,-1.27362148,1.33718687
645e67cbcb96413bba593c53,73,1,2024-02-26T10:12:06.570Z,english_814.wav,0,pill,469,66,5,3,English/french,female,3,0.3,11.18388565,1.12749716
645e67cbcb96413bba593c53,73,1,2024-02-26T10:12:06.570Z,english_814.wav,0,pill,469,66,5,3,English/french,female,4,0.32341667,-9.56708644,0.66623879
645e67cbcb96413bba593c53,74,1,2024-02-26T10:12:06.570Z,english_212.wav,0,pill,434,66,5,3,English/french,female,0,0.0,-8.03708838,0.69940518
645e67cbcb96413bba593c53,74,1,2024-02-26T10:12:06.570Z,english_212.wav,0,pill,434,66,5,3,English/french,female,1,0.1,72.60121642,1.0039509
645e67cbcb96413bba593c53,74,1,2024-02-26T10:12:06.570Z,english_212.wav,0,pill,434,66,5,3,English/french,female,2,0.2,-98.76374397,1.17731185
645e67cbcb96413bba593c53,74,1,2024-02-26T10:12:06.570Z,english_212.wav,0,pill,434,66,5,3,English/french,female,3,0.3,31.47742107,0.88066499
645e67cbcb96413bba593c53,74,1,2024-02-26T10:12:06.570Z,english_212.wav,0,pill,434,66,5,3,English/french,female,4,0.32341667,53.59344022,0.33624016
645e67cbcb96413bba593c53,75,1,2024-02-26T10:12:06.570Z,english_627.wav,0,peel,490,66,5,3,English/french,female,0,0.0,-53.99355102,0.04887222
645e67cbcb96413bba593c53,75,1,2024-02-26T10:12:06.570Z,english_627.wav,0,peel,490,66,5,3,English/french,female,1,0.1,-3.03417463,0.14119608
645e67cbcb96413bba593c53,75,1,2024-02-26T10:12:06.570Z,english_627.wav,0,peel,490,66,5,3,English/french,female,2,0.2,83.9257281,0.97350107
645e67cbcb96413bba593c53,75,1,2024-02-26T10:12:06.570Z,english_627.wav,0,peel,490,66,5,3,English/french,female,3,0.3,52.52073868,0.6697358
645e67cbcb96413bba593c53,75,1,2024-02-26T10:12:06.570Z,english_627.wav,0,peel,490,66,5,3,English/french,female,4,0.32341667,-13.85481025,0.92660526
645e67cbcb96413bba593c53,76,1,2024-02-26T10:12:06.570Z,english_75.wav,0,pill,375,66,5,3,English/french,female,0,0.0,-9.18091647,0.92930856
645e67cbcb96413bba593c53,76,1,2024-02-26T10:12:06.570Z,english_75.wav,0,pill,375,66,5,3,English/french,female,1,0.1,-62.02164907,1.94000482
645e67cbcb96413bba593c53,76,1,2024-02-26T10:12:06.570Z,english_75.wav,0,pill,375,66,5,3,English/french,female,2,0.2,-12.90623207,1.2183621
645e67cbcb96413bba593c53,76,1,2024-02-26T10:12:06.570Z,english_75.wav,0,pill,375,66,5,3,English/french,female,3,0.3,15.17089036,0.47349695
645e67cbcb96413bba593c53,76,1,2024-02-26T10:12:06.570Z,english_75.wav,0,pill,375,66,5,3,English/french,female,4,0.32341667,10.89352922,1.02561006
645e67cbcb96413bba593c53,77,1,2024-02-26T10:12:06.570Z,english_850.wav,0,pill,667,66,5,3,English/french,female,0,0.0,79.79173837,1.46721922
645e67cbcb96413bba593c53,77,1,2024-02-26T10:12:06.570Z,english_850.wav,0,pill,667,66,5,3,English/french,female,1,0.1,-44.24877139,0.57242606
645e67cbcb96413bba593c53,77,1,2024-02-26T10:12:06.570Z,english_850.wav,0,pill,667,66,5,3,English/french,female,2,0.2,74.77623955,0.15597525
645e67cbcb96413bba593c53,77,1,2024-02-26T10:12:06.570Z,english_850.wav,0,pill,667,66,5,3,English/french,female,3,0.3,-86.32612653,1.3358867
645e67cbcb96413bba593c53,77,1,2024-02-26T10:12:06.570Z,english_850.wav,0,pill,667,66,5,3,English/french,female,4,0.32341667,-11.10230867,1.14618682
645e67cbcb96413bba593c53,78,1,2024-02-26T10:12:06.570Z,english_418.wav,0,peel,1012,66,5,3,English/french,female,0,0.0,-7.92859899,0.20369216
645e67cbcb96413bba593c53,78,1,2024-02-26T10:12:06.570Z,english_418.wav,0,peel,1012,66,5,3,English/french,female,1,0.1,10.19863107,0.15242613
645e67cbcb96413bba593c53,78,1,2024-02-26T10:12:06.570Z,english_418.wav,0,peel,1012,66,5,3,English/french,female,2,0.2,-44.82770696,0.77695319
645e67cbcb96413bba593c53,78,1,2024-02-26T10:12:06.570Z,english_418.wav,0,peel,1012,66,5,3,English/french,female,3,0.3,-80.4141896,0.71786342
645e67cbcb96413bba593c53,78,1,2024-02-26T10:12:06.570Z,english_418.wav,0,peel,1012,66,5,3,English/french,female,4,0.32341667,32.43674468,1.20494416
645e67cbcb96413bba593c53,79,1,2024-02-26T10:12:06.570Z,english_884.wav,0,pill,412,66,5,3,English/french,female,0,0.0,77.1498115,1.83268558
645e67cbcb96413bba593c53,79,1,2024-02-26T10:12:06.570Z,english_884.wav,0,pill,412,66,5,3,English/french,female,1,0.1,10.32602389,0.76817862
645e67cbcb96413bba593c53,79,1,2024-02-26T10:12:06.570Z,english_884.wav,0,pill,412,66,5,3,English/french,female,2,0.2,4.15464736,1.59331573
645e67cbcb96413bba593c53,79,1,2024-02-26T10:12:06.570Z,english_884.wav,0,pill,412,66,5,3,English/french,female,3,0.3,21.19252889,0.58913169
645e67cbcb96413bba593c53,79,1,2024-02-26T10:12:06.570Z,english_884.wav,0,pill,412,66,5,3,English/french,female,4,0.32341667,-7.11336122,0.81393531
645e67cbcb96413bba593c53,80,1,2024-02-26T10:12:06.570Z,english_1.wav,0,pill,1396,66,5,3,English/french,female,0,0.0,53.99031816,1.91732561
645e67cbcb96413bba593c53,80,1,2024-02-26T10:12:06.570Z,english_1.wav,0,pill,1396,66,5,3,English/french,female,1,0.1,-58.32145174,0.75352701
645e67cbcb96413bba593c53,80,1,2024-02-26T10:12:06.570Z,english_1.wav,0,pill,1396,66,5,3,English/french,female,2,0.2,-86.75659624,1.40297919
645e67cbcb96413bba593c53,80,1,2024-02-26T10:12:06.570Z,english_1.wav,0,pill,1396,66,5,3,English/french,female,3,0.3,-31.84945767,0.12157709
645e67cbcb96413bba593c53,80,1,2024-02-26T10:12:06.570Z,english_1.wav,0,pill,1396,66,5,3,English/french,female,4,0.32341667,-59.21997754,1.57687546
645e67cbcb96413bba593c53,81,1,2024-02-26T10:12:06.570Z,english_367.wav,0,pill,430,66,5,3,English/french,female,0,0.0,69.68935346,1.12532443
645e67cbcb96413bba593c53,81,1,2024-02-26T10:12:06.570Z,english_367.wav,0,pill,430,66,5,3,English/french,female,1,0.1,-21.84293244,1.15903886
645e67cbcb96413bba593c53,81,1,2024-02-26T10:12:06.570Z,english_367.wav,0,pill,430,66,5,3,English/french,female,2,0.2,-22.40126322,1.68834661
645e67cbcb96413bba593c53,81,1,2024-02-26T10:12:06.570Z,english_367.wav,0,pill,430,66,5,3,English/french,female,3,0.3,-77.83415675,1.78966274
645e67cbcb96413bba593c53,81,1,2024-02-26T10:12:06.570Z,english_367.wav,0,pill,430,66,5,3,English/french,female,4,0.32341667,18.42522507,1.57311162
645e67cbcb96413bba593c53,82,1,2024-02-26T10:12:06.570Z,english_880.wav,0,pill,2878,66,5,3,English/french,female,0,0.0,3.17154152,0.81183988
645e67cbcb96413bba593c53,82,1,2024-02-26T10:12:06.570Z,english_880.wav,0,pill,2878,66,5,3,English/french,female,1,0.1,-74.02271749,1.44061269
645e67cbcb96413bba593c53,82,1,2024-02-26T10:12:06.570Z,english_880.wav,0,pill,2878,66,5,3,English/french,female,2,0.2,46.15952764,0.42884863
645e67cbcb96413bba593c53,82,1,2024-02-26T10:12:06.570Z,english_880.wav,0,pill,2878,66,5,3,English/french,female,3,0.3,4.14106927,1.93838261
645e67cbcb96413bba593c53,82,1,2024-02-26T10:12:06.570Z,english_880.wav,0,pill,2878,66,5,3,English/french,female,4,0.32341667,26.36707366,1.4503687
645e67cbcb96413bba593c53,83,1,2024-02-26T10:12:06.570Z,english_876.wav,0,pill,1647,66,5,3,English/french,female,0,0.0,-20.36884991,0.97958319
645e67cbcb96413bba593c53,83,1,2024-02-26T10:12:06.570Z,english_876.wav,0,pill,1647,66,5,3,English/french,female,1,0.1,-12.16725052,0.93484439
645e67cbcb96413bba593c53,83,1,2024-02-26T10:12:06.570Z,english_876.wav,0,pill,1647,66,5,3,English/french,female,2,0.2,-26.42868614,0.43422731
645e67cbcb96413bba593c53,83,1,2024-02-26T10:12:06.570Z,english_876.wav,0,pill,1647,66,5,3,English/french,female,3,0.3,-15.16942384,0.12359811
645e67cbcb96413bba593c53,83,1,2024-02-26T10:12:06.570Z,english_876.wav,0,pill,1647,66,5,3,English/french,female,4,0.32341667,-52.65446315,1.31629037
645e67cbcb96413bba593c53,84,1,2024-02-26T10:12:06.570Z,english_544.wav,0,pill,746,66,5,3,English/french,female,0,0.0,96.80704334,1.85115917
645e67cbcb96413bba593c53,84,1,2024-02-26T10:12:06.570Z,english_544.wav,0,pill,746,66,5,3,English/french,female,1,0.1,70.5198752,0.8718407
645e67cbcb96413bba593c53,84,1,2024-02-26T10:12:06.570Z,english_544.wav,0,pill,746,66,5,3,English/french,female,2,0.2,78.21609099,1.82238935
645e67cbcb96413bba593c53,84,1,2024-02-26T10:12:06.570Z,english_544.wav,0,pill,746,66,5,3,English/french,female,3,0.3,-95.7752672,0.25719172
645e67cbcb96413bba593c53,84,1,2024-02-26T10:12:06.570Z,english_544.wav,0,pill,746,66,5,3,English/french,female,4,0.32341667,-56.58918052,0.72929157
645e67cbcb96413bba593c53,85,1,2024-02-26T10:12:06.570Z,english_601.wav,0,pill,363,66,5,3,English/french,female,0,0.0,54.32401431,0.08668951
645e67cbcb96413bba593c53,85,1,2024-02-26T10:12:06.570Z,english_601.wav,0,pill,363,66,5,3,English/french,female,1,0.1,-6.72935942,1.16468766
645e67cbcb96413bba593c53,85,1,2024-02-26T10:12:06.570Z,english_601.wav,0,pill,363,66,5,3,English/french,female,2,0.2,39.12079493,1.8612572
645e67cbcb96413bba593c53,85,1,2024-02-26T10:12:06.570Z,english_601.wav,0,pill,363,66,5,3,English/french,female,3,0.3,39.92141387,0.92171433
645e67cbcb96413bba593c53,85,1,2024-02-26T10:12:06.570Z,english_601.wav,0,pill,363,66,5,3,English/french,female,4,0.32341667,-27.14681087,0.50419734
645e67cbcb96413bba593c53,86,1,2024-02-26T10:12:06.570Z,english_66.wav,0,peel,470,66,5,3,English/french,female,0,0.0,16.07147303,1.75051971
645e67cbcb96413bba593c53,86,1,2024-02-26T10:12:06.570Z,english_66.wav,0,peel,470,66,5,3,English/french,female,1,0.1,50.76577123,0.02971233
645e67cbcb96413bba593c53,86,1,2024-02-26T10:12:06.570Z,english_66.wav,0,peel,470,66,5,3,English/french,female,2,0.2,-29.1595681,0.63583886
645e67cbcb96413bba593c53,86,1,2024-02-26T10:12:06.570Z,english_66.wav,0,peel,470,66,5,3,English/french,female,3,0.3,-80.89120138,1.46734397
645e67cbcb96413bba593c53,86,1,2024-02-26T10:12:06.570Z,english_66.wav,0,peel,470,66,5,3,English/french,female,4,0.32341667,-8.46229461,1.61280944
645e67cbcb96413bba593c53,87,1,2024-02-26T10:12:06.570Z,english_378.wav,0,pill,1431,66,5,3,English/french,female,0,0.0,13.37832971,0.65677047
645e67cbcb96413bba593c53,87,1,2024-02-26T10:12:06.570Z,english_378.wav,0,pill,1431,66,5,3,English/french,female,1,0.1,17.37931074,1.74134092
645e67cbcb96413bba593c53,87,1,2024-02-26T10:12:06.570Z,english_378.wav,0,pill,1431,66,5,3,English/french,female,2,0.2,10.9554113,0.67897054
645e67cbcb96413bba593c53,87,1,2024-02-26T10:12:06.570Z,english_378.wav,0,pill,1431,66,5,3,English/french,female,3,0.3,-24.86891171,1.20159635
645e67cbcb96413bba593c53,87,1,2024-02-26T10:12:06.570Z,english_378.wav,0,pill,1431,66,5,3,English/french,female,4,0.32341667,7.89965194,0.27053006
645e67cbcb96413bba593c53,88,1,2024-02-26T10:12:06.570Z,english_582.wav,0,pill,508,66,5,3,English/french,female,0,0.0,-29.81423477,0.27230029
645e67cbcb96413bba593c53,88,1,2024-02-26T10:12:06.570Z,english_582.wav,0,pill,508,66,5,3,English/french,female,1,0.1,37.42565533,0.84765039
645e67cbcb96413bba593c53,88,1,2024-02-26T10:12:06.570Z,english_582.wav,0,pill,508,66,5,3,English/french,female,2,0.2,79.58894888,1.99526631
645e67cbcb96413bba593c53,88,1,2024-02-26T10:12:06.570Z,english_582.wav,0,pill,508,66,5,3,English/french,female,3,0.3,49.55779855,1.55519667
645e67cbcb96413bba593c53,88,1,2024-02-26T10:12:06.570Z,english_582.wav,0,pill,508,66,5,3,English/french,female,4,0.32341667,54.00509918,1.66653349
645e67cbcb96413bba593c53,89,1,2024-02-26T10:12:06.570Z,english_943.wav,0,peel,497,66,5,3,English/french,female,0,0.0,-88.39234314,0.07745413
645e67cbcb96413bba593c53,89,1,2024-02-26T10:12:06.570Z,english_943.wav,0,peel,497,66,5,3,English/french,female,1,0.1,65.27529367,1.64078214
645e67cbcb96413bba593c53,89,1,2024-02-26T10:12:06.570Z,english_943.wav,0,peel,497,66,5,3,English/french,female,2,0.2,-24.85222093,0.23468741
645e67cbcb96413bba593c53,89,1,2024-02-26T10:12:06.570Z,english_943.wav,0,peel,497,66,5,3,English/french,female,3,0.3,20.61002448,1.49561498
645e67cbcb96413bba593c53,89,1,2024-02-26T10:12:06.570Z,english_943.wav,0,peel,497,66,5,3,English/french,female,4,0.32341667,-74.64601709,1.25217021
645e67cbcb96413bba593c53,90,1,2024-02-26T10:12:06.570Z,english_210.wav,0,peel,540,66,5,3,English/french,female,0,0.0,43.03172008,0.27268056
645e67cbcb96413bba593c53,90,1,2024-02-26T10:12:06.570Z,english_210.wav,0,peel,540,66,5,3,English/french,female,1,0.1,58.48529179,0.59270989
645e67cbcb96413bba593c53,90,1,2024-02-26T10:12:06.570Z,english_210.wav,0,peel,540,66,5,3,English/french,female,2,0.2,57.29337371,1.57355776
645e67cbcb96413bba593c53,90,1,2024-02-26T10:12:06.570Z,english_210.wav,0,peel,540,66,5,3,English/french,female,3,0.3,-45.34642936,1.97663548
645e67cbcb96413bba593c53,90,1,2024-02-26T10:12:06.570Z,english_210.wav,0,peel,540,66,5,3,English/french,female,4,0.32341667,-3.49486879,1.39997912
645e67cbcb96413bba593c53,91,1,2024-02-26T10:12:06.570Z,english_196.wav,0,pill,212,66,5,3,English/french,female,0,0.0,-86.38202104,1.63362226
645e67cbcb96413bba593c53,91,1,2024-02-26T10:12:06.570Z,english_196.wav,0,pill,212,66,5,3,English/french,female,1,0.1,0.95731439,1.36148231
645e67cbcb96413bba593c53,91,1,2024-02-26T10:12:06.570Z,english_196.wav,0,pill,212,66,5,3,English/french,female,2,0.2,-48.4797064,0.68683683
645e67cbcb96413bba593c53,91,1,2024-02-26T10:12:06.570Z,english_196.wav,0,pill,212,66,5,3,English/french,female,3,0.3,50.57477866,1.59869277
645e67cbcb96413bba593c53,91,1,2024-02-26T10:12:06.570Z,english_196.wav,0,pill,212,66,5,3,English/french,female,4,0.32341667,-52.07184875,0.40963154
645e67cbcb96413bba593c53,92,1,2024-02-26T10:12:06.570Z,english_940.wav,0,pill,2053,66,5,3,English/french,female,0,0.0,47.11462569,0.32214594
645e67cbcb96413bba593c53,92,1,2024-02-26T10:12:06.570Z,english_940.wav,0,pill,2053,66,5,3,English/french,female,1,0.1,11.81885745,0.21999868
645e67cbcb96413bba593c53,92,1,2024-02-26T10:12:06.570Z,english_940.wav,0,pill,2053,66,5,3,English/french,female,2,0.2,-1.49931669,0.34357292
645e67cbcb96413bba593c53,92,1,2024-02-26T10:12:06.570Z,english_940.wav,0,pill,2053,66,5,3,English/french,female,3,0.3,45.92466934,1.61274527
645e67cbcb96413bba593c53,92,1,2024-02-26T10:12:06.570Z,english_940.wav,0,pill,2053,66,5,3,English/french,female,4,0.32341667,-72.78738407,0.9185628
645e67cbcb96413bba593c53,93,1,2024-02-26T10:12:06.570Z,english_839.wav,0,pill,710,66,5,3,English/french,female,0,0.0,48.1700809,1.1821708
645e67cbcb96413bba593c53,93,1,2024-02-26T10:12:06.570Z,english_839.wav,0,pill,710,66,5,3,English/french,female,1,0.1,-8.22030768,1.15480022
645e67cbcb96413bba593c53,93,1,2024-02-26T10:12:06.570Z,english_839.wav,0,pill,710,66,5,3,English/french,female,2,0.2,53.56121636,1.57293091
645e67cbcb96413bba593c53,93,1,2024-02-26T10:12:06.570Z,english_839.wav,0,pill,710,66,5,3,English/french,female,3,0.3,4.54416263,0.22310878
645e67cbcb96413bba593c53,93,1,2024-02-26T10:12:06.570Z,english_839.wav,0,pill,710,66,5,3,English/french,female,4,0.32341667,-19.83463627,0.67140257
645e67cbcb96413bba593c53,94,1,2024-02-26T10:12:06.570Z,english_28.wav,0,peel,1376,66,5,3,English/french,female,0,0.0,46.68805065,0.37315412
645e67cbcb96413bba593c53,94,1,2024-02-26T10:12:06.570Z,english_28.wav,0,peel,1376,66,5,3,English/french,female,1,0.1,-19.91180265,0.08560602
645e67cbcb96413bba593c53,94,1,2024-02-26T10:12:06.570Z,english_28.wav,0,peel,1376,66,5,3,English/french,female,2,0.2,30.74929008,0.67724734
645e67cbcb96413bba593c53,94,1,2024-02-26T10:12:06.570Z,english_28.wav,0,peel,1376,66,5,3,English/french,female,3,0.3,14.01537548,0.53332652
645e67cbcb96413bba593c53,94,1,2024-02-26T10:12:06.570Z,english_28.wav,0,peel,1376,66,5,3,English/french,female,4,0.32341667,-32.95915121,1.33480721
645e67cbcb96413bba593c53,95,1,2024-02-26T10:12:06.570Z,english_915.wav,0,pill,644,66,5,3,English/french,female,0,0.0,40.39704719,0.11203387
645e67cbcb96413bba593c53,95,1,2024-02-26T10:12:06.570Z,english_915.wav,0,pill,644,66,5,3,English/french,female,1,0.1,-77.86782689,0.449249
645e67cbcb96413bba593c53,95,1,2024-02-26T10:12:06.570Z,english_915.wav,0,pill,644,66,5,3,English/french,female,2,0.2,21.84672988,0.02407483
645e67cbcb96413bba593c53,95,1,2024-02-26T10:12:06.570Z,english_915.wav,0,pill,644,66,5,3,English/french,female,3,0.3,-56.0972156,1.6502756
645e67cbcb96413bba593c53,95,1,2024-02-26T10:12:06.570Z,english_915.wav,0,pill,644,66,5,3,English/french,female,4,0.32341667,65.00594456,0.65362707
645e67cbcb96413bba593c53,96,1,2024-02-26T10:12:06.570Z,english_350.wav,0,pill,1512,66,5,3,English/french,female,0,0.0,97.64268741,0.61487918
645e67cbcb96413bba593c53,96,1,2024-02-26T10:12:06.570Z,english_350.wav,0,pill,1512,66,5,3,English/french,female,1,0.1,23.96704837,0.40988424
645e67cbcb96413bba593c53,96,1,2024-02-26T10:12:06.570Z,english_350.wav,0,pill,1512,66,5,3,English/french,female,2,0.2,50.30792237,0.86872158
645e67cbcb96413bba593c53,96,1,2024-02-26T10:12:06.570Z,english_350.wav,0,pill,1512,66,5,3,English/french,female,3,0.3,71.77937185,1.01783109
645e67cbcb96413bba593c53,96,1,2024-02-26T10:12:06.570Z,english_350.wav,0,pill,1512,66,5,3,English/french,female,4,0.32341667,-64.81416361,0.68761283
645e67cbcb96413bba593c53,97,1,2024-02-26T10:12:06.570Z,english_856.wav,0,peel,346,66,5,3,English/french,female,0,0.0,-44.08940674,1.51880133
645e67cbcb96413bba593c53,97,1,2024-02-26T10:12:06.570Z,english_856.wav,0,peel,346,66,5,3,English/french,female,1,0.1,-25.77644107,0.99524475
645e67cbcb96413bba593c53,97,1,2024-02-26T10:12:06.570Z,english_856.wav,0,peel,346,66,5,3,English/french,female,2,0.2,6.39263247,1.11391415
645e67cbcb96413bba593c53,97,1,2024-02-26T10:12:06.570Z,english_856.wav,0,peel,346,66,5,3,English/french,female,3,0.3,92.67536145,0.95575529
645e67cbcb96413bba593c53,97,1,2024-02-26T10:12:06.570Z,english_856.wav,0,peel,346,66,5,3,English/french,female,4,0.32341667,45.15991817,1.02944292
645e67cbcb96413bba593c53,98,1,2024-02-26T10:12:06.570Z,english_520.wav,0,peel,503,66,5,3,English/french,female,0,0.0,86.3711843,1.94117834
645e67cbcb96413bba593c53,98,1,2024-02-26T10:12:06.570Z,english_520.wav,0,peel,503,66,5,3,English/french,female,1,0.1,30.73905166,1.71866566
645e67cbcb96413bba593c53,98,1,2024-02-26T10:12:06.570Z,english_520.wav,0,peel,503,66,5,3,English/french,female,2,0.2,6.06230503,1.15295637
645e67cbcb96413bba593c53,98,1,2024-02-26T10:12:06.570Z,english_520.wav,0,peel,503,66,5,3,English/french,female,3,0.3,-72.93527416,0.80072648
645e67cbcb96413bba593c53,98,1,2024-02-26T10:12:06.570Z,english_520.wav,0,peel,503,66,5,3,English/french,female,4,0.32341667,40.17700679,1.71054199
645e67cbcb96413bba593c53,99,1,2024-02-26T10:12:06.570Z,english_935.wav,0,peel,411,66,5,3,English/french,female,0,0.0,64.39543101,0.53440609
645e67cbcb96413bba593c53,99,1,2024-02-26T10:12:06.570Z,english_935.wav,0,peel,411,66,5,3,English/french,female,1,0.1,86.95314533,0.5847186
645e67cbcb96413bba593c53,99,1,2024-02-26T10:12:06.570Z,english_935.wav,0,peel,411,66,5,3,English/french,female,2,0.2,-18.93400703,0.87093815
645e67cbcb96413bba593c53,99,1,2024-02-26T10:12:06.570Z,english_935.wav,0,peel,411,66,5,3,English/french,female,3,0.3,36.25821345,1.35336039
645e67cbcb96413bba593c53,99,1,2024-02-26T10:12:06.570Z,english_935.wav,0,peel,411,66,5,3,English/french,female,4,0.32341667,-52.75689815,1.46825192
645e67cbcb96413bba593c53,100,2,2024-02-26T10:12:06.570Z,english_280.wav,0,pill,2869,66,5,3,English/french,female,0,0.0,88.60957906,0.0301642
645e67cbcb96413bba593c53,100,2,2024-02-26T10:12:06.570Z,english_280.wav,0,pill,2869,66,5,3,English/french,female,1,0.1,84.68226706,1.61205195
645e67cbcb96413bba593c53,100,2,2024-02-26T10:12:06.570Z,english_280.wav,0,pill,2869,66,5,3,English/french,female,2,0.2,-77.43679957,1.42137195
645e67cbcb96413bba593c53,100,2,2024-02-26T10:12:06.570Z,english_280.wav,0,pill,2869,66,5,3,English/french,female,3,0.3,45.11946934,1.73240953
645e67cbcb96413bba593c53,100,2,2024-02-26T10:12:06.570Z,english_280.wav,0,pill,2869,66,5,3,English/french,female,4,0.32341667,-36.96988582,0.09602122
645e67cbcb96413bba593c53,101,2,2024-02-26T10:12:06.570Z,english_494.wav,0,pill,1192,66,5,3,English/french,female,0,0.0,-3.60210196,0.92014098
645e67cbcb96413bba593c53,101,2,2024-02-26T10:12:06.570Z,english_494.wav,0,pill,1192,66,5,3,English/french,female,1,0.1,-0.0120609558,1.08763174
645e67cbcb96413bba593c53,101,2,2024-02-26T10:12:06.570Z,english_494.wav,0,pill,1192,66,5,3,English/french,female,2,0.2,-75.2550513,0.29239621
645e67cbcb96413bba593c53,101,2,2024-02-26T10:12:06.570Z,english_494.wav,0,pill,1192,66,5,3,English/french,female,3,0.3,39.6800445,0.26357805
645e67cbcb96413bba593c53,101,2,2024-02-26T10:12:06.570Z,english_494.wav,0,pill,1192,66,5,3,English/french,female,4,0.323416667,78.1977592,1.67878037
645e67cbcb96413bba593c53,102,2,2024-02-26T10:12:06.570Z,english_680.wav,0,peel,1409,66,5,3,English/french,female,0,0.0,93.24972168,1.89994278
645e67cbcb96413bba593c53,102,2,2024-02-26T10:12:06.570Z,english_680.wav,0,peel,1409,66,5,3,English/french,female,1,0.1,21.55707386,1.06559033
645e67cbcb96413bba593c53,102,2,2024-02-26T10:12:06.570Z,english_680.wav,0,peel,1409,66,5,3,English/french,female,2,0.2,-58.84044748,0.79606997
645e67cbcb96413bba593c53,102,2,2024-02-26T10:12:06.570Z,english_680.wav,0,peel,1409,66,5,3,English/french,female,3,0.3,-13.55367876,0.35899559
645e67cbcb96413bba593c53,102,2,2024-02-26T10:12:06.570Z,english_680.wav,0,peel,1409,66,5,3,English/french,female,4,0.32341667,17.98073729,1.50925573
645e67cbcb96413bba593c53,103,2,2024-02-26T10:12:06.570Z,english_468.wav,0,pill,723,66,5,3,English/french,female,0,0.0,-33.82586043,0.35164089
645e67cbcb96413bba593c53,103,2,2024-02-26T10:12:06.570Z,english_468.wav,0,pill,723,66,5,3,English/french,female,1,0.1,-42.55840131,0.20114733
645e67cbcb96413bba593c53,103,2,2024-02-26T10:12:06.570Z,english_468.wav,0,pill,723,66,5,3,English/french,female,2,0.2,-36.6492295,1.40729654
645e67cbcb96413bba593c53,103,2,2024-02-26T10:12:06.570Z,english_468.wav,0,pill,723,66,5,3,English/french,female,3,0.3,39.91321296,0.04300573
645e67cbcb96413bba593c53,103,2,2024-02-26T10:12:06.570Z,english_468.wav,0,pill,723,66,5,3,English/french,female,4,0.32341667,54.14936319,1.79642733
645e67cbcb96413bba593c53,104,2,2024-02-26T10:12:06.570Z,english_691.wav,0,pill,332,66,5,3,English/french,female,0,0.0,28.79078449,1.07683297
645e67cbcb96413bba593c53,104,2,2024-02-26T10:12:06.570Z,english_691.wav,0,pill,332,66,5,3,English/french,female,1,0.1,99.1184909,1.07376069
645e67cbcb96413bba593c53,104,2,2024-02-26T10:12:06.570Z,english_691.wav,0,pill,332,66,5,3,English/french,female,2,0.2,-54.13985733,0.28522735
645e67cbcb96413bba593c53,104,2,2024-02-26T10:12:06.570Z,english_691.wav,0,pill,332,66,5,3,English/french,female,3,0.3,-85.36319246,0.85701066
645e67cbcb96413bba593c53,104,2,2024-02-26T10:12:06.570Z,english_691.wav,0,pill,332,66,5,3,English/french,female,4,0.32341667,-73.61621094,1.71165398
645e67cbcb96413bba593c53,105,2,2024-02-26T10:12:06.570Z,english_684.wav,0,peel,445,66,5,3,English/french,female,0,0.0,0.36394418,1.65924935
645e67cbcb96413bba593c53,105,2,2024-02-26T10:12:06.570Z,english_684.wav,0,peel,445,66,5,3,English/french,female,1,0.1,28.47964645,1.32149406
645e67cbcb96413bba593c53,105,2,2024-02-26T10:12:06.570Z,english_684.wav,0,peel,445,66,5,3,English/french,female,2,0.2,60.47995017,0.32417562
645e67cbcb96413bba593c53,105,2,2024-02-26T10:12:06.570Z,english_684.wav,0,peel,445,66,5,3,English/french,female,3,0.3,-33.43266819,1.42108385
645e67cbcb96413bba593c53,105,2,2024-02-26T10:12:06.570Z,english_684.wav,0,peel,445,66,5,3,English/french,female,4,0.32341667,-31.86672206,1.29243289
645e67cbcb96413bba593c53,106,2,2024-02-26T10:12:06.570Z,english_611.wav,0,pill,1256,66,5,3,English/french,female,0,0.0,4.04989913,1.48647041
645e67cbcb96413bba593c53,106,2,2024-02-26T10:12:06.570Z,english_611.wav,0,pill,1256,66,5,3,English/french,female,1,0.1,-26.35519993,0.87297853
645e67cbcb96413bba593c53,106,2,2024-02-26T10:12:06.570Z,english_611.wav,0,pill,1256,66,5,3,English/french,female,2,0.2,-41.22744209,0.91907267
645e67cbcb96413bba593c53,106,2,2024-02-26T10:12:06.570Z,english_611.wav,0,pill,1256,66,5,3,English/french,female,3,0.3,-72.41198747,0.12624761
645e67cbcb96413bba593c53,106,2,2024-02-26T10:12:06.570Z,english_611.wav,0,pill,1256,66,5,3,English/french,female,4,0.32341667,-60.09703168,0.964981
645e67cbcb96413bba593c53,107,2,2024-02-26T10:12:06.570Z,english_472.wav,0,pill,409,66,5,3,English/french,female,0,0.0,-33.48324222,1.19367533
645e67cbcb96413bba593c53,107,2,2024-02-26T10:12:06.570Z,english_472.wav,0,pill,409,66,5,3,English/french,female,1,0.1,-52.47175565,0.64788551
645e67cbcb96413bba593c53,107,2,2024-02-26T10:12:06.570Z,english_472.wav,0,pill,409,66,5,3,English/french,female,2,0.2,-13.12063744,0.92970714
645e67cbcb96413bba593c53,107,2,2024-02-26T10:12:06.570Z,english_472.wav,0,pill,409,66,5,3,English/french,female,3,0.3,83.57117959,0.61503547
645e67cbcb96413bba593c53,107,2,2024-02-26T10:12:06.570Z,english_472.wav,0,pill,409,66,5,3,English/french,female,4,0.32341667,95.60610647,0.52013695
645e67cbcb96413bba593c53,108,2,2024-02-26T10:12:06.570Z,english_572.wav,0,peel,339,66,5,3,English/french,female,0,0.0,-16.16189062,1.82210005
645e67cbcb96413bba593c53,108,2,2024-02-26T10:12:06.570Z,english_572.wav,0,peel,339,66,5,3,English/french,female,1,0.1,-40.8511413,0.80249033
645e67cbcb96413bba593c53,108,2,2024-02-26T10:12:06.570Z,english_572.wav,0,peel,339,66,5,3,English/french,female,2,0.2,-77.3747243,0.69959732
645e67cbcb96413bba593c53,108,2,2024-02-26T10:12:06.570Z,english_572.wav,0,peel,339,66,5,3,English/french,female,3,0.3,87.62803369,0.43311894
645e67cbcb96413bba593c53,108,2,2024-02-26T10:12:06.570Z,english_572.wav,0,peel,339,66,5,3,English/french,female,4,0.32341667,81.6005998,1.25204325
645e67cbcb96413bba593c53,109,2,2024-02-26T10:12:06.570Z,english_41.wav,0,pill,510,66,5,3,English/french,female,0,0.0,42.21237724,0.98996482
645e67cbcb96413bba593c53,109,2,2024-02-26T10:12:06.570Z,english_41.wav,0,pill,510,66,5,3,English/french,female,1,0.1,33.8271633,0.77076848
645e67cbcb96413bba593c53,109,2,2024-02-26T10:12:06.570Z,english_41.wav,0,pill,510,66,5,3,English/french,female,2,0.2,20.96644351,0.37402384
645e67cbcb96413bba593c53,109,2,2024-02-26T10:12:06.570Z,english_41.wav,0,pill,510,66,5,3,English/french,female,3,0.3,-53.61985723,1.98545705
645e67cbcb96413bba593c53,109,2,2024-02-26T10:12:06.570Z,english_41.wav,0,pill,510,66,5,3,English/french,female,4,0.32341667,-55.68725705,1.53352273
645e67cbcb96413bba593c53,110,2,2024-02-26T10:12:06.570Z,english_538.wav,0,peel,361,66,5,3,English/french,female,0,0.0,2.36208538,1.54356298
645e67cbcb96413bba593c53,110,2,2024-02-26T10:12:06.570Z,english_538.wav,0,peel,361,66,5,3,English/french,female,1,0.1,77.85923423,0.47597082
645e67cbcb96413bba593c53,110,2,2024-02-26T10:12:06.570Z,english_538.wav,0,peel,361,66,5,3,English/french,female,2,0.2,-89.1271409,1.27977799
645e67cbcb96413bba593c53,110,2,2024-02-26T10:12:06.570Z,english_538.wav,0,peel,361,66,5,3,English/french,female,3,0.3,-18.79772534,1.05516459
645e67cbcb96413bba593c53,110,2,2024-02-26T10:12:06.570Z,english_538.wav,0,peel,361,66,5,3,English/french,female,4,0.32341667,87.62276495,1.20284762
645e67cbcb96413bba593c53,111,2,2024-02-26T10:12:06.570Z,english_873.wav,0,pill,308,66,5,3,English/french,female,0,0.0,85.43762199,1.00056931
645e67cbcb96413bba593c53,111,2,2024-02-26T10:12:06.570Z,english_873.wav,0,pill,308,66,5,3,English/french,female,1,0.1,-27.24751419,0.47504393
645e67cbcb96413bba593c53,111,2,2024-02-26T10:12:06.570Z,english_873.wav,0,pill,308,66,5,3,English/french,female,2,0.2,-8.79829555,0.788147
645e67cbcb96413bba593c53,111,2,2024-02-26T10:12:06.570Z,english_873.wav,0,pill,308,66,5,3,English/french,female,3,0.3,-97.88620301,0.64075463
645e67cbcb96413bba593c53,111,2,2024-02-26T10:12:06.570Z,english_873.wav,0,pill,308,66,5,3,English/french,female,4,0.32341667,49.57089273,0.87603086
645e67cbcb96413bba593c53,112,2,2024-02-26T10:12:06.570Z,english_94.wav,0,peel,502,66,5,3,English/french,female,0,0.0,-78.50776969,1.58967719
645e67cbcb96413bba593c53,112,2,2024-02-26T10:12:06.570Z,english_94.wav,0,peel,502,66,5,3,English/french,female,1,0.1,21.81048112,0.88841047
645e67cbcb96413bba593c53,112,2,2024-02-26T10:12:06.570Z,english_94.wav,0,peel,502,66,5,3,English/french,female,2,0.2,76.78230264,1.12549424
645e67cbcb96413bba593c53,112,2,2024-02-26T10:12:06.570Z,english_94.wav,0,peel,502,66,5,3,English/french,female,3,0.3,-35.62145712,1.80621507
645e67cbcb96413bba593c53,112,2,2024-02-26T10:12:06.570Z,english_94.wav,0,peel,502,66,5,3,English/french,female,4,0.32341667,-71.39427505,1.00879957
645e67cbcb96413bba593c53,113,2,2024-02-26T10:12:06.570Z,english_373.wav,0,pill,300,66,5,3,English/french,female,0,0.0,-63.66458186,0.61104768
645e67cbcb96413bba593c53,113,2,2024-02-26T10:12:06.570Z,english_373.wav,0,pill,300,66,5,3,English/french,female,1,0.1,-61.42386056,1.64905001
645e67cbcb96413bba593c53,113,2,2024-02-26T10:12:06.570Z,english_373.wav,0,pill,300,66,5,3,English/french,female,2,0.2,-78.74831974,1.44355649
645e67cbcb96413bba593c53,113,2,2024-02-26T10:12:06.570Z,english_373.wav,0,pill,300,66,5,3,English/french,female,3,0.3,-23.23108213,1.63671726
645e67cbcb96413bba593c53,113,2,2024-02-26T10:12:06.570Z,english_373.wav,0,pill,300,66,5,3,English/french,female,4,0.32341667,-77.15694383,1.96911306
645e67cbcb96413bba593c53,114,2,2024-02-26T10:12:06.570Z,english_829.wav,0,peel,292,66,5,3,English/french,female,0,0.0,60.30417439,0.94286345
645e67cbcb96413bba593c53,114,2,2024-02-26T10:12:06.570Z,english_829.wav,0,peel,292,66,5,3,English/french,female,1,0.1,-26.87459656,0.76756767
645e67cbcb96413bba593c53,114,2,2024-02-26T10:12:06.570Z,english_829.wav,0,peel,292,66,5,3,English/french,female,2,0.2,59.05286014,1.50609211
645e67cbcb96413bba593c53,114,2,2024-02-26T10:12:06.570Z,english_829.wav,0,peel,292,66,5,3,English/french,female,3,0.3,-38.64739237,0.33518122
645e67cbcb96413bba593c53,114,2,2024-02-26T10:12:06.570Z,english_829.wav,0,peel,292,66,5,3,English/french,female,4,0.32341667,68.61732932,1.40687349
645e67cbcb96413bba593c53,115,2,2024-02-26T10:12:06.570Z,english_11.wav,0,pill,28,66,5,3,English/french,female,0,0.0,-20.45826732,1.19869378
645e67cbcb96413bba593c53,115,2,2024-02-26T10:12:06.570Z,english_11.wav,0,pill,28,66,5,3,English/french,female,1,0.1,-31.26113472,0.2059713
645e67cbcb96413bba593c53,115,2,2024-02-26T10:12:06.570Z,english_11.wav,0,pill,28,66,5,3,English/french,female,2,0.2,84.03210455,0.62296143
645e67cbcb96413bba593c53,115,2,2024-02-26T10:12:06.570Z,english_11.wav,0,pill,28,66,5,3,English/french,female,3,0.3,30.35463164,1.49781179
645e67cbcb96413bba593c53,115,2,2024-02-26T10:12:06.570Z,english_11.wav,0,pill,28,66,5,3,English/french,female,4,0.32341667,-63.36217442,0.18750748
645e67cbcb96413bba593c53,116,2,2024-02-26T10:12:06.570Z,english_165.wav,0,peel,233,66,5,3,English/french,female,0,0.0,-65.85966689,0.99094124
645e67cbcb96413bba593c53,116,2,2024-02-26T10:12:06.570Z,english_165.wav,0,peel,233,66,5,3,English/french,female,1,0.1,57.4210377,1.25140592
645e67cbcb96413bba593c53,116,2,2024-02-26T10:12:06.570Z,english_165.wav,0,peel,233,66,5,3,English/french,female,2,0.2,-53.4891742,1.66606931
645e67cbcb96413bba593c53,116,2,2024-02-26T10:12:06.570Z,english_165.wav,0,peel,233,66,5,3,English/french,female,3,0.3,-32.80877015,0.56557264
645e67cbcb96413bba593c53,116,2,2024-02-26T10:12:06.570Z,english_165.wav,0,peel,233,66,5,3,English/french,female,4,0.32341667,-23.63509804,1.31427626
645e67cbcb96413bba593c53,117,2,2024-02-26T10:12:06.570Z,english_181.wav,0,peel,546,66,5,3,English/french,female,0,0.0,-20.89133039,0.39550568
645e67cbcb96413bba593c53,117,2,2024-02-26T10:12:06.570Z,english_181.wav,0,peel,546,66,5,3,English/french,female,1,0.1,-68.36112581,0.87114476
645e67cbcb96413bba593c53,117,2,2024-02-26T10:12:06.570Z,english_181.wav,0,peel,546,66,5,3,English/french,female,2,0.2,-21.7912093,0.0214418
645e67cbcb96413bba593c53,117,2,2024-02-26T10:12:06.570Z,english_181.wav,0,peel,546,66,5,3,English/french,female,3,0.3,7.62752627,1.98777716
645e67cbcb96413bba593c53,117,2,2024-02-26T10:12:06.570Z,english_181.wav,0,peel,546,66,5,3,English/french,female,4,0.32341667,53.94324841,0.40706026
645e67cbcb96413bba593c53,118,2,2024-02-26T10:12:06.570Z,english_772.wav,0,pill,58,66,5,3,English/french,female,0,0.0,-76.23750274,0.54712598
645e67cbcb96413bba593c53,118,2,2024-02-26T10:12:06.570Z,english_772.wav,0,pill,58,66,5,3,English/french,female,1,0.1,54.42820472,1.66698734
645e67cbcb96413bba593c53,118,2,2024-02-26T10:12:06.570Z,english_772.wav,0,pill,58,66,5,3,English/french,female,2,0.2,26.41325181,1.761061
645e67cbcb96413bba593c53,118,2,2024-02-26T10:12:06.570Z,english_772.wav,0,pill,58,66,5,3,English/french,female,3,0.3,14.10037165,1.80899506
645e67cbcb96413bba593c53,118,2,2024-02-26T10:12:06.570Z,english_772.wav,0,pill,58,66,5,3,English/french,female,4,0.32341667,-75.83605273,1.29882268
645e67cbcb96413bba593c53,119,2,2024-02-26T10:12:06.570Z,english_30.wav,0,pill,584,66,5,3,English/french,female,0,0.0,-18.5398728,0.31748681
645e67cbcb96413bba593c53,119,2,2024-02-26T10:12:06.570Z,english_30.wav,0,pill,584,66,5,3,English/french,female,1,0.1,-67.34991207,1.82477139
645e67cbcb96413bba593c53,119,2,2024-02-26T10:12:06.570Z,english_30.wav,0,pill,584,66,5,3,English/french,female,2,0.2,65.54879707,1.59992979
645e67cbcb96413bba593c53,119,2,2024-02-26T10:12:06.570Z,english_30.wav,0,pill,584,66,5,3,English/french,female,3,0.3,30.88088319,0.89523729
645e67cbcb96413bba593c53,119,2,2024-02-26T10:12:06.570Z,english_30.wav,0,pill,584,66,5,3,English/french,female,4,0.32341667,50.60550813,1.02052202
645e67cbcb96413bba593c53,120,2,2024-02-26T10:12:06.570Z,english_953.wav,0,pill,1469,66,5,3,English/french,female,0,0.0,-16.02430182,0.31806788
645e67cbcb96413bba593c53,120,2,2024-02-26T10:12:06.570Z,english_953.wav,0,pill,1469,66,5,3,English/french,female,1,0.1,29.58660593,0.5983964
645e67cbcb96413bba593c53,120,2,2024-02-26T10:12:06.570Z,english_953.wav,0,pill,1469,66,5,3,English/french,female,2,0.2,-69.77021268,1.47459901
645e67cbcb96413bba593c53,120,2,2024-02-26T10:12:06.570Z,english_953.wav,0,pill,1469,66,5,3,English/french,female,3,0.3,10.24378989,1.63555671
645e67cbcb96413bba593c53,120,2,2024-02-26T10:12:06.570Z,english_953.wav,0,pill,1469,66,5,3,English/french,female,4,0.32341667,-68.66835117,1.74756834
645e67cbcb96413bba593c53,121,2,2024-02-26T10:12:06.570Z,english_33.wav,0,peel,267,66,5,3,English/french,female,0,0.0,13.53683954,1.37746345
645e67cbcb96413bba593c53,121,2,2024-02-26T10:12:06.570Z,english_33.wav,0,peel,267,66,5,3,English/french,female,1,0.1,-23.61599557,1.14776292
645e67cbcb96413bba593c53,121,2,2024-02-26T10:12:06.570Z,english_33.wav,0,peel,267,66,5,3,English/french,female,2,0.2,60.58241295,1.15899553
645e67cbcb96413bba593c53,121,2,2024-02-26T10:12:06.570Z,english_33.wav,0,peel,267,66,5,3,English/french,female,3,0.3,-2.03686091,0.64766031
645e67cbcb96413bba593c53,121,2,2024-02-26T10:12:06.570Z,english_33.wav,0,peel,267,66,5,3,English/french,female,4,0.32341667,79.90239576,1.69768968
645e67cbcb96413bba593c53,122,2,2024-02-26T10:12:06.570Z,english_291.wav,0,pill,2993,66,5,3,English/french,female,0,0.0,-23.91479102,1.25533579
645e67cbcb96413bba593c53,122,2,2024-02-26T10:12:06.570Z,english_291.wav,0,pill,2993,66,5,3,English/french,female,1,0.1,-31.34063508,0.8599513
645e67cbcb96413bba593c53,122,2,2024-02-26T10:12:06.570Z,english_291.wav,0,pill,2993,66,5,3,English/french,female,2,0.2,-16.29866726,1.40556138
645e67cbcb96413bba593c53,122,2,2024-02-26T10:12:06.570Z,english_291.wav,0,pill,2993,66,5,3,English/french,female,3,0.3,10.36632866,0.42924112
645e67cbcb96413bba593c53,122,2,2024-02-26T10:12:06.570Z,english_291.wav,0,pill,2993,66,5,3,English/french,female,4,0.32341667,7.35722843,0.61564446
645e67cbcb96413bba593c53,123,2,2024-02-26T10:12:06.570Z,english_785.wav,0,pill,1059,66,5,3,English/french,female,0,0.0,41.51350967,0.93543931
645e67cbcb96413bba593c53,123,2,2024-02-26T10:12:06.570Z,english_785.wav,0,pill,1059,66,5,3,English/french,female,1,0.1,26.23517368,1.17819894
645e67cbcb96413bba593c53,123,2,2024-02-26T10:12:06.570Z,english_785.wav,0,pill,1059,66,5,3,English/french,female,2,0.2,-12.63822228,1.98833146
645e67cbcb96413bba593c53,123,2,2024-02-26T10:12:06.570Z,english_785.wav,0,pill,1059,66,5,3,English/french,female,3,0.3,-30.66588474,0.80021218
645e67cbcb96413bba593c53,123,2,2024-02-26T10:12:06.570Z,english_785.wav,0,pill,1059,66,5,3,English/french,female,4,0.32341667,26.08399401,1.2737519
645e67cbcb96413bba593c53,124,2,2024-02-26T10:12:06.570Z,english_351.wav,0,pill,325,66,5,3,English/french,female,0,0.0,-56.55455818,0.98366365
645e67cbcb96413bba593c53,124,2,2024-02-26T10:12:06.570Z,english_351.wav,0,pill,325,66,5,3,English/french,female,1,0.1,-81.1333892,1.13800808
645e67cbcb96413bba593c53,124,2,2024-02-26T10:12:06.570Z,english_351.wav,0,pill,325,66,5,3,English/french,female,2,0.2,70.95296343,1.04915948
645e67cbcb96413bba593c53,124,2,2024-02-26T10:12:06.570Z,english_351.wav,0,pill,325,66,5,3,English/french,female,3,0.3,-82.79021433,1.70890302
645e67cbcb96413bba593c53,124,2,2024-02-26T10:12:06.570Z,english_351.wav,0,pill,325,66,5,3,English/french,female,4,0.32341667,-21.34496407,1.83807055
645e67cbcb96413bba593c53,125,2,2024-02-26T10:12:06.570Z,english_663.wav,0,peel,241,66,5,3,English/french,female,0,0.0,55.84438863,1.29444713
645e67cbcb96413bba593c53,125,2,2024-02-26T10:12:06.570Z,english_663.wav,0,peel,241,66,5,3,English/french,female,1,0.1,-89.02249371,0.90215198
645e67cbcb96413bba593c53,125,2,2024-02-26T10:12:06.570Z,english_663.wav,0,peel,241,66,5,3,English/french,female,2,0.2,-13.61345685,1.61104603
645e67cbcb96413bba593c53,125,2,2024-02-26T10:12:06.570Z,english_663.wav,0,peel,241,66,5,3,English/french,female,3,0.3,14.50375693,0.31375715
645e67cbcb96413bba593c53,125,2,2024-02-26T10:12:06.570Z,english_663.wav,0,peel,241,66,5,3,English/french,female,4,0.32341667,80.63633164,1.01784406
645e67cbcb96413bba593c53,126,2,2024-02-26T10:12:06.570Z,english_242.wav,0,peel,154,66,5,3,English/french,female,0,0.0,26.44185099,0.44763058
645e67cbcb96413bba593c53,126,2,2024-02-26T10:12:06.570Z,english_242.wav,0,peel,154,66,5,3,English/french,female,1,0.1,44.29547205,1.06541359
645e67cbcb96413bba593c53,126,2,2024-02-26T10:12:06.570Z,english_242.wav,0,peel,154,66,5,3,English/french,female,2,0.2,-3.86423299,0.64111919
645e67cbcb96413bba593c53,126,2,2024-02-26T10:12:06.570Z,english_242.wav,0,peel,154,66,5,3,English/french,female,3,0.3,60.29108386,0.35225786
645e67cbcb96413bba593c53,126,2,2024-02-26T10:12:06.570Z,english_242.wav,0,peel,154,66,5,3,English/french,female,4,0.32341667,18.66576556,1.0072971
645e67cbcb96413bba593c53,127,2,2024-02-26T10:12:06.570Z,english_355.wav,0,peel,3164,66,5,3,English/french,female,0,0.0,33.6784286,1.28512049
645e67cbcb96413bba593c53,127,2,2024-02-26T10:12:06.570Z,english_355.wav,0,peel,3164,66,5,3,English/french,female,1,0.1,30.74796889,1.04729355
645e67cbcb96413bba593c53,127,2,2024-02-26T10:12:06.570Z,english_355.wav,0,peel,3164,66,5,3,English/french,female,2,0.2,71.39310534,0.74339822
645e67cbcb96413bba593c53,127,2,2024-02-26T10:12:06.570Z,english_355.wav,0,peel,3164,66,5,3,English/french,female,3,0.3,38.16266559,0.86152361
645e67cbcb96413bba593c53,127,2,2024-02-26T10:12:06.570Z,english_355.wav,0,peel,3164,66,5,3,English/french,female,4,0.32341667,-39.8799084,1.83215587
645e67cbcb96413bba593c53,128,2,2024-02-26T10:12:06.570Z,english_634.wav,0,pill,18,66,5,3,English/french,female,0,0.0,-94.29539956,0.6011183
645e67cbcb96413bba593c53,128,2,2024-02-26T10:12:06.570Z,english_634.wav,0,pill,18,66,5,3,English/french,female,1,0.1,28.41708136,1.15242669
645e67cbcb96413bba593c53,128,2,2024-02-26T10:12:06.570Z,english_634.wav,0,pill,18,66,5,3,English/french,female,2,0.2,-99.13935281,0.68826906
645e67cbcb96413bba593c53,128,2,2024-02-26T10:12:06.570Z,english_634.wav,0,pill,18,66,5,3,English/french,female,3,0.3,-78.11216949,1.44169335
645e67cbcb96413bba593c53,128,2,2024-02-26T10:12:06.570Z,english_634.wav,0,pill,18,66,5,3,English/french,female,4,0.32341667,-54.5881907,0.90266094
645e67cbcb96413bba593c53,129,2,2024-02-26T10:12:06.570Z,english_895.wav,0,peel,735,66,5,3,English/french,female,0,0.0,-36.05432491,1.57991636
645e67cbcb96413bba593c53,129,2,2024-02-26T10:12:06.570Z,english_895.wav,0,peel,735,66,5,3,English/french,female,1,0.1,0.27991529,1.29141926
645e67cbcb96413bba593c53,129,2,2024-02-26T10:12:06.570Z,english_895.wav,0,peel,735,66,5,3,English/french,female,2,0.2,-68.50060493,0.78617821
645e67cbcb96413bba593c53,129,2,2024-02-26T10:12:06.570Z,english_895.wav,0,peel,735,66,5,3,English/french,female,3,0.3,-65.34452755,0.53071912
645e67cbcb96413bba593c53,129,2,2024-02-26T10:12:06.570Z,english_895.wav,0,peel,735,66,5,3,English/french,female,4,0.32341667,44.30205494,1.44568828
645e67cbcb96413bba593c53,130,2,2024-02-26T10:12:06.570Z,english_312.wav,0,pill,23,66,5,3,English/french,female,0,0.0,44.01610098,1.36033213
645e67cbcb96413bba593c53,130,2,2024-02-26T10:12:06.570Z,english_312.wav,0,pill,23,66,5,3,English/french,female,1,0.1,-34.76139374,0.08557756
645e67cbcb96413bba593c53,130,2,2024-02-26T10:12:06.570Z,english_312.wav,0,pill,23,66,5,3,English/french,female,2,0.2,-43.47986862,1.06509633
645e67cbcb96413bba593c53,130,2,2024-02-26T10:12:06.570Z,english_312.wav,0,pill,23,66,5,3,English/french,female,3,0.3,-9.79517271,0.67257935
645e67cbcb96413bba593c53,130,2,2024-02-26T10:12:06.570Z,english_312.wav,0,pill,23,66,5,3,English/french,female,4,0.32341667,85.48914895,0.12614926
645e67cbcb96413bba593c53,131,2,2024-02-26T10:12:06.570Z,english_718.wav,0,pill,453,66,5,3,English/french,female,0,0.0,-62.54470118,0.40124114
645e67cbcb96413bba593c53,131,2,2024-02-26T10:12:06.570Z,english_718.wav,0,pill,453,66,5,3,English/french,female,1,0.1,-40.70811043,0.49945062
645e67cbcb96413bba593c53,131,2,2024-02-26T10:12:06.570Z,english_718.wav,0,pill,453,66,5,3,English/french,female,2,0.2,-11.25435391,1.54880463
645e67cbcb96413bba593c53,131,2,2024-02-26T10:12:06.570Z,english_718.wav,0,pill,453,66,5,3,English/french,female,3,0.3,-68.52161814,0.39118497
645e67cbcb96413bba593c53,131,2,2024-02-26T10:12:06.570Z,english_718.wav,0,pill,453,66,5,3,English/french,female,4,0.32341667,-77.89834334,0.07447668
645e67cbcb96413bba593c53,132,2,2024-02-26T10:12:06.570Z,english_474.wav,0,peel,119,66,5,3,English/french,female,0,0.0,42.88606971,0.87351765
645e67cbcb96413bba593c53,132,2,2024-02-26T10:12:06.570Z,english_474.wav,0,peel,119,66,5,3,English/french,female,1,0.1,6.82691085,1.08551449
645e67cbcb96413bba593c53,132,2,2024-02-26T10:12:06.570Z,english_474.wav,0,peel,119,66,5,3,English/french,female,2,0.2,-33.80031927,1.99847166
645e67cbcb96413bba593c53,132,2,2024-02-26T10:12:06.570Z,english_474.wav,0,peel,119,66,5,3,English/french,female,3,0.3,-97.18672796,0.27470298
645e67cbcb96413bba593c53,132,2,2024-02-26T10:12:06.570Z,english_474.wav,0,peel,119,66,5,3,English/french,female,4,0.32341667,-4.7462475,0.02962094
645e67cbcb96413bba593c53,133,2,2024-02-26T10:12:06.570Z,english_360.wav,0,pill,91,66,5,3,English/french,female,0,0.0,-50.57937638,0.73788637
645e67cbcb96413bba593c53,133,2,2024-02-26T10:12:06.570Z,english_360.wav,0,pill,91,66,5,3,English/french,female,1,0.1,-29.22164644,0.6487653
645e67cbcb96413bba593c53,133,2,2024-02-26T10:12:06.570Z,english_360.wav,0,pill,91,66,5,3,English/french,female,2,0.2,-88.45421248,0.73193848
645e67cbcb96413bba593c53,133,2,2024-02-26T10:12:06.570Z,english_360.wav,0,pill,91,66,5,3,English/french,female,3,0.3,93.68039656,1.75347372
645e67cbcb96413bba593c53,133,2,2024-02-26T10:12:06.570Z,english_360.wav,0,pill,91,66,5,3,English/french,female,4,0.32341667,-2.59092547,1.19277037
645e67cbcb96413bba593c53,134,2,2024-02-26T10:12:06.570Z,english_427.wav,0,pill,129,66,5,3,English/french,female,0,0.0,38.10585738,0.62221409
645e67cbcb96413bba593c53,134,2,2024-02-26T10:12:06.570Z,english_427.wav,0,pill,129,66,5,3,English/french,female,1,0.1,75.26959407,1.20145201
645e67cbcb96413bba593c53,134,2,2024-02-26T10:12:06.570Z,english_427.wav,0,pill,129,66,5,3,English/french,female,2,0.2,-92.48152235,0.18894815
645e67cbcb96413bba593c53,134,2,2024-02-26T10:12:06.570Z,english_427.wav,0,pill,129,66,5,3,English/french,female,3,0.3,-38.24940669,0.36527681
645e67cbcb96413bba593c53,134,2,2024-02-26T10:12:06.570Z,english_427.wav,0,pill,129,66,5,3,English/french,female,4,0.32341667,-41.67637111,0.02898627
645e67cbcb96413bba593c53,135,2,2024-02-26T10:12:06.570Z,english_955.wav,0,peel,819,66,5,3,English/french,female,0,0.0,-93.58498903,1.26703381
645e67cbcb96413bba593c53,135,2,2024-02-26T10:12:06.570Z,english_955.wav,0,peel,819,66,5,3,English/french,female,1,0.1,-11.56731864,0.51967441
645e67cbcb96413bba593c53,135,2,2024-02-26T10:12:06.570Z,english_955.wav,0,peel,819,66,5,3,English/french,female,2,0.2,60.37787928,1.0313906
645e67cbcb96413bba593c53,135,2,2024-02-26T10:12:06.570Z,english_955.wav,0,peel,819,66,5,3,English/french,female,3,0.3,83.42366765,1.58878747
645e67cbcb96413bba593c53,135,2,2024-02-26T10:12:06.570Z,english_955.wav,0,peel,819,66,5,3,English/french,female,4,0.32341667,-60.32056418,1.0025339
645e67cbcb96413bba593c53,136,2,2024-02-26T10:12:06.570Z,english_745.wav,0,pill,96,66,5,3,English/french,female,0,0.0,-57.64472866,1.88925258
645e67cbcb96413bba593c53,136,2,2024-02-26T10:12:06.570Z,english_745.wav,0,pill,96,66,5,3,English/french,female,1,0.1,-14.80975681,0.26333653
645e67cbcb96413bba593c53,136,2,2024-02-26T10:12:06.570Z,english_745.wav,0,pill,96,66,5,3,English/french,female,2,0.2,44.46939178,1.01945351
645e67cbcb96413bba593c53,136,2,2024-02-26T10:12:06.570Z,english_745.wav,0,pill,96,66,5,3,English/french,female,3,0.3,56.80280999,0.00901457
645e67cbcb96413bba593c53,136,2,2024-02-26T10:12:06.570Z,english_745.wav,0,pill,96,66,5,3,English/french,female,4,0.32341667,-16.53068296,0.38778228
645e67cbcb96413bba593c53,137,2,2024-02-26T10:12:06.570Z,english_485.wav,0,peel,55,66,5,3,English/french,female,0,0.0,-7.08941798,1.8206563
645e67cbcb96413bba593c53,137,2,2024-02-26T10:12:06.570Z,english_485.wav,0,peel,55,66,5,3,English/french,female,1,0.1,-70.64579204,0.10660577
645e67cbcb96413bba593c53,137,2,2024-02-26T10:12:06.570Z,english_485.wav,0,peel,55,66,5,3,English/french,female,2,0.2,23.79115045,1.92760945
645e67cbcb96413bba593c53,137,2,2024-02-26T10:12:06.570Z,english_485.wav,0,peel,55,66,5,3,English/french,female,3,0.3,0.80487994,0.77499174
645e67cbcb96413bba593c53,137,2,2024-02-26T10:12:06.570Z,english_485.wav,0,peel,55,66,5,3,English/french,female,4,0.32341667,4.72097057,1.20070888
645e67cbcb96413bba593c53,138,2,2024-02-26T10:12:06.570Z,english_307.wav,0,pill,83,66,5,3,English/french,female,0,0.0,-38.93106299,1.91951228
645e67cbcb96413bba593c53,138,2,2024-02-26T10:12:06.570Z,english_307.wav,0,pill,83,66,5,3,English/french,female,1,0.1,-30.40144858,0.50419792
645e67cbcb96413bba593c53,138,2,2024-02-26T10:12:06.570Z,english_307.wav,0,pill,83,66,5,3,English/french,female,2,0.2,2.19081651,0.76602689
645e67cbcb96413bba593c53,138,2,2024-02-26T10:12:06.570Z,english_307.wav,0,pill,83,66,5,3,English/french,female,3,0.3,30.82741361,0.59904457
645e67cbcb96413bba593c53,138,2,2024-02-26T10:12:06.570Z,english_307.wav,0,pill,83,66,5,3,English/french,female,4,0.32341667,46.9007513,1.94941235
645e67cbcb96413bba593c53,139,2,2024-02-26T10:12:06.570Z,english_995.wav,0,peel,126,66,5,3,English/french,female,0,0.0,49.33707883,0.89732458
645e67cbcb96413bba593c53,139,2,2024-02-26T10:12:06.570Z,english_995.wav,0,peel,126,66,5,3,English/french,female,1,0.1,54.78730957,0.49662083
645e67cbcb96413bba593c53,139,2,2024-02-26T10:12:06.570Z,english_995.wav,0,peel,126,66,5,3,English/french,female,2,0.2,-5.99414072,0.83265132
645e67cbcb96413bba593c53,139,2,2024-02-26T10:12:06.570Z,english_995.wav,0,peel,126,66,5,3,English/french,female,3,0.3,26.8687238,1.32035917
645e67cbcb96413bba593c53,139,2,2024-02-26T10:12:06.570Z,english_995.wav,0,peel,126,66,5,3,English/french,female,4,0.32341667,38.3348194,1.99869744
645e67cbcb96413bba593c53,140,2,2024-02-26T10:12:06.570Z,english_288.wav,0,pill,587,66,5,3,English/french,female,0,0.0,35.15100251,1.01330681
645e67cbcb96413bba593c53,140,2,2024-02-26T10:12:06.570Z,english_288.wav,0,pill,587,66,5,3,English/french,female,1,0.1,49.55485069,0.90213232
645e67cbcb96413bba593c53,140,2,2024-02-26T10:12:06.570Z,english_288.wav,0,pill,587,66,5,3,English/french,female,2,0.2,28.604189,1.8181607
