subj,trial,block,date,stim,stim_order,response,rt,age,english,french,language,sex,param_index,segment,pitch,stretch
5e92178e8ee4fe54b65b7c39,0,0,2024-02-24T08:26:57.419Z,english_686.wav,0,pill,2220,29,5,2,english,m,0,0.0,-30.40223154,0.36787347
5e92178e8ee4fe54b65b7c39,0,0,2024-02-24T08:26:57.419Z,english_686.wav,0,pill,2220,29,5,2,english,m,1,0.1,40.30213926,1.54584144
5e92178e8ee4fe54b65b7c39,0,0,2024-02-24T08:26:57.419Z,english_686.wav,0,pill,2220,29,5,2,english,m,2,0.2,68.68183252,1.54645212
5e92178e8ee4fe54b65b7c39,0,0,2024-02-24T08:26:57.419Z,english_686.wav,0,pill,2220,29,5,2,english,m,3,0.3,82.36920372,1.04035585
5e92178e8ee4fe54b65b7c39,0,0,2024-02-24T08:26:57.419Z,english_686.wav,0,pill,2220,29,5,2,english,m,4,0.32341667,5.8000707,1.51520661
5e92178e8ee4fe54b65b7c39,1,0,2024-02-24T08:26:57.419Z,english_242.wav,0,pill,931,29,5,2,english,m,0,0.0,26.44185099,0.44763058
5e92178e8ee4fe54b65b7c39,1,0,2024-02-24T08:26:57.419Z,english_242.wav,0,pill,931,29,5,2,english,m,1,0.1,44.29547205,1.06541359
5e92178e8ee4fe54b65b7c39,1,0,2024-02-24T08:26:57.419Z,english_242.wav,0,pill,931,29,5,2,english,m,2,0.2,-3.86423299,0.64111919
5e92178e8ee4fe54b65b7c39,1,0,2024-02-24T08:26:57.419Z,english_242.wav,0,pill,931,29,5,2,english,m,3,0.3,60.29108386,0.35225786
5e92178e8ee4fe54b65b7c39,1,0,2024-02-24T08:26:57.419Z,english_242.wav,0,pill,931,29,5,2,english,m,4,0.32341667,18.66576556,1.0072971
5e92178e8ee4fe54b65b7c39,2,0,2024-02-24T08:26:57.419Z,english_216.wav,0,pill,612,29,5,2,english,m,0,0.0,-62.2888105,1.07577895
5e92178e8ee4fe54b65b7c39,2,0,2024-02-24T08:26:57.419Z,english_216.wav,0,pill,612,29,5,2,english,m,1,0.1,-52.19325919,1.07125686
5e92178e8ee4fe54b65b7c39,2,0,2024-02-24T08:26:57.419Z,english_216.wav,0,pill,612,29,5,2,english,m,2,0.2,-77.81566322,1.51342084
5e92178e8ee4fe54b65b7c39,2,0,2024-02-24T08:26:57.419Z,english_216.wav,0,pill,612,29,5,2,english,m,3,0.3,73.5246301,1.37714716
5e92178e8ee4fe54b65b7c39,2,0,2024-02-24T08:26:57.419Z,english_216.wav,0,pill,612,29,5,2,english,m,4,0.32341667,73.4409389,1.55456291
5e92178e8ee4fe54b65b7c39,3,0,2024-02-24T08:26:57.419Z,english_653.wav,0,peel,383,29,5,2,english,m,0,0.0,8.14815906,1.27061672
5e92178e8ee4fe54b65b7c39,3,0,2024-02-24T08:26:57.419Z,english_653.wav,0,peel,383,29,5,2,english,m,1,0.1,4.49815435,1.37470465
5e92178e8ee4fe54b65b7c39,3,0,2024-02-24T08:26:57.419Z,english_653.wav,0,peel,383,29,5,2,english,m,2,0.2,-96.80954485,1.57421691
5e92178e8ee4fe54b65b7c39,3,0,2024-02-24T08:26:57.419Z,english_653.wav,0,peel,383,29,5,2,english,m,3,0.3,-0.49075979,1.39011427
5e92178e8ee4fe54b65b7c39,3,0,2024-02-24T08:26:57.419Z,english_653.wav,0,peel,383,29,5,2,english,m,4,0.32341667,98.12577208,0.75484601
5e92178e8ee4fe54b65b7c39,4,0,2024-02-24T08:26:57.419Z,english_164.wav,0,peel,336,29,5,2,english,m,0,0.0,-18.99376005,1.91320144
5e92178e8ee4fe54b65b7c39,4,0,2024-02-24T08:26:57.419Z,english_164.wav,0,peel,336,29,5,2,english,m,1,0.1,-38.65269109,0.23857652
5e92178e8ee4fe54b65b7c39,4,0,2024-02-24T08:26:57.419Z,english_164.wav,0,peel,336,29,5,2,english,m,2,0.2,64.75288033,1.41883879
5e92178e8ee4fe54b65b7c39,4,0,2024-02-24T08:26:57.419Z,english_164.wav,0,peel,336,29,5,2,english,m,3,0.3,-33.8407164,1.34667564
5e92178e8ee4fe54b65b7c39,4,0,2024-02-24T08:26:57.419Z,english_164.wav,0,peel,336,29,5,2,english,m,4,0.32341667,27.96502681,0.04602263
5e92178e8ee4fe54b65b7c39,5,0,2024-02-24T08:26:57.419Z,english_807.wav,0,peel,294,29,5,2,english,m,0,0.0,-70.27095807,1.48455572
5e92178e8ee4fe54b65b7c39,5,0,2024-02-24T08:26:57.419Z,english_807.wav,0,peel,294,29,5,2,english,m,1,0.1,84.77391363,1.24837561
5e92178e8ee4fe54b65b7c39,5,0,2024-02-24T08:26:57.419Z,english_807.wav,0,peel,294,29,5,2,english,m,2,0.2,-27.52537388,0.77726095
5e92178e8ee4fe54b65b7c39,5,0,2024-02-24T08:26:57.419Z,english_807.wav,0,peel,294,29,5,2,english,m,3,0.3,36.82986288,1.65388598
5e92178e8ee4fe54b65b7c39,5,0,2024-02-24T08:26:57.419Z,english_807.wav,0,peel,294,29,5,2,english,m,4,0.32341667,16.63983573,1.10343216
5e92178e8ee4fe54b65b7c39,6,0,2024-02-24T08:26:57.419Z,english_415.wav,0,peel,266,29,5,2,english,m,0,0.0,36.00223879,1.49199547
5e92178e8ee4fe54b65b7c39,6,0,2024-02-24T08:26:57.419Z,english_415.wav,0,peel,266,29,5,2,english,m,1,0.1,-82.63332374,1.79959711
5e92178e8ee4fe54b65b7c39,6,0,2024-02-24T08:26:57.419Z,english_415.wav,0,peel,266,29,5,2,english,m,2,0.2,57.55038703,0.64689267
5e92178e8ee4fe54b65b7c39,6,0,2024-02-24T08:26:57.419Z,english_415.wav,0,peel,266,29,5,2,english,m,3,0.3,-9.83064734,0.31881377
5e92178e8ee4fe54b65b7c39,6,0,2024-02-24T08:26:57.419Z,english_415.wav,0,peel,266,29,5,2,english,m,4,0.32341667,-29.78573939,0.18568486
5e92178e8ee4fe54b65b7c39,7,0,2024-02-24T08:26:57.419Z,english_143.wav,0,peel,2377,29,5,2,english,m,0,0.0,-40.90047407,0.05812512
5e92178e8ee4fe54b65b7c39,7,0,2024-02-24T08:26:57.419Z,english_143.wav,0,peel,2377,29,5,2,english,m,1,0.1,-35.35291254,0.81203879
5e92178e8ee4fe54b65b7c39,7,0,2024-02-24T08:26:57.419Z,english_143.wav,0,peel,2377,29,5,2,english,m,2,0.2,36.32983964,0.61124866
5e92178e8ee4fe54b65b7c39,7,0,2024-02-24T08:26:57.419Z,english_143.wav,0,peel,2377,29,5,2,english,m,3,0.3,-7.67980486,0.41683772
5e92178e8ee4fe54b65b7c39,7,0,2024-02-24T08:26:57.419Z,english_143.wav,0,peel,2377,29,5,2,english,m,4,0.32341667,-89.59854269,1.86697452
5e92178e8ee4fe54b65b7c39,8,0,2024-02-24T08:26:57.419Z,english_895.wav,0,peel,738,29,5,2,english,m,0,0.0,-36.05432491,1.57991636
5e92178e8ee4fe54b65b7c39,8,0,2024-02-24T08:26:57.419Z,english_895.wav,0,peel,738,29,5,2,english,m,1,0.1,0.27991529,1.29141926
5e92178e8ee4fe54b65b7c39,8,0,2024-02-24T08:26:57.419Z,english_895.wav,0,peel,738,29,5,2,english,m,2,0.2,-68.50060493,0.78617821
5e92178e8ee4fe54b65b7c39,8,0,2024-02-24T08:26:57.419Z,english_895.wav,0,peel,738,29,5,2,english,m,3,0.3,-65.34452755,0.53071912
5e92178e8ee4fe54b65b7c39,8,0,2024-02-24T08:26:57.419Z,english_895.wav,0,peel,738,29,5,2,english,m,4,0.32341667,44.30205494,1.44568828
5e92178e8ee4fe54b65b7c39,9,0,2024-02-24T08:26:57.419Z,english_847.wav,0,peel,372,29,5,2,english,m,0,0.0,76.45550118,0.38890762
5e92178e8ee4fe54b65b7c39,9,0,2024-02-24T08:26:57.419Z,english_847.wav,0,peel,372,29,5,2,english,m,1,0.1,-18.38123868,1.01718805
5e92178e8ee4fe54b65b7c39,9,0,2024-02-24T08:26:57.419Z,english_847.wav,0,peel,372,29,5,2,english,m,2,0.2,18.403778,1.24872656
5e92178e8ee4fe54b65b7c39,9,0,2024-02-24T08:26:57.419Z,english_847.wav,0,peel,372,29,5,2,english,m,3,0.3,57.196546,0.81951257
5e92178e8ee4fe54b65b7c39,9,0,2024-02-24T08:26:57.419Z,english_847.wav,0,peel,372,29,5,2,english,m,4,0.32341667,32.99763753,0.74194876
5e92178e8ee4fe54b65b7c39,10,0,2024-02-24T08:26:57.419Z,english_256.wav,0,pill,525,29,5,2,english,m,0,0.0,22.60769813,1.84037168
5e92178e8ee4fe54b65b7c39,10,0,2024-02-24T08:26:57.419Z,english_256.wav,0,pill,525,29,5,2,english,m,1,0.1,-95.01444593,0.47687766
5e92178e8ee4fe54b65b7c39,10,0,2024-02-24T08:26:57.419Z,english_256.wav,0,pill,525,29,5,2,english,m,2,0.2,-19.91310746,0.85339151
5e92178e8ee4fe54b65b7c39,10,0,2024-02-24T08:26:57.419Z,english_256.wav,0,pill,525,29,5,2,english,m,3,0.3,-6.39209363,0.75097161
5e92178e8ee4fe54b65b7c39,10,0,2024-02-24T08:26:57.419Z,english_256.wav,0,pill,525,29,5,2,english,m,4,0.32341667,24.02209282,1.98695073
5e92178e8ee4fe54b65b7c39,11,0,2024-02-24T08:26:57.419Z,english_546.wav,0,pill,790,29,5,2,english,m,0,0.0,81.21590514,1.56657823
5e92178e8ee4fe54b65b7c39,11,0,2024-02-24T08:26:57.419Z,english_546.wav,0,pill,790,29,5,2,english,m,1,0.1,75.01018689,0.84038259
5e92178e8ee4fe54b65b7c39,11,0,2024-02-24T08:26:57.419Z,english_546.wav,0,pill,790,29,5,2,english,m,2,0.2,15.56226302,0.00684501
5e92178e8ee4fe54b65b7c39,11,0,2024-02-24T08:26:57.419Z,english_546.wav,0,pill,790,29,5,2,english,m,3,0.3,48.30886192,1.68157273
5e92178e8ee4fe54b65b7c39,11,0,2024-02-24T08:26:57.419Z,english_546.wav,0,pill,790,29,5,2,english,m,4,0.32341667,18.80923499,1.09409739
5e92178e8ee4fe54b65b7c39,12,0,2024-02-24T08:26:57.419Z,english_842.wav,0,pill,617,29,5,2,english,m,0,0.0,-48.5952207,0.12382156
5e92178e8ee4fe54b65b7c39,12,0,2024-02-24T08:26:57.419Z,english_842.wav,0,pill,617,29,5,2,english,m,1,0.1,29.19485822,1.75564688
5e92178e8ee4fe54b65b7c39,12,0,2024-02-24T08:26:57.419Z,english_842.wav,0,pill,617,29,5,2,english,m,2,0.2,84.54328152,0.24815543
5e92178e8ee4fe54b65b7c39,12,0,2024-02-24T08:26:57.419Z,english_842.wav,0,pill,617,29,5,2,english,m,3,0.3,69.99994667,1.2885643
5e92178e8ee4fe54b65b7c39,12,0,2024-02-24T08:26:57.419Z,english_842.wav,0,pill,617,29,5,2,english,m,4,0.32341667,56.72069463,0.70518165
5e92178e8ee4fe54b65b7c39,13,0,2024-02-24T08:26:57.419Z,english_556.wav,0,peel,241,29,5,2,english,m,0,0.0,35.62658416,1.88481821
5e92178e8ee4fe54b65b7c39,13,0,2024-02-24T08:26:57.419Z,english_556.wav,0,peel,241,29,5,2,english,m,1,0.1,28.75181601,0.4023528
5e92178e8ee4fe54b65b7c39,13,0,2024-02-24T08:26:57.419Z,english_556.wav,0,peel,241,29,5,2,english,m,2,0.2,-2.62389444,1.49364055
5e92178e8ee4fe54b65b7c39,13,0,2024-02-24T08:26:57.419Z,english_556.wav,0,peel,241,29,5,2,english,m,3,0.3,64.03572584,1.54190039
5e92178e8ee4fe54b65b7c39,13,0,2024-02-24T08:26:57.419Z,english_556.wav,0,peel,241,29,5,2,english,m,4,0.32341667,72.79696002,0.53435232
5e92178e8ee4fe54b65b7c39,14,0,2024-02-24T08:26:57.419Z,english_917.wav,0,peel,1030,29,5,2,english,m,0,0.0,-2.28432431,0.51220006
5e92178e8ee4fe54b65b7c39,14,0,2024-02-24T08:26:57.419Z,english_917.wav,0,peel,1030,29,5,2,english,m,1,0.1,-50.4941454,0.3783057
5e92178e8ee4fe54b65b7c39,14,0,2024-02-24T08:26:57.419Z,english_917.wav,0,peel,1030,29,5,2,english,m,2,0.2,86.41176613,0.52629226
5e92178e8ee4fe54b65b7c39,14,0,2024-02-24T08:26:57.419Z,english_917.wav,0,peel,1030,29,5,2,english,m,3,0.3,-50.97734163,0.68389314
5e92178e8ee4fe54b65b7c39,14,0,2024-02-24T08:26:57.419Z,english_917.wav,0,peel,1030,29,5,2,english,m,4,0.32341667,97.13453513,1.73708117
5e92178e8ee4fe54b65b7c39,15,0,2024-02-24T08:26:57.419Z,english_84.wav,0,peel,281,29,5,2,english,m,0,0.0,-42.35488886,0.45116064
5e92178e8ee4fe54b65b7c39,15,0,2024-02-24T08:26:57.419Z,english_84.wav,0,peel,281,29,5,2,english,m,1,0.1,17.86576323,1.91320005
5e92178e8ee4fe54b65b7c39,15,0,2024-02-24T08:26:57.419Z,english_84.wav,0,peel,281,29,5,2,english,m,2,0.2,-56.36172821,1.53140363
5e92178e8ee4fe54b65b7c39,15,0,2024-02-24T08:26:57.419Z,english_84.wav,0,peel,281,29,5,2,english,m,3,0.3,69.8537656,0.53091011
5e92178e8ee4fe54b65b7c39,15,0,2024-02-24T08:26:57.419Z,english_84.wav,0,peel,281,29,5,2,english,m,4,0.32341667,-47.30652012,1.59279301
5e92178e8ee4fe54b65b7c39,16,0,2024-02-24T08:26:57.419Z,english_337.wav,0,pill,524,29,5,2,english,m,0,0.0,17.21863108,0.02346696
5e92178e8ee4fe54b65b7c39,16,0,2024-02-24T08:26:57.419Z,english_337.wav,0,pill,524,29,5,2,english,m,1,0.1,-16.30098312,1.2349353
5e92178e8ee4fe54b65b7c39,16,0,2024-02-24T08:26:57.419Z,english_337.wav,0,pill,524,29,5,2,english,m,2,0.2,70.17733319,1.07823504
5e92178e8ee4fe54b65b7c39,16,0,2024-02-24T08:26:57.419Z,english_337.wav,0,pill,524,29,5,2,english,m,3,0.3,-7.16478631,1.83339424
5e92178e8ee4fe54b65b7c39,16,0,2024-02-24T08:26:57.419Z,english_337.wav,0,pill,524,29,5,2,english,m,4,0.32341667,-84.96176299,1.87583376
5e92178e8ee4fe54b65b7c39,17,0,2024-02-24T08:26:57.419Z,english_783.wav,0,peel,581,29,5,2,english,m,0,0.0,23.05268069,1.49549247
5e92178e8ee4fe54b65b7c39,17,0,2024-02-24T08:26:57.419Z,english_783.wav,0,peel,581,29,5,2,english,m,1,0.1,9.36005369,0.13797177
5e92178e8ee4fe54b65b7c39,17,0,2024-02-24T08:26:57.419Z,english_783.wav,0,peel,581,29,5,2,english,m,2,0.2,62.81522218,1.80236654
5e92178e8ee4fe54b65b7c39,17,0,2024-02-24T08:26:57.419Z,english_783.wav,0,peel,581,29,5,2,english,m,3,0.3,67.71456376,0.33800471
5e92178e8ee4fe54b65b7c39,17,0,2024-02-24T08:26:57.419Z,english_783.wav,0,peel,581,29,5,2,english,m,4,0.32341667,77.96788237,1.97708045
5e92178e8ee4fe54b65b7c39,18,0,2024-02-24T08:26:57.419Z,english_581.wav,0,pill,688,29,5,2,english,m,0,0.0,-4.1565262,0.01704603
5e92178e8ee4fe54b65b7c39,18,0,2024-02-24T08:26:57.419Z,english_581.wav,0,pill,688,29,5,2,english,m,1,0.1,84.55344465,1.32903406
5e92178e8ee4fe54b65b7c39,18,0,2024-02-24T08:26:57.419Z,english_581.wav,0,pill,688,29,5,2,english,m,2,0.2,-57.45750027,1.58046526
5e92178e8ee4fe54b65b7c39,18,0,2024-02-24T08:26:57.419Z,english_581.wav,0,pill,688,29,5,2,english,m,3,0.3,-14.35569009,1.16633299
5e92178e8ee4fe54b65b7c39,18,0,2024-02-24T08:26:57.419Z,english_581.wav,0,pill,688,29,5,2,english,m,4,0.32341667,-54.33758456,1.20758605
5e92178e8ee4fe54b65b7c39,19,0,2024-02-24T08:26:57.419Z,english_740.wav,0,pill,1192,29,5,2,english,m,0,0.0,17.63845752,0.65519257
5e92178e8ee4fe54b65b7c39,19,0,2024-02-24T08:26:57.419Z,english_740.wav,0,pill,1192,29,5,2,english,m,1,0.1,36.88289119,0.996231
5e92178e8ee4fe54b65b7c39,19,0,2024-02-24T08:26:57.419Z,english_740.wav,0,pill,1192,29,5,2,english,m,2,0.2,-63.85348159,0.85360158
5e92178e8ee4fe54b65b7c39,19,0,2024-02-24T08:26:57.419Z,english_740.wav,0,pill,1192,29,5,2,english,m,3,0.3,-97.96670479,1.42654033
5e92178e8ee4fe54b65b7c39,19,0,2024-02-24T08:26:57.419Z,english_740.wav,0,pill,1192,29,5,2,english,m,4,0.32341667,43.035587,1.01691569
5e92178e8ee4fe54b65b7c39,20,0,2024-02-24T08:26:57.419Z,english_630.wav,0,pill,595,29,5,2,english,m,0,0.0,97.25925287,0.34607754
5e92178e8ee4fe54b65b7c39,20,0,2024-02-24T08:26:57.419Z,english_630.wav,0,pill,595,29,5,2,english,m,1,0.1,76.95662127,0.15996234
5e92178e8ee4fe54b65b7c39,20,0,2024-02-24T08:26:57.419Z,english_630.wav,0,pill,595,29,5,2,english,m,2,0.2,5.01423186,1.73874617
5e92178e8ee4fe54b65b7c39,20,0,2024-02-24T08:26:57.419Z,english_630.wav,0,pill,595,29,5,2,english,m,3,0.3,-27.88706711,0.41181915
5e92178e8ee4fe54b65b7c39,20,0,2024-02-24T08:26:57.419Z,english_630.wav,0,pill,595,29,5,2,english,m,4,0.32341667,90.69966072,0.77788697
5e92178e8ee4fe54b65b7c39,21,0,2024-02-24T08:26:57.419Z,english_338.wav,0,peel,108,29,5,2,english,m,0,0.0,-22.40965878,1.93572195
5e92178e8ee4fe54b65b7c39,21,0,2024-02-24T08:26:57.419Z,english_338.wav,0,peel,108,29,5,2,english,m,1,0.1,-10.16153496,1.78994992
5e92178e8ee4fe54b65b7c39,21,0,2024-02-24T08:26:57.419Z,english_338.wav,0,peel,108,29,5,2,english,m,2,0.2,-50.2449588,1.38134059
5e92178e8ee4fe54b65b7c39,21,0,2024-02-24T08:26:57.419Z,english_338.wav,0,peel,108,29,5,2,english,m,3,0.3,14.05674122,1.78462007
5e92178e8ee4fe54b65b7c39,21,0,2024-02-24T08:26:57.419Z,english_338.wav,0,peel,108,29,5,2,english,m,4,0.32341667,-78.35339858,1.2607094
5e92178e8ee4fe54b65b7c39,22,0,2024-02-24T08:26:57.419Z,english_464.wav,0,peel,492,29,5,2,english,m,0,0.0,53.08614354,0.76512863
5e92178e8ee4fe54b65b7c39,22,0,2024-02-24T08:26:57.419Z,english_464.wav,0,peel,492,29,5,2,english,m,1,0.1,30.21863436,1.75958979
5e92178e8ee4fe54b65b7c39,22,0,2024-02-24T08:26:57.419Z,english_464.wav,0,peel,492,29,5,2,english,m,2,0.2,-72.79337117,0.91412587
5e92178e8ee4fe54b65b7c39,22,0,2024-02-24T08:26:57.419Z,english_464.wav,0,peel,492,29,5,2,english,m,3,0.3,91.0452741,1.02089091
5e92178e8ee4fe54b65b7c39,22,0,2024-02-24T08:26:57.419Z,english_464.wav,0,peel,492,29,5,2,english,m,4,0.32341667,-31.40181873,1.37846458
5e92178e8ee4fe54b65b7c39,23,0,2024-02-24T08:26:57.419Z,english_400.wav,0,peel,433,29,5,2,english,m,0,0.0,-9.17924521,1.06898792
5e92178e8ee4fe54b65b7c39,23,0,2024-02-24T08:26:57.419Z,english_400.wav,0,peel,433,29,5,2,english,m,1,0.1,-51.0410118,0.05890524
5e92178e8ee4fe54b65b7c39,23,0,2024-02-24T08:26:57.419Z,english_400.wav,0,peel,433,29,5,2,english,m,2,0.2,66.2548805,1.54728483
5e92178e8ee4fe54b65b7c39,23,0,2024-02-24T08:26:57.419Z,english_400.wav,0,peel,433,29,5,2,english,m,3,0.3,92.33374018,1.43953162
5e92178e8ee4fe54b65b7c39,23,0,2024-02-24T08:26:57.419Z,english_400.wav,0,peel,433,29,5,2,english,m,4,0.32341667,-60.80730989,1.12546459
5e92178e8ee4fe54b65b7c39,24,0,2024-02-24T08:26:57.419Z,english_819.wav,0,pill,229,29,5,2,english,m,0,0.0,56.56933068,1.61805944
5e92178e8ee4fe54b65b7c39,24,0,2024-02-24T08:26:57.419Z,english_819.wav,0,pill,229,29,5,2,english,m,1,0.1,16.98960986,1.69207785
5e92178e8ee4fe54b65b7c39,24,0,2024-02-24T08:26:57.419Z,english_819.wav,0,pill,229,29,5,2,english,m,2,0.2,-13.59600893,1.33633205
5e92178e8ee4fe54b65b7c39,24,0,2024-02-24T08:26:57.419Z,english_819.wav,0,pill,229,29,5,2,english,m,3,0.3,79.1710335,0.49452457
5e92178e8ee4fe54b65b7c39,24,0,2024-02-24T08:26:57.419Z,english_819.wav,0,pill,229,29,5,2,english,m,4,0.32341667,25.34620926,1.97134574
5e92178e8ee4fe54b65b7c39,25,0,2024-02-24T08:26:57.419Z,english_638.wav,0,pill,995,29,5,2,english,m,0,0.0,6.92468799,1.1702122
5e92178e8ee4fe54b65b7c39,25,0,2024-02-24T08:26:57.419Z,english_638.wav,0,pill,995,29,5,2,english,m,1,0.1,52.10042521,0.51269982
5e92178e8ee4fe54b65b7c39,25,0,2024-02-24T08:26:57.419Z,english_638.wav,0,pill,995,29,5,2,english,m,2,0.2,-39.07293948,0.1912204
5e92178e8ee4fe54b65b7c39,25,0,2024-02-24T08:26:57.419Z,english_638.wav,0,pill,995,29,5,2,english,m,3,0.3,38.46029754,0.91406415
5e92178e8ee4fe54b65b7c39,25,0,2024-02-24T08:26:57.419Z,english_638.wav,0,pill,995,29,5,2,english,m,4,0.32341667,-16.6630855,1.67689755
5e92178e8ee4fe54b65b7c39,26,0,2024-02-24T08:26:57.419Z,english_281.wav,0,pill,389,29,5,2,english,m,0,0.0,-55.42099824,1.64310908
5e92178e8ee4fe54b65b7c39,26,0,2024-02-24T08:26:57.419Z,english_281.wav,0,pill,389,29,5,2,english,m,1,0.1,30.44020676,0.76997124
5e92178e8ee4fe54b65b7c39,26,0,2024-02-24T08:26:57.419Z,english_281.wav,0,pill,389,29,5,2,english,m,2,0.2,53.34739709,0.1940809
5e92178e8ee4fe54b65b7c39,26,0,2024-02-24T08:26:57.419Z,english_281.wav,0,pill,389,29,5,2,english,m,3,0.3,-32.26512488,0.25794937
5e92178e8ee4fe54b65b7c39,26,0,2024-02-24T08:26:57.419Z,english_281.wav,0,pill,389,29,5,2,english,m,4,0.32341667,-59.86883114,1.27043487
5e92178e8ee4fe54b65b7c39,27,0,2024-02-24T08:26:57.419Z,english_694.wav,0,pill,511,29,5,2,english,m,0,0.0,-79.88370205,0.99496101
5e92178e8ee4fe54b65b7c39,27,0,2024-02-24T08:26:57.419Z,english_694.wav,0,pill,511,29,5,2,english,m,1,0.1,-58.02841319,0.06406007
5e92178e8ee4fe54b65b7c39,27,0,2024-02-24T08:26:57.419Z,english_694.wav,0,pill,511,29,5,2,english,m,2,0.2,-50.54988317,0.5055253
5e92178e8ee4fe54b65b7c39,27,0,2024-02-24T08:26:57.419Z,english_694.wav,0,pill,511,29,5,2,english,m,3,0.3,-20.79864769,0.19498426
5e92178e8ee4fe54b65b7c39,27,0,2024-02-24T08:26:57.419Z,english_694.wav,0,pill,511,29,5,2,english,m,4,0.32341667,-73.64916114,0.36410653
5e92178e8ee4fe54b65b7c39,28,0,2024-02-24T08:26:57.419Z,english_269.wav,0,peel,876,29,5,2,english,m,0,0.0,61.09556447,1.11606818
5e92178e8ee4fe54b65b7c39,28,0,2024-02-24T08:26:57.419Z,english_269.wav,0,peel,876,29,5,2,english,m,1,0.1,-3.97684721,1.55443041
5e92178e8ee4fe54b65b7c39,28,0,2024-02-24T08:26:57.419Z,english_269.wav,0,peel,876,29,5,2,english,m,2,0.2,-87.59080112,1.78173809
5e92178e8ee4fe54b65b7c39,28,0,2024-02-24T08:26:57.419Z,english_269.wav,0,peel,876,29,5,2,english,m,3,0.3,78.47165079,1.73012946
5e92178e8ee4fe54b65b7c39,28,0,2024-02-24T08:26:57.419Z,english_269.wav,0,peel,876,29,5,2,english,m,4,0.32341667,-52.74135522,0.88090417
5e92178e8ee4fe54b65b7c39,29,0,2024-02-24T08:26:57.419Z,english_71.wav,0,peel,276,29,5,2,english,m,0,0.0,-89.06637534,0.37218892
5e92178e8ee4fe54b65b7c39,29,0,2024-02-24T08:26:57.419Z,english_71.wav,0,peel,276,29,5,2,english,m,1,0.1,-28.638437,1.29479557
5e92178e8ee4fe54b65b7c39,29,0,2024-02-24T08:26:57.419Z,english_71.wav,0,peel,276,29,5,2,english,m,2,0.2,-8.31899436,1.34818575
5e92178e8ee4fe54b65b7c39,29,0,2024-02-24T08:26:57.419Z,english_71.wav,0,peel,276,29,5,2,english,m,3,0.3,67.7820648,1.24266832
5e92178e8ee4fe54b65b7c39,29,0,2024-02-24T08:26:57.419Z,english_71.wav,0,peel,276,29,5,2,english,m,4,0.32341667,4.09606073,1.38884894
5e92178e8ee4fe54b65b7c39,30,0,2024-02-24T08:26:57.419Z,english_124.wav,0,pill,290,29,5,2,english,m,0,0.0,-16.92140416,1.25482105
5e92178e8ee4fe54b65b7c39,30,0,2024-02-24T08:26:57.419Z,english_124.wav,0,pill,290,29,5,2,english,m,1,0.1,97.41289205,1.97830042
5e92178e8ee4fe54b65b7c39,30,0,2024-02-24T08:26:57.419Z,english_124.wav,0,pill,290,29,5,2,english,m,2,0.2,-78.49167412,1.09846955
5e92178e8ee4fe54b65b7c39,30,0,2024-02-24T08:26:57.419Z,english_124.wav,0,pill,290,29,5,2,english,m,3,0.3,-3.48618202,0.36540564
5e92178e8ee4fe54b65b7c39,30,0,2024-02-24T08:26:57.419Z,english_124.wav,0,pill,290,29,5,2,english,m,4,0.32341667,5.32047068,0.96325389
5e92178e8ee4fe54b65b7c39,31,0,2024-02-24T08:26:57.419Z,english_931.wav,0,pill,506,29,5,2,english,m,0,0.0,-78.99767873,0.72988395
5e92178e8ee4fe54b65b7c39,31,0,2024-02-24T08:26:57.419Z,english_931.wav,0,pill,506,29,5,2,english,m,1,0.1,-34.67093685,1.40858855
5e92178e8ee4fe54b65b7c39,31,0,2024-02-24T08:26:57.419Z,english_931.wav,0,pill,506,29,5,2,english,m,2,0.2,2.25144273,1.82787629
5e92178e8ee4fe54b65b7c39,31,0,2024-02-24T08:26:57.419Z,english_931.wav,0,pill,506,29,5,2,english,m,3,0.3,-93.87287365,1.51045502
5e92178e8ee4fe54b65b7c39,31,0,2024-02-24T08:26:57.419Z,english_931.wav,0,pill,506,29,5,2,english,m,4,0.32341667,57.8562517,1.42241625
5e92178e8ee4fe54b65b7c39,32,0,2024-02-24T08:26:57.419Z,english_165.wav,0,peel,581,29,5,2,english,m,0,0.0,-65.85966689,0.99094124
5e92178e8ee4fe54b65b7c39,32,0,2024-02-24T08:26:57.419Z,english_165.wav,0,peel,581,29,5,2,english,m,1,0.1,57.4210377,1.25140592
5e92178e8ee4fe54b65b7c39,32,0,2024-02-24T08:26:57.419Z,english_165.wav,0,peel,581,29,5,2,english,m,2,0.2,-53.4891742,1.66606931
5e92178e8ee4fe54b65b7c39,32,0,2024-02-24T08:26:57.419Z,english_165.wav,0,peel,581,29,5,2,english,m,3,0.3,-32.80877015,0.56557264
5e92178e8ee4fe54b65b7c39,32,0,2024-02-24T08:26:57.419Z,english_165.wav,0,peel,581,29,5,2,english,m,4,0.32341667,-23.63509804,1.31427626
5e92178e8ee4fe54b65b7c39,33,0,2024-02-24T08:26:57.419Z,english_875.wav,0,pill,205,29,5,2,english,m,0,0.0,-72.29566874,0.47412948
5e92178e8ee4fe54b65b7c39,33,0,2024-02-24T08:26:57.419Z,english_875.wav,0,pill,205,29,5,2,english,m,1,0.1,40.49821439,0.97105678
5e92178e8ee4fe54b65b7c39,33,0,2024-02-24T08:26:57.419Z,english_875.wav,0,pill,205,29,5,2,english,m,2,0.2,61.66936014,1.31175081
5e92178e8ee4fe54b65b7c39,33,0,2024-02-24T08:26:57.419Z,english_875.wav,0,pill,205,29,5,2,english,m,3,0.3,36.92950197,0.55015514
5e92178e8ee4fe54b65b7c39,33,0,2024-02-24T08:26:57.419Z,english_875.wav,0,pill,205,29,5,2,english,m,4,0.32341667,61.03530789,1.23529794
5e92178e8ee4fe54b65b7c39,34,0,2024-02-24T08:26:57.419Z,english_466.wav,0,peel,406,29,5,2,english,m,0,0.0,59.64739432,1.91119383
5e92178e8ee4fe54b65b7c39,34,0,2024-02-24T08:26:57.419Z,english_466.wav,0,peel,406,29,5,2,english,m,1,0.1,-20.63646321,1.29572765
5e92178e8ee4fe54b65b7c39,34,0,2024-02-24T08:26:57.419Z,english_466.wav,0,peel,406,29,5,2,english,m,2,0.2,62.86141463,0.99944191
5e92178e8ee4fe54b65b7c39,34,0,2024-02-24T08:26:57.419Z,english_466.wav,0,peel,406,29,5,2,english,m,3,0.3,-65.74461877,1.01221774
5e92178e8ee4fe54b65b7c39,34,0,2024-02-24T08:26:57.419Z,english_466.wav,0,peel,406,29,5,2,english,m,4,0.32341667,44.70090984,0.89697717
5e92178e8ee4fe54b65b7c39,35,0,2024-02-24T08:26:57.419Z,english_218.wav,0,pill,328,29,5,2,english,m,0,0.0,87.3373499,1.94084006
5e92178e8ee4fe54b65b7c39,35,0,2024-02-24T08:26:57.419Z,english_218.wav,0,pill,328,29,5,2,english,m,1,0.1,-14.87903436,0.13305972
5e92178e8ee4fe54b65b7c39,35,0,2024-02-24T08:26:57.419Z,english_218.wav,0,pill,328,29,5,2,english,m,2,0.2,-31.97943339,1.11441312
5e92178e8ee4fe54b65b7c39,35,0,2024-02-24T08:26:57.419Z,english_218.wav,0,pill,328,29,5,2,english,m,3,0.3,-60.49311609,1.83933377
5e92178e8ee4fe54b65b7c39,35,0,2024-02-24T08:26:57.419Z,english_218.wav,0,pill,328,29,5,2,english,m,4,0.32341667,-63.68242647,1.41053301
5e92178e8ee4fe54b65b7c39,36,0,2024-02-24T08:26:57.419Z,english_790.wav,0,pill,489,29,5,2,english,m,0,0.0,51.18493756,0.66657869
5e92178e8ee4fe54b65b7c39,36,0,2024-02-24T08:26:57.419Z,english_790.wav,0,pill,489,29,5,2,english,m,1,0.1,-64.70105349,0.91857876
5e92178e8ee4fe54b65b7c39,36,0,2024-02-24T08:26:57.419Z,english_790.wav,0,pill,489,29,5,2,english,m,2,0.2,-90.57968214,1.26779222
5e92178e8ee4fe54b65b7c39,36,0,2024-02-24T08:26:57.419Z,english_790.wav,0,pill,489,29,5,2,english,m,3,0.3,-94.64625917,1.54144859
5e92178e8ee4fe54b65b7c39,36,0,2024-02-24T08:26:57.419Z,english_790.wav,0,pill,489,29,5,2,english,m,4,0.32341667,-38.85953331,1.32367104
5e92178e8ee4fe54b65b7c39,37,0,2024-02-24T08:26:57.419Z,english_829.wav,0,pill,259,29,5,2,english,m,0,0.0,60.30417439,0.94286345
5e92178e8ee4fe54b65b7c39,37,0,2024-02-24T08:26:57.419Z,english_829.wav,0,pill,259,29,5,2,english,m,1,0.1,-26.87459656,0.76756767
5e92178e8ee4fe54b65b7c39,37,0,2024-02-24T08:26:57.419Z,english_829.wav,0,pill,259,29,5,2,english,m,2,0.2,59.05286014,1.50609211
5e92178e8ee4fe54b65b7c39,37,0,2024-02-24T08:26:57.419Z,english_829.wav,0,pill,259,29,5,2,english,m,3,0.3,-38.64739237,0.33518122
5e92178e8ee4fe54b65b7c39,37,0,2024-02-24T08:26:57.419Z,english_829.wav,0,pill,259,29,5,2,english,m,4,0.32341667,68.61732932,1.40687349
5e92178e8ee4fe54b65b7c39,38,0,2024-02-24T08:26:57.419Z,english_20.wav,0,pill,529,29,5,2,english,m,0,0.0,-56.6830557,0.06363068
5e92178e8ee4fe54b65b7c39,38,0,2024-02-24T08:26:57.419Z,english_20.wav,0,pill,529,29,5,2,english,m,1,0.1,50.66790367,1.80739158
5e92178e8ee4fe54b65b7c39,38,0,2024-02-24T08:26:57.419Z,english_20.wav,0,pill,529,29,5,2,english,m,2,0.2,-18.96445326,1.41045117
5e92178e8ee4fe54b65b7c39,38,0,2024-02-24T08:26:57.419Z,english_20.wav,0,pill,529,29,5,2,english,m,3,0.3,-25.44345058,0.2049667
5e92178e8ee4fe54b65b7c39,38,0,2024-02-24T08:26:57.419Z,english_20.wav,0,pill,529,29,5,2,english,m,4,0.32341667,12.75548414,0.27136646
5e92178e8ee4fe54b65b7c39,39,0,2024-02-24T08:26:57.419Z,english_924.wav,0,pill,224,29,5,2,english,m,0,0.0,63.64154058,1.83477076
5e92178e8ee4fe54b65b7c39,39,0,2024-02-24T08:26:57.419Z,english_924.wav,0,pill,224,29,5,2,english,m,1,0.1,-60.55254199,0.21366754
5e92178e8ee4fe54b65b7c39,39,0,2024-02-24T08:26:57.419Z,english_924.wav,0,pill,224,29,5,2,english,m,2,0.2,-47.94670646,1.07859551
5e92178e8ee4fe54b65b7c39,39,0,2024-02-24T08:26:57.419Z,english_924.wav,0,pill,224,29,5,2,english,m,3,0.3,-76.50696127,1.9507375
5e92178e8ee4fe54b65b7c39,39,0,2024-02-24T08:26:57.419Z,english_924.wav,0,pill,224,29,5,2,english,m,4,0.32341667,44.23103111,1.33476666
5e92178e8ee4fe54b65b7c39,40,0,2024-02-24T08:26:57.419Z,english_594.wav,0,peel,522,29,5,2,english,m,0,0.0,-85.15725243,1.49995106
5e92178e8ee4fe54b65b7c39,40,0,2024-02-24T08:26:57.419Z,english_594.wav,0,peel,522,29,5,2,english,m,1,0.1,18.57908242,1.36683942
5e92178e8ee4fe54b65b7c39,40,0,2024-02-24T08:26:57.419Z,english_594.wav,0,peel,522,29,5,2,english,m,2,0.2,-52.1381203,1.31792707
5e92178e8ee4fe54b65b7c39,40,0,2024-02-24T08:26:57.419Z,english_594.wav,0,peel,522,29,5,2,english,m,3,0.3,77.56862162,0.76119001
5e92178e8ee4fe54b65b7c39,40,0,2024-02-24T08:26:57.419Z,english_594.wav,0,peel,522,29,5,2,english,m,4,0.32341667,89.7133381,1.77084997
5e92178e8ee4fe54b65b7c39,41,0,2024-02-24T08:26:57.419Z,english_203.wav,0,peel,206,29,5,2,english,m,0,0.0,-22.28277813,1.31475846
5e92178e8ee4fe54b65b7c39,41,0,2024-02-24T08:26:57.419Z,english_203.wav,0,peel,206,29,5,2,english,m,1,0.1,13.21695477,1.08922412
5e92178e8ee4fe54b65b7c39,41,0,2024-02-24T08:26:57.419Z,english_203.wav,0,peel,206,29,5,2,english,m,2,0.2,63.23651974,0.55450355
5e92178e8ee4fe54b65b7c39,41,0,2024-02-24T08:26:57.419Z,english_203.wav,0,peel,206,29,5,2,english,m,3,0.3,-20.14830746,1.72034007
5e92178e8ee4fe54b65b7c39,41,0,2024-02-24T08:26:57.419Z,english_203.wav,0,peel,206,29,5,2,english,m,4,0.32341667,-78.55276631,0.92481053
5e92178e8ee4fe54b65b7c39,42,0,2024-02-24T08:26:57.419Z,english_659.wav,0,peel,219,29,5,2,english,m,0,0.0,-86.13080632,0.77157019
5e92178e8ee4fe54b65b7c39,42,0,2024-02-24T08:26:57.419Z,english_659.wav,0,peel,219,29,5,2,english,m,1,0.1,39.51927718,1.34569204
5e92178e8ee4fe54b65b7c39,42,0,2024-02-24T08:26:57.419Z,english_659.wav,0,peel,219,29,5,2,english,m,2,0.2,-6.22185106,0.71695874
5e92178e8ee4fe54b65b7c39,42,0,2024-02-24T08:26:57.419Z,english_659.wav,0,peel,219,29,5,2,english,m,3,0.3,5.64287294,1.04110125
5e92178e8ee4fe54b65b7c39,42,0,2024-02-24T08:26:57.419Z,english_659.wav,0,peel,219,29,5,2,english,m,4,0.32341667,47.08694279,1.84115141
5e92178e8ee4fe54b65b7c39,43,0,2024-02-24T08:26:57.419Z,english_745.wav,0,peel,421,29,5,2,english,m,0,0.0,-57.64472866,1.88925258
5e92178e8ee4fe54b65b7c39,43,0,2024-02-24T08:26:57.419Z,english_745.wav,0,peel,421,29,5,2,english,m,1,0.1,-14.80975681,0.26333653
5e92178e8ee4fe54b65b7c39,43,0,2024-02-24T08:26:57.419Z,english_745.wav,0,peel,421,29,5,2,english,m,2,0.2,44.46939178,1.01945351
5e92178e8ee4fe54b65b7c39,43,0,2024-02-24T08:26:57.419Z,english_745.wav,0,peel,421,29,5,2,english,m,3,0.3,56.80280999,0.00901457
5e92178e8ee4fe54b65b7c39,43,0,2024-02-24T08:26:57.419Z,english_745.wav,0,peel,421,29,5,2,english,m,4,0.32341667,-16.53068296,0.38778228
5e92178e8ee4fe54b65b7c39,44,0,2024-02-24T08:26:57.419Z,english_381.wav,0,peel,193,29,5,2,english,m,0,0.0,-64.83599525,0.77808766
5e92178e8ee4fe54b65b7c39,44,0,2024-02-24T08:26:57.419Z,english_381.wav,0,peel,193,29,5,2,english,m,1,0.1,97.61236857,1.62635576
5e92178e8ee4fe54b65b7c39,44,0,2024-02-24T08:26:57.419Z,english_381.wav,0,peel,193,29,5,2,english,m,2,0.2,-60.27157178,0.65298664
5e92178e8ee4fe54b65b7c39,44,0,2024-02-24T08:26:57.419Z,english_381.wav,0,peel,193,29,5,2,english,m,3,0.3,84.45732791,0.46881793
5e92178e8ee4fe54b65b7c39,44,0,2024-02-24T08:26:57.419Z,english_381.wav,0,peel,193,29,5,2,english,m,4,0.32341667,-87.53832291,1.22836965
5e92178e8ee4fe54b65b7c39,45,0,2024-02-24T08:26:57.419Z,english_874.wav,0,pill,404,29,5,2,english,m,0,0.0,32.94582558,0.77720789
5e92178e8ee4fe54b65b7c39,45,0,2024-02-24T08:26:57.419Z,english_874.wav,0,pill,404,29,5,2,english,m,1,0.1,73.76521909,1.44852608
5e92178e8ee4fe54b65b7c39,45,0,2024-02-24T08:26:57.419Z,english_874.wav,0,pill,404,29,5,2,english,m,2,0.2,-83.94992572,1.18086928
5e92178e8ee4fe54b65b7c39,45,0,2024-02-24T08:26:57.419Z,english_874.wav,0,pill,404,29,5,2,english,m,3,0.3,-61.86791133,0.75042975
5e92178e8ee4fe54b65b7c39,45,0,2024-02-24T08:26:57.419Z,english_874.wav,0,pill,404,29,5,2,english,m,4,0.32341667,-94.71312943,1.11461748
5e92178e8ee4fe54b65b7c39,46,0,2024-02-24T08:26:57.419Z,english_605.wav,0,peel,404,29,5,2,english,m,0,0.0,-82.65591545,0.90945233
5e92178e8ee4fe54b65b7c39,46,0,2024-02-24T08:26:57.419Z,english_605.wav,0,peel,404,29,5,2,english,m,1,0.1,35.78886654,1.65178877
5e92178e8ee4fe54b65b7c39,46,0,2024-02-24T08:26:57.419Z,english_605.wav,0,peel,404,29,5,2,english,m,2,0.2,-36.80716754,0.21181898
5e92178e8ee4fe54b65b7c39,46,0,2024-02-24T08:26:57.419Z,english_605.wav,0,peel,404,29,5,2,english,m,3,0.3,-4.39131435,1.21754483
5e92178e8ee4fe54b65b7c39,46,0,2024-02-24T08:26:57.419Z,english_605.wav,0,peel,404,29,5,2,english,m,4,0.32341667,-17.17702763,1.60493484
5e92178e8ee4fe54b65b7c39,47,0,2024-02-24T08:26:57.419Z,english_888.wav,0,peel,188,29,5,2,english,m,0,0.0,-75.11317729,0.15619421
5e92178e8ee4fe54b65b7c39,47,0,2024-02-24T08:26:57.419Z,english_888.wav,0,peel,188,29,5,2,english,m,1,0.1,-15.41916561,1.45351631
5e92178e8ee4fe54b65b7c39,47,0,2024-02-24T08:26:57.419Z,english_888.wav,0,peel,188,29,5,2,english,m,2,0.2,30.82770832,1.60154734
5e92178e8ee4fe54b65b7c39,47,0,2024-02-24T08:26:57.419Z,english_888.wav,0,peel,188,29,5,2,english,m,3,0.3,69.72581111,1.09787436
5e92178e8ee4fe54b65b7c39,47,0,2024-02-24T08:26:57.419Z,english_888.wav,0,peel,188,29,5,2,english,m,4,0.32341667,-21.6620698,1.3760261
5e92178e8ee4fe54b65b7c39,48,0,2024-02-24T08:26:57.419Z,english_200.wav,0,peel,250,29,5,2,english,m,0,0.0,48.98677304,1.07797747
5e92178e8ee4fe54b65b7c39,48,0,2024-02-24T08:26:57.419Z,english_200.wav,0,peel,250,29,5,2,english,m,1,0.1,13.54292536,1.23698451
5e92178e8ee4fe54b65b7c39,48,0,2024-02-24T08:26:57.419Z,english_200.wav,0,peel,250,29,5,2,english,m,2,0.2,15.98335964,0.85343662
5e92178e8ee4fe54b65b7c39,48,0,2024-02-24T08:26:57.419Z,english_200.wav,0,peel,250,29,5,2,english,m,3,0.3,-46.7743147,1.38707984
5e92178e8ee4fe54b65b7c39,48,0,2024-02-24T08:26:57.419Z,english_200.wav,0,peel,250,29,5,2,english,m,4,0.32341667,-12.18386714,0.65409939
5e92178e8ee4fe54b65b7c39,49,0,2024-02-24T08:26:57.419Z,english_198.wav,0,peel,241,29,5,2,english,m,0,0.0,-3.53881338,0.6033193
5e92178e8ee4fe54b65b7c39,49,0,2024-02-24T08:26:57.419Z,english_198.wav,0,peel,241,29,5,2,english,m,1,0.1,58.04445454,0.57837506
5e92178e8ee4fe54b65b7c39,49,0,2024-02-24T08:26:57.419Z,english_198.wav,0,peel,241,29,5,2,english,m,2,0.2,67.39523563,1.37850613
5e92178e8ee4fe54b65b7c39,49,0,2024-02-24T08:26:57.419Z,english_198.wav,0,peel,241,29,5,2,english,m,3,0.3,56.58835275,0.73107668
5e92178e8ee4fe54b65b7c39,49,0,2024-02-24T08:26:57.419Z,english_198.wav,0,peel,241,29,5,2,english,m,4,0.32341667,7.34595052,0.42006089
5e92178e8ee4fe54b65b7c39,50,1,2024-02-24T08:26:57.419Z,english_476.wav,0,peel,1079,29,5,2,english,m,0,0.0,67.27413703,1.71507594
5e92178e8ee4fe54b65b7c39,50,1,2024-02-24T08:26:57.419Z,english_476.wav,0,peel,1079,29,5,2,english,m,1,0.1,-35.99891676,1.5691203
5e92178e8ee4fe54b65b7c39,50,1,2024-02-24T08:26:57.419Z,english_476.wav,0,peel,1079,29,5,2,english,m,2,0.2,53.1347651,0.1869461
5e92178e8ee4fe54b65b7c39,50,1,2024-02-24T08:26:57.419Z,english_476.wav,0,peel,1079,29,5,2,english,m,3,0.3,-27.53585108,0.94822926
5e92178e8ee4fe54b65b7c39,50,1,2024-02-24T08:26:57.419Z,english_476.wav,0,peel,1079,29,5,2,english,m,4,0.32341667,13.88563074,1.63186757
5e92178e8ee4fe54b65b7c39,51,1,2024-02-24T08:26:57.419Z,english_103.wav,0,peel,173,29,5,2,english,m,0,0.0,-79.54710498,0.84178061
5e92178e8ee4fe54b65b7c39,51,1,2024-02-24T08:26:57.419Z,english_103.wav,0,peel,173,29,5,2,english,m,1,0.1,-41.31314025,1.9706485
5e92178e8ee4fe54b65b7c39,51,1,2024-02-24T08:26:57.419Z,english_103.wav,0,peel,173,29,5,2,english,m,2,0.2,-48.58046961,1.55059924
5e92178e8ee4fe54b65b7c39,51,1,2024-02-24T08:26:57.419Z,english_103.wav,0,peel,173,29,5,2,english,m,3,0.3,50.88097047,1.14550684
5e92178e8ee4fe54b65b7c39,51,1,2024-02-24T08:26:57.419Z,english_103.wav,0,peel,173,29,5,2,english,m,4,0.32341667,21.22320476,1.67039139
5e92178e8ee4fe54b65b7c39,52,1,2024-02-24T08:26:57.419Z,english_313.wav,0,peel,381,29,5,2,english,m,0,0.0,63.86599335,0.35841412
5e92178e8ee4fe54b65b7c39,52,1,2024-02-24T08:26:57.419Z,english_313.wav,0,peel,381,29,5,2,english,m,1,0.1,-55.89800258,0.35021793
5e92178e8ee4fe54b65b7c39,52,1,2024-02-24T08:26:57.419Z,english_313.wav,0,peel,381,29,5,2,english,m,2,0.2,90.86254046,1.77750413
5e92178e8ee4fe54b65b7c39,52,1,2024-02-24T08:26:57.419Z,english_313.wav,0,peel,381,29,5,2,english,m,3,0.3,0.53087649,1.87396687
5e92178e8ee4fe54b65b7c39,52,1,2024-02-24T08:26:57.419Z,english_313.wav,0,peel,381,29,5,2,english,m,4,0.32341667,-69.87913817,1.16176786
5e92178e8ee4fe54b65b7c39,53,1,2024-02-24T08:26:57.419Z,english_362.wav,0,peel,156,29,5,2,english,m,0,0.0,12.71485551,1.44490364
5e92178e8ee4fe54b65b7c39,53,1,2024-02-24T08:26:57.419Z,english_362.wav,0,peel,156,29,5,2,english,m,1,0.1,-18.83660308,1.3029027
5e92178e8ee4fe54b65b7c39,53,1,2024-02-24T08:26:57.419Z,english_362.wav,0,peel,156,29,5,2,english,m,2,0.2,-52.07271323,1.10609828
5e92178e8ee4fe54b65b7c39,53,1,2024-02-24T08:26:57.419Z,english_362.wav,0,peel,156,29,5,2,english,m,3,0.3,-29.96931661,1.18379787
5e92178e8ee4fe54b65b7c39,53,1,2024-02-24T08:26:57.419Z,english_362.wav,0,peel,156,29,5,2,english,m,4,0.32341667,-9.99178163,1.80996789
5e92178e8ee4fe54b65b7c39,54,1,2024-02-24T08:26:57.419Z,english_752.wav,0,peel,72,29,5,2,english,m,0,0.0,-89.50526135,1.26833375
5e92178e8ee4fe54b65b7c39,54,1,2024-02-24T08:26:57.419Z,english_752.wav,0,peel,72,29,5,2,english,m,1,0.1,16.42916277,1.25445964
5e92178e8ee4fe54b65b7c39,54,1,2024-02-24T08:26:57.419Z,english_752.wav,0,peel,72,29,5,2,english,m,2,0.2,-62.11724863,1.84048801
5e92178e8ee4fe54b65b7c39,54,1,2024-02-24T08:26:57.419Z,english_752.wav,0,peel,72,29,5,2,english,m,3,0.3,-22.7839786,0.96813738
5e92178e8ee4fe54b65b7c39,54,1,2024-02-24T08:26:57.419Z,english_752.wav,0,peel,72,29,5,2,english,m,4,0.32341667,21.77934146,1.95604557
5e92178e8ee4fe54b65b7c39,55,1,2024-02-24T08:26:57.419Z,english_40.wav,0,pill,396,29,5,2,english,m,0,0.0,20.98315678,0.33544846
5e92178e8ee4fe54b65b7c39,55,1,2024-02-24T08:26:57.419Z,english_40.wav,0,pill,396,29,5,2,english,m,1,0.1,80.64974175,0.81764939
5e92178e8ee4fe54b65b7c39,55,1,2024-02-24T08:26:57.419Z,english_40.wav,0,pill,396,29,5,2,english,m,2,0.2,5.38930518,0.17548883
5e92178e8ee4fe54b65b7c39,55,1,2024-02-24T08:26:57.419Z,english_40.wav,0,pill,396,29,5,2,english,m,3,0.3,18.83593916,0.83674413
5e92178e8ee4fe54b65b7c39,55,1,2024-02-24T08:26:57.419Z,english_40.wav,0,pill,396,29,5,2,english,m,4,0.32341667,-14.62145671,0.80890384
5e92178e8ee4fe54b65b7c39,56,1,2024-02-24T08:26:57.419Z,english_914.wav,0,pill,307,29,5,2,english,m,0,0.0,37.51857345,0.04486829
5e92178e8ee4fe54b65b7c39,56,1,2024-02-24T08:26:57.419Z,english_914.wav,0,pill,307,29,5,2,english,m,1,0.1,-30.53068311,1.18486584
5e92178e8ee4fe54b65b7c39,56,1,2024-02-24T08:26:57.419Z,english_914.wav,0,pill,307,29,5,2,english,m,2,0.2,-12.980452,1.58356311
5e92178e8ee4fe54b65b7c39,56,1,2024-02-24T08:26:57.419Z,english_914.wav,0,pill,307,29,5,2,english,m,3,0.3,-99.09260462,1.35478251
5e92178e8ee4fe54b65b7c39,56,1,2024-02-24T08:26:57.419Z,english_914.wav,0,pill,307,29,5,2,english,m,4,0.32341667,-34.91402533,1.16671671
5e92178e8ee4fe54b65b7c39,57,1,2024-02-24T08:26:57.419Z,english_43.wav,0,pill,649,29,5,2,english,m,0,0.0,22.40064366,1.74132857
5e92178e8ee4fe54b65b7c39,57,1,2024-02-24T08:26:57.419Z,english_43.wav,0,pill,649,29,5,2,english,m,1,0.1,-68.20152198,0.12763156
5e92178e8ee4fe54b65b7c39,57,1,2024-02-24T08:26:57.419Z,english_43.wav,0,pill,649,29,5,2,english,m,2,0.2,62.56231291,0.31420738
5e92178e8ee4fe54b65b7c39,57,1,2024-02-24T08:26:57.419Z,english_43.wav,0,pill,649,29,5,2,english,m,3,0.3,45.0736378,0.98572154
5e92178e8ee4fe54b65b7c39,57,1,2024-02-24T08:26:57.419Z,english_43.wav,0,pill,649,29,5,2,english,m,4,0.32341667,-36.46791656,0.91325677
5e92178e8ee4fe54b65b7c39,58,1,2024-02-24T08:26:57.419Z,english_192.wav,0,peel,289,29,5,2,english,m,0,0.0,78.04280759,0.73118961
5e92178e8ee4fe54b65b7c39,58,1,2024-02-24T08:26:57.419Z,english_192.wav,0,peel,289,29,5,2,english,m,1,0.1,-85.52188616,0.7164391
5e92178e8ee4fe54b65b7c39,58,1,2024-02-24T08:26:57.419Z,english_192.wav,0,peel,289,29,5,2,english,m,2,0.2,-14.2601202,1.68273927
5e92178e8ee4fe54b65b7c39,58,1,2024-02-24T08:26:57.419Z,english_192.wav,0,peel,289,29,5,2,english,m,3,0.3,29.76504865,0.51501418
5e92178e8ee4fe54b65b7c39,58,1,2024-02-24T08:26:57.419Z,english_192.wav,0,peel,289,29,5,2,english,m,4,0.32341667,82.81048791,1.16986294
5e92178e8ee4fe54b65b7c39,59,1,2024-02-24T08:26:57.419Z,english_519.wav,0,peel,250,29,5,2,english,m,0,0.0,-8.06946753,0.14231686
5e92178e8ee4fe54b65b7c39,59,1,2024-02-24T08:26:57.419Z,english_519.wav,0,peel,250,29,5,2,english,m,1,0.1,-66.74939098,1.74411569
5e92178e8ee4fe54b65b7c39,59,1,2024-02-24T08:26:57.419Z,english_519.wav,0,peel,250,29,5,2,english,m,2,0.2,-27.98142454,1.42967772
5e92178e8ee4fe54b65b7c39,59,1,2024-02-24T08:26:57.419Z,english_519.wav,0,peel,250,29,5,2,english,m,3,0.3,-72.75033344,0.44774012
5e92178e8ee4fe54b65b7c39,59,1,2024-02-24T08:26:57.419Z,english_519.wav,0,peel,250,29,5,2,english,m,4,0.32341667,-36.15575878,1.4256209
5e92178e8ee4fe54b65b7c39,60,1,2024-02-24T08:26:57.419Z,english_927.wav,0,peel,994,29,5,2,english,m,0,0.0,81.66311017,1.3783001
5e92178e8ee4fe54b65b7c39,60,1,2024-02-24T08:26:57.419Z,english_927.wav,0,peel,994,29,5,2,english,m,1,0.1,0.87570902,0.51323502
5e92178e8ee4fe54b65b7c39,60,1,2024-02-24T08:26:57.419Z,english_927.wav,0,peel,994,29,5,2,english,m,2,0.2,-59.21619647,0.98265958
5e92178e8ee4fe54b65b7c39,60,1,2024-02-24T08:26:57.419Z,english_927.wav,0,peel,994,29,5,2,english,m,3,0.3,-57.6787773,0.30790993
5e92178e8ee4fe54b65b7c39,60,1,2024-02-24T08:26:57.419Z,english_927.wav,0,peel,994,29,5,2,english,m,4,0.32341667,-30.87043146,1.17222751
5e92178e8ee4fe54b65b7c39,61,1,2024-02-24T08:26:57.419Z,english_936.wav,0,peel,235,29,5,2,english,m,0,0.0,48.39129511,0.54114143
5e92178e8ee4fe54b65b7c39,61,1,2024-02-24T08:26:57.419Z,english_936.wav,0,peel,235,29,5,2,english,m,1,0.1,-60.21618585,1.68728974
5e92178e8ee4fe54b65b7c39,61,1,2024-02-24T08:26:57.419Z,english_936.wav,0,peel,235,29,5,2,english,m,2,0.2,21.92845445,1.39155326
5e92178e8ee4fe54b65b7c39,61,1,2024-02-24T08:26:57.419Z,english_936.wav,0,peel,235,29,5,2,english,m,3,0.3,72.85258749,0.90488419
5e92178e8ee4fe54b65b7c39,61,1,2024-02-24T08:26:57.419Z,english_936.wav,0,peel,235,29,5,2,english,m,4,0.32341667,60.11152814,1.20326098
5e92178e8ee4fe54b65b7c39,62,1,2024-02-24T08:26:57.419Z,english_11.wav,0,peel,347,29,5,2,english,m,0,0.0,-20.45826732,1.19869378
5e92178e8ee4fe54b65b7c39,62,1,2024-02-24T08:26:57.419Z,english_11.wav,0,peel,347,29,5,2,english,m,1,0.1,-31.26113472,0.2059713
5e92178e8ee4fe54b65b7c39,62,1,2024-02-24T08:26:57.419Z,english_11.wav,0,peel,347,29,5,2,english,m,2,0.2,84.03210455,0.62296143
5e92178e8ee4fe54b65b7c39,62,1,2024-02-24T08:26:57.419Z,english_11.wav,0,peel,347,29,5,2,english,m,3,0.3,30.35463164,1.49781179
5e92178e8ee4fe54b65b7c39,62,1,2024-02-24T08:26:57.419Z,english_11.wav,0,peel,347,29,5,2,english,m,4,0.32341667,-63.36217442,0.18750748
5e92178e8ee4fe54b65b7c39,63,1,2024-02-24T08:26:57.419Z,english_168.wav,0,peel,346,29,5,2,english,m,0,0.0,-69.10300998,1.14537751
5e92178e8ee4fe54b65b7c39,63,1,2024-02-24T08:26:57.419Z,english_168.wav,0,peel,346,29,5,2,english,m,1,0.1,-24.44784794,1.06854972
5e92178e8ee4fe54b65b7c39,63,1,2024-02-24T08:26:57.419Z,english_168.wav,0,peel,346,29,5,2,english,m,2,0.2,35.31321785,0.45192262
5e92178e8ee4fe54b65b7c39,63,1,2024-02-24T08:26:57.419Z,english_168.wav,0,peel,346,29,5,2,english,m,3,0.3,-41.77498511,0.2846318
5e92178e8ee4fe54b65b7c39,63,1,2024-02-24T08:26:57.419Z,english_168.wav,0,peel,346,29,5,2,english,m,4,0.32341667,19.92389913,0.9853942
5e92178e8ee4fe54b65b7c39,64,1,2024-02-24T08:26:57.419Z,english_53.wav,0,pill,351,29,5,2,english,m,0,0.0,5.97237457,0.42230306
5e92178e8ee4fe54b65b7c39,64,1,2024-02-24T08:26:57.419Z,english_53.wav,0,pill,351,29,5,2,english,m,1,0.1,-76.12131912,0.60624646
5e92178e8ee4fe54b65b7c39,64,1,2024-02-24T08:26:57.419Z,english_53.wav,0,pill,351,29,5,2,english,m,2,0.2,55.18337216,0.26369256
5e92178e8ee4fe54b65b7c39,64,1,2024-02-24T08:26:57.419Z,english_53.wav,0,pill,351,29,5,2,english,m,3,0.3,70.32610425,1.07400525
5e92178e8ee4fe54b65b7c39,64,1,2024-02-24T08:26:57.419Z,english_53.wav,0,pill,351,29,5,2,english,m,4,0.32341667,26.40450832,0.2721545
5e92178e8ee4fe54b65b7c39,65,1,2024-02-24T08:26:57.419Z,english_272.wav,0,pill,307,29,5,2,english,m,0,0.0,61.82030971,1.51341556
5e92178e8ee4fe54b65b7c39,65,1,2024-02-24T08:26:57.419Z,english_272.wav,0,pill,307,29,5,2,english,m,1,0.1,4.16580657,0.43290826
5e92178e8ee4fe54b65b7c39,65,1,2024-02-24T08:26:57.419Z,english_272.wav,0,pill,307,29,5,2,english,m,2,0.2,-53.2567432,1.82734584
5e92178e8ee4fe54b65b7c39,65,1,2024-02-24T08:26:57.419Z,english_272.wav,0,pill,307,29,5,2,english,m,3,0.3,-52.99830768,0.22094446
5e92178e8ee4fe54b65b7c39,65,1,2024-02-24T08:26:57.419Z,english_272.wav,0,pill,307,29,5,2,english,m,4,0.32341667,-92.9943793,1.88040337
5e92178e8ee4fe54b65b7c39,66,1,2024-02-24T08:26:57.419Z,english_24.wav,0,peel,638,29,5,2,english,m,0,0.0,83.82729659,0.31203725
5e92178e8ee4fe54b65b7c39,66,1,2024-02-24T08:26:57.419Z,english_24.wav,0,peel,638,29,5,2,english,m,1,0.1,-2.54724082,1.56948954
5e92178e8ee4fe54b65b7c39,66,1,2024-02-24T08:26:57.419Z,english_24.wav,0,peel,638,29,5,2,english,m,2,0.2,88.70909739,0.87333864
5e92178e8ee4fe54b65b7c39,66,1,2024-02-24T08:26:57.419Z,english_24.wav,0,peel,638,29,5,2,english,m,3,0.3,48.93770926,0.88535019
5e92178e8ee4fe54b65b7c39,66,1,2024-02-24T08:26:57.419Z,english_24.wav,0,peel,638,29,5,2,english,m,4,0.32341667,53.25190048,0.66112496
5e92178e8ee4fe54b65b7c39,67,1,2024-02-24T08:26:57.419Z,english_502.wav,0,peel,241,29,5,2,english,m,0,0.0,-23.73065935,0.0797034
5e92178e8ee4fe54b65b7c39,67,1,2024-02-24T08:26:57.419Z,english_502.wav,0,peel,241,29,5,2,english,m,1,0.1,2.70754613,1.83600464
5e92178e8ee4fe54b65b7c39,67,1,2024-02-24T08:26:57.419Z,english_502.wav,0,peel,241,29,5,2,english,m,2,0.2,25.650451,1.48948742
5e92178e8ee4fe54b65b7c39,67,1,2024-02-24T08:26:57.419Z,english_502.wav,0,peel,241,29,5,2,english,m,3,0.3,-49.55254658,1.22465236
5e92178e8ee4fe54b65b7c39,67,1,2024-02-24T08:26:57.419Z,english_502.wav,0,peel,241,29,5,2,english,m,4,0.32341667,16.82642172,1.41984075
5e92178e8ee4fe54b65b7c39,68,1,2024-02-24T08:26:57.419Z,english_637.wav,0,peel,157,29,5,2,english,m,0,0.0,-1.71458324,1.21739028
5e92178e8ee4fe54b65b7c39,68,1,2024-02-24T08:26:57.419Z,english_637.wav,0,peel,157,29,5,2,english,m,1,0.1,-8.03758275,0.51882016
5e92178e8ee4fe54b65b7c39,68,1,2024-02-24T08:26:57.419Z,english_637.wav,0,peel,157,29,5,2,english,m,2,0.2,-8.49550443,1.63519413
5e92178e8ee4fe54b65b7c39,68,1,2024-02-24T08:26:57.419Z,english_637.wav,0,peel,157,29,5,2,english,m,3,0.3,-8.27727969,1.34863813
5e92178e8ee4fe54b65b7c39,68,1,2024-02-24T08:26:57.419Z,english_637.wav,0,peel,157,29,5,2,english,m,4,0.32341667,64.42471467,1.93003029
5e92178e8ee4fe54b65b7c39,69,1,2024-02-24T08:26:57.419Z,english_214.wav,0,peel,128,29,5,2,english,m,0,0.0,58.82847816,1.81864401
5e92178e8ee4fe54b65b7c39,69,1,2024-02-24T08:26:57.419Z,english_214.wav,0,peel,128,29,5,2,english,m,1,0.1,87.26801489,0.97241975
5e92178e8ee4fe54b65b7c39,69,1,2024-02-24T08:26:57.419Z,english_214.wav,0,peel,128,29,5,2,english,m,2,0.2,-28.10234025,1.91423566
5e92178e8ee4fe54b65b7c39,69,1,2024-02-24T08:26:57.419Z,english_214.wav,0,peel,128,29,5,2,english,m,3,0.3,-36.12188516,1.71940232
5e92178e8ee4fe54b65b7c39,69,1,2024-02-24T08:26:57.419Z,english_214.wav,0,peel,128,29,5,2,english,m,4,0.32341667,-45.93983978,0.68694042
5e92178e8ee4fe54b65b7c39,70,1,2024-02-24T08:26:57.419Z,english_111.wav,0,peel,279,29,5,2,english,m,0,0.0,43.12539807,1.84745579
5e92178e8ee4fe54b65b7c39,70,1,2024-02-24T08:26:57.419Z,english_111.wav,0,peel,279,29,5,2,english,m,1,0.1,63.99665526,0.92577031
5e92178e8ee4fe54b65b7c39,70,1,2024-02-24T08:26:57.419Z,english_111.wav,0,peel,279,29,5,2,english,m,2,0.2,86.04570556,0.31264784
5e92178e8ee4fe54b65b7c39,70,1,2024-02-24T08:26:57.419Z,english_111.wav,0,peel,279,29,5,2,english,m,3,0.3,-25.76798659,0.89352032
5e92178e8ee4fe54b65b7c39,70,1,2024-02-24T08:26:57.419Z,english_111.wav,0,peel,279,29,5,2,english,m,4,0.32341667,-36.14422463,0.32138535
5e92178e8ee4fe54b65b7c39,71,1,2024-02-24T08:26:57.419Z,english_221.wav,0,peel,277,29,5,2,english,m,0,0.0,85.84184869,1.38100565
5e92178e8ee4fe54b65b7c39,71,1,2024-02-24T08:26:57.419Z,english_221.wav,0,peel,277,29,5,2,english,m,1,0.1,-20.37513589,0.79531516
5e92178e8ee4fe54b65b7c39,71,1,2024-02-24T08:26:57.419Z,english_221.wav,0,peel,277,29,5,2,english,m,2,0.2,-89.75984637,0.9538446
5e92178e8ee4fe54b65b7c39,71,1,2024-02-24T08:26:57.419Z,english_221.wav,0,peel,277,29,5,2,english,m,3,0.3,50.66879934,1.56492426
5e92178e8ee4fe54b65b7c39,71,1,2024-02-24T08:26:57.419Z,english_221.wav,0,peel,277,29,5,2,english,m,4,0.32341667,20.92538743,1.60855456
5e92178e8ee4fe54b65b7c39,72,1,2024-02-24T08:26:57.419Z,english_364.wav,0,peel,289,29,5,2,english,m,0,0.0,19.50953027,1.75500584
5e92178e8ee4fe54b65b7c39,72,1,2024-02-24T08:26:57.419Z,english_364.wav,0,peel,289,29,5,2,english,m,1,0.1,48.44847612,1.3553812
5e92178e8ee4fe54b65b7c39,72,1,2024-02-24T08:26:57.419Z,english_364.wav,0,peel,289,29,5,2,english,m,2,0.2,-85.20645473,0.86672295
5e92178e8ee4fe54b65b7c39,72,1,2024-02-24T08:26:57.419Z,english_364.wav,0,peel,289,29,5,2,english,m,3,0.3,97.47454191,1.42489128
5e92178e8ee4fe54b65b7c39,72,1,2024-02-24T08:26:57.419Z,english_364.wav,0,peel,289,29,5,2,english,m,4,0.32341667,-45.42958463,1.19673805
5e92178e8ee4fe54b65b7c39,73,1,2024-02-24T08:26:57.419Z,english_299.wav,0,peel,130,29,5,2,english,m,0,0.0,-2.55977829,0.95716625
5e92178e8ee4fe54b65b7c39,73,1,2024-02-24T08:26:57.419Z,english_299.wav,0,peel,130,29,5,2,english,m,1,0.1,1.77446255,1.43363845
5e92178e8ee4fe54b65b7c39,73,1,2024-02-24T08:26:57.419Z,english_299.wav,0,peel,130,29,5,2,english,m,2,0.2,-18.83457859,1.1421669
5e92178e8ee4fe54b65b7c39,73,1,2024-02-24T08:26:57.419Z,english_299.wav,0,peel,130,29,5,2,english,m,3,0.3,-71.88845024,1.57148089
5e92178e8ee4fe54b65b7c39,73,1,2024-02-24T08:26:57.419Z,english_299.wav,0,peel,130,29,5,2,english,m,4,0.32341667,99.76623745,1.70410623
5e92178e8ee4fe54b65b7c39,74,1,2024-02-24T08:26:57.419Z,english_851.wav,0,pill,379,29,5,2,english,m,0,0.0,-83.90491711,1.65488062
5e92178e8ee4fe54b65b7c39,74,1,2024-02-24T08:26:57.419Z,english_851.wav,0,pill,379,29,5,2,english,m,1,0.1,92.94065497,0.14315595
5e92178e8ee4fe54b65b7c39,74,1,2024-02-24T08:26:57.419Z,english_851.wav,0,pill,379,29,5,2,english,m,2,0.2,-63.47542883,0.84481863
5e92178e8ee4fe54b65b7c39,74,1,2024-02-24T08:26:57.419Z,english_851.wav,0,pill,379,29,5,2,english,m,3,0.3,13.34025436,1.9580918
5e92178e8ee4fe54b65b7c39,74,1,2024-02-24T08:26:57.419Z,english_851.wav,0,pill,379,29,5,2,english,m,4,0.32341667,32.96474042,0.23608581
5e92178e8ee4fe54b65b7c39,75,1,2024-02-24T08:26:57.419Z,english_352.wav,0,peel,236,29,5,2,english,m,0,0.0,71.64354449,0.18312459
5e92178e8ee4fe54b65b7c39,75,1,2024-02-24T08:26:57.419Z,english_352.wav,0,peel,236,29,5,2,english,m,1,0.1,53.2516906,1.19991438
5e92178e8ee4fe54b65b7c39,75,1,2024-02-24T08:26:57.419Z,english_352.wav,0,peel,236,29,5,2,english,m,2,0.2,28.90726554,1.21095973
5e92178e8ee4fe54b65b7c39,75,1,2024-02-24T08:26:57.419Z,english_352.wav,0,peel,236,29,5,2,english,m,3,0.3,-49.8940387,1.61067418
5e92178e8ee4fe54b65b7c39,75,1,2024-02-24T08:26:57.419Z,english_352.wav,0,peel,236,29,5,2,english,m,4,0.32341667,21.76832357,1.26376439
5e92178e8ee4fe54b65b7c39,76,1,2024-02-24T08:26:57.419Z,english_533.wav,0,peel,223,29,5,2,english,m,0,0.0,-10.36570298,0.10013008
5e92178e8ee4fe54b65b7c39,76,1,2024-02-24T08:26:57.419Z,english_533.wav,0,peel,223,29,5,2,english,m,1,0.1,-67.04420928,1.73583104
5e92178e8ee4fe54b65b7c39,76,1,2024-02-24T08:26:57.419Z,english_533.wav,0,peel,223,29,5,2,english,m,2,0.2,-31.24691396,1.00550506
5e92178e8ee4fe54b65b7c39,76,1,2024-02-24T08:26:57.419Z,english_533.wav,0,peel,223,29,5,2,english,m,3,0.3,-22.73912087,1.21009828
5e92178e8ee4fe54b65b7c39,76,1,2024-02-24T08:26:57.419Z,english_533.wav,0,peel,223,29,5,2,english,m,4,0.32341667,-4.63915005,1.69946188
5e92178e8ee4fe54b65b7c39,77,1,2024-02-24T08:26:57.419Z,english_374.wav,0,peel,322,29,5,2,english,m,0,0.0,-43.98521466,1.11607514
5e92178e8ee4fe54b65b7c39,77,1,2024-02-24T08:26:57.419Z,english_374.wav,0,peel,322,29,5,2,english,m,1,0.1,-24.87181663,0.38249505
5e92178e8ee4fe54b65b7c39,77,1,2024-02-24T08:26:57.419Z,english_374.wav,0,peel,322,29,5,2,english,m,2,0.2,-29.31566683,1.56774755
5e92178e8ee4fe54b65b7c39,77,1,2024-02-24T08:26:57.419Z,english_374.wav,0,peel,322,29,5,2,english,m,3,0.3,-43.36019392,1.33837662
5e92178e8ee4fe54b65b7c39,77,1,2024-02-24T08:26:57.419Z,english_374.wav,0,peel,322,29,5,2,english,m,4,0.32341667,-35.5175379,0.68793086
5e92178e8ee4fe54b65b7c39,78,1,2024-02-24T08:26:57.419Z,english_603.wav,0,peel,838,29,5,2,english,m,0,0.0,-14.17444723,1.28295305
5e92178e8ee4fe54b65b7c39,78,1,2024-02-24T08:26:57.419Z,english_603.wav,0,peel,838,29,5,2,english,m,1,0.1,-4.64921339,0.35920956
5e92178e8ee4fe54b65b7c39,78,1,2024-02-24T08:26:57.419Z,english_603.wav,0,peel,838,29,5,2,english,m,2,0.2,-23.32469505,0.60281559
5e92178e8ee4fe54b65b7c39,78,1,2024-02-24T08:26:57.419Z,english_603.wav,0,peel,838,29,5,2,english,m,3,0.3,-59.01260874,0.58107079
5e92178e8ee4fe54b65b7c39,78,1,2024-02-24T08:26:57.419Z,english_603.wav,0,peel,838,29,5,2,english,m,4,0.32341667,88.53711532,1.19087365
5e92178e8ee4fe54b65b7c39,79,1,2024-02-24T08:26:57.419Z,english_682.wav,0,peel,198,29,5,2,english,m,0,0.0,-19.80167737,1.6131825
5e92178e8ee4fe54b65b7c39,79,1,2024-02-24T08:26:57.419Z,english_682.wav,0,peel,198,29,5,2,english,m,1,0.1,-30.98220326,1.03205672
5e92178e8ee4fe54b65b7c39,79,1,2024-02-24T08:26:57.419Z,english_682.wav,0,peel,198,29,5,2,english,m,2,0.2,26.07010201,1.08357256
5e92178e8ee4fe54b65b7c39,79,1,2024-02-24T08:26:57.419Z,english_682.wav,0,peel,198,29,5,2,english,m,3,0.3,-7.79776739,1.70642947
5e92178e8ee4fe54b65b7c39,79,1,2024-02-24T08:26:57.419Z,english_682.wav,0,peel,198,29,5,2,english,m,4,0.32341667,-10.9148898,0.86858281
5e92178e8ee4fe54b65b7c39,80,1,2024-02-24T08:26:57.419Z,english_804.wav,0,peel,270,29,5,2,english,m,0,0.0,11.23319328,0.16159815
5e92178e8ee4fe54b65b7c39,80,1,2024-02-24T08:26:57.419Z,english_804.wav,0,peel,270,29,5,2,english,m,1,0.1,-75.15189859,1.76023076
5e92178e8ee4fe54b65b7c39,80,1,2024-02-24T08:26:57.419Z,english_804.wav,0,peel,270,29,5,2,english,m,2,0.2,5.39397939,0.7355024
5e92178e8ee4fe54b65b7c39,80,1,2024-02-24T08:26:57.419Z,english_804.wav,0,peel,270,29,5,2,english,m,3,0.3,42.92141331,1.74636497
5e92178e8ee4fe54b65b7c39,80,1,2024-02-24T08:26:57.419Z,english_804.wav,0,peel,270,29,5,2,english,m,4,0.32341667,-79.84726866,1.05562007
5e92178e8ee4fe54b65b7c39,81,1,2024-02-24T08:26:57.419Z,english_407.wav,0,pill,516,29,5,2,english,m,0,0.0,-13.68776922,0.77658743
5e92178e8ee4fe54b65b7c39,81,1,2024-02-24T08:26:57.419Z,english_407.wav,0,pill,516,29,5,2,english,m,1,0.1,-57.11899702,1.53398674
5e92178e8ee4fe54b65b7c39,81,1,2024-02-24T08:26:57.419Z,english_407.wav,0,pill,516,29,5,2,english,m,2,0.2,62.94325807,0.70379875
5e92178e8ee4fe54b65b7c39,81,1,2024-02-24T08:26:57.419Z,english_407.wav,0,pill,516,29,5,2,english,m,3,0.3,-27.77030003,0.72470084
5e92178e8ee4fe54b65b7c39,81,1,2024-02-24T08:26:57.419Z,english_407.wav,0,pill,516,29,5,2,english,m,4,0.32341667,-61.90605897,0.771678
5e92178e8ee4fe54b65b7c39,82,1,2024-02-24T08:26:57.419Z,english_714.wav,0,peel,339,29,5,2,english,m,0,0.0,6.62463448,0.98205871
5e92178e8ee4fe54b65b7c39,82,1,2024-02-24T08:26:57.419Z,english_714.wav,0,peel,339,29,5,2,english,m,1,0.1,-7.37775178,1.90018259
5e92178e8ee4fe54b65b7c39,82,1,2024-02-24T08:26:57.419Z,english_714.wav,0,peel,339,29,5,2,english,m,2,0.2,-58.74003357,1.33033281
5e92178e8ee4fe54b65b7c39,82,1,2024-02-24T08:26:57.419Z,english_714.wav,0,peel,339,29,5,2,english,m,3,0.3,-38.84014254,0.20009115
5e92178e8ee4fe54b65b7c39,82,1,2024-02-24T08:26:57.419Z,english_714.wav,0,peel,339,29,5,2,english,m,4,0.32341667,-23.67047323,0.44650169
5e92178e8ee4fe54b65b7c39,83,1,2024-02-24T08:26:57.419Z,english_271.wav,0,pill,485,29,5,2,english,m,0,0.0,24.41564841,0.25667552
5e92178e8ee4fe54b65b7c39,83,1,2024-02-24T08:26:57.419Z,english_271.wav,0,pill,485,29,5,2,english,m,1,0.1,-64.42577909,1.20221217
5e92178e8ee4fe54b65b7c39,83,1,2024-02-24T08:26:57.419Z,english_271.wav,0,pill,485,29,5,2,english,m,2,0.2,32.27025317,0.24658485
5e92178e8ee4fe54b65b7c39,83,1,2024-02-24T08:26:57.419Z,english_271.wav,0,pill,485,29,5,2,english,m,3,0.3,58.71212772,1.57844265
5e92178e8ee4fe54b65b7c39,83,1,2024-02-24T08:26:57.419Z,english_271.wav,0,pill,485,29,5,2,english,m,4,0.32341667,46.7300547,1.00400066
5e92178e8ee4fe54b65b7c39,84,1,2024-02-24T08:26:57.419Z,english_7.wav,0,pill,1101,29,5,2,english,m,0,0.0,-21.06405819,1.08184232
5e92178e8ee4fe54b65b7c39,84,1,2024-02-24T08:26:57.419Z,english_7.wav,0,pill,1101,29,5,2,english,m,1,0.1,52.71042782,0.36719269
5e92178e8ee4fe54b65b7c39,84,1,2024-02-24T08:26:57.419Z,english_7.wav,0,pill,1101,29,5,2,english,m,2,0.2,-75.60464889,0.43185312
5e92178e8ee4fe54b65b7c39,84,1,2024-02-24T08:26:57.419Z,english_7.wav,0,pill,1101,29,5,2,english,m,3,0.3,-40.56941306,0.01474265
5e92178e8ee4fe54b65b7c39,84,1,2024-02-24T08:26:57.419Z,english_7.wav,0,pill,1101,29,5,2,english,m,4,0.32341667,63.70656894,0.90880476
5e92178e8ee4fe54b65b7c39,85,1,2024-02-24T08:26:57.419Z,english_655.wav,0,pill,754,29,5,2,english,m,0,0.0,84.9811401,1.09123398
5e92178e8ee4fe54b65b7c39,85,1,2024-02-24T08:26:57.419Z,english_655.wav,0,pill,754,29,5,2,english,m,1,0.1,70.1996811,0.51840547
5e92178e8ee4fe54b65b7c39,85,1,2024-02-24T08:26:57.419Z,english_655.wav,0,pill,754,29,5,2,english,m,2,0.2,-5.60681941,0.58569322
5e92178e8ee4fe54b65b7c39,85,1,2024-02-24T08:26:57.419Z,english_655.wav,0,pill,754,29,5,2,english,m,3,0.3,-33.00324328,1.11132849
5e92178e8ee4fe54b65b7c39,85,1,2024-02-24T08:26:57.419Z,english_655.wav,0,pill,754,29,5,2,english,m,4,0.32341667,24.65490624,0.28465301
5e92178e8ee4fe54b65b7c39,86,1,2024-02-24T08:26:57.419Z,english_866.wav,0,peel,331,29,5,2,english,m,0,0.0,-75.90204766,0.10539101
5e92178e8ee4fe54b65b7c39,86,1,2024-02-24T08:26:57.419Z,english_866.wav,0,peel,331,29,5,2,english,m,1,0.1,-89.66881049,1.63294926
5e92178e8ee4fe54b65b7c39,86,1,2024-02-24T08:26:57.419Z,english_866.wav,0,peel,331,29,5,2,english,m,2,0.2,-86.78535298,0.21421971
5e92178e8ee4fe54b65b7c39,86,1,2024-02-24T08:26:57.419Z,english_866.wav,0,peel,331,29,5,2,english,m,3,0.3,50.96369643,1.47001367
5e92178e8ee4fe54b65b7c39,86,1,2024-02-24T08:26:57.419Z,english_866.wav,0,peel,331,29,5,2,english,m,4,0.32341667,36.94157773,1.56453662
5e92178e8ee4fe54b65b7c39,87,1,2024-02-24T08:26:57.419Z,english_145.wav,0,pill,702,29,5,2,english,m,0,0.0,-29.75830226,1.9441914
5e92178e8ee4fe54b65b7c39,87,1,2024-02-24T08:26:57.419Z,english_145.wav,0,pill,702,29,5,2,english,m,1,0.1,0.94664025,0.04744273
5e92178e8ee4fe54b65b7c39,87,1,2024-02-24T08:26:57.419Z,english_145.wav,0,pill,702,29,5,2,english,m,2,0.2,-55.39340023,1.27144901
5e92178e8ee4fe54b65b7c39,87,1,2024-02-24T08:26:57.419Z,english_145.wav,0,pill,702,29,5,2,english,m,3,0.3,-49.58722608,0.20842421
5e92178e8ee4fe54b65b7c39,87,1,2024-02-24T08:26:57.419Z,english_145.wav,0,pill,702,29,5,2,english,m,4,0.32341667,-83.35110665,0.85478836
5e92178e8ee4fe54b65b7c39,88,1,2024-02-24T08:26:57.419Z,english_199.wav,0,pill,597,29,5,2,english,m,0,0.0,-24.89956817,0.07306367
5e92178e8ee4fe54b65b7c39,88,1,2024-02-24T08:26:57.419Z,english_199.wav,0,pill,597,29,5,2,english,m,1,0.1,-48.49200931,0.10334581
5e92178e8ee4fe54b65b7c39,88,1,2024-02-24T08:26:57.419Z,english_199.wav,0,pill,597,29,5,2,english,m,2,0.2,-89.66548778,1.49062114
5e92178e8ee4fe54b65b7c39,88,1,2024-02-24T08:26:57.419Z,english_199.wav,0,pill,597,29,5,2,english,m,3,0.3,29.20785813,0.36717513
5e92178e8ee4fe54b65b7c39,88,1,2024-02-24T08:26:57.419Z,english_199.wav,0,pill,597,29,5,2,english,m,4,0.32341667,-88.68286362,1.33179809
5e92178e8ee4fe54b65b7c39,89,1,2024-02-24T08:26:57.419Z,english_247.wav,0,pill,422,29,5,2,english,m,0,0.0,48.65693284,0.25539499
5e92178e8ee4fe54b65b7c39,89,1,2024-02-24T08:26:57.419Z,english_247.wav,0,pill,422,29,5,2,english,m,1,0.1,-27.64572099,1.09429421
5e92178e8ee4fe54b65b7c39,89,1,2024-02-24T08:26:57.419Z,english_247.wav,0,pill,422,29,5,2,english,m,2,0.2,-20.19701808,0.88115619
5e92178e8ee4fe54b65b7c39,89,1,2024-02-24T08:26:57.419Z,english_247.wav,0,pill,422,29,5,2,english,m,3,0.3,-10.74442668,1.97859338
5e92178e8ee4fe54b65b7c39,89,1,2024-02-24T08:26:57.419Z,english_247.wav,0,pill,422,29,5,2,english,m,4,0.32341667,91.42432082,0.10638235
5e92178e8ee4fe54b65b7c39,90,1,2024-02-24T08:26:57.419Z,english_178.wav,0,peel,494,29,5,2,english,m,0,0.0,-14.41838744,0.71193749
5e92178e8ee4fe54b65b7c39,90,1,2024-02-24T08:26:57.419Z,english_178.wav,0,peel,494,29,5,2,english,m,1,0.1,64.59665955,0.54024543
5e92178e8ee4fe54b65b7c39,90,1,2024-02-24T08:26:57.419Z,english_178.wav,0,peel,494,29,5,2,english,m,2,0.2,-96.76492712,1.78065704
5e92178e8ee4fe54b65b7c39,90,1,2024-02-24T08:26:57.419Z,english_178.wav,0,peel,494,29,5,2,english,m,3,0.3,-50.00654232,1.40559917
5e92178e8ee4fe54b65b7c39,90,1,2024-02-24T08:26:57.419Z,english_178.wav,0,peel,494,29,5,2,english,m,4,0.32341667,42.56426636,0.99785593
5e92178e8ee4fe54b65b7c39,91,1,2024-02-24T08:26:57.419Z,english_691.wav,0,peel,325,29,5,2,english,m,0,0.0,28.79078449,1.07683297
5e92178e8ee4fe54b65b7c39,91,1,2024-02-24T08:26:57.419Z,english_691.wav,0,peel,325,29,5,2,english,m,1,0.1,99.1184909,1.07376069
5e92178e8ee4fe54b65b7c39,91,1,2024-02-24T08:26:57.419Z,english_691.wav,0,peel,325,29,5,2,english,m,2,0.2,-54.13985733,0.28522735
5e92178e8ee4fe54b65b7c39,91,1,2024-02-24T08:26:57.419Z,english_691.wav,0,peel,325,29,5,2,english,m,3,0.3,-85.36319246,0.85701066
5e92178e8ee4fe54b65b7c39,91,1,2024-02-24T08:26:57.419Z,english_691.wav,0,peel,325,29,5,2,english,m,4,0.32341667,-73.61621094,1.71165398
5e92178e8ee4fe54b65b7c39,92,1,2024-02-24T08:26:57.419Z,english_228.wav,0,peel,351,29,5,2,english,m,0,0.0,10.35680964,1.81276751
5e92178e8ee4fe54b65b7c39,92,1,2024-02-24T08:26:57.419Z,english_228.wav,0,peel,351,29,5,2,english,m,1,0.1,-84.53961792,0.9819477
5e92178e8ee4fe54b65b7c39,92,1,2024-02-24T08:26:57.419Z,english_228.wav,0,peel,351,29,5,2,english,m,2,0.2,38.41788342,1.68506606
5e92178e8ee4fe54b65b7c39,92,1,2024-02-24T08:26:57.419Z,english_228.wav,0,peel,351,29,5,2,english,m,3,0.3,-9.18015311,0.19219142
5e92178e8ee4fe54b65b7c39,92,1,2024-02-24T08:26:57.419Z,english_228.wav,0,peel,351,29,5,2,english,m,4,0.32341667,-12.25744947,1.99636764
5e92178e8ee4fe54b65b7c39,93,1,2024-02-24T08:26:57.419Z,english_824.wav,0,peel,666,29,5,2,english,m,0,0.0,80.46503136,1.43025592
5e92178e8ee4fe54b65b7c39,93,1,2024-02-24T08:26:57.419Z,english_824.wav,0,peel,666,29,5,2,english,m,1,0.1,-48.668347,0.89138167
5e92178e8ee4fe54b65b7c39,93,1,2024-02-24T08:26:57.419Z,english_824.wav,0,peel,666,29,5,2,english,m,2,0.2,37.27765876,1.91281619
5e92178e8ee4fe54b65b7c39,93,1,2024-02-24T08:26:57.419Z,english_824.wav,0,peel,666,29,5,2,english,m,3,0.3,-91.29945309,0.71335031
5e92178e8ee4fe54b65b7c39,93,1,2024-02-24T08:26:57.419Z,english_824.wav,0,peel,666,29,5,2,english,m,4,0.32341667,14.46507007,0.89780818
5e92178e8ee4fe54b65b7c39,94,1,2024-02-24T08:26:57.419Z,english_491.wav,0,peel,852,29,5,2,english,m,0,0.0,-58.06424917,1.23740358
5e92178e8ee4fe54b65b7c39,94,1,2024-02-24T08:26:57.419Z,english_491.wav,0,peel,852,29,5,2,english,m,1,0.1,-10.73132445,0.97891215
5e92178e8ee4fe54b65b7c39,94,1,2024-02-24T08:26:57.419Z,english_491.wav,0,peel,852,29,5,2,english,m,2,0.2,17.9230478,0.17588849
5e92178e8ee4fe54b65b7c39,94,1,2024-02-24T08:26:57.419Z,english_491.wav,0,peel,852,29,5,2,english,m,3,0.3,-41.27614743,0.52166982
5e92178e8ee4fe54b65b7c39,94,1,2024-02-24T08:26:57.419Z,english_491.wav,0,peel,852,29,5,2,english,m,4,0.32341667,-30.17832464,1.65640468
5e92178e8ee4fe54b65b7c39,95,1,2024-02-24T08:26:57.419Z,english_293.wav,0,peel,295,29,5,2,english,m,0,0.0,-22.15906653,1.76366583
5e92178e8ee4fe54b65b7c39,95,1,2024-02-24T08:26:57.419Z,english_293.wav,0,peel,295,29,5,2,english,m,1,0.1,-88.62057809,0.55660069
5e92178e8ee4fe54b65b7c39,95,1,2024-02-24T08:26:57.419Z,english_293.wav,0,peel,295,29,5,2,english,m,2,0.2,-18.47979893,1.17282558
5e92178e8ee4fe54b65b7c39,95,1,2024-02-24T08:26:57.419Z,english_293.wav,0,peel,295,29,5,2,english,m,3,0.3,-74.2852497,0.49477424
5e92178e8ee4fe54b65b7c39,95,1,2024-02-24T08:26:57.419Z,english_293.wav,0,peel,295,29,5,2,english,m,4,0.32341667,59.45323022,0.66659794
5e92178e8ee4fe54b65b7c39,96,1,2024-02-24T08:26:57.419Z,english_126.wav,0,peel,292,29,5,2,english,m,0,0.0,-71.89060105,0.84485729
5e92178e8ee4fe54b65b7c39,96,1,2024-02-24T08:26:57.419Z,english_126.wav,0,peel,292,29,5,2,english,m,1,0.1,-54.28004149,1.61340521
5e92178e8ee4fe54b65b7c39,96,1,2024-02-24T08:26:57.419Z,english_126.wav,0,peel,292,29,5,2,english,m,2,0.2,67.0997098,1.10892805
5e92178e8ee4fe54b65b7c39,96,1,2024-02-24T08:26:57.419Z,english_126.wav,0,peel,292,29,5,2,english,m,3,0.3,-96.31741745,1.20133652
5e92178e8ee4fe54b65b7c39,96,1,2024-02-24T08:26:57.419Z,english_126.wav,0,peel,292,29,5,2,english,m,4,0.32341667,22.67293764,0.33470898
5e92178e8ee4fe54b65b7c39,97,1,2024-02-24T08:26:57.419Z,english_312.wav,0,peel,350,29,5,2,english,m,0,0.0,44.01610098,1.36033213
5e92178e8ee4fe54b65b7c39,97,1,2024-02-24T08:26:57.419Z,english_312.wav,0,peel,350,29,5,2,english,m,1,0.1,-34.76139374,0.08557756
5e92178e8ee4fe54b65b7c39,97,1,2024-02-24T08:26:57.419Z,english_312.wav,0,peel,350,29,5,2,english,m,2,0.2,-43.47986862,1.06509633
5e92178e8ee4fe54b65b7c39,97,1,2024-02-24T08:26:57.419Z,english_312.wav,0,peel,350,29,5,2,english,m,3,0.3,-9.79517271,0.67257935
5e92178e8ee4fe54b65b7c39,97,1,2024-02-24T08:26:57.419Z,english_312.wav,0,peel,350,29,5,2,english,m,4,0.32341667,85.48914895,0.12614926
5e92178e8ee4fe54b65b7c39,98,1,2024-02-24T08:26:57.419Z,english_968.wav,0,pill,1019,29,5,2,english,m,0,0.0,-36.76350372,0.52322451
5e92178e8ee4fe54b65b7c39,98,1,2024-02-24T08:26:57.419Z,english_968.wav,0,pill,1019,29,5,2,english,m,1,0.1,-99.8991193,0.66419732
5e92178e8ee4fe54b65b7c39,98,1,2024-02-24T08:26:57.419Z,english_968.wav,0,pill,1019,29,5,2,english,m,2,0.2,27.503089,0.44232096
5e92178e8ee4fe54b65b7c39,98,1,2024-02-24T08:26:57.419Z,english_968.wav,0,pill,1019,29,5,2,english,m,3,0.3,-34.85106147,1.90778707
5e92178e8ee4fe54b65b7c39,98,1,2024-02-24T08:26:57.419Z,english_968.wav,0,pill,1019,29,5,2,english,m,4,0.32341667,68.2869663,0.59652698
5e92178e8ee4fe54b65b7c39,99,1,2024-02-24T08:26:57.419Z,english_706.wav,0,peel,331,29,5,2,english,m,0,0.0,-14.02426606,0.18721001
5e92178e8ee4fe54b65b7c39,99,1,2024-02-24T08:26:57.419Z,english_706.wav,0,peel,331,29,5,2,english,m,1,0.1,23.81630209,0.48464851
5e92178e8ee4fe54b65b7c39,99,1,2024-02-24T08:26:57.419Z,english_706.wav,0,peel,331,29,5,2,english,m,2,0.2,94.24266466,1.46456973
5e92178e8ee4fe54b65b7c39,99,1,2024-02-24T08:26:57.419Z,english_706.wav,0,peel,331,29,5,2,english,m,3,0.3,20.03642156,0.11403632
5e92178e8ee4fe54b65b7c39,99,1,2024-02-24T08:26:57.419Z,english_706.wav,0,peel,331,29,5,2,english,m,4,0.32341667,57.92570785,0.61389372
5e92178e8ee4fe54b65b7c39,100,2,2024-02-24T08:26:57.419Z,english_720.wav,0,pill,604,29,5,2,english,m,0,0.0,85.23240719,1.23446246
5e92178e8ee4fe54b65b7c39,100,2,2024-02-24T08:26:57.419Z,english_720.wav,0,pill,604,29,5,2,english,m,1,0.1,78.65958559,0.77382892
5e92178e8ee4fe54b65b7c39,100,2,2024-02-24T08:26:57.419Z,english_720.wav,0,pill,604,29,5,2,english,m,2,0.2,-56.45174874,0.48705718
5e92178e8ee4fe54b65b7c39,100,2,2024-02-24T08:26:57.419Z,english_720.wav,0,pill,604,29,5,2,english,m,3,0.3,71.88898266,1.42335328
5e92178e8ee4fe54b65b7c39,100,2,2024-02-24T08:26:57.419Z,english_720.wav,0,pill,604,29,5,2,english,m,4,0.32341667,-9.13482,1.32495619
5e92178e8ee4fe54b65b7c39,101,2,2024-02-24T08:26:57.419Z,english_671.wav,0,pill,425,29,5,2,english,m,0,0.0,32.91930287,1.74193101
5e92178e8ee4fe54b65b7c39,101,2,2024-02-24T08:26:57.419Z,english_671.wav,0,pill,425,29,5,2,english,m,1,0.1,6.16976114,0.51820224
5e92178e8ee4fe54b65b7c39,101,2,2024-02-24T08:26:57.419Z,english_671.wav,0,pill,425,29,5,2,english,m,2,0.2,-34.00390264,0.07120536
5e92178e8ee4fe54b65b7c39,101,2,2024-02-24T08:26:57.419Z,english_671.wav,0,pill,425,29,5,2,english,m,3,0.3,18.374511,0.3828633
5e92178e8ee4fe54b65b7c39,101,2,2024-02-24T08:26:57.419Z,english_671.wav,0,pill,425,29,5,2,english,m,4,0.32341667,-2.98713897,1.2592669
5e92178e8ee4fe54b65b7c39,102,2,2024-02-24T08:26:57.419Z,english_282.wav,0,pill,421,29,5,2,english,m,0,0.0,0.76940706,0.32837311
5e92178e8ee4fe54b65b7c39,102,2,2024-02-24T08:26:57.419Z,english_282.wav,0,pill,421,29,5,2,english,m,1,0.1,85.14494722,0.39977994
5e92178e8ee4fe54b65b7c39,102,2,2024-02-24T08:26:57.419Z,english_282.wav,0,pill,421,29,5,2,english,m,2,0.2,-92.43433596,0.62065738
5e92178e8ee4fe54b65b7c39,102,2,2024-02-24T08:26:57.419Z,english_282.wav,0,pill,421,29,5,2,english,m,3,0.3,-98.42888083,0.06200237
5e92178e8ee4fe54b65b7c39,102,2,2024-02-24T08:26:57.419Z,english_282.wav,0,pill,421,29,5,2,english,m,4,0.32341667,-32.58662549,1.4193679
5e92178e8ee4fe54b65b7c39,103,2,2024-02-24T08:26:57.419Z,english_423.wav,0,peel,241,29,5,2,english,m,0,0.0,48.83941012,1.35290702
5e92178e8ee4fe54b65b7c39,103,2,2024-02-24T08:26:57.419Z,english_423.wav,0,peel,241,29,5,2,english,m,1,0.1,26.57948938,1.33919202
5e92178e8ee4fe54b65b7c39,103,2,2024-02-24T08:26:57.419Z,english_423.wav,0,peel,241,29,5,2,english,m,2,0.2,56.70545245,1.37149513
5e92178e8ee4fe54b65b7c39,103,2,2024-02-24T08:26:57.419Z,english_423.wav,0,peel,241,29,5,2,english,m,3,0.3,-62.41131033,1.11357765
5e92178e8ee4fe54b65b7c39,103,2,2024-02-24T08:26:57.419Z,english_423.wav,0,peel,241,29,5,2,english,m,4,0.32341667,78.49803502,1.20699722
5e92178e8ee4fe54b65b7c39,104,2,2024-02-24T08:26:57.419Z,english_358.wav,0,pill,333,29,5,2,english,m,0,0.0,-24.40280242,0.64702298
5e92178e8ee4fe54b65b7c39,104,2,2024-02-24T08:26:57.419Z,english_358.wav,0,pill,333,29,5,2,english,m,1,0.1,62.18566088,0.86836285
5e92178e8ee4fe54b65b7c39,104,2,2024-02-24T08:26:57.419Z,english_358.wav,0,pill,333,29,5,2,english,m,2,0.2,5.26675109,1.05826104
5e92178e8ee4fe54b65b7c39,104,2,2024-02-24T08:26:57.419Z,english_358.wav,0,pill,333,29,5,2,english,m,3,0.3,-31.91571391,1.98011631
5e92178e8ee4fe54b65b7c39,104,2,2024-02-24T08:26:57.419Z,english_358.wav,0,pill,333,29,5,2,english,m,4,0.32341667,27.35112364,0.35058307
5e92178e8ee4fe54b65b7c39,105,2,2024-02-24T08:26:57.419Z,english_306.wav,0,peel,292,29,5,2,english,m,0,0.0,-78.46406697,1.96625377
5e92178e8ee4fe54b65b7c39,105,2,2024-02-24T08:26:57.419Z,english_306.wav,0,peel,292,29,5,2,english,m,1,0.1,-60.64765069,1.9128761
5e92178e8ee4fe54b65b7c39,105,2,2024-02-24T08:26:57.419Z,english_306.wav,0,peel,292,29,5,2,english,m,2,0.2,41.654101,0.92284414
5e92178e8ee4fe54b65b7c39,105,2,2024-02-24T08:26:57.419Z,english_306.wav,0,peel,292,29,5,2,english,m,3,0.3,58.45609749,1.12546267
5e92178e8ee4fe54b65b7c39,105,2,2024-02-24T08:26:57.419Z,english_306.wav,0,peel,292,29,5,2,english,m,4,0.32341667,-89.32145871,0.77622038
5e92178e8ee4fe54b65b7c39,106,2,2024-02-24T08:26:57.419Z,english_485.wav,0,peel,513,29,5,2,english,m,0,0.0,-7.08941798,1.8206563
5e92178e8ee4fe54b65b7c39,106,2,2024-02-24T08:26:57.419Z,english_485.wav,0,peel,513,29,5,2,english,m,1,0.1,-70.64579204,0.10660577
5e92178e8ee4fe54b65b7c39,106,2,2024-02-24T08:26:57.419Z,english_485.wav,0,peel,513,29,5,2,english,m,2,0.2,23.79115045,1.92760945
5e92178e8ee4fe54b65b7c39,106,2,2024-02-24T08:26:57.419Z,english_485.wav,0,peel,513,29,5,2,english,m,3,0.3,0.80487994,0.77499174
5e92178e8ee4fe54b65b7c39,106,2,2024-02-24T08:26:57.419Z,english_485.wav,0,peel,513,29,5,2,english,m,4,0.32341667,4.72097057,1.20070888
5e92178e8ee4fe54b65b7c39,107,2,2024-02-24T08:26:57.419Z,english_732.wav,0,peel,282,29,5,2,english,m,0,0.0,-12.49530298,1.28394154
5e92178e8ee4fe54b65b7c39,107,2,2024-02-24T08:26:57.419Z,english_732.wav,0,peel,282,29,5,2,english,m,1,0.1,77.35683448,1.95772399
5e92178e8ee4fe54b65b7c39,107,2,2024-02-24T08:26:57.419Z,english_732.wav,0,peel,282,29,5,2,english,m,2,0.2,46.14200593,1.14408971
5e92178e8ee4fe54b65b7c39,107,2,2024-02-24T08:26:57.419Z,english_732.wav,0,peel,282,29,5,2,english,m,3,0.3,-17.19403126,0.21034957
5e92178e8ee4fe54b65b7c39,107,2,2024-02-24T08:26:57.419Z,english_732.wav,0,peel,282,29,5,2,english,m,4,0.32341667,-81.60069167,0.50538316
5e92178e8ee4fe54b65b7c39,108,2,2024-02-24T08:26:57.419Z,english_437.wav,0,peel,452,29,5,2,english,m,0,0.0,61.91803223,0.36516876
5e92178e8ee4fe54b65b7c39,108,2,2024-02-24T08:26:57.419Z,english_437.wav,0,peel,452,29,5,2,english,m,1,0.1,0.99543568,0.43500315
5e92178e8ee4fe54b65b7c39,108,2,2024-02-24T08:26:57.419Z,english_437.wav,0,peel,452,29,5,2,english,m,2,0.2,-50.96874522,1.25398366
5e92178e8ee4fe54b65b7c39,108,2,2024-02-24T08:26:57.419Z,english_437.wav,0,peel,452,29,5,2,english,m,3,0.3,-47.73319396,0.60570222
5e92178e8ee4fe54b65b7c39,108,2,2024-02-24T08:26:57.419Z,english_437.wav,0,peel,452,29,5,2,english,m,4,0.32341667,15.35939938,0.97208355
5e92178e8ee4fe54b65b7c39,109,2,2024-02-24T08:26:57.419Z,english_743.wav,0,pill,263,29,5,2,english,m,0,0.0,-28.24983145,1.42102626
5e92178e8ee4fe54b65b7c39,109,2,2024-02-24T08:26:57.419Z,english_743.wav,0,pill,263,29,5,2,english,m,1,0.1,71.30498545,0.84283155
5e92178e8ee4fe54b65b7c39,109,2,2024-02-24T08:26:57.419Z,english_743.wav,0,pill,263,29,5,2,english,m,2,0.2,-89.00652632,0.82757129
5e92178e8ee4fe54b65b7c39,109,2,2024-02-24T08:26:57.419Z,english_743.wav,0,pill,263,29,5,2,english,m,3,0.3,3.43441779,1.38808557
5e92178e8ee4fe54b65b7c39,109,2,2024-02-24T08:26:57.419Z,english_743.wav,0,pill,263,29,5,2,english,m,4,0.32341667,-16.71659348,0.28501565
5e92178e8ee4fe54b65b7c39,110,2,2024-02-24T08:26:57.419Z,english_295.wav,0,peel,455,29,5,2,english,m,0,0.0,-76.51454746,1.12273409
5e92178e8ee4fe54b65b7c39,110,2,2024-02-24T08:26:57.419Z,english_295.wav,0,peel,455,29,5,2,english,m,1,0.1,-96.9380047,0.2018376
5e92178e8ee4fe54b65b7c39,110,2,2024-02-24T08:26:57.419Z,english_295.wav,0,peel,455,29,5,2,english,m,2,0.2,-72.79782389,1.81703153
5e92178e8ee4fe54b65b7c39,110,2,2024-02-24T08:26:57.419Z,english_295.wav,0,peel,455,29,5,2,english,m,3,0.3,-31.86888898,0.31799467
5e92178e8ee4fe54b65b7c39,110,2,2024-02-24T08:26:57.419Z,english_295.wav,0,peel,455,29,5,2,english,m,4,0.32341667,-51.47839766,0.71777059
5e92178e8ee4fe54b65b7c39,111,2,2024-02-24T08:26:57.419Z,english_733.wav,0,peel,283,29,5,2,english,m,0,0.0,-77.09135463,1.21028291
5e92178e8ee4fe54b65b7c39,111,2,2024-02-24T08:26:57.419Z,english_733.wav,0,peel,283,29,5,2,english,m,1,0.1,-30.68901019,1.14931675
5e92178e8ee4fe54b65b7c39,111,2,2024-02-24T08:26:57.419Z,english_733.wav,0,peel,283,29,5,2,english,m,2,0.2,-27.18135709,1.68866455
5e92178e8ee4fe54b65b7c39,111,2,2024-02-24T08:26:57.419Z,english_733.wav,0,peel,283,29,5,2,english,m,3,0.3,-10.74804936,0.29390693
5e92178e8ee4fe54b65b7c39,111,2,2024-02-24T08:26:57.419Z,english_733.wav,0,peel,283,29,5,2,english,m,4,0.32341667,-57.14773718,0.43305962
5e92178e8ee4fe54b65b7c39,112,2,2024-02-24T08:26:57.419Z,english_967.wav,0,pill,255,29,5,2,english,m,0,0.0,-33.19777689,0.76720641
5e92178e8ee4fe54b65b7c39,112,2,2024-02-24T08:26:57.419Z,english_967.wav,0,pill,255,29,5,2,english,m,1,0.1,83.84847924,1.4094361
5e92178e8ee4fe54b65b7c39,112,2,2024-02-24T08:26:57.419Z,english_967.wav,0,pill,255,29,5,2,english,m,2,0.2,81.27362124,0.74435637
5e92178e8ee4fe54b65b7c39,112,2,2024-02-24T08:26:57.419Z,english_967.wav,0,pill,255,29,5,2,english,m,3,0.3,22.78466805,0.29904584
5e92178e8ee4fe54b65b7c39,112,2,2024-02-24T08:26:57.419Z,english_967.wav,0,pill,255,29,5,2,english,m,4,0.32341667,16.56894366,0.47687807
5e92178e8ee4fe54b65b7c39,113,2,2024-02-24T08:26:57.419Z,english_136.wav,0,pill,399,29,5,2,english,m,0,0.0,12.04186247,0.70846626
5e92178e8ee4fe54b65b7c39,113,2,2024-02-24T08:26:57.419Z,english_136.wav,0,pill,399,29,5,2,english,m,1,0.1,-56.97950323,1.3229906
5e92178e8ee4fe54b65b7c39,113,2,2024-02-24T08:26:57.419Z,english_136.wav,0,pill,399,29,5,2,english,m,2,0.2,32.29793995,0.25119571
5e92178e8ee4fe54b65b7c39,113,2,2024-02-24T08:26:57.419Z,english_136.wav,0,pill,399,29,5,2,english,m,3,0.3,40.05814767,1.28510755
5e92178e8ee4fe54b65b7c39,113,2,2024-02-24T08:26:57.419Z,english_136.wav,0,pill,399,29,5,2,english,m,4,0.32341667,61.40693937,1.20697433
5e92178e8ee4fe54b65b7c39,114,2,2024-02-24T08:26:57.419Z,english_543.wav,0,pill,594,29,5,2,english,m,0,0.0,13.74009622,0.63900578
5e92178e8ee4fe54b65b7c39,114,2,2024-02-24T08:26:57.419Z,english_543.wav,0,pill,594,29,5,2,english,m,1,0.1,51.80972721,1.6206981
5e92178e8ee4fe54b65b7c39,114,2,2024-02-24T08:26:57.419Z,english_543.wav,0,pill,594,29,5,2,english,m,2,0.2,86.3964352,0.03304675
5e92178e8ee4fe54b65b7c39,114,2,2024-02-24T08:26:57.419Z,english_543.wav,0,pill,594,29,5,2,english,m,3,0.3,-66.39783761,1.7049324
5e92178e8ee4fe54b65b7c39,114,2,2024-02-24T08:26:57.419Z,english_543.wav,0,pill,594,29,5,2,english,m,4,0.32341667,31.11863834,1.46507556
5e92178e8ee4fe54b65b7c39,115,2,2024-02-24T08:26:57.419Z,english_369.wav,0,peel,245,29,5,2,english,m,0,0.0,-12.14177447,1.64093778
5e92178e8ee4fe54b65b7c39,115,2,2024-02-24T08:26:57.419Z,english_369.wav,0,peel,245,29,5,2,english,m,1,0.1,76.29699147,1.47479283
5e92178e8ee4fe54b65b7c39,115,2,2024-02-24T08:26:57.419Z,english_369.wav,0,peel,245,29,5,2,english,m,2,0.2,-85.49552365,1.31757561
5e92178e8ee4fe54b65b7c39,115,2,2024-02-24T08:26:57.419Z,english_369.wav,0,peel,245,29,5,2,english,m,3,0.3,-68.94608988,1.92077404
5e92178e8ee4fe54b65b7c39,115,2,2024-02-24T08:26:57.419Z,english_369.wav,0,peel,245,29,5,2,english,m,4,0.32341667,40.32615784,1.4628922
5e92178e8ee4fe54b65b7c39,116,2,2024-02-24T08:26:57.419Z,english_532.wav,0,peel,318,29,5,2,english,m,0,0.0,-19.59321792,1.69826346
5e92178e8ee4fe54b65b7c39,116,2,2024-02-24T08:26:57.419Z,english_532.wav,0,peel,318,29,5,2,english,m,1,0.1,84.44945775,1.19849103
5e92178e8ee4fe54b65b7c39,116,2,2024-02-24T08:26:57.419Z,english_532.wav,0,peel,318,29,5,2,english,m,2,0.2,-5.6477907,0.05164805
5e92178e8ee4fe54b65b7c39,116,2,2024-02-24T08:26:57.419Z,english_532.wav,0,peel,318,29,5,2,english,m,3,0.3,-66.11375502,0.74129516
5e92178e8ee4fe54b65b7c39,116,2,2024-02-24T08:26:57.419Z,english_532.wav,0,peel,318,29,5,2,english,m,4,0.32341667,-46.16722618,0.11393119
5e92178e8ee4fe54b65b7c39,117,2,2024-02-24T08:26:57.419Z,english_904.wav,0,peel,316,29,5,2,english,m,0,0.0,54.28678019,0.96279628
5e92178e8ee4fe54b65b7c39,117,2,2024-02-24T08:26:57.419Z,english_904.wav,0,peel,316,29,5,2,english,m,1,0.1,-13.24417266,0.20212872
5e92178e8ee4fe54b65b7c39,117,2,2024-02-24T08:26:57.419Z,english_904.wav,0,peel,316,29,5,2,english,m,2,0.2,18.94666669,1.39381084
5e92178e8ee4fe54b65b7c39,117,2,2024-02-24T08:26:57.419Z,english_904.wav,0,peel,316,29,5,2,english,m,3,0.3,-21.97018078,1.57516234
5e92178e8ee4fe54b65b7c39,117,2,2024-02-24T08:26:57.419Z,english_904.wav,0,peel,316,29,5,2,english,m,4,0.32341667,4.05624244,0.97228596
5e92178e8ee4fe54b65b7c39,118,2,2024-02-24T08:26:57.419Z,english_307.wav,0,peel,348,29,5,2,english,m,0,0.0,-38.93106299,1.91951228
5e92178e8ee4fe54b65b7c39,118,2,2024-02-24T08:26:57.419Z,english_307.wav,0,peel,348,29,5,2,english,m,1,0.1,-30.40144858,0.50419792
5e92178e8ee4fe54b65b7c39,118,2,2024-02-24T08:26:57.419Z,english_307.wav,0,peel,348,29,5,2,english,m,2,0.2,2.19081651,0.76602689
5e92178e8ee4fe54b65b7c39,118,2,2024-02-24T08:26:57.419Z,english_307.wav,0,peel,348,29,5,2,english,m,3,0.3,30.82741361,0.59904457
5e92178e8ee4fe54b65b7c39,118,2,2024-02-24T08:26:57.419Z,english_307.wav,0,peel,348,29,5,2,english,m,4,0.32341667,46.9007513,1.94941235
5e92178e8ee4fe54b65b7c39,119,2,2024-02-24T08:26:57.419Z,english_64.wav,0,peel,2711,29,5,2,english,m,0,0.0,-77.75081389,0.01503168
5e92178e8ee4fe54b65b7c39,119,2,2024-02-24T08:26:57.419Z,english_64.wav,0,peel,2711,29,5,2,english,m,1,0.1,47.79712302,0.51971923
5e92178e8ee4fe54b65b7c39,119,2,2024-02-24T08:26:57.419Z,english_64.wav,0,peel,2711,29,5,2,english,m,2,0.2,-98.04646937,1.01128345
5e92178e8ee4fe54b65b7c39,119,2,2024-02-24T08:26:57.419Z,english_64.wav,0,peel,2711,29,5,2,english,m,3,0.3,-20.17707595,0.69563875
5e92178e8ee4fe54b65b7c39,119,2,2024-02-24T08:26:57.419Z,english_64.wav,0,peel,2711,29,5,2,english,m,4,0.32341667,53.05828969,1.51814807
5e92178e8ee4fe54b65b7c39,120,2,2024-02-24T08:26:57.419Z,english_283.wav,0,peel,822,29,5,2,english,m,0,0.0,-27.01977409,1.23470843
5e92178e8ee4fe54b65b7c39,120,2,2024-02-24T08:26:57.419Z,english_283.wav,0,peel,822,29,5,2,english,m,1,0.1,-58.6063919,0.41737987
5e92178e8ee4fe54b65b7c39,120,2,2024-02-24T08:26:57.419Z,english_283.wav,0,peel,822,29,5,2,english,m,2,0.2,36.15867228,0.64455365
5e92178e8ee4fe54b65b7c39,120,2,2024-02-24T08:26:57.419Z,english_283.wav,0,peel,822,29,5,2,english,m,3,0.3,-77.91689069,1.80541824
5e92178e8ee4fe54b65b7c39,120,2,2024-02-24T08:26:57.419Z,english_283.wav,0,peel,822,29,5,2,english,m,4,0.32341667,-77.99680679,1.86024907
5e92178e8ee4fe54b65b7c39,121,2,2024-02-24T08:26:57.419Z,english_487.wav,0,peel,344,29,5,2,english,m,0,0.0,57.34447058,0.27098038
5e92178e8ee4fe54b65b7c39,121,2,2024-02-24T08:26:57.419Z,english_487.wav,0,peel,344,29,5,2,english,m,1,0.1,-38.59224607,1.03105808
5e92178e8ee4fe54b65b7c39,121,2,2024-02-24T08:26:57.419Z,english_487.wav,0,peel,344,29,5,2,english,m,2,0.2,-30.93562102,0.17810411
5e92178e8ee4fe54b65b7c39,121,2,2024-02-24T08:26:57.419Z,english_487.wav,0,peel,344,29,5,2,english,m,3,0.3,-21.39452484,0.81608244
5e92178e8ee4fe54b65b7c39,121,2,2024-02-24T08:26:57.419Z,english_487.wav,0,peel,344,29,5,2,english,m,4,0.32341667,-98.93333205,1.1056793
5e92178e8ee4fe54b65b7c39,122,2,2024-02-24T08:26:57.419Z,english_716.wav,0,peel,509,29,5,2,english,m,0,0.0,-41.01159081,1.70683796
5e92178e8ee4fe54b65b7c39,122,2,2024-02-24T08:26:57.419Z,english_716.wav,0,peel,509,29,5,2,english,m,1,0.1,-51.78631031,1.57787804
5e92178e8ee4fe54b65b7c39,122,2,2024-02-24T08:26:57.419Z,english_716.wav,0,peel,509,29,5,2,english,m,2,0.2,-25.7252513,1.76538287
5e92178e8ee4fe54b65b7c39,122,2,2024-02-24T08:26:57.419Z,english_716.wav,0,peel,509,29,5,2,english,m,3,0.3,78.18950514,1.34280163
5e92178e8ee4fe54b65b7c39,122,2,2024-02-24T08:26:57.419Z,english_716.wav,0,peel,509,29,5,2,english,m,4,0.32341667,-26.78025651,1.89346788
5e92178e8ee4fe54b65b7c39,123,2,2024-02-24T08:26:57.419Z,english_660.wav,0,pill,800,29,5,2,english,m,0,0.0,-18.17224728,0.25133372
5e92178e8ee4fe54b65b7c39,123,2,2024-02-24T08:26:57.419Z,english_660.wav,0,pill,800,29,5,2,english,m,1,0.1,-51.94390165,0.1756709
5e92178e8ee4fe54b65b7c39,123,2,2024-02-24T08:26:57.419Z,english_660.wav,0,pill,800,29,5,2,english,m,2,0.2,-79.57293034,0.660284
5e92178e8ee4fe54b65b7c39,123,2,2024-02-24T08:26:57.419Z,english_660.wav,0,pill,800,29,5,2,english,m,3,0.3,67.99606973,1.08301436
5e92178e8ee4fe54b65b7c39,123,2,2024-02-24T08:26:57.419Z,english_660.wav,0,pill,800,29,5,2,english,m,4,0.32341667,-2.00416122,0.81155284
5e92178e8ee4fe54b65b7c39,124,2,2024-02-24T08:26:57.419Z,english_33.wav,0,peel,285,29,5,2,english,m,0,0.0,13.53683954,1.37746345
5e92178e8ee4fe54b65b7c39,124,2,2024-02-24T08:26:57.419Z,english_33.wav,0,peel,285,29,5,2,english,m,1,0.1,-23.61599557,1.14776292
5e92178e8ee4fe54b65b7c39,124,2,2024-02-24T08:26:57.419Z,english_33.wav,0,peel,285,29,5,2,english,m,2,0.2,60.58241295,1.15899553
5e92178e8ee4fe54b65b7c39,124,2,2024-02-24T08:26:57.419Z,english_33.wav,0,peel,285,29,5,2,english,m,3,0.3,-2.03686091,0.64766031
5e92178e8ee4fe54b65b7c39,124,2,2024-02-24T08:26:57.419Z,english_33.wav,0,peel,285,29,5,2,english,m,4,0.32341667,79.90239576,1.69768968
5e92178e8ee4fe54b65b7c39,125,2,2024-02-24T08:26:57.419Z,english_817.wav,0,peel,330,29,5,2,english,m,0,0.0,58.06319333,0.77394069
5e92178e8ee4fe54b65b7c39,125,2,2024-02-24T08:26:57.419Z,english_817.wav,0,peel,330,29,5,2,english,m,1,0.1,0.91206114,0.81778066
5e92178e8ee4fe54b65b7c39,125,2,2024-02-24T08:26:57.419Z,english_817.wav,0,peel,330,29,5,2,english,m,2,0.2,-27.80824757,1.48752315
5e92178e8ee4fe54b65b7c39,125,2,2024-02-24T08:26:57.419Z,english_817.wav,0,peel,330,29,5,2,english,m,3,0.3,-73.7491051,0.41888886
5e92178e8ee4fe54b65b7c39,125,2,2024-02-24T08:26:57.419Z,english_817.wav,0,peel,330,29,5,2,english,m,4,0.32341667,69.75698508,0.93012443
5e92178e8ee4fe54b65b7c39,126,2,2024-02-24T08:26:57.419Z,english_578.wav,0,peel,247,29,5,2,english,m,0,0.0,-76.90925642,1.21901793
5e92178e8ee4fe54b65b7c39,126,2,2024-02-24T08:26:57.419Z,english_578.wav,0,peel,247,29,5,2,english,m,1,0.1,-68.48676994,1.4118495
5e92178e8ee4fe54b65b7c39,126,2,2024-02-24T08:26:57.419Z,english_578.wav,0,peel,247,29,5,2,english,m,2,0.2,36.30884798,0.05521057
5e92178e8ee4fe54b65b7c39,126,2,2024-02-24T08:26:57.419Z,english_578.wav,0,peel,247,29,5,2,english,m,3,0.3,-36.82491274,1.45629656
5e92178e8ee4fe54b65b7c39,126,2,2024-02-24T08:26:57.419Z,english_578.wav,0,peel,247,29,5,2,english,m,4,0.32341667,-4.04717442,1.80268091
5e92178e8ee4fe54b65b7c39,127,2,2024-02-24T08:26:57.419Z,english_166.wav,0,peel,302,29,5,2,english,m,0,0.0,37.27670025,1.42766663
5e92178e8ee4fe54b65b7c39,127,2,2024-02-24T08:26:57.419Z,english_166.wav,0,peel,302,29,5,2,english,m,1,0.1,34.38847046,0.72731767
5e92178e8ee4fe54b65b7c39,127,2,2024-02-24T08:26:57.419Z,english_166.wav,0,peel,302,29,5,2,english,m,2,0.2,49.91842175,1.80608275
5e92178e8ee4fe54b65b7c39,127,2,2024-02-24T08:26:57.419Z,english_166.wav,0,peel,302,29,5,2,english,m,3,0.3,56.9541748,1.91598421
5e92178e8ee4fe54b65b7c39,127,2,2024-02-24T08:26:57.419Z,english_166.wav,0,peel,302,29,5,2,english,m,4,0.32341667,10.97290623,1.21084105
5e92178e8ee4fe54b65b7c39,128,2,2024-02-24T08:26:57.419Z,english_27.wav,0,peel,241,29,5,2,english,m,0,0.0,-6.18374659,1.89085405
5e92178e8ee4fe54b65b7c39,128,2,2024-02-24T08:26:57.419Z,english_27.wav,0,peel,241,29,5,2,english,m,1,0.1,32.21095844,0.80138328
5e92178e8ee4fe54b65b7c39,128,2,2024-02-24T08:26:57.419Z,english_27.wav,0,peel,241,29,5,2,english,m,2,0.2,21.02729748,1.01248602
5e92178e8ee4fe54b65b7c39,128,2,2024-02-24T08:26:57.419Z,english_27.wav,0,peel,241,29,5,2,english,m,3,0.3,4.79829383,1.67412938
5e92178e8ee4fe54b65b7c39,128,2,2024-02-24T08:26:57.419Z,english_27.wav,0,peel,241,29,5,2,english,m,4,0.32341667,-70.7577659,0.3387802
5e92178e8ee4fe54b65b7c39,129,2,2024-02-24T08:26:57.419Z,english_319.wav,0,peel,331,29,5,2,english,m,0,0.0,-84.37928886,1.17141126
5e92178e8ee4fe54b65b7c39,129,2,2024-02-24T08:26:57.419Z,english_319.wav,0,peel,331,29,5,2,english,m,1,0.1,-52.76931383,1.13741792
5e92178e8ee4fe54b65b7c39,129,2,2024-02-24T08:26:57.419Z,english_319.wav,0,peel,331,29,5,2,english,m,2,0.2,56.06390533,0.91618882
5e92178e8ee4fe54b65b7c39,129,2,2024-02-24T08:26:57.419Z,english_319.wav,0,peel,331,29,5,2,english,m,3,0.3,-69.46438111,0.7080153
5e92178e8ee4fe54b65b7c39,129,2,2024-02-24T08:26:57.419Z,english_319.wav,0,peel,331,29,5,2,english,m,4,0.32341667,91.86152445,0.5910213
5e92178e8ee4fe54b65b7c39,130,2,2024-02-24T08:26:57.419Z,english_462.wav,0,peel,167,29,5,2,english,m,0,0.0,-35.73318704,1.53267708
5e92178e8ee4fe54b65b7c39,130,2,2024-02-24T08:26:57.419Z,english_462.wav,0,peel,167,29,5,2,english,m,1,0.1,-5.65949109,1.98369384
5e92178e8ee4fe54b65b7c39,130,2,2024-02-24T08:26:57.419Z,english_462.wav,0,peel,167,29,5,2,english,m,2,0.2,-49.47542688,1.31270994
5e92178e8ee4fe54b65b7c39,130,2,2024-02-24T08:26:57.419Z,english_462.wav,0,peel,167,29,5,2,english,m,3,0.3,-98.18570674,1.26289606
5e92178e8ee4fe54b65b7c39,130,2,2024-02-24T08:26:57.419Z,english_462.wav,0,peel,167,29,5,2,english,m,4,0.32341667,-16.34927785,1.36496903
5e92178e8ee4fe54b65b7c39,131,2,2024-02-24T08:26:57.419Z,english_511.wav,0,peel,164,29,5,2,english,m,0,0.0,-54.05076571,1.68448531
5e92178e8ee4fe54b65b7c39,131,2,2024-02-24T08:26:57.419Z,english_511.wav,0,peel,164,29,5,2,english,m,1,0.1,58.21305336,0.64957271
5e92178e8ee4fe54b65b7c39,131,2,2024-02-24T08:26:57.419Z,english_511.wav,0,peel,164,29,5,2,english,m,2,0.2,93.28984864,1.47534814
5e92178e8ee4fe54b65b7c39,131,2,2024-02-24T08:26:57.419Z,english_511.wav,0,peel,164,29,5,2,english,m,3,0.3,-93.08437199,1.38615571
5e92178e8ee4fe54b65b7c39,131,2,2024-02-24T08:26:57.419Z,english_511.wav,0,peel,164,29,5,2,english,m,4,0.32341667,48.49476441,0.71972648
5e92178e8ee4fe54b65b7c39,132,2,2024-02-24T08:26:57.419Z,english_639.wav,0,peel,449,29,5,2,english,m,0,0.0,-8.64176861,1.80061108
5e92178e8ee4fe54b65b7c39,132,2,2024-02-24T08:26:57.419Z,english_639.wav,0,peel,449,29,5,2,english,m,1,0.1,-2.28240571,0.32075858
5e92178e8ee4fe54b65b7c39,132,2,2024-02-24T08:26:57.419Z,english_639.wav,0,peel,449,29,5,2,english,m,2,0.2,61.07673865,0.35362442
5e92178e8ee4fe54b65b7c39,132,2,2024-02-24T08:26:57.419Z,english_639.wav,0,peel,449,29,5,2,english,m,3,0.3,-20.33592136,1.48415136
5e92178e8ee4fe54b65b7c39,132,2,2024-02-24T08:26:57.419Z,english_639.wav,0,peel,449,29,5,2,english,m,4,0.32341667,-24.05835486,0.14560931
5e92178e8ee4fe54b65b7c39,133,2,2024-02-24T08:26:57.419Z,english_648.wav,0,peel,223,29,5,2,english,m,0,0.0,-36.17742204,0.57576188
5e92178e8ee4fe54b65b7c39,133,2,2024-02-24T08:26:57.419Z,english_648.wav,0,peel,223,29,5,2,english,m,1,0.1,30.10697278,1.1310908
5e92178e8ee4fe54b65b7c39,133,2,2024-02-24T08:26:57.419Z,english_648.wav,0,peel,223,29,5,2,english,m,2,0.2,-67.31320052,1.67112441
5e92178e8ee4fe54b65b7c39,133,2,2024-02-24T08:26:57.419Z,english_648.wav,0,peel,223,29,5,2,english,m,3,0.3,-10.94597212,0.39641968
5e92178e8ee4fe54b65b7c39,133,2,2024-02-24T08:26:57.419Z,english_648.wav,0,peel,223,29,5,2,english,m,4,0.32341667,72.59648235,1.93789316
5e92178e8ee4fe54b65b7c39,134,2,2024-02-24T08:26:57.419Z,english_636.wav,0,peel,97,29,5,2,english,m,0,0.0,-20.37295141,1.69276631
5e92178e8ee4fe54b65b7c39,134,2,2024-02-24T08:26:57.419Z,english_636.wav,0,peel,97,29,5,2,english,m,1,0.1,-84.7288786,1.69908726
5e92178e8ee4fe54b65b7c39,134,2,2024-02-24T08:26:57.419Z,english_636.wav,0,peel,97,29,5,2,english,m,2,0.2,24.84265136,1.44836333
5e92178e8ee4fe54b65b7c39,134,2,2024-02-24T08:26:57.419Z,english_636.wav,0,peel,97,29,5,2,english,m,3,0.3,-9.2443485,1.36647816
5e92178e8ee4fe54b65b7c39,134,2,2024-02-24T08:26:57.419Z,english_636.wav,0,peel,97,29,5,2,english,m,4,0.32341667,49.04875774,0.88112598
5e92178e8ee4fe54b65b7c39,135,2,2024-02-24T08:26:57.419Z,english_488.wav,0,peel,273,29,5,2,english,m,0,0.0,7.19120882,0.55609806
5e92178e8ee4fe54b65b7c39,135,2,2024-02-24T08:26:57.419Z,english_488.wav,0,peel,273,29,5,2,english,m,1,0.1,11.64873536,1.36121935
5e92178e8ee4fe54b65b7c39,135,2,2024-02-24T08:26:57.419Z,english_488.wav,0,peel,273,29,5,2,english,m,2,0.2,59.26032861,0.93872915
5e92178e8ee4fe54b65b7c39,135,2,2024-02-24T08:26:57.419Z,english_488.wav,0,peel,273,29,5,2,english,m,3,0.3,-31.0631162,1.52041262
5e92178e8ee4fe54b65b7c39,135,2,2024-02-24T08:26:57.419Z,english_488.wav,0,peel,273,29,5,2,english,m,4,0.32341667,23.8619583,1.83140972
5e92178e8ee4fe54b65b7c39,136,2,2024-02-24T08:26:57.419Z,english_205.wav,0,peel,285,29,5,2,english,m,0,0.0,55.03693902,1.41699591
5e92178e8ee4fe54b65b7c39,136,2,2024-02-24T08:26:57.419Z,english_205.wav,0,peel,285,29,5,2,english,m,1,0.1,59.05347117,0.25749205
5e92178e8ee4fe54b65b7c39,136,2,2024-02-24T08:26:57.419Z,english_205.wav,0,peel,285,29,5,2,english,m,2,0.2,-51.93258482,1.78695407
5e92178e8ee4fe54b65b7c39,136,2,2024-02-24T08:26:57.419Z,english_205.wav,0,peel,285,29,5,2,english,m,3,0.3,-18.66886592,0.11157042
5e92178e8ee4fe54b65b7c39,136,2,2024-02-24T08:26:57.419Z,english_205.wav,0,peel,285,29,5,2,english,m,4,0.32341667,-25.16213195,1.74030417
5e92178e8ee4fe54b65b7c39,137,2,2024-02-24T08:26:57.419Z,english_780.wav,0,peel,634,29,5,2,english,m,0,0.0,-15.29393571,0.99089132
5e92178e8ee4fe54b65b7c39,137,2,2024-02-24T08:26:57.419Z,english_780.wav,0,peel,634,29,5,2,english,m,1,0.1,-51.86215325,0.3216491
5e92178e8ee4fe54b65b7c39,137,2,2024-02-24T08:26:57.419Z,english_780.wav,0,peel,634,29,5,2,english,m,2,0.2,-27.43889325,1.38797184
5e92178e8ee4fe54b65b7c39,137,2,2024-02-24T08:26:57.419Z,english_780.wav,0,peel,634,29,5,2,english,m,3,0.3,37.56841363,0.96060741
5e92178e8ee4fe54b65b7c39,137,2,2024-02-24T08:26:57.419Z,english_780.wav,0,peel,634,29,5,2,english,m,4,0.32341667,-40.51855496,0.89048449
5e92178e8ee4fe54b65b7c39,138,2,2024-02-24T08:26:57.419Z,english_375.wav,0,peel,318,29,5,2,english,m,0,0.0,18.096335,0.30735121
5e92178e8ee4fe54b65b7c39,138,2,2024-02-24T08:26:57.419Z,english_375.wav,0,peel,318,29,5,2,english,m,1,0.1,-55.77885891,1.17808606
5e92178e8ee4fe54b65b7c39,138,2,2024-02-24T08:26:57.419Z,english_375.wav,0,peel,318,29,5,2,english,m,2,0.2,-79.80603762,1.03107785
5e92178e8ee4fe54b65b7c39,138,2,2024-02-24T08:26:57.419Z,english_375.wav,0,peel,318,29,5,2,english,m,3,0.3,-57.7566014,0.46519988
5e92178e8ee4fe54b65b7c39,138,2,2024-02-24T08:26:57.419Z,english_375.wav,0,peel,318,29,5,2,english,m,4,0.32341667,74.14673873,1.41875211
5e92178e8ee4fe54b65b7c39,139,2,2024-02-24T08:26:57.419Z,english_419.wav,0,peel,414,29,5,2,english,m,0,0.0,74.10926047,0.423980314
5e92178e8ee4fe54b65b7c39,139,2,2024-02-24T08:26:57.419Z,english_419.wav,0,peel,414,29,5,2,english,m,1,0.1,-50.44969368,1.12483838
5e92178e8ee4fe54b65b7c39,139,2,2024-02-24T08:26:57.419Z,english_419.wav,0,peel,414,29,5,2,english,m,2,0.2,-38.37630765,0.473465541
5e92178e8ee4fe54b65b7c39,139,2,2024-02-24T08:26:57.419Z,english_419.wav,0,peel,414,29,5,2,english,m,3,0.3,-57.54140712,0.000838613621
5e92178e8ee4fe54b65b7c39,139,2,2024-02-24T08:26:57.419Z,english_419.wav,0,peel,414,29,5,2,english,m,4,0.32341667,48.12555486,0.389285402
5e92178e8ee4fe54b65b7c39,140,2,2024-02-24T08:26:57.419Z,english_130.wav,0,peel,889,29,5,2,english,m,0,0.0,-27.4951122,0.83907871
5e92178e8ee4fe54b65b7c39,140,2,2024-02-24T08:26:57.419Z,english_130.wav,0,peel,889,29,5,2,english,m,1,0.1,-38.07775804,1.38560413
5e92178e8ee4fe54b65b7c39,140,2,2024-02-24T08:26:57.419Z,english_130.wav,0,peel,889,29,5,2,english,m,2,0.2,-9.69340922,0.50531735
5e92178e8ee4fe54b65b7c39,140,2,2024-02-24T08:26:57.419Z,english_130.wav,0,peel,889,29,5,2,english,m,3,0.3,-88.09187015,0.53414674
5e92178e8ee4fe54b65b7c39,140,2,2024-02-24T08:26:57.419Z,english_130.wav,0,peel,889,29,5,2,english,m,4,0.32341667,-47.45461314,1.10107345
5e92178e8ee4fe54b65b7c39,141,2,2024-02-24T08:26:57.419Z,english_970.wav,0,peel,289,29,5,2,english,m,0,0.0,37.22911191,0.60712849
5e92178e8ee4fe54b65b7c39,141,2,2024-02-24T08:26:57.419Z,english_970.wav,0,peel,289,29,5,2,english,m,1,0.1,36.57191813,1.26781741
5e92178e8ee4fe54b65b7c39,141,2,2024-02-24T08:26:57.419Z,english_970.wav,0,peel,289,29,5,2,english,m,2,0.2,20.2344678,1.29373459
5e92178e8ee4fe54b65b7c39,141,2,2024-02-24T08:26:57.419Z,english_970.wav,0,peel,289,29,5,2,english,m,3,0.3,-86.31030026,0.18112256
5e92178e8ee4fe54b65b7c39,141,2,2024-02-24T08:26:57.419Z,english_970.wav,0,peel,289,29,5,2,english,m,4,0.32341667,-83.96880691,1.07780169
5e92178e8ee4fe54b65b7c39,142,2,2024-02-24T08:26:57.419Z,english_922.wav,0,peel,318,29,5,2,english,m,0,0.0,-90.36253489,0.33253962
5e92178e8ee4fe54b65b7c39,142,2,2024-02-24T08:26:57.419Z,english_922.wav,0,peel,318,29,5,2,english,m,1,0.1,-6.38761956,1.51366693
5e92178e8ee4fe54b65b7c39,142,2,2024-02-24T08:26:57.419Z,english_922.wav,0,peel,318,29,5,2,english,m,2,0.2,-78.09661245,0.40049791
5e92178e8ee4fe54b65b7c39,142,2,2024-02-24T08:26:57.419Z,english_922.wav,0,peel,318,29,5,2,english,m,3,0.3,-92.75722173,1.29207892
5e92178e8ee4fe54b65b7c39,142,2,2024-02-24T08:26:57.419Z,english_922.wav,0,peel,318,29,5,2,english,m,4,0.32341667,-80.16719401,1.40400382
5e92178e8ee4fe54b65b7c39,143,2,2024-02-24T08:26:57.419Z,english_461.wav,0,pill,459,29,5,2,english,m,0,0.0,-99.86661298,0.04975834
5e92178e8ee4fe54b65b7c39,143,2,2024-02-24T08:26:57.419Z,english_461.wav,0,pill,459,29,5,2,english,m,1,0.1,65.11959058,1.27856071
5e92178e8ee4fe54b65b7c39,143,2,2024-02-24T08:26:57.419Z,english_461.wav,0,pill,459,29,5,2,english,m,2,0.2,-96.19635976,1.53618081
5e92178e8ee4fe54b65b7c39,143,2,2024-02-24T08:26:57.419Z,english_461.wav,0,pill,459,29,5,2,english,m,3,0.3,56.69155656,1.97602464
5e92178e8ee4fe54b65b7c39,143,2,2024-02-24T08:26:57.419Z,english_461.wav,0,pill,459,29,5,2,english,m,4,0.32341667,-82.13106063,1.41647384
5e92178e8ee4fe54b65b7c39,144,2,2024-02-24T08:26:57.419Z,english_108.wav,0,pill,685,29,5,2,english,m,0,0.0,-20.69942707,0.77052949
5e92178e8ee4fe54b65b7c39,144,2,2024-02-24T08:26:57.419Z,english_108.wav,0,pill,685,29,5,2,english,m,1,0.1,-59.42152954,1.01445352
5e92178e8ee4fe54b65b7c39,144,2,2024-02-24T08:26:57.419Z,english_108.wav,0,pill,685,29,5,2,english,m,2,0.2,-8.09170222,0.42363715
5e92178e8ee4fe54b65b7c39,144,2,2024-02-24T08:26:57.419Z,english_108.wav,0,pill,685,29,5,2,english,m,3,0.3,21.99826779,1.45799831
5e92178e8ee4fe54b65b7c39,144,2,2024-02-24T08:26:57.419Z,english_108.wav,0,pill,685,29,5,2,english,m,4,0.32341667,56.38973361,1.71498507
5e92178e8ee4fe54b65b7c39,145,2,2024-02-24T08:26:57.419Z,english_996.wav,0,peel,1119,29,5,2,english,m,0,0.0,-71.70531914,1.36459419
5e92178e8ee4fe54b65b7c39,145,2,2024-02-24T08:26:57.419Z,english_996.wav,0,peel,1119,29,5,2,english,m,1,0.1,-47.61419544,0.5051745
5e92178e8ee4fe54b65b7c39,145,2,2024-02-24T08:26:57.419Z,english_996.wav,0,peel,1119,29,5,2,english,m,2,0.2,48.0330823,1.09957376
5e92178e8ee4fe54b65b7c39,145,2,2024-02-24T08:26:57.419Z,english_996.wav,0,peel,1119,29,5,2,english,m,3,0.3,34.27821317,0.27950682
5e92178e8ee4fe54b65b7c39,145,2,2024-02-24T08:26:57.419Z,english_996.wav,0,peel,1119,29,5,2,english,m,4,0.32341667,-72.4662587,0.22836241
5e92178e8ee4fe54b65b7c39,146,2,2024-02-24T08:26:57.419Z,english_568.wav,0,peel,444,29,5,2,english,m,0,0.0,-80.38325009,1.52383372
5e92178e8ee4fe54b65b7c39,146,2,2024-02-24T08:26:57.419Z,english_568.wav,0,peel,444,29,5,2,english,m,1,0.1,65.28340143,0.37337456
5e92178e8ee4fe54b65b7c39,146,2,2024-02-24T08:26:57.419Z,english_568.wav,0,peel,444,29,5,2,english,m,2,0.2,22.57833022,0.67023469
5e92178e8ee4fe54b65b7c39,146,2,2024-02-24T08:26:57.419Z,english_568.wav,0,peel,444,29,5,2,english,m,3,0.3,-55.44872251,1.98652091
5e92178e8ee4fe54b65b7c39,146,2,2024-02-24T08:26:57.419Z,english_568.wav,0,peel,444,29,5,2,english,m,4,0.32341667,-94.3142815,1.15861726
5e92178e8ee4fe54b65b7c39,147,2,2024-02-24T08:26:57.419Z,english_612.wav,0,pill,732,29,5,2,english,m,0,0.0,-84.32217164,1.34068621
5e92178e8ee4fe54b65b7c39,147,2,2024-02-24T08:26:57.419Z,english_612.wav,0,pill,732,29,5,2,english,m,1,0.1,36.55311424,0.03443149
5e92178e8ee4fe54b65b7c39,147,2,2024-02-24T08:26:57.419Z,english_612.wav,0,pill,732,29,5,2,english,m,2,0.2,92.38334081,0.45903509
5e92178e8ee4fe54b65b7c39,147,2,2024-02-24T08:26:57.419Z,english_612.wav,0,pill,732,29,5,2,english,m,3,0.3,11.68953794,0.60209198
5e92178e8ee4fe54b65b7c39,147,2,2024-02-24T08:26:57.419Z,english_612.wav,0,pill,732,29,5,2,english,m,4,0.32341667,43.3279226,0.29533154
5e92178e8ee4fe54b65b7c39,148,2,2024-02-24T08:26:57.419Z,english_187.wav,0,pill,260,29,5,2,english,m,0,0.0,-18.35695568,0.61755768
5e92178e8ee4fe54b65b7c39,148,2,2024-02-24T08:26:57.419Z,english_187.wav,0,pill,260,29,5,2,english,m,1,0.1,10.21632188,1.6626445
5e92178e8ee4fe54b65b7c39,148,2,2024-02-24T08:26:57.419Z,english_187.wav,0,pill,260,29,5,2,english,m,2,0.2,0.69047377,0.70950015
5e92178e8ee4fe54b65b7c39,148,2,2024-02-24T08:26:57.419Z,english_187.wav,0,pill,260,29,5,2,english,m,3,0.3,67.68385624,0.8856252
5e92178e8ee4fe54b65b7c39,148,2,2024-02-24T08:26:57.419Z,english_187.wav,0,pill,260,29,5,2,english,m,4,0.32341667,48.15291114,1.92627472
5e92178e8ee4fe54b65b7c39,149,2,2024-02-24T08:26:57.419Z,english_133.wav,0,peel,431,29,5,2,english,m,0,0.0,12.35833749,0.72635311
5e92178e8ee4fe54b65b7c39,149,2,2024-02-24T08:26:57.419Z,english_133.wav,0,peel,431,29,5,2,english,m,1,0.1,40.12315016,1.38782059
5e92178e8ee4fe54b65b7c39,149,2,2024-02-24T08:26:57.419Z,english_133.wav,0,peel,431,29,5,2,english,m,2,0.2,21.09458129,0.15947395
5e92178e8ee4fe54b65b7c39,149,2,2024-02-24T08:26:57.419Z,english_133.wav,0,peel,431,29,5,2,english,m,3,0.3,-98.82286682,0.28433836
5e92178e8ee4fe54b65b7c39,149,2,2024-02-24T08:26:57.419Z,english_133.wav,0,peel,431,29,5,2,english,m,4,0.32341667,-85.44748976,1.2581514
5e92178e8ee4fe54b65b7c39,150,3,2024-02-24T08:26:57.419Z,english_949.wav,0,peel,184,29,5,2,english,m,0,0.0,48.32946721,1.50413289
5e92178e8ee4fe54b65b7c39,150,3,2024-02-24T08:26:57.419Z,english_949.wav,0,peel,184,29,5,2,english,m,1,0.1,73.83586198,1.55745414
5e92178e8ee4fe54b65b7c39,150,3,2024-02-24T08:26:57.419Z,english_949.wav,0,peel,184,29,5,2,english,m,2,0.2,-30.27812065,1.00772566
5e92178e8ee4fe54b65b7c39,150,3,2024-02-24T08:26:57.419Z,english_949.wav,0,peel,184,29,5,2,english,m,3,0.3,-32.50397555,0.86702054
5e92178e8ee4fe54b65b7c39,150,3,2024-02-24T08:26:57.419Z,english_949.wav,0,peel,184,29,5,2,english,m,4,0.32341667,96.46984971,1.67836019
5e92178e8ee4fe54b65b7c39,151,3,2024-02-24T08:26:57.419Z,english_810.wav,0,pill,415,29,5,2,english,m,0,0.0,44.6757801,0.77700382
5e92178e8ee4fe54b65b7c39,151,3,2024-02-24T08:26:57.419Z,english_810.wav,0,pill,415,29,5,2,english,m,1,0.1,-98.4252216,1.25917073
5e92178e8ee4fe54b65b7c39,151,3,2024-02-24T08:26:57.419Z,english_810.wav,0,pill,415,29,5,2,english,m,2,0.2,55.4106213,0.78203472
5e92178e8ee4fe54b65b7c39,151,3,2024-02-24T08:26:57.419Z,english_810.wav,0,pill,415,29,5,2,english,m,3,0.3,-18.4676839,1.13021068
5e92178e8ee4fe54b65b7c39,151,3,2024-02-24T08:26:57.419Z,english_810.wav,0,pill,415,29,5,2,english,m,4,0.323416667,0.0259169543,0.14578676
5e92178e8ee4fe54b65b7c39,152,3,2024-02-24T08:26:57.419Z,english_719.wav,0,peel,288,29,5,2,english,m,0,0.0,-32.14306232,1.4431753
5e92178e8ee4fe54b65b7c39,152,3,2024-02-24T08:26:57.419Z,english_719.wav,0,peel,288,29,5,2,english,m,1,0.1,-81.40439332,0.46175707
5e92178e8ee4fe54b65b7c39,152,3,2024-02-24T08:26:57.419Z,english_719.wav,0,peel,288,29,5,2,english,m,2,0.2,-20.1172293,1.86886769
5e92178e8ee4fe54b65b7c39,152,3,2024-02-24T08:26:57.419Z,english_719.wav,0,peel,288,29,5,2,english,m,3,0.3,67.63048238,0.67969247
5e92178e8ee4fe54b65b7c39,152,3,2024-02-24T08:26:57.419Z,english_719.wav,0,peel,288,29,5,2,english,m,4,0.32341667,50.83305788,1.68151983
5e92178e8ee4fe54b65b7c39,153,3,2024-02-24T08:26:57.419Z,english_219.wav,0,peel,164,29,5,2,english,m,0,0.0,38.40040381,1.09142553
5e92178e8ee4fe54b65b7c39,153,3,2024-02-24T08:26:57.419Z,english_219.wav,0,peel,164,29,5,2,english,m,1,0.1,-26.23926727,0.5740428
5e92178e8ee4fe54b65b7c39,153,3,2024-02-24T08:26:57.419Z,english_219.wav,0,peel,164,29,5,2,english,m,2,0.2,-57.67558578,1.19056911
5e92178e8ee4fe54b65b7c39,153,3,2024-02-24T08:26:57.419Z,english_219.wav,0,peel,164,29,5,2,english,m,3,0.3,50.56926795,1.87089358
