subj,trial,block,date,stim,stim_order,response,rt,age,english,french,language,sex,param_index,segment,pitch,stretch
651a03c8ea1027b3193b9e35,0,0,2024-02-27T14:14:17.829Z,english_707.wav,0,peel,2554,36,5,4,english,f,0,0.0,-17.04120346,1.06535483
651a03c8ea1027b3193b9e35,0,0,2024-02-27T14:14:17.829Z,english_707.wav,0,peel,2554,36,5,4,english,f,1,0.1,-57.44917128,0.89541794
651a03c8ea1027b3193b9e35,0,0,2024-02-27T14:14:17.829Z,english_707.wav,0,peel,2554,36,5,4,english,f,2,0.2,90.75848643,1.64838001
651a03c8ea1027b3193b9e35,0,0,2024-02-27T14:14:17.829Z,english_707.wav,0,peel,2554,36,5,4,english,f,3,0.3,96.79852424,0.75431717
651a03c8ea1027b3193b9e35,0,0,2024-02-27T14:14:17.829Z,english_707.wav,0,peel,2554,36,5,4,english,f,4,0.32341667,27.01716591,0.48082071
651a03c8ea1027b3193b9e35,1,0,2024-02-27T14:14:17.829Z,english_859.wav,0,pill,530,36,5,4,english,f,0,0.0,71.31858369,0.11764496
651a03c8ea1027b3193b9e35,1,0,2024-02-27T14:14:17.829Z,english_859.wav,0,pill,530,36,5,4,english,f,1,0.1,-33.60875554,0.29827778
651a03c8ea1027b3193b9e35,1,0,2024-02-27T14:14:17.829Z,english_859.wav,0,pill,530,36,5,4,english,f,2,0.2,-64.15502461,0.43254339
651a03c8ea1027b3193b9e35,1,0,2024-02-27T14:14:17.829Z,english_859.wav,0,pill,530,36,5,4,english,f,3,0.3,-36.22537369,0.12368506
651a03c8ea1027b3193b9e35,1,0,2024-02-27T14:14:17.829Z,english_859.wav,0,pill,530,36,5,4,english,f,4,0.32341667,-23.59955866,0.97858169
651a03c8ea1027b3193b9e35,2,0,2024-02-27T14:14:17.829Z,english_245.wav,0,peel,432,36,5,4,english,f,0,0.0,74.89239003,1.30710747
651a03c8ea1027b3193b9e35,2,0,2024-02-27T14:14:17.829Z,english_245.wav,0,peel,432,36,5,4,english,f,1,0.1,41.98679172,0.93119149
651a03c8ea1027b3193b9e35,2,0,2024-02-27T14:14:17.829Z,english_245.wav,0,peel,432,36,5,4,english,f,2,0.2,99.42105985,1.84379828
651a03c8ea1027b3193b9e35,2,0,2024-02-27T14:14:17.829Z,english_245.wav,0,peel,432,36,5,4,english,f,3,0.3,-75.11958538,1.72828743
651a03c8ea1027b3193b9e35,2,0,2024-02-27T14:14:17.829Z,english_245.wav,0,peel,432,36,5,4,english,f,4,0.32341667,-62.10664415,0.50124118
651a03c8ea1027b3193b9e35,3,0,2024-02-27T14:14:17.829Z,english_719.wav,0,peel,374,36,5,4,english,f,0,0.0,-32.14306232,1.4431753
651a03c8ea1027b3193b9e35,3,0,2024-02-27T14:14:17.829Z,english_719.wav,0,peel,374,36,5,4,english,f,1,0.1,-81.40439332,0.46175707
651a03c8ea1027b3193b9e35,3,0,2024-02-27T14:14:17.829Z,english_719.wav,0,peel,374,36,5,4,english,f,2,0.2,-20.1172293,1.86886769
651a03c8ea1027b3193b9e35,3,0,2024-02-27T14:14:17.829Z,english_719.wav,0,peel,374,36,5,4,english,f,3,0.3,67.63048238,0.67969247
651a03c8ea1027b3193b9e35,3,0,2024-02-27T14:14:17.829Z,english_719.wav,0,peel,374,36,5,4,english,f,4,0.32341667,50.83305788,1.68151983
651a03c8ea1027b3193b9e35,4,0,2024-02-27T14:14:17.829Z,english_827.wav,0,peel,344,36,5,4,english,f,0,0.0,-49.24128803,1.70838213
651a03c8ea1027b3193b9e35,4,0,2024-02-27T14:14:17.829Z,english_827.wav,0,peel,344,36,5,4,english,f,1,0.1,62.6158679,0.88048656
651a03c8ea1027b3193b9e35,4,0,2024-02-27T14:14:17.829Z,english_827.wav,0,peel,344,36,5,4,english,f,2,0.2,-85.72053716,1.47530841
651a03c8ea1027b3193b9e35,4,0,2024-02-27T14:14:17.829Z,english_827.wav,0,peel,344,36,5,4,english,f,3,0.3,-65.54354982,0.04991031
651a03c8ea1027b3193b9e35,4,0,2024-02-27T14:14:17.829Z,english_827.wav,0,peel,344,36,5,4,english,f,4,0.32341667,-42.30235352,0.1531298
651a03c8ea1027b3193b9e35,5,0,2024-02-27T14:14:17.829Z,english_468.wav,0,pill,519,36,5,4,english,f,0,0.0,-33.82586043,0.35164089
651a03c8ea1027b3193b9e35,5,0,2024-02-27T14:14:17.829Z,english_468.wav,0,pill,519,36,5,4,english,f,1,0.1,-42.55840131,0.20114733
651a03c8ea1027b3193b9e35,5,0,2024-02-27T14:14:17.829Z,english_468.wav,0,pill,519,36,5,4,english,f,2,0.2,-36.6492295,1.40729654
651a03c8ea1027b3193b9e35,5,0,2024-02-27T14:14:17.829Z,english_468.wav,0,pill,519,36,5,4,english,f,3,0.3,39.91321296,0.04300573
651a03c8ea1027b3193b9e35,5,0,2024-02-27T14:14:17.829Z,english_468.wav,0,pill,519,36,5,4,english,f,4,0.32341667,54.14936319,1.79642733
651a03c8ea1027b3193b9e35,6,0,2024-02-27T14:14:17.829Z,english_853.wav,0,pill,348,36,5,4,english,f,0,0.0,87.83319324,0.81037323
651a03c8ea1027b3193b9e35,6,0,2024-02-27T14:14:17.829Z,english_853.wav,0,pill,348,36,5,4,english,f,1,0.1,64.16710312,1.2495933
651a03c8ea1027b3193b9e35,6,0,2024-02-27T14:14:17.829Z,english_853.wav,0,pill,348,36,5,4,english,f,2,0.2,12.98667351,0.22916278
651a03c8ea1027b3193b9e35,6,0,2024-02-27T14:14:17.829Z,english_853.wav,0,pill,348,36,5,4,english,f,3,0.3,25.03434444,0.67764146
651a03c8ea1027b3193b9e35,6,0,2024-02-27T14:14:17.829Z,english_853.wav,0,pill,348,36,5,4,english,f,4,0.32341667,98.3458188,0.13807639
651a03c8ea1027b3193b9e35,7,0,2024-02-27T14:14:17.829Z,english_668.wav,0,pill,576,36,5,4,english,f,0,0.0,48.8265236,0.43768829
651a03c8ea1027b3193b9e35,7,0,2024-02-27T14:14:17.829Z,english_668.wav,0,pill,576,36,5,4,english,f,1,0.1,97.68090991,0.31983773
651a03c8ea1027b3193b9e35,7,0,2024-02-27T14:14:17.829Z,english_668.wav,0,pill,576,36,5,4,english,f,2,0.2,47.50182685,1.24438546
651a03c8ea1027b3193b9e35,7,0,2024-02-27T14:14:17.829Z,english_668.wav,0,pill,576,36,5,4,english,f,3,0.3,81.7432518,0.49120307
651a03c8ea1027b3193b9e35,7,0,2024-02-27T14:14:17.829Z,english_668.wav,0,pill,576,36,5,4,english,f,4,0.32341667,28.08178094,0.60639718
651a03c8ea1027b3193b9e35,8,0,2024-02-27T14:14:17.829Z,english_524.wav,0,pill,386,36,5,4,english,f,0,0.0,-67.97449296,0.75247726
651a03c8ea1027b3193b9e35,8,0,2024-02-27T14:14:17.829Z,english_524.wav,0,pill,386,36,5,4,english,f,1,0.1,11.07328714,0.25589602
651a03c8ea1027b3193b9e35,8,0,2024-02-27T14:14:17.829Z,english_524.wav,0,pill,386,36,5,4,english,f,2,0.2,-43.89657964,0.70559599
651a03c8ea1027b3193b9e35,8,0,2024-02-27T14:14:17.829Z,english_524.wav,0,pill,386,36,5,4,english,f,3,0.3,-41.15015074,0.70218971
651a03c8ea1027b3193b9e35,8,0,2024-02-27T14:14:17.829Z,english_524.wav,0,pill,386,36,5,4,english,f,4,0.32341667,-33.76804681,0.11352048
651a03c8ea1027b3193b9e35,9,0,2024-02-27T14:14:17.829Z,english_475.wav,0,peel,213,36,5,4,english,f,0,0.0,-68.25626322,0.40988158
651a03c8ea1027b3193b9e35,9,0,2024-02-27T14:14:17.829Z,english_475.wav,0,peel,213,36,5,4,english,f,1,0.1,-56.46648788,1.90107213
651a03c8ea1027b3193b9e35,9,0,2024-02-27T14:14:17.829Z,english_475.wav,0,peel,213,36,5,4,english,f,2,0.2,49.77560279,0.54721615
651a03c8ea1027b3193b9e35,9,0,2024-02-27T14:14:17.829Z,english_475.wav,0,peel,213,36,5,4,english,f,3,0.3,-41.74178488,1.80730726
651a03c8ea1027b3193b9e35,9,0,2024-02-27T14:14:17.829Z,english_475.wav,0,peel,213,36,5,4,english,f,4,0.32341667,-60.3255454,0.11427958
651a03c8ea1027b3193b9e35,10,0,2024-02-27T14:14:17.829Z,english_831.wav,0,pill,157,36,5,4,english,f,0,0.0,-7.33710711,1.53159971
651a03c8ea1027b3193b9e35,10,0,2024-02-27T14:14:17.829Z,english_831.wav,0,pill,157,36,5,4,english,f,1,0.1,-87.69782071,1.22669962
651a03c8ea1027b3193b9e35,10,0,2024-02-27T14:14:17.829Z,english_831.wav,0,pill,157,36,5,4,english,f,2,0.2,34.03975531,0.70180407
651a03c8ea1027b3193b9e35,10,0,2024-02-27T14:14:17.829Z,english_831.wav,0,pill,157,36,5,4,english,f,3,0.3,-2.18295653,1.02244347
651a03c8ea1027b3193b9e35,10,0,2024-02-27T14:14:17.829Z,english_831.wav,0,pill,157,36,5,4,english,f,4,0.32341667,20.908766,1.06702443
651a03c8ea1027b3193b9e35,11,0,2024-02-27T14:14:17.829Z,english_926.wav,0,pill,876,36,5,4,english,f,0,0.0,-21.84910749,1.63725542
651a03c8ea1027b3193b9e35,11,0,2024-02-27T14:14:17.829Z,english_926.wav,0,pill,876,36,5,4,english,f,1,0.1,92.62617727,0.91190035
651a03c8ea1027b3193b9e35,11,0,2024-02-27T14:14:17.829Z,english_926.wav,0,pill,876,36,5,4,english,f,2,0.2,-40.07927874,0.45967153
651a03c8ea1027b3193b9e35,11,0,2024-02-27T14:14:17.829Z,english_926.wav,0,pill,876,36,5,4,english,f,3,0.3,30.58508574,0.64362954
651a03c8ea1027b3193b9e35,11,0,2024-02-27T14:14:17.829Z,english_926.wav,0,pill,876,36,5,4,english,f,4,0.32341667,-68.98646438,1.44788087
651a03c8ea1027b3193b9e35,12,0,2024-02-27T14:14:17.829Z,english_766.wav,0,peel,88,36,5,4,english,f,0,0.0,-86.57417509,1.21737292
651a03c8ea1027b3193b9e35,12,0,2024-02-27T14:14:17.829Z,english_766.wav,0,peel,88,36,5,4,english,f,1,0.1,-67.75686223,1.61484435
651a03c8ea1027b3193b9e35,12,0,2024-02-27T14:14:17.829Z,english_766.wav,0,peel,88,36,5,4,english,f,2,0.2,74.21258041,1.47872362
651a03c8ea1027b3193b9e35,12,0,2024-02-27T14:14:17.829Z,english_766.wav,0,peel,88,36,5,4,english,f,3,0.3,65.20164426,1.81064247
651a03c8ea1027b3193b9e35,12,0,2024-02-27T14:14:17.829Z,english_766.wav,0,peel,88,36,5,4,english,f,4,0.32341667,-26.41371036,1.37776493
651a03c8ea1027b3193b9e35,13,0,2024-02-27T14:14:17.829Z,english_298.wav,0,pill,5822,36,5,4,english,f,0,0.0,-71.75530507,0.91890611
651a03c8ea1027b3193b9e35,13,0,2024-02-27T14:14:17.829Z,english_298.wav,0,pill,5822,36,5,4,english,f,1,0.1,76.25876358,0.7322353
651a03c8ea1027b3193b9e35,13,0,2024-02-27T14:14:17.829Z,english_298.wav,0,pill,5822,36,5,4,english,f,2,0.2,11.95102224,0.50601445
651a03c8ea1027b3193b9e35,13,0,2024-02-27T14:14:17.829Z,english_298.wav,0,pill,5822,36,5,4,english,f,3,0.3,79.91037795,0.41160049
651a03c8ea1027b3193b9e35,13,0,2024-02-27T14:14:17.829Z,english_298.wav,0,pill,5822,36,5,4,english,f,4,0.32341667,30.12462174,0.81223035
651a03c8ea1027b3193b9e35,14,0,2024-02-27T14:14:17.829Z,english_478.wav,0,pill,1245,36,5,4,english,f,0,0.0,-70.9954821,0.91489342
651a03c8ea1027b3193b9e35,14,0,2024-02-27T14:14:17.829Z,english_478.wav,0,pill,1245,36,5,4,english,f,1,0.1,18.763036,1.0325944
651a03c8ea1027b3193b9e35,14,0,2024-02-27T14:14:17.829Z,english_478.wav,0,pill,1245,36,5,4,english,f,2,0.2,84.30682023,1.47139294
651a03c8ea1027b3193b9e35,14,0,2024-02-27T14:14:17.829Z,english_478.wav,0,pill,1245,36,5,4,english,f,3,0.3,96.70790152,0.31719256
651a03c8ea1027b3193b9e35,14,0,2024-02-27T14:14:17.829Z,english_478.wav,0,pill,1245,36,5,4,english,f,4,0.32341667,-65.75430749,1.1469235
651a03c8ea1027b3193b9e35,15,0,2024-02-27T14:14:17.829Z,english_945.wav,0,peel,860,36,5,4,english,f,0,0.0,63.16075011,1.8314946
651a03c8ea1027b3193b9e35,15,0,2024-02-27T14:14:17.829Z,english_945.wav,0,peel,860,36,5,4,english,f,1,0.1,87.55520176,1.3737613
651a03c8ea1027b3193b9e35,15,0,2024-02-27T14:14:17.829Z,english_945.wav,0,peel,860,36,5,4,english,f,2,0.2,-69.60467193,0.61639792
651a03c8ea1027b3193b9e35,15,0,2024-02-27T14:14:17.829Z,english_945.wav,0,peel,860,36,5,4,english,f,3,0.3,-69.25530384,1.67239747
651a03c8ea1027b3193b9e35,15,0,2024-02-27T14:14:17.829Z,english_945.wav,0,peel,860,36,5,4,english,f,4,0.32341667,-47.64160087,1.88344595
651a03c8ea1027b3193b9e35,16,0,2024-02-27T14:14:17.829Z,english_964.wav,0,pill,991,36,5,4,english,f,0,0.0,11.04708611,0.74384055
651a03c8ea1027b3193b9e35,16,0,2024-02-27T14:14:17.829Z,english_964.wav,0,pill,991,36,5,4,english,f,1,0.1,-10.67848967,0.46038505
651a03c8ea1027b3193b9e35,16,0,2024-02-27T14:14:17.829Z,english_964.wav,0,pill,991,36,5,4,english,f,2,0.2,64.95328634,0.80934661
651a03c8ea1027b3193b9e35,16,0,2024-02-27T14:14:17.829Z,english_964.wav,0,pill,991,36,5,4,english,f,3,0.3,-78.10341524,1.94282647
651a03c8ea1027b3193b9e35,16,0,2024-02-27T14:14:17.829Z,english_964.wav,0,pill,991,36,5,4,english,f,4,0.32341667,-48.61651995,1.99482071
651a03c8ea1027b3193b9e35,17,0,2024-02-27T14:14:17.829Z,english_503.wav,0,pill,515,36,5,4,english,f,0,0.0,-62.81458057,1.15988152
651a03c8ea1027b3193b9e35,17,0,2024-02-27T14:14:17.829Z,english_503.wav,0,pill,515,36,5,4,english,f,1,0.1,17.97702429,0.58853345
651a03c8ea1027b3193b9e35,17,0,2024-02-27T14:14:17.829Z,english_503.wav,0,pill,515,36,5,4,english,f,2,0.2,-8.2980926,1.29983279
651a03c8ea1027b3193b9e35,17,0,2024-02-27T14:14:17.829Z,english_503.wav,0,pill,515,36,5,4,english,f,3,0.3,-62.4217389,1.42406205
651a03c8ea1027b3193b9e35,17,0,2024-02-27T14:14:17.829Z,english_503.wav,0,pill,515,36,5,4,english,f,4,0.32341667,18.11027086,0.84018378
651a03c8ea1027b3193b9e35,18,0,2024-02-27T14:14:17.829Z,english_422.wav,0,pill,2379,36,5,4,english,f,0,0.0,-79.81150205,1.34332733
651a03c8ea1027b3193b9e35,18,0,2024-02-27T14:14:17.829Z,english_422.wav,0,pill,2379,36,5,4,english,f,1,0.1,-2.02836706,0.77514932
651a03c8ea1027b3193b9e35,18,0,2024-02-27T14:14:17.829Z,english_422.wav,0,pill,2379,36,5,4,english,f,2,0.2,-11.18998235,0.33214039
651a03c8ea1027b3193b9e35,18,0,2024-02-27T14:14:17.829Z,english_422.wav,0,pill,2379,36,5,4,english,f,3,0.3,52.04958687,0.53493982
651a03c8ea1027b3193b9e35,18,0,2024-02-27T14:14:17.829Z,english_422.wav,0,pill,2379,36,5,4,english,f,4,0.32341667,-63.48776447,0.45685022
651a03c8ea1027b3193b9e35,19,0,2024-02-27T14:14:17.829Z,english_870.wav,0,peel,4023,36,5,4,english,f,0,0.0,-85.66751388,1.70746054
651a03c8ea1027b3193b9e35,19,0,2024-02-27T14:14:17.829Z,english_870.wav,0,peel,4023,36,5,4,english,f,1,0.1,30.55194498,0.68953906
651a03c8ea1027b3193b9e35,19,0,2024-02-27T14:14:17.829Z,english_870.wav,0,peel,4023,36,5,4,english,f,2,0.2,-98.28008273,1.62274852
651a03c8ea1027b3193b9e35,19,0,2024-02-27T14:14:17.829Z,english_870.wav,0,peel,4023,36,5,4,english,f,3,0.3,-58.1418371,0.74531017
651a03c8ea1027b3193b9e35,19,0,2024-02-27T14:14:17.829Z,english_870.wav,0,peel,4023,36,5,4,english,f,4,0.32341667,81.20200135,1.06596266
651a03c8ea1027b3193b9e35,20,0,2024-02-27T14:14:17.829Z,english_419.wav,0,pill,1560,36,5,4,english,f,0,0.0,74.10926047,0.423980314
651a03c8ea1027b3193b9e35,20,0,2024-02-27T14:14:17.829Z,english_419.wav,0,pill,1560,36,5,4,english,f,1,0.1,-50.44969368,1.12483838
651a03c8ea1027b3193b9e35,20,0,2024-02-27T14:14:17.829Z,english_419.wav,0,pill,1560,36,5,4,english,f,2,0.2,-38.37630765,0.473465541
651a03c8ea1027b3193b9e35,20,0,2024-02-27T14:14:17.829Z,english_419.wav,0,pill,1560,36,5,4,english,f,3,0.3,-57.54140712,0.000838613621
651a03c8ea1027b3193b9e35,20,0,2024-02-27T14:14:17.829Z,english_419.wav,0,pill,1560,36,5,4,english,f,4,0.32341667,48.12555486,0.389285402
651a03c8ea1027b3193b9e35,21,0,2024-02-27T14:14:17.829Z,english_377.wav,0,peel,2208,36,5,4,english,f,0,0.0,74.10679581,1.90218841
651a03c8ea1027b3193b9e35,21,0,2024-02-27T14:14:17.829Z,english_377.wav,0,peel,2208,36,5,4,english,f,1,0.1,-97.36412995,1.60160035
651a03c8ea1027b3193b9e35,21,0,2024-02-27T14:14:17.829Z,english_377.wav,0,peel,2208,36,5,4,english,f,2,0.2,-84.25672888,1.668912
651a03c8ea1027b3193b9e35,21,0,2024-02-27T14:14:17.829Z,english_377.wav,0,peel,2208,36,5,4,english,f,3,0.3,27.09308902,1.51590505
651a03c8ea1027b3193b9e35,21,0,2024-02-27T14:14:17.829Z,english_377.wav,0,peel,2208,36,5,4,english,f,4,0.32341667,-12.33253686,0.99909344
651a03c8ea1027b3193b9e35,22,0,2024-02-27T14:14:17.829Z,english_620.wav,0,pill,9403,36,5,4,english,f,0,0.0,-92.9203055,0.43561856
651a03c8ea1027b3193b9e35,22,0,2024-02-27T14:14:17.829Z,english_620.wav,0,pill,9403,36,5,4,english,f,1,0.1,26.7086056,0.24535421
651a03c8ea1027b3193b9e35,22,0,2024-02-27T14:14:17.829Z,english_620.wav,0,pill,9403,36,5,4,english,f,2,0.2,89.1883135,1.34102831
651a03c8ea1027b3193b9e35,22,0,2024-02-27T14:14:17.829Z,english_620.wav,0,pill,9403,36,5,4,english,f,3,0.3,-0.0557738795,1.80103954
651a03c8ea1027b3193b9e35,22,0,2024-02-27T14:14:17.829Z,english_620.wav,0,pill,9403,36,5,4,english,f,4,0.323416667,2.9787243,0.21248525
651a03c8ea1027b3193b9e35,23,0,2024-02-27T14:14:17.829Z,english_762.wav,0,peel,2465,36,5,4,english,f,0,0.0,-56.40971946,1.43822993
651a03c8ea1027b3193b9e35,23,0,2024-02-27T14:14:17.829Z,english_762.wav,0,peel,2465,36,5,4,english,f,1,0.1,-9.09046034,1.11776807
651a03c8ea1027b3193b9e35,23,0,2024-02-27T14:14:17.829Z,english_762.wav,0,peel,2465,36,5,4,english,f,2,0.2,20.98892014,0.71531135
651a03c8ea1027b3193b9e35,23,0,2024-02-27T14:14:17.829Z,english_762.wav,0,peel,2465,36,5,4,english,f,3,0.3,-66.43296232,0.54997993
651a03c8ea1027b3193b9e35,23,0,2024-02-27T14:14:17.829Z,english_762.wav,0,peel,2465,36,5,4,english,f,4,0.32341667,-91.78640069,0.26897274
651a03c8ea1027b3193b9e35,24,0,2024-02-27T14:14:17.829Z,english_154.wav,0,pill,1241,36,5,4,english,f,0,0.0,69.79630433,0.95543174
651a03c8ea1027b3193b9e35,24,0,2024-02-27T14:14:17.829Z,english_154.wav,0,pill,1241,36,5,4,english,f,1,0.1,-67.81892388,1.87835363
651a03c8ea1027b3193b9e35,24,0,2024-02-27T14:14:17.829Z,english_154.wav,0,pill,1241,36,5,4,english,f,2,0.2,14.97335347,1.19287874
651a03c8ea1027b3193b9e35,24,0,2024-02-27T14:14:17.829Z,english_154.wav,0,pill,1241,36,5,4,english,f,3,0.3,8.47433965,1.12321966
651a03c8ea1027b3193b9e35,24,0,2024-02-27T14:14:17.829Z,english_154.wav,0,pill,1241,36,5,4,english,f,4,0.32341667,32.47098569,0.66995817
651a03c8ea1027b3193b9e35,25,0,2024-02-27T14:14:17.829Z,english_897.wav,0,peel,1251,36,5,4,english,f,0,0.0,-6.17515852,1.45954458
651a03c8ea1027b3193b9e35,25,0,2024-02-27T14:14:17.829Z,english_897.wav,0,peel,1251,36,5,4,english,f,1,0.1,-25.56252799,1.4662158
651a03c8ea1027b3193b9e35,25,0,2024-02-27T14:14:17.829Z,english_897.wav,0,peel,1251,36,5,4,english,f,2,0.2,-51.51756482,1.09304129
651a03c8ea1027b3193b9e35,25,0,2024-02-27T14:14:17.829Z,english_897.wav,0,peel,1251,36,5,4,english,f,3,0.3,-57.3776393,1.17713492
651a03c8ea1027b3193b9e35,25,0,2024-02-27T14:14:17.829Z,english_897.wav,0,peel,1251,36,5,4,english,f,4,0.32341667,-65.82780913,1.23726335
651a03c8ea1027b3193b9e35,26,0,2024-02-27T14:14:17.829Z,english_518.wav,0,pill,784,36,5,4,english,f,0,0.0,52.37511869,0.23824141
651a03c8ea1027b3193b9e35,26,0,2024-02-27T14:14:17.829Z,english_518.wav,0,pill,784,36,5,4,english,f,1,0.1,-33.3490586,0.80559068
651a03c8ea1027b3193b9e35,26,0,2024-02-27T14:14:17.829Z,english_518.wav,0,pill,784,36,5,4,english,f,2,0.2,-71.20035434,1.24725456
651a03c8ea1027b3193b9e35,26,0,2024-02-27T14:14:17.829Z,english_518.wav,0,pill,784,36,5,4,english,f,3,0.3,6.23243823,1.01334401
651a03c8ea1027b3193b9e35,26,0,2024-02-27T14:14:17.829Z,english_518.wav,0,pill,784,36,5,4,english,f,4,0.32341667,-29.48660546,1.51264586
651a03c8ea1027b3193b9e35,27,0,2024-02-27T14:14:17.829Z,english_519.wav,0,peel,2243,36,5,4,english,f,0,0.0,-8.06946753,0.14231686
651a03c8ea1027b3193b9e35,27,0,2024-02-27T14:14:17.829Z,english_519.wav,0,peel,2243,36,5,4,english,f,1,0.1,-66.74939098,1.74411569
651a03c8ea1027b3193b9e35,27,0,2024-02-27T14:14:17.829Z,english_519.wav,0,peel,2243,36,5,4,english,f,2,0.2,-27.98142454,1.42967772
651a03c8ea1027b3193b9e35,27,0,2024-02-27T14:14:17.829Z,english_519.wav,0,peel,2243,36,5,4,english,f,3,0.3,-72.75033344,0.44774012
651a03c8ea1027b3193b9e35,27,0,2024-02-27T14:14:17.829Z,english_519.wav,0,peel,2243,36,5,4,english,f,4,0.32341667,-36.15575878,1.4256209
651a03c8ea1027b3193b9e35,28,0,2024-02-27T14:14:17.829Z,english_612.wav,0,peel,14244,36,5,4,english,f,0,0.0,-84.32217164,1.34068621
651a03c8ea1027b3193b9e35,28,0,2024-02-27T14:14:17.829Z,english_612.wav,0,peel,14244,36,5,4,english,f,1,0.1,36.55311424,0.03443149
651a03c8ea1027b3193b9e35,28,0,2024-02-27T14:14:17.829Z,english_612.wav,0,peel,14244,36,5,4,english,f,2,0.2,92.38334081,0.45903509
651a03c8ea1027b3193b9e35,28,0,2024-02-27T14:14:17.829Z,english_612.wav,0,peel,14244,36,5,4,english,f,3,0.3,11.68953794,0.60209198
651a03c8ea1027b3193b9e35,28,0,2024-02-27T14:14:17.829Z,english_612.wav,0,peel,14244,36,5,4,english,f,4,0.32341667,43.3279226,0.29533154
651a03c8ea1027b3193b9e35,29,0,2024-02-27T14:14:17.829Z,english_256.wav,0,peel,641,36,5,4,english,f,0,0.0,22.60769813,1.84037168
651a03c8ea1027b3193b9e35,29,0,2024-02-27T14:14:17.829Z,english_256.wav,0,peel,641,36,5,4,english,f,1,0.1,-95.01444593,0.47687766
651a03c8ea1027b3193b9e35,29,0,2024-02-27T14:14:17.829Z,english_256.wav,0,peel,641,36,5,4,english,f,2,0.2,-19.91310746,0.85339151
651a03c8ea1027b3193b9e35,29,0,2024-02-27T14:14:17.829Z,english_256.wav,0,peel,641,36,5,4,english,f,3,0.3,-6.39209363,0.75097161
651a03c8ea1027b3193b9e35,29,0,2024-02-27T14:14:17.829Z,english_256.wav,0,peel,641,36,5,4,english,f,4,0.32341667,24.02209282,1.98695073
651a03c8ea1027b3193b9e35,30,0,2024-02-27T14:14:17.829Z,english_775.wav,0,pill,273,36,5,4,english,f,0,0.0,58.00753923,1.75560269
651a03c8ea1027b3193b9e35,30,0,2024-02-27T14:14:17.829Z,english_775.wav,0,pill,273,36,5,4,english,f,1,0.1,88.61433734,0.86519841
651a03c8ea1027b3193b9e35,30,0,2024-02-27T14:14:17.829Z,english_775.wav,0,pill,273,36,5,4,english,f,2,0.2,97.9031651,0.93867241
651a03c8ea1027b3193b9e35,30,0,2024-02-27T14:14:17.829Z,english_775.wav,0,pill,273,36,5,4,english,f,3,0.3,14.61974867,1.86901891
651a03c8ea1027b3193b9e35,30,0,2024-02-27T14:14:17.829Z,english_775.wav,0,pill,273,36,5,4,english,f,4,0.32341667,-5.44703254,0.0946911
651a03c8ea1027b3193b9e35,31,0,2024-02-27T14:14:17.829Z,english_501.wav,0,peel,401,36,5,4,english,f,0,0.0,-7.07122187,1.4737248
651a03c8ea1027b3193b9e35,31,0,2024-02-27T14:14:17.829Z,english_501.wav,0,peel,401,36,5,4,english,f,1,0.1,10.00250781,1.10212017
651a03c8ea1027b3193b9e35,31,0,2024-02-27T14:14:17.829Z,english_501.wav,0,peel,401,36,5,4,english,f,2,0.2,-21.98285256,1.65595948
651a03c8ea1027b3193b9e35,31,0,2024-02-27T14:14:17.829Z,english_501.wav,0,peel,401,36,5,4,english,f,3,0.3,46.16062549,0.64757112
651a03c8ea1027b3193b9e35,31,0,2024-02-27T14:14:17.829Z,english_501.wav,0,peel,401,36,5,4,english,f,4,0.32341667,41.01655214,0.36171009
651a03c8ea1027b3193b9e35,32,0,2024-02-27T14:14:17.829Z,english_403.wav,0,pill,432,36,5,4,english,f,0,0.0,-92.65414009,1.93574734
651a03c8ea1027b3193b9e35,32,0,2024-02-27T14:14:17.829Z,english_403.wav,0,pill,432,36,5,4,english,f,1,0.1,75.99659731,0.36447309
651a03c8ea1027b3193b9e35,32,0,2024-02-27T14:14:17.829Z,english_403.wav,0,pill,432,36,5,4,english,f,2,0.2,-27.37801557,1.02888701
651a03c8ea1027b3193b9e35,32,0,2024-02-27T14:14:17.829Z,english_403.wav,0,pill,432,36,5,4,english,f,3,0.3,-80.04540334,0.02385722
651a03c8ea1027b3193b9e35,32,0,2024-02-27T14:14:17.829Z,english_403.wav,0,pill,432,36,5,4,english,f,4,0.32341667,30.50648557,1.40553938
651a03c8ea1027b3193b9e35,33,0,2024-02-27T14:14:17.829Z,english_260.wav,0,peel,181,36,5,4,english,f,0,0.0,-45.73422918,1.75247731
651a03c8ea1027b3193b9e35,33,0,2024-02-27T14:14:17.829Z,english_260.wav,0,peel,181,36,5,4,english,f,1,0.1,-23.757295,1.29821829
651a03c8ea1027b3193b9e35,33,0,2024-02-27T14:14:17.829Z,english_260.wav,0,peel,181,36,5,4,english,f,2,0.2,-1.17180464,0.50372963
651a03c8ea1027b3193b9e35,33,0,2024-02-27T14:14:17.829Z,english_260.wav,0,peel,181,36,5,4,english,f,3,0.3,42.98000529,1.19905143
651a03c8ea1027b3193b9e35,33,0,2024-02-27T14:14:17.829Z,english_260.wav,0,peel,181,36,5,4,english,f,4,0.32341667,7.49715463,0.66690199
651a03c8ea1027b3193b9e35,34,0,2024-02-27T14:14:17.829Z,english_493.wav,0,peel,186,36,5,4,english,f,0,0.0,42.62366846,0.72879325
651a03c8ea1027b3193b9e35,34,0,2024-02-27T14:14:17.829Z,english_493.wav,0,peel,186,36,5,4,english,f,1,0.1,-24.95330968,1.87742997
651a03c8ea1027b3193b9e35,34,0,2024-02-27T14:14:17.829Z,english_493.wav,0,peel,186,36,5,4,english,f,2,0.2,82.3526737,1.69463318
651a03c8ea1027b3193b9e35,34,0,2024-02-27T14:14:17.829Z,english_493.wav,0,peel,186,36,5,4,english,f,3,0.3,53.78370402,0.82529142
651a03c8ea1027b3193b9e35,34,0,2024-02-27T14:14:17.829Z,english_493.wav,0,peel,186,36,5,4,english,f,4,0.32341667,-52.5410085,0.10126548
651a03c8ea1027b3193b9e35,35,0,2024-02-27T14:14:17.829Z,english_699.wav,0,pill,296,36,5,4,english,f,0,0.0,-21.84844695,0.55007596
651a03c8ea1027b3193b9e35,35,0,2024-02-27T14:14:17.829Z,english_699.wav,0,pill,296,36,5,4,english,f,1,0.1,-20.61050251,0.98595355
651a03c8ea1027b3193b9e35,35,0,2024-02-27T14:14:17.829Z,english_699.wav,0,pill,296,36,5,4,english,f,2,0.2,-7.57046677,1.16771202
651a03c8ea1027b3193b9e35,35,0,2024-02-27T14:14:17.829Z,english_699.wav,0,pill,296,36,5,4,english,f,3,0.3,-90.18255135,0.60930532
651a03c8ea1027b3193b9e35,35,0,2024-02-27T14:14:17.829Z,english_699.wav,0,pill,296,36,5,4,english,f,4,0.32341667,-39.12532958,1.39260434
651a03c8ea1027b3193b9e35,36,0,2024-02-27T14:14:17.829Z,english_428.wav,0,peel,113,36,5,4,english,f,0,0.0,-98.34466569,1.83106884
651a03c8ea1027b3193b9e35,36,0,2024-02-27T14:14:17.829Z,english_428.wav,0,peel,113,36,5,4,english,f,1,0.1,-10.51162175,1.34345266
651a03c8ea1027b3193b9e35,36,0,2024-02-27T14:14:17.829Z,english_428.wav,0,peel,113,36,5,4,english,f,2,0.2,97.93427859,0.65853672
651a03c8ea1027b3193b9e35,36,0,2024-02-27T14:14:17.829Z,english_428.wav,0,peel,113,36,5,4,english,f,3,0.3,35.61870537,1.28105878
651a03c8ea1027b3193b9e35,36,0,2024-02-27T14:14:17.829Z,english_428.wav,0,peel,113,36,5,4,english,f,4,0.32341667,-12.49352836,0.15324236
651a03c8ea1027b3193b9e35,37,0,2024-02-27T14:14:17.829Z,english_432.wav,0,pill,142,36,5,4,english,f,0,0.0,34.04923955,0.51661687
651a03c8ea1027b3193b9e35,37,0,2024-02-27T14:14:17.829Z,english_432.wav,0,pill,142,36,5,4,english,f,1,0.1,-20.16773507,0.2259012
651a03c8ea1027b3193b9e35,37,0,2024-02-27T14:14:17.829Z,english_432.wav,0,pill,142,36,5,4,english,f,2,0.2,58.06800811,1.98214485
651a03c8ea1027b3193b9e35,37,0,2024-02-27T14:14:17.829Z,english_432.wav,0,pill,142,36,5,4,english,f,3,0.3,46.82268278,1.23025235
651a03c8ea1027b3193b9e35,37,0,2024-02-27T14:14:17.829Z,english_432.wav,0,pill,142,36,5,4,english,f,4,0.32341667,16.04458546,1.72803009
651a03c8ea1027b3193b9e35,38,0,2024-02-27T14:14:17.829Z,english_388.wav,0,peel,118,36,5,4,english,f,0,0.0,17.9760939,0.95494184
651a03c8ea1027b3193b9e35,38,0,2024-02-27T14:14:17.829Z,english_388.wav,0,peel,118,36,5,4,english,f,1,0.1,-43.00340989,0.10281418
651a03c8ea1027b3193b9e35,38,0,2024-02-27T14:14:17.829Z,english_388.wav,0,peel,118,36,5,4,english,f,2,0.2,-30.55059063,1.52164503
651a03c8ea1027b3193b9e35,38,0,2024-02-27T14:14:17.829Z,english_388.wav,0,peel,118,36,5,4,english,f,3,0.3,-92.55876504,1.24827519
651a03c8ea1027b3193b9e35,38,0,2024-02-27T14:14:17.829Z,english_388.wav,0,peel,118,36,5,4,english,f,4,0.32341667,-64.21175873,0.08180338
651a03c8ea1027b3193b9e35,39,0,2024-02-27T14:14:17.829Z,english_698.wav,0,peel,245,36,5,4,english,f,0,0.0,-86.30999669,1.66322514
651a03c8ea1027b3193b9e35,39,0,2024-02-27T14:14:17.829Z,english_698.wav,0,peel,245,36,5,4,english,f,1,0.1,-91.60158578,1.16924533
651a03c8ea1027b3193b9e35,39,0,2024-02-27T14:14:17.829Z,english_698.wav,0,peel,245,36,5,4,english,f,2,0.2,-41.16326515,1.29610919
651a03c8ea1027b3193b9e35,39,0,2024-02-27T14:14:17.829Z,english_698.wav,0,peel,245,36,5,4,english,f,3,0.3,7.86252123,1.21006153
651a03c8ea1027b3193b9e35,39,0,2024-02-27T14:14:17.829Z,english_698.wav,0,peel,245,36,5,4,english,f,4,0.32341667,25.04181708,1.83628755
651a03c8ea1027b3193b9e35,40,0,2024-02-27T14:14:17.829Z,english_676.wav,0,peel,67,36,5,4,english,f,0,0.0,3.93099148,1.7716209
651a03c8ea1027b3193b9e35,40,0,2024-02-27T14:14:17.829Z,english_676.wav,0,peel,67,36,5,4,english,f,1,0.1,73.76311644,1.97281878
651a03c8ea1027b3193b9e35,40,0,2024-02-27T14:14:17.829Z,english_676.wav,0,peel,67,36,5,4,english,f,2,0.2,-26.92634129,1.42487848
651a03c8ea1027b3193b9e35,40,0,2024-02-27T14:14:17.829Z,english_676.wav,0,peel,67,36,5,4,english,f,3,0.3,51.70874443,1.45099775
651a03c8ea1027b3193b9e35,40,0,2024-02-27T14:14:17.829Z,english_676.wav,0,peel,67,36,5,4,english,f,4,0.32341667,-48.7675791,1.84822532
651a03c8ea1027b3193b9e35,41,0,2024-02-27T14:14:17.829Z,english_163.wav,0,pill,107,36,5,4,english,f,0,0.0,-28.85321754,1.43434597
651a03c8ea1027b3193b9e35,41,0,2024-02-27T14:14:17.829Z,english_163.wav,0,pill,107,36,5,4,english,f,1,0.1,9.37410395,1.75766865
651a03c8ea1027b3193b9e35,41,0,2024-02-27T14:14:17.829Z,english_163.wav,0,pill,107,36,5,4,english,f,2,0.2,-43.22266742,0.90391943
651a03c8ea1027b3193b9e35,41,0,2024-02-27T14:14:17.829Z,english_163.wav,0,pill,107,36,5,4,english,f,3,0.3,48.63715122,1.21743426
651a03c8ea1027b3193b9e35,41,0,2024-02-27T14:14:17.829Z,english_163.wav,0,pill,107,36,5,4,english,f,4,0.32341667,-94.22333204,1.8516503
651a03c8ea1027b3193b9e35,42,0,2024-02-27T14:14:17.829Z,english_784.wav,0,pill,154,36,5,4,english,f,0,0.0,8.33598236,1.26617784
651a03c8ea1027b3193b9e35,42,0,2024-02-27T14:14:17.829Z,english_784.wav,0,pill,154,36,5,4,english,f,1,0.1,-95.44591543,0.3784594
651a03c8ea1027b3193b9e35,42,0,2024-02-27T14:14:17.829Z,english_784.wav,0,pill,154,36,5,4,english,f,2,0.2,-36.57026964,1.54775832
651a03c8ea1027b3193b9e35,42,0,2024-02-27T14:14:17.829Z,english_784.wav,0,pill,154,36,5,4,english,f,3,0.3,21.49915707,0.94378056
651a03c8ea1027b3193b9e35,42,0,2024-02-27T14:14:17.829Z,english_784.wav,0,pill,154,36,5,4,english,f,4,0.32341667,14.63720491,0.98781772
651a03c8ea1027b3193b9e35,43,0,2024-02-27T14:14:17.829Z,english_603.wav,0,pill,312,36,5,4,english,f,0,0.0,-14.17444723,1.28295305
651a03c8ea1027b3193b9e35,43,0,2024-02-27T14:14:17.829Z,english_603.wav,0,pill,312,36,5,4,english,f,1,0.1,-4.64921339,0.35920956
651a03c8ea1027b3193b9e35,43,0,2024-02-27T14:14:17.829Z,english_603.wav,0,pill,312,36,5,4,english,f,2,0.2,-23.32469505,0.60281559
651a03c8ea1027b3193b9e35,43,0,2024-02-27T14:14:17.829Z,english_603.wav,0,pill,312,36,5,4,english,f,3,0.3,-59.01260874,0.58107079
651a03c8ea1027b3193b9e35,43,0,2024-02-27T14:14:17.829Z,english_603.wav,0,pill,312,36,5,4,english,f,4,0.32341667,88.53711532,1.19087365
651a03c8ea1027b3193b9e35,44,0,2024-02-27T14:14:17.829Z,english_418.wav,0,pill,270,36,5,4,english,f,0,0.0,-7.92859899,0.20369216
651a03c8ea1027b3193b9e35,44,0,2024-02-27T14:14:17.829Z,english_418.wav,0,pill,270,36,5,4,english,f,1,0.1,10.19863107,0.15242613
651a03c8ea1027b3193b9e35,44,0,2024-02-27T14:14:17.829Z,english_418.wav,0,pill,270,36,5,4,english,f,2,0.2,-44.82770696,0.77695319
651a03c8ea1027b3193b9e35,44,0,2024-02-27T14:14:17.829Z,english_418.wav,0,pill,270,36,5,4,english,f,3,0.3,-80.4141896,0.71786342
651a03c8ea1027b3193b9e35,44,0,2024-02-27T14:14:17.829Z,english_418.wav,0,pill,270,36,5,4,english,f,4,0.32341667,32.43674468,1.20494416
651a03c8ea1027b3193b9e35,45,0,2024-02-27T14:14:17.829Z,english_545.wav,0,peel,144,36,5,4,english,f,0,0.0,42.99494118,1.37740168
651a03c8ea1027b3193b9e35,45,0,2024-02-27T14:14:17.829Z,english_545.wav,0,peel,144,36,5,4,english,f,1,0.1,72.53025652,0.91972232
651a03c8ea1027b3193b9e35,45,0,2024-02-27T14:14:17.829Z,english_545.wav,0,peel,144,36,5,4,english,f,2,0.2,4.60849844,0.73226975
651a03c8ea1027b3193b9e35,45,0,2024-02-27T14:14:17.829Z,english_545.wav,0,peel,144,36,5,4,english,f,3,0.3,9.93291538,1.52934768
651a03c8ea1027b3193b9e35,45,0,2024-02-27T14:14:17.829Z,english_545.wav,0,peel,144,36,5,4,english,f,4,0.32341667,-11.25611892,0.18478607
651a03c8ea1027b3193b9e35,46,0,2024-02-27T14:14:17.829Z,english_580.wav,0,pill,239,36,5,4,english,f,0,0.0,92.13406767,1.93694744
651a03c8ea1027b3193b9e35,46,0,2024-02-27T14:14:17.829Z,english_580.wav,0,pill,239,36,5,4,english,f,1,0.1,-85.58685866,0.28773753
651a03c8ea1027b3193b9e35,46,0,2024-02-27T14:14:17.829Z,english_580.wav,0,pill,239,36,5,4,english,f,2,0.2,57.10945482,0.86433335
651a03c8ea1027b3193b9e35,46,0,2024-02-27T14:14:17.829Z,english_580.wav,0,pill,239,36,5,4,english,f,3,0.3,32.92004132,0.96651265
651a03c8ea1027b3193b9e35,46,0,2024-02-27T14:14:17.829Z,english_580.wav,0,pill,239,36,5,4,english,f,4,0.32341667,52.08708517,1.25003658
651a03c8ea1027b3193b9e35,47,0,2024-02-27T14:14:17.829Z,english_213.wav,0,peel,487,36,5,4,english,f,0,0.0,-29.91874444,1.42031243
651a03c8ea1027b3193b9e35,47,0,2024-02-27T14:14:17.829Z,english_213.wav,0,peel,487,36,5,4,english,f,1,0.1,41.64704809,0.59218852
651a03c8ea1027b3193b9e35,47,0,2024-02-27T14:14:17.829Z,english_213.wav,0,peel,487,36,5,4,english,f,2,0.2,-87.11075848,1.10576613
651a03c8ea1027b3193b9e35,47,0,2024-02-27T14:14:17.829Z,english_213.wav,0,peel,487,36,5,4,english,f,3,0.3,-61.54877495,0.09529021
651a03c8ea1027b3193b9e35,47,0,2024-02-27T14:14:17.829Z,english_213.wav,0,peel,487,36,5,4,english,f,4,0.32341667,-34.29429643,1.15583312
651a03c8ea1027b3193b9e35,48,0,2024-02-27T14:14:17.829Z,english_143.wav,0,pill,293,36,5,4,english,f,0,0.0,-40.90047407,0.05812512
651a03c8ea1027b3193b9e35,48,0,2024-02-27T14:14:17.829Z,english_143.wav,0,pill,293,36,5,4,english,f,1,0.1,-35.35291254,0.81203879
651a03c8ea1027b3193b9e35,48,0,2024-02-27T14:14:17.829Z,english_143.wav,0,pill,293,36,5,4,english,f,2,0.2,36.32983964,0.61124866
651a03c8ea1027b3193b9e35,48,0,2024-02-27T14:14:17.829Z,english_143.wav,0,pill,293,36,5,4,english,f,3,0.3,-7.67980486,0.41683772
651a03c8ea1027b3193b9e35,48,0,2024-02-27T14:14:17.829Z,english_143.wav,0,pill,293,36,5,4,english,f,4,0.32341667,-89.59854269,1.86697452
651a03c8ea1027b3193b9e35,49,0,2024-02-27T14:14:17.829Z,english_236.wav,0,peel,235,36,5,4,english,f,0,0.0,14.26564849,0.89253674
651a03c8ea1027b3193b9e35,49,0,2024-02-27T14:14:17.829Z,english_236.wav,0,peel,235,36,5,4,english,f,1,0.1,60.97219358,0.38957934
651a03c8ea1027b3193b9e35,49,0,2024-02-27T14:14:17.829Z,english_236.wav,0,peel,235,36,5,4,english,f,2,0.2,-12.39626346,1.55558051
651a03c8ea1027b3193b9e35,49,0,2024-02-27T14:14:17.829Z,english_236.wav,0,peel,235,36,5,4,english,f,3,0.3,-62.87774076,0.2682718
651a03c8ea1027b3193b9e35,49,0,2024-02-27T14:14:17.829Z,english_236.wav,0,peel,235,36,5,4,english,f,4,0.32341667,-75.97684705,1.92182597
651a03c8ea1027b3193b9e35,50,1,2024-02-27T14:14:17.829Z,english_205.wav,0,peel,261,36,5,4,english,f,0,0.0,55.03693902,1.41699591
651a03c8ea1027b3193b9e35,50,1,2024-02-27T14:14:17.829Z,english_205.wav,0,peel,261,36,5,4,english,f,1,0.1,59.05347117,0.25749205
651a03c8ea1027b3193b9e35,50,1,2024-02-27T14:14:17.829Z,english_205.wav,0,peel,261,36,5,4,english,f,2,0.2,-51.93258482,1.78695407
651a03c8ea1027b3193b9e35,50,1,2024-02-27T14:14:17.829Z,english_205.wav,0,peel,261,36,5,4,english,f,3,0.3,-18.66886592,0.11157042
651a03c8ea1027b3193b9e35,50,1,2024-02-27T14:14:17.829Z,english_205.wav,0,peel,261,36,5,4,english,f,4,0.32341667,-25.16213195,1.74030417
651a03c8ea1027b3193b9e35,51,1,2024-02-27T14:14:17.829Z,english_569.wav,0,pill,203,36,5,4,english,f,0,0.0,-44.4695194,1.56768834
651a03c8ea1027b3193b9e35,51,1,2024-02-27T14:14:17.829Z,english_569.wav,0,pill,203,36,5,4,english,f,1,0.1,50.36705327,0.42032873
651a03c8ea1027b3193b9e35,51,1,2024-02-27T14:14:17.829Z,english_569.wav,0,pill,203,36,5,4,english,f,2,0.2,-76.17438636,0.31133764
651a03c8ea1027b3193b9e35,51,1,2024-02-27T14:14:17.829Z,english_569.wav,0,pill,203,36,5,4,english,f,3,0.3,55.47083669,0.91900801
651a03c8ea1027b3193b9e35,51,1,2024-02-27T14:14:17.829Z,english_569.wav,0,pill,203,36,5,4,english,f,4,0.32341667,-10.68913609,1.26529561
651a03c8ea1027b3193b9e35,52,1,2024-02-27T14:14:17.829Z,english_942.wav,0,pill,303,36,5,4,english,f,0,0.0,96.26286183,1.14976657
651a03c8ea1027b3193b9e35,52,1,2024-02-27T14:14:17.829Z,english_942.wav,0,pill,303,36,5,4,english,f,1,0.1,-96.45992778,0.962364
651a03c8ea1027b3193b9e35,52,1,2024-02-27T14:14:17.829Z,english_942.wav,0,pill,303,36,5,4,english,f,2,0.2,50.93322043,0.99280793
651a03c8ea1027b3193b9e35,52,1,2024-02-27T14:14:17.829Z,english_942.wav,0,pill,303,36,5,4,english,f,3,0.3,14.6207779,1.92237923
651a03c8ea1027b3193b9e35,52,1,2024-02-27T14:14:17.829Z,english_942.wav,0,pill,303,36,5,4,english,f,4,0.32341667,7.19296333,1.02094568
651a03c8ea1027b3193b9e35,53,1,2024-02-27T14:14:17.829Z,english_705.wav,0,pill,360,36,5,4,english,f,0,0.0,3.76426423,0.9500377
651a03c8ea1027b3193b9e35,53,1,2024-02-27T14:14:17.829Z,english_705.wav,0,pill,360,36,5,4,english,f,1,0.1,90.96696755,0.74173997
651a03c8ea1027b3193b9e35,53,1,2024-02-27T14:14:17.829Z,english_705.wav,0,pill,360,36,5,4,english,f,2,0.2,-32.86898574,1.78776637
651a03c8ea1027b3193b9e35,53,1,2024-02-27T14:14:17.829Z,english_705.wav,0,pill,360,36,5,4,english,f,3,0.3,-21.12550784,0.8178788
651a03c8ea1027b3193b9e35,53,1,2024-02-27T14:14:17.829Z,english_705.wav,0,pill,360,36,5,4,english,f,4,0.32341667,39.74077299,1.54913024
651a03c8ea1027b3193b9e35,54,1,2024-02-27T14:14:17.829Z,english_231.wav,0,peel,54,36,5,4,english,f,0,0.0,-57.04299033,1.30850831
651a03c8ea1027b3193b9e35,54,1,2024-02-27T14:14:17.829Z,english_231.wav,0,peel,54,36,5,4,english,f,1,0.1,-61.30294243,1.06317761
651a03c8ea1027b3193b9e35,54,1,2024-02-27T14:14:17.829Z,english_231.wav,0,peel,54,36,5,4,english,f,2,0.2,11.10207427,1.86768436
651a03c8ea1027b3193b9e35,54,1,2024-02-27T14:14:17.829Z,english_231.wav,0,peel,54,36,5,4,english,f,3,0.3,-1.38864911,1.42169342
651a03c8ea1027b3193b9e35,54,1,2024-02-27T14:14:17.829Z,english_231.wav,0,peel,54,36,5,4,english,f,4,0.32341667,-40.37897369,0.58634772
651a03c8ea1027b3193b9e35,55,1,2024-02-27T14:14:17.829Z,english_943.wav,0,pill,117,36,5,4,english,f,0,0.0,-88.39234314,0.07745413
651a03c8ea1027b3193b9e35,55,1,2024-02-27T14:14:17.829Z,english_943.wav,0,pill,117,36,5,4,english,f,1,0.1,65.27529367,1.64078214
651a03c8ea1027b3193b9e35,55,1,2024-02-27T14:14:17.829Z,english_943.wav,0,pill,117,36,5,4,english,f,2,0.2,-24.85222093,0.23468741
651a03c8ea1027b3193b9e35,55,1,2024-02-27T14:14:17.829Z,english_943.wav,0,pill,117,36,5,4,english,f,3,0.3,20.61002448,1.49561498
651a03c8ea1027b3193b9e35,55,1,2024-02-27T14:14:17.829Z,english_943.wav,0,pill,117,36,5,4,english,f,4,0.32341667,-74.64601709,1.25217021
651a03c8ea1027b3193b9e35,56,1,2024-02-27T14:14:17.829Z,english_798.wav,0,peel,302,36,5,4,english,f,0,0.0,-16.40769998,1.85457914
651a03c8ea1027b3193b9e35,56,1,2024-02-27T14:14:17.829Z,english_798.wav,0,peel,302,36,5,4,english,f,1,0.1,3.00381127,1.50219522
651a03c8ea1027b3193b9e35,56,1,2024-02-27T14:14:17.829Z,english_798.wav,0,peel,302,36,5,4,english,f,2,0.2,-31.24410556,0.78751403
651a03c8ea1027b3193b9e35,56,1,2024-02-27T14:14:17.829Z,english_798.wav,0,peel,302,36,5,4,english,f,3,0.3,-53.27973877,1.17339142
651a03c8ea1027b3193b9e35,56,1,2024-02-27T14:14:17.829Z,english_798.wav,0,peel,302,36,5,4,english,f,4,0.32341667,91.43563813,1.30184409
651a03c8ea1027b3193b9e35,57,1,2024-02-27T14:14:17.829Z,english_90.wav,0,pill,232,36,5,4,english,f,0,0.0,82.68866707,0.54239523
651a03c8ea1027b3193b9e35,57,1,2024-02-27T14:14:17.829Z,english_90.wav,0,pill,232,36,5,4,english,f,1,0.1,-81.25370946,1.03335699
651a03c8ea1027b3193b9e35,57,1,2024-02-27T14:14:17.829Z,english_90.wav,0,pill,232,36,5,4,english,f,2,0.2,56.28719083,1.93576477
651a03c8ea1027b3193b9e35,57,1,2024-02-27T14:14:17.829Z,english_90.wav,0,pill,232,36,5,4,english,f,3,0.3,-46.43338119,0.74570916
651a03c8ea1027b3193b9e35,57,1,2024-02-27T14:14:17.829Z,english_90.wav,0,pill,232,36,5,4,english,f,4,0.32341667,-19.93520327,1.11115504
651a03c8ea1027b3193b9e35,58,1,2024-02-27T14:14:17.829Z,english_905.wav,0,peel,288,36,5,4,english,f,0,0.0,73.76258642,1.30259847
651a03c8ea1027b3193b9e35,58,1,2024-02-27T14:14:17.829Z,english_905.wav,0,peel,288,36,5,4,english,f,1,0.1,49.84186991,0.15786419
651a03c8ea1027b3193b9e35,58,1,2024-02-27T14:14:17.829Z,english_905.wav,0,peel,288,36,5,4,english,f,2,0.2,-84.55275191,0.47562292
651a03c8ea1027b3193b9e35,58,1,2024-02-27T14:14:17.829Z,english_905.wav,0,peel,288,36,5,4,english,f,3,0.3,70.45460649,1.69272047
651a03c8ea1027b3193b9e35,58,1,2024-02-27T14:14:17.829Z,english_905.wav,0,peel,288,36,5,4,english,f,4,0.32341667,-84.87734561,1.28570309
651a03c8ea1027b3193b9e35,59,1,2024-02-27T14:14:17.829Z,english_825.wav,0,pill,252,36,5,4,english,f,0,0.0,9.96211161,0.17252736
651a03c8ea1027b3193b9e35,59,1,2024-02-27T14:14:17.829Z,english_825.wav,0,pill,252,36,5,4,english,f,1,0.1,-28.44120521,0.52830291
651a03c8ea1027b3193b9e35,59,1,2024-02-27T14:14:17.829Z,english_825.wav,0,pill,252,36,5,4,english,f,2,0.2,58.95311712,0.51646024
651a03c8ea1027b3193b9e35,59,1,2024-02-27T14:14:17.829Z,english_825.wav,0,pill,252,36,5,4,english,f,3,0.3,-14.85414305,0.70859388
651a03c8ea1027b3193b9e35,59,1,2024-02-27T14:14:17.829Z,english_825.wav,0,pill,252,36,5,4,english,f,4,0.32341667,85.14956963,0.64434305
651a03c8ea1027b3193b9e35,60,1,2024-02-27T14:14:17.829Z,english_764.wav,0,peel,32,36,5,4,english,f,0,0.0,7.00590276,1.84020442
651a03c8ea1027b3193b9e35,60,1,2024-02-27T14:14:17.829Z,english_764.wav,0,peel,32,36,5,4,english,f,1,0.1,-69.33047837,0.1607256
651a03c8ea1027b3193b9e35,60,1,2024-02-27T14:14:17.829Z,english_764.wav,0,peel,32,36,5,4,english,f,2,0.2,-20.89747671,1.70981587
651a03c8ea1027b3193b9e35,60,1,2024-02-27T14:14:17.829Z,english_764.wav,0,peel,32,36,5,4,english,f,3,0.3,-96.63564891,1.13854431
651a03c8ea1027b3193b9e35,60,1,2024-02-27T14:14:17.829Z,english_764.wav,0,peel,32,36,5,4,english,f,4,0.32341667,78.55111455,1.5536836
651a03c8ea1027b3193b9e35,61,1,2024-02-27T14:14:17.829Z,english_602.wav,0,pill,49,36,5,4,english,f,0,0.0,-53.18857274,1.95117352
651a03c8ea1027b3193b9e35,61,1,2024-02-27T14:14:17.829Z,english_602.wav,0,pill,49,36,5,4,english,f,1,0.1,-52.96167371,1.1427253
651a03c8ea1027b3193b9e35,61,1,2024-02-27T14:14:17.829Z,english_602.wav,0,pill,49,36,5,4,english,f,2,0.2,38.20784676,1.10694813
651a03c8ea1027b3193b9e35,61,1,2024-02-27T14:14:17.829Z,english_602.wav,0,pill,49,36,5,4,english,f,3,0.3,46.0178344,0.8717932
651a03c8ea1027b3193b9e35,61,1,2024-02-27T14:14:17.829Z,english_602.wav,0,pill,49,36,5,4,english,f,4,0.32341667,78.11630752,0.71626065
651a03c8ea1027b3193b9e35,62,1,2024-02-27T14:14:17.829Z,english_516.wav,0,peel,95,36,5,4,english,f,0,0.0,-37.49134217,0.47483782
651a03c8ea1027b3193b9e35,62,1,2024-02-27T14:14:17.829Z,english_516.wav,0,peel,95,36,5,4,english,f,1,0.1,56.61653956,1.0523806
651a03c8ea1027b3193b9e35,62,1,2024-02-27T14:14:17.829Z,english_516.wav,0,peel,95,36,5,4,english,f,2,0.2,60.98574822,0.59798137
651a03c8ea1027b3193b9e35,62,1,2024-02-27T14:14:17.829Z,english_516.wav,0,peel,95,36,5,4,english,f,3,0.3,-0.52682824,0.6957238
651a03c8ea1027b3193b9e35,62,1,2024-02-27T14:14:17.829Z,english_516.wav,0,peel,95,36,5,4,english,f,4,0.32341667,-50.41932267,1.76373844
651a03c8ea1027b3193b9e35,63,1,2024-02-27T14:14:17.829Z,english_992.wav,0,peel,98,36,5,4,english,f,0,0.0,-6.68189934,0.46848529
651a03c8ea1027b3193b9e35,63,1,2024-02-27T14:14:17.829Z,english_992.wav,0,peel,98,36,5,4,english,f,1,0.1,78.76679047,0.9874556
651a03c8ea1027b3193b9e35,63,1,2024-02-27T14:14:17.829Z,english_992.wav,0,peel,98,36,5,4,english,f,2,0.2,-58.5917679,0.57881803
651a03c8ea1027b3193b9e35,63,1,2024-02-27T14:14:17.829Z,english_992.wav,0,peel,98,36,5,4,english,f,3,0.3,-98.64651588,0.88425299
651a03c8ea1027b3193b9e35,63,1,2024-02-27T14:14:17.829Z,english_992.wav,0,peel,98,36,5,4,english,f,4,0.32341667,73.76402904,0.6994588
651a03c8ea1027b3193b9e35,64,1,2024-02-27T14:14:17.829Z,english_556.wav,0,peel,112,36,5,4,english,f,0,0.0,35.62658416,1.88481821
651a03c8ea1027b3193b9e35,64,1,2024-02-27T14:14:17.829Z,english_556.wav,0,peel,112,36,5,4,english,f,1,0.1,28.75181601,0.4023528
651a03c8ea1027b3193b9e35,64,1,2024-02-27T14:14:17.829Z,english_556.wav,0,peel,112,36,5,4,english,f,2,0.2,-2.62389444,1.49364055
651a03c8ea1027b3193b9e35,64,1,2024-02-27T14:14:17.829Z,english_556.wav,0,peel,112,36,5,4,english,f,3,0.3,64.03572584,1.54190039
651a03c8ea1027b3193b9e35,64,1,2024-02-27T14:14:17.829Z,english_556.wav,0,peel,112,36,5,4,english,f,4,0.32341667,72.79696002,0.53435232
651a03c8ea1027b3193b9e35,65,1,2024-02-27T14:14:17.829Z,english_919.wav,0,peel,114,36,5,4,english,f,0,0.0,-78.03270024,1.18744007
651a03c8ea1027b3193b9e35,65,1,2024-02-27T14:14:17.829Z,english_919.wav,0,peel,114,36,5,4,english,f,1,0.1,24.9634274,0.32639994
651a03c8ea1027b3193b9e35,65,1,2024-02-27T14:14:17.829Z,english_919.wav,0,peel,114,36,5,4,english,f,2,0.2,-36.24618286,1.14830442
651a03c8ea1027b3193b9e35,65,1,2024-02-27T14:14:17.829Z,english_919.wav,0,peel,114,36,5,4,english,f,3,0.3,-67.38261266,0.75322619
651a03c8ea1027b3193b9e35,65,1,2024-02-27T14:14:17.829Z,english_919.wav,0,peel,114,36,5,4,english,f,4,0.32341667,86.21803917,0.69239757
651a03c8ea1027b3193b9e35,66,1,2024-02-27T14:14:17.829Z,english_953.wav,0,pill,50,36,5,4,english,f,0,0.0,-16.02430182,0.31806788
651a03c8ea1027b3193b9e35,66,1,2024-02-27T14:14:17.829Z,english_953.wav,0,pill,50,36,5,4,english,f,1,0.1,29.58660593,0.5983964
651a03c8ea1027b3193b9e35,66,1,2024-02-27T14:14:17.829Z,english_953.wav,0,pill,50,36,5,4,english,f,2,0.2,-69.77021268,1.47459901
651a03c8ea1027b3193b9e35,66,1,2024-02-27T14:14:17.829Z,english_953.wav,0,pill,50,36,5,4,english,f,3,0.3,10.24378989,1.63555671
651a03c8ea1027b3193b9e35,66,1,2024-02-27T14:14:17.829Z,english_953.wav,0,pill,50,36,5,4,english,f,4,0.32341667,-68.66835117,1.74756834
651a03c8ea1027b3193b9e35,67,1,2024-02-27T14:14:17.829Z,english_793.wav,0,pill,260,36,5,4,english,f,0,0.0,-3.59370976,0.95327953
651a03c8ea1027b3193b9e35,67,1,2024-02-27T14:14:17.829Z,english_793.wav,0,pill,260,36,5,4,english,f,1,0.1,-92.44382947,0.8890172
651a03c8ea1027b3193b9e35,67,1,2024-02-27T14:14:17.829Z,english_793.wav,0,pill,260,36,5,4,english,f,2,0.2,-89.84008222,0.47547445
651a03c8ea1027b3193b9e35,67,1,2024-02-27T14:14:17.829Z,english_793.wav,0,pill,260,36,5,4,english,f,3,0.3,96.09352514,1.09208031
651a03c8ea1027b3193b9e35,67,1,2024-02-27T14:14:17.829Z,english_793.wav,0,pill,260,36,5,4,english,f,4,0.32341667,42.94050617,0.63383093
651a03c8ea1027b3193b9e35,68,1,2024-02-27T14:14:17.829Z,english_872.wav,0,peel,210,36,5,4,english,f,0,0.0,0.56374655,0.10935802
651a03c8ea1027b3193b9e35,68,1,2024-02-27T14:14:17.829Z,english_872.wav,0,peel,210,36,5,4,english,f,1,0.1,-70.88107799,0.91778609
651a03c8ea1027b3193b9e35,68,1,2024-02-27T14:14:17.829Z,english_872.wav,0,peel,210,36,5,4,english,f,2,0.2,6.46677515,1.38740199
651a03c8ea1027b3193b9e35,68,1,2024-02-27T14:14:17.829Z,english_872.wav,0,peel,210,36,5,4,english,f,3,0.3,-23.51354109,0.12682507
651a03c8ea1027b3193b9e35,68,1,2024-02-27T14:14:17.829Z,english_872.wav,0,peel,210,36,5,4,english,f,4,0.32341667,81.64578493,0.71067476
651a03c8ea1027b3193b9e35,69,1,2024-02-27T14:14:17.829Z,english_167.wav,0,pill,137,36,5,4,english,f,0,0.0,57.26975159,0.44729063
651a03c8ea1027b3193b9e35,69,1,2024-02-27T14:14:17.829Z,english_167.wav,0,pill,137,36,5,4,english,f,1,0.1,54.31010869,1.623568
651a03c8ea1027b3193b9e35,69,1,2024-02-27T14:14:17.829Z,english_167.wav,0,pill,137,36,5,4,english,f,2,0.2,99.57020207,0.28743218
651a03c8ea1027b3193b9e35,69,1,2024-02-27T14:14:17.829Z,english_167.wav,0,pill,137,36,5,4,english,f,3,0.3,27.92735821,0.71837494
651a03c8ea1027b3193b9e35,69,1,2024-02-27T14:14:17.829Z,english_167.wav,0,pill,137,36,5,4,english,f,4,0.32341667,73.13424206,1.35815305
651a03c8ea1027b3193b9e35,70,1,2024-02-27T14:14:17.829Z,english_358.wav,0,peel,797,36,5,4,english,f,0,0.0,-24.40280242,0.64702298
651a03c8ea1027b3193b9e35,70,1,2024-02-27T14:14:17.829Z,english_358.wav,0,peel,797,36,5,4,english,f,1,0.1,62.18566088,0.86836285
651a03c8ea1027b3193b9e35,70,1,2024-02-27T14:14:17.829Z,english_358.wav,0,peel,797,36,5,4,english,f,2,0.2,5.26675109,1.05826104
651a03c8ea1027b3193b9e35,70,1,2024-02-27T14:14:17.829Z,english_358.wav,0,peel,797,36,5,4,english,f,3,0.3,-31.91571391,1.98011631
651a03c8ea1027b3193b9e35,70,1,2024-02-27T14:14:17.829Z,english_358.wav,0,peel,797,36,5,4,english,f,4,0.32341667,27.35112364,0.35058307
651a03c8ea1027b3193b9e35,71,1,2024-02-27T14:14:17.829Z,english_130.wav,0,pill,71,36,5,4,english,f,0,0.0,-27.4951122,0.83907871
651a03c8ea1027b3193b9e35,71,1,2024-02-27T14:14:17.829Z,english_130.wav,0,pill,71,36,5,4,english,f,1,0.1,-38.07775804,1.38560413
651a03c8ea1027b3193b9e35,71,1,2024-02-27T14:14:17.829Z,english_130.wav,0,pill,71,36,5,4,english,f,2,0.2,-9.69340922,0.50531735
651a03c8ea1027b3193b9e35,71,1,2024-02-27T14:14:17.829Z,english_130.wav,0,pill,71,36,5,4,english,f,3,0.3,-88.09187015,0.53414674
651a03c8ea1027b3193b9e35,71,1,2024-02-27T14:14:17.829Z,english_130.wav,0,pill,71,36,5,4,english,f,4,0.32341667,-47.45461314,1.10107345
651a03c8ea1027b3193b9e35,72,1,2024-02-27T14:14:17.829Z,english_779.wav,0,peel,22,36,5,4,english,f,0,0.0,-66.48303018,1.22216448
651a03c8ea1027b3193b9e35,72,1,2024-02-27T14:14:17.829Z,english_779.wav,0,peel,22,36,5,4,english,f,1,0.1,55.33592885,1.30288261
651a03c8ea1027b3193b9e35,72,1,2024-02-27T14:14:17.829Z,english_779.wav,0,peel,22,36,5,4,english,f,2,0.2,67.38671669,0.25409759
651a03c8ea1027b3193b9e35,72,1,2024-02-27T14:14:17.829Z,english_779.wav,0,peel,22,36,5,4,english,f,3,0.3,65.49052189,1.76174581
651a03c8ea1027b3193b9e35,72,1,2024-02-27T14:14:17.829Z,english_779.wav,0,peel,22,36,5,4,english,f,4,0.32341667,-12.12955258,0.12280057
651a03c8ea1027b3193b9e35,73,1,2024-02-27T14:14:17.829Z,english_582.wav,0,pill,14,36,5,4,english,f,0,0.0,-29.81423477,0.27230029
651a03c8ea1027b3193b9e35,73,1,2024-02-27T14:14:17.829Z,english_582.wav,0,pill,14,36,5,4,english,f,1,0.1,37.42565533,0.84765039
651a03c8ea1027b3193b9e35,73,1,2024-02-27T14:14:17.829Z,english_582.wav,0,pill,14,36,5,4,english,f,2,0.2,79.58894888,1.99526631
651a03c8ea1027b3193b9e35,73,1,2024-02-27T14:14:17.829Z,english_582.wav,0,pill,14,36,5,4,english,f,3,0.3,49.55779855,1.55519667
651a03c8ea1027b3193b9e35,73,1,2024-02-27T14:14:17.829Z,english_582.wav,0,pill,14,36,5,4,english,f,4,0.32341667,54.00509918,1.66653349
651a03c8ea1027b3193b9e35,74,1,2024-02-27T14:14:17.829Z,english_661.wav,0,peel,533,36,5,4,english,f,0,0.0,14.15805194,1.06290545
651a03c8ea1027b3193b9e35,74,1,2024-02-27T14:14:17.829Z,english_661.wav,0,peel,533,36,5,4,english,f,1,0.1,-77.97020538,1.12952287
651a03c8ea1027b3193b9e35,74,1,2024-02-27T14:14:17.829Z,english_661.wav,0,peel,533,36,5,4,english,f,2,0.2,-31.78835068,1.47556517
651a03c8ea1027b3193b9e35,74,1,2024-02-27T14:14:17.829Z,english_661.wav,0,peel,533,36,5,4,english,f,3,0.3,1.84085651,0.41137052
651a03c8ea1027b3193b9e35,74,1,2024-02-27T14:14:17.829Z,english_661.wav,0,peel,533,36,5,4,english,f,4,0.32341667,31.49677972,1.48872703
651a03c8ea1027b3193b9e35,75,1,2024-02-27T14:14:17.829Z,english_586.wav,0,pill,171,36,5,4,english,f,0,0.0,-62.23642036,1.06144709
651a03c8ea1027b3193b9e35,75,1,2024-02-27T14:14:17.829Z,english_586.wav,0,pill,171,36,5,4,english,f,1,0.1,79.13201234,0.54207142
651a03c8ea1027b3193b9e35,75,1,2024-02-27T14:14:17.829Z,english_586.wav,0,pill,171,36,5,4,english,f,2,0.2,-89.54923437,0.72134233
651a03c8ea1027b3193b9e35,75,1,2024-02-27T14:14:17.829Z,english_586.wav,0,pill,171,36,5,4,english,f,3,0.3,-19.27573078,0.33417878
651a03c8ea1027b3193b9e35,75,1,2024-02-27T14:14:17.829Z,english_586.wav,0,pill,171,36,5,4,english,f,4,0.32341667,-62.71214645,1.54129631
651a03c8ea1027b3193b9e35,76,1,2024-02-27T14:14:17.829Z,english_695.wav,0,pill,132,36,5,4,english,f,0,0.0,-74.02191529,1.19534619
651a03c8ea1027b3193b9e35,76,1,2024-02-27T14:14:17.829Z,english_695.wav,0,pill,132,36,5,4,english,f,1,0.1,54.28596986,0.93917139
651a03c8ea1027b3193b9e35,76,1,2024-02-27T14:14:17.829Z,english_695.wav,0,pill,132,36,5,4,english,f,2,0.2,-13.22196683,0.1241488
651a03c8ea1027b3193b9e35,76,1,2024-02-27T14:14:17.829Z,english_695.wav,0,pill,132,36,5,4,english,f,3,0.3,1.82272444,1.20091234
651a03c8ea1027b3193b9e35,76,1,2024-02-27T14:14:17.829Z,english_695.wav,0,pill,132,36,5,4,english,f,4,0.32341667,-11.74905262,0.46222147
651a03c8ea1027b3193b9e35,77,1,2024-02-27T14:14:17.829Z,english_523.wav,0,pill,181,36,5,4,english,f,0,0.0,8.07414344,0.20594791
651a03c8ea1027b3193b9e35,77,1,2024-02-27T14:14:17.829Z,english_523.wav,0,pill,181,36,5,4,english,f,1,0.1,27.61667564,1.87511385
651a03c8ea1027b3193b9e35,77,1,2024-02-27T14:14:17.829Z,english_523.wav,0,pill,181,36,5,4,english,f,2,0.2,12.25175146,0.19246655
651a03c8ea1027b3193b9e35,77,1,2024-02-27T14:14:17.829Z,english_523.wav,0,pill,181,36,5,4,english,f,3,0.3,5.7333769,0.42766967
651a03c8ea1027b3193b9e35,77,1,2024-02-27T14:14:17.829Z,english_523.wav,0,pill,181,36,5,4,english,f,4,0.32341667,77.72310536,1.43882185
651a03c8ea1027b3193b9e35,78,1,2024-02-27T14:14:17.829Z,english_625.wav,0,peel,158,36,5,4,english,f,0,0.0,25.70847239,1.1960971
651a03c8ea1027b3193b9e35,78,1,2024-02-27T14:14:17.829Z,english_625.wav,0,peel,158,36,5,4,english,f,1,0.1,-37.82303983,0.02795501
651a03c8ea1027b3193b9e35,78,1,2024-02-27T14:14:17.829Z,english_625.wav,0,peel,158,36,5,4,english,f,2,0.2,38.52328891,1.10198652
651a03c8ea1027b3193b9e35,78,1,2024-02-27T14:14:17.829Z,english_625.wav,0,peel,158,36,5,4,english,f,3,0.3,-23.93667478,0.08852642
651a03c8ea1027b3193b9e35,78,1,2024-02-27T14:14:17.829Z,english_625.wav,0,peel,158,36,5,4,english,f,4,0.32341667,-53.98326942,1.59813041
651a03c8ea1027b3193b9e35,79,1,2024-02-27T14:14:17.829Z,english_96.wav,0,pill,188,36,5,4,english,f,0,0.0,-2.60251168,1.33849038
651a03c8ea1027b3193b9e35,79,1,2024-02-27T14:14:17.829Z,english_96.wav,0,pill,188,36,5,4,english,f,1,0.1,3.1808695,1.03790095
651a03c8ea1027b3193b9e35,79,1,2024-02-27T14:14:17.829Z,english_96.wav,0,pill,188,36,5,4,english,f,2,0.2,-93.89625608,0.32730996
651a03c8ea1027b3193b9e35,79,1,2024-02-27T14:14:17.829Z,english_96.wav,0,pill,188,36,5,4,english,f,3,0.3,22.03695444,1.15118519
651a03c8ea1027b3193b9e35,79,1,2024-02-27T14:14:17.829Z,english_96.wav,0,pill,188,36,5,4,english,f,4,0.32341667,89.13776591,1.37996061
651a03c8ea1027b3193b9e35,80,1,2024-02-27T14:14:17.829Z,english_633.wav,0,peel,80,36,5,4,english,f,0,0.0,-53.72283933,1.23998369
651a03c8ea1027b3193b9e35,80,1,2024-02-27T14:14:17.829Z,english_633.wav,0,peel,80,36,5,4,english,f,1,0.1,14.71438877,1.35266241
651a03c8ea1027b3193b9e35,80,1,2024-02-27T14:14:17.829Z,english_633.wav,0,peel,80,36,5,4,english,f,2,0.2,95.18630031,0.66132985
651a03c8ea1027b3193b9e35,80,1,2024-02-27T14:14:17.829Z,english_633.wav,0,peel,80,36,5,4,english,f,3,0.3,96.89096157,0.52728002
651a03c8ea1027b3193b9e35,80,1,2024-02-27T14:14:17.829Z,english_633.wav,0,peel,80,36,5,4,english,f,4,0.32341667,8.38596779,1.4824282
651a03c8ea1027b3193b9e35,81,1,2024-02-27T14:14:17.829Z,english_413.wav,0,peel,164,36,5,4,english,f,0,0.0,-9.66675054,1.82887045
651a03c8ea1027b3193b9e35,81,1,2024-02-27T14:14:17.829Z,english_413.wav,0,peel,164,36,5,4,english,f,1,0.1,15.27504309,0.80668743
651a03c8ea1027b3193b9e35,81,1,2024-02-27T14:14:17.829Z,english_413.wav,0,peel,164,36,5,4,english,f,2,0.2,-94.93171401,0.90586838
651a03c8ea1027b3193b9e35,81,1,2024-02-27T14:14:17.829Z,english_413.wav,0,peel,164,36,5,4,english,f,3,0.3,-42.87800999,1.3937681
651a03c8ea1027b3193b9e35,81,1,2024-02-27T14:14:17.829Z,english_413.wav,0,peel,164,36,5,4,english,f,4,0.32341667,-63.39385234,0.34165264
651a03c8ea1027b3193b9e35,82,1,2024-02-27T14:14:17.829Z,english_81.wav,0,pill,460,36,5,4,english,f,0,0.0,-8.99652005,1.6890162
651a03c8ea1027b3193b9e35,82,1,2024-02-27T14:14:17.829Z,english_81.wav,0,pill,460,36,5,4,english,f,1,0.1,37.2959996,1.86826101
651a03c8ea1027b3193b9e35,82,1,2024-02-27T14:14:17.829Z,english_81.wav,0,pill,460,36,5,4,english,f,2,0.2,56.49217416,0.68929954
651a03c8ea1027b3193b9e35,82,1,2024-02-27T14:14:17.829Z,english_81.wav,0,pill,460,36,5,4,english,f,3,0.3,99.31521879,0.22383451
651a03c8ea1027b3193b9e35,82,1,2024-02-27T14:14:17.829Z,english_81.wav,0,pill,460,36,5,4,english,f,4,0.32341667,-25.36881215,0.930773
651a03c8ea1027b3193b9e35,83,1,2024-02-27T14:14:17.829Z,english_451.wav,0,pill,159,36,5,4,english,f,0,0.0,-87.31297583,0.44823779
651a03c8ea1027b3193b9e35,83,1,2024-02-27T14:14:17.829Z,english_451.wav,0,pill,159,36,5,4,english,f,1,0.1,-44.51362963,0.44678563
651a03c8ea1027b3193b9e35,83,1,2024-02-27T14:14:17.829Z,english_451.wav,0,pill,159,36,5,4,english,f,2,0.2,-15.52945473,1.69444841
651a03c8ea1027b3193b9e35,83,1,2024-02-27T14:14:17.829Z,english_451.wav,0,pill,159,36,5,4,english,f,3,0.3,11.70886435,0.18586344
651a03c8ea1027b3193b9e35,83,1,2024-02-27T14:14:17.829Z,english_451.wav,0,pill,159,36,5,4,english,f,4,0.32341667,82.84342256,0.9677256
651a03c8ea1027b3193b9e35,84,1,2024-02-27T14:14:17.829Z,english_208.wav,0,peel,108,36,5,4,english,f,0,0.0,-16.36413188,1.19542909
651a03c8ea1027b3193b9e35,84,1,2024-02-27T14:14:17.829Z,english_208.wav,0,peel,108,36,5,4,english,f,1,0.1,25.67725806,0.42717457
651a03c8ea1027b3193b9e35,84,1,2024-02-27T14:14:17.829Z,english_208.wav,0,peel,108,36,5,4,english,f,2,0.2,15.43722313,1.01088833
651a03c8ea1027b3193b9e35,84,1,2024-02-27T14:14:17.829Z,english_208.wav,0,peel,108,36,5,4,english,f,3,0.3,-39.3158007,1.09044814
651a03c8ea1027b3193b9e35,84,1,2024-02-27T14:14:17.829Z,english_208.wav,0,peel,108,36,5,4,english,f,4,0.32341667,38.48956167,1.60091335
651a03c8ea1027b3193b9e35,85,1,2024-02-27T14:14:17.829Z,english_972.wav,0,pill,72,36,5,4,english,f,0,0.0,-87.82800068,1.28286493
651a03c8ea1027b3193b9e35,85,1,2024-02-27T14:14:17.829Z,english_972.wav,0,pill,72,36,5,4,english,f,1,0.1,-25.45661385,0.89058027
651a03c8ea1027b3193b9e35,85,1,2024-02-27T14:14:17.829Z,english_972.wav,0,pill,72,36,5,4,english,f,2,0.2,2.95853851,1.4716374
651a03c8ea1027b3193b9e35,85,1,2024-02-27T14:14:17.829Z,english_972.wav,0,pill,72,36,5,4,english,f,3,0.3,84.61583696,0.6386035
651a03c8ea1027b3193b9e35,85,1,2024-02-27T14:14:17.829Z,english_972.wav,0,pill,72,36,5,4,english,f,4,0.32341667,42.95706616,1.51056083
651a03c8ea1027b3193b9e35,86,1,2024-02-27T14:14:17.829Z,english_551.wav,0,pill,641,36,5,4,english,f,0,0.0,51.69986033,0.0331047
651a03c8ea1027b3193b9e35,86,1,2024-02-27T14:14:17.829Z,english_551.wav,0,pill,641,36,5,4,english,f,1,0.1,-91.31948841,0.51079487
651a03c8ea1027b3193b9e35,86,1,2024-02-27T14:14:17.829Z,english_551.wav,0,pill,641,36,5,4,english,f,2,0.2,12.24586311,1.83581854
651a03c8ea1027b3193b9e35,86,1,2024-02-27T14:14:17.829Z,english_551.wav,0,pill,641,36,5,4,english,f,3,0.3,-52.90680215,0.12201236
651a03c8ea1027b3193b9e35,86,1,2024-02-27T14:14:17.829Z,english_551.wav,0,pill,641,36,5,4,english,f,4,0.32341667,-27.23325687,1.55189277
651a03c8ea1027b3193b9e35,87,1,2024-02-27T14:14:17.829Z,english_115.wav,0,pill,88,36,5,4,english,f,0,0.0,-6.4126324,0.37361158
651a03c8ea1027b3193b9e35,87,1,2024-02-27T14:14:17.829Z,english_115.wav,0,pill,88,36,5,4,english,f,1,0.1,-78.70213007,1.5865766
651a03c8ea1027b3193b9e35,87,1,2024-02-27T14:14:17.829Z,english_115.wav,0,pill,88,36,5,4,english,f,2,0.2,-0.36204046,1.00360432
651a03c8ea1027b3193b9e35,87,1,2024-02-27T14:14:17.829Z,english_115.wav,0,pill,88,36,5,4,english,f,3,0.3,-47.97210547,1.3933449
651a03c8ea1027b3193b9e35,87,1,2024-02-27T14:14:17.829Z,english_115.wav,0,pill,88,36,5,4,english,f,4,0.32341667,3.06964689,1.1205092
651a03c8ea1027b3193b9e35,88,1,2024-02-27T14:14:17.829Z,english_119.wav,0,pill,103,36,5,4,english,f,0,0.0,-72.13623542,1.33116293
651a03c8ea1027b3193b9e35,88,1,2024-02-27T14:14:17.829Z,english_119.wav,0,pill,103,36,5,4,english,f,1,0.1,-47.93500709,0.14257244
651a03c8ea1027b3193b9e35,88,1,2024-02-27T14:14:17.829Z,english_119.wav,0,pill,103,36,5,4,english,f,2,0.2,91.39212861,1.10285667
651a03c8ea1027b3193b9e35,88,1,2024-02-27T14:14:17.829Z,english_119.wav,0,pill,103,36,5,4,english,f,3,0.3,-4.62561099,0.57572872
651a03c8ea1027b3193b9e35,88,1,2024-02-27T14:14:17.829Z,english_119.wav,0,pill,103,36,5,4,english,f,4,0.32341667,-33.86599352,1.36512269
651a03c8ea1027b3193b9e35,89,1,2024-02-27T14:14:17.829Z,english_61.wav,0,pill,20,36,5,4,english,f,0,0.0,-58.73450167,1.5196582
651a03c8ea1027b3193b9e35,89,1,2024-02-27T14:14:17.829Z,english_61.wav,0,pill,20,36,5,4,english,f,1,0.1,-68.77732169,0.79346499
651a03c8ea1027b3193b9e35,89,1,2024-02-27T14:14:17.829Z,english_61.wav,0,pill,20,36,5,4,english,f,2,0.2,-61.07430116,0.90548432
651a03c8ea1027b3193b9e35,89,1,2024-02-27T14:14:17.829Z,english_61.wav,0,pill,20,36,5,4,english,f,3,0.3,-87.12791991,1.71431728
651a03c8ea1027b3193b9e35,89,1,2024-02-27T14:14:17.829Z,english_61.wav,0,pill,20,36,5,4,english,f,4,0.32341667,47.32358741,0.57778581
651a03c8ea1027b3193b9e35,90,1,2024-02-27T14:14:17.829Z,english_460.wav,0,peel,15,36,5,4,english,f,0,0.0,-93.21492338,1.97422145
651a03c8ea1027b3193b9e35,90,1,2024-02-27T14:14:17.829Z,english_460.wav,0,peel,15,36,5,4,english,f,1,0.1,-65.59669931,0.48313428
651a03c8ea1027b3193b9e35,90,1,2024-02-27T14:14:17.829Z,english_460.wav,0,peel,15,36,5,4,english,f,2,0.2,76.47030005,0.91916034
651a03c8ea1027b3193b9e35,90,1,2024-02-27T14:14:17.829Z,english_460.wav,0,peel,15,36,5,4,english,f,3,0.3,-24.62267943,0.34121923
651a03c8ea1027b3193b9e35,90,1,2024-02-27T14:14:17.829Z,english_460.wav,0,peel,15,36,5,4,english,f,4,0.32341667,17.6428759,0.75894887
651a03c8ea1027b3193b9e35,91,1,2024-02-27T14:14:17.829Z,english_409.wav,0,pill,109,36,5,4,english,f,0,0.0,-24.04105399,0.29560797
651a03c8ea1027b3193b9e35,91,1,2024-02-27T14:14:17.829Z,english_409.wav,0,pill,109,36,5,4,english,f,1,0.1,-26.67389605,1.53762848
651a03c8ea1027b3193b9e35,91,1,2024-02-27T14:14:17.829Z,english_409.wav,0,pill,109,36,5,4,english,f,2,0.2,23.9966363,0.34602898
651a03c8ea1027b3193b9e35,91,1,2024-02-27T14:14:17.829Z,english_409.wav,0,pill,109,36,5,4,english,f,3,0.3,16.61705293,1.21824435
651a03c8ea1027b3193b9e35,91,1,2024-02-27T14:14:17.829Z,english_409.wav,0,pill,109,36,5,4,english,f,4,0.32341667,73.09980407,1.55330233
651a03c8ea1027b3193b9e35,92,1,2024-02-27T14:14:17.829Z,english_278.wav,0,pill,548,36,5,4,english,f,0,0.0,-49.55521664,0.96598769
651a03c8ea1027b3193b9e35,92,1,2024-02-27T14:14:17.829Z,english_278.wav,0,pill,548,36,5,4,english,f,1,0.1,60.24292507,1.32709354
651a03c8ea1027b3193b9e35,92,1,2024-02-27T14:14:17.829Z,english_278.wav,0,pill,548,36,5,4,english,f,2,0.2,34.32984246,0.84496159
651a03c8ea1027b3193b9e35,92,1,2024-02-27T14:14:17.829Z,english_278.wav,0,pill,548,36,5,4,english,f,3,0.3,91.69210883,1.50157491
651a03c8ea1027b3193b9e35,92,1,2024-02-27T14:14:17.829Z,english_278.wav,0,pill,548,36,5,4,english,f,4,0.32341667,78.84715657,1.85534648
651a03c8ea1027b3193b9e35,93,1,2024-02-27T14:14:17.829Z,english_382.wav,0,pill,33,36,5,4,english,f,0,0.0,-83.35497559,1.24516413
651a03c8ea1027b3193b9e35,93,1,2024-02-27T14:14:17.829Z,english_382.wav,0,pill,33,36,5,4,english,f,1,0.1,7.83115402,0.59675254
651a03c8ea1027b3193b9e35,93,1,2024-02-27T14:14:17.829Z,english_382.wav,0,pill,33,36,5,4,english,f,2,0.2,77.46115257,0.61036026
651a03c8ea1027b3193b9e35,93,1,2024-02-27T14:14:17.829Z,english_382.wav,0,pill,33,36,5,4,english,f,3,0.3,89.755233,1.95554414
651a03c8ea1027b3193b9e35,93,1,2024-02-27T14:14:17.829Z,english_382.wav,0,pill,33,36,5,4,english,f,4,0.32341667,-36.08570956,1.60845727
651a03c8ea1027b3193b9e35,94,1,2024-02-27T14:14:17.829Z,english_758.wav,0,pill,335,36,5,4,english,f,0,0.0,-56.29380511,1.72966744
651a03c8ea1027b3193b9e35,94,1,2024-02-27T14:14:17.829Z,english_758.wav,0,pill,335,36,5,4,english,f,1,0.1,1.29517397,1.20455484
651a03c8ea1027b3193b9e35,94,1,2024-02-27T14:14:17.829Z,english_758.wav,0,pill,335,36,5,4,english,f,2,0.2,49.77366466,0.98441853
651a03c8ea1027b3193b9e35,94,1,2024-02-27T14:14:17.829Z,english_758.wav,0,pill,335,36,5,4,english,f,3,0.3,51.49077837,0.78323536
651a03c8ea1027b3193b9e35,94,1,2024-02-27T14:14:17.829Z,english_758.wav,0,pill,335,36,5,4,english,f,4,0.32341667,80.19813303,1.88107652
651a03c8ea1027b3193b9e35,95,1,2024-02-27T14:14:17.829Z,english_944.wav,0,pill,146,36,5,4,english,f,0,0.0,70.24274457,0.61048125
651a03c8ea1027b3193b9e35,95,1,2024-02-27T14:14:17.829Z,english_944.wav,0,pill,146,36,5,4,english,f,1,0.1,-48.79231442,1.63310511
651a03c8ea1027b3193b9e35,95,1,2024-02-27T14:14:17.829Z,english_944.wav,0,pill,146,36,5,4,english,f,2,0.2,-6.42324239,0.21687347
651a03c8ea1027b3193b9e35,95,1,2024-02-27T14:14:17.829Z,english_944.wav,0,pill,146,36,5,4,english,f,3,0.3,-7.7338836,0.45027042
651a03c8ea1027b3193b9e35,95,1,2024-02-27T14:14:17.829Z,english_944.wav,0,pill,146,36,5,4,english,f,4,0.32341667,69.46240638,0.90306897
651a03c8ea1027b3193b9e35,96,1,2024-02-27T14:14:17.829Z,english_28.wav,0,peel,306,36,5,4,english,f,0,0.0,46.68805065,0.37315412
651a03c8ea1027b3193b9e35,96,1,2024-02-27T14:14:17.829Z,english_28.wav,0,peel,306,36,5,4,english,f,1,0.1,-19.91180265,0.08560602
651a03c8ea1027b3193b9e35,96,1,2024-02-27T14:14:17.829Z,english_28.wav,0,peel,306,36,5,4,english,f,2,0.2,30.74929008,0.67724734
651a03c8ea1027b3193b9e35,96,1,2024-02-27T14:14:17.829Z,english_28.wav,0,peel,306,36,5,4,english,f,3,0.3,14.01537548,0.53332652
651a03c8ea1027b3193b9e35,96,1,2024-02-27T14:14:17.829Z,english_28.wav,0,peel,306,36,5,4,english,f,4,0.32341667,-32.95915121,1.33480721
651a03c8ea1027b3193b9e35,97,1,2024-02-27T14:14:17.829Z,english_840.wav,0,pill,193,36,5,4,english,f,0,0.0,-27.11425843,1.31301797
651a03c8ea1027b3193b9e35,97,1,2024-02-27T14:14:17.829Z,english_840.wav,0,pill,193,36,5,4,english,f,1,0.1,-47.31494811,0.54280133
651a03c8ea1027b3193b9e35,97,1,2024-02-27T14:14:17.829Z,english_840.wav,0,pill,193,36,5,4,english,f,2,0.2,-88.66887426,0.14090987
651a03c8ea1027b3193b9e35,97,1,2024-02-27T14:14:17.829Z,english_840.wav,0,pill,193,36,5,4,english,f,3,0.3,7.86940595,0.11950116
651a03c8ea1027b3193b9e35,97,1,2024-02-27T14:14:17.829Z,english_840.wav,0,pill,193,36,5,4,english,f,4,0.32341667,87.61758205,1.48166624
651a03c8ea1027b3193b9e35,98,1,2024-02-27T14:14:17.829Z,english_463.wav,0,pill,85,36,5,4,english,f,0,0.0,-17.89775534,1.84132871
651a03c8ea1027b3193b9e35,98,1,2024-02-27T14:14:17.829Z,english_463.wav,0,pill,85,36,5,4,english,f,1,0.1,-21.51631701,1.66361617
651a03c8ea1027b3193b9e35,98,1,2024-02-27T14:14:17.829Z,english_463.wav,0,pill,85,36,5,4,english,f,2,0.2,-12.53951077,0.64060514
651a03c8ea1027b3193b9e35,98,1,2024-02-27T14:14:17.829Z,english_463.wav,0,pill,85,36,5,4,english,f,3,0.3,33.47501925,1.01091097
651a03c8ea1027b3193b9e35,98,1,2024-02-27T14:14:17.829Z,english_463.wav,0,pill,85,36,5,4,english,f,4,0.32341667,-93.09525534,0.69499506
651a03c8ea1027b3193b9e35,99,1,2024-02-27T14:14:17.829Z,english_232.wav,0,pill,85,36,5,4,english,f,0,0.0,15.13134779,0.53160298
651a03c8ea1027b3193b9e35,99,1,2024-02-27T14:14:17.829Z,english_232.wav,0,pill,85,36,5,4,english,f,1,0.1,-49.29605083,0.4519978
651a03c8ea1027b3193b9e35,99,1,2024-02-27T14:14:17.829Z,english_232.wav,0,pill,85,36,5,4,english,f,2,0.2,59.10606455,0.39260156
651a03c8ea1027b3193b9e35,99,1,2024-02-27T14:14:17.829Z,english_232.wav,0,pill,85,36,5,4,english,f,3,0.3,48.81708847,0.4692084
651a03c8ea1027b3193b9e35,99,1,2024-02-27T14:14:17.829Z,english_232.wav,0,pill,85,36,5,4,english,f,4,0.32341667,14.83590121,0.46233459
651a03c8ea1027b3193b9e35,100,2,2024-02-27T14:14:17.829Z,english_27.wav,0,pill,515,36,5,4,english,f,0,0.0,-6.18374659,1.89085405
651a03c8ea1027b3193b9e35,100,2,2024-02-27T14:14:17.829Z,english_27.wav,0,pill,515,36,5,4,english,f,1,0.1,32.21095844,0.80138328
651a03c8ea1027b3193b9e35,100,2,2024-02-27T14:14:17.829Z,english_27.wav,0,pill,515,36,5,4,english,f,2,0.2,21.02729748,1.01248602
651a03c8ea1027b3193b9e35,100,2,2024-02-27T14:14:17.829Z,english_27.wav,0,pill,515,36,5,4,english,f,3,0.3,4.79829383,1.67412938
651a03c8ea1027b3193b9e35,100,2,2024-02-27T14:14:17.829Z,english_27.wav,0,pill,515,36,5,4,english,f,4,0.32341667,-70.7577659,0.3387802
651a03c8ea1027b3193b9e35,101,2,2024-02-27T14:14:17.829Z,english_520.wav,0,peel,5,36,5,4,english,f,0,0.0,86.3711843,1.94117834
651a03c8ea1027b3193b9e35,101,2,2024-02-27T14:14:17.829Z,english_520.wav,0,peel,5,36,5,4,english,f,1,0.1,30.73905166,1.71866566
651a03c8ea1027b3193b9e35,101,2,2024-02-27T14:14:17.829Z,english_520.wav,0,peel,5,36,5,4,english,f,2,0.2,6.06230503,1.15295637
651a03c8ea1027b3193b9e35,101,2,2024-02-27T14:14:17.829Z,english_520.wav,0,peel,5,36,5,4,english,f,3,0.3,-72.93527416,0.80072648
651a03c8ea1027b3193b9e35,101,2,2024-02-27T14:14:17.829Z,english_520.wav,0,peel,5,36,5,4,english,f,4,0.32341667,40.17700679,1.71054199
651a03c8ea1027b3193b9e35,102,2,2024-02-27T14:14:17.829Z,english_353.wav,0,peel,258,36,5,4,english,f,0,0.0,51.44050484,0.16518243
651a03c8ea1027b3193b9e35,102,2,2024-02-27T14:14:17.829Z,english_353.wav,0,peel,258,36,5,4,english,f,1,0.1,-8.32491594,1.32533476
651a03c8ea1027b3193b9e35,102,2,2024-02-27T14:14:17.829Z,english_353.wav,0,peel,258,36,5,4,english,f,2,0.2,-53.32966552,0.41923861
651a03c8ea1027b3193b9e35,102,2,2024-02-27T14:14:17.829Z,english_353.wav,0,peel,258,36,5,4,english,f,3,0.3,68.29246543,1.87374553
651a03c8ea1027b3193b9e35,102,2,2024-02-27T14:14:17.829Z,english_353.wav,0,peel,258,36,5,4,english,f,4,0.32341667,-32.22441747,1.13071195
651a03c8ea1027b3193b9e35,103,2,2024-02-27T14:14:17.829Z,english_62.wav,0,pill,477,36,5,4,english,f,0,0.0,17.28527913,1.12530616
651a03c8ea1027b3193b9e35,103,2,2024-02-27T14:14:17.829Z,english_62.wav,0,pill,477,36,5,4,english,f,1,0.1,8.63936001,1.09357984
651a03c8ea1027b3193b9e35,103,2,2024-02-27T14:14:17.829Z,english_62.wav,0,pill,477,36,5,4,english,f,2,0.2,-69.0074729,1.07648496
651a03c8ea1027b3193b9e35,103,2,2024-02-27T14:14:17.829Z,english_62.wav,0,pill,477,36,5,4,english,f,3,0.3,-18.85502465,0.36768209
651a03c8ea1027b3193b9e35,103,2,2024-02-27T14:14:17.829Z,english_62.wav,0,pill,477,36,5,4,english,f,4,0.32341667,59.46739627,0.39033463
651a03c8ea1027b3193b9e35,104,2,2024-02-27T14:14:17.829Z,english_199.wav,0,pill,394,36,5,4,english,f,0,0.0,-24.89956817,0.07306367
651a03c8ea1027b3193b9e35,104,2,2024-02-27T14:14:17.829Z,english_199.wav,0,pill,394,36,5,4,english,f,1,0.1,-48.49200931,0.10334581
651a03c8ea1027b3193b9e35,104,2,2024-02-27T14:14:17.829Z,english_199.wav,0,pill,394,36,5,4,english,f,2,0.2,-89.66548778,1.49062114
651a03c8ea1027b3193b9e35,104,2,2024-02-27T14:14:17.829Z,english_199.wav,0,pill,394,36,5,4,english,f,3,0.3,29.20785813,0.36717513
651a03c8ea1027b3193b9e35,104,2,2024-02-27T14:14:17.829Z,english_199.wav,0,pill,394,36,5,4,english,f,4,0.32341667,-88.68286362,1.33179809
651a03c8ea1027b3193b9e35,105,2,2024-02-27T14:14:17.829Z,english_717.wav,0,peel,156,36,5,4,english,f,0,0.0,11.70361719,1.43236824
651a03c8ea1027b3193b9e35,105,2,2024-02-27T14:14:17.829Z,english_717.wav,0,peel,156,36,5,4,english,f,1,0.1,-43.41962,0.38419888
651a03c8ea1027b3193b9e35,105,2,2024-02-27T14:14:17.829Z,english_717.wav,0,peel,156,36,5,4,english,f,2,0.2,-38.6653904,1.88953633
651a03c8ea1027b3193b9e35,105,2,2024-02-27T14:14:17.829Z,english_717.wav,0,peel,156,36,5,4,english,f,3,0.3,-38.11833374,1.28007762
651a03c8ea1027b3193b9e35,105,2,2024-02-27T14:14:17.829Z,english_717.wav,0,peel,156,36,5,4,english,f,4,0.32341667,93.29743671,0.67082429
651a03c8ea1027b3193b9e35,106,2,2024-02-27T14:14:17.829Z,english_1000.wav,0,pill,183,36,5,4,english,f,0,0.0,27.35321797,1.01803417
651a03c8ea1027b3193b9e35,106,2,2024-02-27T14:14:17.829Z,english_1000.wav,0,pill,183,36,5,4,english,f,1,0.1,42.13438871,0.4558176
651a03c8ea1027b3193b9e35,106,2,2024-02-27T14:14:17.829Z,english_1000.wav,0,pill,183,36,5,4,english,f,2,0.2,95.34760893,0.52251179
651a03c8ea1027b3193b9e35,106,2,2024-02-27T14:14:17.829Z,english_1000.wav,0,pill,183,36,5,4,english,f,3,0.3,-34.10168873,0.90165507
651a03c8ea1027b3193b9e35,106,2,2024-02-27T14:14:17.829Z,english_1000.wav,0,pill,183,36,5,4,english,f,4,0.32341667,64.49689477,0.38395199
651a03c8ea1027b3193b9e35,107,2,2024-02-27T14:14:17.829Z,english_376.wav,0,pill,60,36,5,4,english,f,0,0.0,-10.66231765,0.83936518
651a03c8ea1027b3193b9e35,107,2,2024-02-27T14:14:17.829Z,english_376.wav,0,pill,60,36,5,4,english,f,1,0.1,-53.95799634,1.7265478
651a03c8ea1027b3193b9e35,107,2,2024-02-27T14:14:17.829Z,english_376.wav,0,pill,60,36,5,4,english,f,2,0.2,-44.60014177,0.44309389
651a03c8ea1027b3193b9e35,107,2,2024-02-27T14:14:17.829Z,english_376.wav,0,pill,60,36,5,4,english,f,3,0.3,-84.32777745,1.91772458
651a03c8ea1027b3193b9e35,107,2,2024-02-27T14:14:17.829Z,english_376.wav,0,pill,60,36,5,4,english,f,4,0.32341667,-2.76179289,0.76255227
651a03c8ea1027b3193b9e35,108,2,2024-02-27T14:14:17.829Z,english_230.wav,0,pill,418,36,5,4,english,f,0,0.0,59.01519707,0.66464778
651a03c8ea1027b3193b9e35,108,2,2024-02-27T14:14:17.829Z,english_230.wav,0,pill,418,36,5,4,english,f,1,0.1,-74.67447784,1.09498554
651a03c8ea1027b3193b9e35,108,2,2024-02-27T14:14:17.829Z,english_230.wav,0,pill,418,36,5,4,english,f,2,0.2,78.11378701,0.24708562
651a03c8ea1027b3193b9e35,108,2,2024-02-27T14:14:17.829Z,english_230.wav,0,pill,418,36,5,4,english,f,3,0.3,26.79367619,1.40152246
651a03c8ea1027b3193b9e35,108,2,2024-02-27T14:14:17.829Z,english_230.wav,0,pill,418,36,5,4,english,f,4,0.32341667,29.92451654,1.02203861
651a03c8ea1027b3193b9e35,109,2,2024-02-27T14:14:17.829Z,english_97.wav,0,peel,152,36,5,4,english,f,0,0.0,57.21139396,1.63402743
651a03c8ea1027b3193b9e35,109,2,2024-02-27T14:14:17.829Z,english_97.wav,0,peel,152,36,5,4,english,f,1,0.1,-7.40408397,0.54734888
651a03c8ea1027b3193b9e35,109,2,2024-02-27T14:14:17.829Z,english_97.wav,0,peel,152,36,5,4,english,f,2,0.2,77.7995227,1.5228594
651a03c8ea1027b3193b9e35,109,2,2024-02-27T14:14:17.829Z,english_97.wav,0,peel,152,36,5,4,english,f,3,0.3,-51.1747528,1.13050105
651a03c8ea1027b3193b9e35,109,2,2024-02-27T14:14:17.829Z,english_97.wav,0,peel,152,36,5,4,english,f,4,0.32341667,77.11982253,0.82586999
651a03c8ea1027b3193b9e35,110,2,2024-02-27T14:14:17.829Z,english_595.wav,0,peel,326,36,5,4,english,f,0,0.0,-39.84727911,1.6526444
651a03c8ea1027b3193b9e35,110,2,2024-02-27T14:14:17.829Z,english_595.wav,0,peel,326,36,5,4,english,f,1,0.1,-68.85607622,1.11711065
651a03c8ea1027b3193b9e35,110,2,2024-02-27T14:14:17.829Z,english_595.wav,0,peel,326,36,5,4,english,f,2,0.2,23.68364187,1.96516016
651a03c8ea1027b3193b9e35,110,2,2024-02-27T14:14:17.829Z,english_595.wav,0,peel,326,36,5,4,english,f,3,0.3,-80.51887658,0.34053421
651a03c8ea1027b3193b9e35,110,2,2024-02-27T14:14:17.829Z,english_595.wav,0,peel,326,36,5,4,english,f,4,0.32341667,-94.66311932,1.22603371
651a03c8ea1027b3193b9e35,111,2,2024-02-27T14:14:17.829Z,english_908.wav,0,peel,155,36,5,4,english,f,0,0.0,48.62867987,1.27180628
651a03c8ea1027b3193b9e35,111,2,2024-02-27T14:14:17.829Z,english_908.wav,0,peel,155,36,5,4,english,f,1,0.1,15.18588807,0.65893562
651a03c8ea1027b3193b9e35,111,2,2024-02-27T14:14:17.829Z,english_908.wav,0,peel,155,36,5,4,english,f,2,0.2,-42.37345339,1.07678682
651a03c8ea1027b3193b9e35,111,2,2024-02-27T14:14:17.829Z,english_908.wav,0,peel,155,36,5,4,english,f,3,0.3,10.74033392,1.66111239
651a03c8ea1027b3193b9e35,111,2,2024-02-27T14:14:17.829Z,english_908.wav,0,peel,155,36,5,4,english,f,4,0.32341667,-40.14378972,0.30218678
651a03c8ea1027b3193b9e35,112,2,2024-02-27T14:14:17.829Z,english_701.wav,0,pill,174,36,5,4,english,f,0,0.0,87.15265727,1.41120649
651a03c8ea1027b3193b9e35,112,2,2024-02-27T14:14:17.829Z,english_701.wav,0,pill,174,36,5,4,english,f,1,0.1,38.39882515,0.44004622
651a03c8ea1027b3193b9e35,112,2,2024-02-27T14:14:17.829Z,english_701.wav,0,pill,174,36,5,4,english,f,2,0.2,64.60201562,1.15462264
651a03c8ea1027b3193b9e35,112,2,2024-02-27T14:14:17.829Z,english_701.wav,0,pill,174,36,5,4,english,f,3,0.3,12.58613119,1.17454355
651a03c8ea1027b3193b9e35,112,2,2024-02-27T14:14:17.829Z,english_701.wav,0,pill,174,36,5,4,english,f,4,0.32341667,46.94968762,1.38716818
651a03c8ea1027b3193b9e35,113,2,2024-02-27T14:14:17.829Z,english_836.wav,0,pill,293,36,5,4,english,f,0,0.0,34.85846782,1.04017402
651a03c8ea1027b3193b9e35,113,2,2024-02-27T14:14:17.829Z,english_836.wav,0,pill,293,36,5,4,english,f,1,0.1,41.54458908,0.35535359
651a03c8ea1027b3193b9e35,113,2,2024-02-27T14:14:17.829Z,english_836.wav,0,pill,293,36,5,4,english,f,2,0.2,23.27363575,0.10471693
651a03c8ea1027b3193b9e35,113,2,2024-02-27T14:14:17.829Z,english_836.wav,0,pill,293,36,5,4,english,f,3,0.3,86.83996211,0.55523491
651a03c8ea1027b3193b9e35,113,2,2024-02-27T14:14:17.829Z,english_836.wav,0,pill,293,36,5,4,english,f,4,0.32341667,-32.25656931,0.70311776
651a03c8ea1027b3193b9e35,114,2,2024-02-27T14:14:17.829Z,english_104.wav,0,pill,198,36,5,4,english,f,0,0.0,42.44693926,0.1741435
651a03c8ea1027b3193b9e35,114,2,2024-02-27T14:14:17.829Z,english_104.wav,0,pill,198,36,5,4,english,f,1,0.1,82.22484934,0.11379641
651a03c8ea1027b3193b9e35,114,2,2024-02-27T14:14:17.829Z,english_104.wav,0,pill,198,36,5,4,english,f,2,0.2,7.21737924,1.60376175
651a03c8ea1027b3193b9e35,114,2,2024-02-27T14:14:17.829Z,english_104.wav,0,pill,198,36,5,4,english,f,3,0.3,26.54640215,1.08059257
651a03c8ea1027b3193b9e35,114,2,2024-02-27T14:14:17.829Z,english_104.wav,0,pill,198,36,5,4,english,f,4,0.32341667,-33.4974026,1.8061622
651a03c8ea1027b3193b9e35,115,2,2024-02-27T14:14:17.829Z,english_173.wav,0,pill,470,36,5,4,english,f,0,0.0,11.1251521,0.60172576
651a03c8ea1027b3193b9e35,115,2,2024-02-27T14:14:17.829Z,english_173.wav,0,pill,470,36,5,4,english,f,1,0.1,94.22411188,0.44802145
651a03c8ea1027b3193b9e35,115,2,2024-02-27T14:14:17.829Z,english_173.wav,0,pill,470,36,5,4,english,f,2,0.2,89.44753043,1.27552997
651a03c8ea1027b3193b9e35,115,2,2024-02-27T14:14:17.829Z,english_173.wav,0,pill,470,36,5,4,english,f,3,0.3,74.30769895,1.09756939
651a03c8ea1027b3193b9e35,115,2,2024-02-27T14:14:17.829Z,english_173.wav,0,pill,470,36,5,4,english,f,4,0.32341667,-37.47679669,0.7907315
651a03c8ea1027b3193b9e35,116,2,2024-02-27T14:14:17.829Z,english_526.wav,0,pill,322,36,5,4,english,f,0,0.0,-32.34532461,0.924261
651a03c8ea1027b3193b9e35,116,2,2024-02-27T14:14:17.829Z,english_526.wav,0,pill,322,36,5,4,english,f,1,0.1,-46.6208459,0.25414499
651a03c8ea1027b3193b9e35,116,2,2024-02-27T14:14:17.829Z,english_526.wav,0,pill,322,36,5,4,english,f,2,0.2,-42.84927068,1.01925886
651a03c8ea1027b3193b9e35,116,2,2024-02-27T14:14:17.829Z,english_526.wav,0,pill,322,36,5,4,english,f,3,0.3,3.47643827,0.65966822
651a03c8ea1027b3193b9e35,116,2,2024-02-27T14:14:17.829Z,english_526.wav,0,pill,322,36,5,4,english,f,4,0.32341667,52.79087598,1.50872035
651a03c8ea1027b3193b9e35,117,2,2024-02-27T14:14:17.829Z,english_559.wav,0,pill,156,36,5,4,english,f,0,0.0,72.91796617,0.28347303
651a03c8ea1027b3193b9e35,117,2,2024-02-27T14:14:17.829Z,english_559.wav,0,pill,156,36,5,4,english,f,1,0.1,49.0763932,0.33705515
651a03c8ea1027b3193b9e35,117,2,2024-02-27T14:14:17.829Z,english_559.wav,0,pill,156,36,5,4,english,f,2,0.2,37.36372944,1.25665906
651a03c8ea1027b3193b9e35,117,2,2024-02-27T14:14:17.829Z,english_559.wav,0,pill,156,36,5,4,english,f,3,0.3,62.8744144,0.42135622
651a03c8ea1027b3193b9e35,117,2,2024-02-27T14:14:17.829Z,english_559.wav,0,pill,156,36,5,4,english,f,4,0.32341667,-70.24316133,0.44445559
651a03c8ea1027b3193b9e35,118,2,2024-02-27T14:14:17.829Z,english_915.wav,0,pill,273,36,5,4,english,f,0,0.0,40.39704719,0.11203387
651a03c8ea1027b3193b9e35,118,2,2024-02-27T14:14:17.829Z,english_915.wav,0,pill,273,36,5,4,english,f,1,0.1,-77.86782689,0.449249
651a03c8ea1027b3193b9e35,118,2,2024-02-27T14:14:17.829Z,english_915.wav,0,pill,273,36,5,4,english,f,2,0.2,21.84672988,0.02407483
651a03c8ea1027b3193b9e35,118,2,2024-02-27T14:14:17.829Z,english_915.wav,0,pill,273,36,5,4,english,f,3,0.3,-56.0972156,1.6502756
651a03c8ea1027b3193b9e35,118,2,2024-02-27T14:14:17.829Z,english_915.wav,0,pill,273,36,5,4,english,f,4,0.32341667,65.00594456,0.65362707
651a03c8ea1027b3193b9e35,119,2,2024-02-27T14:14:17.829Z,english_3.wav,0,peel,94,36,5,4,english,f,0,0.0,-57.66547148,1.73485112
651a03c8ea1027b3193b9e35,119,2,2024-02-27T14:14:17.829Z,english_3.wav,0,peel,94,36,5,4,english,f,1,0.1,-70.60568286,1.4226462
651a03c8ea1027b3193b9e35,119,2,2024-02-27T14:14:17.829Z,english_3.wav,0,peel,94,36,5,4,english,f,2,0.2,70.86912423,1.06235888
651a03c8ea1027b3193b9e35,119,2,2024-02-27T14:14:17.829Z,english_3.wav,0,peel,94,36,5,4,english,f,3,0.3,-17.39285893,1.05619652
651a03c8ea1027b3193b9e35,119,2,2024-02-27T14:14:17.829Z,english_3.wav,0,peel,94,36,5,4,english,f,4,0.32341667,-60.61780379,1.35606233
651a03c8ea1027b3193b9e35,120,2,2024-02-27T14:14:17.829Z,english_534.wav,0,pill,117,36,5,4,english,f,0,0.0,-42.4271338,1.1267565
651a03c8ea1027b3193b9e35,120,2,2024-02-27T14:14:17.829Z,english_534.wav,0,pill,117,36,5,4,english,f,1,0.1,-80.6424644,0.6842577
651a03c8ea1027b3193b9e35,120,2,2024-02-27T14:14:17.829Z,english_534.wav,0,pill,117,36,5,4,english,f,2,0.2,59.29592388,0.01459656
651a03c8ea1027b3193b9e35,120,2,2024-02-27T14:14:17.829Z,english_534.wav,0,pill,117,36,5,4,english,f,3,0.3,75.02007223,1.03701198
651a03c8ea1027b3193b9e35,120,2,2024-02-27T14:14:17.829Z,english_534.wav,0,pill,117,36,5,4,english,f,4,0.32341667,-57.55026449,1.25840342
651a03c8ea1027b3193b9e35,121,2,2024-02-27T14:14:17.829Z,english_737.wav,0,peel,167,36,5,4,english,f,0,0.0,21.35751723,1.17499048
651a03c8ea1027b3193b9e35,121,2,2024-02-27T14:14:17.829Z,english_737.wav,0,peel,167,36,5,4,english,f,1,0.1,61.52152077,1.09581395
651a03c8ea1027b3193b9e35,121,2,2024-02-27T14:14:17.829Z,english_737.wav,0,peel,167,36,5,4,english,f,2,0.2,-29.75610596,0.62940412
651a03c8ea1027b3193b9e35,121,2,2024-02-27T14:14:17.829Z,english_737.wav,0,peel,167,36,5,4,english,f,3,0.3,-39.80249708,0.11793022
651a03c8ea1027b3193b9e35,121,2,2024-02-27T14:14:17.829Z,english_737.wav,0,peel,167,36,5,4,english,f,4,0.32341667,-14.64937497,0.62377861
651a03c8ea1027b3193b9e35,122,2,2024-02-27T14:14:17.829Z,english_95.wav,0,pill,466,36,5,4,english,f,0,0.0,-9.17523314,0.73915747
651a03c8ea1027b3193b9e35,122,2,2024-02-27T14:14:17.829Z,english_95.wav,0,pill,466,36,5,4,english,f,1,0.1,-95.16832451,1.01172325
651a03c8ea1027b3193b9e35,122,2,2024-02-27T14:14:17.829Z,english_95.wav,0,pill,466,36,5,4,english,f,2,0.2,-21.6130257,1.19817679
651a03c8ea1027b3193b9e35,122,2,2024-02-27T14:14:17.829Z,english_95.wav,0,pill,466,36,5,4,english,f,3,0.3,0.51006416,1.53285694
651a03c8ea1027b3193b9e35,122,2,2024-02-27T14:14:17.829Z,english_95.wav,0,pill,466,36,5,4,english,f,4,0.32341667,43.00131518,1.08383215
651a03c8ea1027b3193b9e35,123,2,2024-02-27T14:14:17.829Z,english_37.wav,0,peel,86,36,5,4,english,f,0,0.0,-5.54999706,1.12257854
651a03c8ea1027b3193b9e35,123,2,2024-02-27T14:14:17.829Z,english_37.wav,0,peel,86,36,5,4,english,f,1,0.1,23.22206304,1.8669628
651a03c8ea1027b3193b9e35,123,2,2024-02-27T14:14:17.829Z,english_37.wav,0,peel,86,36,5,4,english,f,2,0.2,-57.36481589,0.39386712
651a03c8ea1027b3193b9e35,123,2,2024-02-27T14:14:17.829Z,english_37.wav,0,peel,86,36,5,4,english,f,3,0.3,58.0578648,1.21765674
651a03c8ea1027b3193b9e35,123,2,2024-02-27T14:14:17.829Z,english_37.wav,0,peel,86,36,5,4,english,f,4,0.32341667,66.03280024,0.74428952
651a03c8ea1027b3193b9e35,124,2,2024-02-27T14:14:17.829Z,english_760.wav,0,pill,63,36,5,4,english,f,0,0.0,24.3902693,0.67210823
651a03c8ea1027b3193b9e35,124,2,2024-02-27T14:14:17.829Z,english_760.wav,0,pill,63,36,5,4,english,f,1,0.1,-0.0247174936,1.89588113
651a03c8ea1027b3193b9e35,124,2,2024-02-27T14:14:17.829Z,english_760.wav,0,pill,63,36,5,4,english,f,2,0.2,82.8662613,0.23432987
651a03c8ea1027b3193b9e35,124,2,2024-02-27T14:14:17.829Z,english_760.wav,0,pill,63,36,5,4,english,f,3,0.3,-7.97314524,1.20797246
651a03c8ea1027b3193b9e35,124,2,2024-02-27T14:14:17.829Z,english_760.wav,0,pill,63,36,5,4,english,f,4,0.323416667,-6.32438983,1.72866971
651a03c8ea1027b3193b9e35,125,2,2024-02-27T14:14:17.829Z,english_456.wav,0,pill,120,36,5,4,english,f,0,0.0,43.57092671,0.12750432
651a03c8ea1027b3193b9e35,125,2,2024-02-27T14:14:17.829Z,english_456.wav,0,pill,120,36,5,4,english,f,1,0.1,59.73787768,0.97340157
651a03c8ea1027b3193b9e35,125,2,2024-02-27T14:14:17.829Z,english_456.wav,0,pill,120,36,5,4,english,f,2,0.2,82.18665257,0.43547726
651a03c8ea1027b3193b9e35,125,2,2024-02-27T14:14:17.829Z,english_456.wav,0,pill,120,36,5,4,english,f,3,0.3,84.09992258,1.17970357
651a03c8ea1027b3193b9e35,125,2,2024-02-27T14:14:17.829Z,english_456.wav,0,pill,120,36,5,4,english,f,4,0.32341667,14.68455092,0.64309566
651a03c8ea1027b3193b9e35,126,2,2024-02-27T14:14:17.829Z,english_720.wav,0,pill,15,36,5,4,english,f,0,0.0,85.23240719,1.23446246
651a03c8ea1027b3193b9e35,126,2,2024-02-27T14:14:17.829Z,english_720.wav,0,pill,15,36,5,4,english,f,1,0.1,78.65958559,0.77382892
651a03c8ea1027b3193b9e35,126,2,2024-02-27T14:14:17.829Z,english_720.wav,0,pill,15,36,5,4,english,f,2,0.2,-56.45174874,0.48705718
651a03c8ea1027b3193b9e35,126,2,2024-02-27T14:14:17.829Z,english_720.wav,0,pill,15,36,5,4,english,f,3,0.3,71.88898266,1.42335328
651a03c8ea1027b3193b9e35,126,2,2024-02-27T14:14:17.829Z,english_720.wav,0,pill,15,36,5,4,english,f,4,0.32341667,-9.13482,1.32495619
651a03c8ea1027b3193b9e35,127,2,2024-02-27T14:14:17.829Z,english_576.wav,0,peel,649,36,5,4,english,f,0,0.0,70.71636046,1.40655209
651a03c8ea1027b3193b9e35,127,2,2024-02-27T14:14:17.829Z,english_576.wav,0,peel,649,36,5,4,english,f,1,0.1,-53.10414049,0.7609351
651a03c8ea1027b3193b9e35,127,2,2024-02-27T14:14:17.829Z,english_576.wav,0,peel,649,36,5,4,english,f,2,0.2,34.4374047,1.0155723
651a03c8ea1027b3193b9e35,127,2,2024-02-27T14:14:17.829Z,english_576.wav,0,peel,649,36,5,4,english,f,3,0.3,19.64113521,1.45906276
651a03c8ea1027b3193b9e35,127,2,2024-02-27T14:14:17.829Z,english_576.wav,0,peel,649,36,5,4,english,f,4,0.32341667,36.63265498,1.49724695
651a03c8ea1027b3193b9e35,128,2,2024-02-27T14:14:17.829Z,english_504.wav,0,pill,102,36,5,4,english,f,0,0.0,4.11468456,0.75379057
651a03c8ea1027b3193b9e35,128,2,2024-02-27T14:14:17.829Z,english_504.wav,0,pill,102,36,5,4,english,f,1,0.1,70.56620437,1.18348717
651a03c8ea1027b3193b9e35,128,2,2024-02-27T14:14:17.829Z,english_504.wav,0,pill,102,36,5,4,english,f,2,0.2,3.26767498,0.25360202
651a03c8ea1027b3193b9e35,128,2,2024-02-27T14:14:17.829Z,english_504.wav,0,pill,102,36,5,4,english,f,3,0.3,-3.14493553,1.87094491
651a03c8ea1027b3193b9e35,128,2,2024-02-27T14:14:17.829Z,english_504.wav,0,pill,102,36,5,4,english,f,4,0.32341667,43.57926014,0.110125
651a03c8ea1027b3193b9e35,129,2,2024-02-27T14:14:17.829Z,english_317.wav,0,peel,535,36,5,4,english,f,0,0.0,-26.75650792,1.75672771
651a03c8ea1027b3193b9e35,129,2,2024-02-27T14:14:17.829Z,english_317.wav,0,peel,535,36,5,4,english,f,1,0.1,9.07297032,1.82949168
651a03c8ea1027b3193b9e35,129,2,2024-02-27T14:14:17.829Z,english_317.wav,0,peel,535,36,5,4,english,f,2,0.2,17.58512652,1.6954519
651a03c8ea1027b3193b9e35,129,2,2024-02-27T14:14:17.829Z,english_317.wav,0,peel,535,36,5,4,english,f,3,0.3,29.57201507,0.7122411
651a03c8ea1027b3193b9e35,129,2,2024-02-27T14:14:17.829Z,english_317.wav,0,peel,535,36,5,4,english,f,4,0.32341667,56.4667582,1.26753728
651a03c8ea1027b3193b9e35,130,2,2024-02-27T14:14:17.829Z,english_761.wav,0,peel,178,36,5,4,english,f,0,0.0,-7.84319468,0.39728316
651a03c8ea1027b3193b9e35,130,2,2024-02-27T14:14:17.829Z,english_761.wav,0,peel,178,36,5,4,english,f,1,0.1,77.10262164,0.76675063
651a03c8ea1027b3193b9e35,130,2,2024-02-27T14:14:17.829Z,english_761.wav,0,peel,178,36,5,4,english,f,2,0.2,23.07677451,1.40075404
651a03c8ea1027b3193b9e35,130,2,2024-02-27T14:14:17.829Z,english_761.wav,0,peel,178,36,5,4,english,f,3,0.3,-22.28856666,0.53792203
651a03c8ea1027b3193b9e35,130,2,2024-02-27T14:14:17.829Z,english_761.wav,0,peel,178,36,5,4,english,f,4,0.32341667,18.71779046,1.06229189
651a03c8ea1027b3193b9e35,131,2,2024-02-27T14:14:17.829Z,english_282.wav,0,pill,195,36,5,4,english,f,0,0.0,0.76940706,0.32837311
651a03c8ea1027b3193b9e35,131,2,2024-02-27T14:14:17.829Z,english_282.wav,0,pill,195,36,5,4,english,f,1,0.1,85.14494722,0.39977994
651a03c8ea1027b3193b9e35,131,2,2024-02-27T14:14:17.829Z,english_282.wav,0,pill,195,36,5,4,english,f,2,0.2,-92.43433596,0.62065738
651a03c8ea1027b3193b9e35,131,2,2024-02-27T14:14:17.829Z,english_282.wav,0,pill,195,36,5,4,english,f,3,0.3,-98.42888083,0.06200237
651a03c8ea1027b3193b9e35,131,2,2024-02-27T14:14:17.829Z,english_282.wav,0,pill,195,36,5,4,english,f,4,0.32341667,-32.58662549,1.4193679
651a03c8ea1027b3193b9e35,132,2,2024-02-27T14:14:17.829Z,english_851.wav,0,pill,189,36,5,4,english,f,0,0.0,-83.90491711,1.65488062
651a03c8ea1027b3193b9e35,132,2,2024-02-27T14:14:17.829Z,english_851.wav,0,pill,189,36,5,4,english,f,1,0.1,92.94065497,0.14315595
651a03c8ea1027b3193b9e35,132,2,2024-02-27T14:14:17.829Z,english_851.wav,0,pill,189,36,5,4,english,f,2,0.2,-63.47542883,0.84481863
651a03c8ea1027b3193b9e35,132,2,2024-02-27T14:14:17.829Z,english_851.wav,0,pill,189,36,5,4,english,f,3,0.3,13.34025436,1.9580918
651a03c8ea1027b3193b9e35,132,2,2024-02-27T14:14:17.829Z,english_851.wav,0,pill,189,36,5,4,english,f,4,0.32341667,32.96474042,0.23608581
651a03c8ea1027b3193b9e35,133,2,2024-02-27T14:14:17.829Z,english_235.wav,0,pill,67,36,5,4,english,f,0,0.0,-1.09951899,1.56432712
651a03c8ea1027b3193b9e35,133,2,2024-02-27T14:14:17.829Z,english_235.wav,0,pill,67,36,5,4,english,f,1,0.1,-96.83918407,0.18127978
651a03c8ea1027b3193b9e35,133,2,2024-02-27T14:14:17.829Z,english_235.wav,0,pill,67,36,5,4,english,f,2,0.2,96.22116446,1.26168206
651a03c8ea1027b3193b9e35,133,2,2024-02-27T14:14:17.829Z,english_235.wav,0,pill,67,36,5,4,english,f,3,0.3,48.9502898,1.98140435
651a03c8ea1027b3193b9e35,133,2,2024-02-27T14:14:17.829Z,english_235.wav,0,pill,67,36,5,4,english,f,4,0.32341667,38.18641725,0.52366779
651a03c8ea1027b3193b9e35,134,2,2024-02-27T14:14:17.829Z,english_883.wav,0,peel,74,36,5,4,english,f,0,0.0,-17.60743744,1.86037562
651a03c8ea1027b3193b9e35,134,2,2024-02-27T14:14:17.829Z,english_883.wav,0,peel,74,36,5,4,english,f,1,0.1,-37.46625877,0.9331332
651a03c8ea1027b3193b9e35,134,2,2024-02-27T14:14:17.829Z,english_883.wav,0,peel,74,36,5,4,english,f,2,0.2,55.1108939,1.34322635
651a03c8ea1027b3193b9e35,134,2,2024-02-27T14:14:17.829Z,english_883.wav,0,peel,74,36,5,4,english,f,3,0.3,87.45591348,0.07818604
651a03c8ea1027b3193b9e35,134,2,2024-02-27T14:14:17.829Z,english_883.wav,0,peel,74,36,5,4,english,f,4,0.32341667,-90.78539671,1.31446095
651a03c8ea1027b3193b9e35,135,2,2024-02-27T14:14:17.829Z,english_658.wav,0,pill,383,36,5,4,english,f,0,0.0,-80.21976745,0.49170119
651a03c8ea1027b3193b9e35,135,2,2024-02-27T14:14:17.829Z,english_658.wav,0,pill,383,36,5,4,english,f,1,0.1,11.23314836,0.6994793
651a03c8ea1027b3193b9e35,135,2,2024-02-27T14:14:17.829Z,english_658.wav,0,pill,383,36,5,4,english,f,2,0.2,8.94946791,1.18458539
651a03c8ea1027b3193b9e35,135,2,2024-02-27T14:14:17.829Z,english_658.wav,0,pill,383,36,5,4,english,f,3,0.3,17.22411688,0.7091276
651a03c8ea1027b3193b9e35,135,2,2024-02-27T14:14:17.829Z,english_658.wav,0,pill,383,36,5,4,english,f,4,0.32341667,10.67081381,1.7453453
651a03c8ea1027b3193b9e35,136,2,2024-02-27T14:14:17.829Z,english_934.wav,0,peel,605,36,5,4,english,f,0,0.0,48.23169593,1.38760579
651a03c8ea1027b3193b9e35,136,2,2024-02-27T14:14:17.829Z,english_934.wav,0,peel,605,36,5,4,english,f,1,0.1,42.81145804,1.74622613
651a03c8ea1027b3193b9e35,136,2,2024-02-27T14:14:17.829Z,english_934.wav,0,peel,605,36,5,4,english,f,2,0.2,79.06411095,0.2874918
651a03c8ea1027b3193b9e35,136,2,2024-02-27T14:14:17.829Z,english_934.wav,0,peel,605,36,5,4,english,f,3,0.3,69.44528076,1.61606763
651a03c8ea1027b3193b9e35,136,2,2024-02-27T14:14:17.829Z,english_934.wav,0,peel,605,36,5,4,english,f,4,0.32341667,88.54940569,1.62058381
651a03c8ea1027b3193b9e35,137,2,2024-02-27T14:14:17.829Z,english_923.wav,0,pill,515,36,5,4,english,f,0,0.0,-0.59122564,1.19594648
651a03c8ea1027b3193b9e35,137,2,2024-02-27T14:14:17.829Z,english_923.wav,0,pill,515,36,5,4,english,f,1,0.1,-5.70499959,1.05419104
651a03c8ea1027b3193b9e35,137,2,2024-02-27T14:14:17.829Z,english_923.wav,0,pill,515,36,5,4,english,f,2,0.2,-29.88927864,0.73000078
651a03c8ea1027b3193b9e35,137,2,2024-02-27T14:14:17.829Z,english_923.wav,0,pill,515,36,5,4,english,f,3,0.3,-82.02126299,1.36390543
651a03c8ea1027b3193b9e35,137,2,2024-02-27T14:14:17.829Z,english_923.wav,0,pill,515,36,5,4,english,f,4,0.32341667,16.89967319,1.13865732
651a03c8ea1027b3193b9e35,138,2,2024-02-27T14:14:17.829Z,english_611.wav,0,peel,6,36,5,4,english,f,0,0.0,4.04989913,1.48647041
651a03c8ea1027b3193b9e35,138,2,2024-02-27T14:14:17.829Z,english_611.wav,0,peel,6,36,5,4,english,f,1,0.1,-26.35519993,0.87297853
651a03c8ea1027b3193b9e35,138,2,2024-02-27T14:14:17.829Z,english_611.wav,0,peel,6,36,5,4,english,f,2,0.2,-41.22744209,0.91907267
651a03c8ea1027b3193b9e35,138,2,2024-02-27T14:14:17.829Z,english_611.wav,0,peel,6,36,5,4,english,f,3,0.3,-72.41198747,0.12624761
651a03c8ea1027b3193b9e35,138,2,2024-02-27T14:14:17.829Z,english_611.wav,0,peel,6,36,5,4,english,f,4,0.32341667,-60.09703168,0.964981
651a03c8ea1027b3193b9e35,139,2,2024-02-27T14:14:17.829Z,english_878.wav,0,pill,155,36,5,4,english,f,0,0.0,84.19501339,0.22676298
651a03c8ea1027b3193b9e35,139,2,2024-02-27T14:14:17.829Z,english_878.wav,0,pill,155,36,5,4,english,f,1,0.1,76.71234668,0.28568495
651a03c8ea1027b3193b9e35,139,2,2024-02-27T14:14:17.829Z,english_878.wav,0,pill,155,36,5,4,english,f,2,0.2,-74.61835319,0.74220819
651a03c8ea1027b3193b9e35,139,2,2024-02-27T14:14:17.829Z,english_878.wav,0,pill,155,36,5,4,english,f,3,0.3,83.79758366,1.72755148
651a03c8ea1027b3193b9e35,139,2,2024-02-27T14:14:17.829Z,english_878.wav,0,pill,155,36,5,4,english,f,4,0.32341667,-29.32243698,1.88938616
651a03c8ea1027b3193b9e35,140,2,2024-02-27T14:14:17.829Z,english_819.wav,0,peel,9,36,5,4,english,f,0,0.0,56.56933068,1.61805944
651a03c8ea1027b3193b9e35,140,2,2024-02-27T14:14:17.829Z,english_819.wav,0,peel,9,36,5,4,english,f,1,0.1,16.98960986,1.69207785
651a03c8ea1027b3193b9e35,140,2,2024-02-27T14:14:17.829Z,english_819.wav,0,peel,9,36,5,4,english,f,2,0.2,-13.59600893,1.33633205
651a03c8ea1027b3193b9e35,140,2,2024-02-27T14:14:17.829Z,english_819.wav,0,peel,9,36,5,4,english,f,3,0.3,79.1710335,0.49452457
651a03c8ea1027b3193b9e35,140,2,2024-02-27T14:14:17.829Z,english_819.wav,0,peel,9,36,5,4,english,f,4,0.32341667,25.34620926,1.97134574
651a03c8ea1027b3193b9e35,141,2,2024-02-27T14:14:17.829Z,english_405.wav,0,pill,135,36,5,4,english,f,0,0.0,-94.88566807,1.97726842
651a03c8ea1027b3193b9e35,141,2,2024-02-27T14:14:17.829Z,english_405.wav,0,pill,135,36,5,4,english,f,1,0.1,45.39575719,1.2658567
651a03c8ea1027b3193b9e35,141,2,2024-02-27T14:14:17.829Z,english_405.wav,0,pill,135,36,5,4,english,f,2,0.2,-94.78509898,0.10443365
651a03c8ea1027b3193b9e35,141,2,2024-02-27T14:14:17.829Z,english_405.wav,0,pill,135,36,5,4,english,f,3,0.3,54.14618135,0.24635614
651a03c8ea1027b3193b9e35,141,2,2024-02-27T14:14:17.829Z,english_405.wav,0,pill,135,36,5,4,english,f,4,0.32341667,-20.18916124,0.76836832
651a03c8ea1027b3193b9e35,142,2,2024-02-27T14:14:17.829Z,english_544.wav,0,peel,21,36,5,4,english,f,0,0.0,96.80704334,1.85115917
651a03c8ea1027b3193b9e35,142,2,2024-02-27T14:14:17.829Z,english_544.wav,0,peel,21,36,5,4,english,f,1,0.1,70.5198752,0.8718407
651a03c8ea1027b3193b9e35,142,2,2024-02-27T14:14:17.829Z,english_544.wav,0,peel,21,36,5,4,english,f,2,0.2,78.21609099,1.82238935
651a03c8ea1027b3193b9e35,142,2,2024-02-27T14:14:17.829Z,english_544.wav,0,peel,21,36,5,4,english,f,3,0.3,-95.7752672,0.25719172
651a03c8ea1027b3193b9e35,142,2,2024-02-27T14:14:17.829Z,english_544.wav,0,peel,21,36,5,4,english,f,4,0.32341667,-56.58918052,0.72929157
651a03c8ea1027b3193b9e35,143,2,2024-02-27T14:14:17.829Z,english_157.wav,0,pill,577,36,5,4,english,f,0,0.0,-74.01864956,1.10168906
651a03c8ea1027b3193b9e35,143,2,2024-02-27T14:14:17.829Z,english_157.wav,0,pill,577,36,5,4,english,f,1,0.1,1.44529667,1.71225259
651a03c8ea1027b3193b9e35,143,2,2024-02-27T14:14:17.829Z,english_157.wav,0,pill,577,36,5,4,english,f,2,0.2,-42.76251303,1.71884561
651a03c8ea1027b3193b9e35,143,2,2024-02-27T14:14:17.829Z,english_157.wav,0,pill,577,36,5,4,english,f,3,0.3,-49.01483239,1.47822148
651a03c8ea1027b3193b9e35,143,2,2024-02-27T14:14:17.829Z,english_157.wav,0,pill,577,36,5,4,english,f,4,0.32341667,-96.85595697,1.36273156
651a03c8ea1027b3193b9e35,144,2,2024-02-27T14:14:17.829Z,english_346.wav,0,pill,95,36,5,4,english,f,0,0.0,29.51078372,1.24489428
651a03c8ea1027b3193b9e35,144,2,2024-02-27T14:14:17.829Z,english_346.wav,0,pill,95,36,5,4,english,f,1,0.1,86.25753287,1.77356048
651a03c8ea1027b3193b9e35,144,2,2024-02-27T14:14:17.829Z,english_346.wav,0,pill,95,36,5,4,english,f,2,0.2,95.6553577,1.30862901
651a03c8ea1027b3193b9e35,144,2,2024-02-27T14:14:17.829Z,english_346.wav,0,pill,95,36,5,4,english,f,3,0.3,-65.97707071,0.68318311
651a03c8ea1027b3193b9e35,144,2,2024-02-27T14:14:17.829Z,english_346.wav,0,pill,95,36,5,4,english,f,4,0.32341667,49.79896228,1.63073528
651a03c8ea1027b3193b9e35,145,2,2024-02-27T14:14:17.829Z,english_434.wav,0,pill,430,36,5,4,english,f,0,0.0,-4.12787863,0.96421208
651a03c8ea1027b3193b9e35,145,2,2024-02-27T14:14:17.829Z,english_434.wav,0,pill,430,36,5,4,english,f,1,0.1,-30.19441281,1.08561731
651a03c8ea1027b3193b9e35,145,2,2024-02-27T14:14:17.829Z,english_434.wav,0,pill,430,36,5,4,english,f,2,0.2,41.04377471,1.46356301
651a03c8ea1027b3193b9e35,145,2,2024-02-27T14:14:17.829Z,english_434.wav,0,pill,430,36,5,4,english,f,3,0.3,-32.43591961,0.25116585
651a03c8ea1027b3193b9e35,145,2,2024-02-27T14:14:17.829Z,english_434.wav,0,pill,430,36,5,4,english,f,4,0.32341667,61.53108406,0.73120458
651a03c8ea1027b3193b9e35,146,2,2024-02-27T14:14:17.829Z,english_165.wav,0,pill,372,36,5,4,english,f,0,0.0,-65.85966689,0.99094124
651a03c8ea1027b3193b9e35,146,2,2024-02-27T14:14:17.829Z,english_165.wav,0,pill,372,36,5,4,english,f,1,0.1,57.4210377,1.25140592
651a03c8ea1027b3193b9e35,146,2,2024-02-27T14:14:17.829Z,english_165.wav,0,pill,372,36,5,4,english,f,2,0.2,-53.4891742,1.66606931
651a03c8ea1027b3193b9e35,146,2,2024-02-27T14:14:17.829Z,english_165.wav,0,pill,372,36,5,4,english,f,3,0.3,-32.80877015,0.56557264
651a03c8ea1027b3193b9e35,146,2,2024-02-27T14:14:17.829Z,english_165.wav,0,pill,372,36,5,4,english,f,4,0.32341667,-23.63509804,1.31427626
651a03c8ea1027b3193b9e35,147,2,2024-02-27T14:14:17.829Z,english_411.wav,0,pill,66,36,5,4,english,f,0,0.0,75.357241,0.83773649
651a03c8ea1027b3193b9e35,147,2,2024-02-27T14:14:17.829Z,english_411.wav,0,pill,66,36,5,4,english,f,1,0.1,-55.75688593,0.80885485
651a03c8ea1027b3193b9e35,147,2,2024-02-27T14:14:17.829Z,english_411.wav,0,pill,66,36,5,4,english,f,2,0.2,61.10111178,0.61144368
651a03c8ea1027b3193b9e35,147,2,2024-02-27T14:14:17.829Z,english_411.wav,0,pill,66,36,5,4,english,f,3,0.3,90.25367142,0.73863407
651a03c8ea1027b3193b9e35,147,2,2024-02-27T14:14:17.829Z,english_411.wav,0,pill,66,36,5,4,english,f,4,0.32341667,26.85831553,0.4624235
651a03c8ea1027b3193b9e35,148,2,2024-02-27T14:14:17.829Z,english_896.wav,0,pill,92,36,5,4,english,f,0,0.0,-76.63716622,1.08893336
651a03c8ea1027b3193b9e35,148,2,2024-02-27T14:14:17.829Z,english_896.wav,0,pill,92,36,5,4,english,f,1,0.1,-73.11298951,0.41748987
651a03c8ea1027b3193b9e35,148,2,2024-02-27T14:14:17.829Z,english_896.wav,0,pill,92,36,5,4,english,f,2,0.2,48.53347054,0.32012442
651a03c8ea1027b3193b9e35,148,2,2024-02-27T14:14:17.829Z,english_896.wav,0,pill,92,36,5,4,english,f,3,0.3,-4.46661278,0.63387312
651a03c8ea1027b3193b9e35,148,2,2024-02-27T14:14:17.829Z,english_896.wav,0,pill,92,36,5,4,english,f,4,0.32341667,-44.69533701,1.27766005
651a03c8ea1027b3193b9e35,149,2,2024-02-27T14:14:17.829Z,english_58.wav,0,pill,0,36,5,4,english,f,0,0.0,20.12478601,1.19415515
651a03c8ea1027b3193b9e35,149,2,2024-02-27T14:14:17.829Z,english_58.wav,0,pill,0,36,5,4,english,f,1,0.1,-22.60038942,0.26098942
651a03c8ea1027b3193b9e35,149,2,2024-02-27T14:14:17.829Z,english_58.wav,0,pill,0,36,5,4,english,f,2,0.2,34.38627512,1.99195241
651a03c8ea1027b3193b9e35,149,2,2024-02-27T14:14:17.829Z,english_58.wav,0,pill,0,36,5,4,english,f,3,0.3,30.90369434,0.42925074
651a03c8ea1027b3193b9e35,149,2,2024-02-27T14:14:17.829Z,english_58.wav,0,pill,0,36,5,4,english,f,4,0.32341667,11.39971337,0.50368767
651a03c8ea1027b3193b9e35,150,3,2024-02-27T14:14:17.829Z,english_852.wav,0,pill,86,36,5,4,english,f,0,0.0,-59.21906832,1.76087743
651a03c8ea1027b3193b9e35,150,3,2024-02-27T14:14:17.829Z,english_852.wav,0,pill,86,36,5,4,english,f,1,0.1,5.96662808,0.85304022
651a03c8ea1027b3193b9e35,150,3,2024-02-27T14:14:17.829Z,english_852.wav,0,pill,86,36,5,4,english,f,2,0.2,12.29830648,0.5029047
651a03c8ea1027b3193b9e35,150,3,2024-02-27T14:14:17.829Z,english_852.wav,0,pill,86,36,5,4,english,f,3,0.3,-98.20735767,0.66544939
651a03c8ea1027b3193b9e35,150,3,2024-02-27T14:14:17.829Z,english_852.wav,0,pill,86,36,5,4,english,f,4,0.32341667,-0.5186354,0.26669214
651a03c8ea1027b3193b9e35,151,3,2024-02-27T14:14:17.829Z,english_834.wav,0,pill,158,36,5,4,english,f,0,0.0,-64.94927172,0.98752234
651a03c8ea1027b3193b9e35,151,3,2024-02-27T14:14:17.829Z,english_834.wav,0,pill,158,36,5,4,english,f,1,0.1,49.61052881,1.31122352
651a03c8ea1027b3193b9e35,151,3,2024-02-27T14:14:17.829Z,english_834.wav,0,pill,158,36,5,4,english,f,2,0.2,-25.04715585,0.09065599
651a03c8ea1027b3193b9e35,151,3,2024-02-27T14:14:17.829Z,english_834.wav,0,pill,158,36,5,4,english,f,3,0.3,95.09819394,1.07854905
651a03c8ea1027b3193b9e35,151,3,2024-02-27T14:14:17.829Z,english_834.wav,0,pill,158,36,5,4,english,f,4,0.32341667,84.16953653,1.76453498
651a03c8ea1027b3193b9e35,152,3,2024-02-27T14:14:17.829Z,english_495.wav,0,peel,190,36,5,4,english,f,0,0.0,-5.58861003,1.32978923
651a03c8ea1027b3193b9e35,152,3,2024-02-27T14:14:17.829Z,english_495.wav,0,peel,190,36,5,4,english,f,1,0.1,8.95176437,0.81778757
651a03c8ea1027b3193b9e35,152,3,2024-02-27T14:14:17.829Z,english_495.wav,0,peel,190,36,5,4,english,f,2,0.2,39.42206983,0.66481361
651a03c8ea1027b3193b9e35,152,3,2024-02-27T14:14:17.829Z,english_495.wav,0,peel,190,36,5,4,english,f,3,0.3,-84.38976819,0.35850052
651a03c8ea1027b3193b9e35,152,3,2024-02-27T14:14:17.829Z,english_495.wav,0,peel,190,36,5,4,english,f,4,0.32341667,-2.90431636,0.23899864
651a03c8ea1027b3193b9e35,153,3,2024-02-27T14:14:17.829Z,english_135.wav,0,pill,28,36,5,4,english,f,0,0.0,92.53632507,0.8813083
651a03c8ea1027b3193b9e35,153,3,2024-02-27T14:14:17.829Z,english_135.wav,0,pill,28,36,5,4,english,f,1,0.1,42.68843281,1.60503348
651a03c8ea1027b3193b9e35,153,3,2024-02-27T14:14:17.829Z,english_135.wav,0,pill,28,36,5,4,english,f,2,0.2,87.27237188,0.22265806
651a03c8ea1027b3193b9e35,153,3,2024-02-27T14:14:17.829Z,english_135.wav,0,pill,28,36,5,4,english,f,3,0.3,-70.62725941,0.4233462
651a03c8ea1027b3193b9e35,153,3,2024-02-27T14:14:17.829Z,english_135.wav,0,pill,28,36,5,4,english,f,4,0.32341667,91.37204548,0.99500327
