subj,trial,block,date,stim,stim_order,response,rt,age,english,french,language,sex,param_index,segment,pitch,stretch
aysh,0,0,2024-02-24T08:02:43.969Z,english_950.wav,0,pill,5677,26,5,3,english,female,0,0.0,-21.9776243,0.20752278
aysh,0,0,2024-02-24T08:02:43.969Z,english_950.wav,0,pill,5677,26,5,3,english,female,1,0.1,-41.40023943,1.93939622
aysh,0,0,2024-02-24T08:02:43.969Z,english_950.wav,0,pill,5677,26,5,3,english,female,2,0.2,48.01515584,1.55608343
aysh,0,0,2024-02-24T08:02:43.969Z,english_950.wav,0,pill,5677,26,5,3,english,female,3,0.3,-87.95551252,1.49634866
aysh,0,0,2024-02-24T08:02:43.969Z,english_950.wav,0,pill,5677,26,5,3,english,female,4,0.32341667,-39.5252386,0.91783384
aysh,1,0,2024-02-24T08:02:43.969Z,english_463.wav,0,peel,1655,26,5,3,english,female,0,0.0,-17.89775534,1.84132871
aysh,1,0,2024-02-24T08:02:43.969Z,english_463.wav,0,peel,1655,26,5,3,english,female,1,0.1,-21.51631701,1.66361617
aysh,1,0,2024-02-24T08:02:43.969Z,english_463.wav,0,peel,1655,26,5,3,english,female,2,0.2,-12.53951077,0.64060514
aysh,1,0,2024-02-24T08:02:43.969Z,english_463.wav,0,peel,1655,26,5,3,english,female,3,0.3,33.47501925,1.01091097
aysh,1,0,2024-02-24T08:02:43.969Z,english_463.wav,0,peel,1655,26,5,3,english,female,4,0.32341667,-93.09525534,0.69499506
aysh,2,0,2024-02-24T08:02:43.969Z,english_258.wav,0,peel,1000,26,5,3,english,female,0,0.0,-7.1133109,1.89026761
aysh,2,0,2024-02-24T08:02:43.969Z,english_258.wav,0,peel,1000,26,5,3,english,female,1,0.1,44.58564752,1.79361992
aysh,2,0,2024-02-24T08:02:43.969Z,english_258.wav,0,peel,1000,26,5,3,english,female,2,0.2,45.36800295,0.43687845
aysh,2,0,2024-02-24T08:02:43.969Z,english_258.wav,0,peel,1000,26,5,3,english,female,3,0.3,25.81301737,0.04688612
aysh,2,0,2024-02-24T08:02:43.969Z,english_258.wav,0,peel,1000,26,5,3,english,female,4,0.32341667,-77.97513924,0.52567924
aysh,3,0,2024-02-24T08:02:43.969Z,english_733.wav,0,peel,1025,26,5,3,english,female,0,0.0,-77.09135463,1.21028291
aysh,3,0,2024-02-24T08:02:43.969Z,english_733.wav,0,peel,1025,26,5,3,english,female,1,0.1,-30.68901019,1.14931675
aysh,3,0,2024-02-24T08:02:43.969Z,english_733.wav,0,peel,1025,26,5,3,english,female,2,0.2,-27.18135709,1.68866455
aysh,3,0,2024-02-24T08:02:43.969Z,english_733.wav,0,peel,1025,26,5,3,english,female,3,0.3,-10.74804936,0.29390693
aysh,3,0,2024-02-24T08:02:43.969Z,english_733.wav,0,peel,1025,26,5,3,english,female,4,0.32341667,-57.14773718,0.43305962
aysh,4,0,2024-02-24T08:02:43.969Z,english_73.wav,0,peel,700,26,5,3,english,female,0,0.0,-73.49165063,1.41947215
aysh,4,0,2024-02-24T08:02:43.969Z,english_73.wav,0,peel,700,26,5,3,english,female,1,0.1,65.54847429,1.68852165
aysh,4,0,2024-02-24T08:02:43.969Z,english_73.wav,0,peel,700,26,5,3,english,female,2,0.2,-55.11967081,0.59259525
aysh,4,0,2024-02-24T08:02:43.969Z,english_73.wav,0,peel,700,26,5,3,english,female,3,0.3,68.77466141,0.85140805
aysh,4,0,2024-02-24T08:02:43.969Z,english_73.wav,0,peel,700,26,5,3,english,female,4,0.32341667,-37.79888894,1.17745107
aysh,5,0,2024-02-24T08:02:43.969Z,english_853.wav,0,pill,577,26,5,3,english,female,0,0.0,87.83319324,0.81037323
aysh,5,0,2024-02-24T08:02:43.969Z,english_853.wav,0,pill,577,26,5,3,english,female,1,0.1,64.16710312,1.2495933
aysh,5,0,2024-02-24T08:02:43.969Z,english_853.wav,0,pill,577,26,5,3,english,female,2,0.2,12.98667351,0.22916278
aysh,5,0,2024-02-24T08:02:43.969Z,english_853.wav,0,pill,577,26,5,3,english,female,3,0.3,25.03434444,0.67764146
aysh,5,0,2024-02-24T08:02:43.969Z,english_853.wav,0,pill,577,26,5,3,english,female,4,0.32341667,98.3458188,0.13807639
aysh,6,0,2024-02-24T08:02:43.969Z,english_492.wav,0,peel,351,26,5,3,english,female,0,0.0,-66.2832746,0.52930651
aysh,6,0,2024-02-24T08:02:43.969Z,english_492.wav,0,peel,351,26,5,3,english,female,1,0.1,-19.36008054,1.11739795
aysh,6,0,2024-02-24T08:02:43.969Z,english_492.wav,0,peel,351,26,5,3,english,female,2,0.2,95.25769545,1.86018292
aysh,6,0,2024-02-24T08:02:43.969Z,english_492.wav,0,peel,351,26,5,3,english,female,3,0.3,-42.69351484,0.07313262
aysh,6,0,2024-02-24T08:02:43.969Z,english_492.wav,0,peel,351,26,5,3,english,female,4,0.32341667,48.13359561,0.30480454
aysh,7,0,2024-02-24T08:02:43.969Z,english_761.wav,0,pill,375,26,5,3,english,female,0,0.0,-7.84319468,0.39728316
aysh,7,0,2024-02-24T08:02:43.969Z,english_761.wav,0,pill,375,26,5,3,english,female,1,0.1,77.10262164,0.76675063
aysh,7,0,2024-02-24T08:02:43.969Z,english_761.wav,0,pill,375,26,5,3,english,female,2,0.2,23.07677451,1.40075404
aysh,7,0,2024-02-24T08:02:43.969Z,english_761.wav,0,pill,375,26,5,3,english,female,3,0.3,-22.28856666,0.53792203
aysh,7,0,2024-02-24T08:02:43.969Z,english_761.wav,0,pill,375,26,5,3,english,female,4,0.32341667,18.71779046,1.06229189
aysh,8,0,2024-02-24T08:02:43.969Z,english_547.wav,0,peel,364,26,5,3,english,female,0,0.0,30.48969685,1.04682874
aysh,8,0,2024-02-24T08:02:43.969Z,english_547.wav,0,peel,364,26,5,3,english,female,1,0.1,-38.27442703,0.75017858
aysh,8,0,2024-02-24T08:02:43.969Z,english_547.wav,0,peel,364,26,5,3,english,female,2,0.2,29.58442849,0.7996645
aysh,8,0,2024-02-24T08:02:43.969Z,english_547.wav,0,peel,364,26,5,3,english,female,3,0.3,-4.27268154,1.92102789
aysh,8,0,2024-02-24T08:02:43.969Z,english_547.wav,0,peel,364,26,5,3,english,female,4,0.32341667,58.02076364,1.77056707
aysh,9,0,2024-02-24T08:02:43.969Z,english_715.wav,0,pill,499,26,5,3,english,female,0,0.0,-64.21420564,1.80154013
aysh,9,0,2024-02-24T08:02:43.969Z,english_715.wav,0,pill,499,26,5,3,english,female,1,0.1,77.40813629,0.51096517
aysh,9,0,2024-02-24T08:02:43.969Z,english_715.wav,0,pill,499,26,5,3,english,female,2,0.2,-98.26791609,0.49870215
aysh,9,0,2024-02-24T08:02:43.969Z,english_715.wav,0,pill,499,26,5,3,english,female,3,0.3,-32.66334796,0.64344691
aysh,9,0,2024-02-24T08:02:43.969Z,english_715.wav,0,pill,499,26,5,3,english,female,4,0.32341667,93.12500574,1.17662216
aysh,10,0,2024-02-24T08:02:43.969Z,english_32.wav,0,peel,177,26,5,3,english,female,0,0.0,89.50349963,1.73304916
aysh,10,0,2024-02-24T08:02:43.969Z,english_32.wav,0,peel,177,26,5,3,english,female,1,0.1,51.51128255,0.02192789
aysh,10,0,2024-02-24T08:02:43.969Z,english_32.wav,0,peel,177,26,5,3,english,female,2,0.2,-58.32910347,1.71493142
aysh,10,0,2024-02-24T08:02:43.969Z,english_32.wav,0,peel,177,26,5,3,english,female,3,0.3,15.96172744,1.28451373
aysh,10,0,2024-02-24T08:02:43.969Z,english_32.wav,0,peel,177,26,5,3,english,female,4,0.32341667,84.40449403,1.22971166
aysh,11,0,2024-02-24T08:02:43.969Z,english_607.wav,0,pill,94,26,5,3,english,female,0,0.0,46.6865757,1.30575186
aysh,11,0,2024-02-24T08:02:43.969Z,english_607.wav,0,pill,94,26,5,3,english,female,1,0.1,39.2269946,1.04660061
aysh,11,0,2024-02-24T08:02:43.969Z,english_607.wav,0,pill,94,26,5,3,english,female,2,0.2,9.54774619,0.88274406
aysh,11,0,2024-02-24T08:02:43.969Z,english_607.wav,0,pill,94,26,5,3,english,female,3,0.3,16.02187378,1.5824547
aysh,11,0,2024-02-24T08:02:43.969Z,english_607.wav,0,pill,94,26,5,3,english,female,4,0.32341667,75.62266759,0.67660632
aysh,12,0,2024-02-24T08:02:43.969Z,english_314.wav,0,peel,96,26,5,3,english,female,0,0.0,-64.95449137,1.33019215
aysh,12,0,2024-02-24T08:02:43.969Z,english_314.wav,0,peel,96,26,5,3,english,female,1,0.1,41.76232806,0.95010379
aysh,12,0,2024-02-24T08:02:43.969Z,english_314.wav,0,peel,96,26,5,3,english,female,2,0.2,68.0199099,0.0418164
aysh,12,0,2024-02-24T08:02:43.969Z,english_314.wav,0,peel,96,26,5,3,english,female,3,0.3,-18.86846342,0.3847457
aysh,12,0,2024-02-24T08:02:43.969Z,english_314.wav,0,peel,96,26,5,3,english,female,4,0.32341667,-2.58545886,1.31154336
aysh,13,0,2024-02-24T08:02:43.969Z,english_902.wav,0,peel,393,26,5,3,english,female,0,0.0,-4.27617126,0.16330526
aysh,13,0,2024-02-24T08:02:43.969Z,english_902.wav,0,peel,393,26,5,3,english,female,1,0.1,-5.01127315,0.62492789
aysh,13,0,2024-02-24T08:02:43.969Z,english_902.wav,0,peel,393,26,5,3,english,female,2,0.2,83.22080084,1.08638924
aysh,13,0,2024-02-24T08:02:43.969Z,english_902.wav,0,peel,393,26,5,3,english,female,3,0.3,77.56473772,1.61764227
aysh,13,0,2024-02-24T08:02:43.969Z,english_902.wav,0,peel,393,26,5,3,english,female,4,0.32341667,-13.02741535,1.72075309
aysh,14,0,2024-02-24T08:02:43.969Z,english_475.wav,0,peel,275,26,5,3,english,female,0,0.0,-68.25626322,0.40988158
aysh,14,0,2024-02-24T08:02:43.969Z,english_475.wav,0,peel,275,26,5,3,english,female,1,0.1,-56.46648788,1.90107213
aysh,14,0,2024-02-24T08:02:43.969Z,english_475.wav,0,peel,275,26,5,3,english,female,2,0.2,49.77560279,0.54721615
aysh,14,0,2024-02-24T08:02:43.969Z,english_475.wav,0,peel,275,26,5,3,english,female,3,0.3,-41.74178488,1.80730726
aysh,14,0,2024-02-24T08:02:43.969Z,english_475.wav,0,peel,275,26,5,3,english,female,4,0.32341667,-60.3255454,0.11427958
aysh,15,0,2024-02-24T08:02:43.969Z,english_822.wav,0,peel,408,26,5,3,english,female,0,0.0,22.19463519,1.34957498
aysh,15,0,2024-02-24T08:02:43.969Z,english_822.wav,0,peel,408,26,5,3,english,female,1,0.1,46.02970585,1.18534363
aysh,15,0,2024-02-24T08:02:43.969Z,english_822.wav,0,peel,408,26,5,3,english,female,2,0.2,44.31281831,0.88966115
aysh,15,0,2024-02-24T08:02:43.969Z,english_822.wav,0,peel,408,26,5,3,english,female,3,0.3,27.24156044,1.22476657
aysh,15,0,2024-02-24T08:02:43.969Z,english_822.wav,0,peel,408,26,5,3,english,female,4,0.32341667,41.58842879,0.51847317
aysh,16,0,2024-02-24T08:02:43.969Z,english_706.wav,0,pill,446,26,5,3,english,female,0,0.0,-14.02426606,0.18721001
aysh,16,0,2024-02-24T08:02:43.969Z,english_706.wav,0,pill,446,26,5,3,english,female,1,0.1,23.81630209,0.48464851
aysh,16,0,2024-02-24T08:02:43.969Z,english_706.wav,0,pill,446,26,5,3,english,female,2,0.2,94.24266466,1.46456973
aysh,16,0,2024-02-24T08:02:43.969Z,english_706.wav,0,pill,446,26,5,3,english,female,3,0.3,20.03642156,0.11403632
aysh,16,0,2024-02-24T08:02:43.969Z,english_706.wav,0,pill,446,26,5,3,english,female,4,0.32341667,57.92570785,0.61389372
aysh,17,0,2024-02-24T08:02:43.969Z,english_544.wav,0,peel,195,26,5,3,english,female,0,0.0,96.80704334,1.85115917
aysh,17,0,2024-02-24T08:02:43.969Z,english_544.wav,0,peel,195,26,5,3,english,female,1,0.1,70.5198752,0.8718407
aysh,17,0,2024-02-24T08:02:43.969Z,english_544.wav,0,peel,195,26,5,3,english,female,2,0.2,78.21609099,1.82238935
aysh,17,0,2024-02-24T08:02:43.969Z,english_544.wav,0,peel,195,26,5,3,english,female,3,0.3,-95.7752672,0.25719172
aysh,17,0,2024-02-24T08:02:43.969Z,english_544.wav,0,peel,195,26,5,3,english,female,4,0.32341667,-56.58918052,0.72929157
aysh,18,0,2024-02-24T08:02:43.969Z,english_660.wav,0,peel,589,26,5,3,english,female,0,0.0,-18.17224728,0.25133372
aysh,18,0,2024-02-24T08:02:43.969Z,english_660.wav,0,peel,589,26,5,3,english,female,1,0.1,-51.94390165,0.1756709
aysh,18,0,2024-02-24T08:02:43.969Z,english_660.wav,0,peel,589,26,5,3,english,female,2,0.2,-79.57293034,0.660284
aysh,18,0,2024-02-24T08:02:43.969Z,english_660.wav,0,peel,589,26,5,3,english,female,3,0.3,67.99606973,1.08301436
aysh,18,0,2024-02-24T08:02:43.969Z,english_660.wav,0,peel,589,26,5,3,english,female,4,0.32341667,-2.00416122,0.81155284
aysh,19,0,2024-02-24T08:02:43.969Z,english_990.wav,0,peel,378,26,5,3,english,female,0,0.0,-17.98511021,0.6190444
aysh,19,0,2024-02-24T08:02:43.969Z,english_990.wav,0,peel,378,26,5,3,english,female,1,0.1,-90.3005676,0.77548775
aysh,19,0,2024-02-24T08:02:43.969Z,english_990.wav,0,peel,378,26,5,3,english,female,2,0.2,4.37005684,0.55013224
aysh,19,0,2024-02-24T08:02:43.969Z,english_990.wav,0,peel,378,26,5,3,english,female,3,0.3,83.93705034,0.66784051
aysh,19,0,2024-02-24T08:02:43.969Z,english_990.wav,0,peel,378,26,5,3,english,female,4,0.32341667,-36.57803625,0.32384409
aysh,20,0,2024-02-24T08:02:43.969Z,english_945.wav,0,peel,81,26,5,3,english,female,0,0.0,63.16075011,1.8314946
aysh,20,0,2024-02-24T08:02:43.969Z,english_945.wav,0,peel,81,26,5,3,english,female,1,0.1,87.55520176,1.3737613
aysh,20,0,2024-02-24T08:02:43.969Z,english_945.wav,0,peel,81,26,5,3,english,female,2,0.2,-69.60467193,0.61639792
aysh,20,0,2024-02-24T08:02:43.969Z,english_945.wav,0,peel,81,26,5,3,english,female,3,0.3,-69.25530384,1.67239747
aysh,20,0,2024-02-24T08:02:43.969Z,english_945.wav,0,peel,81,26,5,3,english,female,4,0.32341667,-47.64160087,1.88344595
aysh,21,0,2024-02-24T08:02:43.969Z,english_178.wav,0,peel,96,26,5,3,english,female,0,0.0,-14.41838744,0.71193749
aysh,21,0,2024-02-24T08:02:43.969Z,english_178.wav,0,peel,96,26,5,3,english,female,1,0.1,64.59665955,0.54024543
aysh,21,0,2024-02-24T08:02:43.969Z,english_178.wav,0,peel,96,26,5,3,english,female,2,0.2,-96.76492712,1.78065704
aysh,21,0,2024-02-24T08:02:43.969Z,english_178.wav,0,peel,96,26,5,3,english,female,3,0.3,-50.00654232,1.40559917
aysh,21,0,2024-02-24T08:02:43.969Z,english_178.wav,0,peel,96,26,5,3,english,female,4,0.32341667,42.56426636,0.99785593
aysh,22,0,2024-02-24T08:02:43.969Z,english_157.wav,0,peel,13,26,5,3,english,female,0,0.0,-74.01864956,1.10168906
aysh,22,0,2024-02-24T08:02:43.969Z,english_157.wav,0,peel,13,26,5,3,english,female,1,0.1,1.44529667,1.71225259
aysh,22,0,2024-02-24T08:02:43.969Z,english_157.wav,0,peel,13,26,5,3,english,female,2,0.2,-42.76251303,1.71884561
aysh,22,0,2024-02-24T08:02:43.969Z,english_157.wav,0,peel,13,26,5,3,english,female,3,0.3,-49.01483239,1.47822148
aysh,22,0,2024-02-24T08:02:43.969Z,english_157.wav,0,peel,13,26,5,3,english,female,4,0.32341667,-96.85595697,1.36273156
aysh,23,0,2024-02-24T08:02:43.969Z,english_519.wav,0,peel,107,26,5,3,english,female,0,0.0,-8.06946753,0.14231686
aysh,23,0,2024-02-24T08:02:43.969Z,english_519.wav,0,peel,107,26,5,3,english,female,1,0.1,-66.74939098,1.74411569
aysh,23,0,2024-02-24T08:02:43.969Z,english_519.wav,0,peel,107,26,5,3,english,female,2,0.2,-27.98142454,1.42967772
aysh,23,0,2024-02-24T08:02:43.969Z,english_519.wav,0,peel,107,26,5,3,english,female,3,0.3,-72.75033344,0.44774012
aysh,23,0,2024-02-24T08:02:43.969Z,english_519.wav,0,peel,107,26,5,3,english,female,4,0.32341667,-36.15575878,1.4256209
aysh,24,0,2024-02-24T08:02:43.969Z,english_201.wav,0,pill,140,26,5,3,english,female,0,0.0,-11.66329209,1.59313322
aysh,24,0,2024-02-24T08:02:43.969Z,english_201.wav,0,pill,140,26,5,3,english,female,1,0.1,-73.85436231,1.78385616
aysh,24,0,2024-02-24T08:02:43.969Z,english_201.wav,0,pill,140,26,5,3,english,female,2,0.2,-12.5199597,0.57641365
aysh,24,0,2024-02-24T08:02:43.969Z,english_201.wav,0,pill,140,26,5,3,english,female,3,0.3,-44.18013019,1.54371285
aysh,24,0,2024-02-24T08:02:43.969Z,english_201.wav,0,pill,140,26,5,3,english,female,4,0.32341667,47.68284229,1.11944384
aysh,25,0,2024-02-24T08:02:43.969Z,english_21.wav,0,peel,71,26,5,3,english,female,0,0.0,-21.85116114,1.17417274
aysh,25,0,2024-02-24T08:02:43.969Z,english_21.wav,0,peel,71,26,5,3,english,female,1,0.1,-94.69976897,0.84289237
aysh,25,0,2024-02-24T08:02:43.969Z,english_21.wav,0,peel,71,26,5,3,english,female,2,0.2,59.00053046,1.58737119
aysh,25,0,2024-02-24T08:02:43.969Z,english_21.wav,0,peel,71,26,5,3,english,female,3,0.3,-81.44868512,0.70500889
aysh,25,0,2024-02-24T08:02:43.969Z,english_21.wav,0,peel,71,26,5,3,english,female,4,0.32341667,-68.72650823,1.41810016
aysh,26,0,2024-02-24T08:02:43.969Z,english_892.wav,0,peel,255,26,5,3,english,female,0,0.0,38.63128374,0.97893944
aysh,26,0,2024-02-24T08:02:43.969Z,english_892.wav,0,peel,255,26,5,3,english,female,1,0.1,22.49899687,0.66551001
aysh,26,0,2024-02-24T08:02:43.969Z,english_892.wav,0,peel,255,26,5,3,english,female,2,0.2,28.84135264,0.36795179
aysh,26,0,2024-02-24T08:02:43.969Z,english_892.wav,0,peel,255,26,5,3,english,female,3,0.3,81.19740532,1.0840826
aysh,26,0,2024-02-24T08:02:43.969Z,english_892.wav,0,peel,255,26,5,3,english,female,4,0.32341667,22.37782167,0.83637256
aysh,27,0,2024-02-24T08:02:43.969Z,english_57.wav,0,pill,224,26,5,3,english,female,0,0.0,-27.39668164,1.97835384
aysh,27,0,2024-02-24T08:02:43.969Z,english_57.wav,0,pill,224,26,5,3,english,female,1,0.1,63.52389761,0.69906452
aysh,27,0,2024-02-24T08:02:43.969Z,english_57.wav,0,pill,224,26,5,3,english,female,2,0.2,-55.42033209,0.75389415
aysh,27,0,2024-02-24T08:02:43.969Z,english_57.wav,0,pill,224,26,5,3,english,female,3,0.3,40.81906742,0.20375649
aysh,27,0,2024-02-24T08:02:43.969Z,english_57.wav,0,pill,224,26,5,3,english,female,4,0.32341667,-12.75543821,1.65585112
aysh,28,0,2024-02-24T08:02:43.969Z,english_114.wav,0,peel,5,26,5,3,english,female,0,0.0,32.66189176,0.56529239
aysh,28,0,2024-02-24T08:02:43.969Z,english_114.wav,0,peel,5,26,5,3,english,female,1,0.1,11.50533392,1.79520186
aysh,28,0,2024-02-24T08:02:43.969Z,english_114.wav,0,peel,5,26,5,3,english,female,2,0.2,-73.58201401,1.4619954
aysh,28,0,2024-02-24T08:02:43.969Z,english_114.wav,0,peel,5,26,5,3,english,female,3,0.3,-8.93644113,0.78288211
aysh,28,0,2024-02-24T08:02:43.969Z,english_114.wav,0,peel,5,26,5,3,english,female,4,0.32341667,-2.4794064,0.66376764
aysh,29,0,2024-02-24T08:02:43.969Z,english_594.wav,0,pill,310,26,5,3,english,female,0,0.0,-85.15725243,1.49995106
aysh,29,0,2024-02-24T08:02:43.969Z,english_594.wav,0,pill,310,26,5,3,english,female,1,0.1,18.57908242,1.36683942
aysh,29,0,2024-02-24T08:02:43.969Z,english_594.wav,0,pill,310,26,5,3,english,female,2,0.2,-52.1381203,1.31792707
aysh,29,0,2024-02-24T08:02:43.969Z,english_594.wav,0,pill,310,26,5,3,english,female,3,0.3,77.56862162,0.76119001
aysh,29,0,2024-02-24T08:02:43.969Z,english_594.wav,0,pill,310,26,5,3,english,female,4,0.32341667,89.7133381,1.77084997
aysh,30,0,2024-02-24T08:02:43.969Z,english_609.wav,0,peel,135,26,5,3,english,female,0,0.0,93.61263388,0.51617504
aysh,30,0,2024-02-24T08:02:43.969Z,english_609.wav,0,peel,135,26,5,3,english,female,1,0.1,38.40290552,0.56544547
aysh,30,0,2024-02-24T08:02:43.969Z,english_609.wav,0,peel,135,26,5,3,english,female,2,0.2,-21.94770243,0.43418402
aysh,30,0,2024-02-24T08:02:43.969Z,english_609.wav,0,peel,135,26,5,3,english,female,3,0.3,-11.92302894,1.38818447
aysh,30,0,2024-02-24T08:02:43.969Z,english_609.wav,0,peel,135,26,5,3,english,female,4,0.32341667,30.65806027,1.36410066
aysh,31,0,2024-02-24T08:02:43.969Z,english_991.wav,0,pill,64,26,5,3,english,female,0,0.0,-73.33762004,0.7279734
aysh,31,0,2024-02-24T08:02:43.969Z,english_991.wav,0,pill,64,26,5,3,english,female,1,0.1,-90.08677455,0.374322
aysh,31,0,2024-02-24T08:02:43.969Z,english_991.wav,0,pill,64,26,5,3,english,female,2,0.2,-98.84294029,0.98894361
aysh,31,0,2024-02-24T08:02:43.969Z,english_991.wav,0,pill,64,26,5,3,english,female,3,0.3,59.84972986,1.07774369
aysh,31,0,2024-02-24T08:02:43.969Z,english_991.wav,0,pill,64,26,5,3,english,female,4,0.32341667,21.03568625,0.51480923
aysh,32,0,2024-02-24T08:02:43.969Z,english_934.wav,0,pill,806,26,5,3,english,female,0,0.0,48.23169593,1.38760579
aysh,32,0,2024-02-24T08:02:43.969Z,english_934.wav,0,pill,806,26,5,3,english,female,1,0.1,42.81145804,1.74622613
aysh,32,0,2024-02-24T08:02:43.969Z,english_934.wav,0,pill,806,26,5,3,english,female,2,0.2,79.06411095,0.2874918
aysh,32,0,2024-02-24T08:02:43.969Z,english_934.wav,0,pill,806,26,5,3,english,female,3,0.3,69.44528076,1.61606763
aysh,32,0,2024-02-24T08:02:43.969Z,english_934.wav,0,pill,806,26,5,3,english,female,4,0.32341667,88.54940569,1.62058381
aysh,33,0,2024-02-24T08:02:43.969Z,english_92.wav,0,peel,201,26,5,3,english,female,0,0.0,31.88505953,1.50112375
aysh,33,0,2024-02-24T08:02:43.969Z,english_92.wav,0,peel,201,26,5,3,english,female,1,0.1,-5.62534355,0.35596674
aysh,33,0,2024-02-24T08:02:43.969Z,english_92.wav,0,peel,201,26,5,3,english,female,2,0.2,-66.19250112,1.12270031
aysh,33,0,2024-02-24T08:02:43.969Z,english_92.wav,0,peel,201,26,5,3,english,female,3,0.3,-77.62644198,1.09837269
aysh,33,0,2024-02-24T08:02:43.969Z,english_92.wav,0,peel,201,26,5,3,english,female,4,0.32341667,-66.61656061,1.16274455
aysh,34,0,2024-02-24T08:02:43.969Z,english_760.wav,0,pill,2370,26,5,3,english,female,0,0.0,24.3902693,0.67210823
aysh,34,0,2024-02-24T08:02:43.969Z,english_760.wav,0,pill,2370,26,5,3,english,female,1,0.1,-0.0247174936,1.89588113
aysh,34,0,2024-02-24T08:02:43.969Z,english_760.wav,0,pill,2370,26,5,3,english,female,2,0.2,82.8662613,0.23432987
aysh,34,0,2024-02-24T08:02:43.969Z,english_760.wav,0,pill,2370,26,5,3,english,female,3,0.3,-7.97314524,1.20797246
aysh,34,0,2024-02-24T08:02:43.969Z,english_760.wav,0,pill,2370,26,5,3,english,female,4,0.323416667,-6.32438983,1.72866971
aysh,35,0,2024-02-24T08:02:43.969Z,english_244.wav,0,peel,252,26,5,3,english,female,0,0.0,-70.20374383,1.65134166
aysh,35,0,2024-02-24T08:02:43.969Z,english_244.wav,0,peel,252,26,5,3,english,female,1,0.1,67.84882107,1.23738837
aysh,35,0,2024-02-24T08:02:43.969Z,english_244.wav,0,peel,252,26,5,3,english,female,2,0.2,0.61676271,0.90147553
aysh,35,0,2024-02-24T08:02:43.969Z,english_244.wav,0,peel,252,26,5,3,english,female,3,0.3,-96.58934439,1.79293216
aysh,35,0,2024-02-24T08:02:43.969Z,english_244.wav,0,peel,252,26,5,3,english,female,4,0.32341667,-77.46985837,1.15013727
aysh,36,0,2024-02-24T08:02:43.969Z,english_937.wav,0,peel,44,26,5,3,english,female,0,0.0,76.77394395,1.55370699
aysh,36,0,2024-02-24T08:02:43.969Z,english_937.wav,0,peel,44,26,5,3,english,female,1,0.1,49.33576264,1.82028848
aysh,36,0,2024-02-24T08:02:43.969Z,english_937.wav,0,peel,44,26,5,3,english,female,2,0.2,-87.39935237,1.42487505
aysh,36,0,2024-02-24T08:02:43.969Z,english_937.wav,0,peel,44,26,5,3,english,female,3,0.3,11.02170053,0.87896062
aysh,36,0,2024-02-24T08:02:43.969Z,english_937.wav,0,peel,44,26,5,3,english,female,4,0.32341667,91.99381322,0.96516852
aysh,37,0,2024-02-24T08:02:43.969Z,english_603.wav,0,pill,393,26,5,3,english,female,0,0.0,-14.17444723,1.28295305
aysh,37,0,2024-02-24T08:02:43.969Z,english_603.wav,0,pill,393,26,5,3,english,female,1,0.1,-4.64921339,0.35920956
aysh,37,0,2024-02-24T08:02:43.969Z,english_603.wav,0,pill,393,26,5,3,english,female,2,0.2,-23.32469505,0.60281559
aysh,37,0,2024-02-24T08:02:43.969Z,english_603.wav,0,pill,393,26,5,3,english,female,3,0.3,-59.01260874,0.58107079
aysh,37,0,2024-02-24T08:02:43.969Z,english_603.wav,0,pill,393,26,5,3,english,female,4,0.32341667,88.53711532,1.19087365
aysh,38,0,2024-02-24T08:02:43.969Z,english_621.wav,0,peel,53,26,5,3,english,female,0,0.0,-58.25251841,1.01186344
aysh,38,0,2024-02-24T08:02:43.969Z,english_621.wav,0,peel,53,26,5,3,english,female,1,0.1,21.8974524,1.03560921
aysh,38,0,2024-02-24T08:02:43.969Z,english_621.wav,0,peel,53,26,5,3,english,female,2,0.2,-22.03552483,0.97057504
aysh,38,0,2024-02-24T08:02:43.969Z,english_621.wav,0,peel,53,26,5,3,english,female,3,0.3,-56.80446909,1.33131235
aysh,38,0,2024-02-24T08:02:43.969Z,english_621.wav,0,peel,53,26,5,3,english,female,4,0.32341667,-23.41760562,0.49151525
aysh,39,0,2024-02-24T08:02:43.969Z,english_860.wav,0,peel,343,26,5,3,english,female,0,0.0,10.25066679,1.47817545
aysh,39,0,2024-02-24T08:02:43.969Z,english_860.wav,0,peel,343,26,5,3,english,female,1,0.1,55.87909831,1.32859058
aysh,39,0,2024-02-24T08:02:43.969Z,english_860.wav,0,peel,343,26,5,3,english,female,2,0.2,81.09373959,0.99201561
aysh,39,0,2024-02-24T08:02:43.969Z,english_860.wav,0,peel,343,26,5,3,english,female,3,0.3,15.52286826,0.3312489
aysh,39,0,2024-02-24T08:02:43.969Z,english_860.wav,0,peel,343,26,5,3,english,female,4,0.32341667,58.18702512,0.66001743
aysh,40,0,2024-02-24T08:02:43.969Z,english_142.wav,0,pill,242,26,5,3,english,female,0,0.0,-46.59943425,0.40064358
aysh,40,0,2024-02-24T08:02:43.969Z,english_142.wav,0,pill,242,26,5,3,english,female,1,0.1,63.17145436,0.61162855
aysh,40,0,2024-02-24T08:02:43.969Z,english_142.wav,0,pill,242,26,5,3,english,female,2,0.2,73.87775976,0.23189939
aysh,40,0,2024-02-24T08:02:43.969Z,english_142.wav,0,pill,242,26,5,3,english,female,3,0.3,-84.55157756,1.54635995
aysh,40,0,2024-02-24T08:02:43.969Z,english_142.wav,0,pill,242,26,5,3,english,female,4,0.32341667,20.35536038,1.86221744
aysh,41,0,2024-02-24T08:02:43.969Z,english_119.wav,0,pill,384,26,5,3,english,female,0,0.0,-72.13623542,1.33116293
aysh,41,0,2024-02-24T08:02:43.969Z,english_119.wav,0,pill,384,26,5,3,english,female,1,0.1,-47.93500709,0.14257244
aysh,41,0,2024-02-24T08:02:43.969Z,english_119.wav,0,pill,384,26,5,3,english,female,2,0.2,91.39212861,1.10285667
aysh,41,0,2024-02-24T08:02:43.969Z,english_119.wav,0,pill,384,26,5,3,english,female,3,0.3,-4.62561099,0.57572872
aysh,41,0,2024-02-24T08:02:43.969Z,english_119.wav,0,pill,384,26,5,3,english,female,4,0.32341667,-33.86599352,1.36512269
aysh,42,0,2024-02-24T08:02:43.969Z,english_289.wav,0,peel,247,26,5,3,english,female,0,0.0,-55.97739865,0.95213243
aysh,42,0,2024-02-24T08:02:43.969Z,english_289.wav,0,peel,247,26,5,3,english,female,1,0.1,-97.9801122,0.81858491
aysh,42,0,2024-02-24T08:02:43.969Z,english_289.wav,0,peel,247,26,5,3,english,female,2,0.2,44.28679287,1.16094748
aysh,42,0,2024-02-24T08:02:43.969Z,english_289.wav,0,peel,247,26,5,3,english,female,3,0.3,-74.0895039,0.92969459
aysh,42,0,2024-02-24T08:02:43.969Z,english_289.wav,0,peel,247,26,5,3,english,female,4,0.32341667,-44.25845537,0.41504245
aysh,43,0,2024-02-24T08:02:43.969Z,english_211.wav,0,peel,178,26,5,3,english,female,0,0.0,37.34807541,1.77380832
aysh,43,0,2024-02-24T08:02:43.969Z,english_211.wav,0,peel,178,26,5,3,english,female,1,0.1,97.98979508,1.35747523
aysh,43,0,2024-02-24T08:02:43.969Z,english_211.wav,0,peel,178,26,5,3,english,female,2,0.2,-20.02981109,1.74013371
aysh,43,0,2024-02-24T08:02:43.969Z,english_211.wav,0,peel,178,26,5,3,english,female,3,0.3,-69.8116311,0.94808553
aysh,43,0,2024-02-24T08:02:43.969Z,english_211.wav,0,peel,178,26,5,3,english,female,4,0.32341667,35.11126142,0.23094119
aysh,44,0,2024-02-24T08:02:43.969Z,english_194.wav,0,peel,464,26,5,3,english,female,0,0.0,46.99725025,0.38230397
aysh,44,0,2024-02-24T08:02:43.969Z,english_194.wav,0,peel,464,26,5,3,english,female,1,0.1,-37.20381284,1.33246395
aysh,44,0,2024-02-24T08:02:43.969Z,english_194.wav,0,peel,464,26,5,3,english,female,2,0.2,13.86947558,1.31276464
aysh,44,0,2024-02-24T08:02:43.969Z,english_194.wav,0,peel,464,26,5,3,english,female,3,0.3,79.77232086,0.22397005
aysh,44,0,2024-02-24T08:02:43.969Z,english_194.wav,0,peel,464,26,5,3,english,female,4,0.32341667,49.46244041,1.74931967
aysh,45,0,2024-02-24T08:02:43.969Z,english_633.wav,0,peel,84,26,5,3,english,female,0,0.0,-53.72283933,1.23998369
aysh,45,0,2024-02-24T08:02:43.969Z,english_633.wav,0,peel,84,26,5,3,english,female,1,0.1,14.71438877,1.35266241
aysh,45,0,2024-02-24T08:02:43.969Z,english_633.wav,0,peel,84,26,5,3,english,female,2,0.2,95.18630031,0.66132985
aysh,45,0,2024-02-24T08:02:43.969Z,english_633.wav,0,peel,84,26,5,3,english,female,3,0.3,96.89096157,0.52728002
aysh,45,0,2024-02-24T08:02:43.969Z,english_633.wav,0,peel,84,26,5,3,english,female,4,0.32341667,8.38596779,1.4824282
aysh,46,0,2024-02-24T08:02:43.969Z,english_726.wav,0,peel,43,26,5,3,english,female,0,0.0,76.65318619,0.71374833
aysh,46,0,2024-02-24T08:02:43.969Z,english_726.wav,0,peel,43,26,5,3,english,female,1,0.1,62.97746083,1.94407191
aysh,46,0,2024-02-24T08:02:43.969Z,english_726.wav,0,peel,43,26,5,3,english,female,2,0.2,-20.72245964,0.55951675
aysh,46,0,2024-02-24T08:02:43.969Z,english_726.wav,0,peel,43,26,5,3,english,female,3,0.3,42.64953343,0.7826891
aysh,46,0,2024-02-24T08:02:43.969Z,english_726.wav,0,peel,43,26,5,3,english,female,4,0.32341667,23.5514061,0.11592549
aysh,47,0,2024-02-24T08:02:43.969Z,english_79.wav,0,peel,161,26,5,3,english,female,0,0.0,-69.52518262,0.23164561
aysh,47,0,2024-02-24T08:02:43.969Z,english_79.wav,0,peel,161,26,5,3,english,female,1,0.1,56.533406,1.01948637
aysh,47,0,2024-02-24T08:02:43.969Z,english_79.wav,0,peel,161,26,5,3,english,female,2,0.2,25.92051761,0.17653141
aysh,47,0,2024-02-24T08:02:43.969Z,english_79.wav,0,peel,161,26,5,3,english,female,3,0.3,81.58880491,0.14868702
aysh,47,0,2024-02-24T08:02:43.969Z,english_79.wav,0,peel,161,26,5,3,english,female,4,0.32341667,-19.75719301,0.33345335
aysh,48,0,2024-02-24T08:02:43.969Z,english_738.wav,0,pill,1729,26,5,3,english,female,0,0.0,-37.88087101,1.83397703
aysh,48,0,2024-02-24T08:02:43.969Z,english_738.wav,0,pill,1729,26,5,3,english,female,1,0.1,-16.85966727,1.52099356
aysh,48,0,2024-02-24T08:02:43.969Z,english_738.wav,0,pill,1729,26,5,3,english,female,2,0.2,-79.76891938,1.69283951
aysh,48,0,2024-02-24T08:02:43.969Z,english_738.wav,0,pill,1729,26,5,3,english,female,3,0.3,-82.30918252,1.81957343
aysh,48,0,2024-02-24T08:02:43.969Z,english_738.wav,0,pill,1729,26,5,3,english,female,4,0.32341667,59.65991076,0.75908376
aysh,49,0,2024-02-24T08:02:43.969Z,english_11.wav,0,peel,178,26,5,3,english,female,0,0.0,-20.45826732,1.19869378
aysh,49,0,2024-02-24T08:02:43.969Z,english_11.wav,0,peel,178,26,5,3,english,female,1,0.1,-31.26113472,0.2059713
aysh,49,0,2024-02-24T08:02:43.969Z,english_11.wav,0,peel,178,26,5,3,english,female,2,0.2,84.03210455,0.62296143
aysh,49,0,2024-02-24T08:02:43.969Z,english_11.wav,0,peel,178,26,5,3,english,female,3,0.3,30.35463164,1.49781179
aysh,49,0,2024-02-24T08:02:43.969Z,english_11.wav,0,peel,178,26,5,3,english,female,4,0.32341667,-63.36217442,0.18750748
aysh,50,1,2024-02-24T08:02:43.969Z,english_86.wav,0,peel,104,26,5,3,english,female,0,0.0,-48.59393833,1.45450552
aysh,50,1,2024-02-24T08:02:43.969Z,english_86.wav,0,peel,104,26,5,3,english,female,1,0.1,77.37095157,1.8635573
aysh,50,1,2024-02-24T08:02:43.969Z,english_86.wav,0,peel,104,26,5,3,english,female,2,0.2,44.19816726,1.174515
aysh,50,1,2024-02-24T08:02:43.969Z,english_86.wav,0,peel,104,26,5,3,english,female,3,0.3,-99.780271,1.46785746
aysh,50,1,2024-02-24T08:02:43.969Z,english_86.wav,0,peel,104,26,5,3,english,female,4,0.32341667,38.96545556,0.99607158
aysh,51,1,2024-02-24T08:02:43.969Z,english_638.wav,0,peel,179,26,5,3,english,female,0,0.0,6.92468799,1.1702122
aysh,51,1,2024-02-24T08:02:43.969Z,english_638.wav,0,peel,179,26,5,3,english,female,1,0.1,52.10042521,0.51269982
aysh,51,1,2024-02-24T08:02:43.969Z,english_638.wav,0,peel,179,26,5,3,english,female,2,0.2,-39.07293948,0.1912204
aysh,51,1,2024-02-24T08:02:43.969Z,english_638.wav,0,peel,179,26,5,3,english,female,3,0.3,38.46029754,0.91406415
aysh,51,1,2024-02-24T08:02:43.969Z,english_638.wav,0,peel,179,26,5,3,english,female,4,0.32341667,-16.6630855,1.67689755
aysh,52,1,2024-02-24T08:02:43.969Z,english_729.wav,0,pill,505,26,5,3,english,female,0,0.0,31.16849918,1.30127688
aysh,52,1,2024-02-24T08:02:43.969Z,english_729.wav,0,pill,505,26,5,3,english,female,1,0.1,-74.04657477,1.28998605
aysh,52,1,2024-02-24T08:02:43.969Z,english_729.wav,0,pill,505,26,5,3,english,female,2,0.2,98.28479208,0.71365363
aysh,52,1,2024-02-24T08:02:43.969Z,english_729.wav,0,pill,505,26,5,3,english,female,3,0.3,45.68234461,0.61436371
aysh,52,1,2024-02-24T08:02:43.969Z,english_729.wav,0,pill,505,26,5,3,english,female,4,0.32341667,-23.12232547,0.96520681
aysh,53,1,2024-02-24T08:02:43.969Z,english_703.wav,0,peel,183,26,5,3,english,female,0,0.0,21.25560127,1.22587136
aysh,53,1,2024-02-24T08:02:43.969Z,english_703.wav,0,peel,183,26,5,3,english,female,1,0.1,-5.61566417,1.28752652
aysh,53,1,2024-02-24T08:02:43.969Z,english_703.wav,0,peel,183,26,5,3,english,female,2,0.2,-88.15973778,1.61643937
aysh,53,1,2024-02-24T08:02:43.969Z,english_703.wav,0,peel,183,26,5,3,english,female,3,0.3,39.86499493,1.32560109
aysh,53,1,2024-02-24T08:02:43.969Z,english_703.wav,0,peel,183,26,5,3,english,female,4,0.32341667,64.67338156,0.74206522
aysh,54,1,2024-02-24T08:02:43.969Z,english_348.wav,0,pill,361,26,5,3,english,female,0,0.0,21.35215111,0.19799702
aysh,54,1,2024-02-24T08:02:43.969Z,english_348.wav,0,pill,361,26,5,3,english,female,1,0.1,14.79849269,0.60931017
aysh,54,1,2024-02-24T08:02:43.969Z,english_348.wav,0,pill,361,26,5,3,english,female,2,0.2,53.1788992,0.16102666
aysh,54,1,2024-02-24T08:02:43.969Z,english_348.wav,0,pill,361,26,5,3,english,female,3,0.3,-95.85723561,1.54818605
aysh,54,1,2024-02-24T08:02:43.969Z,english_348.wav,0,pill,361,26,5,3,english,female,4,0.32341667,5.27283499,0.26552753
aysh,55,1,2024-02-24T08:02:43.969Z,english_401.wav,0,peel,93,26,5,3,english,female,0,0.0,-70.37998858,1.11338134
aysh,55,1,2024-02-24T08:02:43.969Z,english_401.wav,0,peel,93,26,5,3,english,female,1,0.1,49.27188779,1.59691292
aysh,55,1,2024-02-24T08:02:43.969Z,english_401.wav,0,peel,93,26,5,3,english,female,2,0.2,5.09566389,0.88679935
aysh,55,1,2024-02-24T08:02:43.969Z,english_401.wav,0,peel,93,26,5,3,english,female,3,0.3,58.42368176,1.89749174
aysh,55,1,2024-02-24T08:02:43.969Z,english_401.wav,0,peel,93,26,5,3,english,female,4,0.32341667,-43.06407799,1.35831765
aysh,56,1,2024-02-24T08:02:43.969Z,english_704.wav,0,peel,192,26,5,3,english,female,0,0.0,-24.48288207,0.92043902
aysh,56,1,2024-02-24T08:02:43.969Z,english_704.wav,0,peel,192,26,5,3,english,female,1,0.1,-9.94163531,0.96595902
aysh,56,1,2024-02-24T08:02:43.969Z,english_704.wav,0,peel,192,26,5,3,english,female,2,0.2,74.85271107,1.40327859
aysh,56,1,2024-02-24T08:02:43.969Z,english_704.wav,0,peel,192,26,5,3,english,female,3,0.3,-38.44921803,1.07325586
aysh,56,1,2024-02-24T08:02:43.969Z,english_704.wav,0,peel,192,26,5,3,english,female,4,0.32341667,-21.20994959,1.87555588
aysh,57,1,2024-02-24T08:02:43.969Z,english_186.wav,0,peel,40,26,5,3,english,female,0,0.0,-54.7664391,1.87021502
aysh,57,1,2024-02-24T08:02:43.969Z,english_186.wav,0,peel,40,26,5,3,english,female,1,0.1,-8.4263529,1.36390049
aysh,57,1,2024-02-24T08:02:43.969Z,english_186.wav,0,peel,40,26,5,3,english,female,2,0.2,6.22451559,1.69942617
aysh,57,1,2024-02-24T08:02:43.969Z,english_186.wav,0,peel,40,26,5,3,english,female,3,0.3,-12.35671223,1.8066537
aysh,57,1,2024-02-24T08:02:43.969Z,english_186.wav,0,peel,40,26,5,3,english,female,4,0.32341667,86.21839615,1.2511354
aysh,58,1,2024-02-24T08:02:43.969Z,english_332.wav,0,peel,134,26,5,3,english,female,0,0.0,-51.41680869,1.58782391
aysh,58,1,2024-02-24T08:02:43.969Z,english_332.wav,0,peel,134,26,5,3,english,female,1,0.1,4.985172,0.72138411
aysh,58,1,2024-02-24T08:02:43.969Z,english_332.wav,0,peel,134,26,5,3,english,female,2,0.2,88.20327684,1.12265768
aysh,58,1,2024-02-24T08:02:43.969Z,english_332.wav,0,peel,134,26,5,3,english,female,3,0.3,-58.40734817,0.23569111
aysh,58,1,2024-02-24T08:02:43.969Z,english_332.wav,0,peel,134,26,5,3,english,female,4,0.32341667,68.30800912,1.23583309
aysh,59,1,2024-02-24T08:02:43.969Z,english_961.wav,0,peel,19,26,5,3,english,female,0,0.0,20.81275789,1.87720953
aysh,59,1,2024-02-24T08:02:43.969Z,english_961.wav,0,peel,19,26,5,3,english,female,1,0.1,46.48072234,1.43497285
aysh,59,1,2024-02-24T08:02:43.969Z,english_961.wav,0,peel,19,26,5,3,english,female,2,0.2,79.36291712,1.9095844
aysh,59,1,2024-02-24T08:02:43.969Z,english_961.wav,0,peel,19,26,5,3,english,female,3,0.3,7.86976501,0.20821065
aysh,59,1,2024-02-24T08:02:43.969Z,english_961.wav,0,peel,19,26,5,3,english,female,4,0.32341667,-45.45751668,0.0640973
aysh,60,1,2024-02-24T08:02:43.969Z,english_230.wav,0,pill,286,26,5,3,english,female,0,0.0,59.01519707,0.66464778
aysh,60,1,2024-02-24T08:02:43.969Z,english_230.wav,0,pill,286,26,5,3,english,female,1,0.1,-74.67447784,1.09498554
aysh,60,1,2024-02-24T08:02:43.969Z,english_230.wav,0,pill,286,26,5,3,english,female,2,0.2,78.11378701,0.24708562
aysh,60,1,2024-02-24T08:02:43.969Z,english_230.wav,0,pill,286,26,5,3,english,female,3,0.3,26.79367619,1.40152246
aysh,60,1,2024-02-24T08:02:43.969Z,english_230.wav,0,pill,286,26,5,3,english,female,4,0.32341667,29.92451654,1.02203861
aysh,61,1,2024-02-24T08:02:43.969Z,english_382.wav,0,peel,151,26,5,3,english,female,0,0.0,-83.35497559,1.24516413
aysh,61,1,2024-02-24T08:02:43.969Z,english_382.wav,0,peel,151,26,5,3,english,female,1,0.1,7.83115402,0.59675254
aysh,61,1,2024-02-24T08:02:43.969Z,english_382.wav,0,peel,151,26,5,3,english,female,2,0.2,77.46115257,0.61036026
aysh,61,1,2024-02-24T08:02:43.969Z,english_382.wav,0,peel,151,26,5,3,english,female,3,0.3,89.755233,1.95554414
aysh,61,1,2024-02-24T08:02:43.969Z,english_382.wav,0,peel,151,26,5,3,english,female,4,0.32341667,-36.08570956,1.60845727
aysh,62,1,2024-02-24T08:02:43.969Z,english_803.wav,0,peel,231,26,5,3,english,female,0,0.0,8.73756077,1.22190991
aysh,62,1,2024-02-24T08:02:43.969Z,english_803.wav,0,peel,231,26,5,3,english,female,1,0.1,-41.53503623,1.08276728
aysh,62,1,2024-02-24T08:02:43.969Z,english_803.wav,0,peel,231,26,5,3,english,female,2,0.2,-84.76471985,1.59545905
aysh,62,1,2024-02-24T08:02:43.969Z,english_803.wav,0,peel,231,26,5,3,english,female,3,0.3,-27.96408635,1.3875394
aysh,62,1,2024-02-24T08:02:43.969Z,english_803.wav,0,peel,231,26,5,3,english,female,4,0.32341667,72.02290108,0.92287786
aysh,63,1,2024-02-24T08:02:43.969Z,english_78.wav,0,peel,53,26,5,3,english,female,0,0.0,57.57509383,0.85738581
aysh,63,1,2024-02-24T08:02:43.969Z,english_78.wav,0,peel,53,26,5,3,english,female,1,0.1,8.37611797,1.59375359
aysh,63,1,2024-02-24T08:02:43.969Z,english_78.wav,0,peel,53,26,5,3,english,female,2,0.2,-42.8518908,1.65756647
aysh,63,1,2024-02-24T08:02:43.969Z,english_78.wav,0,peel,53,26,5,3,english,female,3,0.3,26.19415986,0.53011742
aysh,63,1,2024-02-24T08:02:43.969Z,english_78.wav,0,peel,53,26,5,3,english,female,4,0.32341667,65.52498429,1.5323802
aysh,64,1,2024-02-24T08:02:43.969Z,english_963.wav,0,peel,3,26,5,3,english,female,0,0.0,-60.03327616,0.86711865
aysh,64,1,2024-02-24T08:02:43.969Z,english_963.wav,0,peel,3,26,5,3,english,female,1,0.1,-15.51067414,1.69273621
aysh,64,1,2024-02-24T08:02:43.969Z,english_963.wav,0,peel,3,26,5,3,english,female,2,0.2,59.36715957,0.74157302
aysh,64,1,2024-02-24T08:02:43.969Z,english_963.wav,0,peel,3,26,5,3,english,female,3,0.3,-98.70464219,1.73078555
aysh,64,1,2024-02-24T08:02:43.969Z,english_963.wav,0,peel,3,26,5,3,english,female,4,0.32341667,37.26723218,1.37482324
aysh,65,1,2024-02-24T08:02:43.969Z,english_695.wav,0,peel,131,26,5,3,english,female,0,0.0,-74.02191529,1.19534619
aysh,65,1,2024-02-24T08:02:43.969Z,english_695.wav,0,peel,131,26,5,3,english,female,1,0.1,54.28596986,0.93917139
aysh,65,1,2024-02-24T08:02:43.969Z,english_695.wav,0,peel,131,26,5,3,english,female,2,0.2,-13.22196683,0.1241488
aysh,65,1,2024-02-24T08:02:43.969Z,english_695.wav,0,peel,131,26,5,3,english,female,3,0.3,1.82272444,1.20091234
aysh,65,1,2024-02-24T08:02:43.969Z,english_695.wav,0,peel,131,26,5,3,english,female,4,0.32341667,-11.74905262,0.46222147
aysh,66,1,2024-02-24T08:02:43.969Z,english_865.wav,0,pill,335,26,5,3,english,female,0,0.0,57.45647421,1.64387024
aysh,66,1,2024-02-24T08:02:43.969Z,english_865.wav,0,pill,335,26,5,3,english,female,1,0.1,-62.30549211,0.05749027
aysh,66,1,2024-02-24T08:02:43.969Z,english_865.wav,0,pill,335,26,5,3,english,female,2,0.2,-35.85649312,0.09554773
aysh,66,1,2024-02-24T08:02:43.969Z,english_865.wav,0,pill,335,26,5,3,english,female,3,0.3,55.00701181,1.62598434
aysh,66,1,2024-02-24T08:02:43.969Z,english_865.wav,0,pill,335,26,5,3,english,female,4,0.32341667,-39.97662747,0.71232625
aysh,67,1,2024-02-24T08:02:43.969Z,english_606.wav,0,peel,232,26,5,3,english,female,0,0.0,-54.19201916,1.71730642
aysh,67,1,2024-02-24T08:02:43.969Z,english_606.wav,0,peel,232,26,5,3,english,female,1,0.1,-9.49104439,0.42216081
aysh,67,1,2024-02-24T08:02:43.969Z,english_606.wav,0,peel,232,26,5,3,english,female,2,0.2,1.17868262,1.31506394
aysh,67,1,2024-02-24T08:02:43.969Z,english_606.wav,0,peel,232,26,5,3,english,female,3,0.3,-95.39718692,0.06922913
aysh,67,1,2024-02-24T08:02:43.969Z,english_606.wav,0,peel,232,26,5,3,english,female,4,0.32341667,-48.659775,0.08316227
aysh,68,1,2024-02-24T08:02:43.969Z,english_651.wav,0,peel,224,26,5,3,english,female,0,0.0,94.66063372,0.16277223
aysh,68,1,2024-02-24T08:02:43.969Z,english_651.wav,0,peel,224,26,5,3,english,female,1,0.1,53.93234837,1.71236475
aysh,68,1,2024-02-24T08:02:43.969Z,english_651.wav,0,peel,224,26,5,3,english,female,2,0.2,-71.35755131,0.37376336
aysh,68,1,2024-02-24T08:02:43.969Z,english_651.wav,0,peel,224,26,5,3,english,female,3,0.3,50.84025958,0.80998932
aysh,68,1,2024-02-24T08:02:43.969Z,english_651.wav,0,peel,224,26,5,3,english,female,4,0.32341667,-24.67252949,0.23835763
aysh,69,1,2024-02-24T08:02:43.969Z,english_317.wav,0,peel,65,26,5,3,english,female,0,0.0,-26.75650792,1.75672771
aysh,69,1,2024-02-24T08:02:43.969Z,english_317.wav,0,peel,65,26,5,3,english,female,1,0.1,9.07297032,1.82949168
aysh,69,1,2024-02-24T08:02:43.969Z,english_317.wav,0,peel,65,26,5,3,english,female,2,0.2,17.58512652,1.6954519
aysh,69,1,2024-02-24T08:02:43.969Z,english_317.wav,0,peel,65,26,5,3,english,female,3,0.3,29.57201507,0.7122411
aysh,69,1,2024-02-24T08:02:43.969Z,english_317.wav,0,peel,65,26,5,3,english,female,4,0.32341667,56.4667582,1.26753728
aysh,70,1,2024-02-24T08:02:43.969Z,english_666.wav,0,peel,220,26,5,3,english,female,0,0.0,-6.63307831,0.44221414
aysh,70,1,2024-02-24T08:02:43.969Z,english_666.wav,0,peel,220,26,5,3,english,female,1,0.1,-47.66524373,1.62559692
aysh,70,1,2024-02-24T08:02:43.969Z,english_666.wav,0,peel,220,26,5,3,english,female,2,0.2,66.93817534,0.27313334
aysh,70,1,2024-02-24T08:02:43.969Z,english_666.wav,0,peel,220,26,5,3,english,female,3,0.3,-1.338646,0.46846925
aysh,70,1,2024-02-24T08:02:43.969Z,english_666.wav,0,peel,220,26,5,3,english,female,4,0.32341667,-14.31927765,1.08883823
aysh,71,1,2024-02-24T08:02:43.969Z,english_571.wav,0,pill,369,26,5,3,english,female,0,0.0,-42.92588422,0.65590276
aysh,71,1,2024-02-24T08:02:43.969Z,english_571.wav,0,pill,369,26,5,3,english,female,1,0.1,-87.39276897,1.8306878
aysh,71,1,2024-02-24T08:02:43.969Z,english_571.wav,0,pill,369,26,5,3,english,female,2,0.2,19.06282168,0.06889765
aysh,71,1,2024-02-24T08:02:43.969Z,english_571.wav,0,pill,369,26,5,3,english,female,3,0.3,-99.30459792,0.29364209
aysh,71,1,2024-02-24T08:02:43.969Z,english_571.wav,0,pill,369,26,5,3,english,female,4,0.32341667,41.25263337,1.388798
aysh,72,1,2024-02-24T08:02:43.969Z,english_91.wav,0,pill,258,26,5,3,english,female,0,0.0,-67.73951944,0.2772338
aysh,72,1,2024-02-24T08:02:43.969Z,english_91.wav,0,pill,258,26,5,3,english,female,1,0.1,83.83337034,0.0816757
aysh,72,1,2024-02-24T08:02:43.969Z,english_91.wav,0,pill,258,26,5,3,english,female,2,0.2,-12.75649653,0.92538416
aysh,72,1,2024-02-24T08:02:43.969Z,english_91.wav,0,pill,258,26,5,3,english,female,3,0.3,5.95502951,0.40714056
aysh,72,1,2024-02-24T08:02:43.969Z,english_91.wav,0,pill,258,26,5,3,english,female,4,0.32341667,59.56964586,1.8717525
aysh,73,1,2024-02-24T08:02:43.969Z,english_212.wav,0,peel,239,26,5,3,english,female,0,0.0,-8.03708838,0.69940518
aysh,73,1,2024-02-24T08:02:43.969Z,english_212.wav,0,peel,239,26,5,3,english,female,1,0.1,72.60121642,1.0039509
aysh,73,1,2024-02-24T08:02:43.969Z,english_212.wav,0,peel,239,26,5,3,english,female,2,0.2,-98.76374397,1.17731185
aysh,73,1,2024-02-24T08:02:43.969Z,english_212.wav,0,peel,239,26,5,3,english,female,3,0.3,31.47742107,0.88066499
aysh,73,1,2024-02-24T08:02:43.969Z,english_212.wav,0,peel,239,26,5,3,english,female,4,0.32341667,53.59344022,0.33624016
aysh,74,1,2024-02-24T08:02:43.969Z,english_570.wav,0,pill,129,26,5,3,english,female,0,0.0,79.72420881,1.67561776
aysh,74,1,2024-02-24T08:02:43.969Z,english_570.wav,0,pill,129,26,5,3,english,female,1,0.1,-10.34227762,1.50139893
aysh,74,1,2024-02-24T08:02:43.969Z,english_570.wav,0,pill,129,26,5,3,english,female,2,0.2,18.32754659,1.41834695
aysh,74,1,2024-02-24T08:02:43.969Z,english_570.wav,0,pill,129,26,5,3,english,female,3,0.3,15.23919529,1.12876239
aysh,74,1,2024-02-24T08:02:43.969Z,english_570.wav,0,pill,129,26,5,3,english,female,4,0.32341667,-28.05357781,0.72546523
aysh,75,1,2024-02-24T08:02:43.969Z,english_310.wav,0,peel,45,26,5,3,english,female,0,0.0,82.1385274,0.14341218
aysh,75,1,2024-02-24T08:02:43.969Z,english_310.wav,0,peel,45,26,5,3,english,female,1,0.1,-33.74608058,1.80934389
aysh,75,1,2024-02-24T08:02:43.969Z,english_310.wav,0,peel,45,26,5,3,english,female,2,0.2,62.12487376,1.28785402
aysh,75,1,2024-02-24T08:02:43.969Z,english_310.wav,0,peel,45,26,5,3,english,female,3,0.3,96.31437548,1.13060378
aysh,75,1,2024-02-24T08:02:43.969Z,english_310.wav,0,peel,45,26,5,3,english,female,4,0.32341667,-23.64802517,1.05137249
aysh,76,1,2024-02-24T08:02:43.969Z,english_388.wav,0,peel,184,26,5,3,english,female,0,0.0,17.9760939,0.95494184
aysh,76,1,2024-02-24T08:02:43.969Z,english_388.wav,0,peel,184,26,5,3,english,female,1,0.1,-43.00340989,0.10281418
aysh,76,1,2024-02-24T08:02:43.969Z,english_388.wav,0,peel,184,26,5,3,english,female,2,0.2,-30.55059063,1.52164503
aysh,76,1,2024-02-24T08:02:43.969Z,english_388.wav,0,peel,184,26,5,3,english,female,3,0.3,-92.55876504,1.24827519
aysh,76,1,2024-02-24T08:02:43.969Z,english_388.wav,0,peel,184,26,5,3,english,female,4,0.32341667,-64.21175873,0.08180338
aysh,77,1,2024-02-24T08:02:43.969Z,english_413.wav,0,peel,122,26,5,3,english,female,0,0.0,-9.66675054,1.82887045
aysh,77,1,2024-02-24T08:02:43.969Z,english_413.wav,0,peel,122,26,5,3,english,female,1,0.1,15.27504309,0.80668743
aysh,77,1,2024-02-24T08:02:43.969Z,english_413.wav,0,peel,122,26,5,3,english,female,2,0.2,-94.93171401,0.90586838
aysh,77,1,2024-02-24T08:02:43.969Z,english_413.wav,0,peel,122,26,5,3,english,female,3,0.3,-42.87800999,1.3937681
aysh,77,1,2024-02-24T08:02:43.969Z,english_413.wav,0,peel,122,26,5,3,english,female,4,0.32341667,-63.39385234,0.34165264
aysh,78,1,2024-02-24T08:02:43.969Z,english_296.wav,0,peel,66,26,5,3,english,female,0,0.0,-4.92142852,1.99305172
aysh,78,1,2024-02-24T08:02:43.969Z,english_296.wav,0,peel,66,26,5,3,english,female,1,0.1,-5.74196289,0.92633133
aysh,78,1,2024-02-24T08:02:43.969Z,english_296.wav,0,peel,66,26,5,3,english,female,2,0.2,76.26647078,0.44879969
aysh,78,1,2024-02-24T08:02:43.969Z,english_296.wav,0,peel,66,26,5,3,english,female,3,0.3,-62.74030654,1.47417428
aysh,78,1,2024-02-24T08:02:43.969Z,english_296.wav,0,peel,66,26,5,3,english,female,4,0.32341667,-60.661992,1.05571007
aysh,79,1,2024-02-24T08:02:43.969Z,english_411.wav,0,peel,259,26,5,3,english,female,0,0.0,75.357241,0.83773649
aysh,79,1,2024-02-24T08:02:43.969Z,english_411.wav,0,peel,259,26,5,3,english,female,1,0.1,-55.75688593,0.80885485
aysh,79,1,2024-02-24T08:02:43.969Z,english_411.wav,0,peel,259,26,5,3,english,female,2,0.2,61.10111178,0.61144368
aysh,79,1,2024-02-24T08:02:43.969Z,english_411.wav,0,peel,259,26,5,3,english,female,3,0.3,90.25367142,0.73863407
aysh,79,1,2024-02-24T08:02:43.969Z,english_411.wav,0,peel,259,26,5,3,english,female,4,0.32341667,26.85831553,0.4624235
aysh,80,1,2024-02-24T08:02:43.969Z,english_968.wav,0,peel,138,26,5,3,english,female,0,0.0,-36.76350372,0.52322451
aysh,80,1,2024-02-24T08:02:43.969Z,english_968.wav,0,peel,138,26,5,3,english,female,1,0.1,-99.8991193,0.66419732
aysh,80,1,2024-02-24T08:02:43.969Z,english_968.wav,0,peel,138,26,5,3,english,female,2,0.2,27.503089,0.44232096
aysh,80,1,2024-02-24T08:02:43.969Z,english_968.wav,0,peel,138,26,5,3,english,female,3,0.3,-34.85106147,1.90778707
aysh,80,1,2024-02-24T08:02:43.969Z,english_968.wav,0,peel,138,26,5,3,english,female,4,0.32341667,68.2869663,0.59652698
aysh,81,1,2024-02-24T08:02:43.969Z,english_790.wav,0,pill,1869,26,5,3,english,female,0,0.0,51.18493756,0.66657869
aysh,81,1,2024-02-24T08:02:43.969Z,english_790.wav,0,pill,1869,26,5,3,english,female,1,0.1,-64.70105349,0.91857876
aysh,81,1,2024-02-24T08:02:43.969Z,english_790.wav,0,pill,1869,26,5,3,english,female,2,0.2,-90.57968214,1.26779222
aysh,81,1,2024-02-24T08:02:43.969Z,english_790.wav,0,pill,1869,26,5,3,english,female,3,0.3,-94.64625917,1.54144859
aysh,81,1,2024-02-24T08:02:43.969Z,english_790.wav,0,pill,1869,26,5,3,english,female,4,0.32341667,-38.85953331,1.32367104
aysh,82,1,2024-02-24T08:02:43.969Z,english_263.wav,0,pill,434,26,5,3,english,female,0,0.0,4.78285782,1.6410762
aysh,82,1,2024-02-24T08:02:43.969Z,english_263.wav,0,pill,434,26,5,3,english,female,1,0.1,13.60270601,0.7602565
aysh,82,1,2024-02-24T08:02:43.969Z,english_263.wav,0,pill,434,26,5,3,english,female,2,0.2,39.50896912,0.2694778
aysh,82,1,2024-02-24T08:02:43.969Z,english_263.wav,0,pill,434,26,5,3,english,female,3,0.3,22.44107494,1.51649535
aysh,82,1,2024-02-24T08:02:43.969Z,english_263.wav,0,pill,434,26,5,3,english,female,4,0.32341667,-36.00172497,0.60574629
aysh,83,1,2024-02-24T08:02:43.969Z,english_757.wav,0,peel,837,26,5,3,english,female,0,0.0,-71.37581006,0.57944866
aysh,83,1,2024-02-24T08:02:43.969Z,english_757.wav,0,peel,837,26,5,3,english,female,1,0.1,-34.89028362,1.76833087
aysh,83,1,2024-02-24T08:02:43.969Z,english_757.wav,0,peel,837,26,5,3,english,female,2,0.2,97.72444176,0.43040584
aysh,83,1,2024-02-24T08:02:43.969Z,english_757.wav,0,peel,837,26,5,3,english,female,3,0.3,8.64322444,1.84780211
aysh,83,1,2024-02-24T08:02:43.969Z,english_757.wav,0,peel,837,26,5,3,english,female,4,0.32341667,-59.15215987,0.21714226
aysh,84,1,2024-02-24T08:02:43.969Z,english_226.wav,0,peel,323,26,5,3,english,female,0,0.0,-56.53605181,0.51185795
aysh,84,1,2024-02-24T08:02:43.969Z,english_226.wav,0,peel,323,26,5,3,english,female,1,0.1,-5.93547338,0.73377568
aysh,84,1,2024-02-24T08:02:43.969Z,english_226.wav,0,peel,323,26,5,3,english,female,2,0.2,-81.0596442,1.62034912
aysh,84,1,2024-02-24T08:02:43.969Z,english_226.wav,0,peel,323,26,5,3,english,female,3,0.3,-12.14261426,0.19474782
aysh,84,1,2024-02-24T08:02:43.969Z,english_226.wav,0,peel,323,26,5,3,english,female,4,0.32341667,40.67667876,0.1395898
aysh,85,1,2024-02-24T08:02:43.969Z,english_810.wav,0,pill,2049,26,5,3,english,female,0,0.0,44.6757801,0.77700382
aysh,85,1,2024-02-24T08:02:43.969Z,english_810.wav,0,pill,2049,26,5,3,english,female,1,0.1,-98.4252216,1.25917073
aysh,85,1,2024-02-24T08:02:43.969Z,english_810.wav,0,pill,2049,26,5,3,english,female,2,0.2,55.4106213,0.78203472
aysh,85,1,2024-02-24T08:02:43.969Z,english_810.wav,0,pill,2049,26,5,3,english,female,3,0.3,-18.4676839,1.13021068
aysh,85,1,2024-02-24T08:02:43.969Z,english_810.wav,0,pill,2049,26,5,3,english,female,4,0.323416667,0.0259169543,0.14578676
aysh,86,1,2024-02-24T08:02:43.969Z,english_748.wav,0,peel,102,26,5,3,english,female,0,0.0,0.23647087,0.91094575
aysh,86,1,2024-02-24T08:02:43.969Z,english_748.wav,0,peel,102,26,5,3,english,female,1,0.1,45.60572596,1.68800655
aysh,86,1,2024-02-24T08:02:43.969Z,english_748.wav,0,peel,102,26,5,3,english,female,2,0.2,6.14588966,1.37684191
aysh,86,1,2024-02-24T08:02:43.969Z,english_748.wav,0,peel,102,26,5,3,english,female,3,0.3,-10.39850874,0.70556294
aysh,86,1,2024-02-24T08:02:43.969Z,english_748.wav,0,peel,102,26,5,3,english,female,4,0.32341667,-7.86503132,1.52987196
aysh,87,1,2024-02-24T08:02:43.969Z,english_878.wav,0,peel,86,26,5,3,english,female,0,0.0,84.19501339,0.22676298
aysh,87,1,2024-02-24T08:02:43.969Z,english_878.wav,0,peel,86,26,5,3,english,female,1,0.1,76.71234668,0.28568495
aysh,87,1,2024-02-24T08:02:43.969Z,english_878.wav,0,peel,86,26,5,3,english,female,2,0.2,-74.61835319,0.74220819
aysh,87,1,2024-02-24T08:02:43.969Z,english_878.wav,0,peel,86,26,5,3,english,female,3,0.3,83.79758366,1.72755148
aysh,87,1,2024-02-24T08:02:43.969Z,english_878.wav,0,peel,86,26,5,3,english,female,4,0.32341667,-29.32243698,1.88938616
aysh,88,1,2024-02-24T08:02:43.969Z,english_300.wav,0,peel,1433,26,5,3,english,female,0,0.0,-57.32903368,1.31106943
aysh,88,1,2024-02-24T08:02:43.969Z,english_300.wav,0,peel,1433,26,5,3,english,female,1,0.1,-14.80176218,1.36432179
aysh,88,1,2024-02-24T08:02:43.969Z,english_300.wav,0,peel,1433,26,5,3,english,female,2,0.2,17.32090115,1.9756976
aysh,88,1,2024-02-24T08:02:43.969Z,english_300.wav,0,peel,1433,26,5,3,english,female,3,0.3,9.38584248,1.38621255
aysh,88,1,2024-02-24T08:02:43.969Z,english_300.wav,0,peel,1433,26,5,3,english,female,4,0.32341667,-54.58865419,1.60203422
aysh,89,1,2024-02-24T08:02:43.969Z,english_338.wav,0,pill,128,26,5,3,english,female,0,0.0,-22.40965878,1.93572195
aysh,89,1,2024-02-24T08:02:43.969Z,english_338.wav,0,pill,128,26,5,3,english,female,1,0.1,-10.16153496,1.78994992
aysh,89,1,2024-02-24T08:02:43.969Z,english_338.wav,0,pill,128,26,5,3,english,female,2,0.2,-50.2449588,1.38134059
aysh,89,1,2024-02-24T08:02:43.969Z,english_338.wav,0,pill,128,26,5,3,english,female,3,0.3,14.05674122,1.78462007
aysh,89,1,2024-02-24T08:02:43.969Z,english_338.wav,0,pill,128,26,5,3,english,female,4,0.32341667,-78.35339858,1.2607094
aysh,90,1,2024-02-24T08:02:43.969Z,english_838.wav,0,peel,283,26,5,3,english,female,0,0.0,-46.43239877,0.57293762
aysh,90,1,2024-02-24T08:02:43.969Z,english_838.wav,0,peel,283,26,5,3,english,female,1,0.1,-0.77549132,1.65450135
aysh,90,1,2024-02-24T08:02:43.969Z,english_838.wav,0,peel,283,26,5,3,english,female,2,0.2,-47.56158581,0.30574951
aysh,90,1,2024-02-24T08:02:43.969Z,english_838.wav,0,peel,283,26,5,3,english,female,3,0.3,7.18116474,0.96315644
aysh,90,1,2024-02-24T08:02:43.969Z,english_838.wav,0,peel,283,26,5,3,english,female,4,0.32341667,-87.38880816,0.83017899
aysh,91,1,2024-02-24T08:02:43.969Z,english_641.wav,0,peel,308,26,5,3,english,female,0,0.0,-90.88934322,1.28926835
aysh,91,1,2024-02-24T08:02:43.969Z,english_641.wav,0,peel,308,26,5,3,english,female,1,0.1,13.36673253,0.02464493
aysh,91,1,2024-02-24T08:02:43.969Z,english_641.wav,0,peel,308,26,5,3,english,female,2,0.2,-36.70414591,0.5505433
aysh,91,1,2024-02-24T08:02:43.969Z,english_641.wav,0,peel,308,26,5,3,english,female,3,0.3,-4.62417375,0.52188675
aysh,91,1,2024-02-24T08:02:43.969Z,english_641.wav,0,peel,308,26,5,3,english,female,4,0.32341667,15.34366305,0.01360039
aysh,92,1,2024-02-24T08:02:43.969Z,english_700.wav,0,pill,310,26,5,3,english,female,0,0.0,-76.89056698,0.13963816
aysh,92,1,2024-02-24T08:02:43.969Z,english_700.wav,0,pill,310,26,5,3,english,female,1,0.1,-93.17552037,0.76842729
aysh,92,1,2024-02-24T08:02:43.969Z,english_700.wav,0,pill,310,26,5,3,english,female,2,0.2,51.24439156,0.49149542
aysh,92,1,2024-02-24T08:02:43.969Z,english_700.wav,0,pill,310,26,5,3,english,female,3,0.3,89.4516499,1.08714417
aysh,92,1,2024-02-24T08:02:43.969Z,english_700.wav,0,pill,310,26,5,3,english,female,4,0.32341667,-68.48659069,1.35188588
aysh,93,1,2024-02-24T08:02:43.969Z,english_27.wav,0,peel,63,26,5,3,english,female,0,0.0,-6.18374659,1.89085405
aysh,93,1,2024-02-24T08:02:43.969Z,english_27.wav,0,peel,63,26,5,3,english,female,1,0.1,32.21095844,0.80138328
aysh,93,1,2024-02-24T08:02:43.969Z,english_27.wav,0,peel,63,26,5,3,english,female,2,0.2,21.02729748,1.01248602
aysh,93,1,2024-02-24T08:02:43.969Z,english_27.wav,0,peel,63,26,5,3,english,female,3,0.3,4.79829383,1.67412938
aysh,93,1,2024-02-24T08:02:43.969Z,english_27.wav,0,peel,63,26,5,3,english,female,4,0.32341667,-70.7577659,0.3387802
aysh,94,1,2024-02-24T08:02:43.969Z,english_169.wav,0,peel,372,26,5,3,english,female,0,0.0,21.52556644,0.24747868
aysh,94,1,2024-02-24T08:02:43.969Z,english_169.wav,0,peel,372,26,5,3,english,female,1,0.1,-62.21960884,0.51530303
aysh,94,1,2024-02-24T08:02:43.969Z,english_169.wav,0,peel,372,26,5,3,english,female,2,0.2,-58.58818316,1.14352058
aysh,94,1,2024-02-24T08:02:43.969Z,english_169.wav,0,peel,372,26,5,3,english,female,3,0.3,14.95103608,1.46694059
aysh,94,1,2024-02-24T08:02:43.969Z,english_169.wav,0,peel,372,26,5,3,english,female,4,0.32341667,21.70814087,1.67980684
aysh,95,1,2024-02-24T08:02:43.969Z,english_797.wav,0,peel,80,26,5,3,english,female,0,0.0,-10.77604935,1.75152448
aysh,95,1,2024-02-24T08:02:43.969Z,english_797.wav,0,peel,80,26,5,3,english,female,1,0.1,76.52998448,0.25625033
aysh,95,1,2024-02-24T08:02:43.969Z,english_797.wav,0,peel,80,26,5,3,english,female,2,0.2,-52.30950648,1.63910521
aysh,95,1,2024-02-24T08:02:43.969Z,english_797.wav,0,peel,80,26,5,3,english,female,3,0.3,-19.27189704,1.44412191
aysh,95,1,2024-02-24T08:02:43.969Z,english_797.wav,0,peel,80,26,5,3,english,female,4,0.32341667,-68.52312916,1.41513857
aysh,96,1,2024-02-24T08:02:43.969Z,english_120.wav,0,peel,161,26,5,3,english,female,0,0.0,55.2306484,0.43658612
aysh,96,1,2024-02-24T08:02:43.969Z,english_120.wav,0,peel,161,26,5,3,english,female,1,0.1,82.00530973,0.03999251
aysh,96,1,2024-02-24T08:02:43.969Z,english_120.wav,0,peel,161,26,5,3,english,female,2,0.2,-5.84837635,0.80827096
aysh,96,1,2024-02-24T08:02:43.969Z,english_120.wav,0,peel,161,26,5,3,english,female,3,0.3,66.20489525,1.78669421
aysh,96,1,2024-02-24T08:02:43.969Z,english_120.wav,0,peel,161,26,5,3,english,female,4,0.32341667,-73.22302923,1.04341795
aysh,97,1,2024-02-24T08:02:43.969Z,english_674.wav,0,peel,145,26,5,3,english,female,0,0.0,-38.60253285,0.25488683
aysh,97,1,2024-02-24T08:02:43.969Z,english_674.wav,0,peel,145,26,5,3,english,female,1,0.1,46.14948962,1.80679583
aysh,97,1,2024-02-24T08:02:43.969Z,english_674.wav,0,peel,145,26,5,3,english,female,2,0.2,-49.76414787,1.59420413
aysh,97,1,2024-02-24T08:02:43.969Z,english_674.wav,0,peel,145,26,5,3,english,female,3,0.3,-66.16492387,1.25714797
aysh,97,1,2024-02-24T08:02:43.969Z,english_674.wav,0,peel,145,26,5,3,english,female,4,0.32341667,28.37583826,1.20557216
aysh,98,1,2024-02-24T08:02:43.969Z,english_806.wav,0,peel,288,26,5,3,english,female,0,0.0,17.38837614,1.03842349
aysh,98,1,2024-02-24T08:02:43.969Z,english_806.wav,0,peel,288,26,5,3,english,female,1,0.1,50.31160736,1.08461549
aysh,98,1,2024-02-24T08:02:43.969Z,english_806.wav,0,peel,288,26,5,3,english,female,2,0.2,74.21499327,1.8436814
aysh,98,1,2024-02-24T08:02:43.969Z,english_806.wav,0,peel,288,26,5,3,english,female,3,0.3,16.647622,1.85846725
aysh,98,1,2024-02-24T08:02:43.969Z,english_806.wav,0,peel,288,26,5,3,english,female,4,0.32341667,27.12519974,1.15820289
aysh,99,1,2024-02-24T08:02:43.969Z,english_875.wav,0,peel,371,26,5,3,english,female,0,0.0,-72.29566874,0.47412948
aysh,99,1,2024-02-24T08:02:43.969Z,english_875.wav,0,peel,371,26,5,3,english,female,1,0.1,40.49821439,0.97105678
aysh,99,1,2024-02-24T08:02:43.969Z,english_875.wav,0,peel,371,26,5,3,english,female,2,0.2,61.66936014,1.31175081
aysh,99,1,2024-02-24T08:02:43.969Z,english_875.wav,0,peel,371,26,5,3,english,female,3,0.3,36.92950197,0.55015514
aysh,99,1,2024-02-24T08:02:43.969Z,english_875.wav,0,peel,371,26,5,3,english,female,4,0.32341667,61.03530789,1.23529794
aysh,100,2,2024-02-24T08:02:43.969Z,english_502.wav,0,pill,1767,26,5,3,english,female,0,0.0,-23.73065935,0.0797034
aysh,100,2,2024-02-24T08:02:43.969Z,english_502.wav,0,pill,1767,26,5,3,english,female,1,0.1,2.70754613,1.83600464
aysh,100,2,2024-02-24T08:02:43.969Z,english_502.wav,0,pill,1767,26,5,3,english,female,2,0.2,25.650451,1.48948742
aysh,100,2,2024-02-24T08:02:43.969Z,english_502.wav,0,pill,1767,26,5,3,english,female,3,0.3,-49.55254658,1.22465236
aysh,100,2,2024-02-24T08:02:43.969Z,english_502.wav,0,pill,1767,26,5,3,english,female,4,0.32341667,16.82642172,1.41984075
aysh,101,2,2024-02-24T08:02:43.969Z,english_847.wav,0,peel,37,26,5,3,english,female,0,0.0,76.45550118,0.38890762
aysh,101,2,2024-02-24T08:02:43.969Z,english_847.wav,0,peel,37,26,5,3,english,female,1,0.1,-18.38123868,1.01718805
aysh,101,2,2024-02-24T08:02:43.969Z,english_847.wav,0,peel,37,26,5,3,english,female,2,0.2,18.403778,1.24872656
aysh,101,2,2024-02-24T08:02:43.969Z,english_847.wav,0,peel,37,26,5,3,english,female,3,0.3,57.196546,0.81951257
aysh,101,2,2024-02-24T08:02:43.969Z,english_847.wav,0,peel,37,26,5,3,english,female,4,0.32341667,32.99763753,0.74194876
aysh,102,2,2024-02-24T08:02:43.969Z,english_979.wav,0,peel,224,26,5,3,english,female,0,0.0,-1.00654814,1.61411081
aysh,102,2,2024-02-24T08:02:43.969Z,english_979.wav,0,peel,224,26,5,3,english,female,1,0.1,18.39835707,1.30464512
aysh,102,2,2024-02-24T08:02:43.969Z,english_979.wav,0,peel,224,26,5,3,english,female,2,0.2,-42.91789413,0.93120215
aysh,102,2,2024-02-24T08:02:43.969Z,english_979.wav,0,peel,224,26,5,3,english,female,3,0.3,-58.29527223,0.87145212
aysh,102,2,2024-02-24T08:02:43.969Z,english_979.wav,0,peel,224,26,5,3,english,female,4,0.32341667,86.14740424,1.17332389
aysh,103,2,2024-02-24T08:02:43.969Z,english_996.wav,0,peel,327,26,5,3,english,female,0,0.0,-71.70531914,1.36459419
aysh,103,2,2024-02-24T08:02:43.969Z,english_996.wav,0,peel,327,26,5,3,english,female,1,0.1,-47.61419544,0.5051745
aysh,103,2,2024-02-24T08:02:43.969Z,english_996.wav,0,peel,327,26,5,3,english,female,2,0.2,48.0330823,1.09957376
aysh,103,2,2024-02-24T08:02:43.969Z,english_996.wav,0,peel,327,26,5,3,english,female,3,0.3,34.27821317,0.27950682
aysh,103,2,2024-02-24T08:02:43.969Z,english_996.wav,0,peel,327,26,5,3,english,female,4,0.32341667,-72.4662587,0.22836241
aysh,104,2,2024-02-24T08:02:43.969Z,english_351.wav,0,peel,133,26,5,3,english,female,0,0.0,-56.55455818,0.98366365
aysh,104,2,2024-02-24T08:02:43.969Z,english_351.wav,0,peel,133,26,5,3,english,female,1,0.1,-81.1333892,1.13800808
aysh,104,2,2024-02-24T08:02:43.969Z,english_351.wav,0,peel,133,26,5,3,english,female,2,0.2,70.95296343,1.04915948
aysh,104,2,2024-02-24T08:02:43.969Z,english_351.wav,0,peel,133,26,5,3,english,female,3,0.3,-82.79021433,1.70890302
aysh,104,2,2024-02-24T08:02:43.969Z,english_351.wav,0,peel,133,26,5,3,english,female,4,0.32341667,-21.34496407,1.83807055
aysh,105,2,2024-02-24T08:02:43.969Z,english_176.wav,0,pill,363,26,5,3,english,female,0,0.0,-62.84257592,0.68193044
aysh,105,2,2024-02-24T08:02:43.969Z,english_176.wav,0,pill,363,26,5,3,english,female,1,0.1,86.95506575,0.26950978
aysh,105,2,2024-02-24T08:02:43.969Z,english_176.wav,0,pill,363,26,5,3,english,female,2,0.2,-28.0397163,0.45294908
aysh,105,2,2024-02-24T08:02:43.969Z,english_176.wav,0,pill,363,26,5,3,english,female,3,0.3,-64.80124174,0.91353321
aysh,105,2,2024-02-24T08:02:43.969Z,english_176.wav,0,pill,363,26,5,3,english,female,4,0.32341667,-98.66046935,1.10925614
aysh,106,2,2024-02-24T08:02:43.969Z,english_34.wav,0,pill,1508,26,5,3,english,female,0,0.0,-48.07924103,1.44836266
aysh,106,2,2024-02-24T08:02:43.969Z,english_34.wav,0,pill,1508,26,5,3,english,female,1,0.1,-64.84739183,1.89580324
aysh,106,2,2024-02-24T08:02:43.969Z,english_34.wav,0,pill,1508,26,5,3,english,female,2,0.2,-20.81716265,0.64308549
aysh,106,2,2024-02-24T08:02:43.969Z,english_34.wav,0,pill,1508,26,5,3,english,female,3,0.3,91.13652067,0.0848332
aysh,106,2,2024-02-24T08:02:43.969Z,english_34.wav,0,pill,1508,26,5,3,english,female,4,0.32341667,-54.46543937,0.8036564
aysh,107,2,2024-02-24T08:02:43.969Z,english_658.wav,0,peel,127,26,5,3,english,female,0,0.0,-80.21976745,0.49170119
aysh,107,2,2024-02-24T08:02:43.969Z,english_658.wav,0,peel,127,26,5,3,english,female,1,0.1,11.23314836,0.6994793
aysh,107,2,2024-02-24T08:02:43.969Z,english_658.wav,0,peel,127,26,5,3,english,female,2,0.2,8.94946791,1.18458539
aysh,107,2,2024-02-24T08:02:43.969Z,english_658.wav,0,peel,127,26,5,3,english,female,3,0.3,17.22411688,0.7091276
aysh,107,2,2024-02-24T08:02:43.969Z,english_658.wav,0,peel,127,26,5,3,english,female,4,0.32341667,10.67081381,1.7453453
aysh,108,2,2024-02-24T08:02:43.969Z,english_530.wav,0,peel,25,26,5,3,english,female,0,0.0,21.55057906,0.25130805
aysh,108,2,2024-02-24T08:02:43.969Z,english_530.wav,0,peel,25,26,5,3,english,female,1,0.1,-20.17265513,0.96020899
aysh,108,2,2024-02-24T08:02:43.969Z,english_530.wav,0,peel,25,26,5,3,english,female,2,0.2,-52.07974762,1.55252741
aysh,108,2,2024-02-24T08:02:43.969Z,english_530.wav,0,peel,25,26,5,3,english,female,3,0.3,87.36384387,1.19622655
aysh,108,2,2024-02-24T08:02:43.969Z,english_530.wav,0,peel,25,26,5,3,english,female,4,0.32341667,-72.92256984,0.75880724
aysh,109,2,2024-02-24T08:02:43.969Z,english_576.wav,0,pill,2,26,5,3,english,female,0,0.0,70.71636046,1.40655209
aysh,109,2,2024-02-24T08:02:43.969Z,english_576.wav,0,pill,2,26,5,3,english,female,1,0.1,-53.10414049,0.7609351
aysh,109,2,2024-02-24T08:02:43.969Z,english_576.wav,0,pill,2,26,5,3,english,female,2,0.2,34.4374047,1.0155723
aysh,109,2,2024-02-24T08:02:43.969Z,english_576.wav,0,pill,2,26,5,3,english,female,3,0.3,19.64113521,1.45906276
aysh,109,2,2024-02-24T08:02:43.969Z,english_576.wav,0,pill,2,26,5,3,english,female,4,0.32341667,36.63265498,1.49724695
aysh,110,2,2024-02-24T08:02:43.969Z,english_472.wav,0,peel,64,26,5,3,english,female,0,0.0,-33.48324222,1.19367533
aysh,110,2,2024-02-24T08:02:43.969Z,english_472.wav,0,peel,64,26,5,3,english,female,1,0.1,-52.47175565,0.64788551
aysh,110,2,2024-02-24T08:02:43.969Z,english_472.wav,0,peel,64,26,5,3,english,female,2,0.2,-13.12063744,0.92970714
aysh,110,2,2024-02-24T08:02:43.969Z,english_472.wav,0,peel,64,26,5,3,english,female,3,0.3,83.57117959,0.61503547
aysh,110,2,2024-02-24T08:02:43.969Z,english_472.wav,0,peel,64,26,5,3,english,female,4,0.32341667,95.60610647,0.52013695
aysh,111,2,2024-02-24T08:02:43.969Z,english_56.wav,0,peel,291,26,5,3,english,female,0,0.0,47.39262259,1.7837475
aysh,111,2,2024-02-24T08:02:43.969Z,english_56.wav,0,peel,291,26,5,3,english,female,1,0.1,8.89686315,1.39740624
aysh,111,2,2024-02-24T08:02:43.969Z,english_56.wav,0,peel,291,26,5,3,english,female,2,0.2,-49.65570225,0.11209095
aysh,111,2,2024-02-24T08:02:43.969Z,english_56.wav,0,peel,291,26,5,3,english,female,3,0.3,44.77904805,1.4946119
aysh,111,2,2024-02-24T08:02:43.969Z,english_56.wav,0,peel,291,26,5,3,english,female,4,0.32341667,-94.65832844,1.03498606
aysh,112,2,2024-02-24T08:02:43.969Z,english_493.wav,0,peel,1768,26,5,3,english,female,0,0.0,42.62366846,0.72879325
aysh,112,2,2024-02-24T08:02:43.969Z,english_493.wav,0,peel,1768,26,5,3,english,female,1,0.1,-24.95330968,1.87742997
aysh,112,2,2024-02-24T08:02:43.969Z,english_493.wav,0,peel,1768,26,5,3,english,female,2,0.2,82.3526737,1.69463318
aysh,112,2,2024-02-24T08:02:43.969Z,english_493.wav,0,peel,1768,26,5,3,english,female,3,0.3,53.78370402,0.82529142
aysh,112,2,2024-02-24T08:02:43.969Z,english_493.wav,0,peel,1768,26,5,3,english,female,4,0.32341667,-52.5410085,0.10126548
aysh,113,2,2024-02-24T08:02:43.969Z,english_888.wav,0,peel,214,26,5,3,english,female,0,0.0,-75.11317729,0.15619421
aysh,113,2,2024-02-24T08:02:43.969Z,english_888.wav,0,peel,214,26,5,3,english,female,1,0.1,-15.41916561,1.45351631
aysh,113,2,2024-02-24T08:02:43.969Z,english_888.wav,0,peel,214,26,5,3,english,female,2,0.2,30.82770832,1.60154734
aysh,113,2,2024-02-24T08:02:43.969Z,english_888.wav,0,peel,214,26,5,3,english,female,3,0.3,69.72581111,1.09787436
aysh,113,2,2024-02-24T08:02:43.969Z,english_888.wav,0,peel,214,26,5,3,english,female,4,0.32341667,-21.6620698,1.3760261
aysh,114,2,2024-02-24T08:02:43.969Z,english_617.wav,0,peel,43,26,5,3,english,female,0,0.0,-99.94195333,1.17597353
aysh,114,2,2024-02-24T08:02:43.969Z,english_617.wav,0,peel,43,26,5,3,english,female,1,0.1,-27.54289523,0.72595777
aysh,114,2,2024-02-24T08:02:43.969Z,english_617.wav,0,peel,43,26,5,3,english,female,2,0.2,-31.48016085,0.94648609
aysh,114,2,2024-02-24T08:02:43.969Z,english_617.wav,0,peel,43,26,5,3,english,female,3,0.3,-72.28967102,1.67485207
aysh,114,2,2024-02-24T08:02:43.969Z,english_617.wav,0,peel,43,26,5,3,english,female,4,0.32341667,-18.83127656,0.94146903
aysh,115,2,2024-02-24T08:02:43.969Z,english_582.wav,0,peel,125,26,5,3,english,female,0,0.0,-29.81423477,0.27230029
aysh,115,2,2024-02-24T08:02:43.969Z,english_582.wav,0,peel,125,26,5,3,english,female,1,0.1,37.42565533,0.84765039
aysh,115,2,2024-02-24T08:02:43.969Z,english_582.wav,0,peel,125,26,5,3,english,female,2,0.2,79.58894888,1.99526631
aysh,115,2,2024-02-24T08:02:43.969Z,english_582.wav,0,peel,125,26,5,3,english,female,3,0.3,49.55779855,1.55519667
aysh,115,2,2024-02-24T08:02:43.969Z,english_582.wav,0,peel,125,26,5,3,english,female,4,0.32341667,54.00509918,1.66653349
aysh,116,2,2024-02-24T08:02:43.969Z,english_387.wav,0,peel,191,26,5,3,english,female,0,0.0,14.25538659,0.59610882
aysh,116,2,2024-02-24T08:02:43.969Z,english_387.wav,0,peel,191,26,5,3,english,female,1,0.1,-5.8057983,0.93453474
aysh,116,2,2024-02-24T08:02:43.969Z,english_387.wav,0,peel,191,26,5,3,english,female,2,0.2,-2.59288607,1.87880123
aysh,116,2,2024-02-24T08:02:43.969Z,english_387.wav,0,peel,191,26,5,3,english,female,3,0.3,19.33055559,0.79709693
aysh,116,2,2024-02-24T08:02:43.969Z,english_387.wav,0,peel,191,26,5,3,english,female,4,0.32341667,-85.57173801,0.90161027
aysh,117,2,2024-02-24T08:02:43.969Z,english_132.wav,0,peel,533,26,5,3,english,female,0,0.0,-72.51222148,1.10010631
aysh,117,2,2024-02-24T08:02:43.969Z,english_132.wav,0,peel,533,26,5,3,english,female,1,0.1,-7.68798614,1.14985521
aysh,117,2,2024-02-24T08:02:43.969Z,english_132.wav,0,peel,533,26,5,3,english,female,2,0.2,-26.80347179,1.49426164
aysh,117,2,2024-02-24T08:02:43.969Z,english_132.wav,0,peel,533,26,5,3,english,female,3,0.3,-51.62992771,1.25622472
aysh,117,2,2024-02-24T08:02:43.969Z,english_132.wav,0,peel,533,26,5,3,english,female,4,0.32341667,-1.85745595,0.89976888
aysh,118,2,2024-02-24T08:02:43.969Z,english_753.wav,0,pill,1122,26,5,3,english,female,0,0.0,38.61944715,0.75641923
aysh,118,2,2024-02-24T08:02:43.969Z,english_753.wav,0,pill,1122,26,5,3,english,female,1,0.1,-76.3398938,1.17320485
aysh,118,2,2024-02-24T08:02:43.969Z,english_753.wav,0,pill,1122,26,5,3,english,female,2,0.2,-80.92813522,0.63072958
aysh,118,2,2024-02-24T08:02:43.969Z,english_753.wav,0,pill,1122,26,5,3,english,female,3,0.3,-16.48508052,1.96252246
aysh,118,2,2024-02-24T08:02:43.969Z,english_753.wav,0,pill,1122,26,5,3,english,female,4,0.32341667,16.23487259,1.97125296
aysh,119,2,2024-02-24T08:02:43.969Z,english_583.wav,0,peel,274,26,5,3,english,female,0,0.0,-35.26485382,0.11557093
aysh,119,2,2024-02-24T08:02:43.969Z,english_583.wav,0,peel,274,26,5,3,english,female,1,0.1,-69.50197994,0.9917357
aysh,119,2,2024-02-24T08:02:43.969Z,english_583.wav,0,peel,274,26,5,3,english,female,2,0.2,73.6796048,1.33727714
aysh,119,2,2024-02-24T08:02:43.969Z,english_583.wav,0,peel,274,26,5,3,english,female,3,0.3,-1.04664171,0.97646566
aysh,119,2,2024-02-24T08:02:43.969Z,english_583.wav,0,peel,274,26,5,3,english,female,4,0.32341667,-55.46924107,1.06585671
aysh,120,2,2024-02-24T08:02:43.969Z,english_823.wav,0,peel,31,26,5,3,english,female,0,0.0,24.6891334,1.19409205
aysh,120,2,2024-02-24T08:02:43.969Z,english_823.wav,0,peel,31,26,5,3,english,female,1,0.1,86.03794788,0.72053846
aysh,120,2,2024-02-24T08:02:43.969Z,english_823.wav,0,peel,31,26,5,3,english,female,2,0.2,45.97308045,0.2138623
aysh,120,2,2024-02-24T08:02:43.969Z,english_823.wav,0,peel,31,26,5,3,english,female,3,0.3,39.11596791,1.56743943
aysh,120,2,2024-02-24T08:02:43.969Z,english_823.wav,0,peel,31,26,5,3,english,female,4,0.32341667,10.29734006,1.24065623
aysh,121,2,2024-02-24T08:02:43.969Z,english_482.wav,0,pill,1028,26,5,3,english,female,0,0.0,-75.58658814,1.00366747
aysh,121,2,2024-02-24T08:02:43.969Z,english_482.wav,0,pill,1028,26,5,3,english,female,1,0.1,-97.88900999,1.47597923
aysh,121,2,2024-02-24T08:02:43.969Z,english_482.wav,0,pill,1028,26,5,3,english,female,2,0.2,-4.46161317,1.10854794
aysh,121,2,2024-02-24T08:02:43.969Z,english_482.wav,0,pill,1028,26,5,3,english,female,3,0.3,31.34799552,1.07348452
aysh,121,2,2024-02-24T08:02:43.969Z,english_482.wav,0,pill,1028,26,5,3,english,female,4,0.32341667,-51.80510351,0.67390339
aysh,122,2,2024-02-24T08:02:43.969Z,english_208.wav,0,peel,482,26,5,3,english,female,0,0.0,-16.36413188,1.19542909
aysh,122,2,2024-02-24T08:02:43.969Z,english_208.wav,0,peel,482,26,5,3,english,female,1,0.1,25.67725806,0.42717457
aysh,122,2,2024-02-24T08:02:43.969Z,english_208.wav,0,peel,482,26,5,3,english,female,2,0.2,15.43722313,1.01088833
aysh,122,2,2024-02-24T08:02:43.969Z,english_208.wav,0,peel,482,26,5,3,english,female,3,0.3,-39.3158007,1.09044814
aysh,122,2,2024-02-24T08:02:43.969Z,english_208.wav,0,peel,482,26,5,3,english,female,4,0.32341667,38.48956167,1.60091335
aysh,123,2,2024-02-24T08:02:43.969Z,english_983.wav,0,peel,864,26,5,3,english,female,0,0.0,32.38711768,0.79408654
aysh,123,2,2024-02-24T08:02:43.969Z,english_983.wav,0,peel,864,26,5,3,english,female,1,0.1,-65.51600844,1.57845546
aysh,123,2,2024-02-24T08:02:43.969Z,english_983.wav,0,peel,864,26,5,3,english,female,2,0.2,12.03576385,1.23356187
aysh,123,2,2024-02-24T08:02:43.969Z,english_983.wav,0,peel,864,26,5,3,english,female,3,0.3,-64.14785636,0.65581831
aysh,123,2,2024-02-24T08:02:43.969Z,english_983.wav,0,peel,864,26,5,3,english,female,4,0.32341667,-72.48499617,0.27936162
aysh,124,2,2024-02-24T08:02:43.969Z,english_740.wav,0,peel,217,26,5,3,english,female,0,0.0,17.63845752,0.65519257
aysh,124,2,2024-02-24T08:02:43.969Z,english_740.wav,0,peel,217,26,5,3,english,female,1,0.1,36.88289119,0.996231
aysh,124,2,2024-02-24T08:02:43.969Z,english_740.wav,0,peel,217,26,5,3,english,female,2,0.2,-63.85348159,0.85360158
aysh,124,2,2024-02-24T08:02:43.969Z,english_740.wav,0,peel,217,26,5,3,english,female,3,0.3,-97.96670479,1.42654033
aysh,124,2,2024-02-24T08:02:43.969Z,english_740.wav,0,peel,217,26,5,3,english,female,4,0.32341667,43.035587,1.01691569
aysh,125,2,2024-02-24T08:02:43.969Z,english_271.wav,0,peel,167,26,5,3,english,female,0,0.0,24.41564841,0.25667552
aysh,125,2,2024-02-24T08:02:43.969Z,english_271.wav,0,peel,167,26,5,3,english,female,1,0.1,-64.42577909,1.20221217
aysh,125,2,2024-02-24T08:02:43.969Z,english_271.wav,0,peel,167,26,5,3,english,female,2,0.2,32.27025317,0.24658485
aysh,125,2,2024-02-24T08:02:43.969Z,english_271.wav,0,peel,167,26,5,3,english,female,3,0.3,58.71212772,1.57844265
aysh,125,2,2024-02-24T08:02:43.969Z,english_271.wav,0,peel,167,26,5,3,english,female,4,0.32341667,46.7300547,1.00400066
aysh,126,2,2024-02-24T08:02:43.969Z,english_828.wav,0,peel,1438,26,5,3,english,female,0,0.0,51.6479082,0.4417702
aysh,126,2,2024-02-24T08:02:43.969Z,english_828.wav,0,peel,1438,26,5,3,english,female,1,0.1,37.62818293,1.22957458
aysh,126,2,2024-02-24T08:02:43.969Z,english_828.wav,0,peel,1438,26,5,3,english,female,2,0.2,55.79615955,0.69909727
aysh,126,2,2024-02-24T08:02:43.969Z,english_828.wav,0,peel,1438,26,5,3,english,female,3,0.3,31.91979646,1.572544
aysh,126,2,2024-02-24T08:02:43.969Z,english_828.wav,0,peel,1438,26,5,3,english,female,4,0.32341667,-22.21091203,0.87669833
aysh,127,2,2024-02-24T08:02:43.969Z,english_813.wav,0,peel,292,26,5,3,english,female,0,0.0,55.66932548,1.32885027
aysh,127,2,2024-02-24T08:02:43.969Z,english_813.wav,0,peel,292,26,5,3,english,female,1,0.1,81.68960615,1.76450173
aysh,127,2,2024-02-24T08:02:43.969Z,english_813.wav,0,peel,292,26,5,3,english,female,2,0.2,55.75765178,0.71046445
aysh,127,2,2024-02-24T08:02:43.969Z,english_813.wav,0,peel,292,26,5,3,english,female,3,0.3,-1.25572602,1.00431818
aysh,127,2,2024-02-24T08:02:43.969Z,english_813.wav,0,peel,292,26,5,3,english,female,4,0.32341667,95.15429199,0.60962601
aysh,128,2,2024-02-24T08:02:43.969Z,english_46.wav,0,peel,216,26,5,3,english,female,0,0.0,-29.32250151,0.64118776
aysh,128,2,2024-02-24T08:02:43.969Z,english_46.wav,0,peel,216,26,5,3,english,female,1,0.1,-3.06808063,0.73649566
aysh,128,2,2024-02-24T08:02:43.969Z,english_46.wav,0,peel,216,26,5,3,english,female,2,0.2,90.97923358,1.88790792
aysh,128,2,2024-02-24T08:02:43.969Z,english_46.wav,0,peel,216,26,5,3,english,female,3,0.3,10.7462216,0.26788582
aysh,128,2,2024-02-24T08:02:43.969Z,english_46.wav,0,peel,216,26,5,3,english,female,4,0.32341667,-76.74347892,0.543593
aysh,129,2,2024-02-24T08:02:43.969Z,english_541.wav,0,pill,298,26,5,3,english,female,0,0.0,-20.13323906,0.51383156
aysh,129,2,2024-02-24T08:02:43.969Z,english_541.wav,0,pill,298,26,5,3,english,female,1,0.1,2.48768759,0.65082056
aysh,129,2,2024-02-24T08:02:43.969Z,english_541.wav,0,pill,298,26,5,3,english,female,2,0.2,-86.20966861,0.48716137
aysh,129,2,2024-02-24T08:02:43.969Z,english_541.wav,0,pill,298,26,5,3,english,female,3,0.3,59.01445297,0.54905673
aysh,129,2,2024-02-24T08:02:43.969Z,english_541.wav,0,pill,298,26,5,3,english,female,4,0.32341667,61.23853539,1.76268899
aysh,130,2,2024-02-24T08:02:43.969Z,english_653.wav,0,peel,176,26,5,3,english,female,0,0.0,8.14815906,1.27061672
aysh,130,2,2024-02-24T08:02:43.969Z,english_653.wav,0,peel,176,26,5,3,english,female,1,0.1,4.49815435,1.37470465
aysh,130,2,2024-02-24T08:02:43.969Z,english_653.wav,0,peel,176,26,5,3,english,female,2,0.2,-96.80954485,1.57421691
aysh,130,2,2024-02-24T08:02:43.969Z,english_653.wav,0,peel,176,26,5,3,english,female,3,0.3,-0.49075979,1.39011427
aysh,130,2,2024-02-24T08:02:43.969Z,english_653.wav,0,peel,176,26,5,3,english,female,4,0.32341667,98.12577208,0.75484601
aysh,131,2,2024-02-24T08:02:43.969Z,english_109.wav,0,peel,93,26,5,3,english,female,0,0.0,44.56131593,1.07349586
aysh,131,2,2024-02-24T08:02:43.969Z,english_109.wav,0,peel,93,26,5,3,english,female,1,0.1,-35.23159756,1.27535987
aysh,131,2,2024-02-24T08:02:43.969Z,english_109.wav,0,peel,93,26,5,3,english,female,2,0.2,-19.62269282,1.28483541
aysh,131,2,2024-02-24T08:02:43.969Z,english_109.wav,0,peel,93,26,5,3,english,female,3,0.3,38.10372837,1.04109326
aysh,131,2,2024-02-24T08:02:43.969Z,english_109.wav,0,peel,93,26,5,3,english,female,4,0.32341667,-20.09605057,0.10213448
aysh,132,2,2024-02-24T08:02:43.969Z,english_105.wav,0,peel,111,26,5,3,english,female,0,0.0,15.80659439,1.08535851
aysh,132,2,2024-02-24T08:02:43.969Z,english_105.wav,0,peel,111,26,5,3,english,female,1,0.1,42.66899606,0.24895576
aysh,132,2,2024-02-24T08:02:43.969Z,english_105.wav,0,peel,111,26,5,3,english,female,2,0.2,70.76731416,1.16165898
aysh,132,2,2024-02-24T08:02:43.969Z,english_105.wav,0,peel,111,26,5,3,english,female,3,0.3,70.45261783,1.37248151
aysh,132,2,2024-02-24T08:02:43.969Z,english_105.wav,0,peel,111,26,5,3,english,female,4,0.32341667,38.01355443,0.81952348
aysh,133,2,2024-02-24T08:02:43.969Z,english_384.wav,0,pill,441,26,5,3,english,female,0,0.0,-38.96228733,0.34616893
aysh,133,2,2024-02-24T08:02:43.969Z,english_384.wav,0,pill,441,26,5,3,english,female,1,0.1,2.386347,0.04115024
aysh,133,2,2024-02-24T08:02:43.969Z,english_384.wav,0,pill,441,26,5,3,english,female,2,0.2,48.26486793,0.35900131
aysh,133,2,2024-02-24T08:02:43.969Z,english_384.wav,0,pill,441,26,5,3,english,female,3,0.3,-48.11903655,1.58519606
aysh,133,2,2024-02-24T08:02:43.969Z,english_384.wav,0,pill,441,26,5,3,english,female,4,0.32341667,19.29531145,0.95531857
aysh,134,2,2024-02-24T08:02:43.969Z,english_468.wav,0,peel,169,26,5,3,english,female,0,0.0,-33.82586043,0.35164089
aysh,134,2,2024-02-24T08:02:43.969Z,english_468.wav,0,peel,169,26,5,3,english,female,1,0.1,-42.55840131,0.20114733
aysh,134,2,2024-02-24T08:02:43.969Z,english_468.wav,0,peel,169,26,5,3,english,female,2,0.2,-36.6492295,1.40729654
aysh,134,2,2024-02-24T08:02:43.969Z,english_468.wav,0,peel,169,26,5,3,english,female,3,0.3,39.91321296,0.04300573
aysh,134,2,2024-02-24T08:02:43.969Z,english_468.wav,0,peel,169,26,5,3,english,female,4,0.32341667,54.14936319,1.79642733
aysh,135,2,2024-02-24T08:02:43.969Z,english_321.wav,0,peel,182,26,5,3,english,female,0,0.0,2.07721816,1.69623759
aysh,135,2,2024-02-24T08:02:43.969Z,english_321.wav,0,peel,182,26,5,3,english,female,1,0.1,59.48735819,1.35736687
aysh,135,2,2024-02-24T08:02:43.969Z,english_321.wav,0,peel,182,26,5,3,english,female,2,0.2,64.78149714,1.92920457
aysh,135,2,2024-02-24T08:02:43.969Z,english_321.wav,0,peel,182,26,5,3,english,female,3,0.3,65.58393414,0.66559077
aysh,135,2,2024-02-24T08:02:43.969Z,english_321.wav,0,peel,182,26,5,3,english,female,4,0.32341667,14.66673939,1.66523208
aysh,136,2,2024-02-24T08:02:43.969Z,english_896.wav,0,peel,200,26,5,3,english,female,0,0.0,-76.63716622,1.08893336
aysh,136,2,2024-02-24T08:02:43.969Z,english_896.wav,0,peel,200,26,5,3,english,female,1,0.1,-73.11298951,0.41748987
aysh,136,2,2024-02-24T08:02:43.969Z,english_896.wav,0,peel,200,26,5,3,english,female,2,0.2,48.53347054,0.32012442
aysh,136,2,2024-02-24T08:02:43.969Z,english_896.wav,0,peel,200,26,5,3,english,female,3,0.3,-4.46661278,0.63387312
aysh,136,2,2024-02-24T08:02:43.969Z,english_896.wav,0,peel,200,26,5,3,english,female,4,0.32341667,-44.69533701,1.27766005
aysh,137,2,2024-02-24T08:02:43.969Z,english_347.wav,0,peel,2080,26,5,3,english,female,0,0.0,34.89178431,1.32203506
aysh,137,2,2024-02-24T08:02:43.969Z,english_347.wav,0,peel,2080,26,5,3,english,female,1,0.1,53.24978685,0.28714436
aysh,137,2,2024-02-24T08:02:43.969Z,english_347.wav,0,peel,2080,26,5,3,english,female,2,0.2,4.11185022,1.66093526
aysh,137,2,2024-02-24T08:02:43.969Z,english_347.wav,0,peel,2080,26,5,3,english,female,3,0.3,89.26663646,1.29826057
aysh,137,2,2024-02-24T08:02:43.969Z,english_347.wav,0,peel,2080,26,5,3,english,female,4,0.32341667,-53.02646266,0.05504814
aysh,138,2,2024-02-24T08:02:43.969Z,english_948.wav,0,pill,1582,26,5,3,english,female,0,0.0,12.28616187,1.33435242
aysh,138,2,2024-02-24T08:02:43.969Z,english_948.wav,0,pill,1582,26,5,3,english,female,1,0.1,33.44634687,1.33862855
aysh,138,2,2024-02-24T08:02:43.969Z,english_948.wav,0,pill,1582,26,5,3,english,female,2,0.2,98.80566767,1.25876505
aysh,138,2,2024-02-24T08:02:43.969Z,english_948.wav,0,pill,1582,26,5,3,english,female,3,0.3,-93.57044844,1.87938727
aysh,138,2,2024-02-24T08:02:43.969Z,english_948.wav,0,pill,1582,26,5,3,english,female,4,0.32341667,-51.09398555,1.88731406
aysh,139,2,2024-02-24T08:02:43.969Z,english_681.wav,0,peel,482,26,5,3,english,female,0,0.0,65.45313908,1.43173201
aysh,139,2,2024-02-24T08:02:43.969Z,english_681.wav,0,peel,482,26,5,3,english,female,1,0.1,23.22224239,1.64604346
aysh,139,2,2024-02-24T08:02:43.969Z,english_681.wav,0,peel,482,26,5,3,english,female,2,0.2,44.35096717,0.82186037
aysh,139,2,2024-02-24T08:02:43.969Z,english_681.wav,0,peel,482,26,5,3,english,female,3,0.3,67.45757963,0.26689352
aysh,139,2,2024-02-24T08:02:43.969Z,english_681.wav,0,peel,482,26,5,3,english,female,4,0.32341667,55.5822091,1.64490636
aysh,140,2,2024-02-24T08:02:43.969Z,english_608.wav,0,peel,2,26,5,3,english,female,0,0.0,78.8022196,1.54390555
aysh,140,2,2024-02-24T08:02:43.969Z,english_608.wav,0,peel,2,26,5,3,english,female,1,0.1,59.03316834,1.36513164
aysh,140,2,2024-02-24T08:02:43.969Z,english_608.wav,0,peel,2,26,5,3,english,female,2,0.2,-13.94961152,0.78716897
aysh,140,2,2024-02-24T08:02:43.969Z,english_608.wav,0,peel,2,26,5,3,english,female,3,0.3,55.83681575,1.29889886
aysh,140,2,2024-02-24T08:02:43.969Z,english_608.wav,0,peel,2,26,5,3,english,female,4,0.32341667,-13.77656228,0.44376749
aysh,141,2,2024-02-24T08:02:43.969Z,english_440.wav,0,peel,57,26,5,3,english,female,0,0.0,44.70308901,1.51497438
aysh,141,2,2024-02-24T08:02:43.969Z,english_440.wav,0,peel,57,26,5,3,english,female,1,0.1,-88.0257567,1.05972447
aysh,141,2,2024-02-24T08:02:43.969Z,english_440.wav,0,peel,57,26,5,3,english,female,2,0.2,1.19893433,0.590820378
aysh,141,2,2024-02-24T08:02:43.969Z,english_440.wav,0,peel,57,26,5,3,english,female,3,0.3,19.45485395,0.680586803
aysh,141,2,2024-02-24T08:02:43.969Z,english_440.wav,0,peel,57,26,5,3,english,female,4,0.32341667,13.00088222,0.000618341324
aysh,142,2,2024-02-24T08:02:43.969Z,english_526.wav,0,peel,241,26,5,3,english,female,0,0.0,-32.34532461,0.924261
aysh,142,2,2024-02-24T08:02:43.969Z,english_526.wav,0,peel,241,26,5,3,english,female,1,0.1,-46.6208459,0.25414499
aysh,142,2,2024-02-24T08:02:43.969Z,english_526.wav,0,peel,241,26,5,3,english,female,2,0.2,-42.84927068,1.01925886
aysh,142,2,2024-02-24T08:02:43.969Z,english_526.wav,0,peel,241,26,5,3,english,female,3,0.3,3.47643827,0.65966822
aysh,142,2,2024-02-24T08:02:43.969Z,english_526.wav,0,peel,241,26,5,3,english,female,4,0.32341667,52.79087598,1.50872035
aysh,143,2,2024-02-24T08:02:43.969Z,english_508.wav,0,peel,59,26,5,3,english,female,0,0.0,-21.23116318,1.79614382
aysh,143,2,2024-02-24T08:02:43.969Z,english_508.wav,0,peel,59,26,5,3,english,female,1,0.1,-27.56583205,0.60449395
aysh,143,2,2024-02-24T08:02:43.969Z,english_508.wav,0,peel,59,26,5,3,english,female,2,0.2,64.21774851,0.56582153
aysh,143,2,2024-02-24T08:02:43.969Z,english_508.wav,0,peel,59,26,5,3,english,female,3,0.3,-9.24056951,1.01665474
aysh,143,2,2024-02-24T08:02:43.969Z,english_508.wav,0,peel,59,26,5,3,english,female,4,0.32341667,-9.74670904,0.78905044
aysh,144,2,2024-02-24T08:02:43.969Z,english_964.wav,0,pill,227,26,5,3,english,female,0,0.0,11.04708611,0.74384055
aysh,144,2,2024-02-24T08:02:43.969Z,english_964.wav,0,pill,227,26,5,3,english,female,1,0.1,-10.67848967,0.46038505
aysh,144,2,2024-02-24T08:02:43.969Z,english_964.wav,0,pill,227,26,5,3,english,female,2,0.2,64.95328634,0.80934661
aysh,144,2,2024-02-24T08:02:43.969Z,english_964.wav,0,pill,227,26,5,3,english,female,3,0.3,-78.10341524,1.94282647
aysh,144,2,2024-02-24T08:02:43.969Z,english_964.wav,0,pill,227,26,5,3,english,female,4,0.32341667,-48.61651995,1.99482071
aysh,145,2,2024-02-24T08:02:43.969Z,english_984.wav,0,peel,196,26,5,3,english,female,0,0.0,-4.00148485,1.68596177
aysh,145,2,2024-02-24T08:02:43.969Z,english_984.wav,0,peel,196,26,5,3,english,female,1,0.1,26.28173365,0.06678014
aysh,145,2,2024-02-24T08:02:43.969Z,english_984.wav,0,peel,196,26,5,3,english,female,2,0.2,80.79042683,0.65490985
aysh,145,2,2024-02-24T08:02:43.969Z,english_984.wav,0,peel,196,26,5,3,english,female,3,0.3,94.69131331,0.57269921
aysh,145,2,2024-02-24T08:02:43.969Z,english_984.wav,0,peel,196,26,5,3,english,female,4,0.32341667,75.17511154,0.71264295
aysh,146,2,2024-02-24T08:02:43.969Z,english_185.wav,0,peel,179,26,5,3,english,female,0,0.0,-67.20213277,0.62417316
aysh,146,2,2024-02-24T08:02:43.969Z,english_185.wav,0,peel,179,26,5,3,english,female,1,0.1,-70.91279736,1.12829576
aysh,146,2,2024-02-24T08:02:43.969Z,english_185.wav,0,peel,179,26,5,3,english,female,2,0.2,11.55913655,0.70978518
aysh,146,2,2024-02-24T08:02:43.969Z,english_185.wav,0,peel,179,26,5,3,english,female,3,0.3,-88.76292025,0.02882377
aysh,146,2,2024-02-24T08:02:43.969Z,english_185.wav,0,peel,179,26,5,3,english,female,4,0.32341667,-25.67800099,0.52970381
aysh,147,2,2024-02-24T08:02:43.969Z,english_867.wav,0,peel,21,26,5,3,english,female,0,0.0,9.0283109,0.25019481
aysh,147,2,2024-02-24T08:02:43.969Z,english_867.wav,0,peel,21,26,5,3,english,female,1,0.1,6.96107974,0.62311927
aysh,147,2,2024-02-24T08:02:43.969Z,english_867.wav,0,peel,21,26,5,3,english,female,2,0.2,14.88339172,1.78918939
aysh,147,2,2024-02-24T08:02:43.969Z,english_867.wav,0,peel,21,26,5,3,english,female,3,0.3,-2.73093064,1.34945049
aysh,147,2,2024-02-24T08:02:43.969Z,english_867.wav,0,peel,21,26,5,3,english,female,4,0.32341667,-85.27526638,0.75720604
aysh,148,2,2024-02-24T08:02:43.969Z,english_361.wav,0,peel,143,26,5,3,english,female,0,0.0,47.37783877,1.2281625
aysh,148,2,2024-02-24T08:02:43.969Z,english_361.wav,0,peel,143,26,5,3,english,female,1,0.1,41.96620543,0.32170701
aysh,148,2,2024-02-24T08:02:43.969Z,english_361.wav,0,peel,143,26,5,3,english,female,2,0.2,-99.83447432,0.41267147
aysh,148,2,2024-02-24T08:02:43.969Z,english_361.wav,0,peel,143,26,5,3,english,female,3,0.3,-83.75612903,0.32528287
aysh,148,2,2024-02-24T08:02:43.969Z,english_361.wav,0,peel,143,26,5,3,english,female,4,0.32341667,99.31228573,0.29737668
aysh,149,2,2024-02-24T08:02:43.969Z,english_789.wav,0,pill,1238,26,5,3,english,female,0,0.0,70.69388181,1.62690516
aysh,149,2,2024-02-24T08:02:43.969Z,english_789.wav,0,pill,1238,26,5,3,english,female,1,0.1,-91.45782136,1.02092359
aysh,149,2,2024-02-24T08:02:43.969Z,english_789.wav,0,pill,1238,26,5,3,english,female,2,0.2,-94.67801392,0.93437639
aysh,149,2,2024-02-24T08:02:43.969Z,english_789.wav,0,pill,1238,26,5,3,english,female,3,0.3,83.76501612,1.8239896
aysh,149,2,2024-02-24T08:02:43.969Z,english_789.wav,0,pill,1238,26,5,3,english,female,4,0.32341667,-4.60584958,1.29596798
aysh,150,3,2024-02-24T08:02:43.969Z,english_540.wav,0,peel,330,26,5,3,english,female,0,0.0,-46.6752609,1.16352469
aysh,150,3,2024-02-24T08:02:43.969Z,english_540.wav,0,peel,330,26,5,3,english,female,1,0.1,-93.20209644,0.0234781
aysh,150,3,2024-02-24T08:02:43.969Z,english_540.wav,0,peel,330,26,5,3,english,female,2,0.2,64.96419662,0.05926191
aysh,150,3,2024-02-24T08:02:43.969Z,english_540.wav,0,peel,330,26,5,3,english,female,3,0.3,-12.16484387,1.47406284
aysh,150,3,2024-02-24T08:02:43.969Z,english_540.wav,0,peel,330,26,5,3,english,female,4,0.32341667,-44.34688232,0.60104864
aysh,151,3,2024-02-24T08:02:43.969Z,english_355.wav,0,peel,1337,26,5,3,english,female,0,0.0,33.6784286,1.28512049
aysh,151,3,2024-02-24T08:02:43.969Z,english_355.wav,0,peel,1337,26,5,3,english,female,1,0.1,30.74796889,1.04729355
aysh,151,3,2024-02-24T08:02:43.969Z,english_355.wav,0,peel,1337,26,5,3,english,female,2,0.2,71.39310534,0.74339822
aysh,151,3,2024-02-24T08:02:43.969Z,english_355.wav,0,peel,1337,26,5,3,english,female,3,0.3,38.16266559,0.86152361
aysh,151,3,2024-02-24T08:02:43.969Z,english_355.wav,0,peel,1337,26,5,3,english,female,4,0.32341667,-39.8799084,1.83215587
aysh,152,3,2024-02-24T08:02:43.969Z,english_959.wav,0,pill,1046,26,5,3,english,female,0,0.0,-78.42285057,1.71892855
aysh,152,3,2024-02-24T08:02:43.969Z,english_959.wav,0,pill,1046,26,5,3,english,female,1,0.1,6.44734251,1.96402951
aysh,152,3,2024-02-24T08:02:43.969Z,english_959.wav,0,pill,1046,26,5,3,english,female,2,0.2,20.74966326,0.26247596
aysh,152,3,2024-02-24T08:02:43.969Z,english_959.wav,0,pill,1046,26,5,3,english,female,3,0.3,-29.69680039,1.29464598
aysh,152,3,2024-02-24T08:02:43.969Z,english_959.wav,0,pill,1046,26,5,3,english,female,4,0.32341667,34.2282551,1.77868038
aysh,153,3,2024-02-24T08:02:43.969Z,english_947.wav,0,peel,264,26,5,3,english,female,0,0.0,73.13113362,0.1925557
aysh,153,3,2024-02-24T08:02:43.969Z,english_947.wav,0,peel,264,26,5,3,english,female,1,0.1,-55.13077299,1.89478059
aysh,153,3,2024-02-24T08:02:43.969Z,english_947.wav,0,peel,264,26,5,3,english,female,2,0.2,59.32217849,0.99662771
aysh,153,3,2024-02-24T08:02:43.969Z,english_947.wav,0,peel,264,26,5,3,english,female,3,0.3,-71.25946194,0.61263341
aysh,153,3,2024-02-24T08:02:43.969Z,english_947.wav,0,peel,264,26,5,3,english,female,4,0.32341667,39.2274254,0.46373334
aysh,154,3,2024-02-24T08:02:43.969Z,english_439.wav,0,peel,56,26,5,3,english,female,0,0.0,-34.98153375,0.51703437
aysh,154,3,2024-02-24T08:02:43.969Z,english_439.wav,0,peel,56,26,5,3,english,female,1,0.1,58.81829455,0.92552513
aysh,154,3,2024-02-24T08:02:43.969Z,english_439.wav,0,peel,56,26,5,3,english,female,2,0.2,-39.64168408,1.94754337
aysh,154,3,2024-02-24T08:02:43.969Z,english_439.wav,0,peel,56,26,5,3,english,female,3,0.3,-65.89684329,0.19153473
aysh,154,3,2024-02-24T08:02:43.969Z,english_439.wav,0,peel,56,26,5,3,english,female,4,0.32341667,-18.09409032,1.29438445
aysh,155,3,2024-02-24T08:02:43.969Z,english_328.wav,0,peel,213,26,5,3,english,female,0,0.0,-24.96515822,0.68772771
aysh,155,3,2024-02-24T08:02:43.969Z,english_328.wav,0,peel,213,26,5,3,english,female,1,0.1,36.64267249,0.30369637
aysh,155,3,2024-02-24T08:02:43.969Z,english_328.wav,0,peel,213,26,5,3,english,female,2,0.2,-93.60804347,1.16330199
aysh,155,3,2024-02-24T08:02:43.969Z,english_328.wav,0,peel,213,26,5,3,english,female,3,0.3,9.86556644,0.69001341
aysh,155,3,2024-02-24T08:02:43.969Z,english_328.wav,0,peel,213,26,5,3,english,female,4,0.32341667,-17.13685423,0.54642887
aysh,156,3,2024-02-24T08:02:43.969Z,english_756.wav,0,peel,23,26,5,3,english,female,0,0.0,-75.60908863,1.29894989
aysh,156,3,2024-02-24T08:02:43.969Z,english_756.wav,0,peel,23,26,5,3,english,female,1,0.1,-4.30259752,0.61363685
aysh,156,3,2024-02-24T08:02:43.969Z,english_756.wav,0,peel,23,26,5,3,english,female,2,0.2,20.94377522,1.41793961
aysh,156,3,2024-02-24T08:02:43.969Z,english_756.wav,0,peel,23,26,5,3,english,female,3,0.3,10.45062111,1.73528762
aysh,156,3,2024-02-24T08:02:43.969Z,english_756.wav,0,peel,23,26,5,3,english,female,4,0.32341667,86.50209298,0.4791473
aysh,157,3,2024-02-24T08:02:43.969Z,english_972.wav,0,peel,12,26,5,3,english,female,0,0.0,-87.82800068,1.28286493
aysh,157,3,2024-02-24T08:02:43.969Z,english_972.wav,0,peel,12,26,5,3,english,female,1,0.1,-25.45661385,0.89058027
aysh,157,3,2024-02-24T08:02:43.969Z,english_972.wav,0,peel,12,26,5,3,english,female,2,0.2,2.95853851,1.4716374
aysh,157,3,2024-02-24T08:02:43.969Z,english_972.wav,0,peel,12,26,5,3,english,female,3,0.3,84.61583696,0.6386035
aysh,157,3,2024-02-24T08:02:43.969Z,english_972.wav,0,peel,12,26,5,3,english,female,4,0.32341667,42.95706616,1.51056083
aysh,158,3,2024-02-24T08:02:43.969Z,english_94.wav,0,peel,1093,26,5,3,english,female,0,0.0,-78.50776969,1.58967719
aysh,158,3,2024-02-24T08:02:43.969Z,english_94.wav,0,peel,1093,26,5,3,english,female,1,0.1,21.81048112,0.88841047
aysh,158,3,2024-02-24T08:02:43.969Z,english_94.wav,0,peel,1093,26,5,3,english,female,2,0.2,76.78230264,1.12549424
aysh,158,3,2024-02-24T08:02:43.969Z,english_94.wav,0,peel,1093,26,5,3,english,female,3,0.3,-35.62145712,1.80621507
aysh,158,3,2024-02-24T08:02:43.969Z,english_94.wav,0,peel,1093,26,5,3,english,female,4,0.32341667,-71.39427505,1.00879957
aysh,159,3,2024-02-24T08:02:43.969Z,english_174.wav,0,pill,968,26,5,3,english,female,0,0.0,-14.93169449,0.27768215
aysh,159,3,2024-02-24T08:02:43.969Z,english_174.wav,0,pill,968,26,5,3,english,female,1,0.1,-60.50222611,0.13809097
aysh,159,3,2024-02-24T08:02:43.969Z,english_174.wav,0,pill,968,26,5,3,english,female,2,0.2,-88.67347191,0.18584848
aysh,159,3,2024-02-24T08:02:43.969Z,english_174.wav,0,pill,968,26,5,3,english,female,3,0.3,-20.58504224,1.46718454
aysh,159,3,2024-02-24T08:02:43.969Z,english_174.wav,0,pill,968,26,5,3,english,female,4,0.32341667,-52.28073567,0.17567705
aysh,160,3,2024-02-24T08:02:43.969Z,english_69.wav,0,pill,325,26,5,3,english,female,0,0.0,-57.18730239,0.11878381
aysh,160,3,2024-02-24T08:02:43.969Z,english_69.wav,0,pill,325,26,5,3,english,female,1,0.1,16.22212469,1.00797921
aysh,160,3,2024-02-24T08:02:43.969Z,english_69.wav,0,pill,325,26,5,3,english,female,2,0.2,-44.28071093,0.42082068
aysh,160,3,2024-02-24T08:02:43.969Z,english_69.wav,0,pill,325,26,5,3,english,female,3,0.3,-70.80378082,0.50205716
aysh,160,3,2024-02-24T08:02:43.969Z,english_69.wav,0,pill,325,26,5,3,english,female,4,0.32341667,-58.3439892,0.68985838
aysh,161,3,2024-02-24T08:02:43.969Z,english_64.wav,0,pill,600,26,5,3,english,female,0,0.0,-77.75081389,0.01503168
aysh,161,3,2024-02-24T08:02:43.969Z,english_64.wav,0,pill,600,26,5,3,english,female,1,0.1,47.79712302,0.51971923
aysh,161,3,2024-02-24T08:02:43.969Z,english_64.wav,0,pill,600,26,5,3,english,female,2,0.2,-98.04646937,1.01128345
aysh,161,3,2024-02-24T08:02:43.969Z,english_64.wav,0,pill,600,26,5,3,english,female,3,0.3,-20.17707595,0.69563875
aysh,161,3,2024-02-24T08:02:43.969Z,english_64.wav,0,pill,600,26,5,3,english,female,4,0.32341667,53.05828969,1.51814807
aysh,162,3,2024-02-24T08:02:43.969Z,english_586.wav,0,pill,420,26,5,3,english,female,0,0.0,-62.23642036,1.06144709
aysh,162,3,2024-02-24T08:02:43.969Z,english_586.wav,0,pill,420,26,5,3,english,female,1,0.1,79.13201234,0.54207142
aysh,162,3,2024-02-24T08:02:43.969Z,english_586.wav,0,pill,420,26,5,3,english,female,2,0.2,-89.54923437,0.72134233
aysh,162,3,2024-02-24T08:02:43.969Z,english_586.wav,0,pill,420,26,5,3,english,female,3,0.3,-19.27573078,0.33417878
aysh,162,3,2024-02-24T08:02:43.969Z,english_586.wav,0,pill,420,26,5,3,english,female,4,0.32341667,-62.71214645,1.54129631
aysh,163,3,2024-02-24T08:02:43.969Z,english_403.wav,0,peel,114,26,5,3,english,female,0,0.0,-92.65414009,1.93574734
aysh,163,3,2024-02-24T08:02:43.969Z,english_403.wav,0,peel,114,26,5,3,english,female,1,0.1,75.99659731,0.36447309
aysh,163,3,2024-02-24T08:02:43.969Z,english_403.wav,0,peel,114,26,5,3,english,female,2,0.2,-27.37801557,1.02888701
aysh,163,3,2024-02-24T08:02:43.969Z,english_403.wav,0,peel,114,26,5,3,english,female,3,0.3,-80.04540334,0.02385722
aysh,163,3,2024-02-24T08:02:43.969Z,english_403.wav,0,peel,114,26,5,3,english,female,4,0.32341667,30.50648557,1.40553938
aysh,164,3,2024-02-24T08:02:43.969Z,english_430.wav,0,pill,559,26,5,3,english,female,0,0.0,72.23510535,0.8682214
aysh,164,3,2024-02-24T08:02:43.969Z,english_430.wav,0,pill,559,26,5,3,english,female,1,0.1,-9.56156918,0.26781202
aysh,164,3,2024-02-24T08:02:43.969Z,english_430.wav,0,pill,559,26,5,3,english,female,2,0.2,36.71559936,1.38873793
aysh,164,3,2024-02-24T08:02:43.969Z,english_430.wav,0,pill,559,26,5,3,english,female,3,0.3,-33.55254317,0.29076709
aysh,164,3,2024-02-24T08:02:43.969Z,english_430.wav,0,pill,559,26,5,3,english,female,4,0.32341667,-25.71861109,0.30869259
aysh,165,3,2024-02-24T08:02:43.969Z,english_87.wav,0,pill,1372,26,5,3,english,female,0,0.0,54.83056612,1.56132998
aysh,165,3,2024-02-24T08:02:43.969Z,english_87.wav,0,pill,1372,26,5,3,english,female,1,0.1,56.31531505,1.28614089
aysh,165,3,2024-02-24T08:02:43.969Z,english_87.wav,0,pill,1372,26,5,3,english,female,2,0.2,-65.55002777,1.44579989
aysh,165,3,2024-02-24T08:02:43.969Z,english_87.wav,0,pill,1372,26,5,3,english,female,3,0.3,-25.15788212,0.3607766
aysh,165,3,2024-02-24T08:02:43.969Z,english_87.wav,0,pill,1372,26,5,3,english,female,4,0.32341667,22.72349562,0.17745198
aysh,166,3,2024-02-24T08:02:43.969Z,english_342.wav,0,pill,1178,26,5,3,english,female,0,0.0,78.00911228,0.99673345
aysh,166,3,2024-02-24T08:02:43.969Z,english_342.wav,0,pill,1178,26,5,3,english,female,1,0.1,-28.67768894,1.80563483
aysh,166,3,2024-02-24T08:02:43.969Z,english_342.wav,0,pill,1178,26,5,3,english,female,2,0.2,73.55618202,1.38552336
aysh,166,3,2024-02-24T08:02:43.969Z,english_342.wav,0,pill,1178,26,5,3,english,female,3,0.3,93.0509223,0.17145116
aysh,166,3,2024-02-24T08:02:43.969Z,english_342.wav,0,pill,1178,26,5,3,english,female,4,0.32341667,-2.74816459,0.15059009
aysh,167,3,2024-02-24T08:02:43.969Z,english_714.wav,0,pill,1103,26,5,3,english,female,0,0.0,6.62463448,0.98205871
aysh,167,3,2024-02-24T08:02:43.969Z,english_714.wav,0,pill,1103,26,5,3,english,female,1,0.1,-7.37775178,1.90018259
aysh,167,3,2024-02-24T08:02:43.969Z,english_714.wav,0,pill,1103,26,5,3,english,female,2,0.2,-58.74003357,1.33033281
aysh,167,3,2024-02-24T08:02:43.969Z,english_714.wav,0,pill,1103,26,5,3,english,female,3,0.3,-38.84014254,0.20009115
aysh,167,3,2024-02-24T08:02:43.969Z,english_714.wav,0,pill,1103,26,5,3,english,female,4,0.32341667,-23.67047323,0.44650169
aysh,168,3,2024-02-24T08:02:43.969Z,english_907.wav,0,pill,1843,26,5,3,english,female,0,0.0,13.97638225,0.68575839
aysh,168,3,2024-02-24T08:02:43.969Z,english_907.wav,0,pill,1843,26,5,3,english,female,1,0.1,36.81481791,1.58611259
aysh,168,3,2024-02-24T08:02:43.969Z,english_907.wav,0,pill,1843,26,5,3,english,female,2,0.2,1.21651202,1.59547025
aysh,168,3,2024-02-24T08:02:43.969Z,english_907.wav,0,pill,1843,26,5,3,english,female,3,0.3,35.47405672,0.75888392
aysh,168,3,2024-02-24T08:02:43.969Z,english_907.wav,0,pill,1843,26,5,3,english,female,4,0.32341667,-27.93760057,0.06937964
aysh,169,3,2024-02-24T08:02:43.969Z,english_632.wav,0,pill,1179,26,5,3,english,female,0,0.0,-56.22391322,1.21249895
aysh,169,3,2024-02-24T08:02:43.969Z,english_632.wav,0,pill,1179,26,5,3,english,female,1,0.1,-47.59423942,0.39515719
aysh,169,3,2024-02-24T08:02:43.969Z,english_632.wav,0,pill,1179,26,5,3,english,female,2,0.2,91.93727259,1.8528852
aysh,169,3,2024-02-24T08:02:43.969Z,english_632.wav,0,pill,1179,26,5,3,english,female,3,0.3,-33.89646621,1.67254104
aysh,169,3,2024-02-24T08:02:43.969Z,english_632.wav,0,pill,1179,26,5,3,english,female,4,0.32341667,46.88387871,1.21014685
aysh,170,3,2024-02-24T08:02:43.969Z,english_392.wav,0,peel,219,26,5,3,english,female,0,0.0,-12.90562814,1.13144201
aysh,170,3,2024-02-24T08:02:43.969Z,english_392.wav,0,peel,219,26,5,3,english,female,1,0.1,-1.29416779,0.98893381
aysh,170,3,2024-02-24T08:02:43.969Z,english_392.wav,0,peel,219,26,5,3,english,female,2,0.2,-53.34155903,0.07204825
aysh,170,3,2024-02-24T08:02:43.969Z,english_392.wav,0,peel,219,26,5,3,english,female,3,0.3,-48.65153398,1.52779633
aysh,170,3,2024-02-24T08:02:43.969Z,english_392.wav,0,peel,219,26,5,3,english,female,4,0.32341667,-43.47653164,1.32355089
aysh,171,3,2024-02-24T08:02:43.969Z,english_602.wav,0,peel,433,26,5,3,english,female,0,0.0,-53.18857274,1.95117352
aysh,171,3,2024-02-24T08:02:43.969Z,english_602.wav,0,peel,433,26,5,3,english,female,1,0.1,-52.96167371,1.1427253
aysh,171,3,2024-02-24T08:02:43.969Z,english_602.wav,0,peel,433,26,5,3,english,female,2,0.2,38.20784676,1.10694813
aysh,171,3,2024-02-24T08:02:43.969Z,english_602.wav,0,peel,433,26,5,3,english,female,3,0.3,46.0178344,0.8717932
aysh,171,3,2024-02-24T08:02:43.969Z,english_602.wav,0,peel,433,26,5,3,english,female,4,0.32341667,78.11630752,0.71626065
aysh,172,3,2024-02-24T08:02:43.969Z,english_293.wav,0,peel,103,26,5,3,english,female,0,0.0,-22.15906653,1.76366583
aysh,172,3,2024-02-24T08:02:43.969Z,english_293.wav,0,peel,103,26,5,3,english,female,1,0.1,-88.62057809,0.55660069
aysh,172,3,2024-02-24T08:02:43.969Z,english_293.wav,0,peel,103,26,5,3,english,female,2,0.2,-18.47979893,1.17282558
aysh,172,3,2024-02-24T08:02:43.969Z,english_293.wav,0,peel,103,26,5,3,english,female,3,0.3,-74.2852497,0.49477424
aysh,172,3,2024-02-24T08:02:43.969Z,english_293.wav,0,peel,103,26,5,3,english,female,4,0.32341667,59.45323022,0.66659794
aysh,173,3,2024-02-24T08:02:43.969Z,english_315.wav,0,pill,1804,26,5,3,english,female,0,0.0,3.76150079,1.04293113
aysh,173,3,2024-02-24T08:02:43.969Z,english_315.wav,0,pill,1804,26,5,3,english,female,1,0.1,4.93204799,0.55537984
aysh,173,3,2024-02-24T08:02:43.969Z,english_315.wav,0,pill,1804,26,5,3,english,female,2,0.2,-81.53480532,1.13024782
aysh,173,3,2024-02-24T08:02:43.969Z,english_315.wav,0,pill,1804,26,5,3,english,female,3,0.3,45.94577355,1.06792043
aysh,173,3,2024-02-24T08:02:43.969Z,english_315.wav,0,pill,1804,26,5,3,english,female,4,0.32341667,-55.96194099,1.80369969
