subj,trial,block,date,stim,stim_order,response,rt,age,english,french,language,sex,param_index,segment,pitch,stretch
5cee69353057030001b33fc4,0,0,2024-02-27T09:59:21.008Z,english_286.wav,0,pill,3996,29,5,4,English,m,0,0.0,-94.9495111,0.49849168
5cee69353057030001b33fc4,0,0,2024-02-27T09:59:21.008Z,english_286.wav,0,pill,3996,29,5,4,English,m,1,0.1,-25.05656786,1.27672914
5cee69353057030001b33fc4,0,0,2024-02-27T09:59:21.008Z,english_286.wav,0,pill,3996,29,5,4,English,m,2,0.2,59.61150177,0.14515846
5cee69353057030001b33fc4,0,0,2024-02-27T09:59:21.008Z,english_286.wav,0,pill,3996,29,5,4,English,m,3,0.3,-32.97544875,1.67164973
5cee69353057030001b33fc4,0,0,2024-02-27T09:59:21.008Z,english_286.wav,0,pill,3996,29,5,4,English,m,4,0.32341667,7.58095242,0.86492177
5cee69353057030001b33fc4,1,0,2024-02-27T09:59:21.008Z,english_640.wav,0,peel,2464,29,5,4,English,m,0,0.0,74.95875769,1.81273707
5cee69353057030001b33fc4,1,0,2024-02-27T09:59:21.008Z,english_640.wav,0,peel,2464,29,5,4,English,m,1,0.1,87.73764633,1.50076703
5cee69353057030001b33fc4,1,0,2024-02-27T09:59:21.008Z,english_640.wav,0,peel,2464,29,5,4,English,m,2,0.2,-71.36544648,0.25286143
5cee69353057030001b33fc4,1,0,2024-02-27T09:59:21.008Z,english_640.wav,0,peel,2464,29,5,4,English,m,3,0.3,11.07583082,0.53181051
5cee69353057030001b33fc4,1,0,2024-02-27T09:59:21.008Z,english_640.wav,0,peel,2464,29,5,4,English,m,4,0.32341667,18.32643638,0.76351343
5cee69353057030001b33fc4,2,0,2024-02-27T09:59:21.008Z,english_281.wav,0,peel,1428,29,5,4,English,m,0,0.0,-55.42099824,1.64310908
5cee69353057030001b33fc4,2,0,2024-02-27T09:59:21.008Z,english_281.wav,0,peel,1428,29,5,4,English,m,1,0.1,30.44020676,0.76997124
5cee69353057030001b33fc4,2,0,2024-02-27T09:59:21.008Z,english_281.wav,0,peel,1428,29,5,4,English,m,2,0.2,53.34739709,0.1940809
5cee69353057030001b33fc4,2,0,2024-02-27T09:59:21.008Z,english_281.wav,0,peel,1428,29,5,4,English,m,3,0.3,-32.26512488,0.25794937
5cee69353057030001b33fc4,2,0,2024-02-27T09:59:21.008Z,english_281.wav,0,peel,1428,29,5,4,English,m,4,0.32341667,-59.86883114,1.27043487
5cee69353057030001b33fc4,3,0,2024-02-27T09:59:21.008Z,english_590.wav,0,peel,820,29,5,4,English,m,0,0.0,-36.198224,1.58650853
5cee69353057030001b33fc4,3,0,2024-02-27T09:59:21.008Z,english_590.wav,0,peel,820,29,5,4,English,m,1,0.1,-81.6019347,0.24081988
5cee69353057030001b33fc4,3,0,2024-02-27T09:59:21.008Z,english_590.wav,0,peel,820,29,5,4,English,m,2,0.2,23.00860846,0.40073912
5cee69353057030001b33fc4,3,0,2024-02-27T09:59:21.008Z,english_590.wav,0,peel,820,29,5,4,English,m,3,0.3,-40.72667736,0.83686248
5cee69353057030001b33fc4,3,0,2024-02-27T09:59:21.008Z,english_590.wav,0,peel,820,29,5,4,English,m,4,0.32341667,31.06175796,1.43958247
5cee69353057030001b33fc4,4,0,2024-02-27T09:59:21.008Z,english_615.wav,0,peel,1083,29,5,4,English,m,0,0.0,76.05955912,1.68553334
5cee69353057030001b33fc4,4,0,2024-02-27T09:59:21.008Z,english_615.wav,0,peel,1083,29,5,4,English,m,1,0.1,54.62950786,1.5058876
5cee69353057030001b33fc4,4,0,2024-02-27T09:59:21.008Z,english_615.wav,0,peel,1083,29,5,4,English,m,2,0.2,-31.02204933,1.66676809
5cee69353057030001b33fc4,4,0,2024-02-27T09:59:21.008Z,english_615.wav,0,peel,1083,29,5,4,English,m,3,0.3,-3.27946314,1.09840801
5cee69353057030001b33fc4,4,0,2024-02-27T09:59:21.008Z,english_615.wav,0,peel,1083,29,5,4,English,m,4,0.32341667,51.350795,0.25314986
5cee69353057030001b33fc4,5,0,2024-02-27T09:59:21.008Z,english_309.wav,0,peel,715,29,5,4,English,m,0,0.0,59.8258624,0.58100331
5cee69353057030001b33fc4,5,0,2024-02-27T09:59:21.008Z,english_309.wav,0,peel,715,29,5,4,English,m,1,0.1,73.70427758,0.81024997
5cee69353057030001b33fc4,5,0,2024-02-27T09:59:21.008Z,english_309.wav,0,peel,715,29,5,4,English,m,2,0.2,-8.71125849,0.10827203
5cee69353057030001b33fc4,5,0,2024-02-27T09:59:21.008Z,english_309.wav,0,peel,715,29,5,4,English,m,3,0.3,-86.6882155,0.09670208
5cee69353057030001b33fc4,5,0,2024-02-27T09:59:21.008Z,english_309.wav,0,peel,715,29,5,4,English,m,4,0.32341667,-90.77340978,1.53063904
5cee69353057030001b33fc4,6,0,2024-02-27T09:59:21.008Z,english_416.wav,0,peel,418,29,5,4,English,m,0,0.0,26.92040942,0.66708871
5cee69353057030001b33fc4,6,0,2024-02-27T09:59:21.008Z,english_416.wav,0,peel,418,29,5,4,English,m,1,0.1,32.98463782,0.46140785
5cee69353057030001b33fc4,6,0,2024-02-27T09:59:21.008Z,english_416.wav,0,peel,418,29,5,4,English,m,2,0.2,94.30298269,0.4311344
5cee69353057030001b33fc4,6,0,2024-02-27T09:59:21.008Z,english_416.wav,0,peel,418,29,5,4,English,m,3,0.3,71.4008894,0.4522554
5cee69353057030001b33fc4,6,0,2024-02-27T09:59:21.008Z,english_416.wav,0,peel,418,29,5,4,English,m,4,0.32341667,-13.61584313,0.23817019
5cee69353057030001b33fc4,7,0,2024-02-27T09:59:21.008Z,english_24.wav,0,pill,1443,29,5,4,English,m,0,0.0,83.82729659,0.31203725
5cee69353057030001b33fc4,7,0,2024-02-27T09:59:21.008Z,english_24.wav,0,pill,1443,29,5,4,English,m,1,0.1,-2.54724082,1.56948954
5cee69353057030001b33fc4,7,0,2024-02-27T09:59:21.008Z,english_24.wav,0,pill,1443,29,5,4,English,m,2,0.2,88.70909739,0.87333864
5cee69353057030001b33fc4,7,0,2024-02-27T09:59:21.008Z,english_24.wav,0,pill,1443,29,5,4,English,m,3,0.3,48.93770926,0.88535019
5cee69353057030001b33fc4,7,0,2024-02-27T09:59:21.008Z,english_24.wav,0,pill,1443,29,5,4,English,m,4,0.32341667,53.25190048,0.66112496
5cee69353057030001b33fc4,8,0,2024-02-27T09:59:21.008Z,english_264.wav,0,peel,1670,29,5,4,English,m,0,0.0,16.10521774,1.02407609
5cee69353057030001b33fc4,8,0,2024-02-27T09:59:21.008Z,english_264.wav,0,peel,1670,29,5,4,English,m,1,0.1,-43.55481907,1.4393598
5cee69353057030001b33fc4,8,0,2024-02-27T09:59:21.008Z,english_264.wav,0,peel,1670,29,5,4,English,m,2,0.2,-16.87093852,1.31552174
5cee69353057030001b33fc4,8,0,2024-02-27T09:59:21.008Z,english_264.wav,0,peel,1670,29,5,4,English,m,3,0.3,-81.41755984,1.17516842
5cee69353057030001b33fc4,8,0,2024-02-27T09:59:21.008Z,english_264.wav,0,peel,1670,29,5,4,English,m,4,0.32341667,-76.00277997,0.613195
5cee69353057030001b33fc4,9,0,2024-02-27T09:59:21.008Z,english_171.wav,0,pill,1340,29,5,4,English,m,0,0.0,13.65984607,0.71637608
5cee69353057030001b33fc4,9,0,2024-02-27T09:59:21.008Z,english_171.wav,0,pill,1340,29,5,4,English,m,1,0.1,70.55092655,1.80826384
5cee69353057030001b33fc4,9,0,2024-02-27T09:59:21.008Z,english_171.wav,0,pill,1340,29,5,4,English,m,2,0.2,57.57935127,0.47277884
5cee69353057030001b33fc4,9,0,2024-02-27T09:59:21.008Z,english_171.wav,0,pill,1340,29,5,4,English,m,3,0.3,-55.35579571,1.22036711
5cee69353057030001b33fc4,9,0,2024-02-27T09:59:21.008Z,english_171.wav,0,pill,1340,29,5,4,English,m,4,0.32341667,13.04572565,0.00907712
5cee69353057030001b33fc4,10,0,2024-02-27T09:59:21.008Z,english_830.wav,0,peel,1006,29,5,4,English,m,0,0.0,2.63258607,0.89301132
5cee69353057030001b33fc4,10,0,2024-02-27T09:59:21.008Z,english_830.wav,0,peel,1006,29,5,4,English,m,1,0.1,-31.8387274,1.32560067
5cee69353057030001b33fc4,10,0,2024-02-27T09:59:21.008Z,english_830.wav,0,peel,1006,29,5,4,English,m,2,0.2,-6.78563658,1.08718884
5cee69353057030001b33fc4,10,0,2024-02-27T09:59:21.008Z,english_830.wav,0,peel,1006,29,5,4,English,m,3,0.3,-57.52390495,0.53430446
5cee69353057030001b33fc4,10,0,2024-02-27T09:59:21.008Z,english_830.wav,0,peel,1006,29,5,4,English,m,4,0.32341667,51.13575953,0.53816607
5cee69353057030001b33fc4,11,0,2024-02-27T09:59:21.008Z,english_862.wav,0,peel,2017,29,5,4,English,m,0,0.0,97.17644144,0.51253178
5cee69353057030001b33fc4,11,0,2024-02-27T09:59:21.008Z,english_862.wav,0,peel,2017,29,5,4,English,m,1,0.1,26.34966999,0.21080737
5cee69353057030001b33fc4,11,0,2024-02-27T09:59:21.008Z,english_862.wav,0,peel,2017,29,5,4,English,m,2,0.2,-21.73584106,0.27401534
5cee69353057030001b33fc4,11,0,2024-02-27T09:59:21.008Z,english_862.wav,0,peel,2017,29,5,4,English,m,3,0.3,70.49109419,1.91980484
5cee69353057030001b33fc4,11,0,2024-02-27T09:59:21.008Z,english_862.wav,0,peel,2017,29,5,4,English,m,4,0.32341667,43.48373212,0.96077188
5cee69353057030001b33fc4,12,0,2024-02-27T09:59:21.008Z,english_823.wav,0,peel,1710,29,5,4,English,m,0,0.0,24.6891334,1.19409205
5cee69353057030001b33fc4,12,0,2024-02-27T09:59:21.008Z,english_823.wav,0,peel,1710,29,5,4,English,m,1,0.1,86.03794788,0.72053846
5cee69353057030001b33fc4,12,0,2024-02-27T09:59:21.008Z,english_823.wav,0,peel,1710,29,5,4,English,m,2,0.2,45.97308045,0.2138623
5cee69353057030001b33fc4,12,0,2024-02-27T09:59:21.008Z,english_823.wav,0,peel,1710,29,5,4,English,m,3,0.3,39.11596791,1.56743943
5cee69353057030001b33fc4,12,0,2024-02-27T09:59:21.008Z,english_823.wav,0,peel,1710,29,5,4,English,m,4,0.32341667,10.29734006,1.24065623
5cee69353057030001b33fc4,13,0,2024-02-27T09:59:21.008Z,english_146.wav,0,pill,1931,29,5,4,English,m,0,0.0,-7.47107612,0.36907021
5cee69353057030001b33fc4,13,0,2024-02-27T09:59:21.008Z,english_146.wav,0,pill,1931,29,5,4,English,m,1,0.1,-10.73298436,0.24473139
5cee69353057030001b33fc4,13,0,2024-02-27T09:59:21.008Z,english_146.wav,0,pill,1931,29,5,4,English,m,2,0.2,-4.63341632,1.01983542
5cee69353057030001b33fc4,13,0,2024-02-27T09:59:21.008Z,english_146.wav,0,pill,1931,29,5,4,English,m,3,0.3,14.65491039,0.62607899
5cee69353057030001b33fc4,13,0,2024-02-27T09:59:21.008Z,english_146.wav,0,pill,1931,29,5,4,English,m,4,0.32341667,19.96333333,1.1005899
5cee69353057030001b33fc4,14,0,2024-02-27T09:59:21.008Z,english_603.wav,0,peel,591,29,5,4,English,m,0,0.0,-14.17444723,1.28295305
5cee69353057030001b33fc4,14,0,2024-02-27T09:59:21.008Z,english_603.wav,0,peel,591,29,5,4,English,m,1,0.1,-4.64921339,0.35920956
5cee69353057030001b33fc4,14,0,2024-02-27T09:59:21.008Z,english_603.wav,0,peel,591,29,5,4,English,m,2,0.2,-23.32469505,0.60281559
5cee69353057030001b33fc4,14,0,2024-02-27T09:59:21.008Z,english_603.wav,0,peel,591,29,5,4,English,m,3,0.3,-59.01260874,0.58107079
5cee69353057030001b33fc4,14,0,2024-02-27T09:59:21.008Z,english_603.wav,0,peel,591,29,5,4,English,m,4,0.32341667,88.53711532,1.19087365
5cee69353057030001b33fc4,15,0,2024-02-27T09:59:21.008Z,english_812.wav,0,peel,1198,29,5,4,English,m,0,0.0,70.24469457,0.85599223
5cee69353057030001b33fc4,15,0,2024-02-27T09:59:21.008Z,english_812.wav,0,peel,1198,29,5,4,English,m,1,0.1,-27.51466786,0.39005905
5cee69353057030001b33fc4,15,0,2024-02-27T09:59:21.008Z,english_812.wav,0,peel,1198,29,5,4,English,m,2,0.2,60.55844263,1.43275618
5cee69353057030001b33fc4,15,0,2024-02-27T09:59:21.008Z,english_812.wav,0,peel,1198,29,5,4,English,m,3,0.3,52.93607499,1.34329238
5cee69353057030001b33fc4,15,0,2024-02-27T09:59:21.008Z,english_812.wav,0,peel,1198,29,5,4,English,m,4,0.32341667,74.74872052,0.96810209
5cee69353057030001b33fc4,16,0,2024-02-27T09:59:21.008Z,english_417.wav,0,peel,1555,29,5,4,English,m,0,0.0,-17.25972862,1.29903721
5cee69353057030001b33fc4,16,0,2024-02-27T09:59:21.008Z,english_417.wav,0,peel,1555,29,5,4,English,m,1,0.1,72.11413149,0.87773419
5cee69353057030001b33fc4,16,0,2024-02-27T09:59:21.008Z,english_417.wav,0,peel,1555,29,5,4,English,m,2,0.2,83.70212603,1.45838331
5cee69353057030001b33fc4,16,0,2024-02-27T09:59:21.008Z,english_417.wav,0,peel,1555,29,5,4,English,m,3,0.3,67.19530478,0.90979472
5cee69353057030001b33fc4,16,0,2024-02-27T09:59:21.008Z,english_417.wav,0,peel,1555,29,5,4,English,m,4,0.32341667,29.72084594,0.1224986
5cee69353057030001b33fc4,17,0,2024-02-27T09:59:21.008Z,english_621.wav,0,peel,977,29,5,4,English,m,0,0.0,-58.25251841,1.01186344
5cee69353057030001b33fc4,17,0,2024-02-27T09:59:21.008Z,english_621.wav,0,peel,977,29,5,4,English,m,1,0.1,21.8974524,1.03560921
5cee69353057030001b33fc4,17,0,2024-02-27T09:59:21.008Z,english_621.wav,0,peel,977,29,5,4,English,m,2,0.2,-22.03552483,0.97057504
5cee69353057030001b33fc4,17,0,2024-02-27T09:59:21.008Z,english_621.wav,0,peel,977,29,5,4,English,m,3,0.3,-56.80446909,1.33131235
5cee69353057030001b33fc4,17,0,2024-02-27T09:59:21.008Z,english_621.wav,0,peel,977,29,5,4,English,m,4,0.32341667,-23.41760562,0.49151525
5cee69353057030001b33fc4,18,0,2024-02-27T09:59:21.008Z,english_187.wav,0,peel,798,29,5,4,English,m,0,0.0,-18.35695568,0.61755768
5cee69353057030001b33fc4,18,0,2024-02-27T09:59:21.008Z,english_187.wav,0,peel,798,29,5,4,English,m,1,0.1,10.21632188,1.6626445
5cee69353057030001b33fc4,18,0,2024-02-27T09:59:21.008Z,english_187.wav,0,peel,798,29,5,4,English,m,2,0.2,0.69047377,0.70950015
5cee69353057030001b33fc4,18,0,2024-02-27T09:59:21.008Z,english_187.wav,0,peel,798,29,5,4,English,m,3,0.3,67.68385624,0.8856252
5cee69353057030001b33fc4,18,0,2024-02-27T09:59:21.008Z,english_187.wav,0,peel,798,29,5,4,English,m,4,0.32341667,48.15291114,1.92627472
5cee69353057030001b33fc4,19,0,2024-02-27T09:59:21.008Z,english_574.wav,0,peel,406,29,5,4,English,m,0,0.0,53.128433,0.28349694
5cee69353057030001b33fc4,19,0,2024-02-27T09:59:21.008Z,english_574.wav,0,peel,406,29,5,4,English,m,1,0.1,70.24248151,0.66519348
5cee69353057030001b33fc4,19,0,2024-02-27T09:59:21.008Z,english_574.wav,0,peel,406,29,5,4,English,m,2,0.2,47.13290739,1.25768036
5cee69353057030001b33fc4,19,0,2024-02-27T09:59:21.008Z,english_574.wav,0,peel,406,29,5,4,English,m,3,0.3,52.31480293,1.43482954
5cee69353057030001b33fc4,19,0,2024-02-27T09:59:21.008Z,english_574.wav,0,peel,406,29,5,4,English,m,4,0.32341667,-33.06438127,1.23350688
5cee69353057030001b33fc4,20,0,2024-02-27T09:59:21.008Z,english_738.wav,0,peel,1087,29,5,4,English,m,0,0.0,-37.88087101,1.83397703
5cee69353057030001b33fc4,20,0,2024-02-27T09:59:21.008Z,english_738.wav,0,peel,1087,29,5,4,English,m,1,0.1,-16.85966727,1.52099356
5cee69353057030001b33fc4,20,0,2024-02-27T09:59:21.008Z,english_738.wav,0,peel,1087,29,5,4,English,m,2,0.2,-79.76891938,1.69283951
5cee69353057030001b33fc4,20,0,2024-02-27T09:59:21.008Z,english_738.wav,0,peel,1087,29,5,4,English,m,3,0.3,-82.30918252,1.81957343
5cee69353057030001b33fc4,20,0,2024-02-27T09:59:21.008Z,english_738.wav,0,peel,1087,29,5,4,English,m,4,0.32341667,59.65991076,0.75908376
5cee69353057030001b33fc4,21,0,2024-02-27T09:59:21.008Z,english_673.wav,0,peel,1985,29,5,4,English,m,0,0.0,-57.74220233,1.16794182
5cee69353057030001b33fc4,21,0,2024-02-27T09:59:21.008Z,english_673.wav,0,peel,1985,29,5,4,English,m,1,0.1,51.69168463,0.24005868
5cee69353057030001b33fc4,21,0,2024-02-27T09:59:21.008Z,english_673.wav,0,peel,1985,29,5,4,English,m,2,0.2,32.71998218,1.1491536
5cee69353057030001b33fc4,21,0,2024-02-27T09:59:21.008Z,english_673.wav,0,peel,1985,29,5,4,English,m,3,0.3,1.53841214,1.59180477
5cee69353057030001b33fc4,21,0,2024-02-27T09:59:21.008Z,english_673.wav,0,peel,1985,29,5,4,English,m,4,0.32341667,-95.68622946,1.00634228
5cee69353057030001b33fc4,22,0,2024-02-27T09:59:21.008Z,english_545.wav,0,peel,1169,29,5,4,English,m,0,0.0,42.99494118,1.37740168
5cee69353057030001b33fc4,22,0,2024-02-27T09:59:21.008Z,english_545.wav,0,peel,1169,29,5,4,English,m,1,0.1,72.53025652,0.91972232
5cee69353057030001b33fc4,22,0,2024-02-27T09:59:21.008Z,english_545.wav,0,peel,1169,29,5,4,English,m,2,0.2,4.60849844,0.73226975
5cee69353057030001b33fc4,22,0,2024-02-27T09:59:21.008Z,english_545.wav,0,peel,1169,29,5,4,English,m,3,0.3,9.93291538,1.52934768
5cee69353057030001b33fc4,22,0,2024-02-27T09:59:21.008Z,english_545.wav,0,peel,1169,29,5,4,English,m,4,0.32341667,-11.25611892,0.18478607
5cee69353057030001b33fc4,23,0,2024-02-27T09:59:21.008Z,english_528.wav,0,peel,756,29,5,4,English,m,0,0.0,34.31610554,1.55529168
5cee69353057030001b33fc4,23,0,2024-02-27T09:59:21.008Z,english_528.wav,0,peel,756,29,5,4,English,m,1,0.1,28.08911917,0.29936297
5cee69353057030001b33fc4,23,0,2024-02-27T09:59:21.008Z,english_528.wav,0,peel,756,29,5,4,English,m,2,0.2,-86.77613696,0.95155831
5cee69353057030001b33fc4,23,0,2024-02-27T09:59:21.008Z,english_528.wav,0,peel,756,29,5,4,English,m,3,0.3,-45.45420678,1.46511459
5cee69353057030001b33fc4,23,0,2024-02-27T09:59:21.008Z,english_528.wav,0,peel,756,29,5,4,English,m,4,0.32341667,-58.86275596,0.63923396
5cee69353057030001b33fc4,24,0,2024-02-27T09:59:21.008Z,english_69.wav,0,peel,1163,29,5,4,English,m,0,0.0,-57.18730239,0.11878381
5cee69353057030001b33fc4,24,0,2024-02-27T09:59:21.008Z,english_69.wav,0,peel,1163,29,5,4,English,m,1,0.1,16.22212469,1.00797921
5cee69353057030001b33fc4,24,0,2024-02-27T09:59:21.008Z,english_69.wav,0,peel,1163,29,5,4,English,m,2,0.2,-44.28071093,0.42082068
5cee69353057030001b33fc4,24,0,2024-02-27T09:59:21.008Z,english_69.wav,0,peel,1163,29,5,4,English,m,3,0.3,-70.80378082,0.50205716
5cee69353057030001b33fc4,24,0,2024-02-27T09:59:21.008Z,english_69.wav,0,peel,1163,29,5,4,English,m,4,0.32341667,-58.3439892,0.68985838
5cee69353057030001b33fc4,25,0,2024-02-27T09:59:21.008Z,english_287.wav,0,peel,316,29,5,4,English,m,0,0.0,-5.71925808,1.04112926
5cee69353057030001b33fc4,25,0,2024-02-27T09:59:21.008Z,english_287.wav,0,peel,316,29,5,4,English,m,1,0.1,-94.78041007,0.35149142
5cee69353057030001b33fc4,25,0,2024-02-27T09:59:21.008Z,english_287.wav,0,peel,316,29,5,4,English,m,2,0.2,8.34641368,0.86781598
5cee69353057030001b33fc4,25,0,2024-02-27T09:59:21.008Z,english_287.wav,0,peel,316,29,5,4,English,m,3,0.3,36.34893025,1.897904
5cee69353057030001b33fc4,25,0,2024-02-27T09:59:21.008Z,english_287.wav,0,peel,316,29,5,4,English,m,4,0.32341667,-22.47689594,0.5607403
5cee69353057030001b33fc4,26,0,2024-02-27T09:59:21.008Z,english_460.wav,0,peel,433,29,5,4,English,m,0,0.0,-93.21492338,1.97422145
5cee69353057030001b33fc4,26,0,2024-02-27T09:59:21.008Z,english_460.wav,0,peel,433,29,5,4,English,m,1,0.1,-65.59669931,0.48313428
5cee69353057030001b33fc4,26,0,2024-02-27T09:59:21.008Z,english_460.wav,0,peel,433,29,5,4,English,m,2,0.2,76.47030005,0.91916034
5cee69353057030001b33fc4,26,0,2024-02-27T09:59:21.008Z,english_460.wav,0,peel,433,29,5,4,English,m,3,0.3,-24.62267943,0.34121923
5cee69353057030001b33fc4,26,0,2024-02-27T09:59:21.008Z,english_460.wav,0,peel,433,29,5,4,English,m,4,0.32341667,17.6428759,0.75894887
5cee69353057030001b33fc4,27,0,2024-02-27T09:59:21.008Z,english_173.wav,0,peel,314,29,5,4,English,m,0,0.0,11.1251521,0.60172576
5cee69353057030001b33fc4,27,0,2024-02-27T09:59:21.008Z,english_173.wav,0,peel,314,29,5,4,English,m,1,0.1,94.22411188,0.44802145
5cee69353057030001b33fc4,27,0,2024-02-27T09:59:21.008Z,english_173.wav,0,peel,314,29,5,4,English,m,2,0.2,89.44753043,1.27552997
5cee69353057030001b33fc4,27,0,2024-02-27T09:59:21.008Z,english_173.wav,0,peel,314,29,5,4,English,m,3,0.3,74.30769895,1.09756939
5cee69353057030001b33fc4,27,0,2024-02-27T09:59:21.008Z,english_173.wav,0,peel,314,29,5,4,English,m,4,0.32341667,-37.47679669,0.7907315
5cee69353057030001b33fc4,28,0,2024-02-27T09:59:21.008Z,english_429.wav,0,peel,306,29,5,4,English,m,0,0.0,-70.82827187,0.34305232
5cee69353057030001b33fc4,28,0,2024-02-27T09:59:21.008Z,english_429.wav,0,peel,306,29,5,4,English,m,1,0.1,79.2644825,1.15525787
5cee69353057030001b33fc4,28,0,2024-02-27T09:59:21.008Z,english_429.wav,0,peel,306,29,5,4,English,m,2,0.2,14.29027084,1.85610569
5cee69353057030001b33fc4,28,0,2024-02-27T09:59:21.008Z,english_429.wav,0,peel,306,29,5,4,English,m,3,0.3,-47.65971945,0.19828098
5cee69353057030001b33fc4,28,0,2024-02-27T09:59:21.008Z,english_429.wav,0,peel,306,29,5,4,English,m,4,0.32341667,8.9954872,1.51767034
5cee69353057030001b33fc4,29,0,2024-02-27T09:59:21.008Z,english_809.wav,0,peel,425,29,5,4,English,m,0,0.0,-9.08149959,0.73203403
5cee69353057030001b33fc4,29,0,2024-02-27T09:59:21.008Z,english_809.wav,0,peel,425,29,5,4,English,m,1,0.1,12.16544582,0.53159531
5cee69353057030001b33fc4,29,0,2024-02-27T09:59:21.008Z,english_809.wav,0,peel,425,29,5,4,English,m,2,0.2,40.52205867,1.48114639
5cee69353057030001b33fc4,29,0,2024-02-27T09:59:21.008Z,english_809.wav,0,peel,425,29,5,4,English,m,3,0.3,-94.19679153,1.77078339
5cee69353057030001b33fc4,29,0,2024-02-27T09:59:21.008Z,english_809.wav,0,peel,425,29,5,4,English,m,4,0.32341667,-5.82752377,1.36117577
5cee69353057030001b33fc4,30,0,2024-02-27T09:59:21.008Z,english_285.wav,0,peel,675,29,5,4,English,m,0,0.0,-19.0536712,1.18823065
5cee69353057030001b33fc4,30,0,2024-02-27T09:59:21.008Z,english_285.wav,0,peel,675,29,5,4,English,m,1,0.1,-63.15395986,1.010644
5cee69353057030001b33fc4,30,0,2024-02-27T09:59:21.008Z,english_285.wav,0,peel,675,29,5,4,English,m,2,0.2,-57.682926,0.4943662
5cee69353057030001b33fc4,30,0,2024-02-27T09:59:21.008Z,english_285.wav,0,peel,675,29,5,4,English,m,3,0.3,-56.52362331,0.66348991
5cee69353057030001b33fc4,30,0,2024-02-27T09:59:21.008Z,english_285.wav,0,peel,675,29,5,4,English,m,4,0.32341667,11.40665652,0.86242978
5cee69353057030001b33fc4,31,0,2024-02-27T09:59:21.008Z,english_293.wav,0,peel,525,29,5,4,English,m,0,0.0,-22.15906653,1.76366583
5cee69353057030001b33fc4,31,0,2024-02-27T09:59:21.008Z,english_293.wav,0,peel,525,29,5,4,English,m,1,0.1,-88.62057809,0.55660069
5cee69353057030001b33fc4,31,0,2024-02-27T09:59:21.008Z,english_293.wav,0,peel,525,29,5,4,English,m,2,0.2,-18.47979893,1.17282558
5cee69353057030001b33fc4,31,0,2024-02-27T09:59:21.008Z,english_293.wav,0,peel,525,29,5,4,English,m,3,0.3,-74.2852497,0.49477424
5cee69353057030001b33fc4,31,0,2024-02-27T09:59:21.008Z,english_293.wav,0,peel,525,29,5,4,English,m,4,0.32341667,59.45323022,0.66659794
5cee69353057030001b33fc4,32,0,2024-02-27T09:59:21.008Z,english_431.wav,0,peel,232,29,5,4,English,m,0,0.0,-28.91437381,1.3282391
5cee69353057030001b33fc4,32,0,2024-02-27T09:59:21.008Z,english_431.wav,0,peel,232,29,5,4,English,m,1,0.1,30.6479342,1.9405757
5cee69353057030001b33fc4,32,0,2024-02-27T09:59:21.008Z,english_431.wav,0,peel,232,29,5,4,English,m,2,0.2,41.25713347,1.67607787
5cee69353057030001b33fc4,32,0,2024-02-27T09:59:21.008Z,english_431.wav,0,peel,232,29,5,4,English,m,3,0.3,9.19018397,0.62213613
5cee69353057030001b33fc4,32,0,2024-02-27T09:59:21.008Z,english_431.wav,0,peel,232,29,5,4,English,m,4,0.32341667,-61.77590044,0.50881411
5cee69353057030001b33fc4,33,0,2024-02-27T09:59:21.008Z,english_425.wav,0,peel,578,29,5,4,English,m,0,0.0,52.16022051,1.95369626
5cee69353057030001b33fc4,33,0,2024-02-27T09:59:21.008Z,english_425.wav,0,peel,578,29,5,4,English,m,1,0.1,-4.0342476,0.01224448
5cee69353057030001b33fc4,33,0,2024-02-27T09:59:21.008Z,english_425.wav,0,peel,578,29,5,4,English,m,2,0.2,71.82190917,1.45838463
5cee69353057030001b33fc4,33,0,2024-02-27T09:59:21.008Z,english_425.wav,0,peel,578,29,5,4,English,m,3,0.3,77.8432037,1.1656734
5cee69353057030001b33fc4,33,0,2024-02-27T09:59:21.008Z,english_425.wav,0,peel,578,29,5,4,English,m,4,0.32341667,29.14791909,1.54078916
5cee69353057030001b33fc4,34,0,2024-02-27T09:59:21.008Z,english_619.wav,0,peel,418,29,5,4,English,m,0,0.0,38.53351318,1.25542912
5cee69353057030001b33fc4,34,0,2024-02-27T09:59:21.008Z,english_619.wav,0,peel,418,29,5,4,English,m,1,0.1,-11.21157995,0.83005785
5cee69353057030001b33fc4,34,0,2024-02-27T09:59:21.008Z,english_619.wav,0,peel,418,29,5,4,English,m,2,0.2,29.79887689,1.51254928
5cee69353057030001b33fc4,34,0,2024-02-27T09:59:21.008Z,english_619.wav,0,peel,418,29,5,4,English,m,3,0.3,48.6384615,0.37972577
5cee69353057030001b33fc4,34,0,2024-02-27T09:59:21.008Z,english_619.wav,0,peel,418,29,5,4,English,m,4,0.32341667,-66.5905708,0.44889873
5cee69353057030001b33fc4,35,0,2024-02-27T09:59:21.008Z,english_255.wav,0,peel,492,29,5,4,English,m,0,0.0,-42.74550593,1.65518669
5cee69353057030001b33fc4,35,0,2024-02-27T09:59:21.008Z,english_255.wav,0,peel,492,29,5,4,English,m,1,0.1,35.44578771,1.85823386
5cee69353057030001b33fc4,35,0,2024-02-27T09:59:21.008Z,english_255.wav,0,peel,492,29,5,4,English,m,2,0.2,98.7346041,1.2123315
5cee69353057030001b33fc4,35,0,2024-02-27T09:59:21.008Z,english_255.wav,0,peel,492,29,5,4,English,m,3,0.3,14.08839822,0.62099519
5cee69353057030001b33fc4,35,0,2024-02-27T09:59:21.008Z,english_255.wav,0,peel,492,29,5,4,English,m,4,0.32341667,-55.38739786,1.08486436
5cee69353057030001b33fc4,36,0,2024-02-27T09:59:21.008Z,english_364.wav,0,peel,338,29,5,4,English,m,0,0.0,19.50953027,1.75500584
5cee69353057030001b33fc4,36,0,2024-02-27T09:59:21.008Z,english_364.wav,0,peel,338,29,5,4,English,m,1,0.1,48.44847612,1.3553812
5cee69353057030001b33fc4,36,0,2024-02-27T09:59:21.008Z,english_364.wav,0,peel,338,29,5,4,English,m,2,0.2,-85.20645473,0.86672295
5cee69353057030001b33fc4,36,0,2024-02-27T09:59:21.008Z,english_364.wav,0,peel,338,29,5,4,English,m,3,0.3,97.47454191,1.42489128
5cee69353057030001b33fc4,36,0,2024-02-27T09:59:21.008Z,english_364.wav,0,peel,338,29,5,4,English,m,4,0.32341667,-45.42958463,1.19673805
5cee69353057030001b33fc4,37,0,2024-02-27T09:59:21.008Z,english_243.wav,0,peel,537,29,5,4,English,m,0,0.0,-74.41503345,0.65151457
5cee69353057030001b33fc4,37,0,2024-02-27T09:59:21.008Z,english_243.wav,0,peel,537,29,5,4,English,m,1,0.1,-16.65530333,0.20623253
5cee69353057030001b33fc4,37,0,2024-02-27T09:59:21.008Z,english_243.wav,0,peel,537,29,5,4,English,m,2,0.2,-1.41224798,0.87153721
5cee69353057030001b33fc4,37,0,2024-02-27T09:59:21.008Z,english_243.wav,0,peel,537,29,5,4,English,m,3,0.3,37.30419975,0.28583671
5cee69353057030001b33fc4,37,0,2024-02-27T09:59:21.008Z,english_243.wav,0,peel,537,29,5,4,English,m,4,0.32341667,-3.40378668,1.90700275
5cee69353057030001b33fc4,38,0,2024-02-27T09:59:21.008Z,english_779.wav,0,peel,648,29,5,4,English,m,0,0.0,-66.48303018,1.22216448
5cee69353057030001b33fc4,38,0,2024-02-27T09:59:21.008Z,english_779.wav,0,peel,648,29,5,4,English,m,1,0.1,55.33592885,1.30288261
5cee69353057030001b33fc4,38,0,2024-02-27T09:59:21.008Z,english_779.wav,0,peel,648,29,5,4,English,m,2,0.2,67.38671669,0.25409759
5cee69353057030001b33fc4,38,0,2024-02-27T09:59:21.008Z,english_779.wav,0,peel,648,29,5,4,English,m,3,0.3,65.49052189,1.76174581
5cee69353057030001b33fc4,38,0,2024-02-27T09:59:21.008Z,english_779.wav,0,peel,648,29,5,4,English,m,4,0.32341667,-12.12955258,0.12280057
5cee69353057030001b33fc4,39,0,2024-02-27T09:59:21.008Z,english_975.wav,0,peel,675,29,5,4,English,m,0,0.0,30.76275893,1.75032315
5cee69353057030001b33fc4,39,0,2024-02-27T09:59:21.008Z,english_975.wav,0,peel,675,29,5,4,English,m,1,0.1,-18.30184736,1.1766706
5cee69353057030001b33fc4,39,0,2024-02-27T09:59:21.008Z,english_975.wav,0,peel,675,29,5,4,English,m,2,0.2,88.92209311,0.11148121
5cee69353057030001b33fc4,39,0,2024-02-27T09:59:21.008Z,english_975.wav,0,peel,675,29,5,4,English,m,3,0.3,-15.78836893,1.00992181
5cee69353057030001b33fc4,39,0,2024-02-27T09:59:21.008Z,english_975.wav,0,peel,675,29,5,4,English,m,4,0.32341667,81.69873146,1.08252971
5cee69353057030001b33fc4,40,0,2024-02-27T09:59:21.008Z,english_666.wav,0,peel,375,29,5,4,English,m,0,0.0,-6.63307831,0.44221414
5cee69353057030001b33fc4,40,0,2024-02-27T09:59:21.008Z,english_666.wav,0,peel,375,29,5,4,English,m,1,0.1,-47.66524373,1.62559692
5cee69353057030001b33fc4,40,0,2024-02-27T09:59:21.008Z,english_666.wav,0,peel,375,29,5,4,English,m,2,0.2,66.93817534,0.27313334
5cee69353057030001b33fc4,40,0,2024-02-27T09:59:21.008Z,english_666.wav,0,peel,375,29,5,4,English,m,3,0.3,-1.338646,0.46846925
5cee69353057030001b33fc4,40,0,2024-02-27T09:59:21.008Z,english_666.wav,0,peel,375,29,5,4,English,m,4,0.32341667,-14.31927765,1.08883823
5cee69353057030001b33fc4,41,0,2024-02-27T09:59:21.008Z,english_589.wav,0,peel,265,29,5,4,English,m,0,0.0,58.55453646,1.98928345
5cee69353057030001b33fc4,41,0,2024-02-27T09:59:21.008Z,english_589.wav,0,peel,265,29,5,4,English,m,1,0.1,30.45164265,1.49107718
5cee69353057030001b33fc4,41,0,2024-02-27T09:59:21.008Z,english_589.wav,0,peel,265,29,5,4,English,m,2,0.2,-45.43400091,0.52639062
5cee69353057030001b33fc4,41,0,2024-02-27T09:59:21.008Z,english_589.wav,0,peel,265,29,5,4,English,m,3,0.3,84.99084473,0.34590986
5cee69353057030001b33fc4,41,0,2024-02-27T09:59:21.008Z,english_589.wav,0,peel,265,29,5,4,English,m,4,0.32341667,65.45411119,0.67022481
5cee69353057030001b33fc4,42,0,2024-02-27T09:59:21.008Z,english_829.wav,0,peel,268,29,5,4,English,m,0,0.0,60.30417439,0.94286345
5cee69353057030001b33fc4,42,0,2024-02-27T09:59:21.008Z,english_829.wav,0,peel,268,29,5,4,English,m,1,0.1,-26.87459656,0.76756767
5cee69353057030001b33fc4,42,0,2024-02-27T09:59:21.008Z,english_829.wav,0,peel,268,29,5,4,English,m,2,0.2,59.05286014,1.50609211
5cee69353057030001b33fc4,42,0,2024-02-27T09:59:21.008Z,english_829.wav,0,peel,268,29,5,4,English,m,3,0.3,-38.64739237,0.33518122
5cee69353057030001b33fc4,42,0,2024-02-27T09:59:21.008Z,english_829.wav,0,peel,268,29,5,4,English,m,4,0.32341667,68.61732932,1.40687349
5cee69353057030001b33fc4,43,0,2024-02-27T09:59:21.008Z,english_253.wav,0,peel,129,29,5,4,English,m,0,0.0,12.9108365,0.20464585
5cee69353057030001b33fc4,43,0,2024-02-27T09:59:21.008Z,english_253.wav,0,peel,129,29,5,4,English,m,1,0.1,-70.83420593,1.97412558
5cee69353057030001b33fc4,43,0,2024-02-27T09:59:21.008Z,english_253.wav,0,peel,129,29,5,4,English,m,2,0.2,-6.13796162,1.12401504
5cee69353057030001b33fc4,43,0,2024-02-27T09:59:21.008Z,english_253.wav,0,peel,129,29,5,4,English,m,3,0.3,38.03543053,1.75851492
5cee69353057030001b33fc4,43,0,2024-02-27T09:59:21.008Z,english_253.wav,0,peel,129,29,5,4,English,m,4,0.32341667,-61.21147917,0.77953826
5cee69353057030001b33fc4,44,0,2024-02-27T09:59:21.008Z,english_176.wav,0,peel,1040,29,5,4,English,m,0,0.0,-62.84257592,0.68193044
5cee69353057030001b33fc4,44,0,2024-02-27T09:59:21.008Z,english_176.wav,0,peel,1040,29,5,4,English,m,1,0.1,86.95506575,0.26950978
5cee69353057030001b33fc4,44,0,2024-02-27T09:59:21.008Z,english_176.wav,0,peel,1040,29,5,4,English,m,2,0.2,-28.0397163,0.45294908
5cee69353057030001b33fc4,44,0,2024-02-27T09:59:21.008Z,english_176.wav,0,peel,1040,29,5,4,English,m,3,0.3,-64.80124174,0.91353321
5cee69353057030001b33fc4,44,0,2024-02-27T09:59:21.008Z,english_176.wav,0,peel,1040,29,5,4,English,m,4,0.32341667,-98.66046935,1.10925614
5cee69353057030001b33fc4,45,0,2024-02-27T09:59:21.008Z,english_282.wav,0,peel,499,29,5,4,English,m,0,0.0,0.76940706,0.32837311
5cee69353057030001b33fc4,45,0,2024-02-27T09:59:21.008Z,english_282.wav,0,peel,499,29,5,4,English,m,1,0.1,85.14494722,0.39977994
5cee69353057030001b33fc4,45,0,2024-02-27T09:59:21.008Z,english_282.wav,0,peel,499,29,5,4,English,m,2,0.2,-92.43433596,0.62065738
5cee69353057030001b33fc4,45,0,2024-02-27T09:59:21.008Z,english_282.wav,0,peel,499,29,5,4,English,m,3,0.3,-98.42888083,0.06200237
5cee69353057030001b33fc4,45,0,2024-02-27T09:59:21.008Z,english_282.wav,0,peel,499,29,5,4,English,m,4,0.32341667,-32.58662549,1.4193679
5cee69353057030001b33fc4,46,0,2024-02-27T09:59:21.008Z,english_792.wav,0,peel,141,29,5,4,English,m,0,0.0,-56.39949456,1.32676777
5cee69353057030001b33fc4,46,0,2024-02-27T09:59:21.008Z,english_792.wav,0,peel,141,29,5,4,English,m,1,0.1,-76.36067248,1.08004851
5cee69353057030001b33fc4,46,0,2024-02-27T09:59:21.008Z,english_792.wav,0,peel,141,29,5,4,English,m,2,0.2,-58.44160547,1.5809308
5cee69353057030001b33fc4,46,0,2024-02-27T09:59:21.008Z,english_792.wav,0,peel,141,29,5,4,English,m,3,0.3,25.29086486,0.16508433
5cee69353057030001b33fc4,46,0,2024-02-27T09:59:21.008Z,english_792.wav,0,peel,141,29,5,4,English,m,4,0.32341667,-6.58788169,1.18870574
5cee69353057030001b33fc4,47,0,2024-02-27T09:59:21.008Z,english_906.wav,0,peel,481,29,5,4,English,m,0,0.0,-40.48589107,1.22436898
5cee69353057030001b33fc4,47,0,2024-02-27T09:59:21.008Z,english_906.wav,0,peel,481,29,5,4,English,m,1,0.1,47.48995475,1.54823641
5cee69353057030001b33fc4,47,0,2024-02-27T09:59:21.008Z,english_906.wav,0,peel,481,29,5,4,English,m,2,0.2,-46.73743802,1.02590908
5cee69353057030001b33fc4,47,0,2024-02-27T09:59:21.008Z,english_906.wav,0,peel,481,29,5,4,English,m,3,0.3,-97.96557374,1.74877791
5cee69353057030001b33fc4,47,0,2024-02-27T09:59:21.008Z,english_906.wav,0,peel,481,29,5,4,English,m,4,0.32341667,18.48293991,0.76585735
5cee69353057030001b33fc4,48,0,2024-02-27T09:59:21.008Z,english_19.wav,0,peel,697,29,5,4,English,m,0,0.0,51.84788699,0.3981759
5cee69353057030001b33fc4,48,0,2024-02-27T09:59:21.008Z,english_19.wav,0,peel,697,29,5,4,English,m,1,0.1,59.68091475,1.61217409
5cee69353057030001b33fc4,48,0,2024-02-27T09:59:21.008Z,english_19.wav,0,peel,697,29,5,4,English,m,2,0.2,-27.71167756,0.35158216
5cee69353057030001b33fc4,48,0,2024-02-27T09:59:21.008Z,english_19.wav,0,peel,697,29,5,4,English,m,3,0.3,-29.56443604,0.8770992
5cee69353057030001b33fc4,48,0,2024-02-27T09:59:21.008Z,english_19.wav,0,peel,697,29,5,4,English,m,4,0.32341667,-58.55228515,0.51670124
5cee69353057030001b33fc4,49,0,2024-02-27T09:59:21.008Z,english_103.wav,0,peel,310,29,5,4,English,m,0,0.0,-79.54710498,0.84178061
5cee69353057030001b33fc4,49,0,2024-02-27T09:59:21.008Z,english_103.wav,0,peel,310,29,5,4,English,m,1,0.1,-41.31314025,1.9706485
5cee69353057030001b33fc4,49,0,2024-02-27T09:59:21.008Z,english_103.wav,0,peel,310,29,5,4,English,m,2,0.2,-48.58046961,1.55059924
5cee69353057030001b33fc4,49,0,2024-02-27T09:59:21.008Z,english_103.wav,0,peel,310,29,5,4,English,m,3,0.3,50.88097047,1.14550684
5cee69353057030001b33fc4,49,0,2024-02-27T09:59:21.008Z,english_103.wav,0,peel,310,29,5,4,English,m,4,0.32341667,21.22320476,1.67039139
5cee69353057030001b33fc4,50,1,2024-02-27T10:01:37.113Z,english_972.wav,0,peel,1439,29,5,4,English,m,0,0.0,-87.82800068,1.28286493
5cee69353057030001b33fc4,50,1,2024-02-27T10:01:37.113Z,english_972.wav,0,peel,1439,29,5,4,English,m,1,0.1,-25.45661385,0.89058027
5cee69353057030001b33fc4,50,1,2024-02-27T10:01:37.113Z,english_972.wav,0,peel,1439,29,5,4,English,m,2,0.2,2.95853851,1.4716374
5cee69353057030001b33fc4,50,1,2024-02-27T10:01:37.113Z,english_972.wav,0,peel,1439,29,5,4,English,m,3,0.3,84.61583696,0.6386035
5cee69353057030001b33fc4,50,1,2024-02-27T10:01:37.113Z,english_972.wav,0,peel,1439,29,5,4,English,m,4,0.32341667,42.95706616,1.51056083
5cee69353057030001b33fc4,51,1,2024-02-27T10:01:37.113Z,english_523.wav,0,peel,843,29,5,4,English,m,0,0.0,8.07414344,0.20594791
5cee69353057030001b33fc4,51,1,2024-02-27T10:01:37.113Z,english_523.wav,0,peel,843,29,5,4,English,m,1,0.1,27.61667564,1.87511385
5cee69353057030001b33fc4,51,1,2024-02-27T10:01:37.113Z,english_523.wav,0,peel,843,29,5,4,English,m,2,0.2,12.25175146,0.19246655
5cee69353057030001b33fc4,51,1,2024-02-27T10:01:37.113Z,english_523.wav,0,peel,843,29,5,4,English,m,3,0.3,5.7333769,0.42766967
5cee69353057030001b33fc4,51,1,2024-02-27T10:01:37.113Z,english_523.wav,0,peel,843,29,5,4,English,m,4,0.32341667,77.72310536,1.43882185
5cee69353057030001b33fc4,52,1,2024-02-27T10:01:37.113Z,english_895.wav,0,peel,264,29,5,4,English,m,0,0.0,-36.05432491,1.57991636
5cee69353057030001b33fc4,52,1,2024-02-27T10:01:37.113Z,english_895.wav,0,peel,264,29,5,4,English,m,1,0.1,0.27991529,1.29141926
5cee69353057030001b33fc4,52,1,2024-02-27T10:01:37.113Z,english_895.wav,0,peel,264,29,5,4,English,m,2,0.2,-68.50060493,0.78617821
5cee69353057030001b33fc4,52,1,2024-02-27T10:01:37.113Z,english_895.wav,0,peel,264,29,5,4,English,m,3,0.3,-65.34452755,0.53071912
5cee69353057030001b33fc4,52,1,2024-02-27T10:01:37.113Z,english_895.wav,0,peel,264,29,5,4,English,m,4,0.32341667,44.30205494,1.44568828
5cee69353057030001b33fc4,53,1,2024-02-27T10:01:37.113Z,english_221.wav,0,peel,359,29,5,4,English,m,0,0.0,85.84184869,1.38100565
5cee69353057030001b33fc4,53,1,2024-02-27T10:01:37.113Z,english_221.wav,0,peel,359,29,5,4,English,m,1,0.1,-20.37513589,0.79531516
5cee69353057030001b33fc4,53,1,2024-02-27T10:01:37.113Z,english_221.wav,0,peel,359,29,5,4,English,m,2,0.2,-89.75984637,0.9538446
5cee69353057030001b33fc4,53,1,2024-02-27T10:01:37.113Z,english_221.wav,0,peel,359,29,5,4,English,m,3,0.3,50.66879934,1.56492426
5cee69353057030001b33fc4,53,1,2024-02-27T10:01:37.113Z,english_221.wav,0,peel,359,29,5,4,English,m,4,0.32341667,20.92538743,1.60855456
5cee69353057030001b33fc4,54,1,2024-02-27T10:01:37.113Z,english_947.wav,0,peel,416,29,5,4,English,m,0,0.0,73.13113362,0.1925557
5cee69353057030001b33fc4,54,1,2024-02-27T10:01:37.113Z,english_947.wav,0,peel,416,29,5,4,English,m,1,0.1,-55.13077299,1.89478059
5cee69353057030001b33fc4,54,1,2024-02-27T10:01:37.113Z,english_947.wav,0,peel,416,29,5,4,English,m,2,0.2,59.32217849,0.99662771
5cee69353057030001b33fc4,54,1,2024-02-27T10:01:37.113Z,english_947.wav,0,peel,416,29,5,4,English,m,3,0.3,-71.25946194,0.61263341
5cee69353057030001b33fc4,54,1,2024-02-27T10:01:37.113Z,english_947.wav,0,peel,416,29,5,4,English,m,4,0.32341667,39.2274254,0.46373334
5cee69353057030001b33fc4,55,1,2024-02-27T10:01:37.113Z,english_217.wav,0,peel,712,29,5,4,English,m,0,0.0,-87.44045162,1.20965721
5cee69353057030001b33fc4,55,1,2024-02-27T10:01:37.113Z,english_217.wav,0,peel,712,29,5,4,English,m,1,0.1,26.67222095,0.05295089
5cee69353057030001b33fc4,55,1,2024-02-27T10:01:37.113Z,english_217.wav,0,peel,712,29,5,4,English,m,2,0.2,97.90977363,1.23557872
5cee69353057030001b33fc4,55,1,2024-02-27T10:01:37.113Z,english_217.wav,0,peel,712,29,5,4,English,m,3,0.3,4.49718441,1.80752812
5cee69353057030001b33fc4,55,1,2024-02-27T10:01:37.113Z,english_217.wav,0,peel,712,29,5,4,English,m,4,0.32341667,13.31384309,1.57586313
5cee69353057030001b33fc4,56,1,2024-02-27T10:01:37.113Z,english_848.wav,0,peel,208,29,5,4,English,m,0,0.0,43.30233352,0.12582596
5cee69353057030001b33fc4,56,1,2024-02-27T10:01:37.113Z,english_848.wav,0,peel,208,29,5,4,English,m,1,0.1,-77.77691247,1.72621372
5cee69353057030001b33fc4,56,1,2024-02-27T10:01:37.113Z,english_848.wav,0,peel,208,29,5,4,English,m,2,0.2,-68.99020863,1.753656
5cee69353057030001b33fc4,56,1,2024-02-27T10:01:37.113Z,english_848.wav,0,peel,208,29,5,4,English,m,3,0.3,-43.68641023,1.37442753
5cee69353057030001b33fc4,56,1,2024-02-27T10:01:37.113Z,english_848.wav,0,peel,208,29,5,4,English,m,4,0.32341667,-14.19502025,1.04930351
5cee69353057030001b33fc4,57,1,2024-02-27T10:01:37.113Z,english_760.wav,0,peel,226,29,5,4,English,m,0,0.0,24.3902693,0.67210823
5cee69353057030001b33fc4,57,1,2024-02-27T10:01:37.113Z,english_760.wav,0,peel,226,29,5,4,English,m,1,0.1,-0.0247174936,1.89588113
5cee69353057030001b33fc4,57,1,2024-02-27T10:01:37.113Z,english_760.wav,0,peel,226,29,5,4,English,m,2,0.2,82.8662613,0.23432987
5cee69353057030001b33fc4,57,1,2024-02-27T10:01:37.113Z,english_760.wav,0,peel,226,29,5,4,English,m,3,0.3,-7.97314524,1.20797246
5cee69353057030001b33fc4,57,1,2024-02-27T10:01:37.113Z,english_760.wav,0,peel,226,29,5,4,English,m,4,0.323416667,-6.32438983,1.72866971
5cee69353057030001b33fc4,58,1,2024-02-27T10:01:37.113Z,english_222.wav,0,peel,2427,29,5,4,English,m,0,0.0,-5.8882644,0.97478352
5cee69353057030001b33fc4,58,1,2024-02-27T10:01:37.113Z,english_222.wav,0,peel,2427,29,5,4,English,m,1,0.1,-15.4334302,1.79573252
5cee69353057030001b33fc4,58,1,2024-02-27T10:01:37.113Z,english_222.wav,0,peel,2427,29,5,4,English,m,2,0.2,-39.50203868,1.71948726
5cee69353057030001b33fc4,58,1,2024-02-27T10:01:37.113Z,english_222.wav,0,peel,2427,29,5,4,English,m,3,0.3,67.79027175,0.41699719
5cee69353057030001b33fc4,58,1,2024-02-27T10:01:37.113Z,english_222.wav,0,peel,2427,29,5,4,English,m,4,0.32341667,-43.17344259,0.26315099
5cee69353057030001b33fc4,59,1,2024-02-27T10:01:37.113Z,english_674.wav,0,peel,449,29,5,4,English,m,0,0.0,-38.60253285,0.25488683
5cee69353057030001b33fc4,59,1,2024-02-27T10:01:37.113Z,english_674.wav,0,peel,449,29,5,4,English,m,1,0.1,46.14948962,1.80679583
5cee69353057030001b33fc4,59,1,2024-02-27T10:01:37.113Z,english_674.wav,0,peel,449,29,5,4,English,m,2,0.2,-49.76414787,1.59420413
5cee69353057030001b33fc4,59,1,2024-02-27T10:01:37.113Z,english_674.wav,0,peel,449,29,5,4,English,m,3,0.3,-66.16492387,1.25714797
5cee69353057030001b33fc4,59,1,2024-02-27T10:01:37.113Z,english_674.wav,0,peel,449,29,5,4,English,m,4,0.32341667,28.37583826,1.20557216
5cee69353057030001b33fc4,60,1,2024-02-27T10:01:37.113Z,english_444.wav,0,peel,418,29,5,4,English,m,0,0.0,57.2872587,0.52242118
5cee69353057030001b33fc4,60,1,2024-02-27T10:01:37.113Z,english_444.wav,0,peel,418,29,5,4,English,m,1,0.1,68.85097071,1.61316948
5cee69353057030001b33fc4,60,1,2024-02-27T10:01:37.113Z,english_444.wav,0,peel,418,29,5,4,English,m,2,0.2,-30.10164543,0.15196309
5cee69353057030001b33fc4,60,1,2024-02-27T10:01:37.113Z,english_444.wav,0,peel,418,29,5,4,English,m,3,0.3,-57.0249627,0.44426911
5cee69353057030001b33fc4,60,1,2024-02-27T10:01:37.113Z,english_444.wav,0,peel,418,29,5,4,English,m,4,0.32341667,-54.19692118,1.48693747
5cee69353057030001b33fc4,61,1,2024-02-27T10:01:37.113Z,english_246.wav,0,pill,3351,29,5,4,English,m,0,0.0,-62.23082525,0.02615808
5cee69353057030001b33fc4,61,1,2024-02-27T10:01:37.113Z,english_246.wav,0,pill,3351,29,5,4,English,m,1,0.1,59.67623932,1.52596932
5cee69353057030001b33fc4,61,1,2024-02-27T10:01:37.113Z,english_246.wav,0,pill,3351,29,5,4,English,m,2,0.2,-63.30715513,1.87080553
5cee69353057030001b33fc4,61,1,2024-02-27T10:01:37.113Z,english_246.wav,0,pill,3351,29,5,4,English,m,3,0.3,15.41118057,0.81226596
5cee69353057030001b33fc4,61,1,2024-02-27T10:01:37.113Z,english_246.wav,0,pill,3351,29,5,4,English,m,4,0.32341667,90.60814582,0.64975072
5cee69353057030001b33fc4,62,1,2024-02-27T10:01:37.113Z,english_508.wav,0,peel,223,29,5,4,English,m,0,0.0,-21.23116318,1.79614382
5cee69353057030001b33fc4,62,1,2024-02-27T10:01:37.113Z,english_508.wav,0,peel,223,29,5,4,English,m,1,0.1,-27.56583205,0.60449395
5cee69353057030001b33fc4,62,1,2024-02-27T10:01:37.113Z,english_508.wav,0,peel,223,29,5,4,English,m,2,0.2,64.21774851,0.56582153
5cee69353057030001b33fc4,62,1,2024-02-27T10:01:37.113Z,english_508.wav,0,peel,223,29,5,4,English,m,3,0.3,-9.24056951,1.01665474
5cee69353057030001b33fc4,62,1,2024-02-27T10:01:37.113Z,english_508.wav,0,peel,223,29,5,4,English,m,4,0.32341667,-9.74670904,0.78905044
5cee69353057030001b33fc4,63,1,2024-02-27T10:01:37.113Z,english_964.wav,0,peel,1043,29,5,4,English,m,0,0.0,11.04708611,0.74384055
5cee69353057030001b33fc4,63,1,2024-02-27T10:01:37.113Z,english_964.wav,0,peel,1043,29,5,4,English,m,1,0.1,-10.67848967,0.46038505
5cee69353057030001b33fc4,63,1,2024-02-27T10:01:37.113Z,english_964.wav,0,peel,1043,29,5,4,English,m,2,0.2,64.95328634,0.80934661
5cee69353057030001b33fc4,63,1,2024-02-27T10:01:37.113Z,english_964.wav,0,peel,1043,29,5,4,English,m,3,0.3,-78.10341524,1.94282647
5cee69353057030001b33fc4,63,1,2024-02-27T10:01:37.113Z,english_964.wav,0,peel,1043,29,5,4,English,m,4,0.32341667,-48.61651995,1.99482071
5cee69353057030001b33fc4,64,1,2024-02-27T10:01:37.113Z,english_758.wav,0,peel,221,29,5,4,English,m,0,0.0,-56.29380511,1.72966744
5cee69353057030001b33fc4,64,1,2024-02-27T10:01:37.113Z,english_758.wav,0,peel,221,29,5,4,English,m,1,0.1,1.29517397,1.20455484
5cee69353057030001b33fc4,64,1,2024-02-27T10:01:37.113Z,english_758.wav,0,peel,221,29,5,4,English,m,2,0.2,49.77366466,0.98441853
5cee69353057030001b33fc4,64,1,2024-02-27T10:01:37.113Z,english_758.wav,0,peel,221,29,5,4,English,m,3,0.3,51.49077837,0.78323536
5cee69353057030001b33fc4,64,1,2024-02-27T10:01:37.113Z,english_758.wav,0,peel,221,29,5,4,English,m,4,0.32341667,80.19813303,1.88107652
5cee69353057030001b33fc4,65,1,2024-02-27T10:01:37.113Z,english_555.wav,0,peel,98,29,5,4,English,m,0,0.0,69.49762262,1.08530069
5cee69353057030001b33fc4,65,1,2024-02-27T10:01:37.113Z,english_555.wav,0,peel,98,29,5,4,English,m,1,0.1,42.72159746,0.99979939
5cee69353057030001b33fc4,65,1,2024-02-27T10:01:37.113Z,english_555.wav,0,peel,98,29,5,4,English,m,2,0.2,96.74773092,1.75882447
5cee69353057030001b33fc4,65,1,2024-02-27T10:01:37.113Z,english_555.wav,0,peel,98,29,5,4,English,m,3,0.3,-27.92411753,1.36775981
5cee69353057030001b33fc4,65,1,2024-02-27T10:01:37.113Z,english_555.wav,0,peel,98,29,5,4,English,m,4,0.32341667,33.93273626,0.90104071
5cee69353057030001b33fc4,66,1,2024-02-27T10:01:37.113Z,english_342.wav,0,peel,307,29,5,4,English,m,0,0.0,78.00911228,0.99673345
5cee69353057030001b33fc4,66,1,2024-02-27T10:01:37.113Z,english_342.wav,0,peel,307,29,5,4,English,m,1,0.1,-28.67768894,1.80563483
5cee69353057030001b33fc4,66,1,2024-02-27T10:01:37.113Z,english_342.wav,0,peel,307,29,5,4,English,m,2,0.2,73.55618202,1.38552336
5cee69353057030001b33fc4,66,1,2024-02-27T10:01:37.113Z,english_342.wav,0,peel,307,29,5,4,English,m,3,0.3,93.0509223,0.17145116
5cee69353057030001b33fc4,66,1,2024-02-27T10:01:37.113Z,english_342.wav,0,peel,307,29,5,4,English,m,4,0.32341667,-2.74816459,0.15059009
5cee69353057030001b33fc4,67,1,2024-02-27T10:01:37.113Z,english_88.wav,0,peel,228,29,5,4,English,m,0,0.0,26.55889683,1.3027014
5cee69353057030001b33fc4,67,1,2024-02-27T10:01:37.113Z,english_88.wav,0,peel,228,29,5,4,English,m,1,0.1,31.00356365,0.67122251
5cee69353057030001b33fc4,67,1,2024-02-27T10:01:37.113Z,english_88.wav,0,peel,228,29,5,4,English,m,2,0.2,-60.56468942,0.59704477
5cee69353057030001b33fc4,67,1,2024-02-27T10:01:37.113Z,english_88.wav,0,peel,228,29,5,4,English,m,3,0.3,-56.53017227,1.68194373
5cee69353057030001b33fc4,67,1,2024-02-27T10:01:37.113Z,english_88.wav,0,peel,228,29,5,4,English,m,4,0.32341667,-78.90279024,0.42277005
5cee69353057030001b33fc4,68,1,2024-02-27T10:01:37.113Z,english_4.wav,0,peel,602,29,5,4,English,m,0,0.0,97.57442054,1.3122383
5cee69353057030001b33fc4,68,1,2024-02-27T10:01:37.113Z,english_4.wav,0,peel,602,29,5,4,English,m,1,0.1,57.41970729,1.27661748
5cee69353057030001b33fc4,68,1,2024-02-27T10:01:37.113Z,english_4.wav,0,peel,602,29,5,4,English,m,2,0.2,32.67065062,1.16138222
5cee69353057030001b33fc4,68,1,2024-02-27T10:01:37.113Z,english_4.wav,0,peel,602,29,5,4,English,m,3,0.3,34.06011343,0.34510216
5cee69353057030001b33fc4,68,1,2024-02-27T10:01:37.113Z,english_4.wav,0,peel,602,29,5,4,English,m,4,0.32341667,83.59797788,1.84938224
5cee69353057030001b33fc4,69,1,2024-02-27T10:01:37.113Z,english_626.wav,0,peel,184,29,5,4,English,m,0,0.0,4.25415757,0.7037323
5cee69353057030001b33fc4,69,1,2024-02-27T10:01:37.113Z,english_626.wav,0,peel,184,29,5,4,English,m,1,0.1,-41.27415217,1.26912647
5cee69353057030001b33fc4,69,1,2024-02-27T10:01:37.113Z,english_626.wav,0,peel,184,29,5,4,English,m,2,0.2,-74.74598363,0.17760594
5cee69353057030001b33fc4,69,1,2024-02-27T10:01:37.113Z,english_626.wav,0,peel,184,29,5,4,English,m,3,0.3,-15.94741517,1.12963497
5cee69353057030001b33fc4,69,1,2024-02-27T10:01:37.113Z,english_626.wav,0,peel,184,29,5,4,English,m,4,0.32341667,43.51897949,0.85087029
5cee69353057030001b33fc4,70,1,2024-02-27T10:01:37.113Z,english_723.wav,0,peel,199,29,5,4,English,m,0,0.0,-85.17156731,1.02541656
5cee69353057030001b33fc4,70,1,2024-02-27T10:01:37.113Z,english_723.wav,0,peel,199,29,5,4,English,m,1,0.1,92.93654667,0.92088513
5cee69353057030001b33fc4,70,1,2024-02-27T10:01:37.113Z,english_723.wav,0,peel,199,29,5,4,English,m,2,0.2,-28.89042756,0.78256854
5cee69353057030001b33fc4,70,1,2024-02-27T10:01:37.113Z,english_723.wav,0,peel,199,29,5,4,English,m,3,0.3,36.79914563,1.22887413
5cee69353057030001b33fc4,70,1,2024-02-27T10:01:37.113Z,english_723.wav,0,peel,199,29,5,4,English,m,4,0.32341667,6.86426773,1.77193963
5cee69353057030001b33fc4,71,1,2024-02-27T10:01:37.113Z,english_564.wav,0,peel,472,29,5,4,English,m,0,0.0,-4.16228192,1.35245187
5cee69353057030001b33fc4,71,1,2024-02-27T10:01:37.113Z,english_564.wav,0,peel,472,29,5,4,English,m,1,0.1,-8.38376801,0.24798142
5cee69353057030001b33fc4,71,1,2024-02-27T10:01:37.113Z,english_564.wav,0,peel,472,29,5,4,English,m,2,0.2,52.82752554,1.26376743
5cee69353057030001b33fc4,71,1,2024-02-27T10:01:37.113Z,english_564.wav,0,peel,472,29,5,4,English,m,3,0.3,-92.64870354,0.73548171
5cee69353057030001b33fc4,71,1,2024-02-27T10:01:37.113Z,english_564.wav,0,peel,472,29,5,4,English,m,4,0.32341667,-48.86146536,0.1394123
5cee69353057030001b33fc4,72,1,2024-02-27T10:01:37.113Z,english_969.wav,0,peel,743,29,5,4,English,m,0,0.0,0.27440165,1.49550116
5cee69353057030001b33fc4,72,1,2024-02-27T10:01:37.113Z,english_969.wav,0,peel,743,29,5,4,English,m,1,0.1,32.90941676,1.08086357
5cee69353057030001b33fc4,72,1,2024-02-27T10:01:37.113Z,english_969.wav,0,peel,743,29,5,4,English,m,2,0.2,65.54691775,0.25687245
5cee69353057030001b33fc4,72,1,2024-02-27T10:01:37.113Z,english_969.wav,0,peel,743,29,5,4,English,m,3,0.3,38.11090315,0.33107225
5cee69353057030001b33fc4,72,1,2024-02-27T10:01:37.113Z,english_969.wav,0,peel,743,29,5,4,English,m,4,0.32341667,-66.49311905,0.72842933
5cee69353057030001b33fc4,73,1,2024-02-27T10:01:37.113Z,english_244.wav,0,peel,222,29,5,4,English,m,0,0.0,-70.20374383,1.65134166
5cee69353057030001b33fc4,73,1,2024-02-27T10:01:37.113Z,english_244.wav,0,peel,222,29,5,4,English,m,1,0.1,67.84882107,1.23738837
5cee69353057030001b33fc4,73,1,2024-02-27T10:01:37.113Z,english_244.wav,0,peel,222,29,5,4,English,m,2,0.2,0.61676271,0.90147553
5cee69353057030001b33fc4,73,1,2024-02-27T10:01:37.113Z,english_244.wav,0,peel,222,29,5,4,English,m,3,0.3,-96.58934439,1.79293216
5cee69353057030001b33fc4,73,1,2024-02-27T10:01:37.113Z,english_244.wav,0,peel,222,29,5,4,English,m,4,0.32341667,-77.46985837,1.15013727
5cee69353057030001b33fc4,74,1,2024-02-27T10:01:37.113Z,english_634.wav,0,peel,582,29,5,4,English,m,0,0.0,-94.29539956,0.6011183
5cee69353057030001b33fc4,74,1,2024-02-27T10:01:37.113Z,english_634.wav,0,peel,582,29,5,4,English,m,1,0.1,28.41708136,1.15242669
5cee69353057030001b33fc4,74,1,2024-02-27T10:01:37.113Z,english_634.wav,0,peel,582,29,5,4,English,m,2,0.2,-99.13935281,0.68826906
5cee69353057030001b33fc4,74,1,2024-02-27T10:01:37.113Z,english_634.wav,0,peel,582,29,5,4,English,m,3,0.3,-78.11216949,1.44169335
5cee69353057030001b33fc4,74,1,2024-02-27T10:01:37.113Z,english_634.wav,0,peel,582,29,5,4,English,m,4,0.32341667,-54.5881907,0.90266094
5cee69353057030001b33fc4,75,1,2024-02-27T10:01:37.113Z,english_930.wav,0,peel,645,29,5,4,English,m,0,0.0,-52.65701122,0.60066533
5cee69353057030001b33fc4,75,1,2024-02-27T10:01:37.113Z,english_930.wav,0,peel,645,29,5,4,English,m,1,0.1,-24.36484499,1.33650528
5cee69353057030001b33fc4,75,1,2024-02-27T10:01:37.113Z,english_930.wav,0,peel,645,29,5,4,English,m,2,0.2,4.10813066,0.15979886
5cee69353057030001b33fc4,75,1,2024-02-27T10:01:37.113Z,english_930.wav,0,peel,645,29,5,4,English,m,3,0.3,93.74919515,1.46288505
5cee69353057030001b33fc4,75,1,2024-02-27T10:01:37.113Z,english_930.wav,0,peel,645,29,5,4,English,m,4,0.32341667,66.31726896,0.93993915
5cee69353057030001b33fc4,76,1,2024-02-27T10:01:37.113Z,english_732.wav,0,peel,326,29,5,4,English,m,0,0.0,-12.49530298,1.28394154
5cee69353057030001b33fc4,76,1,2024-02-27T10:01:37.113Z,english_732.wav,0,peel,326,29,5,4,English,m,1,0.1,77.35683448,1.95772399
5cee69353057030001b33fc4,76,1,2024-02-27T10:01:37.113Z,english_732.wav,0,peel,326,29,5,4,English,m,2,0.2,46.14200593,1.14408971
5cee69353057030001b33fc4,76,1,2024-02-27T10:01:37.113Z,english_732.wav,0,peel,326,29,5,4,English,m,3,0.3,-17.19403126,0.21034957
5cee69353057030001b33fc4,76,1,2024-02-27T10:01:37.113Z,english_732.wav,0,peel,326,29,5,4,English,m,4,0.32341667,-81.60069167,0.50538316
5cee69353057030001b33fc4,77,1,2024-02-27T10:01:37.113Z,english_414.wav,0,peel,147,29,5,4,English,m,0,0.0,19.47839865,0.9434816
5cee69353057030001b33fc4,77,1,2024-02-27T10:01:37.113Z,english_414.wav,0,peel,147,29,5,4,English,m,1,0.1,59.9490877,1.1146936
5cee69353057030001b33fc4,77,1,2024-02-27T10:01:37.113Z,english_414.wav,0,peel,147,29,5,4,English,m,2,0.2,22.33981162,0.48476454
5cee69353057030001b33fc4,77,1,2024-02-27T10:01:37.113Z,english_414.wav,0,peel,147,29,5,4,English,m,3,0.3,18.97426154,0.23554241
5cee69353057030001b33fc4,77,1,2024-02-27T10:01:37.113Z,english_414.wav,0,peel,147,29,5,4,English,m,4,0.32341667,15.16306506,1.13007685
5cee69353057030001b33fc4,78,1,2024-02-27T10:01:37.113Z,english_842.wav,0,peel,126,29,5,4,English,m,0,0.0,-48.5952207,0.12382156
5cee69353057030001b33fc4,78,1,2024-02-27T10:01:37.113Z,english_842.wav,0,peel,126,29,5,4,English,m,1,0.1,29.19485822,1.75564688
5cee69353057030001b33fc4,78,1,2024-02-27T10:01:37.113Z,english_842.wav,0,peel,126,29,5,4,English,m,2,0.2,84.54328152,0.24815543
5cee69353057030001b33fc4,78,1,2024-02-27T10:01:37.113Z,english_842.wav,0,peel,126,29,5,4,English,m,3,0.3,69.99994667,1.2885643
5cee69353057030001b33fc4,78,1,2024-02-27T10:01:37.113Z,english_842.wav,0,peel,126,29,5,4,English,m,4,0.32341667,56.72069463,0.70518165
5cee69353057030001b33fc4,79,1,2024-02-27T10:01:37.113Z,english_531.wav,0,peel,119,29,5,4,English,m,0,0.0,-79.40575395,0.23141906
5cee69353057030001b33fc4,79,1,2024-02-27T10:01:37.113Z,english_531.wav,0,peel,119,29,5,4,English,m,1,0.1,24.69139357,1.34739197
5cee69353057030001b33fc4,79,1,2024-02-27T10:01:37.113Z,english_531.wav,0,peel,119,29,5,4,English,m,2,0.2,31.85465478,0.44473315
5cee69353057030001b33fc4,79,1,2024-02-27T10:01:37.113Z,english_531.wav,0,peel,119,29,5,4,English,m,3,0.3,0.37788074,1.31624907
5cee69353057030001b33fc4,79,1,2024-02-27T10:01:37.113Z,english_531.wav,0,peel,119,29,5,4,English,m,4,0.32341667,-42.85922685,0.82105614
5cee69353057030001b33fc4,80,1,2024-02-27T10:01:37.113Z,english_580.wav,0,peel,203,29,5,4,English,m,0,0.0,92.13406767,1.93694744
5cee69353057030001b33fc4,80,1,2024-02-27T10:01:37.113Z,english_580.wav,0,peel,203,29,5,4,English,m,1,0.1,-85.58685866,0.28773753
5cee69353057030001b33fc4,80,1,2024-02-27T10:01:37.113Z,english_580.wav,0,peel,203,29,5,4,English,m,2,0.2,57.10945482,0.86433335
5cee69353057030001b33fc4,80,1,2024-02-27T10:01:37.113Z,english_580.wav,0,peel,203,29,5,4,English,m,3,0.3,32.92004132,0.96651265
5cee69353057030001b33fc4,80,1,2024-02-27T10:01:37.113Z,english_580.wav,0,peel,203,29,5,4,English,m,4,0.32341667,52.08708517,1.25003658
5cee69353057030001b33fc4,81,1,2024-02-27T10:01:37.113Z,english_575.wav,0,peel,7,29,5,4,English,m,0,0.0,61.73461998,1.8510319
5cee69353057030001b33fc4,81,1,2024-02-27T10:01:37.113Z,english_575.wav,0,peel,7,29,5,4,English,m,1,0.1,-88.57549656,1.54102878
5cee69353057030001b33fc4,81,1,2024-02-27T10:01:37.113Z,english_575.wav,0,peel,7,29,5,4,English,m,2,0.2,-30.88461278,1.19801244
5cee69353057030001b33fc4,81,1,2024-02-27T10:01:37.113Z,english_575.wav,0,peel,7,29,5,4,English,m,3,0.3,-63.73327026,1.20026237
5cee69353057030001b33fc4,81,1,2024-02-27T10:01:37.113Z,english_575.wav,0,peel,7,29,5,4,English,m,4,0.32341667,-0.55806298,1.04112184
5cee69353057030001b33fc4,82,1,2024-02-27T10:01:37.113Z,english_205.wav,0,peel,172,29,5,4,English,m,0,0.0,55.03693902,1.41699591
5cee69353057030001b33fc4,82,1,2024-02-27T10:01:37.113Z,english_205.wav,0,peel,172,29,5,4,English,m,1,0.1,59.05347117,0.25749205
5cee69353057030001b33fc4,82,1,2024-02-27T10:01:37.113Z,english_205.wav,0,peel,172,29,5,4,English,m,2,0.2,-51.93258482,1.78695407
5cee69353057030001b33fc4,82,1,2024-02-27T10:01:37.113Z,english_205.wav,0,peel,172,29,5,4,English,m,3,0.3,-18.66886592,0.11157042
5cee69353057030001b33fc4,82,1,2024-02-27T10:01:37.113Z,english_205.wav,0,peel,172,29,5,4,English,m,4,0.32341667,-25.16213195,1.74030417
5cee69353057030001b33fc4,83,1,2024-02-27T10:01:37.113Z,english_71.wav,0,peel,35,29,5,4,English,m,0,0.0,-89.06637534,0.37218892
5cee69353057030001b33fc4,83,1,2024-02-27T10:01:37.113Z,english_71.wav,0,peel,35,29,5,4,English,m,1,0.1,-28.638437,1.29479557
5cee69353057030001b33fc4,83,1,2024-02-27T10:01:37.113Z,english_71.wav,0,peel,35,29,5,4,English,m,2,0.2,-8.31899436,1.34818575
5cee69353057030001b33fc4,83,1,2024-02-27T10:01:37.113Z,english_71.wav,0,peel,35,29,5,4,English,m,3,0.3,67.7820648,1.24266832
5cee69353057030001b33fc4,83,1,2024-02-27T10:01:37.113Z,english_71.wav,0,peel,35,29,5,4,English,m,4,0.32341667,4.09606073,1.38884894
5cee69353057030001b33fc4,84,1,2024-02-27T10:01:37.113Z,english_188.wav,0,peel,698,29,5,4,English,m,0,0.0,-13.13088252,0.29227292
5cee69353057030001b33fc4,84,1,2024-02-27T10:01:37.113Z,english_188.wav,0,peel,698,29,5,4,English,m,1,0.1,51.13663316,1.25360943
5cee69353057030001b33fc4,84,1,2024-02-27T10:01:37.113Z,english_188.wav,0,peel,698,29,5,4,English,m,2,0.2,-80.18048506,1.7916357
5cee69353057030001b33fc4,84,1,2024-02-27T10:01:37.113Z,english_188.wav,0,peel,698,29,5,4,English,m,3,0.3,-47.89773773,0.58346705
5cee69353057030001b33fc4,84,1,2024-02-27T10:01:37.113Z,english_188.wav,0,peel,698,29,5,4,English,m,4,0.32341667,-7.0568118,1.77612328
5cee69353057030001b33fc4,85,1,2024-02-27T10:01:37.113Z,english_102.wav,0,peel,512,29,5,4,English,m,0,0.0,32.71328306,1.2311829
5cee69353057030001b33fc4,85,1,2024-02-27T10:01:37.113Z,english_102.wav,0,peel,512,29,5,4,English,m,1,0.1,59.73255369,0.25599615
5cee69353057030001b33fc4,85,1,2024-02-27T10:01:37.113Z,english_102.wav,0,peel,512,29,5,4,English,m,2,0.2,-0.64397298,1.7526023
5cee69353057030001b33fc4,85,1,2024-02-27T10:01:37.113Z,english_102.wav,0,peel,512,29,5,4,English,m,3,0.3,-37.18099902,1.98319627
5cee69353057030001b33fc4,85,1,2024-02-27T10:01:37.113Z,english_102.wav,0,peel,512,29,5,4,English,m,4,0.32341667,41.63197766,1.38410598
5cee69353057030001b33fc4,86,1,2024-02-27T10:01:37.113Z,english_190.wav,0,peel,1325,29,5,4,English,m,0,0.0,81.66607819,0.126715216
5cee69353057030001b33fc4,86,1,2024-02-27T10:01:37.113Z,english_190.wav,0,peel,1325,29,5,4,English,m,1,0.1,-14.16938067,0.000178349903
5cee69353057030001b33fc4,86,1,2024-02-27T10:01:37.113Z,english_190.wav,0,peel,1325,29,5,4,English,m,2,0.2,15.7443745,1.35192229
5cee69353057030001b33fc4,86,1,2024-02-27T10:01:37.113Z,english_190.wav,0,peel,1325,29,5,4,English,m,3,0.3,85.77694093,1.08905811
5cee69353057030001b33fc4,86,1,2024-02-27T10:01:37.113Z,english_190.wav,0,peel,1325,29,5,4,English,m,4,0.32341667,33.21115004,1.75580408
5cee69353057030001b33fc4,87,1,2024-02-27T10:01:37.113Z,english_973.wav,0,peel,951,29,5,4,English,m,0,0.0,67.86183821,1.19015671
5cee69353057030001b33fc4,87,1,2024-02-27T10:01:37.113Z,english_973.wav,0,peel,951,29,5,4,English,m,1,0.1,19.68291271,0.58574514
5cee69353057030001b33fc4,87,1,2024-02-27T10:01:37.113Z,english_973.wav,0,peel,951,29,5,4,English,m,2,0.2,97.35795082,0.11672587
5cee69353057030001b33fc4,87,1,2024-02-27T10:01:37.113Z,english_973.wav,0,peel,951,29,5,4,English,m,3,0.3,-17.83494635,0.43523095
5cee69353057030001b33fc4,87,1,2024-02-27T10:01:37.113Z,english_973.wav,0,peel,951,29,5,4,English,m,4,0.32341667,-53.451809,1.74630461
5cee69353057030001b33fc4,88,1,2024-02-27T10:01:37.113Z,english_743.wav,0,peel,524,29,5,4,English,m,0,0.0,-28.24983145,1.42102626
5cee69353057030001b33fc4,88,1,2024-02-27T10:01:37.113Z,english_743.wav,0,peel,524,29,5,4,English,m,1,0.1,71.30498545,0.84283155
5cee69353057030001b33fc4,88,1,2024-02-27T10:01:37.113Z,english_743.wav,0,peel,524,29,5,4,English,m,2,0.2,-89.00652632,0.82757129
5cee69353057030001b33fc4,88,1,2024-02-27T10:01:37.113Z,english_743.wav,0,peel,524,29,5,4,English,m,3,0.3,3.43441779,1.38808557
5cee69353057030001b33fc4,88,1,2024-02-27T10:01:37.113Z,english_743.wav,0,peel,524,29,5,4,English,m,4,0.32341667,-16.71659348,0.28501565
5cee69353057030001b33fc4,89,1,2024-02-27T10:01:37.113Z,english_908.wav,0,peel,300,29,5,4,English,m,0,0.0,48.62867987,1.27180628
5cee69353057030001b33fc4,89,1,2024-02-27T10:01:37.113Z,english_908.wav,0,peel,300,29,5,4,English,m,1,0.1,15.18588807,0.65893562
5cee69353057030001b33fc4,89,1,2024-02-27T10:01:37.113Z,english_908.wav,0,peel,300,29,5,4,English,m,2,0.2,-42.37345339,1.07678682
5cee69353057030001b33fc4,89,1,2024-02-27T10:01:37.113Z,english_908.wav,0,peel,300,29,5,4,English,m,3,0.3,10.74033392,1.66111239
5cee69353057030001b33fc4,89,1,2024-02-27T10:01:37.113Z,english_908.wav,0,peel,300,29,5,4,English,m,4,0.32341667,-40.14378972,0.30218678
5cee69353057030001b33fc4,90,1,2024-02-27T10:01:37.113Z,english_484.wav,0,peel,310,29,5,4,English,m,0,0.0,79.97188672,0.20745104
5cee69353057030001b33fc4,90,1,2024-02-27T10:01:37.113Z,english_484.wav,0,peel,310,29,5,4,English,m,1,0.1,-84.58904822,1.46214797
5cee69353057030001b33fc4,90,1,2024-02-27T10:01:37.113Z,english_484.wav,0,peel,310,29,5,4,English,m,2,0.2,70.2960477,0.40821612
5cee69353057030001b33fc4,90,1,2024-02-27T10:01:37.113Z,english_484.wav,0,peel,310,29,5,4,English,m,3,0.3,-66.44520929,1.23203415
5cee69353057030001b33fc4,90,1,2024-02-27T10:01:37.113Z,english_484.wav,0,peel,310,29,5,4,English,m,4,0.32341667,-78.91715359,1.26593617
5cee69353057030001b33fc4,91,1,2024-02-27T10:01:37.113Z,english_893.wav,0,peel,257,29,5,4,English,m,0,0.0,17.19699967,0.82427167
5cee69353057030001b33fc4,91,1,2024-02-27T10:01:37.113Z,english_893.wav,0,peel,257,29,5,4,English,m,1,0.1,57.52525856,1.49866988
5cee69353057030001b33fc4,91,1,2024-02-27T10:01:37.113Z,english_893.wav,0,peel,257,29,5,4,English,m,2,0.2,13.30661706,0.84536161
5cee69353057030001b33fc4,91,1,2024-02-27T10:01:37.113Z,english_893.wav,0,peel,257,29,5,4,English,m,3,0.3,33.02687073,0.10168024
5cee69353057030001b33fc4,91,1,2024-02-27T10:01:37.113Z,english_893.wav,0,peel,257,29,5,4,English,m,4,0.32341667,-64.43392463,0.7117056
5cee69353057030001b33fc4,92,1,2024-02-27T10:01:37.113Z,english_855.wav,0,peel,91,29,5,4,English,m,0,0.0,27.89321206,0.30262259
5cee69353057030001b33fc4,92,1,2024-02-27T10:01:37.113Z,english_855.wav,0,peel,91,29,5,4,English,m,1,0.1,-46.00582393,1.40968126
5cee69353057030001b33fc4,92,1,2024-02-27T10:01:37.113Z,english_855.wav,0,peel,91,29,5,4,English,m,2,0.2,35.37102385,0.80904714
5cee69353057030001b33fc4,92,1,2024-02-27T10:01:37.113Z,english_855.wav,0,peel,91,29,5,4,English,m,3,0.3,-58.73762704,1.48943687
5cee69353057030001b33fc4,92,1,2024-02-27T10:01:37.113Z,english_855.wav,0,peel,91,29,5,4,English,m,4,0.32341667,-46.78314799,1.29572868
5cee69353057030001b33fc4,93,1,2024-02-27T10:01:37.113Z,english_948.wav,0,peel,84,29,5,4,English,m,0,0.0,12.28616187,1.33435242
5cee69353057030001b33fc4,93,1,2024-02-27T10:01:37.113Z,english_948.wav,0,peel,84,29,5,4,English,m,1,0.1,33.44634687,1.33862855
5cee69353057030001b33fc4,93,1,2024-02-27T10:01:37.113Z,english_948.wav,0,peel,84,29,5,4,English,m,2,0.2,98.80566767,1.25876505
5cee69353057030001b33fc4,93,1,2024-02-27T10:01:37.113Z,english_948.wav,0,peel,84,29,5,4,English,m,3,0.3,-93.57044844,1.87938727
5cee69353057030001b33fc4,93,1,2024-02-27T10:01:37.113Z,english_948.wav,0,peel,84,29,5,4,English,m,4,0.32341667,-51.09398555,1.88731406
5cee69353057030001b33fc4,94,1,2024-02-27T10:01:37.113Z,english_667.wav,0,peel,151,29,5,4,English,m,0,0.0,-36.96649028,1.3014101
5cee69353057030001b33fc4,94,1,2024-02-27T10:01:37.113Z,english_667.wav,0,peel,151,29,5,4,English,m,1,0.1,9.08709827,0.05882523
5cee69353057030001b33fc4,94,1,2024-02-27T10:01:37.113Z,english_667.wav,0,peel,151,29,5,4,English,m,2,0.2,85.36553945,1.428997
5cee69353057030001b33fc4,94,1,2024-02-27T10:01:37.113Z,english_667.wav,0,peel,151,29,5,4,English,m,3,0.3,-41.19556041,1.2429303
5cee69353057030001b33fc4,94,1,2024-02-27T10:01:37.113Z,english_667.wav,0,peel,151,29,5,4,English,m,4,0.32341667,-31.79783786,0.97363261
5cee69353057030001b33fc4,95,1,2024-02-27T10:01:37.113Z,english_96.wav,0,peel,304,29,5,4,English,m,0,0.0,-2.60251168,1.33849038
5cee69353057030001b33fc4,95,1,2024-02-27T10:01:37.113Z,english_96.wav,0,peel,304,29,5,4,English,m,1,0.1,3.1808695,1.03790095
5cee69353057030001b33fc4,95,1,2024-02-27T10:01:37.113Z,english_96.wav,0,peel,304,29,5,4,English,m,2,0.2,-93.89625608,0.32730996
5cee69353057030001b33fc4,95,1,2024-02-27T10:01:37.113Z,english_96.wav,0,peel,304,29,5,4,English,m,3,0.3,22.03695444,1.15118519
5cee69353057030001b33fc4,95,1,2024-02-27T10:01:37.113Z,english_96.wav,0,peel,304,29,5,4,English,m,4,0.32341667,89.13776591,1.37996061
5cee69353057030001b33fc4,96,1,2024-02-27T10:01:37.113Z,english_149.wav,0,peel,138,29,5,4,English,m,0,0.0,84.22842235,1.59516341
5cee69353057030001b33fc4,96,1,2024-02-27T10:01:37.113Z,english_149.wav,0,peel,138,29,5,4,English,m,1,0.1,-27.4405272,0.66089578
5cee69353057030001b33fc4,96,1,2024-02-27T10:01:37.113Z,english_149.wav,0,peel,138,29,5,4,English,m,2,0.2,-61.08664731,1.85372623
5cee69353057030001b33fc4,96,1,2024-02-27T10:01:37.113Z,english_149.wav,0,peel,138,29,5,4,English,m,3,0.3,-73.42064763,1.25159901
5cee69353057030001b33fc4,96,1,2024-02-27T10:01:37.113Z,english_149.wav,0,peel,138,29,5,4,English,m,4,0.32341667,74.80057547,1.10687529
5cee69353057030001b33fc4,97,1,2024-02-27T10:01:37.113Z,english_17.wav,0,peel,172,29,5,4,English,m,0,0.0,54.20763778,0.24306789
5cee69353057030001b33fc4,97,1,2024-02-27T10:01:37.113Z,english_17.wav,0,peel,172,29,5,4,English,m,1,0.1,56.90002318,0.93194053
5cee69353057030001b33fc4,97,1,2024-02-27T10:01:37.113Z,english_17.wav,0,peel,172,29,5,4,English,m,2,0.2,53.34795505,0.70954885
5cee69353057030001b33fc4,97,1,2024-02-27T10:01:37.113Z,english_17.wav,0,peel,172,29,5,4,English,m,3,0.3,-49.04179277,1.57385934
5cee69353057030001b33fc4,97,1,2024-02-27T10:01:37.113Z,english_17.wav,0,peel,172,29,5,4,English,m,4,0.32341667,-46.12718147,1.28258365
5cee69353057030001b33fc4,98,1,2024-02-27T10:01:37.113Z,english_316.wav,0,peel,814,29,5,4,English,m,0,0.0,57.83477319,0.36818456
5cee69353057030001b33fc4,98,1,2024-02-27T10:01:37.113Z,english_316.wav,0,peel,814,29,5,4,English,m,1,0.1,-58.77664409,0.44097806
5cee69353057030001b33fc4,98,1,2024-02-27T10:01:37.113Z,english_316.wav,0,peel,814,29,5,4,English,m,2,0.2,-11.91657597,0.11283472
5cee69353057030001b33fc4,98,1,2024-02-27T10:01:37.113Z,english_316.wav,0,peel,814,29,5,4,English,m,3,0.3,34.77508847,1.48283273
5cee69353057030001b33fc4,98,1,2024-02-27T10:01:37.113Z,english_316.wav,0,peel,814,29,5,4,English,m,4,0.32341667,-82.62529931,0.30363046
5cee69353057030001b33fc4,99,1,2024-02-27T10:01:37.113Z,english_992.wav,0,peel,327,29,5,4,English,m,0,0.0,-6.68189934,0.46848529
5cee69353057030001b33fc4,99,1,2024-02-27T10:01:37.113Z,english_992.wav,0,peel,327,29,5,4,English,m,1,0.1,78.76679047,0.9874556
5cee69353057030001b33fc4,99,1,2024-02-27T10:01:37.113Z,english_992.wav,0,peel,327,29,5,4,English,m,2,0.2,-58.5917679,0.57881803
5cee69353057030001b33fc4,99,1,2024-02-27T10:01:37.113Z,english_992.wav,0,peel,327,29,5,4,English,m,3,0.3,-98.64651588,0.88425299
5cee69353057030001b33fc4,99,1,2024-02-27T10:01:37.113Z,english_992.wav,0,peel,327,29,5,4,English,m,4,0.32341667,73.76402904,0.6994588
5cee69353057030001b33fc4,100,2,2024-02-27T10:03:20.113Z,english_239.wav,0,peel,396,29,5,4,English,m,0,0.0,87.44943986,1.42022081
5cee69353057030001b33fc4,100,2,2024-02-27T10:03:20.113Z,english_239.wav,0,peel,396,29,5,4,English,m,1,0.1,50.09814929,0.64261102
5cee69353057030001b33fc4,100,2,2024-02-27T10:03:20.113Z,english_239.wav,0,peel,396,29,5,4,English,m,2,0.2,-20.91132269,0.17156284
5cee69353057030001b33fc4,100,2,2024-02-27T10:03:20.113Z,english_239.wav,0,peel,396,29,5,4,English,m,3,0.3,1.56869958,1.89365974
5cee69353057030001b33fc4,100,2,2024-02-27T10:03:20.113Z,english_239.wav,0,peel,396,29,5,4,English,m,4,0.32341667,15.23790706,1.86939691
5cee69353057030001b33fc4,101,2,2024-02-27T10:03:20.113Z,english_654.wav,0,peel,284,29,5,4,English,m,0,0.0,-97.13147194,0.91673578
5cee69353057030001b33fc4,101,2,2024-02-27T10:03:20.113Z,english_654.wav,0,peel,284,29,5,4,English,m,1,0.1,-81.37819023,1.23280851
5cee69353057030001b33fc4,101,2,2024-02-27T10:03:20.113Z,english_654.wav,0,peel,284,29,5,4,English,m,2,0.2,51.48571278,1.64688363
5cee69353057030001b33fc4,101,2,2024-02-27T10:03:20.113Z,english_654.wav,0,peel,284,29,5,4,English,m,3,0.3,54.00949099,1.75994168
5cee69353057030001b33fc4,101,2,2024-02-27T10:03:20.113Z,english_654.wav,0,peel,284,29,5,4,English,m,4,0.32341667,-95.1633683,0.20104411
5cee69353057030001b33fc4,102,2,2024-02-27T10:03:20.113Z,english_962.wav,0,peel,397,29,5,4,English,m,0,0.0,-55.512918,1.78332996
5cee69353057030001b33fc4,102,2,2024-02-27T10:03:20.113Z,english_962.wav,0,peel,397,29,5,4,English,m,1,0.1,90.34773129,1.25956614
5cee69353057030001b33fc4,102,2,2024-02-27T10:03:20.113Z,english_962.wav,0,peel,397,29,5,4,English,m,2,0.2,-3.10818459,0.72891593
5cee69353057030001b33fc4,102,2,2024-02-27T10:03:20.113Z,english_962.wav,0,peel,397,29,5,4,English,m,3,0.3,50.27619033,1.49954356
5cee69353057030001b33fc4,102,2,2024-02-27T10:03:20.113Z,english_962.wav,0,peel,397,29,5,4,English,m,4,0.32341667,-47.3196173,0.96339983
5cee69353057030001b33fc4,103,2,2024-02-27T10:03:20.113Z,english_637.wav,0,peel,257,29,5,4,English,m,0,0.0,-1.71458324,1.21739028
5cee69353057030001b33fc4,103,2,2024-02-27T10:03:20.113Z,english_637.wav,0,peel,257,29,5,4,English,m,1,0.1,-8.03758275,0.51882016
5cee69353057030001b33fc4,103,2,2024-02-27T10:03:20.113Z,english_637.wav,0,peel,257,29,5,4,English,m,2,0.2,-8.49550443,1.63519413
5cee69353057030001b33fc4,103,2,2024-02-27T10:03:20.113Z,english_637.wav,0,peel,257,29,5,4,English,m,3,0.3,-8.27727969,1.34863813
5cee69353057030001b33fc4,103,2,2024-02-27T10:03:20.113Z,english_637.wav,0,peel,257,29,5,4,English,m,4,0.32341667,64.42471467,1.93003029
5cee69353057030001b33fc4,104,2,2024-02-27T10:03:20.113Z,english_965.wav,0,peel,147,29,5,4,English,m,0,0.0,-19.49526798,1.71910172
5cee69353057030001b33fc4,104,2,2024-02-27T10:03:20.113Z,english_965.wav,0,peel,147,29,5,4,English,m,1,0.1,-33.46093545,1.16323176
5cee69353057030001b33fc4,104,2,2024-02-27T10:03:20.113Z,english_965.wav,0,peel,147,29,5,4,English,m,2,0.2,95.24809114,0.56514201
5cee69353057030001b33fc4,104,2,2024-02-27T10:03:20.113Z,english_965.wav,0,peel,147,29,5,4,English,m,3,0.3,26.23968625,1.82539978
5cee69353057030001b33fc4,104,2,2024-02-27T10:03:20.113Z,english_965.wav,0,peel,147,29,5,4,English,m,4,0.32341667,15.70217089,1.7659451
5cee69353057030001b33fc4,105,2,2024-02-27T10:03:20.113Z,english_331.wav,0,peel,220,29,5,4,English,m,0,0.0,12.66323204,1.93220763
5cee69353057030001b33fc4,105,2,2024-02-27T10:03:20.113Z,english_331.wav,0,peel,220,29,5,4,English,m,1,0.1,-81.78605138,1.48237299
5cee69353057030001b33fc4,105,2,2024-02-27T10:03:20.113Z,english_331.wav,0,peel,220,29,5,4,English,m,2,0.2,59.07546792,1.15413743
5cee69353057030001b33fc4,105,2,2024-02-27T10:03:20.113Z,english_331.wav,0,peel,220,29,5,4,English,m,3,0.3,-83.73170191,1.02182823
5cee69353057030001b33fc4,105,2,2024-02-27T10:03:20.113Z,english_331.wav,0,peel,220,29,5,4,English,m,4,0.32341667,3.10587362,0.81670354
5cee69353057030001b33fc4,106,2,2024-02-27T10:03:20.113Z,english_468.wav,0,peel,327,29,5,4,English,m,0,0.0,-33.82586043,0.35164089
5cee69353057030001b33fc4,106,2,2024-02-27T10:03:20.113Z,english_468.wav,0,peel,327,29,5,4,English,m,1,0.1,-42.55840131,0.20114733
5cee69353057030001b33fc4,106,2,2024-02-27T10:03:20.113Z,english_468.wav,0,peel,327,29,5,4,English,m,2,0.2,-36.6492295,1.40729654
5cee69353057030001b33fc4,106,2,2024-02-27T10:03:20.113Z,english_468.wav,0,peel,327,29,5,4,English,m,3,0.3,39.91321296,0.04300573
5cee69353057030001b33fc4,106,2,2024-02-27T10:03:20.113Z,english_468.wav,0,peel,327,29,5,4,English,m,4,0.32341667,54.14936319,1.79642733
5cee69353057030001b33fc4,107,2,2024-02-27T10:03:20.113Z,english_256.wav,0,peel,185,29,5,4,English,m,0,0.0,22.60769813,1.84037168
5cee69353057030001b33fc4,107,2,2024-02-27T10:03:20.113Z,english_256.wav,0,peel,185,29,5,4,English,m,1,0.1,-95.01444593,0.47687766
5cee69353057030001b33fc4,107,2,2024-02-27T10:03:20.113Z,english_256.wav,0,peel,185,29,5,4,English,m,2,0.2,-19.91310746,0.85339151
5cee69353057030001b33fc4,107,2,2024-02-27T10:03:20.113Z,english_256.wav,0,peel,185,29,5,4,English,m,3,0.3,-6.39209363,0.75097161
5cee69353057030001b33fc4,107,2,2024-02-27T10:03:20.113Z,english_256.wav,0,peel,185,29,5,4,English,m,4,0.32341667,24.02209282,1.98695073
5cee69353057030001b33fc4,108,2,2024-02-27T10:03:20.113Z,english_716.wav,0,peel,80,29,5,4,English,m,0,0.0,-41.01159081,1.70683796
5cee69353057030001b33fc4,108,2,2024-02-27T10:03:20.113Z,english_716.wav,0,peel,80,29,5,4,English,m,1,0.1,-51.78631031,1.57787804
5cee69353057030001b33fc4,108,2,2024-02-27T10:03:20.113Z,english_716.wav,0,peel,80,29,5,4,English,m,2,0.2,-25.7252513,1.76538287
5cee69353057030001b33fc4,108,2,2024-02-27T10:03:20.113Z,english_716.wav,0,peel,80,29,5,4,English,m,3,0.3,78.18950514,1.34280163
5cee69353057030001b33fc4,108,2,2024-02-27T10:03:20.113Z,english_716.wav,0,peel,80,29,5,4,English,m,4,0.32341667,-26.78025651,1.89346788
5cee69353057030001b33fc4,109,2,2024-02-27T10:03:20.113Z,english_712.wav,0,peel,474,29,5,4,English,m,0,0.0,-69.83835125,1.15670948
5cee69353057030001b33fc4,109,2,2024-02-27T10:03:20.113Z,english_712.wav,0,peel,474,29,5,4,English,m,1,0.1,-89.98535393,0.40201287
5cee69353057030001b33fc4,109,2,2024-02-27T10:03:20.113Z,english_712.wav,0,peel,474,29,5,4,English,m,2,0.2,47.33040466,0.06412681
5cee69353057030001b33fc4,109,2,2024-02-27T10:03:20.113Z,english_712.wav,0,peel,474,29,5,4,English,m,3,0.3,-32.03166139,1.50973484
5cee69353057030001b33fc4,109,2,2024-02-27T10:03:20.113Z,english_712.wav,0,peel,474,29,5,4,English,m,4,0.32341667,-5.29851616,1.18377017
5cee69353057030001b33fc4,110,2,2024-02-27T10:03:20.113Z,english_859.wav,0,peel,1773,29,5,4,English,m,0,0.0,71.31858369,0.11764496
5cee69353057030001b33fc4,110,2,2024-02-27T10:03:20.113Z,english_859.wav,0,peel,1773,29,5,4,English,m,1,0.1,-33.60875554,0.29827778
5cee69353057030001b33fc4,110,2,2024-02-27T10:03:20.113Z,english_859.wav,0,peel,1773,29,5,4,English,m,2,0.2,-64.15502461,0.43254339
5cee69353057030001b33fc4,110,2,2024-02-27T10:03:20.113Z,english_859.wav,0,peel,1773,29,5,4,English,m,3,0.3,-36.22537369,0.12368506
5cee69353057030001b33fc4,110,2,2024-02-27T10:03:20.113Z,english_859.wav,0,peel,1773,29,5,4,English,m,4,0.32341667,-23.59955866,0.97858169
5cee69353057030001b33fc4,111,2,2024-02-27T10:03:20.113Z,english_807.wav,0,peel,131,29,5,4,English,m,0,0.0,-70.27095807,1.48455572
5cee69353057030001b33fc4,111,2,2024-02-27T10:03:20.113Z,english_807.wav,0,peel,131,29,5,4,English,m,1,0.1,84.77391363,1.24837561
5cee69353057030001b33fc4,111,2,2024-02-27T10:03:20.113Z,english_807.wav,0,peel,131,29,5,4,English,m,2,0.2,-27.52537388,0.77726095
5cee69353057030001b33fc4,111,2,2024-02-27T10:03:20.113Z,english_807.wav,0,peel,131,29,5,4,English,m,3,0.3,36.82986288,1.65388598
5cee69353057030001b33fc4,111,2,2024-02-27T10:03:20.113Z,english_807.wav,0,peel,131,29,5,4,English,m,4,0.32341667,16.63983573,1.10343216
5cee69353057030001b33fc4,112,2,2024-02-27T10:03:20.113Z,english_333.wav,0,peel,152,29,5,4,English,m,0,0.0,61.26933292,0.50090252
5cee69353057030001b33fc4,112,2,2024-02-27T10:03:20.113Z,english_333.wav,0,peel,152,29,5,4,English,m,1,0.1,38.65533839,1.61630161
5cee69353057030001b33fc4,112,2,2024-02-27T10:03:20.113Z,english_333.wav,0,peel,152,29,5,4,English,m,2,0.2,-27.91605269,1.73322278
5cee69353057030001b33fc4,112,2,2024-02-27T10:03:20.113Z,english_333.wav,0,peel,152,29,5,4,English,m,3,0.3,36.00101096,0.67742762
5cee69353057030001b33fc4,112,2,2024-02-27T10:03:20.113Z,english_333.wav,0,peel,152,29,5,4,English,m,4,0.32341667,-78.35943708,0.46993908
5cee69353057030001b33fc4,113,2,2024-02-27T10:03:20.113Z,english_271.wav,0,peel,425,29,5,4,English,m,0,0.0,24.41564841,0.25667552
5cee69353057030001b33fc4,113,2,2024-02-27T10:03:20.113Z,english_271.wav,0,peel,425,29,5,4,English,m,1,0.1,-64.42577909,1.20221217
5cee69353057030001b33fc4,113,2,2024-02-27T10:03:20.113Z,english_271.wav,0,peel,425,29,5,4,English,m,2,0.2,32.27025317,0.24658485
5cee69353057030001b33fc4,113,2,2024-02-27T10:03:20.113Z,english_271.wav,0,peel,425,29,5,4,English,m,3,0.3,58.71212772,1.57844265
5cee69353057030001b33fc4,113,2,2024-02-27T10:03:20.113Z,english_271.wav,0,peel,425,29,5,4,English,m,4,0.32341667,46.7300547,1.00400066
5cee69353057030001b33fc4,114,2,2024-02-27T10:03:20.113Z,english_625.wav,0,peel,412,29,5,4,English,m,0,0.0,25.70847239,1.1960971
5cee69353057030001b33fc4,114,2,2024-02-27T10:03:20.113Z,english_625.wav,0,peel,412,29,5,4,English,m,1,0.1,-37.82303983,0.02795501
5cee69353057030001b33fc4,114,2,2024-02-27T10:03:20.113Z,english_625.wav,0,peel,412,29,5,4,English,m,2,0.2,38.52328891,1.10198652
5cee69353057030001b33fc4,114,2,2024-02-27T10:03:20.113Z,english_625.wav,0,peel,412,29,5,4,English,m,3,0.3,-23.93667478,0.08852642
5cee69353057030001b33fc4,114,2,2024-02-27T10:03:20.113Z,english_625.wav,0,peel,412,29,5,4,English,m,4,0.32341667,-53.98326942,1.59813041
5cee69353057030001b33fc4,115,2,2024-02-27T10:03:20.113Z,english_419.wav,0,peel,420,29,5,4,English,m,0,0.0,74.10926047,0.423980314
5cee69353057030001b33fc4,115,2,2024-02-27T10:03:20.113Z,english_419.wav,0,peel,420,29,5,4,English,m,1,0.1,-50.44969368,1.12483838
5cee69353057030001b33fc4,115,2,2024-02-27T10:03:20.113Z,english_419.wav,0,peel,420,29,5,4,English,m,2,0.2,-38.37630765,0.473465541
5cee69353057030001b33fc4,115,2,2024-02-27T10:03:20.113Z,english_419.wav,0,peel,420,29,5,4,English,m,3,0.3,-57.54140712,0.000838613621
5cee69353057030001b33fc4,115,2,2024-02-27T10:03:20.113Z,english_419.wav,0,peel,420,29,5,4,English,m,4,0.32341667,48.12555486,0.389285402
5cee69353057030001b33fc4,116,2,2024-02-27T10:03:20.113Z,english_976.wav,0,peel,526,29,5,4,English,m,0,0.0,-92.49082032,0.30893725
5cee69353057030001b33fc4,116,2,2024-02-27T10:03:20.113Z,english_976.wav,0,peel,526,29,5,4,English,m,1,0.1,92.01562452,1.54393752
5cee69353057030001b33fc4,116,2,2024-02-27T10:03:20.113Z,english_976.wav,0,peel,526,29,5,4,English,m,2,0.2,-80.55764576,1.31466429
5cee69353057030001b33fc4,116,2,2024-02-27T10:03:20.113Z,english_976.wav,0,peel,526,29,5,4,English,m,3,0.3,-70.09009567,1.88171095
5cee69353057030001b33fc4,116,2,2024-02-27T10:03:20.113Z,english_976.wav,0,peel,526,29,5,4,English,m,4,0.32341667,-7.5394989,1.71314556
5cee69353057030001b33fc4,117,2,2024-02-27T10:03:20.113Z,english_462.wav,0,peel,665,29,5,4,English,m,0,0.0,-35.73318704,1.53267708
5cee69353057030001b33fc4,117,2,2024-02-27T10:03:20.113Z,english_462.wav,0,peel,665,29,5,4,English,m,1,0.1,-5.65949109,1.98369384
5cee69353057030001b33fc4,117,2,2024-02-27T10:03:20.113Z,english_462.wav,0,peel,665,29,5,4,English,m,2,0.2,-49.47542688,1.31270994
5cee69353057030001b33fc4,117,2,2024-02-27T10:03:20.113Z,english_462.wav,0,peel,665,29,5,4,English,m,3,0.3,-98.18570674,1.26289606
5cee69353057030001b33fc4,117,2,2024-02-27T10:03:20.113Z,english_462.wav,0,peel,665,29,5,4,English,m,4,0.32341667,-16.34927785,1.36496903
5cee69353057030001b33fc4,118,2,2024-02-27T10:03:20.113Z,english_226.wav,0,peel,1751,29,5,4,English,m,0,0.0,-56.53605181,0.51185795
5cee69353057030001b33fc4,118,2,2024-02-27T10:03:20.113Z,english_226.wav,0,peel,1751,29,5,4,English,m,1,0.1,-5.93547338,0.73377568
5cee69353057030001b33fc4,118,2,2024-02-27T10:03:20.113Z,english_226.wav,0,peel,1751,29,5,4,English,m,2,0.2,-81.0596442,1.62034912
5cee69353057030001b33fc4,118,2,2024-02-27T10:03:20.113Z,english_226.wav,0,peel,1751,29,5,4,English,m,3,0.3,-12.14261426,0.19474782
5cee69353057030001b33fc4,118,2,2024-02-27T10:03:20.113Z,english_226.wav,0,peel,1751,29,5,4,English,m,4,0.32341667,40.67667876,0.1395898
5cee69353057030001b33fc4,119,2,2024-02-27T10:03:20.113Z,english_572.wav,0,peel,196,29,5,4,English,m,0,0.0,-16.16189062,1.82210005
5cee69353057030001b33fc4,119,2,2024-02-27T10:03:20.113Z,english_572.wav,0,peel,196,29,5,4,English,m,1,0.1,-40.8511413,0.80249033
5cee69353057030001b33fc4,119,2,2024-02-27T10:03:20.113Z,english_572.wav,0,peel,196,29,5,4,English,m,2,0.2,-77.3747243,0.69959732
5cee69353057030001b33fc4,119,2,2024-02-27T10:03:20.113Z,english_572.wav,0,peel,196,29,5,4,English,m,3,0.3,87.62803369,0.43311894
5cee69353057030001b33fc4,119,2,2024-02-27T10:03:20.113Z,english_572.wav,0,peel,196,29,5,4,English,m,4,0.32341667,81.6005998,1.25204325
5cee69353057030001b33fc4,120,2,2024-02-27T10:03:20.113Z,english_683.wav,0,peel,23,29,5,4,English,m,0,0.0,-73.37543508,1.70409633
5cee69353057030001b33fc4,120,2,2024-02-27T10:03:20.113Z,english_683.wav,0,peel,23,29,5,4,English,m,1,0.1,66.4080647,1.25556383
5cee69353057030001b33fc4,120,2,2024-02-27T10:03:20.113Z,english_683.wav,0,peel,23,29,5,4,English,m,2,0.2,46.46812351,0.87554738
5cee69353057030001b33fc4,120,2,2024-02-27T10:03:20.113Z,english_683.wav,0,peel,23,29,5,4,English,m,3,0.3,71.67755016,1.32863005
5cee69353057030001b33fc4,120,2,2024-02-27T10:03:20.113Z,english_683.wav,0,peel,23,29,5,4,English,m,4,0.32341667,2.86253031,0.20364682
5cee69353057030001b33fc4,121,2,2024-02-27T10:03:20.113Z,english_939.wav,0,peel,146,29,5,4,English,m,0,0.0,-23.2558256,0.1774722
5cee69353057030001b33fc4,121,2,2024-02-27T10:03:20.113Z,english_939.wav,0,peel,146,29,5,4,English,m,1,0.1,-16.62065377,0.56271239
5cee69353057030001b33fc4,121,2,2024-02-27T10:03:20.113Z,english_939.wav,0,peel,146,29,5,4,English,m,2,0.2,-49.54734698,1.42782479
5cee69353057030001b33fc4,121,2,2024-02-27T10:03:20.113Z,english_939.wav,0,peel,146,29,5,4,English,m,3,0.3,22.82101289,0.76516147
5cee69353057030001b33fc4,121,2,2024-02-27T10:03:20.113Z,english_939.wav,0,peel,146,29,5,4,English,m,4,0.32341667,28.63490654,1.70219777
5cee69353057030001b33fc4,122,2,2024-02-27T10:03:20.113Z,english_910.wav,0,peel,184,29,5,4,English,m,0,0.0,-5.78748479,0.61840584
5cee69353057030001b33fc4,122,2,2024-02-27T10:03:20.113Z,english_910.wav,0,peel,184,29,5,4,English,m,1,0.1,25.040103,1.20431928
5cee69353057030001b33fc4,122,2,2024-02-27T10:03:20.113Z,english_910.wav,0,peel,184,29,5,4,English,m,2,0.2,-40.66398147,1.66594732
5cee69353057030001b33fc4,122,2,2024-02-27T10:03:20.113Z,english_910.wav,0,peel,184,29,5,4,English,m,3,0.3,-99.21011725,0.99007018
5cee69353057030001b33fc4,122,2,2024-02-27T10:03:20.113Z,english_910.wav,0,peel,184,29,5,4,English,m,4,0.32341667,30.82754841,0.23705338
5cee69353057030001b33fc4,123,2,2024-02-27T10:03:20.113Z,english_224.wav,0,peel,322,29,5,4,English,m,0,0.0,-3.31597843,0.45157501
5cee69353057030001b33fc4,123,2,2024-02-27T10:03:20.113Z,english_224.wav,0,peel,322,29,5,4,English,m,1,0.1,-35.19448657,1.77513434
5cee69353057030001b33fc4,123,2,2024-02-27T10:03:20.113Z,english_224.wav,0,peel,322,29,5,4,English,m,2,0.2,-54.62049262,0.36912314
5cee69353057030001b33fc4,123,2,2024-02-27T10:03:20.113Z,english_224.wav,0,peel,322,29,5,4,English,m,3,0.3,50.12510099,1.67171916
5cee69353057030001b33fc4,123,2,2024-02-27T10:03:20.113Z,english_224.wav,0,peel,322,29,5,4,English,m,4,0.32341667,96.66013203,1.16069525
5cee69353057030001b33fc4,124,2,2024-02-27T10:03:20.113Z,english_480.wav,0,peel,453,29,5,4,English,m,0,0.0,-9.10453384,0.61491247
5cee69353057030001b33fc4,124,2,2024-02-27T10:03:20.113Z,english_480.wav,0,peel,453,29,5,4,English,m,1,0.1,72.09708103,1.35502449
5cee69353057030001b33fc4,124,2,2024-02-27T10:03:20.113Z,english_480.wav,0,peel,453,29,5,4,English,m,2,0.2,-73.7181862,0.28674933
5cee69353057030001b33fc4,124,2,2024-02-27T10:03:20.113Z,english_480.wav,0,peel,453,29,5,4,English,m,3,0.3,18.73451671,0.14653082
5cee69353057030001b33fc4,124,2,2024-02-27T10:03:20.113Z,english_480.wav,0,peel,453,29,5,4,English,m,4,0.32341667,83.35837597,1.34653786
5cee69353057030001b33fc4,125,2,2024-02-27T10:03:20.113Z,english_453.wav,0,peel,393,29,5,4,English,m,0,0.0,-60.23429987,1.87756573
5cee69353057030001b33fc4,125,2,2024-02-27T10:03:20.113Z,english_453.wav,0,peel,393,29,5,4,English,m,1,0.1,80.38725697,0.94070469
5cee69353057030001b33fc4,125,2,2024-02-27T10:03:20.113Z,english_453.wav,0,peel,393,29,5,4,English,m,2,0.2,66.16689695,1.71191258
5cee69353057030001b33fc4,125,2,2024-02-27T10:03:20.113Z,english_453.wav,0,peel,393,29,5,4,English,m,3,0.3,-59.46214637,0.56012011
5cee69353057030001b33fc4,125,2,2024-02-27T10:03:20.113Z,english_453.wav,0,peel,393,29,5,4,English,m,4,0.32341667,-39.76201882,0.35119419
5cee69353057030001b33fc4,126,2,2024-02-27T10:03:20.113Z,english_108.wav,0,peel,177,29,5,4,English,m,0,0.0,-20.69942707,0.77052949
5cee69353057030001b33fc4,126,2,2024-02-27T10:03:20.113Z,english_108.wav,0,peel,177,29,5,4,English,m,1,0.1,-59.42152954,1.01445352
5cee69353057030001b33fc4,126,2,2024-02-27T10:03:20.113Z,english_108.wav,0,peel,177,29,5,4,English,m,2,0.2,-8.09170222,0.42363715
5cee69353057030001b33fc4,126,2,2024-02-27T10:03:20.113Z,english_108.wav,0,peel,177,29,5,4,English,m,3,0.3,21.99826779,1.45799831
5cee69353057030001b33fc4,126,2,2024-02-27T10:03:20.113Z,english_108.wav,0,peel,177,29,5,4,English,m,4,0.32341667,56.38973361,1.71498507
5cee69353057030001b33fc4,127,2,2024-02-27T10:03:20.113Z,english_977.wav,0,peel,352,29,5,4,English,m,0,0.0,63.46196139,0.87194913
5cee69353057030001b33fc4,127,2,2024-02-27T10:03:20.113Z,english_977.wav,0,peel,352,29,5,4,English,m,1,0.1,-23.64022125,1.67919547
5cee69353057030001b33fc4,127,2,2024-02-27T10:03:20.113Z,english_977.wav,0,peel,352,29,5,4,English,m,2,0.2,31.65242203,0.97011806
5cee69353057030001b33fc4,127,2,2024-02-27T10:03:20.113Z,english_977.wav,0,peel,352,29,5,4,English,m,3,0.3,16.19881364,1.40431802
5cee69353057030001b33fc4,127,2,2024-02-27T10:03:20.113Z,english_977.wav,0,peel,352,29,5,4,English,m,4,0.32341667,-33.08554183,1.02563167
5cee69353057030001b33fc4,128,2,2024-02-27T10:03:20.113Z,english_207.wav,0,peel,184,29,5,4,English,m,0,0.0,-64.55688296,1.06406661
5cee69353057030001b33fc4,128,2,2024-02-27T10:03:20.113Z,english_207.wav,0,peel,184,29,5,4,English,m,1,0.1,98.33987034,1.58122859
5cee69353057030001b33fc4,128,2,2024-02-27T10:03:20.113Z,english_207.wav,0,peel,184,29,5,4,English,m,2,0.2,-40.48281934,1.31381917
5cee69353057030001b33fc4,128,2,2024-02-27T10:03:20.113Z,english_207.wav,0,peel,184,29,5,4,English,m,3,0.3,-36.48143513,0.83233835
5cee69353057030001b33fc4,128,2,2024-02-27T10:03:20.113Z,english_207.wav,0,peel,184,29,5,4,English,m,4,0.32341667,-87.11188062,0.12663517
5cee69353057030001b33fc4,129,2,2024-02-27T10:03:20.113Z,english_231.wav,0,peel,83,29,5,4,English,m,0,0.0,-57.04299033,1.30850831
5cee69353057030001b33fc4,129,2,2024-02-27T10:03:20.113Z,english_231.wav,0,peel,83,29,5,4,English,m,1,0.1,-61.30294243,1.06317761
5cee69353057030001b33fc4,129,2,2024-02-27T10:03:20.113Z,english_231.wav,0,peel,83,29,5,4,English,m,2,0.2,11.10207427,1.86768436
5cee69353057030001b33fc4,129,2,2024-02-27T10:03:20.113Z,english_231.wav,0,peel,83,29,5,4,English,m,3,0.3,-1.38864911,1.42169342
5cee69353057030001b33fc4,129,2,2024-02-27T10:03:20.113Z,english_231.wav,0,peel,83,29,5,4,English,m,4,0.32341667,-40.37897369,0.58634772
5cee69353057030001b33fc4,130,2,2024-02-27T10:03:20.113Z,english_525.wav,0,peel,297,29,5,4,English,m,0,0.0,-21.23223701,1.69398532
5cee69353057030001b33fc4,130,2,2024-02-27T10:03:20.113Z,english_525.wav,0,peel,297,29,5,4,English,m,1,0.1,3.49974992,0.25491439
5cee69353057030001b33fc4,130,2,2024-02-27T10:03:20.113Z,english_525.wav,0,peel,297,29,5,4,English,m,2,0.2,-75.71526263,0.17370365
5cee69353057030001b33fc4,130,2,2024-02-27T10:03:20.113Z,english_525.wav,0,peel,297,29,5,4,English,m,3,0.3,-52.87512147,0.81797459
5cee69353057030001b33fc4,130,2,2024-02-27T10:03:20.113Z,english_525.wav,0,peel,297,29,5,4,English,m,4,0.32341667,17.79573657,0.70176203
5cee69353057030001b33fc4,131,2,2024-02-27T10:03:20.113Z,english_869.wav,0,peel,235,29,5,4,English,m,0,0.0,31.82870938,0.91730192
5cee69353057030001b33fc4,131,2,2024-02-27T10:03:20.113Z,english_869.wav,0,peel,235,29,5,4,English,m,1,0.1,55.69153841,1.54634356
5cee69353057030001b33fc4,131,2,2024-02-27T10:03:20.113Z,english_869.wav,0,peel,235,29,5,4,English,m,2,0.2,44.83997999,0.32401745
5cee69353057030001b33fc4,131,2,2024-02-27T10:03:20.113Z,english_869.wav,0,peel,235,29,5,4,English,m,3,0.3,-64.6596515,1.34292926
5cee69353057030001b33fc4,131,2,2024-02-27T10:03:20.113Z,english_869.wav,0,peel,235,29,5,4,English,m,4,0.32341667,-51.58434075,0.99771643
5cee69353057030001b33fc4,132,2,2024-02-27T10:03:20.113Z,english_22.wav,0,peel,193,29,5,4,English,m,0,0.0,78.11206964,1.48448967
5cee69353057030001b33fc4,132,2,2024-02-27T10:03:20.113Z,english_22.wav,0,peel,193,29,5,4,English,m,1,0.1,30.08823316,0.28770474
5cee69353057030001b33fc4,132,2,2024-02-27T10:03:20.113Z,english_22.wav,0,peel,193,29,5,4,English,m,2,0.2,62.70691674,1.03274311
5cee69353057030001b33fc4,132,2,2024-02-27T10:03:20.113Z,english_22.wav,0,peel,193,29,5,4,English,m,3,0.3,-69.9857022,0.45071415
5cee69353057030001b33fc4,132,2,2024-02-27T10:03:20.113Z,english_22.wav,0,peel,193,29,5,4,English,m,4,0.32341667,-1.96178027,0.30900593
5cee69353057030001b33fc4,133,2,2024-02-27T10:03:20.113Z,english_903.wav,0,peel,262,29,5,4,English,m,0,0.0,73.58848698,0.30588109
5cee69353057030001b33fc4,133,2,2024-02-27T10:03:20.113Z,english_903.wav,0,peel,262,29,5,4,English,m,1,0.1,-95.58060262,0.88963747
5cee69353057030001b33fc4,133,2,2024-02-27T10:03:20.113Z,english_903.wav,0,peel,262,29,5,4,English,m,2,0.2,17.41642173,1.73634476
5cee69353057030001b33fc4,133,2,2024-02-27T10:03:20.113Z,english_903.wav,0,peel,262,29,5,4,English,m,3,0.3,94.35223882,0.71257749
5cee69353057030001b33fc4,133,2,2024-02-27T10:03:20.113Z,english_903.wav,0,peel,262,29,5,4,English,m,4,0.32341667,-49.48803877,1.4824474
5cee69353057030001b33fc4,134,2,2024-02-27T10:03:20.113Z,english_547.wav,0,peel,138,29,5,4,English,m,0,0.0,30.48969685,1.04682874
5cee69353057030001b33fc4,134,2,2024-02-27T10:03:20.113Z,english_547.wav,0,peel,138,29,5,4,English,m,1,0.1,-38.27442703,0.75017858
5cee69353057030001b33fc4,134,2,2024-02-27T10:03:20.113Z,english_547.wav,0,peel,138,29,5,4,English,m,2,0.2,29.58442849,0.7996645
5cee69353057030001b33fc4,134,2,2024-02-27T10:03:20.113Z,english_547.wav,0,peel,138,29,5,4,English,m,3,0.3,-4.27268154,1.92102789
5cee69353057030001b33fc4,134,2,2024-02-27T10:03:20.113Z,english_547.wav,0,peel,138,29,5,4,English,m,4,0.32341667,58.02076364,1.77056707
5cee69353057030001b33fc4,135,2,2024-02-27T10:03:20.113Z,english_924.wav,0,peel,535,29,5,4,English,m,0,0.0,63.64154058,1.83477076
5cee69353057030001b33fc4,135,2,2024-02-27T10:03:20.113Z,english_924.wav,0,peel,535,29,5,4,English,m,1,0.1,-60.55254199,0.21366754
5cee69353057030001b33fc4,135,2,2024-02-27T10:03:20.113Z,english_924.wav,0,peel,535,29,5,4,English,m,2,0.2,-47.94670646,1.07859551
5cee69353057030001b33fc4,135,2,2024-02-27T10:03:20.113Z,english_924.wav,0,peel,535,29,5,4,English,m,3,0.3,-76.50696127,1.9507375
5cee69353057030001b33fc4,135,2,2024-02-27T10:03:20.113Z,english_924.wav,0,peel,535,29,5,4,English,m,4,0.32341667,44.23103111,1.33476666
5cee69353057030001b33fc4,136,2,2024-02-27T10:03:20.113Z,english_556.wav,0,peel,332,29,5,4,English,m,0,0.0,35.62658416,1.88481821
5cee69353057030001b33fc4,136,2,2024-02-27T10:03:20.113Z,english_556.wav,0,peel,332,29,5,4,English,m,1,0.1,28.75181601,0.4023528
5cee69353057030001b33fc4,136,2,2024-02-27T10:03:20.113Z,english_556.wav,0,peel,332,29,5,4,English,m,2,0.2,-2.62389444,1.49364055
5cee69353057030001b33fc4,136,2,2024-02-27T10:03:20.113Z,english_556.wav,0,peel,332,29,5,4,English,m,3,0.3,64.03572584,1.54190039
5cee69353057030001b33fc4,136,2,2024-02-27T10:03:20.113Z,english_556.wav,0,peel,332,29,5,4,English,m,4,0.32341667,72.79696002,0.53435232
5cee69353057030001b33fc4,137,2,2024-02-27T10:03:20.113Z,english_835.wav,0,peel,342,29,5,4,English,m,0,0.0,-14.38506183,1.1584592
5cee69353057030001b33fc4,137,2,2024-02-27T10:03:20.113Z,english_835.wav,0,peel,342,29,5,4,English,m,1,0.1,-85.63264453,0.74788643
5cee69353057030001b33fc4,137,2,2024-02-27T10:03:20.113Z,english_835.wav,0,peel,342,29,5,4,English,m,2,0.2,-9.08737486,0.99645811
5cee69353057030001b33fc4,137,2,2024-02-27T10:03:20.113Z,english_835.wav,0,peel,342,29,5,4,English,m,3,0.3,-52.4382226,1.13057998
5cee69353057030001b33fc4,137,2,2024-02-27T10:03:20.113Z,english_835.wav,0,peel,342,29,5,4,English,m,4,0.32341667,30.89255677,0.17868889
5cee69353057030001b33fc4,138,2,2024-02-27T10:03:20.113Z,english_42.wav,0,peel,1059,29,5,4,English,m,0,0.0,-15.36487641,1.81244548
5cee69353057030001b33fc4,138,2,2024-02-27T10:03:20.113Z,english_42.wav,0,peel,1059,29,5,4,English,m,1,0.1,11.43696078,1.472484
5cee69353057030001b33fc4,138,2,2024-02-27T10:03:20.113Z,english_42.wav,0,peel,1059,29,5,4,English,m,2,0.2,34.58464447,0.21504119
5cee69353057030001b33fc4,138,2,2024-02-27T10:03:20.113Z,english_42.wav,0,peel,1059,29,5,4,English,m,3,0.3,68.67640378,0.80253652
5cee69353057030001b33fc4,138,2,2024-02-27T10:03:20.113Z,english_42.wav,0,peel,1059,29,5,4,English,m,4,0.32341667,-67.59461511,1.53231421
5cee69353057030001b33fc4,139,2,2024-02-27T10:03:20.113Z,english_351.wav,0,peel,307,29,5,4,English,m,0,0.0,-56.55455818,0.98366365
5cee69353057030001b33fc4,139,2,2024-02-27T10:03:20.113Z,english_351.wav,0,peel,307,29,5,4,English,m,1,0.1,-81.1333892,1.13800808
5cee69353057030001b33fc4,139,2,2024-02-27T10:03:20.113Z,english_351.wav,0,peel,307,29,5,4,English,m,2,0.2,70.95296343,1.04915948
5cee69353057030001b33fc4,139,2,2024-02-27T10:03:20.113Z,english_351.wav,0,peel,307,29,5,4,English,m,3,0.3,-82.79021433,1.70890302
5cee69353057030001b33fc4,139,2,2024-02-27T10:03:20.113Z,english_351.wav,0,peel,307,29,5,4,English,m,4,0.32341667,-21.34496407,1.83807055
5cee69353057030001b33fc4,140,2,2024-02-27T10:03:20.113Z,english_470.wav,0,peel,213,29,5,4,English,m,0,0.0,-20.39789813,1.83124966
5cee69353057030001b33fc4,140,2,2024-02-27T10:03:20.113Z,english_470.wav,0,peel,213,29,5,4,English,m,1,0.1,20.62750989,0.41787925
5cee69353057030001b33fc4,140,2,2024-02-27T10:03:20.113Z,english_470.wav,0,peel,213,29,5,4,English,m,2,0.2,-59.78251605,1.85790598
5cee69353057030001b33fc4,140,2,2024-02-27T10:03:20.113Z,english_470.wav,0,peel,213,29,5,4,English,m,3,0.3,-88.74051682,0.99710793
5cee69353057030001b33fc4,140,2,2024-02-27T10:03:20.113Z,english_470.wav,0,peel,213,29,5,4,English,m,4,0.32341667,8.31634628,0.56985764
5cee69353057030001b33fc4,141,2,2024-02-27T10:03:20.113Z,english_150.wav,0,peel,167,29,5,4,English,m,0,0.0,-51.77489255,0.6625495
5cee69353057030001b33fc4,141,2,2024-02-27T10:03:20.113Z,english_150.wav,0,peel,167,29,5,4,English,m,1,0.1,16.7322824,1.26353984
5cee69353057030001b33fc4,141,2,2024-02-27T10:03:20.113Z,english_150.wav,0,peel,167,29,5,4,English,m,2,0.2,-56.19561079,0.38378194
5cee69353057030001b33fc4,141,2,2024-02-27T10:03:20.113Z,english_150.wav,0,peel,167,29,5,4,English,m,3,0.3,36.81691324,1.59154348
5cee69353057030001b33fc4,141,2,2024-02-27T10:03:20.113Z,english_150.wav,0,peel,167,29,5,4,English,m,4,0.32341667,-97.11243964,0.94821753
5cee69353057030001b33fc4,142,2,2024-02-27T10:03:20.113Z,english_54.wav,0,peel,105,29,5,4,English,m,0,0.0,1.86764875,1.47639799
5cee69353057030001b33fc4,142,2,2024-02-27T10:03:20.113Z,english_54.wav,0,peel,105,29,5,4,English,m,1,0.1,-1.78672474,1.92944336
5cee69353057030001b33fc4,142,2,2024-02-27T10:03:20.113Z,english_54.wav,0,peel,105,29,5,4,English,m,2,0.2,-26.58380414,0.76292987
5cee69353057030001b33fc4,142,2,2024-02-27T10:03:20.113Z,english_54.wav,0,peel,105,29,5,4,English,m,3,0.3,-2.56688864,1.78735236
5cee69353057030001b33fc4,142,2,2024-02-27T10:03:20.113Z,english_54.wav,0,peel,105,29,5,4,English,m,4,0.32341667,-76.29238916,0.80366269
5cee69353057030001b33fc4,143,2,2024-02-27T10:03:20.113Z,english_591.wav,0,peel,675,29,5,4,English,m,0,0.0,-17.23532002,0.16408748
5cee69353057030001b33fc4,143,2,2024-02-27T10:03:20.113Z,english_591.wav,0,peel,675,29,5,4,English,m,1,0.1,-55.20494434,0.21361432
5cee69353057030001b33fc4,143,2,2024-02-27T10:03:20.113Z,english_591.wav,0,peel,675,29,5,4,English,m,2,0.2,-36.65883109,0.19384467
5cee69353057030001b33fc4,143,2,2024-02-27T10:03:20.113Z,english_591.wav,0,peel,675,29,5,4,English,m,3,0.3,75.34514139,0.82850175
5cee69353057030001b33fc4,143,2,2024-02-27T10:03:20.113Z,english_591.wav,0,peel,675,29,5,4,English,m,4,0.32341667,31.2832342,1.471328
5cee69353057030001b33fc4,144,2,2024-02-27T10:03:20.113Z,english_337.wav,0,pill,1426,29,5,4,English,m,0,0.0,17.21863108,0.02346696
5cee69353057030001b33fc4,144,2,2024-02-27T10:03:20.113Z,english_337.wav,0,pill,1426,29,5,4,English,m,1,0.1,-16.30098312,1.2349353
5cee69353057030001b33fc4,144,2,2024-02-27T10:03:20.113Z,english_337.wav,0,pill,1426,29,5,4,English,m,2,0.2,70.17733319,1.07823504
5cee69353057030001b33fc4,144,2,2024-02-27T10:03:20.113Z,english_337.wav,0,pill,1426,29,5,4,English,m,3,0.3,-7.16478631,1.83339424
5cee69353057030001b33fc4,144,2,2024-02-27T10:03:20.113Z,english_337.wav,0,pill,1426,29,5,4,English,m,4,0.32341667,-84.96176299,1.87583376
5cee69353057030001b33fc4,145,2,2024-02-27T10:03:20.113Z,english_789.wav,0,peel,186,29,5,4,English,m,0,0.0,70.69388181,1.62690516
5cee69353057030001b33fc4,145,2,2024-02-27T10:03:20.113Z,english_789.wav,0,peel,186,29,5,4,English,m,1,0.1,-91.45782136,1.02092359
5cee69353057030001b33fc4,145,2,2024-02-27T10:03:20.113Z,english_789.wav,0,peel,186,29,5,4,English,m,2,0.2,-94.67801392,0.93437639
5cee69353057030001b33fc4,145,2,2024-02-27T10:03:20.113Z,english_789.wav,0,peel,186,29,5,4,English,m,3,0.3,83.76501612,1.8239896
5cee69353057030001b33fc4,145,2,2024-02-27T10:03:20.113Z,english_789.wav,0,peel,186,29,5,4,English,m,4,0.32341667,-4.60584958,1.29596798
5cee69353057030001b33fc4,146,2,2024-02-27T10:03:20.113Z,english_349.wav,0,peel,228,29,5,4,English,m,0,0.0,-10.00495534,0.36915768
5cee69353057030001b33fc4,146,2,2024-02-27T10:03:20.113Z,english_349.wav,0,peel,228,29,5,4,English,m,1,0.1,54.31199814,0.83111041
5cee69353057030001b33fc4,146,2,2024-02-27T10:03:20.113Z,english_349.wav,0,peel,228,29,5,4,English,m,2,0.2,48.17968705,1.70147194
5cee69353057030001b33fc4,146,2,2024-02-27T10:03:20.113Z,english_349.wav,0,peel,228,29,5,4,English,m,3,0.3,8.48926652,1.08588898
5cee69353057030001b33fc4,146,2,2024-02-27T10:03:20.113Z,english_349.wav,0,peel,228,29,5,4,English,m,4,0.32341667,42.05620052,0.02584958
5cee69353057030001b33fc4,147,2,2024-02-27T10:03:20.113Z,english_427.wav,0,peel,312,29,5,4,English,m,0,0.0,38.10585738,0.62221409
5cee69353057030001b33fc4,147,2,2024-02-27T10:03:20.113Z,english_427.wav,0,peel,312,29,5,4,English,m,1,0.1,75.26959407,1.20145201
5cee69353057030001b33fc4,147,2,2024-02-27T10:03:20.113Z,english_427.wav,0,peel,312,29,5,4,English,m,2,0.2,-92.48152235,0.18894815
5cee69353057030001b33fc4,147,2,2024-02-27T10:03:20.113Z,english_427.wav,0,peel,312,29,5,4,English,m,3,0.3,-38.24940669,0.36527681
5cee69353057030001b33fc4,147,2,2024-02-27T10:03:20.113Z,english_427.wav,0,peel,312,29,5,4,English,m,4,0.32341667,-41.67637111,0.02898627
5cee69353057030001b33fc4,148,2,2024-02-27T10:03:20.113Z,english_639.wav,0,peel,462,29,5,4,English,m,0,0.0,-8.64176861,1.80061108
5cee69353057030001b33fc4,148,2,2024-02-27T10:03:20.113Z,english_639.wav,0,peel,462,29,5,4,English,m,1,0.1,-2.28240571,0.32075858
5cee69353057030001b33fc4,148,2,2024-02-27T10:03:20.113Z,english_639.wav,0,peel,462,29,5,4,English,m,2,0.2,61.07673865,0.35362442
5cee69353057030001b33fc4,148,2,2024-02-27T10:03:20.113Z,english_639.wav,0,peel,462,29,5,4,English,m,3,0.3,-20.33592136,1.48415136
5cee69353057030001b33fc4,148,2,2024-02-27T10:03:20.113Z,english_639.wav,0,peel,462,29,5,4,English,m,4,0.32341667,-24.05835486,0.14560931
5cee69353057030001b33fc4,149,2,2024-02-27T10:03:20.113Z,english_354.wav,0,peel,264,29,5,4,English,m,0,0.0,-63.97501145,0.52067601
5cee69353057030001b33fc4,149,2,2024-02-27T10:03:20.113Z,english_354.wav,0,peel,264,29,5,4,English,m,1,0.1,-43.11314734,0.59903392
5cee69353057030001b33fc4,149,2,2024-02-27T10:03:20.113Z,english_354.wav,0,peel,264,29,5,4,English,m,2,0.2,10.53928595,0.9992363
5cee69353057030001b33fc4,149,2,2024-02-27T10:03:20.113Z,english_354.wav,0,peel,264,29,5,4,English,m,3,0.3,-23.15258088,1.16142831
5cee69353057030001b33fc4,149,2,2024-02-27T10:03:20.113Z,english_354.wav,0,peel,264,29,5,4,English,m,4,0.32341667,3.22925066,0.37639432
5cee69353057030001b33fc4,150,3,2024-02-27T10:04:51.851Z,english_598.wav,0,peel,704,29,5,4,English,m,0,0.0,4.26365523,0.04069017
5cee69353057030001b33fc4,150,3,2024-02-27T10:04:51.851Z,english_598.wav,0,peel,704,29,5,4,English,m,1,0.1,-29.634957,1.27980102
5cee69353057030001b33fc4,150,3,2024-02-27T10:04:51.851Z,english_598.wav,0,peel,704,29,5,4,English,m,2,0.2,-17.49120793,0.98781586
5cee69353057030001b33fc4,150,3,2024-02-27T10:04:51.851Z,english_598.wav,0,peel,704,29,5,4,English,m,3,0.3,-34.93876912,1.55939702
5cee69353057030001b33fc4,150,3,2024-02-27T10:04:51.851Z,english_598.wav,0,peel,704,29,5,4,English,m,4,0.32341667,49.49845506,1.74128412
5cee69353057030001b33fc4,151,3,2024-02-27T10:04:51.851Z,english_902.wav,0,peel,361,29,5,4,English,m,0,0.0,-4.27617126,0.16330526
5cee69353057030001b33fc4,151,3,2024-02-27T10:04:51.851Z,english_902.wav,0,peel,361,29,5,4,English,m,1,0.1,-5.01127315,0.62492789
5cee69353057030001b33fc4,151,3,2024-02-27T10:04:51.851Z,english_902.wav,0,peel,361,29,5,4,English,m,2,0.2,83.22080084,1.08638924
5cee69353057030001b33fc4,151,3,2024-02-27T10:04:51.851Z,english_902.wav,0,peel,361,29,5,4,English,m,3,0.3,77.56473772,1.61764227
5cee69353057030001b33fc4,151,3,2024-02-27T10:04:51.851Z,english_902.wav,0,peel,361,29,5,4,English,m,4,0.32341667,-13.02741535,1.72075309
5cee69353057030001b33fc4,152,3,2024-02-27T10:04:51.851Z,english_38.wav,0,peel,290,29,5,4,English,m,0,0.0,-2.78484508,0.45448836
5cee69353057030001b33fc4,152,3,2024-02-27T10:04:51.851Z,english_38.wav,0,peel,290,29,5,4,English,m,1,0.1,-57.68912839,0.86252605
5cee69353057030001b33fc4,152,3,2024-02-27T10:04:51.851Z,english_38.wav,0,peel,290,29,5,4,English,m,2,0.2,-17.27242754,1.61904865
5cee69353057030001b33fc4,152,3,2024-02-27T10:04:51.851Z,english_38.wav,0,peel,290,29,5,4,English,m,3,0.3,-2.64514482,1.39130822
5cee69353057030001b33fc4,152,3,2024-02-27T10:04:51.851Z,english_38.wav,0,peel,290,29,5,4,English,m,4,0.32341667,55.14373267,1.59066599
5cee69353057030001b33fc4,153,3,2024-02-27T10:04:51.851Z,english_558.wav,0,peel,311,29,5,4,English,m,0,0.0,-73.38624366,1.58797859
5cee69353057030001b33fc4,153,3,2024-02-27T10:04:51.851Z,english_558.wav,0,peel,311,29,5,4,English,m,1,0.1,-42.42633216,1.10525313
5cee69353057030001b33fc4,153,3,2024-02-27T10:04:51.851Z,english_558.wav,0,peel,311,29,5,4,English,m,2,0.2,15.99713578,0.42598769
