subj,trial,block,date,stim,stim_order,response,rt,age,english,french,language,sex,param_index,segment,pitch,stretch
6557da88346b2b209cd16bb5,0,0,2024-02-24T08:20:51.973Z,english_569.wav,0,pill,3044,46,5,4,english,m,0,0.0,-44.4695194,1.56768834
6557da88346b2b209cd16bb5,0,0,2024-02-24T08:20:51.973Z,english_569.wav,0,pill,3044,46,5,4,english,m,1,0.1,50.36705327,0.42032873
6557da88346b2b209cd16bb5,0,0,2024-02-24T08:20:51.973Z,english_569.wav,0,pill,3044,46,5,4,english,m,2,0.2,-76.17438636,0.31133764
6557da88346b2b209cd16bb5,0,0,2024-02-24T08:20:51.973Z,english_569.wav,0,pill,3044,46,5,4,english,m,3,0.3,55.47083669,0.91900801
6557da88346b2b209cd16bb5,0,0,2024-02-24T08:20:51.973Z,english_569.wav,0,pill,3044,46,5,4,english,m,4,0.32341667,-10.68913609,1.26529561
6557da88346b2b209cd16bb5,1,0,2024-02-24T08:20:51.973Z,english_718.wav,0,peel,2004,46,5,4,english,m,0,0.0,-62.54470118,0.40124114
6557da88346b2b209cd16bb5,1,0,2024-02-24T08:20:51.973Z,english_718.wav,0,peel,2004,46,5,4,english,m,1,0.1,-40.70811043,0.49945062
6557da88346b2b209cd16bb5,1,0,2024-02-24T08:20:51.973Z,english_718.wav,0,peel,2004,46,5,4,english,m,2,0.2,-11.25435391,1.54880463
6557da88346b2b209cd16bb5,1,0,2024-02-24T08:20:51.973Z,english_718.wav,0,peel,2004,46,5,4,english,m,3,0.3,-68.52161814,0.39118497
6557da88346b2b209cd16bb5,1,0,2024-02-24T08:20:51.973Z,english_718.wav,0,peel,2004,46,5,4,english,m,4,0.32341667,-77.89834334,0.07447668
6557da88346b2b209cd16bb5,2,0,2024-02-24T08:20:51.973Z,english_633.wav,0,peel,1954,46,5,4,english,m,0,0.0,-53.72283933,1.23998369
6557da88346b2b209cd16bb5,2,0,2024-02-24T08:20:51.973Z,english_633.wav,0,peel,1954,46,5,4,english,m,1,0.1,14.71438877,1.35266241
6557da88346b2b209cd16bb5,2,0,2024-02-24T08:20:51.973Z,english_633.wav,0,peel,1954,46,5,4,english,m,2,0.2,95.18630031,0.66132985
6557da88346b2b209cd16bb5,2,0,2024-02-24T08:20:51.973Z,english_633.wav,0,peel,1954,46,5,4,english,m,3,0.3,96.89096157,0.52728002
6557da88346b2b209cd16bb5,2,0,2024-02-24T08:20:51.973Z,english_633.wav,0,peel,1954,46,5,4,english,m,4,0.32341667,8.38596779,1.4824282
6557da88346b2b209cd16bb5,3,0,2024-02-24T08:20:51.973Z,english_412.wav,0,pill,917,46,5,4,english,m,0,0.0,-82.38375592,0.41347899
6557da88346b2b209cd16bb5,3,0,2024-02-24T08:20:51.973Z,english_412.wav,0,pill,917,46,5,4,english,m,1,0.1,-35.89348303,0.05505218
6557da88346b2b209cd16bb5,3,0,2024-02-24T08:20:51.973Z,english_412.wav,0,pill,917,46,5,4,english,m,2,0.2,-78.50422887,1.28972039
6557da88346b2b209cd16bb5,3,0,2024-02-24T08:20:51.973Z,english_412.wav,0,pill,917,46,5,4,english,m,3,0.3,8.19618882,0.97331843
6557da88346b2b209cd16bb5,3,0,2024-02-24T08:20:51.973Z,english_412.wav,0,pill,917,46,5,4,english,m,4,0.32341667,88.30694734,0.22558246
6557da88346b2b209cd16bb5,4,0,2024-02-24T08:20:51.973Z,english_403.wav,0,peel,469,46,5,4,english,m,0,0.0,-92.65414009,1.93574734
6557da88346b2b209cd16bb5,4,0,2024-02-24T08:20:51.973Z,english_403.wav,0,peel,469,46,5,4,english,m,1,0.1,75.99659731,0.36447309
6557da88346b2b209cd16bb5,4,0,2024-02-24T08:20:51.973Z,english_403.wav,0,peel,469,46,5,4,english,m,2,0.2,-27.37801557,1.02888701
6557da88346b2b209cd16bb5,4,0,2024-02-24T08:20:51.973Z,english_403.wav,0,peel,469,46,5,4,english,m,3,0.3,-80.04540334,0.02385722
6557da88346b2b209cd16bb5,4,0,2024-02-24T08:20:51.973Z,english_403.wav,0,peel,469,46,5,4,english,m,4,0.32341667,30.50648557,1.40553938
6557da88346b2b209cd16bb5,5,0,2024-02-24T08:20:51.973Z,english_802.wav,0,peel,413,46,5,4,english,m,0,0.0,44.11448731,1.89082481
6557da88346b2b209cd16bb5,5,0,2024-02-24T08:20:51.973Z,english_802.wav,0,peel,413,46,5,4,english,m,1,0.1,27.89646601,1.73386287
6557da88346b2b209cd16bb5,5,0,2024-02-24T08:20:51.973Z,english_802.wav,0,peel,413,46,5,4,english,m,2,0.2,-19.36127415,0.34468699
6557da88346b2b209cd16bb5,5,0,2024-02-24T08:20:51.973Z,english_802.wav,0,peel,413,46,5,4,english,m,3,0.3,15.17899174,0.39328876
6557da88346b2b209cd16bb5,5,0,2024-02-24T08:20:51.973Z,english_802.wav,0,peel,413,46,5,4,english,m,4,0.32341667,-18.70870555,1.25778986
6557da88346b2b209cd16bb5,6,0,2024-02-24T08:20:51.973Z,english_887.wav,0,peel,2555,46,5,4,english,m,0,0.0,21.36154006,0.58574694
6557da88346b2b209cd16bb5,6,0,2024-02-24T08:20:51.973Z,english_887.wav,0,peel,2555,46,5,4,english,m,1,0.1,-21.46213737,0.48413962
6557da88346b2b209cd16bb5,6,0,2024-02-24T08:20:51.973Z,english_887.wav,0,peel,2555,46,5,4,english,m,2,0.2,-45.53850124,1.16923549
6557da88346b2b209cd16bb5,6,0,2024-02-24T08:20:51.973Z,english_887.wav,0,peel,2555,46,5,4,english,m,3,0.3,-75.36110743,1.46190157
6557da88346b2b209cd16bb5,6,0,2024-02-24T08:20:51.973Z,english_887.wav,0,peel,2555,46,5,4,english,m,4,0.32341667,-96.67184991,0.00789239
6557da88346b2b209cd16bb5,7,0,2024-02-24T08:20:51.973Z,english_926.wav,0,peel,540,46,5,4,english,m,0,0.0,-21.84910749,1.63725542
6557da88346b2b209cd16bb5,7,0,2024-02-24T08:20:51.973Z,english_926.wav,0,peel,540,46,5,4,english,m,1,0.1,92.62617727,0.91190035
6557da88346b2b209cd16bb5,7,0,2024-02-24T08:20:51.973Z,english_926.wav,0,peel,540,46,5,4,english,m,2,0.2,-40.07927874,0.45967153
6557da88346b2b209cd16bb5,7,0,2024-02-24T08:20:51.973Z,english_926.wav,0,peel,540,46,5,4,english,m,3,0.3,30.58508574,0.64362954
6557da88346b2b209cd16bb5,7,0,2024-02-24T08:20:51.973Z,english_926.wav,0,peel,540,46,5,4,english,m,4,0.32341667,-68.98646438,1.44788087
6557da88346b2b209cd16bb5,8,0,2024-02-24T08:20:51.973Z,english_780.wav,0,peel,979,46,5,4,english,m,0,0.0,-15.29393571,0.99089132
6557da88346b2b209cd16bb5,8,0,2024-02-24T08:20:51.973Z,english_780.wav,0,peel,979,46,5,4,english,m,1,0.1,-51.86215325,0.3216491
6557da88346b2b209cd16bb5,8,0,2024-02-24T08:20:51.973Z,english_780.wav,0,peel,979,46,5,4,english,m,2,0.2,-27.43889325,1.38797184
6557da88346b2b209cd16bb5,8,0,2024-02-24T08:20:51.973Z,english_780.wav,0,peel,979,46,5,4,english,m,3,0.3,37.56841363,0.96060741
6557da88346b2b209cd16bb5,8,0,2024-02-24T08:20:51.973Z,english_780.wav,0,peel,979,46,5,4,english,m,4,0.32341667,-40.51855496,0.89048449
6557da88346b2b209cd16bb5,9,0,2024-02-24T08:20:51.973Z,english_841.wav,0,peel,369,46,5,4,english,m,0,0.0,36.57834023,0.37598589
6557da88346b2b209cd16bb5,9,0,2024-02-24T08:20:51.973Z,english_841.wav,0,peel,369,46,5,4,english,m,1,0.1,81.12994836,1.18949815
6557da88346b2b209cd16bb5,9,0,2024-02-24T08:20:51.973Z,english_841.wav,0,peel,369,46,5,4,english,m,2,0.2,55.4316434,1.24219065
6557da88346b2b209cd16bb5,9,0,2024-02-24T08:20:51.973Z,english_841.wav,0,peel,369,46,5,4,english,m,3,0.3,-50.85387517,1.45004046
6557da88346b2b209cd16bb5,9,0,2024-02-24T08:20:51.973Z,english_841.wav,0,peel,369,46,5,4,english,m,4,0.32341667,-52.13814436,0.19253582
6557da88346b2b209cd16bb5,10,0,2024-02-24T08:20:51.973Z,english_450.wav,0,peel,506,46,5,4,english,m,0,0.0,32.75253923,1.28767958
6557da88346b2b209cd16bb5,10,0,2024-02-24T08:20:51.973Z,english_450.wav,0,peel,506,46,5,4,english,m,1,0.1,-95.51335644,1.7262356
6557da88346b2b209cd16bb5,10,0,2024-02-24T08:20:51.973Z,english_450.wav,0,peel,506,46,5,4,english,m,2,0.2,34.87485597,0.97567272
6557da88346b2b209cd16bb5,10,0,2024-02-24T08:20:51.973Z,english_450.wav,0,peel,506,46,5,4,english,m,3,0.3,-23.91285283,1.94639387
6557da88346b2b209cd16bb5,10,0,2024-02-24T08:20:51.973Z,english_450.wav,0,peel,506,46,5,4,english,m,4,0.32341667,-8.67870007,1.78958339
6557da88346b2b209cd16bb5,11,0,2024-02-24T08:20:51.973Z,english_352.wav,0,pill,637,46,5,4,english,m,0,0.0,71.64354449,0.18312459
6557da88346b2b209cd16bb5,11,0,2024-02-24T08:20:51.973Z,english_352.wav,0,pill,637,46,5,4,english,m,1,0.1,53.2516906,1.19991438
6557da88346b2b209cd16bb5,11,0,2024-02-24T08:20:51.973Z,english_352.wav,0,pill,637,46,5,4,english,m,2,0.2,28.90726554,1.21095973
6557da88346b2b209cd16bb5,11,0,2024-02-24T08:20:51.973Z,english_352.wav,0,pill,637,46,5,4,english,m,3,0.3,-49.8940387,1.61067418
6557da88346b2b209cd16bb5,11,0,2024-02-24T08:20:51.973Z,english_352.wav,0,pill,637,46,5,4,english,m,4,0.32341667,21.76832357,1.26376439
6557da88346b2b209cd16bb5,12,0,2024-02-24T08:20:51.973Z,english_668.wav,0,pill,452,46,5,4,english,m,0,0.0,48.8265236,0.43768829
6557da88346b2b209cd16bb5,12,0,2024-02-24T08:20:51.973Z,english_668.wav,0,pill,452,46,5,4,english,m,1,0.1,97.68090991,0.31983773
6557da88346b2b209cd16bb5,12,0,2024-02-24T08:20:51.973Z,english_668.wav,0,pill,452,46,5,4,english,m,2,0.2,47.50182685,1.24438546
6557da88346b2b209cd16bb5,12,0,2024-02-24T08:20:51.973Z,english_668.wav,0,pill,452,46,5,4,english,m,3,0.3,81.7432518,0.49120307
6557da88346b2b209cd16bb5,12,0,2024-02-24T08:20:51.973Z,english_668.wav,0,pill,452,46,5,4,english,m,4,0.32341667,28.08178094,0.60639718
6557da88346b2b209cd16bb5,13,0,2024-02-24T08:20:51.973Z,english_646.wav,0,peel,443,46,5,4,english,m,0,0.0,65.65927644,1.85038449
6557da88346b2b209cd16bb5,13,0,2024-02-24T08:20:51.973Z,english_646.wav,0,peel,443,46,5,4,english,m,1,0.1,-31.23211399,1.10748568
6557da88346b2b209cd16bb5,13,0,2024-02-24T08:20:51.973Z,english_646.wav,0,peel,443,46,5,4,english,m,2,0.2,62.59110385,1.14052106
6557da88346b2b209cd16bb5,13,0,2024-02-24T08:20:51.973Z,english_646.wav,0,peel,443,46,5,4,english,m,3,0.3,-86.43369357,1.38971404
6557da88346b2b209cd16bb5,13,0,2024-02-24T08:20:51.973Z,english_646.wav,0,peel,443,46,5,4,english,m,4,0.32341667,41.84315348,0.49971738
6557da88346b2b209cd16bb5,14,0,2024-02-24T08:20:51.973Z,english_711.wav,0,peel,609,46,5,4,english,m,0,0.0,40.88671478,0.99029016
6557da88346b2b209cd16bb5,14,0,2024-02-24T08:20:51.973Z,english_711.wav,0,peel,609,46,5,4,english,m,1,0.1,9.07407961,0.54320223
6557da88346b2b209cd16bb5,14,0,2024-02-24T08:20:51.973Z,english_711.wav,0,peel,609,46,5,4,english,m,2,0.2,-23.01321115,1.60107
6557da88346b2b209cd16bb5,14,0,2024-02-24T08:20:51.973Z,english_711.wav,0,peel,609,46,5,4,english,m,3,0.3,-10.85681813,1.574764
6557da88346b2b209cd16bb5,14,0,2024-02-24T08:20:51.973Z,english_711.wav,0,peel,609,46,5,4,english,m,4,0.32341667,87.87195083,1.34863725
6557da88346b2b209cd16bb5,15,0,2024-02-24T08:20:51.973Z,english_273.wav,0,peel,824,46,5,4,english,m,0,0.0,-44.98289573,1.94838534
6557da88346b2b209cd16bb5,15,0,2024-02-24T08:20:51.973Z,english_273.wav,0,peel,824,46,5,4,english,m,1,0.1,24.32546199,0.68888608
6557da88346b2b209cd16bb5,15,0,2024-02-24T08:20:51.973Z,english_273.wav,0,peel,824,46,5,4,english,m,2,0.2,61.84573583,1.95265796
6557da88346b2b209cd16bb5,15,0,2024-02-24T08:20:51.973Z,english_273.wav,0,peel,824,46,5,4,english,m,3,0.3,-1.88803465,1.62060328
6557da88346b2b209cd16bb5,15,0,2024-02-24T08:20:51.973Z,english_273.wav,0,peel,824,46,5,4,english,m,4,0.32341667,57.02125087,0.94638053
6557da88346b2b209cd16bb5,16,0,2024-02-24T08:20:51.973Z,english_810.wav,0,peel,822,46,5,4,english,m,0,0.0,44.6757801,0.77700382
6557da88346b2b209cd16bb5,16,0,2024-02-24T08:20:51.973Z,english_810.wav,0,peel,822,46,5,4,english,m,1,0.1,-98.4252216,1.25917073
6557da88346b2b209cd16bb5,16,0,2024-02-24T08:20:51.973Z,english_810.wav,0,peel,822,46,5,4,english,m,2,0.2,55.4106213,0.78203472
6557da88346b2b209cd16bb5,16,0,2024-02-24T08:20:51.973Z,english_810.wav,0,peel,822,46,5,4,english,m,3,0.3,-18.4676839,1.13021068
6557da88346b2b209cd16bb5,16,0,2024-02-24T08:20:51.973Z,english_810.wav,0,peel,822,46,5,4,english,m,4,0.323416667,0.0259169543,0.14578676
6557da88346b2b209cd16bb5,17,0,2024-02-24T08:20:51.973Z,english_319.wav,0,peel,478,46,5,4,english,m,0,0.0,-84.37928886,1.17141126
6557da88346b2b209cd16bb5,17,0,2024-02-24T08:20:51.973Z,english_319.wav,0,peel,478,46,5,4,english,m,1,0.1,-52.76931383,1.13741792
6557da88346b2b209cd16bb5,17,0,2024-02-24T08:20:51.973Z,english_319.wav,0,peel,478,46,5,4,english,m,2,0.2,56.06390533,0.91618882
6557da88346b2b209cd16bb5,17,0,2024-02-24T08:20:51.973Z,english_319.wav,0,peel,478,46,5,4,english,m,3,0.3,-69.46438111,0.7080153
6557da88346b2b209cd16bb5,17,0,2024-02-24T08:20:51.973Z,english_319.wav,0,peel,478,46,5,4,english,m,4,0.32341667,91.86152445,0.5910213
6557da88346b2b209cd16bb5,18,0,2024-02-24T08:20:51.973Z,english_128.wav,0,pill,435,46,5,4,english,m,0,0.0,-84.07301703,0.96445051
6557da88346b2b209cd16bb5,18,0,2024-02-24T08:20:51.973Z,english_128.wav,0,pill,435,46,5,4,english,m,1,0.1,0.2051398,0.77165422
6557da88346b2b209cd16bb5,18,0,2024-02-24T08:20:51.973Z,english_128.wav,0,pill,435,46,5,4,english,m,2,0.2,50.77588291,0.60279997
6557da88346b2b209cd16bb5,18,0,2024-02-24T08:20:51.973Z,english_128.wav,0,pill,435,46,5,4,english,m,3,0.3,3.27834455,0.59915485
6557da88346b2b209cd16bb5,18,0,2024-02-24T08:20:51.973Z,english_128.wav,0,pill,435,46,5,4,english,m,4,0.32341667,59.5943459,0.43521132
6557da88346b2b209cd16bb5,19,0,2024-02-24T08:20:51.973Z,english_448.wav,0,pill,697,46,5,4,english,m,0,0.0,0.37188167,1.15390094
6557da88346b2b209cd16bb5,19,0,2024-02-24T08:20:51.973Z,english_448.wav,0,pill,697,46,5,4,english,m,1,0.1,-67.82723624,1.58767458
6557da88346b2b209cd16bb5,19,0,2024-02-24T08:20:51.973Z,english_448.wav,0,pill,697,46,5,4,english,m,2,0.2,65.77705469,1.13313853
6557da88346b2b209cd16bb5,19,0,2024-02-24T08:20:51.973Z,english_448.wav,0,pill,697,46,5,4,english,m,3,0.3,83.31626383,0.27075507
6557da88346b2b209cd16bb5,19,0,2024-02-24T08:20:51.973Z,english_448.wav,0,pill,697,46,5,4,english,m,4,0.32341667,-27.56829045,1.20964916
6557da88346b2b209cd16bb5,20,0,2024-02-24T08:20:51.973Z,english_730.wav,0,pill,910,46,5,4,english,m,0,0.0,12.15035978,0.91227818
6557da88346b2b209cd16bb5,20,0,2024-02-24T08:20:51.973Z,english_730.wav,0,pill,910,46,5,4,english,m,1,0.1,-56.22765555,1.17022701
6557da88346b2b209cd16bb5,20,0,2024-02-24T08:20:51.973Z,english_730.wav,0,pill,910,46,5,4,english,m,2,0.2,-53.26534685,0.58034143
6557da88346b2b209cd16bb5,20,0,2024-02-24T08:20:51.973Z,english_730.wav,0,pill,910,46,5,4,english,m,3,0.3,-25.75230742,1.9562998
6557da88346b2b209cd16bb5,20,0,2024-02-24T08:20:51.973Z,english_730.wav,0,pill,910,46,5,4,english,m,4,0.32341667,-73.04726616,1.99538846
6557da88346b2b209cd16bb5,21,0,2024-02-24T08:20:51.973Z,english_556.wav,0,peel,299,46,5,4,english,m,0,0.0,35.62658416,1.88481821
6557da88346b2b209cd16bb5,21,0,2024-02-24T08:20:51.973Z,english_556.wav,0,peel,299,46,5,4,english,m,1,0.1,28.75181601,0.4023528
6557da88346b2b209cd16bb5,21,0,2024-02-24T08:20:51.973Z,english_556.wav,0,peel,299,46,5,4,english,m,2,0.2,-2.62389444,1.49364055
6557da88346b2b209cd16bb5,21,0,2024-02-24T08:20:51.973Z,english_556.wav,0,peel,299,46,5,4,english,m,3,0.3,64.03572584,1.54190039
6557da88346b2b209cd16bb5,21,0,2024-02-24T08:20:51.973Z,english_556.wav,0,peel,299,46,5,4,english,m,4,0.32341667,72.79696002,0.53435232
6557da88346b2b209cd16bb5,22,0,2024-02-24T08:20:51.973Z,english_716.wav,0,peel,398,46,5,4,english,m,0,0.0,-41.01159081,1.70683796
6557da88346b2b209cd16bb5,22,0,2024-02-24T08:20:51.973Z,english_716.wav,0,peel,398,46,5,4,english,m,1,0.1,-51.78631031,1.57787804
6557da88346b2b209cd16bb5,22,0,2024-02-24T08:20:51.973Z,english_716.wav,0,peel,398,46,5,4,english,m,2,0.2,-25.7252513,1.76538287
6557da88346b2b209cd16bb5,22,0,2024-02-24T08:20:51.973Z,english_716.wav,0,peel,398,46,5,4,english,m,3,0.3,78.18950514,1.34280163
6557da88346b2b209cd16bb5,22,0,2024-02-24T08:20:51.973Z,english_716.wav,0,peel,398,46,5,4,english,m,4,0.32341667,-26.78025651,1.89346788
6557da88346b2b209cd16bb5,23,0,2024-02-24T08:20:51.973Z,english_196.wav,0,peel,805,46,5,4,english,m,0,0.0,-86.38202104,1.63362226
6557da88346b2b209cd16bb5,23,0,2024-02-24T08:20:51.973Z,english_196.wav,0,peel,805,46,5,4,english,m,1,0.1,0.95731439,1.36148231
6557da88346b2b209cd16bb5,23,0,2024-02-24T08:20:51.973Z,english_196.wav,0,peel,805,46,5,4,english,m,2,0.2,-48.4797064,0.68683683
6557da88346b2b209cd16bb5,23,0,2024-02-24T08:20:51.973Z,english_196.wav,0,peel,805,46,5,4,english,m,3,0.3,50.57477866,1.59869277
6557da88346b2b209cd16bb5,23,0,2024-02-24T08:20:51.973Z,english_196.wav,0,peel,805,46,5,4,english,m,4,0.32341667,-52.07184875,0.40963154
6557da88346b2b209cd16bb5,24,0,2024-02-24T08:20:51.973Z,english_336.wav,0,peel,643,46,5,4,english,m,0,0.0,29.43389708,1.05594545
6557da88346b2b209cd16bb5,24,0,2024-02-24T08:20:51.973Z,english_336.wav,0,peel,643,46,5,4,english,m,1,0.1,-98.82505887,1.57774783
6557da88346b2b209cd16bb5,24,0,2024-02-24T08:20:51.973Z,english_336.wav,0,peel,643,46,5,4,english,m,2,0.2,33.95949266,1.35373128
6557da88346b2b209cd16bb5,24,0,2024-02-24T08:20:51.973Z,english_336.wav,0,peel,643,46,5,4,english,m,3,0.3,-57.79711044,1.04960404
6557da88346b2b209cd16bb5,24,0,2024-02-24T08:20:51.973Z,english_336.wav,0,peel,643,46,5,4,english,m,4,0.32341667,81.65015026,0.39151968
6557da88346b2b209cd16bb5,25,0,2024-02-24T08:20:51.973Z,english_481.wav,0,peel,552,46,5,4,english,m,0,0.0,-1.07793215,1.34620279
6557da88346b2b209cd16bb5,25,0,2024-02-24T08:20:51.973Z,english_481.wav,0,peel,552,46,5,4,english,m,1,0.1,72.11929458,0.4682023
6557da88346b2b209cd16bb5,25,0,2024-02-24T08:20:51.973Z,english_481.wav,0,peel,552,46,5,4,english,m,2,0.2,-0.36002545,1.2575358
6557da88346b2b209cd16bb5,25,0,2024-02-24T08:20:51.973Z,english_481.wav,0,peel,552,46,5,4,english,m,3,0.3,11.70252104,1.51306824
6557da88346b2b209cd16bb5,25,0,2024-02-24T08:20:51.973Z,english_481.wav,0,peel,552,46,5,4,english,m,4,0.32341667,-16.16595736,1.86086011
6557da88346b2b209cd16bb5,26,0,2024-02-24T08:20:51.973Z,english_719.wav,0,peel,576,46,5,4,english,m,0,0.0,-32.14306232,1.4431753
6557da88346b2b209cd16bb5,26,0,2024-02-24T08:20:51.973Z,english_719.wav,0,peel,576,46,5,4,english,m,1,0.1,-81.40439332,0.46175707
6557da88346b2b209cd16bb5,26,0,2024-02-24T08:20:51.973Z,english_719.wav,0,peel,576,46,5,4,english,m,2,0.2,-20.1172293,1.86886769
6557da88346b2b209cd16bb5,26,0,2024-02-24T08:20:51.973Z,english_719.wav,0,peel,576,46,5,4,english,m,3,0.3,67.63048238,0.67969247
6557da88346b2b209cd16bb5,26,0,2024-02-24T08:20:51.973Z,english_719.wav,0,peel,576,46,5,4,english,m,4,0.32341667,50.83305788,1.68151983
6557da88346b2b209cd16bb5,27,0,2024-02-24T08:20:51.973Z,english_243.wav,0,pill,865,46,5,4,english,m,0,0.0,-74.41503345,0.65151457
6557da88346b2b209cd16bb5,27,0,2024-02-24T08:20:51.973Z,english_243.wav,0,pill,865,46,5,4,english,m,1,0.1,-16.65530333,0.20623253
6557da88346b2b209cd16bb5,27,0,2024-02-24T08:20:51.973Z,english_243.wav,0,pill,865,46,5,4,english,m,2,0.2,-1.41224798,0.87153721
6557da88346b2b209cd16bb5,27,0,2024-02-24T08:20:51.973Z,english_243.wav,0,pill,865,46,5,4,english,m,3,0.3,37.30419975,0.28583671
6557da88346b2b209cd16bb5,27,0,2024-02-24T08:20:51.973Z,english_243.wav,0,pill,865,46,5,4,english,m,4,0.32341667,-3.40378668,1.90700275
6557da88346b2b209cd16bb5,28,0,2024-02-24T08:20:51.973Z,english_524.wav,0,pill,626,46,5,4,english,m,0,0.0,-67.97449296,0.75247726
6557da88346b2b209cd16bb5,28,0,2024-02-24T08:20:51.973Z,english_524.wav,0,pill,626,46,5,4,english,m,1,0.1,11.07328714,0.25589602
6557da88346b2b209cd16bb5,28,0,2024-02-24T08:20:51.973Z,english_524.wav,0,pill,626,46,5,4,english,m,2,0.2,-43.89657964,0.70559599
6557da88346b2b209cd16bb5,28,0,2024-02-24T08:20:51.973Z,english_524.wav,0,pill,626,46,5,4,english,m,3,0.3,-41.15015074,0.70218971
6557da88346b2b209cd16bb5,28,0,2024-02-24T08:20:51.973Z,english_524.wav,0,pill,626,46,5,4,english,m,4,0.32341667,-33.76804681,0.11352048
6557da88346b2b209cd16bb5,29,0,2024-02-24T08:20:51.973Z,english_507.wav,0,peel,606,46,5,4,english,m,0,0.0,-61.1842488,1.97653192
6557da88346b2b209cd16bb5,29,0,2024-02-24T08:20:51.973Z,english_507.wav,0,peel,606,46,5,4,english,m,1,0.1,-67.40048172,1.52355847
6557da88346b2b209cd16bb5,29,0,2024-02-24T08:20:51.973Z,english_507.wav,0,peel,606,46,5,4,english,m,2,0.2,12.41471853,0.98006415
6557da88346b2b209cd16bb5,29,0,2024-02-24T08:20:51.973Z,english_507.wav,0,peel,606,46,5,4,english,m,3,0.3,-23.82579329,0.44372312
6557da88346b2b209cd16bb5,29,0,2024-02-24T08:20:51.973Z,english_507.wav,0,peel,606,46,5,4,english,m,4,0.32341667,9.53005369,0.65281453
6557da88346b2b209cd16bb5,30,0,2024-02-24T08:20:51.973Z,english_690.wav,0,peel,494,46,5,4,english,m,0,0.0,33.047654,1.58265684
6557da88346b2b209cd16bb5,30,0,2024-02-24T08:20:51.973Z,english_690.wav,0,peel,494,46,5,4,english,m,1,0.1,0.0212167444,0.6931717
6557da88346b2b209cd16bb5,30,0,2024-02-24T08:20:51.973Z,english_690.wav,0,peel,494,46,5,4,english,m,2,0.2,21.343237,1.47002515
6557da88346b2b209cd16bb5,30,0,2024-02-24T08:20:51.973Z,english_690.wav,0,peel,494,46,5,4,english,m,3,0.3,35.4710796,1.9856235
6557da88346b2b209cd16bb5,30,0,2024-02-24T08:20:51.973Z,english_690.wav,0,peel,494,46,5,4,english,m,4,0.323416667,79.4400816,1.00479917
6557da88346b2b209cd16bb5,31,0,2024-02-24T08:20:51.973Z,english_438.wav,0,peel,823,46,5,4,english,m,0,0.0,31.75305261,1.38451981
6557da88346b2b209cd16bb5,31,0,2024-02-24T08:20:51.973Z,english_438.wav,0,peel,823,46,5,4,english,m,1,0.1,20.27112767,1.99020027
6557da88346b2b209cd16bb5,31,0,2024-02-24T08:20:51.973Z,english_438.wav,0,peel,823,46,5,4,english,m,2,0.2,66.65258945,0.15645945
6557da88346b2b209cd16bb5,31,0,2024-02-24T08:20:51.973Z,english_438.wav,0,peel,823,46,5,4,english,m,3,0.3,70.72003494,1.37678514
6557da88346b2b209cd16bb5,31,0,2024-02-24T08:20:51.973Z,english_438.wav,0,peel,823,46,5,4,english,m,4,0.32341667,59.11013505,0.82730153
6557da88346b2b209cd16bb5,32,0,2024-02-24T08:20:51.973Z,english_710.wav,0,peel,427,46,5,4,english,m,0,0.0,-75.8732007,1.76991952
6557da88346b2b209cd16bb5,32,0,2024-02-24T08:20:51.973Z,english_710.wav,0,peel,427,46,5,4,english,m,1,0.1,-57.22858583,1.84377411
6557da88346b2b209cd16bb5,32,0,2024-02-24T08:20:51.973Z,english_710.wav,0,peel,427,46,5,4,english,m,2,0.2,28.4956072,1.20069914
6557da88346b2b209cd16bb5,32,0,2024-02-24T08:20:51.973Z,english_710.wav,0,peel,427,46,5,4,english,m,3,0.3,-96.06281818,0.06088286
6557da88346b2b209cd16bb5,32,0,2024-02-24T08:20:51.973Z,english_710.wav,0,peel,427,46,5,4,english,m,4,0.32341667,12.57492899,1.86160088
6557da88346b2b209cd16bb5,33,0,2024-02-24T08:20:51.973Z,english_587.wav,0,peel,265,46,5,4,english,m,0,0.0,-33.32102811,0.7972352
6557da88346b2b209cd16bb5,33,0,2024-02-24T08:20:51.973Z,english_587.wav,0,peel,265,46,5,4,english,m,1,0.1,46.1287001,1.97425238
6557da88346b2b209cd16bb5,33,0,2024-02-24T08:20:51.973Z,english_587.wav,0,peel,265,46,5,4,english,m,2,0.2,-62.23894368,0.99609006
6557da88346b2b209cd16bb5,33,0,2024-02-24T08:20:51.973Z,english_587.wav,0,peel,265,46,5,4,english,m,3,0.3,36.67711132,1.18577707
6557da88346b2b209cd16bb5,33,0,2024-02-24T08:20:51.973Z,english_587.wav,0,peel,265,46,5,4,english,m,4,0.32341667,-11.53320103,1.64089558
6557da88346b2b209cd16bb5,34,0,2024-02-24T08:20:51.973Z,english_918.wav,0,peel,351,46,5,4,english,m,0,0.0,-64.11083249,1.38668504
6557da88346b2b209cd16bb5,34,0,2024-02-24T08:20:51.973Z,english_918.wav,0,peel,351,46,5,4,english,m,1,0.1,75.84330997,1.4522357
6557da88346b2b209cd16bb5,34,0,2024-02-24T08:20:51.973Z,english_918.wav,0,peel,351,46,5,4,english,m,2,0.2,-30.10314186,1.37046734
6557da88346b2b209cd16bb5,34,0,2024-02-24T08:20:51.973Z,english_918.wav,0,peel,351,46,5,4,english,m,3,0.3,91.40385877,0.70209545
6557da88346b2b209cd16bb5,34,0,2024-02-24T08:20:51.973Z,english_918.wav,0,peel,351,46,5,4,english,m,4,0.32341667,-14.12068895,0.09881605
6557da88346b2b209cd16bb5,35,0,2024-02-24T08:20:51.973Z,english_969.wav,0,pill,983,46,5,4,english,m,0,0.0,0.27440165,1.49550116
6557da88346b2b209cd16bb5,35,0,2024-02-24T08:20:51.973Z,english_969.wav,0,pill,983,46,5,4,english,m,1,0.1,32.90941676,1.08086357
6557da88346b2b209cd16bb5,35,0,2024-02-24T08:20:51.973Z,english_969.wav,0,pill,983,46,5,4,english,m,2,0.2,65.54691775,0.25687245
6557da88346b2b209cd16bb5,35,0,2024-02-24T08:20:51.973Z,english_969.wav,0,pill,983,46,5,4,english,m,3,0.3,38.11090315,0.33107225
6557da88346b2b209cd16bb5,35,0,2024-02-24T08:20:51.973Z,english_969.wav,0,pill,983,46,5,4,english,m,4,0.32341667,-66.49311905,0.72842933
6557da88346b2b209cd16bb5,36,0,2024-02-24T08:20:51.973Z,english_72.wav,0,pill,728,46,5,4,english,m,0,0.0,3.79788214,1.04175162
6557da88346b2b209cd16bb5,36,0,2024-02-24T08:20:51.973Z,english_72.wav,0,pill,728,46,5,4,english,m,1,0.1,-35.73428138,0.91099175
6557da88346b2b209cd16bb5,36,0,2024-02-24T08:20:51.973Z,english_72.wav,0,pill,728,46,5,4,english,m,2,0.2,-30.83181688,0.34322307
6557da88346b2b209cd16bb5,36,0,2024-02-24T08:20:51.973Z,english_72.wav,0,pill,728,46,5,4,english,m,3,0.3,-68.4260973,1.39599539
6557da88346b2b209cd16bb5,36,0,2024-02-24T08:20:51.973Z,english_72.wav,0,pill,728,46,5,4,english,m,4,0.32341667,-10.87667298,0.78322702
6557da88346b2b209cd16bb5,37,0,2024-02-24T08:20:51.973Z,english_213.wav,0,pill,672,46,5,4,english,m,0,0.0,-29.91874444,1.42031243
6557da88346b2b209cd16bb5,37,0,2024-02-24T08:20:51.973Z,english_213.wav,0,pill,672,46,5,4,english,m,1,0.1,41.64704809,0.59218852
6557da88346b2b209cd16bb5,37,0,2024-02-24T08:20:51.973Z,english_213.wav,0,pill,672,46,5,4,english,m,2,0.2,-87.11075848,1.10576613
6557da88346b2b209cd16bb5,37,0,2024-02-24T08:20:51.973Z,english_213.wav,0,pill,672,46,5,4,english,m,3,0.3,-61.54877495,0.09529021
6557da88346b2b209cd16bb5,37,0,2024-02-24T08:20:51.973Z,english_213.wav,0,pill,672,46,5,4,english,m,4,0.32341667,-34.29429643,1.15583312
6557da88346b2b209cd16bb5,38,0,2024-02-24T08:20:51.973Z,english_523.wav,0,pill,2177,46,5,4,english,m,0,0.0,8.07414344,0.20594791
6557da88346b2b209cd16bb5,38,0,2024-02-24T08:20:51.973Z,english_523.wav,0,pill,2177,46,5,4,english,m,1,0.1,27.61667564,1.87511385
6557da88346b2b209cd16bb5,38,0,2024-02-24T08:20:51.973Z,english_523.wav,0,pill,2177,46,5,4,english,m,2,0.2,12.25175146,0.19246655
6557da88346b2b209cd16bb5,38,0,2024-02-24T08:20:51.973Z,english_523.wav,0,pill,2177,46,5,4,english,m,3,0.3,5.7333769,0.42766967
6557da88346b2b209cd16bb5,38,0,2024-02-24T08:20:51.973Z,english_523.wav,0,pill,2177,46,5,4,english,m,4,0.32341667,77.72310536,1.43882185
6557da88346b2b209cd16bb5,39,0,2024-02-24T08:20:51.973Z,english_575.wav,0,peel,256,46,5,4,english,m,0,0.0,61.73461998,1.8510319
6557da88346b2b209cd16bb5,39,0,2024-02-24T08:20:51.973Z,english_575.wav,0,peel,256,46,5,4,english,m,1,0.1,-88.57549656,1.54102878
6557da88346b2b209cd16bb5,39,0,2024-02-24T08:20:51.973Z,english_575.wav,0,peel,256,46,5,4,english,m,2,0.2,-30.88461278,1.19801244
6557da88346b2b209cd16bb5,39,0,2024-02-24T08:20:51.973Z,english_575.wav,0,peel,256,46,5,4,english,m,3,0.3,-63.73327026,1.20026237
6557da88346b2b209cd16bb5,39,0,2024-02-24T08:20:51.973Z,english_575.wav,0,peel,256,46,5,4,english,m,4,0.32341667,-0.55806298,1.04112184
6557da88346b2b209cd16bb5,40,0,2024-02-24T08:20:51.973Z,english_358.wav,0,pill,1194,46,5,4,english,m,0,0.0,-24.40280242,0.64702298
6557da88346b2b209cd16bb5,40,0,2024-02-24T08:20:51.973Z,english_358.wav,0,pill,1194,46,5,4,english,m,1,0.1,62.18566088,0.86836285
6557da88346b2b209cd16bb5,40,0,2024-02-24T08:20:51.973Z,english_358.wav,0,pill,1194,46,5,4,english,m,2,0.2,5.26675109,1.05826104
6557da88346b2b209cd16bb5,40,0,2024-02-24T08:20:51.973Z,english_358.wav,0,pill,1194,46,5,4,english,m,3,0.3,-31.91571391,1.98011631
6557da88346b2b209cd16bb5,40,0,2024-02-24T08:20:51.973Z,english_358.wav,0,pill,1194,46,5,4,english,m,4,0.32341667,27.35112364,0.35058307
6557da88346b2b209cd16bb5,41,0,2024-02-24T08:20:51.973Z,english_880.wav,0,pill,491,46,5,4,english,m,0,0.0,3.17154152,0.81183988
6557da88346b2b209cd16bb5,41,0,2024-02-24T08:20:51.973Z,english_880.wav,0,pill,491,46,5,4,english,m,1,0.1,-74.02271749,1.44061269
6557da88346b2b209cd16bb5,41,0,2024-02-24T08:20:51.973Z,english_880.wav,0,pill,491,46,5,4,english,m,2,0.2,46.15952764,0.42884863
6557da88346b2b209cd16bb5,41,0,2024-02-24T08:20:51.973Z,english_880.wav,0,pill,491,46,5,4,english,m,3,0.3,4.14106927,1.93838261
6557da88346b2b209cd16bb5,41,0,2024-02-24T08:20:51.973Z,english_880.wav,0,pill,491,46,5,4,english,m,4,0.32341667,26.36707366,1.4503687
6557da88346b2b209cd16bb5,42,0,2024-02-24T08:20:51.973Z,english_78.wav,0,peel,114,46,5,4,english,m,0,0.0,57.57509383,0.85738581
6557da88346b2b209cd16bb5,42,0,2024-02-24T08:20:51.973Z,english_78.wav,0,peel,114,46,5,4,english,m,1,0.1,8.37611797,1.59375359
6557da88346b2b209cd16bb5,42,0,2024-02-24T08:20:51.973Z,english_78.wav,0,peel,114,46,5,4,english,m,2,0.2,-42.8518908,1.65756647
6557da88346b2b209cd16bb5,42,0,2024-02-24T08:20:51.973Z,english_78.wav,0,peel,114,46,5,4,english,m,3,0.3,26.19415986,0.53011742
6557da88346b2b209cd16bb5,42,0,2024-02-24T08:20:51.973Z,english_78.wav,0,peel,114,46,5,4,english,m,4,0.32341667,65.52498429,1.5323802
6557da88346b2b209cd16bb5,43,0,2024-02-24T08:20:51.973Z,english_465.wav,0,pill,526,46,5,4,english,m,0,0.0,40.04056426,1.33778995
6557da88346b2b209cd16bb5,43,0,2024-02-24T08:20:51.973Z,english_465.wav,0,pill,526,46,5,4,english,m,1,0.1,-97.28817369,0.1899685
6557da88346b2b209cd16bb5,43,0,2024-02-24T08:20:51.973Z,english_465.wav,0,pill,526,46,5,4,english,m,2,0.2,-58.72937184,1.35609136
6557da88346b2b209cd16bb5,43,0,2024-02-24T08:20:51.973Z,english_465.wav,0,pill,526,46,5,4,english,m,3,0.3,82.2448524,1.94032164
6557da88346b2b209cd16bb5,43,0,2024-02-24T08:20:51.973Z,english_465.wav,0,pill,526,46,5,4,english,m,4,0.32341667,-29.20233879,0.27858753
6557da88346b2b209cd16bb5,44,0,2024-02-24T08:20:51.973Z,english_53.wav,0,pill,976,46,5,4,english,m,0,0.0,5.97237457,0.42230306
6557da88346b2b209cd16bb5,44,0,2024-02-24T08:20:51.973Z,english_53.wav,0,pill,976,46,5,4,english,m,1,0.1,-76.12131912,0.60624646
6557da88346b2b209cd16bb5,44,0,2024-02-24T08:20:51.973Z,english_53.wav,0,pill,976,46,5,4,english,m,2,0.2,55.18337216,0.26369256
6557da88346b2b209cd16bb5,44,0,2024-02-24T08:20:51.973Z,english_53.wav,0,pill,976,46,5,4,english,m,3,0.3,70.32610425,1.07400525
6557da88346b2b209cd16bb5,44,0,2024-02-24T08:20:51.973Z,english_53.wav,0,pill,976,46,5,4,english,m,4,0.32341667,26.40450832,0.2721545
6557da88346b2b209cd16bb5,45,0,2024-02-24T08:20:51.973Z,english_79.wav,0,pill,578,46,5,4,english,m,0,0.0,-69.52518262,0.23164561
6557da88346b2b209cd16bb5,45,0,2024-02-24T08:20:51.973Z,english_79.wav,0,pill,578,46,5,4,english,m,1,0.1,56.533406,1.01948637
6557da88346b2b209cd16bb5,45,0,2024-02-24T08:20:51.973Z,english_79.wav,0,pill,578,46,5,4,english,m,2,0.2,25.92051761,0.17653141
6557da88346b2b209cd16bb5,45,0,2024-02-24T08:20:51.973Z,english_79.wav,0,pill,578,46,5,4,english,m,3,0.3,81.58880491,0.14868702
6557da88346b2b209cd16bb5,45,0,2024-02-24T08:20:51.973Z,english_79.wav,0,pill,578,46,5,4,english,m,4,0.32341667,-19.75719301,0.33345335
6557da88346b2b209cd16bb5,46,0,2024-02-24T08:20:51.973Z,english_479.wav,0,pill,567,46,5,4,english,m,0,0.0,74.98268857,0.98081986
6557da88346b2b209cd16bb5,46,0,2024-02-24T08:20:51.973Z,english_479.wav,0,pill,567,46,5,4,english,m,1,0.1,16.03290679,0.71187618
6557da88346b2b209cd16bb5,46,0,2024-02-24T08:20:51.973Z,english_479.wav,0,pill,567,46,5,4,english,m,2,0.2,78.97784812,0.27050369
6557da88346b2b209cd16bb5,46,0,2024-02-24T08:20:51.973Z,english_479.wav,0,pill,567,46,5,4,english,m,3,0.3,-15.63843586,1.15797271
6557da88346b2b209cd16bb5,46,0,2024-02-24T08:20:51.973Z,english_479.wav,0,pill,567,46,5,4,english,m,4,0.32341667,42.04802753,1.51318639
6557da88346b2b209cd16bb5,47,0,2024-02-24T08:20:51.973Z,english_650.wav,0,pill,536,46,5,4,english,m,0,0.0,-14.34164867,1.10695192
6557da88346b2b209cd16bb5,47,0,2024-02-24T08:20:51.973Z,english_650.wav,0,pill,536,46,5,4,english,m,1,0.1,-59.47569919,1.2442548
6557da88346b2b209cd16bb5,47,0,2024-02-24T08:20:51.973Z,english_650.wav,0,pill,536,46,5,4,english,m,2,0.2,-47.0995584,0.31281267
6557da88346b2b209cd16bb5,47,0,2024-02-24T08:20:51.973Z,english_650.wav,0,pill,536,46,5,4,english,m,3,0.3,-55.25841156,1.9869399
6557da88346b2b209cd16bb5,47,0,2024-02-24T08:20:51.973Z,english_650.wav,0,pill,536,46,5,4,english,m,4,0.32341667,83.92345375,1.10607629
6557da88346b2b209cd16bb5,48,0,2024-02-24T08:20:51.973Z,english_265.wav,0,peel,733,46,5,4,english,m,0,0.0,-30.2287418,1.31067296
6557da88346b2b209cd16bb5,48,0,2024-02-24T08:20:51.973Z,english_265.wav,0,peel,733,46,5,4,english,m,1,0.1,86.62283936,0.87427745
6557da88346b2b209cd16bb5,48,0,2024-02-24T08:20:51.973Z,english_265.wav,0,peel,733,46,5,4,english,m,2,0.2,-21.47577863,1.37620008
6557da88346b2b209cd16bb5,48,0,2024-02-24T08:20:51.973Z,english_265.wav,0,peel,733,46,5,4,english,m,3,0.3,84.9300577,0.45825557
6557da88346b2b209cd16bb5,48,0,2024-02-24T08:20:51.973Z,english_265.wav,0,peel,733,46,5,4,english,m,4,0.32341667,59.52250756,1.13518739
6557da88346b2b209cd16bb5,49,0,2024-02-24T08:20:51.973Z,english_725.wav,0,pill,558,46,5,4,english,m,0,0.0,26.80600371,0.25466557
6557da88346b2b209cd16bb5,49,0,2024-02-24T08:20:51.973Z,english_725.wav,0,pill,558,46,5,4,english,m,1,0.1,82.24352357,0.77088778
6557da88346b2b209cd16bb5,49,0,2024-02-24T08:20:51.973Z,english_725.wav,0,pill,558,46,5,4,english,m,2,0.2,-3.79901328,0.70697722
6557da88346b2b209cd16bb5,49,0,2024-02-24T08:20:51.973Z,english_725.wav,0,pill,558,46,5,4,english,m,3,0.3,68.54562933,1.24247197
6557da88346b2b209cd16bb5,49,0,2024-02-24T08:20:51.973Z,english_725.wav,0,pill,558,46,5,4,english,m,4,0.32341667,-39.79698803,1.34526742
6557da88346b2b209cd16bb5,50,1,2024-02-24T08:20:51.973Z,english_932.wav,0,peel,1511,46,5,4,english,m,0,0.0,-3.8848098,1.00949787
6557da88346b2b209cd16bb5,50,1,2024-02-24T08:20:51.973Z,english_932.wav,0,peel,1511,46,5,4,english,m,1,0.1,-32.48916274,1.44703087
6557da88346b2b209cd16bb5,50,1,2024-02-24T08:20:51.973Z,english_932.wav,0,peel,1511,46,5,4,english,m,2,0.2,81.26251807,0.10808594
6557da88346b2b209cd16bb5,50,1,2024-02-24T08:20:51.973Z,english_932.wav,0,peel,1511,46,5,4,english,m,3,0.3,-18.23478105,0.03465182
6557da88346b2b209cd16bb5,50,1,2024-02-24T08:20:51.973Z,english_932.wav,0,peel,1511,46,5,4,english,m,4,0.32341667,7.90132089,0.79845554
6557da88346b2b209cd16bb5,51,1,2024-02-24T08:20:51.973Z,english_936.wav,0,peel,517,46,5,4,english,m,0,0.0,48.39129511,0.54114143
6557da88346b2b209cd16bb5,51,1,2024-02-24T08:20:51.973Z,english_936.wav,0,peel,517,46,5,4,english,m,1,0.1,-60.21618585,1.68728974
6557da88346b2b209cd16bb5,51,1,2024-02-24T08:20:51.973Z,english_936.wav,0,peel,517,46,5,4,english,m,2,0.2,21.92845445,1.39155326
6557da88346b2b209cd16bb5,51,1,2024-02-24T08:20:51.973Z,english_936.wav,0,peel,517,46,5,4,english,m,3,0.3,72.85258749,0.90488419
6557da88346b2b209cd16bb5,51,1,2024-02-24T08:20:51.973Z,english_936.wav,0,peel,517,46,5,4,english,m,4,0.32341667,60.11152814,1.20326098
6557da88346b2b209cd16bb5,52,1,2024-02-24T08:20:51.973Z,english_208.wav,0,peel,529,46,5,4,english,m,0,0.0,-16.36413188,1.19542909
6557da88346b2b209cd16bb5,52,1,2024-02-24T08:20:51.973Z,english_208.wav,0,peel,529,46,5,4,english,m,1,0.1,25.67725806,0.42717457
6557da88346b2b209cd16bb5,52,1,2024-02-24T08:20:51.973Z,english_208.wav,0,peel,529,46,5,4,english,m,2,0.2,15.43722313,1.01088833
6557da88346b2b209cd16bb5,52,1,2024-02-24T08:20:51.973Z,english_208.wav,0,peel,529,46,5,4,english,m,3,0.3,-39.3158007,1.09044814
6557da88346b2b209cd16bb5,52,1,2024-02-24T08:20:51.973Z,english_208.wav,0,peel,529,46,5,4,english,m,4,0.32341667,38.48956167,1.60091335
6557da88346b2b209cd16bb5,53,1,2024-02-24T08:20:51.973Z,english_381.wav,0,peel,335,46,5,4,english,m,0,0.0,-64.83599525,0.77808766
6557da88346b2b209cd16bb5,53,1,2024-02-24T08:20:51.973Z,english_381.wav,0,peel,335,46,5,4,english,m,1,0.1,97.61236857,1.62635576
6557da88346b2b209cd16bb5,53,1,2024-02-24T08:20:51.973Z,english_381.wav,0,peel,335,46,5,4,english,m,2,0.2,-60.27157178,0.65298664
6557da88346b2b209cd16bb5,53,1,2024-02-24T08:20:51.973Z,english_381.wav,0,peel,335,46,5,4,english,m,3,0.3,84.45732791,0.46881793
6557da88346b2b209cd16bb5,53,1,2024-02-24T08:20:51.973Z,english_381.wav,0,peel,335,46,5,4,english,m,4,0.32341667,-87.53832291,1.22836965
6557da88346b2b209cd16bb5,54,1,2024-02-24T08:20:51.973Z,english_949.wav,0,peel,336,46,5,4,english,m,0,0.0,48.32946721,1.50413289
6557da88346b2b209cd16bb5,54,1,2024-02-24T08:20:51.973Z,english_949.wav,0,peel,336,46,5,4,english,m,1,0.1,73.83586198,1.55745414
6557da88346b2b209cd16bb5,54,1,2024-02-24T08:20:51.973Z,english_949.wav,0,peel,336,46,5,4,english,m,2,0.2,-30.27812065,1.00772566
6557da88346b2b209cd16bb5,54,1,2024-02-24T08:20:51.973Z,english_949.wav,0,peel,336,46,5,4,english,m,3,0.3,-32.50397555,0.86702054
6557da88346b2b209cd16bb5,54,1,2024-02-24T08:20:51.973Z,english_949.wav,0,peel,336,46,5,4,english,m,4,0.32341667,96.46984971,1.67836019
6557da88346b2b209cd16bb5,55,1,2024-02-24T08:20:51.973Z,english_989.wav,0,pill,424,46,5,4,english,m,0,0.0,-51.1051603,1.00035195
6557da88346b2b209cd16bb5,55,1,2024-02-24T08:20:51.973Z,english_989.wav,0,pill,424,46,5,4,english,m,1,0.1,-91.26717948,0.46124463
6557da88346b2b209cd16bb5,55,1,2024-02-24T08:20:51.973Z,english_989.wav,0,pill,424,46,5,4,english,m,2,0.2,73.5145218,0.77735517
6557da88346b2b209cd16bb5,55,1,2024-02-24T08:20:51.973Z,english_989.wav,0,pill,424,46,5,4,english,m,3,0.3,54.43703181,1.21549894
6557da88346b2b209cd16bb5,55,1,2024-02-24T08:20:51.973Z,english_989.wav,0,pill,424,46,5,4,english,m,4,0.32341667,-36.95823638,0.33045291
6557da88346b2b209cd16bb5,56,1,2024-02-24T08:20:51.973Z,english_975.wav,0,pill,513,46,5,4,english,m,0,0.0,30.76275893,1.75032315
6557da88346b2b209cd16bb5,56,1,2024-02-24T08:20:51.973Z,english_975.wav,0,pill,513,46,5,4,english,m,1,0.1,-18.30184736,1.1766706
6557da88346b2b209cd16bb5,56,1,2024-02-24T08:20:51.973Z,english_975.wav,0,pill,513,46,5,4,english,m,2,0.2,88.92209311,0.11148121
6557da88346b2b209cd16bb5,56,1,2024-02-24T08:20:51.973Z,english_975.wav,0,pill,513,46,5,4,english,m,3,0.3,-15.78836893,1.00992181
6557da88346b2b209cd16bb5,56,1,2024-02-24T08:20:51.973Z,english_975.wav,0,pill,513,46,5,4,english,m,4,0.32341667,81.69873146,1.08252971
6557da88346b2b209cd16bb5,57,1,2024-02-24T08:20:51.973Z,english_615.wav,0,peel,184,46,5,4,english,m,0,0.0,76.05955912,1.68553334
6557da88346b2b209cd16bb5,57,1,2024-02-24T08:20:51.973Z,english_615.wav,0,peel,184,46,5,4,english,m,1,0.1,54.62950786,1.5058876
6557da88346b2b209cd16bb5,57,1,2024-02-24T08:20:51.973Z,english_615.wav,0,peel,184,46,5,4,english,m,2,0.2,-31.02204933,1.66676809
6557da88346b2b209cd16bb5,57,1,2024-02-24T08:20:51.973Z,english_615.wav,0,peel,184,46,5,4,english,m,3,0.3,-3.27946314,1.09840801
6557da88346b2b209cd16bb5,57,1,2024-02-24T08:20:51.973Z,english_615.wav,0,peel,184,46,5,4,english,m,4,0.32341667,51.350795,0.25314986
6557da88346b2b209cd16bb5,58,1,2024-02-24T08:20:51.973Z,english_17.wav,0,pill,294,46,5,4,english,m,0,0.0,54.20763778,0.24306789
6557da88346b2b209cd16bb5,58,1,2024-02-24T08:20:51.973Z,english_17.wav,0,pill,294,46,5,4,english,m,1,0.1,56.90002318,0.93194053
6557da88346b2b209cd16bb5,58,1,2024-02-24T08:20:51.973Z,english_17.wav,0,pill,294,46,5,4,english,m,2,0.2,53.34795505,0.70954885
6557da88346b2b209cd16bb5,58,1,2024-02-24T08:20:51.973Z,english_17.wav,0,pill,294,46,5,4,english,m,3,0.3,-49.04179277,1.57385934
6557da88346b2b209cd16bb5,58,1,2024-02-24T08:20:51.973Z,english_17.wav,0,pill,294,46,5,4,english,m,4,0.32341667,-46.12718147,1.28258365
6557da88346b2b209cd16bb5,59,1,2024-02-24T08:20:51.973Z,english_200.wav,0,pill,759,46,5,4,english,m,0,0.0,48.98677304,1.07797747
6557da88346b2b209cd16bb5,59,1,2024-02-24T08:20:51.973Z,english_200.wav,0,pill,759,46,5,4,english,m,1,0.1,13.54292536,1.23698451
6557da88346b2b209cd16bb5,59,1,2024-02-24T08:20:51.973Z,english_200.wav,0,pill,759,46,5,4,english,m,2,0.2,15.98335964,0.85343662
6557da88346b2b209cd16bb5,59,1,2024-02-24T08:20:51.973Z,english_200.wav,0,pill,759,46,5,4,english,m,3,0.3,-46.7743147,1.38707984
6557da88346b2b209cd16bb5,59,1,2024-02-24T08:20:51.973Z,english_200.wav,0,pill,759,46,5,4,english,m,4,0.32341667,-12.18386714,0.65409939
6557da88346b2b209cd16bb5,60,1,2024-02-24T08:20:51.973Z,english_909.wav,0,peel,683,46,5,4,english,m,0,0.0,-19.4205152,0.17681169
6557da88346b2b209cd16bb5,60,1,2024-02-24T08:20:51.973Z,english_909.wav,0,peel,683,46,5,4,english,m,1,0.1,-31.830868,1.02014656
6557da88346b2b209cd16bb5,60,1,2024-02-24T08:20:51.973Z,english_909.wav,0,peel,683,46,5,4,english,m,2,0.2,71.05598051,1.59945112
6557da88346b2b209cd16bb5,60,1,2024-02-24T08:20:51.973Z,english_909.wav,0,peel,683,46,5,4,english,m,3,0.3,-13.09259164,1.33685121
6557da88346b2b209cd16bb5,60,1,2024-02-24T08:20:51.973Z,english_909.wav,0,peel,683,46,5,4,english,m,4,0.32341667,-99.47743822,0.41114962
6557da88346b2b209cd16bb5,61,1,2024-02-24T08:20:51.973Z,english_413.wav,0,pill,366,46,5,4,english,m,0,0.0,-9.66675054,1.82887045
6557da88346b2b209cd16bb5,61,1,2024-02-24T08:20:51.973Z,english_413.wav,0,pill,366,46,5,4,english,m,1,0.1,15.27504309,0.80668743
6557da88346b2b209cd16bb5,61,1,2024-02-24T08:20:51.973Z,english_413.wav,0,pill,366,46,5,4,english,m,2,0.2,-94.93171401,0.90586838
6557da88346b2b209cd16bb5,61,1,2024-02-24T08:20:51.973Z,english_413.wav,0,pill,366,46,5,4,english,m,3,0.3,-42.87800999,1.3937681
6557da88346b2b209cd16bb5,61,1,2024-02-24T08:20:51.973Z,english_413.wav,0,pill,366,46,5,4,english,m,4,0.32341667,-63.39385234,0.34165264
6557da88346b2b209cd16bb5,62,1,2024-02-24T08:20:51.973Z,english_190.wav,0,pill,624,46,5,4,english,m,0,0.0,81.66607819,0.126715216
6557da88346b2b209cd16bb5,62,1,2024-02-24T08:20:51.973Z,english_190.wav,0,pill,624,46,5,4,english,m,1,0.1,-14.16938067,0.000178349903
6557da88346b2b209cd16bb5,62,1,2024-02-24T08:20:51.973Z,english_190.wav,0,pill,624,46,5,4,english,m,2,0.2,15.7443745,1.35192229
6557da88346b2b209cd16bb5,62,1,2024-02-24T08:20:51.973Z,english_190.wav,0,pill,624,46,5,4,english,m,3,0.3,85.77694093,1.08905811
6557da88346b2b209cd16bb5,62,1,2024-02-24T08:20:51.973Z,english_190.wav,0,pill,624,46,5,4,english,m,4,0.32341667,33.21115004,1.75580408
6557da88346b2b209cd16bb5,63,1,2024-02-24T08:20:51.973Z,english_335.wav,0,pill,413,46,5,4,english,m,0,0.0,2.73277154,0.73564724
6557da88346b2b209cd16bb5,63,1,2024-02-24T08:20:51.973Z,english_335.wav,0,pill,413,46,5,4,english,m,1,0.1,-7.1950175,0.15546095
6557da88346b2b209cd16bb5,63,1,2024-02-24T08:20:51.973Z,english_335.wav,0,pill,413,46,5,4,english,m,2,0.2,60.45920583,0.90435367
6557da88346b2b209cd16bb5,63,1,2024-02-24T08:20:51.973Z,english_335.wav,0,pill,413,46,5,4,english,m,3,0.3,-26.91989021,0.56661996
6557da88346b2b209cd16bb5,63,1,2024-02-24T08:20:51.973Z,english_335.wav,0,pill,413,46,5,4,english,m,4,0.32341667,-2.30142169,1.21763394
6557da88346b2b209cd16bb5,64,1,2024-02-24T08:20:51.973Z,english_314.wav,0,pill,800,46,5,4,english,m,0,0.0,-64.95449137,1.33019215
6557da88346b2b209cd16bb5,64,1,2024-02-24T08:20:51.973Z,english_314.wav,0,pill,800,46,5,4,english,m,1,0.1,41.76232806,0.95010379
6557da88346b2b209cd16bb5,64,1,2024-02-24T08:20:51.973Z,english_314.wav,0,pill,800,46,5,4,english,m,2,0.2,68.0199099,0.0418164
6557da88346b2b209cd16bb5,64,1,2024-02-24T08:20:51.973Z,english_314.wav,0,pill,800,46,5,4,english,m,3,0.3,-18.86846342,0.3847457
6557da88346b2b209cd16bb5,64,1,2024-02-24T08:20:51.973Z,english_314.wav,0,pill,800,46,5,4,english,m,4,0.32341667,-2.58545886,1.31154336
6557da88346b2b209cd16bb5,65,1,2024-02-24T08:20:51.973Z,english_555.wav,0,pill,325,46,5,4,english,m,0,0.0,69.49762262,1.08530069
6557da88346b2b209cd16bb5,65,1,2024-02-24T08:20:51.973Z,english_555.wav,0,pill,325,46,5,4,english,m,1,0.1,42.72159746,0.99979939
6557da88346b2b209cd16bb5,65,1,2024-02-24T08:20:51.973Z,english_555.wav,0,pill,325,46,5,4,english,m,2,0.2,96.74773092,1.75882447
6557da88346b2b209cd16bb5,65,1,2024-02-24T08:20:51.973Z,english_555.wav,0,pill,325,46,5,4,english,m,3,0.3,-27.92411753,1.36775981
6557da88346b2b209cd16bb5,65,1,2024-02-24T08:20:51.973Z,english_555.wav,0,pill,325,46,5,4,english,m,4,0.32341667,33.93273626,0.90104071
6557da88346b2b209cd16bb5,66,1,2024-02-24T08:20:51.973Z,english_651.wav,0,pill,599,46,5,4,english,m,0,0.0,94.66063372,0.16277223
6557da88346b2b209cd16bb5,66,1,2024-02-24T08:20:51.973Z,english_651.wav,0,pill,599,46,5,4,english,m,1,0.1,53.93234837,1.71236475
6557da88346b2b209cd16bb5,66,1,2024-02-24T08:20:51.973Z,english_651.wav,0,pill,599,46,5,4,english,m,2,0.2,-71.35755131,0.37376336
6557da88346b2b209cd16bb5,66,1,2024-02-24T08:20:51.973Z,english_651.wav,0,pill,599,46,5,4,english,m,3,0.3,50.84025958,0.80998932
6557da88346b2b209cd16bb5,66,1,2024-02-24T08:20:51.973Z,english_651.wav,0,pill,599,46,5,4,english,m,4,0.32341667,-24.67252949,0.23835763
6557da88346b2b209cd16bb5,67,1,2024-02-24T08:20:51.973Z,english_379.wav,0,pill,1182,46,5,4,english,m,0,0.0,30.14616912,1.43961489
6557da88346b2b209cd16bb5,67,1,2024-02-24T08:20:51.973Z,english_379.wav,0,pill,1182,46,5,4,english,m,1,0.1,-79.51193423,1.4219763
6557da88346b2b209cd16bb5,67,1,2024-02-24T08:20:51.973Z,english_379.wav,0,pill,1182,46,5,4,english,m,2,0.2,7.34860539,0.62633101
6557da88346b2b209cd16bb5,67,1,2024-02-24T08:20:51.973Z,english_379.wav,0,pill,1182,46,5,4,english,m,3,0.3,-43.99342265,1.13621958
6557da88346b2b209cd16bb5,67,1,2024-02-24T08:20:51.973Z,english_379.wav,0,pill,1182,46,5,4,english,m,4,0.32341667,37.72881761,1.35387794
6557da88346b2b209cd16bb5,68,1,2024-02-24T08:20:51.973Z,english_228.wav,0,pill,1913,46,5,4,english,m,0,0.0,10.35680964,1.81276751
6557da88346b2b209cd16bb5,68,1,2024-02-24T08:20:51.973Z,english_228.wav,0,pill,1913,46,5,4,english,m,1,0.1,-84.53961792,0.9819477
6557da88346b2b209cd16bb5,68,1,2024-02-24T08:20:51.973Z,english_228.wav,0,pill,1913,46,5,4,english,m,2,0.2,38.41788342,1.68506606
6557da88346b2b209cd16bb5,68,1,2024-02-24T08:20:51.973Z,english_228.wav,0,pill,1913,46,5,4,english,m,3,0.3,-9.18015311,0.19219142
6557da88346b2b209cd16bb5,68,1,2024-02-24T08:20:51.973Z,english_228.wav,0,pill,1913,46,5,4,english,m,4,0.32341667,-12.25744947,1.99636764
6557da88346b2b209cd16bb5,69,1,2024-02-24T08:20:51.973Z,english_474.wav,0,pill,390,46,5,4,english,m,0,0.0,42.88606971,0.87351765
6557da88346b2b209cd16bb5,69,1,2024-02-24T08:20:51.973Z,english_474.wav,0,pill,390,46,5,4,english,m,1,0.1,6.82691085,1.08551449
6557da88346b2b209cd16bb5,69,1,2024-02-24T08:20:51.973Z,english_474.wav,0,pill,390,46,5,4,english,m,2,0.2,-33.80031927,1.99847166
6557da88346b2b209cd16bb5,69,1,2024-02-24T08:20:51.973Z,english_474.wav,0,pill,390,46,5,4,english,m,3,0.3,-97.18672796,0.27470298
6557da88346b2b209cd16bb5,69,1,2024-02-24T08:20:51.973Z,english_474.wav,0,pill,390,46,5,4,english,m,4,0.32341667,-4.7462475,0.02962094
6557da88346b2b209cd16bb5,70,1,2024-02-24T08:20:51.973Z,english_49.wav,0,pill,704,46,5,4,english,m,0,0.0,-6.08822071,0.36436507
6557da88346b2b209cd16bb5,70,1,2024-02-24T08:20:51.973Z,english_49.wav,0,pill,704,46,5,4,english,m,1,0.1,-56.0367764,1.66948988
6557da88346b2b209cd16bb5,70,1,2024-02-24T08:20:51.973Z,english_49.wav,0,pill,704,46,5,4,english,m,2,0.2,-51.95657584,1.20554654
6557da88346b2b209cd16bb5,70,1,2024-02-24T08:20:51.973Z,english_49.wav,0,pill,704,46,5,4,english,m,3,0.3,-59.93208112,0.31084089
6557da88346b2b209cd16bb5,70,1,2024-02-24T08:20:51.973Z,english_49.wav,0,pill,704,46,5,4,english,m,4,0.32341667,-7.85847813,0.44223059
6557da88346b2b209cd16bb5,71,1,2024-02-24T08:20:51.973Z,english_43.wav,0,pill,964,46,5,4,english,m,0,0.0,22.40064366,1.74132857
6557da88346b2b209cd16bb5,71,1,2024-02-24T08:20:51.973Z,english_43.wav,0,pill,964,46,5,4,english,m,1,0.1,-68.20152198,0.12763156
6557da88346b2b209cd16bb5,71,1,2024-02-24T08:20:51.973Z,english_43.wav,0,pill,964,46,5,4,english,m,2,0.2,62.56231291,0.31420738
6557da88346b2b209cd16bb5,71,1,2024-02-24T08:20:51.973Z,english_43.wav,0,pill,964,46,5,4,english,m,3,0.3,45.0736378,0.98572154
6557da88346b2b209cd16bb5,71,1,2024-02-24T08:20:51.973Z,english_43.wav,0,pill,964,46,5,4,english,m,4,0.32341667,-36.46791656,0.91325677
6557da88346b2b209cd16bb5,72,1,2024-02-24T08:20:51.973Z,english_252.wav,0,pill,1534,46,5,4,english,m,0,0.0,79.75601627,0.77799761
6557da88346b2b209cd16bb5,72,1,2024-02-24T08:20:51.973Z,english_252.wav,0,pill,1534,46,5,4,english,m,1,0.1,17.00183399,1.07711339
6557da88346b2b209cd16bb5,72,1,2024-02-24T08:20:51.973Z,english_252.wav,0,pill,1534,46,5,4,english,m,2,0.2,-25.42800597,0.7917181
6557da88346b2b209cd16bb5,72,1,2024-02-24T08:20:51.973Z,english_252.wav,0,pill,1534,46,5,4,english,m,3,0.3,-47.65138194,1.47632881
6557da88346b2b209cd16bb5,72,1,2024-02-24T08:20:51.973Z,english_252.wav,0,pill,1534,46,5,4,english,m,4,0.32341667,35.10652067,1.65919103
6557da88346b2b209cd16bb5,73,1,2024-02-24T08:20:51.973Z,english_566.wav,0,pill,781,46,5,4,english,m,0,0.0,70.56000247,1.04698608
6557da88346b2b209cd16bb5,73,1,2024-02-24T08:20:51.973Z,english_566.wav,0,pill,781,46,5,4,english,m,1,0.1,-0.18246418,1.13826263
6557da88346b2b209cd16bb5,73,1,2024-02-24T08:20:51.973Z,english_566.wav,0,pill,781,46,5,4,english,m,2,0.2,-23.7188651,1.91259561
6557da88346b2b209cd16bb5,73,1,2024-02-24T08:20:51.973Z,english_566.wav,0,pill,781,46,5,4,english,m,3,0.3,12.5469797,1.08561121
6557da88346b2b209cd16bb5,73,1,2024-02-24T08:20:51.973Z,english_566.wav,0,pill,781,46,5,4,english,m,4,0.32341667,-84.37997634,1.98926692
6557da88346b2b209cd16bb5,74,1,2024-02-24T08:20:51.973Z,english_410.wav,0,pill,765,46,5,4,english,m,0,0.0,-74.64506245,0.42358098
6557da88346b2b209cd16bb5,74,1,2024-02-24T08:20:51.973Z,english_410.wav,0,pill,765,46,5,4,english,m,1,0.1,65.24401488,0.42526697
6557da88346b2b209cd16bb5,74,1,2024-02-24T08:20:51.973Z,english_410.wav,0,pill,765,46,5,4,english,m,2,0.2,-65.86471953,1.12385183
6557da88346b2b209cd16bb5,74,1,2024-02-24T08:20:51.973Z,english_410.wav,0,pill,765,46,5,4,english,m,3,0.3,98.79489106,0.33588109
6557da88346b2b209cd16bb5,74,1,2024-02-24T08:20:51.973Z,english_410.wav,0,pill,765,46,5,4,english,m,4,0.32341667,14.95451541,1.7246864
6557da88346b2b209cd16bb5,75,1,2024-02-24T08:20:51.973Z,english_939.wav,0,pill,364,46,5,4,english,m,0,0.0,-23.2558256,0.1774722
6557da88346b2b209cd16bb5,75,1,2024-02-24T08:20:51.973Z,english_939.wav,0,pill,364,46,5,4,english,m,1,0.1,-16.62065377,0.56271239
6557da88346b2b209cd16bb5,75,1,2024-02-24T08:20:51.973Z,english_939.wav,0,pill,364,46,5,4,english,m,2,0.2,-49.54734698,1.42782479
6557da88346b2b209cd16bb5,75,1,2024-02-24T08:20:51.973Z,english_939.wav,0,pill,364,46,5,4,english,m,3,0.3,22.82101289,0.76516147
6557da88346b2b209cd16bb5,75,1,2024-02-24T08:20:51.973Z,english_939.wav,0,pill,364,46,5,4,english,m,4,0.32341667,28.63490654,1.70219777
6557da88346b2b209cd16bb5,76,1,2024-02-24T08:20:51.973Z,english_183.wav,0,pill,419,46,5,4,english,m,0,0.0,-43.98322413,0.65201846
6557da88346b2b209cd16bb5,76,1,2024-02-24T08:20:51.973Z,english_183.wav,0,pill,419,46,5,4,english,m,1,0.1,-25.77671075,1.22292345
6557da88346b2b209cd16bb5,76,1,2024-02-24T08:20:51.973Z,english_183.wav,0,pill,419,46,5,4,english,m,2,0.2,39.5110442,1.45876179
6557da88346b2b209cd16bb5,76,1,2024-02-24T08:20:51.973Z,english_183.wav,0,pill,419,46,5,4,english,m,3,0.3,-32.19697736,0.98656907
6557da88346b2b209cd16bb5,76,1,2024-02-24T08:20:51.973Z,english_183.wav,0,pill,419,46,5,4,english,m,4,0.32341667,10.88673449,1.0349791
6557da88346b2b209cd16bb5,77,1,2024-02-24T08:20:51.973Z,english_304.wav,0,pill,490,46,5,4,english,m,0,0.0,-80.7192326,0.54130022
6557da88346b2b209cd16bb5,77,1,2024-02-24T08:20:51.973Z,english_304.wav,0,pill,490,46,5,4,english,m,1,0.1,34.14230443,0.20766845
6557da88346b2b209cd16bb5,77,1,2024-02-24T08:20:51.973Z,english_304.wav,0,pill,490,46,5,4,english,m,2,0.2,-43.78548789,1.25157904
6557da88346b2b209cd16bb5,77,1,2024-02-24T08:20:51.973Z,english_304.wav,0,pill,490,46,5,4,english,m,3,0.3,85.79520644,0.76195837
6557da88346b2b209cd16bb5,77,1,2024-02-24T08:20:51.973Z,english_304.wav,0,pill,490,46,5,4,english,m,4,0.32341667,-29.32737886,0.20991234
6557da88346b2b209cd16bb5,78,1,2024-02-24T08:20:51.973Z,english_70.wav,0,peel,345,46,5,4,english,m,0,0.0,-53.09237622,1.21678364
6557da88346b2b209cd16bb5,78,1,2024-02-24T08:20:51.973Z,english_70.wav,0,peel,345,46,5,4,english,m,1,0.1,85.97526897,0.94111324
6557da88346b2b209cd16bb5,78,1,2024-02-24T08:20:51.973Z,english_70.wav,0,peel,345,46,5,4,english,m,2,0.2,25.5645184,1.03926055
6557da88346b2b209cd16bb5,78,1,2024-02-24T08:20:51.973Z,english_70.wav,0,peel,345,46,5,4,english,m,3,0.3,1.25172137,0.29519406
6557da88346b2b209cd16bb5,78,1,2024-02-24T08:20:51.973Z,english_70.wav,0,peel,345,46,5,4,english,m,4,0.32341667,93.59431896,0.80175783
6557da88346b2b209cd16bb5,79,1,2024-02-24T08:20:51.973Z,english_694.wav,0,pill,523,46,5,4,english,m,0,0.0,-79.88370205,0.99496101
6557da88346b2b209cd16bb5,79,1,2024-02-24T08:20:51.973Z,english_694.wav,0,pill,523,46,5,4,english,m,1,0.1,-58.02841319,0.06406007
6557da88346b2b209cd16bb5,79,1,2024-02-24T08:20:51.973Z,english_694.wav,0,pill,523,46,5,4,english,m,2,0.2,-50.54988317,0.5055253
6557da88346b2b209cd16bb5,79,1,2024-02-24T08:20:51.973Z,english_694.wav,0,pill,523,46,5,4,english,m,3,0.3,-20.79864769,0.19498426
6557da88346b2b209cd16bb5,79,1,2024-02-24T08:20:51.973Z,english_694.wav,0,pill,523,46,5,4,english,m,4,0.32341667,-73.64916114,0.36410653
6557da88346b2b209cd16bb5,80,1,2024-02-24T08:20:51.973Z,english_192.wav,0,pill,1643,46,5,4,english,m,0,0.0,78.04280759,0.73118961
6557da88346b2b209cd16bb5,80,1,2024-02-24T08:20:51.973Z,english_192.wav,0,pill,1643,46,5,4,english,m,1,0.1,-85.52188616,0.7164391
6557da88346b2b209cd16bb5,80,1,2024-02-24T08:20:51.973Z,english_192.wav,0,pill,1643,46,5,4,english,m,2,0.2,-14.2601202,1.68273927
6557da88346b2b209cd16bb5,80,1,2024-02-24T08:20:51.973Z,english_192.wav,0,pill,1643,46,5,4,english,m,3,0.3,29.76504865,0.51501418
6557da88346b2b209cd16bb5,80,1,2024-02-24T08:20:51.973Z,english_192.wav,0,pill,1643,46,5,4,english,m,4,0.32341667,82.81048791,1.16986294
6557da88346b2b209cd16bb5,81,1,2024-02-24T08:20:51.973Z,english_419.wav,0,pill,415,46,5,4,english,m,0,0.0,74.10926047,0.423980314
6557da88346b2b209cd16bb5,81,1,2024-02-24T08:20:51.973Z,english_419.wav,0,pill,415,46,5,4,english,m,1,0.1,-50.44969368,1.12483838
6557da88346b2b209cd16bb5,81,1,2024-02-24T08:20:51.973Z,english_419.wav,0,pill,415,46,5,4,english,m,2,0.2,-38.37630765,0.473465541
6557da88346b2b209cd16bb5,81,1,2024-02-24T08:20:51.973Z,english_419.wav,0,pill,415,46,5,4,english,m,3,0.3,-57.54140712,0.000838613621
6557da88346b2b209cd16bb5,81,1,2024-02-24T08:20:51.973Z,english_419.wav,0,pill,415,46,5,4,english,m,4,0.32341667,48.12555486,0.389285402
6557da88346b2b209cd16bb5,82,1,2024-02-24T08:20:51.973Z,english_188.wav,0,pill,610,46,5,4,english,m,0,0.0,-13.13088252,0.29227292
6557da88346b2b209cd16bb5,82,1,2024-02-24T08:20:51.973Z,english_188.wav,0,pill,610,46,5,4,english,m,1,0.1,51.13663316,1.25360943
6557da88346b2b209cd16bb5,82,1,2024-02-24T08:20:51.973Z,english_188.wav,0,pill,610,46,5,4,english,m,2,0.2,-80.18048506,1.7916357
6557da88346b2b209cd16bb5,82,1,2024-02-24T08:20:51.973Z,english_188.wav,0,pill,610,46,5,4,english,m,3,0.3,-47.89773773,0.58346705
6557da88346b2b209cd16bb5,82,1,2024-02-24T08:20:51.973Z,english_188.wav,0,pill,610,46,5,4,english,m,4,0.32341667,-7.0568118,1.77612328
6557da88346b2b209cd16bb5,83,1,2024-02-24T08:20:51.973Z,english_292.wav,0,pill,275,46,5,4,english,m,0,0.0,-39.45275529,0.85174507
6557da88346b2b209cd16bb5,83,1,2024-02-24T08:20:51.973Z,english_292.wav,0,pill,275,46,5,4,english,m,1,0.1,-35.03464337,0.73996191
6557da88346b2b209cd16bb5,83,1,2024-02-24T08:20:51.973Z,english_292.wav,0,pill,275,46,5,4,english,m,2,0.2,31.68370279,1.42892595
6557da88346b2b209cd16bb5,83,1,2024-02-24T08:20:51.973Z,english_292.wav,0,pill,275,46,5,4,english,m,3,0.3,-53.75991965,0.04968332
6557da88346b2b209cd16bb5,83,1,2024-02-24T08:20:51.973Z,english_292.wav,0,pill,275,46,5,4,english,m,4,0.32341667,12.49992629,0.58931553
6557da88346b2b209cd16bb5,84,1,2024-02-24T08:20:51.973Z,english_155.wav,0,pill,184,46,5,4,english,m,0,0.0,53.87474094,1.93436975
6557da88346b2b209cd16bb5,84,1,2024-02-24T08:20:51.973Z,english_155.wav,0,pill,184,46,5,4,english,m,1,0.1,74.81745726,0.64472983
6557da88346b2b209cd16bb5,84,1,2024-02-24T08:20:51.973Z,english_155.wav,0,pill,184,46,5,4,english,m,2,0.2,8.25192738,1.6098708
6557da88346b2b209cd16bb5,84,1,2024-02-24T08:20:51.973Z,english_155.wav,0,pill,184,46,5,4,english,m,3,0.3,-52.88121257,1.15705679
6557da88346b2b209cd16bb5,84,1,2024-02-24T08:20:51.973Z,english_155.wav,0,pill,184,46,5,4,english,m,4,0.32341667,48.31209788,0.66500292
6557da88346b2b209cd16bb5,85,1,2024-02-24T08:20:51.973Z,english_66.wav,0,pill,1144,46,5,4,english,m,0,0.0,16.07147303,1.75051971
6557da88346b2b209cd16bb5,85,1,2024-02-24T08:20:51.973Z,english_66.wav,0,pill,1144,46,5,4,english,m,1,0.1,50.76577123,0.02971233
6557da88346b2b209cd16bb5,85,1,2024-02-24T08:20:51.973Z,english_66.wav,0,pill,1144,46,5,4,english,m,2,0.2,-29.1595681,0.63583886
6557da88346b2b209cd16bb5,85,1,2024-02-24T08:20:51.973Z,english_66.wav,0,pill,1144,46,5,4,english,m,3,0.3,-80.89120138,1.46734397
6557da88346b2b209cd16bb5,85,1,2024-02-24T08:20:51.973Z,english_66.wav,0,pill,1144,46,5,4,english,m,4,0.32341667,-8.46229461,1.61280944
6557da88346b2b209cd16bb5,86,1,2024-02-24T08:20:51.973Z,english_441.wav,0,pill,309,46,5,4,english,m,0,0.0,-34.50722314,1.86415324
6557da88346b2b209cd16bb5,86,1,2024-02-24T08:20:51.973Z,english_441.wav,0,pill,309,46,5,4,english,m,1,0.1,91.55175756,1.34062972
6557da88346b2b209cd16bb5,86,1,2024-02-24T08:20:51.973Z,english_441.wav,0,pill,309,46,5,4,english,m,2,0.2,-74.07917439,1.20894222
6557da88346b2b209cd16bb5,86,1,2024-02-24T08:20:51.973Z,english_441.wav,0,pill,309,46,5,4,english,m,3,0.3,82.08396891,0.00248362
6557da88346b2b209cd16bb5,86,1,2024-02-24T08:20:51.973Z,english_441.wav,0,pill,309,46,5,4,english,m,4,0.32341667,13.2563292,0.67485278
6557da88346b2b209cd16bb5,87,1,2024-02-24T08:20:51.973Z,english_965.wav,0,pill,243,46,5,4,english,m,0,0.0,-19.49526798,1.71910172
6557da88346b2b209cd16bb5,87,1,2024-02-24T08:20:51.973Z,english_965.wav,0,pill,243,46,5,4,english,m,1,0.1,-33.46093545,1.16323176
6557da88346b2b209cd16bb5,87,1,2024-02-24T08:20:51.973Z,english_965.wav,0,pill,243,46,5,4,english,m,2,0.2,95.24809114,0.56514201
6557da88346b2b209cd16bb5,87,1,2024-02-24T08:20:51.973Z,english_965.wav,0,pill,243,46,5,4,english,m,3,0.3,26.23968625,1.82539978
6557da88346b2b209cd16bb5,87,1,2024-02-24T08:20:51.973Z,english_965.wav,0,pill,243,46,5,4,english,m,4,0.32341667,15.70217089,1.7659451
6557da88346b2b209cd16bb5,88,1,2024-02-24T08:20:51.973Z,english_681.wav,0,pill,328,46,5,4,english,m,0,0.0,65.45313908,1.43173201
6557da88346b2b209cd16bb5,88,1,2024-02-24T08:20:51.973Z,english_681.wav,0,pill,328,46,5,4,english,m,1,0.1,23.22224239,1.64604346
6557da88346b2b209cd16bb5,88,1,2024-02-24T08:20:51.973Z,english_681.wav,0,pill,328,46,5,4,english,m,2,0.2,44.35096717,0.82186037
6557da88346b2b209cd16bb5,88,1,2024-02-24T08:20:51.973Z,english_681.wav,0,pill,328,46,5,4,english,m,3,0.3,67.45757963,0.26689352
6557da88346b2b209cd16bb5,88,1,2024-02-24T08:20:51.973Z,english_681.wav,0,pill,328,46,5,4,english,m,4,0.32341667,55.5822091,1.64490636
6557da88346b2b209cd16bb5,89,1,2024-02-24T08:20:51.973Z,english_564.wav,0,pill,502,46,5,4,english,m,0,0.0,-4.16228192,1.35245187
6557da88346b2b209cd16bb5,89,1,2024-02-24T08:20:51.973Z,english_564.wav,0,pill,502,46,5,4,english,m,1,0.1,-8.38376801,0.24798142
6557da88346b2b209cd16bb5,89,1,2024-02-24T08:20:51.973Z,english_564.wav,0,pill,502,46,5,4,english,m,2,0.2,52.82752554,1.26376743
6557da88346b2b209cd16bb5,89,1,2024-02-24T08:20:51.973Z,english_564.wav,0,pill,502,46,5,4,english,m,3,0.3,-92.64870354,0.73548171
6557da88346b2b209cd16bb5,89,1,2024-02-24T08:20:51.973Z,english_564.wav,0,pill,502,46,5,4,english,m,4,0.32341667,-48.86146536,0.1394123
6557da88346b2b209cd16bb5,90,1,2024-02-24T08:20:51.973Z,english_25.wav,0,pill,292,46,5,4,english,m,0,0.0,-93.68210842,1.14210865
6557da88346b2b209cd16bb5,90,1,2024-02-24T08:20:51.973Z,english_25.wav,0,pill,292,46,5,4,english,m,1,0.1,-14.41268038,1.90089654
6557da88346b2b209cd16bb5,90,1,2024-02-24T08:20:51.973Z,english_25.wav,0,pill,292,46,5,4,english,m,2,0.2,72.93230065,0.61137859
6557da88346b2b209cd16bb5,90,1,2024-02-24T08:20:51.973Z,english_25.wav,0,pill,292,46,5,4,english,m,3,0.3,23.28545759,1.93042398
6557da88346b2b209cd16bb5,90,1,2024-02-24T08:20:51.973Z,english_25.wav,0,pill,292,46,5,4,english,m,4,0.32341667,18.09953767,1.11869114
6557da88346b2b209cd16bb5,91,1,2024-02-24T08:20:51.973Z,english_210.wav,0,pill,382,46,5,4,english,m,0,0.0,43.03172008,0.27268056
6557da88346b2b209cd16bb5,91,1,2024-02-24T08:20:51.973Z,english_210.wav,0,pill,382,46,5,4,english,m,1,0.1,58.48529179,0.59270989
6557da88346b2b209cd16bb5,91,1,2024-02-24T08:20:51.973Z,english_210.wav,0,pill,382,46,5,4,english,m,2,0.2,57.29337371,1.57355776
6557da88346b2b209cd16bb5,91,1,2024-02-24T08:20:51.973Z,english_210.wav,0,pill,382,46,5,4,english,m,3,0.3,-45.34642936,1.97663548
6557da88346b2b209cd16bb5,91,1,2024-02-24T08:20:51.973Z,english_210.wav,0,pill,382,46,5,4,english,m,4,0.32341667,-3.49486879,1.39997912
6557da88346b2b209cd16bb5,92,1,2024-02-24T08:20:51.973Z,english_879.wav,0,pill,290,46,5,4,english,m,0,0.0,-56.32485069,0.53184386
6557da88346b2b209cd16bb5,92,1,2024-02-24T08:20:51.973Z,english_879.wav,0,pill,290,46,5,4,english,m,1,0.1,64.67592183,1.34296213
6557da88346b2b209cd16bb5,92,1,2024-02-24T08:20:51.973Z,english_879.wav,0,pill,290,46,5,4,english,m,2,0.2,25.82204554,0.44649674
6557da88346b2b209cd16bb5,92,1,2024-02-24T08:20:51.973Z,english_879.wav,0,pill,290,46,5,4,english,m,3,0.3,5.66794257,0.79707043
6557da88346b2b209cd16bb5,92,1,2024-02-24T08:20:51.973Z,english_879.wav,0,pill,290,46,5,4,english,m,4,0.32341667,-31.65503708,1.19804995
6557da88346b2b209cd16bb5,93,1,2024-02-24T08:20:51.973Z,english_503.wav,0,pill,180,46,5,4,english,m,0,0.0,-62.81458057,1.15988152
6557da88346b2b209cd16bb5,93,1,2024-02-24T08:20:51.973Z,english_503.wav,0,pill,180,46,5,4,english,m,1,0.1,17.97702429,0.58853345
6557da88346b2b209cd16bb5,93,1,2024-02-24T08:20:51.973Z,english_503.wav,0,pill,180,46,5,4,english,m,2,0.2,-8.2980926,1.29983279
6557da88346b2b209cd16bb5,93,1,2024-02-24T08:20:51.973Z,english_503.wav,0,pill,180,46,5,4,english,m,3,0.3,-62.4217389,1.42406205
6557da88346b2b209cd16bb5,93,1,2024-02-24T08:20:51.973Z,english_503.wav,0,pill,180,46,5,4,english,m,4,0.32341667,18.11027086,0.84018378
6557da88346b2b209cd16bb5,94,1,2024-02-24T08:20:51.973Z,english_121.wav,0,pill,304,46,5,4,english,m,0,0.0,-30.24687583,0.23154591
6557da88346b2b209cd16bb5,94,1,2024-02-24T08:20:51.973Z,english_121.wav,0,pill,304,46,5,4,english,m,1,0.1,-28.09260766,0.6680997
6557da88346b2b209cd16bb5,94,1,2024-02-24T08:20:51.973Z,english_121.wav,0,pill,304,46,5,4,english,m,2,0.2,-29.54951374,1.79539672
6557da88346b2b209cd16bb5,94,1,2024-02-24T08:20:51.973Z,english_121.wav,0,pill,304,46,5,4,english,m,3,0.3,-37.35286973,0.57554739
6557da88346b2b209cd16bb5,94,1,2024-02-24T08:20:51.973Z,english_121.wav,0,pill,304,46,5,4,english,m,4,0.32341667,58.68529554,1.8709958
6557da88346b2b209cd16bb5,95,1,2024-02-24T08:20:51.973Z,english_921.wav,0,pill,256,46,5,4,english,m,0,0.0,60.93482672,0.06624465
6557da88346b2b209cd16bb5,95,1,2024-02-24T08:20:51.973Z,english_921.wav,0,pill,256,46,5,4,english,m,1,0.1,-71.63665921,1.88925143
6557da88346b2b209cd16bb5,95,1,2024-02-24T08:20:51.973Z,english_921.wav,0,pill,256,46,5,4,english,m,2,0.2,-30.77028929,0.40013084
6557da88346b2b209cd16bb5,95,1,2024-02-24T08:20:51.973Z,english_921.wav,0,pill,256,46,5,4,english,m,3,0.3,-44.68164597,1.26601564
6557da88346b2b209cd16bb5,95,1,2024-02-24T08:20:51.973Z,english_921.wav,0,pill,256,46,5,4,english,m,4,0.32341667,34.59415858,1.98956357
6557da88346b2b209cd16bb5,96,1,2024-02-24T08:20:51.973Z,english_28.wav,0,pill,396,46,5,4,english,m,0,0.0,46.68805065,0.37315412
6557da88346b2b209cd16bb5,96,1,2024-02-24T08:20:51.973Z,english_28.wav,0,pill,396,46,5,4,english,m,1,0.1,-19.91180265,0.08560602
6557da88346b2b209cd16bb5,96,1,2024-02-24T08:20:51.973Z,english_28.wav,0,pill,396,46,5,4,english,m,2,0.2,30.74929008,0.67724734
6557da88346b2b209cd16bb5,96,1,2024-02-24T08:20:51.973Z,english_28.wav,0,pill,396,46,5,4,english,m,3,0.3,14.01537548,0.53332652
6557da88346b2b209cd16bb5,96,1,2024-02-24T08:20:51.973Z,english_28.wav,0,pill,396,46,5,4,english,m,4,0.32341667,-32.95915121,1.33480721
6557da88346b2b209cd16bb5,97,1,2024-02-24T08:20:51.973Z,english_951.wav,0,pill,155,46,5,4,english,m,0,0.0,-0.1209724,0.19208806
6557da88346b2b209cd16bb5,97,1,2024-02-24T08:20:51.973Z,english_951.wav,0,pill,155,46,5,4,english,m,1,0.1,-14.6507611,1.44795721
6557da88346b2b209cd16bb5,97,1,2024-02-24T08:20:51.973Z,english_951.wav,0,pill,155,46,5,4,english,m,2,0.2,-2.36153686,0.88209985
6557da88346b2b209cd16bb5,97,1,2024-02-24T08:20:51.973Z,english_951.wav,0,pill,155,46,5,4,english,m,3,0.3,15.28547447,1.97099669
6557da88346b2b209cd16bb5,97,1,2024-02-24T08:20:51.973Z,english_951.wav,0,pill,155,46,5,4,english,m,4,0.32341667,-0.16445922,0.158195
6557da88346b2b209cd16bb5,98,1,2024-02-24T08:20:51.973Z,english_670.wav,0,pill,542,46,5,4,english,m,0,0.0,64.75672565,1.5535903
6557da88346b2b209cd16bb5,98,1,2024-02-24T08:20:51.973Z,english_670.wav,0,pill,542,46,5,4,english,m,1,0.1,85.95156369,0.12522594
6557da88346b2b209cd16bb5,98,1,2024-02-24T08:20:51.973Z,english_670.wav,0,pill,542,46,5,4,english,m,2,0.2,-44.32949438,0.22842632
6557da88346b2b209cd16bb5,98,1,2024-02-24T08:20:51.973Z,english_670.wav,0,pill,542,46,5,4,english,m,3,0.3,22.57192219,0.17636502
6557da88346b2b209cd16bb5,98,1,2024-02-24T08:20:51.973Z,english_670.wav,0,pill,542,46,5,4,english,m,4,0.32341667,34.74005277,0.16208776
6557da88346b2b209cd16bb5,99,1,2024-02-24T08:20:51.973Z,english_974.wav,0,pill,154,46,5,4,english,m,0,0.0,29.63575745,0.7371821
6557da88346b2b209cd16bb5,99,1,2024-02-24T08:20:51.973Z,english_974.wav,0,pill,154,46,5,4,english,m,1,0.1,-49.63946334,1.15838362
6557da88346b2b209cd16bb5,99,1,2024-02-24T08:20:51.973Z,english_974.wav,0,pill,154,46,5,4,english,m,2,0.2,87.75163431,1.66312363
6557da88346b2b209cd16bb5,99,1,2024-02-24T08:20:51.973Z,english_974.wav,0,pill,154,46,5,4,english,m,3,0.3,-62.39844007,0.85783748
6557da88346b2b209cd16bb5,99,1,2024-02-24T08:20:51.973Z,english_974.wav,0,pill,154,46,5,4,english,m,4,0.32341667,-98.5513891,1.53033297
6557da88346b2b209cd16bb5,100,2,2024-02-24T08:20:51.973Z,english_515.wav,0,pill,312,46,5,4,english,m,0,0.0,-51.44071002,1.17100165
6557da88346b2b209cd16bb5,100,2,2024-02-24T08:20:51.973Z,english_515.wav,0,pill,312,46,5,4,english,m,1,0.1,-54.80209221,0.37535268
6557da88346b2b209cd16bb5,100,2,2024-02-24T08:20:51.973Z,english_515.wav,0,pill,312,46,5,4,english,m,2,0.2,64.47174239,1.31079719
6557da88346b2b209cd16bb5,100,2,2024-02-24T08:20:51.973Z,english_515.wav,0,pill,312,46,5,4,english,m,3,0.3,-10.56071982,1.40472496
6557da88346b2b209cd16bb5,100,2,2024-02-24T08:20:51.973Z,english_515.wav,0,pill,312,46,5,4,english,m,4,0.32341667,-39.86348554,0.6392892
6557da88346b2b209cd16bb5,101,2,2024-02-24T08:20:51.973Z,english_653.wav,0,pill,155,46,5,4,english,m,0,0.0,8.14815906,1.27061672
6557da88346b2b209cd16bb5,101,2,2024-02-24T08:20:51.973Z,english_653.wav,0,pill,155,46,5,4,english,m,1,0.1,4.49815435,1.37470465
6557da88346b2b209cd16bb5,101,2,2024-02-24T08:20:51.973Z,english_653.wav,0,pill,155,46,5,4,english,m,2,0.2,-96.80954485,1.57421691
6557da88346b2b209cd16bb5,101,2,2024-02-24T08:20:51.973Z,english_653.wav,0,pill,155,46,5,4,english,m,3,0.3,-0.49075979,1.39011427
6557da88346b2b209cd16bb5,101,2,2024-02-24T08:20:51.973Z,english_653.wav,0,pill,155,46,5,4,english,m,4,0.32341667,98.12577208,0.75484601
6557da88346b2b209cd16bb5,102,2,2024-02-24T08:20:51.973Z,english_84.wav,0,pill,1527,46,5,4,english,m,0,0.0,-42.35488886,0.45116064
6557da88346b2b209cd16bb5,102,2,2024-02-24T08:20:51.973Z,english_84.wav,0,pill,1527,46,5,4,english,m,1,0.1,17.86576323,1.91320005
6557da88346b2b209cd16bb5,102,2,2024-02-24T08:20:51.973Z,english_84.wav,0,pill,1527,46,5,4,english,m,2,0.2,-56.36172821,1.53140363
6557da88346b2b209cd16bb5,102,2,2024-02-24T08:20:51.973Z,english_84.wav,0,pill,1527,46,5,4,english,m,3,0.3,69.8537656,0.53091011
6557da88346b2b209cd16bb5,102,2,2024-02-24T08:20:51.973Z,english_84.wav,0,pill,1527,46,5,4,english,m,4,0.32341667,-47.30652012,1.59279301
6557da88346b2b209cd16bb5,103,2,2024-02-24T08:20:51.973Z,english_682.wav,0,pill,215,46,5,4,english,m,0,0.0,-19.80167737,1.6131825
6557da88346b2b209cd16bb5,103,2,2024-02-24T08:20:51.973Z,english_682.wav,0,pill,215,46,5,4,english,m,1,0.1,-30.98220326,1.03205672
6557da88346b2b209cd16bb5,103,2,2024-02-24T08:20:51.973Z,english_682.wav,0,pill,215,46,5,4,english,m,2,0.2,26.07010201,1.08357256
6557da88346b2b209cd16bb5,103,2,2024-02-24T08:20:51.973Z,english_682.wav,0,pill,215,46,5,4,english,m,3,0.3,-7.79776739,1.70642947
6557da88346b2b209cd16bb5,103,2,2024-02-24T08:20:51.973Z,english_682.wav,0,pill,215,46,5,4,english,m,4,0.32341667,-10.9148898,0.86858281
6557da88346b2b209cd16bb5,104,2,2024-02-24T08:20:51.973Z,english_518.wav,0,pill,221,46,5,4,english,m,0,0.0,52.37511869,0.23824141
6557da88346b2b209cd16bb5,104,2,2024-02-24T08:20:51.973Z,english_518.wav,0,pill,221,46,5,4,english,m,1,0.1,-33.3490586,0.80559068
6557da88346b2b209cd16bb5,104,2,2024-02-24T08:20:51.973Z,english_518.wav,0,pill,221,46,5,4,english,m,2,0.2,-71.20035434,1.24725456
6557da88346b2b209cd16bb5,104,2,2024-02-24T08:20:51.973Z,english_518.wav,0,pill,221,46,5,4,english,m,3,0.3,6.23243823,1.01334401
6557da88346b2b209cd16bb5,104,2,2024-02-24T08:20:51.973Z,english_518.wav,0,pill,221,46,5,4,english,m,4,0.32341667,-29.48660546,1.51264586
6557da88346b2b209cd16bb5,105,2,2024-02-24T08:20:51.973Z,english_163.wav,0,peel,348,46,5,4,english,m,0,0.0,-28.85321754,1.43434597
6557da88346b2b209cd16bb5,105,2,2024-02-24T08:20:51.973Z,english_163.wav,0,peel,348,46,5,4,english,m,1,0.1,9.37410395,1.75766865
6557da88346b2b209cd16bb5,105,2,2024-02-24T08:20:51.973Z,english_163.wav,0,peel,348,46,5,4,english,m,2,0.2,-43.22266742,0.90391943
6557da88346b2b209cd16bb5,105,2,2024-02-24T08:20:51.973Z,english_163.wav,0,peel,348,46,5,4,english,m,3,0.3,48.63715122,1.21743426
6557da88346b2b209cd16bb5,105,2,2024-02-24T08:20:51.973Z,english_163.wav,0,peel,348,46,5,4,english,m,4,0.32341667,-94.22333204,1.8516503
6557da88346b2b209cd16bb5,106,2,2024-02-24T08:20:51.973Z,english_350.wav,0,pill,336,46,5,4,english,m,0,0.0,97.64268741,0.61487918
6557da88346b2b209cd16bb5,106,2,2024-02-24T08:20:51.973Z,english_350.wav,0,pill,336,46,5,4,english,m,1,0.1,23.96704837,0.40988424
6557da88346b2b209cd16bb5,106,2,2024-02-24T08:20:51.973Z,english_350.wav,0,pill,336,46,5,4,english,m,2,0.2,50.30792237,0.86872158
6557da88346b2b209cd16bb5,106,2,2024-02-24T08:20:51.973Z,english_350.wav,0,pill,336,46,5,4,english,m,3,0.3,71.77937185,1.01783109
6557da88346b2b209cd16bb5,106,2,2024-02-24T08:20:51.973Z,english_350.wav,0,pill,336,46,5,4,english,m,4,0.32341667,-64.81416361,0.68761283
6557da88346b2b209cd16bb5,107,2,2024-02-24T08:20:51.973Z,english_253.wav,0,pill,614,46,5,4,english,m,0,0.0,12.9108365,0.20464585
6557da88346b2b209cd16bb5,107,2,2024-02-24T08:20:51.973Z,english_253.wav,0,pill,614,46,5,4,english,m,1,0.1,-70.83420593,1.97412558
6557da88346b2b209cd16bb5,107,2,2024-02-24T08:20:51.973Z,english_253.wav,0,pill,614,46,5,4,english,m,2,0.2,-6.13796162,1.12401504
6557da88346b2b209cd16bb5,107,2,2024-02-24T08:20:51.973Z,english_253.wav,0,pill,614,46,5,4,english,m,3,0.3,38.03543053,1.75851492
6557da88346b2b209cd16bb5,107,2,2024-02-24T08:20:51.973Z,english_253.wav,0,pill,614,46,5,4,english,m,4,0.32341667,-61.21147917,0.77953826
6557da88346b2b209cd16bb5,108,2,2024-02-24T08:20:51.973Z,english_211.wav,0,peel,350,46,5,4,english,m,0,0.0,37.34807541,1.77380832
6557da88346b2b209cd16bb5,108,2,2024-02-24T08:20:51.973Z,english_211.wav,0,peel,350,46,5,4,english,m,1,0.1,97.98979508,1.35747523
6557da88346b2b209cd16bb5,108,2,2024-02-24T08:20:51.973Z,english_211.wav,0,peel,350,46,5,4,english,m,2,0.2,-20.02981109,1.74013371
6557da88346b2b209cd16bb5,108,2,2024-02-24T08:20:51.973Z,english_211.wav,0,peel,350,46,5,4,english,m,3,0.3,-69.8116311,0.94808553
6557da88346b2b209cd16bb5,108,2,2024-02-24T08:20:51.973Z,english_211.wav,0,peel,350,46,5,4,english,m,4,0.32341667,35.11126142,0.23094119
6557da88346b2b209cd16bb5,109,2,2024-02-24T08:20:51.973Z,english_847.wav,0,pill,375,46,5,4,english,m,0,0.0,76.45550118,0.38890762
6557da88346b2b209cd16bb5,109,2,2024-02-24T08:20:51.973Z,english_847.wav,0,pill,375,46,5,4,english,m,1,0.1,-18.38123868,1.01718805
6557da88346b2b209cd16bb5,109,2,2024-02-24T08:20:51.973Z,english_847.wav,0,pill,375,46,5,4,english,m,2,0.2,18.403778,1.24872656
6557da88346b2b209cd16bb5,109,2,2024-02-24T08:20:51.973Z,english_847.wav,0,pill,375,46,5,4,english,m,3,0.3,57.196546,0.81951257
6557da88346b2b209cd16bb5,109,2,2024-02-24T08:20:51.973Z,english_847.wav,0,pill,375,46,5,4,english,m,4,0.32341667,32.99763753,0.74194876
6557da88346b2b209cd16bb5,110,2,2024-02-24T08:20:51.973Z,english_302.wav,0,pill,1272,46,5,4,english,m,0,0.0,-63.95927305,1.3663617
6557da88346b2b209cd16bb5,110,2,2024-02-24T08:20:51.973Z,english_302.wav,0,pill,1272,46,5,4,english,m,1,0.1,-82.44028643,1.24112643
6557da88346b2b209cd16bb5,110,2,2024-02-24T08:20:51.973Z,english_302.wav,0,pill,1272,46,5,4,english,m,2,0.2,-63.33590257,1.83999602
6557da88346b2b209cd16bb5,110,2,2024-02-24T08:20:51.973Z,english_302.wav,0,pill,1272,46,5,4,english,m,3,0.3,-82.33590521,0.89576132
6557da88346b2b209cd16bb5,110,2,2024-02-24T08:20:51.973Z,english_302.wav,0,pill,1272,46,5,4,english,m,4,0.32341667,-77.43124585,1.51483357
6557da88346b2b209cd16bb5,111,2,2024-02-24T08:20:51.973Z,english_506.wav,0,pill,467,46,5,4,english,m,0,0.0,-17.73769578,0.98447335
6557da88346b2b209cd16bb5,111,2,2024-02-24T08:20:51.973Z,english_506.wav,0,pill,467,46,5,4,english,m,1,0.1,-41.45582363,0.94666259
6557da88346b2b209cd16bb5,111,2,2024-02-24T08:20:51.973Z,english_506.wav,0,pill,467,46,5,4,english,m,2,0.2,30.66866042,0.72831062
6557da88346b2b209cd16bb5,111,2,2024-02-24T08:20:51.973Z,english_506.wav,0,pill,467,46,5,4,english,m,3,0.3,59.8078046,1.02790064
6557da88346b2b209cd16bb5,111,2,2024-02-24T08:20:51.973Z,english_506.wav,0,pill,467,46,5,4,english,m,4,0.32341667,84.38248427,0.39724826
6557da88346b2b209cd16bb5,112,2,2024-02-24T08:20:51.973Z,english_64.wav,0,pill,1030,46,5,4,english,m,0,0.0,-77.75081389,0.01503168
6557da88346b2b209cd16bb5,112,2,2024-02-24T08:20:51.973Z,english_64.wav,0,pill,1030,46,5,4,english,m,1,0.1,47.79712302,0.51971923
6557da88346b2b209cd16bb5,112,2,2024-02-24T08:20:51.973Z,english_64.wav,0,pill,1030,46,5,4,english,m,2,0.2,-98.04646937,1.01128345
6557da88346b2b209cd16bb5,112,2,2024-02-24T08:20:51.973Z,english_64.wav,0,pill,1030,46,5,4,english,m,3,0.3,-20.17707595,0.69563875
6557da88346b2b209cd16bb5,112,2,2024-02-24T08:20:51.973Z,english_64.wav,0,pill,1030,46,5,4,english,m,4,0.32341667,53.05828969,1.51814807
6557da88346b2b209cd16bb5,113,2,2024-02-24T08:20:51.973Z,english_717.wav,0,pill,562,46,5,4,english,m,0,0.0,11.70361719,1.43236824
6557da88346b2b209cd16bb5,113,2,2024-02-24T08:20:51.973Z,english_717.wav,0,pill,562,46,5,4,english,m,1,0.1,-43.41962,0.38419888
6557da88346b2b209cd16bb5,113,2,2024-02-24T08:20:51.973Z,english_717.wav,0,pill,562,46,5,4,english,m,2,0.2,-38.6653904,1.88953633
6557da88346b2b209cd16bb5,113,2,2024-02-24T08:20:51.973Z,english_717.wav,0,pill,562,46,5,4,english,m,3,0.3,-38.11833374,1.28007762
6557da88346b2b209cd16bb5,113,2,2024-02-24T08:20:51.973Z,english_717.wav,0,pill,562,46,5,4,english,m,4,0.32341667,93.29743671,0.67082429
6557da88346b2b209cd16bb5,114,2,2024-02-24T08:20:51.973Z,english_657.wav,0,pill,469,46,5,4,english,m,0,0.0,30.03208284,1.42095662
6557da88346b2b209cd16bb5,114,2,2024-02-24T08:20:51.973Z,english_657.wav,0,pill,469,46,5,4,english,m,1,0.1,-5.57127058,1.29790323
6557da88346b2b209cd16bb5,114,2,2024-02-24T08:20:51.973Z,english_657.wav,0,pill,469,46,5,4,english,m,2,0.2,9.55793083,0.51612643
6557da88346b2b209cd16bb5,114,2,2024-02-24T08:20:51.973Z,english_657.wav,0,pill,469,46,5,4,english,m,3,0.3,3.39766504,0.37671101
6557da88346b2b209cd16bb5,114,2,2024-02-24T08:20:51.973Z,english_657.wav,0,pill,469,46,5,4,english,m,4,0.32341667,84.38659916,1.20124021
6557da88346b2b209cd16bb5,115,2,2024-02-24T08:20:51.973Z,english_538.wav,0,pill,298,46,5,4,english,m,0,0.0,2.36208538,1.54356298
6557da88346b2b209cd16bb5,115,2,2024-02-24T08:20:51.973Z,english_538.wav,0,pill,298,46,5,4,english,m,1,0.1,77.85923423,0.47597082
6557da88346b2b209cd16bb5,115,2,2024-02-24T08:20:51.973Z,english_538.wav,0,pill,298,46,5,4,english,m,2,0.2,-89.1271409,1.27977799
6557da88346b2b209cd16bb5,115,2,2024-02-24T08:20:51.973Z,english_538.wav,0,pill,298,46,5,4,english,m,3,0.3,-18.79772534,1.05516459
6557da88346b2b209cd16bb5,115,2,2024-02-24T08:20:51.973Z,english_538.wav,0,pill,298,46,5,4,english,m,4,0.32341667,87.62276495,1.20284762
6557da88346b2b209cd16bb5,116,2,2024-02-24T08:20:51.973Z,english_101.wav,0,pill,322,46,5,4,english,m,0,0.0,60.77829508,0.77962125
6557da88346b2b209cd16bb5,116,2,2024-02-24T08:20:51.973Z,english_101.wav,0,pill,322,46,5,4,english,m,1,0.1,43.41373716,0.02040908
6557da88346b2b209cd16bb5,116,2,2024-02-24T08:20:51.973Z,english_101.wav,0,pill,322,46,5,4,english,m,2,0.2,56.16195873,0.79248433
6557da88346b2b209cd16bb5,116,2,2024-02-24T08:20:51.973Z,english_101.wav,0,pill,322,46,5,4,english,m,3,0.3,-99.94719329,1.74003505
6557da88346b2b209cd16bb5,116,2,2024-02-24T08:20:51.973Z,english_101.wav,0,pill,322,46,5,4,english,m,4,0.32341667,-1.35074094,1.66206156
6557da88346b2b209cd16bb5,117,2,2024-02-24T08:20:51.973Z,english_274.wav,0,pill,463,46,5,4,english,m,0,0.0,-30.61452779,0.78021116
6557da88346b2b209cd16bb5,117,2,2024-02-24T08:20:51.973Z,english_274.wav,0,pill,463,46,5,4,english,m,1,0.1,-42.14612233,1.93993358
6557da88346b2b209cd16bb5,117,2,2024-02-24T08:20:51.973Z,english_274.wav,0,pill,463,46,5,4,english,m,2,0.2,32.00602795,0.32963606
6557da88346b2b209cd16bb5,117,2,2024-02-24T08:20:51.973Z,english_274.wav,0,pill,463,46,5,4,english,m,3,0.3,-37.74375581,1.46133782
6557da88346b2b209cd16bb5,117,2,2024-02-24T08:20:51.973Z,english_274.wav,0,pill,463,46,5,4,english,m,4,0.32341667,-54.5397802,1.53178785
6557da88346b2b209cd16bb5,118,2,2024-02-24T08:20:51.973Z,english_514.wav,0,pill,1089,46,5,4,english,m,0,0.0,-61.65105701,1.12509033
6557da88346b2b209cd16bb5,118,2,2024-02-24T08:20:51.973Z,english_514.wav,0,pill,1089,46,5,4,english,m,1,0.1,49.84264816,0.78701739
6557da88346b2b209cd16bb5,118,2,2024-02-24T08:20:51.973Z,english_514.wav,0,pill,1089,46,5,4,english,m,2,0.2,14.14440898,0.37052689
6557da88346b2b209cd16bb5,118,2,2024-02-24T08:20:51.973Z,english_514.wav,0,pill,1089,46,5,4,english,m,3,0.3,-30.10662908,1.42053426
6557da88346b2b209cd16bb5,118,2,2024-02-24T08:20:51.973Z,english_514.wav,0,pill,1089,46,5,4,english,m,4,0.32341667,90.48337022,1.94621598
6557da88346b2b209cd16bb5,119,2,2024-02-24T08:20:51.973Z,english_991.wav,0,peel,699,46,5,4,english,m,0,0.0,-73.33762004,0.7279734
6557da88346b2b209cd16bb5,119,2,2024-02-24T08:20:51.973Z,english_991.wav,0,peel,699,46,5,4,english,m,1,0.1,-90.08677455,0.374322
6557da88346b2b209cd16bb5,119,2,2024-02-24T08:20:51.973Z,english_991.wav,0,peel,699,46,5,4,english,m,2,0.2,-98.84294029,0.98894361
6557da88346b2b209cd16bb5,119,2,2024-02-24T08:20:51.973Z,english_991.wav,0,peel,699,46,5,4,english,m,3,0.3,59.84972986,1.07774369
6557da88346b2b209cd16bb5,119,2,2024-02-24T08:20:51.973Z,english_991.wav,0,peel,699,46,5,4,english,m,4,0.32341667,21.03568625,0.51480923
6557da88346b2b209cd16bb5,120,2,2024-02-24T08:20:51.973Z,english_280.wav,0,pill,497,46,5,4,english,m,0,0.0,88.60957906,0.0301642
6557da88346b2b209cd16bb5,120,2,2024-02-24T08:20:51.973Z,english_280.wav,0,pill,497,46,5,4,english,m,1,0.1,84.68226706,1.61205195
6557da88346b2b209cd16bb5,120,2,2024-02-24T08:20:51.973Z,english_280.wav,0,pill,497,46,5,4,english,m,2,0.2,-77.43679957,1.42137195
6557da88346b2b209cd16bb5,120,2,2024-02-24T08:20:51.973Z,english_280.wav,0,pill,497,46,5,4,english,m,3,0.3,45.11946934,1.73240953
6557da88346b2b209cd16bb5,120,2,2024-02-24T08:20:51.973Z,english_280.wav,0,pill,497,46,5,4,english,m,4,0.32341667,-36.96988582,0.09602122
6557da88346b2b209cd16bb5,121,2,2024-02-24T08:20:51.973Z,english_994.wav,0,peel,392,46,5,4,english,m,0,0.0,53.6083957,1.72152032
6557da88346b2b209cd16bb5,121,2,2024-02-24T08:20:51.973Z,english_994.wav,0,peel,392,46,5,4,english,m,1,0.1,62.5650281,0.97077126
6557da88346b2b209cd16bb5,121,2,2024-02-24T08:20:51.973Z,english_994.wav,0,peel,392,46,5,4,english,m,2,0.2,91.00734213,1.1154275
6557da88346b2b209cd16bb5,121,2,2024-02-24T08:20:51.973Z,english_994.wav,0,peel,392,46,5,4,english,m,3,0.3,-14.6853323,0.93534142
6557da88346b2b209cd16bb5,121,2,2024-02-24T08:20:51.973Z,english_994.wav,0,peel,392,46,5,4,english,m,4,0.32341667,42.94025292,1.51312842
6557da88346b2b209cd16bb5,122,2,2024-02-24T08:20:51.973Z,english_671.wav,0,peel,975,46,5,4,english,m,0,0.0,32.91930287,1.74193101
6557da88346b2b209cd16bb5,122,2,2024-02-24T08:20:51.973Z,english_671.wav,0,peel,975,46,5,4,english,m,1,0.1,6.16976114,0.51820224
6557da88346b2b209cd16bb5,122,2,2024-02-24T08:20:51.973Z,english_671.wav,0,peel,975,46,5,4,english,m,2,0.2,-34.00390264,0.07120536
6557da88346b2b209cd16bb5,122,2,2024-02-24T08:20:51.973Z,english_671.wav,0,peel,975,46,5,4,english,m,3,0.3,18.374511,0.3828633
6557da88346b2b209cd16bb5,122,2,2024-02-24T08:20:51.973Z,english_671.wav,0,peel,975,46,5,4,english,m,4,0.32341667,-2.98713897,1.2592669
6557da88346b2b209cd16bb5,123,2,2024-02-24T08:20:51.973Z,english_779.wav,0,peel,371,46,5,4,english,m,0,0.0,-66.48303018,1.22216448
6557da88346b2b209cd16bb5,123,2,2024-02-24T08:20:51.973Z,english_779.wav,0,peel,371,46,5,4,english,m,1,0.1,55.33592885,1.30288261
6557da88346b2b209cd16bb5,123,2,2024-02-24T08:20:51.973Z,english_779.wav,0,peel,371,46,5,4,english,m,2,0.2,67.38671669,0.25409759
6557da88346b2b209cd16bb5,123,2,2024-02-24T08:20:51.973Z,english_779.wav,0,peel,371,46,5,4,english,m,3,0.3,65.49052189,1.76174581
6557da88346b2b209cd16bb5,123,2,2024-02-24T08:20:51.973Z,english_779.wav,0,peel,371,46,5,4,english,m,4,0.32341667,-12.12955258,0.12280057
6557da88346b2b209cd16bb5,124,2,2024-02-24T08:20:51.973Z,english_652.wav,0,peel,1461,46,5,4,english,m,0,0.0,4.27736911,0.30427218
6557da88346b2b209cd16bb5,124,2,2024-02-24T08:20:51.973Z,english_652.wav,0,peel,1461,46,5,4,english,m,1,0.1,18.79087972,0.67520162
6557da88346b2b209cd16bb5,124,2,2024-02-24T08:20:51.973Z,english_652.wav,0,peel,1461,46,5,4,english,m,2,0.2,61.32163128,0.66270689
6557da88346b2b209cd16bb5,124,2,2024-02-24T08:20:51.973Z,english_652.wav,0,peel,1461,46,5,4,english,m,3,0.3,45.76092148,0.93987847
6557da88346b2b209cd16bb5,124,2,2024-02-24T08:20:51.973Z,english_652.wav,0,peel,1461,46,5,4,english,m,4,0.32341667,-45.08671386,1.10617978
6557da88346b2b209cd16bb5,125,2,2024-02-24T08:20:51.973Z,english_677.wav,0,peel,386,46,5,4,english,m,0,0.0,74.92499355,0.4070184
6557da88346b2b209cd16bb5,125,2,2024-02-24T08:20:51.973Z,english_677.wav,0,peel,386,46,5,4,english,m,1,0.1,35.44886391,0.82737557
6557da88346b2b209cd16bb5,125,2,2024-02-24T08:20:51.973Z,english_677.wav,0,peel,386,46,5,4,english,m,2,0.2,3.82146975,0.46436239
6557da88346b2b209cd16bb5,125,2,2024-02-24T08:20:51.973Z,english_677.wav,0,peel,386,46,5,4,english,m,3,0.3,10.3543008,1.40426898
6557da88346b2b209cd16bb5,125,2,2024-02-24T08:20:51.973Z,english_677.wav,0,peel,386,46,5,4,english,m,4,0.32341667,-53.94170103,1.42138659
6557da88346b2b209cd16bb5,126,2,2024-02-24T08:20:51.973Z,english_542.wav,0,peel,184,46,5,4,english,m,0,0.0,-75.53633957,0.40538048
6557da88346b2b209cd16bb5,126,2,2024-02-24T08:20:51.973Z,english_542.wav,0,peel,184,46,5,4,english,m,1,0.1,-65.83593262,1.98560632
6557da88346b2b209cd16bb5,126,2,2024-02-24T08:20:51.973Z,english_542.wav,0,peel,184,46,5,4,english,m,2,0.2,-66.8010443,1.18970355
6557da88346b2b209cd16bb5,126,2,2024-02-24T08:20:51.973Z,english_542.wav,0,peel,184,46,5,4,english,m,3,0.3,89.94318033,1.00543009
6557da88346b2b209cd16bb5,126,2,2024-02-24T08:20:51.973Z,english_542.wav,0,peel,184,46,5,4,english,m,4,0.32341667,-28.80984484,1.15995836
6557da88346b2b209cd16bb5,127,2,2024-02-24T08:20:51.973Z,english_402.wav,0,peel,116,46,5,4,english,m,0,0.0,-69.75327375,0.88104294
6557da88346b2b209cd16bb5,127,2,2024-02-24T08:20:51.973Z,english_402.wav,0,peel,116,46,5,4,english,m,1,0.1,-37.13247603,1.50830761
6557da88346b2b209cd16bb5,127,2,2024-02-24T08:20:51.973Z,english_402.wav,0,peel,116,46,5,4,english,m,2,0.2,95.06865819,0.86613458
6557da88346b2b209cd16bb5,127,2,2024-02-24T08:20:51.973Z,english_402.wav,0,peel,116,46,5,4,english,m,3,0.3,-83.65219271,1.46195184
6557da88346b2b209cd16bb5,127,2,2024-02-24T08:20:51.973Z,english_402.wav,0,peel,116,46,5,4,english,m,4,0.32341667,-39.65623645,1.78030697
6557da88346b2b209cd16bb5,128,2,2024-02-24T08:20:51.973Z,english_26.wav,0,peel,151,46,5,4,english,m,0,0.0,54.38966875,1.86679487
6557da88346b2b209cd16bb5,128,2,2024-02-24T08:20:51.973Z,english_26.wav,0,peel,151,46,5,4,english,m,1,0.1,0.3460174,0.79762949
6557da88346b2b209cd16bb5,128,2,2024-02-24T08:20:51.973Z,english_26.wav,0,peel,151,46,5,4,english,m,2,0.2,-72.33258957,0.93682052
6557da88346b2b209cd16bb5,128,2,2024-02-24T08:20:51.973Z,english_26.wav,0,peel,151,46,5,4,english,m,3,0.3,67.09142092,1.42469209
6557da88346b2b209cd16bb5,128,2,2024-02-24T08:20:51.973Z,english_26.wav,0,peel,151,46,5,4,english,m,4,0.32341667,16.00565239,1.17807545
6557da88346b2b209cd16bb5,129,2,2024-02-24T08:20:51.973Z,english_408.wav,0,peel,131,46,5,4,english,m,0,0.0,-0.16211679,1.52185603
6557da88346b2b209cd16bb5,129,2,2024-02-24T08:20:51.973Z,english_408.wav,0,peel,131,46,5,4,english,m,1,0.1,16.68246491,0.27925492
6557da88346b2b209cd16bb5,129,2,2024-02-24T08:20:51.973Z,english_408.wav,0,peel,131,46,5,4,english,m,2,0.2,-84.31504289,0.96179544
6557da88346b2b209cd16bb5,129,2,2024-02-24T08:20:51.973Z,english_408.wav,0,peel,131,46,5,4,english,m,3,0.3,20.95362966,1.64669203
6557da88346b2b209cd16bb5,129,2,2024-02-24T08:20:51.973Z,english_408.wav,0,peel,131,46,5,4,english,m,4,0.32341667,15.25079186,1.54793764
6557da88346b2b209cd16bb5,130,2,2024-02-24T08:20:51.973Z,english_275.wav,0,peel,332,46,5,4,english,m,0,0.0,-1.14725012,0.71691039
6557da88346b2b209cd16bb5,130,2,2024-02-24T08:20:51.973Z,english_275.wav,0,peel,332,46,5,4,english,m,1,0.1,-90.43848863,0.74614953
6557da88346b2b209cd16bb5,130,2,2024-02-24T08:20:51.973Z,english_275.wav,0,peel,332,46,5,4,english,m,2,0.2,-40.03711279,1.94843862
6557da88346b2b209cd16bb5,130,2,2024-02-24T08:20:51.973Z,english_275.wav,0,peel,332,46,5,4,english,m,3,0.3,-29.12549604,0.32495742
6557da88346b2b209cd16bb5,130,2,2024-02-24T08:20:51.973Z,english_275.wav,0,peel,332,46,5,4,english,m,4,0.32341667,77.33253221,0.61649877
6557da88346b2b209cd16bb5,131,2,2024-02-24T08:20:51.973Z,english_264.wav,0,peel,203,46,5,4,english,m,0,0.0,16.10521774,1.02407609
6557da88346b2b209cd16bb5,131,2,2024-02-24T08:20:51.973Z,english_264.wav,0,peel,203,46,5,4,english,m,1,0.1,-43.55481907,1.4393598
6557da88346b2b209cd16bb5,131,2,2024-02-24T08:20:51.973Z,english_264.wav,0,peel,203,46,5,4,english,m,2,0.2,-16.87093852,1.31552174
6557da88346b2b209cd16bb5,131,2,2024-02-24T08:20:51.973Z,english_264.wav,0,peel,203,46,5,4,english,m,3,0.3,-81.41755984,1.17516842
6557da88346b2b209cd16bb5,131,2,2024-02-24T08:20:51.973Z,english_264.wav,0,peel,203,46,5,4,english,m,4,0.32341667,-76.00277997,0.613195
6557da88346b2b209cd16bb5,132,2,2024-02-24T08:20:51.973Z,english_585.wav,0,peel,424,46,5,4,english,m,0,0.0,-47.47167609,0.91486293
6557da88346b2b209cd16bb5,132,2,2024-02-24T08:20:51.973Z,english_585.wav,0,peel,424,46,5,4,english,m,1,0.1,-85.73018253,0.8051019
6557da88346b2b209cd16bb5,132,2,2024-02-24T08:20:51.973Z,english_585.wav,0,peel,424,46,5,4,english,m,2,0.2,4.69567907,1.25289508
6557da88346b2b209cd16bb5,132,2,2024-02-24T08:20:51.973Z,english_585.wav,0,peel,424,46,5,4,english,m,3,0.3,51.83381109,0.83258124
6557da88346b2b209cd16bb5,132,2,2024-02-24T08:20:51.973Z,english_585.wav,0,peel,424,46,5,4,english,m,4,0.32341667,14.12777642,1.43411439
6557da88346b2b209cd16bb5,133,2,2024-02-24T08:20:51.973Z,english_943.wav,0,pill,510,46,5,4,english,m,0,0.0,-88.39234314,0.07745413
6557da88346b2b209cd16bb5,133,2,2024-02-24T08:20:51.973Z,english_943.wav,0,pill,510,46,5,4,english,m,1,0.1,65.27529367,1.64078214
6557da88346b2b209cd16bb5,133,2,2024-02-24T08:20:51.973Z,english_943.wav,0,pill,510,46,5,4,english,m,2,0.2,-24.85222093,0.23468741
6557da88346b2b209cd16bb5,133,2,2024-02-24T08:20:51.973Z,english_943.wav,0,pill,510,46,5,4,english,m,3,0.3,20.61002448,1.49561498
6557da88346b2b209cd16bb5,133,2,2024-02-24T08:20:51.973Z,english_943.wav,0,pill,510,46,5,4,english,m,4,0.32341667,-74.64601709,1.25217021
6557da88346b2b209cd16bb5,134,2,2024-02-24T08:20:51.973Z,english_279.wav,0,pill,256,46,5,4,english,m,0,0.0,-20.90398108,0.60114424
6557da88346b2b209cd16bb5,134,2,2024-02-24T08:20:51.973Z,english_279.wav,0,pill,256,46,5,4,english,m,1,0.1,98.83098338,0.92336304
6557da88346b2b209cd16bb5,134,2,2024-02-24T08:20:51.973Z,english_279.wav,0,pill,256,46,5,4,english,m,2,0.2,-95.37608427,1.39045705
6557da88346b2b209cd16bb5,134,2,2024-02-24T08:20:51.973Z,english_279.wav,0,pill,256,46,5,4,english,m,3,0.3,-52.65380993,0.64938935
6557da88346b2b209cd16bb5,134,2,2024-02-24T08:20:51.973Z,english_279.wav,0,pill,256,46,5,4,english,m,4,0.32341667,47.72500112,1.57478054
6557da88346b2b209cd16bb5,135,2,2024-02-24T08:20:51.973Z,english_950.wav,0,peel,604,46,5,4,english,m,0,0.0,-21.9776243,0.20752278
6557da88346b2b209cd16bb5,135,2,2024-02-24T08:20:51.973Z,english_950.wav,0,peel,604,46,5,4,english,m,1,0.1,-41.40023943,1.93939622
6557da88346b2b209cd16bb5,135,2,2024-02-24T08:20:51.973Z,english_950.wav,0,peel,604,46,5,4,english,m,2,0.2,48.01515584,1.55608343
6557da88346b2b209cd16bb5,135,2,2024-02-24T08:20:51.973Z,english_950.wav,0,peel,604,46,5,4,english,m,3,0.3,-87.95551252,1.49634866
6557da88346b2b209cd16bb5,135,2,2024-02-24T08:20:51.973Z,english_950.wav,0,peel,604,46,5,4,english,m,4,0.32341667,-39.5252386,0.91783384
6557da88346b2b209cd16bb5,136,2,2024-02-24T08:20:51.973Z,english_693.wav,0,peel,1931,46,5,4,english,m,0,0.0,-83.71635172,0.35753224
6557da88346b2b209cd16bb5,136,2,2024-02-24T08:20:51.973Z,english_693.wav,0,peel,1931,46,5,4,english,m,1,0.1,32.46406691,1.09553371
6557da88346b2b209cd16bb5,136,2,2024-02-24T08:20:51.973Z,english_693.wav,0,peel,1931,46,5,4,english,m,2,0.2,8.27548994,1.67166692
6557da88346b2b209cd16bb5,136,2,2024-02-24T08:20:51.973Z,english_693.wav,0,peel,1931,46,5,4,english,m,3,0.3,15.80660539,1.61413862
6557da88346b2b209cd16bb5,136,2,2024-02-24T08:20:51.973Z,english_693.wav,0,peel,1931,46,5,4,english,m,4,0.32341667,74.32681132,1.90943184
6557da88346b2b209cd16bb5,137,2,2024-02-24T08:20:51.973Z,english_130.wav,0,pill,756,46,5,4,english,m,0,0.0,-27.4951122,0.83907871
6557da88346b2b209cd16bb5,137,2,2024-02-24T08:20:51.973Z,english_130.wav,0,pill,756,46,5,4,english,m,1,0.1,-38.07775804,1.38560413
6557da88346b2b209cd16bb5,137,2,2024-02-24T08:20:51.973Z,english_130.wav,0,pill,756,46,5,4,english,m,2,0.2,-9.69340922,0.50531735
6557da88346b2b209cd16bb5,137,2,2024-02-24T08:20:51.973Z,english_130.wav,0,pill,756,46,5,4,english,m,3,0.3,-88.09187015,0.53414674
6557da88346b2b209cd16bb5,137,2,2024-02-24T08:20:51.973Z,english_130.wav,0,pill,756,46,5,4,english,m,4,0.32341667,-47.45461314,1.10107345
6557da88346b2b209cd16bb5,138,2,2024-02-24T08:20:51.973Z,english_234.wav,0,pill,591,46,5,4,english,m,0,0.0,-96.19421376,0.0948498
6557da88346b2b209cd16bb5,138,2,2024-02-24T08:20:51.973Z,english_234.wav,0,pill,591,46,5,4,english,m,1,0.1,96.13097212,1.36649532
6557da88346b2b209cd16bb5,138,2,2024-02-24T08:20:51.973Z,english_234.wav,0,pill,591,46,5,4,english,m,2,0.2,-68.61115628,0.00312314
6557da88346b2b209cd16bb5,138,2,2024-02-24T08:20:51.973Z,english_234.wav,0,pill,591,46,5,4,english,m,3,0.3,58.3624958,0.01269103
6557da88346b2b209cd16bb5,138,2,2024-02-24T08:20:51.973Z,english_234.wav,0,pill,591,46,5,4,english,m,4,0.32341667,60.51337125,1.76377265
6557da88346b2b209cd16bb5,139,2,2024-02-24T08:20:51.973Z,english_754.wav,0,peel,324,46,5,4,english,m,0,0.0,-19.76675532,0.85408869
6557da88346b2b209cd16bb5,139,2,2024-02-24T08:20:51.973Z,english_754.wav,0,peel,324,46,5,4,english,m,1,0.1,34.48414938,1.68072852
6557da88346b2b209cd16bb5,139,2,2024-02-24T08:20:51.973Z,english_754.wav,0,peel,324,46,5,4,english,m,2,0.2,62.52568934,1.92334892
6557da88346b2b209cd16bb5,139,2,2024-02-24T08:20:51.973Z,english_754.wav,0,peel,324,46,5,4,english,m,3,0.3,25.41574935,0.35114342
6557da88346b2b209cd16bb5,139,2,2024-02-24T08:20:51.973Z,english_754.wav,0,peel,324,46,5,4,english,m,4,0.32341667,-36.16911462,0.9845535
6557da88346b2b209cd16bb5,140,2,2024-02-24T08:20:51.973Z,english_342.wav,0,pill,281,46,5,4,english,m,0,0.0,78.00911228,0.99673345
6557da88346b2b209cd16bb5,140,2,2024-02-24T08:20:51.973Z,english_342.wav,0,pill,281,46,5,4,english,m,1,0.1,-28.67768894,1.80563483
6557da88346b2b209cd16bb5,140,2,2024-02-24T08:20:51.973Z,english_342.wav,0,pill,281,46,5,4,english,m,2,0.2,73.55618202,1.38552336
6557da88346b2b209cd16bb5,140,2,2024-02-24T08:20:51.973Z,english_342.wav,0,pill,281,46,5,4,english,m,3,0.3,93.0509223,0.17145116
6557da88346b2b209cd16bb5,140,2,2024-02-24T08:20:51.973Z,english_342.wav,0,pill,281,46,5,4,english,m,4,0.32341667,-2.74816459,0.15059009
6557da88346b2b209cd16bb5,141,2,2024-02-24T08:20:51.973Z,english_97.wav,0,pill,351,46,5,4,english,m,0,0.0,57.21139396,1.63402743
6557da88346b2b209cd16bb5,141,2,2024-02-24T08:20:51.973Z,english_97.wav,0,pill,351,46,5,4,english,m,1,0.1,-7.40408397,0.54734888
6557da88346b2b209cd16bb5,141,2,2024-02-24T08:20:51.973Z,english_97.wav,0,pill,351,46,5,4,english,m,2,0.2,77.7995227,1.5228594
6557da88346b2b209cd16bb5,141,2,2024-02-24T08:20:51.973Z,english_97.wav,0,pill,351,46,5,4,english,m,3,0.3,-51.1747528,1.13050105
6557da88346b2b209cd16bb5,141,2,2024-02-24T08:20:51.973Z,english_97.wav,0,pill,351,46,5,4,english,m,4,0.32341667,77.11982253,0.82586999
6557da88346b2b209cd16bb5,142,2,2024-02-24T08:20:51.973Z,english_443.wav,0,pill,395,46,5,4,english,m,0,0.0,0.608638,1.06022382
6557da88346b2b209cd16bb5,142,2,2024-02-24T08:20:51.973Z,english_443.wav,0,pill,395,46,5,4,english,m,1,0.1,15.80398242,1.02694767
6557da88346b2b209cd16bb5,142,2,2024-02-24T08:20:51.973Z,english_443.wav,0,pill,395,46,5,4,english,m,2,0.2,-53.8454718,0.72801533
6557da88346b2b209cd16bb5,142,2,2024-02-24T08:20:51.973Z,english_443.wav,0,pill,395,46,5,4,english,m,3,0.3,32.36058062,1.22153209
6557da88346b2b209cd16bb5,142,2,2024-02-24T08:20:51.973Z,english_443.wav,0,pill,395,46,5,4,english,m,4,0.32341667,41.23353215,0.58841963
6557da88346b2b209cd16bb5,143,2,2024-02-24T08:20:51.973Z,english_913.wav,0,pill,571,46,5,4,english,m,0,0.0,27.9375346,0.72243167
6557da88346b2b209cd16bb5,143,2,2024-02-24T08:20:51.973Z,english_913.wav,0,pill,571,46,5,4,english,m,1,0.1,41.67879689,1.59129257
6557da88346b2b209cd16bb5,143,2,2024-02-24T08:20:51.973Z,english_913.wav,0,pill,571,46,5,4,english,m,2,0.2,-50.96955224,1.19382874
6557da88346b2b209cd16bb5,143,2,2024-02-24T08:20:51.973Z,english_913.wav,0,pill,571,46,5,4,english,m,3,0.3,93.1868058,0.86840853
6557da88346b2b209cd16bb5,143,2,2024-02-24T08:20:51.973Z,english_913.wav,0,pill,571,46,5,4,english,m,4,0.32341667,83.79752677,0.21021697
6557da88346b2b209cd16bb5,144,2,2024-02-24T08:20:51.973Z,english_605.wav,0,pill,368,46,5,4,english,m,0,0.0,-82.65591545,0.90945233
6557da88346b2b209cd16bb5,144,2,2024-02-24T08:20:51.973Z,english_605.wav,0,pill,368,46,5,4,english,m,1,0.1,35.78886654,1.65178877
6557da88346b2b209cd16bb5,144,2,2024-02-24T08:20:51.973Z,english_605.wav,0,pill,368,46,5,4,english,m,2,0.2,-36.80716754,0.21181898
6557da88346b2b209cd16bb5,144,2,2024-02-24T08:20:51.973Z,english_605.wav,0,pill,368,46,5,4,english,m,3,0.3,-4.39131435,1.21754483
6557da88346b2b209cd16bb5,144,2,2024-02-24T08:20:51.973Z,english_605.wav,0,pill,368,46,5,4,english,m,4,0.32341667,-17.17702763,1.60493484
6557da88346b2b209cd16bb5,145,2,2024-02-24T08:20:51.973Z,english_785.wav,0,pill,2204,46,5,4,english,m,0,0.0,41.51350967,0.93543931
6557da88346b2b209cd16bb5,145,2,2024-02-24T08:20:51.973Z,english_785.wav,0,pill,2204,46,5,4,english,m,1,0.1,26.23517368,1.17819894
6557da88346b2b209cd16bb5,145,2,2024-02-24T08:20:51.973Z,english_785.wav,0,pill,2204,46,5,4,english,m,2,0.2,-12.63822228,1.98833146
6557da88346b2b209cd16bb5,145,2,2024-02-24T08:20:51.973Z,english_785.wav,0,pill,2204,46,5,4,english,m,3,0.3,-30.66588474,0.80021218
6557da88346b2b209cd16bb5,145,2,2024-02-24T08:20:51.973Z,english_785.wav,0,pill,2204,46,5,4,english,m,4,0.32341667,26.08399401,1.2737519
6557da88346b2b209cd16bb5,146,2,2024-02-24T08:20:51.973Z,english_961.wav,0,pill,1329,46,5,4,english,m,0,0.0,20.81275789,1.87720953
6557da88346b2b209cd16bb5,146,2,2024-02-24T08:20:51.973Z,english_961.wav,0,pill,1329,46,5,4,english,m,1,0.1,46.48072234,1.43497285
6557da88346b2b209cd16bb5,146,2,2024-02-24T08:20:51.973Z,english_961.wav,0,pill,1329,46,5,4,english,m,2,0.2,79.36291712,1.9095844
6557da88346b2b209cd16bb5,146,2,2024-02-24T08:20:51.973Z,english_961.wav,0,pill,1329,46,5,4,english,m,3,0.3,7.86976501,0.20821065
6557da88346b2b209cd16bb5,146,2,2024-02-24T08:20:51.973Z,english_961.wav,0,pill,1329,46,5,4,english,m,4,0.32341667,-45.45751668,0.0640973
6557da88346b2b209cd16bb5,147,2,2024-02-24T08:20:51.973Z,english_47.wav,0,pill,352,46,5,4,english,m,0,0.0,70.62381491,1.36620222
6557da88346b2b209cd16bb5,147,2,2024-02-24T08:20:51.973Z,english_47.wav,0,pill,352,46,5,4,english,m,1,0.1,-43.60565268,0.47559644
6557da88346b2b209cd16bb5,147,2,2024-02-24T08:20:51.973Z,english_47.wav,0,pill,352,46,5,4,english,m,2,0.2,29.54670776,0.92078875
6557da88346b2b209cd16bb5,147,2,2024-02-24T08:20:51.973Z,english_47.wav,0,pill,352,46,5,4,english,m,3,0.3,95.208653,0.83015506
6557da88346b2b209cd16bb5,147,2,2024-02-24T08:20:51.973Z,english_47.wav,0,pill,352,46,5,4,english,m,4,0.32341667,-87.83630424,1.40747595
6557da88346b2b209cd16bb5,148,2,2024-02-24T08:20:51.973Z,english_592.wav,0,pill,621,46,5,4,english,m,0,0.0,-77.34060672,0.96869857
6557da88346b2b209cd16bb5,148,2,2024-02-24T08:20:51.973Z,english_592.wav,0,pill,621,46,5,4,english,m,1,0.1,27.41551815,1.75134411
6557da88346b2b209cd16bb5,148,2,2024-02-24T08:20:51.973Z,english_592.wav,0,pill,621,46,5,4,english,m,2,0.2,-17.47445882,1.41680483
6557da88346b2b209cd16bb5,148,2,2024-02-24T08:20:51.973Z,english_592.wav,0,pill,621,46,5,4,english,m,3,0.3,-61.08462212,1.07260777
6557da88346b2b209cd16bb5,148,2,2024-02-24T08:20:51.973Z,english_592.wav,0,pill,621,46,5,4,english,m,4,0.32341667,74.7675789,0.73150904
6557da88346b2b209cd16bb5,149,2,2024-02-24T08:20:51.973Z,english_625.wav,0,pill,587,46,5,4,english,m,0,0.0,25.70847239,1.1960971
6557da88346b2b209cd16bb5,149,2,2024-02-24T08:20:51.973Z,english_625.wav,0,pill,587,46,5,4,english,m,1,0.1,-37.82303983,0.02795501
6557da88346b2b209cd16bb5,149,2,2024-02-24T08:20:51.973Z,english_625.wav,0,pill,587,46,5,4,english,m,2,0.2,38.52328891,1.10198652
6557da88346b2b209cd16bb5,149,2,2024-02-24T08:20:51.973Z,english_625.wav,0,pill,587,46,5,4,english,m,3,0.3,-23.93667478,0.08852642
6557da88346b2b209cd16bb5,149,2,2024-02-24T08:20:51.973Z,english_625.wav,0,pill,587,46,5,4,english,m,4,0.32341667,-53.98326942,1.59813041
6557da88346b2b209cd16bb5,150,3,2024-02-24T08:20:51.973Z,english_471.wav,0,pill,1454,46,5,4,english,m,0,0.0,47.42131089,0.58869392
6557da88346b2b209cd16bb5,150,3,2024-02-24T08:20:51.973Z,english_471.wav,0,pill,1454,46,5,4,english,m,1,0.1,-63.95282256,1.74739294
6557da88346b2b209cd16bb5,150,3,2024-02-24T08:20:51.973Z,english_471.wav,0,pill,1454,46,5,4,english,m,2,0.2,31.67244378,1.10105994
6557da88346b2b209cd16bb5,150,3,2024-02-24T08:20:51.973Z,english_471.wav,0,pill,1454,46,5,4,english,m,3,0.3,40.6572625,0.54790015
6557da88346b2b209cd16bb5,150,3,2024-02-24T08:20:51.973Z,english_471.wav,0,pill,1454,46,5,4,english,m,4,0.32341667,-18.6332399,1.33029013
6557da88346b2b209cd16bb5,151,3,2024-02-24T08:20:51.973Z,english_65.wav,0,pill,415,46,5,4,english,m,0,0.0,-46.88015867,0.62230507
6557da88346b2b209cd16bb5,151,3,2024-02-24T08:20:51.973Z,english_65.wav,0,pill,415,46,5,4,english,m,1,0.1,54.34027197,1.12355997
6557da88346b2b209cd16bb5,151,3,2024-02-24T08:20:51.973Z,english_65.wav,0,pill,415,46,5,4,english,m,2,0.2,-65.46386729,1.0507031
6557da88346b2b209cd16bb5,151,3,2024-02-24T08:20:51.973Z,english_65.wav,0,pill,415,46,5,4,english,m,3,0.3,-66.7533487,0.71238348
6557da88346b2b209cd16bb5,151,3,2024-02-24T08:20:51.973Z,english_65.wav,0,pill,415,46,5,4,english,m,4,0.32341667,-12.18147599,0.41048607
6557da88346b2b209cd16bb5,152,3,2024-02-24T08:20:51.973Z,english_787.wav,0,pill,212,46,5,4,english,m,0,0.0,57.99353047,1.96251481
6557da88346b2b209cd16bb5,152,3,2024-02-24T08:20:51.973Z,english_787.wav,0,pill,212,46,5,4,english,m,1,0.1,-40.79525362,0.94444479
6557da88346b2b209cd16bb5,152,3,2024-02-24T08:20:51.973Z,english_787.wav,0,pill,212,46,5,4,english,m,2,0.2,23.78072576,0.924778
6557da88346b2b209cd16bb5,152,3,2024-02-24T08:20:51.973Z,english_787.wav,0,pill,212,46,5,4,english,m,3,0.3,72.96982422,0.31383508
6557da88346b2b209cd16bb5,152,3,2024-02-24T08:20:51.973Z,english_787.wav,0,pill,212,46,5,4,english,m,4,0.32341667,53.76957631,0.68947425
6557da88346b2b209cd16bb5,153,3,2024-02-24T08:20:51.973Z,english_33.wav,0,pill,132,46,5,4,english,m,0,0.0,13.53683954,1.37746345
6557da88346b2b209cd16bb5,153,3,2024-02-24T08:20:51.973Z,english_33.wav,0,pill,132,46,5,4,english,m,1,0.1,-23.61599557,1.14776292
6557da88346b2b209cd16bb5,153,3,2024-02-24T08:20:51.973Z,english_33.wav,0,pill,132,46,5,4,english,m,2,0.2,60.58241295,1.15899553
6557da88346b2b209cd16bb5,153,3,2024-02-24T08:20:51.973Z,english_33.wav,0,pill,132,46,5,4,english,m,3,0.3,-2.03686091,0.64766031
