subj,sex,age,language,english,french,native_lang,date,practice,block,trial,stim,pitch,stretch,response,rt
8773808799,f,21,english,5,3,english,2024-01-25 10:31:19.575190,False,2,253,sounds\english\audio/english_534.wav,"[[  0.         -42.4271338 ]
 [  0.1        -80.6424644 ]
 [  0.2         59.29592388]
 [  0.3         75.02007223]
 [  0.32341667 -57.55026449]]","[[0.         1.1267565 ]
 [0.1        0.6842577 ]
 [0.2        0.01459656]
 [0.3        1.03701198]
 [0.32341667 1.25840342]]",0,2.356
8773808799,f,21,english,5,3,english,2024-01-25 10:31:19.575190,False,2,254,sounds\english\audio/english_770.wav,"[[  0.         -33.21947329]
 [  0.1         63.53746239]
 [  0.2        -62.38231874]
 [  0.3         57.5515188 ]
 [  0.32341667 -11.94001254]]","[[0.         1.48551245]
 [0.1        1.21485607]
 [0.2        1.11129762]
 [0.3        1.59702794]
 [0.32341667 1.16110171]]",0,0.476
8773808799,f,21,english,5,3,english,2024-01-25 10:31:19.575190,False,2,255,sounds\english\audio/english_185.wav,"[[  0.         -67.20213277]
 [  0.1        -70.91279736]
 [  0.2         11.55913655]
 [  0.3        -88.76292025]
 [  0.32341667 -25.67800099]]","[[0.         0.62417316]
 [0.1        1.12829576]
 [0.2        0.70978518]
 [0.3        0.02882377]
 [0.32341667 0.52970381]]",0,0.552
8773808799,f,21,english,5,3,english,2024-01-25 10:31:19.575190,False,2,256,sounds\english\audio/english_853.wav,"[[ 0.         87.83319324]
 [ 0.1        64.16710312]
 [ 0.2        12.98667351]
 [ 0.3        25.03434444]
 [ 0.32341667 98.3458188 ]]","[[0.         0.81037323]
 [0.1        1.2495933 ]
 [0.2        0.22916278]
 [0.3        0.67764146]
 [0.32341667 0.13807639]]",0,0.418
8773808799,f,21,english,5,3,english,2024-01-25 10:31:19.575190,False,2,257,sounds\english\audio/english_8.wav,"[[  0.         -11.83025711]
 [  0.1          8.7470631 ]
 [  0.2        -15.41843982]
 [  0.3        -87.7437633 ]
 [  0.32341667 -40.85253846]]","[[0.         1.51300734]
 [0.1        0.24000547]
 [0.2        1.17952525]
 [0.3        1.57032258]
 [0.32341667 0.7584977 ]]",0,0.268
8773808799,f,21,english,5,3,english,2024-01-25 10:31:19.575190,False,2,258,sounds\english\audio/english_950.wav,"[[  0.         -21.9776243 ]
 [  0.1        -41.40023943]
 [  0.2         48.01515584]
 [  0.3        -87.95551252]
 [  0.32341667 -39.5252386 ]]","[[0.         0.20752278]
 [0.1        1.93939622]
 [0.2        1.55608343]
 [0.3        1.49634866]
 [0.32341667 0.91783384]]",0,0.322
8773808799,f,21,english,5,3,english,2024-01-25 10:31:19.575190,False,2,259,sounds\english\audio/english_363.wav,"[[  0.          -8.62246293]
 [  0.1        -37.95317313]
 [  0.2        -98.56362786]
 [  0.3         79.4101663 ]
 [  0.32341667 -19.01593507]]","[[0.         0.22304778]
 [0.1        0.51009023]
 [0.2        1.67320701]
 [0.3        0.32318158]
 [0.32341667 1.23606141]]",0,0.455
8773808799,f,21,english,5,3,english,2024-01-25 10:31:19.575190,False,2,260,sounds\english\audio/english_85.wav,"[[  0.          69.91092253]
 [  0.1         90.04885235]
 [  0.2        -54.471964  ]
 [  0.3        -32.42862041]
 [  0.32341667 -26.25094384]]","[[0.         1.07696769]
 [0.1        1.65675227]
 [0.2        1.18566865]
 [0.3        0.43131811]
 [0.32341667 1.88641509]]",0,0.455
8773808799,f,21,english,5,3,english,2024-01-25 10:31:19.575190,False,2,261,sounds\english\audio/english_257.wav,"[[  0.         -68.31428674]
 [  0.1        -13.90908686]
 [  0.2         54.08743226]
 [  0.3        -42.73693867]
 [  0.32341667  -1.03846516]]","[[0.         1.40239735]
 [0.1        1.49673114]
 [0.2        1.07658057]
 [0.3        0.27427112]
 [0.32341667 1.90516482]]",0,0.345
8773808799,f,21,english,5,3,english,2024-01-25 10:31:19.575190,False,2,262,sounds\english\audio/english_877.wav,"[[  0.          49.36401037]
 [  0.1         15.17280231]
 [  0.2         22.36436744]
 [  0.3        -25.51979868]
 [  0.32341667 -55.72443313]]","[[0.         1.25510861]
 [0.1        0.84700305]
 [0.2        0.32703774]
 [0.3        1.72637958]
 [0.32341667 0.52117686]]",0,0.376
8773808799,f,21,english,5,3,english,2024-01-25 10:31:19.575190,False,2,263,sounds\english\audio/english_922.wav,"[[  0.         -90.36253489]
 [  0.1         -6.38761956]
 [  0.2        -78.09661245]
 [  0.3        -92.75722173]
 [  0.32341667 -80.16719401]]","[[0.         0.33253962]
 [0.1        1.51366693]
 [0.2        0.40049791]
 [0.3        1.29207892]
 [0.32341667 1.40400382]]",0,0.461
8773808799,f,21,english,5,3,english,2024-01-25 10:31:19.575190,False,2,264,sounds\english\audio/english_279.wav,"[[  0.         -20.90398108]
 [  0.1         98.83098338]
 [  0.2        -95.37608427]
 [  0.3        -52.65380993]
 [  0.32341667  47.72500112]]","[[0.         0.60114424]
 [0.1        0.92336304]
 [0.2        1.39045705]
 [0.3        0.64938935]
 [0.32341667 1.57478054]]",0,0.226
8773808799,f,21,english,5,3,english,2024-01-25 10:31:19.575190,False,2,265,sounds\english\audio/english_336.wav,"[[  0.          29.43389708]
 [  0.1        -98.82505887]
 [  0.2         33.95949266]
 [  0.3        -57.79711044]
 [  0.32341667  81.65015026]]","[[0.         1.05594545]
 [0.1        1.57774783]
 [0.2        1.35373128]
 [0.3        1.04960404]
 [0.32341667 0.39151968]]",0,0.208
8773808799,f,21,english,5,3,english,2024-01-25 10:31:19.575190,False,2,266,sounds\english\audio/english_821.wav,"[[  0.          -4.04234253]
 [  0.1         50.39518932]
 [  0.2         58.18996785]
 [  0.3        -22.07293427]
 [  0.32341667  56.43229939]]","[[0.         1.62928948]
 [0.1        0.78033958]
 [0.2        1.56476115]
 [0.3        0.56557752]
 [0.32341667 0.93389964]]",0,0.19
8773808799,f,21,english,5,3,english,2024-01-25 10:31:19.575190,False,2,267,sounds\english\audio/english_19.wav,"[[  0.          51.84788699]
 [  0.1         59.68091475]
 [  0.2        -27.71167756]
 [  0.3        -29.56443604]
 [  0.32341667 -58.55228515]]","[[0.         0.3981759 ]
 [0.1        1.61217409]
 [0.2        0.35158216]
 [0.3        0.8770992 ]
 [0.32341667 0.51670124]]",0,0.403
8773808799,f,21,english,5,3,english,2024-01-25 10:31:19.575190,False,2,268,sounds\english\audio/english_391.wav,"[[  0.          67.64906061]
 [  0.1         79.28195584]
 [  0.2         62.27299227]
 [  0.3        -11.10764883]
 [  0.32341667  57.41338752]]","[[0.         0.41951577]
 [0.1        0.03526883]
 [0.2        0.81828659]
 [0.3        1.2900604 ]
 [0.32341667 1.95373865]]",0,0.665
8773808799,f,21,english,5,3,english,2024-01-25 10:31:19.575190,False,2,269,sounds\english\audio/english_519.wav,"[[  0.          -8.06946753]
 [  0.1        -66.74939098]
 [  0.2        -27.98142454]
 [  0.3        -72.75033344]
 [  0.32341667 -36.15575878]]","[[0.         0.14231686]
 [0.1        1.74411569]
 [0.2        1.42967772]
 [0.3        0.44774012]
 [0.32341667 1.4256209 ]]",0,0.265
8773808799,f,21,english,5,3,english,2024-01-25 10:31:19.575190,False,2,270,sounds\english\audio/english_931.wav,"[[  0.         -78.99767873]
 [  0.1        -34.67093685]
 [  0.2          2.25144273]
 [  0.3        -93.87287365]
 [  0.32341667  57.8562517 ]]","[[0.         0.72988395]
 [0.1        1.40858855]
 [0.2        1.82787629]
 [0.3        1.51045502]
 [0.32341667 1.42241625]]",0,0.285
8773808799,f,21,english,5,3,english,2024-01-25 10:31:19.575190,False,2,271,sounds\english\audio/english_655.wav,"[[  0.          84.9811401 ]
 [  0.1         70.1996811 ]
 [  0.2         -5.60681941]
 [  0.3        -33.00324328]
 [  0.32341667  24.65490624]]","[[0.         1.09123398]
 [0.1        0.51840547]
 [0.2        0.58569322]
 [0.3        1.11132849]
 [0.32341667 0.28465301]]",0,0.375
8773808799,f,21,english,5,3,english,2024-01-25 10:31:19.575190,False,2,272,sounds\english\audio/english_692.wav,"[[  0.         -29.13306787]
 [  0.1        -41.86406343]
 [  0.2        -94.94051661]
 [  0.3         78.40426091]
 [  0.32341667 -47.11562344]]","[[0.         0.55849531]
 [0.1        1.96517265]
 [0.2        0.19953253]
 [0.3        1.89357941]
 [0.32341667 1.37874109]]",0,0.322
8773808799,f,21,english,5,3,english,2024-01-25 10:31:19.575190,False,2,273,sounds\english\audio/english_180.wav,"[[  0.         -79.96502932]
 [  0.1         33.21752916]
 [  0.2        -97.52705813]
 [  0.3         42.51331828]
 [  0.32341667 -42.98571984]]","[[0.         0.84610218]
 [0.1        1.88919334]
 [0.2        0.18699196]
 [0.3        0.0366283 ]
 [0.32341667 0.95813987]]",0,0.307
8773808799,f,21,english,5,3,english,2024-01-25 10:31:19.575190,False,2,274,sounds\english\audio/english_587.wav,"[[  0.         -33.32102811]
 [  0.1         46.1287001 ]
 [  0.2        -62.23894368]
 [  0.3         36.67711132]
 [  0.32341667 -11.53320103]]","[[0.         0.7972352 ]
 [0.1        1.97425238]
 [0.2        0.99609006]
 [0.3        1.18577707]
 [0.32341667 1.64089558]]",0,0.198
8773808799,f,21,english,5,3,english,2024-01-25 10:31:19.575190,False,2,275,sounds\english\audio/english_81.wav,"[[  0.          -8.99652005]
 [  0.1         37.2959996 ]
 [  0.2         56.49217416]
 [  0.3         99.31521879]
 [  0.32341667 -25.36881215]]","[[0.         1.6890162 ]
 [0.1        1.86826101]
 [0.2        0.68929954]
 [0.3        0.22383451]
 [0.32341667 0.930773  ]]",0,0.242
8773808799,f,21,english,5,3,english,2024-01-25 10:31:19.575190,False,2,276,sounds\english\audio/english_723.wav,"[[  0.         -85.17156731]
 [  0.1         92.93654667]
 [  0.2        -28.89042756]
 [  0.3         36.79914563]
 [  0.32341667   6.86426773]]","[[0.         1.02541656]
 [0.1        0.92088513]
 [0.2        0.78256854]
 [0.3        1.22887413]
 [0.32341667 1.77193963]]",0,0.346
8773808799,f,21,english,5,3,english,2024-01-25 10:31:19.575190,False,2,277,sounds\english\audio/english_241.wav,"[[  0.          68.9743722 ]
 [  0.1         68.48567391]
 [  0.2         12.6952975 ]
 [  0.3         61.42298605]
 [  0.32341667 -18.578671  ]]","[[0.         1.94478574]
 [0.1        1.84895789]
 [0.2        1.1085625 ]
 [0.3        1.36682755]
 [0.32341667 0.93494379]]",0,0.226
8773808799,f,21,english,5,3,english,2024-01-25 10:31:19.575190,False,2,278,sounds\english\audio/english_548.wav,"[[  0.          19.39315344]
 [  0.1         82.09582914]
 [  0.2        -65.55781301]
 [  0.3         -5.02691035]
 [  0.32341667  62.63141303]]","[[0.         0.41811488]
 [0.1        1.70384437]
 [0.2        1.82142436]
 [0.3        1.13784798]
 [0.32341667 1.73168063]]",0,0.805
8773808799,f,21,english,5,3,english,2024-01-25 10:31:19.575190,False,2,279,sounds\english\audio/english_501.wav,"[[  0.          -7.07122187]
 [  0.1         10.00250781]
 [  0.2        -21.98285256]
 [  0.3         46.16062549]
 [  0.32341667  41.01655214]]","[[0.         1.4737248 ]
 [0.1        1.10212017]
 [0.2        1.65595948]
 [0.3        0.64757112]
 [0.32341667 0.36171009]]",0,0.217
8773808799,f,21,english,5,3,english,2024-01-25 10:31:19.575190,False,2,280,sounds\english\audio/english_983.wav,"[[  0.          32.38711768]
 [  0.1        -65.51600844]
 [  0.2         12.03576385]
 [  0.3        -64.14785636]
 [  0.32341667 -72.48499617]]","[[0.         0.79408654]
 [0.1        1.57845546]
 [0.2        1.23356187]
 [0.3        0.65581831]
 [0.32341667 0.27936162]]",0,0.343
8773808799,f,21,english,5,3,english,2024-01-25 10:31:19.575190,False,2,281,sounds\english\audio/english_939.wav,"[[  0.         -23.2558256 ]
 [  0.1        -16.62065377]
 [  0.2        -49.54734698]
 [  0.3         22.82101289]
 [  0.32341667  28.63490654]]","[[0.         0.1774722 ]
 [0.1        0.56271239]
 [0.2        1.42782479]
 [0.3        0.76516147]
 [0.32341667 1.70219777]]",0,0.472
8773808799,f,21,english,5,3,english,2024-01-25 10:31:19.575190,False,2,282,sounds\english\audio/english_685.wav,"[[  0.          91.61032892]
 [  0.1         39.6206555 ]
 [  0.2         -3.19880539]
 [  0.3        -72.84721689]
 [  0.32341667  98.11411302]]","[[0.         0.4504418 ]
 [0.1        1.04279806]
 [0.2        1.33634651]
 [0.3        1.25094987]
 [0.32341667 0.37726169]]",0,0.215
8773808799,f,21,english,5,3,english,2024-01-25 10:31:19.575190,False,2,283,sounds\english\audio/english_53.wav,"[[  0.           5.97237457]
 [  0.1        -76.12131912]
 [  0.2         55.18337216]
 [  0.3         70.32610425]
 [  0.32341667  26.40450832]]","[[0.         0.42230306]
 [0.1        0.60624646]
 [0.2        0.26369256]
 [0.3        1.07400525]
 [0.32341667 0.2721545 ]]",0,0.504
8773808799,f,21,english,5,3,english,2024-01-25 10:31:19.575190,False,2,284,sounds\english\audio/english_358.wav,"[[  0.         -24.40280242]
 [  0.1         62.18566088]
 [  0.2          5.26675109]
 [  0.3        -31.91571391]
 [  0.32341667  27.35112364]]","[[0.         0.64702298]
 [0.1        0.86836285]
 [0.2        1.05826104]
 [0.3        1.98011631]
 [0.32341667 0.35058307]]",0,0.411
8773808799,f,21,english,5,3,english,2024-01-25 10:31:19.575190,False,2,285,sounds\english\audio/english_699.wav,"[[  0.         -21.84844695]
 [  0.1        -20.61050251]
 [  0.2         -7.57046677]
 [  0.3        -90.18255135]
 [  0.32341667 -39.12532958]]","[[0.         0.55007596]
 [0.1        0.98595355]
 [0.2        1.16771202]
 [0.3        0.60930532]
 [0.32341667 1.39260434]]",0,0.405
8773808799,f,21,english,5,3,english,2024-01-25 10:31:19.575190,False,2,286,sounds\english\audio/english_788.wav,"[[  0.         -93.79628683]
 [  0.1        -45.29703147]
 [  0.2        -46.01001772]
 [  0.3        -56.6729179 ]
 [  0.32341667  51.29020462]]","[[0.         0.67330318]
 [0.1        1.33385595]
 [0.2        1.35248941]
 [0.3        1.33220146]
 [0.32341667 1.32468206]]",0,0.354
8773808799,f,21,english,5,3,english,2024-01-25 10:31:19.575190,False,2,287,sounds\english\audio/english_921.wav,"[[  0.          60.93482672]
 [  0.1        -71.63665921]
 [  0.2        -30.77028929]
 [  0.3        -44.68164597]
 [  0.32341667  34.59415858]]","[[0.         0.06624465]
 [0.1        1.88925143]
 [0.2        0.40013084]
 [0.3        1.26601564]
 [0.32341667 1.98956357]]",1,0.307
8773808799,f,21,english,5,3,english,2024-01-25 10:31:19.575190,False,2,288,sounds\english\audio/english_407.wav,"[[  0.         -13.68776922]
 [  0.1        -57.11899702]
 [  0.2         62.94325807]
 [  0.3        -27.77030003]
 [  0.32341667 -61.90605897]]","[[0.         0.77658743]
 [0.1        1.53398674]
 [0.2        0.70379875]
 [0.3        0.72470084]
 [0.32341667 0.771678  ]]",0,0.298
8773808799,f,21,english,5,3,english,2024-01-25 10:31:19.575190,False,2,289,sounds\english\audio/english_324.wav,"[[  0.          49.07155908]
 [  0.1        -58.77252084]
 [  0.2        -55.40155542]
 [  0.3         19.02224292]
 [  0.32341667  21.20382854]]","[[0.         0.10864525]
 [0.1        1.61132735]
 [0.2        0.60180616]
 [0.3        0.93555132]
 [0.32341667 0.34417591]]",0,0.456
8773808799,f,21,english,5,3,english,2024-01-25 10:31:19.575190,False,2,290,sounds\english\audio/english_333.wav,"[[  0.          61.26933292]
 [  0.1         38.65533839]
 [  0.2        -27.91605269]
 [  0.3         36.00101096]
 [  0.32341667 -78.35943708]]","[[0.         0.50090252]
 [0.1        1.61630161]
 [0.2        1.73322278]
 [0.3        0.67742762]
 [0.32341667 0.46993908]]",0,0.356
8773808799,f,21,english,5,3,english,2024-01-25 10:31:19.575190,False,2,291,sounds\english\audio/english_35.wav,"[[  0.         -35.14158545]
 [  0.1        -54.49669119]
 [  0.2         37.91149238]
 [  0.3        -55.38086503]
 [  0.32341667  54.77667999]]","[[0.         0.855771  ]
 [0.1        0.5452371 ]
 [0.2        1.65995376]
 [0.3        0.74505496]
 [0.32341667 0.83530932]]",0,0.566
8773808799,f,21,english,5,3,english,2024-01-25 10:31:19.575190,False,2,292,sounds\english\audio/english_872.wav,"[[  0.           0.56374655]
 [  0.1        -70.88107799]
 [  0.2          6.46677515]
 [  0.3        -23.51354109]
 [  0.32341667  81.64578493]]","[[0.         0.10935802]
 [0.1        0.91778609]
 [0.2        1.38740199]
 [0.3        0.12682507]
 [0.32341667 0.71067476]]",0,0.53
8773808799,f,21,english,5,3,english,2024-01-25 10:31:19.575190,False,2,293,sounds\english\audio/english_218.wav,"[[  0.          87.3373499 ]
 [  0.1        -14.87903436]
 [  0.2        -31.97943339]
 [  0.3        -60.49311609]
 [  0.32341667 -63.68242647]]","[[0.         1.94084006]
 [0.1        0.13305972]
 [0.2        1.11441312]
 [0.3        1.83933377]
 [0.32341667 1.41053301]]",0,1.0
8773808799,f,21,english,5,3,english,2024-01-25 10:31:19.575190,False,2,294,sounds\english\audio/english_665.wav,"[[  0.         -25.08423312]
 [  0.1        -88.66042782]
 [  0.2        -73.67467666]
 [  0.3         66.53606028]
 [  0.32341667 -75.03630793]]","[[0.         1.80265724]
 [0.1        0.10063576]
 [0.2        0.92910111]
 [0.3        0.83814709]
 [0.32341667 0.77033789]]",1,0.519
8773808799,f,21,english,5,3,english,2024-01-25 10:31:19.575190,False,2,295,sounds\english\audio/english_372.wav,"[[  0.         -10.50721777]
 [  0.1         60.4890014 ]
 [  0.2         35.20626745]
 [  0.3        -86.52802988]
 [  0.32341667  85.69336351]]","[[0.         1.53321121]
 [0.1        1.14830486]
 [0.2        1.01416029]
 [0.3        1.14285759]
 [0.32341667 1.69996326]]",0,0.28
8773808799,f,21,english,5,3,english,2024-01-25 10:31:19.575190,False,2,296,sounds\english\audio/english_21.wav,"[[  0.         -21.85116114]
 [  0.1        -94.69976897]
 [  0.2         59.00053046]
 [  0.3        -81.44868512]
 [  0.32341667 -68.72650823]]","[[0.         1.17417274]
 [0.1        0.84289237]
 [0.2        1.58737119]
 [0.3        0.70500889]
 [0.32341667 1.41810016]]",0,0.286
8773808799,f,21,english,5,3,english,2024-01-25 10:31:19.575190,False,2,297,sounds\english\audio/english_169.wav,"[[  0.          21.52556644]
 [  0.1        -62.21960884]
 [  0.2        -58.58818316]
 [  0.3         14.95103608]
 [  0.32341667  21.70814087]]","[[0.         0.24747868]
 [0.1        0.51530303]
 [0.2        1.14352058]
 [0.3        1.46694059]
 [0.32341667 1.67980684]]",0,0.421
8773808799,f,21,english,5,3,english,2024-01-25 10:31:19.575190,False,2,298,sounds\english\audio/english_247.wav,"[[  0.          48.65693284]
 [  0.1        -27.64572099]
 [  0.2        -20.19701808]
 [  0.3        -10.74442668]
 [  0.32341667  91.42432082]]","[[0.         0.25539499]
 [0.1        1.09429421]
 [0.2        0.88115619]
 [0.3        1.97859338]
 [0.32341667 0.10638235]]",0,0.517
8773808799,f,21,english,5,3,english,2024-01-25 10:31:19.575190,False,2,299,sounds\english\audio/english_360.wav,"[[  0.         -50.57937638]
 [  0.1        -29.22164644]
 [  0.2        -88.45421248]
 [  0.3         93.68039656]
 [  0.32341667  -2.59092547]]","[[0.         0.73788637]
 [0.1        0.6487653 ]
 [0.2        0.73193848]
 [0.3        1.75347372]
 [0.32341667 1.19277037]]",1,0.359
8773808799,f,21,english,5,3,english,2024-01-25 10:31:19.575190,False,2,300,sounds\english\audio/english_391.wav,"[[  0.          67.64906061]
 [  0.1         79.28195584]
 [  0.2         62.27299227]
 [  0.3        -11.10764883]
 [  0.32341667  57.41338752]]","[[0.         0.41951577]
 [0.1        0.03526883]
 [0.2        0.81828659]
 [0.3        1.2900604 ]
 [0.32341667 1.95373865]]",1,0.675
8773808799,f,21,english,5,3,english,2024-01-25 10:31:19.575190,False,2,301,sounds\english\audio/english_663.wav,"[[  0.          55.84438863]
 [  0.1        -89.02249371]
 [  0.2        -13.61345685]
 [  0.3         14.50375693]
 [  0.32341667  80.63633164]]","[[0.         1.29444713]
 [0.1        0.90215198]
 [0.2        1.61104603]
 [0.3        0.31375715]
 [0.32341667 1.01784406]]",0,0.351
8773808799,f,21,english,5,3,english,2024-01-25 10:31:19.575190,False,2,302,sounds\english\audio/english_15.wav,"[[  0.         -84.2209614 ]
 [  0.1         62.09656714]
 [  0.2         55.13992629]
 [  0.3        -55.71077558]
 [  0.32341667  77.6678018 ]]","[[0.         0.31323186]
 [0.1        0.60538609]
 [0.2        0.21165259]
 [0.3        0.62501131]
 [0.32341667 0.97290752]]",1,0.469
8773808799,f,21,english,5,3,english,2024-01-25 10:31:19.575190,False,2,303,sounds\english\audio/english_504.wav,"[[ 0.          4.11468456]
 [ 0.1        70.56620437]
 [ 0.2         3.26767498]
 [ 0.3        -3.14493553]
 [ 0.32341667 43.57926014]]","[[0.         0.75379057]
 [0.1        1.18348717]
 [0.2        0.25360202]
 [0.3        1.87094491]
 [0.32341667 0.110125  ]]",0,0.39
8773808799,f,21,english,5,3,english,2024-01-25 10:31:19.575190,False,2,304,sounds\english\audio/english_568.wav,"[[  0.         -80.38325009]
 [  0.1         65.28340143]
 [  0.2         22.57833022]
 [  0.3        -55.44872251]
 [  0.32341667 -94.3142815 ]]","[[0.         1.52383372]
 [0.1        0.37337456]
 [0.2        0.67023469]
 [0.3        1.98652091]
 [0.32341667 1.15861726]]",0,0.567
8773808799,f,21,english,5,3,english,2024-01-25 10:31:19.575190,False,2,305,sounds\english\audio/english_762.wav,"[[  0.         -56.40971946]
 [  0.1         -9.09046034]
 [  0.2         20.98892014]
 [  0.3        -66.43296232]
 [  0.32341667 -91.78640069]]","[[0.         1.43822993]
 [0.1        1.11776807]
 [0.2        0.71531135]
 [0.3        0.54997993]
 [0.32341667 0.26897274]]",0,0.389
8773808799,f,21,english,5,3,english,2024-01-25 10:31:19.575190,False,2,306,sounds\english\audio/english_194.wav,"[[  0.          46.99725025]
 [  0.1        -37.20381284]
 [  0.2         13.86947558]
 [  0.3         79.77232086]
 [  0.32341667  49.46244041]]","[[0.         0.38230397]
 [0.1        1.33246395]
 [0.2        1.31276464]
 [0.3        0.22397005]
 [0.32341667 1.74931967]]",0,0.439
8773808799,f,21,english,5,3,english,2024-01-25 10:31:19.575190,False,2,307,sounds\english\audio/english_346.wav,"[[  0.          29.51078372]
 [  0.1         86.25753287]
 [  0.2         95.6553577 ]
 [  0.3        -65.97707071]
 [  0.32341667  49.79896228]]","[[0.         1.24489428]
 [0.1        1.77356048]
 [0.2        1.30862901]
 [0.3        0.68318311]
 [0.32341667 1.63073528]]",0,0.588
8773808799,f,21,english,5,3,english,2024-01-25 10:31:19.575190,False,2,308,sounds\english\audio/english_55.wav,"[[  0.          71.89255128]
 [  0.1          0.20692224]
 [  0.2        -68.61006599]
 [  0.3         -5.20952515]
 [  0.32341667  28.45991968]]","[[0.         0.24931264]
 [0.1        1.79813092]
 [0.2        0.71729895]
 [0.3        1.28733782]
 [0.32341667 1.77061752]]",0,0.621
8773808799,f,21,english,5,3,english,2024-01-25 10:31:19.575190,False,2,309,sounds\english\audio/english_153.wav,"[[  0.           1.34878197]
 [  0.1        -86.14475674]
 [  0.2          3.24582423]
 [  0.3         -6.94068795]
 [  0.32341667 -76.91560753]]","[[0.         1.20280718]
 [0.1        1.60924223]
 [0.2        0.94422247]
 [0.3        0.98008297]
 [0.32341667 0.34988026]]",0,0.445
8773808799,f,21,english,5,3,english,2024-01-25 10:31:19.575190,False,2,310,sounds\english\audio/english_388.wav,"[[  0.          17.9760939 ]
 [  0.1        -43.00340989]
 [  0.2        -30.55059063]
 [  0.3        -92.55876504]
 [  0.32341667 -64.21175873]]","[[0.         0.95494184]
 [0.1        0.10281418]
 [0.2        1.52164503]
 [0.3        1.24827519]
 [0.32341667 0.08180338]]",1,0.377
8773808799,f,21,english,5,3,english,2024-01-25 10:31:19.575190,False,2,311,sounds\english\audio/english_600.wav,"[[  0.          37.30285492]
 [  0.1         57.58729363]
 [  0.2        -74.33256695]
 [  0.3        -35.711252  ]
 [  0.32341667   3.54782198]]","[[0.         1.23507691]
 [0.1        0.65453179]
 [0.2        1.70226061]
 [0.3        0.4723836 ]
 [0.32341667 0.49080622]]",0,3.028
8773808799,f,21,english,5,3,english,2024-01-25 10:31:19.575190,False,2,312,sounds\english\audio/english_232.wav,"[[  0.          15.13134779]
 [  0.1        -49.29605083]
 [  0.2         59.10606455]
 [  0.3         48.81708847]
 [  0.32341667  14.83590121]]","[[0.         0.53160298]
 [0.1        0.4519978 ]
 [0.2        0.39260156]
 [0.3        0.4692084 ]
 [0.32341667 0.46233459]]",0,0.718
8773808799,f,21,english,5,3,english,2024-01-25 10:31:19.575190,False,2,313,sounds\english\audio/english_307.wav,"[[  0.         -38.93106299]
 [  0.1        -30.40144858]
 [  0.2          2.19081651]
 [  0.3         30.82741361]
 [  0.32341667  46.9007513 ]]","[[0.         1.91951228]
 [0.1        0.50419792]
 [0.2        0.76602689]
 [0.3        0.59904457]
 [0.32341667 1.94941235]]",0,0.561
8773808799,f,21,english,5,3,english,2024-01-25 10:31:19.575190,False,2,314,sounds\english\audio/english_600.wav,"[[  0.          37.30285492]
 [  0.1         57.58729363]
 [  0.2        -74.33256695]
 [  0.3        -35.711252  ]
 [  0.32341667   3.54782198]]","[[0.         1.23507691]
 [0.1        0.65453179]
 [0.2        1.70226061]
 [0.3        0.4723836 ]
 [0.32341667 0.49080622]]",0,0.466
8773808799,f,21,english,5,3,english,2024-01-25 10:31:19.575190,False,2,315,sounds\english\audio/english_51.wav,"[[  0.          88.48054236]
 [  0.1        -53.5534646 ]
 [  0.2        -33.31344908]
 [  0.3         87.0533187 ]
 [  0.32341667 -16.55219825]]","[[0.         0.21487201]
 [0.1        0.90061677]
 [0.2        0.24834744]
 [0.3        1.31052611]
 [0.32341667 0.58644625]]",0,0.656
8773808799,f,21,english,5,3,english,2024-01-25 10:31:19.575190,False,2,316,sounds\english\audio/english_468.wav,"[[  0.         -33.82586043]
 [  0.1        -42.55840131]
 [  0.2        -36.6492295 ]
 [  0.3         39.91321296]
 [  0.32341667  54.14936319]]","[[0.         0.35164089]
 [0.1        0.20114733]
 [0.2        1.40729654]
 [0.3        0.04300573]
 [0.32341667 1.79642733]]",0,0.772
8773808799,f,21,english,5,3,english,2024-01-25 10:31:19.575190,False,2,317,sounds\english\audio/english_881.wav,"[[  0.           7.28069095]
 [  0.1        -64.28928902]
 [  0.2         -2.07432692]
 [  0.3         51.5536886 ]
 [  0.32341667  65.74991707]]","[[0.         1.60234882]
 [0.1        0.93497238]
 [0.2        0.58107235]
 [0.3        1.34691236]
 [0.32341667 0.85842561]]",0,0.454
8773808799,f,21,english,5,3,english,2024-01-25 10:31:19.575190,False,2,318,sounds\english\audio/english_801.wav,"[[  0.          66.50571345]
 [  0.1        -53.03260979]
 [  0.2         -3.89459646]
 [  0.3          8.32951864]
 [  0.32341667 -87.46806733]]","[[0.         0.19311528]
 [0.1        0.48683601]
 [0.2        1.16293258]
 [0.3        1.55734707]
 [0.32341667 0.63471681]]",0,0.429
8773808799,f,21,english,5,3,english,2024-01-25 10:31:19.575190,False,2,319,sounds\english\audio/english_755.wav,"[[  0.         -15.85533995]
 [  0.1        -97.95934782]
 [  0.2         -5.14559719]
 [  0.3         32.74087849]
 [  0.32341667 -56.93437429]]","[[0.         0.06987403]
 [0.1        0.83204773]
 [0.2        1.06816443]
 [0.3        1.42856986]
 [0.32341667 0.58130438]]",0,0.504
8773808799,f,21,english,5,3,english,2024-01-25 10:31:19.575190,False,2,320,sounds\english\audio/english_462.wav,"[[  0.         -35.73318704]
 [  0.1         -5.65949109]
 [  0.2        -49.47542688]
 [  0.3        -98.18570674]
 [  0.32341667 -16.34927785]]","[[0.         1.53267708]
 [0.1        1.98369384]
 [0.2        1.31270994]
 [0.3        1.26289606]
 [0.32341667 1.36496903]]",0,0.429
8773808799,f,21,english,5,3,english,2024-01-25 10:31:19.575190,False,2,321,sounds\english\audio/english_416.wav,"[[  0.          26.92040942]
 [  0.1         32.98463782]
 [  0.2         94.30298269]
 [  0.3         71.4008894 ]
 [  0.32341667 -13.61584313]]","[[0.         0.66708871]
 [0.1        0.46140785]
 [0.2        0.4311344 ]
 [0.3        0.4522554 ]
 [0.32341667 0.23817019]]",0,0.633
8773808799,f,21,english,5,3,english,2024-01-25 10:31:19.575190,False,2,322,sounds\english\audio/english_574.wav,"[[  0.          53.128433  ]
 [  0.1         70.24248151]
 [  0.2         47.13290739]
 [  0.3         52.31480293]
 [  0.32341667 -33.06438127]]","[[0.         0.28349694]
 [0.1        0.66519348]
 [0.2        1.25768036]
 [0.3        1.43482954]
 [0.32341667 1.23350688]]",0,0.523
8773808799,f,21,english,5,3,english,2024-01-25 10:31:19.575190,False,2,323,sounds\english\audio/english_621.wav,"[[  0.         -58.25251841]
 [  0.1         21.8974524 ]
 [  0.2        -22.03552483]
 [  0.3        -56.80446909]
 [  0.32341667 -23.41760562]]","[[0.         1.01186344]
 [0.1        1.03560921]
 [0.2        0.97057504]
 [0.3        1.33131235]
 [0.32341667 0.49151525]]",0,0.731
8773808799,f,21,english,5,3,english,2024-01-25 10:31:19.575190,False,2,324,sounds\english\audio/english_642.wav,"[[  0.          31.40946548]
 [  0.1          4.73018903]
 [  0.2         85.2390777 ]
 [  0.3        -59.81643451]
 [  0.32341667 -42.92691369]]","[[0.         0.21393667]
 [0.1        1.31302396]
 [0.2        0.95537026]
 [0.3        1.00167733]
 [0.32341667 0.89750156]]",1,0.406
8773808799,f,21,english,5,3,english,2024-01-25 10:31:19.575190,False,2,325,sounds\english\audio/english_813.wav,"[[ 0.         55.66932548]
 [ 0.1        81.68960615]
 [ 0.2        55.75765178]
 [ 0.3        -1.25572602]
 [ 0.32341667 95.15429199]]","[[0.         1.32885027]
 [0.1        1.76450173]
 [0.2        0.71046445]
 [0.3        1.00431818]
 [0.32341667 0.60962601]]",1,0.532
8773808799,f,21,english,5,3,english,2024-01-25 10:31:19.575190,False,2,326,sounds\english\audio/english_968.wav,"[[  0.         -36.76350372]
 [  0.1        -99.8991193 ]
 [  0.2         27.503089  ]
 [  0.3        -34.85106147]
 [  0.32341667  68.2869663 ]]","[[0.         0.52322451]
 [0.1        0.66419732]
 [0.2        0.44232096]
 [0.3        1.90778707]
 [0.32341667 0.59652698]]",1,0.43
8773808799,f,21,english,5,3,english,2024-01-25 10:31:19.575190,False,2,327,sounds\english\audio/english_698.wav,"[[  0.         -86.30999669]
 [  0.1        -91.60158578]
 [  0.2        -41.16326515]
 [  0.3          7.86252123]
 [  0.32341667  25.04181708]]","[[0.         1.66322514]
 [0.1        1.16924533]
 [0.2        1.29610919]
 [0.3        1.21006153]
 [0.32341667 1.83628755]]",0,0.359
8773808799,f,21,english,5,3,english,2024-01-25 10:31:19.575190,False,2,328,sounds\english\audio/english_713.wav,"[[ 0.         18.77281956]
 [ 0.1        40.78610286]
 [ 0.2        84.18153491]
 [ 0.3        47.00827256]
 [ 0.32341667 66.01008384]]","[[0.         1.04868626]
 [0.1        0.48332939]
 [0.2        0.83217717]
 [0.3        1.90318663]
 [0.32341667 0.50055362]]",1,0.415
8773808799,f,21,english,5,3,english,2024-01-25 10:31:19.575190,False,2,329,sounds\english\audio/english_583.wav,"[[  0.         -35.26485382]
 [  0.1        -69.50197994]
 [  0.2         73.6796048 ]
 [  0.3         -1.04664171]
 [  0.32341667 -55.46924107]]","[[0.         0.11557093]
 [0.1        0.9917357 ]
 [0.2        1.33727714]
 [0.3        0.97646566]
 [0.32341667 1.06585671]]",0,0.328
8773808799,f,21,english,5,3,english,2024-01-25 10:31:19.575190,False,2,330,sounds\english\audio/english_182.wav,"[[  0.          57.43769915]
 [  0.1        -87.06676545]
 [  0.2        -91.52107401]
 [  0.3         52.0843588 ]
 [  0.32341667  18.07264914]]","[[0.         0.89919812]
 [0.1        1.25243937]
 [0.2        1.35021358]
 [0.3        0.52787795]
 [0.32341667 0.72620624]]",1,0.47
8773808799,f,21,english,5,3,english,2024-01-25 10:31:19.575190,False,2,331,sounds\english\audio/english_672.wav,"[[  0.          30.04022321]
 [  0.1        -49.20146972]
 [  0.2         68.57510342]
 [  0.3         46.99705545]
 [  0.32341667 -96.75951233]]","[[0.         0.7872581 ]
 [0.1        1.24822874]
 [0.2        1.0921985 ]
 [0.3        1.42682896]
 [0.32341667 0.39437363]]",1,0.32
8773808799,f,21,english,5,3,english,2024-01-25 10:31:19.575190,False,2,332,sounds\english\audio/english_805.wav,"[[  0.         -11.97504695]
 [  0.1         96.82911573]
 [  0.2          7.51835152]
 [  0.3          2.47378187]
 [  0.32341667 -43.26336213]]","[[0.         0.06029378]
 [0.1        0.81391401]
 [0.2        1.33531055]
 [0.3        1.7608484 ]
 [0.32341667 1.4289718 ]]",1,0.302
8773808799,f,21,english,5,3,english,2024-01-25 10:31:19.575190,False,2,333,sounds\english\audio/english_53.wav,"[[  0.           5.97237457]
 [  0.1        -76.12131912]
 [  0.2         55.18337216]
 [  0.3         70.32610425]
 [  0.32341667  26.40450832]]","[[0.         0.42230306]
 [0.1        0.60624646]
 [0.2        0.26369256]
 [0.3        1.07400525]
 [0.32341667 0.2721545 ]]",1,0.445
8773808799,f,21,english,5,3,english,2024-01-25 10:31:19.575190,False,2,334,sounds\english\audio/english_47.wav,"[[  0.          70.62381491]
 [  0.1        -43.60565268]
 [  0.2         29.54670776]
 [  0.3         95.208653  ]
 [  0.32341667 -87.83630424]]","[[0.         1.36620222]
 [0.1        0.47559644]
 [0.2        0.92078875]
 [0.3        0.83015506]
 [0.32341667 1.40747595]]",1,0.366
8773808799,f,21,english,5,3,english,2024-01-25 10:31:19.575190,False,2,335,sounds\english\audio/english_177.wav,"[[  0.          87.98258728]
 [  0.1         87.12011565]
 [  0.2        -29.82518494]
 [  0.3         54.38835911]
 [  0.32341667  53.98423531]]","[[0.         1.54790065]
 [0.1        0.90861448]
 [0.2        0.58649069]
 [0.3        0.51296238]
 [0.32341667 1.78492888]]",1,0.481
8773808799,f,21,english,5,3,english,2024-01-25 10:31:19.575190,False,2,336,sounds\english\audio/english_87.wav,"[[  0.          54.83056612]
 [  0.1         56.31531505]
 [  0.2        -65.55002777]
 [  0.3        -25.15788212]
 [  0.32341667  22.72349562]]","[[0.         1.56132998]
 [0.1        1.28614089]
 [0.2        1.44579989]
 [0.3        0.3607766 ]
 [0.32341667 0.17745198]]",0,0.462
8773808799,f,21,english,5,3,english,2024-01-25 10:31:19.575190,False,2,337,sounds\english\audio/english_273.wav,"[[  0.         -44.98289573]
 [  0.1         24.32546199]
 [  0.2         61.84573583]
 [  0.3         -1.88803465]
 [  0.32341667  57.02125087]]","[[0.         1.94838534]
 [0.1        0.68888608]
 [0.2        1.95265796]
 [0.3        1.62060328]
 [0.32341667 0.94638053]]",0,0.379
8773808799,f,21,english,5,3,english,2024-01-25 10:31:19.575190,False,2,338,sounds\english\audio/english_538.wav,"[[  0.           2.36208538]
 [  0.1         77.85923423]
 [  0.2        -89.1271409 ]
 [  0.3        -18.79772534]
 [  0.32341667  87.62276495]]","[[0.         1.54356298]
 [0.1        0.47597082]
 [0.2        1.27977799]
 [0.3        1.05516459]
 [0.32341667 1.20284762]]",1,0.34
8773808799,f,21,english,5,3,english,2024-01-25 10:31:19.575190,False,2,339,sounds\english\audio/english_434.wav,"[[  0.          -4.12787863]
 [  0.1        -30.19441281]
 [  0.2         41.04377471]
 [  0.3        -32.43591961]
 [  0.32341667  61.53108406]]","[[0.         0.96421208]
 [0.1        1.08561731]
 [0.2        1.46356301]
 [0.3        0.25116585]
 [0.32341667 0.73120458]]",1,0.353
8773808799,f,21,english,5,3,english,2024-01-25 10:31:19.575190,False,2,340,sounds\english\audio/english_944.wav,"[[  0.          70.24274457]
 [  0.1        -48.79231442]
 [  0.2         -6.42324239]
 [  0.3         -7.7338836 ]
 [  0.32341667  69.46240638]]","[[0.         0.61048125]
 [0.1        1.63310511]
 [0.2        0.21687347]
 [0.3        0.45027042]
 [0.32341667 0.90306897]]",1,0.453
8773808799,f,21,english,5,3,english,2024-01-25 10:31:19.575190,False,2,341,sounds\english\audio/english_669.wav,"[[  0.         -58.38123624]
 [  0.1        -80.20155876]
 [  0.2        -25.59737246]
 [  0.3        -30.25633946]
 [  0.32341667 -70.78768349]]","[[0.         0.53455866]
 [0.1        0.64376179]
 [0.2        0.76694756]
 [0.3        1.36842807]
 [0.32341667 0.06434218]]",1,0.555
8773808799,f,21,english,5,3,english,2024-01-25 10:31:19.575190,False,2,342,sounds\english\audio/english_732.wav,"[[  0.         -12.49530298]
 [  0.1         77.35683448]
 [  0.2         46.14200593]
 [  0.3        -17.19403126]
 [  0.32341667 -81.60069167]]","[[0.         1.28394154]
 [0.1        1.95772399]
 [0.2        1.14408971]
 [0.3        0.21034957]
 [0.32341667 0.50538316]]",1,0.402
8773808799,f,21,english,5,3,english,2024-01-25 10:31:19.575190,False,2,343,sounds\english\audio/english_672.wav,"[[  0.          30.04022321]
 [  0.1        -49.20146972]
 [  0.2         68.57510342]
 [  0.3         46.99705545]
 [  0.32341667 -96.75951233]]","[[0.         0.7872581 ]
 [0.1        1.24822874]
 [0.2        1.0921985 ]
 [0.3        1.42682896]
 [0.32341667 0.39437363]]",0,0.404
8773808799,f,21,english,5,3,english,2024-01-25 10:31:19.575190,False,2,344,sounds\english\audio/english_276.wav,"[[  0.         -87.25523595]
 [  0.1         16.91650801]
 [  0.2        -40.09372932]
 [  0.3          3.19229046]
 [  0.32341667  18.84785296]]","[[0.         1.1918401 ]
 [0.1        0.89399115]
 [0.2        0.89701806]
 [0.3        1.98333504]
 [0.32341667 1.85350493]]",0,0.232
8773808799,f,21,english,5,3,english,2024-01-25 10:31:19.575190,False,2,345,sounds\english\audio/english_628.wav,"[[  0.         -19.71295886]
 [  0.1        -79.294697  ]
 [  0.2        -59.93256946]
 [  0.3        -18.46863719]
 [  0.32341667  53.30350975]]","[[0.         0.8960583 ]
 [0.1        1.61949508]
 [0.2        0.65483299]
 [0.3        0.12001531]
 [0.32341667 0.85308449]]",0,0.372
8773808799,f,21,english,5,3,english,2024-01-25 10:31:19.575190,False,2,346,sounds\english\audio/english_924.wav,"[[  0.          63.64154058]
 [  0.1        -60.55254199]
 [  0.2        -47.94670646]
 [  0.3        -76.50696127]
 [  0.32341667  44.23103111]]","[[0.         1.83477076]
 [0.1        0.21366754]
 [0.2        1.07859551]
 [0.3        1.9507375 ]
 [0.32341667 1.33476666]]",0,0.438
8773808799,f,21,english,5,3,english,2024-01-25 10:31:19.575190,False,2,347,sounds\english\audio/english_746.wav,"[[  0.          -1.32395796]
 [  0.1        -67.07117971]
 [  0.2         75.09604974]
 [  0.3        -48.59278454]
 [  0.32341667  -6.52080997]]","[[0.         1.72273729]
 [0.1        1.22961235]
 [0.2        1.29107068]
 [0.3        1.34694816]
 [0.32341667 0.94274536]]",0,0.215
8773808799,f,21,english,5,3,english,2024-01-25 10:31:19.575190,False,2,348,sounds\english\audio/english_49.wav,"[[  0.          -6.08822071]
 [  0.1        -56.0367764 ]
 [  0.2        -51.95657584]
 [  0.3        -59.93208112]
 [  0.32341667  -7.85847813]]","[[0.         0.36436507]
 [0.1        1.66948988]
 [0.2        1.20554654]
 [0.3        0.31084089]
 [0.32341667 0.44223059]]",0,0.359
8773808799,f,21,english,5,3,english,2024-01-25 10:31:19.575190,False,2,349,sounds\english\audio/english_447.wav,"[[  0.          38.77193801]
 [  0.1         -3.53992528]
 [  0.2         54.1888363 ]
 [  0.3        -95.90180003]
 [  0.32341667  48.32118178]]","[[0.         0.52212734]
 [0.1        0.58948567]
 [0.2        0.60662966]
 [0.3        0.73195254]
 [0.32341667 0.21856551]]",0,0.449
8773808799,f,21,english,5,3,english,2024-01-25 10:31:19.575190,False,2,350,sounds\english\audio/english_43.wav,"[[  0.          22.40064366]
 [  0.1        -68.20152198]
 [  0.2         62.56231291]
 [  0.3         45.0736378 ]
 [  0.32341667 -36.46791656]]","[[0.         1.74132857]
 [0.1        0.12763156]
 [0.2        0.31420738]
 [0.3        0.98572154]
 [0.32341667 0.91325677]]",1,0.579
8773808799,f,21,english,5,3,english,2024-01-25 10:31:19.575190,False,2,351,sounds\english\audio/english_159.wav,"[[  0.         -83.7072706 ]
 [  0.1        -62.69238784]
 [  0.2         22.09248507]
 [  0.3        -80.94681782]
 [  0.32341667 -55.76861956]]","[[0.         0.09138871]
 [0.1        0.63335487]
 [0.2        1.23550763]
 [0.3        1.83356136]
 [0.32341667 0.76796393]]",1,0.633
8773808799,f,21,english,5,3,english,2024-01-25 10:31:19.575190,False,2,352,sounds\english\audio/english_950.wav,"[[  0.         -21.9776243 ]
 [  0.1        -41.40023943]
 [  0.2         48.01515584]
 [  0.3        -87.95551252]
 [  0.32341667 -39.5252386 ]]","[[0.         0.20752278]
 [0.1        1.93939622]
 [0.2        1.55608343]
 [0.3        1.49634866]
 [0.32341667 0.91783384]]",0,0.343
8773808799,f,21,english,5,3,english,2024-01-25 10:31:19.575190,False,2,353,sounds\english\audio/english_691.wav,"[[  0.          28.79078449]
 [  0.1         99.1184909 ]
 [  0.2        -54.13985733]
 [  0.3        -85.36319246]
 [  0.32341667 -73.61621094]]","[[0.         1.07683297]
 [0.1        1.07376069]
 [0.2        0.28522735]
 [0.3        0.85701066]
 [0.32341667 1.71165398]]",1,0.891
8773808799,f,21,english,5,3,english,2024-01-25 10:31:19.575190,False,2,354,sounds\english\audio/english_60.wav,"[[  0.          82.53369854]
 [  0.1         60.14491878]
 [  0.2        -26.84704149]
 [  0.3        -19.8784386 ]
 [  0.32341667 -26.04492652]]","[[0.         0.66834278]
 [0.1        1.16350573]
 [0.2        1.24827189]
 [0.3        0.70182905]
 [0.32341667 0.20173025]]",0,0.477
8773808799,f,21,english,5,3,english,2024-01-25 10:31:19.575190,False,2,355,sounds\english\audio/english_172.wav,"[[  0.           8.59493981]
 [  0.1        -56.34346079]
 [  0.2        -95.76423912]
 [  0.3         11.69646411]
 [  0.32341667 -55.10661496]]","[[0.         0.93080222]
 [0.1        0.53387901]
 [0.2        0.34406097]
 [0.3        0.74935371]
 [0.32341667 0.42041327]]",0,0.454
8773808799,f,21,english,5,3,english,2024-01-25 10:31:19.575190,False,2,356,sounds\english\audio/english_795.wav,"[[ 0.         39.36518311]
 [ 0.1        16.50141431]
 [ 0.2        54.87860026]
 [ 0.3        61.09971909]
 [ 0.32341667  4.28490532]]","[[0.         1.47453336]
 [0.1        0.29075574]
 [0.2        1.88174141]
 [0.3        0.27471403]
 [0.32341667 0.11399574]]",0,0.538
8773808799,f,21,english,5,3,english,2024-01-25 10:31:19.575190,False,2,357,sounds\english\audio/english_26.wav,"[[  0.          54.38966875]
 [  0.1          0.3460174 ]
 [  0.2        -72.33258957]
 [  0.3         67.09142092]
 [  0.32341667  16.00565239]]","[[0.         1.86679487]
 [0.1        0.79762949]
 [0.2        0.93682052]
 [0.3        1.42469209]
 [0.32341667 1.17807545]]",0,0.385
8773808799,f,21,english,5,3,english,2024-01-25 10:31:19.575190,False,2,358,sounds\english\audio/english_361.wav,"[[  0.          47.37783877]
 [  0.1         41.96620543]
 [  0.2        -99.83447432]
 [  0.3        -83.75612903]
 [  0.32341667  99.31228573]]","[[0.         1.2281625 ]
 [0.1        0.32170701]
 [0.2        0.41267147]
 [0.3        0.32528287]
 [0.32341667 0.29737668]]",1,0.503
8773808799,f,21,english,5,3,english,2024-01-25 10:31:19.575190,False,2,359,sounds\english\audio/english_354.wav,"[[  0.         -63.97501145]
 [  0.1        -43.11314734]
 [  0.2         10.53928595]
 [  0.3        -23.15258088]
 [  0.32341667   3.22925066]]","[[0.         0.52067601]
 [0.1        0.59903392]
 [0.2        0.9992363 ]
 [0.3        1.16142831]
 [0.32341667 0.37639432]]",0,0.381
8773808799,f,21,english,5,3,english,2024-01-25 10:31:19.575190,False,2,360,sounds\english\audio/english_30.wav,"[[  0.         -18.5398728 ]
 [  0.1        -67.34991207]
 [  0.2         65.54879707]
 [  0.3         30.88088319]
 [  0.32341667  50.60550813]]","[[0.         0.31748681]
 [0.1        1.82477139]
 [0.2        1.59992979]
 [0.3        0.89523729]
 [0.32341667 1.02052202]]",0,0.393
8773808799,f,21,english,5,3,english,2024-01-25 10:31:19.575190,False,2,361,sounds\english\audio/english_620.wav,"[[ 0.00000000e+00 -9.29203055e+01]
 [ 1.00000000e-01  2.67086056e+01]
 [ 2.00000000e-01  8.91883135e+01]
 [ 3.00000000e-01 -5.57738795e-02]
 [ 3.23416667e-01  2.97872430e+00]]","[[0.         0.43561856]
 [0.1        0.24535421]
 [0.2        1.34102831]
 [0.3        1.80103954]
 [0.32341667 0.21248525]]",0,0.55
8773808799,f,21,english,5,3,english,2024-01-25 10:31:19.575190,False,2,362,sounds\english\audio/english_123.wav,"[[  0.          67.91608163]
 [  0.1        -92.32097988]
 [  0.2         57.07371841]
 [  0.3         19.28317816]
 [  0.32341667  15.30546887]]","[[0.         1.13046919]
 [0.1        1.99597614]
 [0.2        1.53523853]
 [0.3        0.24385811]
 [0.32341667 0.39158976]]",0,0.513
8773808799,f,21,english,5,3,english,2024-01-25 10:31:19.575190,False,2,363,sounds\english\audio/english_481.wav,"[[  0.          -1.07793215]
 [  0.1         72.11929458]
 [  0.2         -0.36002545]
 [  0.3         11.70252104]
 [  0.32341667 -16.16595736]]","[[0.         1.34620279]
 [0.1        0.4682023 ]
 [0.2        1.2575358 ]
 [0.3        1.51306824]
 [0.32341667 1.86086011]]",1,0.339
8773808799,f,21,english,5,3,english,2024-01-25 10:31:19.575190,False,2,364,sounds\english\audio/english_582.wav,"[[  0.         -29.81423477]
 [  0.1         37.42565533]
 [  0.2         79.58894888]
 [  0.3         49.55779855]
 [  0.32341667  54.00509918]]","[[0.         0.27230029]
 [0.1        0.84765039]
 [0.2        1.99526631]
 [0.3        1.55519667]
 [0.32341667 1.66653349]]",0,0.386
8773808799,f,21,english,5,3,english,2024-01-25 10:31:19.575190,False,2,365,sounds\english\audio/english_560.wav,"[[  0.           6.26341837]
 [  0.1        -94.10474965]
 [  0.2        -43.88069215]
 [  0.3        -26.3559156 ]
 [  0.32341667 -91.38105747]]","[[0.         1.61909233]
 [0.1        0.93851614]
 [0.2        1.37910144]
 [0.3        1.10578935]
 [0.32341667 0.02070647]]",0,0.352
8773808799,f,21,english,5,3,english,2024-01-25 10:31:19.575190,False,2,366,sounds\english\audio/english_126.wav,"[[  0.         -71.89060105]
 [  0.1        -54.28004149]
 [  0.2         67.0997098 ]
 [  0.3        -96.31741745]
 [  0.32341667  22.67293764]]","[[0.         0.84485729]
 [0.1        1.61340521]
 [0.2        1.10892805]
 [0.3        1.20133652]
 [0.32341667 0.33470898]]",0,0.361
8773808799,f,21,english,5,3,english,2024-01-25 10:31:19.575190,False,2,367,sounds\english\audio/english_778.wav,"[[  0.          99.37283207]
 [  0.1         61.02900927]
 [  0.2        -43.89505842]
 [  0.3         -6.51139434]
 [  0.32341667 -98.37213751]]","[[0.         0.92158405]
 [0.1        1.90392814]
 [0.2        0.34916702]
 [0.3        1.21087231]
 [0.32341667 0.72140227]]",1,0.35
8773808799,f,21,english,5,3,english,2024-01-25 10:31:19.575190,False,2,368,sounds\english\audio/english_765.wav,"[[  0.         -52.71695997]
 [  0.1         -0.72548599]
 [  0.2        -25.46106624]
 [  0.3        -15.36834083]
 [  0.32341667 -34.08212533]]","[[0.         0.24697616]
 [0.1        1.34458244]
 [0.2        0.2833524 ]
 [0.3        0.99517128]
 [0.32341667 0.81265208]]",0,0.376
8773808799,f,21,english,5,3,english,2024-01-25 10:31:19.575190,False,2,369,sounds\english\audio/english_287.wav,"[[  0.          -5.71925808]
 [  0.1        -94.78041007]
 [  0.2          8.34641368]
 [  0.3         36.34893025]
 [  0.32341667 -22.47689594]]","[[0.         1.04112926]
 [0.1        0.35149142]
 [0.2        0.86781598]
 [0.3        1.897904  ]
 [0.32341667 0.5607403 ]]",1,0.333
8773808799,f,21,english,5,3,english,2024-01-25 10:31:19.575190,False,2,370,sounds\english\audio/english_47.wav,"[[  0.          70.62381491]
 [  0.1        -43.60565268]
 [  0.2         29.54670776]
 [  0.3         95.208653  ]
 [  0.32341667 -87.83630424]]","[[0.         1.36620222]
 [0.1        0.47559644]
 [0.2        0.92078875]
 [0.3        0.83015506]
 [0.32341667 1.40747595]]",0,0.592
8773808799,f,21,english,5,3,english,2024-01-25 10:31:19.575190,False,2,371,sounds\english\audio/english_350.wav,"[[  0.          97.64268741]
 [  0.1         23.96704837]
 [  0.2         50.30792237]
 [  0.3         71.77937185]
 [  0.32341667 -64.81416361]]","[[0.         0.61487918]
 [0.1        0.40988424]
 [0.2        0.86872158]
 [0.3        1.01783109]
 [0.32341667 0.68761283]]",0,0.605
8773808799,f,21,english,5,3,english,2024-01-25 10:31:19.575190,False,2,372,sounds\english\audio/english_441.wav,"[[  0.         -34.50722314]
 [  0.1         91.55175756]
 [  0.2        -74.07917439]
 [  0.3         82.08396891]
 [  0.32341667  13.2563292 ]]","[[0.         1.86415324]
 [0.1        1.34062972]
 [0.2        1.20894222]
 [0.3        0.00248362]
 [0.32341667 0.67485278]]",0,0.438
8773808799,f,21,english,5,3,english,2024-01-25 10:31:19.575190,False,2,373,sounds\english\audio/english_157.wav,"[[  0.         -74.01864956]
 [  0.1          1.44529667]
 [  0.2        -42.76251303]
 [  0.3        -49.01483239]
 [  0.32341667 -96.85595697]]","[[0.         1.10168906]
 [0.1        1.71225259]
 [0.2        1.71884561]
 [0.3        1.47822148]
 [0.32341667 1.36273156]]",0,0.271
8773808799,f,21,english,5,3,english,2024-01-25 10:31:19.575190,False,2,374,sounds\english\audio/english_903.wav,"[[  0.          73.58848698]
 [  0.1        -95.58060262]
 [  0.2         17.41642173]
 [  0.3         94.35223882]
 [  0.32341667 -49.48803877]]","[[0.         0.30588109]
 [0.1        0.88963747]
 [0.2        1.73634476]
 [0.3        0.71257749]
 [0.32341667 1.4824474 ]]",1,0.461
8773808799,f,21,english,5,3,english,2024-01-25 10:31:19.575190,False,2,375,sounds\english\audio/english_353.wav,"[[  0.          51.44050484]
 [  0.1         -8.32491594]
 [  0.2        -53.32966552]
 [  0.3         68.29246543]
 [  0.32341667 -32.22441747]]","[[0.         0.16518243]
 [0.1        1.32533476]
 [0.2        0.41923861]
 [0.3        1.87374553]
 [0.32341667 1.13071195]]",0,0.299
8773808799,f,21,english,5,3,english,2024-01-25 10:31:19.575190,False,2,376,sounds\english\audio/english_345.wav,"[[  0.         -46.00579497]
 [  0.1        -45.5805492 ]
 [  0.2        -14.04378539]
 [  0.3         63.72413351]
 [  0.32341667  18.03717792]]","[[0.         1.58751342]
 [0.1        1.0202646 ]
 [0.2        0.61561299]
 [0.3        1.21547564]
 [0.32341667 1.47127253]]",0,0.337
8773808799,f,21,english,5,3,english,2024-01-25 10:31:19.575190,False,2,377,sounds\english\audio/english_966.wav,"[[  0.          23.00954068]
 [  0.1         -2.7733657 ]
 [  0.2         -6.00176123]
 [  0.3        -64.80320904]
 [  0.32341667  94.15296916]]","[[0.         1.02848684]
 [0.1        1.22612364]
 [0.2        0.03461529]
 [0.3        0.22357585]
 [0.32341667 0.55383001]]",0,0.4
8773808799,f,21,english,5,3,english,2024-01-25 10:31:19.575190,False,2,378,sounds\english\audio/english_112.wav,"[[  0.         -98.7507832 ]
 [  0.1        -92.72198769]
 [  0.2         15.54821062]
 [  0.3        -40.54151432]
 [  0.32341667 -42.89167932]]","[[0.         1.62855774]
 [0.1        1.23374737]
 [0.2        0.76022921]
 [0.3        0.49860071]
 [0.32341667 0.23801633]]",1,0.541
8773808799,f,21,english,5,3,english,2024-01-25 10:31:19.575190,False,2,379,sounds\english\audio/english_898.wav,"[[  0.          77.23607787]
 [  0.1        -36.99854877]
 [  0.2         16.09723403]
 [  0.3         29.12208023]
 [  0.32341667 -69.45423228]]","[[0.         0.41308158]
 [0.1        1.59324842]
 [0.2        1.42339693]
 [0.3        1.17478291]
 [0.32341667 1.88393163]]",0,0.314
8773808799,f,21,english,5,3,english,2024-01-25 10:31:19.575190,False,2,380,sounds\english\audio/english_808.wav,"[[  0.          23.02589628]
 [  0.1         10.58817829]
 [  0.2         36.77134597]
 [  0.3        -30.31603221]
 [  0.32341667   9.74764343]]","[[0.         1.07384277]
 [0.1        1.3919179 ]
 [0.2        0.54960524]
 [0.3        1.95871365]
 [0.32341667 0.79150541]]",0,0.504
8773808799,f,21,english,5,3,english,2024-01-25 10:31:19.575190,False,2,381,sounds\english\audio/english_153.wav,"[[  0.           1.34878197]
 [  0.1        -86.14475674]
 [  0.2          3.24582423]
 [  0.3         -6.94068795]
 [  0.32341667 -76.91560753]]","[[0.         1.20280718]
 [0.1        1.60924223]
 [0.2        0.94422247]
 [0.3        0.98008297]
 [0.32341667 0.34988026]]",0,0.324
8773808799,f,21,english,5,3,english,2024-01-25 10:31:19.575190,False,2,382,sounds\english\audio/english_535.wav,"[[  0.          -5.32882057]
 [  0.1        -34.98045039]
 [  0.2         30.10834221]
 [  0.3        -70.22542568]
 [  0.32341667 -73.0016054 ]]","[[0.         0.21055966]
 [0.1        0.89683134]
 [0.2        1.11178172]
 [0.3        0.20123235]
 [0.32341667 0.99564794]]",0,0.412
8773808799,f,21,english,5,3,english,2024-01-25 10:31:19.575190,False,2,383,sounds\english\audio/english_569.wav,"[[  0.         -44.4695194 ]
 [  0.1         50.36705327]
 [  0.2        -76.17438636]
 [  0.3         55.47083669]
 [  0.32341667 -10.68913609]]","[[0.         1.56768834]
 [0.1        0.42032873]
 [0.2        0.31133764]
 [0.3        0.91900801]
 [0.32341667 1.26529561]]",0,0.341
8773808799,f,21,english,5,3,english,2024-01-25 10:31:19.575190,False,2,384,sounds\english\audio/english_819.wav,"[[  0.          56.56933068]
 [  0.1         16.98960986]
 [  0.2        -13.59600893]
 [  0.3         79.1710335 ]
 [  0.32341667  25.34620926]]","[[0.         1.61805944]
 [0.1        1.69207785]
 [0.2        1.33633205]
 [0.3        0.49452457]
 [0.32341667 1.97134574]]",0,0.31
8773808799,f,21,english,5,3,english,2024-01-25 10:31:19.575190,False,2,385,sounds\english\audio/english_619.wav,"[[  0.          38.53351318]
 [  0.1        -11.21157995]
 [  0.2         29.79887689]
 [  0.3         48.6384615 ]
 [  0.32341667 -66.5905708 ]]","[[0.         1.25542912]
 [0.1        0.83005785]
 [0.2        1.51254928]
 [0.3        0.37972577]
 [0.32341667 0.44889873]]",0,0.533
8773808799,f,21,english,5,3,english,2024-01-25 10:31:19.575190,False,2,386,sounds\english\audio/english_199.wav,"[[  0.         -24.89956817]
 [  0.1        -48.49200931]
 [  0.2        -89.66548778]
 [  0.3         29.20785813]
 [  0.32341667 -88.68286362]]","[[0.         0.07306367]
 [0.1        0.10334581]
 [0.2        1.49062114]
 [0.3        0.36717513]
 [0.32341667 1.33179809]]",0,2.269
8773808799,f,21,english,5,3,english,2024-01-25 10:31:19.575190,False,2,387,sounds\english\audio/english_935.wav,"[[  0.          64.39543101]
 [  0.1         86.95314533]
 [  0.2        -18.93400703]
 [  0.3         36.25821345]
 [  0.32341667 -52.75689815]]","[[0.         0.53440609]
 [0.1        0.5847186 ]
 [0.2        0.87093815]
 [0.3        1.35336039]
 [0.32341667 1.46825192]]",0,0.346
8773808799,f,21,english,5,3,english,2024-01-25 10:31:19.575190,False,2,388,sounds\english\audio/english_200.wav,"[[  0.          48.98677304]
 [  0.1         13.54292536]
 [  0.2         15.98335964]
 [  0.3        -46.7743147 ]
 [  0.32341667 -12.18386714]]","[[0.         1.07797747]
 [0.1        1.23698451]
 [0.2        0.85343662]
 [0.3        1.38707984]
 [0.32341667 0.65409939]]",0,0.286
8773808799,f,21,english,5,3,english,2024-01-25 10:31:19.575190,False,2,389,sounds\english\audio/english_104.wav,"[[  0.          42.44693926]
 [  0.1         82.22484934]
 [  0.2          7.21737924]
 [  0.3         26.54640215]
 [  0.32341667 -33.4974026 ]]","[[0.         0.1741435 ]
 [0.1        0.11379641]
 [0.2        1.60376175]
 [0.3        1.08059257]
 [0.32341667 1.8061622 ]]",1,0.319
8773808799,f,21,english,5,3,english,2024-01-25 10:31:19.575190,False,2,390,sounds\english\audio/english_10.wav,"[[  0.         -80.92247099]
 [  0.1         11.56157957]
 [  0.2         72.61501241]
 [  0.3         91.01400741]
 [  0.32341667 -64.58672822]]","[[0.         1.33142191]
 [0.1        0.6588087 ]
 [0.2        1.62851887]
 [0.3        1.4109269 ]
 [0.32341667 0.76235223]]",0,0.272
8773808799,f,21,english,5,3,english,2024-01-25 10:31:19.575190,False,2,391,sounds\english\audio/english_663.wav,"[[  0.          55.84438863]
 [  0.1        -89.02249371]
 [  0.2        -13.61345685]
 [  0.3         14.50375693]
 [  0.32341667  80.63633164]]","[[0.         1.29444713]
 [0.1        0.90215198]
 [0.2        1.61104603]
 [0.3        0.31375715]
 [0.32341667 1.01784406]]",0,0.274
8773808799,f,21,english,5,3,english,2024-01-25 10:31:19.575190,False,2,392,sounds\english\audio/english_776.wav,"[[  0.          29.86548478]
 [  0.1          2.8025705 ]
 [  0.2        -38.4768188 ]
 [  0.3        -89.49838949]
 [  0.32341667  30.18488016]]","[[0.         0.57139857]
 [0.1        1.94435619]
 [0.2        0.3951066 ]
 [0.3        0.29859462]
 [0.32341667 1.93939037]]",1,0.394
8773808799,f,21,english,5,3,english,2024-01-25 10:31:19.575190,False,2,393,sounds\english\audio/english_385.wav,"[[  0.         -55.07910634]
 [  0.1        -94.47680079]
 [  0.2         38.70414457]
 [  0.3        -46.17691   ]
 [  0.32341667   2.5941508 ]]","[[0.         1.75648555]
 [0.1        1.20856462]
 [0.2        0.98103352]
 [0.3        1.45745263]
 [0.32341667 0.88353815]]",0,0.196
8773808799,f,21,english,5,3,english,2024-01-25 10:31:19.575190,False,2,394,sounds\english\audio/english_962.wav,"[[  0.         -55.512918  ]
 [  0.1         90.34773129]
 [  0.2         -3.10818459]
 [  0.3         50.27619033]
 [  0.32341667 -47.3196173 ]]","[[0.         1.78332996]
 [0.1        1.25956614]
 [0.2        0.72891593]
 [0.3        1.49954356]
 [0.32341667 0.96339983]]",0,0.336
8773808799,f,21,english,5,3,english,2024-01-25 10:31:19.575190,False,2,395,sounds\english\audio/english_61.wav,"[[  0.         -58.73450167]
 [  0.1        -68.77732169]
 [  0.2        -61.07430116]
 [  0.3        -87.12791991]
 [  0.32341667  47.32358741]]","[[0.         1.5196582 ]
 [0.1        0.79346499]
 [0.2        0.90548432]
 [0.3        1.71431728]
 [0.32341667 0.57778581]]",0,0.356
8773808799,f,21,english,5,3,english,2024-01-25 10:31:19.575190,False,2,396,sounds\english\audio/english_570.wav,"[[  0.          79.72420881]
 [  0.1        -10.34227762]
 [  0.2         18.32754659]
 [  0.3         15.23919529]
 [  0.32341667 -28.05357781]]","[[0.         1.67561776]
 [0.1        1.50139893]
 [0.2        1.41834695]
 [0.3        1.12876239]
 [0.32341667 0.72546523]]",0,0.17
8773808799,f,21,english,5,3,english,2024-01-25 10:31:19.575190,False,2,397,sounds\english\audio/english_86.wav,"[[  0.         -48.59393833]
 [  0.1         77.37095157]
 [  0.2         44.19816726]
 [  0.3        -99.780271  ]
 [  0.32341667  38.96545556]]","[[0.         1.45450552]
 [0.1        1.8635573 ]
 [0.2        1.174515  ]
 [0.3        1.46785746]
 [0.32341667 0.99607158]]",0,0.188
8773808799,f,21,english,5,3,english,2024-01-25 10:31:19.575190,False,2,398,sounds\english\audio/english_879.wav,"[[  0.         -56.32485069]
 [  0.1         64.67592183]
 [  0.2         25.82204554]
 [  0.3          5.66794257]
 [  0.32341667 -31.65503708]]","[[0.         0.53184386]
 [0.1        1.34296213]
 [0.2        0.44649674]
 [0.3        0.79707043]
 [0.32341667 1.19804995]]",0,0.247
8773808799,f,21,english,5,3,english,2024-01-25 10:31:19.575190,False,2,399,sounds\english\audio/english_78.wav,"[[  0.          57.57509383]
 [  0.1          8.37611797]
 [  0.2        -42.8518908 ]
 [  0.3         26.19415986]
 [  0.32341667  65.52498429]]","[[0.         0.85738581]
 [0.1        1.59375359]
 [0.2        1.65756647]
 [0.3        0.53011742]
 [0.32341667 1.5323802 ]]",0,0.166
8773808799,f,21,english,5,3,english,2024-01-25 10:31:19.575190,False,2,400,sounds\english\audio/english_178.wav,"[[  0.         -14.41838744]
 [  0.1         64.59665955]
 [  0.2        -96.76492712]
 [  0.3        -50.00654232]
 [  0.32341667  42.56426636]]","[[0.         0.71193749]
 [0.1        0.54024543]
 [0.2        1.78065704]
 [0.3        1.40559917]
 [0.32341667 0.99785593]]",0,0.246
8773808799,f,21,english,5,3,english,2024-01-25 10:31:19.575190,False,2,401,sounds\english\audio/english_196.wav,"[[  0.         -86.38202104]
 [  0.1          0.95731439]
 [  0.2        -48.4797064 ]
 [  0.3         50.57477866]
 [  0.32341667 -52.07184875]]","[[0.         1.63362226]
 [0.1        1.36148231]
 [0.2        0.68683683]
 [0.3        1.59869277]
 [0.32341667 0.40963154]]",0,0.201
8773808799,f,21,english,5,3,english,2024-01-25 10:31:19.575190,False,2,402,sounds\english\audio/english_868.wav,"[[  0.         -32.61379415]
 [  0.1        -13.61007492]
 [  0.2        -35.23756027]
 [  0.3         83.12333319]
 [  0.32341667  62.80865362]]","[[0.         0.76599538]
 [0.1        0.34348987]
 [0.2        0.26787397]
 [0.3        0.46343078]
 [0.32341667 1.59158725]]",0,1.249
8773808799,f,21,english,5,3,english,2024-01-25 10:31:19.575190,False,2,403,sounds\english\audio/english_32.wav,"[[  0.          89.50349963]
 [  0.1         51.51128255]
 [  0.2        -58.32910347]
 [  0.3         15.96172744]
 [  0.32341667  84.40449403]]","[[0.         1.73304916]
 [0.1        0.02192789]
 [0.2        1.71493142]
 [0.3        1.28451373]
 [0.32341667 1.22971166]]",0,0.436
8773808799,f,21,english,5,3,english,2024-01-25 10:31:19.575190,False,2,404,sounds\english\audio/english_410.wav,"[[  0.         -74.64506245]
 [  0.1         65.24401488]
 [  0.2        -65.86471953]
 [  0.3         98.79489106]
 [  0.32341667  14.95451541]]","[[0.         0.42358098]
 [0.1        0.42526697]
 [0.2        1.12385183]
 [0.3        0.33588109]
 [0.32341667 1.7246864 ]]",0,0.474
8773808799,f,21,english,5,3,english,2024-01-25 10:31:19.575190,False,2,405,sounds\english\audio/english_438.wav,"[[ 0.         31.75305261]
 [ 0.1        20.27112767]
 [ 0.2        66.65258945]
 [ 0.3        70.72003494]
 [ 0.32341667 59.11013505]]","[[0.         1.38451981]
 [0.1        1.99020027]
 [0.2        0.15645945]
 [0.3        1.37678514]
 [0.32341667 0.82730153]]",0,0.46
8773808799,f,21,english,5,3,english,2024-01-25 10:31:19.575190,False,2,406,sounds\english\audio/english_696.wav,"[[  0.         -48.45243871]
 [  0.1         82.41340646]
 [  0.2         -7.53339347]
 [  0.3        -30.87957178]
 [  0.32341667  75.39947922]]","[[0.         0.15817179]
 [0.1        0.69939178]
 [0.2        1.28466279]
 [0.3        1.90686052]
 [0.32341667 0.63235415]]",1,0.352
8773808799,f,21,english,5,3,english,2024-01-25 10:31:19.575190,False,2,407,sounds\english\audio/english_27.wav,"[[  0.          -6.18374659]
 [  0.1         32.21095844]
 [  0.2         21.02729748]
 [  0.3          4.79829383]
 [  0.32341667 -70.7577659 ]]","[[0.         1.89085405]
 [0.1        0.80138328]
 [0.2        1.01248602]
 [0.3        1.67412938]
 [0.32341667 0.3387802 ]]",1,0.37
8773808799,f,21,english,5,3,english,2024-01-25 10:31:19.575190,False,2,408,sounds\english\audio/english_58.wav,"[[  0.          20.12478601]
 [  0.1        -22.60038942]
 [  0.2         34.38627512]
 [  0.3         30.90369434]
 [  0.32341667  11.39971337]]","[[0.         1.19415515]
 [0.1        0.26098942]
 [0.2        1.99195241]
 [0.3        0.42925074]
 [0.32341667 0.50368767]]",1,0.375
8773808799,f,21,english,5,3,english,2024-01-25 10:31:19.575190,False,2,409,sounds\english\audio/english_491.wav,"[[  0.         -58.06424917]
 [  0.1        -10.73132445]
 [  0.2         17.9230478 ]
 [  0.3        -41.27614743]
 [  0.32341667 -30.17832464]]","[[0.         1.23740358]
 [0.1        0.97891215]
 [0.2        0.17588849]
 [0.3        0.52166982]
 [0.32341667 1.65640468]]",1,0.585
8773808799,f,21,english,5,3,english,2024-01-25 10:31:19.575190,False,2,410,sounds\english\audio/english_797.wav,"[[  0.         -10.77604935]
 [  0.1         76.52998448]
 [  0.2        -52.30950648]
 [  0.3        -19.27189704]
 [  0.32341667 -68.52312916]]","[[0.         1.75152448]
 [0.1        0.25625033]
 [0.2        1.63910521]
 [0.3        1.44412191]
 [0.32341667 1.41513857]]",0,0.535
8773808799,f,21,english,5,3,english,2024-01-25 10:31:19.575190,False,2,411,sounds\english\audio/english_531.wav,"[[  0.         -79.40575395]
 [  0.1         24.69139357]
 [  0.2         31.85465478]
 [  0.3          0.37788074]
 [  0.32341667 -42.85922685]]","[[0.         0.23141906]
 [0.1        1.34739197]
 [0.2        0.44473315]
 [0.3        1.31624907]
 [0.32341667 0.82105614]]",1,1.921
8773808799,f,21,english,5,3,english,2024-01-25 10:31:19.575190,False,2,412,sounds\english\audio/english_986.wav,"[[  0.          36.93997263]
 [  0.1        -76.80061303]
 [  0.2         60.8418497 ]
 [  0.3        -27.90828951]
 [  0.32341667  99.51838141]]","[[0.         1.7539978 ]
 [0.1        1.40735445]
 [0.2        0.62226098]
 [0.3        0.48175931]
 [0.32341667 1.5918282 ]]",0,0.393
8773808799,f,21,english,5,3,english,2024-01-25 10:31:19.575190,False,2,413,sounds\english\audio/english_90.wav,"[[  0.          82.68866707]
 [  0.1        -81.25370946]
 [  0.2         56.28719083]
 [  0.3        -46.43338119]
 [  0.32341667 -19.93520327]]","[[0.         0.54239523]
 [0.1        1.03335699]
 [0.2        1.93576477]
 [0.3        0.74570916]
 [0.32341667 1.11115504]]",0,0.432
8773808799,f,21,english,5,3,english,2024-01-25 10:31:19.575190,False,2,414,sounds\english\audio/english_548.wav,"[[  0.          19.39315344]
 [  0.1         82.09582914]
 [  0.2        -65.55781301]
 [  0.3         -5.02691035]
 [  0.32341667  62.63141303]]","[[0.         0.41811488]
 [0.1        1.70384437]
 [0.2        1.82142436]
 [0.3        1.13784798]
 [0.32341667 1.73168063]]",0,0.395
8773808799,f,21,english,5,3,english,2024-01-25 10:31:19.575190,False,2,415,sounds\english\audio/english_421.wav,"[[ 0.         25.39012861]
 [ 0.1        49.11153532]
 [ 0.2        38.93723883]
 [ 0.3        -9.34286459]
 [ 0.32341667 -9.28476392]]","[[0.         1.47358925]
 [0.1        1.20920516]
 [0.2        0.72174872]
 [0.3        0.24556907]
 [0.32341667 0.87006143]]",1,0.454
8773808799,f,21,english,5,3,english,2024-01-25 10:31:19.575190,False,2,416,sounds\english\audio/english_76.wav,"[[  0.          24.78743387]
 [  0.1         -7.95135802]
 [  0.2         -9.56689875]
 [  0.3        -78.25819759]
 [  0.32341667  26.4311908 ]]","[[0.         1.26829138]
 [0.1        1.4446717 ]
 [0.2        0.88177173]
 [0.3        1.63003096]
 [0.32341667 1.97074408]]",1,0.489
8773808799,f,21,english,5,3,english,2024-01-25 10:31:19.575190,False,2,417,sounds\english\audio/english_37.wav,"[[  0.          -5.54999706]
 [  0.1         23.22206304]
 [  0.2        -57.36481589]
 [  0.3         58.0578648 ]
 [  0.32341667  66.03280024]]","[[0.         1.12257854]
 [0.1        1.8669628 ]
 [0.2        0.39386712]
 [0.3        1.21765674]
 [0.32341667 0.74428952]]",0,0.363
8773808799,f,21,english,5,3,english,2024-01-25 10:31:19.575190,False,2,418,sounds\english\audio/english_44.wav,"[[  0.         -68.86201344]
 [  0.1         36.61833882]
 [  0.2        -60.65796264]
 [  0.3        -99.582901  ]
 [  0.32341667  68.59920212]]","[[0.         1.38154723]
 [0.1        0.11193842]
 [0.2        0.83798569]
 [0.3        0.3073865 ]
 [0.32341667 1.10922951]]",0,0.676
8773808799,f,21,english,5,3,english,2024-01-25 10:31:19.575190,False,2,419,sounds\english\audio/english_458.wav,"[[  0.         -49.69821038]
 [  0.1        -49.80647014]
 [  0.2         11.98261521]
 [  0.3         59.43319096]
 [  0.32341667 -34.5671642 ]]","[[0.         0.39452057]
 [0.1        1.24604375]
 [0.2        0.42272405]
 [0.3        0.21259233]
 [0.32341667 1.13235362]]",1,0.425
8773808799,f,21,english,5,3,english,2024-01-25 10:31:19.575190,False,2,420,sounds\english\audio/english_767.wav,"[[  0.          29.63321135]
 [  0.1        -31.63783795]
 [  0.2         56.53254366]
 [  0.3         52.69149806]
 [  0.32341667  -0.8536295 ]]","[[0.         0.17563718]
 [0.1        0.61981002]
 [0.2        1.38773128]
 [0.3        1.37795514]
 [0.32341667 1.97315338]]",0,0.368
8773808799,f,21,english,5,3,english,2024-01-25 10:31:19.575190,False,2,421,sounds\english\audio/english_653.wav,"[[  0.           8.14815906]
 [  0.1          4.49815435]
 [  0.2        -96.80954485]
 [  0.3         -0.49075979]
 [  0.32341667  98.12577208]]","[[0.         1.27061672]
 [0.1        1.37470465]
 [0.2        1.57421691]
 [0.3        1.39011427]
 [0.32341667 0.75484601]]",0,0.206
8773808799,f,21,english,5,3,english,2024-01-25 10:31:19.575190,False,2,422,sounds\english\audio/english_638.wav,"[[  0.           6.92468799]
 [  0.1         52.10042521]
 [  0.2        -39.07293948]
 [  0.3         38.46029754]
 [  0.32341667 -16.6630855 ]]","[[0.         1.1702122 ]
 [0.1        0.51269982]
 [0.2        0.1912204 ]
 [0.3        0.91406415]
 [0.32341667 1.67689755]]",1,0.621
8773808799,f,21,english,5,3,english,2024-01-25 10:31:19.575190,False,2,423,sounds\english\audio/english_979.wav,"[[  0.          -1.00654814]
 [  0.1         18.39835707]
 [  0.2        -42.91789413]
 [  0.3        -58.29527223]
 [  0.32341667  86.14740424]]","[[0.         1.61411081]
 [0.1        1.30464512]
 [0.2        0.93120215]
 [0.3        0.87145212]
 [0.32341667 1.17332389]]",0,0.915
8773808799,f,21,english,5,3,english,2024-01-25 10:31:19.575190,False,2,424,sounds\english\audio/english_457.wav,"[[  0.         -73.30847947]
 [  0.1        -25.74413936]
 [  0.2          8.82772976]
 [  0.3         -2.30416086]
 [  0.32341667 -34.04493945]]","[[0.         0.35525387]
 [0.1        0.90483023]
 [0.2        1.30004432]
 [0.3        0.93422762]
 [0.32341667 1.31504388]]",0,0.442
8773808799,f,21,english,5,3,english,2024-01-25 10:31:19.575190,False,2,425,sounds\english\audio/english_764.wav,"[[  0.           7.00590276]
 [  0.1        -69.33047837]
 [  0.2        -20.89747671]
 [  0.3        -96.63564891]
 [  0.32341667  78.55111455]]","[[0.         1.84020442]
 [0.1        0.1607256 ]
 [0.2        1.70981587]
 [0.3        1.13854431]
 [0.32341667 1.5536836 ]]",0,0.418
8773808799,f,21,english,5,3,english,2024-01-25 10:31:19.575190,False,2,426,sounds\english\audio/english_685.wav,"[[  0.          91.61032892]
 [  0.1         39.6206555 ]
 [  0.2         -3.19880539]
 [  0.3        -72.84721689]
 [  0.32341667  98.11411302]]","[[0.         0.4504418 ]
 [0.1        1.04279806]
 [0.2        1.33634651]
 [0.3        1.25094987]
 [0.32341667 0.37726169]]",0,0.319
8773808799,f,21,english,5,3,english,2024-01-25 10:31:19.575190,False,2,427,sounds\english\audio/english_811.wav,"[[  0.         -51.03425556]
 [  0.1         22.81695275]
 [  0.2         73.06623682]
 [  0.3         -9.17693151]
 [  0.32341667  79.97760745]]","[[0.         1.55055496]
 [0.1        1.74830484]
 [0.2        1.24661488]
 [0.3        0.09792889]
 [0.32341667 0.03735929]]",0,0.446
8773808799,f,21,english,5,3,english,2024-01-25 10:31:19.575190,False,2,428,sounds\english\audio/english_382.wav,"[[  0.         -83.35497559]
 [  0.1          7.83115402]
 [  0.2         77.46115257]
 [  0.3         89.755233  ]
 [  0.32341667 -36.08570956]]","[[0.         1.24516413]
 [0.1        0.59675254]
 [0.2        0.61036026]
 [0.3        1.95554414]
 [0.32341667 1.60845727]]",0,0.421
8773808799,f,21,english,5,3,english,2024-01-25 10:31:19.575190,False,2,429,sounds\english\audio/english_808.wav,"[[  0.          23.02589628]
 [  0.1         10.58817829]
 [  0.2         36.77134597]
 [  0.3        -30.31603221]
 [  0.32341667   9.74764343]]","[[0.         1.07384277]
 [0.1        1.3919179 ]
 [0.2        0.54960524]
 [0.3        1.95871365]
 [0.32341667 0.79150541]]",1,0.883
8773808799,f,21,english,5,3,english,2024-01-25 10:31:19.575190,False,2,430,sounds\english\audio/english_38.wav,"[[  0.          -2.78484508]
 [  0.1        -57.68912839]
 [  0.2        -17.27242754]
 [  0.3         -2.64514482]
 [  0.32341667  55.14373267]]","[[0.         0.45448836]
 [0.1        0.86252605]
 [0.2        1.61904865]
 [0.3        1.39130822]
 [0.32341667 1.59066599]]",1,0.514
8773808799,f,21,english,5,3,english,2024-01-25 10:31:19.575190,False,2,431,sounds\english\audio/english_76.wav,"[[  0.          24.78743387]
 [  0.1         -7.95135802]
 [  0.2         -9.56689875]
 [  0.3        -78.25819759]
 [  0.32341667  26.4311908 ]]","[[0.         1.26829138]
 [0.1        1.4446717 ]
 [0.2        0.88177173]
 [0.3        1.63003096]
 [0.32341667 1.97074408]]",0,0.733
8773808799,f,21,english,5,3,english,2024-01-25 10:31:19.575190,False,2,432,sounds\english\audio/english_3.wav,"[[  0.         -57.66547148]
 [  0.1        -70.60568286]
 [  0.2         70.86912423]
 [  0.3        -17.39285893]
 [  0.32341667 -60.61780379]]","[[0.         1.73485112]
 [0.1        1.4226462 ]
 [0.2        1.06235888]
 [0.3        1.05619652]
 [0.32341667 1.35606233]]",1,0.402
8773808799,f,21,english,5,3,english,2024-01-25 10:31:19.575190,False,2,433,sounds\english\audio/english_692.wav,"[[  0.         -29.13306787]
 [  0.1        -41.86406343]
 [  0.2        -94.94051661]
 [  0.3         78.40426091]
 [  0.32341667 -47.11562344]]","[[0.         0.55849531]
 [0.1        1.96517265]
 [0.2        0.19953253]
 [0.3        1.89357941]
 [0.32341667 1.37874109]]",1,0.334
8773808799,f,21,english,5,3,english,2024-01-25 10:31:19.575190,False,2,434,sounds\english\audio/english_263.wav,"[[  0.           4.78285782]
 [  0.1         13.60270601]
 [  0.2         39.50896912]
 [  0.3         22.44107494]
 [  0.32341667 -36.00172497]]","[[0.         1.6410762 ]
 [0.1        0.7602565 ]
 [0.2        0.2694778 ]
 [0.3        1.51649535]
 [0.32341667 0.60574629]]",0,0.401
8773808799,f,21,english,5,3,english,2024-01-25 10:31:19.575190,False,2,435,sounds\english\audio/english_936.wav,"[[  0.          48.39129511]
 [  0.1        -60.21618585]
 [  0.2         21.92845445]
 [  0.3         72.85258749]
 [  0.32341667  60.11152814]]","[[0.         0.54114143]
 [0.1        1.68728974]
 [0.2        1.39155326]
 [0.3        0.90488419]
 [0.32341667 1.20326098]]",0,0.283
8773808799,f,21,english,5,3,english,2024-01-25 10:31:19.575190,False,2,436,sounds\english\audio/english_979.wav,"[[  0.          -1.00654814]
 [  0.1         18.39835707]
 [  0.2        -42.91789413]
 [  0.3        -58.29527223]
 [  0.32341667  86.14740424]]","[[0.         1.61411081]
 [0.1        1.30464512]
 [0.2        0.93120215]
 [0.3        0.87145212]
 [0.32341667 1.17332389]]",0,0.433
8773808799,f,21,english,5,3,english,2024-01-25 10:31:19.575190,False,2,437,sounds\english\audio/english_886.wav,"[[  0.          52.0334205 ]
 [  0.1        -34.60142464]
 [  0.2         77.69993065]
 [  0.3         29.08950905]
 [  0.32341667 -98.8324779 ]]","[[0.         0.43451348]
 [0.1        1.57387994]
 [0.2        1.05416836]
 [0.3        0.32554246]
 [0.32341667 1.85669509]]",1,0.591
8773808799,f,21,english,5,3,english,2024-01-25 10:31:19.575190,False,2,438,sounds\english\audio/english_20.wav,"[[  0.         -56.6830557 ]
 [  0.1         50.66790367]
 [  0.2        -18.96445326]
 [  0.3        -25.44345058]
 [  0.32341667  12.75548414]]","[[0.         0.06363068]
 [0.1        1.80739158]
 [0.2        1.41045117]
 [0.3        0.2049667 ]
 [0.32341667 0.27136646]]",1,0.451
8773808799,f,21,english,5,3,english,2024-01-25 10:31:19.575190,False,2,439,sounds\english\audio/english_640.wav,"[[  0.          74.95875769]
 [  0.1         87.73764633]
 [  0.2        -71.36544648]
 [  0.3         11.07583082]
 [  0.32341667  18.32643638]]","[[0.         1.81273707]
 [0.1        1.50076703]
 [0.2        0.25286143]
 [0.3        0.53181051]
 [0.32341667 0.76351343]]",1,0.387
8773808799,f,21,english,5,3,english,2024-01-25 10:31:19.575190,False,2,440,sounds\english\audio/english_100.wav,"[[  0.         -66.86198445]
 [  0.1         32.23990363]
 [  0.2        -63.31896149]
 [  0.3        -73.00038049]
 [  0.32341667  32.15710315]]","[[0.         0.79522553]
 [0.1        0.27784591]
 [0.2        1.76330212]
 [0.3        0.60946618]
 [0.32341667 0.42695433]]",1,0.366
8773808799,f,21,english,5,3,english,2024-01-25 10:31:19.575190,False,2,441,sounds\english\audio/english_838.wav,"[[  0.         -46.43239877]
 [  0.1         -0.77549132]
 [  0.2        -47.56158581]
 [  0.3          7.18116474]
 [  0.32341667 -87.38880816]]","[[0.         0.57293762]
 [0.1        1.65450135]
 [0.2        0.30574951]
 [0.3        0.96315644]
 [0.32341667 0.83017899]]",0,0.421
8773808799,f,21,english,5,3,english,2024-01-25 10:31:19.575190,False,2,442,sounds\english\audio/english_904.wav,"[[  0.          54.28678019]
 [  0.1        -13.24417266]
 [  0.2         18.94666669]
 [  0.3        -21.97018078]
 [  0.32341667   4.05624244]]","[[0.         0.96279628]
 [0.1        0.20212872]
 [0.2        1.39381084]
 [0.3        1.57516234]
 [0.32341667 0.97228596]]",0,0.431
8773808799,f,21,english,5,3,english,2024-01-25 10:31:19.575190,False,2,443,sounds\english\audio/english_635.wav,"[[  0.          27.7169436 ]
 [  0.1        -44.8292656 ]
 [  0.2         67.97685769]
 [  0.3         82.0264667 ]
 [  0.32341667  84.34985253]]","[[0.         1.98702335]
 [0.1        1.27737447]
 [0.2        0.57401651]
 [0.3        0.46134276]
 [0.32341667 0.71235155]]",0,0.464
8773808799,f,21,english,5,3,english,2024-01-25 10:31:19.575190,False,2,444,sounds\english\audio/english_264.wav,"[[  0.          16.10521774]
 [  0.1        -43.55481907]
 [  0.2        -16.87093852]
 [  0.3        -81.41755984]
 [  0.32341667 -76.00277997]]","[[0.         1.02407609]
 [0.1        1.4393598 ]
 [0.2        1.31552174]
 [0.3        1.17516842]
 [0.32341667 0.613195  ]]",0,0.394
8773808799,f,21,english,5,3,english,2024-01-25 10:31:19.575190,False,2,445,sounds\english\audio/english_708.wav,"[[  0.         -27.19248895]
 [  0.1         84.25795725]
 [  0.2        -19.19551503]
 [  0.3         29.88012033]
 [  0.32341667  46.0858662 ]]","[[0.         0.74061838]
 [0.1        1.13599963]
 [0.2        1.10086254]
 [0.3        0.53054382]
 [0.32341667 1.51974387]]",0,0.525
8773808799,f,21,english,5,3,english,2024-01-25 10:31:19.575190,False,2,446,sounds\english\audio/english_878.wav,"[[  0.          84.19501339]
 [  0.1         76.71234668]
 [  0.2        -74.61835319]
 [  0.3         83.79758366]
 [  0.32341667 -29.32243698]]","[[0.         0.22676298]
 [0.1        0.28568495]
 [0.2        0.74220819]
 [0.3        1.72755148]
 [0.32341667 1.88938616]]",1,0.76
8773808799,f,21,english,5,3,english,2024-01-25 10:31:19.575190,False,2,447,sounds\english\audio/english_892.wav,"[[ 0.         38.63128374]
 [ 0.1        22.49899687]
 [ 0.2        28.84135264]
 [ 0.3        81.19740532]
 [ 0.32341667 22.37782167]]","[[0.         0.97893944]
 [0.1        0.66551001]
 [0.2        0.36795179]
 [0.3        1.0840826 ]
 [0.32341667 0.83637256]]",0,0.545
8773808799,f,21,english,5,3,english,2024-01-25 10:31:19.575190,False,2,448,sounds\english\audio/english_194.wav,"[[  0.          46.99725025]
 [  0.1        -37.20381284]
 [  0.2         13.86947558]
 [  0.3         79.77232086]
 [  0.32341667  49.46244041]]","[[0.         0.38230397]
 [0.1        1.33246395]
 [0.2        1.31276464]
 [0.3        0.22397005]
 [0.32341667 1.74931967]]",0,0.559
8773808799,f,21,english,5,3,english,2024-01-25 10:31:19.575190,False,2,449,sounds\english\audio/english_806.wav,"[[ 0.         17.38837614]
 [ 0.1        50.31160736]
 [ 0.2        74.21499327]
 [ 0.3        16.647622  ]
 [ 0.32341667 27.12519974]]","[[0.         1.03842349]
 [0.1        1.08461549]
 [0.2        1.8436814 ]
 [0.3        1.85846725]
 [0.32341667 1.15820289]]",0,0.226
8773808799,f,21,english,5,3,english,2024-01-25 10:31:19.575190,False,2,450,sounds\english\audio/english_983.wav,"[[  0.          32.38711768]
 [  0.1        -65.51600844]
 [  0.2         12.03576385]
 [  0.3        -64.14785636]
 [  0.32341667 -72.48499617]]","[[0.         0.79408654]
 [0.1        1.57845546]
 [0.2        1.23356187]
 [0.3        0.65581831]
 [0.32341667 0.27936162]]",0,0.328
8773808799,f,21,english,5,3,english,2024-01-25 10:31:19.575190,False,2,451,sounds\english\audio/english_36.wav,"[[  0.           8.79498818]
 [  0.1        -18.99628775]
 [  0.2        -17.40156662]
 [  0.3        -85.73958234]
 [  0.32341667  45.44069908]]","[[0.         0.0614271 ]
 [0.1        0.22652961]
 [0.2        0.46484299]
 [0.3        0.81464033]
 [0.32341667 0.21843777]]",1,0.507
8773808799,f,21,english,5,3,english,2024-01-25 10:31:19.575190,False,2,452,sounds\english\audio/english_192.wav,"[[  0.          78.04280759]
 [  0.1        -85.52188616]
 [  0.2        -14.2601202 ]
 [  0.3         29.76504865]
 [  0.32341667  82.81048791]]","[[0.         0.73118961]
 [0.1        0.7164391 ]
 [0.2        1.68273927]
 [0.3        0.51501418]
 [0.32341667 1.16986294]]",0,0.34
8773808799,f,21,english,5,3,english,2024-01-25 10:31:19.575190,False,2,453,sounds\english\audio/english_936.wav,"[[  0.          48.39129511]
 [  0.1        -60.21618585]
 [  0.2         21.92845445]
 [  0.3         72.85258749]
 [  0.32341667  60.11152814]]","[[0.         0.54114143]
 [0.1        1.68728974]
 [0.2        1.39155326]
 [0.3        0.90488419]
 [0.32341667 1.20326098]]",0,0.25
8773808799,f,21,english,5,3,english,2024-01-25 10:31:19.575190,False,2,454,sounds\english\audio/english_226.wav,"[[  0.         -56.53605181]
 [  0.1         -5.93547338]
 [  0.2        -81.0596442 ]
 [  0.3        -12.14261426]
 [  0.32341667  40.67667876]]","[[0.         0.51185795]
 [0.1        0.73377568]
 [0.2        1.62034912]
 [0.3        0.19474782]
 [0.32341667 0.1395898 ]]",0,0.219
8773808799,f,21,english,5,3,english,2024-01-25 10:31:19.575190,False,2,455,sounds\english\audio/english_70.wav,"[[  0.         -53.09237622]
 [  0.1         85.97526897]
 [  0.2         25.5645184 ]
 [  0.3          1.25172137]
 [  0.32341667  93.59431896]]","[[0.         1.21678364]
 [0.1        0.94111324]
 [0.2        1.03926055]
 [0.3        0.29519406]
 [0.32341667 0.80175783]]",0,0.202
8773808799,f,21,english,5,3,english,2024-01-25 10:31:19.575190,False,2,456,sounds\english\audio/english_192.wav,"[[  0.          78.04280759]
 [  0.1        -85.52188616]
 [  0.2        -14.2601202 ]
 [  0.3         29.76504865]
 [  0.32341667  82.81048791]]","[[0.         0.73118961]
 [0.1        0.7164391 ]
 [0.2        1.68273927]
 [0.3        0.51501418]
 [0.32341667 1.16986294]]",1,0.258
8773808799,f,21,english,5,3,english,2024-01-25 10:31:19.575190,False,2,457,sounds\english\audio/english_711.wav,"[[  0.          40.88671478]
 [  0.1          9.07407961]
 [  0.2        -23.01321115]
 [  0.3        -10.85681813]
 [  0.32341667  87.87195083]]","[[0.         0.99029016]
 [0.1        0.54320223]
 [0.2        1.60107   ]
 [0.3        1.574764  ]
 [0.32341667 1.34863725]]",0,0.351
8773808799,f,21,english,5,3,english,2024-01-25 10:31:19.575190,False,2,458,sounds\english\audio/english_982.wav,"[[  0.          12.44046596]
 [  0.1        -60.41666302]
 [  0.2        -35.31499742]
 [  0.3        -10.96739076]
 [  0.32341667  44.50624474]]","[[0.         0.81508625]
 [0.1        0.92712357]
 [0.2        0.77678916]
 [0.3        1.0294352 ]
 [0.32341667 1.1322674 ]]",1,0.31
8773808799,f,21,english,5,3,english,2024-01-25 10:31:19.575190,False,2,459,sounds\english\audio/english_924.wav,"[[  0.          63.64154058]
 [  0.1        -60.55254199]
 [  0.2        -47.94670646]
 [  0.3        -76.50696127]
 [  0.32341667  44.23103111]]","[[0.         1.83477076]
 [0.1        0.21366754]
 [0.2        1.07859551]
 [0.3        1.9507375 ]
 [0.32341667 1.33476666]]",1,0.646
8773808799,f,21,english,5,3,english,2024-01-25 10:31:19.575190,False,2,460,sounds\english\audio/english_179.wav,"[[ 0.         76.93131114]
 [ 0.1         5.5150778 ]
 [ 0.2         3.89208722]
 [ 0.3        -8.47825544]
 [ 0.32341667 50.73924617]]","[[0.         0.23318107]
 [0.1        0.47080089]
 [0.2        1.31062884]
 [0.3        0.27743795]
 [0.32341667 0.83516241]]",0,0.405
8773808799,f,21,english,5,3,english,2024-01-25 10:31:19.575190,False,2,461,sounds\english\audio/english_49.wav,"[[  0.          -6.08822071]
 [  0.1        -56.0367764 ]
 [  0.2        -51.95657584]
 [  0.3        -59.93208112]
 [  0.32341667  -7.85847813]]","[[0.         0.36436507]
 [0.1        1.66948988]
 [0.2        1.20554654]
 [0.3        0.31084089]
 [0.32341667 0.44223059]]",1,0.692
8773808799,f,21,english,5,3,english,2024-01-25 10:31:19.575190,False,2,462,sounds\english\audio/english_800.wav,"[[  0.          -9.91001254]
 [  0.1        -86.79409322]
 [  0.2        -27.39997365]
 [  0.3         13.46737707]
 [  0.32341667 -32.56208711]]","[[0.         0.13142639]
 [0.1        1.71040153]
 [0.2        0.18637657]
 [0.3        1.09766523]
 [0.32341667 1.57940615]]",0,0.219
8773808799,f,21,english,5,3,english,2024-01-25 10:31:19.575190,False,2,463,sounds\english\audio/english_128.wav,"[[  0.         -84.07301703]
 [  0.1          0.2051398 ]
 [  0.2         50.77588291]
 [  0.3          3.27834455]
 [  0.32341667  59.5943459 ]]","[[0.         0.96445051]
 [0.1        0.77165422]
 [0.2        0.60279997]
 [0.3        0.59915485]
 [0.32341667 0.43521132]]",0,0.563
8773808799,f,21,english,5,3,english,2024-01-25 10:31:19.575190,False,2,464,sounds\english\audio/english_717.wav,"[[  0.          11.70361719]
 [  0.1        -43.41962   ]
 [  0.2        -38.6653904 ]
 [  0.3        -38.11833374]
 [  0.32341667  93.29743671]]","[[0.         1.43236824]
 [0.1        0.38419888]
 [0.2        1.88953633]
 [0.3        1.28007762]
 [0.32341667 0.67082429]]",0,0.293
8773808799,f,21,english,5,3,english,2024-01-25 10:31:19.575190,False,2,465,sounds\english\audio/english_278.wav,"[[  0.         -49.55521664]
 [  0.1         60.24292507]
 [  0.2         34.32984246]
 [  0.3         91.69210883]
 [  0.32341667  78.84715657]]","[[0.         0.96598769]
 [0.1        1.32709354]
 [0.2        0.84496159]
 [0.3        1.50157491]
 [0.32341667 1.85534648]]",0,0.173
8773808799,f,21,english,5,3,english,2024-01-25 10:31:19.575190,False,2,466,sounds\english\audio/english_566.wav,"[[  0.          70.56000247]
 [  0.1         -0.18246418]
 [  0.2        -23.7188651 ]
 [  0.3         12.5469797 ]
 [  0.32341667 -84.37997634]]","[[0.         1.04698608]
 [0.1        1.13826263]
 [0.2        1.91259561]
 [0.3        1.08561121]
 [0.32341667 1.98926692]]",0,0.13
8773808799,f,21,english,5,3,english,2024-01-25 10:31:19.575190,False,2,467,sounds\english\audio/english_625.wav,"[[  0.          25.70847239]
 [  0.1        -37.82303983]
 [  0.2         38.52328891]
 [  0.3        -23.93667478]
 [  0.32341667 -53.98326942]]","[[0.         1.1960971 ]
 [0.1        0.02795501]
 [0.2        1.10198652]
 [0.3        0.08852642]
 [0.32341667 1.59813041]]",0,0.655
8773808799,f,21,english,5,3,english,2024-01-25 10:31:19.575190,False,2,468,sounds\english\audio/english_198.wav,"[[ 0.         -3.53881338]
 [ 0.1        58.04445454]
 [ 0.2        67.39523563]
 [ 0.3        56.58835275]
 [ 0.32341667  7.34595052]]","[[0.         0.6033193 ]
 [0.1        0.57837506]
 [0.2        1.37850613]
 [0.3        0.73107668]
 [0.32341667 0.42006089]]",1,0.399
8773808799,f,21,english,5,3,english,2024-01-25 10:31:19.575190,False,2,469,sounds\english\audio/english_560.wav,"[[  0.           6.26341837]
 [  0.1        -94.10474965]
 [  0.2        -43.88069215]
 [  0.3        -26.3559156 ]
 [  0.32341667 -91.38105747]]","[[0.         1.61909233]
 [0.1        0.93851614]
 [0.2        1.37910144]
 [0.3        1.10578935]
 [0.32341667 0.02070647]]",0,0.277
8773808799,f,21,english,5,3,english,2024-01-25 10:31:19.575190,False,2,470,sounds\english\audio/english_356.wav,"[[  0.          87.74309864]
 [  0.1         -4.48264388]
 [  0.2         90.19031952]
 [  0.3        -69.40540064]
 [  0.32341667  65.10278108]]","[[0.         0.22820547]
 [0.1        1.49009691]
 [0.2        1.39023362]
 [0.3        1.78473098]
 [0.32341667 0.80628385]]",1,0.443
8773808799,f,21,english,5,3,english,2024-01-25 10:31:19.575190,False,2,471,sounds\english\audio/english_276.wav,"[[  0.         -87.25523595]
 [  0.1         16.91650801]
 [  0.2        -40.09372932]
 [  0.3          3.19229046]
 [  0.32341667  18.84785296]]","[[0.         1.1918401 ]
 [0.1        0.89399115]
 [0.2        0.89701806]
 [0.3        1.98333504]
 [0.32341667 1.85350493]]",0,0.264
8773808799,f,21,english,5,3,english,2024-01-25 10:31:19.575190,False,2,472,sounds\english\audio/english_459.wav,"[[  0.          30.23503988]
 [  0.1        -58.09525271]
 [  0.2         22.03715272]
 [  0.3        -33.09468511]
 [  0.32341667  -9.46836848]]","[[0.         1.42205963]
 [0.1        0.13069666]
 [0.2        0.55220733]
 [0.3        0.48840502]
 [0.32341667 1.08918734]]",0,0.56
8773808799,f,21,english,5,3,english,2024-01-25 10:31:19.575190,False,2,473,sounds\english\audio/english_100.wav,"[[  0.         -66.86198445]
 [  0.1         32.23990363]
 [  0.2        -63.31896149]
 [  0.3        -73.00038049]
 [  0.32341667  32.15710315]]","[[0.         0.79522553]
 [0.1        0.27784591]
 [0.2        1.76330212]
 [0.3        0.60946618]
 [0.32341667 0.42695433]]",1,0.319
8773808799,f,21,english,5,3,english,2024-01-25 10:31:19.575190,False,2,474,sounds\english\audio/english_683.wav,"[[  0.         -73.37543508]
 [  0.1         66.4080647 ]
 [  0.2         46.46812351]
 [  0.3         71.67755016]
 [  0.32341667   2.86253031]]","[[0.         1.70409633]
 [0.1        1.25556383]
 [0.2        0.87554738]
 [0.3        1.32863005]
 [0.32341667 0.20364682]]",0,0.2
8773808799,f,21,english,5,3,english,2024-01-25 10:31:19.575190,False,2,475,sounds\english\audio/english_693.wav,"[[  0.         -83.71635172]
 [  0.1         32.46406691]
 [  0.2          8.27548994]
 [  0.3         15.80660539]
 [  0.32341667  74.32681132]]","[[0.         0.35753224]
 [0.1        1.09553371]
 [0.2        1.67166692]
 [0.3        1.61413862]
 [0.32341667 1.90943184]]",0,0.339
8773808799,f,21,english,5,3,english,2024-01-25 10:31:19.575190,False,2,476,sounds\english\audio/english_40.wav,"[[  0.          20.98315678]
 [  0.1         80.64974175]
 [  0.2          5.38930518]
 [  0.3         18.83593916]
 [  0.32341667 -14.62145671]]","[[0.         0.33544846]
 [0.1        0.81764939]
 [0.2        0.17548883]
 [0.3        0.83674413]
 [0.32341667 0.80890384]]",0,0.466
8773808799,f,21,english,5,3,english,2024-01-25 10:31:19.575190,False,2,477,sounds\english\audio/english_36.wav,"[[  0.           8.79498818]
 [  0.1        -18.99628775]
 [  0.2        -17.40156662]
 [  0.3        -85.73958234]
 [  0.32341667  45.44069908]]","[[0.         0.0614271 ]
 [0.1        0.22652961]
 [0.2        0.46484299]
 [0.3        0.81464033]
 [0.32341667 0.21843777]]",1,0.493
8773808799,f,21,english,5,3,english,2024-01-25 10:31:19.575190,False,2,478,sounds\english\audio/english_525.wav,"[[  0.         -21.23223701]
 [  0.1          3.49974992]
 [  0.2        -75.71526263]
 [  0.3        -52.87512147]
 [  0.32341667  17.79573657]]","[[0.         1.69398532]
 [0.1        0.25491439]
 [0.2        0.17370365]
 [0.3        0.81797459]
 [0.32341667 0.70176203]]",0,0.486
8773808799,f,21,english,5,3,english,2024-01-25 10:31:19.575190,False,2,479,sounds\english\audio/english_256.wav,"[[  0.          22.60769813]
 [  0.1        -95.01444593]
 [  0.2        -19.91310746]
 [  0.3         -6.39209363]
 [  0.32341667  24.02209282]]","[[0.         1.84037168]
 [0.1        0.47687766]
 [0.2        0.85339151]
 [0.3        0.75097161]
 [0.32341667 1.98695073]]",0,1.12
8773808799,f,21,english,5,3,english,2024-01-25 10:31:19.575190,False,2,480,sounds\english\audio/english_748.wav,"[[  0.           0.23647087]
 [  0.1         45.60572596]
 [  0.2          6.14588966]
 [  0.3        -10.39850874]
 [  0.32341667  -7.86503132]]","[[0.         0.91094575]
 [0.1        1.68800655]
 [0.2        1.37684191]
 [0.3        0.70556294]
 [0.32341667 1.52987196]]",0,0.378
8773808799,f,21,english,5,3,english,2024-01-25 10:31:19.575190,False,2,481,sounds\english\audio/english_143.wav,"[[  0.         -40.90047407]
 [  0.1        -35.35291254]
 [  0.2         36.32983964]
 [  0.3         -7.67980486]
 [  0.32341667 -89.59854269]]","[[0.         0.05812512]
 [0.1        0.81203879]
 [0.2        0.61124866]
 [0.3        0.41683772]
 [0.32341667 1.86697452]]",1,0.478
8773808799,f,21,english,5,3,english,2024-01-25 10:31:19.575190,False,2,482,sounds\english\audio/english_457.wav,"[[  0.         -73.30847947]
 [  0.1        -25.74413936]
 [  0.2          8.82772976]
 [  0.3         -2.30416086]
 [  0.32341667 -34.04493945]]","[[0.         0.35525387]
 [0.1        0.90483023]
 [0.2        1.30004432]
 [0.3        0.93422762]
 [0.32341667 1.31504388]]",0,1.308
8773808799,f,21,english,5,3,english,2024-01-25 10:31:19.575190,False,2,483,sounds\english\audio/english_674.wav,"[[  0.         -38.60253285]
 [  0.1         46.14948962]
 [  0.2        -49.76414787]
 [  0.3        -66.16492387]
 [  0.32341667  28.37583826]]","[[0.         0.25488683]
 [0.1        1.80679583]
 [0.2        1.59420413]
 [0.3        1.25714797]
 [0.32341667 1.20557216]]",0,0.416
8773808799,f,21,english,5,3,english,2024-01-25 10:31:19.575190,False,2,484,sounds\english\audio/english_803.wav,"[[  0.           8.73756077]
 [  0.1        -41.53503623]
 [  0.2        -84.76471985]
 [  0.3        -27.96408635]
 [  0.32341667  72.02290108]]","[[0.         1.22190991]
 [0.1        1.08276728]
 [0.2        1.59545905]
 [0.3        1.3875394 ]
 [0.32341667 0.92287786]]",1,0.416
8773808799,f,21,english,5,3,english,2024-01-25 10:31:19.575190,False,2,485,sounds\english\audio/english_571.wav,"[[  0.         -42.92588422]
 [  0.1        -87.39276897]
 [  0.2         19.06282168]
 [  0.3        -99.30459792]
 [  0.32341667  41.25263337]]","[[0.         0.65590276]
 [0.1        1.8306878 ]
 [0.2        0.06889765]
 [0.3        0.29364209]
 [0.32341667 1.388798  ]]",0,0.608
8773808799,f,21,english,5,3,english,2024-01-25 10:31:19.575190,False,2,486,sounds\english\audio/english_204.wav,"[[  0.          67.46317025]
 [  0.1         38.91463365]
 [  0.2        -85.28377865]
 [  0.3         55.65505401]
 [  0.32341667  56.32983288]]","[[0.         1.58701212]
 [0.1        1.82178317]
 [0.2        1.60361911]
 [0.3        0.21823774]
 [0.32341667 0.04661671]]",1,0.468
8773808799,f,21,english,5,3,english,2024-01-25 10:31:19.575190,False,2,487,sounds\english\audio/english_118.wav,"[[  0.         -46.26080879]
 [  0.1        -14.63576669]
 [  0.2         85.04541628]
 [  0.3        -49.31762638]
 [  0.32341667  16.64479416]]","[[0.         0.77156844]
 [0.1        0.55135676]
 [0.2        0.92804695]
 [0.3        1.40435072]
 [0.32341667 1.67291824]]",0,0.609
8773808799,f,21,english,5,3,english,2024-01-25 10:31:19.575190,False,2,488,sounds\english\audio/english_571.wav,"[[  0.         -42.92588422]
 [  0.1        -87.39276897]
 [  0.2         19.06282168]
 [  0.3        -99.30459792]
 [  0.32341667  41.25263337]]","[[0.         0.65590276]
 [0.1        1.8306878 ]
 [0.2        0.06889765]
 [0.3        0.29364209]
 [0.32341667 1.388798  ]]",0,0.746
8773808799,f,21,english,5,3,english,2024-01-25 10:31:19.575190,False,2,489,sounds\english\audio/english_479.wav,"[[  0.          74.98268857]
 [  0.1         16.03290679]
 [  0.2         78.97784812]
 [  0.3        -15.63843586]
 [  0.32341667  42.04802753]]","[[0.         0.98081986]
 [0.1        0.71187618]
 [0.2        0.27050369]
 [0.3        1.15797271]
 [0.32341667 1.51318639]]",1,0.182
8773808799,f,21,english,5,3,english,2024-01-25 10:31:19.575190,False,2,490,sounds\english\audio/english_799.wav,"[[  0.         -48.4958847 ]
 [  0.1         -9.52866418]
 [  0.2          1.94176449]
 [  0.3          5.71676827]
 [  0.32341667  30.27282792]]","[[0.         1.9233431 ]
 [0.1        1.11542891]
 [0.2        0.95865462]
 [0.3        0.6616034 ]
 [0.32341667 1.91183458]]",0,0.274
8773808799,f,21,english,5,3,english,2024-01-25 10:31:19.575190,False,2,491,sounds\english\audio/english_247.wav,"[[  0.          48.65693284]
 [  0.1        -27.64572099]
 [  0.2        -20.19701808]
 [  0.3        -10.74442668]
 [  0.32341667  91.42432082]]","[[0.         0.25539499]
 [0.1        1.09429421]
 [0.2        0.88115619]
 [0.3        1.97859338]
 [0.32341667 0.10638235]]",0,0.267
8773808799,f,21,english,5,3,english,2024-01-25 10:31:19.575190,False,2,492,sounds\english\audio/english_838.wav,"[[  0.         -46.43239877]
 [  0.1         -0.77549132]
 [  0.2        -47.56158581]
 [  0.3          7.18116474]
 [  0.32341667 -87.38880816]]","[[0.         0.57293762]
 [0.1        1.65450135]
 [0.2        0.30574951]
 [0.3        0.96315644]
 [0.32341667 0.83017899]]",0,0.203
8773808799,f,21,english,5,3,english,2024-01-25 10:31:19.575190,False,2,493,sounds\english\audio/english_87.wav,"[[  0.          54.83056612]
 [  0.1         56.31531505]
 [  0.2        -65.55002777]
 [  0.3        -25.15788212]
 [  0.32341667  22.72349562]]","[[0.         1.56132998]
 [0.1        1.28614089]
 [0.2        1.44579989]
 [0.3        0.3607766 ]
 [0.32341667 0.17745198]]",0,0.267
8773808799,f,21,english,5,3,english,2024-01-25 10:31:19.575190,False,2,494,sounds\english\audio/english_277.wav,"[[  0.          57.10742469]
 [  0.1        -91.86277199]
 [  0.2         15.18492706]
 [  0.3        -70.52173838]
 [  0.32341667  87.41438228]]","[[0.         0.00973607]
 [0.1        0.30409245]
 [0.2        1.04533503]
 [0.3        1.32138987]
 [0.32341667 0.22027268]]",1,1.385
8773808799,f,21,english,5,3,english,2024-01-25 10:31:19.575190,False,2,495,sounds\english\audio/english_275.wav,"[[  0.          -1.14725012]
 [  0.1        -90.43848863]
 [  0.2        -40.03711279]
 [  0.3        -29.12549604]
 [  0.32341667  77.33253221]]","[[0.         0.71691039]
 [0.1        0.74614953]
 [0.2        1.94843862]
 [0.3        0.32495742]
 [0.32341667 0.61649877]]",0,0.351
8773808799,f,21,english,5,3,english,2024-01-25 10:31:19.575190,False,2,496,sounds\english\audio/english_1.wav,"[[  0.          53.99031816]
 [  0.1        -58.32145174]
 [  0.2        -86.75659624]
 [  0.3        -31.84945767]
 [  0.32341667 -59.21997754]]","[[0.         1.91732561]
 [0.1        0.75352701]
 [0.2        1.40297919]
 [0.3        0.12157709]
 [0.32341667 1.57687546]]",0,0.632
8773808799,f,21,english,5,3,english,2024-01-25 10:31:19.575190,False,2,497,sounds\english\audio/english_627.wav,"[[  0.         -53.99355102]
 [  0.1         -3.03417463]
 [  0.2         83.9257281 ]
 [  0.3         52.52073868]
 [  0.32341667 -13.85481025]]","[[0.         0.04887222]
 [0.1        0.14119608]
 [0.2        0.97350107]
 [0.3        0.6697358 ]
 [0.32341667 0.92660526]]",0,0.672
8773808799,f,21,english,5,3,english,2024-01-25 10:31:19.575190,False,2,498,sounds\english\audio/english_590.wav,"[[  0.         -36.198224  ]
 [  0.1        -81.6019347 ]
 [  0.2         23.00860846]
 [  0.3        -40.72667736]
 [  0.32341667  31.06175796]]","[[0.         1.58650853]
 [0.1        0.24081988]
 [0.2        0.40073912]
 [0.3        0.83686248]
 [0.32341667 1.43958247]]",0,0.523
8773808799,f,21,english,5,3,english,2024-01-25 10:31:19.575190,False,2,499,sounds\english\audio/english_153.wav,"[[  0.           1.34878197]
 [  0.1        -86.14475674]
 [  0.2          3.24582423]
 [  0.3         -6.94068795]
 [  0.32341667 -76.91560753]]","[[0.         1.20280718]
 [0.1        1.60924223]
 [0.2        0.94422247]
 [0.3        0.98008297]
 [0.32341667 0.34988026]]",0,0.333
8773808799,f,21,english,5,3,english,2024-01-25 10:31:19.575190,False,2,500,sounds\english\audio/english_550.wav,"[[  0.          19.46608022]
 [  0.1        -94.3556307 ]
 [  0.2        -80.90695222]
 [  0.3        -65.36230075]
 [  0.32341667 -18.45722395]]","[[0.         0.78600887]
 [0.1        1.03273328]
 [0.2        0.36941932]
 [0.3        0.47038634]
 [0.32341667 0.11798167]]",0,0.863
8773808799,f,21,english,5,3,english,2024-01-25 10:31:19.575190,False,2,501,sounds\english\audio/english_290.wav,"[[  0.          73.71968657]
 [  0.1        -59.85317413]
 [  0.2         71.1426587 ]
 [  0.3        -18.50007061]
 [  0.32341667 -65.91143137]]","[[0.         0.30552726]
 [0.1        1.31636279]
 [0.2        0.54925413]
 [0.3        1.26204455]
 [0.32341667 0.60528556]]",0,0.374
8773808799,f,21,english,5,3,english,2024-01-25 10:31:19.575190,False,2,502,sounds\english\audio/english_383.wav,"[[  0.          -1.49759031]
 [  0.1         48.0809444 ]
 [  0.2        -84.09524499]
 [  0.3         95.23220486]
 [  0.32341667  64.91086902]]","[[0.         0.61403304]
 [0.1        0.69225556]
 [0.2        0.33452268]
 [0.3        1.06792504]
 [0.32341667 0.58483827]]",0,0.361
