subj,sex,age,language,english,french,native_lang,date,practice,block,trial,stim,pitch,stretch,response,rt
8731029739,f,22,english,5,3,english,2024-01-25 10:40:30.331193,False,2,253,sounds\english\audio/english_511.wav,"[[  0.         -54.05076571]
 [  0.1         58.21305336]
 [  0.2         93.28984864]
 [  0.3        -93.08437199]
 [  0.32341667  48.49476441]]","[[0.         1.68448531]
 [0.1        0.64957271]
 [0.2        1.47534814]
 [0.3        1.38615571]
 [0.32341667 0.71972648]]",0,2.456
8731029739,f,22,english,5,3,english,2024-01-25 10:40:30.331193,False,2,254,sounds\english\audio/english_359.wav,"[[  0.          95.13315851]
 [  0.1         95.71495863]
 [  0.2          4.56295435]
 [  0.3        -11.93773809]
 [  0.32341667 -75.72789111]]","[[0.         1.5844105 ]
 [0.1        0.46491803]
 [0.2        1.17107987]
 [0.3        0.63485582]
 [0.32341667 0.10666132]]",0,1.778
8731029739,f,22,english,5,3,english,2024-01-25 10:40:30.331193,False,2,255,sounds\english\audio/english_505.wav,"[[  0.         -14.1569725 ]
 [  0.1         55.52926248]
 [  0.2         53.00334781]
 [  0.3         75.03788466]
 [  0.32341667  -7.91266729]]","[[0.         0.45361713]
 [0.1        0.94516805]
 [0.2        0.85342654]
 [0.3        1.32942474]
 [0.32341667 0.93790665]]",0,0.583
8731029739,f,22,english,5,3,english,2024-01-25 10:40:30.331193,False,2,256,sounds\english\audio/english_92.wav,"[[  0.          31.88505953]
 [  0.1         -5.62534355]
 [  0.2        -66.19250112]
 [  0.3        -77.62644198]
 [  0.32341667 -66.61656061]]","[[0.         1.50112375]
 [0.1        0.35596674]
 [0.2        1.12270031]
 [0.3        1.09837269]
 [0.32341667 1.16274455]]",0,0.989
8731029739,f,22,english,5,3,english,2024-01-25 10:40:30.331193,False,2,257,sounds\english\audio/english_842.wav,"[[  0.         -48.5952207 ]
 [  0.1         29.19485822]
 [  0.2         84.54328152]
 [  0.3         69.99994667]
 [  0.32341667  56.72069463]]","[[0.         0.12382156]
 [0.1        1.75564688]
 [0.2        0.24815543]
 [0.3        1.2885643 ]
 [0.32341667 0.70518165]]",0,1.2
8731029739,f,22,english,5,3,english,2024-01-25 10:40:30.331193,False,2,258,sounds\english\audio/english_704.wav,"[[  0.         -24.48288207]
 [  0.1         -9.94163531]
 [  0.2         74.85271107]
 [  0.3        -38.44921803]
 [  0.32341667 -21.20994959]]","[[0.         0.92043902]
 [0.1        0.96595902]
 [0.2        1.40327859]
 [0.3        1.07325586]
 [0.32341667 1.87555588]]",0,0.536
8731029739,f,22,english,5,3,english,2024-01-25 10:40:30.331193,False,2,259,sounds\english\audio/english_342.wav,"[[  0.          78.00911228]
 [  0.1        -28.67768894]
 [  0.2         73.55618202]
 [  0.3         93.0509223 ]
 [  0.32341667  -2.74816459]]","[[0.         0.99673345]
 [0.1        1.80563483]
 [0.2        1.38552336]
 [0.3        0.17145116]
 [0.32341667 0.15059009]]",0,0.824
8731029739,f,22,english,5,3,english,2024-01-25 10:40:30.331193,False,2,260,sounds\english\audio/english_798.wav,"[[  0.         -16.40769998]
 [  0.1          3.00381127]
 [  0.2        -31.24410556]
 [  0.3        -53.27973877]
 [  0.32341667  91.43563813]]","[[0.         1.85457914]
 [0.1        1.50219522]
 [0.2        0.78751403]
 [0.3        1.17339142]
 [0.32341667 1.30184409]]",0,0.414
8731029739,f,22,english,5,3,english,2024-01-25 10:40:30.331193,False,2,261,sounds\english\audio/english_583.wav,"[[  0.         -35.26485382]
 [  0.1        -69.50197994]
 [  0.2         73.6796048 ]
 [  0.3         -1.04664171]
 [  0.32341667 -55.46924107]]","[[0.         0.11557093]
 [0.1        0.9917357 ]
 [0.2        1.33727714]
 [0.3        0.97646566]
 [0.32341667 1.06585671]]",0,0.647
8731029739,f,22,english,5,3,english,2024-01-25 10:40:30.331193,False,2,262,sounds\english\audio/english_242.wav,"[[ 0.         26.44185099]
 [ 0.1        44.29547205]
 [ 0.2        -3.86423299]
 [ 0.3        60.29108386]
 [ 0.32341667 18.66576556]]","[[0.         0.44763058]
 [0.1        1.06541359]
 [0.2        0.64111919]
 [0.3        0.35225786]
 [0.32341667 1.0072971 ]]",0,1.366
8731029739,f,22,english,5,3,english,2024-01-25 10:40:30.331193,False,2,263,sounds\english\audio/english_155.wav,"[[  0.          53.87474094]
 [  0.1         74.81745726]
 [  0.2          8.25192738]
 [  0.3        -52.88121257]
 [  0.32341667  48.31209788]]","[[0.         1.93436975]
 [0.1        0.64472983]
 [0.2        1.6098708 ]
 [0.3        1.15705679]
 [0.32341667 0.66500292]]",0,0.467
8731029739,f,22,english,5,3,english,2024-01-25 10:40:30.331193,False,2,264,sounds\english\audio/english_639.wav,"[[  0.          -8.64176861]
 [  0.1         -2.28240571]
 [  0.2         61.07673865]
 [  0.3        -20.33592136]
 [  0.32341667 -24.05835486]]","[[0.         1.80061108]
 [0.1        0.32075858]
 [0.2        0.35362442]
 [0.3        1.48415136]
 [0.32341667 0.14560931]]",0,1.099
8731029739,f,22,english,5,3,english,2024-01-25 10:40:30.331193,False,2,265,sounds\english\audio/english_264.wav,"[[  0.          16.10521774]
 [  0.1        -43.55481907]
 [  0.2        -16.87093852]
 [  0.3        -81.41755984]
 [  0.32341667 -76.00277997]]","[[0.         1.02407609]
 [0.1        1.4393598 ]
 [0.2        1.31552174]
 [0.3        1.17516842]
 [0.32341667 0.613195  ]]",0,0.768
8731029739,f,22,english,5,3,english,2024-01-25 10:40:30.331193,False,2,266,sounds\english\audio/english_515.wav,"[[  0.         -51.44071002]
 [  0.1        -54.80209221]
 [  0.2         64.47174239]
 [  0.3        -10.56071982]
 [  0.32341667 -39.86348554]]","[[0.         1.17100165]
 [0.1        0.37535268]
 [0.2        1.31079719]
 [0.3        1.40472496]
 [0.32341667 0.6392892 ]]",0,1.134
8731029739,f,22,english,5,3,english,2024-01-25 10:40:30.331193,False,2,267,sounds\english\audio/english_709.wav,"[[  0.         -57.85840644]
 [  0.1         -9.03046344]
 [  0.2        -83.08592789]
 [  0.3        -30.28779026]
 [  0.32341667 -42.69418167]]","[[0.         1.64294201]
 [0.1        1.39808038]
 [0.2        1.46645034]
 [0.3        1.11724372]
 [0.32341667 0.30195694]]",0,0.681
8731029739,f,22,english,5,3,english,2024-01-25 10:40:30.331193,False,2,268,sounds\english\audio/english_9.wav,"[[  0.          24.77706225]
 [  0.1         91.05524194]
 [  0.2         30.20964975]
 [  0.3        -69.66301283]
 [  0.32341667  -3.83240646]]","[[0.         1.13145128]
 [0.1        1.19326311]
 [0.2        1.50029029]
 [0.3        1.4622179 ]
 [0.32341667 1.9316504 ]]",1,1.723
8731029739,f,22,english,5,3,english,2024-01-25 10:40:30.331193,False,2,269,sounds\english\audio/english_243.wav,"[[  0.         -74.41503345]
 [  0.1        -16.65530333]
 [  0.2         -1.41224798]
 [  0.3         37.30419975]
 [  0.32341667  -3.40378668]]","[[0.         0.65151457]
 [0.1        0.20623253]
 [0.2        0.87153721]
 [0.3        0.28583671]
 [0.32341667 1.90700275]]",0,0.588
8731029739,f,22,english,5,3,english,2024-01-25 10:40:30.331193,False,2,270,sounds\english\audio/english_606.wav,"[[  0.         -54.19201916]
 [  0.1         -9.49104439]
 [  0.2          1.17868262]
 [  0.3        -95.39718692]
 [  0.32341667 -48.659775  ]]","[[0.         1.71730642]
 [0.1        0.42216081]
 [0.2        1.31506394]
 [0.3        0.06922913]
 [0.32341667 0.08316227]]",0,0.514
8731029739,f,22,english,5,3,english,2024-01-25 10:40:30.331193,False,2,271,sounds\english\audio/english_393.wav,"[[  0.           3.63201436]
 [  0.1         64.52667935]
 [  0.2        -51.23523019]
 [  0.3        -89.75219839]
 [  0.32341667 -66.06218428]]","[[0.         1.68653621]
 [0.1        0.22518435]
 [0.2        0.07728703]
 [0.3        0.70962284]
 [0.32341667 0.7432397 ]]",0,1.318
8731029739,f,22,english,5,3,english,2024-01-25 10:40:30.331193,False,2,272,sounds\english\audio/english_556.wav,"[[ 0.         35.62658416]
 [ 0.1        28.75181601]
 [ 0.2        -2.62389444]
 [ 0.3        64.03572584]
 [ 0.32341667 72.79696002]]","[[0.         1.88481821]
 [0.1        0.4023528 ]
 [0.2        1.49364055]
 [0.3        1.54190039]
 [0.32341667 0.53435232]]",0,0.506
8731029739,f,22,english,5,3,english,2024-01-25 10:40:30.331193,False,2,273,sounds\english\audio/english_673.wav,"[[  0.         -57.74220233]
 [  0.1         51.69168463]
 [  0.2         32.71998218]
 [  0.3          1.53841214]
 [  0.32341667 -95.68622946]]","[[0.         1.16794182]
 [0.1        0.24005868]
 [0.2        1.1491536 ]
 [0.3        1.59180477]
 [0.32341667 1.00634228]]",0,0.583
8731029739,f,22,english,5,3,english,2024-01-25 10:40:30.331193,False,2,274,sounds\english\audio/english_717.wav,"[[  0.          11.70361719]
 [  0.1        -43.41962   ]
 [  0.2        -38.6653904 ]
 [  0.3        -38.11833374]
 [  0.32341667  93.29743671]]","[[0.         1.43236824]
 [0.1        0.38419888]
 [0.2        1.88953633]
 [0.3        1.28007762]
 [0.32341667 0.67082429]]",0,0.924
8731029739,f,22,english,5,3,english,2024-01-25 10:40:30.331193,False,2,275,sounds\english\audio/english_256.wav,"[[  0.          22.60769813]
 [  0.1        -95.01444593]
 [  0.2        -19.91310746]
 [  0.3         -6.39209363]
 [  0.32341667  24.02209282]]","[[0.         1.84037168]
 [0.1        0.47687766]
 [0.2        0.85339151]
 [0.3        0.75097161]
 [0.32341667 1.98695073]]",0,0.612
8731029739,f,22,english,5,3,english,2024-01-25 10:40:30.331193,False,2,276,sounds\english\audio/english_189.wav,"[[  0.         -22.70456848]
 [  0.1        -12.00888723]
 [  0.2         15.14046376]
 [  0.3        -19.30106293]
 [  0.32341667 -20.57313834]]","[[0.         0.82906961]
 [0.1        0.58408113]
 [0.2        0.19058783]
 [0.3        0.57788611]
 [0.32341667 0.32577637]]",0,0.615
8731029739,f,22,english,5,3,english,2024-01-25 10:40:30.331193,False,2,277,sounds\english\audio/english_869.wav,"[[  0.          31.82870938]
 [  0.1         55.69153841]
 [  0.2         44.83997999]
 [  0.3        -64.6596515 ]
 [  0.32341667 -51.58434075]]","[[0.         0.91730192]
 [0.1        1.54634356]
 [0.2        0.32401745]
 [0.3        1.34292926]
 [0.32341667 0.99771643]]",0,0.768
8731029739,f,22,english,5,3,english,2024-01-25 10:40:30.331193,False,2,278,sounds\english\audio/english_632.wav,"[[  0.         -56.22391322]
 [  0.1        -47.59423942]
 [  0.2         91.93727259]
 [  0.3        -33.89646621]
 [  0.32341667  46.88387871]]","[[0.         1.21249895]
 [0.1        0.39515719]
 [0.2        1.8528852 ]
 [0.3        1.67254104]
 [0.32341667 1.21014685]]",0,2.591
8731029739,f,22,english,5,3,english,2024-01-25 10:40:30.331193,False,2,279,sounds\english\audio/english_53.wav,"[[  0.           5.97237457]
 [  0.1        -76.12131912]
 [  0.2         55.18337216]
 [  0.3         70.32610425]
 [  0.32341667  26.40450832]]","[[0.         0.42230306]
 [0.1        0.60624646]
 [0.2        0.26369256]
 [0.3        1.07400525]
 [0.32341667 0.2721545 ]]",0,3.065
8731029739,f,22,english,5,3,english,2024-01-25 10:40:30.331193,False,2,280,sounds\english\audio/english_289.wav,"[[  0.         -55.97739865]
 [  0.1        -97.9801122 ]
 [  0.2         44.28679287]
 [  0.3        -74.0895039 ]
 [  0.32341667 -44.25845537]]","[[0.         0.95213243]
 [0.1        0.81858491]
 [0.2        1.16094748]
 [0.3        0.92969459]
 [0.32341667 0.41504245]]",0,0.778
8731029739,f,22,english,5,3,english,2024-01-25 10:40:30.331193,False,2,281,sounds\english\audio/english_758.wav,"[[  0.         -56.29380511]
 [  0.1          1.29517397]
 [  0.2         49.77366466]
 [  0.3         51.49077837]
 [  0.32341667  80.19813303]]","[[0.         1.72966744]
 [0.1        1.20455484]
 [0.2        0.98441853]
 [0.3        0.78323536]
 [0.32341667 1.88107652]]",0,0.801
8731029739,f,22,english,5,3,english,2024-01-25 10:40:30.331193,False,2,282,sounds\english\audio/english_736.wav,"[[  0.          44.94907169]
 [  0.1        -89.05982676]
 [  0.2         27.88925208]
 [  0.3         77.01163693]
 [  0.32341667 -28.23601136]]","[[0.         1.40223879]
 [0.1        1.76358699]
 [0.2        0.99111008]
 [0.3        1.90426439]
 [0.32341667 1.97036362]]",1,0.908
8731029739,f,22,english,5,3,english,2024-01-25 10:40:30.331193,False,2,283,sounds\english\audio/english_888.wav,"[[  0.         -75.11317729]
 [  0.1        -15.41916561]
 [  0.2         30.82770832]
 [  0.3         69.72581111]
 [  0.32341667 -21.6620698 ]]","[[0.         0.15619421]
 [0.1        1.45351631]
 [0.2        1.60154734]
 [0.3        1.09787436]
 [0.32341667 1.3760261 ]]",0,2.246
8731029739,f,22,english,5,3,english,2024-01-25 10:40:30.331193,False,2,284,sounds\english\audio/english_935.wav,"[[  0.          64.39543101]
 [  0.1         86.95314533]
 [  0.2        -18.93400703]
 [  0.3         36.25821345]
 [  0.32341667 -52.75689815]]","[[0.         0.53440609]
 [0.1        0.5847186 ]
 [0.2        0.87093815]
 [0.3        1.35336039]
 [0.32341667 1.46825192]]",0,0.703
8731029739,f,22,english,5,3,english,2024-01-25 10:40:30.331193,False,2,285,sounds\english\audio/english_756.wav,"[[  0.         -75.60908863]
 [  0.1         -4.30259752]
 [  0.2         20.94377522]
 [  0.3         10.45062111]
 [  0.32341667  86.50209298]]","[[0.         1.29894989]
 [0.1        0.61363685]
 [0.2        1.41793961]
 [0.3        1.73528762]
 [0.32341667 0.4791473 ]]",0,0.594
8731029739,f,22,english,5,3,english,2024-01-25 10:40:30.331193,False,2,286,sounds\english\audio/english_475.wav,"[[  0.         -68.25626322]
 [  0.1        -56.46648788]
 [  0.2         49.77560279]
 [  0.3        -41.74178488]
 [  0.32341667 -60.3255454 ]]","[[0.         0.40988158]
 [0.1        1.90107213]
 [0.2        0.54721615]
 [0.3        1.80730726]
 [0.32341667 0.11427958]]",0,0.564
8731029739,f,22,english,5,3,english,2024-01-25 10:40:30.331193,False,2,287,sounds\english\audio/english_334.wav,"[[  0.         -67.45724149]
 [  0.1         -9.29085452]
 [  0.2        -52.27794836]
 [  0.3         97.74689659]
 [  0.32341667  69.13668576]]","[[0.         1.41500124]
 [0.1        1.93519658]
 [0.2        1.67457228]
 [0.3        1.80763723]
 [0.32341667 0.68141016]]",0,2.675
8731029739,f,22,english,5,3,english,2024-01-25 10:40:30.331193,False,2,288,sounds\english\audio/english_437.wav,"[[  0.          61.91803223]
 [  0.1          0.99543568]
 [  0.2        -50.96874522]
 [  0.3        -47.73319396]
 [  0.32341667  15.35939938]]","[[0.         0.36516876]
 [0.1        0.43500315]
 [0.2        1.25398366]
 [0.3        0.60570222]
 [0.32341667 0.97208355]]",0,0.928
8731029739,f,22,english,5,3,english,2024-01-25 10:40:30.331193,False,2,289,sounds\english\audio/english_540.wav,"[[  0.         -46.6752609 ]
 [  0.1        -93.20209644]
 [  0.2         64.96419662]
 [  0.3        -12.16484387]
 [  0.32341667 -44.34688232]]","[[0.         1.16352469]
 [0.1        0.0234781 ]
 [0.2        0.05926191]
 [0.3        1.47406284]
 [0.32341667 0.60104864]]",0,5.09
8731029739,f,22,english,5,3,english,2024-01-25 10:40:30.331193,False,2,290,sounds\english\audio/english_982.wav,"[[  0.          12.44046596]
 [  0.1        -60.41666302]
 [  0.2        -35.31499742]
 [  0.3        -10.96739076]
 [  0.32341667  44.50624474]]","[[0.         0.81508625]
 [0.1        0.92712357]
 [0.2        0.77678916]
 [0.3        1.0294352 ]
 [0.32341667 1.1322674 ]]",0,0.426
8731029739,f,22,english,5,3,english,2024-01-25 10:40:30.331193,False,2,291,sounds\english\audio/english_798.wav,"[[  0.         -16.40769998]
 [  0.1          3.00381127]
 [  0.2        -31.24410556]
 [  0.3        -53.27973877]
 [  0.32341667  91.43563813]]","[[0.         1.85457914]
 [0.1        1.50219522]
 [0.2        0.78751403]
 [0.3        1.17339142]
 [0.32341667 1.30184409]]",0,0.332
8731029739,f,22,english,5,3,english,2024-01-25 10:40:30.331193,False,2,292,sounds\english\audio/english_772.wav,"[[  0.         -76.23750274]
 [  0.1         54.42820472]
 [  0.2         26.41325181]
 [  0.3         14.10037165]
 [  0.32341667 -75.83605273]]","[[0.         0.54712598]
 [0.1        1.66698734]
 [0.2        1.761061  ]
 [0.3        1.80899506]
 [0.32341667 1.29882268]]",0,1.049
8731029739,f,22,english,5,3,english,2024-01-25 10:40:30.331193,False,2,293,sounds\english\audio/english_931.wav,"[[  0.         -78.99767873]
 [  0.1        -34.67093685]
 [  0.2          2.25144273]
 [  0.3        -93.87287365]
 [  0.32341667  57.8562517 ]]","[[0.         0.72988395]
 [0.1        1.40858855]
 [0.2        1.82787629]
 [0.3        1.51045502]
 [0.32341667 1.42241625]]",1,2.149
8731029739,f,22,english,5,3,english,2024-01-25 10:40:30.331193,False,2,294,sounds\english\audio/english_801.wav,"[[  0.          66.50571345]
 [  0.1        -53.03260979]
 [  0.2         -3.89459646]
 [  0.3          8.32951864]
 [  0.32341667 -87.46806733]]","[[0.         0.19311528]
 [0.1        0.48683601]
 [0.2        1.16293258]
 [0.3        1.55734707]
 [0.32341667 0.63471681]]",0,2.699
8731029739,f,22,english,5,3,english,2024-01-25 10:40:30.331193,False,2,295,sounds\english\audio/english_375.wav,"[[  0.          18.096335  ]
 [  0.1        -55.77885891]
 [  0.2        -79.80603762]
 [  0.3        -57.7566014 ]
 [  0.32341667  74.14673873]]","[[0.         0.30735121]
 [0.1        1.17808606]
 [0.2        1.03107785]
 [0.3        0.46519988]
 [0.32341667 1.41875211]]",0,0.757
8731029739,f,22,english,5,3,english,2024-01-25 10:40:30.331193,False,2,296,sounds\english\audio/english_811.wav,"[[  0.         -51.03425556]
 [  0.1         22.81695275]
 [  0.2         73.06623682]
 [  0.3         -9.17693151]
 [  0.32341667  79.97760745]]","[[0.         1.55055496]
 [0.1        1.74830484]
 [0.2        1.24661488]
 [0.3        0.09792889]
 [0.32341667 0.03735929]]",0,1.486
8731029739,f,22,english,5,3,english,2024-01-25 10:40:30.331193,False,2,297,sounds\english\audio/english_489.wav,"[[  0.           5.7057461 ]
 [  0.1        -88.87009038]
 [  0.2         73.69789316]
 [  0.3          8.66804208]
 [  0.32341667 -19.53009002]]","[[0.         0.60142671]
 [0.1        1.38499056]
 [0.2        0.38073994]
 [0.3        0.90212706]
 [0.32341667 1.00729778]]",0,0.897
8731029739,f,22,english,5,3,english,2024-01-25 10:40:30.331193,False,2,298,sounds\english\audio/english_631.wav,"[[  0.         -74.37700429]
 [  0.1        -18.72790858]
 [  0.2        -40.03216697]
 [  0.3        -98.5967418 ]
 [  0.32341667 -41.89017921]]","[[0.         0.77307226]
 [0.1        0.75923189]
 [0.2        1.00825659]
 [0.3        1.46579839]
 [0.32341667 0.34107994]]",1,1.089
8731029739,f,22,english,5,3,english,2024-01-25 10:40:30.331193,False,2,299,sounds\english\audio/english_999.wav,"[[  0.         -43.88463807]
 [  0.1        -19.69329198]
 [  0.2        -16.47401585]
 [  0.3        -27.91485083]
 [  0.32341667 -38.65265262]]","[[0.         1.5561212 ]
 [0.1        1.76032244]
 [0.2        0.67323911]
 [0.3        0.0725875 ]
 [0.32341667 0.89314247]]",0,0.617
8731029739,f,22,english,5,3,english,2024-01-25 10:40:30.331193,False,2,300,sounds\english\audio/english_168.wav,"[[  0.         -69.10300998]
 [  0.1        -24.44784794]
 [  0.2         35.31321785]
 [  0.3        -41.77498511]
 [  0.32341667  19.92389913]]","[[0.         1.14537751]
 [0.1        1.06854972]
 [0.2        0.45192262]
 [0.3        0.2846318 ]
 [0.32341667 0.9853942 ]]",0,0.947
8731029739,f,22,english,5,3,english,2024-01-25 10:40:30.331193,False,2,301,sounds\english\audio/english_539.wav,"[[  0.         -67.77604021]
 [  0.1         61.22104537]
 [  0.2         38.09257369]
 [  0.3        -20.76875757]
 [  0.32341667 -47.71444482]]","[[0.         0.83598486]
 [0.1        1.51877163]
 [0.2        1.73578169]
 [0.3        0.52680037]
 [0.32341667 1.99278149]]",1,1.384
8731029739,f,22,english,5,3,english,2024-01-25 10:40:30.331193,False,2,302,sounds\english\audio/english_321.wav,"[[ 0.          2.07721816]
 [ 0.1        59.48735819]
 [ 0.2        64.78149714]
 [ 0.3        65.58393414]
 [ 0.32341667 14.66673939]]","[[0.         1.69623759]
 [0.1        1.35736687]
 [0.2        1.92920457]
 [0.3        0.66559077]
 [0.32341667 1.66523208]]",0,1.597
8731029739,f,22,english,5,3,english,2024-01-25 10:40:30.331193,False,2,303,sounds\english\audio/english_369.wav,"[[  0.         -12.14177447]
 [  0.1         76.29699147]
 [  0.2        -85.49552365]
 [  0.3        -68.94608988]
 [  0.32341667  40.32615784]]","[[0.         1.64093778]
 [0.1        1.47479283]
 [0.2        1.31757561]
 [0.3        1.92077404]
 [0.32341667 1.4628922 ]]",0,1.231
8731029739,f,22,english,5,3,english,2024-01-25 10:40:30.331193,False,2,304,sounds\english\audio/english_151.wav,"[[  0.          -8.78950662]
 [  0.1         -1.70650264]
 [  0.2        -17.50286784]
 [  0.3         88.78233286]
 [  0.32341667  55.08117545]]","[[0.         1.36403682]
 [0.1        1.76375426]
 [0.2        1.43087438]
 [0.3        1.18017331]
 [0.32341667 1.30400061]]",0,2.281
8731029739,f,22,english,5,3,english,2024-01-25 10:40:30.331193,False,2,305,sounds\english\audio/english_687.wav,"[[  0.          86.90300909]
 [  0.1         79.71843279]
 [  0.2         34.94433723]
 [  0.3        -45.53952821]
 [  0.32341667  63.0204093 ]]","[[0.         0.475784  ]
 [0.1        0.40603367]
 [0.2        0.97706088]
 [0.3        0.65075382]
 [0.32341667 0.93918167]]",0,2.564
8731029739,f,22,english,5,3,english,2024-01-25 10:40:30.331193,False,2,306,sounds\english\audio/english_747.wav,"[[  0.         -77.73977436]
 [  0.1        -18.96284798]
 [  0.2        -36.55549612]
 [  0.3         89.20291952]
 [  0.32341667 -97.78574386]]","[[0.         1.00478752]
 [0.1        0.15717617]
 [0.2        1.90654565]
 [0.3        0.7651101 ]
 [0.32341667 0.92755825]]",0,0.708
8731029739,f,22,english,5,3,english,2024-01-25 10:40:30.331193,False,2,307,sounds\english\audio/english_716.wav,"[[  0.         -41.01159081]
 [  0.1        -51.78631031]
 [  0.2        -25.7252513 ]
 [  0.3         78.18950514]
 [  0.32341667 -26.78025651]]","[[0.         1.70683796]
 [0.1        1.57787804]
 [0.2        1.76538287]
 [0.3        1.34280163]
 [0.32341667 1.89346788]]",0,1.993
8731029739,f,22,english,5,3,english,2024-01-25 10:40:30.331193,False,2,308,sounds\english\audio/english_430.wav,"[[  0.          72.23510535]
 [  0.1         -9.56156918]
 [  0.2         36.71559936]
 [  0.3        -33.55254317]
 [  0.32341667 -25.71861109]]","[[0.         0.8682214 ]
 [0.1        0.26781202]
 [0.2        1.38873793]
 [0.3        0.29076709]
 [0.32341667 0.30869259]]",0,1.553
8731029739,f,22,english,5,3,english,2024-01-25 10:40:30.331193,False,2,309,sounds\english\audio/english_983.wav,"[[  0.          32.38711768]
 [  0.1        -65.51600844]
 [  0.2         12.03576385]
 [  0.3        -64.14785636]
 [  0.32341667 -72.48499617]]","[[0.         0.79408654]
 [0.1        1.57845546]
 [0.2        1.23356187]
 [0.3        0.65581831]
 [0.32341667 0.27936162]]",0,2.038
8731029739,f,22,english,5,3,english,2024-01-25 10:40:30.331193,False,2,310,sounds\english\audio/english_208.wav,"[[  0.         -16.36413188]
 [  0.1         25.67725806]
 [  0.2         15.43722313]
 [  0.3        -39.3158007 ]
 [  0.32341667  38.48956167]]","[[0.         1.19542909]
 [0.1        0.42717457]
 [0.2        1.01088833]
 [0.3        1.09044814]
 [0.32341667 1.60091335]]",0,1.295
8731029739,f,22,english,5,3,english,2024-01-25 10:40:30.331193,False,2,311,sounds\english\audio/english_486.wav,"[[  0.          31.41997184]
 [  0.1         58.03480486]
 [  0.2        -62.84801238]
 [  0.3         10.62451678]
 [  0.32341667  10.31835057]]","[[0.         1.22599644]
 [0.1        1.4547445 ]
 [0.2        0.27967606]
 [0.3        0.02065399]
 [0.32341667 0.3128479 ]]",0,0.88
8731029739,f,22,english,5,3,english,2024-01-25 10:40:30.331193,False,2,312,sounds\english\audio/english_360.wav,"[[  0.         -50.57937638]
 [  0.1        -29.22164644]
 [  0.2        -88.45421248]
 [  0.3         93.68039656]
 [  0.32341667  -2.59092547]]","[[0.         0.73788637]
 [0.1        0.6487653 ]
 [0.2        0.73193848]
 [0.3        1.75347372]
 [0.32341667 1.19277037]]",0,1.101
8731029739,f,22,english,5,3,english,2024-01-25 10:40:30.331193,False,2,313,sounds\english\audio/english_766.wav,"[[  0.         -86.57417509]
 [  0.1        -67.75686223]
 [  0.2         74.21258041]
 [  0.3         65.20164426]
 [  0.32341667 -26.41371036]]","[[0.         1.21737292]
 [0.1        1.61484435]
 [0.2        1.47872362]
 [0.3        1.81064247]
 [0.32341667 1.37776493]]",0,0.19
8731029739,f,22,english,5,3,english,2024-01-25 10:40:30.331193,False,2,314,sounds\english\audio/english_283.wav,"[[  0.         -27.01977409]
 [  0.1        -58.6063919 ]
 [  0.2         36.15867228]
 [  0.3        -77.91689069]
 [  0.32341667 -77.99680679]]","[[0.         1.23470843]
 [0.1        0.41737987]
 [0.2        0.64455365]
 [0.3        1.80541824]
 [0.32341667 1.86024907]]",0,0.844
8731029739,f,22,english,5,3,english,2024-01-25 10:40:30.331193,False,2,315,sounds\english\audio/english_151.wav,"[[  0.          -8.78950662]
 [  0.1         -1.70650264]
 [  0.2        -17.50286784]
 [  0.3         88.78233286]
 [  0.32341667  55.08117545]]","[[0.         1.36403682]
 [0.1        1.76375426]
 [0.2        1.43087438]
 [0.3        1.18017331]
 [0.32341667 1.30400061]]",0,0.62
8731029739,f,22,english,5,3,english,2024-01-25 10:40:30.331193,False,2,316,sounds\english\audio/english_722.wav,"[[  0.          56.33358757]
 [  0.1        -63.11389498]
 [  0.2         65.64746862]
 [  0.3        -93.10605514]
 [  0.32341667 -45.92743551]]","[[0.         0.09194264]
 [0.1        1.89550133]
 [0.2        0.18403216]
 [0.3        1.23223326]
 [0.32341667 0.28331892]]",0,1.649
8731029739,f,22,english,5,3,english,2024-01-25 10:40:30.331193,False,2,317,sounds\english\audio/english_29.wav,"[[  0.          -2.71310826]
 [  0.1         17.7201972 ]
 [  0.2        -20.17501418]
 [  0.3         12.48271646]
 [  0.32341667  29.42079391]]","[[0.         1.50712016]
 [0.1        0.83644439]
 [0.2        0.76078741]
 [0.3        0.17009155]
 [0.32341667 1.26727983]]",0,0.935
8731029739,f,22,english,5,3,english,2024-01-25 10:40:30.331193,False,2,318,sounds\english\audio/english_278.wav,"[[  0.         -49.55521664]
 [  0.1         60.24292507]
 [  0.2         34.32984246]
 [  0.3         91.69210883]
 [  0.32341667  78.84715657]]","[[0.         0.96598769]
 [0.1        1.32709354]
 [0.2        0.84496159]
 [0.3        1.50157491]
 [0.32341667 1.85534648]]",0,0.256
8731029739,f,22,english,5,3,english,2024-01-25 10:40:30.331193,False,2,319,sounds\english\audio/english_412.wav,"[[  0.         -82.38375592]
 [  0.1        -35.89348303]
 [  0.2        -78.50422887]
 [  0.3          8.19618882]
 [  0.32341667  88.30694734]]","[[0.         0.41347899]
 [0.1        0.05505218]
 [0.2        1.28972039]
 [0.3        0.97331843]
 [0.32341667 0.22558246]]",0,1.993
8731029739,f,22,english,5,3,english,2024-01-25 10:40:30.331193,False,2,320,sounds\english\audio/english_8.wav,"[[  0.         -11.83025711]
 [  0.1          8.7470631 ]
 [  0.2        -15.41843982]
 [  0.3        -87.7437633 ]
 [  0.32341667 -40.85253846]]","[[0.         1.51300734]
 [0.1        0.24000547]
 [0.2        1.17952525]
 [0.3        1.57032258]
 [0.32341667 0.7584977 ]]",0,0.426
8731029739,f,22,english,5,3,english,2024-01-25 10:40:30.331193,False,2,321,sounds\english\audio/english_337.wav,"[[  0.          17.21863108]
 [  0.1        -16.30098312]
 [  0.2         70.17733319]
 [  0.3         -7.16478631]
 [  0.32341667 -84.96176299]]","[[0.         0.02346696]
 [0.1        1.2349353 ]
 [0.2        1.07823504]
 [0.3        1.83339424]
 [0.32341667 1.87583376]]",0,0.954
8731029739,f,22,english,5,3,english,2024-01-25 10:40:30.331193,False,2,322,sounds\english\audio/english_152.wav,"[[  0.         -21.97873044]
 [  0.1         85.66675034]
 [  0.2        -66.57447909]
 [  0.3        -33.8772441 ]
 [  0.32341667 -46.50239179]]","[[0.         1.75752799]
 [0.1        1.21467008]
 [0.2        0.82299352]
 [0.3        0.48869868]
 [0.32341667 0.31705885]]",0,0.385
8731029739,f,22,english,5,3,english,2024-01-25 10:40:30.331193,False,2,323,sounds\english\audio/english_61.wav,"[[  0.         -58.73450167]
 [  0.1        -68.77732169]
 [  0.2        -61.07430116]
 [  0.3        -87.12791991]
 [  0.32341667  47.32358741]]","[[0.         1.5196582 ]
 [0.1        0.79346499]
 [0.2        0.90548432]
 [0.3        1.71431728]
 [0.32341667 0.57778581]]",0,0.812
8731029739,f,22,english,5,3,english,2024-01-25 10:40:30.331193,False,2,324,sounds\english\audio/english_94.wav,"[[  0.         -78.50776969]
 [  0.1         21.81048112]
 [  0.2         76.78230264]
 [  0.3        -35.62145712]
 [  0.32341667 -71.39427505]]","[[0.         1.58967719]
 [0.1        0.88841047]
 [0.2        1.12549424]
 [0.3        1.80621507]
 [0.32341667 1.00879957]]",0,1.358
8731029739,f,22,english,5,3,english,2024-01-25 10:40:30.331193,False,2,325,sounds\english\audio/english_546.wav,"[[ 0.         81.21590514]
 [ 0.1        75.01018689]
 [ 0.2        15.56226302]
 [ 0.3        48.30886192]
 [ 0.32341667 18.80923499]]","[[0.         1.56657823]
 [0.1        0.84038259]
 [0.2        0.00684501]
 [0.3        1.68157273]
 [0.32341667 1.09409739]]",1,1.205
8731029739,f,22,english,5,3,english,2024-01-25 10:40:30.331193,False,2,326,sounds\english\audio/english_677.wav,"[[  0.          74.92499355]
 [  0.1         35.44886391]
 [  0.2          3.82146975]
 [  0.3         10.3543008 ]
 [  0.32341667 -53.94170103]]","[[0.         0.4070184 ]
 [0.1        0.82737557]
 [0.2        0.46436239]
 [0.3        1.40426898]
 [0.32341667 1.42138659]]",0,0.774
8731029739,f,22,english,5,3,english,2024-01-25 10:40:30.331193,False,2,327,sounds\english\audio/english_695.wav,"[[  0.         -74.02191529]
 [  0.1         54.28596986]
 [  0.2        -13.22196683]
 [  0.3          1.82272444]
 [  0.32341667 -11.74905262]]","[[0.         1.19534619]
 [0.1        0.93917139]
 [0.2        0.1241488 ]
 [0.3        1.20091234]
 [0.32341667 0.46222147]]",0,0.347
8731029739,f,22,english,5,3,english,2024-01-25 10:40:30.331193,False,2,328,sounds\english\audio/english_383.wav,"[[  0.          -1.49759031]
 [  0.1         48.0809444 ]
 [  0.2        -84.09524499]
 [  0.3         95.23220486]
 [  0.32341667  64.91086902]]","[[0.         0.61403304]
 [0.1        0.69225556]
 [0.2        0.33452268]
 [0.3        1.06792504]
 [0.32341667 0.58483827]]",0,0.44
8731029739,f,22,english,5,3,english,2024-01-25 10:40:30.331193,False,2,329,sounds\english\audio/english_332.wav,"[[  0.         -51.41680869]
 [  0.1          4.985172  ]
 [  0.2         88.20327684]
 [  0.3        -58.40734817]
 [  0.32341667  68.30800912]]","[[0.         1.58782391]
 [0.1        0.72138411]
 [0.2        1.12265768]
 [0.3        0.23569111]
 [0.32341667 1.23583309]]",0,0.445
8731029739,f,22,english,5,3,english,2024-01-25 10:40:30.331193,False,2,330,sounds\english\audio/english_523.wav,"[[ 0.          8.07414344]
 [ 0.1        27.61667564]
 [ 0.2        12.25175146]
 [ 0.3         5.7333769 ]
 [ 0.32341667 77.72310536]]","[[0.         0.20594791]
 [0.1        1.87511385]
 [0.2        0.19246655]
 [0.3        0.42766967]
 [0.32341667 1.43882185]]",0,1.307
8731029739,f,22,english,5,3,english,2024-01-25 10:40:30.331193,False,2,331,sounds\english\audio/english_275.wav,"[[  0.          -1.14725012]
 [  0.1        -90.43848863]
 [  0.2        -40.03711279]
 [  0.3        -29.12549604]
 [  0.32341667  77.33253221]]","[[0.         0.71691039]
 [0.1        0.74614953]
 [0.2        1.94843862]
 [0.3        0.32495742]
 [0.32341667 0.61649877]]",0,0.82
8731029739,f,22,english,5,3,english,2024-01-25 10:40:30.331193,False,2,332,sounds\english\audio/english_588.wav,"[[  0.          99.95047602]
 [  0.1          6.8401109 ]
 [  0.2        -15.9093749 ]
 [  0.3        -95.80500507]
 [  0.32341667  23.59255786]]","[[0.         0.54608042]
 [0.1        0.86340392]
 [0.2        0.01522231]
 [0.3        0.86017392]
 [0.32341667 0.36914066]]",0,2.895
8731029739,f,22,english,5,3,english,2024-01-25 10:40:30.331193,False,2,333,sounds\english\audio/english_90.wav,"[[  0.          82.68866707]
 [  0.1        -81.25370946]
 [  0.2         56.28719083]
 [  0.3        -46.43338119]
 [  0.32341667 -19.93520327]]","[[0.         0.54239523]
 [0.1        1.03335699]
 [0.2        1.93576477]
 [0.3        0.74570916]
 [0.32341667 1.11115504]]",0,2.849
8731029739,f,22,english,5,3,english,2024-01-25 10:40:30.331193,False,2,334,sounds\english\audio/english_52.wav,"[[  0.          54.63859099]
 [  0.1        -85.67195477]
 [  0.2          2.4878885 ]
 [  0.3         86.13143505]
 [  0.32341667 -53.30399902]]","[[0.         0.91426261]
 [0.1        1.20728413]
 [0.2        0.71733995]
 [0.3        1.54149443]
 [0.32341667 1.3376245 ]]",0,0.388
8731029739,f,22,english,5,3,english,2024-01-25 10:40:30.331193,False,2,335,sounds\english\audio/english_668.wav,"[[ 0.         48.8265236 ]
 [ 0.1        97.68090991]
 [ 0.2        47.50182685]
 [ 0.3        81.7432518 ]
 [ 0.32341667 28.08178094]]","[[0.         0.43768829]
 [0.1        0.31983773]
 [0.2        1.24438546]
 [0.3        0.49120307]
 [0.32341667 0.60639718]]",0,1.465
8731029739,f,22,english,5,3,english,2024-01-25 10:40:30.331193,False,2,336,sounds\english\audio/english_208.wav,"[[  0.         -16.36413188]
 [  0.1         25.67725806]
 [  0.2         15.43722313]
 [  0.3        -39.3158007 ]
 [  0.32341667  38.48956167]]","[[0.         1.19542909]
 [0.1        0.42717457]
 [0.2        1.01088833]
 [0.3        1.09044814]
 [0.32341667 1.60091335]]",0,4.189
8731029739,f,22,english,5,3,english,2024-01-25 10:40:30.331193,False,2,337,sounds\english\audio/english_312.wav,"[[  0.          44.01610098]
 [  0.1        -34.76139374]
 [  0.2        -43.47986862]
 [  0.3         -9.79517271]
 [  0.32341667  85.48914895]]","[[0.         1.36033213]
 [0.1        0.08557756]
 [0.2        1.06509633]
 [0.3        0.67257935]
 [0.32341667 0.12614926]]",1,1.093
8731029739,f,22,english,5,3,english,2024-01-25 10:40:30.331193,False,2,338,sounds\english\audio/english_552.wav,"[[  0.         -54.22317773]
 [  0.1         23.75537749]
 [  0.2        -67.43154965]
 [  0.3        -83.62242399]
 [  0.32341667  64.2322812 ]]","[[0.         0.14479657]
 [0.1        1.96762023]
 [0.2        0.75812729]
 [0.3        0.84420129]
 [0.32341667 0.73382384]]",0,3.36
8731029739,f,22,english,5,3,english,2024-01-25 10:40:30.331193,False,2,339,sounds\english\audio/english_545.wav,"[[  0.          42.99494118]
 [  0.1         72.53025652]
 [  0.2          4.60849844]
 [  0.3          9.93291538]
 [  0.32341667 -11.25611892]]","[[0.         1.37740168]
 [0.1        0.91972232]
 [0.2        0.73226975]
 [0.3        1.52934768]
 [0.32341667 0.18478607]]",0,0.366
8731029739,f,22,english,5,3,english,2024-01-25 10:40:30.331193,False,2,340,sounds\english\audio/english_438.wav,"[[ 0.         31.75305261]
 [ 0.1        20.27112767]
 [ 0.2        66.65258945]
 [ 0.3        70.72003494]
 [ 0.32341667 59.11013505]]","[[0.         1.38451981]
 [0.1        1.99020027]
 [0.2        0.15645945]
 [0.3        1.37678514]
 [0.32341667 0.82730153]]",0,0.258
8731029739,f,22,english,5,3,english,2024-01-25 10:40:30.331193,False,2,341,sounds\english\audio/english_828.wav,"[[  0.          51.6479082 ]
 [  0.1         37.62818293]
 [  0.2         55.79615955]
 [  0.3         31.91979646]
 [  0.32341667 -22.21091203]]","[[0.         0.4417702 ]
 [0.1        1.22957458]
 [0.2        0.69909727]
 [0.3        1.572544  ]
 [0.32341667 0.87669833]]",0,0.646
8731029739,f,22,english,5,3,english,2024-01-25 10:40:30.331193,False,2,342,sounds\english\audio/english_631.wav,"[[  0.         -74.37700429]
 [  0.1        -18.72790858]
 [  0.2        -40.03216697]
 [  0.3        -98.5967418 ]
 [  0.32341667 -41.89017921]]","[[0.         0.77307226]
 [0.1        0.75923189]
 [0.2        1.00825659]
 [0.3        1.46579839]
 [0.32341667 0.34107994]]",0,0.372
8731029739,f,22,english,5,3,english,2024-01-25 10:40:30.331193,False,2,343,sounds\english\audio/english_170.wav,"[[ 0.          6.45066022]
 [ 0.1        -4.11198278]
 [ 0.2        96.59136675]
 [ 0.3        21.57070742]
 [ 0.32341667 94.47980818]]","[[0.         1.58910722]
 [0.1        0.3365331 ]
 [0.2        0.38643451]
 [0.3        1.58623933]
 [0.32341667 1.61968164]]",0,0.48
8731029739,f,22,english,5,3,english,2024-01-25 10:40:30.331193,False,2,344,sounds\english\audio/english_536.wav,"[[  0.          19.16157828]
 [  0.1        -70.44875328]
 [  0.2          9.3844651 ]
 [  0.3         54.79833109]
 [  0.32341667 -43.58683919]]","[[0.         1.0914138 ]
 [0.1        1.55996729]
 [0.2        1.22014226]
 [0.3        0.24268308]
 [0.32341667 1.12643869]]",0,0.442
8731029739,f,22,english,5,3,english,2024-01-25 10:40:30.331193,False,2,345,sounds\english\audio/english_730.wav,"[[  0.          12.15035978]
 [  0.1        -56.22765555]
 [  0.2        -53.26534685]
 [  0.3        -25.75230742]
 [  0.32341667 -73.04726616]]","[[0.         0.91227818]
 [0.1        1.17022701]
 [0.2        0.58034143]
 [0.3        1.9562998 ]
 [0.32341667 1.99538846]]",0,4.054
8731029739,f,22,english,5,3,english,2024-01-25 10:40:30.331193,False,2,346,sounds\english\audio/english_430.wav,"[[  0.          72.23510535]
 [  0.1         -9.56156918]
 [  0.2         36.71559936]
 [  0.3        -33.55254317]
 [  0.32341667 -25.71861109]]","[[0.         0.8682214 ]
 [0.1        0.26781202]
 [0.2        1.38873793]
 [0.3        0.29076709]
 [0.32341667 0.30869259]]",0,0.751
8731029739,f,22,english,5,3,english,2024-01-25 10:40:30.331193,False,2,347,sounds\english\audio/english_613.wav,"[[  0.         -12.80235787]
 [  0.1         38.67858639]
 [  0.2         21.08834288]
 [  0.3         94.81469787]
 [  0.32341667  18.45506868]]","[[0.         0.8409713 ]
 [0.1        0.30410002]
 [0.2        0.031636  ]
 [0.3        1.79222997]
 [0.32341667 1.98455664]]",0,1.006
8731029739,f,22,english,5,3,english,2024-01-25 10:40:30.331193,False,2,348,sounds\english\audio/english_239.wav,"[[  0.          87.44943986]
 [  0.1         50.09814929]
 [  0.2        -20.91132269]
 [  0.3          1.56869958]
 [  0.32341667  15.23790706]]","[[0.         1.42022081]
 [0.1        0.64261102]
 [0.2        0.17156284]
 [0.3        1.89365974]
 [0.32341667 1.86939691]]",0,0.285
8731029739,f,22,english,5,3,english,2024-01-25 10:40:30.331193,False,2,349,sounds\english\audio/english_544.wav,"[[  0.          96.80704334]
 [  0.1         70.5198752 ]
 [  0.2         78.21609099]
 [  0.3        -95.7752672 ]
 [  0.32341667 -56.58918052]]","[[0.         1.85115917]
 [0.1        0.8718407 ]
 [0.2        1.82238935]
 [0.3        0.25719172]
 [0.32341667 0.72929157]]",0,0.963
8731029739,f,22,english,5,3,english,2024-01-25 10:40:30.331193,False,2,350,sounds\english\audio/english_942.wav,"[[  0.          96.26286183]
 [  0.1        -96.45992778]
 [  0.2         50.93322043]
 [  0.3         14.6207779 ]
 [  0.32341667   7.19296333]]","[[0.         1.14976657]
 [0.1        0.962364  ]
 [0.2        0.99280793]
 [0.3        1.92237923]
 [0.32341667 1.02094568]]",0,0.555
8731029739,f,22,english,5,3,english,2024-01-25 10:40:30.331193,False,2,351,sounds\english\audio/english_414.wav,"[[ 0.         19.47839865]
 [ 0.1        59.9490877 ]
 [ 0.2        22.33981162]
 [ 0.3        18.97426154]
 [ 0.32341667 15.16306506]]","[[0.         0.9434816 ]
 [0.1        1.1146936 ]
 [0.2        0.48476454]
 [0.3        0.23554241]
 [0.32341667 1.13007685]]",0,1.411
8731029739,f,22,english,5,3,english,2024-01-25 10:40:30.331193,False,2,352,sounds\english\audio/english_977.wav,"[[  0.          63.46196139]
 [  0.1        -23.64022125]
 [  0.2         31.65242203]
 [  0.3         16.19881364]
 [  0.32341667 -33.08554183]]","[[0.         0.87194913]
 [0.1        1.67919547]
 [0.2        0.97011806]
 [0.3        1.40431802]
 [0.32341667 1.02563167]]",0,1.735
8731029739,f,22,english,5,3,english,2024-01-25 10:40:30.331193,False,2,353,sounds\english\audio/english_906.wav,"[[  0.         -40.48589107]
 [  0.1         47.48995475]
 [  0.2        -46.73743802]
 [  0.3        -97.96557374]
 [  0.32341667  18.48293991]]","[[0.         1.22436898]
 [0.1        1.54823641]
 [0.2        1.02590908]
 [0.3        1.74877791]
 [0.32341667 0.76585735]]",0,0.904
8731029739,f,22,english,5,3,english,2024-01-25 10:40:30.331193,False,2,354,sounds\english\audio/english_691.wav,"[[  0.          28.79078449]
 [  0.1         99.1184909 ]
 [  0.2        -54.13985733]
 [  0.3        -85.36319246]
 [  0.32341667 -73.61621094]]","[[0.         1.07683297]
 [0.1        1.07376069]
 [0.2        0.28522735]
 [0.3        0.85701066]
 [0.32341667 1.71165398]]",0,1.306
8731029739,f,22,english,5,3,english,2024-01-25 10:40:30.331193,False,2,355,sounds\english\audio/english_315.wav,"[[  0.           3.76150079]
 [  0.1          4.93204799]
 [  0.2        -81.53480532]
 [  0.3         45.94577355]
 [  0.32341667 -55.96194099]]","[[0.         1.04293113]
 [0.1        0.55537984]
 [0.2        1.13024782]
 [0.3        1.06792043]
 [0.32341667 1.80369969]]",0,1.681
8731029739,f,22,english,5,3,english,2024-01-25 10:40:30.331193,False,2,356,sounds\english\audio/english_397.wav,"[[  0.          89.67962381]
 [  0.1        -80.29722345]
 [  0.2         60.53564011]
 [  0.3          9.94565725]
 [  0.32341667   0.1319882 ]]","[[0.         0.42719638]
 [0.1        0.89466904]
 [0.2        0.56174568]
 [0.3        0.1553242 ]
 [0.32341667 1.89079641]]",1,1.255
8731029739,f,22,english,5,3,english,2024-01-25 10:40:30.331193,False,2,357,sounds\english\audio/english_189.wav,"[[  0.         -22.70456848]
 [  0.1        -12.00888723]
 [  0.2         15.14046376]
 [  0.3        -19.30106293]
 [  0.32341667 -20.57313834]]","[[0.         0.82906961]
 [0.1        0.58408113]
 [0.2        0.19058783]
 [0.3        0.57788611]
 [0.32341667 0.32577637]]",0,0.49
8731029739,f,22,english,5,3,english,2024-01-25 10:40:30.331193,False,2,358,sounds\english\audio/english_61.wav,"[[  0.         -58.73450167]
 [  0.1        -68.77732169]
 [  0.2        -61.07430116]
 [  0.3        -87.12791991]
 [  0.32341667  47.32358741]]","[[0.         1.5196582 ]
 [0.1        0.79346499]
 [0.2        0.90548432]
 [0.3        1.71431728]
 [0.32341667 0.57778581]]",0,0.226
8731029739,f,22,english,5,3,english,2024-01-25 10:40:30.331193,False,2,359,sounds\english\audio/english_839.wav,"[[  0.          48.1700809 ]
 [  0.1         -8.22030768]
 [  0.2         53.56121636]
 [  0.3          4.54416263]
 [  0.32341667 -19.83463627]]","[[0.         1.1821708 ]
 [0.1        1.15480022]
 [0.2        1.57293091]
 [0.3        0.22310878]
 [0.32341667 0.67140257]]",0,2.942
8731029739,f,22,english,5,3,english,2024-01-25 10:40:30.331193,False,2,360,sounds\english\audio/english_91.wav,"[[  0.         -67.73951944]
 [  0.1         83.83337034]
 [  0.2        -12.75649653]
 [  0.3          5.95502951]
 [  0.32341667  59.56964586]]","[[0.         0.2772338 ]
 [0.1        0.0816757 ]
 [0.2        0.92538416]
 [0.3        0.40714056]
 [0.32341667 1.8717525 ]]",0,1.126
8731029739,f,22,english,5,3,english,2024-01-25 10:40:30.331193,False,2,361,sounds\english\audio/english_366.wav,"[[  0.          30.08929792]
 [  0.1        -17.9139155 ]
 [  0.2        -66.75779592]
 [  0.3         77.64459909]
 [  0.32341667  72.64294537]]","[[0.         0.87054072]
 [0.1        0.34658018]
 [0.2        0.49970414]
 [0.3        1.94720887]
 [0.32341667 1.76390144]]",0,2.151
8731029739,f,22,english,5,3,english,2024-01-25 10:40:30.331193,False,2,362,sounds\english\audio/english_552.wav,"[[  0.         -54.22317773]
 [  0.1         23.75537749]
 [  0.2        -67.43154965]
 [  0.3        -83.62242399]
 [  0.32341667  64.2322812 ]]","[[0.         0.14479657]
 [0.1        1.96762023]
 [0.2        0.75812729]
 [0.3        0.84420129]
 [0.32341667 0.73382384]]",0,1.574
8731029739,f,22,english,5,3,english,2024-01-25 10:40:30.331193,False,2,363,sounds\english\audio/english_192.wav,"[[  0.          78.04280759]
 [  0.1        -85.52188616]
 [  0.2        -14.2601202 ]
 [  0.3         29.76504865]
 [  0.32341667  82.81048791]]","[[0.         0.73118961]
 [0.1        0.7164391 ]
 [0.2        1.68273927]
 [0.3        0.51501418]
 [0.32341667 1.16986294]]",0,1.066
8731029739,f,22,english,5,3,english,2024-01-25 10:40:30.331193,False,2,364,sounds\english\audio/english_55.wav,"[[  0.          71.89255128]
 [  0.1          0.20692224]
 [  0.2        -68.61006599]
 [  0.3         -5.20952515]
 [  0.32341667  28.45991968]]","[[0.         0.24931264]
 [0.1        1.79813092]
 [0.2        0.71729895]
 [0.3        1.28733782]
 [0.32341667 1.77061752]]",0,0.678
8731029739,f,22,english,5,3,english,2024-01-25 10:40:30.331193,False,2,365,sounds\english\audio/english_787.wav,"[[  0.          57.99353047]
 [  0.1        -40.79525362]
 [  0.2         23.78072576]
 [  0.3         72.96982422]
 [  0.32341667  53.76957631]]","[[0.         1.96251481]
 [0.1        0.94444479]
 [0.2        0.924778  ]
 [0.3        0.31383508]
 [0.32341667 0.68947425]]",0,0.723
8731029739,f,22,english,5,3,english,2024-01-25 10:40:30.331193,False,2,366,sounds\english\audio/english_790.wav,"[[  0.          51.18493756]
 [  0.1        -64.70105349]
 [  0.2        -90.57968214]
 [  0.3        -94.64625917]
 [  0.32341667 -38.85953331]]","[[0.         0.66657869]
 [0.1        0.91857876]
 [0.2        1.26779222]
 [0.3        1.54144859]
 [0.32341667 1.32367104]]",0,4.229
8731029739,f,22,english,5,3,english,2024-01-25 10:40:30.331193,False,2,367,sounds\english\audio/english_81.wav,"[[  0.          -8.99652005]
 [  0.1         37.2959996 ]
 [  0.2         56.49217416]
 [  0.3         99.31521879]
 [  0.32341667 -25.36881215]]","[[0.         1.6890162 ]
 [0.1        1.86826101]
 [0.2        0.68929954]
 [0.3        0.22383451]
 [0.32341667 0.930773  ]]",0,3.136
8731029739,f,22,english,5,3,english,2024-01-25 10:40:30.331193,False,2,368,sounds\english\audio/english_98.wav,"[[  0.         -23.07451683]
 [  0.1         58.83766866]
 [  0.2         75.90401246]
 [  0.3        -86.31256295]
 [  0.32341667  26.17624316]]","[[0.         0.55932234]
 [0.1        1.03192869]
 [0.2        1.16154403]
 [0.3        0.50819795]
 [0.32341667 1.94690859]]",1,1.991
8731029739,f,22,english,5,3,english,2024-01-25 10:40:30.331193,False,2,369,sounds\english\audio/english_379.wav,"[[  0.          30.14616912]
 [  0.1        -79.51193423]
 [  0.2          7.34860539]
 [  0.3        -43.99342265]
 [  0.32341667  37.72881761]]","[[0.         1.43961489]
 [0.1        1.4219763 ]
 [0.2        0.62633101]
 [0.3        1.13621958]
 [0.32341667 1.35387794]]",0,1.23
8731029739,f,22,english,5,3,english,2024-01-25 10:40:30.331193,False,2,370,sounds\english\audio/english_851.wav,"[[  0.         -83.90491711]
 [  0.1         92.94065497]
 [  0.2        -63.47542883]
 [  0.3         13.34025436]
 [  0.32341667  32.96474042]]","[[0.         1.65488062]
 [0.1        0.14315595]
 [0.2        0.84481863]
 [0.3        1.9580918 ]
 [0.32341667 0.23608581]]",0,1.034
8731029739,f,22,english,5,3,english,2024-01-25 10:40:30.331193,False,2,371,sounds\english\audio/english_104.wav,"[[  0.          42.44693926]
 [  0.1         82.22484934]
 [  0.2          7.21737924]
 [  0.3         26.54640215]
 [  0.32341667 -33.4974026 ]]","[[0.         0.1741435 ]
 [0.1        0.11379641]
 [0.2        1.60376175]
 [0.3        1.08059257]
 [0.32341667 1.8061622 ]]",0,0.63
8731029739,f,22,english,5,3,english,2024-01-25 10:40:30.331193,False,2,372,sounds\english\audio/english_891.wav,"[[  0.          21.29241244]
 [  0.1         -1.23713702]
 [  0.2        -74.86460599]
 [  0.3         18.81587233]
 [  0.32341667  35.3489582 ]]","[[0.         0.7419472 ]
 [0.1        1.09270952]
 [0.2        0.8129571 ]
 [0.3        0.16019775]
 [0.32341667 1.17476401]]",0,4.098
8731029739,f,22,english,5,3,english,2024-01-25 10:40:30.331193,False,2,373,sounds\english\audio/english_317.wav,"[[  0.         -26.75650792]
 [  0.1          9.07297032]
 [  0.2         17.58512652]
 [  0.3         29.57201507]
 [  0.32341667  56.4667582 ]]","[[0.         1.75672771]
 [0.1        1.82949168]
 [0.2        1.6954519 ]
 [0.3        0.7122411 ]
 [0.32341667 1.26753728]]",0,2.606
8731029739,f,22,english,5,3,english,2024-01-25 10:40:30.331193,False,2,374,sounds\english\audio/english_16.wav,"[[  0.         -86.84797814]
 [  0.1         29.78439304]
 [  0.2         93.37667148]
 [  0.3        -84.28086854]
 [  0.32341667  -8.77302982]]","[[0.         0.47796166]
 [0.1        1.82902446]
 [0.2        1.57835565]
 [0.3        0.98546729]
 [0.32341667 0.88950072]]",0,0.901
8731029739,f,22,english,5,3,english,2024-01-25 10:40:30.331193,False,2,375,sounds\english\audio/english_982.wav,"[[  0.          12.44046596]
 [  0.1        -60.41666302]
 [  0.2        -35.31499742]
 [  0.3        -10.96739076]
 [  0.32341667  44.50624474]]","[[0.         0.81508625]
 [0.1        0.92712357]
 [0.2        0.77678916]
 [0.3        1.0294352 ]
 [0.32341667 1.1322674 ]]",0,1.221
8731029739,f,22,english,5,3,english,2024-01-25 10:40:30.331193,False,2,376,sounds\english\audio/english_431.wav,"[[  0.         -28.91437381]
 [  0.1         30.6479342 ]
 [  0.2         41.25713347]
 [  0.3          9.19018397]
 [  0.32341667 -61.77590044]]","[[0.         1.3282391 ]
 [0.1        1.9405757 ]
 [0.2        1.67607787]
 [0.3        0.62213613]
 [0.32341667 0.50881411]]",0,0.883
8731029739,f,22,english,5,3,english,2024-01-25 10:40:30.331193,False,2,377,sounds\english\audio/english_746.wav,"[[  0.          -1.32395796]
 [  0.1        -67.07117971]
 [  0.2         75.09604974]
 [  0.3        -48.59278454]
 [  0.32341667  -6.52080997]]","[[0.         1.72273729]
 [0.1        1.22961235]
 [0.2        1.29107068]
 [0.3        1.34694816]
 [0.32341667 0.94274536]]",0,0.972
8731029739,f,22,english,5,3,english,2024-01-25 10:40:30.331193,False,2,378,sounds\english\audio/english_776.wav,"[[  0.          29.86548478]
 [  0.1          2.8025705 ]
 [  0.2        -38.4768188 ]
 [  0.3        -89.49838949]
 [  0.32341667  30.18488016]]","[[0.         0.57139857]
 [0.1        1.94435619]
 [0.2        0.3951066 ]
 [0.3        0.29859462]
 [0.32341667 1.93939037]]",0,0.602
8731029739,f,22,english,5,3,english,2024-01-25 10:40:30.331193,False,2,379,sounds\english\audio/english_949.wav,"[[  0.          48.32946721]
 [  0.1         73.83586198]
 [  0.2        -30.27812065]
 [  0.3        -32.50397555]
 [  0.32341667  96.46984971]]","[[0.         1.50413289]
 [0.1        1.55745414]
 [0.2        1.00772566]
 [0.3        0.86702054]
 [0.32341667 1.67836019]]",0,0.945
8731029739,f,22,english,5,3,english,2024-01-25 10:40:30.331193,False,2,380,sounds\english\audio/english_859.wav,"[[  0.          71.31858369]
 [  0.1        -33.60875554]
 [  0.2        -64.15502461]
 [  0.3        -36.22537369]
 [  0.32341667 -23.59955866]]","[[0.         0.11764496]
 [0.1        0.29827778]
 [0.2        0.43254339]
 [0.3        0.12368506]
 [0.32341667 0.97858169]]",0,2.784
8731029739,f,22,english,5,3,english,2024-01-25 10:40:30.331193,False,2,381,sounds\english\audio/english_873.wav,"[[  0.          85.43762199]
 [  0.1        -27.24751419]
 [  0.2         -8.79829555]
 [  0.3        -97.88620301]
 [  0.32341667  49.57089273]]","[[0.         1.00056931]
 [0.1        0.47504393]
 [0.2        0.788147  ]
 [0.3        0.64075463]
 [0.32341667 0.87603086]]",0,1.48
8731029739,f,22,english,5,3,english,2024-01-25 10:40:30.331193,False,2,382,sounds\english\audio/english_287.wav,"[[  0.          -5.71925808]
 [  0.1        -94.78041007]
 [  0.2          8.34641368]
 [  0.3         36.34893025]
 [  0.32341667 -22.47689594]]","[[0.         1.04112926]
 [0.1        0.35149142]
 [0.2        0.86781598]
 [0.3        1.897904  ]
 [0.32341667 0.5607403 ]]",1,0.865
8731029739,f,22,english,5,3,english,2024-01-25 10:40:30.331193,False,2,383,sounds\english\audio/english_184.wav,"[[ 0.         29.65201825]
 [ 0.1        16.48348791]
 [ 0.2         3.77448983]
 [ 0.3        62.87502431]
 [ 0.32341667 -8.82418577]]","[[0.         1.69567788]
 [0.1        1.26735627]
 [0.2        0.95352895]
 [0.3        1.7991474 ]
 [0.32341667 0.98992659]]",0,0.358
8731029739,f,22,english,5,3,english,2024-01-25 10:40:30.331193,False,2,384,sounds\english\audio/english_355.wav,"[[  0.          33.6784286 ]
 [  0.1         30.74796889]
 [  0.2         71.39310534]
 [  0.3         38.16266559]
 [  0.32341667 -39.8799084 ]]","[[0.         1.28512049]
 [0.1        1.04729355]
 [0.2        0.74339822]
 [0.3        0.86152361]
 [0.32341667 1.83215587]]",0,0.579
8731029739,f,22,english,5,3,english,2024-01-25 10:40:30.331193,False,2,385,sounds\english\audio/english_834.wav,"[[  0.         -64.94927172]
 [  0.1         49.61052881]
 [  0.2        -25.04715585]
 [  0.3         95.09819394]
 [  0.32341667  84.16953653]]","[[0.         0.98752234]
 [0.1        1.31122352]
 [0.2        0.09065599]
 [0.3        1.07854905]
 [0.32341667 1.76453498]]",0,0.412
8731029739,f,22,english,5,3,english,2024-01-25 10:40:30.331193,False,2,386,sounds\english\audio/english_322.wav,"[[  0.         -27.28438319]
 [  0.1        -98.66999083]
 [  0.2        -54.08694108]
 [  0.3         -7.3933801 ]
 [  0.32341667  72.49489683]]","[[0.         0.79345249]
 [0.1        0.28651419]
 [0.2        1.26482546]
 [0.3        0.6947791 ]
 [0.32341667 0.74875353]]",0,0.602
8731029739,f,22,english,5,3,english,2024-01-25 10:40:30.331193,False,2,387,sounds\english\audio/english_952.wav,"[[  0.          64.91746033]
 [  0.1        -25.84234774]
 [  0.2         60.30097417]
 [  0.3        -98.0606555 ]
 [  0.32341667 -77.98984902]]","[[0.         1.00586425]
 [0.1        1.28790365]
 [0.2        1.6668124 ]
 [0.3        1.44616756]
 [0.32341667 0.15831209]]",0,0.376
8731029739,f,22,english,5,3,english,2024-01-25 10:40:30.331193,False,2,388,sounds\english\audio/english_615.wav,"[[  0.          76.05955912]
 [  0.1         54.62950786]
 [  0.2        -31.02204933]
 [  0.3         -3.27946314]
 [  0.32341667  51.350795  ]]","[[0.         1.68553334]
 [0.1        1.5058876 ]
 [0.2        1.66676809]
 [0.3        1.09840801]
 [0.32341667 0.25314986]]",0,0.245
8731029739,f,22,english,5,3,english,2024-01-25 10:40:30.331193,False,2,389,sounds\english\audio/english_107.wav,"[[  0.         -19.24931684]
 [  0.1         24.04874113]
 [  0.2         59.01955179]
 [  0.3         49.74315823]
 [  0.32341667 -75.23844627]]","[[0.         0.69122185]
 [0.1        0.13674094]
 [0.2        1.47608642]
 [0.3        1.52525824]
 [0.32341667 0.11985114]]",0,0.727
8731029739,f,22,english,5,3,english,2024-01-25 10:40:30.331193,False,2,390,sounds\english\audio/english_525.wav,"[[  0.         -21.23223701]
 [  0.1          3.49974992]
 [  0.2        -75.71526263]
 [  0.3        -52.87512147]
 [  0.32341667  17.79573657]]","[[0.         1.69398532]
 [0.1        0.25491439]
 [0.2        0.17370365]
 [0.3        0.81797459]
 [0.32341667 0.70176203]]",0,1.407
8731029739,f,22,english,5,3,english,2024-01-25 10:40:30.331193,False,2,391,sounds\english\audio/english_415.wav,"[[  0.          36.00223879]
 [  0.1        -82.63332374]
 [  0.2         57.55038703]
 [  0.3         -9.83064734]
 [  0.32341667 -29.78573939]]","[[0.         1.49199547]
 [0.1        1.79959711]
 [0.2        0.64689267]
 [0.3        0.31881377]
 [0.32341667 0.18568486]]",0,1.911
8731029739,f,22,english,5,3,english,2024-01-25 10:40:30.331193,False,2,392,sounds\english\audio/english_721.wav,"[[  0.          -1.67193172]
 [  0.1         23.81304459]
 [  0.2         94.27532923]
 [  0.3         10.08520391]
 [  0.32341667 -26.68837018]]","[[0.         0.23966059]
 [0.1        1.61361986]
 [0.2        0.58045828]
 [0.3        1.63757532]
 [0.32341667 1.4581473 ]]",0,0.694
8731029739,f,22,english,5,3,english,2024-01-25 10:40:30.331193,False,2,393,sounds\english\audio/english_738.wav,"[[  0.         -37.88087101]
 [  0.1        -16.85966727]
 [  0.2        -79.76891938]
 [  0.3        -82.30918252]
 [  0.32341667  59.65991076]]","[[0.         1.83397703]
 [0.1        1.52099356]
 [0.2        1.69283951]
 [0.3        1.81957343]
 [0.32341667 0.75908376]]",0,1.931
8731029739,f,22,english,5,3,english,2024-01-25 10:40:30.331193,False,2,394,sounds\english\audio/english_854.wav,"[[  0.          -3.2532791 ]
 [  0.1         19.40039505]
 [  0.2        -14.62360686]
 [  0.3        -63.13820282]
 [  0.32341667  44.42181264]]","[[0.         1.78139632]
 [0.1        1.50161717]
 [0.2        0.8978804 ]
 [0.3        1.66267041]
 [0.32341667 1.68588082]]",0,0.764
8731029739,f,22,english,5,3,english,2024-01-25 10:40:30.331193,False,2,395,sounds\english\audio/english_243.wav,"[[  0.         -74.41503345]
 [  0.1        -16.65530333]
 [  0.2         -1.41224798]
 [  0.3         37.30419975]
 [  0.32341667  -3.40378668]]","[[0.         0.65151457]
 [0.1        0.20623253]
 [0.2        0.87153721]
 [0.3        0.28583671]
 [0.32341667 1.90700275]]",0,2.397
8731029739,f,22,english,5,3,english,2024-01-25 10:40:30.331193,False,2,396,sounds\english\audio/english_798.wav,"[[  0.         -16.40769998]
 [  0.1          3.00381127]
 [  0.2        -31.24410556]
 [  0.3        -53.27973877]
 [  0.32341667  91.43563813]]","[[0.         1.85457914]
 [0.1        1.50219522]
 [0.2        0.78751403]
 [0.3        1.17339142]
 [0.32341667 1.30184409]]",0,1.935
8731029739,f,22,english,5,3,english,2024-01-25 10:40:30.331193,False,2,397,sounds\english\audio/english_574.wav,"[[  0.          53.128433  ]
 [  0.1         70.24248151]
 [  0.2         47.13290739]
 [  0.3         52.31480293]
 [  0.32341667 -33.06438127]]","[[0.         0.28349694]
 [0.1        0.66519348]
 [0.2        1.25768036]
 [0.3        1.43482954]
 [0.32341667 1.23350688]]",0,4.226
8731029739,f,22,english,5,3,english,2024-01-25 10:40:30.331193,False,2,398,sounds\english\audio/english_514.wav,"[[  0.         -61.65105701]
 [  0.1         49.84264816]
 [  0.2         14.14440898]
 [  0.3        -30.10662908]
 [  0.32341667  90.48337022]]","[[0.         1.12509033]
 [0.1        0.78701739]
 [0.2        0.37052689]
 [0.3        1.42053426]
 [0.32341667 1.94621598]]",0,1.236
8731029739,f,22,english,5,3,english,2024-01-25 10:40:30.331193,False,2,399,sounds\english\audio/english_298.wav,"[[  0.         -71.75530507]
 [  0.1         76.25876358]
 [  0.2         11.95102224]
 [  0.3         79.91037795]
 [  0.32341667  30.12462174]]","[[0.         0.91890611]
 [0.1        0.7322353 ]
 [0.2        0.50601445]
 [0.3        0.41160049]
 [0.32341667 0.81223035]]",0,0.57
8731029739,f,22,english,5,3,english,2024-01-25 10:40:30.331193,False,2,400,sounds\english\audio/english_354.wav,"[[  0.         -63.97501145]
 [  0.1        -43.11314734]
 [  0.2         10.53928595]
 [  0.3        -23.15258088]
 [  0.32341667   3.22925066]]","[[0.         0.52067601]
 [0.1        0.59903392]
 [0.2        0.9992363 ]
 [0.3        1.16142831]
 [0.32341667 0.37639432]]",1,1.174
8731029739,f,22,english,5,3,english,2024-01-25 10:40:30.331193,False,2,401,sounds\english\audio/english_676.wav,"[[  0.           3.93099148]
 [  0.1         73.76311644]
 [  0.2        -26.92634129]
 [  0.3         51.70874443]
 [  0.32341667 -48.7675791 ]]","[[0.         1.7716209 ]
 [0.1        1.97281878]
 [0.2        1.42487848]
 [0.3        1.45099775]
 [0.32341667 1.84822532]]",1,2.159
8731029739,f,22,english,5,3,english,2024-01-25 10:40:30.331193,False,2,402,sounds\english\audio/english_842.wav,"[[  0.         -48.5952207 ]
 [  0.1         29.19485822]
 [  0.2         84.54328152]
 [  0.3         69.99994667]
 [  0.32341667  56.72069463]]","[[0.         0.12382156]
 [0.1        1.75564688]
 [0.2        0.24815543]
 [0.3        1.2885643 ]
 [0.32341667 0.70518165]]",0,0.81
8731029739,f,22,english,5,3,english,2024-01-25 10:40:30.331193,False,2,403,sounds\english\audio/english_285.wav,"[[  0.         -19.0536712 ]
 [  0.1        -63.15395986]
 [  0.2        -57.682926  ]
 [  0.3        -56.52362331]
 [  0.32341667  11.40665652]]","[[0.         1.18823065]
 [0.1        1.010644  ]
 [0.2        0.4943662 ]
 [0.3        0.66348991]
 [0.32341667 0.86242978]]",0,0.516
8731029739,f,22,english,5,3,english,2024-01-25 10:40:30.331193,False,2,404,sounds\english\audio/english_240.wav,"[[  0.         -96.55121617]
 [  0.1         73.99435309]
 [  0.2        -27.17256968]
 [  0.3         -2.05185553]
 [  0.32341667  80.37406519]]","[[0.         1.04823872]
 [0.1        1.11556714]
 [0.2        0.68795106]
 [0.3        1.30325309]
 [0.32341667 0.86977317]]",1,0.579
8731029739,f,22,english,5,3,english,2024-01-25 10:40:30.331193,False,2,405,sounds\english\audio/english_57.wav,"[[  0.         -27.39668164]
 [  0.1         63.52389761]
 [  0.2        -55.42033209]
 [  0.3         40.81906742]
 [  0.32341667 -12.75543821]]","[[0.         1.97835384]
 [0.1        0.69906452]
 [0.2        0.75389415]
 [0.3        0.20375649]
 [0.32341667 1.65585112]]",0,0.256
8731029739,f,22,english,5,3,english,2024-01-25 10:40:30.331193,False,2,406,sounds\english\audio/english_746.wav,"[[  0.          -1.32395796]
 [  0.1        -67.07117971]
 [  0.2         75.09604974]
 [  0.3        -48.59278454]
 [  0.32341667  -6.52080997]]","[[0.         1.72273729]
 [0.1        1.22961235]
 [0.2        1.29107068]
 [0.3        1.34694816]
 [0.32341667 0.94274536]]",0,0.272
8731029739,f,22,english,5,3,english,2024-01-25 10:40:30.331193,False,2,407,sounds\english\audio/english_910.wav,"[[  0.          -5.78748479]
 [  0.1         25.040103  ]
 [  0.2        -40.66398147]
 [  0.3        -99.21011725]
 [  0.32341667  30.82754841]]","[[0.         0.61840584]
 [0.1        1.20431928]
 [0.2        1.66594732]
 [0.3        0.99007018]
 [0.32341667 0.23705338]]",0,0.353
8731029739,f,22,english,5,3,english,2024-01-25 10:40:30.331193,False,2,408,sounds\english\audio/english_17.wav,"[[  0.          54.20763778]
 [  0.1         56.90002318]
 [  0.2         53.34795505]
 [  0.3        -49.04179277]
 [  0.32341667 -46.12718147]]","[[0.         0.24306789]
 [0.1        0.93194053]
 [0.2        0.70954885]
 [0.3        1.57385934]
 [0.32341667 1.28258365]]",1,0.547
8731029739,f,22,english,5,3,english,2024-01-25 10:40:30.331193,False,2,409,sounds\english\audio/english_839.wav,"[[  0.          48.1700809 ]
 [  0.1         -8.22030768]
 [  0.2         53.56121636]
 [  0.3          4.54416263]
 [  0.32341667 -19.83463627]]","[[0.         1.1821708 ]
 [0.1        1.15480022]
 [0.2        1.57293091]
 [0.3        0.22310878]
 [0.32341667 0.67140257]]",1,0.943
8731029739,f,22,english,5,3,english,2024-01-25 10:40:30.331193,False,2,410,sounds\english\audio/english_856.wav,"[[  0.         -44.08940674]
 [  0.1        -25.77644107]
 [  0.2          6.39263247]
 [  0.3         92.67536145]
 [  0.32341667  45.15991817]]","[[0.         1.51880133]
 [0.1        0.99524475]
 [0.2        1.11391415]
 [0.3        0.95575529]
 [0.32341667 1.02944292]]",0,2.72
8731029739,f,22,english,5,3,english,2024-01-25 10:40:30.331193,False,2,411,sounds\english\audio/english_699.wav,"[[  0.         -21.84844695]
 [  0.1        -20.61050251]
 [  0.2         -7.57046677]
 [  0.3        -90.18255135]
 [  0.32341667 -39.12532958]]","[[0.         0.55007596]
 [0.1        0.98595355]
 [0.2        1.16771202]
 [0.3        0.60930532]
 [0.32341667 1.39260434]]",0,0.592
8731029739,f,22,english,5,3,english,2024-01-25 10:40:30.331193,False,2,412,sounds\english\audio/english_105.wav,"[[ 0.         15.80659439]
 [ 0.1        42.66899606]
 [ 0.2        70.76731416]
 [ 0.3        70.45261783]
 [ 0.32341667 38.01355443]]","[[0.         1.08535851]
 [0.1        0.24895576]
 [0.2        1.16165898]
 [0.3        1.37248151]
 [0.32341667 0.81952348]]",0,0.305
8731029739,f,22,english,5,3,english,2024-01-25 10:40:30.331193,False,2,413,sounds\english\audio/english_18.wav,"[[ 0.00000000e+00 -6.19567004e+01]
 [ 1.00000000e-01  3.92027204e+01]
 [ 2.00000000e-01 -6.26834214e-02]
 [ 3.00000000e-01 -7.22820301e+01]
 [ 3.23416667e-01 -5.29459242e+01]]","[[0.         0.45038722]
 [0.1        1.56185221]
 [0.2        0.80652275]
 [0.3        0.39505163]
 [0.32341667 0.50402069]]",0,1.513
8731029739,f,22,english,5,3,english,2024-01-25 10:40:30.331193,False,2,414,sounds\english\audio/english_420.wav,"[[  0.         -56.31893026]
 [  0.1         66.6522923 ]
 [  0.2          2.15493058]
 [  0.3        -23.51601285]
 [  0.32341667  22.32226467]]","[[0.         0.25307214]
 [0.1        1.93095887]
 [0.2        0.49520396]
 [0.3        1.55970731]
 [0.32341667 0.71957325]]",0,1.179
8731029739,f,22,english,5,3,english,2024-01-25 10:40:30.331193,False,2,415,sounds\english\audio/english_462.wav,"[[  0.         -35.73318704]
 [  0.1         -5.65949109]
 [  0.2        -49.47542688]
 [  0.3        -98.18570674]
 [  0.32341667 -16.34927785]]","[[0.         1.53267708]
 [0.1        1.98369384]
 [0.2        1.31270994]
 [0.3        1.26289606]
 [0.32341667 1.36496903]]",0,0.281
8731029739,f,22,english,5,3,english,2024-01-25 10:40:30.331193,False,2,416,sounds\english\audio/english_923.wav,"[[  0.          -0.59122564]
 [  0.1         -5.70499959]
 [  0.2        -29.88927864]
 [  0.3        -82.02126299]
 [  0.32341667  16.89967319]]","[[0.         1.19594648]
 [0.1        1.05419104]
 [0.2        0.73000078]
 [0.3        1.36390543]
 [0.32341667 1.13865732]]",0,0.45
8731029739,f,22,english,5,3,english,2024-01-25 10:40:30.331193,False,2,417,sounds\english\audio/english_599.wav,"[[  0.         -57.09760884]
 [  0.1         31.85682387]
 [  0.2         -6.73425875]
 [  0.3         47.95830633]
 [  0.32341667 -83.8084816 ]]","[[0.         1.03382432]
 [0.1        1.26885403]
 [0.2        1.24717465]
 [0.3        1.34338376]
 [0.32341667 0.34550335]]",0,0.494
8731029739,f,22,english,5,3,english,2024-01-25 10:40:30.331193,False,2,418,sounds\english\audio/english_224.wav,"[[  0.          -3.31597843]
 [  0.1        -35.19448657]
 [  0.2        -54.62049262]
 [  0.3         50.12510099]
 [  0.32341667  96.66013203]]","[[0.         0.45157501]
 [0.1        1.77513434]
 [0.2        0.36912314]
 [0.3        1.67171916]
 [0.32341667 1.16069525]]",0,0.46
8731029739,f,22,english,5,3,english,2024-01-25 10:40:30.331193,False,2,419,sounds\english\audio/english_267.wav,"[[  0.         -83.13365237]
 [  0.1         76.30308178]
 [  0.2         53.87961391]
 [  0.3         62.72167491]
 [  0.32341667 -33.79574379]]","[[0.         1.47105267]
 [0.1        0.87521108]
 [0.2        1.04060287]
 [0.3        0.25080793]
 [0.32341667 1.11989054]]",0,0.604
8731029739,f,22,english,5,3,english,2024-01-25 10:40:30.331193,False,2,420,sounds\english\audio/english_252.wav,"[[  0.          79.75601627]
 [  0.1         17.00183399]
 [  0.2        -25.42800597]
 [  0.3        -47.65138194]
 [  0.32341667  35.10652067]]","[[0.         0.77799761]
 [0.1        1.07711339]
 [0.2        0.7917181 ]
 [0.3        1.47632881]
 [0.32341667 1.65919103]]",0,1.075
8731029739,f,22,english,5,3,english,2024-01-25 10:40:30.331193,False,2,421,sounds\english\audio/english_350.wav,"[[  0.          97.64268741]
 [  0.1         23.96704837]
 [  0.2         50.30792237]
 [  0.3         71.77937185]
 [  0.32341667 -64.81416361]]","[[0.         0.61487918]
 [0.1        0.40988424]
 [0.2        0.86872158]
 [0.3        1.01783109]
 [0.32341667 0.68761283]]",0,1.602
8731029739,f,22,english,5,3,english,2024-01-25 10:40:30.331193,False,2,422,sounds\english\audio/english_985.wav,"[[  0.          31.76144354]
 [  0.1         49.0534069 ]
 [  0.2        -59.14058353]
 [  0.3        -36.25561351]
 [  0.32341667 -53.50268286]]","[[0.         0.46805505]
 [0.1        1.72857245]
 [0.2        0.05336254]
 [0.3        0.45417652]
 [0.32341667 1.33850641]]",0,0.677
8731029739,f,22,english,5,3,english,2024-01-25 10:40:30.331193,False,2,423,sounds\english\audio/english_306.wav,"[[  0.         -78.46406697]
 [  0.1        -60.64765069]
 [  0.2         41.654101  ]
 [  0.3         58.45609749]
 [  0.32341667 -89.32145871]]","[[0.         1.96625377]
 [0.1        1.9128761 ]
 [0.2        0.92284414]
 [0.3        1.12546267]
 [0.32341667 0.77622038]]",0,0.646
8731029739,f,22,english,5,3,english,2024-01-25 10:40:30.331193,False,2,424,sounds\english\audio/english_172.wav,"[[  0.           8.59493981]
 [  0.1        -56.34346079]
 [  0.2        -95.76423912]
 [  0.3         11.69646411]
 [  0.32341667 -55.10661496]]","[[0.         0.93080222]
 [0.1        0.53387901]
 [0.2        0.34406097]
 [0.3        0.74935371]
 [0.32341667 0.42041327]]",0,0.854
8731029739,f,22,english,5,3,english,2024-01-25 10:40:30.331193,False,2,425,sounds\english\audio/english_980.wav,"[[  0.         -32.33629208]
 [  0.1         -4.4140807 ]
 [  0.2         76.81412515]
 [  0.3        -16.24877133]
 [  0.32341667 -26.44128118]]","[[0.         1.21290567]
 [0.1        0.22350007]
 [0.2        1.68078519]
 [0.3        0.16816052]
 [0.32341667 1.48722631]]",0,0.732
8731029739,f,22,english,5,3,english,2024-01-25 10:40:30.331193,False,2,426,sounds\english\audio/english_337.wav,"[[  0.          17.21863108]
 [  0.1        -16.30098312]
 [  0.2         70.17733319]
 [  0.3         -7.16478631]
 [  0.32341667 -84.96176299]]","[[0.         0.02346696]
 [0.1        1.2349353 ]
 [0.2        1.07823504]
 [0.3        1.83339424]
 [0.32341667 1.87583376]]",0,1.185
8731029739,f,22,english,5,3,english,2024-01-25 10:40:30.331193,False,2,427,sounds\english\audio/english_122.wav,"[[  0.          64.29837997]
 [  0.1         -6.72103776]
 [  0.2         34.67911304]
 [  0.3         25.29178735]
 [  0.32341667 -20.34954259]]","[[0.         0.06121643]
 [0.1        1.56183773]
 [0.2        1.3577209 ]
 [0.3        0.94012362]
 [0.32341667 1.04570986]]",1,1.042
8731029739,f,22,english,5,3,english,2024-01-25 10:40:30.331193,False,2,428,sounds\english\audio/english_86.wav,"[[  0.         -48.59393833]
 [  0.1         77.37095157]
 [  0.2         44.19816726]
 [  0.3        -99.780271  ]
 [  0.32341667  38.96545556]]","[[0.         1.45450552]
 [0.1        1.8635573 ]
 [0.2        1.174515  ]
 [0.3        1.46785746]
 [0.32341667 0.99607158]]",1,0.6
8731029739,f,22,english,5,3,english,2024-01-25 10:40:30.331193,False,2,429,sounds\english\audio/english_345.wav,"[[  0.         -46.00579497]
 [  0.1        -45.5805492 ]
 [  0.2        -14.04378539]
 [  0.3         63.72413351]
 [  0.32341667  18.03717792]]","[[0.         1.58751342]
 [0.1        1.0202646 ]
 [0.2        0.61561299]
 [0.3        1.21547564]
 [0.32341667 1.47127253]]",0,0.494
8731029739,f,22,english,5,3,english,2024-01-25 10:40:30.331193,False,2,430,sounds\english\audio/english_610.wav,"[[  0.         -14.96432812]
 [  0.1         48.51886955]
 [  0.2         47.07358548]
 [  0.3         17.30383174]
 [  0.32341667   1.51764356]]","[[0.         0.5672697 ]
 [0.1        0.75156182]
 [0.2        0.38846335]
 [0.3        1.52072292]
 [0.32341667 1.56024836]]",0,0.511
8731029739,f,22,english,5,3,english,2024-01-25 10:40:30.331193,False,2,431,sounds\english\audio/english_361.wav,"[[  0.          47.37783877]
 [  0.1         41.96620543]
 [  0.2        -99.83447432]
 [  0.3        -83.75612903]
 [  0.32341667  99.31228573]]","[[0.         1.2281625 ]
 [0.1        0.32170701]
 [0.2        0.41267147]
 [0.3        0.32528287]
 [0.32341667 0.29737668]]",0,0.602
8731029739,f,22,english,5,3,english,2024-01-25 10:40:30.331193,False,2,432,sounds\english\audio/english_215.wav,"[[  0.         -93.71362427]
 [  0.1         20.4696733 ]
 [  0.2        -66.57352715]
 [  0.3         -0.6079782 ]
 [  0.32341667  -5.73921948]]","[[0.         1.31176069]
 [0.1        1.25536714]
 [0.2        1.5696385 ]
 [0.3        0.03144419]
 [0.32341667 0.79048669]]",0,0.862
8731029739,f,22,english,5,3,english,2024-01-25 10:40:30.331193,False,2,433,sounds\english\audio/english_788.wav,"[[  0.         -93.79628683]
 [  0.1        -45.29703147]
 [  0.2        -46.01001772]
 [  0.3        -56.6729179 ]
 [  0.32341667  51.29020462]]","[[0.         0.67330318]
 [0.1        1.33385595]
 [0.2        1.35248941]
 [0.3        1.33220146]
 [0.32341667 1.32468206]]",0,0.951
8731029739,f,22,english,5,3,english,2024-01-25 10:40:30.331193,False,2,434,sounds\english\audio/english_748.wav,"[[  0.           0.23647087]
 [  0.1         45.60572596]
 [  0.2          6.14588966]
 [  0.3        -10.39850874]
 [  0.32341667  -7.86503132]]","[[0.         0.91094575]
 [0.1        1.68800655]
 [0.2        1.37684191]
 [0.3        0.70556294]
 [0.32341667 1.52987196]]",0,1.957
8731029739,f,22,english,5,3,english,2024-01-25 10:40:30.331193,False,2,435,sounds\english\audio/english_973.wav,"[[  0.          67.86183821]
 [  0.1         19.68291271]
 [  0.2         97.35795082]
 [  0.3        -17.83494635]
 [  0.32341667 -53.451809  ]]","[[0.         1.19015671]
 [0.1        0.58574514]
 [0.2        0.11672587]
 [0.3        0.43523095]
 [0.32341667 1.74630461]]",0,1.682
8731029739,f,22,english,5,3,english,2024-01-25 10:40:30.331193,False,2,436,sounds\english\audio/english_381.wav,"[[  0.         -64.83599525]
 [  0.1         97.61236857]
 [  0.2        -60.27157178]
 [  0.3         84.45732791]
 [  0.32341667 -87.53832291]]","[[0.         0.77808766]
 [0.1        1.62635576]
 [0.2        0.65298664]
 [0.3        0.46881793]
 [0.32341667 1.22836965]]",0,3.589
8731029739,f,22,english,5,3,english,2024-01-25 10:40:30.331193,False,2,437,sounds\english\audio/english_309.wav,"[[  0.          59.8258624 ]
 [  0.1         73.70427758]
 [  0.2         -8.71125849]
 [  0.3        -86.6882155 ]
 [  0.32341667 -90.77340978]]","[[0.         0.58100331]
 [0.1        0.81024997]
 [0.2        0.10827203]
 [0.3        0.09670208]
 [0.32341667 1.53063904]]",0,2.749
8731029739,f,22,english,5,3,english,2024-01-25 10:40:30.331193,False,2,438,sounds\english\audio/english_230.wav,"[[  0.          59.01519707]
 [  0.1        -74.67447784]
 [  0.2         78.11378701]
 [  0.3         26.79367619]
 [  0.32341667  29.92451654]]","[[0.         0.66464778]
 [0.1        1.09498554]
 [0.2        0.24708562]
 [0.3        1.40152246]
 [0.32341667 1.02203861]]",0,0.691
8731029739,f,22,english,5,3,english,2024-01-25 10:40:30.331193,False,2,439,sounds\english\audio/english_413.wav,"[[  0.          -9.66675054]
 [  0.1         15.27504309]
 [  0.2        -94.93171401]
 [  0.3        -42.87800999]
 [  0.32341667 -63.39385234]]","[[0.         1.82887045]
 [0.1        0.80668743]
 [0.2        0.90586838]
 [0.3        1.3937681 ]
 [0.32341667 0.34165264]]",0,0.542
8731029739,f,22,english,5,3,english,2024-01-25 10:40:30.331193,False,2,440,sounds\english\audio/english_458.wav,"[[  0.         -49.69821038]
 [  0.1        -49.80647014]
 [  0.2         11.98261521]
 [  0.3         59.43319096]
 [  0.32341667 -34.5671642 ]]","[[0.         0.39452057]
 [0.1        1.24604375]
 [0.2        0.42272405]
 [0.3        0.21259233]
 [0.32341667 1.13235362]]",0,0.602
8731029739,f,22,english,5,3,english,2024-01-25 10:40:30.331193,False,2,441,sounds\english\audio/english_242.wav,"[[ 0.         26.44185099]
 [ 0.1        44.29547205]
 [ 0.2        -3.86423299]
 [ 0.3        60.29108386]
 [ 0.32341667 18.66576556]]","[[0.         0.44763058]
 [0.1        1.06541359]
 [0.2        0.64111919]
 [0.3        0.35225786]
 [0.32341667 1.0072971 ]]",0,1.397
8731029739,f,22,english,5,3,english,2024-01-25 10:40:30.331193,False,2,442,sounds\english\audio/english_289.wav,"[[  0.         -55.97739865]
 [  0.1        -97.9801122 ]
 [  0.2         44.28679287]
 [  0.3        -74.0895039 ]
 [  0.32341667 -44.25845537]]","[[0.         0.95213243]
 [0.1        0.81858491]
 [0.2        1.16094748]
 [0.3        0.92969459]
 [0.32341667 0.41504245]]",0,1.941
8731029739,f,22,english,5,3,english,2024-01-25 10:40:30.331193,False,2,443,sounds\english\audio/english_665.wav,"[[  0.         -25.08423312]
 [  0.1        -88.66042782]
 [  0.2        -73.67467666]
 [  0.3         66.53606028]
 [  0.32341667 -75.03630793]]","[[0.         1.80265724]
 [0.1        0.10063576]
 [0.2        0.92910111]
 [0.3        0.83814709]
 [0.32341667 0.77033789]]",0,0.873
8731029739,f,22,english,5,3,english,2024-01-25 10:40:30.331193,False,2,444,sounds\english\audio/english_560.wav,"[[  0.           6.26341837]
 [  0.1        -94.10474965]
 [  0.2        -43.88069215]
 [  0.3        -26.3559156 ]
 [  0.32341667 -91.38105747]]","[[0.         1.61909233]
 [0.1        0.93851614]
 [0.2        1.37910144]
 [0.3        1.10578935]
 [0.32341667 0.02070647]]",0,0.717
8731029739,f,22,english,5,3,english,2024-01-25 10:40:30.331193,False,2,445,sounds\english\audio/english_146.wav,"[[  0.          -7.47107612]
 [  0.1        -10.73298436]
 [  0.2         -4.63341632]
 [  0.3         14.65491039]
 [  0.32341667  19.96333333]]","[[0.         0.36907021]
 [0.1        0.24473139]
 [0.2        1.01983542]
 [0.3        0.62607899]
 [0.32341667 1.1005899 ]]",0,1.209
8731029739,f,22,english,5,3,english,2024-01-25 10:40:30.331193,False,2,446,sounds\english\audio/english_966.wav,"[[  0.          23.00954068]
 [  0.1         -2.7733657 ]
 [  0.2         -6.00176123]
 [  0.3        -64.80320904]
 [  0.32341667  94.15296916]]","[[0.         1.02848684]
 [0.1        1.22612364]
 [0.2        0.03461529]
 [0.3        0.22357585]
 [0.32341667 0.55383001]]",0,0.885
8731029739,f,22,english,5,3,english,2024-01-25 10:40:30.331193,False,2,447,sounds\english\audio/english_509.wav,"[[  0.          58.37136146]
 [  0.1        -30.59588084]
 [  0.2        -42.62400689]
 [  0.3         58.46483968]
 [  0.32341667  44.09610342]]","[[0.         0.93627824]
 [0.1        1.268957  ]
 [0.2        0.87018438]
 [0.3        1.67134466]
 [0.32341667 1.96584472]]",0,0.742
8731029739,f,22,english,5,3,english,2024-01-25 10:40:30.331193,False,2,448,sounds\english\audio/english_117.wav,"[[  0.         -98.72491255]
 [  0.1        -15.15642563]
 [  0.2         24.45806353]
 [  0.3        -80.67224668]
 [  0.32341667 -97.50349755]]","[[0.         1.42659946]
 [0.1        1.64599539]
 [0.2        0.97767705]
 [0.3        0.37962884]
 [0.32341667 0.74274723]]",1,0.667
8731029739,f,22,english,5,3,english,2024-01-25 10:40:30.331193,False,2,449,sounds\english\audio/english_705.wav,"[[  0.           3.76426423]
 [  0.1         90.96696755]
 [  0.2        -32.86898574]
 [  0.3        -21.12550784]
 [  0.32341667  39.74077299]]","[[0.         0.9500377 ]
 [0.1        0.74173997]
 [0.2        1.78776637]
 [0.3        0.8178788 ]
 [0.32341667 1.54913024]]",0,0.672
8731029739,f,22,english,5,3,english,2024-01-25 10:40:30.331193,False,2,450,sounds\english\audio/english_842.wav,"[[  0.         -48.5952207 ]
 [  0.1         29.19485822]
 [  0.2         84.54328152]
 [  0.3         69.99994667]
 [  0.32341667  56.72069463]]","[[0.         0.12382156]
 [0.1        1.75564688]
 [0.2        0.24815543]
 [0.3        1.2885643 ]
 [0.32341667 0.70518165]]",0,2.066
8731029739,f,22,english,5,3,english,2024-01-25 10:40:30.331193,False,2,451,sounds\english\audio/english_315.wav,"[[  0.           3.76150079]
 [  0.1          4.93204799]
 [  0.2        -81.53480532]
 [  0.3         45.94577355]
 [  0.32341667 -55.96194099]]","[[0.         1.04293113]
 [0.1        0.55537984]
 [0.2        1.13024782]
 [0.3        1.06792043]
 [0.32341667 1.80369969]]",0,0.654
8731029739,f,22,english,5,3,english,2024-01-25 10:40:30.331193,False,2,452,sounds\english\audio/english_669.wav,"[[  0.         -58.38123624]
 [  0.1        -80.20155876]
 [  0.2        -25.59737246]
 [  0.3        -30.25633946]
 [  0.32341667 -70.78768349]]","[[0.         0.53455866]
 [0.1        0.64376179]
 [0.2        0.76694756]
 [0.3        1.36842807]
 [0.32341667 0.06434218]]",0,0.521
8731029739,f,22,english,5,3,english,2024-01-25 10:40:30.331193,False,2,453,sounds\english\audio/english_906.wav,"[[  0.         -40.48589107]
 [  0.1         47.48995475]
 [  0.2        -46.73743802]
 [  0.3        -97.96557374]
 [  0.32341667  18.48293991]]","[[0.         1.22436898]
 [0.1        1.54823641]
 [0.2        1.02590908]
 [0.3        1.74877791]
 [0.32341667 0.76585735]]",0,0.524
8731029739,f,22,english,5,3,english,2024-01-25 10:40:30.331193,False,2,454,sounds\english\audio/english_898.wav,"[[  0.          77.23607787]
 [  0.1        -36.99854877]
 [  0.2         16.09723403]
 [  0.3         29.12208023]
 [  0.32341667 -69.45423228]]","[[0.         0.41308158]
 [0.1        1.59324842]
 [0.2        1.42339693]
 [0.3        1.17478291]
 [0.32341667 1.88393163]]",0,0.352
8731029739,f,22,english,5,3,english,2024-01-25 10:40:30.331193,False,2,455,sounds\english\audio/english_101.wav,"[[  0.          60.77829508]
 [  0.1         43.41373716]
 [  0.2         56.16195873]
 [  0.3        -99.94719329]
 [  0.32341667  -1.35074094]]","[[0.         0.77962125]
 [0.1        0.02040908]
 [0.2        0.79248433]
 [0.3        1.74003505]
 [0.32341667 1.66206156]]",1,0.514
8731029739,f,22,english,5,3,english,2024-01-25 10:40:30.331193,False,2,456,sounds\english\audio/english_428.wav,"[[  0.         -98.34466569]
 [  0.1        -10.51162175]
 [  0.2         97.93427859]
 [  0.3         35.61870537]
 [  0.32341667 -12.49352836]]","[[0.         1.83106884]
 [0.1        1.34345266]
 [0.2        0.65853672]
 [0.3        1.28105878]
 [0.32341667 0.15324236]]",0,0.425
8731029739,f,22,english,5,3,english,2024-01-25 10:40:30.331193,False,2,457,sounds\english\audio/english_198.wav,"[[ 0.         -3.53881338]
 [ 0.1        58.04445454]
 [ 0.2        67.39523563]
 [ 0.3        56.58835275]
 [ 0.32341667  7.34595052]]","[[0.         0.6033193 ]
 [0.1        0.57837506]
 [0.2        1.37850613]
 [0.3        0.73107668]
 [0.32341667 0.42006089]]",0,0.682
8731029739,f,22,english,5,3,english,2024-01-25 10:40:30.331193,False,2,458,sounds\english\audio/english_821.wav,"[[  0.          -4.04234253]
 [  0.1         50.39518932]
 [  0.2         58.18996785]
 [  0.3        -22.07293427]
 [  0.32341667  56.43229939]]","[[0.         1.62928948]
 [0.1        0.78033958]
 [0.2        1.56476115]
 [0.3        0.56557752]
 [0.32341667 0.93389964]]",0,0.573
8731029739,f,22,english,5,3,english,2024-01-25 10:40:30.331193,False,2,459,sounds\english\audio/english_730.wav,"[[  0.          12.15035978]
 [  0.1        -56.22765555]
 [  0.2        -53.26534685]
 [  0.3        -25.75230742]
 [  0.32341667 -73.04726616]]","[[0.         0.91227818]
 [0.1        1.17022701]
 [0.2        0.58034143]
 [0.3        1.9562998 ]
 [0.32341667 1.99538846]]",0,0.545
8731029739,f,22,english,5,3,english,2024-01-25 10:40:30.331193,False,2,460,sounds\english\audio/english_352.wav,"[[  0.          71.64354449]
 [  0.1         53.2516906 ]
 [  0.2         28.90726554]
 [  0.3        -49.8940387 ]
 [  0.32341667  21.76832357]]","[[0.         0.18312459]
 [0.1        1.19991438]
 [0.2        1.21095973]
 [0.3        1.61067418]
 [0.32341667 1.26376439]]",0,0.343
8731029739,f,22,english,5,3,english,2024-01-25 10:40:30.331193,False,2,461,sounds\english\audio/english_345.wav,"[[  0.         -46.00579497]
 [  0.1        -45.5805492 ]
 [  0.2        -14.04378539]
 [  0.3         63.72413351]
 [  0.32341667  18.03717792]]","[[0.         1.58751342]
 [0.1        1.0202646 ]
 [0.2        0.61561299]
 [0.3        1.21547564]
 [0.32341667 1.47127253]]",0,1.112
8731029739,f,22,english,5,3,english,2024-01-25 10:40:30.331193,False,2,462,sounds\english\audio/english_759.wav,"[[  0.          22.56482953]
 [  0.1        -26.57515882]
 [  0.2         58.52096087]
 [  0.3         67.88336338]
 [  0.32341667 -98.7178367 ]]","[[0.         0.32974928]
 [0.1        0.74944663]
 [0.2        0.73148935]
 [0.3        0.69769471]
 [0.32341667 1.46371733]]",0,0.522
8731029739,f,22,english,5,3,english,2024-01-25 10:40:30.331193,False,2,463,sounds\english\audio/english_177.wav,"[[  0.          87.98258728]
 [  0.1         87.12011565]
 [  0.2        -29.82518494]
 [  0.3         54.38835911]
 [  0.32341667  53.98423531]]","[[0.         1.54790065]
 [0.1        0.90861448]
 [0.2        0.58649069]
 [0.3        0.51296238]
 [0.32341667 1.78492888]]",1,0.477
8731029739,f,22,english,5,3,english,2024-01-25 10:40:30.331193,False,2,464,sounds\english\audio/english_347.wav,"[[  0.          34.89178431]
 [  0.1         53.24978685]
 [  0.2          4.11185022]
 [  0.3         89.26663646]
 [  0.32341667 -53.02646266]]","[[0.         1.32203506]
 [0.1        0.28714436]
 [0.2        1.66093526]
 [0.3        1.29826057]
 [0.32341667 0.05504814]]",0,0.64
8731029739,f,22,english,5,3,english,2024-01-25 10:40:30.331193,False,2,465,sounds\english\audio/english_433.wav,"[[  0.         -74.58178472]
 [  0.1        -50.00917691]
 [  0.2         48.18572343]
 [  0.3        -63.95387597]
 [  0.32341667 -68.91859183]]","[[0.         0.69852952]
 [0.1        1.92405883]
 [0.2        0.3905825 ]
 [0.3        0.31453116]
 [0.32341667 1.4953114 ]]",0,0.517
8731029739,f,22,english,5,3,english,2024-01-25 10:40:30.331193,False,2,466,sounds\english\audio/english_294.wav,"[[  0.         -92.15775888]
 [  0.1         71.96645866]
 [  0.2        -25.46852775]
 [  0.3         17.21488016]
 [  0.32341667 -10.41176069]]","[[0.         0.74816787]
 [0.1        1.71916745]
 [0.2        1.7524902 ]
 [0.3        0.9780509 ]
 [0.32341667 1.21177262]]",0,0.873
8731029739,f,22,english,5,3,english,2024-01-25 10:40:30.331193,False,2,467,sounds\english\audio/english_164.wav,"[[  0.         -18.99376005]
 [  0.1        -38.65269109]
 [  0.2         64.75288033]
 [  0.3        -33.8407164 ]
 [  0.32341667  27.96502681]]","[[0.         1.91320144]
 [0.1        0.23857652]
 [0.2        1.41883879]
 [0.3        1.34667564]
 [0.32341667 0.04602263]]",0,5.129
8731029739,f,22,english,5,3,english,2024-01-25 10:40:30.331193,False,2,468,sounds\english\audio/english_879.wav,"[[  0.         -56.32485069]
 [  0.1         64.67592183]
 [  0.2         25.82204554]
 [  0.3          5.66794257]
 [  0.32341667 -31.65503708]]","[[0.         0.53184386]
 [0.1        1.34296213]
 [0.2        0.44649674]
 [0.3        0.79707043]
 [0.32341667 1.19804995]]",0,2.143
8731029739,f,22,english,5,3,english,2024-01-25 10:40:30.331193,False,2,469,sounds\english\audio/english_911.wav,"[[  0.          62.6913709 ]
 [  0.1        -28.7089255 ]
 [  0.2        -71.03383871]
 [  0.3         93.02773855]
 [  0.32341667  93.73973981]]","[[0.         0.89860539]
 [0.1        0.06791792]
 [0.2        1.00076401]
 [0.3        1.24961505]
 [0.32341667 1.26639778]]",0,1.308
8731029739,f,22,english,5,3,english,2024-01-25 10:40:30.331193,False,2,470,sounds\english\audio/english_930.wav,"[[  0.         -52.65701122]
 [  0.1        -24.36484499]
 [  0.2          4.10813066]
 [  0.3         93.74919515]
 [  0.32341667  66.31726896]]","[[0.         0.60066533]
 [0.1        1.33650528]
 [0.2        0.15979886]
 [0.3        1.46288505]
 [0.32341667 0.93993915]]",0,0.381
8731029739,f,22,english,5,3,english,2024-01-25 10:40:30.331193,False,2,471,sounds\english\audio/english_991.wav,"[[  0.         -73.33762004]
 [  0.1        -90.08677455]
 [  0.2        -98.84294029]
 [  0.3         59.84972986]
 [  0.32341667  21.03568625]]","[[0.         0.7279734 ]
 [0.1        0.374322  ]
 [0.2        0.98894361]
 [0.3        1.07774369]
 [0.32341667 0.51480923]]",0,0.782
8731029739,f,22,english,5,3,english,2024-01-25 10:40:30.331193,False,2,472,sounds\english\audio/english_992.wav,"[[  0.          -6.68189934]
 [  0.1         78.76679047]
 [  0.2        -58.5917679 ]
 [  0.3        -98.64651588]
 [  0.32341667  73.76402904]]","[[0.         0.46848529]
 [0.1        0.9874556 ]
 [0.2        0.57881803]
 [0.3        0.88425299]
 [0.32341667 0.6994588 ]]",1,1.26
8731029739,f,22,english,5,3,english,2024-01-25 10:40:30.331193,False,2,473,sounds\english\audio/english_800.wav,"[[  0.          -9.91001254]
 [  0.1        -86.79409322]
 [  0.2        -27.39997365]
 [  0.3         13.46737707]
 [  0.32341667 -32.56208711]]","[[0.         0.13142639]
 [0.1        1.71040153]
 [0.2        0.18637657]
 [0.3        1.09766523]
 [0.32341667 1.57940615]]",0,0.502
8731029739,f,22,english,5,3,english,2024-01-25 10:40:30.331193,False,2,474,sounds\english\audio/english_366.wav,"[[  0.          30.08929792]
 [  0.1        -17.9139155 ]
 [  0.2        -66.75779592]
 [  0.3         77.64459909]
 [  0.32341667  72.64294537]]","[[0.         0.87054072]
 [0.1        0.34658018]
 [0.2        0.49970414]
 [0.3        1.94720887]
 [0.32341667 1.76390144]]",0,0.28
8731029739,f,22,english,5,3,english,2024-01-25 10:40:30.331193,False,2,475,sounds\english\audio/english_722.wav,"[[  0.          56.33358757]
 [  0.1        -63.11389498]
 [  0.2         65.64746862]
 [  0.3        -93.10605514]
 [  0.32341667 -45.92743551]]","[[0.         0.09194264]
 [0.1        1.89550133]
 [0.2        0.18403216]
 [0.3        1.23223326]
 [0.32341667 0.28331892]]",0,1.134
8731029739,f,22,english,5,3,english,2024-01-25 10:40:30.331193,False,2,476,sounds\english\audio/english_918.wav,"[[  0.         -64.11083249]
 [  0.1         75.84330997]
 [  0.2        -30.10314186]
 [  0.3         91.40385877]
 [  0.32341667 -14.12068895]]","[[0.         1.38668504]
 [0.1        1.4522357 ]
 [0.2        1.37046734]
 [0.3        0.70209545]
 [0.32341667 0.09881605]]",0,0.332
8731029739,f,22,english,5,3,english,2024-01-25 10:40:30.331193,False,2,477,sounds\english\audio/english_746.wav,"[[  0.          -1.32395796]
 [  0.1        -67.07117971]
 [  0.2         75.09604974]
 [  0.3        -48.59278454]
 [  0.32341667  -6.52080997]]","[[0.         1.72273729]
 [0.1        1.22961235]
 [0.2        1.29107068]
 [0.3        1.34694816]
 [0.32341667 0.94274536]]",0,0.219
8731029739,f,22,english,5,3,english,2024-01-25 10:40:30.331193,False,2,478,sounds\english\audio/english_976.wav,"[[  0.         -92.49082032]
 [  0.1         92.01562452]
 [  0.2        -80.55764576]
 [  0.3        -70.09009567]
 [  0.32341667  -7.5394989 ]]","[[0.         0.30893725]
 [0.1        1.54393752]
 [0.2        1.31466429]
 [0.3        1.88171095]
 [0.32341667 1.71314556]]",0,0.706
8731029739,f,22,english,5,3,english,2024-01-25 10:40:30.331193,False,2,479,sounds\english\audio/english_935.wav,"[[  0.          64.39543101]
 [  0.1         86.95314533]
 [  0.2        -18.93400703]
 [  0.3         36.25821345]
 [  0.32341667 -52.75689815]]","[[0.         0.53440609]
 [0.1        0.5847186 ]
 [0.2        0.87093815]
 [0.3        1.35336039]
 [0.32341667 1.46825192]]",1,1.67
8731029739,f,22,english,5,3,english,2024-01-25 10:40:30.331193,False,2,480,sounds\english\audio/english_922.wav,"[[  0.         -90.36253489]
 [  0.1         -6.38761956]
 [  0.2        -78.09661245]
 [  0.3        -92.75722173]
 [  0.32341667 -80.16719401]]","[[0.         0.33253962]
 [0.1        1.51366693]
 [0.2        0.40049791]
 [0.3        1.29207892]
 [0.32341667 1.40400382]]",0,0.507
8731029739,f,22,english,5,3,english,2024-01-25 10:40:30.331193,False,2,481,sounds\english\audio/english_713.wav,"[[ 0.         18.77281956]
 [ 0.1        40.78610286]
 [ 0.2        84.18153491]
 [ 0.3        47.00827256]
 [ 0.32341667 66.01008384]]","[[0.         1.04868626]
 [0.1        0.48332939]
 [0.2        0.83217717]
 [0.3        1.90318663]
 [0.32341667 0.50055362]]",0,0.372
8731029739,f,22,english,5,3,english,2024-01-25 10:40:30.331193,False,2,482,sounds\english\audio/english_668.wav,"[[ 0.         48.8265236 ]
 [ 0.1        97.68090991]
 [ 0.2        47.50182685]
 [ 0.3        81.7432518 ]
 [ 0.32341667 28.08178094]]","[[0.         0.43768829]
 [0.1        0.31983773]
 [0.2        1.24438546]
 [0.3        0.49120307]
 [0.32341667 0.60639718]]",0,0.385
8731029739,f,22,english,5,3,english,2024-01-25 10:40:30.331193,False,2,483,sounds\english\audio/english_759.wav,"[[  0.          22.56482953]
 [  0.1        -26.57515882]
 [  0.2         58.52096087]
 [  0.3         67.88336338]
 [  0.32341667 -98.7178367 ]]","[[0.         0.32974928]
 [0.1        0.74944663]
 [0.2        0.73148935]
 [0.3        0.69769471]
 [0.32341667 1.46371733]]",0,2.184
8731029739,f,22,english,5,3,english,2024-01-25 10:40:30.331193,False,2,484,sounds\english\audio/english_462.wav,"[[  0.         -35.73318704]
 [  0.1         -5.65949109]
 [  0.2        -49.47542688]
 [  0.3        -98.18570674]
 [  0.32341667 -16.34927785]]","[[0.         1.53267708]
 [0.1        1.98369384]
 [0.2        1.31270994]
 [0.3        1.26289606]
 [0.32341667 1.36496903]]",0,0.635
8731029739,f,22,english,5,3,english,2024-01-25 10:40:30.331193,False,2,485,sounds\english\audio/english_946.wav,"[[  0.         -74.23479435]
 [  0.1        -11.3601526 ]
 [  0.2         36.50675361]
 [  0.3        -13.94845552]
 [  0.32341667  -6.97265347]]","[[0.         1.22824298]
 [0.1        0.85784227]
 [0.2        0.09585286]
 [0.3        0.43829102]
 [0.32341667 0.86422506]]",0,1.208
8731029739,f,22,english,5,3,english,2024-01-25 10:40:30.331193,False,2,486,sounds\english\audio/english_914.wav,"[[  0.          37.51857345]
 [  0.1        -30.53068311]
 [  0.2        -12.980452  ]
 [  0.3        -99.09260462]
 [  0.32341667 -34.91402533]]","[[0.         0.04486829]
 [0.1        1.18486584]
 [0.2        1.58356311]
 [0.3        1.35478251]
 [0.32341667 1.16671671]]",0,1.275
8731029739,f,22,english,5,3,english,2024-01-25 10:40:30.331193,False,2,487,sounds\english\audio/english_200.wav,"[[  0.          48.98677304]
 [  0.1         13.54292536]
 [  0.2         15.98335964]
 [  0.3        -46.7743147 ]
 [  0.32341667 -12.18386714]]","[[0.         1.07797747]
 [0.1        1.23698451]
 [0.2        0.85343662]
 [0.3        1.38707984]
 [0.32341667 0.65409939]]",0,1.283
8731029739,f,22,english,5,3,english,2024-01-25 10:40:30.331193,False,2,488,sounds\english\audio/english_996.wav,"[[  0.         -71.70531914]
 [  0.1        -47.61419544]
 [  0.2         48.0330823 ]
 [  0.3         34.27821317]
 [  0.32341667 -72.4662587 ]]","[[0.         1.36459419]
 [0.1        0.5051745 ]
 [0.2        1.09957376]
 [0.3        0.27950682]
 [0.32341667 0.22836241]]",0,0.581
8731029739,f,22,english,5,3,english,2024-01-25 10:40:30.331193,False,2,489,sounds\english\audio/english_677.wav,"[[  0.          74.92499355]
 [  0.1         35.44886391]
 [  0.2          3.82146975]
 [  0.3         10.3543008 ]
 [  0.32341667 -53.94170103]]","[[0.         0.4070184 ]
 [0.1        0.82737557]
 [0.2        0.46436239]
 [0.3        1.40426898]
 [0.32341667 1.42138659]]",0,1.265
8731029739,f,22,english,5,3,english,2024-01-25 10:40:30.331193,False,2,490,sounds\english\audio/english_970.wav,"[[  0.          37.22911191]
 [  0.1         36.57191813]
 [  0.2         20.2344678 ]
 [  0.3        -86.31030026]
 [  0.32341667 -83.96880691]]","[[0.         0.60712849]
 [0.1        1.26781741]
 [0.2        1.29373459]
 [0.3        0.18112256]
 [0.32341667 1.07780169]]",0,0.329
8731029739,f,22,english,5,3,english,2024-01-25 10:40:30.331193,False,2,491,sounds\english\audio/english_489.wav,"[[  0.           5.7057461 ]
 [  0.1        -88.87009038]
 [  0.2         73.69789316]
 [  0.3          8.66804208]
 [  0.32341667 -19.53009002]]","[[0.         0.60142671]
 [0.1        1.38499056]
 [0.2        0.38073994]
 [0.3        0.90212706]
 [0.32341667 1.00729778]]",0,0.341
8731029739,f,22,english,5,3,english,2024-01-25 10:40:30.331193,False,2,492,sounds\english\audio/english_584.wav,"[[  0.          10.38934641]
 [  0.1         16.58552078]
 [  0.2         93.24376001]
 [  0.3        -17.62367845]
 [  0.32341667  35.31863132]]","[[0.         1.28044862]
 [0.1        0.12750447]
 [0.2        0.67889343]
 [0.3        1.20299248]
 [0.32341667 1.61660781]]",0,0.833
8731029739,f,22,english,5,3,english,2024-01-25 10:40:30.331193,False,2,493,sounds\english\audio/english_225.wav,"[[  0.          66.72796839]
 [  0.1          3.03768966]
 [  0.2        -45.96345052]
 [  0.3        -88.14676012]
 [  0.32341667  46.76760659]]","[[0.         1.97535322]
 [0.1        1.18784527]
 [0.2        1.58393351]
 [0.3        1.17885171]
 [0.32341667 1.387907  ]]",0,0.741
8731029739,f,22,english,5,3,english,2024-01-25 10:40:30.331193,False,2,494,sounds\english\audio/english_892.wav,"[[ 0.         38.63128374]
 [ 0.1        22.49899687]
 [ 0.2        28.84135264]
 [ 0.3        81.19740532]
 [ 0.32341667 22.37782167]]","[[0.         0.97893944]
 [0.1        0.66551001]
 [0.2        0.36795179]
 [0.3        1.0840826 ]
 [0.32341667 0.83637256]]",0,0.384
8731029739,f,22,english,5,3,english,2024-01-25 10:40:30.331193,False,2,495,sounds\english\audio/english_319.wav,"[[  0.         -84.37928886]
 [  0.1        -52.76931383]
 [  0.2         56.06390533]
 [  0.3        -69.46438111]
 [  0.32341667  91.86152445]]","[[0.         1.17141126]
 [0.1        1.13741792]
 [0.2        0.91618882]
 [0.3        0.7080153 ]
 [0.32341667 0.5910213 ]]",0,0.281
8731029739,f,22,english,5,3,english,2024-01-25 10:40:30.331193,False,2,496,sounds\english\audio/english_686.wav,"[[  0.         -30.40223154]
 [  0.1         40.30213926]
 [  0.2         68.68183252]
 [  0.3         82.36920372]
 [  0.32341667   5.8000707 ]]","[[0.         0.36787347]
 [0.1        1.54584144]
 [0.2        1.54645212]
 [0.3        1.04035585]
 [0.32341667 1.51520661]]",0,0.484
8731029739,f,22,english,5,3,english,2024-01-25 10:40:30.331193,False,2,497,sounds\english\audio/english_813.wav,"[[ 0.         55.66932548]
 [ 0.1        81.68960615]
 [ 0.2        55.75765178]
 [ 0.3        -1.25572602]
 [ 0.32341667 95.15429199]]","[[0.         1.32885027]
 [0.1        1.76450173]
 [0.2        0.71046445]
 [0.3        1.00431818]
 [0.32341667 0.60962601]]",0,0.203
8731029739,f,22,english,5,3,english,2024-01-25 10:40:30.331193,False,2,498,sounds\english\audio/english_693.wav,"[[  0.         -83.71635172]
 [  0.1         32.46406691]
 [  0.2          8.27548994]
 [  0.3         15.80660539]
 [  0.32341667  74.32681132]]","[[0.         0.35753224]
 [0.1        1.09553371]
 [0.2        1.67166692]
 [0.3        1.61413862]
 [0.32341667 1.90943184]]",0,0.52
8731029739,f,22,english,5,3,english,2024-01-25 10:40:30.331193,False,2,499,sounds\english\audio/english_698.wav,"[[  0.         -86.30999669]
 [  0.1        -91.60158578]
 [  0.2        -41.16326515]
 [  0.3          7.86252123]
 [  0.32341667  25.04181708]]","[[0.         1.66322514]
 [0.1        1.16924533]
 [0.2        1.29610919]
 [0.3        1.21006153]
 [0.32341667 1.83628755]]",0,0.598
8731029739,f,22,english,5,3,english,2024-01-25 10:40:30.331193,False,2,500,sounds\english\audio/english_216.wav,"[[  0.         -62.2888105 ]
 [  0.1        -52.19325919]
 [  0.2        -77.81566322]
 [  0.3         73.5246301 ]
 [  0.32341667  73.4409389 ]]","[[0.         1.07577895]
 [0.1        1.07125686]
 [0.2        1.51342084]
 [0.3        1.37714716]
 [0.32341667 1.55456291]]",0,0.552
8731029739,f,22,english,5,3,english,2024-01-25 10:40:30.331193,False,2,501,sounds\english\audio/english_279.wav,"[[  0.         -20.90398108]
 [  0.1         98.83098338]
 [  0.2        -95.37608427]
 [  0.3        -52.65380993]
 [  0.32341667  47.72500112]]","[[0.         0.60114424]
 [0.1        0.92336304]
 [0.2        1.39045705]
 [0.3        0.64938935]
 [0.32341667 1.57478054]]",0,0.383
8731029739,f,22,english,5,3,english,2024-01-25 10:40:30.331193,False,2,502,sounds\english\audio/english_109.wav,"[[  0.          44.56131593]
 [  0.1        -35.23159756]
 [  0.2        -19.62269282]
 [  0.3         38.10372837]
 [  0.32341667 -20.09605057]]","[[0.         1.07349586]
 [0.1        1.27535987]
 [0.2        1.28483541]
 [0.3        1.04109326]
 [0.32341667 0.10213448]]",0,0.446
