subj,sex,age,language,english,french,native_lang,date,practice,block,trial,stim,pitch,stretch,response,rt
8734529389,f,24,english,5,4,english,2024-01-25 10:40:21.090585,True,0,0,sounds\english\audio/english_169.wav,"[[  0.          21.52556644]
 [  0.1        -62.21960884]
 [  0.2        -58.58818316]
 [  0.3         14.95103608]
 [  0.32341667  21.70814087]]","[[0.         0.24747868]
 [0.1        0.51530303]
 [0.2        1.14352058]
 [0.3        1.46694059]
 [0.32341667 1.67980684]]",0,2.13
8734529389,f,24,english,5,4,english,2024-01-25 10:40:21.090585,True,0,1,sounds\english\audio/english_516.wav,"[[  0.         -37.49134217]
 [  0.1         56.61653956]
 [  0.2         60.98574822]
 [  0.3         -0.52682824]
 [  0.32341667 -50.41932267]]","[[0.         0.47483782]
 [0.1        1.0523806 ]
 [0.2        0.59798137]
 [0.3        0.6957238 ]
 [0.32341667 1.76373844]]",0,2.664
8734529389,f,24,english,5,4,english,2024-01-25 10:40:21.090585,True,0,2,sounds\english\audio/english_478.wav,"[[  0.         -70.9954821 ]
 [  0.1         18.763036  ]
 [  0.2         84.30682023]
 [  0.3         96.70790152]
 [  0.32341667 -65.75430749]]","[[0.         0.91489342]
 [0.1        1.0325944 ]
 [0.2        1.47139294]
 [0.3        0.31719256]
 [0.32341667 1.1469235 ]]",0,2.408
8734529389,f,24,english,5,4,english,2024-01-25 10:40:21.090585,False,1,3,sounds\english\audio/english_34.wav,"[[  0.         -48.07924103]
 [  0.1        -64.84739183]
 [  0.2        -20.81716265]
 [  0.3         91.13652067]
 [  0.32341667 -54.46543937]]","[[0.         1.44836266]
 [0.1        1.89580324]
 [0.2        0.64308549]
 [0.3        0.0848332 ]
 [0.32341667 0.8036564 ]]",0,2.508
8734529389,f,24,english,5,4,english,2024-01-25 10:40:21.090585,False,1,4,sounds\english\audio/english_362.wav,"[[  0.          12.71485551]
 [  0.1        -18.83660308]
 [  0.2        -52.07271323]
 [  0.3        -29.96931661]
 [  0.32341667  -9.99178163]]","[[0.         1.44490364]
 [0.1        1.3029027 ]
 [0.2        1.10609828]
 [0.3        1.18379787]
 [0.32341667 1.80996789]]",0,2.91
8734529389,f,24,english,5,4,english,2024-01-25 10:40:21.090585,False,1,5,sounds\english\audio/english_410.wav,"[[  0.         -74.64506245]
 [  0.1         65.24401488]
 [  0.2        -65.86471953]
 [  0.3         98.79489106]
 [  0.32341667  14.95451541]]","[[0.         0.42358098]
 [0.1        0.42526697]
 [0.2        1.12385183]
 [0.3        0.33588109]
 [0.32341667 1.7246864 ]]",0,2.141
8734529389,f,24,english,5,4,english,2024-01-25 10:40:21.090585,False,1,6,sounds\english\audio/english_400.wav,"[[  0.          -9.17924521]
 [  0.1        -51.0410118 ]
 [  0.2         66.2548805 ]
 [  0.3         92.33374018]
 [  0.32341667 -60.80730989]]","[[0.         1.06898792]
 [0.1        0.05890524]
 [0.2        1.54728483]
 [0.3        1.43953162]
 [0.32341667 1.12546459]]",0,3.068
8734529389,f,24,english,5,4,english,2024-01-25 10:40:21.090585,False,1,7,sounds\english\audio/english_811.wav,"[[  0.         -51.03425556]
 [  0.1         22.81695275]
 [  0.2         73.06623682]
 [  0.3         -9.17693151]
 [  0.32341667  79.97760745]]","[[0.         1.55055496]
 [0.1        1.74830484]
 [0.2        1.24661488]
 [0.3        0.09792889]
 [0.32341667 0.03735929]]",1,0.914
8734529389,f,24,english,5,4,english,2024-01-25 10:40:21.090585,False,1,8,sounds\english\audio/english_728.wav,"[[  0.          -6.4565561 ]
 [  0.1          2.02882612]
 [  0.2        -40.29513079]
 [  0.3        -29.37287389]
 [  0.32341667 -32.17490136]]","[[0.         1.7247049 ]
 [0.1        1.95158608]
 [0.2        0.21085377]
 [0.3        0.85434083]
 [0.32341667 1.52436666]]",1,0.595
8734529389,f,24,english,5,4,english,2024-01-25 10:40:21.090585,False,1,9,sounds\english\audio/english_257.wav,"[[  0.         -68.31428674]
 [  0.1        -13.90908686]
 [  0.2         54.08743226]
 [  0.3        -42.73693867]
 [  0.32341667  -1.03846516]]","[[0.         1.40239735]
 [0.1        1.49673114]
 [0.2        1.07658057]
 [0.3        0.27427112]
 [0.32341667 1.90516482]]",0,1.061
8734529389,f,24,english,5,4,english,2024-01-25 10:40:21.090585,False,1,10,sounds\english\audio/english_110.wav,"[[  0.          87.43016285]
 [  0.1        -22.53798338]
 [  0.2         60.38266123]
 [  0.3         50.75224473]
 [  0.32341667  87.78495288]]","[[0.         1.84693198]
 [0.1        0.72868036]
 [0.2        1.6889543 ]
 [0.3        0.97311446]
 [0.32341667 0.46157718]]",1,1.543
8734529389,f,24,english,5,4,english,2024-01-25 10:40:21.090585,False,1,11,sounds\english\audio/english_513.wav,"[[  0.          76.78578212]
 [  0.1         20.42124481]
 [  0.2         83.32251122]
 [  0.3         47.28432413]
 [  0.32341667 -50.64117466]]","[[0.         0.02403043]
 [0.1        0.85164369]
 [0.2        1.08658436]
 [0.3        0.40639055]
 [0.32341667 1.29336046]]",0,3.566
8734529389,f,24,english,5,4,english,2024-01-25 10:40:21.090585,False,1,12,sounds\english\audio/english_360.wav,"[[  0.         -50.57937638]
 [  0.1        -29.22164644]
 [  0.2        -88.45421248]
 [  0.3         93.68039656]
 [  0.32341667  -2.59092547]]","[[0.         0.73788637]
 [0.1        0.6487653 ]
 [0.2        0.73193848]
 [0.3        1.75347372]
 [0.32341667 1.19277037]]",0,1.58
8734529389,f,24,english,5,4,english,2024-01-25 10:40:21.090585,False,1,13,sounds\english\audio/english_858.wav,"[[  0.          45.12570132]
 [  0.1        -46.71359417]
 [  0.2        -60.32464978]
 [  0.3        -70.46241098]
 [  0.32341667  76.51169453]]","[[0.         0.50395823]
 [0.1        1.50658612]
 [0.2        0.86887416]
 [0.3        0.20520469]
 [0.32341667 1.05885662]]",1,1.188
8734529389,f,24,english,5,4,english,2024-01-25 10:40:21.090585,False,1,14,sounds\english\audio/english_276.wav,"[[  0.         -87.25523595]
 [  0.1         16.91650801]
 [  0.2        -40.09372932]
 [  0.3          3.19229046]
 [  0.32341667  18.84785296]]","[[0.         1.1918401 ]
 [0.1        0.89399115]
 [0.2        0.89701806]
 [0.3        1.98333504]
 [0.32341667 1.85350493]]",1,0.79
8734529389,f,24,english,5,4,english,2024-01-25 10:40:21.090585,False,1,15,sounds\english\audio/english_678.wav,"[[  0.          87.86222938]
 [  0.1        -47.14792626]
 [  0.2         -6.84659798]
 [  0.3         87.67045201]
 [  0.32341667 -51.71213936]]","[[0.         1.6760541 ]
 [0.1        0.22369522]
 [0.2        1.1260271 ]
 [0.3        1.53941447]
 [0.32341667 1.37136581]]",1,0.619
8734529389,f,24,english,5,4,english,2024-01-25 10:40:21.090585,False,1,16,sounds\english\audio/english_99.wav,"[[  0.           9.75149611]
 [  0.1         -7.37998228]
 [  0.2         29.15889261]
 [  0.3        -23.23230809]
 [  0.32341667  51.25937721]]","[[0.         0.79411887]
 [0.1        0.53064308]
 [0.2        0.10254027]
 [0.3        0.53999741]
 [0.32341667 0.74302856]]",0,1.193
8734529389,f,24,english,5,4,english,2024-01-25 10:40:21.090585,False,1,17,sounds\english\audio/english_174.wav,"[[  0.         -14.93169449]
 [  0.1        -60.50222611]
 [  0.2        -88.67347191]
 [  0.3        -20.58504224]
 [  0.32341667 -52.28073567]]","[[0.         0.27768215]
 [0.1        0.13809097]
 [0.2        0.18584848]
 [0.3        1.46718454]
 [0.32341667 0.17567705]]",1,0.713
8734529389,f,24,english,5,4,english,2024-01-25 10:40:21.090585,False,1,18,sounds\english\audio/english_996.wav,"[[  0.         -71.70531914]
 [  0.1        -47.61419544]
 [  0.2         48.0330823 ]
 [  0.3         34.27821317]
 [  0.32341667 -72.4662587 ]]","[[0.         1.36459419]
 [0.1        0.5051745 ]
 [0.2        1.09957376]
 [0.3        0.27950682]
 [0.32341667 0.22836241]]",1,0.85
8734529389,f,24,english,5,4,english,2024-01-25 10:40:21.090585,False,1,19,sounds\english\audio/english_804.wav,"[[  0.          11.23319328]
 [  0.1        -75.15189859]
 [  0.2          5.39397939]
 [  0.3         42.92141331]
 [  0.32341667 -79.84726866]]","[[0.         0.16159815]
 [0.1        1.76023076]
 [0.2        0.7355024 ]
 [0.3        1.74636497]
 [0.32341667 1.05562007]]",1,0.81
8734529389,f,24,english,5,4,english,2024-01-25 10:40:21.090585,False,1,20,sounds\english\audio/english_551.wav,"[[  0.          51.69986033]
 [  0.1        -91.31948841]
 [  0.2         12.24586311]
 [  0.3        -52.90680215]
 [  0.32341667 -27.23325687]]","[[0.         0.0331047 ]
 [0.1        0.51079487]
 [0.2        1.83581854]
 [0.3        0.12201236]
 [0.32341667 1.55189277]]",0,0.496
8734529389,f,24,english,5,4,english,2024-01-25 10:40:21.090585,False,1,21,sounds\english\audio/english_465.wav,"[[  0.          40.04056426]
 [  0.1        -97.28817369]
 [  0.2        -58.72937184]
 [  0.3         82.2448524 ]
 [  0.32341667 -29.20233879]]","[[0.         1.33778995]
 [0.1        0.1899685 ]
 [0.2        1.35609136]
 [0.3        1.94032164]
 [0.32341667 0.27858753]]",1,0.578
8734529389,f,24,english,5,4,english,2024-01-25 10:40:21.090585,False,1,22,sounds\english\audio/english_580.wav,"[[  0.          92.13406767]
 [  0.1        -85.58685866]
 [  0.2         57.10945482]
 [  0.3         32.92004132]
 [  0.32341667  52.08708517]]","[[0.         1.93694744]
 [0.1        0.28773753]
 [0.2        0.86433335]
 [0.3        0.96651265]
 [0.32341667 1.25003658]]",1,1.02
8734529389,f,24,english,5,4,english,2024-01-25 10:40:21.090585,False,1,23,sounds\english\audio/english_826.wav,"[[  0.          24.96468068]
 [  0.1          1.37616969]
 [  0.2        -71.19975556]
 [  0.3        -48.49913399]
 [  0.32341667  40.69153462]]","[[0.         1.6444456 ]
 [0.1        0.97947611]
 [0.2        0.49097947]
 [0.3        0.98819908]
 [0.32341667 1.05842158]]",0,0.482
8734529389,f,24,english,5,4,english,2024-01-25 10:40:21.090585,False,1,24,sounds\english\audio/english_462.wav,"[[  0.         -35.73318704]
 [  0.1         -5.65949109]
 [  0.2        -49.47542688]
 [  0.3        -98.18570674]
 [  0.32341667 -16.34927785]]","[[0.         1.53267708]
 [0.1        1.98369384]
 [0.2        1.31270994]
 [0.3        1.26289606]
 [0.32341667 1.36496903]]",1,0.391
8734529389,f,24,english,5,4,english,2024-01-25 10:40:21.090585,False,1,25,sounds\english\audio/english_489.wav,"[[  0.           5.7057461 ]
 [  0.1        -88.87009038]
 [  0.2         73.69789316]
 [  0.3          8.66804208]
 [  0.32341667 -19.53009002]]","[[0.         0.60142671]
 [0.1        1.38499056]
 [0.2        0.38073994]
 [0.3        0.90212706]
 [0.32341667 1.00729778]]",0,0.69
8734529389,f,24,english,5,4,english,2024-01-25 10:40:21.090585,False,1,26,sounds\english\audio/english_809.wav,"[[  0.          -9.08149959]
 [  0.1         12.16544582]
 [  0.2         40.52205867]
 [  0.3        -94.19679153]
 [  0.32341667  -5.82752377]]","[[0.         0.73203403]
 [0.1        0.53159531]
 [0.2        1.48114639]
 [0.3        1.77078339]
 [0.32341667 1.36117577]]",1,0.413
8734529389,f,24,english,5,4,english,2024-01-25 10:40:21.090585,False,1,27,sounds\english\audio/english_101.wav,"[[  0.          60.77829508]
 [  0.1         43.41373716]
 [  0.2         56.16195873]
 [  0.3        -99.94719329]
 [  0.32341667  -1.35074094]]","[[0.         0.77962125]
 [0.1        0.02040908]
 [0.2        0.79248433]
 [0.3        1.74003505]
 [0.32341667 1.66206156]]",0,0.578
8734529389,f,24,english,5,4,english,2024-01-25 10:40:21.090585,False,1,28,sounds\english\audio/english_347.wav,"[[  0.          34.89178431]
 [  0.1         53.24978685]
 [  0.2          4.11185022]
 [  0.3         89.26663646]
 [  0.32341667 -53.02646266]]","[[0.         1.32203506]
 [0.1        0.28714436]
 [0.2        1.66093526]
 [0.3        1.29826057]
 [0.32341667 0.05504814]]",1,0.523
8734529389,f,24,english,5,4,english,2024-01-25 10:40:21.090585,False,1,29,sounds\english\audio/english_55.wav,"[[  0.          71.89255128]
 [  0.1          0.20692224]
 [  0.2        -68.61006599]
 [  0.3         -5.20952515]
 [  0.32341667  28.45991968]]","[[0.         0.24931264]
 [0.1        1.79813092]
 [0.2        0.71729895]
 [0.3        1.28733782]
 [0.32341667 1.77061752]]",1,0.304
8734529389,f,24,english,5,4,english,2024-01-25 10:40:21.090585,False,1,30,sounds\english\audio/english_457.wav,"[[  0.         -73.30847947]
 [  0.1        -25.74413936]
 [  0.2          8.82772976]
 [  0.3         -2.30416086]
 [  0.32341667 -34.04493945]]","[[0.         0.35525387]
 [0.1        0.90483023]
 [0.2        1.30004432]
 [0.3        0.93422762]
 [0.32341667 1.31504388]]",1,1.811
8734529389,f,24,english,5,4,english,2024-01-25 10:40:21.090585,False,1,31,sounds\english\audio/english_86.wav,"[[  0.         -48.59393833]
 [  0.1         77.37095157]
 [  0.2         44.19816726]
 [  0.3        -99.780271  ]
 [  0.32341667  38.96545556]]","[[0.         1.45450552]
 [0.1        1.8635573 ]
 [0.2        1.174515  ]
 [0.3        1.46785746]
 [0.32341667 0.99607158]]",0,4.508
8734529389,f,24,english,5,4,english,2024-01-25 10:40:21.090585,False,1,32,sounds\english\audio/english_586.wav,"[[  0.         -62.23642036]
 [  0.1         79.13201234]
 [  0.2        -89.54923437]
 [  0.3        -19.27573078]
 [  0.32341667 -62.71214645]]","[[0.         1.06144709]
 [0.1        0.54207142]
 [0.2        0.72134233]
 [0.3        0.33417878]
 [0.32341667 1.54129631]]",0,0.525
8734529389,f,24,english,5,4,english,2024-01-25 10:40:21.090585,False,1,33,sounds\english\audio/english_804.wav,"[[  0.          11.23319328]
 [  0.1        -75.15189859]
 [  0.2          5.39397939]
 [  0.3         42.92141331]
 [  0.32341667 -79.84726866]]","[[0.         0.16159815]
 [0.1        1.76023076]
 [0.2        0.7355024 ]
 [0.3        1.74636497]
 [0.32341667 1.05562007]]",1,0.99
8734529389,f,24,english,5,4,english,2024-01-25 10:40:21.090585,False,1,34,sounds\english\audio/english_217.wav,"[[  0.         -87.44045162]
 [  0.1         26.67222095]
 [  0.2         97.90977363]
 [  0.3          4.49718441]
 [  0.32341667  13.31384309]]","[[0.         1.20965721]
 [0.1        0.05295089]
 [0.2        1.23557872]
 [0.3        1.80752812]
 [0.32341667 1.57586313]]",0,0.474
8734529389,f,24,english,5,4,english,2024-01-25 10:40:21.090585,False,1,35,sounds\english\audio/english_447.wav,"[[  0.          38.77193801]
 [  0.1         -3.53992528]
 [  0.2         54.1888363 ]
 [  0.3        -95.90180003]
 [  0.32341667  48.32118178]]","[[0.         0.52212734]
 [0.1        0.58948567]
 [0.2        0.60662966]
 [0.3        0.73195254]
 [0.32341667 0.21856551]]",0,0.562
8734529389,f,24,english,5,4,english,2024-01-25 10:40:21.090585,False,1,36,sounds\english\audio/english_793.wav,"[[  0.          -3.59370976]
 [  0.1        -92.44382947]
 [  0.2        -89.84008222]
 [  0.3         96.09352514]
 [  0.32341667  42.94050617]]","[[0.         0.95327953]
 [0.1        0.8890172 ]
 [0.2        0.47547445]
 [0.3        1.09208031]
 [0.32341667 0.63383093]]",0,0.564
8734529389,f,24,english,5,4,english,2024-01-25 10:40:21.090585,False,1,37,sounds\english\audio/english_978.wav,"[[  0.         -73.1961296 ]
 [  0.1        -56.98452675]
 [  0.2          1.81288897]
 [  0.3        -17.93803526]
 [  0.32341667 -33.17886565]]","[[0.         0.69168228]
 [0.1        1.28516196]
 [0.2        1.00851945]
 [0.3        0.05981722]
 [0.32341667 1.89275203]]",1,0.384
8734529389,f,24,english,5,4,english,2024-01-25 10:40:21.090585,False,1,38,sounds\english\audio/english_842.wav,"[[  0.         -48.5952207 ]
 [  0.1         29.19485822]
 [  0.2         84.54328152]
 [  0.3         69.99994667]
 [  0.32341667  56.72069463]]","[[0.         0.12382156]
 [0.1        1.75564688]
 [0.2        0.24815543]
 [0.3        1.2885643 ]
 [0.32341667 0.70518165]]",0,0.455
8734529389,f,24,english,5,4,english,2024-01-25 10:40:21.090585,False,1,39,sounds\english\audio/english_901.wav,"[[  0.         -14.81770559]
 [  0.1        -27.73561163]
 [  0.2        -22.44015454]
 [  0.3        -41.34815185]
 [  0.32341667  10.13492358]]","[[0.         1.5194741 ]
 [0.1        1.98674938]
 [0.2        0.54356598]
 [0.3        1.30497628]
 [0.32341667 0.61526789]]",0,2.444
8734529389,f,24,english,5,4,english,2024-01-25 10:40:21.090585,False,1,40,sounds\english\audio/english_321.wav,"[[ 0.          2.07721816]
 [ 0.1        59.48735819]
 [ 0.2        64.78149714]
 [ 0.3        65.58393414]
 [ 0.32341667 14.66673939]]","[[0.         1.69623759]
 [0.1        1.35736687]
 [0.2        1.92920457]
 [0.3        0.66559077]
 [0.32341667 1.66523208]]",0,1.501
8734529389,f,24,english,5,4,english,2024-01-25 10:40:21.090585,False,1,41,sounds\english\audio/english_485.wav,"[[  0.          -7.08941798]
 [  0.1        -70.64579204]
 [  0.2         23.79115045]
 [  0.3          0.80487994]
 [  0.32341667   4.72097057]]","[[0.         1.8206563 ]
 [0.1        0.10660577]
 [0.2        1.92760945]
 [0.3        0.77499174]
 [0.32341667 1.20070888]]",1,0.487
8734529389,f,24,english,5,4,english,2024-01-25 10:40:21.090585,False,1,42,sounds\english\audio/english_629.wav,"[[  0.          76.68747977]
 [  0.1         72.0676039 ]
 [  0.2         -3.42071834]
 [  0.3        -75.36993348]
 [  0.32341667 -15.4233884 ]]","[[0.         0.56482572]
 [0.1        0.14075004]
 [0.2        0.80885654]
 [0.3        1.43133267]
 [0.32341667 0.14234351]]",0,0.4
8734529389,f,24,english,5,4,english,2024-01-25 10:40:21.090585,False,1,43,sounds\english\audio/english_824.wav,"[[  0.          80.46503136]
 [  0.1        -48.668347  ]
 [  0.2         37.27765876]
 [  0.3        -91.29945309]
 [  0.32341667  14.46507007]]","[[0.         1.43025592]
 [0.1        0.89138167]
 [0.2        1.91281619]
 [0.3        0.71335031]
 [0.32341667 0.89780818]]",0,2.799
8734529389,f,24,english,5,4,english,2024-01-25 10:40:21.090585,False,1,44,sounds\english\audio/english_729.wav,"[[  0.          31.16849918]
 [  0.1        -74.04657477]
 [  0.2         98.28479208]
 [  0.3         45.68234461]
 [  0.32341667 -23.12232547]]","[[0.         1.30127688]
 [0.1        1.28998605]
 [0.2        0.71365363]
 [0.3        0.61436371]
 [0.32341667 0.96520681]]",0,0.434
8734529389,f,24,english,5,4,english,2024-01-25 10:40:21.090585,False,1,45,sounds\english\audio/english_361.wav,"[[  0.          47.37783877]
 [  0.1         41.96620543]
 [  0.2        -99.83447432]
 [  0.3        -83.75612903]
 [  0.32341667  99.31228573]]","[[0.         1.2281625 ]
 [0.1        0.32170701]
 [0.2        0.41267147]
 [0.3        0.32528287]
 [0.32341667 0.29737668]]",0,0.663
8734529389,f,24,english,5,4,english,2024-01-25 10:40:21.090585,False,1,46,sounds\english\audio/english_728.wav,"[[  0.          -6.4565561 ]
 [  0.1          2.02882612]
 [  0.2        -40.29513079]
 [  0.3        -29.37287389]
 [  0.32341667 -32.17490136]]","[[0.         1.7247049 ]
 [0.1        1.95158608]
 [0.2        0.21085377]
 [0.3        0.85434083]
 [0.32341667 1.52436666]]",1,0.384
8734529389,f,24,english,5,4,english,2024-01-25 10:40:21.090585,False,1,47,sounds\english\audio/english_566.wav,"[[  0.          70.56000247]
 [  0.1         -0.18246418]
 [  0.2        -23.7188651 ]
 [  0.3         12.5469797 ]
 [  0.32341667 -84.37997634]]","[[0.         1.04698608]
 [0.1        1.13826263]
 [0.2        1.91259561]
 [0.3        1.08561121]
 [0.32341667 1.98926692]]",0,1.024
8734529389,f,24,english,5,4,english,2024-01-25 10:40:21.090585,False,1,48,sounds\english\audio/english_358.wav,"[[  0.         -24.40280242]
 [  0.1         62.18566088]
 [  0.2          5.26675109]
 [  0.3        -31.91571391]
 [  0.32341667  27.35112364]]","[[0.         0.64702298]
 [0.1        0.86836285]
 [0.2        1.05826104]
 [0.3        1.98011631]
 [0.32341667 0.35058307]]",1,0.653
8734529389,f,24,english,5,4,english,2024-01-25 10:40:21.090585,False,1,49,sounds\english\audio/english_223.wav,"[[  0.         -51.58222533]
 [  0.1        -36.02700064]
 [  0.2        -35.4915315 ]
 [  0.3          1.26892628]
 [  0.32341667  72.37143842]]","[[0.         0.62889348]
 [0.1        1.73736573]
 [0.2        1.20130681]
 [0.3        0.53176439]
 [0.32341667 1.24562253]]",1,0.459
8734529389,f,24,english,5,4,english,2024-01-25 10:40:21.090585,False,1,50,sounds\english\audio/english_581.wav,"[[  0.          -4.1565262 ]
 [  0.1         84.55344465]
 [  0.2        -57.45750027]
 [  0.3        -14.35569009]
 [  0.32341667 -54.33758456]]","[[0.         0.01704603]
 [0.1        1.32903406]
 [0.2        1.58046526]
 [0.3        1.16633299]
 [0.32341667 1.20758605]]",0,1.529
8734529389,f,24,english,5,4,english,2024-01-25 10:40:21.090585,False,1,51,sounds\english\audio/english_404.wav,"[[  0.          32.93077195]
 [  0.1         51.79107477]
 [  0.2        -61.91466198]
 [  0.3         33.45957754]
 [  0.32341667 -82.23793256]]","[[0.         0.80618862]
 [0.1        1.03327995]
 [0.2        1.39590152]
 [0.3        1.8615638 ]
 [0.32341667 0.80137687]]",1,0.564
8734529389,f,24,english,5,4,english,2024-01-25 10:40:21.090585,False,1,52,sounds\english\audio/english_226.wav,"[[  0.         -56.53605181]
 [  0.1         -5.93547338]
 [  0.2        -81.0596442 ]
 [  0.3        -12.14261426]
 [  0.32341667  40.67667876]]","[[0.         0.51185795]
 [0.1        0.73377568]
 [0.2        1.62034912]
 [0.3        0.19474782]
 [0.32341667 0.1395898 ]]",1,1.081
8734529389,f,24,english,5,4,english,2024-01-25 10:40:21.090585,False,1,53,sounds\english\audio/english_482.wav,"[[  0.         -75.58658814]
 [  0.1        -97.88900999]
 [  0.2         -4.46161317]
 [  0.3         31.34799552]
 [  0.32341667 -51.80510351]]","[[0.         1.00366747]
 [0.1        1.47597923]
 [0.2        1.10854794]
 [0.3        1.07348452]
 [0.32341667 0.67390339]]",1,0.378
8734529389,f,24,english,5,4,english,2024-01-25 10:40:21.090585,False,1,54,sounds\english\audio/english_153.wav,"[[  0.           1.34878197]
 [  0.1        -86.14475674]
 [  0.2          3.24582423]
 [  0.3         -6.94068795]
 [  0.32341667 -76.91560753]]","[[0.         1.20280718]
 [0.1        1.60924223]
 [0.2        0.94422247]
 [0.3        0.98008297]
 [0.32341667 0.34988026]]",1,0.869
8734529389,f,24,english,5,4,english,2024-01-25 10:40:21.090585,False,1,55,sounds\english\audio/english_731.wav,"[[  0.          91.74609406]
 [  0.1         96.5637085 ]
 [  0.2        -58.02596537]
 [  0.3         21.59328018]
 [  0.32341667  13.26044458]]","[[0.         0.2840719 ]
 [0.1        1.75324284]
 [0.2        1.43086201]
 [0.3        1.68336342]
 [0.32341667 0.60031718]]",1,0.468
8734529389,f,24,english,5,4,english,2024-01-25 10:40:21.090585,False,1,56,sounds\english\audio/english_249.wav,"[[  0.          78.40227579]
 [  0.1        -55.1129652 ]
 [  0.2          6.74447168]
 [  0.3         27.3376716 ]
 [  0.32341667 -97.08031886]]","[[0.         1.91339694]
 [0.1        1.00834957]
 [0.2        0.29418026]
 [0.3        1.53256547]
 [0.32341667 0.99264532]]",0,0.594
8734529389,f,24,english,5,4,english,2024-01-25 10:40:21.090585,False,1,57,sounds\english\audio/english_501.wav,"[[  0.          -7.07122187]
 [  0.1         10.00250781]
 [  0.2        -21.98285256]
 [  0.3         46.16062549]
 [  0.32341667  41.01655214]]","[[0.         1.4737248 ]
 [0.1        1.10212017]
 [0.2        1.65595948]
 [0.3        0.64757112]
 [0.32341667 0.36171009]]",1,0.738
8734529389,f,24,english,5,4,english,2024-01-25 10:40:21.090585,False,1,58,sounds\english\audio/english_169.wav,"[[  0.          21.52556644]
 [  0.1        -62.21960884]
 [  0.2        -58.58818316]
 [  0.3         14.95103608]
 [  0.32341667  21.70814087]]","[[0.         0.24747868]
 [0.1        0.51530303]
 [0.2        1.14352058]
 [0.3        1.46694059]
 [0.32341667 1.67980684]]",0,5.336
8734529389,f,24,english,5,4,english,2024-01-25 10:40:21.090585,False,1,59,sounds\english\audio/english_473.wav,"[[  0.           2.94536382]
 [  0.1         67.15962   ]
 [  0.2        -20.48190634]
 [  0.3         20.58811131]
 [  0.32341667 -71.10919795]]","[[0.         1.14273616]
 [0.1        0.71228689]
 [0.2        1.20280034]
 [0.3        0.94325649]
 [0.32341667 1.82149668]]",1,0.326
8734529389,f,24,english,5,4,english,2024-01-25 10:40:21.090585,False,1,60,sounds\english\audio/english_72.wav,"[[  0.           3.79788214]
 [  0.1        -35.73428138]
 [  0.2        -30.83181688]
 [  0.3        -68.4260973 ]
 [  0.32341667 -10.87667298]]","[[0.         1.04175162]
 [0.1        0.91099175]
 [0.2        0.34322307]
 [0.3        1.39599539]
 [0.32341667 0.78322702]]",0,0.337
8734529389,f,24,english,5,4,english,2024-01-25 10:40:21.090585,False,1,61,sounds\english\audio/english_42.wav,"[[  0.         -15.36487641]
 [  0.1         11.43696078]
 [  0.2         34.58464447]
 [  0.3         68.67640378]
 [  0.32341667 -67.59461511]]","[[0.         1.81244548]
 [0.1        1.472484  ]
 [0.2        0.21504119]
 [0.3        0.80253652]
 [0.32341667 1.53231421]]",1,0.594
8734529389,f,24,english,5,4,english,2024-01-25 10:40:21.090585,False,1,62,sounds\english\audio/english_348.wav,"[[  0.          21.35215111]
 [  0.1         14.79849269]
 [  0.2         53.1788992 ]
 [  0.3        -95.85723561]
 [  0.32341667   5.27283499]]","[[0.         0.19799702]
 [0.1        0.60931017]
 [0.2        0.16102666]
 [0.3        1.54818605]
 [0.32341667 0.26552753]]",0,0.477
8734529389,f,24,english,5,4,english,2024-01-25 10:40:21.090585,False,1,63,sounds\english\audio/english_274.wav,"[[  0.         -30.61452779]
 [  0.1        -42.14612233]
 [  0.2         32.00602795]
 [  0.3        -37.74375581]
 [  0.32341667 -54.5397802 ]]","[[0.         0.78021116]
 [0.1        1.93993358]
 [0.2        0.32963606]
 [0.3        1.46133782]
 [0.32341667 1.53178785]]",1,0.251
8734529389,f,24,english,5,4,english,2024-01-25 10:40:21.090585,False,1,64,sounds\english\audio/english_466.wav,"[[  0.          59.64739432]
 [  0.1        -20.63646321]
 [  0.2         62.86141463]
 [  0.3        -65.74461877]
 [  0.32341667  44.70090984]]","[[0.         1.91119383]
 [0.1        1.29572765]
 [0.2        0.99944191]
 [0.3        1.01221774]
 [0.32341667 0.89697717]]",1,0.243
8734529389,f,24,english,5,4,english,2024-01-25 10:40:21.090585,False,1,65,sounds\english\audio/english_613.wav,"[[  0.         -12.80235787]
 [  0.1         38.67858639]
 [  0.2         21.08834288]
 [  0.3         94.81469787]
 [  0.32341667  18.45506868]]","[[0.         0.8409713 ]
 [0.1        0.30410002]
 [0.2        0.031636  ]
 [0.3        1.79222997]
 [0.32341667 1.98455664]]",0,0.602
8734529389,f,24,english,5,4,english,2024-01-25 10:40:21.090585,False,1,66,sounds\english\audio/english_474.wav,"[[  0.          42.88606971]
 [  0.1          6.82691085]
 [  0.2        -33.80031927]
 [  0.3        -97.18672796]
 [  0.32341667  -4.7462475 ]]","[[0.         0.87351765]
 [0.1        1.08551449]
 [0.2        1.99847166]
 [0.3        0.27470298]
 [0.32341667 0.02962094]]",1,0.325
8734529389,f,24,english,5,4,english,2024-01-25 10:40:21.090585,False,1,67,sounds\english\audio/english_804.wav,"[[  0.          11.23319328]
 [  0.1        -75.15189859]
 [  0.2          5.39397939]
 [  0.3         42.92141331]
 [  0.32341667 -79.84726866]]","[[0.         0.16159815]
 [0.1        1.76023076]
 [0.2        0.7355024 ]
 [0.3        1.74636497]
 [0.32341667 1.05562007]]",1,0.51
8734529389,f,24,english,5,4,english,2024-01-25 10:40:21.090585,False,1,68,sounds\english\audio/english_272.wav,"[[  0.          61.82030971]
 [  0.1          4.16580657]
 [  0.2        -53.2567432 ]
 [  0.3        -52.99830768]
 [  0.32341667 -92.9943793 ]]","[[0.         1.51341556]
 [0.1        0.43290826]
 [0.2        1.82734584]
 [0.3        0.22094446]
 [0.32341667 1.88040337]]",1,0.705
8734529389,f,24,english,5,4,english,2024-01-25 10:40:21.090585,False,1,69,sounds\english\audio/english_203.wav,"[[  0.         -22.28277813]
 [  0.1         13.21695477]
 [  0.2         63.23651974]
 [  0.3        -20.14830746]
 [  0.32341667 -78.55276631]]","[[0.         1.31475846]
 [0.1        1.08922412]
 [0.2        0.55450355]
 [0.3        1.72034007]
 [0.32341667 0.92481053]]",0,0.521
8734529389,f,24,english,5,4,english,2024-01-25 10:40:21.090585,False,1,70,sounds\english\audio/english_798.wav,"[[  0.         -16.40769998]
 [  0.1          3.00381127]
 [  0.2        -31.24410556]
 [  0.3        -53.27973877]
 [  0.32341667  91.43563813]]","[[0.         1.85457914]
 [0.1        1.50219522]
 [0.2        0.78751403]
 [0.3        1.17339142]
 [0.32341667 1.30184409]]",1,0.42
8734529389,f,24,english,5,4,english,2024-01-25 10:40:21.090585,False,1,71,sounds\english\audio/english_869.wav,"[[  0.          31.82870938]
 [  0.1         55.69153841]
 [  0.2         44.83997999]
 [  0.3        -64.6596515 ]
 [  0.32341667 -51.58434075]]","[[0.         0.91730192]
 [0.1        1.54634356]
 [0.2        0.32401745]
 [0.3        1.34292926]
 [0.32341667 0.99771643]]",0,2.881
8734529389,f,24,english,5,4,english,2024-01-25 10:40:21.090585,False,1,72,sounds\english\audio/english_758.wav,"[[  0.         -56.29380511]
 [  0.1          1.29517397]
 [  0.2         49.77366466]
 [  0.3         51.49077837]
 [  0.32341667  80.19813303]]","[[0.         1.72966744]
 [0.1        1.20455484]
 [0.2        0.98441853]
 [0.3        0.78323536]
 [0.32341667 1.88107652]]",1,0.78
8734529389,f,24,english,5,4,english,2024-01-25 10:40:21.090585,False,1,73,sounds\english\audio/english_720.wav,"[[  0.          85.23240719]
 [  0.1         78.65958559]
 [  0.2        -56.45174874]
 [  0.3         71.88898266]
 [  0.32341667  -9.13482   ]]","[[0.         1.23446246]
 [0.1        0.77382892]
 [0.2        0.48705718]
 [0.3        1.42335328]
 [0.32341667 1.32495619]]",0,0.38
8734529389,f,24,english,5,4,english,2024-01-25 10:40:21.090585,False,1,74,sounds\english\audio/english_618.wav,"[[  0.          58.31579708]
 [  0.1          6.96253647]
 [  0.2         -4.41581756]
 [  0.3        -63.5775247 ]
 [  0.32341667  97.77631762]]","[[0.         1.46895394]
 [0.1        0.48660613]
 [0.2        1.00963977]
 [0.3        1.29399549]
 [0.32341667 0.84060701]]",1,0.942
8734529389,f,24,english,5,4,english,2024-01-25 10:40:21.090585,False,1,75,sounds\english\audio/english_25.wav,"[[  0.         -93.68210842]
 [  0.1        -14.41268038]
 [  0.2         72.93230065]
 [  0.3         23.28545759]
 [  0.32341667  18.09953767]]","[[0.         1.14210865]
 [0.1        1.90089654]
 [0.2        0.61137859]
 [0.3        1.93042398]
 [0.32341667 1.11869114]]",0,0.295
8734529389,f,24,english,5,4,english,2024-01-25 10:40:21.090585,False,1,76,sounds\english\audio/english_570.wav,"[[  0.          79.72420881]
 [  0.1        -10.34227762]
 [  0.2         18.32754659]
 [  0.3         15.23919529]
 [  0.32341667 -28.05357781]]","[[0.         1.67561776]
 [0.1        1.50139893]
 [0.2        1.41834695]
 [0.3        1.12876239]
 [0.32341667 0.72546523]]",1,0.257
8734529389,f,24,english,5,4,english,2024-01-25 10:40:21.090585,False,1,77,sounds\english\audio/english_99.wav,"[[  0.           9.75149611]
 [  0.1         -7.37998228]
 [  0.2         29.15889261]
 [  0.3        -23.23230809]
 [  0.32341667  51.25937721]]","[[0.         0.79411887]
 [0.1        0.53064308]
 [0.2        0.10254027]
 [0.3        0.53999741]
 [0.32341667 0.74302856]]",1,0.729
8734529389,f,24,english,5,4,english,2024-01-25 10:40:21.090585,False,1,78,sounds\english\audio/english_840.wav,"[[  0.         -27.11425843]
 [  0.1        -47.31494811]
 [  0.2        -88.66887426]
 [  0.3          7.86940595]
 [  0.32341667  87.61758205]]","[[0.         1.31301797]
 [0.1        0.54280133]
 [0.2        0.14090987]
 [0.3        0.11950116]
 [0.32341667 1.48166624]]",1,1.121
8734529389,f,24,english,5,4,english,2024-01-25 10:40:21.090585,False,1,79,sounds\english\audio/english_231.wav,"[[  0.         -57.04299033]
 [  0.1        -61.30294243]
 [  0.2         11.10207427]
 [  0.3         -1.38864911]
 [  0.32341667 -40.37897369]]","[[0.         1.30850831]
 [0.1        1.06317761]
 [0.2        1.86768436]
 [0.3        1.42169342]
 [0.32341667 0.58634772]]",1,0.575
8734529389,f,24,english,5,4,english,2024-01-25 10:40:21.090585,False,1,80,sounds\english\audio/english_955.wav,"[[  0.         -93.58498903]
 [  0.1        -11.56731864]
 [  0.2         60.37787928]
 [  0.3         83.42366765]
 [  0.32341667 -60.32056418]]","[[0.         1.26703381]
 [0.1        0.51967441]
 [0.2        1.0313906 ]
 [0.3        1.58878747]
 [0.32341667 1.0025339 ]]",1,0.423
8734529389,f,24,english,5,4,english,2024-01-25 10:40:21.090585,False,1,81,sounds\english\audio/english_514.wav,"[[  0.         -61.65105701]
 [  0.1         49.84264816]
 [  0.2         14.14440898]
 [  0.3        -30.10662908]
 [  0.32341667  90.48337022]]","[[0.         1.12509033]
 [0.1        0.78701739]
 [0.2        0.37052689]
 [0.3        1.42053426]
 [0.32341667 1.94621598]]",0,0.377
8734529389,f,24,english,5,4,english,2024-01-25 10:40:21.090585,False,1,82,sounds\english\audio/english_255.wav,"[[  0.         -42.74550593]
 [  0.1         35.44578771]
 [  0.2         98.7346041 ]
 [  0.3         14.08839822]
 [  0.32341667 -55.38739786]]","[[0.         1.65518669]
 [0.1        1.85823386]
 [0.2        1.2123315 ]
 [0.3        0.62099519]
 [0.32341667 1.08486436]]",0,0.591
8734529389,f,24,english,5,4,english,2024-01-25 10:40:21.090585,False,1,83,sounds\english\audio/english_332.wav,"[[  0.         -51.41680869]
 [  0.1          4.985172  ]
 [  0.2         88.20327684]
 [  0.3        -58.40734817]
 [  0.32341667  68.30800912]]","[[0.         1.58782391]
 [0.1        0.72138411]
 [0.2        1.12265768]
 [0.3        0.23569111]
 [0.32341667 1.23583309]]",0,0.696
8734529389,f,24,english,5,4,english,2024-01-25 10:40:21.090585,False,1,84,sounds\english\audio/english_498.wav,"[[  0.           2.49020902]
 [  0.1        -20.55300452]
 [  0.2        -34.14985779]
 [  0.3         79.54997135]
 [  0.32341667  20.54695207]]","[[0.         0.78964515]
 [0.1        0.24391593]
 [0.2        0.11401041]
 [0.3        1.52582154]
 [0.32341667 0.62547878]]",0,1.248
8734529389,f,24,english,5,4,english,2024-01-25 10:40:21.090585,False,1,85,sounds\english\audio/english_491.wav,"[[  0.         -58.06424917]
 [  0.1        -10.73132445]
 [  0.2         17.9230478 ]
 [  0.3        -41.27614743]
 [  0.32341667 -30.17832464]]","[[0.         1.23740358]
 [0.1        0.97891215]
 [0.2        0.17588849]
 [0.3        0.52166982]
 [0.32341667 1.65640468]]",1,0.601
8734529389,f,24,english,5,4,english,2024-01-25 10:40:21.090585,False,1,86,sounds\english\audio/english_752.wav,"[[  0.         -89.50526135]
 [  0.1         16.42916277]
 [  0.2        -62.11724863]
 [  0.3        -22.7839786 ]
 [  0.32341667  21.77934146]]","[[0.         1.26833375]
 [0.1        1.25445964]
 [0.2        1.84048801]
 [0.3        0.96813738]
 [0.32341667 1.95604557]]",0,0.616
8734529389,f,24,english,5,4,english,2024-01-25 10:40:21.090585,False,1,87,sounds\english\audio/english_160.wav,"[[ 0.          2.54964477]
 [ 0.1        26.84692557]
 [ 0.2        72.58457191]
 [ 0.3        -6.94481249]
 [ 0.32341667 35.80656171]]","[[0.         0.54357393]
 [0.1        1.29343216]
 [0.2        0.42070854]
 [0.3        1.04489529]
 [0.32341667 0.26802137]]",0,0.777
8734529389,f,24,english,5,4,english,2024-01-25 10:40:21.090585,False,1,88,sounds\english\audio/english_482.wav,"[[  0.         -75.58658814]
 [  0.1        -97.88900999]
 [  0.2         -4.46161317]
 [  0.3         31.34799552]
 [  0.32341667 -51.80510351]]","[[0.         1.00366747]
 [0.1        1.47597923]
 [0.2        1.10854794]
 [0.3        1.07348452]
 [0.32341667 0.67390339]]",0,0.606
8734529389,f,24,english,5,4,english,2024-01-25 10:40:21.090585,False,1,89,sounds\english\audio/english_290.wav,"[[  0.          73.71968657]
 [  0.1        -59.85317413]
 [  0.2         71.1426587 ]
 [  0.3        -18.50007061]
 [  0.32341667 -65.91143137]]","[[0.         0.30552726]
 [0.1        1.31636279]
 [0.2        0.54925413]
 [0.3        1.26204455]
 [0.32341667 0.60528556]]",0,0.526
8734529389,f,24,english,5,4,english,2024-01-25 10:40:21.090585,False,1,90,sounds\english\audio/english_956.wav,"[[  0.         -98.71257913]
 [  0.1        -36.05702295]
 [  0.2        -31.95582623]
 [  0.3        -81.31295359]
 [  0.32341667  45.09425789]]","[[0.         1.5828524 ]
 [0.1        0.66985857]
 [0.2        0.13798036]
 [0.3        0.22663358]
 [0.32341667 0.54862974]]",0,0.825
8734529389,f,24,english,5,4,english,2024-01-25 10:40:21.090585,False,1,91,sounds\english\audio/english_769.wav,"[[  0.         -12.68288087]
 [  0.1         13.58895245]
 [  0.2         -5.57429841]
 [  0.3        -26.44516544]
 [  0.32341667  85.93285426]]","[[0.         1.59358978]
 [0.1        0.16681031]
 [0.2        0.74292099]
 [0.3        0.17250104]
 [0.32341667 0.16730253]]",0,0.636
8734529389,f,24,english,5,4,english,2024-01-25 10:40:21.090585,False,1,92,sounds\english\audio/english_242.wav,"[[ 0.         26.44185099]
 [ 0.1        44.29547205]
 [ 0.2        -3.86423299]
 [ 0.3        60.29108386]
 [ 0.32341667 18.66576556]]","[[0.         0.44763058]
 [0.1        1.06541359]
 [0.2        0.64111919]
 [0.3        0.35225786]
 [0.32341667 1.0072971 ]]",0,0.684
8734529389,f,24,english,5,4,english,2024-01-25 10:40:21.090585,False,1,93,sounds\english\audio/english_656.wav,"[[  0.          -4.15957802]
 [  0.1        -31.70283109]
 [  0.2        -35.90055673]
 [  0.3        -27.39202404]
 [  0.32341667  -5.54715508]]","[[0.         0.9962349 ]
 [0.1        1.16669679]
 [0.2        0.85512169]
 [0.3        1.68840921]
 [0.32341667 1.5699395 ]]",0,0.774
8734529389,f,24,english,5,4,english,2024-01-25 10:40:21.090585,False,1,94,sounds\english\audio/english_776.wav,"[[  0.          29.86548478]
 [  0.1          2.8025705 ]
 [  0.2        -38.4768188 ]
 [  0.3        -89.49838949]
 [  0.32341667  30.18488016]]","[[0.         0.57139857]
 [0.1        1.94435619]
 [0.2        0.3951066 ]
 [0.3        0.29859462]
 [0.32341667 1.93939037]]",0,0.601
8734529389,f,24,english,5,4,english,2024-01-25 10:40:21.090585,False,1,95,sounds\english\audio/english_564.wav,"[[  0.          -4.16228192]
 [  0.1         -8.38376801]
 [  0.2         52.82752554]
 [  0.3        -92.64870354]
 [  0.32341667 -48.86146536]]","[[0.         1.35245187]
 [0.1        0.24798142]
 [0.2        1.26376743]
 [0.3        0.73548171]
 [0.32341667 0.1394123 ]]",1,0.657
8734529389,f,24,english,5,4,english,2024-01-25 10:40:21.090585,False,1,96,sounds\english\audio/english_777.wav,"[[  0.         -69.33808121]
 [  0.1         83.00406244]
 [  0.2         52.8456083 ]
 [  0.3        -67.57367145]
 [  0.32341667  44.30015735]]","[[0.         1.41371967]
 [0.1        0.89293833]
 [0.2        0.52129979]
 [0.3        0.31704889]
 [0.32341667 0.90388625]]",0,1.045
8734529389,f,24,english,5,4,english,2024-01-25 10:40:21.090585,False,1,97,sounds\english\audio/english_927.wav,"[[  0.          81.66311017]
 [  0.1          0.87570902]
 [  0.2        -59.21619647]
 [  0.3        -57.6787773 ]
 [  0.32341667 -30.87043146]]","[[0.         1.3783001 ]
 [0.1        0.51323502]
 [0.2        0.98265958]
 [0.3        0.30790993]
 [0.32341667 1.17222751]]",0,0.751
8734529389,f,24,english,5,4,english,2024-01-25 10:40:21.090585,False,1,98,sounds\english\audio/english_512.wav,"[[  0.          92.76608442]
 [  0.1        -20.68005196]
 [  0.2        -55.10098951]
 [  0.3         79.8086149 ]
 [  0.32341667 -91.21136492]]","[[0.         1.91273189]
 [0.1        1.02897077]
 [0.2        0.7965214 ]
 [0.3        1.98502062]
 [0.32341667 0.13323305]]",0,0.495
8734529389,f,24,english,5,4,english,2024-01-25 10:40:21.090585,False,1,99,sounds\english\audio/english_214.wav,"[[  0.          58.82847816]
 [  0.1         87.26801489]
 [  0.2        -28.10234025]
 [  0.3        -36.12188516]
 [  0.32341667 -45.93983978]]","[[0.         1.81864401]
 [0.1        0.97241975]
 [0.2        1.91423566]
 [0.3        1.71940232]
 [0.32341667 0.68694042]]",0,0.377
8734529389,f,24,english,5,4,english,2024-01-25 10:40:21.090585,False,1,100,sounds\english\audio/english_135.wav,"[[  0.          92.53632507]
 [  0.1         42.68843281]
 [  0.2         87.27237188]
 [  0.3        -70.62725941]
 [  0.32341667  91.37204548]]","[[0.         0.8813083 ]
 [0.1        1.60503348]
 [0.2        0.22265806]
 [0.3        0.4233462 ]
 [0.32341667 0.99500327]]",0,0.643
8734529389,f,24,english,5,4,english,2024-01-25 10:40:21.090585,False,1,101,sounds\english\audio/english_388.wav,"[[  0.          17.9760939 ]
 [  0.1        -43.00340989]
 [  0.2        -30.55059063]
 [  0.3        -92.55876504]
 [  0.32341667 -64.21175873]]","[[0.         0.95494184]
 [0.1        0.10281418]
 [0.2        1.52164503]
 [0.3        1.24827519]
 [0.32341667 0.08180338]]",1,1.276
8734529389,f,24,english,5,4,english,2024-01-25 10:40:21.090585,False,1,102,sounds\english\audio/english_765.wav,"[[  0.         -52.71695997]
 [  0.1         -0.72548599]
 [  0.2        -25.46106624]
 [  0.3        -15.36834083]
 [  0.32341667 -34.08212533]]","[[0.         0.24697616]
 [0.1        1.34458244]
 [0.2        0.2833524 ]
 [0.3        0.99517128]
 [0.32341667 0.81265208]]",0,0.799
8734529389,f,24,english,5,4,english,2024-01-25 10:40:21.090585,False,1,103,sounds\english\audio/english_268.wav,"[[  0.          55.18591224]
 [  0.1         47.37483414]
 [  0.2         46.97410588]
 [  0.3        -64.08979313]
 [  0.32341667  35.8590447 ]]","[[0.         1.47327052]
 [0.1        0.95932673]
 [0.2        1.80275919]
 [0.3        1.6474991 ]
 [0.32341667 1.56533667]]",1,1.932
8734529389,f,24,english,5,4,english,2024-01-25 10:40:21.090585,False,1,104,sounds\english\audio/english_902.wav,"[[  0.          -4.27617126]
 [  0.1         -5.01127315]
 [  0.2         83.22080084]
 [  0.3         77.56473772]
 [  0.32341667 -13.02741535]]","[[0.         0.16330526]
 [0.1        0.62492789]
 [0.2        1.08638924]
 [0.3        1.61764227]
 [0.32341667 1.72075309]]",0,0.326
8734529389,f,24,english,5,4,english,2024-01-25 10:40:21.090585,False,1,105,sounds\english\audio/english_424.wav,"[[  0.          -7.44814198]
 [  0.1          9.0703424 ]
 [  0.2        -65.6005214 ]
 [  0.3         79.88163057]
 [  0.32341667  48.78273262]]","[[0.         1.7438251 ]
 [0.1        1.33993463]
 [0.2        0.96535207]
 [0.3        0.39557207]
 [0.32341667 0.47346175]]",1,0.439
8734529389,f,24,english,5,4,english,2024-01-25 10:40:21.090585,False,1,106,sounds\english\audio/english_494.wav,"[[ 0.00000000e+00 -3.60210196e+00]
 [ 1.00000000e-01 -1.20609558e-02]
 [ 2.00000000e-01 -7.52550513e+01]
 [ 3.00000000e-01  3.96800445e+01]
 [ 3.23416667e-01  7.81977592e+01]]","[[0.         0.92014098]
 [0.1        1.08763174]
 [0.2        0.29239621]
 [0.3        0.26357805]
 [0.32341667 1.67878037]]",0,0.527
8734529389,f,24,english,5,4,english,2024-01-25 10:40:21.090585,False,1,107,sounds\english\audio/english_611.wav,"[[  0.           4.04989913]
 [  0.1        -26.35519993]
 [  0.2        -41.22744209]
 [  0.3        -72.41198747]
 [  0.32341667 -60.09703168]]","[[0.         1.48647041]
 [0.1        0.87297853]
 [0.2        0.91907267]
 [0.3        0.12624761]
 [0.32341667 0.964981  ]]",0,0.502
8734529389,f,24,english,5,4,english,2024-01-25 10:40:21.090585,False,1,108,sounds\english\audio/english_972.wav,"[[  0.         -87.82800068]
 [  0.1        -25.45661385]
 [  0.2          2.95853851]
 [  0.3         84.61583696]
 [  0.32341667  42.95706616]]","[[0.         1.28286493]
 [0.1        0.89058027]
 [0.2        1.4716374 ]
 [0.3        0.6386035 ]
 [0.32341667 1.51056083]]",0,0.531
8734529389,f,24,english,5,4,english,2024-01-25 10:40:21.090585,False,1,109,sounds\english\audio/english_161.wav,"[[  0.          16.17182642]
 [  0.1         51.23408036]
 [  0.2         56.55598601]
 [  0.3        -25.08054758]
 [  0.32341667 -70.36900789]]","[[0.         0.80971259]
 [0.1        1.56168911]
 [0.2        0.91666403]
 [0.3        1.93998208]
 [0.32341667 0.76147365]]",1,0.616
8734529389,f,24,english,5,4,english,2024-01-25 10:40:21.090585,False,1,110,sounds\english\audio/english_558.wav,"[[  0.         -73.38624366]
 [  0.1        -42.42633216]
 [  0.2         15.99713578]
 [  0.3        -33.12568725]
 [  0.32341667  44.00446366]]","[[0.         1.58797859]
 [0.1        1.10525313]
 [0.2        0.42598769]
 [0.3        0.25629603]
 [0.32341667 1.81995896]]",1,0.734
8734529389,f,24,english,5,4,english,2024-01-25 10:40:21.090585,False,1,111,sounds\english\audio/english_926.wav,"[[  0.         -21.84910749]
 [  0.1         92.62617727]
 [  0.2        -40.07927874]
 [  0.3         30.58508574]
 [  0.32341667 -68.98646438]]","[[0.         1.63725542]
 [0.1        0.91190035]
 [0.2        0.45967153]
 [0.3        0.64362954]
 [0.32341667 1.44788087]]",1,0.604
8734529389,f,24,english,5,4,english,2024-01-25 10:40:21.090585,False,1,112,sounds\english\audio/english_762.wav,"[[  0.         -56.40971946]
 [  0.1         -9.09046034]
 [  0.2         20.98892014]
 [  0.3        -66.43296232]
 [  0.32341667 -91.78640069]]","[[0.         1.43822993]
 [0.1        1.11776807]
 [0.2        0.71531135]
 [0.3        0.54997993]
 [0.32341667 0.26897274]]",1,0.594
8734529389,f,24,english,5,4,english,2024-01-25 10:40:21.090585,False,1,113,sounds\english\audio/english_707.wav,"[[  0.         -17.04120346]
 [  0.1        -57.44917128]
 [  0.2         90.75848643]
 [  0.3         96.79852424]
 [  0.32341667  27.01716591]]","[[0.         1.06535483]
 [0.1        0.89541794]
 [0.2        1.64838001]
 [0.3        0.75431717]
 [0.32341667 0.48082071]]",1,0.574
8734529389,f,24,english,5,4,english,2024-01-25 10:40:21.090585,False,1,114,sounds\english\audio/english_509.wav,"[[  0.          58.37136146]
 [  0.1        -30.59588084]
 [  0.2        -42.62400689]
 [  0.3         58.46483968]
 [  0.32341667  44.09610342]]","[[0.         0.93627824]
 [0.1        1.268957  ]
 [0.2        0.87018438]
 [0.3        1.67134466]
 [0.32341667 1.96584472]]",0,0.41
8734529389,f,24,english,5,4,english,2024-01-25 10:40:21.090585,False,1,115,sounds\english\audio/english_73.wav,"[[  0.         -73.49165063]
 [  0.1         65.54847429]
 [  0.2        -55.11967081]
 [  0.3         68.77466141]
 [  0.32341667 -37.79888894]]","[[0.         1.41947215]
 [0.1        1.68852165]
 [0.2        0.59259525]
 [0.3        0.85140805]
 [0.32341667 1.17745107]]",1,0.603
8734529389,f,24,english,5,4,english,2024-01-25 10:40:21.090585,False,1,116,sounds\english\audio/english_617.wav,"[[  0.         -99.94195333]
 [  0.1        -27.54289523]
 [  0.2        -31.48016085]
 [  0.3        -72.28967102]
 [  0.32341667 -18.83127656]]","[[0.         1.17597353]
 [0.1        0.72595777]
 [0.2        0.94648609]
 [0.3        1.67485207]
 [0.32341667 0.94146903]]",1,1.095
8734529389,f,24,english,5,4,english,2024-01-25 10:40:21.090585,False,1,117,sounds\english\audio/english_996.wav,"[[  0.         -71.70531914]
 [  0.1        -47.61419544]
 [  0.2         48.0330823 ]
 [  0.3         34.27821317]
 [  0.32341667 -72.4662587 ]]","[[0.         1.36459419]
 [0.1        0.5051745 ]
 [0.2        1.09957376]
 [0.3        0.27950682]
 [0.32341667 0.22836241]]",1,0.733
8734529389,f,24,english,5,4,english,2024-01-25 10:40:21.090585,False,1,118,sounds\english\audio/english_430.wav,"[[  0.          72.23510535]
 [  0.1         -9.56156918]
 [  0.2         36.71559936]
 [  0.3        -33.55254317]
 [  0.32341667 -25.71861109]]","[[0.         0.8682214 ]
 [0.1        0.26781202]
 [0.2        1.38873793]
 [0.3        0.29076709]
 [0.32341667 0.30869259]]",0,0.862
8734529389,f,24,english,5,4,english,2024-01-25 10:40:21.090585,False,1,119,sounds\english\audio/english_638.wav,"[[  0.           6.92468799]
 [  0.1         52.10042521]
 [  0.2        -39.07293948]
 [  0.3         38.46029754]
 [  0.32341667 -16.6630855 ]]","[[0.         1.1702122 ]
 [0.1        0.51269982]
 [0.2        0.1912204 ]
 [0.3        0.91406415]
 [0.32341667 1.67689755]]",1,0.761
8734529389,f,24,english,5,4,english,2024-01-25 10:40:21.090585,False,1,120,sounds\english\audio/english_821.wav,"[[  0.          -4.04234253]
 [  0.1         50.39518932]
 [  0.2         58.18996785]
 [  0.3        -22.07293427]
 [  0.32341667  56.43229939]]","[[0.         1.62928948]
 [0.1        0.78033958]
 [0.2        1.56476115]
 [0.3        0.56557752]
 [0.32341667 0.93389964]]",1,1.884
8734529389,f,24,english,5,4,english,2024-01-25 10:40:21.090585,False,1,121,sounds\english\audio/english_788.wav,"[[  0.         -93.79628683]
 [  0.1        -45.29703147]
 [  0.2        -46.01001772]
 [  0.3        -56.6729179 ]
 [  0.32341667  51.29020462]]","[[0.         0.67330318]
 [0.1        1.33385595]
 [0.2        1.35248941]
 [0.3        1.33220146]
 [0.32341667 1.32468206]]",1,1.274
8734529389,f,24,english,5,4,english,2024-01-25 10:40:21.090585,False,1,122,sounds\english\audio/english_537.wav,"[[  0.          70.8709352 ]
 [  0.1         32.34369018]
 [  0.2        -92.9302278 ]
 [  0.3         14.89115364]
 [  0.32341667 -67.12260703]]","[[0.         0.55947112]
 [0.1        1.10627241]
 [0.2        1.10842043]
 [0.3        0.86800797]
 [0.32341667 1.7659473 ]]",0,0.464
8734529389,f,24,english,5,4,english,2024-01-25 10:40:21.090585,False,1,123,sounds\english\audio/english_250.wav,"[[  0.          15.9272347 ]
 [  0.1        -20.77070657]
 [  0.2        -20.08480075]
 [  0.3        -29.82576937]
 [  0.32341667  87.83532187]]","[[0.         0.97372592]
 [0.1        1.45189783]
 [0.2        0.50513237]
 [0.3        1.38910207]
 [0.32341667 1.51614456]]",0,1.201
8734529389,f,24,english,5,4,english,2024-01-25 10:40:21.090585,False,1,124,sounds\english\audio/english_829.wav,"[[  0.          60.30417439]
 [  0.1        -26.87459656]
 [  0.2         59.05286014]
 [  0.3        -38.64739237]
 [  0.32341667  68.61732932]]","[[0.         0.94286345]
 [0.1        0.76756767]
 [0.2        1.50609211]
 [0.3        0.33518122]
 [0.32341667 1.40687349]]",1,1.783
8734529389,f,24,english,5,4,english,2024-01-25 10:40:21.090585,False,1,125,sounds\english\audio/english_449.wav,"[[  0.         -46.54576765]
 [  0.1         20.05422573]
 [  0.2         54.52400621]
 [  0.3         73.66855139]
 [  0.32341667  -1.88675615]]","[[0.         0.60085197]
 [0.1        1.74901032]
 [0.2        1.9506545 ]
 [0.3        1.81044704]
 [0.32341667 0.93562966]]",0,0.894
8734529389,f,24,english,5,4,english,2024-01-25 10:40:21.090585,False,1,126,sounds\english\audio/english_40.wav,"[[  0.          20.98315678]
 [  0.1         80.64974175]
 [  0.2          5.38930518]
 [  0.3         18.83593916]
 [  0.32341667 -14.62145671]]","[[0.         0.33544846]
 [0.1        0.81764939]
 [0.2        0.17548883]
 [0.3        0.83674413]
 [0.32341667 0.80890384]]",1,1.303
8734529389,f,24,english,5,4,english,2024-01-25 10:40:21.090585,False,1,127,sounds\english\audio/english_406.wav,"[[  0.          28.09923375]
 [  0.1        -15.10813675]
 [  0.2        -12.43931725]
 [  0.3        -27.33468297]
 [  0.32341667 -62.66931892]]","[[0.         1.43312072]
 [0.1        0.8890381 ]
 [0.2        0.60560557]
 [0.3        1.13565345]
 [0.32341667 1.8467177 ]]",1,0.452
8734529389,f,24,english,5,4,english,2024-01-25 10:40:21.090585,False,1,128,sounds\english\audio/english_684.wav,"[[  0.           0.36394418]
 [  0.1         28.47964645]
 [  0.2         60.47995017]
 [  0.3        -33.43266819]
 [  0.32341667 -31.86672206]]","[[0.         1.65924935]
 [0.1        1.32149406]
 [0.2        0.32417562]
 [0.3        1.42108385]
 [0.32341667 1.29243289]]",0,0.622
8734529389,f,24,english,5,4,english,2024-01-25 10:40:21.090585,False,1,129,sounds\english\audio/english_51.wav,"[[  0.          88.48054236]
 [  0.1        -53.5534646 ]
 [  0.2        -33.31344908]
 [  0.3         87.0533187 ]
 [  0.32341667 -16.55219825]]","[[0.         0.21487201]
 [0.1        0.90061677]
 [0.2        0.24834744]
 [0.3        1.31052611]
 [0.32341667 0.58644625]]",0,0.501
8734529389,f,24,english,5,4,english,2024-01-25 10:40:21.090585,False,1,130,sounds\english\audio/english_721.wav,"[[  0.          -1.67193172]
 [  0.1         23.81304459]
 [  0.2         94.27532923]
 [  0.3         10.08520391]
 [  0.32341667 -26.68837018]]","[[0.         0.23966059]
 [0.1        1.61361986]
 [0.2        0.58045828]
 [0.3        1.63757532]
 [0.32341667 1.4581473 ]]",0,0.502
8734529389,f,24,english,5,4,english,2024-01-25 10:40:21.090585,False,1,131,sounds\english\audio/english_287.wav,"[[  0.          -5.71925808]
 [  0.1        -94.78041007]
 [  0.2          8.34641368]
 [  0.3         36.34893025]
 [  0.32341667 -22.47689594]]","[[0.         1.04112926]
 [0.1        0.35149142]
 [0.2        0.86781598]
 [0.3        1.897904  ]
 [0.32341667 0.5607403 ]]",1,0.863
8734529389,f,24,english,5,4,english,2024-01-25 10:40:21.090585,False,1,132,sounds\english\audio/english_434.wav,"[[  0.          -4.12787863]
 [  0.1        -30.19441281]
 [  0.2         41.04377471]
 [  0.3        -32.43591961]
 [  0.32341667  61.53108406]]","[[0.         0.96421208]
 [0.1        1.08561731]
 [0.2        1.46356301]
 [0.3        0.25116585]
 [0.32341667 0.73120458]]",1,1.34
8734529389,f,24,english,5,4,english,2024-01-25 10:40:21.090585,False,1,133,sounds\english\audio/english_456.wav,"[[ 0.         43.57092671]
 [ 0.1        59.73787768]
 [ 0.2        82.18665257]
 [ 0.3        84.09992258]
 [ 0.32341667 14.68455092]]","[[0.         0.12750432]
 [0.1        0.97340157]
 [0.2        0.43547726]
 [0.3        1.17970357]
 [0.32341667 0.64309566]]",0,0.711
8734529389,f,24,english,5,4,english,2024-01-25 10:40:21.090585,False,1,134,sounds\english\audio/english_599.wav,"[[  0.         -57.09760884]
 [  0.1         31.85682387]
 [  0.2         -6.73425875]
 [  0.3         47.95830633]
 [  0.32341667 -83.8084816 ]]","[[0.         1.03382432]
 [0.1        1.26885403]
 [0.2        1.24717465]
 [0.3        1.34338376]
 [0.32341667 0.34550335]]",0,0.769
8734529389,f,24,english,5,4,english,2024-01-25 10:40:21.090585,False,1,135,sounds\english\audio/english_310.wav,"[[  0.          82.1385274 ]
 [  0.1        -33.74608058]
 [  0.2         62.12487376]
 [  0.3         96.31437548]
 [  0.32341667 -23.64802517]]","[[0.         0.14341218]
 [0.1        1.80934389]
 [0.2        1.28785402]
 [0.3        1.13060378]
 [0.32341667 1.05137249]]",1,0.86
8734529389,f,24,english,5,4,english,2024-01-25 10:40:21.090585,False,1,136,sounds\english\audio/english_799.wav,"[[  0.         -48.4958847 ]
 [  0.1         -9.52866418]
 [  0.2          1.94176449]
 [  0.3          5.71676827]
 [  0.32341667  30.27282792]]","[[0.         1.9233431 ]
 [0.1        1.11542891]
 [0.2        0.95865462]
 [0.3        0.6616034 ]
 [0.32341667 1.91183458]]",1,0.511
8734529389,f,24,english,5,4,english,2024-01-25 10:40:21.090585,False,1,137,sounds\english\audio/english_652.wav,"[[  0.           4.27736911]
 [  0.1         18.79087972]
 [  0.2         61.32163128]
 [  0.3         45.76092148]
 [  0.32341667 -45.08671386]]","[[0.         0.30427218]
 [0.1        0.67520162]
 [0.2        0.66270689]
 [0.3        0.93987847]
 [0.32341667 1.10617978]]",1,0.814
8734529389,f,24,english,5,4,english,2024-01-25 10:40:21.090585,False,1,138,sounds\english\audio/english_389.wav,"[[  0.          36.16487693]
 [  0.1        -97.36259769]
 [  0.2         24.50411951]
 [  0.3         43.1395046 ]
 [  0.32341667  85.14605982]]","[[0.         1.25286497]
 [0.1        1.31396789]
 [0.2        1.84060757]
 [0.3        0.64046023]
 [0.32341667 1.47992762]]",1,1.71
8734529389,f,24,english,5,4,english,2024-01-25 10:40:21.090585,False,1,139,sounds\english\audio/english_801.wav,"[[  0.          66.50571345]
 [  0.1        -53.03260979]
 [  0.2         -3.89459646]
 [  0.3          8.32951864]
 [  0.32341667 -87.46806733]]","[[0.         0.19311528]
 [0.1        0.48683601]
 [0.2        1.16293258]
 [0.3        1.55734707]
 [0.32341667 0.63471681]]",1,1.381
8734529389,f,24,english,5,4,english,2024-01-25 10:40:21.090585,False,1,140,sounds\english\audio/english_504.wav,"[[ 0.          4.11468456]
 [ 0.1        70.56620437]
 [ 0.2         3.26767498]
 [ 0.3        -3.14493553]
 [ 0.32341667 43.57926014]]","[[0.         0.75379057]
 [0.1        1.18348717]
 [0.2        0.25360202]
 [0.3        1.87094491]
 [0.32341667 0.110125  ]]",0,0.177
8734529389,f,24,english,5,4,english,2024-01-25 10:40:21.090585,False,1,141,sounds\english\audio/english_102.wav,"[[  0.          32.71328306]
 [  0.1         59.73255369]
 [  0.2         -0.64397298]
 [  0.3        -37.18099902]
 [  0.32341667  41.63197766]]","[[0.         1.2311829 ]
 [0.1        0.25599615]
 [0.2        1.7526023 ]
 [0.3        1.98319627]
 [0.32341667 1.38410598]]",1,0.765
8734529389,f,24,english,5,4,english,2024-01-25 10:40:21.090585,False,1,142,sounds\english\audio/english_548.wav,"[[  0.          19.39315344]
 [  0.1         82.09582914]
 [  0.2        -65.55781301]
 [  0.3         -5.02691035]
 [  0.32341667  62.63141303]]","[[0.         0.41811488]
 [0.1        1.70384437]
 [0.2        1.82142436]
 [0.3        1.13784798]
 [0.32341667 1.73168063]]",0,0.236
8734529389,f,24,english,5,4,english,2024-01-25 10:40:21.090585,False,1,143,sounds\english\audio/english_343.wav,"[[  0.         -26.15456552]
 [  0.1         -4.26522308]
 [  0.2         55.3227334 ]
 [  0.3        -26.26518208]
 [  0.32341667 -18.3065251 ]]","[[0.         0.99905336]
 [0.1        0.59066439]
 [0.2        1.69088488]
 [0.3        1.70645599]
 [0.32341667 0.13143106]]",1,0.431
8734529389,f,24,english,5,4,english,2024-01-25 10:40:21.090585,False,1,144,sounds\english\audio/english_981.wav,"[[  0.         -19.49446297]
 [  0.1        -69.0386812 ]
 [  0.2        -25.77088537]
 [  0.3         65.67633712]
 [  0.32341667  -6.1640169 ]]","[[0.         1.96452006]
 [0.1        1.2006287 ]
 [0.2        0.98600753]
 [0.3        0.21362544]
 [0.32341667 0.33780549]]",0,0.349
8734529389,f,24,english,5,4,english,2024-01-25 10:40:21.090585,False,1,145,sounds\english\audio/english_941.wav,"[[  0.          88.25484185]
 [  0.1         29.23312353]
 [  0.2        -73.60888885]
 [  0.3        -38.35663254]
 [  0.32341667 -37.21470774]]","[[0.         1.5236155 ]
 [0.1        0.93469446]
 [0.2        0.44203051]
 [0.3        1.28625712]
 [0.32341667 1.264942  ]]",0,1.025
8734529389,f,24,english,5,4,english,2024-01-25 10:40:21.090585,False,1,146,sounds\english\audio/english_397.wav,"[[  0.          89.67962381]
 [  0.1        -80.29722345]
 [  0.2         60.53564011]
 [  0.3          9.94565725]
 [  0.32341667   0.1319882 ]]","[[0.         0.42719638]
 [0.1        0.89466904]
 [0.2        0.56174568]
 [0.3        0.1553242 ]
 [0.32341667 1.89079641]]",0,0.583
8734529389,f,24,english,5,4,english,2024-01-25 10:40:21.090585,False,1,147,sounds\english\audio/english_285.wav,"[[  0.         -19.0536712 ]
 [  0.1        -63.15395986]
 [  0.2        -57.682926  ]
 [  0.3        -56.52362331]
 [  0.32341667  11.40665652]]","[[0.         1.18823065]
 [0.1        1.010644  ]
 [0.2        0.4943662 ]
 [0.3        0.66348991]
 [0.32341667 0.86242978]]",0,0.535
8734529389,f,24,english,5,4,english,2024-01-25 10:40:21.090585,False,1,148,sounds\english\audio/english_577.wav,"[[  0.           0.60742169]
 [  0.1        -16.75441018]
 [  0.2         32.29278586]
 [  0.3         94.63733595]
 [  0.32341667 -75.78119055]]","[[0.         1.18439754]
 [0.1        1.17258894]
 [0.2        0.00832478]
 [0.3        1.24529525]
 [0.32341667 0.24980342]]",0,0.503
8734529389,f,24,english,5,4,english,2024-01-25 10:40:21.090585,False,1,149,sounds\english\audio/english_340.wav,"[[  0.          42.62794877]
 [  0.1         67.09042835]
 [  0.2        -80.28719593]
 [  0.3        -47.97556268]
 [  0.32341667  32.7013797 ]]","[[0.         1.44385011]
 [0.1        1.29329602]
 [0.2        1.71068781]
 [0.3        0.48872717]
 [0.32341667 1.09000269]]",1,0.235
8734529389,f,24,english,5,4,english,2024-01-25 10:40:21.090585,False,1,150,sounds\english\audio/english_175.wav,"[[  0.         -88.83902874]
 [  0.1          8.60564456]
 [  0.2          7.189218  ]
 [  0.3         -2.31675389]
 [  0.32341667 -21.56803319]]","[[0.         0.00773228]
 [0.1        1.6431495 ]
 [0.2        0.24882977]
 [0.3        1.20663028]
 [0.32341667 0.57172188]]",0,0.676
8734529389,f,24,english,5,4,english,2024-01-25 10:40:21.090585,False,1,151,sounds\english\audio/english_320.wav,"[[  0.         -85.59568725]
 [  0.1        -85.79055124]
 [  0.2        -34.52195848]
 [  0.3         14.03031204]
 [  0.32341667  45.83597199]]","[[0.         1.40519879]
 [0.1        0.4213256 ]
 [0.2        0.82537755]
 [0.3        0.50617831]
 [0.32341667 1.22725326]]",1,0.912
8734529389,f,24,english,5,4,english,2024-01-25 10:40:21.090585,False,1,152,sounds\english\audio/english_605.wav,"[[  0.         -82.65591545]
 [  0.1         35.78886654]
 [  0.2        -36.80716754]
 [  0.3         -4.39131435]
 [  0.32341667 -17.17702763]]","[[0.         0.90945233]
 [0.1        1.65178877]
 [0.2        0.21181898]
 [0.3        1.21754483]
 [0.32341667 1.60493484]]",0,0.405
8734529389,f,24,english,5,4,english,2024-01-25 10:40:21.090585,False,1,153,sounds\english\audio/english_840.wav,"[[  0.         -27.11425843]
 [  0.1        -47.31494811]
 [  0.2        -88.66887426]
 [  0.3          7.86940595]
 [  0.32341667  87.61758205]]","[[0.         1.31301797]
 [0.1        0.54280133]
 [0.2        0.14090987]
 [0.3        0.11950116]
 [0.32341667 1.48166624]]",0,2.872
8734529389,f,24,english,5,4,english,2024-01-25 10:40:21.090585,False,1,154,sounds\english\audio/english_992.wav,"[[  0.          -6.68189934]
 [  0.1         78.76679047]
 [  0.2        -58.5917679 ]
 [  0.3        -98.64651588]
 [  0.32341667  73.76402904]]","[[0.         0.46848529]
 [0.1        0.9874556 ]
 [0.2        0.57881803]
 [0.3        0.88425299]
 [0.32341667 0.6994588 ]]",0,0.288
8734529389,f,24,english,5,4,english,2024-01-25 10:40:21.090585,False,1,155,sounds\english\audio/english_465.wav,"[[  0.          40.04056426]
 [  0.1        -97.28817369]
 [  0.2        -58.72937184]
 [  0.3         82.2448524 ]
 [  0.32341667 -29.20233879]]","[[0.         1.33778995]
 [0.1        0.1899685 ]
 [0.2        1.35609136]
 [0.3        1.94032164]
 [0.32341667 0.27858753]]",1,0.559
8734529389,f,24,english,5,4,english,2024-01-25 10:40:21.090585,False,1,156,sounds\english\audio/english_530.wav,"[[  0.          21.55057906]
 [  0.1        -20.17265513]
 [  0.2        -52.07974762]
 [  0.3         87.36384387]
 [  0.32341667 -72.92256984]]","[[0.         0.25130805]
 [0.1        0.96020899]
 [0.2        1.55252741]
 [0.3        1.19622655]
 [0.32341667 0.75880724]]",1,1.234
8734529389,f,24,english,5,4,english,2024-01-25 10:40:21.090585,False,1,157,sounds\english\audio/english_123.wav,"[[  0.          67.91608163]
 [  0.1        -92.32097988]
 [  0.2         57.07371841]
 [  0.3         19.28317816]
 [  0.32341667  15.30546887]]","[[0.         1.13046919]
 [0.1        1.99597614]
 [0.2        1.53523853]
 [0.3        0.24385811]
 [0.32341667 0.39158976]]",0,0.432
8734529389,f,24,english,5,4,english,2024-01-25 10:40:21.090585,False,1,158,sounds\english\audio/english_982.wav,"[[  0.          12.44046596]
 [  0.1        -60.41666302]
 [  0.2        -35.31499742]
 [  0.3        -10.96739076]
 [  0.32341667  44.50624474]]","[[0.         0.81508625]
 [0.1        0.92712357]
 [0.2        0.77678916]
 [0.3        1.0294352 ]
 [0.32341667 1.1322674 ]]",0,0.573
8734529389,f,24,english,5,4,english,2024-01-25 10:40:21.090585,False,1,159,sounds\english\audio/english_356.wav,"[[  0.          87.74309864]
 [  0.1         -4.48264388]
 [  0.2         90.19031952]
 [  0.3        -69.40540064]
 [  0.32341667  65.10278108]]","[[0.         0.22820547]
 [0.1        1.49009691]
 [0.2        1.39023362]
 [0.3        1.78473098]
 [0.32341667 0.80628385]]",0,2.269
8734529389,f,24,english,5,4,english,2024-01-25 10:40:21.090585,False,1,160,sounds\english\audio/english_29.wav,"[[  0.          -2.71310826]
 [  0.1         17.7201972 ]
 [  0.2        -20.17501418]
 [  0.3         12.48271646]
 [  0.32341667  29.42079391]]","[[0.         1.50712016]
 [0.1        0.83644439]
 [0.2        0.76078741]
 [0.3        0.17009155]
 [0.32341667 1.26727983]]",0,0.394
8734529389,f,24,english,5,4,english,2024-01-25 10:40:21.090585,False,1,161,sounds\english\audio/english_203.wav,"[[  0.         -22.28277813]
 [  0.1         13.21695477]
 [  0.2         63.23651974]
 [  0.3        -20.14830746]
 [  0.32341667 -78.55276631]]","[[0.         1.31475846]
 [0.1        1.08922412]
 [0.2        0.55450355]
 [0.3        1.72034007]
 [0.32341667 0.92481053]]",0,0.392
8734529389,f,24,english,5,4,english,2024-01-25 10:40:21.090585,False,1,162,sounds\english\audio/english_534.wav,"[[  0.         -42.4271338 ]
 [  0.1        -80.6424644 ]
 [  0.2         59.29592388]
 [  0.3         75.02007223]
 [  0.32341667 -57.55026449]]","[[0.         1.1267565 ]
 [0.1        0.6842577 ]
 [0.2        0.01459656]
 [0.3        1.03701198]
 [0.32341667 1.25840342]]",1,1.786
8734529389,f,24,english,5,4,english,2024-01-25 10:40:21.090585,False,1,163,sounds\english\audio/english_20.wav,"[[  0.         -56.6830557 ]
 [  0.1         50.66790367]
 [  0.2        -18.96445326]
 [  0.3        -25.44345058]
 [  0.32341667  12.75548414]]","[[0.         0.06363068]
 [0.1        1.80739158]
 [0.2        1.41045117]
 [0.3        0.2049667 ]
 [0.32341667 0.27136646]]",0,0.216
8734529389,f,24,english,5,4,english,2024-01-25 10:40:21.090585,False,1,164,sounds\english\audio/english_199.wav,"[[  0.         -24.89956817]
 [  0.1        -48.49200931]
 [  0.2        -89.66548778]
 [  0.3         29.20785813]
 [  0.32341667 -88.68286362]]","[[0.         0.07306367]
 [0.1        0.10334581]
 [0.2        1.49062114]
 [0.3        0.36717513]
 [0.32341667 1.33179809]]",1,1.697
8734529389,f,24,english,5,4,english,2024-01-25 10:40:21.090585,False,1,165,sounds\english\audio/english_582.wav,"[[  0.         -29.81423477]
 [  0.1         37.42565533]
 [  0.2         79.58894888]
 [  0.3         49.55779855]
 [  0.32341667  54.00509918]]","[[0.         0.27230029]
 [0.1        0.84765039]
 [0.2        1.99526631]
 [0.3        1.55519667]
 [0.32341667 1.66653349]]",0,0.44
8734529389,f,24,english,5,4,english,2024-01-25 10:40:21.090585,False,1,166,sounds\english\audio/english_179.wav,"[[ 0.         76.93131114]
 [ 0.1         5.5150778 ]
 [ 0.2         3.89208722]
 [ 0.3        -8.47825544]
 [ 0.32341667 50.73924617]]","[[0.         0.23318107]
 [0.1        0.47080089]
 [0.2        1.31062884]
 [0.3        0.27743795]
 [0.32341667 0.83516241]]",0,0.655
8734529389,f,24,english,5,4,english,2024-01-25 10:40:21.090585,False,1,167,sounds\english\audio/english_782.wav,"[[  0.         -98.70381677]
 [  0.1        -69.82387258]
 [  0.2         35.26613747]
 [  0.3        -81.38004879]
 [  0.32341667 -61.83067014]]","[[0.         1.47488053]
 [0.1        0.7270016 ]
 [0.2        0.08778447]
 [0.3        1.16903228]
 [0.32341667 0.92727902]]",1,0.682
8734529389,f,24,english,5,4,english,2024-01-25 10:40:21.090585,False,1,168,sounds\english\audio/english_150.wav,"[[  0.         -51.77489255]
 [  0.1         16.7322824 ]
 [  0.2        -56.19561079]
 [  0.3         36.81691324]
 [  0.32341667 -97.11243964]]","[[0.         0.6625495 ]
 [0.1        1.26353984]
 [0.2        0.38378194]
 [0.3        1.59154348]
 [0.32341667 0.94821753]]",1,0.35
8734529389,f,24,english,5,4,english,2024-01-25 10:40:21.090585,False,1,169,sounds\english\audio/english_31.wav,"[[  0.          21.28810337]
 [  0.1         68.821868  ]
 [  0.2        -73.02143346]
 [  0.3         68.60173581]
 [  0.32341667  51.47999234]]","[[0.         1.2057056 ]
 [0.1        0.99381392]
 [0.2        0.87600828]
 [0.3        1.15844697]
 [0.32341667 1.3722803 ]]",1,0.289
8734529389,f,24,english,5,4,english,2024-01-25 10:40:21.090585,False,1,170,sounds\english\audio/english_515.wav,"[[  0.         -51.44071002]
 [  0.1        -54.80209221]
 [  0.2         64.47174239]
 [  0.3        -10.56071982]
 [  0.32341667 -39.86348554]]","[[0.         1.17100165]
 [0.1        0.37535268]
 [0.2        1.31079719]
 [0.3        1.40472496]
 [0.32341667 0.6392892 ]]",0,0.638
8734529389,f,24,english,5,4,english,2024-01-25 10:40:21.090585,False,1,171,sounds\english\audio/english_274.wav,"[[  0.         -30.61452779]
 [  0.1        -42.14612233]
 [  0.2         32.00602795]
 [  0.3        -37.74375581]
 [  0.32341667 -54.5397802 ]]","[[0.         0.78021116]
 [0.1        1.93993358]
 [0.2        0.32963606]
 [0.3        1.46133782]
 [0.32341667 1.53178785]]",1,0.176
8734529389,f,24,english,5,4,english,2024-01-25 10:40:21.090585,False,1,172,sounds\english\audio/english_14.wav,"[[  0.          98.00979643]
 [  0.1        -39.90204919]
 [  0.2         51.0517473 ]
 [  0.3         -8.39716694]
 [  0.32341667  82.54419716]]","[[0.         0.92494293]
 [0.1        0.80403915]
 [0.2        0.29426005]
 [0.3        0.14957292]
 [0.32341667 0.1717279 ]]",0,0.534
8734529389,f,24,english,5,4,english,2024-01-25 10:40:21.090585,False,1,173,sounds\english\audio/english_286.wav,"[[  0.         -94.9495111 ]
 [  0.1        -25.05656786]
 [  0.2         59.61150177]
 [  0.3        -32.97544875]
 [  0.32341667   7.58095242]]","[[0.         0.49849168]
 [0.1        1.27672914]
 [0.2        0.14515846]
 [0.3        1.67164973]
 [0.32341667 0.86492177]]",0,0.493
8734529389,f,24,english,5,4,english,2024-01-25 10:40:21.090585,False,1,174,sounds\english\audio/english_632.wav,"[[  0.         -56.22391322]
 [  0.1        -47.59423942]
 [  0.2         91.93727259]
 [  0.3        -33.89646621]
 [  0.32341667  46.88387871]]","[[0.         1.21249895]
 [0.1        0.39515719]
 [0.2        1.8528852 ]
 [0.3        1.67254104]
 [0.32341667 1.21014685]]",1,0.312
8734529389,f,24,english,5,4,english,2024-01-25 10:40:21.090585,False,1,175,sounds\english\audio/english_113.wav,"[[  0.           8.7952765 ]
 [  0.1         91.94692023]
 [  0.2         -6.68088057]
 [  0.3         38.28142065]
 [  0.32341667 -37.19939988]]","[[0.         0.51001639]
 [0.1        1.45766025]
 [0.2        1.25674442]
 [0.3        1.93213547]
 [0.32341667 0.45590133]]",0,0.297
8734529389,f,24,english,5,4,english,2024-01-25 10:40:21.090585,False,1,176,sounds\english\audio/english_69.wav,"[[  0.         -57.18730239]
 [  0.1         16.22212469]
 [  0.2        -44.28071093]
 [  0.3        -70.80378082]
 [  0.32341667 -58.3439892 ]]","[[0.         0.11878381]
 [0.1        1.00797921]
 [0.2        0.42082068]
 [0.3        0.50205716]
 [0.32341667 0.68985838]]",0,0.362
8734529389,f,24,english,5,4,english,2024-01-25 10:40:21.090585,False,1,177,sounds\english\audio/english_582.wav,"[[  0.         -29.81423477]
 [  0.1         37.42565533]
 [  0.2         79.58894888]
 [  0.3         49.55779855]
 [  0.32341667  54.00509918]]","[[0.         0.27230029]
 [0.1        0.84765039]
 [0.2        1.99526631]
 [0.3        1.55519667]
 [0.32341667 1.66653349]]",1,0.479
8734529389,f,24,english,5,4,english,2024-01-25 10:40:21.090585,False,1,178,sounds\english\audio/english_403.wav,"[[  0.         -92.65414009]
 [  0.1         75.99659731]
 [  0.2        -27.37801557]
 [  0.3        -80.04540334]
 [  0.32341667  30.50648557]]","[[0.         1.93574734]
 [0.1        0.36447309]
 [0.2        1.02888701]
 [0.3        0.02385722]
 [0.32341667 1.40553938]]",1,0.734
8734529389,f,24,english,5,4,english,2024-01-25 10:40:21.090585,False,1,179,sounds\english\audio/english_808.wav,"[[  0.          23.02589628]
 [  0.1         10.58817829]
 [  0.2         36.77134597]
 [  0.3        -30.31603221]
 [  0.32341667   9.74764343]]","[[0.         1.07384277]
 [0.1        1.3919179 ]
 [0.2        0.54960524]
 [0.3        1.95871365]
 [0.32341667 0.79150541]]",0,0.438
8734529389,f,24,english,5,4,english,2024-01-25 10:40:21.090585,False,1,180,sounds\english\audio/english_951.wav,"[[  0.          -0.1209724 ]
 [  0.1        -14.6507611 ]
 [  0.2         -2.36153686]
 [  0.3         15.28547447]
 [  0.32341667  -0.16445922]]","[[0.         0.19208806]
 [0.1        1.44795721]
 [0.2        0.88209985]
 [0.3        1.97099669]
 [0.32341667 0.158195  ]]",1,0.549
8734529389,f,24,english,5,4,english,2024-01-25 10:40:21.090585,False,1,181,sounds\english\audio/english_426.wav,"[[  0.          84.66887763]
 [  0.1          6.08176803]
 [  0.2         90.82211143]
 [  0.3         42.04787562]
 [  0.32341667 -40.19306584]]","[[0.         0.58495982]
 [0.1        0.31710055]
 [0.2        1.7123379 ]
 [0.3        1.38911617]
 [0.32341667 1.84862951]]",1,0.864
8734529389,f,24,english,5,4,english,2024-01-25 10:40:21.090585,False,1,182,sounds\english\audio/english_103.wav,"[[  0.         -79.54710498]
 [  0.1        -41.31314025]
 [  0.2        -48.58046961]
 [  0.3         50.88097047]
 [  0.32341667  21.22320476]]","[[0.         0.84178061]
 [0.1        1.9706485 ]
 [0.2        1.55059924]
 [0.3        1.14550684]
 [0.32341667 1.67039139]]",0,0.292
8734529389,f,24,english,5,4,english,2024-01-25 10:40:21.090585,False,1,183,sounds\english\audio/english_449.wav,"[[  0.         -46.54576765]
 [  0.1         20.05422573]
 [  0.2         54.52400621]
 [  0.3         73.66855139]
 [  0.32341667  -1.88675615]]","[[0.         0.60085197]
 [0.1        1.74901032]
 [0.2        1.9506545 ]
 [0.3        1.81044704]
 [0.32341667 0.93562966]]",0,0.448
8734529389,f,24,english,5,4,english,2024-01-25 10:40:21.090585,False,1,184,sounds\english\audio/english_19.wav,"[[  0.          51.84788699]
 [  0.1         59.68091475]
 [  0.2        -27.71167756]
 [  0.3        -29.56443604]
 [  0.32341667 -58.55228515]]","[[0.         0.3981759 ]
 [0.1        1.61217409]
 [0.2        0.35158216]
 [0.3        0.8770992 ]
 [0.32341667 0.51670124]]",1,0.24
8734529389,f,24,english,5,4,english,2024-01-25 10:40:21.090585,False,1,185,sounds\english\audio/english_851.wav,"[[  0.         -83.90491711]
 [  0.1         92.94065497]
 [  0.2        -63.47542883]
 [  0.3         13.34025436]
 [  0.32341667  32.96474042]]","[[0.         1.65488062]
 [0.1        0.14315595]
 [0.2        0.84481863]
 [0.3        1.9580918 ]
 [0.32341667 0.23608581]]",1,0.334
8734529389,f,24,english,5,4,english,2024-01-25 10:40:21.090585,False,1,186,sounds\english\audio/english_273.wav,"[[  0.         -44.98289573]
 [  0.1         24.32546199]
 [  0.2         61.84573583]
 [  0.3         -1.88803465]
 [  0.32341667  57.02125087]]","[[0.         1.94838534]
 [0.1        0.68888608]
 [0.2        1.95265796]
 [0.3        1.62060328]
 [0.32341667 0.94638053]]",1,0.493
8734529389,f,24,english,5,4,english,2024-01-25 10:40:21.090585,False,1,187,sounds\english\audio/english_128.wav,"[[  0.         -84.07301703]
 [  0.1          0.2051398 ]
 [  0.2         50.77588291]
 [  0.3          3.27834455]
 [  0.32341667  59.5943459 ]]","[[0.         0.96445051]
 [0.1        0.77165422]
 [0.2        0.60279997]
 [0.3        0.59915485]
 [0.32341667 0.43521132]]",0,0.321
8734529389,f,24,english,5,4,english,2024-01-25 10:40:21.090585,False,1,188,sounds\english\audio/english_217.wav,"[[  0.         -87.44045162]
 [  0.1         26.67222095]
 [  0.2         97.90977363]
 [  0.3          4.49718441]
 [  0.32341667  13.31384309]]","[[0.         1.20965721]
 [0.1        0.05295089]
 [0.2        1.23557872]
 [0.3        1.80752812]
 [0.32341667 1.57586313]]",1,0.342
8734529389,f,24,english,5,4,english,2024-01-25 10:40:21.090585,False,1,189,sounds\english\audio/english_458.wav,"[[  0.         -49.69821038]
 [  0.1        -49.80647014]
 [  0.2         11.98261521]
 [  0.3         59.43319096]
 [  0.32341667 -34.5671642 ]]","[[0.         0.39452057]
 [0.1        1.24604375]
 [0.2        0.42272405]
 [0.3        0.21259233]
 [0.32341667 1.13235362]]",0,0.3
8734529389,f,24,english,5,4,english,2024-01-25 10:40:21.090585,False,1,190,sounds\english\audio/english_598.wav,"[[  0.           4.26365523]
 [  0.1        -29.634957  ]
 [  0.2        -17.49120793]
 [  0.3        -34.93876912]
 [  0.32341667  49.49845506]]","[[0.         0.04069017]
 [0.1        1.27980102]
 [0.2        0.98781586]
 [0.3        1.55939702]
 [0.32341667 1.74128412]]",1,0.457
8734529389,f,24,english,5,4,english,2024-01-25 10:40:21.090585,False,1,191,sounds\english\audio/english_528.wav,"[[  0.          34.31610554]
 [  0.1         28.08911917]
 [  0.2        -86.77613696]
 [  0.3        -45.45420678]
 [  0.32341667 -58.86275596]]","[[0.         1.55529168]
 [0.1        0.29936297]
 [0.2        0.95155831]
 [0.3        1.46511459]
 [0.32341667 0.63923396]]",1,0.239
8734529389,f,24,english,5,4,english,2024-01-25 10:40:21.090585,False,1,192,sounds\english\audio/english_213.wav,"[[  0.         -29.91874444]
 [  0.1         41.64704809]
 [  0.2        -87.11075848]
 [  0.3        -61.54877495]
 [  0.32341667 -34.29429643]]","[[0.         1.42031243]
 [0.1        0.59218852]
 [0.2        1.10576613]
 [0.3        0.09529021]
 [0.32341667 1.15583312]]",1,0.29
8734529389,f,24,english,5,4,english,2024-01-25 10:40:21.090585,False,1,193,sounds\english\audio/english_377.wav,"[[  0.          74.10679581]
 [  0.1        -97.36412995]
 [  0.2        -84.25672888]
 [  0.3         27.09308902]
 [  0.32341667 -12.33253686]]","[[0.         1.90218841]
 [0.1        1.60160035]
 [0.2        1.668912  ]
 [0.3        1.51590505]
 [0.32341667 0.99909344]]",1,0.72
8734529389,f,24,english,5,4,english,2024-01-25 10:40:21.090585,False,1,194,sounds\english\audio/english_369.wav,"[[  0.         -12.14177447]
 [  0.1         76.29699147]
 [  0.2        -85.49552365]
 [  0.3        -68.94608988]
 [  0.32341667  40.32615784]]","[[0.         1.64093778]
 [0.1        1.47479283]
 [0.2        1.31757561]
 [0.3        1.92077404]
 [0.32341667 1.4628922 ]]",1,0.261
8734529389,f,24,english,5,4,english,2024-01-25 10:40:21.090585,False,1,195,sounds\english\audio/english_725.wav,"[[  0.          26.80600371]
 [  0.1         82.24352357]
 [  0.2         -3.79901328]
 [  0.3         68.54562933]
 [  0.32341667 -39.79698803]]","[[0.         0.25466557]
 [0.1        0.77088778]
 [0.2        0.70697722]
 [0.3        1.24247197]
 [0.32341667 1.34526742]]",1,0.43
8734529389,f,24,english,5,4,english,2024-01-25 10:40:21.090585,False,1,196,sounds\english\audio/english_346.wav,"[[  0.          29.51078372]
 [  0.1         86.25753287]
 [  0.2         95.6553577 ]
 [  0.3        -65.97707071]
 [  0.32341667  49.79896228]]","[[0.         1.24489428]
 [0.1        1.77356048]
 [0.2        1.30862901]
 [0.3        0.68318311]
 [0.32341667 1.63073528]]",1,0.72
8734529389,f,24,english,5,4,english,2024-01-25 10:40:21.090585,False,1,197,sounds\english\audio/english_203.wav,"[[  0.         -22.28277813]
 [  0.1         13.21695477]
 [  0.2         63.23651974]
 [  0.3        -20.14830746]
 [  0.32341667 -78.55276631]]","[[0.         1.31475846]
 [0.1        1.08922412]
 [0.2        0.55450355]
 [0.3        1.72034007]
 [0.32341667 0.92481053]]",0,0.305
8734529389,f,24,english,5,4,english,2024-01-25 10:40:21.090585,False,1,198,sounds\english\audio/english_126.wav,"[[  0.         -71.89060105]
 [  0.1        -54.28004149]
 [  0.2         67.0997098 ]
 [  0.3        -96.31741745]
 [  0.32341667  22.67293764]]","[[0.         0.84485729]
 [0.1        1.61340521]
 [0.2        1.10892805]
 [0.3        1.20133652]
 [0.32341667 0.33470898]]",1,0.33
8734529389,f,24,english,5,4,english,2024-01-25 10:40:21.090585,False,1,199,sounds\english\audio/english_355.wav,"[[  0.          33.6784286 ]
 [  0.1         30.74796889]
 [  0.2         71.39310534]
 [  0.3         38.16266559]
 [  0.32341667 -39.8799084 ]]","[[0.         1.28512049]
 [0.1        1.04729355]
 [0.2        0.74339822]
 [0.3        0.86152361]
 [0.32341667 1.83215587]]",0,0.487
8734529389,f,24,english,5,4,english,2024-01-25 10:40:21.090585,False,1,200,sounds\english\audio/english_70.wav,"[[  0.         -53.09237622]
 [  0.1         85.97526897]
 [  0.2         25.5645184 ]
 [  0.3          1.25172137]
 [  0.32341667  93.59431896]]","[[0.         1.21678364]
 [0.1        0.94111324]
 [0.2        1.03926055]
 [0.3        0.29519406]
 [0.32341667 0.80175783]]",1,0.22
8734529389,f,24,english,5,4,english,2024-01-25 10:40:21.090585,False,1,201,sounds\english\audio/english_789.wav,"[[  0.          70.69388181]
 [  0.1        -91.45782136]
 [  0.2        -94.67801392]
 [  0.3         83.76501612]
 [  0.32341667  -4.60584958]]","[[0.         1.62690516]
 [0.1        1.02092359]
 [0.2        0.93437639]
 [0.3        1.8239896 ]
 [0.32341667 1.29596798]]",1,0.303
8734529389,f,24,english,5,4,english,2024-01-25 10:40:21.090585,False,1,202,sounds\english\audio/english_214.wav,"[[  0.          58.82847816]
 [  0.1         87.26801489]
 [  0.2        -28.10234025]
 [  0.3        -36.12188516]
 [  0.32341667 -45.93983978]]","[[0.         1.81864401]
 [0.1        0.97241975]
 [0.2        1.91423566]
 [0.3        1.71940232]
 [0.32341667 0.68694042]]",1,0.239
8734529389,f,24,english,5,4,english,2024-01-25 10:40:21.090585,False,1,203,sounds\english\audio/english_971.wav,"[[  0.          27.0641734 ]
 [  0.1        -43.13434162]
 [  0.2         83.45364082]
 [  0.3         46.6736971 ]
 [  0.32341667 -28.9166607 ]]","[[0.         0.01013217]
 [0.1        0.95424486]
 [0.2        1.16332163]
 [0.3        0.56494555]
 [0.32341667 0.73596031]]",0,1.414
8734529389,f,24,english,5,4,english,2024-01-25 10:40:21.090585,False,1,204,sounds\english\audio/english_580.wav,"[[  0.          92.13406767]
 [  0.1        -85.58685866]
 [  0.2         57.10945482]
 [  0.3         32.92004132]
 [  0.32341667  52.08708517]]","[[0.         1.93694744]
 [0.1        0.28773753]
 [0.2        0.86433335]
 [0.3        0.96651265]
 [0.32341667 1.25003658]]",1,0.578
8734529389,f,24,english,5,4,english,2024-01-25 10:40:21.090585,False,1,205,sounds\english\audio/english_151.wav,"[[  0.          -8.78950662]
 [  0.1         -1.70650264]
 [  0.2        -17.50286784]
 [  0.3         88.78233286]
 [  0.32341667  55.08117545]]","[[0.         1.36403682]
 [0.1        1.76375426]
 [0.2        1.43087438]
 [0.3        1.18017331]
 [0.32341667 1.30400061]]",1,0.27
8734529389,f,24,english,5,4,english,2024-01-25 10:40:21.090585,False,1,206,sounds\english\audio/english_816.wav,"[[  0.          -5.39935373]
 [  0.1        -58.12348851]
 [  0.2        -97.19740724]
 [  0.3          4.60418864]
 [  0.32341667  57.92285533]]","[[0.         0.27372013]
 [0.1        1.23542608]
 [0.2        1.6956732 ]
 [0.3        0.17466083]
 [0.32341667 0.69657013]]",0,0.523
8734529389,f,24,english,5,4,english,2024-01-25 10:40:21.090585,False,1,207,sounds\english\audio/english_94.wav,"[[  0.         -78.50776969]
 [  0.1         21.81048112]
 [  0.2         76.78230264]
 [  0.3        -35.62145712]
 [  0.32341667 -71.39427505]]","[[0.         1.58967719]
 [0.1        0.88841047]
 [0.2        1.12549424]
 [0.3        1.80621507]
 [0.32341667 1.00879957]]",1,0.276
8734529389,f,24,english,5,4,english,2024-01-25 10:40:21.090585,False,1,208,sounds\english\audio/english_508.wav,"[[  0.         -21.23116318]
 [  0.1        -27.56583205]
 [  0.2         64.21774851]
 [  0.3         -9.24056951]
 [  0.32341667  -9.74670904]]","[[0.         1.79614382]
 [0.1        0.60449395]
 [0.2        0.56582153]
 [0.3        1.01665474]
 [0.32341667 0.78905044]]",1,0.683
8734529389,f,24,english,5,4,english,2024-01-25 10:40:21.090585,False,1,209,sounds\english\audio/english_539.wav,"[[  0.         -67.77604021]
 [  0.1         61.22104537]
 [  0.2         38.09257369]
 [  0.3        -20.76875757]
 [  0.32341667 -47.71444482]]","[[0.         0.83598486]
 [0.1        1.51877163]
 [0.2        1.73578169]
 [0.3        0.52680037]
 [0.32341667 1.99278149]]",1,0.237
8734529389,f,24,english,5,4,english,2024-01-25 10:40:21.090585,False,1,210,sounds\english\audio/english_716.wav,"[[  0.         -41.01159081]
 [  0.1        -51.78631031]
 [  0.2        -25.7252513 ]
 [  0.3         78.18950514]
 [  0.32341667 -26.78025651]]","[[0.         1.70683796]
 [0.1        1.57787804]
 [0.2        1.76538287]
 [0.3        1.34280163]
 [0.32341667 1.89346788]]",1,0.178
8734529389,f,24,english,5,4,english,2024-01-25 10:40:21.090585,False,1,211,sounds\english\audio/english_703.wav,"[[  0.          21.25560127]
 [  0.1         -5.61566417]
 [  0.2        -88.15973778]
 [  0.3         39.86499493]
 [  0.32341667  64.67338156]]","[[0.         1.22587136]
 [0.1        1.28752652]
 [0.2        1.61643937]
 [0.3        1.32560109]
 [0.32341667 0.74206522]]",1,2.44
8734529389,f,24,english,5,4,english,2024-01-25 10:40:21.090585,False,1,212,sounds\english\audio/english_387.wav,"[[  0.          14.25538659]
 [  0.1         -5.8057983 ]
 [  0.2         -2.59288607]
 [  0.3         19.33055559]
 [  0.32341667 -85.57173801]]","[[0.         0.59610882]
 [0.1        0.93453474]
 [0.2        1.87880123]
 [0.3        0.79709693]
 [0.32341667 0.90161027]]",0,0.837
8734529389,f,24,english,5,4,english,2024-01-25 10:40:21.090585,False,1,213,sounds\english\audio/english_601.wav,"[[  0.          54.32401431]
 [  0.1         -6.72935942]
 [  0.2         39.12079493]
 [  0.3         39.92141387]
 [  0.32341667 -27.14681087]]","[[0.         0.08668951]
 [0.1        1.16468766]
 [0.2        1.8612572 ]
 [0.3        0.92171433]
 [0.32341667 0.50419734]]",1,0.381
8734529389,f,24,english,5,4,english,2024-01-25 10:40:21.090585,False,1,214,sounds\english\audio/english_482.wav,"[[  0.         -75.58658814]
 [  0.1        -97.88900999]
 [  0.2         -4.46161317]
 [  0.3         31.34799552]
 [  0.32341667 -51.80510351]]","[[0.         1.00366747]
 [0.1        1.47597923]
 [0.2        1.10854794]
 [0.3        1.07348452]
 [0.32341667 0.67390339]]",0,0.428
8734529389,f,24,english,5,4,english,2024-01-25 10:40:21.090585,False,1,215,sounds\english\audio/english_963.wav,"[[  0.         -60.03327616]
 [  0.1        -15.51067414]
 [  0.2         59.36715957]
 [  0.3        -98.70464219]
 [  0.32341667  37.26723218]]","[[0.         0.86711865]
 [0.1        1.69273621]
 [0.2        0.74157302]
 [0.3        1.73078555]
 [0.32341667 1.37482324]]",0,0.524
8734529389,f,24,english,5,4,english,2024-01-25 10:40:21.090585,False,1,216,sounds\english\audio/english_226.wav,"[[  0.         -56.53605181]
 [  0.1         -5.93547338]
 [  0.2        -81.0596442 ]
 [  0.3        -12.14261426]
 [  0.32341667  40.67667876]]","[[0.         0.51185795]
 [0.1        0.73377568]
 [0.2        1.62034912]
 [0.3        0.19474782]
 [0.32341667 0.1395898 ]]",1,0.184
8734529389,f,24,english,5,4,english,2024-01-25 10:40:21.090585,False,1,217,sounds\english\audio/english_649.wav,"[[  0.          65.82222467]
 [  0.1         -9.35575527]
 [  0.2        -91.83315911]
 [  0.3         79.30022345]
 [  0.32341667  45.86180924]]","[[0.         0.56154429]
 [0.1        0.64767017]
 [0.2        0.84538271]
 [0.3        0.4979411 ]
 [0.32341667 0.89353148]]",0,0.901
8734529389,f,24,english,5,4,english,2024-01-25 10:40:21.090585,False,1,218,sounds\english\audio/english_195.wav,"[[ 0.         88.76446124]
 [ 0.1        56.50909504]
 [ 0.2        -5.11157055]
 [ 0.3        14.19517065]
 [ 0.32341667 67.19148892]]","[[0.         0.85936173]
 [0.1        1.06337161]
 [0.2        1.01766647]
 [0.3        1.03928052]
 [0.32341667 1.18131313]]",0,0.967
8734529389,f,24,english,5,4,english,2024-01-25 10:40:21.090585,False,1,219,sounds\english\audio/english_618.wav,"[[  0.          58.31579708]
 [  0.1          6.96253647]
 [  0.2         -4.41581756]
 [  0.3        -63.5775247 ]
 [  0.32341667  97.77631762]]","[[0.         1.46895394]
 [0.1        0.48660613]
 [0.2        1.00963977]
 [0.3        1.29399549]
 [0.32341667 0.84060701]]",1,0.882
8734529389,f,24,english,5,4,english,2024-01-25 10:40:21.090585,False,1,220,sounds\english\audio/english_396.wav,"[[  0.           2.39126912]
 [  0.1        -38.95035948]
 [  0.2         78.31320688]
 [  0.3         16.98024706]
 [  0.32341667  44.66397079]]","[[0.         1.48231007]
 [0.1        0.85829723]
 [0.2        1.16655306]
 [0.3        0.51680164]
 [0.32341667 1.5133775 ]]",0,0.417
8734529389,f,24,english,5,4,english,2024-01-25 10:40:21.090585,False,1,221,sounds\english\audio/english_428.wav,"[[  0.         -98.34466569]
 [  0.1        -10.51162175]
 [  0.2         97.93427859]
 [  0.3         35.61870537]
 [  0.32341667 -12.49352836]]","[[0.         1.83106884]
 [0.1        1.34345266]
 [0.2        0.65853672]
 [0.3        1.28105878]
 [0.32341667 0.15324236]]",1,0.421
8734529389,f,24,english,5,4,english,2024-01-25 10:40:21.090585,False,1,222,sounds\english\audio/english_945.wav,"[[  0.          63.16075011]
 [  0.1         87.55520176]
 [  0.2        -69.60467193]
 [  0.3        -69.25530384]
 [  0.32341667 -47.64160087]]","[[0.         1.8314946 ]
 [0.1        1.3737613 ]
 [0.2        0.61639792]
 [0.3        1.67239747]
 [0.32341667 1.88344595]]",1,3.88
8734529389,f,24,english,5,4,english,2024-01-25 10:40:21.090585,False,1,223,sounds\english\audio/english_59.wav,"[[  0.          30.26604033]
 [  0.1         25.69112756]
 [  0.2        -24.85549033]
 [  0.3        -31.2790444 ]
 [  0.32341667  86.30355152]]","[[0.         1.5973148 ]
 [0.1        0.24758472]
 [0.2        0.1547886 ]
 [0.3        0.30754036]
 [0.32341667 0.40312024]]",1,0.723
8734529389,f,24,english,5,4,english,2024-01-25 10:40:21.090585,False,1,224,sounds\english\audio/english_126.wav,"[[  0.         -71.89060105]
 [  0.1        -54.28004149]
 [  0.2         67.0997098 ]
 [  0.3        -96.31741745]
 [  0.32341667  22.67293764]]","[[0.         0.84485729]
 [0.1        1.61340521]
 [0.2        1.10892805]
 [0.3        1.20133652]
 [0.32341667 0.33470898]]",1,1.502
8734529389,f,24,english,5,4,english,2024-01-25 10:40:21.090585,False,1,225,sounds\english\audio/english_454.wav,"[[  0.         -98.00335762]
 [  0.1        -44.25936911]
 [  0.2        -49.70952942]
 [  0.3        -16.66945989]
 [  0.32341667  16.63176458]]","[[0.         0.93958317]
 [0.1        1.42755355]
 [0.2        0.6160235 ]
 [0.3        1.95370106]
 [0.32341667 0.26107778]]",1,0.285
8734529389,f,24,english,5,4,english,2024-01-25 10:40:21.090585,False,1,226,sounds\english\audio/english_191.wav,"[[  0.           5.22709543]
 [  0.1        -51.29785688]
 [  0.2         14.39503603]
 [  0.3         60.50312404]
 [  0.32341667  68.15927452]]","[[0.         0.24693927]
 [0.1        1.61528443]
 [0.2        0.10158113]
 [0.3        1.02883866]
 [0.32341667 0.69870432]]",0,0.899
8734529389,f,24,english,5,4,english,2024-01-25 10:40:21.090585,False,1,227,sounds\english\audio/english_74.wav,"[[  0.          86.29588785]
 [  0.1        -14.52381687]
 [  0.2         77.94321906]
 [  0.3        -32.33104188]
 [  0.32341667   9.46602754]]","[[0.         1.196208  ]
 [0.1        1.63208143]
 [0.2        0.46125368]
 [0.3        1.38278461]
 [0.32341667 0.83147108]]",0,0.392
8734529389,f,24,english,5,4,english,2024-01-25 10:40:21.090585,False,1,228,sounds\english\audio/english_110.wav,"[[  0.          87.43016285]
 [  0.1        -22.53798338]
 [  0.2         60.38266123]
 [  0.3         50.75224473]
 [  0.32341667  87.78495288]]","[[0.         1.84693198]
 [0.1        0.72868036]
 [0.2        1.6889543 ]
 [0.3        0.97311446]
 [0.32341667 0.46157718]]",0,0.381
8734529389,f,24,english,5,4,english,2024-01-25 10:40:21.090585,False,1,229,sounds\english\audio/english_776.wav,"[[  0.          29.86548478]
 [  0.1          2.8025705 ]
 [  0.2        -38.4768188 ]
 [  0.3        -89.49838949]
 [  0.32341667  30.18488016]]","[[0.         0.57139857]
 [0.1        1.94435619]
 [0.2        0.3951066 ]
 [0.3        0.29859462]
 [0.32341667 1.93939037]]",0,0.423
8734529389,f,24,english,5,4,english,2024-01-25 10:40:21.090585,False,1,230,sounds\english\audio/english_534.wav,"[[  0.         -42.4271338 ]
 [  0.1        -80.6424644 ]
 [  0.2         59.29592388]
 [  0.3         75.02007223]
 [  0.32341667 -57.55026449]]","[[0.         1.1267565 ]
 [0.1        0.6842577 ]
 [0.2        0.01459656]
 [0.3        1.03701198]
 [0.32341667 1.25840342]]",1,0.594
8734529389,f,24,english,5,4,english,2024-01-25 10:40:21.090585,False,1,231,sounds\english\audio/english_869.wav,"[[  0.          31.82870938]
 [  0.1         55.69153841]
 [  0.2         44.83997999]
 [  0.3        -64.6596515 ]
 [  0.32341667 -51.58434075]]","[[0.         0.91730192]
 [0.1        1.54634356]
 [0.2        0.32401745]
 [0.3        1.34292926]
 [0.32341667 0.99771643]]",0,0.192
8734529389,f,24,english,5,4,english,2024-01-25 10:40:21.090585,False,1,232,sounds\english\audio/english_909.wav,"[[  0.         -19.4205152 ]
 [  0.1        -31.830868  ]
 [  0.2         71.05598051]
 [  0.3        -13.09259164]
 [  0.32341667 -99.47743822]]","[[0.         0.17681169]
 [0.1        1.02014656]
 [0.2        1.59945112]
 [0.3        1.33685121]
 [0.32341667 0.41114962]]",1,0.201
8734529389,f,24,english,5,4,english,2024-01-25 10:40:21.090585,False,1,233,sounds\english\audio/english_818.wav,"[[  0.          88.49542613]
 [  0.1         -7.37005163]
 [  0.2         -1.58613611]
 [  0.3        -69.41222379]
 [  0.32341667  14.01707612]]","[[0.         1.4873036 ]
 [0.1        1.25102077]
 [0.2        0.80764036]
 [0.3        0.80656775]
 [0.32341667 1.41859799]]",0,0.247
8734529389,f,24,english,5,4,english,2024-01-25 10:40:21.090585,False,1,234,sounds\english\audio/english_928.wav,"[[  0.          55.07207497]
 [  0.1         83.71672672]
 [  0.2        -43.28929986]
 [  0.3        -17.1692271 ]
 [  0.32341667 -36.644272  ]]","[[0.         1.22706758]
 [0.1        0.97206042]
 [0.2        0.16969859]
 [0.3        0.90092586]
 [0.32341667 0.43024518]]",0,0.281
8734529389,f,24,english,5,4,english,2024-01-25 10:40:21.090585,False,1,235,sounds\english\audio/english_227.wav,"[[  0.         -56.39318384]
 [  0.1         90.87442764]
 [  0.2        -39.94082392]
 [  0.3         31.5093861 ]
 [  0.32341667  70.38847456]]","[[0.         1.7541365 ]
 [0.1        0.66011804]
 [0.2        0.16454365]
 [0.3        0.63744506]
 [0.32341667 0.55874538]]",0,0.492
8734529389,f,24,english,5,4,english,2024-01-25 10:40:21.090585,False,1,236,sounds\english\audio/english_105.wav,"[[ 0.         15.80659439]
 [ 0.1        42.66899606]
 [ 0.2        70.76731416]
 [ 0.3        70.45261783]
 [ 0.32341667 38.01355443]]","[[0.         1.08535851]
 [0.1        0.24895576]
 [0.2        1.16165898]
 [0.3        1.37248151]
 [0.32341667 0.81952348]]",0,0.203
8734529389,f,24,english,5,4,english,2024-01-25 10:40:21.090585,False,1,237,sounds\english\audio/english_722.wav,"[[  0.          56.33358757]
 [  0.1        -63.11389498]
 [  0.2         65.64746862]
 [  0.3        -93.10605514]
 [  0.32341667 -45.92743551]]","[[0.         0.09194264]
 [0.1        1.89550133]
 [0.2        0.18403216]
 [0.3        1.23223326]
 [0.32341667 0.28331892]]",0,0.166
8734529389,f,24,english,5,4,english,2024-01-25 10:40:21.090585,False,1,238,sounds\english\audio/english_547.wav,"[[  0.          30.48969685]
 [  0.1        -38.27442703]
 [  0.2         29.58442849]
 [  0.3         -4.27268154]
 [  0.32341667  58.02076364]]","[[0.         1.04682874]
 [0.1        0.75017858]
 [0.2        0.7996645 ]
 [0.3        1.92102789]
 [0.32341667 1.77056707]]",0,0.106
8734529389,f,24,english,5,4,english,2024-01-25 10:40:21.090585,False,1,239,sounds\english\audio/english_877.wav,"[[  0.          49.36401037]
 [  0.1         15.17280231]
 [  0.2         22.36436744]
 [  0.3        -25.51979868]
 [  0.32341667 -55.72443313]]","[[0.         1.25510861]
 [0.1        0.84700305]
 [0.2        0.32703774]
 [0.3        1.72637958]
 [0.32341667 0.52117686]]",0,0.472
8734529389,f,24,english,5,4,english,2024-01-25 10:40:21.090585,False,1,240,sounds\english\audio/english_814.wav,"[[  0.         -63.32480856]
 [  0.1         34.42157774]
 [  0.2         -1.27362148]
 [  0.3         11.18388565]
 [  0.32341667  -9.56708644]]","[[0.         1.93717082]
 [0.1        0.66627456]
 [0.2        1.33718687]
 [0.3        1.12749716]
 [0.32341667 0.66623879]]",0,0.802
8734529389,f,24,english,5,4,english,2024-01-25 10:40:21.090585,False,1,241,sounds\english\audio/english_482.wav,"[[  0.         -75.58658814]
 [  0.1        -97.88900999]
 [  0.2         -4.46161317]
 [  0.3         31.34799552]
 [  0.32341667 -51.80510351]]","[[0.         1.00366747]
 [0.1        1.47597923]
 [0.2        1.10854794]
 [0.3        1.07348452]
 [0.32341667 0.67390339]]",0,0.159
8734529389,f,24,english,5,4,english,2024-01-25 10:40:21.090585,False,1,242,sounds\english\audio/english_700.wav,"[[  0.         -76.89056698]
 [  0.1        -93.17552037]
 [  0.2         51.24439156]
 [  0.3         89.4516499 ]
 [  0.32341667 -68.48659069]]","[[0.         0.13963816]
 [0.1        0.76842729]
 [0.2        0.49149542]
 [0.3        1.08714417]
 [0.32341667 1.35188588]]",0,0.363
8734529389,f,24,english,5,4,english,2024-01-25 10:40:21.090585,False,1,243,sounds\english\audio/english_487.wav,"[[  0.          57.34447058]
 [  0.1        -38.59224607]
 [  0.2        -30.93562102]
 [  0.3        -21.39452484]
 [  0.32341667 -98.93333205]]","[[0.         0.27098038]
 [0.1        1.03105808]
 [0.2        0.17810411]
 [0.3        0.81608244]
 [0.32341667 1.1056793 ]]",0,0.904
8734529389,f,24,english,5,4,english,2024-01-25 10:40:21.090585,False,1,244,sounds\english\audio/english_287.wav,"[[  0.          -5.71925808]
 [  0.1        -94.78041007]
 [  0.2          8.34641368]
 [  0.3         36.34893025]
 [  0.32341667 -22.47689594]]","[[0.         1.04112926]
 [0.1        0.35149142]
 [0.2        0.86781598]
 [0.3        1.897904  ]
 [0.32341667 0.5607403 ]]",0,0.406
8734529389,f,24,english,5,4,english,2024-01-25 10:40:21.090585,False,1,245,sounds\english\audio/english_646.wav,"[[  0.          65.65927644]
 [  0.1        -31.23211399]
 [  0.2         62.59110385]
 [  0.3        -86.43369357]
 [  0.32341667  41.84315348]]","[[0.         1.85038449]
 [0.1        1.10748568]
 [0.2        1.14052106]
 [0.3        1.38971404]
 [0.32341667 0.49971738]]",1,0.19
8734529389,f,24,english,5,4,english,2024-01-25 10:40:21.090585,False,1,246,sounds\english\audio/english_971.wav,"[[  0.          27.0641734 ]
 [  0.1        -43.13434162]
 [  0.2         83.45364082]
 [  0.3         46.6736971 ]
 [  0.32341667 -28.9166607 ]]","[[0.         0.01013217]
 [0.1        0.95424486]
 [0.2        1.16332163]
 [0.3        0.56494555]
 [0.32341667 0.73596031]]",0,2.288
8734529389,f,24,english,5,4,english,2024-01-25 10:40:21.090585,False,1,247,sounds\english\audio/english_900.wav,"[[  0.         -54.93304755]
 [  0.1         58.88524349]
 [  0.2        -67.87194092]
 [  0.3         20.66021993]
 [  0.32341667 -10.79853151]]","[[0.         1.64865849]
 [0.1        1.11215591]
 [0.2        0.89823705]
 [0.3        1.30060406]
 [0.32341667 1.95850441]]",0,0.474
8734529389,f,24,english,5,4,english,2024-01-25 10:40:21.090585,False,1,248,sounds\english\audio/english_88.wav,"[[  0.          26.55889683]
 [  0.1         31.00356365]
 [  0.2        -60.56468942]
 [  0.3        -56.53017227]
 [  0.32341667 -78.90279024]]","[[0.         1.3027014 ]
 [0.1        0.67122251]
 [0.2        0.59704477]
 [0.3        1.68194373]
 [0.32341667 0.42277005]]",0,0.537
8734529389,f,24,english,5,4,english,2024-01-25 10:40:21.090585,False,1,249,sounds\english\audio/english_480.wav,"[[  0.          -9.10453384]
 [  0.1         72.09708103]
 [  0.2        -73.7181862 ]
 [  0.3         18.73451671]
 [  0.32341667  83.35837597]]","[[0.         0.61491247]
 [0.1        1.35502449]
 [0.2        0.28674933]
 [0.3        0.14653082]
 [0.32341667 1.34653786]]",0,0.375
8734529389,f,24,english,5,4,english,2024-01-25 10:40:21.090585,False,1,250,sounds\english\audio/english_680.wav,"[[  0.          93.24972168]
 [  0.1         21.55707386]
 [  0.2        -58.84044748]
 [  0.3        -13.55367876]
 [  0.32341667  17.98073729]]","[[0.         1.89994278]
 [0.1        1.06559033]
 [0.2        0.79606997]
 [0.3        0.35899559]
 [0.32341667 1.50925573]]",0,0.498
8734529389,f,24,english,5,4,english,2024-01-25 10:40:21.090585,False,1,251,sounds\english\audio/english_867.wav,"[[  0.           9.0283109 ]
 [  0.1          6.96107974]
 [  0.2         14.88339172]
 [  0.3         -2.73093064]
 [  0.32341667 -85.27526638]]","[[0.         0.25019481]
 [0.1        0.62311927]
 [0.2        1.78918939]
 [0.3        1.34945049]
 [0.32341667 0.75720604]]",1,0.837
8734529389,f,24,english,5,4,english,2024-01-25 10:40:21.090585,False,1,252,sounds\english\audio/english_715.wav,"[[  0.         -64.21420564]
 [  0.1         77.40813629]
 [  0.2        -98.26791609]
 [  0.3        -32.66334796]
 [  0.32341667  93.12500574]]","[[0.         1.80154013]
 [0.1        0.51096517]
