subj,sex,age,language,english,french,native_lang,date,practice,block,trial,stim,pitch,stretch,response,rt
1,m,25,english,5,2,english,2024-02-09 13:54:52.617377,True,0,0,sounds\english\audio/english_996.wav,"[[  0.         -71.70531914]
 [  0.1        -47.61419544]
 [  0.2         48.0330823 ]
 [  0.3         34.27821317]
 [  0.32341667 -72.4662587 ]]","[[0.         1.36459419]
 [0.1        0.5051745 ]
 [0.2        1.09957376]
 [0.3        0.27950682]
 [0.32341667 0.22836241]]",0,2.985
1,m,25,english,5,2,english,2024-02-09 13:54:52.617377,True,0,1,sounds\english\audio/english_925.wav,"[[  0.         -23.38055082]
 [  0.1         12.69502826]
 [  0.2         77.53463838]
 [  0.3         58.05299948]
 [  0.32341667  54.12197927]]","[[0.         1.07708889]
 [0.1        1.65606803]
 [0.2        0.48648737]
 [0.3        0.8939016 ]
 [0.32341667 0.72199492]]",1,1.213
1,m,25,english,5,2,english,2024-02-09 13:54:52.617377,True,0,2,sounds\english\audio/english_809.wav,"[[  0.          -9.08149959]
 [  0.1         12.16544582]
 [  0.2         40.52205867]
 [  0.3        -94.19679153]
 [  0.32341667  -5.82752377]]","[[0.         0.73203403]
 [0.1        0.53159531]
 [0.2        1.48114639]
 [0.3        1.77078339]
 [0.32341667 1.36117577]]",0,0.995
1,m,25,english,5,2,english,2024-02-09 13:54:52.617377,False,1,3,sounds\english\audio/english_489.wav,"[[  0.           5.7057461 ]
 [  0.1        -88.87009038]
 [  0.2         73.69789316]
 [  0.3          8.66804208]
 [  0.32341667 -19.53009002]]","[[0.         0.60142671]
 [0.1        1.38499056]
 [0.2        0.38073994]
 [0.3        0.90212706]
 [0.32341667 1.00729778]]",0,1.787
1,m,25,english,5,2,english,2024-02-09 13:54:52.617377,False,1,4,sounds\english\audio/english_683.wav,"[[  0.         -73.37543508]
 [  0.1         66.4080647 ]
 [  0.2         46.46812351]
 [  0.3         71.67755016]
 [  0.32341667   2.86253031]]","[[0.         1.70409633]
 [0.1        1.25556383]
 [0.2        0.87554738]
 [0.3        1.32863005]
 [0.32341667 0.20364682]]",1,0.481
1,m,25,english,5,2,english,2024-02-09 13:54:52.617377,False,1,5,sounds\english\audio/english_526.wav,"[[  0.         -32.34532461]
 [  0.1        -46.6208459 ]
 [  0.2        -42.84927068]
 [  0.3          3.47643827]
 [  0.32341667  52.79087598]]","[[0.         0.924261  ]
 [0.1        0.25414499]
 [0.2        1.01925886]
 [0.3        0.65966822]
 [0.32341667 1.50872035]]",0,0.667
1,m,25,english,5,2,english,2024-02-09 13:54:52.617377,False,1,6,sounds\english\audio/english_123.wav,"[[  0.          67.91608163]
 [  0.1        -92.32097988]
 [  0.2         57.07371841]
 [  0.3         19.28317816]
 [  0.32341667  15.30546887]]","[[0.         1.13046919]
 [0.1        1.99597614]
 [0.2        1.53523853]
 [0.3        0.24385811]
 [0.32341667 0.39158976]]",1,0.352
1,m,25,english,5,2,english,2024-02-09 13:54:52.617377,False,1,7,sounds\english\audio/english_45.wav,"[[  0.          72.55677234]
 [  0.1         34.43244276]
 [  0.2         12.66368291]
 [  0.3         47.17471186]
 [  0.32341667 -48.2883803 ]]","[[0.         0.302627  ]
 [0.1        1.957389  ]
 [0.2        1.1456601 ]
 [0.3        1.77472104]
 [0.32341667 1.7760992 ]]",0,1.164
1,m,25,english,5,2,english,2024-02-09 13:54:52.617377,False,1,8,sounds\english\audio/english_127.wav,"[[  0.         -69.70750805]
 [  0.1        -23.17484413]
 [  0.2         16.27024862]
 [  0.3        -50.08342814]
 [  0.32341667  22.60332787]]","[[0.         0.25070661]
 [0.1        1.1475992 ]
 [0.2        1.99299371]
 [0.3        0.57749513]
 [0.32341667 1.27832678]]",0,0.872
1,m,25,english,5,2,english,2024-02-09 13:54:52.617377,False,1,9,sounds\english\audio/english_987.wav,"[[  0.          91.33137772]
 [  0.1        -39.20299527]
 [  0.2         78.9852337 ]
 [  0.3        -94.66209845]
 [  0.32341667 -71.76730894]]","[[0.         1.82656395]
 [0.1        1.12122948]
 [0.2        1.12025045]
 [0.3        1.02557261]
 [0.32341667 1.06580695]]",1,0.537
1,m,25,english,5,2,english,2024-02-09 13:54:52.617377,False,1,10,sounds\english\audio/english_818.wav,"[[  0.          88.49542613]
 [  0.1         -7.37005163]
 [  0.2         -1.58613611]
 [  0.3        -69.41222379]
 [  0.32341667  14.01707612]]","[[0.         1.4873036 ]
 [0.1        1.25102077]
 [0.2        0.80764036]
 [0.3        0.80656775]
 [0.32341667 1.41859799]]",1,0.92
1,m,25,english,5,2,english,2024-02-09 13:54:52.617377,False,1,11,sounds\english\audio/english_629.wav,"[[  0.          76.68747977]
 [  0.1         72.0676039 ]
 [  0.2         -3.42071834]
 [  0.3        -75.36993348]
 [  0.32341667 -15.4233884 ]]","[[0.         0.56482572]
 [0.1        0.14075004]
 [0.2        0.80885654]
 [0.3        1.43133267]
 [0.32341667 0.14234351]]",0,0.565
1,m,25,english,5,2,english,2024-02-09 13:54:52.617377,False,1,12,sounds\english\audio/english_280.wav,"[[  0.          88.60957906]
 [  0.1         84.68226706]
 [  0.2        -77.43679957]
 [  0.3         45.11946934]
 [  0.32341667 -36.96988582]]","[[0.         0.0301642 ]
 [0.1        1.61205195]
 [0.2        1.42137195]
 [0.3        1.73240953]
 [0.32341667 0.09602122]]",0,0.892
1,m,25,english,5,2,english,2024-02-09 13:54:52.617377,False,1,13,sounds\english\audio/english_213.wav,"[[  0.         -29.91874444]
 [  0.1         41.64704809]
 [  0.2        -87.11075848]
 [  0.3        -61.54877495]
 [  0.32341667 -34.29429643]]","[[0.         1.42031243]
 [0.1        0.59218852]
 [0.2        1.10576613]
 [0.3        0.09529021]
 [0.32341667 1.15583312]]",1,0.609
1,m,25,english,5,2,english,2024-02-09 13:54:52.617377,False,1,14,sounds\english\audio/english_618.wav,"[[  0.          58.31579708]
 [  0.1          6.96253647]
 [  0.2         -4.41581756]
 [  0.3        -63.5775247 ]
 [  0.32341667  97.77631762]]","[[0.         1.46895394]
 [0.1        0.48660613]
 [0.2        1.00963977]
 [0.3        1.29399549]
 [0.32341667 0.84060701]]",1,0.793
1,m,25,english,5,2,english,2024-02-09 13:54:52.617377,False,1,15,sounds\english\audio/english_354.wav,"[[  0.         -63.97501145]
 [  0.1        -43.11314734]
 [  0.2         10.53928595]
 [  0.3        -23.15258088]
 [  0.32341667   3.22925066]]","[[0.         0.52067601]
 [0.1        0.59903392]
 [0.2        0.9992363 ]
 [0.3        1.16142831]
 [0.32341667 0.37639432]]",0,0.512
1,m,25,english,5,2,english,2024-02-09 13:54:52.617377,False,1,16,sounds\english\audio/english_834.wav,"[[  0.         -64.94927172]
 [  0.1         49.61052881]
 [  0.2        -25.04715585]
 [  0.3         95.09819394]
 [  0.32341667  84.16953653]]","[[0.         0.98752234]
 [0.1        1.31122352]
 [0.2        0.09065599]
 [0.3        1.07854905]
 [0.32341667 1.76453498]]",1,2.143
1,m,25,english,5,2,english,2024-02-09 13:54:52.617377,False,1,17,sounds\english\audio/english_144.wav,"[[  0.         -68.95587174]
 [  0.1        -74.16141139]
 [  0.2        -19.31034794]
 [  0.3        -77.96768175]
 [  0.32341667   3.46911061]]","[[0.         0.23806678]
 [0.1        0.77020267]
 [0.2        0.33858197]
 [0.3        1.42512122]
 [0.32341667 0.57629619]]",0,0.396
1,m,25,english,5,2,english,2024-02-09 13:54:52.617377,False,1,18,sounds\english\audio/english_652.wav,"[[  0.           4.27736911]
 [  0.1         18.79087972]
 [  0.2         61.32163128]
 [  0.3         45.76092148]
 [  0.32341667 -45.08671386]]","[[0.         0.30427218]
 [0.1        0.67520162]
 [0.2        0.66270689]
 [0.3        0.93987847]
 [0.32341667 1.10617978]]",0,0.572
1,m,25,english,5,2,english,2024-02-09 13:54:52.617377,False,1,19,sounds\english\audio/english_632.wav,"[[  0.         -56.22391322]
 [  0.1        -47.59423942]
 [  0.2         91.93727259]
 [  0.3        -33.89646621]
 [  0.32341667  46.88387871]]","[[0.         1.21249895]
 [0.1        0.39515719]
 [0.2        1.8528852 ]
 [0.3        1.67254104]
 [0.32341667 1.21014685]]",1,0.224
1,m,25,english,5,2,english,2024-02-09 13:54:52.617377,False,1,20,sounds\english\audio/english_75.wav,"[[  0.          -9.18091647]
 [  0.1        -62.02164907]
 [  0.2        -12.90623207]
 [  0.3         15.17089036]
 [  0.32341667  10.89352922]]","[[0.         0.92930856]
 [0.1        1.94000482]
 [0.2        1.2183621 ]
 [0.3        0.47349695]
 [0.32341667 1.02561006]]",1,0.44
1,m,25,english,5,2,english,2024-02-09 13:54:52.617377,False,1,21,sounds\english\audio/english_91.wav,"[[  0.         -67.73951944]
 [  0.1         83.83337034]
 [  0.2        -12.75649653]
 [  0.3          5.95502951]
 [  0.32341667  59.56964586]]","[[0.         0.2772338 ]
 [0.1        0.0816757 ]
 [0.2        0.92538416]
 [0.3        0.40714056]
 [0.32341667 1.8717525 ]]",0,0.407
1,m,25,english,5,2,english,2024-02-09 13:54:52.617377,False,1,22,sounds\english\audio/english_409.wav,"[[  0.         -24.04105399]
 [  0.1        -26.67389605]
 [  0.2         23.9966363 ]
 [  0.3         16.61705293]
 [  0.32341667  73.09980407]]","[[0.         0.29560797]
 [0.1        1.53762848]
 [0.2        0.34602898]
 [0.3        1.21824435]
 [0.32341667 1.55330233]]",1,0.481
1,m,25,english,5,2,english,2024-02-09 13:54:52.617377,False,1,23,sounds\english\audio/english_627.wav,"[[  0.         -53.99355102]
 [  0.1         -3.03417463]
 [  0.2         83.9257281 ]
 [  0.3         52.52073868]
 [  0.32341667 -13.85481025]]","[[0.         0.04887222]
 [0.1        0.14119608]
 [0.2        0.97350107]
 [0.3        0.6697358 ]
 [0.32341667 0.92660526]]",0,0.456
1,m,25,english,5,2,english,2024-02-09 13:54:52.617377,False,1,24,sounds\english\audio/english_691.wav,"[[  0.          28.79078449]
 [  0.1         99.1184909 ]
 [  0.2        -54.13985733]
 [  0.3        -85.36319246]
 [  0.32341667 -73.61621094]]","[[0.         1.07683297]
 [0.1        1.07376069]
 [0.2        0.28522735]
 [0.3        0.85701066]
 [0.32341667 1.71165398]]",0,0.763
1,m,25,english,5,2,english,2024-02-09 13:54:52.617377,False,1,25,sounds\english\audio/english_209.wav,"[[ 0.         14.15361396]
 [ 0.1        85.95109622]
 [ 0.2        18.04804687]
 [ 0.3        28.2522976 ]
 [ 0.32341667  5.36776296]]","[[0.         1.44232267]
 [0.1        1.49291498]
 [0.2        1.19611731]
 [0.3        1.49647535]
 [0.32341667 0.30324849]]",1,0.434
1,m,25,english,5,2,english,2024-02-09 13:54:52.617377,False,1,26,sounds\english\audio/english_830.wav,"[[  0.           2.63258607]
 [  0.1        -31.8387274 ]
 [  0.2         -6.78563658]
 [  0.3        -57.52390495]
 [  0.32341667  51.13575953]]","[[0.         0.89301132]
 [0.1        1.32560067]
 [0.2        1.08718884]
 [0.3        0.53430446]
 [0.32341667 0.53816607]]",1,0.663
1,m,25,english,5,2,english,2024-02-09 13:54:52.617377,False,1,27,sounds\english\audio/english_290.wav,"[[  0.          73.71968657]
 [  0.1        -59.85317413]
 [  0.2         71.1426587 ]
 [  0.3        -18.50007061]
 [  0.32341667 -65.91143137]]","[[0.         0.30552726]
 [0.1        1.31636279]
 [0.2        0.54925413]
 [0.3        1.26204455]
 [0.32341667 0.60528556]]",0,0.405
1,m,25,english,5,2,english,2024-02-09 13:54:52.617377,False,1,28,sounds\english\audio/english_1.wav,"[[  0.          53.99031816]
 [  0.1        -58.32145174]
 [  0.2        -86.75659624]
 [  0.3        -31.84945767]
 [  0.32341667 -59.21997754]]","[[0.         1.91732561]
 [0.1        0.75352701]
 [0.2        1.40297919]
 [0.3        0.12157709]
 [0.32341667 1.57687546]]",1,0.432
1,m,25,english,5,2,english,2024-02-09 13:54:52.617377,False,1,29,sounds\english\audio/english_392.wav,"[[  0.         -12.90562814]
 [  0.1         -1.29416779]
 [  0.2        -53.34155903]
 [  0.3        -48.65153398]
 [  0.32341667 -43.47653164]]","[[0.         1.13144201]
 [0.1        0.98893381]
 [0.2        0.07204825]
 [0.3        1.52779633]
 [0.32341667 1.32355089]]",0,0.52
1,m,25,english,5,2,english,2024-02-09 13:54:52.617377,False,1,30,sounds\english\audio/english_731.wav,"[[  0.          91.74609406]
 [  0.1         96.5637085 ]
 [  0.2        -58.02596537]
 [  0.3         21.59328018]
 [  0.32341667  13.26044458]]","[[0.         0.2840719 ]
 [0.1        1.75324284]
 [0.2        1.43086201]
 [0.3        1.68336342]
 [0.32341667 0.60031718]]",1,0.331
1,m,25,english,5,2,english,2024-02-09 13:54:52.617377,False,1,31,sounds\english\audio/english_755.wav,"[[  0.         -15.85533995]
 [  0.1        -97.95934782]
 [  0.2         -5.14559719]
 [  0.3         32.74087849]
 [  0.32341667 -56.93437429]]","[[0.         0.06987403]
 [0.1        0.83204773]
 [0.2        1.06816443]
 [0.3        1.42856986]
 [0.32341667 0.58130438]]",0,0.353
1,m,25,english,5,2,english,2024-02-09 13:54:52.617377,False,1,32,sounds\english\audio/english_147.wav,"[[  0.         -14.37625717]
 [  0.1        -48.99147792]
 [  0.2        -76.025031  ]
 [  0.3         -4.271985  ]
 [  0.32341667  90.36670579]]","[[0.         1.08714974]
 [0.1        1.05600262]
 [0.2        0.62193731]
 [0.3        1.23272935]
 [0.32341667 0.90867663]]",1,0.523
1,m,25,english,5,2,english,2024-02-09 13:54:52.617377,False,1,33,sounds\english\audio/english_673.wav,"[[  0.         -57.74220233]
 [  0.1         51.69168463]
 [  0.2         32.71998218]
 [  0.3          1.53841214]
 [  0.32341667 -95.68622946]]","[[0.         1.16794182]
 [0.1        0.24005868]
 [0.2        1.1491536 ]
 [0.3        1.59180477]
 [0.32341667 1.00634228]]",0,2.481
1,m,25,english,5,2,english,2024-02-09 13:54:52.617377,False,1,34,sounds\english\audio/english_184.wav,"[[ 0.         29.65201825]
 [ 0.1        16.48348791]
 [ 0.2         3.77448983]
 [ 0.3        62.87502431]
 [ 0.32341667 -8.82418577]]","[[0.         1.69567788]
 [0.1        1.26735627]
 [0.2        0.95352895]
 [0.3        1.7991474 ]
 [0.32341667 0.98992659]]",1,0.465
1,m,25,english,5,2,english,2024-02-09 13:54:52.617377,False,1,35,sounds\english\audio/english_493.wav,"[[  0.          42.62366846]
 [  0.1        -24.95330968]
 [  0.2         82.3526737 ]
 [  0.3         53.78370402]
 [  0.32341667 -52.5410085 ]]","[[0.         0.72879325]
 [0.1        1.87742997]
 [0.2        1.69463318]
 [0.3        0.82529142]
 [0.32341667 0.10126548]]",1,1.392
1,m,25,english,5,2,english,2024-02-09 13:54:52.617377,False,1,36,sounds\english\audio/english_825.wav,"[[  0.           9.96211161]
 [  0.1        -28.44120521]
 [  0.2         58.95311712]
 [  0.3        -14.85414305]
 [  0.32341667  85.14956963]]","[[0.         0.17252736]
 [0.1        0.52830291]
 [0.2        0.51646024]
 [0.3        0.70859388]
 [0.32341667 0.64434305]]",0,0.488
1,m,25,english,5,2,english,2024-02-09 13:54:52.617377,False,1,37,sounds\english\audio/english_617.wav,"[[  0.         -99.94195333]
 [  0.1        -27.54289523]
 [  0.2        -31.48016085]
 [  0.3        -72.28967102]
 [  0.32341667 -18.83127656]]","[[0.         1.17597353]
 [0.1        0.72595777]
 [0.2        0.94648609]
 [0.3        1.67485207]
 [0.32341667 0.94146903]]",1,0.849
1,m,25,english,5,2,english,2024-02-09 13:54:52.617377,False,1,38,sounds\english\audio/english_349.wav,"[[  0.         -10.00495534]
 [  0.1         54.31199814]
 [  0.2         48.17968705]
 [  0.3          8.48926652]
 [  0.32341667  42.05620052]]","[[0.         0.36915768]
 [0.1        0.83111041]
 [0.2        1.70147194]
 [0.3        1.08588898]
 [0.32341667 0.02584958]]",0,1.609
1,m,25,english,5,2,english,2024-02-09 13:54:52.617377,False,1,39,sounds\english\audio/english_593.wav,"[[ 0.          0.23295982]
 [ 0.1        -0.52832444]
 [ 0.2        18.28609946]
 [ 0.3        21.25816485]
 [ 0.32341667 60.44039038]]","[[0.         1.83954553]
 [0.1        1.77820403]
 [0.2        0.36770598]
 [0.3        0.42189114]
 [0.32341667 0.07588974]]",1,0.428
1,m,25,english,5,2,english,2024-02-09 13:54:52.617377,False,1,40,sounds\english\audio/english_555.wav,"[[  0.          69.49762262]
 [  0.1         42.72159746]
 [  0.2         96.74773092]
 [  0.3        -27.92411753]
 [  0.32341667  33.93273626]]","[[0.         1.08530069]
 [0.1        0.99979939]
 [0.2        1.75882447]
 [0.3        1.36775981]
 [0.32341667 0.90104071]]",1,0.359
1,m,25,english,5,2,english,2024-02-09 13:54:52.617377,False,1,41,sounds\english\audio/english_363.wav,"[[  0.          -8.62246293]
 [  0.1        -37.95317313]
 [  0.2        -98.56362786]
 [  0.3         79.4101663 ]
 [  0.32341667 -19.01593507]]","[[0.         0.22304778]
 [0.1        0.51009023]
 [0.2        1.67320701]
 [0.3        0.32318158]
 [0.32341667 1.23606141]]",0,0.328
1,m,25,english,5,2,english,2024-02-09 13:54:52.617377,False,1,42,sounds\english\audio/english_980.wav,"[[  0.         -32.33629208]
 [  0.1         -4.4140807 ]
 [  0.2         76.81412515]
 [  0.3        -16.24877133]
 [  0.32341667 -26.44128118]]","[[0.         1.21290567]
 [0.1        0.22350007]
 [0.2        1.68078519]
 [0.3        0.16816052]
 [0.32341667 1.48722631]]",0,0.852
1,m,25,english,5,2,english,2024-02-09 13:54:52.617377,False,1,43,sounds\english\audio/english_131.wav,"[[  0.         -90.65248477]
 [  0.1          7.0988446 ]
 [  0.2        -30.94637352]
 [  0.3        -31.86179524]
 [  0.32341667   1.85809033]]","[[0.         1.67513221]
 [0.1        1.62916956]
 [0.2        1.4017665 ]
 [0.3        1.07276153]
 [0.32341667 1.80109071]]",1,0.44
1,m,25,english,5,2,english,2024-02-09 13:54:52.617377,False,1,44,sounds\english\audio/english_63.wav,"[[  0.         -99.27532027]
 [  0.1         76.75365344]
 [  0.2         -4.19867406]
 [  0.3         58.21469339]
 [  0.32341667 -76.25580242]]","[[0.         1.55063038]
 [0.1        0.78453917]
 [0.2        1.54061689]
 [0.3        0.9417581 ]
 [0.32341667 1.07689855]]",1,0.403
1,m,25,english,5,2,english,2024-02-09 13:54:52.617377,False,1,45,sounds\english\audio/english_217.wav,"[[  0.         -87.44045162]
 [  0.1         26.67222095]
 [  0.2         97.90977363]
 [  0.3          4.49718441]
 [  0.32341667  13.31384309]]","[[0.         1.20965721]
 [0.1        0.05295089]
 [0.2        1.23557872]
 [0.3        1.80752812]
 [0.32341667 1.57586313]]",0,0.339
1,m,25,english,5,2,english,2024-02-09 13:54:52.617377,False,1,46,sounds\english\audio/english_785.wav,"[[  0.          41.51350967]
 [  0.1         26.23517368]
 [  0.2        -12.63822228]
 [  0.3        -30.66588474]
 [  0.32341667  26.08399401]]","[[0.         0.93543931]
 [0.1        1.17819894]
 [0.2        1.98833146]
 [0.3        0.80021218]
 [0.32341667 1.2737519 ]]",1,0.283
1,m,25,english,5,2,english,2024-02-09 13:54:52.617377,False,1,47,sounds\english\audio/english_179.wav,"[[ 0.         76.93131114]
 [ 0.1         5.5150778 ]
 [ 0.2         3.89208722]
 [ 0.3        -8.47825544]
 [ 0.32341667 50.73924617]]","[[0.         0.23318107]
 [0.1        0.47080089]
 [0.2        1.31062884]
 [0.3        0.27743795]
 [0.32341667 0.83516241]]",0,0.523
1,m,25,english,5,2,english,2024-02-09 13:54:52.617377,False,1,48,sounds\english\audio/english_450.wav,"[[  0.          32.75253923]
 [  0.1        -95.51335644]
 [  0.2         34.87485597]
 [  0.3        -23.91285283]
 [  0.32341667  -8.67870007]]","[[0.         1.28767958]
 [0.1        1.7262356 ]
 [0.2        0.97567272]
 [0.3        1.94639387]
 [0.32341667 1.78958339]]",1,0.189
1,m,25,english,5,2,english,2024-02-09 13:54:52.617377,False,1,49,sounds\english\audio/english_914.wav,"[[  0.          37.51857345]
 [  0.1        -30.53068311]
 [  0.2        -12.980452  ]
 [  0.3        -99.09260462]
 [  0.32341667 -34.91402533]]","[[0.         0.04486829]
 [0.1        1.18486584]
 [0.2        1.58356311]
 [0.3        1.35478251]
 [0.32341667 1.16671671]]",0,0.312
1,m,25,english,5,2,english,2024-02-09 13:54:52.617377,False,1,50,sounds\english\audio/english_398.wav,"[[  0.         -72.24204172]
 [  0.1         29.80242672]
 [  0.2        -29.26741326]
 [  0.3         30.68380911]
 [  0.32341667 -23.61694816]]","[[0.         0.50855809]
 [0.1        0.68040596]
 [0.2        1.59063958]
 [0.3        1.71035635]
 [0.32341667 1.737831  ]]",0,0.682
1,m,25,english,5,2,english,2024-02-09 13:54:52.617377,False,1,51,sounds\english\audio/english_318.wav,"[[  0.          40.16064427]
 [  0.1        -52.58874178]
 [  0.2         46.7653316 ]
 [  0.3        -41.44559589]
 [  0.32341667  -2.50443948]]","[[0.         0.11467793]
 [0.1        0.6224104 ]
 [0.2        0.05328619]
 [0.3        0.01138238]
 [0.32341667 1.16020285]]",0,0.631
1,m,25,english,5,2,english,2024-02-09 13:54:52.617377,False,1,52,sounds\english\audio/english_760.wav,"[[ 0.00000000e+00  2.43902693e+01]
 [ 1.00000000e-01 -2.47174936e-02]
 [ 2.00000000e-01  8.28662613e+01]
 [ 3.00000000e-01 -7.97314524e+00]
 [ 3.23416667e-01 -6.32438983e+00]]","[[0.         0.67210823]
 [0.1        1.89588113]
 [0.2        0.23432987]
 [0.3        1.20797246]
 [0.32341667 1.72866971]]",1,0.279
1,m,25,english,5,2,english,2024-02-09 13:54:52.617377,False,1,53,sounds\english\audio/english_56.wav,"[[  0.          47.39262259]
 [  0.1          8.89686315]
 [  0.2        -49.65570225]
 [  0.3         44.77904805]
 [  0.32341667 -94.65832844]]","[[0.         1.7837475 ]
 [0.1        1.39740624]
 [0.2        0.11209095]
 [0.3        1.4946119 ]
 [0.32341667 1.03498606]]",1,0.504
1,m,25,english,5,2,english,2024-02-09 13:54:52.617377,False,1,54,sounds\english\audio/english_80.wav,"[[  0.          33.21374474]
 [  0.1        -72.2618742 ]
 [  0.2        -29.44860443]
 [  0.3        -33.36418129]
 [  0.32341667 -65.11319145]]","[[0.         1.09809668]
 [0.1        1.73594877]
 [0.2        0.30037535]
 [0.3        0.36613598]
 [0.32341667 0.50687614]]",1,0.439
1,m,25,english,5,2,english,2024-02-09 13:54:52.617377,False,1,55,sounds\english\audio/english_573.wav,"[[  0.         -46.41950257]
 [  0.1        -92.58424164]
 [  0.2         21.8123883 ]
 [  0.3         16.48756951]
 [  0.32341667 -54.36863361]]","[[0.         0.98293374]
 [0.1        0.99885906]
 [0.2        0.65769494]
 [0.3        0.46238493]
 [0.32341667 0.72259175]]",0,0.604
1,m,25,english,5,2,english,2024-02-09 13:54:52.617377,False,1,56,sounds\english\audio/english_659.wav,"[[  0.         -86.13080632]
 [  0.1         39.51927718]
 [  0.2         -6.22185106]
 [  0.3          5.64287294]
 [  0.32341667  47.08694279]]","[[0.         0.77157019]
 [0.1        1.34569204]
 [0.2        0.71695874]
 [0.3        1.04110125]
 [0.32341667 1.84115141]]",0,1.529
1,m,25,english,5,2,english,2024-02-09 13:54:52.617377,False,1,57,sounds\english\audio/english_890.wav,"[[  0.         -68.21158685]
 [  0.1        -83.19360642]
 [  0.2         79.13343252]
 [  0.3         80.54326003]
 [  0.32341667 -30.48737523]]","[[0.         0.82535308]
 [0.1        1.79167423]
 [0.2        0.78297904]
 [0.3        0.23441015]
 [0.32341667 1.41044901]]",1,0.655
1,m,25,english,5,2,english,2024-02-09 13:54:52.617377,False,1,58,sounds\english\audio/english_221.wav,"[[  0.          85.84184869]
 [  0.1        -20.37513589]
 [  0.2        -89.75984637]
 [  0.3         50.66879934]
 [  0.32341667  20.92538743]]","[[0.         1.38100565]
 [0.1        0.79531516]
 [0.2        0.9538446 ]
 [0.3        1.56492426]
 [0.32341667 1.60855456]]",0,1.38
1,m,25,english,5,2,english,2024-02-09 13:54:52.617377,False,1,59,sounds\english\audio/english_907.wav,"[[  0.          13.97638225]
 [  0.1         36.81481791]
 [  0.2          1.21651202]
 [  0.3         35.47405672]
 [  0.32341667 -27.93760057]]","[[0.         0.68575839]
 [0.1        1.58611259]
 [0.2        1.59547025]
 [0.3        0.75888392]
 [0.32341667 0.06937964]]",1,0.308
1,m,25,english,5,2,english,2024-02-09 13:54:52.617377,False,1,60,sounds\english\audio/english_718.wav,"[[  0.         -62.54470118]
 [  0.1        -40.70811043]
 [  0.2        -11.25435391]
 [  0.3        -68.52161814]
 [  0.32341667 -77.89834334]]","[[0.         0.40124114]
 [0.1        0.49945062]
 [0.2        1.54880463]
 [0.3        0.39118497]
 [0.32341667 0.07447668]]",0,1.667
1,m,25,english,5,2,english,2024-02-09 13:54:52.617377,False,1,61,sounds\english\audio/english_335.wav,"[[  0.           2.73277154]
 [  0.1         -7.1950175 ]
 [  0.2         60.45920583]
 [  0.3        -26.91989021]
 [  0.32341667  -2.30142169]]","[[0.         0.73564724]
 [0.1        0.15546095]
 [0.2        0.90435367]
 [0.3        0.56661996]
 [0.32341667 1.21763394]]",0,0.416
1,m,25,english,5,2,english,2024-02-09 13:54:52.617377,False,1,62,sounds\english\audio/english_181.wav,"[[  0.         -20.89133039]
 [  0.1        -68.36112581]
 [  0.2        -21.7912093 ]
 [  0.3          7.62752627]
 [  0.32341667  53.94324841]]","[[0.         0.39550568]
 [0.1        0.87114476]
 [0.2        0.0214418 ]
 [0.3        1.98777716]
 [0.32341667 0.40706026]]",0,0.449
1,m,25,english,5,2,english,2024-02-09 13:54:52.617377,False,1,63,sounds\english\audio/english_514.wav,"[[  0.         -61.65105701]
 [  0.1         49.84264816]
 [  0.2         14.14440898]
 [  0.3        -30.10662908]
 [  0.32341667  90.48337022]]","[[0.         1.12509033]
 [0.1        0.78701739]
 [0.2        0.37052689]
 [0.3        1.42053426]
 [0.32341667 1.94621598]]",0,0.577
1,m,25,english,5,2,english,2024-02-09 13:54:52.617377,False,1,64,sounds\english\audio/english_964.wav,"[[  0.          11.04708611]
 [  0.1        -10.67848967]
 [  0.2         64.95328634]
 [  0.3        -78.10341524]
 [  0.32341667 -48.61651995]]","[[0.         0.74384055]
 [0.1        0.46038505]
 [0.2        0.80934661]
 [0.3        1.94282647]
 [0.32341667 1.99482071]]",0,1.028
1,m,25,english,5,2,english,2024-02-09 13:54:52.617377,False,1,65,sounds\english\audio/english_975.wav,"[[  0.          30.76275893]
 [  0.1        -18.30184736]
 [  0.2         88.92209311]
 [  0.3        -15.78836893]
 [  0.32341667  81.69873146]]","[[0.         1.75032315]
 [0.1        1.1766706 ]
 [0.2        0.11148121]
 [0.3        1.00992181]
 [0.32341667 1.08252971]]",1,0.531
1,m,25,english,5,2,english,2024-02-09 13:54:52.617377,False,1,66,sounds\english\audio/english_597.wav,"[[  0.         -83.66792118]
 [  0.1        -19.98744657]
 [  0.2        -30.38458549]
 [  0.3        -63.4406446 ]
 [  0.32341667  25.67812426]]","[[0.         0.17389721]
 [0.1        0.39349672]
 [0.2        1.97590818]
 [0.3        1.84988074]
 [0.32341667 1.17620678]]",0,0.456
1,m,25,english,5,2,english,2024-02-09 13:54:52.617377,False,1,67,sounds\english\audio/english_907.wav,"[[  0.          13.97638225]
 [  0.1         36.81481791]
 [  0.2          1.21651202]
 [  0.3         35.47405672]
 [  0.32341667 -27.93760057]]","[[0.         0.68575839]
 [0.1        1.58611259]
 [0.2        1.59547025]
 [0.3        0.75888392]
 [0.32341667 0.06937964]]",1,0.644
1,m,25,english,5,2,english,2024-02-09 13:54:52.617377,False,1,68,sounds\english\audio/english_345.wav,"[[  0.         -46.00579497]
 [  0.1        -45.5805492 ]
 [  0.2        -14.04378539]
 [  0.3         63.72413351]
 [  0.32341667  18.03717792]]","[[0.         1.58751342]
 [0.1        1.0202646 ]
 [0.2        0.61561299]
 [0.3        1.21547564]
 [0.32341667 1.47127253]]",1,0.449
1,m,25,english,5,2,english,2024-02-09 13:54:52.617377,False,1,69,sounds\english\audio/english_799.wav,"[[  0.         -48.4958847 ]
 [  0.1         -9.52866418]
 [  0.2          1.94176449]
 [  0.3          5.71676827]
 [  0.32341667  30.27282792]]","[[0.         1.9233431 ]
 [0.1        1.11542891]
 [0.2        0.95865462]
 [0.3        0.6616034 ]
 [0.32341667 1.91183458]]",1,0.407
1,m,25,english,5,2,english,2024-02-09 13:54:52.617377,False,1,70,sounds\english\audio/english_964.wav,"[[  0.          11.04708611]
 [  0.1        -10.67848967]
 [  0.2         64.95328634]
 [  0.3        -78.10341524]
 [  0.32341667 -48.61651995]]","[[0.         0.74384055]
 [0.1        0.46038505]
 [0.2        0.80934661]
 [0.3        1.94282647]
 [0.32341667 1.99482071]]",0,0.188
1,m,25,english,5,2,english,2024-02-09 13:54:52.617377,False,1,71,sounds\english\audio/english_923.wav,"[[  0.          -0.59122564]
 [  0.1         -5.70499959]
 [  0.2        -29.88927864]
 [  0.3        -82.02126299]
 [  0.32341667  16.89967319]]","[[0.         1.19594648]
 [0.1        1.05419104]
 [0.2        0.73000078]
 [0.3        1.36390543]
 [0.32341667 1.13865732]]",1,0.337
1,m,25,english,5,2,english,2024-02-09 13:54:52.617377,False,1,72,sounds\english\audio/english_251.wav,"[[  0.         -35.26640223]
 [  0.1        -82.14936791]
 [  0.2         39.53587687]
 [  0.3        -75.44024907]
 [  0.32341667  26.94148116]]","[[0.         1.59441442]
 [0.1        1.21410308]
 [0.2        0.89125894]
 [0.3        0.14763688]
 [0.32341667 1.71797298]]",1,0.526
1,m,25,english,5,2,english,2024-02-09 13:54:52.617377,False,1,73,sounds\english\audio/english_36.wav,"[[  0.           8.79498818]
 [  0.1        -18.99628775]
 [  0.2        -17.40156662]
 [  0.3        -85.73958234]
 [  0.32341667  45.44069908]]","[[0.         0.0614271 ]
 [0.1        0.22652961]
 [0.2        0.46484299]
 [0.3        0.81464033]
 [0.32341667 0.21843777]]",0,0.412
1,m,25,english,5,2,english,2024-02-09 13:54:52.617377,False,1,74,sounds\english\audio/english_737.wav,"[[  0.          21.35751723]
 [  0.1         61.52152077]
 [  0.2        -29.75610596]
 [  0.3        -39.80249708]
 [  0.32341667 -14.64937497]]","[[0.         1.17499048]
 [0.1        1.09581395]
 [0.2        0.62940412]
 [0.3        0.11793022]
 [0.32341667 0.62377861]]",1,0.458
1,m,25,english,5,2,english,2024-02-09 13:54:52.617377,False,1,75,sounds\english\audio/english_378.wav,"[[  0.          13.37832971]
 [  0.1         17.37931074]
 [  0.2         10.9554113 ]
 [  0.3        -24.86891171]
 [  0.32341667   7.89965194]]","[[0.         0.65677047]
 [0.1        1.74134092]
 [0.2        0.67897054]
 [0.3        1.20159635]
 [0.32341667 0.27053006]]",1,0.368
1,m,25,english,5,2,english,2024-02-09 13:54:52.617377,False,1,76,sounds\english\audio/english_815.wav,"[[  0.         -76.1669867 ]
 [  0.1        -40.517901  ]
 [  0.2        -46.68959253]
 [  0.3        -79.23468646]
 [  0.32341667 -63.63497058]]","[[0.         0.29426078]
 [0.1        0.96858733]
 [0.2        0.83382199]
 [0.3        1.13727176]
 [0.32341667 0.09357312]]",1,0.971
1,m,25,english,5,2,english,2024-02-09 13:54:52.617377,False,1,77,sounds\english\audio/english_8.wav,"[[  0.         -11.83025711]
 [  0.1          8.7470631 ]
 [  0.2        -15.41843982]
 [  0.3        -87.7437633 ]
 [  0.32341667 -40.85253846]]","[[0.         1.51300734]
 [0.1        0.24000547]
 [0.2        1.17952525]
 [0.3        1.57032258]
 [0.32341667 0.7584977 ]]",1,0.453
1,m,25,english,5,2,english,2024-02-09 13:54:52.617377,False,1,78,sounds\english\audio/english_408.wav,"[[  0.          -0.16211679]
 [  0.1         16.68246491]
 [  0.2        -84.31504289]
 [  0.3         20.95362966]
 [  0.32341667  15.25079186]]","[[0.         1.52185603]
 [0.1        0.27925492]
 [0.2        0.96179544]
 [0.3        1.64669203]
 [0.32341667 1.54793764]]",0,0.948
1,m,25,english,5,2,english,2024-02-09 13:54:52.617377,False,1,79,sounds\english\audio/english_570.wav,"[[  0.          79.72420881]
 [  0.1        -10.34227762]
 [  0.2         18.32754659]
 [  0.3         15.23919529]
 [  0.32341667 -28.05357781]]","[[0.         1.67561776]
 [0.1        1.50139893]
 [0.2        1.41834695]
 [0.3        1.12876239]
 [0.32341667 0.72546523]]",1,0.231
1,m,25,english,5,2,english,2024-02-09 13:54:52.617377,False,1,80,sounds\english\audio/english_718.wav,"[[  0.         -62.54470118]
 [  0.1        -40.70811043]
 [  0.2        -11.25435391]
 [  0.3        -68.52161814]
 [  0.32341667 -77.89834334]]","[[0.         0.40124114]
 [0.1        0.49945062]
 [0.2        1.54880463]
 [0.3        0.39118497]
 [0.32341667 0.07447668]]",0,0.503
1,m,25,english,5,2,english,2024-02-09 13:54:52.617377,False,1,81,sounds\english\audio/english_169.wav,"[[  0.          21.52556644]
 [  0.1        -62.21960884]
 [  0.2        -58.58818316]
 [  0.3         14.95103608]
 [  0.32341667  21.70814087]]","[[0.         0.24747868]
 [0.1        0.51530303]
 [0.2        1.14352058]
 [0.3        1.46694059]
 [0.32341667 1.67980684]]",0,0.258
1,m,25,english,5,2,english,2024-02-09 13:54:52.617377,False,1,82,sounds\english\audio/english_10.wav,"[[  0.         -80.92247099]
 [  0.1         11.56157957]
 [  0.2         72.61501241]
 [  0.3         91.01400741]
 [  0.32341667 -64.58672822]]","[[0.         1.33142191]
 [0.1        0.6588087 ]
 [0.2        1.62851887]
 [0.3        1.4109269 ]
 [0.32341667 0.76235223]]",1,0.203
1,m,25,english,5,2,english,2024-02-09 13:54:52.617377,False,1,83,sounds\english\audio/english_468.wav,"[[  0.         -33.82586043]
 [  0.1        -42.55840131]
 [  0.2        -36.6492295 ]
 [  0.3         39.91321296]
 [  0.32341667  54.14936319]]","[[0.         0.35164089]
 [0.1        0.20114733]
 [0.2        1.40729654]
 [0.3        0.04300573]
 [0.32341667 1.79642733]]",0,0.236
1,m,25,english,5,2,english,2024-02-09 13:54:52.617377,False,1,84,sounds\english\audio/english_662.wav,"[[  0.         -34.20942979]
 [  0.1        -64.9220759 ]
 [  0.2        -46.13526655]
 [  0.3         16.61128262]
 [  0.32341667 -72.42442326]]","[[0.         0.58122658]
 [0.1        0.35407044]
 [0.2        1.02300599]
 [0.3        0.09808433]
 [0.32341667 0.71975239]]",0,0.398
1,m,25,english,5,2,english,2024-02-09 13:54:52.617377,False,1,85,sounds\english\audio/english_615.wav,"[[  0.          76.05955912]
 [  0.1         54.62950786]
 [  0.2        -31.02204933]
 [  0.3         -3.27946314]
 [  0.32341667  51.350795  ]]","[[0.         1.68553334]
 [0.1        1.5058876 ]
 [0.2        1.66676809]
 [0.3        1.09840801]
 [0.32341667 0.25314986]]",1,0.128
1,m,25,english,5,2,english,2024-02-09 13:54:52.617377,False,1,86,sounds\english\audio/english_453.wav,"[[  0.         -60.23429987]
 [  0.1         80.38725697]
 [  0.2         66.16689695]
 [  0.3        -59.46214637]
 [  0.32341667 -39.76201882]]","[[0.         1.87756573]
 [0.1        0.94070469]
 [0.2        1.71191258]
 [0.3        0.56012011]
 [0.32341667 0.35119419]]",1,0.412
1,m,25,english,5,2,english,2024-02-09 13:54:52.617377,False,1,87,sounds\english\audio/english_568.wav,"[[  0.         -80.38325009]
 [  0.1         65.28340143]
 [  0.2         22.57833022]
 [  0.3        -55.44872251]
 [  0.32341667 -94.3142815 ]]","[[0.         1.52383372]
 [0.1        0.37337456]
 [0.2        0.67023469]
 [0.3        1.98652091]
 [0.32341667 1.15861726]]",0,0.253
1,m,25,english,5,2,english,2024-02-09 13:54:52.617377,False,1,88,sounds\english\audio/english_434.wav,"[[  0.          -4.12787863]
 [  0.1        -30.19441281]
 [  0.2         41.04377471]
 [  0.3        -32.43591961]
 [  0.32341667  61.53108406]]","[[0.         0.96421208]
 [0.1        1.08561731]
 [0.2        1.46356301]
 [0.3        0.25116585]
 [0.32341667 0.73120458]]",1,0.191
1,m,25,english,5,2,english,2024-02-09 13:54:52.617377,False,1,89,sounds\english\audio/english_380.wav,"[[  0.         -44.61260121]
 [  0.1        -47.89967478]
 [  0.2         34.91352544]
 [  0.3        -71.89465654]
 [  0.32341667  84.67713906]]","[[0.         1.04167661]
 [0.1        0.43386817]
 [0.2        0.93219588]
 [0.3        0.8109376 ]
 [0.32341667 0.64473949]]",0,0.385
1,m,25,english,5,2,english,2024-02-09 13:54:52.617377,False,1,90,sounds\english\audio/english_793.wav,"[[  0.          -3.59370976]
 [  0.1        -92.44382947]
 [  0.2        -89.84008222]
 [  0.3         96.09352514]
 [  0.32341667  42.94050617]]","[[0.         0.95327953]
 [0.1        0.8890172 ]
 [0.2        0.47547445]
 [0.3        1.09208031]
 [0.32341667 0.63383093]]",1,0.432
1,m,25,english,5,2,english,2024-02-09 13:54:52.617377,False,1,91,sounds\english\audio/english_934.wav,"[[ 0.         48.23169593]
 [ 0.1        42.81145804]
 [ 0.2        79.06411095]
 [ 0.3        69.44528076]
 [ 0.32341667 88.54940569]]","[[0.         1.38760579]
 [0.1        1.74622613]
 [0.2        0.2874918 ]
 [0.3        1.61606763]
 [0.32341667 1.62058381]]",1,0.349
1,m,25,english,5,2,english,2024-02-09 13:54:52.617377,False,1,92,sounds\english\audio/english_381.wav,"[[  0.         -64.83599525]
 [  0.1         97.61236857]
 [  0.2        -60.27157178]
 [  0.3         84.45732791]
 [  0.32341667 -87.53832291]]","[[0.         0.77808766]
 [0.1        1.62635576]
 [0.2        0.65298664]
 [0.3        0.46881793]
 [0.32341667 1.22836965]]",1,0.427
1,m,25,english,5,2,english,2024-02-09 13:54:52.617377,False,1,93,sounds\english\audio/english_397.wav,"[[  0.          89.67962381]
 [  0.1        -80.29722345]
 [  0.2         60.53564011]
 [  0.3          9.94565725]
 [  0.32341667   0.1319882 ]]","[[0.         0.42719638]
 [0.1        0.89466904]
 [0.2        0.56174568]
 [0.3        0.1553242 ]
 [0.32341667 1.89079641]]",0,0.402
1,m,25,english,5,2,english,2024-02-09 13:54:52.617377,False,1,94,sounds\english\audio/english_825.wav,"[[  0.           9.96211161]
 [  0.1        -28.44120521]
 [  0.2         58.95311712]
 [  0.3        -14.85414305]
 [  0.32341667  85.14956963]]","[[0.         0.17252736]
 [0.1        0.52830291]
 [0.2        0.51646024]
 [0.3        0.70859388]
 [0.32341667 0.64434305]]",0,0.458
1,m,25,english,5,2,english,2024-02-09 13:54:52.617377,False,1,95,sounds\english\audio/english_282.wav,"[[  0.           0.76940706]
 [  0.1         85.14494722]
 [  0.2        -92.43433596]
 [  0.3        -98.42888083]
 [  0.32341667 -32.58662549]]","[[0.         0.32837311]
 [0.1        0.39977994]
 [0.2        0.62065738]
 [0.3        0.06200237]
 [0.32341667 1.4193679 ]]",0,0.488
1,m,25,english,5,2,english,2024-02-09 13:54:52.617377,False,1,96,sounds\english\audio/english_663.wav,"[[  0.          55.84438863]
 [  0.1        -89.02249371]
 [  0.2        -13.61345685]
 [  0.3         14.50375693]
 [  0.32341667  80.63633164]]","[[0.         1.29444713]
 [0.1        0.90215198]
 [0.2        1.61104603]
 [0.3        0.31375715]
 [0.32341667 1.01784406]]",1,0.273
1,m,25,english,5,2,english,2024-02-09 13:54:52.617377,False,1,97,sounds\english\audio/english_966.wav,"[[  0.          23.00954068]
 [  0.1         -2.7733657 ]
 [  0.2         -6.00176123]
 [  0.3        -64.80320904]
 [  0.32341667  94.15296916]]","[[0.         1.02848684]
 [0.1        1.22612364]
 [0.2        0.03461529]
 [0.3        0.22357585]
 [0.32341667 0.55383001]]",0,0.724
1,m,25,english,5,2,english,2024-02-09 13:54:52.617377,False,1,98,sounds\english\audio/english_631.wav,"[[  0.         -74.37700429]
 [  0.1        -18.72790858]
 [  0.2        -40.03216697]
 [  0.3        -98.5967418 ]
 [  0.32341667 -41.89017921]]","[[0.         0.77307226]
 [0.1        0.75923189]
 [0.2        1.00825659]
 [0.3        1.46579839]
 [0.32341667 0.34107994]]",1,0.231
1,m,25,english,5,2,english,2024-02-09 13:54:52.617377,False,1,99,sounds\english\audio/english_794.wav,"[[  0.           5.57967757]
 [  0.1         -3.8737546 ]
 [  0.2        -24.29943164]
 [  0.3          3.56417137]
 [  0.32341667 -13.30357118]]","[[0.         1.6157291 ]
 [0.1        0.80008436]
 [0.2        0.69881068]
 [0.3        1.55658335]
 [0.32341667 1.787412  ]]",1,0.281
1,m,25,english,5,2,english,2024-02-09 13:54:52.617377,False,1,100,sounds\english\audio/english_31.wav,"[[  0.          21.28810337]
 [  0.1         68.821868  ]
 [  0.2        -73.02143346]
 [  0.3         68.60173581]
 [  0.32341667  51.47999234]]","[[0.         1.2057056 ]
 [0.1        0.99381392]
 [0.2        0.87600828]
 [0.3        1.15844697]
 [0.32341667 1.3722803 ]]",1,0.356
1,m,25,english,5,2,english,2024-02-09 13:54:52.617377,False,1,101,sounds\english\audio/english_870.wav,"[[  0.         -85.66751388]
 [  0.1         30.55194498]
 [  0.2        -98.28008273]
 [  0.3        -58.1418371 ]
 [  0.32341667  81.20200135]]","[[0.         1.70746054]
 [0.1        0.68953906]
 [0.2        1.62274852]
 [0.3        0.74531017]
 [0.32341667 1.06596266]]",1,0.316
1,m,25,english,5,2,english,2024-02-09 13:54:52.617377,False,1,102,sounds\english\audio/english_831.wav,"[[  0.          -7.33710711]
 [  0.1        -87.69782071]
 [  0.2         34.03975531]
 [  0.3         -2.18295653]
 [  0.32341667  20.908766  ]]","[[0.         1.53159971]
 [0.1        1.22669962]
 [0.2        0.70180407]
 [0.3        1.02244347]
 [0.32341667 1.06702443]]",1,0.292
1,m,25,english,5,2,english,2024-02-09 13:54:52.617377,False,1,103,sounds\english\audio/english_834.wav,"[[  0.         -64.94927172]
 [  0.1         49.61052881]
 [  0.2        -25.04715585]
 [  0.3         95.09819394]
 [  0.32341667  84.16953653]]","[[0.         0.98752234]
 [0.1        1.31122352]
 [0.2        0.09065599]
 [0.3        1.07854905]
 [0.32341667 1.76453498]]",1,0.27
1,m,25,english,5,2,english,2024-02-09 13:54:52.617377,False,1,104,sounds\english\audio/english_428.wav,"[[  0.         -98.34466569]
 [  0.1        -10.51162175]
 [  0.2         97.93427859]
 [  0.3         35.61870537]
 [  0.32341667 -12.49352836]]","[[0.         1.83106884]
 [0.1        1.34345266]
 [0.2        0.65853672]
 [0.3        1.28105878]
 [0.32341667 0.15324236]]",1,0.296
1,m,25,english,5,2,english,2024-02-09 13:54:52.617377,False,1,105,sounds\english\audio/english_331.wav,"[[  0.          12.66323204]
 [  0.1        -81.78605138]
 [  0.2         59.07546792]
 [  0.3        -83.73170191]
 [  0.32341667   3.10587362]]","[[0.         1.93220763]
 [0.1        1.48237299]
 [0.2        1.15413743]
 [0.3        1.02182823]
 [0.32341667 0.81670354]]",1,0.353
1,m,25,english,5,2,english,2024-02-09 13:54:52.617377,False,1,106,sounds\english\audio/english_736.wav,"[[  0.          44.94907169]
 [  0.1        -89.05982676]
 [  0.2         27.88925208]
 [  0.3         77.01163693]
 [  0.32341667 -28.23601136]]","[[0.         1.40223879]
 [0.1        1.76358699]
 [0.2        0.99111008]
 [0.3        1.90426439]
 [0.32341667 1.97036362]]",1,0.406
1,m,25,english,5,2,english,2024-02-09 13:54:52.617377,False,1,107,sounds\english\audio/english_161.wav,"[[  0.          16.17182642]
 [  0.1         51.23408036]
 [  0.2         56.55598601]
 [  0.3        -25.08054758]
 [  0.32341667 -70.36900789]]","[[0.         0.80971259]
 [0.1        1.56168911]
 [0.2        0.91666403]
 [0.3        1.93998208]
 [0.32341667 0.76147365]]",1,0.497
1,m,25,english,5,2,english,2024-02-09 13:54:52.617377,False,1,108,sounds\english\audio/english_152.wav,"[[  0.         -21.97873044]
 [  0.1         85.66675034]
 [  0.2        -66.57447909]
 [  0.3        -33.8772441 ]
 [  0.32341667 -46.50239179]]","[[0.         1.75752799]
 [0.1        1.21467008]
 [0.2        0.82299352]
 [0.3        0.48869868]
 [0.32341667 0.31705885]]",0,0.79
1,m,25,english,5,2,english,2024-02-09 13:54:52.617377,False,1,109,sounds\english\audio/english_858.wav,"[[  0.          45.12570132]
 [  0.1        -46.71359417]
 [  0.2        -60.32464978]
 [  0.3        -70.46241098]
 [  0.32341667  76.51169453]]","[[0.         0.50395823]
 [0.1        1.50658612]
 [0.2        0.86887416]
 [0.3        0.20520469]
 [0.32341667 1.05885662]]",1,0.396
1,m,25,english,5,2,english,2024-02-09 13:54:52.617377,False,1,110,sounds\english\audio/english_794.wav,"[[  0.           5.57967757]
 [  0.1         -3.8737546 ]
 [  0.2        -24.29943164]
 [  0.3          3.56417137]
 [  0.32341667 -13.30357118]]","[[0.         1.6157291 ]
 [0.1        0.80008436]
 [0.2        0.69881068]
 [0.3        1.55658335]
 [0.32341667 1.787412  ]]",1,1.51
1,m,25,english,5,2,english,2024-02-09 13:54:52.617377,False,1,111,sounds\english\audio/english_809.wav,"[[  0.          -9.08149959]
 [  0.1         12.16544582]
 [  0.2         40.52205867]
 [  0.3        -94.19679153]
 [  0.32341667  -5.82752377]]","[[0.         0.73203403]
 [0.1        0.53159531]
 [0.2        1.48114639]
 [0.3        1.77078339]
 [0.32341667 1.36117577]]",0,0.434
1,m,25,english,5,2,english,2024-02-09 13:54:52.617377,False,1,112,sounds\english\audio/english_881.wav,"[[  0.           7.28069095]
 [  0.1        -64.28928902]
 [  0.2         -2.07432692]
 [  0.3         51.5536886 ]
 [  0.32341667  65.74991707]]","[[0.         1.60234882]
 [0.1        0.93497238]
 [0.2        0.58107235]
 [0.3        1.34691236]
 [0.32341667 0.85842561]]",1,0.355
1,m,25,english,5,2,english,2024-02-09 13:54:52.617377,False,1,113,sounds\english\audio/english_252.wav,"[[  0.          79.75601627]
 [  0.1         17.00183399]
 [  0.2        -25.42800597]
 [  0.3        -47.65138194]
 [  0.32341667  35.10652067]]","[[0.         0.77799761]
 [0.1        1.07711339]
 [0.2        0.7917181 ]
 [0.3        1.47632881]
 [0.32341667 1.65919103]]",1,0.442
1,m,25,english,5,2,english,2024-02-09 13:54:52.617377,False,1,114,sounds\english\audio/english_418.wav,"[[  0.          -7.92859899]
 [  0.1         10.19863107]
 [  0.2        -44.82770696]
 [  0.3        -80.4141896 ]
 [  0.32341667  32.43674468]]","[[0.         0.20369216]
 [0.1        0.15242613]
 [0.2        0.77695319]
 [0.3        0.71786342]
 [0.32341667 1.20494416]]",0,0.317
1,m,25,english,5,2,english,2024-02-09 13:54:52.617377,False,1,115,sounds\english\audio/english_561.wav,"[[  0.          62.21065415]
 [  0.1         -9.84770717]
 [  0.2        -12.92274306]
 [  0.3         16.08334811]
 [  0.32341667 -22.38830035]]","[[0.         1.32725493]
 [0.1        1.15871491]
 [0.2        0.82816789]
 [0.3        1.72308293]
 [0.32341667 0.72943893]]",1,0.242
1,m,25,english,5,2,english,2024-02-09 13:54:52.617377,False,1,116,sounds\english\audio/english_763.wav,"[[ 0.         64.63144232]
 [ 0.1         8.86346429]
 [ 0.2        32.79569159]
 [ 0.3        10.55051177]
 [ 0.32341667  6.38738619]]","[[0.         0.7800836 ]
 [0.1        1.26656169]
 [0.2        1.93170043]
 [0.3        0.29422641]
 [0.32341667 1.43860225]]",1,0.295
1,m,25,english,5,2,english,2024-02-09 13:54:52.617377,False,1,117,sounds\english\audio/english_140.wav,"[[  0.         -63.97366245]
 [  0.1        -84.90656008]
 [  0.2         93.42782744]
 [  0.3         11.57634117]
 [  0.32341667  80.35905055]]","[[0.         1.49783115]
 [0.1        1.37250299]
 [0.2        0.10650492]
 [0.3        0.84315206]
 [0.32341667 1.26233419]]",1,1.526
1,m,25,english,5,2,english,2024-02-09 13:54:52.617377,False,1,118,sounds\english\audio/english_158.wav,"[[  0.          33.09785739]
 [  0.1        -85.08083727]
 [  0.2         97.70701203]
 [  0.3          2.54261044]
 [  0.32341667 -59.73934841]]","[[0.         1.71128449]
 [0.1        1.56145129]
 [0.2        0.69707892]
 [0.3        1.19647348]
 [0.32341667 1.17782448]]",1,0.263
1,m,25,english,5,2,english,2024-02-09 13:54:52.617377,False,1,119,sounds\english\audio/english_391.wav,"[[  0.          67.64906061]
 [  0.1         79.28195584]
 [  0.2         62.27299227]
 [  0.3        -11.10764883]
 [  0.32341667  57.41338752]]","[[0.         0.41951577]
 [0.1        0.03526883]
 [0.2        0.81828659]
 [0.3        1.2900604 ]
 [0.32341667 1.95373865]]",0,0.375
1,m,25,english,5,2,english,2024-02-09 13:54:52.617377,False,1,120,sounds\english\audio/english_325.wav,"[[  0.         -36.86035688]
 [  0.1        -55.38569655]
 [  0.2        -56.86017215]
 [  0.3        -98.19449268]
 [  0.32341667  -6.42447902]]","[[0.         0.2784687 ]
 [0.1        1.41229923]
 [0.2        0.83316938]
 [0.3        0.3465596 ]
 [0.32341667 1.41863786]]",0,0.387
1,m,25,english,5,2,english,2024-02-09 13:54:52.617377,False,1,121,sounds\english\audio/english_892.wav,"[[ 0.         38.63128374]
 [ 0.1        22.49899687]
 [ 0.2        28.84135264]
 [ 0.3        81.19740532]
 [ 0.32341667 22.37782167]]","[[0.         0.97893944]
 [0.1        0.66551001]
 [0.2        0.36795179]
 [0.3        1.0840826 ]
 [0.32341667 0.83637256]]",0,0.325
1,m,25,english,5,2,english,2024-02-09 13:54:52.617377,False,1,122,sounds\english\audio/english_296.wav,"[[  0.          -4.92142852]
 [  0.1         -5.74196289]
 [  0.2         76.26647078]
 [  0.3        -62.74030654]
 [  0.32341667 -60.661992  ]]","[[0.         1.99305172]
 [0.1        0.92633133]
 [0.2        0.44879969]
 [0.3        1.47417428]
 [0.32341667 1.05571007]]",1,0.242
1,m,25,english,5,2,english,2024-02-09 13:54:52.617377,False,1,123,sounds\english\audio/english_211.wav,"[[  0.          37.34807541]
 [  0.1         97.98979508]
 [  0.2        -20.02981109]
 [  0.3        -69.8116311 ]
 [  0.32341667  35.11126142]]","[[0.         1.77380832]
 [0.1        1.35747523]
 [0.2        1.74013371]
 [0.3        0.94808553]
 [0.32341667 0.23094119]]",1,0.15
1,m,25,english,5,2,english,2024-02-09 13:54:52.617377,False,1,124,sounds\english\audio/english_660.wav,"[[  0.         -18.17224728]
 [  0.1        -51.94390165]
 [  0.2        -79.57293034]
 [  0.3         67.99606973]
 [  0.32341667  -2.00416122]]","[[0.         0.25133372]
 [0.1        0.1756709 ]
 [0.2        0.660284  ]
 [0.3        1.08301436]
 [0.32341667 0.81155284]]",0,0.233
1,m,25,english,5,2,english,2024-02-09 13:54:52.617377,False,1,125,sounds\english\audio/english_46.wav,"[[  0.         -29.32250151]
 [  0.1         -3.06808063]
 [  0.2         90.97923358]
 [  0.3         10.7462216 ]
 [  0.32341667 -76.74347892]]","[[0.         0.64118776]
 [0.1        0.73649566]
 [0.2        1.88790792]
 [0.3        0.26788582]
 [0.32341667 0.543593  ]]",1,0.224
1,m,25,english,5,2,english,2024-02-09 13:54:52.617377,False,1,126,sounds\english\audio/english_343.wav,"[[  0.         -26.15456552]
 [  0.1         -4.26522308]
 [  0.2         55.3227334 ]
 [  0.3        -26.26518208]
 [  0.32341667 -18.3065251 ]]","[[0.         0.99905336]
 [0.1        0.59066439]
 [0.2        1.69088488]
 [0.3        1.70645599]
 [0.32341667 0.13143106]]",0,0.068
1,m,25,english,5,2,english,2024-02-09 13:54:52.617377,False,1,127,sounds\english\audio/english_537.wav,"[[  0.          70.8709352 ]
 [  0.1         32.34369018]
 [  0.2        -92.9302278 ]
 [  0.3         14.89115364]
 [  0.32341667 -67.12260703]]","[[0.         0.55947112]
 [0.1        1.10627241]
 [0.2        1.10842043]
 [0.3        0.86800797]
 [0.32341667 1.7659473 ]]",0,0.509
1,m,25,english,5,2,english,2024-02-09 13:54:52.617377,False,1,128,sounds\english\audio/english_43.wav,"[[  0.          22.40064366]
 [  0.1        -68.20152198]
 [  0.2         62.56231291]
 [  0.3         45.0736378 ]
 [  0.32341667 -36.46791656]]","[[0.         1.74132857]
 [0.1        0.12763156]
 [0.2        0.31420738]
 [0.3        0.98572154]
 [0.32341667 0.91325677]]",0,0.382
1,m,25,english,5,2,english,2024-02-09 13:54:52.617377,False,1,129,sounds\english\audio/english_14.wav,"[[  0.          98.00979643]
 [  0.1        -39.90204919]
 [  0.2         51.0517473 ]
 [  0.3         -8.39716694]
 [  0.32341667  82.54419716]]","[[0.         0.92494293]
 [0.1        0.80403915]
 [0.2        0.29426005]
 [0.3        0.14957292]
 [0.32341667 0.1717279 ]]",0,1.159
1,m,25,english,5,2,english,2024-02-09 13:54:52.617377,False,1,130,sounds\english\audio/english_689.wav,"[[  0.          42.02822248]
 [  0.1        -61.92185233]
 [  0.2         -8.45156809]
 [  0.3         15.09500637]
 [  0.32341667   8.33163023]]","[[0.         1.89069384]
 [0.1        0.33123617]
 [0.2        0.5478675 ]
 [0.3        0.80334133]
 [0.32341667 1.42024866]]",0,0.746
1,m,25,english,5,2,english,2024-02-09 13:54:52.617377,False,1,131,sounds\english\audio/english_239.wav,"[[  0.          87.44943986]
 [  0.1         50.09814929]
 [  0.2        -20.91132269]
 [  0.3          1.56869958]
 [  0.32341667  15.23790706]]","[[0.         1.42022081]
 [0.1        0.64261102]
 [0.2        0.17156284]
 [0.3        1.89365974]
 [0.32341667 1.86939691]]",0,0.845
1,m,25,english,5,2,english,2024-02-09 13:54:52.617377,False,1,132,sounds\english\audio/english_961.wav,"[[  0.          20.81275789]
 [  0.1         46.48072234]
 [  0.2         79.36291712]
 [  0.3          7.86976501]
 [  0.32341667 -45.45751668]]","[[0.         1.87720953]
 [0.1        1.43497285]
 [0.2        1.9095844 ]
 [0.3        0.20821065]
 [0.32341667 0.0640973 ]]",1,0.067
1,m,25,english,5,2,english,2024-02-09 13:54:52.617377,False,1,133,sounds\english\audio/english_213.wav,"[[  0.         -29.91874444]
 [  0.1         41.64704809]
 [  0.2        -87.11075848]
 [  0.3        -61.54877495]
 [  0.32341667 -34.29429643]]","[[0.         1.42031243]
 [0.1        0.59218852]
 [0.2        1.10576613]
 [0.3        0.09529021]
 [0.32341667 1.15583312]]",0,1.652
1,m,25,english,5,2,english,2024-02-09 13:54:52.617377,False,1,134,sounds\english\audio/english_772.wav,"[[  0.         -76.23750274]
 [  0.1         54.42820472]
 [  0.2         26.41325181]
 [  0.3         14.10037165]
 [  0.32341667 -75.83605273]]","[[0.         0.54712598]
 [0.1        1.66698734]
 [0.2        1.761061  ]
 [0.3        1.80899506]
 [0.32341667 1.29882268]]",1,0.078
1,m,25,english,5,2,english,2024-02-09 13:54:52.617377,False,1,135,sounds\english\audio/english_477.wav,"[[  0.           9.7496965 ]
 [  0.1         70.56003184]
 [  0.2         34.49551211]
 [  0.3        -75.0597055 ]
 [  0.32341667 -82.15638008]]","[[0.         0.26828956]
 [0.1        0.51901368]
 [0.2        0.35677294]
 [0.3        1.39462812]
 [0.32341667 0.55199483]]",0,0.272
1,m,25,english,5,2,english,2024-02-09 13:54:52.617377,False,1,136,sounds\english\audio/english_795.wav,"[[ 0.         39.36518311]
 [ 0.1        16.50141431]
 [ 0.2        54.87860026]
 [ 0.3        61.09971909]
 [ 0.32341667  4.28490532]]","[[0.         1.47453336]
 [0.1        0.29075574]
 [0.2        1.88174141]
 [0.3        0.27471403]
 [0.32341667 0.11399574]]",1,0.22
1,m,25,english,5,2,english,2024-02-09 13:54:52.617377,False,1,137,sounds\english\audio/english_199.wav,"[[  0.         -24.89956817]
 [  0.1        -48.49200931]
 [  0.2        -89.66548778]
 [  0.3         29.20785813]
 [  0.32341667 -88.68286362]]","[[0.         0.07306367]
 [0.1        0.10334581]
 [0.2        1.49062114]
 [0.3        0.36717513]
 [0.32341667 1.33179809]]",0,0.333
1,m,25,english,5,2,english,2024-02-09 13:54:52.617377,False,1,138,sounds\english\audio/english_988.wav,"[[  0.          23.53561789]
 [  0.1         39.09545525]
 [  0.2        -32.2225044 ]
 [  0.3          5.54449519]
 [  0.32341667 -94.58480047]]","[[0.         0.18772999]
 [0.1        0.71537172]
 [0.2        0.50944864]
 [0.3        0.59930705]
 [0.32341667 1.43881296]]",0,0.573
1,m,25,english,5,2,english,2024-02-09 13:54:52.617377,False,1,139,sounds\english\audio/english_333.wav,"[[  0.          61.26933292]
 [  0.1         38.65533839]
 [  0.2        -27.91605269]
 [  0.3         36.00101096]
 [  0.32341667 -78.35943708]]","[[0.         0.50090252]
 [0.1        1.61630161]
 [0.2        1.73322278]
 [0.3        0.67742762]
 [0.32341667 0.46993908]]",1,0.142
1,m,25,english,5,2,english,2024-02-09 13:54:52.617377,False,1,140,sounds\english\audio/english_36.wav,"[[  0.           8.79498818]
 [  0.1        -18.99628775]
 [  0.2        -17.40156662]
 [  0.3        -85.73958234]
 [  0.32341667  45.44069908]]","[[0.         0.0614271 ]
 [0.1        0.22652961]
 [0.2        0.46484299]
 [0.3        0.81464033]
 [0.32341667 0.21843777]]",0,0.372
1,m,25,english,5,2,english,2024-02-09 13:54:52.617377,False,1,141,sounds\english\audio/english_907.wav,"[[  0.          13.97638225]
 [  0.1         36.81481791]
 [  0.2          1.21651202]
 [  0.3         35.47405672]
 [  0.32341667 -27.93760057]]","[[0.         0.68575839]
 [0.1        1.58611259]
 [0.2        1.59547025]
 [0.3        0.75888392]
 [0.32341667 0.06937964]]",1,0.194
1,m,25,english,5,2,english,2024-02-09 13:54:52.617377,False,1,142,sounds\english\audio/english_917.wav,"[[  0.          -2.28432431]
 [  0.1        -50.4941454 ]
 [  0.2         86.41176613]
 [  0.3        -50.97734163]
 [  0.32341667  97.13453513]]","[[0.         0.51220006]
 [0.1        0.3783057 ]
 [0.2        0.52629226]
 [0.3        0.68389314]
 [0.32341667 1.73708117]]",0,0.396
1,m,25,english,5,2,english,2024-02-09 13:54:52.617377,False,1,143,sounds\english\audio/english_754.wav,"[[  0.         -19.76675532]
 [  0.1         34.48414938]
 [  0.2         62.52568934]
 [  0.3         25.41574935]
 [  0.32341667 -36.16911462]]","[[0.         0.85408869]
 [0.1        1.68072852]
 [0.2        1.92334892]
 [0.3        0.35114342]
 [0.32341667 0.9845535 ]]",1,0.176
1,m,25,english,5,2,english,2024-02-09 13:54:52.617377,False,1,144,sounds\english\audio/english_410.wav,"[[  0.         -74.64506245]
 [  0.1         65.24401488]
 [  0.2        -65.86471953]
 [  0.3         98.79489106]
 [  0.32341667  14.95451541]]","[[0.         0.42358098]
 [0.1        0.42526697]
 [0.2        1.12385183]
 [0.3        0.33588109]
 [0.32341667 1.7246864 ]]",0,0.242
1,m,25,english,5,2,english,2024-02-09 13:54:52.617377,False,1,145,sounds\english\audio/english_457.wav,"[[  0.         -73.30847947]
 [  0.1        -25.74413936]
 [  0.2          8.82772976]
 [  0.3         -2.30416086]
 [  0.32341667 -34.04493945]]","[[0.         0.35525387]
 [0.1        0.90483023]
 [0.2        1.30004432]
 [0.3        0.93422762]
 [0.32341667 1.31504388]]",1,0.203
1,m,25,english,5,2,english,2024-02-09 13:54:52.617377,False,1,146,sounds\english\audio/english_617.wav,"[[  0.         -99.94195333]
 [  0.1        -27.54289523]
 [  0.2        -31.48016085]
 [  0.3        -72.28967102]
 [  0.32341667 -18.83127656]]","[[0.         1.17597353]
 [0.1        0.72595777]
 [0.2        0.94648609]
 [0.3        1.67485207]
 [0.32341667 0.94146903]]",0,0.878
1,m,25,english,5,2,english,2024-02-09 13:54:52.617377,False,1,147,sounds\english\audio/english_563.wav,"[[  0.          19.758909  ]
 [  0.1         33.70416131]
 [  0.2        -28.26228599]
 [  0.3         77.25360299]
 [  0.32341667 -40.65982077]]","[[0.         0.0609285 ]
 [0.1        1.63852294]
 [0.2        0.53834051]
 [0.3        0.54558093]
 [0.32341667 0.29994173]]",0,0.369
1,m,25,english,5,2,english,2024-02-09 13:54:52.617377,False,1,148,sounds\english\audio/english_222.wav,"[[  0.          -5.8882644 ]
 [  0.1        -15.4334302 ]
 [  0.2        -39.50203868]
 [  0.3         67.79027175]
 [  0.32341667 -43.17344259]]","[[0.         0.97478352]
 [0.1        1.79573252]
 [0.2        1.71948726]
 [0.3        0.41699719]
 [0.32341667 0.26315099]]",1,0.144
1,m,25,english,5,2,english,2024-02-09 13:54:52.617377,False,1,149,sounds\english\audio/english_604.wav,"[[  0.          11.37360706]
 [  0.1        -50.20832577]
 [  0.2        -34.39542541]
 [  0.3         -9.87560088]
 [  0.32341667  34.71454295]]","[[0.         1.9162078 ]
 [0.1        0.59247461]
 [0.2        1.79911242]
 [0.3        0.998763  ]
 [0.32341667 0.76768671]]",1,0.213
1,m,25,english,5,2,english,2024-02-09 13:54:52.617377,False,1,150,sounds\english\audio/english_940.wav,"[[  0.          47.11462569]
 [  0.1         11.81885745]
 [  0.2         -1.49931669]
 [  0.3         45.92466934]
 [  0.32341667 -72.78738407]]","[[0.         0.32214594]
 [0.1        0.21999868]
 [0.2        0.34357292]
 [0.3        1.61274527]
 [0.32341667 0.9185628 ]]",0,0.28
1,m,25,english,5,2,english,2024-02-09 13:54:52.617377,False,1,151,sounds\english\audio/english_276.wav,"[[  0.         -87.25523595]
 [  0.1         16.91650801]
 [  0.2        -40.09372932]
 [  0.3          3.19229046]
 [  0.32341667  18.84785296]]","[[0.         1.1918401 ]
 [0.1        0.89399115]
 [0.2        0.89701806]
 [0.3        1.98333504]
 [0.32341667 1.85350493]]",1,0.183
1,m,25,english,5,2,english,2024-02-09 13:54:52.617377,False,1,152,sounds\english\audio/english_912.wav,"[[  0.         -43.64864707]
 [  0.1         94.54433808]
 [  0.2         67.98324072]
 [  0.3          9.27329172]
 [  0.32341667 -55.44973818]]","[[0.         0.87210048]
 [0.1        1.43243955]
 [0.2        1.49899487]
 [0.3        0.42663795]
 [0.32341667 0.19299009]]",1,0.294
1,m,25,english,5,2,english,2024-02-09 13:54:52.617377,False,1,153,sounds\english\audio/english_271.wav,"[[  0.          24.41564841]
 [  0.1        -64.42577909]
 [  0.2         32.27025317]
 [  0.3         58.71212772]
 [  0.32341667  46.7300547 ]]","[[0.         0.25667552]
 [0.1        1.20221217]
 [0.2        0.24658485]
 [0.3        1.57844265]
 [0.32341667 1.00400066]]",0,0.182
1,m,25,english,5,2,english,2024-02-09 13:54:52.617377,False,1,154,sounds\english\audio/english_732.wav,"[[  0.         -12.49530298]
 [  0.1         77.35683448]
 [  0.2         46.14200593]
 [  0.3        -17.19403126]
 [  0.32341667 -81.60069167]]","[[0.         1.28394154]
 [0.1        1.95772399]
 [0.2        1.14408971]
 [0.3        0.21034957]
 [0.32341667 0.50538316]]",1,0.186
1,m,25,english,5,2,english,2024-02-09 13:54:52.617377,False,1,155,sounds\english\audio/english_516.wav,"[[  0.         -37.49134217]
 [  0.1         56.61653956]
 [  0.2         60.98574822]
 [  0.3         -0.52682824]
 [  0.32341667 -50.41932267]]","[[0.         0.47483782]
 [0.1        1.0523806 ]
 [0.2        0.59798137]
 [0.3        0.6957238 ]
 [0.32341667 1.76373844]]",0,0.191
1,m,25,english,5,2,english,2024-02-09 13:54:52.617377,False,1,156,sounds\english\audio/english_978.wav,"[[  0.         -73.1961296 ]
 [  0.1        -56.98452675]
 [  0.2          1.81288897]
 [  0.3        -17.93803526]
 [  0.32341667 -33.17886565]]","[[0.         0.69168228]
 [0.1        1.28516196]
 [0.2        1.00851945]
 [0.3        0.05981722]
 [0.32341667 1.89275203]]",1,0.215
1,m,25,english,5,2,english,2024-02-09 13:54:52.617377,False,1,157,sounds\english\audio/english_779.wav,"[[  0.         -66.48303018]
 [  0.1         55.33592885]
 [  0.2         67.38671669]
 [  0.3         65.49052189]
 [  0.32341667 -12.12955258]]","[[0.         1.22216448]
 [0.1        1.30288261]
 [0.2        0.25409759]
 [0.3        1.76174581]
 [0.32341667 0.12280057]]",0,0.925
1,m,25,english,5,2,english,2024-02-09 13:54:52.617377,False,1,158,sounds\english\audio/english_701.wav,"[[ 0.         87.15265727]
 [ 0.1        38.39882515]
 [ 0.2        64.60201562]
 [ 0.3        12.58613119]
 [ 0.32341667 46.94968762]]","[[0.         1.41120649]
 [0.1        0.44004622]
 [0.2        1.15462264]
 [0.3        1.17454355]
 [0.32341667 1.38716818]]",1,0.249
1,m,25,english,5,2,english,2024-02-09 13:54:52.617377,False,1,159,sounds\english\audio/english_194.wav,"[[  0.          46.99725025]
 [  0.1        -37.20381284]
 [  0.2         13.86947558]
 [  0.3         79.77232086]
 [  0.32341667  49.46244041]]","[[0.         0.38230397]
 [0.1        1.33246395]
 [0.2        1.31276464]
 [0.3        0.22397005]
 [0.32341667 1.74931967]]",1,1.379
1,m,25,english,5,2,english,2024-02-09 13:54:52.617377,False,1,160,sounds\english\audio/english_42.wav,"[[  0.         -15.36487641]
 [  0.1         11.43696078]
 [  0.2         34.58464447]
 [  0.3         68.67640378]
 [  0.32341667 -67.59461511]]","[[0.         1.81244548]
 [0.1        1.472484  ]
 [0.2        0.21504119]
 [0.3        0.80253652]
 [0.32341667 1.53231421]]",1,0.504
1,m,25,english,5,2,english,2024-02-09 13:54:52.617377,False,1,161,sounds\english\audio/english_379.wav,"[[  0.          30.14616912]
 [  0.1        -79.51193423]
 [  0.2          7.34860539]
 [  0.3        -43.99342265]
 [  0.32341667  37.72881761]]","[[0.         1.43961489]
 [0.1        1.4219763 ]
 [0.2        0.62633101]
 [0.3        1.13621958]
 [0.32341667 1.35387794]]",1,0.842
1,m,25,english,5,2,english,2024-02-09 13:54:52.617377,False,1,162,sounds\english\audio/english_469.wav,"[[  0.         -12.92877168]
 [  0.1        -67.35237443]
 [  0.2        -70.76493751]
 [  0.3         86.785725  ]
 [  0.32341667 -36.33255728]]","[[0.         0.59007764]
 [0.1        1.36577084]
 [0.2        1.86337992]
 [0.3        1.85233296]
 [0.32341667 1.108986  ]]",1,0.648
1,m,25,english,5,2,english,2024-02-09 13:54:52.617377,False,1,163,sounds\english\audio/english_809.wav,"[[  0.          -9.08149959]
 [  0.1         12.16544582]
 [  0.2         40.52205867]
 [  0.3        -94.19679153]
 [  0.32341667  -5.82752377]]","[[0.         0.73203403]
 [0.1        0.53159531]
 [0.2        1.48114639]
 [0.3        1.77078339]
 [0.32341667 1.36117577]]",0,0.134
1,m,25,english,5,2,english,2024-02-09 13:54:52.617377,False,1,164,sounds\english\audio/english_345.wav,"[[  0.         -46.00579497]
 [  0.1        -45.5805492 ]
 [  0.2        -14.04378539]
 [  0.3         63.72413351]
 [  0.32341667  18.03717792]]","[[0.         1.58751342]
 [0.1        1.0202646 ]
 [0.2        0.61561299]
 [0.3        1.21547564]
 [0.32341667 1.47127253]]",1,0.166
1,m,25,english,5,2,english,2024-02-09 13:54:52.617377,False,1,165,sounds\english\audio/english_653.wav,"[[  0.           8.14815906]
 [  0.1          4.49815435]
 [  0.2        -96.80954485]
 [  0.3         -0.49075979]
 [  0.32341667  98.12577208]]","[[0.         1.27061672]
 [0.1        1.37470465]
 [0.2        1.57421691]
 [0.3        1.39011427]
 [0.32341667 0.75484601]]",1,0.17
1,m,25,english,5,2,english,2024-02-09 13:54:52.617377,False,1,166,sounds\english\audio/english_798.wav,"[[  0.         -16.40769998]
 [  0.1          3.00381127]
 [  0.2        -31.24410556]
 [  0.3        -53.27973877]
 [  0.32341667  91.43563813]]","[[0.         1.85457914]
 [0.1        1.50219522]
 [0.2        0.78751403]
 [0.3        1.17339142]
 [0.32341667 1.30184409]]",1,0.736
1,m,25,english,5,2,english,2024-02-09 13:54:52.617377,False,1,167,sounds\english\audio/english_444.wav,"[[  0.          57.2872587 ]
 [  0.1         68.85097071]
 [  0.2        -30.10164543]
 [  0.3        -57.0249627 ]
 [  0.32341667 -54.19692118]]","[[0.         0.52242118]
 [0.1        1.61316948]
 [0.2        0.15196309]
 [0.3        0.44426911]
 [0.32341667 1.48693747]]",0,0.383
1,m,25,english,5,2,english,2024-02-09 13:54:52.617377,False,1,168,sounds\english\audio/english_239.wav,"[[  0.          87.44943986]
 [  0.1         50.09814929]
 [  0.2        -20.91132269]
 [  0.3          1.56869958]
 [  0.32341667  15.23790706]]","[[0.         1.42022081]
 [0.1        0.64261102]
 [0.2        0.17156284]
 [0.3        1.89365974]
 [0.32341667 1.86939691]]",0,0.284
1,m,25,english,5,2,english,2024-02-09 13:54:52.617377,False,1,169,sounds\english\audio/english_688.wav,"[[  0.         -45.64286614]
 [  0.1         39.73956276]
 [  0.2         40.53719602]
 [  0.3        -71.29470492]
 [  0.32341667  73.7490074 ]]","[[0.         1.06356906]
 [0.1        0.85197809]
 [0.2        0.68718846]
 [0.3        1.67995478]
 [0.32341667 1.45979079]]",0,0.108
1,m,25,english,5,2,english,2024-02-09 13:54:52.617377,False,1,170,sounds\english\audio/english_503.wav,"[[  0.         -62.81458057]
 [  0.1         17.97702429]
 [  0.2         -8.2980926 ]
 [  0.3        -62.4217389 ]
 [  0.32341667  18.11027086]]","[[0.         1.15988152]
 [0.1        0.58853345]
 [0.2        1.29983279]
 [0.3        1.42406205]
 [0.32341667 0.84018378]]",1,0.097
1,m,25,english,5,2,english,2024-02-09 13:54:52.617377,False,1,171,sounds\english\audio/english_12.wav,"[[  0.          48.33680056]
 [  0.1         27.41870997]
 [  0.2        -39.95667364]
 [  0.3         73.52964836]
 [  0.32341667 -36.35494906]]","[[0.         1.48429429]
 [0.1        0.15715938]
 [0.2        0.62940339]
 [0.3        0.05281398]
 [0.32341667 1.6412938 ]]",0,0.379
1,m,25,english,5,2,english,2024-02-09 13:54:52.617377,False,1,172,sounds\english\audio/english_842.wav,"[[  0.         -48.5952207 ]
 [  0.1         29.19485822]
 [  0.2         84.54328152]
 [  0.3         69.99994667]
 [  0.32341667  56.72069463]]","[[0.         0.12382156]
 [0.1        1.75564688]
 [0.2        0.24815543]
 [0.3        1.2885643 ]
 [0.32341667 0.70518165]]",1,0.152
1,m,25,english,5,2,english,2024-02-09 13:54:52.617377,False,1,173,sounds\english\audio/english_13.wav,"[[  0.          85.79405153]
 [  0.1        -22.00296346]
 [  0.2         45.89988476]
 [  0.3        -17.47250281]
 [  0.32341667 -30.34546067]]","[[0.         0.93145275]
 [0.1        0.69811424]
 [0.2        1.08090206]
 [0.3        0.35305012]
 [0.32341667 0.65915907]]",0,0.978
1,m,25,english,5,2,english,2024-02-09 13:54:52.617377,False,1,174,sounds\english\audio/english_142.wav,"[[  0.         -46.59943425]
 [  0.1         63.17145436]
 [  0.2         73.87775976]
 [  0.3        -84.55157756]
 [  0.32341667  20.35536038]]","[[0.         0.40064358]
 [0.1        0.61162855]
 [0.2        0.23189939]
 [0.3        1.54635995]
 [0.32341667 1.86221744]]",0,0.326
1,m,25,english,5,2,english,2024-02-09 13:54:52.617377,False,1,175,sounds\english\audio/english_73.wav,"[[  0.         -73.49165063]
 [  0.1         65.54847429]
 [  0.2        -55.11967081]
 [  0.3         68.77466141]
 [  0.32341667 -37.79888894]]","[[0.         1.41947215]
 [0.1        1.68852165]
 [0.2        0.59259525]
 [0.3        0.85140805]
 [0.32341667 1.17745107]]",1,0.491
1,m,25,english,5,2,english,2024-02-09 13:54:52.617377,False,1,176,sounds\english\audio/english_229.wav,"[[  0.          51.56916705]
 [  0.1        -51.28327497]
 [  0.2         97.78221202]
 [  0.3        -75.98126047]
 [  0.32341667 -44.05308002]]","[[0.         1.25898044]
 [0.1        0.34588319]
 [0.2        1.91985924]
 [0.3        0.82059623]
 [0.32341667 1.38191391]]",0,0.586
1,m,25,english,5,2,english,2024-02-09 13:54:52.617377,False,1,177,sounds\english\audio/english_993.wav,"[[  0.         -66.15449332]
 [  0.1         33.08083728]
 [  0.2         51.46479562]
 [  0.3        -80.58676237]
 [  0.32341667  81.97884737]]","[[0.         1.17508471]
 [0.1        0.94744004]
 [0.2        0.74931244]
 [0.3        0.35628979]
 [0.32341667 1.25416847]]",1,0.681
1,m,25,english,5,2,english,2024-02-09 13:54:52.617377,False,1,178,sounds\english\audio/english_371.wav,"[[  0.          44.65928585]
 [  0.1          2.85031152]
 [  0.2        -57.71166213]
 [  0.3        -66.93032782]
 [  0.32341667  13.43806553]]","[[0.         0.25571852]
 [0.1        1.3562861 ]
 [0.2        1.30905236]
 [0.3        1.33160076]
 [0.32341667 0.62192137]]",1,0.278
1,m,25,english,5,2,english,2024-02-09 13:54:52.617377,False,1,179,sounds\english\audio/english_362.wav,"[[  0.          12.71485551]
 [  0.1        -18.83660308]
 [  0.2        -52.07271323]
 [  0.3        -29.96931661]
 [  0.32341667  -9.99178163]]","[[0.         1.44490364]
 [0.1        1.3029027 ]
 [0.2        1.10609828]
 [0.3        1.18379787]
 [0.32341667 1.80996789]]",1,0.36
1,m,25,english,5,2,english,2024-02-09 13:54:52.617377,False,1,180,sounds\english\audio/english_562.wav,"[[  0.         -40.22672309]
 [  0.1         77.961849  ]
 [  0.2         25.52463525]
 [  0.3         84.62788358]
 [  0.32341667 -53.67427145]]","[[0.         0.64031882]
 [0.1        0.7637006 ]
 [0.2        0.87632482]
 [0.3        0.98972612]
 [0.32341667 0.74010285]]",0,0.328
1,m,25,english,5,2,english,2024-02-09 13:54:52.617377,False,1,181,sounds\english\audio/english_36.wav,"[[  0.           8.79498818]
 [  0.1        -18.99628775]
 [  0.2        -17.40156662]
 [  0.3        -85.73958234]
 [  0.32341667  45.44069908]]","[[0.         0.0614271 ]
 [0.1        0.22652961]
 [0.2        0.46484299]
 [0.3        0.81464033]
 [0.32341667 0.21843777]]",0,0.431
1,m,25,english,5,2,english,2024-02-09 13:54:52.617377,False,1,182,sounds\english\audio/english_887.wav,"[[  0.          21.36154006]
 [  0.1        -21.46213737]
 [  0.2        -45.53850124]
 [  0.3        -75.36110743]
 [  0.32341667 -96.67184991]]","[[0.         0.58574694]
 [0.1        0.48413962]
 [0.2        1.16923549]
 [0.3        1.46190157]
 [0.32341667 0.00789239]]",1,0.219
1,m,25,english,5,2,english,2024-02-09 13:54:52.617377,False,1,183,sounds\english\audio/english_276.wav,"[[  0.         -87.25523595]
 [  0.1         16.91650801]
 [  0.2        -40.09372932]
 [  0.3          3.19229046]
 [  0.32341667  18.84785296]]","[[0.         1.1918401 ]
 [0.1        0.89399115]
 [0.2        0.89701806]
 [0.3        1.98333504]
 [0.32341667 1.85350493]]",0,0.501
1,m,25,english,5,2,english,2024-02-09 13:54:52.617377,False,1,184,sounds\english\audio/english_741.wav,"[[  0.         -74.62614727]
 [  0.1         33.834367  ]
 [  0.2        -60.21329901]
 [  0.3        -95.39639135]
 [  0.32341667   3.10560698]]","[[0.         1.92216761]
 [0.1        1.50741835]
 [0.2        0.74273648]
 [0.3        0.98175705]
 [0.32341667 0.9878567 ]]",1,0.133
1,m,25,english,5,2,english,2024-02-09 13:54:52.617377,False,1,185,sounds\english\audio/english_761.wav,"[[  0.          -7.84319468]
 [  0.1         77.10262164]
 [  0.2         23.07677451]
 [  0.3        -22.28856666]
 [  0.32341667  18.71779046]]","[[0.         0.39728316]
 [0.1        0.76675063]
 [0.2        1.40075404]
 [0.3        0.53792203]
 [0.32341667 1.06229189]]",0,0.221
1,m,25,english,5,2,english,2024-02-09 13:54:52.617377,False,1,186,sounds\english\audio/english_239.wav,"[[  0.          87.44943986]
 [  0.1         50.09814929]
 [  0.2        -20.91132269]
 [  0.3          1.56869958]
 [  0.32341667  15.23790706]]","[[0.         1.42022081]
 [0.1        0.64261102]
 [0.2        0.17156284]
 [0.3        1.89365974]
 [0.32341667 1.86939691]]",1,0.18
1,m,25,english,5,2,english,2024-02-09 13:54:52.617377,False,1,187,sounds\english\audio/english_846.wav,"[[  0.          61.87306923]
 [  0.1         -5.64177324]
 [  0.2         86.75305487]
 [  0.3        -27.71752308]
 [  0.32341667 -26.78048177]]","[[0.         1.6800264 ]
 [0.1        0.32387551]
 [0.2        0.09122421]
 [0.3        0.55014386]
 [0.32341667 0.82256102]]",0,0.383
1,m,25,english,5,2,english,2024-02-09 13:54:52.617377,False,1,188,sounds\english\audio/english_46.wav,"[[  0.         -29.32250151]
 [  0.1         -3.06808063]
 [  0.2         90.97923358]
 [  0.3         10.7462216 ]
 [  0.32341667 -76.74347892]]","[[0.         0.64118776]
 [0.1        0.73649566]
 [0.2        1.88790792]
 [0.3        0.26788582]
 [0.32341667 0.543593  ]]",1,0.848
1,m,25,english,5,2,english,2024-02-09 13:54:52.617377,False,1,189,sounds\english\audio/english_759.wav,"[[  0.          22.56482953]
 [  0.1        -26.57515882]
 [  0.2         58.52096087]
 [  0.3         67.88336338]
 [  0.32341667 -98.7178367 ]]","[[0.         0.32974928]
 [0.1        0.74944663]
 [0.2        0.73148935]
 [0.3        0.69769471]
 [0.32341667 1.46371733]]",0,0.429
1,m,25,english,5,2,english,2024-02-09 13:54:52.617377,False,1,190,sounds\english\audio/english_911.wav,"[[  0.          62.6913709 ]
 [  0.1        -28.7089255 ]
 [  0.2        -71.03383871]
 [  0.3         93.02773855]
 [  0.32341667  93.73973981]]","[[0.         0.89860539]
 [0.1        0.06791792]
 [0.2        1.00076401]
 [0.3        1.24961505]
 [0.32341667 1.26639778]]",0,0.425
1,m,25,english,5,2,english,2024-02-09 13:54:52.617377,False,1,191,sounds\english\audio/english_666.wav,"[[  0.          -6.63307831]
 [  0.1        -47.66524373]
 [  0.2         66.93817534]
 [  0.3         -1.338646  ]
 [  0.32341667 -14.31927765]]","[[0.         0.44221414]
 [0.1        1.62559692]
 [0.2        0.27313334]
 [0.3        0.46846925]
 [0.32341667 1.08883823]]",1,0.341
1,m,25,english,5,2,english,2024-02-09 13:54:52.617377,False,1,192,sounds\english\audio/english_916.wav,"[[  0.         -50.62314768]
 [  0.1        -52.55300278]
 [  0.2         54.298582  ]
 [  0.3        -23.99088857]
 [  0.32341667   4.88948607]]","[[0.         0.5519299 ]
 [0.1        1.16723516]
 [0.2        1.72376738]
 [0.3        0.41493786]
 [0.32341667 1.97918138]]",1,0.487
1,m,25,english,5,2,english,2024-02-09 13:54:52.617377,False,1,193,sounds\english\audio/english_177.wav,"[[  0.          87.98258728]
 [  0.1         87.12011565]
 [  0.2        -29.82518494]
 [  0.3         54.38835911]
 [  0.32341667  53.98423531]]","[[0.         1.54790065]
 [0.1        0.90861448]
 [0.2        0.58649069]
 [0.3        0.51296238]
 [0.32341667 1.78492888]]",1,0.533
1,m,25,english,5,2,english,2024-02-09 13:54:52.617377,False,1,194,sounds\english\audio/english_9.wav,"[[  0.          24.77706225]
 [  0.1         91.05524194]
 [  0.2         30.20964975]
 [  0.3        -69.66301283]
 [  0.32341667  -3.83240646]]","[[0.         1.13145128]
 [0.1        1.19326311]
 [0.2        1.50029029]
 [0.3        1.4622179 ]
 [0.32341667 1.9316504 ]]",1,0.298
1,m,25,english,5,2,english,2024-02-09 13:54:52.617377,False,1,195,sounds\english\audio/english_717.wav,"[[  0.          11.70361719]
 [  0.1        -43.41962   ]
 [  0.2        -38.6653904 ]
 [  0.3        -38.11833374]
 [  0.32341667  93.29743671]]","[[0.         1.43236824]
 [0.1        0.38419888]
 [0.2        1.88953633]
 [0.3        1.28007762]
 [0.32341667 0.67082429]]",0,0.093
1,m,25,english,5,2,english,2024-02-09 13:54:52.617377,False,1,196,sounds\english\audio/english_592.wav,"[[  0.         -77.34060672]
 [  0.1         27.41551815]
 [  0.2        -17.47445882]
 [  0.3        -61.08462212]
 [  0.32341667  74.7675789 ]]","[[0.         0.96869857]
 [0.1        1.75134411]
 [0.2        1.41680483]
 [0.3        1.07260777]
 [0.32341667 0.73150904]]",1,0.379
1,m,25,english,5,2,english,2024-02-09 13:54:52.617377,False,1,197,sounds\english\audio/english_554.wav,"[[  0.           9.57607907]
 [  0.1         29.37398753]
 [  0.2        -58.71210794]
 [  0.3        -10.7927705 ]
 [  0.32341667  21.8128915 ]]","[[0.         1.93967122]
 [0.1        1.74360796]
 [0.2        0.37945994]
 [0.3        1.56347046]
 [0.32341667 1.38248676]]",1,0.329
1,m,25,english,5,2,english,2024-02-09 13:54:52.617377,False,1,198,sounds\english\audio/english_384.wav,"[[  0.         -38.96228733]
 [  0.1          2.386347  ]
 [  0.2         48.26486793]
 [  0.3        -48.11903655]
 [  0.32341667  19.29531145]]","[[0.         0.34616893]
 [0.1        0.04115024]
 [0.2        0.35900131]
 [0.3        1.58519606]
 [0.32341667 0.95531857]]",0,0.255
1,m,25,english,5,2,english,2024-02-09 13:54:52.617377,False,1,199,sounds\english\audio/english_313.wav,"[[  0.          63.86599335]
 [  0.1        -55.89800258]
 [  0.2         90.86254046]
 [  0.3          0.53087649]
 [  0.32341667 -69.87913817]]","[[0.         0.35841412]
 [0.1        0.35021793]
 [0.2        1.77750413]
 [0.3        1.87396687]
 [0.32341667 1.16176786]]",0,1.478
1,m,25,english,5,2,english,2024-02-09 13:54:52.617377,False,1,200,sounds\english\audio/english_633.wav,"[[  0.         -53.72283933]
 [  0.1         14.71438877]
 [  0.2         95.18630031]
 [  0.3         96.89096157]
 [  0.32341667   8.38596779]]","[[0.         1.23998369]
 [0.1        1.35266241]
 [0.2        0.66132985]
 [0.3        0.52728002]
 [0.32341667 1.4824282 ]]",1,0.369
1,m,25,english,5,2,english,2024-02-09 13:54:52.617377,False,1,201,sounds\english\audio/english_203.wav,"[[  0.         -22.28277813]
 [  0.1         13.21695477]
 [  0.2         63.23651974]
 [  0.3        -20.14830746]
 [  0.32341667 -78.55276631]]","[[0.         1.31475846]
 [0.1        1.08922412]
 [0.2        0.55450355]
 [0.3        1.72034007]
 [0.32341667 0.92481053]]",1,0.353
1,m,25,english,5,2,english,2024-02-09 13:54:52.617377,False,1,202,sounds\english\audio/english_843.wav,"[[  0.         -34.38568909]
 [  0.1         91.48235516]
 [  0.2         45.43581208]
 [  0.3         47.04005582]
 [  0.32341667  30.80916685]]","[[0.         1.38988397]
 [0.1        0.61638546]
 [0.2        1.5800421 ]
 [0.3        1.07327256]
 [0.32341667 0.46994626]]",0,0.566
1,m,25,english,5,2,english,2024-02-09 13:54:52.617377,False,1,203,sounds\english\audio/english_965.wav,"[[  0.         -19.49526798]
 [  0.1        -33.46093545]
 [  0.2         95.24809114]
 [  0.3         26.23968625]
 [  0.32341667  15.70217089]]","[[0.         1.71910172]
 [0.1        1.16323176]
 [0.2        0.56514201]
 [0.3        1.82539978]
 [0.32341667 1.7659451 ]]",1,0.228
1,m,25,english,5,2,english,2024-02-09 13:54:52.617377,False,1,204,sounds\english\audio/english_727.wav,"[[  0.          86.20347479]
 [  0.1         12.26210304]
 [  0.2          5.59218777]
 [  0.3        -46.39280156]
 [  0.32341667  21.79775503]]","[[0.         1.33530257]
 [0.1        1.85547333]
 [0.2        1.19683436]
 [0.3        1.89207751]
 [0.32341667 1.05019022]]",1,0.226
1,m,25,english,5,2,english,2024-02-09 13:54:52.617377,False,1,205,sounds\english\audio/english_596.wav,"[[  0.          90.29147433]
 [  0.1         12.52853873]
 [  0.2         50.53853174]
 [  0.3        -77.3590695 ]
 [  0.32341667  -1.65440801]]","[[0.         0.88361056]
 [0.1        0.63799557]
 [0.2        0.09787331]
 [0.3        1.15168959]
 [0.32341667 0.06773829]]",0,0.261
1,m,25,english,5,2,english,2024-02-09 13:54:52.617377,False,1,206,sounds\english\audio/english_462.wav,"[[  0.         -35.73318704]
 [  0.1         -5.65949109]
 [  0.2        -49.47542688]
 [  0.3        -98.18570674]
 [  0.32341667 -16.34927785]]","[[0.         1.53267708]
 [0.1        1.98369384]
 [0.2        1.31270994]
 [0.3        1.26289606]
 [0.32341667 1.36496903]]",1,0.09
1,m,25,english,5,2,english,2024-02-09 13:54:52.617377,False,1,207,sounds\english\audio/english_65.wav,"[[  0.         -46.88015867]
 [  0.1         54.34027197]
 [  0.2        -65.46386729]
 [  0.3        -66.7533487 ]
 [  0.32341667 -12.18147599]]","[[0.         0.62230507]
 [0.1        1.12355997]
 [0.2        1.0507031 ]
 [0.3        0.71238348]
 [0.32341667 0.41048607]]",0,0.205
1,m,25,english,5,2,english,2024-02-09 13:54:52.617377,False,1,208,sounds\english\audio/english_929.wav,"[[  0.          29.19700723]
 [  0.1         15.63825327]
 [  0.2          3.65085895]
 [  0.3        -91.18848108]
 [  0.32341667  53.29025089]]","[[0.         1.75028237]
 [0.1        0.16776534]
 [0.2        0.15899819]
 [0.3        0.41497916]
 [0.32341667 0.946821  ]]",0,0.477
1,m,25,english,5,2,english,2024-02-09 13:54:52.617377,False,1,209,sounds\english\audio/english_282.wav,"[[  0.           0.76940706]
 [  0.1         85.14494722]
 [  0.2        -92.43433596]
 [  0.3        -98.42888083]
 [  0.32341667 -32.58662549]]","[[0.         0.32837311]
 [0.1        0.39977994]
 [0.2        0.62065738]
 [0.3        0.06200237]
 [0.32341667 1.4193679 ]]",0,0.525
1,m,25,english,5,2,english,2024-02-09 13:54:52.617377,False,1,210,sounds\english\audio/english_539.wav,"[[  0.         -67.77604021]
 [  0.1         61.22104537]
 [  0.2         38.09257369]
 [  0.3        -20.76875757]
 [  0.32341667 -47.71444482]]","[[0.         0.83598486]
 [0.1        1.51877163]
 [0.2        1.73578169]
 [0.3        0.52680037]
 [0.32341667 1.99278149]]",1,0.216
1,m,25,english,5,2,english,2024-02-09 13:54:52.617377,False,1,211,sounds\english\audio/english_863.wav,"[[  0.          52.03013683]
 [  0.1         21.53783975]
 [  0.2        -42.8061331 ]
 [  0.3         -9.69253087]
 [  0.32341667  56.44290307]]","[[0.         1.83111202]
 [0.1        0.9779226 ]
 [0.2        1.19089157]
 [0.3        0.269847  ]
 [0.32341667 0.87913369]]",1,0.683
1,m,25,english,5,2,english,2024-02-09 13:54:52.617377,False,1,212,sounds\english\audio/english_368.wav,"[[  0.         -25.00542805]
 [  0.1        -48.20991773]
 [  0.2        -51.83604218]
 [  0.3         14.57062672]
 [  0.32341667 -26.77020505]]","[[0.         1.03431482]
 [0.1        0.92366821]
 [0.2        0.34019883]
 [0.3        1.21184807]
 [0.32341667 0.81530657]]",0,0.376
1,m,25,english,5,2,english,2024-02-09 13:54:52.617377,False,1,213,sounds\english\audio/english_784.wav,"[[  0.           8.33598236]
 [  0.1        -95.44591543]
 [  0.2        -36.57026964]
 [  0.3         21.49915707]
 [  0.32341667  14.63720491]]","[[0.         1.26617784]
 [0.1        0.3784594 ]
 [0.2        1.54775832]
 [0.3        0.94378056]
 [0.32341667 0.98781772]]",1,0.273
1,m,25,english,5,2,english,2024-02-09 13:54:52.617377,False,1,214,sounds\english\audio/english_853.wav,"[[ 0.         87.83319324]
 [ 0.1        64.16710312]
 [ 0.2        12.98667351]
 [ 0.3        25.03434444]
 [ 0.32341667 98.3458188 ]]","[[0.         0.81037323]
 [0.1        1.2495933 ]
 [0.2        0.22916278]
 [0.3        0.67764146]
 [0.32341667 0.13807639]]",0,0.444
1,m,25,english,5,2,english,2024-02-09 13:54:52.617377,False,1,215,sounds\english\audio/english_766.wav,"[[  0.         -86.57417509]
 [  0.1        -67.75686223]
 [  0.2         74.21258041]
 [  0.3         65.20164426]
 [  0.32341667 -26.41371036]]","[[0.         1.21737292]
 [0.1        1.61484435]
 [0.2        1.47872362]
 [0.3        1.81064247]
 [0.32341667 1.37776493]]",1,0.064
1,m,25,english,5,2,english,2024-02-09 13:54:52.617377,False,1,216,sounds\english\audio/english_130.wav,"[[  0.         -27.4951122 ]
 [  0.1        -38.07775804]
 [  0.2         -9.69340922]
 [  0.3        -88.09187015]
 [  0.32341667 -47.45461314]]","[[0.         0.83907871]
 [0.1        1.38560413]
 [0.2        0.50531735]
 [0.3        0.53414674]
 [0.32341667 1.10107345]]",0,0.338
1,m,25,english,5,2,english,2024-02-09 13:54:52.617377,False,1,217,sounds\english\audio/english_738.wav,"[[  0.         -37.88087101]
 [  0.1        -16.85966727]
 [  0.2        -79.76891938]
 [  0.3        -82.30918252]
 [  0.32341667  59.65991076]]","[[0.         1.83397703]
 [0.1        1.52099356]
 [0.2        1.69283951]
 [0.3        1.81957343]
 [0.32341667 0.75908376]]",1,0.168
1,m,25,english,5,2,english,2024-02-09 13:54:52.617377,False,1,218,sounds\english\audio/english_132.wav,"[[  0.         -72.51222148]
 [  0.1         -7.68798614]
 [  0.2        -26.80347179]
 [  0.3        -51.62992771]
 [  0.32341667  -1.85745595]]","[[0.         1.10010631]
 [0.1        1.14985521]
 [0.2        1.49426164]
 [0.3        1.25622472]
 [0.32341667 0.89976888]]",1,0.627
1,m,25,english,5,2,english,2024-02-09 13:54:52.617377,False,1,219,sounds\english\audio/english_753.wav,"[[  0.          38.61944715]
 [  0.1        -76.3398938 ]
 [  0.2        -80.92813522]
 [  0.3        -16.48508052]
 [  0.32341667  16.23487259]]","[[0.         0.75641923]
 [0.1        1.17320485]
 [0.2        0.63072958]
 [0.3        1.96252246]
 [0.32341667 1.97125296]]",0,0.35
1,m,25,english,5,2,english,2024-02-09 13:54:52.617377,False,1,220,sounds\english\audio/english_296.wav,"[[  0.          -4.92142852]
 [  0.1         -5.74196289]
 [  0.2         76.26647078]
 [  0.3        -62.74030654]
 [  0.32341667 -60.661992  ]]","[[0.         1.99305172]
 [0.1        0.92633133]
 [0.2        0.44879969]
 [0.3        1.47417428]
 [0.32341667 1.05571007]]",1,0.26
1,m,25,english,5,2,english,2024-02-09 13:54:52.617377,False,1,221,sounds\english\audio/english_11.wav,"[[  0.         -20.45826732]
 [  0.1        -31.26113472]
 [  0.2         84.03210455]
 [  0.3         30.35463164]
 [  0.32341667 -63.36217442]]","[[0.         1.19869378]
 [0.1        0.2059713 ]
 [0.2        0.62296143]
 [0.3        1.49781179]
 [0.32341667 0.18750748]]",0,0.753
1,m,25,english,5,2,english,2024-02-09 13:54:52.617377,False,1,222,sounds\english\audio/english_708.wav,"[[  0.         -27.19248895]
 [  0.1         84.25795725]
 [  0.2        -19.19551503]
 [  0.3         29.88012033]
 [  0.32341667  46.0858662 ]]","[[0.         0.74061838]
 [0.1        1.13599963]
 [0.2        1.10086254]
 [0.3        0.53054382]
 [0.32341667 1.51974387]]",1,0.785
1,m,25,english,5,2,english,2024-02-09 13:54:52.617377,False,1,223,sounds\english\audio/english_108.wav,"[[  0.         -20.69942707]
 [  0.1        -59.42152954]
 [  0.2         -8.09170222]
 [  0.3         21.99826779]
 [  0.32341667  56.38973361]]","[[0.         0.77052949]
 [0.1        1.01445352]
 [0.2        0.42363715]
 [0.3        1.45799831]
 [0.32341667 1.71498507]]",0,0.306
1,m,25,english,5,2,english,2024-02-09 13:54:52.617377,False,1,224,sounds\english\audio/english_361.wav,"[[  0.          47.37783877]
 [  0.1         41.96620543]
 [  0.2        -99.83447432]
 [  0.3        -83.75612903]
 [  0.32341667  99.31228573]]","[[0.         1.2281625 ]
 [0.1        0.32170701]
 [0.2        0.41267147]
 [0.3        0.32528287]
 [0.32341667 0.29737668]]",0,0.546
1,m,25,english,5,2,english,2024-02-09 13:54:52.617377,False,1,225,sounds\english\audio/english_131.wav,"[[  0.         -90.65248477]
 [  0.1          7.0988446 ]
 [  0.2        -30.94637352]
 [  0.3        -31.86179524]
 [  0.32341667   1.85809033]]","[[0.         1.67513221]
 [0.1        1.62916956]
 [0.2        1.4017665 ]
 [0.3        1.07276153]
 [0.32341667 1.80109071]]",1,0.088
1,m,25,english,5,2,english,2024-02-09 13:54:52.617377,False,1,226,sounds\english\audio/english_558.wav,"[[  0.         -73.38624366]
 [  0.1        -42.42633216]
 [  0.2         15.99713578]
 [  0.3        -33.12568725]
 [  0.32341667  44.00446366]]","[[0.         1.58797859]
 [0.1        1.10525313]
 [0.2        0.42598769]
 [0.3        0.25629603]
 [0.32341667 1.81995896]]",1,0.508
1,m,25,english,5,2,english,2024-02-09 13:54:52.617377,False,1,227,sounds\english\audio/english_588.wav,"[[  0.          99.95047602]
 [  0.1          6.8401109 ]
 [  0.2        -15.9093749 ]
 [  0.3        -95.80500507]
 [  0.32341667  23.59255786]]","[[0.         0.54608042]
 [0.1        0.86340392]
 [0.2        0.01522231]
 [0.3        0.86017392]
 [0.32341667 0.36914066]]",0,0.347
1,m,25,english,5,2,english,2024-02-09 13:54:52.617377,False,1,228,sounds\english\audio/english_139.wav,"[[  0.          55.35526281]
 [  0.1        -66.48550036]
 [  0.2         21.45340352]
 [  0.3        -32.80413748]
 [  0.32341667 -77.32206638]]","[[0.         1.40478417]
 [0.1        1.12007301]
 [0.2        1.58559909]
 [0.3        1.13081383]
 [0.32341667 0.38560717]]",1,0.174
1,m,25,english,5,2,english,2024-02-09 13:54:52.617377,False,1,229,sounds\english\audio/english_526.wav,"[[  0.         -32.34532461]
 [  0.1        -46.6208459 ]
 [  0.2        -42.84927068]
 [  0.3          3.47643827]
 [  0.32341667  52.79087598]]","[[0.         0.924261  ]
 [0.1        0.25414499]
 [0.2        1.01925886]
 [0.3        0.65966822]
 [0.32341667 1.50872035]]",0,0.457
1,m,25,english,5,2,english,2024-02-09 13:54:52.617377,False,1,230,sounds\english\audio/english_134.wav,"[[  0.          70.72156413]
 [  0.1        -64.20531103]
 [  0.2         35.7891913 ]
 [  0.3        -77.33475241]
 [  0.32341667  85.6978336 ]]","[[0.         1.84700732]
 [0.1        1.20878884]
 [0.2        0.51924654]
 [0.3        1.95615398]
 [0.32341667 1.72102519]]",1,0.253
1,m,25,english,5,2,english,2024-02-09 13:54:52.617377,False,1,231,sounds\english\audio/english_958.wav,"[[  0.          17.32592779]
 [  0.1         89.03376041]
 [  0.2        -24.89219777]
 [  0.3        -92.10798137]
 [  0.32341667   3.27828718]]","[[0.         0.33109802]
 [0.1        1.83345348]
 [0.2        1.95859429]
 [0.3        1.50296341]
 [0.32341667 0.1474067 ]]",1,0.243
1,m,25,english,5,2,english,2024-02-09 13:54:52.617377,False,1,232,sounds\english\audio/english_511.wav,"[[  0.         -54.05076571]
 [  0.1         58.21305336]
 [  0.2         93.28984864]
 [  0.3        -93.08437199]
 [  0.32341667  48.49476441]]","[[0.         1.68448531]
 [0.1        0.64957271]
 [0.2        1.47534814]
 [0.3        1.38615571]
 [0.32341667 0.71972648]]",1,0.352
1,m,25,english,5,2,english,2024-02-09 13:54:52.617377,False,1,233,sounds\english\audio/english_253.wav,"[[  0.          12.9108365 ]
 [  0.1        -70.83420593]
 [  0.2         -6.13796162]
 [  0.3         38.03543053]
 [  0.32341667 -61.21147917]]","[[0.         0.20464585]
 [0.1        1.97412558]
 [0.2        1.12401504]
 [0.3        1.75851492]
 [0.32341667 0.77953826]]",1,0.287
1,m,25,english,5,2,english,2024-02-09 13:54:52.617377,False,1,234,sounds\english\audio/english_184.wav,"[[ 0.         29.65201825]
 [ 0.1        16.48348791]
 [ 0.2         3.77448983]
 [ 0.3        62.87502431]
 [ 0.32341667 -8.82418577]]","[[0.         1.69567788]
 [0.1        1.26735627]
 [0.2        0.95352895]
 [0.3        1.7991474 ]
 [0.32341667 0.98992659]]",1,0.164
1,m,25,english,5,2,english,2024-02-09 13:54:52.617377,False,1,235,sounds\english\audio/english_111.wav,"[[  0.          43.12539807]
 [  0.1         63.99665526]
 [  0.2         86.04570556]
 [  0.3        -25.76798659]
 [  0.32341667 -36.14422463]]","[[0.         1.84745579]
 [0.1        0.92577031]
 [0.2        0.31264784]
 [0.3        0.89352032]
 [0.32341667 0.32138535]]",0,0.379
1,m,25,english,5,2,english,2024-02-09 13:54:52.617377,False,1,236,sounds\english\audio/english_101.wav,"[[  0.          60.77829508]
 [  0.1         43.41373716]
 [  0.2         56.16195873]
 [  0.3        -99.94719329]
 [  0.32341667  -1.35074094]]","[[0.         0.77962125]
 [0.1        0.02040908]
 [0.2        0.79248433]
 [0.3        1.74003505]
 [0.32341667 1.66206156]]",0,0.362
1,m,25,english,5,2,english,2024-02-09 13:54:52.617377,False,1,237,sounds\english\audio/english_633.wav,"[[  0.         -53.72283933]
 [  0.1         14.71438877]
 [  0.2         95.18630031]
 [  0.3         96.89096157]
 [  0.32341667   8.38596779]]","[[0.         1.23998369]
 [0.1        1.35266241]
 [0.2        0.66132985]
 [0.3        0.52728002]
 [0.32341667 1.4824282 ]]",1,0.304
1,m,25,english,5,2,english,2024-02-09 13:54:52.617377,False,1,238,sounds\english\audio/english_430.wav,"[[  0.          72.23510535]
 [  0.1         -9.56156918]
 [  0.2         36.71559936]
 [  0.3        -33.55254317]
 [  0.32341667 -25.71861109]]","[[0.         0.8682214 ]
 [0.1        0.26781202]
 [0.2        1.38873793]
 [0.3        0.29076709]
 [0.32341667 0.30869259]]",0,0.167
1,m,25,english,5,2,english,2024-02-09 13:54:52.617377,False,1,239,sounds\english\audio/english_558.wav,"[[  0.         -73.38624366]
 [  0.1        -42.42633216]
 [  0.2         15.99713578]
 [  0.3        -33.12568725]
 [  0.32341667  44.00446366]]","[[0.         1.58797859]
 [0.1        1.10525313]
 [0.2        0.42598769]
 [0.3        0.25629603]
 [0.32341667 1.81995896]]",1,0.55
1,m,25,english,5,2,english,2024-02-09 13:54:52.617377,False,1,240,sounds\english\audio/english_661.wav,"[[  0.          14.15805194]
 [  0.1        -77.97020538]
 [  0.2        -31.78835068]
 [  0.3          1.84085651]
 [  0.32341667  31.49677972]]","[[0.         1.06290545]
 [0.1        1.12952287]
 [0.2        1.47556517]
 [0.3        0.41137052]
 [0.32341667 1.48872703]]",1,0.59
1,m,25,english,5,2,english,2024-02-09 13:54:52.617377,False,1,241,sounds\english\audio/english_19.wav,"[[  0.          51.84788699]
 [  0.1         59.68091475]
 [  0.2        -27.71167756]
 [  0.3        -29.56443604]
 [  0.32341667 -58.55228515]]","[[0.         0.3981759 ]
 [0.1        1.61217409]
 [0.2        0.35158216]
 [0.3        0.8770992 ]
 [0.32341667 0.51670124]]",0,0.262
1,m,25,english,5,2,english,2024-02-09 13:54:52.617377,False,1,242,sounds\english\audio/english_961.wav,"[[  0.          20.81275789]
 [  0.1         46.48072234]
 [  0.2         79.36291712]
 [  0.3          7.86976501]
 [  0.32341667 -45.45751668]]","[[0.         1.87720953]
 [0.1        1.43497285]
 [0.2        1.9095844 ]
 [0.3        0.20821065]
 [0.32341667 0.0640973 ]]",1,0.439
1,m,25,english,5,2,english,2024-02-09 13:54:52.617377,False,1,243,sounds\english\audio/english_434.wav,"[[  0.          -4.12787863]
 [  0.1        -30.19441281]
 [  0.2         41.04377471]
 [  0.3        -32.43591961]
 [  0.32341667  61.53108406]]","[[0.         0.96421208]
 [0.1        1.08561731]
 [0.2        1.46356301]
 [0.3        0.25116585]
 [0.32341667 0.73120458]]",0,0.549
1,m,25,english,5,2,english,2024-02-09 13:54:52.617377,False,1,244,sounds\english\audio/english_518.wav,"[[  0.          52.37511869]
 [  0.1        -33.3490586 ]
 [  0.2        -71.20035434]
 [  0.3          6.23243823]
 [  0.32341667 -29.48660546]]","[[0.         0.23824141]
 [0.1        0.80559068]
 [0.2        1.24725456]
 [0.3        1.01334401]
 [0.32341667 1.51264586]]",0,0.545
1,m,25,english,5,2,english,2024-02-09 13:54:52.617377,False,1,245,sounds\english\audio/english_528.wav,"[[  0.          34.31610554]
 [  0.1         28.08911917]
 [  0.2        -86.77613696]
 [  0.3        -45.45420678]
 [  0.32341667 -58.86275596]]","[[0.         1.55529168]
 [0.1        0.29936297]
 [0.2        0.95155831]
 [0.3        1.46511459]
 [0.32341667 0.63923396]]",1,0.33
1,m,25,english,5,2,english,2024-02-09 13:54:52.617377,False,1,246,sounds\english\audio/english_827.wav,"[[  0.         -49.24128803]
 [  0.1         62.6158679 ]
 [  0.2        -85.72053716]
 [  0.3        -65.54354982]
 [  0.32341667 -42.30235352]]","[[0.         1.70838213]
 [0.1        0.88048656]
 [0.2        1.47530841]
 [0.3        0.04991031]
 [0.32341667 0.1531298 ]]",0,1.243
1,m,25,english,5,2,english,2024-02-09 13:54:52.617377,False,1,247,sounds\english\audio/english_753.wav,"[[  0.          38.61944715]
 [  0.1        -76.3398938 ]
 [  0.2        -80.92813522]
 [  0.3        -16.48508052]
 [  0.32341667  16.23487259]]","[[0.         0.75641923]
 [0.1        1.17320485]
 [0.2        0.63072958]
 [0.3        1.96252246]
 [0.32341667 1.97125296]]",0,0.569
1,m,25,english,5,2,english,2024-02-09 13:54:52.617377,False,1,248,sounds\english\audio/english_249.wav,"[[  0.          78.40227579]
 [  0.1        -55.1129652 ]
 [  0.2          6.74447168]
 [  0.3         27.3376716 ]
 [  0.32341667 -97.08031886]]","[[0.         1.91339694]
 [0.1        1.00834957]
 [0.2        0.29418026]
 [0.3        1.53256547]
 [0.32341667 0.99264532]]",1,0.243
1,m,25,english,5,2,english,2024-02-09 13:54:52.617377,False,1,249,sounds\english\audio/english_413.wav,"[[  0.          -9.66675054]
 [  0.1         15.27504309]
 [  0.2        -94.93171401]
 [  0.3        -42.87800999]
 [  0.32341667 -63.39385234]]","[[0.         1.82887045]
 [0.1        0.80668743]
 [0.2        0.90586838]
 [0.3        1.3937681 ]
 [0.32341667 0.34165264]]",1,0.475
1,m,25,english,5,2,english,2024-02-09 13:54:52.617377,False,1,250,sounds\english\audio/english_194.wav,"[[  0.          46.99725025]
 [  0.1        -37.20381284]
 [  0.2         13.86947558]
 [  0.3         79.77232086]
 [  0.32341667  49.46244041]]","[[0.         0.38230397]
 [0.1        1.33246395]
 [0.2        1.31276464]
 [0.3        0.22397005]
 [0.32341667 1.74931967]]",1,0.279
1,m,25,english,5,2,english,2024-02-09 13:54:52.617377,False,1,251,sounds\english\audio/english_342.wav,"[[  0.          78.00911228]
 [  0.1        -28.67768894]
 [  0.2         73.55618202]
 [  0.3         93.0509223 ]
 [  0.32341667  -2.74816459]]","[[0.         0.99673345]
 [0.1        1.80563483]
 [0.2        1.38552336]
 [0.3        0.17145116]
 [0.32341667 0.15059009]]",1,0.629
1,m,25,english,5,2,english,2024-02-09 13:54:52.617377,False,1,252,sounds\english\audio/english_686.wav,"[[  0.         -30.40223154]
 [  0.1         40.30213926]
 [  0.2         68.68183252]
 [  0.3         82.36920372]
 [  0.32341667   5.8000707 ]]","[[0.         0.36787347]
 [0.1        1.54584144]
 [0.2        1.54645212]
 [0.3        1.04035585]
 [0.32341667 1.51520661]]",1,0.326
1,m,25,english,5,2,english,2024-02-09 13:54:52.617377,False,1,253,sounds\english\audio/english_494.wav,"[[ 0.00000000e+00 -3.60210196e+00]
 [ 1.00000000e-01 -1.20609558e-02]
 [ 2.00000000e-01 -7.52550513e+01]
 [ 3.00000000e-01  3.96800445e+01]
 [ 3.23416667e-01  7.81977592e+01]]","[[0.         0.92014098]
 [0.1        1.08763174]
 [0.2        0.29239621]
 [0.3        0.26357805]
 [0.32341667 1.67878037]]",0,0.409
1,m,25,english,5,2,english,2024-02-09 13:54:52.617377,False,1,254,sounds\english\audio/english_25.wav,"[[  0.         -93.68210842]
 [  0.1        -14.41268038]
 [  0.2         72.93230065]
 [  0.3         23.28545759]
 [  0.32341667  18.09953767]]","[[0.         1.14210865]
 [0.1        1.90089654]
 [0.2        0.61137859]
 [0.3        1.93042398]
 [0.32341667 1.11869114]]",1,0.361
1,m,25,english,5,2,english,2024-02-09 13:54:52.617377,False,1,255,sounds\english\audio/english_870.wav,"[[  0.         -85.66751388]
 [  0.1         30.55194498]
 [  0.2        -98.28008273]
 [  0.3        -58.1418371 ]
 [  0.32341667  81.20200135]]","[[0.         1.70746054]
 [0.1        0.68953906]
 [0.2        1.62274852]
 [0.3        0.74531017]
 [0.32341667 1.06596266]]",1,0.228
1,m,25,english,5,2,english,2024-02-09 13:54:52.617377,False,1,256,sounds\english\audio/english_178.wav,"[[  0.         -14.41838744]
 [  0.1         64.59665955]
 [  0.2        -96.76492712]
 [  0.3        -50.00654232]
 [  0.32341667  42.56426636]]","[[0.         0.71193749]
 [0.1        0.54024543]
 [0.2        1.78065704]
 [0.3        1.40559917]
 [0.32341667 0.99785593]]",0,0.313
1,m,25,english,5,2,english,2024-02-09 13:54:52.617377,False,1,257,sounds\english\audio/english_504.wav,"[[ 0.          4.11468456]
 [ 0.1        70.56620437]
 [ 0.2         3.26767498]
 [ 0.3        -3.14493553]
 [ 0.32341667 43.57926014]]","[[0.         0.75379057]
 [0.1        1.18348717]
 [0.2        0.25360202]
 [0.3        1.87094491]
 [0.32341667 0.110125  ]]",0,0.345
1,m,25,english,5,2,english,2024-02-09 13:54:52.617377,False,1,258,sounds\english\audio/english_484.wav,"[[  0.          79.97188672]
 [  0.1        -84.58904822]
 [  0.2         70.2960477 ]
 [  0.3        -66.44520929]
