subj,sex,age,language,english,french,native_lang,date,practice,block,trial,stim,pitch,stretch,response,rt
4,f,40,english,5,4,english,2024-02-13 23:27:36.026436,False,2,253,sounds\english\audio/english_855.wav,"[[  0.          27.89321206]
 [  0.1        -46.00582393]
 [  0.2         35.37102385]
 [  0.3        -58.73762704]
 [  0.32341667 -46.78314799]]","[[0.         0.30262259]
 [0.1        1.40968126]
 [0.2        0.80904714]
 [0.3        1.48943687]
 [0.32341667 1.29572868]]",1,1.15
4,f,40,english,5,4,english,2024-02-13 23:27:36.026436,False,2,254,sounds\english\audio/english_196.wav,"[[  0.         -86.38202104]
 [  0.1          0.95731439]
 [  0.2        -48.4797064 ]
 [  0.3         50.57477866]
 [  0.32341667 -52.07184875]]","[[0.         1.63362226]
 [0.1        1.36148231]
 [0.2        0.68683683]
 [0.3        1.59869277]
 [0.32341667 0.40963154]]",0,0.236
4,f,40,english,5,4,english,2024-02-13 23:27:36.026436,False,2,255,sounds\english\audio/english_212.wav,"[[  0.          -8.03708838]
 [  0.1         72.60121642]
 [  0.2        -98.76374397]
 [  0.3         31.47742107]
 [  0.32341667  53.59344022]]","[[0.         0.69940518]
 [0.1        1.0039509 ]
 [0.2        1.17731185]
 [0.3        0.88066499]
 [0.32341667 0.33624016]]",0,0.627
4,f,40,english,5,4,english,2024-02-13 23:27:36.026436,False,2,256,sounds\english\audio/english_279.wav,"[[  0.         -20.90398108]
 [  0.1         98.83098338]
 [  0.2        -95.37608427]
 [  0.3        -52.65380993]
 [  0.32341667  47.72500112]]","[[0.         0.60114424]
 [0.1        0.92336304]
 [0.2        1.39045705]
 [0.3        0.64938935]
 [0.32341667 1.57478054]]",0,0.174
4,f,40,english,5,4,english,2024-02-13 23:27:36.026436,False,2,257,sounds\english\audio/english_84.wav,"[[  0.         -42.35488886]
 [  0.1         17.86576323]
 [  0.2        -56.36172821]
 [  0.3         69.8537656 ]
 [  0.32341667 -47.30652012]]","[[0.         0.45116064]
 [0.1        1.91320005]
 [0.2        1.53140363]
 [0.3        0.53091011]
 [0.32341667 1.59279301]]",1,0.725
4,f,40,english,5,4,english,2024-02-13 23:27:36.026436,False,2,258,sounds\english\audio/english_860.wav,"[[ 0.         10.25066679]
 [ 0.1        55.87909831]
 [ 0.2        81.09373959]
 [ 0.3        15.52286826]
 [ 0.32341667 58.18702512]]","[[0.         1.47817545]
 [0.1        1.32859058]
 [0.2        0.99201561]
 [0.3        0.3312489 ]
 [0.32341667 0.66001743]]",0,0.331
4,f,40,english,5,4,english,2024-02-13 23:27:36.026436,False,2,259,sounds\english\audio/english_850.wav,"[[  0.          79.79173837]
 [  0.1        -44.24877139]
 [  0.2         74.77623955]
 [  0.3        -86.32612653]
 [  0.32341667 -11.10230867]]","[[0.         1.46721922]
 [0.1        0.57242606]
 [0.2        0.15597525]
 [0.3        1.3358867 ]
 [0.32341667 1.14618682]]",0,0.925
4,f,40,english,5,4,english,2024-02-13 23:27:36.026436,False,2,260,sounds\english\audio/english_527.wav,"[[  0.         -32.70996179]
 [  0.1        -61.96334317]
 [  0.2         86.46317242]
 [  0.3        -18.9429262 ]
 [  0.32341667 -59.75355058]]","[[0.         0.06646481]
 [0.1        1.75268105]
 [0.2        0.41061726]
 [0.3        1.43024268]
 [0.32341667 0.73468543]]",1,0.259
4,f,40,english,5,4,english,2024-02-13 23:27:36.026436,False,2,261,sounds\english\audio/english_857.wav,"[[  0.         -33.07031843]
 [  0.1         12.9349985 ]
 [  0.2          4.33682254]
 [  0.3         90.68056828]
 [  0.32341667  37.69781409]]","[[0.         1.04325491]
 [0.1        0.44078978]
 [0.2        1.36028147]
 [0.3        1.16905302]
 [0.32341667 1.24618942]]",1,0.588
4,f,40,english,5,4,english,2024-02-13 23:27:36.026436,False,2,262,sounds\english\audio/english_385.wav,"[[  0.         -55.07910634]
 [  0.1        -94.47680079]
 [  0.2         38.70414457]
 [  0.3        -46.17691   ]
 [  0.32341667   2.5941508 ]]","[[0.         1.75648555]
 [0.1        1.20856462]
 [0.2        0.98103352]
 [0.3        1.45745263]
 [0.32341667 0.88353815]]",1,0.493
4,f,40,english,5,4,english,2024-02-13 23:27:36.026436,False,2,263,sounds\english\audio/english_945.wav,"[[  0.          63.16075011]
 [  0.1         87.55520176]
 [  0.2        -69.60467193]
 [  0.3        -69.25530384]
 [  0.32341667 -47.64160087]]","[[0.         1.8314946 ]
 [0.1        1.3737613 ]
 [0.2        0.61639792]
 [0.3        1.67239747]
 [0.32341667 1.88344595]]",0,0.283
4,f,40,english,5,4,english,2024-02-13 23:27:36.026436,False,2,264,sounds\english\audio/english_566.wav,"[[  0.          70.56000247]
 [  0.1         -0.18246418]
 [  0.2        -23.7188651 ]
 [  0.3         12.5469797 ]
 [  0.32341667 -84.37997634]]","[[0.         1.04698608]
 [0.1        1.13826263]
 [0.2        1.91259561]
 [0.3        1.08561121]
 [0.32341667 1.98926692]]",1,0.433
4,f,40,english,5,4,english,2024-02-13 23:27:36.026436,False,2,265,sounds\english\audio/english_624.wav,"[[  0.         -66.94889137]
 [  0.1         -6.87427926]
 [  0.2         69.52298075]
 [  0.3        -45.26015132]
 [  0.32341667 -50.37935108]]","[[0.         0.79130031]
 [0.1        1.85178888]
 [0.2        0.79988954]
 [0.3        0.87521033]
 [0.32341667 1.50754026]]",1,0.427
4,f,40,english,5,4,english,2024-02-13 23:27:36.026436,False,2,266,sounds\english\audio/english_252.wav,"[[  0.          79.75601627]
 [  0.1         17.00183399]
 [  0.2        -25.42800597]
 [  0.3        -47.65138194]
 [  0.32341667  35.10652067]]","[[0.         0.77799761]
 [0.1        1.07711339]
 [0.2        0.7917181 ]
 [0.3        1.47632881]
 [0.32341667 1.65919103]]",1,0.256
4,f,40,english,5,4,english,2024-02-13 23:27:36.026436,False,2,267,sounds\english\audio/english_199.wav,"[[  0.         -24.89956817]
 [  0.1        -48.49200931]
 [  0.2        -89.66548778]
 [  0.3         29.20785813]
 [  0.32341667 -88.68286362]]","[[0.         0.07306367]
 [0.1        0.10334581]
 [0.2        1.49062114]
 [0.3        0.36717513]
 [0.32341667 1.33179809]]",1,0.868
4,f,40,english,5,4,english,2024-02-13 23:27:36.026436,False,2,268,sounds\english\audio/english_103.wav,"[[  0.         -79.54710498]
 [  0.1        -41.31314025]
 [  0.2        -48.58046961]
 [  0.3         50.88097047]
 [  0.32341667  21.22320476]]","[[0.         0.84178061]
 [0.1        1.9706485 ]
 [0.2        1.55059924]
 [0.3        1.14550684]
 [0.32341667 1.67039139]]",0,0.141
4,f,40,english,5,4,english,2024-02-13 23:27:36.026436,False,2,269,sounds\english\audio/english_813.wav,"[[ 0.         55.66932548]
 [ 0.1        81.68960615]
 [ 0.2        55.75765178]
 [ 0.3        -1.25572602]
 [ 0.32341667 95.15429199]]","[[0.         1.32885027]
 [0.1        1.76450173]
 [0.2        0.71046445]
 [0.3        1.00431818]
 [0.32341667 0.60962601]]",0,0.233
4,f,40,english,5,4,english,2024-02-13 23:27:36.026436,False,2,270,sounds\english\audio/english_211.wav,"[[  0.          37.34807541]
 [  0.1         97.98979508]
 [  0.2        -20.02981109]
 [  0.3        -69.8116311 ]
 [  0.32341667  35.11126142]]","[[0.         1.77380832]
 [0.1        1.35747523]
 [0.2        1.74013371]
 [0.3        0.94808553]
 [0.32341667 0.23094119]]",0,0.116
4,f,40,english,5,4,english,2024-02-13 23:27:36.026436,False,2,271,sounds\english\audio/english_400.wav,"[[  0.          -9.17924521]
 [  0.1        -51.0410118 ]
 [  0.2         66.2548805 ]
 [  0.3         92.33374018]
 [  0.32341667 -60.80730989]]","[[0.         1.06898792]
 [0.1        0.05890524]
 [0.2        1.54728483]
 [0.3        1.43953162]
 [0.32341667 1.12546459]]",0,0.258
4,f,40,english,5,4,english,2024-02-13 23:27:36.026436,False,2,272,sounds\english\audio/english_621.wav,"[[  0.         -58.25251841]
 [  0.1         21.8974524 ]
 [  0.2        -22.03552483]
 [  0.3        -56.80446909]
 [  0.32341667 -23.41760562]]","[[0.         1.01186344]
 [0.1        1.03560921]
 [0.2        0.97057504]
 [0.3        1.33131235]
 [0.32341667 0.49151525]]",1,0.418
4,f,40,english,5,4,english,2024-02-13 23:27:36.026436,False,2,273,sounds\english\audio/english_644.wav,"[[  0.          21.57551932]
 [  0.1        -11.98636437]
 [  0.2        -86.21942338]
 [  0.3        -38.98906039]
 [  0.32341667 -28.58177745]]","[[0.         1.87520752]
 [0.1        1.28750901]
 [0.2        0.33708129]
 [0.3        1.53524213]
 [0.32341667 0.3058721 ]]",0,0.205
4,f,40,english,5,4,english,2024-02-13 23:27:36.026436,False,2,274,sounds\english\audio/english_345.wav,"[[  0.         -46.00579497]
 [  0.1        -45.5805492 ]
 [  0.2        -14.04378539]
 [  0.3         63.72413351]
 [  0.32341667  18.03717792]]","[[0.         1.58751342]
 [0.1        1.0202646 ]
 [0.2        0.61561299]
 [0.3        1.21547564]
 [0.32341667 1.47127253]]",1,0.146
4,f,40,english,5,4,english,2024-02-13 23:27:36.026436,False,2,275,sounds\english\audio/english_47.wav,"[[  0.          70.62381491]
 [  0.1        -43.60565268]
 [  0.2         29.54670776]
 [  0.3         95.208653  ]
 [  0.32341667 -87.83630424]]","[[0.         1.36620222]
 [0.1        0.47559644]
 [0.2        0.92078875]
 [0.3        0.83015506]
 [0.32341667 1.40747595]]",0,0.477
4,f,40,english,5,4,english,2024-02-13 23:27:36.026436,False,2,276,sounds\english\audio/english_35.wav,"[[  0.         -35.14158545]
 [  0.1        -54.49669119]
 [  0.2         37.91149238]
 [  0.3        -55.38086503]
 [  0.32341667  54.77667999]]","[[0.         0.855771  ]
 [0.1        0.5452371 ]
 [0.2        1.65995376]
 [0.3        0.74505496]
 [0.32341667 0.83530932]]",1,0.095
4,f,40,english,5,4,english,2024-02-13 23:27:36.026436,False,2,277,sounds\english\audio/english_66.wav,"[[  0.          16.07147303]
 [  0.1         50.76577123]
 [  0.2        -29.1595681 ]
 [  0.3        -80.89120138]
 [  0.32341667  -8.46229461]]","[[0.         1.75051971]
 [0.1        0.02971233]
 [0.2        0.63583886]
 [0.3        1.46734397]
 [0.32341667 1.61280944]]",0,0.196
4,f,40,english,5,4,english,2024-02-13 23:27:36.026436,False,2,278,sounds\english\audio/english_793.wav,"[[  0.          -3.59370976]
 [  0.1        -92.44382947]
 [  0.2        -89.84008222]
 [  0.3         96.09352514]
 [  0.32341667  42.94050617]]","[[0.         0.95327953]
 [0.1        0.8890172 ]
 [0.2        0.47547445]
 [0.3        1.09208031]
 [0.32341667 0.63383093]]",1,0.115
4,f,40,english,5,4,english,2024-02-13 23:27:36.026436,False,2,279,sounds\english\audio/english_71.wav,"[[  0.         -89.06637534]
 [  0.1        -28.638437  ]
 [  0.2         -8.31899436]
 [  0.3         67.7820648 ]
 [  0.32341667   4.09606073]]","[[0.         0.37218892]
 [0.1        1.29479557]
 [0.2        1.34818575]
 [0.3        1.24266832]
 [0.32341667 1.38884894]]",0,0.285
4,f,40,english,5,4,english,2024-02-13 23:27:36.026436,False,2,280,sounds\english\audio/english_917.wav,"[[  0.          -2.28432431]
 [  0.1        -50.4941454 ]
 [  0.2         86.41176613]
 [  0.3        -50.97734163]
 [  0.32341667  97.13453513]]","[[0.         0.51220006]
 [0.1        0.3783057 ]
 [0.2        0.52629226]
 [0.3        0.68389314]
 [0.32341667 1.73708117]]",1,0.293
4,f,40,english,5,4,english,2024-02-13 23:27:36.026436,False,2,281,sounds\english\audio/english_928.wav,"[[  0.          55.07207497]
 [  0.1         83.71672672]
 [  0.2        -43.28929986]
 [  0.3        -17.1692271 ]
 [  0.32341667 -36.644272  ]]","[[0.         1.22706758]
 [0.1        0.97206042]
 [0.2        0.16969859]
 [0.3        0.90092586]
 [0.32341667 0.43024518]]",0,0.154
4,f,40,english,5,4,english,2024-02-13 23:27:36.026436,False,2,282,sounds\english\audio/english_367.wav,"[[  0.          69.68935346]
 [  0.1        -21.84293244]
 [  0.2        -22.40126322]
 [  0.3        -77.83415675]
 [  0.32341667  18.42522507]]","[[0.         1.12532443]
 [0.1        1.15903886]
 [0.2        1.68834661]
 [0.3        1.78966274]
 [0.32341667 1.57311162]]",1,0.778
4,f,40,english,5,4,english,2024-02-13 23:27:36.026436,False,2,283,sounds\english\audio/english_155.wav,"[[  0.          53.87474094]
 [  0.1         74.81745726]
 [  0.2          8.25192738]
 [  0.3        -52.88121257]
 [  0.32341667  48.31209788]]","[[0.         1.93436975]
 [0.1        0.64472983]
 [0.2        1.6098708 ]
 [0.3        1.15705679]
 [0.32341667 0.66500292]]",0,0.671
4,f,40,english,5,4,english,2024-02-13 23:27:36.026436,False,2,284,sounds\english\audio/english_515.wav,"[[  0.         -51.44071002]
 [  0.1        -54.80209221]
 [  0.2         64.47174239]
 [  0.3        -10.56071982]
 [  0.32341667 -39.86348554]]","[[0.         1.17100165]
 [0.1        0.37535268]
 [0.2        1.31079719]
 [0.3        1.40472496]
 [0.32341667 0.6392892 ]]",1,0.532
4,f,40,english,5,4,english,2024-02-13 23:27:36.026436,False,2,285,sounds\english\audio/english_161.wav,"[[  0.          16.17182642]
 [  0.1         51.23408036]
 [  0.2         56.55598601]
 [  0.3        -25.08054758]
 [  0.32341667 -70.36900789]]","[[0.         0.80971259]
 [0.1        1.56168911]
 [0.2        0.91666403]
 [0.3        1.93998208]
 [0.32341667 0.76147365]]",0,0.324
4,f,40,english,5,4,english,2024-02-13 23:27:36.026436,False,2,286,sounds\english\audio/english_126.wav,"[[  0.         -71.89060105]
 [  0.1        -54.28004149]
 [  0.2         67.0997098 ]
 [  0.3        -96.31741745]
 [  0.32341667  22.67293764]]","[[0.         0.84485729]
 [0.1        1.61340521]
 [0.2        1.10892805]
 [0.3        1.20133652]
 [0.32341667 0.33470898]]",0,1.358
4,f,40,english,5,4,english,2024-02-13 23:27:36.026436,False,2,287,sounds\english\audio/english_46.wav,"[[  0.         -29.32250151]
 [  0.1         -3.06808063]
 [  0.2         90.97923358]
 [  0.3         10.7462216 ]
 [  0.32341667 -76.74347892]]","[[0.         0.64118776]
 [0.1        0.73649566]
 [0.2        1.88790792]
 [0.3        0.26788582]
 [0.32341667 0.543593  ]]",1,0.289
4,f,40,english,5,4,english,2024-02-13 23:27:36.026436,False,2,288,sounds\english\audio/english_20.wav,"[[  0.         -56.6830557 ]
 [  0.1         50.66790367]
 [  0.2        -18.96445326]
 [  0.3        -25.44345058]
 [  0.32341667  12.75548414]]","[[0.         0.06363068]
 [0.1        1.80739158]
 [0.2        1.41045117]
 [0.3        0.2049667 ]
 [0.32341667 0.27136646]]",1,0.389
4,f,40,english,5,4,english,2024-02-13 23:27:36.026436,False,2,289,sounds\english\audio/english_484.wav,"[[  0.          79.97188672]
 [  0.1        -84.58904822]
 [  0.2         70.2960477 ]
 [  0.3        -66.44520929]
 [  0.32341667 -78.91715359]]","[[0.         0.20745104]
 [0.1        1.46214797]
 [0.2        0.40821612]
 [0.3        1.23203415]
 [0.32341667 1.26593617]]",1,0.41
4,f,40,english,5,4,english,2024-02-13 23:27:36.026436,False,2,290,sounds\english\audio/english_920.wav,"[[  0.          95.7501832 ]
 [  0.1         -3.19831823]
 [  0.2        -16.96134457]
 [  0.3        -28.81747413]
 [  0.32341667  42.63505928]]","[[0.         1.54313256]
 [0.1        1.33500472]
 [0.2        1.12819963]
 [0.3        1.72147256]
 [0.32341667 0.57593815]]",1,0.897
4,f,40,english,5,4,english,2024-02-13 23:27:36.026436,False,2,291,sounds\english\audio/english_571.wav,"[[  0.         -42.92588422]
 [  0.1        -87.39276897]
 [  0.2         19.06282168]
 [  0.3        -99.30459792]
 [  0.32341667  41.25263337]]","[[0.         0.65590276]
 [0.1        1.8306878 ]
 [0.2        0.06889765]
 [0.3        0.29364209]
 [0.32341667 1.388798  ]]",0,0.322
4,f,40,english,5,4,english,2024-02-13 23:27:36.026436,False,2,292,sounds\english\audio/english_782.wav,"[[  0.         -98.70381677]
 [  0.1        -69.82387258]
 [  0.2         35.26613747]
 [  0.3        -81.38004879]
 [  0.32341667 -61.83067014]]","[[0.         1.47488053]
 [0.1        0.7270016 ]
 [0.2        0.08778447]
 [0.3        1.16903228]
 [0.32341667 0.92727902]]",1,0.512
4,f,40,english,5,4,english,2024-02-13 23:27:36.026436,False,2,293,sounds\english\audio/english_216.wav,"[[  0.         -62.2888105 ]
 [  0.1        -52.19325919]
 [  0.2        -77.81566322]
 [  0.3         73.5246301 ]
 [  0.32341667  73.4409389 ]]","[[0.         1.07577895]
 [0.1        1.07125686]
 [0.2        1.51342084]
 [0.3        1.37714716]
 [0.32341667 1.55456291]]",1,0.47
4,f,40,english,5,4,english,2024-02-13 23:27:36.026436,False,2,294,sounds\english\audio/english_846.wav,"[[  0.          61.87306923]
 [  0.1         -5.64177324]
 [  0.2         86.75305487]
 [  0.3        -27.71752308]
 [  0.32341667 -26.78048177]]","[[0.         1.6800264 ]
 [0.1        0.32387551]
 [0.2        0.09122421]
 [0.3        0.55014386]
 [0.32341667 0.82256102]]",0,0.145
4,f,40,english,5,4,english,2024-02-13 23:27:36.026436,False,2,295,sounds\english\audio/english_438.wav,"[[ 0.         31.75305261]
 [ 0.1        20.27112767]
 [ 0.2        66.65258945]
 [ 0.3        70.72003494]
 [ 0.32341667 59.11013505]]","[[0.         1.38451981]
 [0.1        1.99020027]
 [0.2        0.15645945]
 [0.3        1.37678514]
 [0.32341667 0.82730153]]",1,0.381
4,f,40,english,5,4,english,2024-02-13 23:27:36.026436,False,2,296,sounds\english\audio/english_921.wav,"[[  0.          60.93482672]
 [  0.1        -71.63665921]
 [  0.2        -30.77028929]
 [  0.3        -44.68164597]
 [  0.32341667  34.59415858]]","[[0.         0.06624465]
 [0.1        1.88925143]
 [0.2        0.40013084]
 [0.3        1.26601564]
 [0.32341667 1.98956357]]",1,0.167
4,f,40,english,5,4,english,2024-02-13 23:27:36.026436,False,2,297,sounds\english\audio/english_301.wav,"[[  0.         -78.18927369]
 [  0.1         -3.52439177]
 [  0.2        -23.22473782]
 [  0.3        -11.7220967 ]
 [  0.32341667  -5.78047748]]","[[0.         1.31935747]
 [0.1        1.41636911]
 [0.2        1.38842862]
 [0.3        1.25169603]
 [0.32341667 1.38740104]]",0,0.07
4,f,40,english,5,4,english,2024-02-13 23:27:36.026436,False,2,298,sounds\english\audio/english_895.wav,"[[  0.         -36.05432491]
 [  0.1          0.27991529]
 [  0.2        -68.50060493]
 [  0.3        -65.34452755]
 [  0.32341667  44.30205494]]","[[0.         1.57991636]
 [0.1        1.29141926]
 [0.2        0.78617821]
 [0.3        0.53071912]
 [0.32341667 1.44568828]]",1,0.112
4,f,40,english,5,4,english,2024-02-13 23:27:36.026436,False,2,299,sounds\english\audio/english_390.wav,"[[  0.         -50.40750922]
 [  0.1        -38.67641955]
 [  0.2        -37.03459725]
 [  0.3        -24.07335547]
 [  0.32341667  75.09366884]]","[[0.         1.41643644]
 [0.1        0.84399933]
 [0.2        1.67796426]
 [0.3        0.43781117]
 [0.32341667 0.01225463]]",0,0.257
4,f,40,english,5,4,english,2024-02-13 23:27:36.026436,False,2,300,sounds\english\audio/english_964.wav,"[[  0.          11.04708611]
 [  0.1        -10.67848967]
 [  0.2         64.95328634]
 [  0.3        -78.10341524]
 [  0.32341667 -48.61651995]]","[[0.         0.74384055]
 [0.1        0.46038505]
 [0.2        0.80934661]
 [0.3        1.94282647]
 [0.32341667 1.99482071]]",1,0.172
4,f,40,english,5,4,english,2024-02-13 23:27:36.026436,False,2,301,sounds\english\audio/english_870.wav,"[[  0.         -85.66751388]
 [  0.1         30.55194498]
 [  0.2        -98.28008273]
 [  0.3        -58.1418371 ]
 [  0.32341667  81.20200135]]","[[0.         1.70746054]
 [0.1        0.68953906]
 [0.2        1.62274852]
 [0.3        0.74531017]
 [0.32341667 1.06596266]]",0,0.178
4,f,40,english,5,4,english,2024-02-13 23:27:36.026436,False,2,302,sounds\english\audio/english_480.wav,"[[  0.          -9.10453384]
 [  0.1         72.09708103]
 [  0.2        -73.7181862 ]
 [  0.3         18.73451671]
 [  0.32341667  83.35837597]]","[[0.         0.61491247]
 [0.1        1.35502449]
 [0.2        0.28674933]
 [0.3        0.14653082]
 [0.32341667 1.34653786]]",1,0.56
4,f,40,english,5,4,english,2024-02-13 23:27:36.026436,False,2,303,sounds\english\audio/english_106.wav,"[[  0.         -46.25200282]
 [  0.1        -83.38564728]
 [  0.2         68.00501759]
 [  0.3         49.15199267]
 [  0.32341667  -5.93966373]]","[[0.         0.21046793]
 [0.1        1.42142181]
 [0.2        0.86156936]
 [0.3        0.65348811]
 [0.32341667 0.76273979]]",0,0.802
4,f,40,english,5,4,english,2024-02-13 23:27:36.026436,False,2,304,sounds\english\audio/english_745.wav,"[[  0.         -57.64472866]
 [  0.1        -14.80975681]
 [  0.2         44.46939178]
 [  0.3         56.80280999]
 [  0.32341667 -16.53068296]]","[[0.         1.88925258]
 [0.1        0.26333653]
 [0.2        1.01945351]
 [0.3        0.00901457]
 [0.32341667 0.38778228]]",1,0.478
4,f,40,english,5,4,english,2024-02-13 23:27:36.026436,False,2,305,sounds\english\audio/english_760.wav,"[[ 0.00000000e+00  2.43902693e+01]
 [ 1.00000000e-01 -2.47174936e-02]
 [ 2.00000000e-01  8.28662613e+01]
 [ 3.00000000e-01 -7.97314524e+00]
 [ 3.23416667e-01 -6.32438983e+00]]","[[0.         0.67210823]
 [0.1        1.89588113]
 [0.2        0.23432987]
 [0.3        1.20797246]
 [0.32341667 1.72866971]]",0,0.55
4,f,40,english,5,4,english,2024-02-13 23:27:36.026436,False,2,306,sounds\english\audio/english_628.wav,"[[  0.         -19.71295886]
 [  0.1        -79.294697  ]
 [  0.2        -59.93256946]
 [  0.3        -18.46863719]
 [  0.32341667  53.30350975]]","[[0.         0.8960583 ]
 [0.1        1.61949508]
 [0.2        0.65483299]
 [0.3        0.12001531]
 [0.32341667 0.85308449]]",1,0.353
4,f,40,english,5,4,english,2024-02-13 23:27:36.026436,False,2,307,sounds\english\audio/english_272.wav,"[[  0.          61.82030971]
 [  0.1          4.16580657]
 [  0.2        -53.2567432 ]
 [  0.3        -52.99830768]
 [  0.32341667 -92.9943793 ]]","[[0.         1.51341556]
 [0.1        0.43290826]
 [0.2        1.82734584]
 [0.3        0.22094446]
 [0.32341667 1.88040337]]",0,0.281
4,f,40,english,5,4,english,2024-02-13 23:27:36.026436,False,2,308,sounds\english\audio/english_433.wav,"[[  0.         -74.58178472]
 [  0.1        -50.00917691]
 [  0.2         48.18572343]
 [  0.3        -63.95387597]
 [  0.32341667 -68.91859183]]","[[0.         0.69852952]
 [0.1        1.92405883]
 [0.2        0.3905825 ]
 [0.3        0.31453116]
 [0.32341667 1.4953114 ]]",0,0.581
4,f,40,english,5,4,english,2024-02-13 23:27:36.026436,False,2,309,sounds\english\audio/english_938.wav,"[[  0.          55.68553541]
 [  0.1         19.57508628]
 [  0.2         99.59707332]
 [  0.3        -43.3789335 ]
 [  0.32341667  90.00594125]]","[[0.         1.13527087]
 [0.1        0.57526943]
 [0.2        0.71873046]
 [0.3        0.88566698]
 [0.32341667 0.39461425]]",1,0.297
4,f,40,english,5,4,english,2024-02-13 23:27:36.026436,False,2,310,sounds\english\audio/english_846.wav,"[[  0.          61.87306923]
 [  0.1         -5.64177324]
 [  0.2         86.75305487]
 [  0.3        -27.71752308]
 [  0.32341667 -26.78048177]]","[[0.         1.6800264 ]
 [0.1        0.32387551]
 [0.2        0.09122421]
 [0.3        0.55014386]
 [0.32341667 0.82256102]]",1,0.445
4,f,40,english,5,4,english,2024-02-13 23:27:36.026436,False,2,311,sounds\english\audio/english_123.wav,"[[  0.          67.91608163]
 [  0.1        -92.32097988]
 [  0.2         57.07371841]
 [  0.3         19.28317816]
 [  0.32341667  15.30546887]]","[[0.         1.13046919]
 [0.1        1.99597614]
 [0.2        1.53523853]
 [0.3        0.24385811]
 [0.32341667 0.39158976]]",1,0.172
4,f,40,english,5,4,english,2024-02-13 23:27:36.026436,False,2,312,sounds\english\audio/english_348.wav,"[[  0.          21.35215111]
 [  0.1         14.79849269]
 [  0.2         53.1788992 ]
 [  0.3        -95.85723561]
 [  0.32341667   5.27283499]]","[[0.         0.19799702]
 [0.1        0.60931017]
 [0.2        0.16102666]
 [0.3        1.54818605]
 [0.32341667 0.26552753]]",1,0.218
4,f,40,english,5,4,english,2024-02-13 23:27:36.026436,False,2,313,sounds\english\audio/english_763.wav,"[[ 0.         64.63144232]
 [ 0.1         8.86346429]
 [ 0.2        32.79569159]
 [ 0.3        10.55051177]
 [ 0.32341667  6.38738619]]","[[0.         0.7800836 ]
 [0.1        1.26656169]
 [0.2        1.93170043]
 [0.3        0.29422641]
 [0.32341667 1.43860225]]",1,0.624
4,f,40,english,5,4,english,2024-02-13 23:27:36.026436,False,2,314,sounds\english\audio/english_899.wav,"[[  0.          34.44970312]
 [  0.1        -73.97598586]
 [  0.2          4.84970015]
 [  0.3         25.99530817]
 [  0.32341667   7.0197251 ]]","[[0.         1.0262563 ]
 [0.1        0.5565938 ]
 [0.2        0.08950317]
 [0.3        1.10823657]
 [0.32341667 1.27665612]]",1,0.353
4,f,40,english,5,4,english,2024-02-13 23:27:36.026436,False,2,315,sounds\english\audio/english_547.wav,"[[  0.          30.48969685]
 [  0.1        -38.27442703]
 [  0.2         29.58442849]
 [  0.3         -4.27268154]
 [  0.32341667  58.02076364]]","[[0.         1.04682874]
 [0.1        0.75017858]
 [0.2        0.7996645 ]
 [0.3        1.92102789]
 [0.32341667 1.77056707]]",0,0.236
4,f,40,english,5,4,english,2024-02-13 23:27:36.026436,False,2,316,sounds\english\audio/english_630.wav,"[[  0.          97.25925287]
 [  0.1         76.95662127]
 [  0.2          5.01423186]
 [  0.3        -27.88706711]
 [  0.32341667  90.69966072]]","[[0.         0.34607754]
 [0.1        0.15996234]
 [0.2        1.73874617]
 [0.3        0.41181915]
 [0.32341667 0.77788697]]",0,1.592
4,f,40,english,5,4,english,2024-02-13 23:27:36.026436,False,2,317,sounds\english\audio/english_645.wav,"[[  0.          44.09023725]
 [  0.1         53.49741331]
 [  0.2         28.7784214 ]
 [  0.3        -38.38386911]
 [  0.32341667  30.31484035]]","[[0.         0.24999948]
 [0.1        0.20669006]
 [0.2        0.13451906]
 [0.3        0.64617788]
 [0.32341667 0.83061833]]",0,0.344
4,f,40,english,5,4,english,2024-02-13 23:27:36.026436,False,2,318,sounds\english\audio/english_301.wav,"[[  0.         -78.18927369]
 [  0.1         -3.52439177]
 [  0.2        -23.22473782]
 [  0.3        -11.7220967 ]
 [  0.32341667  -5.78047748]]","[[0.         1.31935747]
 [0.1        1.41636911]
 [0.2        1.38842862]
 [0.3        1.25169603]
 [0.32341667 1.38740104]]",0,0.843
4,f,40,english,5,4,english,2024-02-13 23:27:36.026436,False,2,319,sounds\english\audio/english_948.wav,"[[  0.          12.28616187]
 [  0.1         33.44634687]
 [  0.2         98.80566767]
 [  0.3        -93.57044844]
 [  0.32341667 -51.09398555]]","[[0.         1.33435242]
 [0.1        1.33862855]
 [0.2        1.25876505]
 [0.3        1.87938727]
 [0.32341667 1.88731406]]",1,0.966
4,f,40,english,5,4,english,2024-02-13 23:27:36.026436,False,2,320,sounds\english\audio/english_606.wav,"[[  0.         -54.19201916]
 [  0.1         -9.49104439]
 [  0.2          1.17868262]
 [  0.3        -95.39718692]
 [  0.32341667 -48.659775  ]]","[[0.         1.71730642]
 [0.1        0.42216081]
 [0.2        1.31506394]
 [0.3        0.06922913]
 [0.32341667 0.08316227]]",0,0.592
4,f,40,english,5,4,english,2024-02-13 23:27:36.026436,False,2,321,sounds\english\audio/english_599.wav,"[[  0.         -57.09760884]
 [  0.1         31.85682387]
 [  0.2         -6.73425875]
 [  0.3         47.95830633]
 [  0.32341667 -83.8084816 ]]","[[0.         1.03382432]
 [0.1        1.26885403]
 [0.2        1.24717465]
 [0.3        1.34338376]
 [0.32341667 0.34550335]]",1,1.139
4,f,40,english,5,4,english,2024-02-13 23:27:36.026436,False,2,322,sounds\english\audio/english_585.wav,"[[  0.         -47.47167609]
 [  0.1        -85.73018253]
 [  0.2          4.69567907]
 [  0.3         51.83381109]
 [  0.32341667  14.12777642]]","[[0.         0.91486293]
 [0.1        0.8051019 ]
 [0.2        1.25289508]
 [0.3        0.83258124]
 [0.32341667 1.43411439]]",1,2.229
4,f,40,english,5,4,english,2024-02-13 23:27:36.026436,False,2,323,sounds\english\audio/english_458.wav,"[[  0.         -49.69821038]
 [  0.1        -49.80647014]
 [  0.2         11.98261521]
 [  0.3         59.43319096]
 [  0.32341667 -34.5671642 ]]","[[0.         0.39452057]
 [0.1        1.24604375]
 [0.2        0.42272405]
 [0.3        0.21259233]
 [0.32341667 1.13235362]]",0,0.357
4,f,40,english,5,4,english,2024-02-13 23:27:36.026436,False,2,324,sounds\english\audio/english_210.wav,"[[  0.          43.03172008]
 [  0.1         58.48529179]
 [  0.2         57.29337371]
 [  0.3        -45.34642936]
 [  0.32341667  -3.49486879]]","[[0.         0.27268056]
 [0.1        0.59270989]
 [0.2        1.57355776]
 [0.3        1.97663548]
 [0.32341667 1.39997912]]",1,0.215
4,f,40,english,5,4,english,2024-02-13 23:27:36.026436,False,2,325,sounds\english\audio/english_126.wav,"[[  0.         -71.89060105]
 [  0.1        -54.28004149]
 [  0.2         67.0997098 ]
 [  0.3        -96.31741745]
 [  0.32341667  22.67293764]]","[[0.         0.84485729]
 [0.1        1.61340521]
 [0.2        1.10892805]
 [0.3        1.20133652]
 [0.32341667 0.33470898]]",0,0.198
4,f,40,english,5,4,english,2024-02-13 23:27:36.026436,False,2,326,sounds\english\audio/english_741.wav,"[[  0.         -74.62614727]
 [  0.1         33.834367  ]
 [  0.2        -60.21329901]
 [  0.3        -95.39639135]
 [  0.32341667   3.10560698]]","[[0.         1.92216761]
 [0.1        1.50741835]
 [0.2        0.74273648]
 [0.3        0.98175705]
 [0.32341667 0.9878567 ]]",0,0.33
4,f,40,english,5,4,english,2024-02-13 23:27:36.026436,False,2,327,sounds\english\audio/english_1.wav,"[[  0.          53.99031816]
 [  0.1        -58.32145174]
 [  0.2        -86.75659624]
 [  0.3        -31.84945767]
 [  0.32341667 -59.21997754]]","[[0.         1.91732561]
 [0.1        0.75352701]
 [0.2        1.40297919]
 [0.3        0.12157709]
 [0.32341667 1.57687546]]",0,0.596
4,f,40,english,5,4,english,2024-02-13 23:27:36.026436,False,2,328,sounds\english\audio/english_50.wav,"[[  0.         -72.72872807]
 [  0.1        -88.33626222]
 [  0.2         -2.18882928]
 [  0.3         60.61456424]
 [  0.32341667  95.28335061]]","[[0.         1.68140442]
 [0.1        1.82728433]
 [0.2        0.80476824]
 [0.3        0.21215651]
 [0.32341667 1.87644163]]",0,0.289
4,f,40,english,5,4,english,2024-02-13 23:27:36.026436,False,2,329,sounds\english\audio/english_27.wav,"[[  0.          -6.18374659]
 [  0.1         32.21095844]
 [  0.2         21.02729748]
 [  0.3          4.79829383]
 [  0.32341667 -70.7577659 ]]","[[0.         1.89085405]
 [0.1        0.80138328]
 [0.2        1.01248602]
 [0.3        1.67412938]
 [0.32341667 0.3387802 ]]",0,0.514
4,f,40,english,5,4,english,2024-02-13 23:27:36.026436,False,2,330,sounds\english\audio/english_518.wav,"[[  0.          52.37511869]
 [  0.1        -33.3490586 ]
 [  0.2        -71.20035434]
 [  0.3          6.23243823]
 [  0.32341667 -29.48660546]]","[[0.         0.23824141]
 [0.1        0.80559068]
 [0.2        1.24725456]
 [0.3        1.01334401]
 [0.32341667 1.51264586]]",1,0.15
4,f,40,english,5,4,english,2024-02-13 23:27:36.026436,False,2,331,sounds\english\audio/english_259.wav,"[[  0.           7.90187791]
 [  0.1         31.67295647]
 [  0.2        -53.65780041]
 [  0.3        -72.94929757]
 [  0.32341667  58.35152721]]","[[0.         1.3064553 ]
 [0.1        1.01100372]
 [0.2        0.35520266]
 [0.3        1.35187683]
 [0.32341667 1.39599087]]",0,0.407
4,f,40,english,5,4,english,2024-02-13 23:27:36.026436,False,2,332,sounds\english\audio/english_266.wav,"[[  0.          16.70772117]
 [  0.1        -61.82971906]
 [  0.2        -31.41060896]
 [  0.3         -8.94045194]
 [  0.32341667 -27.43066022]]","[[0.         0.81064175]
 [0.1        1.48442032]
 [0.2        1.39445033]
 [0.3        1.01594082]
 [0.32341667 0.75934284]]",1,0.196
4,f,40,english,5,4,english,2024-02-13 23:27:36.026436,False,2,333,sounds\english\audio/english_383.wav,"[[  0.          -1.49759031]
 [  0.1         48.0809444 ]
 [  0.2        -84.09524499]
 [  0.3         95.23220486]
 [  0.32341667  64.91086902]]","[[0.         0.61403304]
 [0.1        0.69225556]
 [0.2        0.33452268]
 [0.3        1.06792504]
 [0.32341667 0.58483827]]",0,0.516
4,f,40,english,5,4,english,2024-02-13 23:27:36.026436,False,2,334,sounds\english\audio/english_855.wav,"[[  0.          27.89321206]
 [  0.1        -46.00582393]
 [  0.2         35.37102385]
 [  0.3        -58.73762704]
 [  0.32341667 -46.78314799]]","[[0.         0.30262259]
 [0.1        1.40968126]
 [0.2        0.80904714]
 [0.3        1.48943687]
 [0.32341667 1.29572868]]",1,0.072
4,f,40,english,5,4,english,2024-02-13 23:27:36.026436,False,2,335,sounds\english\audio/english_697.wav,"[[ 0.00000000e+00  3.48877197e+01]
 [ 1.00000000e-01 -1.29750448e-02]
 [ 2.00000000e-01  4.88877829e+01]
 [ 3.00000000e-01  6.85745634e+01]
 [ 3.23416667e-01  1.89536775e+01]]","[[0.         0.10761674]
 [0.1        0.88035305]
 [0.2        0.12183403]
 [0.3        0.55306263]
 [0.32341667 1.83833688]]",1,0.619
4,f,40,english,5,4,english,2024-02-13 23:27:36.026436,False,2,336,sounds\english\audio/english_273.wav,"[[  0.         -44.98289573]
 [  0.1         24.32546199]
 [  0.2         61.84573583]
 [  0.3         -1.88803465]
 [  0.32341667  57.02125087]]","[[0.         1.94838534]
 [0.1        0.68888608]
 [0.2        1.95265796]
 [0.3        1.62060328]
 [0.32341667 0.94638053]]",0,0.267
4,f,40,english,5,4,english,2024-02-13 23:27:36.026436,False,2,337,sounds\english\audio/english_440.wav,"[[  0.          44.70308901]
 [  0.1        -88.0257567 ]
 [  0.2          1.19893433]
 [  0.3         19.45485395]
 [  0.32341667  13.00088222]]","[[0.00000000e+00 1.51497438e+00]
 [1.00000000e-01 1.05972447e+00]
 [2.00000000e-01 5.90820378e-01]
 [3.00000000e-01 6.80586803e-01]
 [3.23416667e-01 6.18341324e-04]]",1,0.128
4,f,40,english,5,4,english,2024-02-13 23:27:36.026436,False,2,338,sounds\english\audio/english_280.wav,"[[  0.          88.60957906]
 [  0.1         84.68226706]
 [  0.2        -77.43679957]
 [  0.3         45.11946934]
 [  0.32341667 -36.96988582]]","[[0.         0.0301642 ]
 [0.1        1.61205195]
 [0.2        1.42137195]
 [0.3        1.73240953]
 [0.32341667 0.09602122]]",1,0.382
4,f,40,english,5,4,english,2024-02-13 23:27:36.026436,False,2,339,sounds\english\audio/english_526.wav,"[[  0.         -32.34532461]
 [  0.1        -46.6208459 ]
 [  0.2        -42.84927068]
 [  0.3          3.47643827]
 [  0.32341667  52.79087598]]","[[0.         0.924261  ]
 [0.1        0.25414499]
 [0.2        1.01925886]
 [0.3        0.65966822]
 [0.32341667 1.50872035]]",0,0.232
4,f,40,english,5,4,english,2024-02-13 23:27:36.026436,False,2,340,sounds\english\audio/english_26.wav,"[[  0.          54.38966875]
 [  0.1          0.3460174 ]
 [  0.2        -72.33258957]
 [  0.3         67.09142092]
 [  0.32341667  16.00565239]]","[[0.         1.86679487]
 [0.1        0.79762949]
 [0.2        0.93682052]
 [0.3        1.42469209]
 [0.32341667 1.17807545]]",0,0.262
4,f,40,english,5,4,english,2024-02-13 23:27:36.026436,False,2,341,sounds\english\audio/english_417.wav,"[[  0.         -17.25972862]
 [  0.1         72.11413149]
 [  0.2         83.70212603]
 [  0.3         67.19530478]
 [  0.32341667  29.72084594]]","[[0.         1.29903721]
 [0.1        0.87773419]
 [0.2        1.45838331]
 [0.3        0.90979472]
 [0.32341667 0.1224986 ]]",1,0.161
4,f,40,english,5,4,english,2024-02-13 23:27:36.026436,False,2,342,sounds\english\audio/english_146.wav,"[[  0.          -7.47107612]
 [  0.1        -10.73298436]
 [  0.2         -4.63341632]
 [  0.3         14.65491039]
 [  0.32341667  19.96333333]]","[[0.         0.36907021]
 [0.1        0.24473139]
 [0.2        1.01983542]
 [0.3        0.62607899]
 [0.32341667 1.1005899 ]]",1,0.356
4,f,40,english,5,4,english,2024-02-13 23:27:36.026436,False,2,343,sounds\english\audio/english_463.wav,"[[  0.         -17.89775534]
 [  0.1        -21.51631701]
 [  0.2        -12.53951077]
 [  0.3         33.47501925]
 [  0.32341667 -93.09525534]]","[[0.         1.84132871]
 [0.1        1.66361617]
 [0.2        0.64060514]
 [0.3        1.01091097]
 [0.32341667 0.69499506]]",0,0.136
4,f,40,english,5,4,english,2024-02-13 23:27:36.026436,False,2,344,sounds\english\audio/english_407.wav,"[[  0.         -13.68776922]
 [  0.1        -57.11899702]
 [  0.2         62.94325807]
 [  0.3        -27.77030003]
 [  0.32341667 -61.90605897]]","[[0.         0.77658743]
 [0.1        1.53398674]
 [0.2        0.70379875]
 [0.3        0.72470084]
 [0.32341667 0.771678  ]]",1,0.148
4,f,40,english,5,4,english,2024-02-13 23:27:36.026436,False,2,345,sounds\english\audio/english_486.wav,"[[  0.          31.41997184]
 [  0.1         58.03480486]
 [  0.2        -62.84801238]
 [  0.3         10.62451678]
 [  0.32341667  10.31835057]]","[[0.         1.22599644]
 [0.1        1.4547445 ]
 [0.2        0.27967606]
 [0.3        0.02065399]
 [0.32341667 0.3128479 ]]",0,0.296
4,f,40,english,5,4,english,2024-02-13 23:27:36.026436,False,2,346,sounds\english\audio/english_534.wav,"[[  0.         -42.4271338 ]
 [  0.1        -80.6424644 ]
 [  0.2         59.29592388]
 [  0.3         75.02007223]
 [  0.32341667 -57.55026449]]","[[0.         1.1267565 ]
 [0.1        0.6842577 ]
 [0.2        0.01459656]
 [0.3        1.03701198]
 [0.32341667 1.25840342]]",1,0.318
4,f,40,english,5,4,english,2024-02-13 23:27:36.026436,False,2,347,sounds\english\audio/english_804.wav,"[[  0.          11.23319328]
 [  0.1        -75.15189859]
 [  0.2          5.39397939]
 [  0.3         42.92141331]
 [  0.32341667 -79.84726866]]","[[0.         0.16159815]
 [0.1        1.76023076]
 [0.2        0.7355024 ]
 [0.3        1.74636497]
 [0.32341667 1.05562007]]",0,0.028
4,f,40,english,5,4,english,2024-02-13 23:27:36.026436,False,2,348,sounds\english\audio/english_214.wav,"[[  0.          58.82847816]
 [  0.1         87.26801489]
 [  0.2        -28.10234025]
 [  0.3        -36.12188516]
 [  0.32341667 -45.93983978]]","[[0.         1.81864401]
 [0.1        0.97241975]
 [0.2        1.91423566]
 [0.3        1.71940232]
 [0.32341667 0.68694042]]",0,0.623
4,f,40,english,5,4,english,2024-02-13 23:27:36.026436,False,2,349,sounds\english\audio/english_825.wav,"[[  0.           9.96211161]
 [  0.1        -28.44120521]
 [  0.2         58.95311712]
 [  0.3        -14.85414305]
 [  0.32341667  85.14956963]]","[[0.         0.17252736]
 [0.1        0.52830291]
 [0.2        0.51646024]
 [0.3        0.70859388]
 [0.32341667 0.64434305]]",1,1.21
4,f,40,english,5,4,english,2024-02-13 23:27:36.026436,False,2,350,sounds\english\audio/english_366.wav,"[[  0.          30.08929792]
 [  0.1        -17.9139155 ]
 [  0.2        -66.75779592]
 [  0.3         77.64459909]
 [  0.32341667  72.64294537]]","[[0.         0.87054072]
 [0.1        0.34658018]
 [0.2        0.49970414]
 [0.3        1.94720887]
 [0.32341667 1.76390144]]",0,0.538
4,f,40,english,5,4,english,2024-02-13 23:27:36.026436,False,2,351,sounds\english\audio/english_173.wav,"[[  0.          11.1251521 ]
 [  0.1         94.22411188]
 [  0.2         89.44753043]
 [  0.3         74.30769895]
 [  0.32341667 -37.47679669]]","[[0.         0.60172576]
 [0.1        0.44802145]
 [0.2        1.27552997]
 [0.3        1.09756939]
 [0.32341667 0.7907315 ]]",1,0.935
4,f,40,english,5,4,english,2024-02-13 23:27:36.026436,False,2,352,sounds\english\audio/english_332.wav,"[[  0.         -51.41680869]
 [  0.1          4.985172  ]
 [  0.2         88.20327684]
 [  0.3        -58.40734817]
 [  0.32341667  68.30800912]]","[[0.         1.58782391]
 [0.1        0.72138411]
 [0.2        1.12265768]
 [0.3        0.23569111]
 [0.32341667 1.23583309]]",0,2.557
4,f,40,english,5,4,english,2024-02-13 23:27:36.026436,False,2,353,sounds\english\audio/english_737.wav,"[[  0.          21.35751723]
 [  0.1         61.52152077]
 [  0.2        -29.75610596]
 [  0.3        -39.80249708]
 [  0.32341667 -14.64937497]]","[[0.         1.17499048]
 [0.1        1.09581395]
 [0.2        0.62940412]
 [0.3        0.11793022]
 [0.32341667 0.62377861]]",0,0.92
4,f,40,english,5,4,english,2024-02-13 23:27:36.026436,False,2,354,sounds\english\audio/english_613.wav,"[[  0.         -12.80235787]
 [  0.1         38.67858639]
 [  0.2         21.08834288]
 [  0.3         94.81469787]
 [  0.32341667  18.45506868]]","[[0.         0.8409713 ]
 [0.1        0.30410002]
 [0.2        0.031636  ]
 [0.3        1.79222997]
 [0.32341667 1.98455664]]",0,1.836
4,f,40,english,5,4,english,2024-02-13 23:27:36.026436,False,2,355,sounds\english\audio/english_724.wav,"[[  0.         -91.46740291]
 [  0.1         23.01616352]
 [  0.2        -29.32408493]
 [  0.3        -79.49145217]
 [  0.32341667  82.35247912]]","[[0.         0.46376674]
 [0.1        1.84849858]
 [0.2        1.44978715]
 [0.3        1.24719002]
 [0.32341667 0.99570929]]",1,0.822
4,f,40,english,5,4,english,2024-02-13 23:27:36.026436,False,2,356,sounds\english\audio/english_494.wav,"[[ 0.00000000e+00 -3.60210196e+00]
 [ 1.00000000e-01 -1.20609558e-02]
 [ 2.00000000e-01 -7.52550513e+01]
 [ 3.00000000e-01  3.96800445e+01]
 [ 3.23416667e-01  7.81977592e+01]]","[[0.         0.92014098]
 [0.1        1.08763174]
 [0.2        0.29239621]
 [0.3        0.26357805]
 [0.32341667 1.67878037]]",0,0.513
4,f,40,english,5,4,english,2024-02-13 23:27:36.026436,False,2,357,sounds\english\audio/english_822.wav,"[[ 0.         22.19463519]
 [ 0.1        46.02970585]
 [ 0.2        44.31281831]
 [ 0.3        27.24156044]
 [ 0.32341667 41.58842879]]","[[0.         1.34957498]
 [0.1        1.18534363]
 [0.2        0.88966115]
 [0.3        1.22476657]
 [0.32341667 0.51847317]]",1,0.389
4,f,40,english,5,4,english,2024-02-13 23:27:36.026436,False,2,358,sounds\english\audio/english_703.wav,"[[  0.          21.25560127]
 [  0.1         -5.61566417]
 [  0.2        -88.15973778]
 [  0.3         39.86499493]
 [  0.32341667  64.67338156]]","[[0.         1.22587136]
 [0.1        1.28752652]
 [0.2        1.61643937]
 [0.3        1.32560109]
 [0.32341667 0.74206522]]",1,0.655
4,f,40,english,5,4,english,2024-02-13 23:27:36.026436,False,2,359,sounds\english\audio/english_801.wav,"[[  0.          66.50571345]
 [  0.1        -53.03260979]
 [  0.2         -3.89459646]
 [  0.3          8.32951864]
 [  0.32341667 -87.46806733]]","[[0.         0.19311528]
 [0.1        0.48683601]
 [0.2        1.16293258]
 [0.3        1.55734707]
 [0.32341667 0.63471681]]",1,2.301
4,f,40,english,5,4,english,2024-02-13 23:27:36.026436,False,2,360,sounds\english\audio/english_385.wav,"[[  0.         -55.07910634]
 [  0.1        -94.47680079]
 [  0.2         38.70414457]
 [  0.3        -46.17691   ]
 [  0.32341667   2.5941508 ]]","[[0.         1.75648555]
 [0.1        1.20856462]
 [0.2        0.98103352]
 [0.3        1.45745263]
 [0.32341667 0.88353815]]",0,1.178
4,f,40,english,5,4,english,2024-02-13 23:27:36.026436,False,2,361,sounds\english\audio/english_113.wav,"[[  0.           8.7952765 ]
 [  0.1         91.94692023]
 [  0.2         -6.68088057]
 [  0.3         38.28142065]
 [  0.32341667 -37.19939988]]","[[0.         0.51001639]
 [0.1        1.45766025]
 [0.2        1.25674442]
 [0.3        1.93213547]
 [0.32341667 0.45590133]]",1,0.207
4,f,40,english,5,4,english,2024-02-13 23:27:36.026436,False,2,362,sounds\english\audio/english_819.wav,"[[  0.          56.56933068]
 [  0.1         16.98960986]
 [  0.2        -13.59600893]
 [  0.3         79.1710335 ]
 [  0.32341667  25.34620926]]","[[0.         1.61805944]
 [0.1        1.69207785]
 [0.2        1.33633205]
 [0.3        0.49452457]
 [0.32341667 1.97134574]]",0,0.64
4,f,40,english,5,4,english,2024-02-13 23:27:36.026436,False,2,363,sounds\english\audio/english_584.wav,"[[  0.          10.38934641]
 [  0.1         16.58552078]
 [  0.2         93.24376001]
 [  0.3        -17.62367845]
 [  0.32341667  35.31863132]]","[[0.         1.28044862]
 [0.1        0.12750447]
 [0.2        0.67889343]
 [0.3        1.20299248]
 [0.32341667 1.61660781]]",1,0.333
4,f,40,english,5,4,english,2024-02-13 23:27:36.026436,False,2,364,sounds\english\audio/english_412.wav,"[[  0.         -82.38375592]
 [  0.1        -35.89348303]
 [  0.2        -78.50422887]
 [  0.3          8.19618882]
 [  0.32341667  88.30694734]]","[[0.         0.41347899]
 [0.1        0.05505218]
 [0.2        1.28972039]
 [0.3        0.97331843]
 [0.32341667 0.22558246]]",0,0.772
4,f,40,english,5,4,english,2024-02-13 23:27:36.026436,False,2,365,sounds\english\audio/english_821.wav,"[[  0.          -4.04234253]
 [  0.1         50.39518932]
 [  0.2         58.18996785]
 [  0.3        -22.07293427]
 [  0.32341667  56.43229939]]","[[0.         1.62928948]
 [0.1        0.78033958]
 [0.2        1.56476115]
 [0.3        0.56557752]
 [0.32341667 0.93389964]]",1,1.556
4,f,40,english,5,4,english,2024-02-13 23:27:36.026436,False,2,366,sounds\english\audio/english_650.wav,"[[  0.         -14.34164867]
 [  0.1        -59.47569919]
 [  0.2        -47.0995584 ]
 [  0.3        -55.25841156]
 [  0.32341667  83.92345375]]","[[0.         1.10695192]
 [0.1        1.2442548 ]
 [0.2        0.31281267]
 [0.3        1.9869399 ]
 [0.32341667 1.10607629]]",0,0.732
4,f,40,english,5,4,english,2024-02-13 23:27:36.026436,False,2,367,sounds\english\audio/english_728.wav,"[[  0.          -6.4565561 ]
 [  0.1          2.02882612]
 [  0.2        -40.29513079]
 [  0.3        -29.37287389]
 [  0.32341667 -32.17490136]]","[[0.         1.7247049 ]
 [0.1        1.95158608]
 [0.2        0.21085377]
 [0.3        0.85434083]
 [0.32341667 1.52436666]]",1,0.732
4,f,40,english,5,4,english,2024-02-13 23:27:36.026436,False,2,368,sounds\english\audio/english_956.wav,"[[  0.         -98.71257913]
 [  0.1        -36.05702295]
 [  0.2        -31.95582623]
 [  0.3        -81.31295359]
 [  0.32341667  45.09425789]]","[[0.         1.5828524 ]
 [0.1        0.66985857]
 [0.2        0.13798036]
 [0.3        0.22663358]
 [0.32341667 0.54862974]]",0,0.229
4,f,40,english,5,4,english,2024-02-13 23:27:36.026436,False,2,369,sounds\english\audio/english_983.wav,"[[  0.          32.38711768]
 [  0.1        -65.51600844]
 [  0.2         12.03576385]
 [  0.3        -64.14785636]
 [  0.32341667 -72.48499617]]","[[0.         0.79408654]
 [0.1        1.57845546]
 [0.2        1.23356187]
 [0.3        0.65581831]
 [0.32341667 0.27936162]]",1,0.568
4,f,40,english,5,4,english,2024-02-13 23:27:36.026436,False,2,370,sounds\english\audio/english_448.wav,"[[  0.           0.37188167]
 [  0.1        -67.82723624]
 [  0.2         65.77705469]
 [  0.3         83.31626383]
 [  0.32341667 -27.56829045]]","[[0.         1.15390094]
 [0.1        1.58767458]
 [0.2        1.13313853]
 [0.3        0.27075507]
 [0.32341667 1.20964916]]",1,0.586
4,f,40,english,5,4,english,2024-02-13 23:27:36.026436,False,2,371,sounds\english\audio/english_195.wav,"[[ 0.         88.76446124]
 [ 0.1        56.50909504]
 [ 0.2        -5.11157055]
 [ 0.3        14.19517065]
 [ 0.32341667 67.19148892]]","[[0.         0.85936173]
 [0.1        1.06337161]
 [0.2        1.01766647]
 [0.3        1.03928052]
 [0.32341667 1.18131313]]",1,0.718
4,f,40,english,5,4,english,2024-02-13 23:27:36.026436,False,2,372,sounds\english\audio/english_666.wav,"[[  0.          -6.63307831]
 [  0.1        -47.66524373]
 [  0.2         66.93817534]
 [  0.3         -1.338646  ]
 [  0.32341667 -14.31927765]]","[[0.         0.44221414]
 [0.1        1.62559692]
 [0.2        0.27313334]
 [0.3        0.46846925]
 [0.32341667 1.08883823]]",0,1.35
4,f,40,english,5,4,english,2024-02-13 23:27:36.026436,False,2,373,sounds\english\audio/english_823.wav,"[[ 0.         24.6891334 ]
 [ 0.1        86.03794788]
 [ 0.2        45.97308045]
 [ 0.3        39.11596791]
 [ 0.32341667 10.29734006]]","[[0.         1.19409205]
 [0.1        0.72053846]
 [0.2        0.2138623 ]
 [0.3        1.56743943]
 [0.32341667 1.24065623]]",0,0.823
4,f,40,english,5,4,english,2024-02-13 23:27:36.026436,False,2,374,sounds\english\audio/english_450.wav,"[[  0.          32.75253923]
 [  0.1        -95.51335644]
 [  0.2         34.87485597]
 [  0.3        -23.91285283]
 [  0.32341667  -8.67870007]]","[[0.         1.28767958]
 [0.1        1.7262356 ]
 [0.2        0.97567272]
 [0.3        1.94639387]
 [0.32341667 1.78958339]]",1,11.918
4,f,40,english,5,4,english,2024-02-13 23:27:36.026436,False,2,375,sounds\english\audio/english_17.wav,"[[  0.          54.20763778]
 [  0.1         56.90002318]
 [  0.2         53.34795505]
 [  0.3        -49.04179277]
 [  0.32341667 -46.12718147]]","[[0.         0.24306789]
 [0.1        0.93194053]
 [0.2        0.70954885]
 [0.3        1.57385934]
 [0.32341667 1.28258365]]",1,0.511
4,f,40,english,5,4,english,2024-02-13 23:27:36.026436,False,2,376,sounds\english\audio/english_618.wav,"[[  0.          58.31579708]
 [  0.1          6.96253647]
 [  0.2         -4.41581756]
 [  0.3        -63.5775247 ]
 [  0.32341667  97.77631762]]","[[0.         1.46895394]
 [0.1        0.48660613]
 [0.2        1.00963977]
 [0.3        1.29399549]
 [0.32341667 0.84060701]]",0,0.828
4,f,40,english,5,4,english,2024-02-13 23:27:36.026436,False,2,377,sounds\english\audio/english_169.wav,"[[  0.          21.52556644]
 [  0.1        -62.21960884]
 [  0.2        -58.58818316]
 [  0.3         14.95103608]
 [  0.32341667  21.70814087]]","[[0.         0.24747868]
 [0.1        0.51530303]
 [0.2        1.14352058]
 [0.3        1.46694059]
 [0.32341667 1.67980684]]",1,0.205
4,f,40,english,5,4,english,2024-02-13 23:27:36.026436,False,2,378,sounds\english\audio/english_200.wav,"[[  0.          48.98677304]
 [  0.1         13.54292536]
 [  0.2         15.98335964]
 [  0.3        -46.7743147 ]
 [  0.32341667 -12.18386714]]","[[0.         1.07797747]
 [0.1        1.23698451]
 [0.2        0.85343662]
 [0.3        1.38707984]
 [0.32341667 0.65409939]]",1,0.448
4,f,40,english,5,4,english,2024-02-13 23:27:36.026436,False,2,379,sounds\english\audio/english_685.wav,"[[  0.          91.61032892]
 [  0.1         39.6206555 ]
 [  0.2         -3.19880539]
 [  0.3        -72.84721689]
 [  0.32341667  98.11411302]]","[[0.         0.4504418 ]
 [0.1        1.04279806]
 [0.2        1.33634651]
 [0.3        1.25094987]
 [0.32341667 0.37726169]]",1,0.32
4,f,40,english,5,4,english,2024-02-13 23:27:36.026436,False,2,380,sounds\english\audio/english_211.wav,"[[  0.          37.34807541]
 [  0.1         97.98979508]
 [  0.2        -20.02981109]
 [  0.3        -69.8116311 ]
 [  0.32341667  35.11126142]]","[[0.         1.77380832]
 [0.1        1.35747523]
 [0.2        1.74013371]
 [0.3        0.94808553]
 [0.32341667 0.23094119]]",0,0.17
4,f,40,english,5,4,english,2024-02-13 23:27:36.026436,False,2,381,sounds\english\audio/english_640.wav,"[[  0.          74.95875769]
 [  0.1         87.73764633]
 [  0.2        -71.36544648]
 [  0.3         11.07583082]
 [  0.32341667  18.32643638]]","[[0.         1.81273707]
 [0.1        1.50076703]
 [0.2        0.25286143]
 [0.3        0.53181051]
 [0.32341667 0.76351343]]",1,1.427
4,f,40,english,5,4,english,2024-02-13 23:27:36.026436,False,2,382,sounds\english\audio/english_633.wav,"[[  0.         -53.72283933]
 [  0.1         14.71438877]
 [  0.2         95.18630031]
 [  0.3         96.89096157]
 [  0.32341667   8.38596779]]","[[0.         1.23998369]
 [0.1        1.35266241]
 [0.2        0.66132985]
 [0.3        0.52728002]
 [0.32341667 1.4824282 ]]",0,1.732
4,f,40,english,5,4,english,2024-02-13 23:27:36.026436,False,2,383,sounds\english\audio/english_272.wav,"[[  0.          61.82030971]
 [  0.1          4.16580657]
 [  0.2        -53.2567432 ]
 [  0.3        -52.99830768]
 [  0.32341667 -92.9943793 ]]","[[0.         1.51341556]
 [0.1        0.43290826]
 [0.2        1.82734584]
 [0.3        0.22094446]
 [0.32341667 1.88040337]]",1,0.475
4,f,40,english,5,4,english,2024-02-13 23:27:36.026436,False,2,384,sounds\english\audio/english_846.wav,"[[  0.          61.87306923]
 [  0.1         -5.64177324]
 [  0.2         86.75305487]
 [  0.3        -27.71752308]
 [  0.32341667 -26.78048177]]","[[0.         1.6800264 ]
 [0.1        0.32387551]
 [0.2        0.09122421]
 [0.3        0.55014386]
 [0.32341667 0.82256102]]",1,0.579
4,f,40,english,5,4,english,2024-02-13 23:27:36.026436,False,2,385,sounds\english\audio/english_32.wav,"[[  0.          89.50349963]
 [  0.1         51.51128255]
 [  0.2        -58.32910347]
 [  0.3         15.96172744]
 [  0.32341667  84.40449403]]","[[0.         1.73304916]
 [0.1        0.02192789]
 [0.2        1.71493142]
 [0.3        1.28451373]
 [0.32341667 1.22971166]]",0,0.334
4,f,40,english,5,4,english,2024-02-13 23:27:36.026436,False,2,386,sounds\english\audio/english_501.wav,"[[  0.          -7.07122187]
 [  0.1         10.00250781]
 [  0.2        -21.98285256]
 [  0.3         46.16062549]
 [  0.32341667  41.01655214]]","[[0.         1.4737248 ]
 [0.1        1.10212017]
 [0.2        1.65595948]
 [0.3        0.64757112]
 [0.32341667 0.36171009]]",0,0.086
4,f,40,english,5,4,english,2024-02-13 23:27:36.026436,False,2,387,sounds\english\audio/english_458.wav,"[[  0.         -49.69821038]
 [  0.1        -49.80647014]
 [  0.2         11.98261521]
 [  0.3         59.43319096]
 [  0.32341667 -34.5671642 ]]","[[0.         0.39452057]
 [0.1        1.24604375]
 [0.2        0.42272405]
 [0.3        0.21259233]
 [0.32341667 1.13235362]]",0,0.764
4,f,40,english,5,4,english,2024-02-13 23:27:36.026436,False,2,388,sounds\english\audio/english_206.wav,"[[  0.          29.86029141]
 [  0.1        -65.49550847]
 [  0.2         -8.37849199]
 [  0.3         16.32170521]
 [  0.32341667 -96.55544023]]","[[0.         0.9413203 ]
 [0.1        1.58501733]
 [0.2        1.84833856]
 [0.3        1.12864021]
 [0.32341667 0.85017735]]",1,0.479
4,f,40,english,5,4,english,2024-02-13 23:27:36.026436,False,2,389,sounds\english\audio/english_296.wav,"[[  0.          -4.92142852]
 [  0.1         -5.74196289]
 [  0.2         76.26647078]
 [  0.3        -62.74030654]
 [  0.32341667 -60.661992  ]]","[[0.         1.99305172]
 [0.1        0.92633133]
 [0.2        0.44879969]
 [0.3        1.47417428]
 [0.32341667 1.05571007]]",1,0.457
4,f,40,english,5,4,english,2024-02-13 23:27:36.026436,False,2,390,sounds\english\audio/english_786.wav,"[[  0.          50.77560123]
 [  0.1        -87.08435808]
 [  0.2        -36.07136163]
 [  0.3         98.77618087]
 [  0.32341667  86.70070823]]","[[0.         0.9907589 ]
 [0.1        0.48193409]
 [0.2        1.01949061]
 [0.3        1.06334926]
 [0.32341667 0.94164836]]",1,0.316
4,f,40,english,5,4,english,2024-02-13 23:27:36.026436,False,2,391,sounds\english\audio/english_619.wav,"[[  0.          38.53351318]
 [  0.1        -11.21157995]
 [  0.2         29.79887689]
 [  0.3         48.6384615 ]
 [  0.32341667 -66.5905708 ]]","[[0.         1.25542912]
 [0.1        0.83005785]
 [0.2        1.51254928]
 [0.3        0.37972577]
 [0.32341667 0.44889873]]",0,0.422
4,f,40,english,5,4,english,2024-02-13 23:27:36.026436,False,2,392,sounds\english\audio/english_686.wav,"[[  0.         -30.40223154]
 [  0.1         40.30213926]
 [  0.2         68.68183252]
 [  0.3         82.36920372]
 [  0.32341667   5.8000707 ]]","[[0.         0.36787347]
 [0.1        1.54584144]
 [0.2        1.54645212]
 [0.3        1.04035585]
 [0.32341667 1.51520661]]",1,0.289
4,f,40,english,5,4,english,2024-02-13 23:27:36.026436,False,2,393,sounds\english\audio/english_169.wav,"[[  0.          21.52556644]
 [  0.1        -62.21960884]
 [  0.2        -58.58818316]
 [  0.3         14.95103608]
 [  0.32341667  21.70814087]]","[[0.         0.24747868]
 [0.1        0.51530303]
 [0.2        1.14352058]
 [0.3        1.46694059]
 [0.32341667 1.67980684]]",1,0.519
4,f,40,english,5,4,english,2024-02-13 23:27:36.026436,False,2,394,sounds\english\audio/english_203.wav,"[[  0.         -22.28277813]
 [  0.1         13.21695477]
 [  0.2         63.23651974]
 [  0.3        -20.14830746]
 [  0.32341667 -78.55276631]]","[[0.         1.31475846]
 [0.1        1.08922412]
 [0.2        0.55450355]
 [0.3        1.72034007]
 [0.32341667 0.92481053]]",0,0.252
4,f,40,english,5,4,english,2024-02-13 23:27:36.026436,False,2,395,sounds\english\audio/english_98.wav,"[[  0.         -23.07451683]
 [  0.1         58.83766866]
 [  0.2         75.90401246]
 [  0.3        -86.31256295]
 [  0.32341667  26.17624316]]","[[0.         0.55932234]
 [0.1        1.03192869]
 [0.2        1.16154403]
 [0.3        0.50819795]
 [0.32341667 1.94690859]]",1,12.852
4,f,40,english,5,4,english,2024-02-13 23:27:36.026436,False,2,396,sounds\english\audio/english_207.wav,"[[  0.         -64.55688296]
 [  0.1         98.33987034]
 [  0.2        -40.48281934]
 [  0.3        -36.48143513]
 [  0.32341667 -87.11188062]]","[[0.         1.06406661]
 [0.1        1.58122859]
 [0.2        1.31381917]
 [0.3        0.83233835]
 [0.32341667 0.12663517]]",1,0.664
4,f,40,english,5,4,english,2024-02-13 23:27:36.026436,False,2,397,sounds\english\audio/english_378.wav,"[[  0.          13.37832971]
 [  0.1         17.37931074]
 [  0.2         10.9554113 ]
 [  0.3        -24.86891171]
 [  0.32341667   7.89965194]]","[[0.         0.65677047]
 [0.1        1.74134092]
 [0.2        0.67897054]
 [0.3        1.20159635]
 [0.32341667 0.27053006]]",1,0.244
4,f,40,english,5,4,english,2024-02-13 23:27:36.026436,False,2,398,sounds\english\audio/english_141.wav,"[[  0.         -85.83390244]
 [  0.1        -83.68236309]
 [  0.2        -69.95552588]
 [  0.3        -14.67715053]
 [  0.32341667  73.76142723]]","[[0.         1.36546316]
 [0.1        0.39424104]
 [0.2        1.31629396]
 [0.3        0.23786768]
 [0.32341667 0.2069198 ]]",0,0.34
4,f,40,english,5,4,english,2024-02-13 23:27:36.026436,False,2,399,sounds\english\audio/english_801.wav,"[[  0.          66.50571345]
 [  0.1        -53.03260979]
 [  0.2         -3.89459646]
 [  0.3          8.32951864]
 [  0.32341667 -87.46806733]]","[[0.         0.19311528]
 [0.1        0.48683601]
 [0.2        1.16293258]
 [0.3        1.55734707]
 [0.32341667 0.63471681]]",1,0.518
4,f,40,english,5,4,english,2024-02-13 23:27:36.026436,False,2,400,sounds\english\audio/english_381.wav,"[[  0.         -64.83599525]
 [  0.1         97.61236857]
 [  0.2        -60.27157178]
 [  0.3         84.45732791]
 [  0.32341667 -87.53832291]]","[[0.         0.77808766]
 [0.1        1.62635576]
 [0.2        0.65298664]
 [0.3        0.46881793]
 [0.32341667 1.22836965]]",1,0.533
4,f,40,english,5,4,english,2024-02-13 23:27:36.026436,False,2,401,sounds\english\audio/english_581.wav,"[[  0.          -4.1565262 ]
 [  0.1         84.55344465]
 [  0.2        -57.45750027]
 [  0.3        -14.35569009]
 [  0.32341667 -54.33758456]]","[[0.         0.01704603]
 [0.1        1.32903406]
 [0.2        1.58046526]
 [0.3        1.16633299]
 [0.32341667 1.20758605]]",1,1.92
4,f,40,english,5,4,english,2024-02-13 23:27:36.026436,False,2,402,sounds\english\audio/english_885.wav,"[[  0.          36.3288655 ]
 [  0.1        -33.4786966 ]
 [  0.2          8.05827153]
 [  0.3         84.98004341]
 [  0.32341667 -34.65749493]]","[[0.         0.78617108]
 [0.1        0.96292114]
 [0.2        0.70266535]
 [0.3        0.45613544]
 [0.32341667 0.81873504]]",0,0.19
4,f,40,english,5,4,english,2024-02-13 23:27:36.026436,False,2,403,sounds\english\audio/english_545.wav,"[[  0.          42.99494118]
 [  0.1         72.53025652]
 [  0.2          4.60849844]
 [  0.3          9.93291538]
 [  0.32341667 -11.25611892]]","[[0.         1.37740168]
 [0.1        0.91972232]
 [0.2        0.73226975]
 [0.3        1.52934768]
 [0.32341667 0.18478607]]",0,0.152
4,f,40,english,5,4,english,2024-02-13 23:27:36.026436,False,2,404,sounds\english\audio/english_416.wav,"[[  0.          26.92040942]
 [  0.1         32.98463782]
 [  0.2         94.30298269]
 [  0.3         71.4008894 ]
 [  0.32341667 -13.61584313]]","[[0.         0.66708871]
 [0.1        0.46140785]
 [0.2        0.4311344 ]
 [0.3        0.4522554 ]
 [0.32341667 0.23817019]]",1,0.537
4,f,40,english,5,4,english,2024-02-13 23:27:36.026436,False,2,405,sounds\english\audio/english_829.wav,"[[  0.          60.30417439]
 [  0.1        -26.87459656]
 [  0.2         59.05286014]
 [  0.3        -38.64739237]
 [  0.32341667  68.61732932]]","[[0.         0.94286345]
 [0.1        0.76756767]
 [0.2        1.50609211]
 [0.3        0.33518122]
 [0.32341667 1.40687349]]",1,0.418
4,f,40,english,5,4,english,2024-02-13 23:27:36.026436,False,2,406,sounds\english\audio/english_981.wav,"[[  0.         -19.49446297]
 [  0.1        -69.0386812 ]
 [  0.2        -25.77088537]
 [  0.3         65.67633712]
 [  0.32341667  -6.1640169 ]]","[[0.         1.96452006]
 [0.1        1.2006287 ]
 [0.2        0.98600753]
 [0.3        0.21362544]
 [0.32341667 0.33780549]]",1,0.456
4,f,40,english,5,4,english,2024-02-13 23:27:36.026436,False,2,407,sounds\english\audio/english_385.wav,"[[  0.         -55.07910634]
 [  0.1        -94.47680079]
 [  0.2         38.70414457]
 [  0.3        -46.17691   ]
 [  0.32341667   2.5941508 ]]","[[0.         1.75648555]
 [0.1        1.20856462]
 [0.2        0.98103352]
 [0.3        1.45745263]
 [0.32341667 0.88353815]]",1,0.397
4,f,40,english,5,4,english,2024-02-13 23:27:36.026436,False,2,408,sounds\english\audio/english_535.wav,"[[  0.          -5.32882057]
 [  0.1        -34.98045039]
 [  0.2         30.10834221]
 [  0.3        -70.22542568]
 [  0.32341667 -73.0016054 ]]","[[0.         0.21055966]
 [0.1        0.89683134]
 [0.2        1.11178172]
 [0.3        0.20123235]
 [0.32341667 0.99564794]]",1,0.501
4,f,40,english,5,4,english,2024-02-13 23:27:36.026436,False,2,409,sounds\english\audio/english_991.wav,"[[  0.         -73.33762004]
 [  0.1        -90.08677455]
 [  0.2        -98.84294029]
 [  0.3         59.84972986]
 [  0.32341667  21.03568625]]","[[0.         0.7279734 ]
 [0.1        0.374322  ]
 [0.2        0.98894361]
 [0.3        1.07774369]
 [0.32341667 0.51480923]]",1,0.242
4,f,40,english,5,4,english,2024-02-13 23:27:36.026436,False,2,410,sounds\english\audio/english_685.wav,"[[  0.          91.61032892]
 [  0.1         39.6206555 ]
 [  0.2         -3.19880539]
 [  0.3        -72.84721689]
 [  0.32341667  98.11411302]]","[[0.         0.4504418 ]
 [0.1        1.04279806]
 [0.2        1.33634651]
 [0.3        1.25094987]
 [0.32341667 0.37726169]]",1,0.993
4,f,40,english,5,4,english,2024-02-13 23:27:36.026436,False,2,411,sounds\english\audio/english_573.wav,"[[  0.         -46.41950257]
 [  0.1        -92.58424164]
 [  0.2         21.8123883 ]
 [  0.3         16.48756951]
 [  0.32341667 -54.36863361]]","[[0.         0.98293374]
 [0.1        0.99885906]
 [0.2        0.65769494]
 [0.3        0.46238493]
 [0.32341667 0.72259175]]",1,0.931
4,f,40,english,5,4,english,2024-02-13 23:27:36.026436,False,2,412,sounds\english\audio/english_247.wav,"[[  0.          48.65693284]
 [  0.1        -27.64572099]
 [  0.2        -20.19701808]
 [  0.3        -10.74442668]
 [  0.32341667  91.42432082]]","[[0.         0.25539499]
 [0.1        1.09429421]
 [0.2        0.88115619]
 [0.3        1.97859338]
 [0.32341667 0.10638235]]",1,2.495
4,f,40,english,5,4,english,2024-02-13 23:27:36.026436,False,2,413,sounds\english\audio/english_746.wav,"[[  0.          -1.32395796]
 [  0.1        -67.07117971]
 [  0.2         75.09604974]
 [  0.3        -48.59278454]
 [  0.32341667  -6.52080997]]","[[0.         1.72273729]
 [0.1        1.22961235]
 [0.2        1.29107068]
 [0.3        1.34694816]
 [0.32341667 0.94274536]]",0,0.135
4,f,40,english,5,4,english,2024-02-13 23:27:36.026436,False,2,414,sounds\english\audio/english_466.wav,"[[  0.          59.64739432]
 [  0.1        -20.63646321]
 [  0.2         62.86141463]
 [  0.3        -65.74461877]
 [  0.32341667  44.70090984]]","[[0.         1.91119383]
 [0.1        1.29572765]
 [0.2        0.99944191]
 [0.3        1.01221774]
 [0.32341667 0.89697717]]",1,0.827
4,f,40,english,5,4,english,2024-02-13 23:27:36.026436,False,2,415,sounds\english\audio/english_703.wav,"[[  0.          21.25560127]
 [  0.1         -5.61566417]
 [  0.2        -88.15973778]
 [  0.3         39.86499493]
 [  0.32341667  64.67338156]]","[[0.         1.22587136]
 [0.1        1.28752652]
 [0.2        1.61643937]
 [0.3        1.32560109]
 [0.32341667 0.74206522]]",0,0.619
4,f,40,english,5,4,english,2024-02-13 23:27:36.026436,False,2,416,sounds\english\audio/english_400.wav,"[[  0.          -9.17924521]
 [  0.1        -51.0410118 ]
 [  0.2         66.2548805 ]
 [  0.3         92.33374018]
 [  0.32341667 -60.80730989]]","[[0.         1.06898792]
 [0.1        0.05890524]
 [0.2        1.54728483]
 [0.3        1.43953162]
 [0.32341667 1.12546459]]",0,0.568
4,f,40,english,5,4,english,2024-02-13 23:27:36.026436,False,2,417,sounds\english\audio/english_65.wav,"[[  0.         -46.88015867]
 [  0.1         54.34027197]
 [  0.2        -65.46386729]
 [  0.3        -66.7533487 ]
 [  0.32341667 -12.18147599]]","[[0.         0.62230507]
 [0.1        1.12355997]
 [0.2        1.0507031 ]
 [0.3        0.71238348]
 [0.32341667 0.41048607]]",1,4.161
4,f,40,english,5,4,english,2024-02-13 23:27:36.026436,False,2,418,sounds\english\audio/english_25.wav,"[[  0.         -93.68210842]
 [  0.1        -14.41268038]
 [  0.2         72.93230065]
 [  0.3         23.28545759]
 [  0.32341667  18.09953767]]","[[0.         1.14210865]
 [0.1        1.90089654]
 [0.2        0.61137859]
 [0.3        1.93042398]
 [0.32341667 1.11869114]]",1,3.532
4,f,40,english,5,4,english,2024-02-13 23:27:36.026436,False,2,419,sounds\english\audio/english_999.wav,"[[  0.         -43.88463807]
 [  0.1        -19.69329198]
 [  0.2        -16.47401585]
 [  0.3        -27.91485083]
 [  0.32341667 -38.65265262]]","[[0.         1.5561212 ]
 [0.1        1.76032244]
 [0.2        0.67323911]
 [0.3        0.0725875 ]
 [0.32341667 0.89314247]]",1,0.43
4,f,40,english,5,4,english,2024-02-13 23:27:36.026436,False,2,420,sounds\english\audio/english_705.wav,"[[  0.           3.76426423]
 [  0.1         90.96696755]
 [  0.2        -32.86898574]
 [  0.3        -21.12550784]
 [  0.32341667  39.74077299]]","[[0.         0.9500377 ]
 [0.1        0.74173997]
 [0.2        1.78776637]
 [0.3        0.8178788 ]
 [0.32341667 1.54913024]]",0,1.325
4,f,40,english,5,4,english,2024-02-13 23:27:36.026436,False,2,421,sounds\english\audio/english_273.wav,"[[  0.         -44.98289573]
 [  0.1         24.32546199]
 [  0.2         61.84573583]
 [  0.3         -1.88803465]
 [  0.32341667  57.02125087]]","[[0.         1.94838534]
 [0.1        0.68888608]
 [0.2        1.95265796]
 [0.3        1.62060328]
 [0.32341667 0.94638053]]",0,0.215
4,f,40,english,5,4,english,2024-02-13 23:27:36.026436,False,2,422,sounds\english\audio/english_187.wav,"[[  0.         -18.35695568]
 [  0.1         10.21632188]
 [  0.2          0.69047377]
 [  0.3         67.68385624]
 [  0.32341667  48.15291114]]","[[0.         0.61755768]
 [0.1        1.6626445 ]
 [0.2        0.70950015]
 [0.3        0.8856252 ]
 [0.32341667 1.92627472]]",0,0.993
4,f,40,english,5,4,english,2024-02-13 23:27:36.026436,False,2,423,sounds\english\audio/english_445.wav,"[[  0.          88.00598922]
 [  0.1         96.51328737]
 [  0.2         29.11093561]
 [  0.3         69.6076589 ]
 [  0.32341667 -59.73938179]]","[[0.         1.42174052]
 [0.1        1.49122509]
 [0.2        0.62095286]
 [0.3        1.14630865]
 [0.32341667 1.38538671]]",0,0.385
4,f,40,english,5,4,english,2024-02-13 23:27:36.026436,False,2,424,sounds\english\audio/english_709.wav,"[[  0.         -57.85840644]
 [  0.1         -9.03046344]
 [  0.2        -83.08592789]
 [  0.3        -30.28779026]
 [  0.32341667 -42.69418167]]","[[0.         1.64294201]
 [0.1        1.39808038]
 [0.2        1.46645034]
 [0.3        1.11724372]
 [0.32341667 0.30195694]]",0,1.448
4,f,40,english,5,4,english,2024-02-13 23:27:36.026436,False,2,425,sounds\english\audio/english_683.wav,"[[  0.         -73.37543508]
 [  0.1         66.4080647 ]
 [  0.2         46.46812351]
 [  0.3         71.67755016]
 [  0.32341667   2.86253031]]","[[0.         1.70409633]
 [0.1        1.25556383]
 [0.2        0.87554738]
 [0.3        1.32863005]
 [0.32341667 0.20364682]]",0,1.942
4,f,40,english,5,4,english,2024-02-13 23:27:36.026436,False,2,426,sounds\english\audio/english_628.wav,"[[  0.         -19.71295886]
 [  0.1        -79.294697  ]
 [  0.2        -59.93256946]
 [  0.3        -18.46863719]
 [  0.32341667  53.30350975]]","[[0.         0.8960583 ]
 [0.1        1.61949508]
 [0.2        0.65483299]
 [0.3        0.12001531]
 [0.32341667 0.85308449]]",0,1.896
4,f,40,english,5,4,english,2024-02-13 23:27:36.026436,False,2,427,sounds\english\audio/english_921.wav,"[[  0.          60.93482672]
 [  0.1        -71.63665921]
 [  0.2        -30.77028929]
 [  0.3        -44.68164597]
 [  0.32341667  34.59415858]]","[[0.         0.06624465]
 [0.1        1.88925143]
 [0.2        0.40013084]
 [0.3        1.26601564]
 [0.32341667 1.98956357]]",1,0.469
4,f,40,english,5,4,english,2024-02-13 23:27:36.026436,False,2,428,sounds\english\audio/english_215.wav,"[[  0.         -93.71362427]
 [  0.1         20.4696733 ]
 [  0.2        -66.57352715]
 [  0.3         -0.6079782 ]
 [  0.32341667  -5.73921948]]","[[0.         1.31176069]
 [0.1        1.25536714]
 [0.2        1.5696385 ]
 [0.3        0.03144419]
 [0.32341667 0.79048669]]",1,1.265
4,f,40,english,5,4,english,2024-02-13 23:27:36.026436,False,2,429,sounds\english\audio/english_219.wav,"[[  0.          38.40040381]
 [  0.1        -26.23926727]
 [  0.2        -57.67558578]
 [  0.3         50.56926795]
 [  0.32341667  64.39220397]]","[[0.         1.09142553]
 [0.1        0.5740428 ]
 [0.2        1.19056911]
 [0.3        1.87089358]
 [0.32341667 1.06933149]]",1,4.051
4,f,40,english,5,4,english,2024-02-13 23:27:36.026436,False,2,430,sounds\english\audio/english_277.wav,"[[  0.          57.10742469]
 [  0.1        -91.86277199]
 [  0.2         15.18492706]
 [  0.3        -70.52173838]
 [  0.32341667  87.41438228]]","[[0.         0.00973607]
 [0.1        0.30409245]
 [0.2        1.04533503]
 [0.3        1.32138987]
 [0.32341667 0.22027268]]",1,1.021
4,f,40,english,5,4,english,2024-02-13 23:27:36.026436,False,2,431,sounds\english\audio/english_657.wav,"[[ 0.         30.03208284]
 [ 0.1        -5.57127058]
 [ 0.2         9.55793083]
 [ 0.3         3.39766504]
 [ 0.32341667 84.38659916]]","[[0.         1.42095662]
 [0.1        1.29790323]
 [0.2        0.51612643]
 [0.3        0.37671101]
 [0.32341667 1.20124021]]",1,0.199
4,f,40,english,5,4,english,2024-02-13 23:27:36.026436,False,2,432,sounds\english\audio/english_957.wav,"[[  0.          -8.34255742]
 [  0.1        -36.8236739 ]
 [  0.2          6.68978896]
 [  0.3        -85.51463088]
 [  0.32341667 -16.82289389]]","[[0.         0.77577071]
 [0.1        1.35435363]
 [0.2        0.94592229]
 [0.3        0.8988777 ]
 [0.32341667 0.34403417]]",1,0.437
4,f,40,english,5,4,english,2024-02-13 23:27:36.026436,False,2,433,sounds\english\audio/english_715.wav,"[[  0.         -64.21420564]
 [  0.1         77.40813629]
 [  0.2        -98.26791609]
 [  0.3        -32.66334796]
 [  0.32341667  93.12500574]]","[[0.         1.80154013]
 [0.1        0.51096517]
 [0.2        0.49870215]
 [0.3        0.64344691]
 [0.32341667 1.17662216]]",1,5.123
4,f,40,english,5,4,english,2024-02-13 23:27:36.026436,False,2,434,sounds\english\audio/english_79.wav,"[[  0.         -69.52518262]
 [  0.1         56.533406  ]
 [  0.2         25.92051761]
 [  0.3         81.58880491]
 [  0.32341667 -19.75719301]]","[[0.         0.23164561]
 [0.1        1.01948637]
 [0.2        0.17653141]
 [0.3        0.14868702]
 [0.32341667 0.33345335]]",1,0.926
4,f,40,english,5,4,english,2024-02-13 23:27:36.026436,False,2,435,sounds\english\audio/english_884.wav,"[[ 0.         77.1498115 ]
 [ 0.1        10.32602389]
 [ 0.2         4.15464736]
 [ 0.3        21.19252889]
 [ 0.32341667 -7.11336122]]","[[0.         1.83268558]
 [0.1        0.76817862]
 [0.2        1.59331573]
 [0.3        0.58913169]
 [0.32341667 0.81393531]]",0,0.314
4,f,40,english,5,4,english,2024-02-13 23:27:36.026436,False,2,436,sounds\english\audio/english_657.wav,"[[ 0.         30.03208284]
 [ 0.1        -5.57127058]
 [ 0.2         9.55793083]
 [ 0.3         3.39766504]
 [ 0.32341667 84.38659916]]","[[0.         1.42095662]
 [0.1        1.29790323]
 [0.2        0.51612643]
 [0.3        0.37671101]
 [0.32341667 1.20124021]]",1,0.698
4,f,40,english,5,4,english,2024-02-13 23:27:36.026436,False,2,437,sounds\english\audio/english_584.wav,"[[  0.          10.38934641]
 [  0.1         16.58552078]
 [  0.2         93.24376001]
 [  0.3        -17.62367845]
 [  0.32341667  35.31863132]]","[[0.         1.28044862]
 [0.1        0.12750447]
 [0.2        0.67889343]
 [0.3        1.20299248]
 [0.32341667 1.61660781]]",0,0.562
4,f,40,english,5,4,english,2024-02-13 23:27:36.026436,False,2,438,sounds\english\audio/english_717.wav,"[[  0.          11.70361719]
 [  0.1        -43.41962   ]
 [  0.2        -38.6653904 ]
 [  0.3        -38.11833374]
 [  0.32341667  93.29743671]]","[[0.         1.43236824]
 [0.1        0.38419888]
 [0.2        1.88953633]
 [0.3        1.28007762]
 [0.32341667 0.67082429]]",1,0.079
4,f,40,english,5,4,english,2024-02-13 23:27:36.026436,False,2,439,sounds\english\audio/english_597.wav,"[[  0.         -83.66792118]
 [  0.1        -19.98744657]
 [  0.2        -30.38458549]
 [  0.3        -63.4406446 ]
 [  0.32341667  25.67812426]]","[[0.         0.17389721]
 [0.1        0.39349672]
 [0.2        1.97590818]
 [0.3        1.84988074]
 [0.32341667 1.17620678]]",1,0.332
4,f,40,english,5,4,english,2024-02-13 23:27:36.026436,False,2,440,sounds\english\audio/english_1.wav,"[[  0.          53.99031816]
 [  0.1        -58.32145174]
 [  0.2        -86.75659624]
 [  0.3        -31.84945767]
 [  0.32341667 -59.21997754]]","[[0.         1.91732561]
 [0.1        0.75352701]
 [0.2        1.40297919]
 [0.3        0.12157709]
 [0.32341667 1.57687546]]",0,0.309
4,f,40,english,5,4,english,2024-02-13 23:27:36.026436,False,2,441,sounds\english\audio/english_969.wav,"[[  0.           0.27440165]
 [  0.1         32.90941676]
 [  0.2         65.54691775]
 [  0.3         38.11090315]
 [  0.32341667 -66.49311905]]","[[0.         1.49550116]
 [0.1        1.08086357]
 [0.2        0.25687245]
 [0.3        0.33107225]
 [0.32341667 0.72842933]]",1,0.31
4,f,40,english,5,4,english,2024-02-13 23:27:36.026436,False,2,442,sounds\english\audio/english_575.wav,"[[  0.          61.73461998]
 [  0.1        -88.57549656]
 [  0.2        -30.88461278]
 [  0.3        -63.73327026]
 [  0.32341667  -0.55806298]]","[[0.         1.8510319 ]
 [0.1        1.54102878]
 [0.2        1.19801244]
 [0.3        1.20026237]
 [0.32341667 1.04112184]]",1,0.373
4,f,40,english,5,4,english,2024-02-13 23:27:36.026436,False,2,443,sounds\english\audio/english_848.wav,"[[  0.          43.30233352]
 [  0.1        -77.77691247]
 [  0.2        -68.99020863]
 [  0.3        -43.68641023]
 [  0.32341667 -14.19502025]]","[[0.         0.12582596]
 [0.1        1.72621372]
 [0.2        1.753656  ]
 [0.3        1.37442753]
 [0.32341667 1.04930351]]",1,0.744
4,f,40,english,5,4,english,2024-02-13 23:27:36.026436,False,2,444,sounds\english\audio/english_323.wav,"[[  0.          92.33188111]
 [  0.1          4.22577609]
 [  0.2        -35.48560344]
 [  0.3          7.73763769]
 [  0.32341667  55.62458321]]","[[0.         1.59668922]
 [0.1        1.75306106]
 [0.2        1.06071567]
 [0.3        1.9328625 ]
 [0.32341667 1.27347405]]",1,0.151
4,f,40,english,5,4,english,2024-02-13 23:27:36.026436,False,2,445,sounds\english\audio/english_643.wav,"[[  0.         -40.15003434]
 [  0.1        -24.12893917]
 [  0.2        -40.66556796]
 [  0.3         75.01987067]
 [  0.32341667  29.71481383]]","[[0.         1.60262153]
 [0.1        1.7682358 ]
 [0.2        0.31725537]
 [0.3        0.56722121]
 [0.32341667 1.87277365]]",1,0.694
4,f,40,english,5,4,english,2024-02-13 23:27:36.026436,False,2,446,sounds\english\audio/english_687.wav,"[[  0.          86.90300909]
 [  0.1         79.71843279]
 [  0.2         34.94433723]
 [  0.3        -45.53952821]
 [  0.32341667  63.0204093 ]]","[[0.         0.475784  ]
 [0.1        0.40603367]
 [0.2        0.97706088]
 [0.3        0.65075382]
 [0.32341667 0.93918167]]",0,0.581
4,f,40,english,5,4,english,2024-02-13 23:27:36.026436,False,2,447,sounds\english\audio/english_499.wav,"[[  0.         -62.75547094]
 [  0.1         28.73361796]
 [  0.2        -71.86053711]
 [  0.3        -44.40399931]
 [  0.32341667  -2.72335033]]","[[0.         0.4212983 ]
 [0.1        1.54082224]
 [0.2        1.07919976]
 [0.3        1.20425095]
 [0.32341667 0.4618338 ]]",0,0.054
4,f,40,english,5,4,english,2024-02-13 23:27:36.026436,False,2,448,sounds\english\audio/english_23.wav,"[[  0.         -50.80982819]
 [  0.1         76.10516215]
 [  0.2        -90.32463898]
 [  0.3         15.76928166]
 [  0.32341667  -7.56392806]]","[[0.         0.58244855]
 [0.1        1.77510268]
 [0.2        0.60847707]
 [0.3        0.62114149]
 [0.32341667 1.60162938]]",1,0.105
4,f,40,english,5,4,english,2024-02-13 23:27:36.026436,False,2,449,sounds\english\audio/english_269.wav,"[[  0.          61.09556447]
 [  0.1         -3.97684721]
 [  0.2        -87.59080112]
 [  0.3         78.47165079]
 [  0.32341667 -52.74135522]]","[[0.         1.11606818]
 [0.1        1.55443041]
 [0.2        1.78173809]
 [0.3        1.73012946]
 [0.32341667 0.88090417]]",1,0.029
4,f,40,english,5,4,english,2024-02-13 23:27:36.026436,False,2,450,sounds\english\audio/english_639.wav,"[[  0.          -8.64176861]
 [  0.1         -2.28240571]
 [  0.2         61.07673865]
 [  0.3        -20.33592136]
 [  0.32341667 -24.05835486]]","[[0.         1.80061108]
 [0.1        0.32075858]
 [0.2        0.35362442]
 [0.3        1.48415136]
 [0.32341667 0.14560931]]",1,0.797
4,f,40,english,5,4,english,2024-02-13 23:27:36.026436,False,2,451,sounds\english\audio/english_834.wav,"[[  0.         -64.94927172]
 [  0.1         49.61052881]
 [  0.2        -25.04715585]
 [  0.3         95.09819394]
 [  0.32341667  84.16953653]]","[[0.         0.98752234]
 [0.1        1.31122352]
 [0.2        0.09065599]
 [0.3        1.07854905]
 [0.32341667 1.76453498]]",0,0.838
4,f,40,english,5,4,english,2024-02-13 23:27:36.026436,False,2,452,sounds\english\audio/english_116.wav,"[[  0.          47.3382154 ]
 [  0.1        -82.57412589]
 [  0.2         24.81754674]
 [  0.3         61.93416492]
 [  0.32341667 -97.8286579 ]]","[[0.         1.30986561]
 [0.1        0.36649927]
 [0.2        1.53598436]
 [0.3        1.65694634]
 [0.32341667 0.40343631]]",1,0.585
4,f,40,english,5,4,english,2024-02-13 23:27:36.026436,False,2,453,sounds\english\audio/english_609.wav,"[[  0.          93.61263388]
 [  0.1         38.40290552]
 [  0.2        -21.94770243]
 [  0.3        -11.92302894]
 [  0.32341667  30.65806027]]","[[0.         0.51617504]
 [0.1        0.56544547]
 [0.2        0.43418402]
 [0.3        1.38818447]
 [0.32341667 1.36410066]]",0,2.818
4,f,40,english,5,4,english,2024-02-13 23:27:36.026436,False,2,454,sounds\english\audio/english_128.wav,"[[  0.         -84.07301703]
 [  0.1          0.2051398 ]
 [  0.2         50.77588291]
 [  0.3          3.27834455]
 [  0.32341667  59.5943459 ]]","[[0.         0.96445051]
 [0.1        0.77165422]
 [0.2        0.60279997]
 [0.3        0.59915485]
 [0.32341667 0.43521132]]",1,0.286
4,f,40,english,5,4,english,2024-02-13 23:27:36.026436,False,2,455,sounds\english\audio/english_570.wav,"[[  0.          79.72420881]
 [  0.1        -10.34227762]
 [  0.2         18.32754659]
 [  0.3         15.23919529]
 [  0.32341667 -28.05357781]]","[[0.         1.67561776]
 [0.1        1.50139893]
 [0.2        1.41834695]
 [0.3        1.12876239]
 [0.32341667 0.72546523]]",1,1.029
4,f,40,english,5,4,english,2024-02-13 23:27:36.026436,False,2,456,sounds\english\audio/english_228.wav,"[[  0.          10.35680964]
 [  0.1        -84.53961792]
 [  0.2         38.41788342]
 [  0.3         -9.18015311]
 [  0.32341667 -12.25744947]]","[[0.         1.81276751]
 [0.1        0.9819477 ]
 [0.2        1.68506606]
 [0.3        0.19219142]
 [0.32341667 1.99636764]]",1,0.184
4,f,40,english,5,4,english,2024-02-13 23:27:36.026436,False,2,457,sounds\english\audio/english_406.wav,"[[  0.          28.09923375]
 [  0.1        -15.10813675]
 [  0.2        -12.43931725]
 [  0.3        -27.33468297]
 [  0.32341667 -62.66931892]]","[[0.         1.43312072]
 [0.1        0.8890381 ]
 [0.2        0.60560557]
 [0.3        1.13565345]
 [0.32341667 1.8467177 ]]",1,0.65
4,f,40,english,5,4,english,2024-02-13 23:27:36.026436,False,2,458,sounds\english\audio/english_824.wav,"[[  0.          80.46503136]
 [  0.1        -48.668347  ]
 [  0.2         37.27765876]
 [  0.3        -91.29945309]
 [  0.32341667  14.46507007]]","[[0.         1.43025592]
 [0.1        0.89138167]
 [0.2        1.91281619]
 [0.3        0.71335031]
 [0.32341667 0.89780818]]",1,0.812
4,f,40,english,5,4,english,2024-02-13 23:27:36.026436,False,2,459,sounds\english\audio/english_526.wav,"[[  0.         -32.34532461]
 [  0.1        -46.6208459 ]
 [  0.2        -42.84927068]
 [  0.3          3.47643827]
 [  0.32341667  52.79087598]]","[[0.         0.924261  ]
 [0.1        0.25414499]
 [0.2        1.01925886]
 [0.3        0.65966822]
 [0.32341667 1.50872035]]",1,0.415
4,f,40,english,5,4,english,2024-02-13 23:27:36.026436,False,2,460,sounds\english\audio/english_495.wav,"[[  0.          -5.58861003]
 [  0.1          8.95176437]
 [  0.2         39.42206983]
 [  0.3        -84.38976819]
 [  0.32341667  -2.90431636]]","[[0.         1.32978923]
 [0.1        0.81778757]
 [0.2        0.66481361]
 [0.3        0.35850052]
 [0.32341667 0.23899864]]",1,1.935
4,f,40,english,5,4,english,2024-02-13 23:27:36.026436,False,2,461,sounds\english\audio/english_25.wav,"[[  0.         -93.68210842]
 [  0.1        -14.41268038]
 [  0.2         72.93230065]
 [  0.3         23.28545759]
 [  0.32341667  18.09953767]]","[[0.         1.14210865]
 [0.1        1.90089654]
 [0.2        0.61137859]
 [0.3        1.93042398]
 [0.32341667 1.11869114]]",1,0.206
4,f,40,english,5,4,english,2024-02-13 23:27:36.026436,False,2,462,sounds\english\audio/english_989.wav,"[[  0.         -51.1051603 ]
 [  0.1        -91.26717948]
 [  0.2         73.5145218 ]
 [  0.3         54.43703181]
 [  0.32341667 -36.95823638]]","[[0.         1.00035195]
 [0.1        0.46124463]
 [0.2        0.77735517]
 [0.3        1.21549894]
 [0.32341667 0.33045291]]",0,0.177
4,f,40,english,5,4,english,2024-02-13 23:27:36.026436,False,2,463,sounds\english\audio/english_457.wav,"[[  0.         -73.30847947]
 [  0.1        -25.74413936]
 [  0.2          8.82772976]
 [  0.3         -2.30416086]
 [  0.32341667 -34.04493945]]","[[0.         0.35525387]
 [0.1        0.90483023]
 [0.2        1.30004432]
 [0.3        0.93422762]
 [0.32341667 1.31504388]]",1,0.064
4,f,40,english,5,4,english,2024-02-13 23:27:36.026436,False,2,464,sounds\english\audio/english_634.wav,"[[  0.         -94.29539956]
 [  0.1         28.41708136]
 [  0.2        -99.13935281]
 [  0.3        -78.11216949]
 [  0.32341667 -54.5881907 ]]","[[0.         0.6011183 ]
 [0.1        1.15242669]
 [0.2        0.68826906]
 [0.3        1.44169335]
 [0.32341667 0.90266094]]",1,0.268
4,f,40,english,5,4,english,2024-02-13 23:27:36.026436,False,2,465,sounds\english\audio/english_819.wav,"[[  0.          56.56933068]
 [  0.1         16.98960986]
 [  0.2        -13.59600893]
 [  0.3         79.1710335 ]
 [  0.32341667  25.34620926]]","[[0.         1.61805944]
 [0.1        1.69207785]
 [0.2        1.33633205]
 [0.3        0.49452457]
 [0.32341667 1.97134574]]",1,1.756
4,f,40,english,5,4,english,2024-02-13 23:27:36.026436,False,2,466,sounds\english\audio/english_973.wav,"[[  0.          67.86183821]
 [  0.1         19.68291271]
 [  0.2         97.35795082]
 [  0.3        -17.83494635]
 [  0.32341667 -53.451809  ]]","[[0.         1.19015671]
 [0.1        0.58574514]
 [0.2        0.11672587]
 [0.3        0.43523095]
 [0.32341667 1.74630461]]",0,0.573
4,f,40,english,5,4,english,2024-02-13 23:27:36.026436,False,2,467,sounds\english\audio/english_355.wav,"[[  0.          33.6784286 ]
 [  0.1         30.74796889]
 [  0.2         71.39310534]
 [  0.3         38.16266559]
 [  0.32341667 -39.8799084 ]]","[[0.         1.28512049]
 [0.1        1.04729355]
 [0.2        0.74339822]
 [0.3        0.86152361]
 [0.32341667 1.83215587]]",1,8.314
4,f,40,english,5,4,english,2024-02-13 23:27:36.026436,False,2,468,sounds\english\audio/english_523.wav,"[[ 0.          8.07414344]
 [ 0.1        27.61667564]
 [ 0.2        12.25175146]
 [ 0.3         5.7333769 ]
 [ 0.32341667 77.72310536]]","[[0.         0.20594791]
 [0.1        1.87511385]
 [0.2        0.19246655]
 [0.3        0.42766967]
 [0.32341667 1.43882185]]",1,0.706
4,f,40,english,5,4,english,2024-02-13 23:27:36.026436,False,2,469,sounds\english\audio/english_374.wav,"[[  0.         -43.98521466]
 [  0.1        -24.87181663]
 [  0.2        -29.31566683]
 [  0.3        -43.36019392]
 [  0.32341667 -35.5175379 ]]","[[0.         1.11607514]
 [0.1        0.38249505]
 [0.2        1.56774755]
 [0.3        1.33837662]
 [0.32341667 0.68793086]]",1,0.67
4,f,40,english,5,4,english,2024-02-13 23:27:36.026436,False,2,470,sounds\english\audio/english_903.wav,"[[  0.          73.58848698]
 [  0.1        -95.58060262]
 [  0.2         17.41642173]
 [  0.3         94.35223882]
 [  0.32341667 -49.48803877]]","[[0.         0.30588109]
 [0.1        0.88963747]
 [0.2        1.73634476]
 [0.3        0.71257749]
 [0.32341667 1.4824474 ]]",1,0.053
4,f,40,english,5,4,english,2024-02-13 23:27:36.026436,False,2,471,sounds\english\audio/english_255.wav,"[[  0.         -42.74550593]
 [  0.1         35.44578771]
 [  0.2         98.7346041 ]
 [  0.3         14.08839822]
 [  0.32341667 -55.38739786]]","[[0.         1.65518669]
 [0.1        1.85823386]
 [0.2        1.2123315 ]
 [0.3        0.62099519]
 [0.32341667 1.08486436]]",1,3.816
4,f,40,english,5,4,english,2024-02-13 23:27:36.026436,False,2,472,sounds\english\audio/english_887.wav,"[[  0.          21.36154006]
 [  0.1        -21.46213737]
 [  0.2        -45.53850124]
 [  0.3        -75.36110743]
 [  0.32341667 -96.67184991]]","[[0.         0.58574694]
 [0.1        0.48413962]
 [0.2        1.16923549]
 [0.3        1.46190157]
 [0.32341667 0.00789239]]",1,0.324
4,f,40,english,5,4,english,2024-02-13 23:27:36.026436,False,2,473,sounds\english\audio/english_839.wav,"[[  0.          48.1700809 ]
 [  0.1         -8.22030768]
 [  0.2         53.56121636]
 [  0.3          4.54416263]
 [  0.32341667 -19.83463627]]","[[0.         1.1821708 ]
 [0.1        1.15480022]
 [0.2        1.57293091]
 [0.3        0.22310878]
 [0.32341667 0.67140257]]",0,1.096
4,f,40,english,5,4,english,2024-02-13 23:27:36.026436,False,2,474,sounds\english\audio/english_832.wav,"[[  0.         -21.62855277]
 [  0.1        -35.3834786 ]
 [  0.2         52.65867494]
 [  0.3         62.52082964]
 [  0.32341667  46.66062952]]","[[0.         1.31372842]
 [0.1        1.55258378]
 [0.2        1.50567803]
 [0.3        1.2163301 ]
 [0.32341667 1.20100353]]",0,0.602
4,f,40,english,5,4,english,2024-02-13 23:27:36.026436,False,2,475,sounds\english\audio/english_282.wav,"[[  0.           0.76940706]
 [  0.1         85.14494722]
 [  0.2        -92.43433596]
 [  0.3        -98.42888083]
 [  0.32341667 -32.58662549]]","[[0.         0.32837311]
 [0.1        0.39977994]
 [0.2        0.62065738]
 [0.3        0.06200237]
 [0.32341667 1.4193679 ]]",0,1.842
4,f,40,english,5,4,english,2024-02-13 23:27:36.026436,False,2,476,sounds\english\audio/english_626.wav,"[[  0.           4.25415757]
 [  0.1        -41.27415217]
 [  0.2        -74.74598363]
 [  0.3        -15.94741517]
 [  0.32341667  43.51897949]]","[[0.         0.7037323 ]
 [0.1        1.26912647]
 [0.2        0.17760594]
 [0.3        1.12963497]
 [0.32341667 0.85087029]]",1,0.534
4,f,40,english,5,4,english,2024-02-13 23:27:36.026436,False,2,477,sounds\english\audio/english_843.wav,"[[  0.         -34.38568909]
 [  0.1         91.48235516]
 [  0.2         45.43581208]
 [  0.3         47.04005582]
 [  0.32341667  30.80916685]]","[[0.         1.38988397]
 [0.1        0.61638546]
 [0.2        1.5800421 ]
 [0.3        1.07327256]
 [0.32341667 0.46994626]]",1,0.208
4,f,40,english,5,4,english,2024-02-13 23:27:36.026436,False,2,478,sounds\english\audio/english_205.wav,"[[  0.          55.03693902]
 [  0.1         59.05347117]
 [  0.2        -51.93258482]
 [  0.3        -18.66886592]
 [  0.32341667 -25.16213195]]","[[0.         1.41699591]
 [0.1        0.25749205]
 [0.2        1.78695407]
 [0.3        0.11157042]
 [0.32341667 1.74030417]]",1,0.558
4,f,40,english,5,4,english,2024-02-13 23:27:36.026436,False,2,479,sounds\english\audio/english_1.wav,"[[  0.          53.99031816]
 [  0.1        -58.32145174]
 [  0.2        -86.75659624]
 [  0.3        -31.84945767]
 [  0.32341667 -59.21997754]]","[[0.         1.91732561]
 [0.1        0.75352701]
 [0.2        1.40297919]
 [0.3        0.12157709]
 [0.32341667 1.57687546]]",0,0.152
4,f,40,english,5,4,english,2024-02-13 23:27:36.026436,False,2,480,sounds\english\audio/english_377.wav,"[[  0.          74.10679581]
 [  0.1        -97.36412995]
 [  0.2        -84.25672888]
 [  0.3         27.09308902]
 [  0.32341667 -12.33253686]]","[[0.         1.90218841]
 [0.1        1.60160035]
 [0.2        1.668912  ]
 [0.3        1.51590505]
 [0.32341667 0.99909344]]",0,1.249
4,f,40,english,5,4,english,2024-02-13 23:27:36.026436,False,2,481,sounds\english\audio/english_288.wav,"[[  0.          35.15100251]
 [  0.1         49.55485069]
 [  0.2         28.604189  ]
 [  0.3         38.59633835]
 [  0.32341667 -98.9026904 ]]","[[0.         1.01330681]
 [0.1        0.90213232]
 [0.2        1.8181607 ]
 [0.3        1.82579698]
 [0.32341667 0.14571105]]",0,0.239
4,f,40,english,5,4,english,2024-02-13 23:27:36.026436,False,2,482,sounds\english\audio/english_656.wav,"[[  0.          -4.15957802]
 [  0.1        -31.70283109]
 [  0.2        -35.90055673]
 [  0.3        -27.39202404]
 [  0.32341667  -5.54715508]]","[[0.         0.9962349 ]
 [0.1        1.16669679]
 [0.2        0.85512169]
 [0.3        1.68840921]
 [0.32341667 1.5699395 ]]",1,0.273
4,f,40,english,5,4,english,2024-02-13 23:27:36.026436,False,2,483,sounds\english\audio/english_485.wav,"[[  0.          -7.08941798]
 [  0.1        -70.64579204]
 [  0.2         23.79115045]
 [  0.3          0.80487994]
 [  0.32341667   4.72097057]]","[[0.         1.8206563 ]
 [0.1        0.10660577]
 [0.2        1.92760945]
 [0.3        0.77499174]
 [0.32341667 1.20070888]]",1,0.396
4,f,40,english,5,4,english,2024-02-13 23:27:36.026436,False,2,484,sounds\english\audio/english_578.wav,"[[  0.         -76.90925642]
 [  0.1        -68.48676994]
 [  0.2         36.30884798]
 [  0.3        -36.82491274]
 [  0.32341667  -4.04717442]]","[[0.         1.21901793]
 [0.1        1.4118495 ]
 [0.2        0.05521057]
 [0.3        1.45629656]
 [0.32341667 1.80268091]]",1,0.75
4,f,40,english,5,4,english,2024-02-13 23:27:36.026436,False,2,485,sounds\english\audio/english_863.wav,"[[  0.          52.03013683]
 [  0.1         21.53783975]
 [  0.2        -42.8061331 ]
 [  0.3         -9.69253087]
 [  0.32341667  56.44290307]]","[[0.         1.83111202]
 [0.1        0.9779226 ]
 [0.2        1.19089157]
 [0.3        0.269847  ]
 [0.32341667 0.87913369]]",0,0.212
4,f,40,english,5,4,english,2024-02-13 23:27:36.026436,False,2,486,sounds\english\audio/english_360.wav,"[[  0.         -50.57937638]
 [  0.1        -29.22164644]
 [  0.2        -88.45421248]
 [  0.3         93.68039656]
 [  0.32341667  -2.59092547]]","[[0.         0.73788637]
 [0.1        0.6487653 ]
 [0.2        0.73193848]
 [0.3        1.75347372]
 [0.32341667 1.19277037]]",1,0.077
4,f,40,english,5,4,english,2024-02-13 23:27:36.026436,False,2,487,sounds\english\audio/english_371.wav,"[[  0.          44.65928585]
 [  0.1          2.85031152]
 [  0.2        -57.71166213]
 [  0.3        -66.93032782]
 [  0.32341667  13.43806553]]","[[0.         0.25571852]
 [0.1        1.3562861 ]
 [0.2        1.30905236]
 [0.3        1.33160076]
 [0.32341667 0.62192137]]",1,0.59
4,f,40,english,5,4,english,2024-02-13 23:27:36.026436,False,2,488,sounds\english\audio/english_371.wav,"[[  0.          44.65928585]
 [  0.1          2.85031152]
 [  0.2        -57.71166213]
 [  0.3        -66.93032782]
 [  0.32341667  13.43806553]]","[[0.         0.25571852]
 [0.1        1.3562861 ]
 [0.2        1.30905236]
 [0.3        1.33160076]
 [0.32341667 0.62192137]]",1,0.229
4,f,40,english,5,4,english,2024-02-13 23:27:36.026436,False,2,489,sounds\english\audio/english_329.wav,"[[  0.         -48.89108629]
 [  0.1         55.67852038]
 [  0.2         48.16827585]
 [  0.3         73.70818564]
 [  0.32341667  85.70797026]]","[[0.         1.2424848 ]
 [0.1        1.73811564]
 [0.2        0.4928271 ]
 [0.3        0.68407289]
 [0.32341667 1.92917435]]",0,0.502
4,f,40,english,5,4,english,2024-02-13 23:27:36.026436,False,2,490,sounds\english\audio/english_639.wav,"[[  0.          -8.64176861]
 [  0.1         -2.28240571]
 [  0.2         61.07673865]
 [  0.3        -20.33592136]
 [  0.32341667 -24.05835486]]","[[0.         1.80061108]
 [0.1        0.32075858]
 [0.2        0.35362442]
 [0.3        1.48415136]
 [0.32341667 0.14560931]]",0,2.407
4,f,40,english,5,4,english,2024-02-13 23:27:36.026436,False,2,491,sounds\english\audio/english_19.wav,"[[  0.          51.84788699]
 [  0.1         59.68091475]
 [  0.2        -27.71167756]
 [  0.3        -29.56443604]
 [  0.32341667 -58.55228515]]","[[0.         0.3981759 ]
 [0.1        1.61217409]
 [0.2        0.35158216]
 [0.3        0.8770992 ]
 [0.32341667 0.51670124]]",1,0.236
4,f,40,english,5,4,english,2024-02-13 23:27:36.026436,False,2,492,sounds\english\audio/english_23.wav,"[[  0.         -50.80982819]
 [  0.1         76.10516215]
 [  0.2        -90.32463898]
 [  0.3         15.76928166]
 [  0.32341667  -7.56392806]]","[[0.         0.58244855]
 [0.1        1.77510268]
 [0.2        0.60847707]
 [0.3        0.62114149]
 [0.32341667 1.60162938]]",1,0.394
4,f,40,english,5,4,english,2024-02-13 23:27:36.026436,False,2,493,sounds\english\audio/english_303.wav,"[[  0.          67.00540241]
 [  0.1         32.95821842]
 [  0.2        -23.67517146]
 [  0.3        -66.94926695]
 [  0.32341667  65.71723135]]","[[0.         1.22520816]
 [0.1        1.22732479]
 [0.2        0.54923068]
 [0.3        0.8977578 ]
 [0.32341667 1.41807679]]",1,0.242
4,f,40,english,5,4,english,2024-02-13 23:27:36.026436,False,2,494,sounds\english\audio/english_522.wav,"[[  0.          11.68148217]
 [  0.1        -74.55265788]
 [  0.2         95.15954448]
 [  0.3        -17.14209769]
 [  0.32341667 -35.38302731]]","[[0.         0.44643579]
 [0.1        0.16885459]
 [0.2        1.67161326]
 [0.3        0.53349848]
 [0.32341667 0.4645726 ]]",1,0.9
4,f,40,english,5,4,english,2024-02-13 23:27:36.026436,False,2,495,sounds\english\audio/english_238.wav,"[[  0.          87.78466979]
 [  0.1         65.39287108]
 [  0.2        -38.39100082]
 [  0.3        -20.01297649]
 [  0.32341667  78.31880556]]","[[0.         1.0750983 ]
 [0.1        0.03626896]
 [0.2        1.9832234 ]
 [0.3        0.17604691]
 [0.32341667 1.61383808]]",1,0.656
4,f,40,english,5,4,english,2024-02-13 23:27:36.026436,False,2,496,sounds\english\audio/english_846.wav,"[[  0.          61.87306923]
 [  0.1         -5.64177324]
 [  0.2         86.75305487]
 [  0.3        -27.71752308]
 [  0.32341667 -26.78048177]]","[[0.         1.6800264 ]
 [0.1        0.32387551]
 [0.2        0.09122421]
 [0.3        0.55014386]
 [0.32341667 0.82256102]]",0,0.405
4,f,40,english,5,4,english,2024-02-13 23:27:36.026436,False,2,497,sounds\english\audio/english_235.wav,"[[  0.          -1.09951899]
 [  0.1        -96.83918407]
 [  0.2         96.22116446]
 [  0.3         48.9502898 ]
 [  0.32341667  38.18641725]]","[[0.         1.56432712]
 [0.1        0.18127978]
 [0.2        1.26168206]
 [0.3        1.98140435]
 [0.32341667 0.52366779]]",0,0.156
4,f,40,english,5,4,english,2024-02-13 23:27:36.026436,False,2,498,sounds\english\audio/english_458.wav,"[[  0.         -49.69821038]
 [  0.1        -49.80647014]
 [  0.2         11.98261521]
 [  0.3         59.43319096]
 [  0.32341667 -34.5671642 ]]","[[0.         0.39452057]
 [0.1        1.24604375]
 [0.2        0.42272405]
 [0.3        0.21259233]
 [0.32341667 1.13235362]]",0,0.256
4,f,40,english,5,4,english,2024-02-13 23:27:36.026436,False,2,499,sounds\english\audio/english_274.wav,"[[  0.         -30.61452779]
 [  0.1        -42.14612233]
 [  0.2         32.00602795]
 [  0.3        -37.74375581]
 [  0.32341667 -54.5397802 ]]","[[0.         0.78021116]
 [0.1        1.93993358]
 [0.2        0.32963606]
 [0.3        1.46133782]
 [0.32341667 1.53178785]]",0,0.647
4,f,40,english,5,4,english,2024-02-13 23:27:36.026436,False,2,500,sounds\english\audio/english_582.wav,"[[  0.         -29.81423477]
 [  0.1         37.42565533]
 [  0.2         79.58894888]
 [  0.3         49.55779855]
 [  0.32341667  54.00509918]]","[[0.         0.27230029]
 [0.1        0.84765039]
 [0.2        1.99526631]
 [0.3        1.55519667]
 [0.32341667 1.66653349]]",1,0.171
4,f,40,english,5,4,english,2024-02-13 23:27:36.026436,False,2,501,sounds\english\audio/english_466.wav,"[[  0.          59.64739432]
 [  0.1        -20.63646321]
 [  0.2         62.86141463]
 [  0.3        -65.74461877]
 [  0.32341667  44.70090984]]","[[0.         1.91119383]
 [0.1        1.29572765]
 [0.2        0.99944191]
 [0.3        1.01221774]
 [0.32341667 0.89697717]]",0,0.23
4,f,40,english,5,4,english,2024-02-13 23:27:36.026436,False,2,502,sounds\english\audio/english_516.wav,"[[  0.         -37.49134217]
 [  0.1         56.61653956]
 [  0.2         60.98574822]
 [  0.3         -0.52682824]
 [  0.32341667 -50.41932267]]","[[0.         0.47483782]
 [0.1        1.0523806 ]
 [0.2        0.59798137]
 [0.3        0.6957238 ]
 [0.32341667 1.76373844]]",0,0.253
