subj,sex,age,language,english,french,native_lang,date,practice,block,trial,stim,pitch,stretch,response,rt
8731382169,f,20,english,5,4,english,2024-01-25 10:41:53.868247,False,2,253,sounds\english\audio/english_726.wav,"[[  0.          76.65318619]
 [  0.1         62.97746083]
 [  0.2        -20.72245964]
 [  0.3         42.64953343]
 [  0.32341667  23.5514061 ]]","[[0.         0.71374833]
 [0.1        1.94407191]
 [0.2        0.55951675]
 [0.3        0.7826891 ]
 [0.32341667 0.11592549]]",1,1.999
8731382169,f,20,english,5,4,english,2024-01-25 10:41:53.868247,False,2,254,sounds\english\audio/english_808.wav,"[[  0.          23.02589628]
 [  0.1         10.58817829]
 [  0.2         36.77134597]
 [  0.3        -30.31603221]
 [  0.32341667   9.74764343]]","[[0.         1.07384277]
 [0.1        1.3919179 ]
 [0.2        0.54960524]
 [0.3        1.95871365]
 [0.32341667 0.79150541]]",1,1.756
8731382169,f,20,english,5,4,english,2024-01-25 10:41:53.868247,False,2,255,sounds\english\audio/english_23.wav,"[[  0.         -50.80982819]
 [  0.1         76.10516215]
 [  0.2        -90.32463898]
 [  0.3         15.76928166]
 [  0.32341667  -7.56392806]]","[[0.         0.58244855]
 [0.1        1.77510268]
 [0.2        0.60847707]
 [0.3        0.62114149]
 [0.32341667 1.60162938]]",1,1.013
8731382169,f,20,english,5,4,english,2024-01-25 10:41:53.868247,False,2,256,sounds\english\audio/english_226.wav,"[[  0.         -56.53605181]
 [  0.1         -5.93547338]
 [  0.2        -81.0596442 ]
 [  0.3        -12.14261426]
 [  0.32341667  40.67667876]]","[[0.         0.51185795]
 [0.1        0.73377568]
 [0.2        1.62034912]
 [0.3        0.19474782]
 [0.32341667 0.1395898 ]]",1,1.607
8731382169,f,20,english,5,4,english,2024-01-25 10:41:53.868247,False,2,257,sounds\english\audio/english_533.wav,"[[  0.         -10.36570298]
 [  0.1        -67.04420928]
 [  0.2        -31.24691396]
 [  0.3        -22.73912087]
 [  0.32341667  -4.63915005]]","[[0.         0.10013008]
 [0.1        1.73583104]
 [0.2        1.00550506]
 [0.3        1.21009828]
 [0.32341667 1.69946188]]",0,2.917
8731382169,f,20,english,5,4,english,2024-01-25 10:41:53.868247,False,2,258,sounds\english\audio/english_208.wav,"[[  0.         -16.36413188]
 [  0.1         25.67725806]
 [  0.2         15.43722313]
 [  0.3        -39.3158007 ]
 [  0.32341667  38.48956167]]","[[0.         1.19542909]
 [0.1        0.42717457]
 [0.2        1.01088833]
 [0.3        1.09044814]
 [0.32341667 1.60091335]]",1,2.804
8731382169,f,20,english,5,4,english,2024-01-25 10:41:53.868247,False,2,259,sounds\english\audio/english_371.wav,"[[  0.          44.65928585]
 [  0.1          2.85031152]
 [  0.2        -57.71166213]
 [  0.3        -66.93032782]
 [  0.32341667  13.43806553]]","[[0.         0.25571852]
 [0.1        1.3562861 ]
 [0.2        1.30905236]
 [0.3        1.33160076]
 [0.32341667 0.62192137]]",1,1.562
8731382169,f,20,english,5,4,english,2024-01-25 10:41:53.868247,False,2,260,sounds\english\audio/english_993.wav,"[[  0.         -66.15449332]
 [  0.1         33.08083728]
 [  0.2         51.46479562]
 [  0.3        -80.58676237]
 [  0.32341667  81.97884737]]","[[0.         1.17508471]
 [0.1        0.94744004]
 [0.2        0.74931244]
 [0.3        0.35628979]
 [0.32341667 1.25416847]]",1,1.403
8731382169,f,20,english,5,4,english,2024-01-25 10:41:53.868247,False,2,261,sounds\english\audio/english_813.wav,"[[ 0.         55.66932548]
 [ 0.1        81.68960615]
 [ 0.2        55.75765178]
 [ 0.3        -1.25572602]
 [ 0.32341667 95.15429199]]","[[0.         1.32885027]
 [0.1        1.76450173]
 [0.2        0.71046445]
 [0.3        1.00431818]
 [0.32341667 0.60962601]]",1,2.081
8731382169,f,20,english,5,4,english,2024-01-25 10:41:53.868247,False,2,262,sounds\english\audio/english_121.wav,"[[  0.         -30.24687583]
 [  0.1        -28.09260766]
 [  0.2        -29.54951374]
 [  0.3        -37.35286973]
 [  0.32341667  58.68529554]]","[[0.         0.23154591]
 [0.1        0.6680997 ]
 [0.2        1.79539672]
 [0.3        0.57554739]
 [0.32341667 1.8709958 ]]",1,1.521
8731382169,f,20,english,5,4,english,2024-01-25 10:41:53.868247,False,2,263,sounds\english\audio/english_782.wav,"[[  0.         -98.70381677]
 [  0.1        -69.82387258]
 [  0.2         35.26613747]
 [  0.3        -81.38004879]
 [  0.32341667 -61.83067014]]","[[0.         1.47488053]
 [0.1        0.7270016 ]
 [0.2        0.08778447]
 [0.3        1.16903228]
 [0.32341667 0.92727902]]",1,1.178
8731382169,f,20,english,5,4,english,2024-01-25 10:41:53.868247,False,2,264,sounds\english\audio/english_442.wav,"[[  0.          -5.21319176]
 [  0.1        -16.23989513]
 [  0.2        -36.77315909]
 [  0.3        -33.51446291]
 [  0.32341667 -25.07447919]]","[[0.         1.35819452]
 [0.1        1.66019663]
 [0.2        0.51170704]
 [0.3        1.6590932 ]
 [0.32341667 0.97998973]]",1,1.262
8731382169,f,20,english,5,4,english,2024-01-25 10:41:53.868247,False,2,265,sounds\english\audio/english_1000.wav,"[[  0.          27.35321797]
 [  0.1         42.13438871]
 [  0.2         95.34760893]
 [  0.3        -34.10168873]
 [  0.32341667  64.49689477]]","[[0.         1.01803417]
 [0.1        0.4558176 ]
 [0.2        0.52251179]
 [0.3        0.90165507]
 [0.32341667 0.38395199]]",1,1.596
8731382169,f,20,english,5,4,english,2024-01-25 10:41:53.868247,False,2,266,sounds\english\audio/english_748.wav,"[[  0.           0.23647087]
 [  0.1         45.60572596]
 [  0.2          6.14588966]
 [  0.3        -10.39850874]
 [  0.32341667  -7.86503132]]","[[0.         0.91094575]
 [0.1        1.68800655]
 [0.2        1.37684191]
 [0.3        0.70556294]
 [0.32341667 1.52987196]]",0,2.056
8731382169,f,20,english,5,4,english,2024-01-25 10:41:53.868247,False,2,267,sounds\english\audio/english_540.wav,"[[  0.         -46.6752609 ]
 [  0.1        -93.20209644]
 [  0.2         64.96419662]
 [  0.3        -12.16484387]
 [  0.32341667 -44.34688232]]","[[0.         1.16352469]
 [0.1        0.0234781 ]
 [0.2        0.05926191]
 [0.3        1.47406284]
 [0.32341667 0.60104864]]",1,2.171
8731382169,f,20,english,5,4,english,2024-01-25 10:41:53.868247,False,2,268,sounds\english\audio/english_925.wav,"[[  0.         -23.38055082]
 [  0.1         12.69502826]
 [  0.2         77.53463838]
 [  0.3         58.05299948]
 [  0.32341667  54.12197927]]","[[0.         1.07708889]
 [0.1        1.65606803]
 [0.2        0.48648737]
 [0.3        0.8939016 ]
 [0.32341667 0.72199492]]",1,1.944
8731382169,f,20,english,5,4,english,2024-01-25 10:41:53.868247,False,2,269,sounds\english\audio/english_776.wav,"[[  0.          29.86548478]
 [  0.1          2.8025705 ]
 [  0.2        -38.4768188 ]
 [  0.3        -89.49838949]
 [  0.32341667  30.18488016]]","[[0.         0.57139857]
 [0.1        1.94435619]
 [0.2        0.3951066 ]
 [0.3        0.29859462]
 [0.32341667 1.93939037]]",1,1.002
8731382169,f,20,english,5,4,english,2024-01-25 10:41:53.868247,False,2,270,sounds\english\audio/english_975.wav,"[[  0.          30.76275893]
 [  0.1        -18.30184736]
 [  0.2         88.92209311]
 [  0.3        -15.78836893]
 [  0.32341667  81.69873146]]","[[0.         1.75032315]
 [0.1        1.1766706 ]
 [0.2        0.11148121]
 [0.3        1.00992181]
 [0.32341667 1.08252971]]",1,1.119
8731382169,f,20,english,5,4,english,2024-01-25 10:41:53.868247,False,2,271,sounds\english\audio/english_518.wav,"[[  0.          52.37511869]
 [  0.1        -33.3490586 ]
 [  0.2        -71.20035434]
 [  0.3          6.23243823]
 [  0.32341667 -29.48660546]]","[[0.         0.23824141]
 [0.1        0.80559068]
 [0.2        1.24725456]
 [0.3        1.01334401]
 [0.32341667 1.51264586]]",1,0.481
8731382169,f,20,english,5,4,english,2024-01-25 10:41:53.868247,False,2,272,sounds\english\audio/english_852.wav,"[[  0.         -59.21906832]
 [  0.1          5.96662808]
 [  0.2         12.29830648]
 [  0.3        -98.20735767]
 [  0.32341667  -0.5186354 ]]","[[0.         1.76087743]
 [0.1        0.85304022]
 [0.2        0.5029047 ]
 [0.3        0.66544939]
 [0.32341667 0.26669214]]",1,0.837
8731382169,f,20,english,5,4,english,2024-01-25 10:41:53.868247,False,2,273,sounds\english\audio/english_321.wav,"[[ 0.          2.07721816]
 [ 0.1        59.48735819]
 [ 0.2        64.78149714]
 [ 0.3        65.58393414]
 [ 0.32341667 14.66673939]]","[[0.         1.69623759]
 [0.1        1.35736687]
 [0.2        1.92920457]
 [0.3        0.66559077]
 [0.32341667 1.66523208]]",1,0.295
8731382169,f,20,english,5,4,english,2024-01-25 10:41:53.868247,False,2,274,sounds\english\audio/english_446.wav,"[[  0.         -50.90487531]
 [  0.1         77.9515464 ]
 [  0.2         12.96913102]
 [  0.3         31.20275809]
 [  0.32341667 -30.39700356]]","[[0.         0.84721497]
 [0.1        0.90863808]
 [0.2        0.45582271]
 [0.3        0.65529325]
 [0.32341667 0.08422993]]",1,1.224
8731382169,f,20,english,5,4,english,2024-01-25 10:41:53.868247,False,2,275,sounds\english\audio/english_783.wav,"[[ 0.         23.05268069]
 [ 0.1         9.36005369]
 [ 0.2        62.81522218]
 [ 0.3        67.71456376]
 [ 0.32341667 77.96788237]]","[[0.         1.49549247]
 [0.1        0.13797177]
 [0.2        1.80236654]
 [0.3        0.33800471]
 [0.32341667 1.97708045]]",0,0.758
8731382169,f,20,english,5,4,english,2024-01-25 10:41:53.868247,False,2,276,sounds\english\audio/english_352.wav,"[[  0.          71.64354449]
 [  0.1         53.2516906 ]
 [  0.2         28.90726554]
 [  0.3        -49.8940387 ]
 [  0.32341667  21.76832357]]","[[0.         0.18312459]
 [0.1        1.19991438]
 [0.2        1.21095973]
 [0.3        1.61067418]
 [0.32341667 1.26376439]]",1,2.086
8731382169,f,20,english,5,4,english,2024-01-25 10:41:53.868247,False,2,277,sounds\english\audio/english_487.wav,"[[  0.          57.34447058]
 [  0.1        -38.59224607]
 [  0.2        -30.93562102]
 [  0.3        -21.39452484]
 [  0.32341667 -98.93333205]]","[[0.         0.27098038]
 [0.1        1.03105808]
 [0.2        0.17810411]
 [0.3        0.81608244]
 [0.32341667 1.1056793 ]]",1,2.895
8731382169,f,20,english,5,4,english,2024-01-25 10:41:53.868247,False,2,278,sounds\english\audio/english_288.wav,"[[  0.          35.15100251]
 [  0.1         49.55485069]
 [  0.2         28.604189  ]
 [  0.3         38.59633835]
 [  0.32341667 -98.9026904 ]]","[[0.         1.01330681]
 [0.1        0.90213232]
 [0.2        1.8181607 ]
 [0.3        1.82579698]
 [0.32341667 0.14571105]]",1,1.306
8731382169,f,20,english,5,4,english,2024-01-25 10:41:53.868247,False,2,279,sounds\english\audio/english_909.wav,"[[  0.         -19.4205152 ]
 [  0.1        -31.830868  ]
 [  0.2         71.05598051]
 [  0.3        -13.09259164]
 [  0.32341667 -99.47743822]]","[[0.         0.17681169]
 [0.1        1.02014656]
 [0.2        1.59945112]
 [0.3        1.33685121]
 [0.32341667 0.41114962]]",1,0.845
8731382169,f,20,english,5,4,english,2024-01-25 10:41:53.868247,False,2,280,sounds\english\audio/english_729.wav,"[[  0.          31.16849918]
 [  0.1        -74.04657477]
 [  0.2         98.28479208]
 [  0.3         45.68234461]
 [  0.32341667 -23.12232547]]","[[0.         1.30127688]
 [0.1        1.28998605]
 [0.2        0.71365363]
 [0.3        0.61436371]
 [0.32341667 0.96520681]]",0,1.499
8731382169,f,20,english,5,4,english,2024-01-25 10:41:53.868247,False,2,281,sounds\english\audio/english_338.wav,"[[  0.         -22.40965878]
 [  0.1        -10.16153496]
 [  0.2        -50.2449588 ]
 [  0.3         14.05674122]
 [  0.32341667 -78.35339858]]","[[0.         1.93572195]
 [0.1        1.78994992]
 [0.2        1.38134059]
 [0.3        1.78462007]
 [0.32341667 1.2607094 ]]",0,1.495
8731382169,f,20,english,5,4,english,2024-01-25 10:41:53.868247,False,2,282,sounds\english\audio/english_240.wav,"[[  0.         -96.55121617]
 [  0.1         73.99435309]
 [  0.2        -27.17256968]
 [  0.3         -2.05185553]
 [  0.32341667  80.37406519]]","[[0.         1.04823872]
 [0.1        1.11556714]
 [0.2        0.68795106]
 [0.3        1.30325309]
 [0.32341667 0.86977317]]",0,4.221
8731382169,f,20,english,5,4,english,2024-01-25 10:41:53.868247,False,2,283,sounds\english\audio/english_818.wav,"[[  0.          88.49542613]
 [  0.1         -7.37005163]
 [  0.2         -1.58613611]
 [  0.3        -69.41222379]
 [  0.32341667  14.01707612]]","[[0.         1.4873036 ]
 [0.1        1.25102077]
 [0.2        0.80764036]
 [0.3        0.80656775]
 [0.32341667 1.41859799]]",1,0.878
8731382169,f,20,english,5,4,english,2024-01-25 10:41:53.868247,False,2,284,sounds\english\audio/english_851.wav,"[[  0.         -83.90491711]
 [  0.1         92.94065497]
 [  0.2        -63.47542883]
 [  0.3         13.34025436]
 [  0.32341667  32.96474042]]","[[0.         1.65488062]
 [0.1        0.14315595]
 [0.2        0.84481863]
 [0.3        1.9580918 ]
 [0.32341667 0.23608581]]",0,1.915
8731382169,f,20,english,5,4,english,2024-01-25 10:41:53.868247,False,2,285,sounds\english\audio/english_273.wav,"[[  0.         -44.98289573]
 [  0.1         24.32546199]
 [  0.2         61.84573583]
 [  0.3         -1.88803465]
 [  0.32341667  57.02125087]]","[[0.         1.94838534]
 [0.1        0.68888608]
 [0.2        1.95265796]
 [0.3        1.62060328]
 [0.32341667 0.94638053]]",0,2.424
8731382169,f,20,english,5,4,english,2024-01-25 10:41:53.868247,False,2,286,sounds\english\audio/english_630.wav,"[[  0.          97.25925287]
 [  0.1         76.95662127]
 [  0.2          5.01423186]
 [  0.3        -27.88706711]
 [  0.32341667  90.69966072]]","[[0.         0.34607754]
 [0.1        0.15996234]
 [0.2        1.73874617]
 [0.3        0.41181915]
 [0.32341667 0.77788697]]",1,1.614
8731382169,f,20,english,5,4,english,2024-01-25 10:41:53.868247,False,2,287,sounds\english\audio/english_293.wav,"[[  0.         -22.15906653]
 [  0.1        -88.62057809]
 [  0.2        -18.47979893]
 [  0.3        -74.2852497 ]
 [  0.32341667  59.45323022]]","[[0.         1.76366583]
 [0.1        0.55660069]
 [0.2        1.17282558]
 [0.3        0.49477424]
 [0.32341667 0.66659794]]",0,1.636
8731382169,f,20,english,5,4,english,2024-01-25 10:41:53.868247,False,2,288,sounds\english\audio/english_276.wav,"[[  0.         -87.25523595]
 [  0.1         16.91650801]
 [  0.2        -40.09372932]
 [  0.3          3.19229046]
 [  0.32341667  18.84785296]]","[[0.         1.1918401 ]
 [0.1        0.89399115]
 [0.2        0.89701806]
 [0.3        1.98333504]
 [0.32341667 1.85350493]]",0,1.946
8731382169,f,20,english,5,4,english,2024-01-25 10:41:53.868247,False,2,289,sounds\english\audio/english_610.wav,"[[  0.         -14.96432812]
 [  0.1         48.51886955]
 [  0.2         47.07358548]
 [  0.3         17.30383174]
 [  0.32341667   1.51764356]]","[[0.         0.5672697 ]
 [0.1        0.75156182]
 [0.2        0.38846335]
 [0.3        1.52072292]
 [0.32341667 1.56024836]]",0,2.15
8731382169,f,20,english,5,4,english,2024-01-25 10:41:53.868247,False,2,290,sounds\english\audio/english_801.wav,"[[  0.          66.50571345]
 [  0.1        -53.03260979]
 [  0.2         -3.89459646]
 [  0.3          8.32951864]
 [  0.32341667 -87.46806733]]","[[0.         0.19311528]
 [0.1        0.48683601]
 [0.2        1.16293258]
 [0.3        1.55734707]
 [0.32341667 0.63471681]]",1,1.491
8731382169,f,20,english,5,4,english,2024-01-25 10:41:53.868247,False,2,291,sounds\english\audio/english_682.wav,"[[  0.         -19.80167737]
 [  0.1        -30.98220326]
 [  0.2         26.07010201]
 [  0.3         -7.79776739]
 [  0.32341667 -10.9148898 ]]","[[0.         1.6131825 ]
 [0.1        1.03205672]
 [0.2        1.08357256]
 [0.3        1.70642947]
 [0.32341667 0.86858281]]",0,1.365
8731382169,f,20,english,5,4,english,2024-01-25 10:41:53.868247,False,2,292,sounds\english\audio/english_419.wav,"[[  0.          74.10926047]
 [  0.1        -50.44969368]
 [  0.2        -38.37630765]
 [  0.3        -57.54140712]
 [  0.32341667  48.12555486]]","[[0.00000000e+00 4.23980314e-01]
 [1.00000000e-01 1.12483838e+00]
 [2.00000000e-01 4.73465541e-01]
 [3.00000000e-01 8.38613621e-04]
 [3.23416667e-01 3.89285402e-01]]",0,2.534
8731382169,f,20,english,5,4,english,2024-01-25 10:41:53.868247,False,2,293,sounds\english\audio/english_857.wav,"[[  0.         -33.07031843]
 [  0.1         12.9349985 ]
 [  0.2          4.33682254]
 [  0.3         90.68056828]
 [  0.32341667  37.69781409]]","[[0.         1.04325491]
 [0.1        0.44078978]
 [0.2        1.36028147]
 [0.3        1.16905302]
 [0.32341667 1.24618942]]",0,1.655
8731382169,f,20,english,5,4,english,2024-01-25 10:41:53.868247,False,2,294,sounds\english\audio/english_44.wav,"[[  0.         -68.86201344]
 [  0.1         36.61833882]
 [  0.2        -60.65796264]
 [  0.3        -99.582901  ]
 [  0.32341667  68.59920212]]","[[0.         1.38154723]
 [0.1        0.11193842]
 [0.2        0.83798569]
 [0.3        0.3073865 ]
 [0.32341667 1.10922951]]",1,1.119
8731382169,f,20,english,5,4,english,2024-01-25 10:41:53.868247,False,2,295,sounds\english\audio/english_744.wav,"[[  0.          43.39686976]
 [  0.1        -61.67573043]
 [  0.2          0.51873183]
 [  0.3         12.88130512]
 [  0.32341667  57.31714449]]","[[0.         0.75505854]
 [0.1        1.01311725]
 [0.2        0.73457108]
 [0.3        0.90154102]
 [0.32341667 1.01338509]]",0,2.54
8731382169,f,20,english,5,4,english,2024-01-25 10:41:53.868247,False,2,296,sounds\english\audio/english_591.wav,"[[  0.         -17.23532002]
 [  0.1        -55.20494434]
 [  0.2        -36.65883109]
 [  0.3         75.34514139]
 [  0.32341667  31.2832342 ]]","[[0.         0.16408748]
 [0.1        0.21361432]
 [0.2        0.19384467]
 [0.3        0.82850175]
 [0.32341667 1.471328  ]]",1,2.018
8731382169,f,20,english,5,4,english,2024-01-25 10:41:53.868247,False,2,297,sounds\english\audio/english_594.wav,"[[  0.         -85.15725243]
 [  0.1         18.57908242]
 [  0.2        -52.1381203 ]
 [  0.3         77.56862162]
 [  0.32341667  89.7133381 ]]","[[0.         1.49995106]
 [0.1        1.36683942]
 [0.2        1.31792707]
 [0.3        0.76119001]
 [0.32341667 1.77084997]]",0,0.832
8731382169,f,20,english,5,4,english,2024-01-25 10:41:53.868247,False,2,298,sounds\english\audio/english_489.wav,"[[  0.           5.7057461 ]
 [  0.1        -88.87009038]
 [  0.2         73.69789316]
 [  0.3          8.66804208]
 [  0.32341667 -19.53009002]]","[[0.         0.60142671]
 [0.1        1.38499056]
 [0.2        0.38073994]
 [0.3        0.90212706]
 [0.32341667 1.00729778]]",1,2.244
8731382169,f,20,english,5,4,english,2024-01-25 10:41:53.868247,False,2,299,sounds\english\audio/english_554.wav,"[[  0.           9.57607907]
 [  0.1         29.37398753]
 [  0.2        -58.71210794]
 [  0.3        -10.7927705 ]
 [  0.32341667  21.8128915 ]]","[[0.         1.93967122]
 [0.1        1.74360796]
 [0.2        0.37945994]
 [0.3        1.56347046]
 [0.32341667 1.38248676]]",0,4.33
8731382169,f,20,english,5,4,english,2024-01-25 10:41:53.868247,False,2,300,sounds\english\audio/english_362.wav,"[[  0.          12.71485551]
 [  0.1        -18.83660308]
 [  0.2        -52.07271323]
 [  0.3        -29.96931661]
 [  0.32341667  -9.99178163]]","[[0.         1.44490364]
 [0.1        1.3029027 ]
 [0.2        1.10609828]
 [0.3        1.18379787]
 [0.32341667 1.80996789]]",1,0.496
8731382169,f,20,english,5,4,english,2024-01-25 10:41:53.868247,False,2,301,sounds\english\audio/english_768.wav,"[[  0.         -28.93145359]
 [  0.1         59.49166151]
 [  0.2         41.87955621]
 [  0.3        -92.17589111]
 [  0.32341667  15.2364545 ]]","[[0.         1.5002074 ]
 [0.1        1.15432208]
 [0.2        0.01731471]
 [0.3        0.98337229]
 [0.32341667 0.4381055 ]]",1,0.86
8731382169,f,20,english,5,4,english,2024-01-25 10:41:53.868247,False,2,302,sounds\english\audio/english_798.wav,"[[  0.         -16.40769998]
 [  0.1          3.00381127]
 [  0.2        -31.24410556]
 [  0.3        -53.27973877]
 [  0.32341667  91.43563813]]","[[0.         1.85457914]
 [0.1        1.50219522]
 [0.2        0.78751403]
 [0.3        1.17339142]
 [0.32341667 1.30184409]]",0,1.975
8731382169,f,20,english,5,4,english,2024-01-25 10:41:53.868247,False,2,303,sounds\english\audio/english_146.wav,"[[  0.          -7.47107612]
 [  0.1        -10.73298436]
 [  0.2         -4.63341632]
 [  0.3         14.65491039]
 [  0.32341667  19.96333333]]","[[0.         0.36907021]
 [0.1        0.24473139]
 [0.2        1.01983542]
 [0.3        0.62607899]
 [0.32341667 1.1005899 ]]",1,0.995
8731382169,f,20,english,5,4,english,2024-01-25 10:41:53.868247,False,2,304,sounds\english\audio/english_702.wav,"[[  0.         -19.6614881 ]
 [  0.1        -92.60133235]
 [  0.2        -18.01071493]
 [  0.3         91.54675011]
 [  0.32341667  23.09112348]]","[[0.         1.13820402]
 [0.1        1.47755069]
 [0.2        1.33705675]
 [0.3        0.59768286]
 [0.32341667 0.82103567]]",0,0.867
8731382169,f,20,english,5,4,english,2024-01-25 10:41:53.868247,False,2,305,sounds\english\audio/english_619.wav,"[[  0.          38.53351318]
 [  0.1        -11.21157995]
 [  0.2         29.79887689]
 [  0.3         48.6384615 ]
 [  0.32341667 -66.5905708 ]]","[[0.         1.25542912]
 [0.1        0.83005785]
 [0.2        1.51254928]
 [0.3        0.37972577]
 [0.32341667 0.44889873]]",1,0.976
8731382169,f,20,english,5,4,english,2024-01-25 10:41:53.868247,False,2,306,sounds\english\audio/english_929.wav,"[[  0.          29.19700723]
 [  0.1         15.63825327]
 [  0.2          3.65085895]
 [  0.3        -91.18848108]
 [  0.32341667  53.29025089]]","[[0.         1.75028237]
 [0.1        0.16776534]
 [0.2        0.15899819]
 [0.3        0.41497916]
 [0.32341667 0.946821  ]]",1,1.267
8731382169,f,20,english,5,4,english,2024-01-25 10:41:53.868247,False,2,307,sounds\english\audio/english_277.wav,"[[  0.          57.10742469]
 [  0.1        -91.86277199]
 [  0.2         15.18492706]
 [  0.3        -70.52173838]
 [  0.32341667  87.41438228]]","[[0.         0.00973607]
 [0.1        0.30409245]
 [0.2        1.04533503]
 [0.3        1.32138987]
 [0.32341667 0.22027268]]",0,3.213
8731382169,f,20,english,5,4,english,2024-01-25 10:41:53.868247,False,2,308,sounds\english\audio/english_670.wav,"[[  0.          64.75672565]
 [  0.1         85.95156369]
 [  0.2        -44.32949438]
 [  0.3         22.57192219]
 [  0.32341667  34.74005277]]","[[0.         1.5535903 ]
 [0.1        0.12522594]
 [0.2        0.22842632]
 [0.3        0.17636502]
 [0.32341667 0.16208776]]",0,0.802
8731382169,f,20,english,5,4,english,2024-01-25 10:41:53.868247,False,2,309,sounds\english\audio/english_746.wav,"[[  0.          -1.32395796]
 [  0.1        -67.07117971]
 [  0.2         75.09604974]
 [  0.3        -48.59278454]
 [  0.32341667  -6.52080997]]","[[0.         1.72273729]
 [0.1        1.22961235]
 [0.2        1.29107068]
 [0.3        1.34694816]
 [0.32341667 0.94274536]]",0,1.04
8731382169,f,20,english,5,4,english,2024-01-25 10:41:53.868247,False,2,310,sounds\english\audio/english_281.wav,"[[  0.         -55.42099824]
 [  0.1         30.44020676]
 [  0.2         53.34739709]
 [  0.3        -32.26512488]
 [  0.32341667 -59.86883114]]","[[0.         1.64310908]
 [0.1        0.76997124]
 [0.2        0.1940809 ]
 [0.3        0.25794937]
 [0.32341667 1.27043487]]",1,0.909
8731382169,f,20,english,5,4,english,2024-01-25 10:41:53.868247,False,2,311,sounds\english\audio/english_619.wav,"[[  0.          38.53351318]
 [  0.1        -11.21157995]
 [  0.2         29.79887689]
 [  0.3         48.6384615 ]
 [  0.32341667 -66.5905708 ]]","[[0.         1.25542912]
 [0.1        0.83005785]
 [0.2        1.51254928]
 [0.3        0.37972577]
 [0.32341667 0.44889873]]",0,0.876
8731382169,f,20,english,5,4,english,2024-01-25 10:41:53.868247,False,2,312,sounds\english\audio/english_871.wav,"[[  0.          84.63625516]
 [  0.1        -19.11058767]
 [  0.2         49.1497137 ]
 [  0.3        -83.07816512]
 [  0.32341667  11.22002909]]","[[0.         0.21643415]
 [0.1        1.23538017]
 [0.2        1.26375285]
 [0.3        0.03257235]
 [0.32341667 1.90703832]]",1,1.223
8731382169,f,20,english,5,4,english,2024-01-25 10:41:53.868247,False,2,313,sounds\english\audio/english_382.wav,"[[  0.         -83.35497559]
 [  0.1          7.83115402]
 [  0.2         77.46115257]
 [  0.3         89.755233  ]
 [  0.32341667 -36.08570956]]","[[0.         1.24516413]
 [0.1        0.59675254]
 [0.2        0.61036026]
 [0.3        1.95554414]
 [0.32341667 1.60845727]]",0,1.737
8731382169,f,20,english,5,4,english,2024-01-25 10:41:53.868247,False,2,314,sounds\english\audio/english_466.wav,"[[  0.          59.64739432]
 [  0.1        -20.63646321]
 [  0.2         62.86141463]
 [  0.3        -65.74461877]
 [  0.32341667  44.70090984]]","[[0.         1.91119383]
 [0.1        1.29572765]
 [0.2        0.99944191]
 [0.3        1.01221774]
 [0.32341667 0.89697717]]",0,0.817
8731382169,f,20,english,5,4,english,2024-01-25 10:41:53.868247,False,2,315,sounds\english\audio/english_133.wav,"[[  0.          12.35833749]
 [  0.1         40.12315016]
 [  0.2         21.09458129]
 [  0.3        -98.82286682]
 [  0.32341667 -85.44748976]]","[[0.         0.72635311]
 [0.1        1.38782059]
 [0.2        0.15947395]
 [0.3        0.28433836]
 [0.32341667 1.2581514 ]]",0,0.78
8731382169,f,20,english,5,4,english,2024-01-25 10:41:53.868247,False,2,316,sounds\english\audio/english_466.wav,"[[  0.          59.64739432]
 [  0.1        -20.63646321]
 [  0.2         62.86141463]
 [  0.3        -65.74461877]
 [  0.32341667  44.70090984]]","[[0.         1.91119383]
 [0.1        1.29572765]
 [0.2        0.99944191]
 [0.3        1.01221774]
 [0.32341667 0.89697717]]",0,0.766
8731382169,f,20,english,5,4,english,2024-01-25 10:41:53.868247,False,2,317,sounds\english\audio/english_973.wav,"[[  0.          67.86183821]
 [  0.1         19.68291271]
 [  0.2         97.35795082]
 [  0.3        -17.83494635]
 [  0.32341667 -53.451809  ]]","[[0.         1.19015671]
 [0.1        0.58574514]
 [0.2        0.11672587]
 [0.3        0.43523095]
 [0.32341667 1.74630461]]",0,0.798
8731382169,f,20,english,5,4,english,2024-01-25 10:41:53.868247,False,2,318,sounds\english\audio/english_850.wav,"[[  0.          79.79173837]
 [  0.1        -44.24877139]
 [  0.2         74.77623955]
 [  0.3        -86.32612653]
 [  0.32341667 -11.10230867]]","[[0.         1.46721922]
 [0.1        0.57242606]
 [0.2        0.15597525]
 [0.3        1.3358867 ]
 [0.32341667 1.14618682]]",0,1.536
8731382169,f,20,english,5,4,english,2024-01-25 10:41:53.868247,False,2,319,sounds\english\audio/english_905.wav,"[[  0.          73.76258642]
 [  0.1         49.84186991]
 [  0.2        -84.55275191]
 [  0.3         70.45460649]
 [  0.32341667 -84.87734561]]","[[0.         1.30259847]
 [0.1        0.15786419]
 [0.2        0.47562292]
 [0.3        1.69272047]
 [0.32341667 1.28570309]]",1,0.712
8731382169,f,20,english,5,4,english,2024-01-25 10:41:53.868247,False,2,320,sounds\english\audio/english_108.wav,"[[  0.         -20.69942707]
 [  0.1        -59.42152954]
 [  0.2         -8.09170222]
 [  0.3         21.99826779]
 [  0.32341667  56.38973361]]","[[0.         0.77052949]
 [0.1        1.01445352]
 [0.2        0.42363715]
 [0.3        1.45799831]
 [0.32341667 1.71498507]]",0,1.239
8731382169,f,20,english,5,4,english,2024-01-25 10:41:53.868247,False,2,321,sounds\english\audio/english_223.wav,"[[  0.         -51.58222533]
 [  0.1        -36.02700064]
 [  0.2        -35.4915315 ]
 [  0.3          1.26892628]
 [  0.32341667  72.37143842]]","[[0.         0.62889348]
 [0.1        1.73736573]
 [0.2        1.20130681]
 [0.3        0.53176439]
 [0.32341667 1.24562253]]",1,1.477
8731382169,f,20,english,5,4,english,2024-01-25 10:41:53.868247,False,2,322,sounds\english\audio/english_980.wav,"[[  0.         -32.33629208]
 [  0.1         -4.4140807 ]
 [  0.2         76.81412515]
 [  0.3        -16.24877133]
 [  0.32341667 -26.44128118]]","[[0.         1.21290567]
 [0.1        0.22350007]
 [0.2        1.68078519]
 [0.3        0.16816052]
 [0.32341667 1.48722631]]",1,0.708
8731382169,f,20,english,5,4,english,2024-01-25 10:41:53.868247,False,2,323,sounds\english\audio/english_219.wav,"[[  0.          38.40040381]
 [  0.1        -26.23926727]
 [  0.2        -57.67558578]
 [  0.3         50.56926795]
 [  0.32341667  64.39220397]]","[[0.         1.09142553]
 [0.1        0.5740428 ]
 [0.2        1.19056911]
 [0.3        1.87089358]
 [0.32341667 1.06933149]]",1,0.913
8731382169,f,20,english,5,4,english,2024-01-25 10:41:53.868247,False,2,324,sounds\english\audio/english_219.wav,"[[  0.          38.40040381]
 [  0.1        -26.23926727]
 [  0.2        -57.67558578]
 [  0.3         50.56926795]
 [  0.32341667  64.39220397]]","[[0.         1.09142553]
 [0.1        0.5740428 ]
 [0.2        1.19056911]
 [0.3        1.87089358]
 [0.32341667 1.06933149]]",1,0.892
8731382169,f,20,english,5,4,english,2024-01-25 10:41:53.868247,False,2,325,sounds\english\audio/english_97.wav,"[[  0.          57.21139396]
 [  0.1         -7.40408397]
 [  0.2         77.7995227 ]
 [  0.3        -51.1747528 ]
 [  0.32341667  77.11982253]]","[[0.         1.63402743]
 [0.1        0.54734888]
 [0.2        1.5228594 ]
 [0.3        1.13050105]
 [0.32341667 0.82586999]]",1,0.748
8731382169,f,20,english,5,4,english,2024-01-25 10:41:53.868247,False,2,326,sounds\english\audio/english_613.wav,"[[  0.         -12.80235787]
 [  0.1         38.67858639]
 [  0.2         21.08834288]
 [  0.3         94.81469787]
 [  0.32341667  18.45506868]]","[[0.         0.8409713 ]
 [0.1        0.30410002]
 [0.2        0.031636  ]
 [0.3        1.79222997]
 [0.32341667 1.98455664]]",0,1.022
8731382169,f,20,english,5,4,english,2024-01-25 10:41:53.868247,False,2,327,sounds\english\audio/english_956.wav,"[[  0.         -98.71257913]
 [  0.1        -36.05702295]
 [  0.2        -31.95582623]
 [  0.3        -81.31295359]
 [  0.32341667  45.09425789]]","[[0.         1.5828524 ]
 [0.1        0.66985857]
 [0.2        0.13798036]
 [0.3        0.22663358]
 [0.32341667 0.54862974]]",0,0.712
8731382169,f,20,english,5,4,english,2024-01-25 10:41:53.868247,False,2,328,sounds\english\audio/english_342.wav,"[[  0.          78.00911228]
 [  0.1        -28.67768894]
 [  0.2         73.55618202]
 [  0.3         93.0509223 ]
 [  0.32341667  -2.74816459]]","[[0.         0.99673345]
 [0.1        1.80563483]
 [0.2        1.38552336]
 [0.3        0.17145116]
 [0.32341667 0.15059009]]",0,1.237
8731382169,f,20,english,5,4,english,2024-01-25 10:41:53.868247,False,2,329,sounds\english\audio/english_463.wav,"[[  0.         -17.89775534]
 [  0.1        -21.51631701]
 [  0.2        -12.53951077]
 [  0.3         33.47501925]
 [  0.32341667 -93.09525534]]","[[0.         1.84132871]
 [0.1        1.66361617]
 [0.2        0.64060514]
 [0.3        1.01091097]
 [0.32341667 0.69499506]]",0,0.724
8731382169,f,20,english,5,4,english,2024-01-25 10:41:53.868247,False,2,330,sounds\english\audio/english_689.wav,"[[  0.          42.02822248]
 [  0.1        -61.92185233]
 [  0.2         -8.45156809]
 [  0.3         15.09500637]
 [  0.32341667   8.33163023]]","[[0.         1.89069384]
 [0.1        0.33123617]
 [0.2        0.5478675 ]
 [0.3        0.80334133]
 [0.32341667 1.42024866]]",0,2.217
8731382169,f,20,english,5,4,english,2024-01-25 10:41:53.868247,False,2,331,sounds\english\audio/english_849.wav,"[[  0.         -24.45439181]
 [  0.1        -64.97605389]
 [  0.2        -67.78874915]
 [  0.3         -6.53184928]
 [  0.32341667  59.1884023 ]]","[[0.         1.62147024]
 [0.1        1.28655358]
 [0.2        0.154454  ]
 [0.3        1.49227138]
 [0.32341667 1.08662162]]",0,0.653
8731382169,f,20,english,5,4,english,2024-01-25 10:41:53.868247,False,2,332,sounds\english\audio/english_321.wav,"[[ 0.          2.07721816]
 [ 0.1        59.48735819]
 [ 0.2        64.78149714]
 [ 0.3        65.58393414]
 [ 0.32341667 14.66673939]]","[[0.         1.69623759]
 [0.1        1.35736687]
 [0.2        1.92920457]
 [0.3        0.66559077]
 [0.32341667 1.66523208]]",1,1.258
8731382169,f,20,english,5,4,english,2024-01-25 10:41:53.868247,False,2,333,sounds\english\audio/english_714.wav,"[[  0.           6.62463448]
 [  0.1         -7.37775178]
 [  0.2        -58.74003357]
 [  0.3        -38.84014254]
 [  0.32341667 -23.67047323]]","[[0.         0.98205871]
 [0.1        1.90018259]
 [0.2        1.33033281]
 [0.3        0.20009115]
 [0.32341667 0.44650169]]",1,0.805
8731382169,f,20,english,5,4,english,2024-01-25 10:41:53.868247,False,2,334,sounds\english\audio/english_53.wav,"[[  0.           5.97237457]
 [  0.1        -76.12131912]
 [  0.2         55.18337216]
 [  0.3         70.32610425]
 [  0.32341667  26.40450832]]","[[0.         0.42230306]
 [0.1        0.60624646]
 [0.2        0.26369256]
 [0.3        1.07400525]
 [0.32341667 0.2721545 ]]",1,1.448
8731382169,f,20,english,5,4,english,2024-01-25 10:41:53.868247,False,2,335,sounds\english\audio/english_782.wav,"[[  0.         -98.70381677]
 [  0.1        -69.82387258]
 [  0.2         35.26613747]
 [  0.3        -81.38004879]
 [  0.32341667 -61.83067014]]","[[0.         1.47488053]
 [0.1        0.7270016 ]
 [0.2        0.08778447]
 [0.3        1.16903228]
 [0.32341667 0.92727902]]",0,1.132
8731382169,f,20,english,5,4,english,2024-01-25 10:41:53.868247,False,2,336,sounds\english\audio/english_259.wav,"[[  0.           7.90187791]
 [  0.1         31.67295647]
 [  0.2        -53.65780041]
 [  0.3        -72.94929757]
 [  0.32341667  58.35152721]]","[[0.         1.3064553 ]
 [0.1        1.01100372]
 [0.2        0.35520266]
 [0.3        1.35187683]
 [0.32341667 1.39599087]]",1,0.966
8731382169,f,20,english,5,4,english,2024-01-25 10:41:53.868247,False,2,337,sounds\english\audio/english_295.wav,"[[  0.         -76.51454746]
 [  0.1        -96.9380047 ]
 [  0.2        -72.79782389]
 [  0.3        -31.86888898]
 [  0.32341667 -51.47839766]]","[[0.         1.12273409]
 [0.1        0.2018376 ]
 [0.2        1.81703153]
 [0.3        0.31799467]
 [0.32341667 0.71777059]]",1,2.245
8731382169,f,20,english,5,4,english,2024-01-25 10:41:53.868247,False,2,338,sounds\english\audio/english_150.wav,"[[  0.         -51.77489255]
 [  0.1         16.7322824 ]
 [  0.2        -56.19561079]
 [  0.3         36.81691324]
 [  0.32341667 -97.11243964]]","[[0.         0.6625495 ]
 [0.1        1.26353984]
 [0.2        0.38378194]
 [0.3        1.59154348]
 [0.32341667 0.94821753]]",1,0.755
8731382169,f,20,english,5,4,english,2024-01-25 10:41:53.868247,False,2,339,sounds\english\audio/english_576.wav,"[[  0.          70.71636046]
 [  0.1        -53.10414049]
 [  0.2         34.4374047 ]
 [  0.3         19.64113521]
 [  0.32341667  36.63265498]]","[[0.         1.40655209]
 [0.1        0.7609351 ]
 [0.2        1.0155723 ]
 [0.3        1.45906276]
 [0.32341667 1.49724695]]",1,2.271
8731382169,f,20,english,5,4,english,2024-01-25 10:41:53.868247,False,2,340,sounds\english\audio/english_169.wav,"[[  0.          21.52556644]
 [  0.1        -62.21960884]
 [  0.2        -58.58818316]
 [  0.3         14.95103608]
 [  0.32341667  21.70814087]]","[[0.         0.24747868]
 [0.1        0.51530303]
 [0.2        1.14352058]
 [0.3        1.46694059]
 [0.32341667 1.67980684]]",1,0.64
8731382169,f,20,english,5,4,english,2024-01-25 10:41:53.868247,False,2,341,sounds\english\audio/english_508.wav,"[[  0.         -21.23116318]
 [  0.1        -27.56583205]
 [  0.2         64.21774851]
 [  0.3         -9.24056951]
 [  0.32341667  -9.74670904]]","[[0.         1.79614382]
 [0.1        0.60449395]
 [0.2        0.56582153]
 [0.3        1.01665474]
 [0.32341667 0.78905044]]",1,1.188
8731382169,f,20,english,5,4,english,2024-01-25 10:41:53.868247,False,2,342,sounds\english\audio/english_569.wav,"[[  0.         -44.4695194 ]
 [  0.1         50.36705327]
 [  0.2        -76.17438636]
 [  0.3         55.47083669]
 [  0.32341667 -10.68913609]]","[[0.         1.56768834]
 [0.1        0.42032873]
 [0.2        0.31133764]
 [0.3        0.91900801]
 [0.32341667 1.26529561]]",0,0.548
8731382169,f,20,english,5,4,english,2024-01-25 10:41:53.868247,False,2,343,sounds\english\audio/english_194.wav,"[[  0.          46.99725025]
 [  0.1        -37.20381284]
 [  0.2         13.86947558]
 [  0.3         79.77232086]
 [  0.32341667  49.46244041]]","[[0.         0.38230397]
 [0.1        1.33246395]
 [0.2        1.31276464]
 [0.3        0.22397005]
 [0.32341667 1.74931967]]",1,1.916
8731382169,f,20,english,5,4,english,2024-01-25 10:41:53.868247,False,2,344,sounds\english\audio/english_456.wav,"[[ 0.         43.57092671]
 [ 0.1        59.73787768]
 [ 0.2        82.18665257]
 [ 0.3        84.09992258]
 [ 0.32341667 14.68455092]]","[[0.         0.12750432]
 [0.1        0.97340157]
 [0.2        0.43547726]
 [0.3        1.17970357]
 [0.32341667 0.64309566]]",1,0.915
8731382169,f,20,english,5,4,english,2024-01-25 10:41:53.868247,False,2,345,sounds\english\audio/english_604.wav,"[[  0.          11.37360706]
 [  0.1        -50.20832577]
 [  0.2        -34.39542541]
 [  0.3         -9.87560088]
 [  0.32341667  34.71454295]]","[[0.         1.9162078 ]
 [0.1        0.59247461]
 [0.2        1.79911242]
 [0.3        0.998763  ]
 [0.32341667 0.76768671]]",1,1.407
8731382169,f,20,english,5,4,english,2024-01-25 10:41:53.868247,False,2,346,sounds\english\audio/english_572.wav,"[[  0.         -16.16189062]
 [  0.1        -40.8511413 ]
 [  0.2        -77.3747243 ]
 [  0.3         87.62803369]
 [  0.32341667  81.6005998 ]]","[[0.         1.82210005]
 [0.1        0.80249033]
 [0.2        0.69959732]
 [0.3        0.43311894]
 [0.32341667 1.25204325]]",0,0.462
8731382169,f,20,english,5,4,english,2024-01-25 10:41:53.868247,False,2,347,sounds\english\audio/english_829.wav,"[[  0.          60.30417439]
 [  0.1        -26.87459656]
 [  0.2         59.05286014]
 [  0.3        -38.64739237]
 [  0.32341667  68.61732932]]","[[0.         0.94286345]
 [0.1        0.76756767]
 [0.2        1.50609211]
 [0.3        0.33518122]
 [0.32341667 1.40687349]]",1,0.746
8731382169,f,20,english,5,4,english,2024-01-25 10:41:53.868247,False,2,348,sounds\english\audio/english_689.wav,"[[  0.          42.02822248]
 [  0.1        -61.92185233]
 [  0.2         -8.45156809]
 [  0.3         15.09500637]
 [  0.32341667   8.33163023]]","[[0.         1.89069384]
 [0.1        0.33123617]
 [0.2        0.5478675 ]
 [0.3        0.80334133]
 [0.32341667 1.42024866]]",0,0.889
8731382169,f,20,english,5,4,english,2024-01-25 10:41:53.868247,False,2,349,sounds\english\audio/english_190.wav,"[[  0.          81.66607819]
 [  0.1        -14.16938067]
 [  0.2         15.7443745 ]
 [  0.3         85.77694093]
 [  0.32341667  33.21115004]]","[[0.00000000e+00 1.26715216e-01]
 [1.00000000e-01 1.78349903e-04]
 [2.00000000e-01 1.35192229e+00]
 [3.00000000e-01 1.08905811e+00]
 [3.23416667e-01 1.75580408e+00]]",1,0.641
8731382169,f,20,english,5,4,english,2024-01-25 10:41:53.868247,False,2,350,sounds\english\audio/english_554.wav,"[[  0.           9.57607907]
 [  0.1         29.37398753]
 [  0.2        -58.71210794]
 [  0.3        -10.7927705 ]
 [  0.32341667  21.8128915 ]]","[[0.         1.93967122]
 [0.1        1.74360796]
 [0.2        0.37945994]
 [0.3        1.56347046]
 [0.32341667 1.38248676]]",0,0.763
8731382169,f,20,english,5,4,english,2024-01-25 10:41:53.868247,False,2,351,sounds\english\audio/english_973.wav,"[[  0.          67.86183821]
 [  0.1         19.68291271]
 [  0.2         97.35795082]
 [  0.3        -17.83494635]
 [  0.32341667 -53.451809  ]]","[[0.         1.19015671]
 [0.1        0.58574514]
 [0.2        0.11672587]
 [0.3        0.43523095]
 [0.32341667 1.74630461]]",0,1.03
8731382169,f,20,english,5,4,english,2024-01-25 10:41:53.868247,False,2,352,sounds\english\audio/english_434.wav,"[[  0.          -4.12787863]
 [  0.1        -30.19441281]
 [  0.2         41.04377471]
 [  0.3        -32.43591961]
 [  0.32341667  61.53108406]]","[[0.         0.96421208]
 [0.1        1.08561731]
 [0.2        1.46356301]
 [0.3        0.25116585]
 [0.32341667 0.73120458]]",1,1.142
8731382169,f,20,english,5,4,english,2024-01-25 10:41:53.868247,False,2,353,sounds\english\audio/english_598.wav,"[[  0.           4.26365523]
 [  0.1        -29.634957  ]
 [  0.2        -17.49120793]
 [  0.3        -34.93876912]
 [  0.32341667  49.49845506]]","[[0.         0.04069017]
 [0.1        1.27980102]
 [0.2        0.98781586]
 [0.3        1.55939702]
 [0.32341667 1.74128412]]",1,1.039
8731382169,f,20,english,5,4,english,2024-01-25 10:41:53.868247,False,2,354,sounds\english\audio/english_768.wav,"[[  0.         -28.93145359]
 [  0.1         59.49166151]
 [  0.2         41.87955621]
 [  0.3        -92.17589111]
 [  0.32341667  15.2364545 ]]","[[0.         1.5002074 ]
 [0.1        1.15432208]
 [0.2        0.01731471]
 [0.3        0.98337229]
 [0.32341667 0.4381055 ]]",0,2.114
8731382169,f,20,english,5,4,english,2024-01-25 10:41:53.868247,False,2,355,sounds\english\audio/english_605.wav,"[[  0.         -82.65591545]
 [  0.1         35.78886654]
 [  0.2        -36.80716754]
 [  0.3         -4.39131435]
 [  0.32341667 -17.17702763]]","[[0.         0.90945233]
 [0.1        1.65178877]
 [0.2        0.21181898]
 [0.3        1.21754483]
 [0.32341667 1.60493484]]",0,1.435
8731382169,f,20,english,5,4,english,2024-01-25 10:41:53.868247,False,2,356,sounds\english\audio/english_918.wav,"[[  0.         -64.11083249]
 [  0.1         75.84330997]
 [  0.2        -30.10314186]
 [  0.3         91.40385877]
 [  0.32341667 -14.12068895]]","[[0.         1.38668504]
 [0.1        1.4522357 ]
 [0.2        1.37046734]
 [0.3        0.70209545]
 [0.32341667 0.09881605]]",0,1.13
8731382169,f,20,english,5,4,english,2024-01-25 10:41:53.868247,False,2,357,sounds\english\audio/english_290.wav,"[[  0.          73.71968657]
 [  0.1        -59.85317413]
 [  0.2         71.1426587 ]
 [  0.3        -18.50007061]
 [  0.32341667 -65.91143137]]","[[0.         0.30552726]
 [0.1        1.31636279]
 [0.2        0.54925413]
 [0.3        1.26204455]
 [0.32341667 0.60528556]]",0,2.168
8731382169,f,20,english,5,4,english,2024-01-25 10:41:53.868247,False,2,358,sounds\english\audio/english_791.wav,"[[  0.          65.91759783]
 [  0.1        -36.70731143]
 [  0.2         67.54354156]
 [  0.3          2.89249458]
 [  0.32341667 -55.92630603]]","[[0.         1.00744019]
 [0.1        0.67929445]
 [0.2        0.95779159]
 [0.3        1.93585264]
 [0.32341667 0.7587469 ]]",1,1.205
8731382169,f,20,english,5,4,english,2024-01-25 10:41:53.868247,False,2,359,sounds\english\audio/english_435.wav,"[[  0.         -61.49548479]
 [  0.1         18.53940612]
 [  0.2        -39.20879804]
 [  0.3        -30.66509024]
 [  0.32341667   7.07056367]]","[[0.         0.36819492]
 [0.1        1.77990606]
 [0.2        1.09377229]
 [0.3        1.98213584]
 [0.32341667 0.5936591 ]]",1,0.936
8731382169,f,20,english,5,4,english,2024-01-25 10:41:53.868247,False,2,360,sounds\english\audio/english_537.wav,"[[  0.          70.8709352 ]
 [  0.1         32.34369018]
 [  0.2        -92.9302278 ]
 [  0.3         14.89115364]
 [  0.32341667 -67.12260703]]","[[0.         0.55947112]
 [0.1        1.10627241]
 [0.2        1.10842043]
 [0.3        0.86800797]
 [0.32341667 1.7659473 ]]",1,0.773
8731382169,f,20,english,5,4,english,2024-01-25 10:41:53.868247,False,2,361,sounds\english\audio/english_655.wav,"[[  0.          84.9811401 ]
 [  0.1         70.1996811 ]
 [  0.2         -5.60681941]
 [  0.3        -33.00324328]
 [  0.32341667  24.65490624]]","[[0.         1.09123398]
 [0.1        0.51840547]
 [0.2        0.58569322]
 [0.3        1.11132849]
 [0.32341667 0.28465301]]",1,0.983
8731382169,f,20,english,5,4,english,2024-01-25 10:41:53.868247,False,2,362,sounds\english\audio/english_457.wav,"[[  0.         -73.30847947]
 [  0.1        -25.74413936]
 [  0.2          8.82772976]
 [  0.3         -2.30416086]
 [  0.32341667 -34.04493945]]","[[0.         0.35525387]
 [0.1        0.90483023]
 [0.2        1.30004432]
 [0.3        0.93422762]
 [0.32341667 1.31504388]]",0,1.116
8731382169,f,20,english,5,4,english,2024-01-25 10:41:53.868247,False,2,363,sounds\english\audio/english_750.wav,"[[  0.          54.68497377]
 [  0.1          0.91792919]
 [  0.2        -67.69423006]
 [  0.3         20.92985273]
 [  0.32341667 -39.60032316]]","[[0.         0.76623701]
 [0.1        1.58478782]
 [0.2        0.74884996]
 [0.3        0.15814923]
 [0.32341667 1.58320499]]",1,1.772
8731382169,f,20,english,5,4,english,2024-01-25 10:41:53.868247,False,2,364,sounds\english\audio/english_38.wav,"[[  0.          -2.78484508]
 [  0.1        -57.68912839]
 [  0.2        -17.27242754]
 [  0.3         -2.64514482]
 [  0.32341667  55.14373267]]","[[0.         0.45448836]
 [0.1        0.86252605]
 [0.2        1.61904865]
 [0.3        1.39130822]
 [0.32341667 1.59066599]]",1,0.84
8731382169,f,20,english,5,4,english,2024-01-25 10:41:53.868247,False,2,365,sounds\english\audio/english_203.wav,"[[  0.         -22.28277813]
 [  0.1         13.21695477]
 [  0.2         63.23651974]
 [  0.3        -20.14830746]
 [  0.32341667 -78.55276631]]","[[0.         1.31475846]
 [0.1        1.08922412]
 [0.2        0.55450355]
 [0.3        1.72034007]
 [0.32341667 0.92481053]]",1,0.693
8731382169,f,20,english,5,4,english,2024-01-25 10:41:53.868247,False,2,366,sounds\english\audio/english_440.wav,"[[  0.          44.70308901]
 [  0.1        -88.0257567 ]
 [  0.2          1.19893433]
 [  0.3         19.45485395]
 [  0.32341667  13.00088222]]","[[0.00000000e+00 1.51497438e+00]
 [1.00000000e-01 1.05972447e+00]
 [2.00000000e-01 5.90820378e-01]
 [3.00000000e-01 6.80586803e-01]
 [3.23416667e-01 6.18341324e-04]]",0,1.02
8731382169,f,20,english,5,4,english,2024-01-25 10:41:53.868247,False,2,367,sounds\english\audio/english_524.wav,"[[  0.         -67.97449296]
 [  0.1         11.07328714]
 [  0.2        -43.89657964]
 [  0.3        -41.15015074]
 [  0.32341667 -33.76804681]]","[[0.         0.75247726]
 [0.1        0.25589602]
 [0.2        0.70559599]
 [0.3        0.70218971]
 [0.32341667 0.11352048]]",1,0.907
8731382169,f,20,english,5,4,english,2024-01-25 10:41:53.868247,False,2,368,sounds\english\audio/english_308.wav,"[[  0.          71.04817524]
 [  0.1        -29.23230128]
 [  0.2        -23.90252129]
 [  0.3        -20.50746627]
 [  0.32341667 -25.31970697]]","[[0.         1.27905886]
 [0.1        0.28593244]
 [0.2        0.87298087]
 [0.3        0.50431278]
 [0.32341667 1.06118321]]",1,0.782
8731382169,f,20,english,5,4,english,2024-01-25 10:41:53.868247,False,2,369,sounds\english\audio/english_917.wav,"[[  0.          -2.28432431]
 [  0.1        -50.4941454 ]
 [  0.2         86.41176613]
 [  0.3        -50.97734163]
 [  0.32341667  97.13453513]]","[[0.         0.51220006]
 [0.1        0.3783057 ]
 [0.2        0.52629226]
 [0.3        0.68389314]
 [0.32341667 1.73708117]]",1,1.06
8731382169,f,20,english,5,4,english,2024-01-25 10:41:53.868247,False,2,370,sounds\english\audio/english_962.wav,"[[  0.         -55.512918  ]
 [  0.1         90.34773129]
 [  0.2         -3.10818459]
 [  0.3         50.27619033]
 [  0.32341667 -47.3196173 ]]","[[0.         1.78332996]
 [0.1        1.25956614]
 [0.2        0.72891593]
 [0.3        1.49954356]
 [0.32341667 0.96339983]]",1,0.834
8731382169,f,20,english,5,4,english,2024-01-25 10:41:53.868247,False,2,371,sounds\english\audio/english_57.wav,"[[  0.         -27.39668164]
 [  0.1         63.52389761]
 [  0.2        -55.42033209]
 [  0.3         40.81906742]
 [  0.32341667 -12.75543821]]","[[0.         1.97835384]
 [0.1        0.69906452]
 [0.2        0.75389415]
 [0.3        0.20375649]
 [0.32341667 1.65585112]]",1,3.074
8731382169,f,20,english,5,4,english,2024-01-25 10:41:53.868247,False,2,372,sounds\english\audio/english_935.wav,"[[  0.          64.39543101]
 [  0.1         86.95314533]
 [  0.2        -18.93400703]
 [  0.3         36.25821345]
 [  0.32341667 -52.75689815]]","[[0.         0.53440609]
 [0.1        0.5847186 ]
 [0.2        0.87093815]
 [0.3        1.35336039]
 [0.32341667 1.46825192]]",1,1.179
8731382169,f,20,english,5,4,english,2024-01-25 10:41:53.868247,False,2,373,sounds\english\audio/english_732.wav,"[[  0.         -12.49530298]
 [  0.1         77.35683448]
 [  0.2         46.14200593]
 [  0.3        -17.19403126]
 [  0.32341667 -81.60069167]]","[[0.         1.28394154]
 [0.1        1.95772399]
 [0.2        1.14408971]
 [0.3        0.21034957]
 [0.32341667 0.50538316]]",1,1.389
8731382169,f,20,english,5,4,english,2024-01-25 10:41:53.868247,False,2,374,sounds\english\audio/english_596.wav,"[[  0.          90.29147433]
 [  0.1         12.52853873]
 [  0.2         50.53853174]
 [  0.3        -77.3590695 ]
 [  0.32341667  -1.65440801]]","[[0.         0.88361056]
 [0.1        0.63799557]
 [0.2        0.09787331]
 [0.3        1.15168959]
 [0.32341667 0.06773829]]",0,0.586
8731382169,f,20,english,5,4,english,2024-01-25 10:41:53.868247,False,2,375,sounds\english\audio/english_784.wav,"[[  0.           8.33598236]
 [  0.1        -95.44591543]
 [  0.2        -36.57026964]
 [  0.3         21.49915707]
 [  0.32341667  14.63720491]]","[[0.         1.26617784]
 [0.1        0.3784594 ]
 [0.2        1.54775832]
 [0.3        0.94378056]
 [0.32341667 0.98781772]]",1,1.573
8731382169,f,20,english,5,4,english,2024-01-25 10:41:53.868247,False,2,376,sounds\english\audio/english_399.wav,"[[  0.          77.00947727]
 [  0.1         68.68212777]
 [  0.2         29.89909441]
 [  0.3        -37.60275897]
 [  0.32341667 -61.49193386]]","[[0.         0.99570417]
 [0.1        1.08385584]
 [0.2        0.2210854 ]
 [0.3        0.41623588]
 [0.32341667 0.38461981]]",0,0.54
8731382169,f,20,english,5,4,english,2024-01-25 10:41:53.868247,False,2,377,sounds\english\audio/english_548.wav,"[[  0.          19.39315344]
 [  0.1         82.09582914]
 [  0.2        -65.55781301]
 [  0.3         -5.02691035]
 [  0.32341667  62.63141303]]","[[0.         0.41811488]
 [0.1        1.70384437]
 [0.2        1.82142436]
 [0.3        1.13784798]
 [0.32341667 1.73168063]]",1,0.517
8731382169,f,20,english,5,4,english,2024-01-25 10:41:53.868247,False,2,378,sounds\english\audio/english_821.wav,"[[  0.          -4.04234253]
 [  0.1         50.39518932]
 [  0.2         58.18996785]
 [  0.3        -22.07293427]
 [  0.32341667  56.43229939]]","[[0.         1.62928948]
 [0.1        0.78033958]
 [0.2        1.56476115]
 [0.3        0.56557752]
 [0.32341667 0.93389964]]",1,0.53
8731382169,f,20,english,5,4,english,2024-01-25 10:41:53.868247,False,2,379,sounds\english\audio/english_157.wav,"[[  0.         -74.01864956]
 [  0.1          1.44529667]
 [  0.2        -42.76251303]
 [  0.3        -49.01483239]
 [  0.32341667 -96.85595697]]","[[0.         1.10168906]
 [0.1        1.71225259]
 [0.2        1.71884561]
 [0.3        1.47822148]
 [0.32341667 1.36273156]]",1,0.264
8731382169,f,20,english,5,4,english,2024-01-25 10:41:53.868247,False,2,380,sounds\english\audio/english_425.wav,"[[ 0.         52.16022051]
 [ 0.1        -4.0342476 ]
 [ 0.2        71.82190917]
 [ 0.3        77.8432037 ]
 [ 0.32341667 29.14791909]]","[[0.         1.95369626]
 [0.1        0.01224448]
 [0.2        1.45838463]
 [0.3        1.1656734 ]
 [0.32341667 1.54078916]]",1,0.703
8731382169,f,20,english,5,4,english,2024-01-25 10:41:53.868247,False,2,381,sounds\english\audio/english_307.wav,"[[  0.         -38.93106299]
 [  0.1        -30.40144858]
 [  0.2          2.19081651]
 [  0.3         30.82741361]
 [  0.32341667  46.9007513 ]]","[[0.         1.91951228]
 [0.1        0.50419792]
 [0.2        0.76602689]
 [0.3        0.59904457]
 [0.32341667 1.94941235]]",1,0.549
8731382169,f,20,english,5,4,english,2024-01-25 10:41:53.868247,False,2,382,sounds\english\audio/english_368.wav,"[[  0.         -25.00542805]
 [  0.1        -48.20991773]
 [  0.2        -51.83604218]
 [  0.3         14.57062672]
 [  0.32341667 -26.77020505]]","[[0.         1.03431482]
 [0.1        0.92366821]
 [0.2        0.34019883]
 [0.3        1.21184807]
 [0.32341667 0.81530657]]",1,0.619
8731382169,f,20,english,5,4,english,2024-01-25 10:41:53.868247,False,2,383,sounds\english\audio/english_187.wav,"[[  0.         -18.35695568]
 [  0.1         10.21632188]
 [  0.2          0.69047377]
 [  0.3         67.68385624]
 [  0.32341667  48.15291114]]","[[0.         0.61755768]
 [0.1        1.6626445 ]
 [0.2        0.70950015]
 [0.3        0.8856252 ]
 [0.32341667 1.92627472]]",1,0.463
8731382169,f,20,english,5,4,english,2024-01-25 10:41:53.868247,False,2,384,sounds\english\audio/english_986.wav,"[[  0.          36.93997263]
 [  0.1        -76.80061303]
 [  0.2         60.8418497 ]
 [  0.3        -27.90828951]
 [  0.32341667  99.51838141]]","[[0.         1.7539978 ]
 [0.1        1.40735445]
 [0.2        0.62226098]
 [0.3        0.48175931]
 [0.32341667 1.5918282 ]]",1,1.175
8731382169,f,20,english,5,4,english,2024-01-25 10:41:53.868247,False,2,385,sounds\english\audio/english_211.wav,"[[  0.          37.34807541]
 [  0.1         97.98979508]
 [  0.2        -20.02981109]
 [  0.3        -69.8116311 ]
 [  0.32341667  35.11126142]]","[[0.         1.77380832]
 [0.1        1.35747523]
 [0.2        1.74013371]
 [0.3        0.94808553]
 [0.32341667 0.23094119]]",1,0.539
8731382169,f,20,english,5,4,english,2024-01-25 10:41:53.868247,False,2,386,sounds\english\audio/english_187.wav,"[[  0.         -18.35695568]
 [  0.1         10.21632188]
 [  0.2          0.69047377]
 [  0.3         67.68385624]
 [  0.32341667  48.15291114]]","[[0.         0.61755768]
 [0.1        1.6626445 ]
 [0.2        0.70950015]
 [0.3        0.8856252 ]
 [0.32341667 1.92627472]]",1,1.338
8731382169,f,20,english,5,4,english,2024-01-25 10:41:53.868247,False,2,387,sounds\english\audio/english_169.wav,"[[  0.          21.52556644]
 [  0.1        -62.21960884]
 [  0.2        -58.58818316]
 [  0.3         14.95103608]
 [  0.32341667  21.70814087]]","[[0.         0.24747868]
 [0.1        0.51530303]
 [0.2        1.14352058]
 [0.3        1.46694059]
 [0.32341667 1.67980684]]",1,1.736
8731382169,f,20,english,5,4,english,2024-01-25 10:41:53.868247,False,2,388,sounds\english\audio/english_975.wav,"[[  0.          30.76275893]
 [  0.1        -18.30184736]
 [  0.2         88.92209311]
 [  0.3        -15.78836893]
 [  0.32341667  81.69873146]]","[[0.         1.75032315]
 [0.1        1.1766706 ]
 [0.2        0.11148121]
 [0.3        1.00992181]
 [0.32341667 1.08252971]]",0,0.749
8731382169,f,20,english,5,4,english,2024-01-25 10:41:53.868247,False,2,389,sounds\english\audio/english_646.wav,"[[  0.          65.65927644]
 [  0.1        -31.23211399]
 [  0.2         62.59110385]
 [  0.3        -86.43369357]
 [  0.32341667  41.84315348]]","[[0.         1.85038449]
 [0.1        1.10748568]
 [0.2        1.14052106]
 [0.3        1.38971404]
 [0.32341667 0.49971738]]",1,1.665
8731382169,f,20,english,5,4,english,2024-01-25 10:41:53.868247,False,2,390,sounds\english\audio/english_845.wav,"[[  0.         -39.21264236]
 [  0.1         99.78041888]
 [  0.2        -59.29104422]
 [  0.3         57.0409613 ]
 [  0.32341667 -93.6361214 ]]","[[0.         0.82761504]
 [0.1        0.53375751]
 [0.2        1.24236426]
 [0.3        1.27736464]
 [0.32341667 0.79024728]]",0,2.5
8731382169,f,20,english,5,4,english,2024-01-25 10:41:53.868247,False,2,391,sounds\english\audio/english_37.wav,"[[  0.          -5.54999706]
 [  0.1         23.22206304]
 [  0.2        -57.36481589]
 [  0.3         58.0578648 ]
 [  0.32341667  66.03280024]]","[[0.         1.12257854]
 [0.1        1.8669628 ]
 [0.2        0.39386712]
 [0.3        1.21765674]
 [0.32341667 0.74428952]]",1,0.856
8731382169,f,20,english,5,4,english,2024-01-25 10:41:53.868247,False,2,392,sounds\english\audio/english_109.wav,"[[  0.          44.56131593]
 [  0.1        -35.23159756]
 [  0.2        -19.62269282]
 [  0.3         38.10372837]
 [  0.32341667 -20.09605057]]","[[0.         1.07349586]
 [0.1        1.27535987]
 [0.2        1.28483541]
 [0.3        1.04109326]
 [0.32341667 0.10213448]]",1,0.825
8731382169,f,20,english,5,4,english,2024-01-25 10:41:53.868247,False,2,393,sounds\english\audio/english_400.wav,"[[  0.          -9.17924521]
 [  0.1        -51.0410118 ]
 [  0.2         66.2548805 ]
 [  0.3         92.33374018]
 [  0.32341667 -60.80730989]]","[[0.         1.06898792]
 [0.1        0.05890524]
 [0.2        1.54728483]
 [0.3        1.43953162]
 [0.32341667 1.12546459]]",1,1.109
8731382169,f,20,english,5,4,english,2024-01-25 10:41:53.868247,False,2,394,sounds\english\audio/english_93.wav,"[[  0.         -63.58558414]
 [  0.1         47.93190562]
 [  0.2         74.1463043 ]
 [  0.3         46.42515129]
 [  0.32341667 -19.17332826]]","[[0.         0.84265136]
 [0.1        0.45441634]
 [0.2        1.33476805]
 [0.3        0.61821532]
 [0.32341667 1.94889868]]",1,0.745
8731382169,f,20,english,5,4,english,2024-01-25 10:41:53.868247,False,2,395,sounds\english\audio/english_18.wav,"[[ 0.00000000e+00 -6.19567004e+01]
 [ 1.00000000e-01  3.92027204e+01]
 [ 2.00000000e-01 -6.26834214e-02]
 [ 3.00000000e-01 -7.22820301e+01]
 [ 3.23416667e-01 -5.29459242e+01]]","[[0.         0.45038722]
 [0.1        1.56185221]
 [0.2        0.80652275]
 [0.3        0.39505163]
 [0.32341667 0.50402069]]",0,0.829
8731382169,f,20,english,5,4,english,2024-01-25 10:41:53.868247,False,2,396,sounds\english\audio/english_690.wav,"[[0.00000000e+00 3.30476540e+01]
 [1.00000000e-01 2.12167444e-02]
 [2.00000000e-01 2.13432370e+01]
 [3.00000000e-01 3.54710796e+01]
 [3.23416667e-01 7.94400816e+01]]","[[0.         1.58265684]
 [0.1        0.6931717 ]
 [0.2        1.47002515]
 [0.3        1.9856235 ]
 [0.32341667 1.00479917]]",0,1.446
8731382169,f,20,english,5,4,english,2024-01-25 10:41:53.868247,False,2,397,sounds\english\audio/english_737.wav,"[[  0.          21.35751723]
 [  0.1         61.52152077]
 [  0.2        -29.75610596]
 [  0.3        -39.80249708]
 [  0.32341667 -14.64937497]]","[[0.         1.17499048]
 [0.1        1.09581395]
 [0.2        0.62940412]
 [0.3        0.11793022]
 [0.32341667 0.62377861]]",0,0.976
8731382169,f,20,english,5,4,english,2024-01-25 10:41:53.868247,False,2,398,sounds\english\audio/english_432.wav,"[[  0.          34.04923955]
 [  0.1        -20.16773507]
 [  0.2         58.06800811]
 [  0.3         46.82268278]
 [  0.32341667  16.04458546]]","[[0.         0.51661687]
 [0.1        0.2259012 ]
 [0.2        1.98214485]
 [0.3        1.23025235]
 [0.32341667 1.72803009]]",1,1.38
8731382169,f,20,english,5,4,english,2024-01-25 10:41:53.868247,False,2,399,sounds\english\audio/english_577.wav,"[[  0.           0.60742169]
 [  0.1        -16.75441018]
 [  0.2         32.29278586]
 [  0.3         94.63733595]
 [  0.32341667 -75.78119055]]","[[0.         1.18439754]
 [0.1        1.17258894]
 [0.2        0.00832478]
 [0.3        1.24529525]
 [0.32341667 0.24980342]]",0,0.897
8731382169,f,20,english,5,4,english,2024-01-25 10:41:53.868247,False,2,400,sounds\english\audio/english_931.wav,"[[  0.         -78.99767873]
 [  0.1        -34.67093685]
 [  0.2          2.25144273]
 [  0.3        -93.87287365]
 [  0.32341667  57.8562517 ]]","[[0.         0.72988395]
 [0.1        1.40858855]
 [0.2        1.82787629]
 [0.3        1.51045502]
 [0.32341667 1.42241625]]",1,0.782
8731382169,f,20,english,5,4,english,2024-01-25 10:41:53.868247,False,2,401,sounds\english\audio/english_622.wav,"[[  0.         -46.49267806]
 [  0.1        -80.07623079]
 [  0.2        -28.70131311]
 [  0.3        -26.89352847]
 [  0.32341667 -24.31243398]]","[[0.         1.425187  ]
 [0.1        0.61910367]
 [0.2        1.30297951]
 [0.3        1.73248838]
 [0.32341667 0.85523545]]",0,1.563
8731382169,f,20,english,5,4,english,2024-01-25 10:41:53.868247,False,2,402,sounds\english\audio/english_739.wav,"[[  0.         -30.44662447]
 [  0.1        -27.69908881]
 [  0.2         25.08576745]
 [  0.3        -20.92476775]
 [  0.32341667 -46.92266257]]","[[0.         1.4086692 ]
 [0.1        0.95518545]
 [0.2        1.0815723 ]
 [0.3        0.08724184]
 [0.32341667 1.12979104]]",1,0.849
8731382169,f,20,english,5,4,english,2024-01-25 10:41:53.868247,False,2,403,sounds\english\audio/english_805.wav,"[[  0.         -11.97504695]
 [  0.1         96.82911573]
 [  0.2          7.51835152]
 [  0.3          2.47378187]
 [  0.32341667 -43.26336213]]","[[0.         0.06029378]
 [0.1        0.81391401]
 [0.2        1.33531055]
 [0.3        1.7608484 ]
 [0.32341667 1.4289718 ]]",0,1.727
8731382169,f,20,english,5,4,english,2024-01-25 10:41:53.868247,False,2,404,sounds\english\audio/english_12.wav,"[[  0.          48.33680056]
 [  0.1         27.41870997]
 [  0.2        -39.95667364]
 [  0.3         73.52964836]
 [  0.32341667 -36.35494906]]","[[0.         1.48429429]
 [0.1        0.15715938]
 [0.2        0.62940339]
 [0.3        0.05281398]
 [0.32341667 1.6412938 ]]",0,1.651
8731382169,f,20,english,5,4,english,2024-01-25 10:41:53.868247,False,2,405,sounds\english\audio/english_666.wav,"[[  0.          -6.63307831]
 [  0.1        -47.66524373]
 [  0.2         66.93817534]
 [  0.3         -1.338646  ]
 [  0.32341667 -14.31927765]]","[[0.         0.44221414]
 [0.1        1.62559692]
 [0.2        0.27313334]
 [0.3        0.46846925]
 [0.32341667 1.08883823]]",1,2.812
8731382169,f,20,english,5,4,english,2024-01-25 10:41:53.868247,False,2,406,sounds\english\audio/english_879.wav,"[[  0.         -56.32485069]
 [  0.1         64.67592183]
 [  0.2         25.82204554]
 [  0.3          5.66794257]
 [  0.32341667 -31.65503708]]","[[0.         0.53184386]
 [0.1        1.34296213]
 [0.2        0.44649674]
 [0.3        0.79707043]
 [0.32341667 1.19804995]]",1,1.99
8731382169,f,20,english,5,4,english,2024-01-25 10:41:53.868247,False,2,407,sounds\english\audio/english_436.wav,"[[  0.          58.73131257]
 [  0.1         65.29204538]
 [  0.2          7.63213906]
 [  0.3         -2.54756362]
 [  0.32341667 -11.40614268]]","[[0.         0.30497449]
 [0.1        1.04665744]
 [0.2        1.03883923]
 [0.3        0.97345352]
 [0.32341667 0.16121918]]",1,0.69
8731382169,f,20,english,5,4,english,2024-01-25 10:41:53.868247,False,2,408,sounds\english\audio/english_846.wav,"[[  0.          61.87306923]
 [  0.1         -5.64177324]
 [  0.2         86.75305487]
 [  0.3        -27.71752308]
 [  0.32341667 -26.78048177]]","[[0.         1.6800264 ]
 [0.1        0.32387551]
 [0.2        0.09122421]
 [0.3        0.55014386]
 [0.32341667 0.82256102]]",0,1.728
8731382169,f,20,english,5,4,english,2024-01-25 10:41:53.868247,False,2,409,sounds\english\audio/english_255.wav,"[[  0.         -42.74550593]
 [  0.1         35.44578771]
 [  0.2         98.7346041 ]
 [  0.3         14.08839822]
 [  0.32341667 -55.38739786]]","[[0.         1.65518669]
 [0.1        1.85823386]
 [0.2        1.2123315 ]
 [0.3        0.62099519]
 [0.32341667 1.08486436]]",1,0.945
8731382169,f,20,english,5,4,english,2024-01-25 10:41:53.868247,False,2,410,sounds\english\audio/english_569.wav,"[[  0.         -44.4695194 ]
 [  0.1         50.36705327]
 [  0.2        -76.17438636]
 [  0.3         55.47083669]
 [  0.32341667 -10.68913609]]","[[0.         1.56768834]
 [0.1        0.42032873]
 [0.2        0.31133764]
 [0.3        0.91900801]
 [0.32341667 1.26529561]]",0,1.827
8731382169,f,20,english,5,4,english,2024-01-25 10:41:53.868247,False,2,411,sounds\english\audio/english_657.wav,"[[ 0.         30.03208284]
 [ 0.1        -5.57127058]
 [ 0.2         9.55793083]
 [ 0.3         3.39766504]
 [ 0.32341667 84.38659916]]","[[0.         1.42095662]
 [0.1        1.29790323]
 [0.2        0.51612643]
 [0.3        0.37671101]
 [0.32341667 1.20124021]]",0,0.653
8731382169,f,20,english,5,4,english,2024-01-25 10:41:53.868247,False,2,412,sounds\english\audio/english_28.wav,"[[  0.          46.68805065]
 [  0.1        -19.91180265]
 [  0.2         30.74929008]
 [  0.3         14.01537548]
 [  0.32341667 -32.95915121]]","[[0.         0.37315412]
 [0.1        0.08560602]
 [0.2        0.67724734]
 [0.3        0.53332652]
 [0.32341667 1.33480721]]",1,2.195
8731382169,f,20,english,5,4,english,2024-01-25 10:41:53.868247,False,2,413,sounds\english\audio/english_283.wav,"[[  0.         -27.01977409]
 [  0.1        -58.6063919 ]
 [  0.2         36.15867228]
 [  0.3        -77.91689069]
 [  0.32341667 -77.99680679]]","[[0.         1.23470843]
 [0.1        0.41737987]
 [0.2        0.64455365]
 [0.3        1.80541824]
 [0.32341667 1.86024907]]",0,1.17
8731382169,f,20,english,5,4,english,2024-01-25 10:41:53.868247,False,2,414,sounds\english\audio/english_241.wav,"[[  0.          68.9743722 ]
 [  0.1         68.48567391]
 [  0.2         12.6952975 ]
 [  0.3         61.42298605]
 [  0.32341667 -18.578671  ]]","[[0.         1.94478574]
 [0.1        1.84895789]
 [0.2        1.1085625 ]
 [0.3        1.36682755]
 [0.32341667 0.93494379]]",0,0.51
8731382169,f,20,english,5,4,english,2024-01-25 10:41:53.868247,False,2,415,sounds\english\audio/english_667.wav,"[[  0.         -36.96649028]
 [  0.1          9.08709827]
 [  0.2         85.36553945]
 [  0.3        -41.19556041]
 [  0.32341667 -31.79783786]]","[[0.         1.3014101 ]
 [0.1        0.05882523]
 [0.2        1.428997  ]
 [0.3        1.2429303 ]
 [0.32341667 0.97363261]]",0,1.712
8731382169,f,20,english,5,4,english,2024-01-25 10:41:53.868247,False,2,416,sounds\english\audio/english_81.wav,"[[  0.          -8.99652005]
 [  0.1         37.2959996 ]
 [  0.2         56.49217416]
 [  0.3         99.31521879]
 [  0.32341667 -25.36881215]]","[[0.         1.6890162 ]
 [0.1        1.86826101]
 [0.2        0.68929954]
 [0.3        0.22383451]
 [0.32341667 0.930773  ]]",0,0.806
8731382169,f,20,english,5,4,english,2024-01-25 10:41:53.868247,False,2,417,sounds\english\audio/english_126.wav,"[[  0.         -71.89060105]
 [  0.1        -54.28004149]
 [  0.2         67.0997098 ]
 [  0.3        -96.31741745]
 [  0.32341667  22.67293764]]","[[0.         0.84485729]
 [0.1        1.61340521]
 [0.2        1.10892805]
 [0.3        1.20133652]
 [0.32341667 0.33470898]]",0,1.484
8731382169,f,20,english,5,4,english,2024-01-25 10:41:53.868247,False,2,418,sounds\english\audio/english_812.wav,"[[  0.          70.24469457]
 [  0.1        -27.51466786]
 [  0.2         60.55844263]
 [  0.3         52.93607499]
 [  0.32341667  74.74872052]]","[[0.         0.85599223]
 [0.1        0.39005905]
 [0.2        1.43275618]
 [0.3        1.34329238]
 [0.32341667 0.96810209]]",0,1.222
8731382169,f,20,english,5,4,english,2024-01-25 10:41:53.868247,False,2,419,sounds\english\audio/english_812.wav,"[[  0.          70.24469457]
 [  0.1        -27.51466786]
 [  0.2         60.55844263]
 [  0.3         52.93607499]
 [  0.32341667  74.74872052]]","[[0.         0.85599223]
 [0.1        0.39005905]
 [0.2        1.43275618]
 [0.3        1.34329238]
 [0.32341667 0.96810209]]",0,0.963
8731382169,f,20,english,5,4,english,2024-01-25 10:41:53.868247,False,2,420,sounds\english\audio/english_620.wav,"[[ 0.00000000e+00 -9.29203055e+01]
 [ 1.00000000e-01  2.67086056e+01]
 [ 2.00000000e-01  8.91883135e+01]
 [ 3.00000000e-01 -5.57738795e-02]
 [ 3.23416667e-01  2.97872430e+00]]","[[0.         0.43561856]
 [0.1        0.24535421]
 [0.2        1.34102831]
 [0.3        1.80103954]
 [0.32341667 0.21248525]]",1,1.795
8731382169,f,20,english,5,4,english,2024-01-25 10:41:53.868247,False,2,421,sounds\english\audio/english_12.wav,"[[  0.          48.33680056]
 [  0.1         27.41870997]
 [  0.2        -39.95667364]
 [  0.3         73.52964836]
 [  0.32341667 -36.35494906]]","[[0.         1.48429429]
 [0.1        0.15715938]
 [0.2        0.62940339]
 [0.3        0.05281398]
 [0.32341667 1.6412938 ]]",0,1.986
8731382169,f,20,english,5,4,english,2024-01-25 10:41:53.868247,False,2,422,sounds\english\audio/english_974.wav,"[[  0.          29.63575745]
 [  0.1        -49.63946334]
 [  0.2         87.75163431]
 [  0.3        -62.39844007]
 [  0.32341667 -98.5513891 ]]","[[0.         0.7371821 ]
 [0.1        1.15838362]
 [0.2        1.66312363]
 [0.3        0.85783748]
 [0.32341667 1.53033297]]",0,0.978
8731382169,f,20,english,5,4,english,2024-01-25 10:41:53.868247,False,2,423,sounds\english\audio/english_915.wav,"[[  0.          40.39704719]
 [  0.1        -77.86782689]
 [  0.2         21.84672988]
 [  0.3        -56.0972156 ]
 [  0.32341667  65.00594456]]","[[0.         0.11203387]
 [0.1        0.449249  ]
 [0.2        0.02407483]
 [0.3        1.6502756 ]
 [0.32341667 0.65362707]]",1,0.845
8731382169,f,20,english,5,4,english,2024-01-25 10:41:53.868247,False,2,424,sounds\english\audio/english_219.wav,"[[  0.          38.40040381]
 [  0.1        -26.23926727]
 [  0.2        -57.67558578]
 [  0.3         50.56926795]
 [  0.32341667  64.39220397]]","[[0.         1.09142553]
 [0.1        0.5740428 ]
 [0.2        1.19056911]
 [0.3        1.87089358]
 [0.32341667 1.06933149]]",1,0.912
8731382169,f,20,english,5,4,english,2024-01-25 10:41:53.868247,False,2,425,sounds\english\audio/english_773.wav,"[[  0.         -97.46951928]
 [  0.1         85.58858853]
 [  0.2        -54.69649905]
 [  0.3        -97.24656559]
 [  0.32341667  40.28006613]]","[[0.         0.54003315]
 [0.1        1.35505424]
 [0.2        1.09283168]
 [0.3        1.42526307]
 [0.32341667 0.69844725]]",1,0.469
8731382169,f,20,english,5,4,english,2024-01-25 10:41:53.868247,False,2,426,sounds\english\audio/english_547.wav,"[[  0.          30.48969685]
 [  0.1        -38.27442703]
 [  0.2         29.58442849]
 [  0.3         -4.27268154]
 [  0.32341667  58.02076364]]","[[0.         1.04682874]
 [0.1        0.75017858]
 [0.2        0.7996645 ]
 [0.3        1.92102789]
 [0.32341667 1.77056707]]",1,0.593
8731382169,f,20,english,5,4,english,2024-01-25 10:41:53.868247,False,2,427,sounds\english\audio/english_519.wav,"[[  0.          -8.06946753]
 [  0.1        -66.74939098]
 [  0.2        -27.98142454]
 [  0.3        -72.75033344]
 [  0.32341667 -36.15575878]]","[[0.         0.14231686]
 [0.1        1.74411569]
 [0.2        1.42967772]
 [0.3        0.44774012]
 [0.32341667 1.4256209 ]]",0,1.418
8731382169,f,20,english,5,4,english,2024-01-25 10:41:53.868247,False,2,428,sounds\english\audio/english_83.wav,"[[  0.          98.86804112]
 [  0.1        -37.42051535]
 [  0.2         23.85234946]
 [  0.3         28.05435803]
 [  0.32341667   2.44147447]]","[[0.         0.82381457]
 [0.1        1.26275754]
 [0.2        0.74836396]
 [0.3        0.41584898]
 [0.32341667 1.88336536]]",0,0.688
8731382169,f,20,english,5,4,english,2024-01-25 10:41:53.868247,False,2,429,sounds\english\audio/english_812.wav,"[[  0.          70.24469457]
 [  0.1        -27.51466786]
 [  0.2         60.55844263]
 [  0.3         52.93607499]
 [  0.32341667  74.74872052]]","[[0.         0.85599223]
 [0.1        0.39005905]
 [0.2        1.43275618]
 [0.3        1.34329238]
 [0.32341667 0.96810209]]",1,1.437
8731382169,f,20,english,5,4,english,2024-01-25 10:41:53.868247,False,2,430,sounds\english\audio/english_340.wav,"[[  0.          42.62794877]
 [  0.1         67.09042835]
 [  0.2        -80.28719593]
 [  0.3        -47.97556268]
 [  0.32341667  32.7013797 ]]","[[0.         1.44385011]
 [0.1        1.29329602]
 [0.2        1.71068781]
 [0.3        0.48872717]
 [0.32341667 1.09000269]]",0,0.838
8731382169,f,20,english,5,4,english,2024-01-25 10:41:53.868247,False,2,431,sounds\english\audio/english_314.wav,"[[  0.         -64.95449137]
 [  0.1         41.76232806]
 [  0.2         68.0199099 ]
 [  0.3        -18.86846342]
 [  0.32341667  -2.58545886]]","[[0.         1.33019215]
 [0.1        0.95010379]
 [0.2        0.0418164 ]
 [0.3        0.3847457 ]
 [0.32341667 1.31154336]]",1,0.624
8731382169,f,20,english,5,4,english,2024-01-25 10:41:53.868247,False,2,432,sounds\english\audio/english_19.wav,"[[  0.          51.84788699]
 [  0.1         59.68091475]
 [  0.2        -27.71167756]
 [  0.3        -29.56443604]
 [  0.32341667 -58.55228515]]","[[0.         0.3981759 ]
 [0.1        1.61217409]
 [0.2        0.35158216]
 [0.3        0.8770992 ]
 [0.32341667 0.51670124]]",1,0.81
8731382169,f,20,english,5,4,english,2024-01-25 10:41:53.868247,False,2,433,sounds\english\audio/english_745.wav,"[[  0.         -57.64472866]
 [  0.1        -14.80975681]
 [  0.2         44.46939178]
 [  0.3         56.80280999]
 [  0.32341667 -16.53068296]]","[[0.         1.88925258]
 [0.1        0.26333653]
 [0.2        1.01945351]
 [0.3        0.00901457]
 [0.32341667 0.38778228]]",1,0.698
8731382169,f,20,english,5,4,english,2024-01-25 10:41:53.868247,False,2,434,sounds\english\audio/english_139.wav,"[[  0.          55.35526281]
 [  0.1        -66.48550036]
 [  0.2         21.45340352]
 [  0.3        -32.80413748]
 [  0.32341667 -77.32206638]]","[[0.         1.40478417]
 [0.1        1.12007301]
 [0.2        1.58559909]
 [0.3        1.13081383]
 [0.32341667 0.38560717]]",0,0.905
8731382169,f,20,english,5,4,english,2024-01-25 10:41:53.868247,False,2,435,sounds\english\audio/english_478.wav,"[[  0.         -70.9954821 ]
 [  0.1         18.763036  ]
 [  0.2         84.30682023]
 [  0.3         96.70790152]
 [  0.32341667 -65.75430749]]","[[0.         0.91489342]
 [0.1        1.0325944 ]
 [0.2        1.47139294]
 [0.3        0.31719256]
 [0.32341667 1.1469235 ]]",1,1.189
8731382169,f,20,english,5,4,english,2024-01-25 10:41:53.868247,False,2,436,sounds\english\audio/english_168.wav,"[[  0.         -69.10300998]
 [  0.1        -24.44784794]
 [  0.2         35.31321785]
 [  0.3        -41.77498511]
 [  0.32341667  19.92389913]]","[[0.         1.14537751]
 [0.1        1.06854972]
 [0.2        0.45192262]
 [0.3        0.2846318 ]
 [0.32341667 0.9853942 ]]",0,0.938
8731382169,f,20,english,5,4,english,2024-01-25 10:41:53.868247,False,2,437,sounds\english\audio/english_982.wav,"[[  0.          12.44046596]
 [  0.1        -60.41666302]
 [  0.2        -35.31499742]
 [  0.3        -10.96739076]
 [  0.32341667  44.50624474]]","[[0.         0.81508625]
 [0.1        0.92712357]
 [0.2        0.77678916]
 [0.3        1.0294352 ]
 [0.32341667 1.1322674 ]]",0,0.705
8731382169,f,20,english,5,4,english,2024-01-25 10:41:53.868247,False,2,438,sounds\english\audio/english_51.wav,"[[  0.          88.48054236]
 [  0.1        -53.5534646 ]
 [  0.2        -33.31344908]
 [  0.3         87.0533187 ]
 [  0.32341667 -16.55219825]]","[[0.         0.21487201]
 [0.1        0.90061677]
 [0.2        0.24834744]
 [0.3        1.31052611]
 [0.32341667 0.58644625]]",0,0.966
8731382169,f,20,english,5,4,english,2024-01-25 10:41:53.868247,False,2,439,sounds\english\audio/english_351.wav,"[[  0.         -56.55455818]
 [  0.1        -81.1333892 ]
 [  0.2         70.95296343]
 [  0.3        -82.79021433]
 [  0.32341667 -21.34496407]]","[[0.         0.98366365]
 [0.1        1.13800808]
 [0.2        1.04915948]
 [0.3        1.70890302]
 [0.32341667 1.83807055]]",0,0.566
8731382169,f,20,english,5,4,english,2024-01-25 10:41:53.868247,False,2,440,sounds\english\audio/english_294.wav,"[[  0.         -92.15775888]
 [  0.1         71.96645866]
 [  0.2        -25.46852775]
 [  0.3         17.21488016]
 [  0.32341667 -10.41176069]]","[[0.         0.74816787]
 [0.1        1.71916745]
 [0.2        1.7524902 ]
 [0.3        0.9780509 ]
 [0.32341667 1.21177262]]",0,1.864
8731382169,f,20,english,5,4,english,2024-01-25 10:41:53.868247,False,2,441,sounds\english\audio/english_331.wav,"[[  0.          12.66323204]
 [  0.1        -81.78605138]
 [  0.2         59.07546792]
 [  0.3        -83.73170191]
 [  0.32341667   3.10587362]]","[[0.         1.93220763]
 [0.1        1.48237299]
 [0.2        1.15413743]
 [0.3        1.02182823]
 [0.32341667 0.81670354]]",0,1.104
8731382169,f,20,english,5,4,english,2024-01-25 10:41:53.868247,False,2,442,sounds\english\audio/english_700.wav,"[[  0.         -76.89056698]
 [  0.1        -93.17552037]
 [  0.2         51.24439156]
 [  0.3         89.4516499 ]
 [  0.32341667 -68.48659069]]","[[0.         0.13963816]
 [0.1        0.76842729]
 [0.2        0.49149542]
 [0.3        1.08714417]
 [0.32341667 1.35188588]]",1,0.881
8731382169,f,20,english,5,4,english,2024-01-25 10:41:53.868247,False,2,443,sounds\english\audio/english_467.wav,"[[  0.          -0.54983343]
 [  0.1        -84.54516502]
 [  0.2         54.30123894]
 [  0.3        -82.00368026]
 [  0.32341667 -54.10816942]]","[[0.         1.824027  ]
 [0.1        1.06295632]
 [0.2        1.09976952]
 [0.3        1.11766566]
 [0.32341667 0.44824559]]",1,0.543
8731382169,f,20,english,5,4,english,2024-01-25 10:41:53.868247,False,2,444,sounds\english\audio/english_26.wav,"[[  0.          54.38966875]
 [  0.1          0.3460174 ]
 [  0.2        -72.33258957]
 [  0.3         67.09142092]
 [  0.32341667  16.00565239]]","[[0.         1.86679487]
 [0.1        0.79762949]
 [0.2        0.93682052]
 [0.3        1.42469209]
 [0.32341667 1.17807545]]",0,0.919
8731382169,f,20,english,5,4,english,2024-01-25 10:41:53.868247,False,2,445,sounds\english\audio/english_685.wav,"[[  0.          91.61032892]
 [  0.1         39.6206555 ]
 [  0.2         -3.19880539]
 [  0.3        -72.84721689]
 [  0.32341667  98.11411302]]","[[0.         0.4504418 ]
 [0.1        1.04279806]
 [0.2        1.33634651]
 [0.3        1.25094987]
 [0.32341667 0.37726169]]",1,0.72
8731382169,f,20,english,5,4,english,2024-01-25 10:41:53.868247,False,2,446,sounds\english\audio/english_432.wav,"[[  0.          34.04923955]
 [  0.1        -20.16773507]
 [  0.2         58.06800811]
 [  0.3         46.82268278]
 [  0.32341667  16.04458546]]","[[0.         0.51661687]
 [0.1        0.2259012 ]
 [0.2        1.98214485]
 [0.3        1.23025235]
 [0.32341667 1.72803009]]",1,0.933
8731382169,f,20,english,5,4,english,2024-01-25 10:41:53.868247,False,2,447,sounds\english\audio/english_323.wav,"[[  0.          92.33188111]
 [  0.1          4.22577609]
 [  0.2        -35.48560344]
 [  0.3          7.73763769]
 [  0.32341667  55.62458321]]","[[0.         1.59668922]
 [0.1        1.75306106]
 [0.2        1.06071567]
 [0.3        1.9328625 ]
 [0.32341667 1.27347405]]",1,0.672
8731382169,f,20,english,5,4,english,2024-01-25 10:41:53.868247,False,2,448,sounds\english\audio/english_364.wav,"[[  0.          19.50953027]
 [  0.1         48.44847612]
 [  0.2        -85.20645473]
 [  0.3         97.47454191]
 [  0.32341667 -45.42958463]]","[[0.         1.75500584]
 [0.1        1.3553812 ]
 [0.2        0.86672295]
 [0.3        1.42489128]
 [0.32341667 1.19673805]]",0,0.862
8731382169,f,20,english,5,4,english,2024-01-25 10:41:53.868247,False,2,449,sounds\english\audio/english_275.wav,"[[  0.          -1.14725012]
 [  0.1        -90.43848863]
 [  0.2        -40.03711279]
 [  0.3        -29.12549604]
 [  0.32341667  77.33253221]]","[[0.         0.71691039]
 [0.1        0.74614953]
 [0.2        1.94843862]
 [0.3        0.32495742]
 [0.32341667 0.61649877]]",1,0.851
8731382169,f,20,english,5,4,english,2024-01-25 10:41:53.868247,False,2,450,sounds\english\audio/english_212.wav,"[[  0.          -8.03708838]
 [  0.1         72.60121642]
 [  0.2        -98.76374397]
 [  0.3         31.47742107]
 [  0.32341667  53.59344022]]","[[0.         0.69940518]
 [0.1        1.0039509 ]
 [0.2        1.17731185]
 [0.3        0.88066499]
 [0.32341667 0.33624016]]",1,0.366
8731382169,f,20,english,5,4,english,2024-01-25 10:41:53.868247,False,2,451,sounds\english\audio/english_80.wav,"[[  0.          33.21374474]
 [  0.1        -72.2618742 ]
 [  0.2        -29.44860443]
 [  0.3        -33.36418129]
 [  0.32341667 -65.11319145]]","[[0.         1.09809668]
 [0.1        1.73594877]
 [0.2        0.30037535]
 [0.3        0.36613598]
 [0.32341667 0.50687614]]",0,1.02
8731382169,f,20,english,5,4,english,2024-01-25 10:41:53.868247,False,2,452,sounds\english\audio/english_132.wav,"[[  0.         -72.51222148]
 [  0.1         -7.68798614]
 [  0.2        -26.80347179]
 [  0.3        -51.62992771]
 [  0.32341667  -1.85745595]]","[[0.         1.10010631]
 [0.1        1.14985521]
 [0.2        1.49426164]
 [0.3        1.25622472]
 [0.32341667 0.89976888]]",1,0.448
8731382169,f,20,english,5,4,english,2024-01-25 10:41:53.868247,False,2,453,sounds\english\audio/english_581.wav,"[[  0.          -4.1565262 ]
 [  0.1         84.55344465]
 [  0.2        -57.45750027]
 [  0.3        -14.35569009]
 [  0.32341667 -54.33758456]]","[[0.         0.01704603]
 [0.1        1.32903406]
 [0.2        1.58046526]
 [0.3        1.16633299]
 [0.32341667 1.20758605]]",0,2.144
8731382169,f,20,english,5,4,english,2024-01-25 10:41:53.868247,False,2,454,sounds\english\audio/english_189.wav,"[[  0.         -22.70456848]
 [  0.1        -12.00888723]
 [  0.2         15.14046376]
 [  0.3        -19.30106293]
 [  0.32341667 -20.57313834]]","[[0.         0.82906961]
 [0.1        0.58408113]
 [0.2        0.19058783]
 [0.3        0.57788611]
 [0.32341667 0.32577637]]",1,0.552
8731382169,f,20,english,5,4,english,2024-01-25 10:41:53.868247,False,2,455,sounds\english\audio/english_347.wav,"[[  0.          34.89178431]
 [  0.1         53.24978685]
 [  0.2          4.11185022]
 [  0.3         89.26663646]
 [  0.32341667 -53.02646266]]","[[0.         1.32203506]
 [0.1        0.28714436]
 [0.2        1.66093526]
 [0.3        1.29826057]
 [0.32341667 0.05504814]]",1,0.479
8731382169,f,20,english,5,4,english,2024-01-25 10:41:53.868247,False,2,456,sounds\english\audio/english_772.wav,"[[  0.         -76.23750274]
 [  0.1         54.42820472]
 [  0.2         26.41325181]
 [  0.3         14.10037165]
 [  0.32341667 -75.83605273]]","[[0.         0.54712598]
 [0.1        1.66698734]
 [0.2        1.761061  ]
 [0.3        1.80899506]
 [0.32341667 1.29882268]]",1,0.55
8731382169,f,20,english,5,4,english,2024-01-25 10:41:53.868247,False,2,457,sounds\english\audio/english_462.wav,"[[  0.         -35.73318704]
 [  0.1         -5.65949109]
 [  0.2        -49.47542688]
 [  0.3        -98.18570674]
 [  0.32341667 -16.34927785]]","[[0.         1.53267708]
 [0.1        1.98369384]
 [0.2        1.31270994]
 [0.3        1.26289606]
 [0.32341667 1.36496903]]",0,0.859
8731382169,f,20,english,5,4,english,2024-01-25 10:41:53.868247,False,2,458,sounds\english\audio/english_429.wav,"[[  0.         -70.82827187]
 [  0.1         79.2644825 ]
 [  0.2         14.29027084]
 [  0.3        -47.65971945]
 [  0.32341667   8.9954872 ]]","[[0.         0.34305232]
 [0.1        1.15525787]
 [0.2        1.85610569]
 [0.3        0.19828098]
 [0.32341667 1.51767034]]",1,0.553
8731382169,f,20,english,5,4,english,2024-01-25 10:41:53.868247,False,2,459,sounds\english\audio/english_955.wav,"[[  0.         -93.58498903]
 [  0.1        -11.56731864]
 [  0.2         60.37787928]
 [  0.3         83.42366765]
 [  0.32341667 -60.32056418]]","[[0.         1.26703381]
 [0.1        0.51967441]
 [0.2        1.0313906 ]
 [0.3        1.58878747]
 [0.32341667 1.0025339 ]]",1,0.683
8731382169,f,20,english,5,4,english,2024-01-25 10:41:53.868247,False,2,460,sounds\english\audio/english_714.wav,"[[  0.           6.62463448]
 [  0.1         -7.37775178]
 [  0.2        -58.74003357]
 [  0.3        -38.84014254]
 [  0.32341667 -23.67047323]]","[[0.         0.98205871]
 [0.1        1.90018259]
 [0.2        1.33033281]
 [0.3        0.20009115]
 [0.32341667 0.44650169]]",1,0.779
8731382169,f,20,english,5,4,english,2024-01-25 10:41:53.868247,False,2,461,sounds\english\audio/english_961.wav,"[[  0.          20.81275789]
 [  0.1         46.48072234]
 [  0.2         79.36291712]
 [  0.3          7.86976501]
 [  0.32341667 -45.45751668]]","[[0.         1.87720953]
 [0.1        1.43497285]
 [0.2        1.9095844 ]
 [0.3        0.20821065]
 [0.32341667 0.0640973 ]]",0,0.354
8731382169,f,20,english,5,4,english,2024-01-25 10:41:53.868247,False,2,462,sounds\english\audio/english_304.wav,"[[  0.         -80.7192326 ]
 [  0.1         34.14230443]
 [  0.2        -43.78548789]
 [  0.3         85.79520644]
 [  0.32341667 -29.32737886]]","[[0.         0.54130022]
 [0.1        0.20766845]
 [0.2        1.25157904]
 [0.3        0.76195837]
 [0.32341667 0.20991234]]",1,1.315
8731382169,f,20,english,5,4,english,2024-01-25 10:41:53.868247,False,2,463,sounds\english\audio/english_728.wav,"[[  0.          -6.4565561 ]
 [  0.1          2.02882612]
 [  0.2        -40.29513079]
 [  0.3        -29.37287389]
 [  0.32341667 -32.17490136]]","[[0.         1.7247049 ]
 [0.1        1.95158608]
 [0.2        0.21085377]
 [0.3        0.85434083]
 [0.32341667 1.52436666]]",0,0.555
8731382169,f,20,english,5,4,english,2024-01-25 10:41:53.868247,False,2,464,sounds\english\audio/english_653.wav,"[[  0.           8.14815906]
 [  0.1          4.49815435]
 [  0.2        -96.80954485]
 [  0.3         -0.49075979]
 [  0.32341667  98.12577208]]","[[0.         1.27061672]
 [0.1        1.37470465]
 [0.2        1.57421691]
 [0.3        1.39011427]
 [0.32341667 0.75484601]]",0,0.669
8731382169,f,20,english,5,4,english,2024-01-25 10:41:53.868247,False,2,465,sounds\english\audio/english_118.wav,"[[  0.         -46.26080879]
 [  0.1        -14.63576669]
 [  0.2         85.04541628]
 [  0.3        -49.31762638]
 [  0.32341667  16.64479416]]","[[0.         0.77156844]
 [0.1        0.55135676]
 [0.2        0.92804695]
 [0.3        1.40435072]
 [0.32341667 1.67291824]]",1,0.982
8731382169,f,20,english,5,4,english,2024-01-25 10:41:53.868247,False,2,466,sounds\english\audio/english_791.wav,"[[  0.          65.91759783]
 [  0.1        -36.70731143]
 [  0.2         67.54354156]
 [  0.3          2.89249458]
 [  0.32341667 -55.92630603]]","[[0.         1.00744019]
 [0.1        0.67929445]
 [0.2        0.95779159]
 [0.3        1.93585264]
 [0.32341667 0.7587469 ]]",0,0.811
8731382169,f,20,english,5,4,english,2024-01-25 10:41:53.868247,False,2,467,sounds\english\audio/english_330.wav,"[[ 0.00000000e+00 -6.60623823e+01]
 [ 1.00000000e-01 -9.07862333e+01]
 [ 2.00000000e-01 -8.10713819e-03]
 [ 3.00000000e-01 -6.12450651e+01]
 [ 3.23416667e-01 -3.44586516e-01]]","[[0.         1.84658225]
 [0.1        0.94726644]
 [0.2        1.52006519]
 [0.3        1.63286843]
 [0.32341667 1.74173618]]",1,1.702
8731382169,f,20,english,5,4,english,2024-01-25 10:41:53.868247,False,2,468,sounds\english\audio/english_241.wav,"[[  0.          68.9743722 ]
 [  0.1         68.48567391]
 [  0.2         12.6952975 ]
 [  0.3         61.42298605]
 [  0.32341667 -18.578671  ]]","[[0.         1.94478574]
 [0.1        1.84895789]
 [0.2        1.1085625 ]
 [0.3        1.36682755]
 [0.32341667 0.93494379]]",0,1.046
8731382169,f,20,english,5,4,english,2024-01-25 10:41:53.868247,False,2,469,sounds\english\audio/english_788.wav,"[[  0.         -93.79628683]
 [  0.1        -45.29703147]
 [  0.2        -46.01001772]
 [  0.3        -56.6729179 ]
 [  0.32341667  51.29020462]]","[[0.         0.67330318]
 [0.1        1.33385595]
 [0.2        1.35248941]
 [0.3        1.33220146]
 [0.32341667 1.32468206]]",1,0.646
8731382169,f,20,english,5,4,english,2024-01-25 10:41:53.868247,False,2,470,sounds\english\audio/english_44.wav,"[[  0.         -68.86201344]
 [  0.1         36.61833882]
 [  0.2        -60.65796264]
 [  0.3        -99.582901  ]
 [  0.32341667  68.59920212]]","[[0.         1.38154723]
 [0.1        0.11193842]
 [0.2        0.83798569]
 [0.3        0.3073865 ]
 [0.32341667 1.10922951]]",0,1.882
8731382169,f,20,english,5,4,english,2024-01-25 10:41:53.868247,False,2,471,sounds\english\audio/english_952.wav,"[[  0.          64.91746033]
 [  0.1        -25.84234774]
 [  0.2         60.30097417]
 [  0.3        -98.0606555 ]
 [  0.32341667 -77.98984902]]","[[0.         1.00586425]
 [0.1        1.28790365]
 [0.2        1.6668124 ]
 [0.3        1.44616756]
 [0.32341667 0.15831209]]",1,1.142
8731382169,f,20,english,5,4,english,2024-01-25 10:41:53.868247,False,2,472,sounds\english\audio/english_643.wav,"[[  0.         -40.15003434]
 [  0.1        -24.12893917]
 [  0.2        -40.66556796]
 [  0.3         75.01987067]
 [  0.32341667  29.71481383]]","[[0.         1.60262153]
 [0.1        1.7682358 ]
 [0.2        0.31725537]
 [0.3        0.56722121]
 [0.32341667 1.87277365]]",0,0.306
8731382169,f,20,english,5,4,english,2024-01-25 10:41:53.868247,False,2,473,sounds\english\audio/english_647.wav,"[[  0.          -8.76796469]
 [  0.1        -49.13996982]
 [  0.2         43.79634461]
 [  0.3          5.5781311 ]
 [  0.32341667  17.41251701]]","[[0.         1.6238225 ]
 [0.1        1.56934089]
 [0.2        0.78560304]
 [0.3        0.61771672]
 [0.32341667 1.2404866 ]]",1,0.639
8731382169,f,20,english,5,4,english,2024-01-25 10:41:53.868247,False,2,474,sounds\english\audio/english_899.wav,"[[  0.          34.44970312]
 [  0.1        -73.97598586]
 [  0.2          4.84970015]
 [  0.3         25.99530817]
 [  0.32341667   7.0197251 ]]","[[0.         1.0262563 ]
 [0.1        0.5565938 ]
 [0.2        0.08950317]
 [0.3        1.10823657]
 [0.32341667 1.27665612]]",0,0.652
8731382169,f,20,english,5,4,english,2024-01-25 10:41:53.868247,False,2,475,sounds\english\audio/english_840.wav,"[[  0.         -27.11425843]
 [  0.1        -47.31494811]
 [  0.2        -88.66887426]
 [  0.3          7.86940595]
 [  0.32341667  87.61758205]]","[[0.         1.31301797]
 [0.1        0.54280133]
 [0.2        0.14090987]
 [0.3        0.11950116]
 [0.32341667 1.48166624]]",0,1.038
8731382169,f,20,english,5,4,english,2024-01-25 10:41:53.868247,False,2,476,sounds\english\audio/english_100.wav,"[[  0.         -66.86198445]
 [  0.1         32.23990363]
 [  0.2        -63.31896149]
 [  0.3        -73.00038049]
 [  0.32341667  32.15710315]]","[[0.         0.79522553]
 [0.1        0.27784591]
 [0.2        1.76330212]
 [0.3        0.60946618]
 [0.32341667 0.42695433]]",0,1.038
8731382169,f,20,english,5,4,english,2024-01-25 10:41:53.868247,False,2,477,sounds\english\audio/english_304.wav,"[[  0.         -80.7192326 ]
 [  0.1         34.14230443]
 [  0.2        -43.78548789]
 [  0.3         85.79520644]
 [  0.32341667 -29.32737886]]","[[0.         0.54130022]
 [0.1        0.20766845]
 [0.2        1.25157904]
 [0.3        0.76195837]
 [0.32341667 0.20991234]]",1,0.491
8731382169,f,20,english,5,4,english,2024-01-25 10:41:53.868247,False,2,478,sounds\english\audio/english_513.wav,"[[  0.          76.78578212]
 [  0.1         20.42124481]
 [  0.2         83.32251122]
 [  0.3         47.28432413]
 [  0.32341667 -50.64117466]]","[[0.         0.02403043]
 [0.1        0.85164369]
 [0.2        1.08658436]
 [0.3        0.40639055]
 [0.32341667 1.29336046]]",1,1.848
8731382169,f,20,english,5,4,english,2024-01-25 10:41:53.868247,False,2,479,sounds\english\audio/english_1.wav,"[[  0.          53.99031816]
 [  0.1        -58.32145174]
 [  0.2        -86.75659624]
 [  0.3        -31.84945767]
 [  0.32341667 -59.21997754]]","[[0.         1.91732561]
 [0.1        0.75352701]
 [0.2        1.40297919]
 [0.3        0.12157709]
 [0.32341667 1.57687546]]",1,0.778
8731382169,f,20,english,5,4,english,2024-01-25 10:41:53.868247,False,2,480,sounds\english\audio/english_910.wav,"[[  0.          -5.78748479]
 [  0.1         25.040103  ]
 [  0.2        -40.66398147]
 [  0.3        -99.21011725]
 [  0.32341667  30.82754841]]","[[0.         0.61840584]
 [0.1        1.20431928]
 [0.2        1.66594732]
 [0.3        0.99007018]
 [0.32341667 0.23705338]]",1,0.699
8731382169,f,20,english,5,4,english,2024-01-25 10:41:53.868247,False,2,481,sounds\english\audio/english_147.wav,"[[  0.         -14.37625717]
 [  0.1        -48.99147792]
 [  0.2        -76.025031  ]
 [  0.3         -4.271985  ]
 [  0.32341667  90.36670579]]","[[0.         1.08714974]
 [0.1        1.05600262]
 [0.2        0.62193731]
 [0.3        1.23272935]
 [0.32341667 0.90867663]]",1,1.246
8731382169,f,20,english,5,4,english,2024-01-25 10:41:53.868247,False,2,482,sounds\english\audio/english_924.wav,"[[  0.          63.64154058]
 [  0.1        -60.55254199]
 [  0.2        -47.94670646]
 [  0.3        -76.50696127]
 [  0.32341667  44.23103111]]","[[0.         1.83477076]
 [0.1        0.21366754]
 [0.2        1.07859551]
 [0.3        1.9507375 ]
 [0.32341667 1.33476666]]",1,0.918
8731382169,f,20,english,5,4,english,2024-01-25 10:41:53.868247,False,2,483,sounds\english\audio/english_289.wav,"[[  0.         -55.97739865]
 [  0.1        -97.9801122 ]
 [  0.2         44.28679287]
 [  0.3        -74.0895039 ]
 [  0.32341667 -44.25845537]]","[[0.         0.95213243]
 [0.1        0.81858491]
 [0.2        1.16094748]
 [0.3        0.92969459]
 [0.32341667 0.41504245]]",1,0.608
8731382169,f,20,english,5,4,english,2024-01-25 10:41:53.868247,False,2,484,sounds\english\audio/english_321.wav,"[[ 0.          2.07721816]
 [ 0.1        59.48735819]
 [ 0.2        64.78149714]
 [ 0.3        65.58393414]
 [ 0.32341667 14.66673939]]","[[0.         1.69623759]
 [0.1        1.35736687]
 [0.2        1.92920457]
 [0.3        0.66559077]
 [0.32341667 1.66523208]]",0,0.568
8731382169,f,20,english,5,4,english,2024-01-25 10:41:53.868247,False,2,485,sounds\english\audio/english_915.wav,"[[  0.          40.39704719]
 [  0.1        -77.86782689]
 [  0.2         21.84672988]
 [  0.3        -56.0972156 ]
 [  0.32341667  65.00594456]]","[[0.         0.11203387]
 [0.1        0.449249  ]
 [0.2        0.02407483]
 [0.3        1.6502756 ]
 [0.32341667 0.65362707]]",1,0.847
8731382169,f,20,english,5,4,english,2024-01-25 10:41:53.868247,False,2,486,sounds\english\audio/english_882.wav,"[[  0.         -42.93700265]
 [  0.1        -62.35786663]
 [  0.2        -16.20482572]
 [  0.3        -46.49020195]
 [  0.32341667 -64.89408339]]","[[0.         1.06489748]
 [0.1        1.38883859]
 [0.2        0.28843799]
 [0.3        1.05408179]
 [0.32341667 1.78517837]]",0,0.744
8731382169,f,20,english,5,4,english,2024-01-25 10:41:53.868247,False,2,487,sounds\english\audio/english_440.wav,"[[  0.          44.70308901]
 [  0.1        -88.0257567 ]
 [  0.2          1.19893433]
 [  0.3         19.45485395]
 [  0.32341667  13.00088222]]","[[0.00000000e+00 1.51497438e+00]
 [1.00000000e-01 1.05972447e+00]
 [2.00000000e-01 5.90820378e-01]
 [3.00000000e-01 6.80586803e-01]
 [3.23416667e-01 6.18341324e-04]]",1,0.552
8731382169,f,20,english,5,4,english,2024-01-25 10:41:53.868247,False,2,488,sounds\english\audio/english_310.wav,"[[  0.          82.1385274 ]
 [  0.1        -33.74608058]
 [  0.2         62.12487376]
 [  0.3         96.31437548]
 [  0.32341667 -23.64802517]]","[[0.         0.14341218]
 [0.1        1.80934389]
 [0.2        1.28785402]
 [0.3        1.13060378]
 [0.32341667 1.05137249]]",1,0.624
8731382169,f,20,english,5,4,english,2024-01-25 10:41:53.868247,False,2,489,sounds\english\audio/english_412.wav,"[[  0.         -82.38375592]
 [  0.1        -35.89348303]
 [  0.2        -78.50422887]
 [  0.3          8.19618882]
 [  0.32341667  88.30694734]]","[[0.         0.41347899]
 [0.1        0.05505218]
 [0.2        1.28972039]
 [0.3        0.97331843]
 [0.32341667 0.22558246]]",1,0.569
8731382169,f,20,english,5,4,english,2024-01-25 10:41:53.868247,False,2,490,sounds\english\audio/english_967.wav,"[[  0.         -33.19777689]
 [  0.1         83.84847924]
 [  0.2         81.27362124]
 [  0.3         22.78466805]
 [  0.32341667  16.56894366]]","[[0.         0.76720641]
 [0.1        1.4094361 ]
 [0.2        0.74435637]
 [0.3        0.29904584]
 [0.32341667 0.47687807]]",1,0.633
8731382169,f,20,english,5,4,english,2024-01-25 10:41:53.868247,False,2,491,sounds\english\audio/english_668.wav,"[[ 0.         48.8265236 ]
 [ 0.1        97.68090991]
 [ 0.2        47.50182685]
 [ 0.3        81.7432518 ]
 [ 0.32341667 28.08178094]]","[[0.         0.43768829]
 [0.1        0.31983773]
 [0.2        1.24438546]
 [0.3        0.49120307]
 [0.32341667 0.60639718]]",1,0.624
8731382169,f,20,english,5,4,english,2024-01-25 10:41:53.868247,False,2,492,sounds\english\audio/english_431.wav,"[[  0.         -28.91437381]
 [  0.1         30.6479342 ]
 [  0.2         41.25713347]
 [  0.3          9.19018397]
 [  0.32341667 -61.77590044]]","[[0.         1.3282391 ]
 [0.1        1.9405757 ]
 [0.2        1.67607787]
 [0.3        0.62213613]
 [0.32341667 0.50881411]]",1,0.396
8731382169,f,20,english,5,4,english,2024-01-25 10:41:53.868247,False,2,493,sounds\english\audio/english_30.wav,"[[  0.         -18.5398728 ]
 [  0.1        -67.34991207]
 [  0.2         65.54879707]
 [  0.3         30.88088319]
 [  0.32341667  50.60550813]]","[[0.         0.31748681]
 [0.1        1.82477139]
 [0.2        1.59992979]
 [0.3        0.89523729]
 [0.32341667 1.02052202]]",1,0.462
8731382169,f,20,english,5,4,english,2024-01-25 10:41:53.868247,False,2,494,sounds\english\audio/english_868.wav,"[[  0.         -32.61379415]
 [  0.1        -13.61007492]
 [  0.2        -35.23756027]
 [  0.3         83.12333319]
 [  0.32341667  62.80865362]]","[[0.         0.76599538]
 [0.1        0.34348987]
 [0.2        0.26787397]
 [0.3        0.46343078]
 [0.32341667 1.59158725]]",0,0.68
8731382169,f,20,english,5,4,english,2024-01-25 10:41:53.868247,False,2,495,sounds\english\audio/english_197.wav,"[[  0.         -60.72223742]
 [  0.1        -88.93421142]
 [  0.2         51.43827126]
 [  0.3          7.80125839]
 [  0.32341667 -53.06876459]]","[[0.         1.8449777 ]
 [0.1        1.74693134]
 [0.2        1.11057597]
 [0.3        1.67371275]
 [0.32341667 1.16077516]]",0,0.217
8731382169,f,20,english,5,4,english,2024-01-25 10:41:53.868247,False,2,496,sounds\english\audio/english_968.wav,"[[  0.         -36.76350372]
 [  0.1        -99.8991193 ]
 [  0.2         27.503089  ]
 [  0.3        -34.85106147]
 [  0.32341667  68.2869663 ]]","[[0.         0.52322451]
 [0.1        0.66419732]
 [0.2        0.44232096]
 [0.3        1.90778707]
 [0.32341667 0.59652698]]",0,0.645
8731382169,f,20,english,5,4,english,2024-01-25 10:41:53.868247,False,2,497,sounds\english\audio/english_256.wav,"[[  0.          22.60769813]
 [  0.1        -95.01444593]
 [  0.2        -19.91310746]
 [  0.3         -6.39209363]
 [  0.32341667  24.02209282]]","[[0.         1.84037168]
 [0.1        0.47687766]
 [0.2        0.85339151]
 [0.3        0.75097161]
 [0.32341667 1.98695073]]",0,0.437
8731382169,f,20,english,5,4,english,2024-01-25 10:41:53.868247,False,2,498,sounds\english\audio/english_138.wav,"[[  0.         -79.80620147]
 [  0.1        -15.42889109]
 [  0.2        -88.31677226]
 [  0.3         26.6486106 ]
 [  0.32341667 -42.18894711]]","[[0.         0.37063564]
 [0.1        0.81801141]
 [0.2        0.0634538 ]
 [0.3        1.85131452]
 [0.32341667 1.66059024]]",0,0.764
8731382169,f,20,english,5,4,english,2024-01-25 10:41:53.868247,False,2,499,sounds\english\audio/english_284.wav,"[[  0.         -77.15161711]
 [  0.1         80.53955212]
 [  0.2        -73.74967403]
 [  0.3        -47.67008962]
 [  0.32341667  40.40758666]]","[[0.         0.74585549]
 [0.1        0.017077  ]
 [0.2        0.284322  ]
 [0.3        1.04459593]
 [0.32341667 0.8536958 ]]",0,0.647
8731382169,f,20,english,5,4,english,2024-01-25 10:41:53.868247,False,2,500,sounds\english\audio/english_626.wav,"[[  0.           4.25415757]
 [  0.1        -41.27415217]
 [  0.2        -74.74598363]
 [  0.3        -15.94741517]
 [  0.32341667  43.51897949]]","[[0.         0.7037323 ]
 [0.1        1.26912647]
 [0.2        0.17760594]
 [0.3        1.12963497]
 [0.32341667 0.85087029]]",0,0.301
8731382169,f,20,english,5,4,english,2024-01-25 10:41:53.868247,False,2,501,sounds\english\audio/english_285.wav,"[[  0.         -19.0536712 ]
 [  0.1        -63.15395986]
 [  0.2        -57.682926  ]
 [  0.3        -56.52362331]
 [  0.32341667  11.40665652]]","[[0.         1.18823065]
 [0.1        1.010644  ]
 [0.2        0.4943662 ]
 [0.3        0.66348991]
 [0.32341667 0.86242978]]",0,0.529
8731382169,f,20,english,5,4,english,2024-01-25 10:41:53.868247,False,2,502,sounds\english\audio/english_458.wav,"[[  0.         -49.69821038]
 [  0.1        -49.80647014]
 [  0.2         11.98261521]
 [  0.3         59.43319096]
 [  0.32341667 -34.5671642 ]]","[[0.         0.39452057]
 [0.1        1.24604375]
 [0.2        0.42272405]
 [0.3        0.21259233]
 [0.32341667 1.13235362]]",0,0.594
