subj,sex,age,language,english,french,native_lang,date,practice,block,trial,stim,pitch,stretch,response,rt
2,f,31,english,5,3,english,2024-02-09 13:55:12.834847,True,0,0,sounds\english\audio/english_500.wav,"[[  0.          34.07818593]
 [  0.1         31.06479142]
 [  0.2        -63.34751057]
 [  0.3         36.97827554]
 [  0.32341667  96.68235718]]","[[0.         1.14050746]
 [0.1        1.87458021]
 [0.2        0.77467433]
 [0.3        1.278432  ]
 [0.32341667 0.68469821]]",1,7.521
2,f,31,english,5,3,english,2024-02-09 13:55:12.834847,True,0,1,sounds\english\audio/english_366.wav,"[[  0.          30.08929792]
 [  0.1        -17.9139155 ]
 [  0.2        -66.75779592]
 [  0.3         77.64459909]
 [  0.32341667  72.64294537]]","[[0.         0.87054072]
 [0.1        0.34658018]
 [0.2        0.49970414]
 [0.3        1.94720887]
 [0.32341667 1.76390144]]",0,1.05
2,f,31,english,5,3,english,2024-02-09 13:55:12.834847,True,0,2,sounds\english\audio/english_125.wav,"[[  0.          -5.59692586]
 [  0.1         45.61970603]
 [  0.2        -80.48713695]
 [  0.3         76.65956808]
 [  0.32341667  -9.14506838]]","[[0.         0.61478703]
 [0.1        0.5852269 ]
 [0.2        1.26290546]
 [0.3        1.54178375]
 [0.32341667 0.79261171]]",1,1.319
2,f,31,english,5,3,english,2024-02-09 13:55:12.834847,False,1,3,sounds\english\audio/english_327.wav,"[[  0.         -65.34261839]
 [  0.1        -88.88296173]
 [  0.2        -52.48624316]
 [  0.3         35.3894457 ]
 [  0.32341667 -31.26503482]]","[[0.         0.94624792]
 [0.1        0.88463276]
 [0.2        0.8064175 ]
 [0.3        1.08656597]
 [0.32341667 0.95323019]]",0,1.724
2,f,31,english,5,3,english,2024-02-09 13:55:12.834847,False,1,4,sounds\english\audio/english_979.wav,"[[  0.          -1.00654814]
 [  0.1         18.39835707]
 [  0.2        -42.91789413]
 [  0.3        -58.29527223]
 [  0.32341667  86.14740424]]","[[0.         1.61411081]
 [0.1        1.30464512]
 [0.2        0.93120215]
 [0.3        0.87145212]
 [0.32341667 1.17332389]]",0,1.48
2,f,31,english,5,3,english,2024-02-09 13:55:12.834847,False,1,5,sounds\english\audio/english_607.wav,"[[ 0.         46.6865757 ]
 [ 0.1        39.2269946 ]
 [ 0.2         9.54774619]
 [ 0.3        16.02187378]
 [ 0.32341667 75.62266759]]","[[0.         1.30575186]
 [0.1        1.04660061]
 [0.2        0.88274406]
 [0.3        1.5824547 ]
 [0.32341667 0.67660632]]",0,0.45
2,f,31,english,5,3,english,2024-02-09 13:55:12.834847,False,1,6,sounds\english\audio/english_462.wav,"[[  0.         -35.73318704]
 [  0.1         -5.65949109]
 [  0.2        -49.47542688]
 [  0.3        -98.18570674]
 [  0.32341667 -16.34927785]]","[[0.         1.53267708]
 [0.1        1.98369384]
 [0.2        1.31270994]
 [0.3        1.26289606]
 [0.32341667 1.36496903]]",1,0.154
2,f,31,english,5,3,english,2024-02-09 13:55:12.834847,False,1,7,sounds\english\audio/english_332.wav,"[[  0.         -51.41680869]
 [  0.1          4.985172  ]
 [  0.2         88.20327684]
 [  0.3        -58.40734817]
 [  0.32341667  68.30800912]]","[[0.         1.58782391]
 [0.1        0.72138411]
 [0.2        1.12265768]
 [0.3        0.23569111]
 [0.32341667 1.23583309]]",0,1.148
2,f,31,english,5,3,english,2024-02-09 13:55:12.834847,False,1,8,sounds\english\audio/english_114.wav,"[[  0.          32.66189176]
 [  0.1         11.50533392]
 [  0.2        -73.58201401]
 [  0.3         -8.93644113]
 [  0.32341667  -2.4794064 ]]","[[0.         0.56529239]
 [0.1        1.79520186]
 [0.2        1.4619954 ]
 [0.3        0.78288211]
 [0.32341667 0.66376764]]",1,0.362
2,f,31,english,5,3,english,2024-02-09 13:55:12.834847,False,1,9,sounds\english\audio/english_663.wav,"[[  0.          55.84438863]
 [  0.1        -89.02249371]
 [  0.2        -13.61345685]
 [  0.3         14.50375693]
 [  0.32341667  80.63633164]]","[[0.         1.29444713]
 [0.1        0.90215198]
 [0.2        1.61104603]
 [0.3        0.31375715]
 [0.32341667 1.01784406]]",0,0.344
2,f,31,english,5,3,english,2024-02-09 13:55:12.834847,False,1,10,sounds\english\audio/english_265.wav,"[[  0.         -30.2287418 ]
 [  0.1         86.62283936]
 [  0.2        -21.47577863]
 [  0.3         84.9300577 ]
 [  0.32341667  59.52250756]]","[[0.         1.31067296]
 [0.1        0.87427745]
 [0.2        1.37620008]
 [0.3        0.45825557]
 [0.32341667 1.13518739]]",1,0.153
2,f,31,english,5,3,english,2024-02-09 13:55:12.834847,False,1,11,sounds\english\audio/english_663.wav,"[[  0.          55.84438863]
 [  0.1        -89.02249371]
 [  0.2        -13.61345685]
 [  0.3         14.50375693]
 [  0.32341667  80.63633164]]","[[0.         1.29444713]
 [0.1        0.90215198]
 [0.2        1.61104603]
 [0.3        0.31375715]
 [0.32341667 1.01784406]]",1,0.4
2,f,31,english,5,3,english,2024-02-09 13:55:12.834847,False,1,12,sounds\english\audio/english_39.wav,"[[  0.          28.0167149 ]
 [  0.1          0.73047565]
 [  0.2        -55.83763262]
 [  0.3        -59.78026112]
 [  0.32341667  81.1603589 ]]","[[0.         1.3269735 ]
 [0.1        0.59121622]
 [0.2        0.32613901]
 [0.3        1.39661139]
 [0.32341667 0.76065887]]",0,0.227
2,f,31,english,5,3,english,2024-02-09 13:55:12.834847,False,1,13,sounds\english\audio/english_571.wav,"[[  0.         -42.92588422]
 [  0.1        -87.39276897]
 [  0.2         19.06282168]
 [  0.3        -99.30459792]
 [  0.32341667  41.25263337]]","[[0.         0.65590276]
 [0.1        1.8306878 ]
 [0.2        0.06889765]
 [0.3        0.29364209]
 [0.32341667 1.388798  ]]",1,0.396
2,f,31,english,5,3,english,2024-02-09 13:55:12.834847,False,1,14,sounds\english\audio/english_309.wav,"[[  0.          59.8258624 ]
 [  0.1         73.70427758]
 [  0.2         -8.71125849]
 [  0.3        -86.6882155 ]
 [  0.32341667 -90.77340978]]","[[0.         0.58100331]
 [0.1        0.81024997]
 [0.2        0.10827203]
 [0.3        0.09670208]
 [0.32341667 1.53063904]]",1,0.946
2,f,31,english,5,3,english,2024-02-09 13:55:12.834847,False,1,15,sounds\english\audio/english_47.wav,"[[  0.          70.62381491]
 [  0.1        -43.60565268]
 [  0.2         29.54670776]
 [  0.3         95.208653  ]
 [  0.32341667 -87.83630424]]","[[0.         1.36620222]
 [0.1        0.47559644]
 [0.2        0.92078875]
 [0.3        0.83015506]
 [0.32341667 1.40747595]]",0,0.168
2,f,31,english,5,3,english,2024-02-09 13:55:12.834847,False,1,16,sounds\english\audio/english_117.wav,"[[  0.         -98.72491255]
 [  0.1        -15.15642563]
 [  0.2         24.45806353]
 [  0.3        -80.67224668]
 [  0.32341667 -97.50349755]]","[[0.         1.42659946]
 [0.1        1.64599539]
 [0.2        0.97767705]
 [0.3        0.37962884]
 [0.32341667 0.74274723]]",1,0.569
2,f,31,english,5,3,english,2024-02-09 13:55:12.834847,False,1,17,sounds\english\audio/english_74.wav,"[[  0.          86.29588785]
 [  0.1        -14.52381687]
 [  0.2         77.94321906]
 [  0.3        -32.33104188]
 [  0.32341667   9.46602754]]","[[0.         1.196208  ]
 [0.1        1.63208143]
 [0.2        0.46125368]
 [0.3        1.38278461]
 [0.32341667 0.83147108]]",0,0.299
2,f,31,english,5,3,english,2024-02-09 13:55:12.834847,False,1,18,sounds\english\audio/english_342.wav,"[[  0.          78.00911228]
 [  0.1        -28.67768894]
 [  0.2         73.55618202]
 [  0.3         93.0509223 ]
 [  0.32341667  -2.74816459]]","[[0.         0.99673345]
 [0.1        1.80563483]
 [0.2        1.38552336]
 [0.3        0.17145116]
 [0.32341667 0.15059009]]",0,0.746
2,f,31,english,5,3,english,2024-02-09 13:55:12.834847,False,1,19,sounds\english\audio/english_777.wav,"[[  0.         -69.33808121]
 [  0.1         83.00406244]
 [  0.2         52.8456083 ]
 [  0.3        -67.57367145]
 [  0.32341667  44.30015735]]","[[0.         1.41371967]
 [0.1        0.89293833]
 [0.2        0.52129979]
 [0.3        0.31704889]
 [0.32341667 0.90388625]]",1,1.158
2,f,31,english,5,3,english,2024-02-09 13:55:12.834847,False,1,20,sounds\english\audio/english_875.wav,"[[  0.         -72.29566874]
 [  0.1         40.49821439]
 [  0.2         61.66936014]
 [  0.3         36.92950197]
 [  0.32341667  61.03530789]]","[[0.         0.47412948]
 [0.1        0.97105678]
 [0.2        1.31175081]
 [0.3        0.55015514]
 [0.32341667 1.23529794]]",0,0.488
2,f,31,english,5,3,english,2024-02-09 13:55:12.834847,False,1,21,sounds\english\audio/english_411.wav,"[[  0.          75.357241  ]
 [  0.1        -55.75688593]
 [  0.2         61.10111178]
 [  0.3         90.25367142]
 [  0.32341667  26.85831553]]","[[0.         0.83773649]
 [0.1        0.80885485]
 [0.2        0.61144368]
 [0.3        0.73863407]
 [0.32341667 0.4624235 ]]",0,1.346
2,f,31,english,5,3,english,2024-02-09 13:55:12.834847,False,1,22,sounds\english\audio/english_290.wav,"[[  0.          73.71968657]
 [  0.1        -59.85317413]
 [  0.2         71.1426587 ]
 [  0.3        -18.50007061]
 [  0.32341667 -65.91143137]]","[[0.         0.30552726]
 [0.1        1.31636279]
 [0.2        0.54925413]
 [0.3        1.26204455]
 [0.32341667 0.60528556]]",1,0.807
2,f,31,english,5,3,english,2024-02-09 13:55:12.834847,False,1,23,sounds\english\audio/english_562.wav,"[[  0.         -40.22672309]
 [  0.1         77.961849  ]
 [  0.2         25.52463525]
 [  0.3         84.62788358]
 [  0.32341667 -53.67427145]]","[[0.         0.64031882]
 [0.1        0.7637006 ]
 [0.2        0.87632482]
 [0.3        0.98972612]
 [0.32341667 0.74010285]]",0,0.304
2,f,31,english,5,3,english,2024-02-09 13:55:12.834847,False,1,24,sounds\english\audio/english_81.wav,"[[  0.          -8.99652005]
 [  0.1         37.2959996 ]
 [  0.2         56.49217416]
 [  0.3         99.31521879]
 [  0.32341667 -25.36881215]]","[[0.         1.6890162 ]
 [0.1        1.86826101]
 [0.2        0.68929954]
 [0.3        0.22383451]
 [0.32341667 0.930773  ]]",1,0.595
2,f,31,english,5,3,english,2024-02-09 13:55:12.834847,False,1,25,sounds\english\audio/english_615.wav,"[[  0.          76.05955912]
 [  0.1         54.62950786]
 [  0.2        -31.02204933]
 [  0.3         -3.27946314]
 [  0.32341667  51.350795  ]]","[[0.         1.68553334]
 [0.1        1.5058876 ]
 [0.2        1.66676809]
 [0.3        1.09840801]
 [0.32341667 0.25314986]]",1,0.39
2,f,31,english,5,3,english,2024-02-09 13:55:12.834847,False,1,26,sounds\english\audio/english_279.wav,"[[  0.         -20.90398108]
 [  0.1         98.83098338]
 [  0.2        -95.37608427]
 [  0.3        -52.65380993]
 [  0.32341667  47.72500112]]","[[0.         0.60114424]
 [0.1        0.92336304]
 [0.2        1.39045705]
 [0.3        0.64938935]
 [0.32341667 1.57478054]]",1,0.986
2,f,31,english,5,3,english,2024-02-09 13:55:12.834847,False,1,27,sounds\english\audio/english_716.wav,"[[  0.         -41.01159081]
 [  0.1        -51.78631031]
 [  0.2        -25.7252513 ]
 [  0.3         78.18950514]
 [  0.32341667 -26.78025651]]","[[0.         1.70683796]
 [0.1        1.57787804]
 [0.2        1.76538287]
 [0.3        1.34280163]
 [0.32341667 1.89346788]]",1,0.845
2,f,31,english,5,3,english,2024-02-09 13:55:12.834847,False,1,28,sounds\english\audio/english_591.wav,"[[  0.         -17.23532002]
 [  0.1        -55.20494434]
 [  0.2        -36.65883109]
 [  0.3         75.34514139]
 [  0.32341667  31.2832342 ]]","[[0.         0.16408748]
 [0.1        0.21361432]
 [0.2        0.19384467]
 [0.3        0.82850175]
 [0.32341667 1.471328  ]]",1,1.547
2,f,31,english,5,3,english,2024-02-09 13:55:12.834847,False,1,29,sounds\english\audio/english_603.wav,"[[  0.         -14.17444723]
 [  0.1         -4.64921339]
 [  0.2        -23.32469505]
 [  0.3        -59.01260874]
 [  0.32341667  88.53711532]]","[[0.         1.28295305]
 [0.1        0.35920956]
 [0.2        0.60281559]
 [0.3        0.58107079]
 [0.32341667 1.19087365]]",1,0.763
2,f,31,english,5,3,english,2024-02-09 13:55:12.834847,False,1,30,sounds\english\audio/english_908.wav,"[[  0.          48.62867987]
 [  0.1         15.18588807]
 [  0.2        -42.37345339]
 [  0.3         10.74033392]
 [  0.32341667 -40.14378972]]","[[0.         1.27180628]
 [0.1        0.65893562]
 [0.2        1.07678682]
 [0.3        1.66111239]
 [0.32341667 0.30218678]]",0,1.475
2,f,31,english,5,3,english,2024-02-09 13:55:12.834847,False,1,31,sounds\english\audio/english_493.wav,"[[  0.          42.62366846]
 [  0.1        -24.95330968]
 [  0.2         82.3526737 ]
 [  0.3         53.78370402]
 [  0.32341667 -52.5410085 ]]","[[0.         0.72879325]
 [0.1        1.87742997]
 [0.2        1.69463318]
 [0.3        0.82529142]
 [0.32341667 0.10126548]]",1,2.575
2,f,31,english,5,3,english,2024-02-09 13:55:12.834847,False,1,32,sounds\english\audio/english_37.wav,"[[  0.          -5.54999706]
 [  0.1         23.22206304]
 [  0.2        -57.36481589]
 [  0.3         58.0578648 ]
 [  0.32341667  66.03280024]]","[[0.         1.12257854]
 [0.1        1.8669628 ]
 [0.2        0.39386712]
 [0.3        1.21765674]
 [0.32341667 0.74428952]]",0,2.568
2,f,31,english,5,3,english,2024-02-09 13:55:12.834847,False,1,33,sounds\english\audio/english_250.wav,"[[  0.          15.9272347 ]
 [  0.1        -20.77070657]
 [  0.2        -20.08480075]
 [  0.3        -29.82576937]
 [  0.32341667  87.83532187]]","[[0.         0.97372592]
 [0.1        1.45189783]
 [0.2        0.50513237]
 [0.3        1.38910207]
 [0.32341667 1.51614456]]",1,1.782
2,f,31,english,5,3,english,2024-02-09 13:55:12.834847,False,1,34,sounds\english\audio/english_451.wav,"[[  0.         -87.31297583]
 [  0.1        -44.51362963]
 [  0.2        -15.52945473]
 [  0.3         11.70886435]
 [  0.32341667  82.84342256]]","[[0.         0.44823779]
 [0.1        0.44678563]
 [0.2        1.69444841]
 [0.3        0.18586344]
 [0.32341667 0.9677256 ]]",1,1.6
2,f,31,english,5,3,english,2024-02-09 13:55:12.834847,False,1,35,sounds\english\audio/english_794.wav,"[[  0.           5.57967757]
 [  0.1         -3.8737546 ]
 [  0.2        -24.29943164]
 [  0.3          3.56417137]
 [  0.32341667 -13.30357118]]","[[0.         1.6157291 ]
 [0.1        0.80008436]
 [0.2        0.69881068]
 [0.3        1.55658335]
 [0.32341667 1.787412  ]]",1,0.947
2,f,31,english,5,3,english,2024-02-09 13:55:12.834847,False,1,36,sounds\english\audio/english_50.wav,"[[  0.         -72.72872807]
 [  0.1        -88.33626222]
 [  0.2         -2.18882928]
 [  0.3         60.61456424]
 [  0.32341667  95.28335061]]","[[0.         1.68140442]
 [0.1        1.82728433]
 [0.2        0.80476824]
 [0.3        0.21215651]
 [0.32341667 1.87644163]]",1,0.842
2,f,31,english,5,3,english,2024-02-09 13:55:12.834847,False,1,37,sounds\english\audio/english_820.wav,"[[  0.         -46.83321603]
 [  0.1         41.6487922 ]
 [  0.2          8.4156442 ]
 [  0.3        -54.82963666]
 [  0.32341667  30.43602938]]","[[0.         0.84618107]
 [0.1        0.98544532]
 [0.2        0.7701051 ]
 [0.3        1.20043732]
 [0.32341667 1.85489027]]",0,0.632
2,f,31,english,5,3,english,2024-02-09 13:55:12.834847,False,1,38,sounds\english\audio/english_287.wav,"[[  0.          -5.71925808]
 [  0.1        -94.78041007]
 [  0.2          8.34641368]
 [  0.3         36.34893025]
 [  0.32341667 -22.47689594]]","[[0.         1.04112926]
 [0.1        0.35149142]
 [0.2        0.86781598]
 [0.3        1.897904  ]
 [0.32341667 0.5607403 ]]",1,1.433
2,f,31,english,5,3,english,2024-02-09 13:55:12.834847,False,1,39,sounds\english\audio/english_946.wav,"[[  0.         -74.23479435]
 [  0.1        -11.3601526 ]
 [  0.2         36.50675361]
 [  0.3        -13.94845552]
 [  0.32341667  -6.97265347]]","[[0.         1.22824298]
 [0.1        0.85784227]
 [0.2        0.09585286]
 [0.3        0.43829102]
 [0.32341667 0.86422506]]",1,1.611
2,f,31,english,5,3,english,2024-02-09 13:55:12.834847,False,1,40,sounds\english\audio/english_229.wav,"[[  0.          51.56916705]
 [  0.1        -51.28327497]
 [  0.2         97.78221202]
 [  0.3        -75.98126047]
 [  0.32341667 -44.05308002]]","[[0.         1.25898044]
 [0.1        0.34588319]
 [0.2        1.91985924]
 [0.3        0.82059623]
 [0.32341667 1.38191391]]",1,1.829
2,f,31,english,5,3,english,2024-02-09 13:55:12.834847,False,1,41,sounds\english\audio/english_385.wav,"[[  0.         -55.07910634]
 [  0.1        -94.47680079]
 [  0.2         38.70414457]
 [  0.3        -46.17691   ]
 [  0.32341667   2.5941508 ]]","[[0.         1.75648555]
 [0.1        1.20856462]
 [0.2        0.98103352]
 [0.3        1.45745263]
 [0.32341667 0.88353815]]",0,0.561
2,f,31,english,5,3,english,2024-02-09 13:55:12.834847,False,1,42,sounds\english\audio/english_30.wav,"[[  0.         -18.5398728 ]
 [  0.1        -67.34991207]
 [  0.2         65.54879707]
 [  0.3         30.88088319]
 [  0.32341667  50.60550813]]","[[0.         0.31748681]
 [0.1        1.82477139]
 [0.2        1.59992979]
 [0.3        0.89523729]
 [0.32341667 1.02052202]]",0,0.856
2,f,31,english,5,3,english,2024-02-09 13:55:12.834847,False,1,43,sounds\english\audio/english_613.wav,"[[  0.         -12.80235787]
 [  0.1         38.67858639]
 [  0.2         21.08834288]
 [  0.3         94.81469787]
 [  0.32341667  18.45506868]]","[[0.         0.8409713 ]
 [0.1        0.30410002]
 [0.2        0.031636  ]
 [0.3        1.79222997]
 [0.32341667 1.98455664]]",1,1.07
2,f,31,english,5,3,english,2024-02-09 13:55:12.834847,False,1,44,sounds\english\audio/english_575.wav,"[[  0.          61.73461998]
 [  0.1        -88.57549656]
 [  0.2        -30.88461278]
 [  0.3        -63.73327026]
 [  0.32341667  -0.55806298]]","[[0.         1.8510319 ]
 [0.1        1.54102878]
 [0.2        1.19801244]
 [0.3        1.20026237]
 [0.32341667 1.04112184]]",0,0.781
2,f,31,english,5,3,english,2024-02-09 13:55:12.834847,False,1,45,sounds\english\audio/english_593.wav,"[[ 0.          0.23295982]
 [ 0.1        -0.52832444]
 [ 0.2        18.28609946]
 [ 0.3        21.25816485]
 [ 0.32341667 60.44039038]]","[[0.         1.83954553]
 [0.1        1.77820403]
 [0.2        0.36770598]
 [0.3        0.42189114]
 [0.32341667 0.07588974]]",1,0.422
2,f,31,english,5,3,english,2024-02-09 13:55:12.834847,False,1,46,sounds\english\audio/english_930.wav,"[[  0.         -52.65701122]
 [  0.1        -24.36484499]
 [  0.2          4.10813066]
 [  0.3         93.74919515]
 [  0.32341667  66.31726896]]","[[0.         0.60066533]
 [0.1        1.33650528]
 [0.2        0.15979886]
 [0.3        1.46288505]
 [0.32341667 0.93993915]]",1,0.76
2,f,31,english,5,3,english,2024-02-09 13:55:12.834847,False,1,47,sounds\english\audio/english_747.wav,"[[  0.         -77.73977436]
 [  0.1        -18.96284798]
 [  0.2        -36.55549612]
 [  0.3         89.20291952]
 [  0.32341667 -97.78574386]]","[[0.         1.00478752]
 [0.1        0.15717617]
 [0.2        1.90654565]
 [0.3        0.7651101 ]
 [0.32341667 0.92755825]]",1,0.869
2,f,31,english,5,3,english,2024-02-09 13:55:12.834847,False,1,48,sounds\english\audio/english_824.wav,"[[  0.          80.46503136]
 [  0.1        -48.668347  ]
 [  0.2         37.27765876]
 [  0.3        -91.29945309]
 [  0.32341667  14.46507007]]","[[0.         1.43025592]
 [0.1        0.89138167]
 [0.2        1.91281619]
 [0.3        0.71335031]
 [0.32341667 0.89780818]]",0,0.47
2,f,31,english,5,3,english,2024-02-09 13:55:12.834847,False,1,49,sounds\english\audio/english_89.wav,"[[  0.         -42.28936571]
 [  0.1         12.96738115]
 [  0.2         -0.92476461]
 [  0.3         54.46155283]
 [  0.32341667  -5.27724964]]","[[0.         1.68633095]
 [0.1        0.49078122]
 [0.2        0.75584791]
 [0.3        1.37155139]
 [0.32341667 0.6613642 ]]",1,1.054
2,f,31,english,5,3,english,2024-02-09 13:55:12.834847,False,1,50,sounds\english\audio/english_487.wav,"[[  0.          57.34447058]
 [  0.1        -38.59224607]
 [  0.2        -30.93562102]
 [  0.3        -21.39452484]
 [  0.32341667 -98.93333205]]","[[0.         0.27098038]
 [0.1        1.03105808]
 [0.2        0.17810411]
 [0.3        0.81608244]
 [0.32341667 1.1056793 ]]",1,0.684
2,f,31,english,5,3,english,2024-02-09 13:55:12.834847,False,1,51,sounds\english\audio/english_227.wav,"[[  0.         -56.39318384]
 [  0.1         90.87442764]
 [  0.2        -39.94082392]
 [  0.3         31.5093861 ]
 [  0.32341667  70.38847456]]","[[0.         1.7541365 ]
 [0.1        0.66011804]
 [0.2        0.16454365]
 [0.3        0.63744506]
 [0.32341667 0.55874538]]",1,2.57
2,f,31,english,5,3,english,2024-02-09 13:55:12.834847,False,1,52,sounds\english\audio/english_538.wav,"[[  0.           2.36208538]
 [  0.1         77.85923423]
 [  0.2        -89.1271409 ]
 [  0.3        -18.79772534]
 [  0.32341667  87.62276495]]","[[0.         1.54356298]
 [0.1        0.47597082]
 [0.2        1.27977799]
 [0.3        1.05516459]
 [0.32341667 1.20284762]]",0,0.555
2,f,31,english,5,3,english,2024-02-09 13:55:12.834847,False,1,53,sounds\english\audio/english_430.wav,"[[  0.          72.23510535]
 [  0.1         -9.56156918]
 [  0.2         36.71559936]
 [  0.3        -33.55254317]
 [  0.32341667 -25.71861109]]","[[0.         0.8682214 ]
 [0.1        0.26781202]
 [0.2        1.38873793]
 [0.3        0.29076709]
 [0.32341667 0.30869259]]",0,0.386
2,f,31,english,5,3,english,2024-02-09 13:55:12.834847,False,1,54,sounds\english\audio/english_886.wav,"[[  0.          52.0334205 ]
 [  0.1        -34.60142464]
 [  0.2         77.69993065]
 [  0.3         29.08950905]
 [  0.32341667 -98.8324779 ]]","[[0.         0.43451348]
 [0.1        1.57387994]
 [0.2        1.05416836]
 [0.3        0.32554246]
 [0.32341667 1.85669509]]",1,0.375
2,f,31,english,5,3,english,2024-02-09 13:55:12.834847,False,1,55,sounds\english\audio/english_160.wav,"[[ 0.          2.54964477]
 [ 0.1        26.84692557]
 [ 0.2        72.58457191]
 [ 0.3        -6.94481249]
 [ 0.32341667 35.80656171]]","[[0.         0.54357393]
 [0.1        1.29343216]
 [0.2        0.42070854]
 [0.3        1.04489529]
 [0.32341667 0.26802137]]",0,1.505
2,f,31,english,5,3,english,2024-02-09 13:55:12.834847,False,1,56,sounds\english\audio/english_419.wav,"[[  0.          74.10926047]
 [  0.1        -50.44969368]
 [  0.2        -38.37630765]
 [  0.3        -57.54140712]
 [  0.32341667  48.12555486]]","[[0.00000000e+00 4.23980314e-01]
 [1.00000000e-01 1.12483838e+00]
 [2.00000000e-01 4.73465541e-01]
 [3.00000000e-01 8.38613621e-04]
 [3.23416667e-01 3.89285402e-01]]",1,0.398
2,f,31,english,5,3,english,2024-02-09 13:55:12.834847,False,1,57,sounds\english\audio/english_198.wav,"[[ 0.         -3.53881338]
 [ 0.1        58.04445454]
 [ 0.2        67.39523563]
 [ 0.3        56.58835275]
 [ 0.32341667  7.34595052]]","[[0.         0.6033193 ]
 [0.1        0.57837506]
 [0.2        1.37850613]
 [0.3        0.73107668]
 [0.32341667 0.42006089]]",0,0.394
2,f,31,english,5,3,english,2024-02-09 13:55:12.834847,False,1,58,sounds\english\audio/english_544.wav,"[[  0.          96.80704334]
 [  0.1         70.5198752 ]
 [  0.2         78.21609099]
 [  0.3        -95.7752672 ]
 [  0.32341667 -56.58918052]]","[[0.         1.85115917]
 [0.1        0.8718407 ]
 [0.2        1.82238935]
 [0.3        0.25719172]
 [0.32341667 0.72929157]]",1,1.382
2,f,31,english,5,3,english,2024-02-09 13:55:12.834847,False,1,59,sounds\english\audio/english_987.wav,"[[  0.          91.33137772]
 [  0.1        -39.20299527]
 [  0.2         78.9852337 ]
 [  0.3        -94.66209845]
 [  0.32341667 -71.76730894]]","[[0.         1.82656395]
 [0.1        1.12122948]
 [0.2        1.12025045]
 [0.3        1.02557261]
 [0.32341667 1.06580695]]",1,0.706
2,f,31,english,5,3,english,2024-02-09 13:55:12.834847,False,1,60,sounds\english\audio/english_808.wav,"[[  0.          23.02589628]
 [  0.1         10.58817829]
 [  0.2         36.77134597]
 [  0.3        -30.31603221]
 [  0.32341667   9.74764343]]","[[0.         1.07384277]
 [0.1        1.3919179 ]
 [0.2        0.54960524]
 [0.3        1.95871365]
 [0.32341667 0.79150541]]",0,0.677
2,f,31,english,5,3,english,2024-02-09 13:55:12.834847,False,1,61,sounds\english\audio/english_98.wav,"[[  0.         -23.07451683]
 [  0.1         58.83766866]
 [  0.2         75.90401246]
 [  0.3        -86.31256295]
 [  0.32341667  26.17624316]]","[[0.         0.55932234]
 [0.1        1.03192869]
 [0.2        1.16154403]
 [0.3        0.50819795]
 [0.32341667 1.94690859]]",1,0.822
2,f,31,english,5,3,english,2024-02-09 13:55:12.834847,False,1,62,sounds\english\audio/english_868.wav,"[[  0.         -32.61379415]
 [  0.1        -13.61007492]
 [  0.2        -35.23756027]
 [  0.3         83.12333319]
 [  0.32341667  62.80865362]]","[[0.         0.76599538]
 [0.1        0.34348987]
 [0.2        0.26787397]
 [0.3        0.46343078]
 [0.32341667 1.59158725]]",1,0.65
2,f,31,english,5,3,english,2024-02-09 13:55:12.834847,False,1,63,sounds\english\audio/english_306.wav,"[[  0.         -78.46406697]
 [  0.1        -60.64765069]
 [  0.2         41.654101  ]
 [  0.3         58.45609749]
 [  0.32341667 -89.32145871]]","[[0.         1.96625377]
 [0.1        1.9128761 ]
 [0.2        0.92284414]
 [0.3        1.12546267]
 [0.32341667 0.77622038]]",1,1.137
2,f,31,english,5,3,english,2024-02-09 13:55:12.834847,False,1,64,sounds\english\audio/english_352.wav,"[[  0.          71.64354449]
 [  0.1         53.2516906 ]
 [  0.2         28.90726554]
 [  0.3        -49.8940387 ]
 [  0.32341667  21.76832357]]","[[0.         0.18312459]
 [0.1        1.19991438]
 [0.2        1.21095973]
 [0.3        1.61067418]
 [0.32341667 1.26376439]]",0,2.293
2,f,31,english,5,3,english,2024-02-09 13:55:12.834847,False,1,65,sounds\english\audio/english_991.wav,"[[  0.         -73.33762004]
 [  0.1        -90.08677455]
 [  0.2        -98.84294029]
 [  0.3         59.84972986]
 [  0.32341667  21.03568625]]","[[0.         0.7279734 ]
 [0.1        0.374322  ]
 [0.2        0.98894361]
 [0.3        1.07774369]
 [0.32341667 0.51480923]]",1,0.409
2,f,31,english,5,3,english,2024-02-09 13:55:12.834847,False,1,66,sounds\english\audio/english_208.wav,"[[  0.         -16.36413188]
 [  0.1         25.67725806]
 [  0.2         15.43722313]
 [  0.3        -39.3158007 ]
 [  0.32341667  38.48956167]]","[[0.         1.19542909]
 [0.1        0.42717457]
 [0.2        1.01088833]
 [0.3        1.09044814]
 [0.32341667 1.60091335]]",1,0.669
2,f,31,english,5,3,english,2024-02-09 13:55:12.834847,False,1,67,sounds\english\audio/english_714.wav,"[[  0.           6.62463448]
 [  0.1         -7.37775178]
 [  0.2        -58.74003357]
 [  0.3        -38.84014254]
 [  0.32341667 -23.67047323]]","[[0.         0.98205871]
 [0.1        1.90018259]
 [0.2        1.33033281]
 [0.3        0.20009115]
 [0.32341667 0.44650169]]",1,1.285
2,f,31,english,5,3,english,2024-02-09 13:55:12.834847,False,1,68,sounds\english\audio/english_196.wav,"[[  0.         -86.38202104]
 [  0.1          0.95731439]
 [  0.2        -48.4797064 ]
 [  0.3         50.57477866]
 [  0.32341667 -52.07184875]]","[[0.         1.63362226]
 [0.1        1.36148231]
 [0.2        0.68683683]
 [0.3        1.59869277]
 [0.32341667 0.40963154]]",1,1.22
2,f,31,english,5,3,english,2024-02-09 13:55:12.834847,False,1,69,sounds\english\audio/english_317.wav,"[[  0.         -26.75650792]
 [  0.1          9.07297032]
 [  0.2         17.58512652]
 [  0.3         29.57201507]
 [  0.32341667  56.4667582 ]]","[[0.         1.75672771]
 [0.1        1.82949168]
 [0.2        1.6954519 ]
 [0.3        0.7122411 ]
 [0.32341667 1.26753728]]",0,0.164
2,f,31,english,5,3,english,2024-02-09 13:55:12.834847,False,1,70,sounds\english\audio/english_177.wav,"[[  0.          87.98258728]
 [  0.1         87.12011565]
 [  0.2        -29.82518494]
 [  0.3         54.38835911]
 [  0.32341667  53.98423531]]","[[0.         1.54790065]
 [0.1        0.90861448]
 [0.2        0.58649069]
 [0.3        0.51296238]
 [0.32341667 1.78492888]]",1,0.691
2,f,31,english,5,3,english,2024-02-09 13:55:12.834847,False,1,71,sounds\english\audio/english_639.wav,"[[  0.          -8.64176861]
 [  0.1         -2.28240571]
 [  0.2         61.07673865]
 [  0.3        -20.33592136]
 [  0.32341667 -24.05835486]]","[[0.         1.80061108]
 [0.1        0.32075858]
 [0.2        0.35362442]
 [0.3        1.48415136]
 [0.32341667 0.14560931]]",0,0.633
2,f,31,english,5,3,english,2024-02-09 13:55:12.834847,False,1,72,sounds\english\audio/english_771.wav,"[[  0.          52.29619013]
 [  0.1         55.26271333]
 [  0.2         49.2587818 ]
 [  0.3         48.45532009]
 [  0.32341667 -98.45631565]]","[[0.         1.65909918]
 [0.1        1.05958749]
 [0.2        1.33758239]
 [0.3        1.75478958]
 [0.32341667 0.37013483]]",1,0.981
2,f,31,english,5,3,english,2024-02-09 13:55:12.834847,False,1,73,sounds\english\audio/english_979.wav,"[[  0.          -1.00654814]
 [  0.1         18.39835707]
 [  0.2        -42.91789413]
 [  0.3        -58.29527223]
 [  0.32341667  86.14740424]]","[[0.         1.61411081]
 [0.1        1.30464512]
 [0.2        0.93120215]
 [0.3        0.87145212]
 [0.32341667 1.17332389]]",0,2.388
2,f,31,english,5,3,english,2024-02-09 13:55:12.834847,False,1,74,sounds\english\audio/english_398.wav,"[[  0.         -72.24204172]
 [  0.1         29.80242672]
 [  0.2        -29.26741326]
 [  0.3         30.68380911]
 [  0.32341667 -23.61694816]]","[[0.         0.50855809]
 [0.1        0.68040596]
 [0.2        1.59063958]
 [0.3        1.71035635]
 [0.32341667 1.737831  ]]",0,0.305
2,f,31,english,5,3,english,2024-02-09 13:55:12.834847,False,1,75,sounds\english\audio/english_722.wav,"[[  0.          56.33358757]
 [  0.1        -63.11389498]
 [  0.2         65.64746862]
 [  0.3        -93.10605514]
 [  0.32341667 -45.92743551]]","[[0.         0.09194264]
 [0.1        1.89550133]
 [0.2        0.18403216]
 [0.3        1.23223326]
 [0.32341667 0.28331892]]",0,0.404
2,f,31,english,5,3,english,2024-02-09 13:55:12.834847,False,1,76,sounds\english\audio/english_60.wav,"[[  0.          82.53369854]
 [  0.1         60.14491878]
 [  0.2        -26.84704149]
 [  0.3        -19.8784386 ]
 [  0.32341667 -26.04492652]]","[[0.         0.66834278]
 [0.1        1.16350573]
 [0.2        1.24827189]
 [0.3        0.70182905]
 [0.32341667 0.20173025]]",1,0.604
2,f,31,english,5,3,english,2024-02-09 13:55:12.834847,False,1,77,sounds\english\audio/english_808.wav,"[[  0.          23.02589628]
 [  0.1         10.58817829]
 [  0.2         36.77134597]
 [  0.3        -30.31603221]
 [  0.32341667   9.74764343]]","[[0.         1.07384277]
 [0.1        1.3919179 ]
 [0.2        0.54960524]
 [0.3        1.95871365]
 [0.32341667 0.79150541]]",1,1.548
2,f,31,english,5,3,english,2024-02-09 13:55:12.834847,False,1,78,sounds\english\audio/english_990.wav,"[[  0.         -17.98511021]
 [  0.1        -90.3005676 ]
 [  0.2          4.37005684]
 [  0.3         83.93705034]
 [  0.32341667 -36.57803625]]","[[0.         0.6190444 ]
 [0.1        0.77548775]
 [0.2        0.55013224]
 [0.3        0.66784051]
 [0.32341667 0.32384409]]",1,0.796
2,f,31,english,5,3,english,2024-02-09 13:55:12.834847,False,1,79,sounds\english\audio/english_980.wav,"[[  0.         -32.33629208]
 [  0.1         -4.4140807 ]
 [  0.2         76.81412515]
 [  0.3        -16.24877133]
 [  0.32341667 -26.44128118]]","[[0.         1.21290567]
 [0.1        0.22350007]
 [0.2        1.68078519]
 [0.3        0.16816052]
 [0.32341667 1.48722631]]",0,1.428
2,f,31,english,5,3,english,2024-02-09 13:55:12.834847,False,1,80,sounds\english\audio/english_206.wav,"[[  0.          29.86029141]
 [  0.1        -65.49550847]
 [  0.2         -8.37849199]
 [  0.3         16.32170521]
 [  0.32341667 -96.55544023]]","[[0.         0.9413203 ]
 [0.1        1.58501733]
 [0.2        1.84833856]
 [0.3        1.12864021]
 [0.32341667 0.85017735]]",1,1.805
2,f,31,english,5,3,english,2024-02-09 13:55:12.834847,False,1,81,sounds\english\audio/english_97.wav,"[[  0.          57.21139396]
 [  0.1         -7.40408397]
 [  0.2         77.7995227 ]
 [  0.3        -51.1747528 ]
 [  0.32341667  77.11982253]]","[[0.         1.63402743]
 [0.1        0.54734888]
 [0.2        1.5228594 ]
 [0.3        1.13050105]
 [0.32341667 0.82586999]]",1,0.74
2,f,31,english,5,3,english,2024-02-09 13:55:12.834847,False,1,82,sounds\english\audio/english_571.wav,"[[  0.         -42.92588422]
 [  0.1        -87.39276897]
 [  0.2         19.06282168]
 [  0.3        -99.30459792]
 [  0.32341667  41.25263337]]","[[0.         0.65590276]
 [0.1        1.8306878 ]
 [0.2        0.06889765]
 [0.3        0.29364209]
 [0.32341667 1.388798  ]]",1,1.982
2,f,31,english,5,3,english,2024-02-09 13:55:12.834847,False,1,83,sounds\english\audio/english_247.wav,"[[  0.          48.65693284]
 [  0.1        -27.64572099]
 [  0.2        -20.19701808]
 [  0.3        -10.74442668]
 [  0.32341667  91.42432082]]","[[0.         0.25539499]
 [0.1        1.09429421]
 [0.2        0.88115619]
 [0.3        1.97859338]
 [0.32341667 0.10638235]]",0,0.253
2,f,31,english,5,3,english,2024-02-09 13:55:12.834847,False,1,84,sounds\english\audio/english_269.wav,"[[  0.          61.09556447]
 [  0.1         -3.97684721]
 [  0.2        -87.59080112]
 [  0.3         78.47165079]
 [  0.32341667 -52.74135522]]","[[0.         1.11606818]
 [0.1        1.55443041]
 [0.2        1.78173809]
 [0.3        1.73012946]
 [0.32341667 0.88090417]]",0,1.609
2,f,31,english,5,3,english,2024-02-09 13:55:12.834847,False,1,85,sounds\english\audio/english_11.wav,"[[  0.         -20.45826732]
 [  0.1        -31.26113472]
 [  0.2         84.03210455]
 [  0.3         30.35463164]
 [  0.32341667 -63.36217442]]","[[0.         1.19869378]
 [0.1        0.2059713 ]
 [0.2        0.62296143]
 [0.3        1.49781179]
 [0.32341667 0.18750748]]",0,0.481
2,f,31,english,5,3,english,2024-02-09 13:55:12.834847,False,1,86,sounds\english\audio/english_498.wav,"[[  0.           2.49020902]
 [  0.1        -20.55300452]
 [  0.2        -34.14985779]
 [  0.3         79.54997135]
 [  0.32341667  20.54695207]]","[[0.         0.78964515]
 [0.1        0.24391593]
 [0.2        0.11401041]
 [0.3        1.52582154]
 [0.32341667 0.62547878]]",1,0.701
2,f,31,english,5,3,english,2024-02-09 13:55:12.834847,False,1,87,sounds\english\audio/english_229.wav,"[[  0.          51.56916705]
 [  0.1        -51.28327497]
 [  0.2         97.78221202]
 [  0.3        -75.98126047]
 [  0.32341667 -44.05308002]]","[[0.         1.25898044]
 [0.1        0.34588319]
 [0.2        1.91985924]
 [0.3        0.82059623]
 [0.32341667 1.38191391]]",0,2.047
2,f,31,english,5,3,english,2024-02-09 13:55:12.834847,False,1,88,sounds\english\audio/english_933.wav,"[[  0.         -48.12258855]
 [  0.1         27.26905516]
 [  0.2          0.35087756]
 [  0.3         94.96402149]
 [  0.32341667  61.52669097]]","[[0.         1.54767366]
 [0.1        0.30219473]
 [0.2        1.50410475]
 [0.3        1.44820406]
 [0.32341667 0.05049928]]",0,1.152
2,f,31,english,5,3,english,2024-02-09 13:55:12.834847,False,1,89,sounds\english\audio/english_295.wav,"[[  0.         -76.51454746]
 [  0.1        -96.9380047 ]
 [  0.2        -72.79782389]
 [  0.3        -31.86888898]
 [  0.32341667 -51.47839766]]","[[0.         1.12273409]
 [0.1        0.2018376 ]
 [0.2        1.81703153]
 [0.3        0.31799467]
 [0.32341667 0.71777059]]",1,0.37
2,f,31,english,5,3,english,2024-02-09 13:55:12.834847,False,1,90,sounds\english\audio/english_104.wav,"[[  0.          42.44693926]
 [  0.1         82.22484934]
 [  0.2          7.21737924]
 [  0.3         26.54640215]
 [  0.32341667 -33.4974026 ]]","[[0.         0.1741435 ]
 [0.1        0.11379641]
 [0.2        1.60376175]
 [0.3        1.08059257]
 [0.32341667 1.8061622 ]]",0,1.362
2,f,31,english,5,3,english,2024-02-09 13:55:12.834847,False,1,91,sounds\english\audio/english_247.wav,"[[  0.          48.65693284]
 [  0.1        -27.64572099]
 [  0.2        -20.19701808]
 [  0.3        -10.74442668]
 [  0.32341667  91.42432082]]","[[0.         0.25539499]
 [0.1        1.09429421]
 [0.2        0.88115619]
 [0.3        1.97859338]
 [0.32341667 0.10638235]]",0,1.139
2,f,31,english,5,3,english,2024-02-09 13:55:12.834847,False,1,92,sounds\english\audio/english_349.wav,"[[  0.         -10.00495534]
 [  0.1         54.31199814]
 [  0.2         48.17968705]
 [  0.3          8.48926652]
 [  0.32341667  42.05620052]]","[[0.         0.36915768]
 [0.1        0.83111041]
 [0.2        1.70147194]
 [0.3        1.08588898]
 [0.32341667 0.02584958]]",1,1.318
2,f,31,english,5,3,english,2024-02-09 13:55:12.834847,False,1,93,sounds\english\audio/english_568.wav,"[[  0.         -80.38325009]
 [  0.1         65.28340143]
 [  0.2         22.57833022]
 [  0.3        -55.44872251]
 [  0.32341667 -94.3142815 ]]","[[0.         1.52383372]
 [0.1        0.37337456]
 [0.2        0.67023469]
 [0.3        1.98652091]
 [0.32341667 1.15861726]]",1,0.529
2,f,31,english,5,3,english,2024-02-09 13:55:12.834847,False,1,94,sounds\english\audio/english_161.wav,"[[  0.          16.17182642]
 [  0.1         51.23408036]
 [  0.2         56.55598601]
 [  0.3        -25.08054758]
 [  0.32341667 -70.36900789]]","[[0.         0.80971259]
 [0.1        1.56168911]
 [0.2        0.91666403]
 [0.3        1.93998208]
 [0.32341667 0.76147365]]",1,0.773
2,f,31,english,5,3,english,2024-02-09 13:55:12.834847,False,1,95,sounds\english\audio/english_160.wav,"[[ 0.          2.54964477]
 [ 0.1        26.84692557]
 [ 0.2        72.58457191]
 [ 0.3        -6.94481249]
 [ 0.32341667 35.80656171]]","[[0.         0.54357393]
 [0.1        1.29343216]
 [0.2        0.42070854]
 [0.3        1.04489529]
 [0.32341667 0.26802137]]",1,1.042
2,f,31,english,5,3,english,2024-02-09 13:55:12.834847,False,1,96,sounds\english\audio/english_10.wav,"[[  0.         -80.92247099]
 [  0.1         11.56157957]
 [  0.2         72.61501241]
 [  0.3         91.01400741]
 [  0.32341667 -64.58672822]]","[[0.         1.33142191]
 [0.1        0.6588087 ]
 [0.2        1.62851887]
 [0.3        1.4109269 ]
 [0.32341667 0.76235223]]",1,1.368
2,f,31,english,5,3,english,2024-02-09 13:55:12.834847,False,1,97,sounds\english\audio/english_953.wav,"[[  0.         -16.02430182]
 [  0.1         29.58660593]
 [  0.2        -69.77021268]
 [  0.3         10.24378989]
 [  0.32341667 -68.66835117]]","[[0.         0.31806788]
 [0.1        0.5983964 ]
 [0.2        1.47459901]
 [0.3        1.63555671]
 [0.32341667 1.74756834]]",1,0.559
2,f,31,english,5,3,english,2024-02-09 13:55:12.834847,False,1,98,sounds\english\audio/english_884.wav,"[[ 0.         77.1498115 ]
 [ 0.1        10.32602389]
 [ 0.2         4.15464736]
 [ 0.3        21.19252889]
 [ 0.32341667 -7.11336122]]","[[0.         1.83268558]
 [0.1        0.76817862]
 [0.2        1.59331573]
 [0.3        0.58913169]
 [0.32341667 0.81393531]]",1,1.907
2,f,31,english,5,3,english,2024-02-09 13:55:12.834847,False,1,99,sounds\english\audio/english_865.wav,"[[  0.          57.45647421]
 [  0.1        -62.30549211]
 [  0.2        -35.85649312]
 [  0.3         55.00701181]
 [  0.32341667 -39.97662747]]","[[0.         1.64387024]
 [0.1        0.05749027]
 [0.2        0.09554773]
 [0.3        1.62598434]
 [0.32341667 0.71232625]]",0,0.281
2,f,31,english,5,3,english,2024-02-09 13:55:12.834847,False,1,100,sounds\english\audio/english_974.wav,"[[  0.          29.63575745]
 [  0.1        -49.63946334]
 [  0.2         87.75163431]
 [  0.3        -62.39844007]
 [  0.32341667 -98.5513891 ]]","[[0.         0.7371821 ]
 [0.1        1.15838362]
 [0.2        1.66312363]
 [0.3        0.85783748]
 [0.32341667 1.53033297]]",0,0.421
2,f,31,english,5,3,english,2024-02-09 13:55:12.834847,False,1,101,sounds\english\audio/english_419.wav,"[[  0.          74.10926047]
 [  0.1        -50.44969368]
 [  0.2        -38.37630765]
 [  0.3        -57.54140712]
 [  0.32341667  48.12555486]]","[[0.00000000e+00 4.23980314e-01]
 [1.00000000e-01 1.12483838e+00]
 [2.00000000e-01 4.73465541e-01]
 [3.00000000e-01 8.38613621e-04]
 [3.23416667e-01 3.89285402e-01]]",1,0.786
2,f,31,english,5,3,english,2024-02-09 13:55:12.834847,False,1,102,sounds\english\audio/english_24.wav,"[[ 0.         83.82729659]
 [ 0.1        -2.54724082]
 [ 0.2        88.70909739]
 [ 0.3        48.93770926]
 [ 0.32341667 53.25190048]]","[[0.         0.31203725]
 [0.1        1.56948954]
 [0.2        0.87333864]
 [0.3        0.88535019]
 [0.32341667 0.66112496]]",1,1.61
2,f,31,english,5,3,english,2024-02-09 13:55:12.834847,False,1,103,sounds\english\audio/english_435.wav,"[[  0.         -61.49548479]
 [  0.1         18.53940612]
 [  0.2        -39.20879804]
 [  0.3        -30.66509024]
 [  0.32341667   7.07056367]]","[[0.         0.36819492]
 [0.1        1.77990606]
 [0.2        1.09377229]
 [0.3        1.98213584]
 [0.32341667 0.5936591 ]]",0,0.09
2,f,31,english,5,3,english,2024-02-09 13:55:12.834847,False,1,104,sounds\english\audio/english_345.wav,"[[  0.         -46.00579497]
 [  0.1        -45.5805492 ]
 [  0.2        -14.04378539]
 [  0.3         63.72413351]
 [  0.32341667  18.03717792]]","[[0.         1.58751342]
 [0.1        1.0202646 ]
 [0.2        0.61561299]
 [0.3        1.21547564]
 [0.32341667 1.47127253]]",0,0.326
2,f,31,english,5,3,english,2024-02-09 13:55:12.834847,False,1,105,sounds\english\audio/english_410.wav,"[[  0.         -74.64506245]
 [  0.1         65.24401488]
 [  0.2        -65.86471953]
 [  0.3         98.79489106]
 [  0.32341667  14.95451541]]","[[0.         0.42358098]
 [0.1        0.42526697]
 [0.2        1.12385183]
 [0.3        0.33588109]
 [0.32341667 1.7246864 ]]",1,0.853
2,f,31,english,5,3,english,2024-02-09 13:55:12.834847,False,1,106,sounds\english\audio/english_661.wav,"[[  0.          14.15805194]
 [  0.1        -77.97020538]
 [  0.2        -31.78835068]
 [  0.3          1.84085651]
 [  0.32341667  31.49677972]]","[[0.         1.06290545]
 [0.1        1.12952287]
 [0.2        1.47556517]
 [0.3        0.41137052]
 [0.32341667 1.48872703]]",1,0.427
2,f,31,english,5,3,english,2024-02-09 13:55:12.834847,False,1,107,sounds\english\audio/english_719.wav,"[[  0.         -32.14306232]
 [  0.1        -81.40439332]
 [  0.2        -20.1172293 ]
 [  0.3         67.63048238]
 [  0.32341667  50.83305788]]","[[0.         1.4431753 ]
 [0.1        0.46175707]
 [0.2        1.86886769]
 [0.3        0.67969247]
 [0.32341667 1.68151983]]",1,0.531
2,f,31,english,5,3,english,2024-02-09 13:55:12.834847,False,1,108,sounds\english\audio/english_102.wav,"[[  0.          32.71328306]
 [  0.1         59.73255369]
 [  0.2         -0.64397298]
 [  0.3        -37.18099902]
 [  0.32341667  41.63197766]]","[[0.         1.2311829 ]
 [0.1        0.25599615]
 [0.2        1.7526023 ]
 [0.3        1.98319627]
 [0.32341667 1.38410598]]",1,0.402
2,f,31,english,5,3,english,2024-02-09 13:55:12.834847,False,1,109,sounds\english\audio/english_832.wav,"[[  0.         -21.62855277]
 [  0.1        -35.3834786 ]
 [  0.2         52.65867494]
 [  0.3         62.52082964]
 [  0.32341667  46.66062952]]","[[0.         1.31372842]
 [0.1        1.55258378]
 [0.2        1.50567803]
 [0.3        1.2163301 ]
 [0.32341667 1.20100353]]",1,0.169
2,f,31,english,5,3,english,2024-02-09 13:55:12.834847,False,1,110,sounds\english\audio/english_861.wav,"[[  0.         -30.19921015]
 [  0.1         75.2433288 ]
 [  0.2        -49.47813624]
 [  0.3         86.59581665]
 [  0.32341667  58.40562581]]","[[0.         0.56503536]
 [0.1        1.43622494]
 [0.2        1.73497671]
 [0.3        0.70763908]
 [0.32341667 1.29518241]]",0,0.267
2,f,31,english,5,3,english,2024-02-09 13:55:12.834847,False,1,111,sounds\english\audio/english_217.wav,"[[  0.         -87.44045162]
 [  0.1         26.67222095]
 [  0.2         97.90977363]
 [  0.3          4.49718441]
 [  0.32341667  13.31384309]]","[[0.         1.20965721]
 [0.1        0.05295089]
 [0.2        1.23557872]
 [0.3        1.80752812]
 [0.32341667 1.57586313]]",0,0.271
2,f,31,english,5,3,english,2024-02-09 13:55:12.834847,False,1,112,sounds\english\audio/english_374.wav,"[[  0.         -43.98521466]
 [  0.1        -24.87181663]
 [  0.2        -29.31566683]
 [  0.3        -43.36019392]
 [  0.32341667 -35.5175379 ]]","[[0.         1.11607514]
 [0.1        0.38249505]
 [0.2        1.56774755]
 [0.3        1.33837662]
 [0.32341667 0.68793086]]",1,0.644
2,f,31,english,5,3,english,2024-02-09 13:55:12.834847,False,1,113,sounds\english\audio/english_993.wav,"[[  0.         -66.15449332]
 [  0.1         33.08083728]
 [  0.2         51.46479562]
 [  0.3        -80.58676237]
 [  0.32341667  81.97884737]]","[[0.         1.17508471]
 [0.1        0.94744004]
 [0.2        0.74931244]
 [0.3        0.35628979]
 [0.32341667 1.25416847]]",0,0.304
2,f,31,english,5,3,english,2024-02-09 13:55:12.834847,False,1,114,sounds\english\audio/english_82.wav,"[[  0.         -21.02351082]
 [  0.1          1.53612588]
 [  0.2         82.9198569 ]
 [  0.3         67.34737065]
 [  0.32341667 -34.9418752 ]]","[[0.         0.76668052]
 [0.1        0.94640395]
 [0.2        1.02754902]
 [0.3        1.57368428]
 [0.32341667 0.67195212]]",0,1.495
2,f,31,english,5,3,english,2024-02-09 13:55:12.834847,False,1,115,sounds\english\audio/english_2.wav,"[[  0.         -99.15346184]
 [  0.1         80.90141422]
 [  0.2         25.8663891 ]
 [  0.3         75.24606714]
 [  0.32341667 -83.41413367]]","[[0.         1.13720105]
 [0.1        1.91777804]
 [0.2        0.47706995]
 [0.3        0.3458575 ]
 [0.32341667 0.38623968]]",1,0.731
2,f,31,english,5,3,english,2024-02-09 13:55:12.834847,False,1,116,sounds\english\audio/english_237.wav,"[[  0.         -40.35335157]
 [  0.1         42.86374565]
 [  0.2          7.79480372]
 [  0.3        -48.50613844]
 [  0.32341667  17.78174719]]","[[0.         0.42178982]
 [0.1        0.6060796 ]
 [0.2        0.58312984]
 [0.3        1.50499267]
 [0.32341667 1.72211243]]",0,0.28
2,f,31,english,5,3,english,2024-02-09 13:55:12.834847,False,1,117,sounds\english\audio/english_137.wav,"[[  0.         -81.54177422]
 [  0.1         48.50229113]
 [  0.2        -43.40912925]
 [  0.3         54.89578869]
 [  0.32341667  90.09778797]]","[[0.         0.16940048]
 [0.1        1.33204053]
 [0.2        1.8593258 ]
 [0.3        1.77805515]
 [0.32341667 1.80981769]]",1,0.294
2,f,31,english,5,3,english,2024-02-09 13:55:12.834847,False,1,118,sounds\english\audio/english_364.wav,"[[  0.          19.50953027]
 [  0.1         48.44847612]
 [  0.2        -85.20645473]
 [  0.3         97.47454191]
 [  0.32341667 -45.42958463]]","[[0.         1.75500584]
 [0.1        1.3553812 ]
 [0.2        0.86672295]
 [0.3        1.42489128]
 [0.32341667 1.19673805]]",1,1.767
2,f,31,english,5,3,english,2024-02-09 13:55:12.834847,False,1,119,sounds\english\audio/english_382.wav,"[[  0.         -83.35497559]
 [  0.1          7.83115402]
 [  0.2         77.46115257]
 [  0.3         89.755233  ]
 [  0.32341667 -36.08570956]]","[[0.         1.24516413]
 [0.1        0.59675254]
 [0.2        0.61036026]
 [0.3        1.95554414]
 [0.32341667 1.60845727]]",1,0.505
2,f,31,english,5,3,english,2024-02-09 13:55:12.834847,False,1,120,sounds\english\audio/english_119.wav,"[[  0.         -72.13623542]
 [  0.1        -47.93500709]
 [  0.2         91.39212861]
 [  0.3         -4.62561099]
 [  0.32341667 -33.86599352]]","[[0.         1.33116293]
 [0.1        0.14257244]
 [0.2        1.10285667]
 [0.3        0.57572872]
 [0.32341667 1.36512269]]",1,0.958
2,f,31,english,5,3,english,2024-02-09 13:55:12.834847,False,1,121,sounds\english\audio/english_281.wav,"[[  0.         -55.42099824]
 [  0.1         30.44020676]
 [  0.2         53.34739709]
 [  0.3        -32.26512488]
 [  0.32341667 -59.86883114]]","[[0.         1.64310908]
 [0.1        0.76997124]
 [0.2        0.1940809 ]
 [0.3        0.25794937]
 [0.32341667 1.27043487]]",0,0.366
2,f,31,english,5,3,english,2024-02-09 13:55:12.834847,False,1,122,sounds\english\audio/english_365.wav,"[[  0.          58.11205919]
 [  0.1        -61.04014877]
 [  0.2         12.43042802]
 [  0.3         17.00746388]
 [  0.32341667 -69.10644956]]","[[0.         0.53708026]
 [0.1        1.10456153]
 [0.2        1.31731937]
 [0.3        1.02387946]
 [0.32341667 1.31633463]]",1,1.017
2,f,31,english,5,3,english,2024-02-09 13:55:12.834847,False,1,123,sounds\english\audio/english_721.wav,"[[  0.          -1.67193172]
 [  0.1         23.81304459]
 [  0.2         94.27532923]
 [  0.3         10.08520391]
 [  0.32341667 -26.68837018]]","[[0.         0.23966059]
 [0.1        1.61361986]
 [0.2        0.58045828]
 [0.3        1.63757532]
 [0.32341667 1.4581473 ]]",0,2.599
2,f,31,english,5,3,english,2024-02-09 13:55:12.834847,False,1,124,sounds\english\audio/english_693.wav,"[[  0.         -83.71635172]
 [  0.1         32.46406691]
 [  0.2          8.27548994]
 [  0.3         15.80660539]
 [  0.32341667  74.32681132]]","[[0.         0.35753224]
 [0.1        1.09553371]
 [0.2        1.67166692]
 [0.3        1.61413862]
 [0.32341667 1.90943184]]",1,0.751
2,f,31,english,5,3,english,2024-02-09 13:55:12.834847,False,1,125,sounds\english\audio/english_998.wav,"[[  0.         -57.03196796]
 [  0.1        -12.93623633]
 [  0.2        -24.63186366]
 [  0.3        -10.49750637]
 [  0.32341667  22.76793653]]","[[0.         0.0179282 ]
 [0.1        1.72217412]
 [0.2        0.91011795]
 [0.3        1.24282972]
 [0.32341667 0.40520665]]",0,1.006
2,f,31,english,5,3,english,2024-02-09 13:55:12.834847,False,1,126,sounds\english\audio/english_42.wav,"[[  0.         -15.36487641]
 [  0.1         11.43696078]
 [  0.2         34.58464447]
 [  0.3         68.67640378]
 [  0.32341667 -67.59461511]]","[[0.         1.81244548]
 [0.1        1.472484  ]
 [0.2        0.21504119]
 [0.3        0.80253652]
 [0.32341667 1.53231421]]",1,1.599
2,f,31,english,5,3,english,2024-02-09 13:55:12.834847,False,1,127,sounds\english\audio/english_542.wav,"[[  0.         -75.53633957]
 [  0.1        -65.83593262]
 [  0.2        -66.8010443 ]
 [  0.3         89.94318033]
 [  0.32341667 -28.80984484]]","[[0.         0.40538048]
 [0.1        1.98560632]
 [0.2        1.18970355]
 [0.3        1.00543009]
 [0.32341667 1.15995836]]",1,2.134
2,f,31,english,5,3,english,2024-02-09 13:55:12.834847,False,1,128,sounds\english\audio/english_75.wav,"[[  0.          -9.18091647]
 [  0.1        -62.02164907]
 [  0.2        -12.90623207]
 [  0.3         15.17089036]
 [  0.32341667  10.89352922]]","[[0.         0.92930856]
 [0.1        1.94000482]
 [0.2        1.2183621 ]
 [0.3        0.47349695]
 [0.32341667 1.02561006]]",1,0.244
2,f,31,english,5,3,english,2024-02-09 13:55:12.834847,False,1,129,sounds\english\audio/english_833.wav,"[[  0.          18.29317799]
 [  0.1         20.01945042]
 [  0.2        -77.99741705]
 [  0.3         19.36192697]
 [  0.32341667  43.06785988]]","[[0.         0.49951345]
 [0.1        1.12176851]
 [0.2        0.59960618]
 [0.3        0.50557433]
 [0.32341667 0.3288339 ]]",0,0.297
2,f,31,english,5,3,english,2024-02-09 13:55:12.834847,False,1,130,sounds\english\audio/english_116.wav,"[[  0.          47.3382154 ]
 [  0.1        -82.57412589]
 [  0.2         24.81754674]
 [  0.3         61.93416492]
 [  0.32341667 -97.8286579 ]]","[[0.         1.30986561]
 [0.1        0.36649927]
 [0.2        1.53598436]
 [0.3        1.65694634]
 [0.32341667 0.40343631]]",1,1.001
2,f,31,english,5,3,english,2024-02-09 13:55:12.834847,False,1,131,sounds\english\audio/english_743.wav,"[[  0.         -28.24983145]
 [  0.1         71.30498545]
 [  0.2        -89.00652632]
 [  0.3          3.43441779]
 [  0.32341667 -16.71659348]]","[[0.         1.42102626]
 [0.1        0.84283155]
 [0.2        0.82757129]
 [0.3        1.38808557]
 [0.32341667 0.28501565]]",1,0.251
2,f,31,english,5,3,english,2024-02-09 13:55:12.834847,False,1,132,sounds\english\audio/english_273.wav,"[[  0.         -44.98289573]
 [  0.1         24.32546199]
 [  0.2         61.84573583]
 [  0.3         -1.88803465]
 [  0.32341667  57.02125087]]","[[0.         1.94838534]
 [0.1        0.68888608]
 [0.2        1.95265796]
 [0.3        1.62060328]
 [0.32341667 0.94638053]]",1,0.207
2,f,31,english,5,3,english,2024-02-09 13:55:12.834847,False,1,133,sounds\english\audio/english_841.wav,"[[  0.          36.57834023]
 [  0.1         81.12994836]
 [  0.2         55.4316434 ]
 [  0.3        -50.85387517]
 [  0.32341667 -52.13814436]]","[[0.         0.37598589]
 [0.1        1.18949815]
 [0.2        1.24219065]
 [0.3        1.45004046]
 [0.32341667 0.19253582]]",0,0.361
2,f,31,english,5,3,english,2024-02-09 13:55:12.834847,False,1,134,sounds\english\audio/english_840.wav,"[[  0.         -27.11425843]
 [  0.1        -47.31494811]
 [  0.2        -88.66887426]
 [  0.3          7.86940595]
 [  0.32341667  87.61758205]]","[[0.         1.31301797]
 [0.1        0.54280133]
 [0.2        0.14090987]
 [0.3        0.11950116]
 [0.32341667 1.48166624]]",0,0.457
2,f,31,english,5,3,english,2024-02-09 13:55:12.834847,False,1,135,sounds\english\audio/english_540.wav,"[[  0.         -46.6752609 ]
 [  0.1        -93.20209644]
 [  0.2         64.96419662]
 [  0.3        -12.16484387]
 [  0.32341667 -44.34688232]]","[[0.         1.16352469]
 [0.1        0.0234781 ]
 [0.2        0.05926191]
 [0.3        1.47406284]
 [0.32341667 0.60104864]]",0,0.689
2,f,31,english,5,3,english,2024-02-09 13:55:12.834847,False,1,136,sounds\english\audio/english_403.wav,"[[  0.         -92.65414009]
 [  0.1         75.99659731]
 [  0.2        -27.37801557]
 [  0.3        -80.04540334]
 [  0.32341667  30.50648557]]","[[0.         1.93574734]
 [0.1        0.36447309]
 [0.2        1.02888701]
 [0.3        0.02385722]
 [0.32341667 1.40553938]]",1,1.364
2,f,31,english,5,3,english,2024-02-09 13:55:12.834847,False,1,137,sounds\english\audio/english_883.wav,"[[  0.         -17.60743744]
 [  0.1        -37.46625877]
 [  0.2         55.1108939 ]
 [  0.3         87.45591348]
 [  0.32341667 -90.78539671]]","[[0.         1.86037562]
 [0.1        0.9331332 ]
 [0.2        1.34322635]
 [0.3        0.07818604]
 [0.32341667 1.31446095]]",1,1.311
2,f,31,english,5,3,english,2024-02-09 13:55:12.834847,False,1,138,sounds\english\audio/english_491.wav,"[[  0.         -58.06424917]
 [  0.1        -10.73132445]
 [  0.2         17.9230478 ]
 [  0.3        -41.27614743]
 [  0.32341667 -30.17832464]]","[[0.         1.23740358]
 [0.1        0.97891215]
 [0.2        0.17588849]
 [0.3        0.52166982]
 [0.32341667 1.65640468]]",1,1.568
2,f,31,english,5,3,english,2024-02-09 13:55:12.834847,False,1,139,sounds\english\audio/english_449.wav,"[[  0.         -46.54576765]
 [  0.1         20.05422573]
 [  0.2         54.52400621]
 [  0.3         73.66855139]
 [  0.32341667  -1.88675615]]","[[0.         0.60085197]
 [0.1        1.74901032]
 [0.2        1.9506545 ]
 [0.3        1.81044704]
 [0.32341667 0.93562966]]",1,0.55
2,f,31,english,5,3,english,2024-02-09 13:55:12.834847,False,1,140,sounds\english\audio/english_705.wav,"[[  0.           3.76426423]
 [  0.1         90.96696755]
 [  0.2        -32.86898574]
 [  0.3        -21.12550784]
 [  0.32341667  39.74077299]]","[[0.         0.9500377 ]
 [0.1        0.74173997]
 [0.2        1.78776637]
 [0.3        0.8178788 ]
 [0.32341667 1.54913024]]",1,1.003
2,f,31,english,5,3,english,2024-02-09 13:55:12.834847,False,1,141,sounds\english\audio/english_533.wav,"[[  0.         -10.36570298]
 [  0.1        -67.04420928]
 [  0.2        -31.24691396]
 [  0.3        -22.73912087]
 [  0.32341667  -4.63915005]]","[[0.         0.10013008]
 [0.1        1.73583104]
 [0.2        1.00550506]
 [0.3        1.21009828]
 [0.32341667 1.69946188]]",0,1.439
2,f,31,english,5,3,english,2024-02-09 13:55:12.834847,False,1,142,sounds\english\audio/english_457.wav,"[[  0.         -73.30847947]
 [  0.1        -25.74413936]
 [  0.2          8.82772976]
 [  0.3         -2.30416086]
 [  0.32341667 -34.04493945]]","[[0.         0.35525387]
 [0.1        0.90483023]
 [0.2        1.30004432]
 [0.3        0.93422762]
 [0.32341667 1.31504388]]",0,0.15
2,f,31,english,5,3,english,2024-02-09 13:55:12.834847,False,1,143,sounds\english\audio/english_26.wav,"[[  0.          54.38966875]
 [  0.1          0.3460174 ]
 [  0.2        -72.33258957]
 [  0.3         67.09142092]
 [  0.32341667  16.00565239]]","[[0.         1.86679487]
 [0.1        0.79762949]
 [0.2        0.93682052]
 [0.3        1.42469209]
 [0.32341667 1.17807545]]",1,0.151
2,f,31,english,5,3,english,2024-02-09 13:55:12.834847,False,1,144,sounds\english\audio/english_460.wav,"[[  0.         -93.21492338]
 [  0.1        -65.59669931]
 [  0.2         76.47030005]
 [  0.3        -24.62267943]
 [  0.32341667  17.6428759 ]]","[[0.         1.97422145]
 [0.1        0.48313428]
 [0.2        0.91916034]
 [0.3        0.34121923]
 [0.32341667 0.75894887]]",1,1.849
2,f,31,english,5,3,english,2024-02-09 13:55:12.834847,False,1,145,sounds\english\audio/english_488.wav,"[[  0.           7.19120882]
 [  0.1         11.64873536]
 [  0.2         59.26032861]
 [  0.3        -31.0631162 ]
 [  0.32341667  23.8619583 ]]","[[0.         0.55609806]
 [0.1        1.36121935]
 [0.2        0.93872915]
 [0.3        1.52041262]
 [0.32341667 1.83140972]]",0,0.797
2,f,31,english,5,3,english,2024-02-09 13:55:12.834847,False,1,146,sounds\english\audio/english_770.wav,"[[  0.         -33.21947329]
 [  0.1         63.53746239]
 [  0.2        -62.38231874]
 [  0.3         57.5515188 ]
 [  0.32341667 -11.94001254]]","[[0.         1.48551245]
 [0.1        1.21485607]
 [0.2        1.11129762]
 [0.3        1.59702794]
 [0.32341667 1.16110171]]",1,0.424
2,f,31,english,5,3,english,2024-02-09 13:55:12.834847,False,1,147,sounds\english\audio/english_210.wav,"[[  0.          43.03172008]
 [  0.1         58.48529179]
 [  0.2         57.29337371]
 [  0.3        -45.34642936]
 [  0.32341667  -3.49486879]]","[[0.         0.27268056]
 [0.1        0.59270989]
 [0.2        1.57355776]
 [0.3        1.97663548]
 [0.32341667 1.39997912]]",0,0.635
2,f,31,english,5,3,english,2024-02-09 13:55:12.834847,False,1,148,sounds\english\audio/english_612.wav,"[[  0.         -84.32217164]
 [  0.1         36.55311424]
 [  0.2         92.38334081]
 [  0.3         11.68953794]
 [  0.32341667  43.3279226 ]]","[[0.         1.34068621]
 [0.1        0.03443149]
 [0.2        0.45903509]
 [0.3        0.60209198]
 [0.32341667 0.29533154]]",1,0.894
2,f,31,english,5,3,english,2024-02-09 13:55:12.834847,False,1,149,sounds\english\audio/english_38.wav,"[[  0.          -2.78484508]
 [  0.1        -57.68912839]
 [  0.2        -17.27242754]
 [  0.3         -2.64514482]
 [  0.32341667  55.14373267]]","[[0.         0.45448836]
 [0.1        0.86252605]
 [0.2        1.61904865]
 [0.3        1.39130822]
 [0.32341667 1.59066599]]",1,1.498
2,f,31,english,5,3,english,2024-02-09 13:55:12.834847,False,1,150,sounds\english\audio/english_420.wav,"[[  0.         -56.31893026]
 [  0.1         66.6522923 ]
 [  0.2          2.15493058]
 [  0.3        -23.51601285]
 [  0.32341667  22.32226467]]","[[0.         0.25307214]
 [0.1        1.93095887]
 [0.2        0.49520396]
 [0.3        1.55970731]
 [0.32341667 0.71957325]]",0,1.923
2,f,31,english,5,3,english,2024-02-09 13:55:12.834847,False,1,151,sounds\english\audio/english_193.wav,"[[ 0.         98.63199606]
 [ 0.1        38.06859183]
 [ 0.2        58.19309996]
 [ 0.3        70.68425501]
 [ 0.32341667 89.06926868]]","[[0.         1.10219899]
 [0.1        1.75752318]
 [0.2        1.8701857 ]
 [0.3        1.90449871]
 [0.32341667 1.70479661]]",1,1.287
2,f,31,english,5,3,english,2024-02-09 13:55:12.834847,False,1,152,sounds\english\audio/english_378.wav,"[[  0.          13.37832971]
 [  0.1         17.37931074]
 [  0.2         10.9554113 ]
 [  0.3        -24.86891171]
 [  0.32341667   7.89965194]]","[[0.         0.65677047]
 [0.1        1.74134092]
 [0.2        0.67897054]
 [0.3        1.20159635]
 [0.32341667 0.27053006]]",0,0.397
2,f,31,english,5,3,english,2024-02-09 13:55:12.834847,False,1,153,sounds\english\audio/english_290.wav,"[[  0.          73.71968657]
 [  0.1        -59.85317413]
 [  0.2         71.1426587 ]
 [  0.3        -18.50007061]
 [  0.32341667 -65.91143137]]","[[0.         0.30552726]
 [0.1        1.31636279]
 [0.2        0.54925413]
 [0.3        1.26204455]
 [0.32341667 0.60528556]]",0,0.198
2,f,31,english,5,3,english,2024-02-09 13:55:12.834847,False,1,154,sounds\english\audio/english_654.wav,"[[  0.         -97.13147194]
 [  0.1        -81.37819023]
 [  0.2         51.48571278]
 [  0.3         54.00949099]
 [  0.32341667 -95.1633683 ]]","[[0.         0.91673578]
 [0.1        1.23280851]
 [0.2        1.64688363]
 [0.3        1.75994168]
 [0.32341667 0.20104411]]",1,0.716
2,f,31,english,5,3,english,2024-02-09 13:55:12.834847,False,1,155,sounds\english\audio/english_945.wav,"[[  0.          63.16075011]
 [  0.1         87.55520176]
 [  0.2        -69.60467193]
 [  0.3        -69.25530384]
 [  0.32341667 -47.64160087]]","[[0.         1.8314946 ]
 [0.1        1.3737613 ]
 [0.2        0.61639792]
 [0.3        1.67239747]
 [0.32341667 1.88344595]]",0,0.342
2,f,31,english,5,3,english,2024-02-09 13:55:12.834847,False,1,156,sounds\english\audio/english_619.wav,"[[  0.          38.53351318]
 [  0.1        -11.21157995]
 [  0.2         29.79887689]
 [  0.3         48.6384615 ]
 [  0.32341667 -66.5905708 ]]","[[0.         1.25542912]
 [0.1        0.83005785]
 [0.2        1.51254928]
 [0.3        0.37972577]
 [0.32341667 0.44889873]]",0,0.604
2,f,31,english,5,3,english,2024-02-09 13:55:12.834847,False,1,157,sounds\english\audio/english_212.wav,"[[  0.          -8.03708838]
 [  0.1         72.60121642]
 [  0.2        -98.76374397]
 [  0.3         31.47742107]
 [  0.32341667  53.59344022]]","[[0.         0.69940518]
 [0.1        1.0039509 ]
 [0.2        1.17731185]
 [0.3        0.88066499]
 [0.32341667 0.33624016]]",1,0.156
2,f,31,english,5,3,english,2024-02-09 13:55:12.834847,False,1,158,sounds\english\audio/english_850.wav,"[[  0.          79.79173837]
 [  0.1        -44.24877139]
 [  0.2         74.77623955]
 [  0.3        -86.32612653]
 [  0.32341667 -11.10230867]]","[[0.         1.46721922]
 [0.1        0.57242606]
 [0.2        0.15597525]
 [0.3        1.3358867 ]
 [0.32341667 1.14618682]]",1,0.823
2,f,31,english,5,3,english,2024-02-09 13:55:12.834847,False,1,159,sounds\english\audio/english_443.wav,"[[  0.           0.608638  ]
 [  0.1         15.80398242]
 [  0.2        -53.8454718 ]
 [  0.3         32.36058062]
 [  0.32341667  41.23353215]]","[[0.         1.06022382]
 [0.1        1.02694767]
 [0.2        0.72801533]
 [0.3        1.22153209]
 [0.32341667 0.58841963]]",0,0.213
2,f,31,english,5,3,english,2024-02-09 13:55:12.834847,False,1,160,sounds\english\audio/english_614.wav,"[[  0.          78.57791509]
 [  0.1         -6.15631212]
 [  0.2        -15.34092719]
 [  0.3         21.91351344]
 [  0.32341667 -10.50820757]]","[[0.         1.76663636]
 [0.1        0.7337869 ]
 [0.2        1.62880485]
 [0.3        0.61213133]
 [0.32341667 0.41097232]]",0,0.248
2,f,31,english,5,3,english,2024-02-09 13:55:12.834847,False,1,161,sounds\english\audio/english_957.wav,"[[  0.          -8.34255742]
 [  0.1        -36.8236739 ]
 [  0.2          6.68978896]
 [  0.3        -85.51463088]
 [  0.32341667 -16.82289389]]","[[0.         0.77577071]
 [0.1        1.35435363]
 [0.2        0.94592229]
 [0.3        0.8988777 ]
 [0.32341667 0.34403417]]",1,0.132
2,f,31,english,5,3,english,2024-02-09 13:55:12.834847,False,1,162,sounds\english\audio/english_294.wav,"[[  0.         -92.15775888]
 [  0.1         71.96645866]
 [  0.2        -25.46852775]
 [  0.3         17.21488016]
 [  0.32341667 -10.41176069]]","[[0.         0.74816787]
 [0.1        1.71916745]
 [0.2        1.7524902 ]
 [0.3        0.9780509 ]
 [0.32341667 1.21177262]]",1,0.482
2,f,31,english,5,3,english,2024-02-09 13:55:12.834847,False,1,163,sounds\english\audio/english_227.wav,"[[  0.         -56.39318384]
 [  0.1         90.87442764]
 [  0.2        -39.94082392]
 [  0.3         31.5093861 ]
 [  0.32341667  70.38847456]]","[[0.         1.7541365 ]
 [0.1        0.66011804]
 [0.2        0.16454365]
 [0.3        0.63744506]
 [0.32341667 0.55874538]]",1,0.653
2,f,31,english,5,3,english,2024-02-09 13:55:12.834847,False,1,164,sounds\english\audio/english_792.wav,"[[  0.         -56.39949456]
 [  0.1        -76.36067248]
 [  0.2        -58.44160547]
 [  0.3         25.29086486]
 [  0.32341667  -6.58788169]]","[[0.         1.32676777]
 [0.1        1.08004851]
 [0.2        1.5809308 ]
 [0.3        0.16508433]
 [0.32341667 1.18870574]]",1,0.366
2,f,31,english,5,3,english,2024-02-09 13:55:12.834847,False,1,165,sounds\english\audio/english_509.wav,"[[  0.          58.37136146]
 [  0.1        -30.59588084]
 [  0.2        -42.62400689]
 [  0.3         58.46483968]
 [  0.32341667  44.09610342]]","[[0.         0.93627824]
 [0.1        1.268957  ]
 [0.2        0.87018438]
 [0.3        1.67134466]
 [0.32341667 1.96584472]]",1,0.331
2,f,31,english,5,3,english,2024-02-09 13:55:12.834847,False,1,166,sounds\english\audio/english_933.wav,"[[  0.         -48.12258855]
 [  0.1         27.26905516]
 [  0.2          0.35087756]
 [  0.3         94.96402149]
 [  0.32341667  61.52669097]]","[[0.         1.54767366]
 [0.1        0.30219473]
 [0.2        1.50410475]
 [0.3        1.44820406]
 [0.32341667 0.05049928]]",1,0.609
2,f,31,english,5,3,english,2024-02-09 13:55:12.834847,False,1,167,sounds\english\audio/english_970.wav,"[[  0.          37.22911191]
 [  0.1         36.57191813]
 [  0.2         20.2344678 ]
 [  0.3        -86.31030026]
 [  0.32341667 -83.96880691]]","[[0.         0.60712849]
 [0.1        1.26781741]
 [0.2        1.29373459]
 [0.3        0.18112256]
 [0.32341667 1.07780169]]",1,0.617
2,f,31,english,5,3,english,2024-02-09 13:55:12.834847,False,1,168,sounds\english\audio/english_772.wav,"[[  0.         -76.23750274]
 [  0.1         54.42820472]
 [  0.2         26.41325181]
 [  0.3         14.10037165]
 [  0.32341667 -75.83605273]]","[[0.         0.54712598]
 [0.1        1.66698734]
 [0.2        1.761061  ]
 [0.3        1.80899506]
 [0.32341667 1.29882268]]",1,1.288
2,f,31,english,5,3,english,2024-02-09 13:55:12.834847,False,1,169,sounds\english\audio/english_14.wav,"[[  0.          98.00979643]
 [  0.1        -39.90204919]
 [  0.2         51.0517473 ]
 [  0.3         -8.39716694]
 [  0.32341667  82.54419716]]","[[0.         0.92494293]
 [0.1        0.80403915]
 [0.2        0.29426005]
 [0.3        0.14957292]
 [0.32341667 0.1717279 ]]",0,0.235
2,f,31,english,5,3,english,2024-02-09 13:55:12.834847,False,1,170,sounds\english\audio/english_870.wav,"[[  0.         -85.66751388]
 [  0.1         30.55194498]
 [  0.2        -98.28008273]
 [  0.3        -58.1418371 ]
 [  0.32341667  81.20200135]]","[[0.         1.70746054]
 [0.1        0.68953906]
 [0.2        1.62274852]
 [0.3        0.74531017]
 [0.32341667 1.06596266]]",1,0.181
2,f,31,english,5,3,english,2024-02-09 13:55:12.834847,False,1,171,sounds\english\audio/english_453.wav,"[[  0.         -60.23429987]
 [  0.1         80.38725697]
 [  0.2         66.16689695]
 [  0.3        -59.46214637]
 [  0.32341667 -39.76201882]]","[[0.         1.87756573]
 [0.1        0.94070469]
 [0.2        1.71191258]
 [0.3        0.56012011]
 [0.32341667 0.35119419]]",1,0.405
2,f,31,english,5,3,english,2024-02-09 13:55:12.834847,False,1,172,sounds\english\audio/english_985.wav,"[[  0.          31.76144354]
 [  0.1         49.0534069 ]
 [  0.2        -59.14058353]
 [  0.3        -36.25561351]
 [  0.32341667 -53.50268286]]","[[0.         0.46805505]
 [0.1        1.72857245]
 [0.2        0.05336254]
 [0.3        0.45417652]
 [0.32341667 1.33850641]]",0,0.347
2,f,31,english,5,3,english,2024-02-09 13:55:12.834847,False,1,173,sounds\english\audio/english_19.wav,"[[  0.          51.84788699]
 [  0.1         59.68091475]
 [  0.2        -27.71167756]
 [  0.3        -29.56443604]
 [  0.32341667 -58.55228515]]","[[0.         0.3981759 ]
 [0.1        1.61217409]
 [0.2        0.35158216]
 [0.3        0.8770992 ]
 [0.32341667 0.51670124]]",0,0.159
2,f,31,english,5,3,english,2024-02-09 13:55:12.834847,False,1,174,sounds\english\audio/english_502.wav,"[[  0.         -23.73065935]
 [  0.1          2.70754613]
 [  0.2         25.650451  ]
 [  0.3        -49.55254658]
 [  0.32341667  16.82642172]]","[[0.         0.0797034 ]
 [0.1        1.83600464]
 [0.2        1.48948742]
 [0.3        1.22465236]
 [0.32341667 1.41984075]]",0,0.1
2,f,31,english,5,3,english,2024-02-09 13:55:12.834847,False,1,175,sounds\english\audio/english_752.wav,"[[  0.         -89.50526135]
 [  0.1         16.42916277]
 [  0.2        -62.11724863]
 [  0.3        -22.7839786 ]
 [  0.32341667  21.77934146]]","[[0.         1.26833375]
 [0.1        1.25445964]
 [0.2        1.84048801]
 [0.3        0.96813738]
 [0.32341667 1.95604557]]",0,0.044
2,f,31,english,5,3,english,2024-02-09 13:55:12.834847,False,1,176,sounds\english\audio/english_334.wav,"[[  0.         -67.45724149]
 [  0.1         -9.29085452]
 [  0.2        -52.27794836]
 [  0.3         97.74689659]
 [  0.32341667  69.13668576]]","[[0.         1.41500124]
 [0.1        1.93519658]
 [0.2        1.67457228]
 [0.3        1.80763723]
 [0.32341667 0.68141016]]",0,0.153
2,f,31,english,5,3,english,2024-02-09 13:55:12.834847,False,1,177,sounds\english\audio/english_717.wav,"[[  0.          11.70361719]
 [  0.1        -43.41962   ]
 [  0.2        -38.6653904 ]
 [  0.3        -38.11833374]
 [  0.32341667  93.29743671]]","[[0.         1.43236824]
 [0.1        0.38419888]
 [0.2        1.88953633]
 [0.3        1.28007762]
 [0.32341667 0.67082429]]",1,0.886
2,f,31,english,5,3,english,2024-02-09 13:55:12.834847,False,1,178,sounds\english\audio/english_450.wav,"[[  0.          32.75253923]
 [  0.1        -95.51335644]
 [  0.2         34.87485597]
 [  0.3        -23.91285283]
 [  0.32341667  -8.67870007]]","[[0.         1.28767958]
 [0.1        1.7262356 ]
 [0.2        0.97567272]
 [0.3        1.94639387]
 [0.32341667 1.78958339]]",0,1.094
2,f,31,english,5,3,english,2024-02-09 13:55:12.834847,False,1,179,sounds\english\audio/english_809.wav,"[[  0.          -9.08149959]
 [  0.1         12.16544582]
 [  0.2         40.52205867]
 [  0.3        -94.19679153]
 [  0.32341667  -5.82752377]]","[[0.         0.73203403]
 [0.1        0.53159531]
 [0.2        1.48114639]
 [0.3        1.77078339]
 [0.32341667 1.36117577]]",1,0.906
2,f,31,english,5,3,english,2024-02-09 13:55:12.834847,False,1,180,sounds\english\audio/english_518.wav,"[[  0.          52.37511869]
 [  0.1        -33.3490586 ]
 [  0.2        -71.20035434]
 [  0.3          6.23243823]
 [  0.32341667 -29.48660546]]","[[0.         0.23824141]
 [0.1        0.80559068]
 [0.2        1.24725456]
 [0.3        1.01334401]
 [0.32341667 1.51264586]]",1,0.95
2,f,31,english,5,3,english,2024-02-09 13:55:12.834847,False,1,181,sounds\english\audio/english_723.wav,"[[  0.         -85.17156731]
 [  0.1         92.93654667]
 [  0.2        -28.89042756]
 [  0.3         36.79914563]
 [  0.32341667   6.86426773]]","[[0.         1.02541656]
 [0.1        0.92088513]
 [0.2        0.78256854]
 [0.3        1.22887413]
 [0.32341667 1.77193963]]",1,0.816
2,f,31,english,5,3,english,2024-02-09 13:55:12.834847,False,1,182,sounds\english\audio/english_118.wav,"[[  0.         -46.26080879]
 [  0.1        -14.63576669]
 [  0.2         85.04541628]
 [  0.3        -49.31762638]
 [  0.32341667  16.64479416]]","[[0.         0.77156844]
 [0.1        0.55135676]
 [0.2        0.92804695]
 [0.3        1.40435072]
 [0.32341667 1.67291824]]",1,1.385
2,f,31,english,5,3,english,2024-02-09 13:55:12.834847,False,1,183,sounds\english\audio/english_260.wav,"[[  0.         -45.73422918]
 [  0.1        -23.757295  ]
 [  0.2         -1.17180464]
 [  0.3         42.98000529]
 [  0.32341667   7.49715463]]","[[0.         1.75247731]
 [0.1        1.29821829]
 [0.2        0.50372963]
 [0.3        1.19905143]
 [0.32341667 0.66690199]]",1,0.781
2,f,31,english,5,3,english,2024-02-09 13:55:12.834847,False,1,184,sounds\english\audio/english_2.wav,"[[  0.         -99.15346184]
 [  0.1         80.90141422]
 [  0.2         25.8663891 ]
 [  0.3         75.24606714]
 [  0.32341667 -83.41413367]]","[[0.         1.13720105]
 [0.1        1.91777804]
 [0.2        0.47706995]
 [0.3        0.3458575 ]
 [0.32341667 0.38623968]]",0,0.333
2,f,31,english,5,3,english,2024-02-09 13:55:12.834847,False,1,185,sounds\english\audio/english_883.wav,"[[  0.         -17.60743744]
 [  0.1        -37.46625877]
 [  0.2         55.1108939 ]
 [  0.3         87.45591348]
 [  0.32341667 -90.78539671]]","[[0.         1.86037562]
 [0.1        0.9331332 ]
 [0.2        1.34322635]
 [0.3        0.07818604]
 [0.32341667 1.31446095]]",1,0.809
2,f,31,english,5,3,english,2024-02-09 13:55:12.834847,False,1,186,sounds\english\audio/english_732.wav,"[[  0.         -12.49530298]
 [  0.1         77.35683448]
 [  0.2         46.14200593]
 [  0.3        -17.19403126]
 [  0.32341667 -81.60069167]]","[[0.         1.28394154]
 [0.1        1.95772399]
 [0.2        1.14408971]
 [0.3        0.21034957]
 [0.32341667 0.50538316]]",1,0.877
2,f,31,english,5,3,english,2024-02-09 13:55:12.834847,False,1,187,sounds\english\audio/english_837.wav,"[[  0.         -10.72674788]
 [  0.1         33.60933966]
 [  0.2         -1.37827911]
 [  0.3         29.3498758 ]
 [  0.32341667  31.86641091]]","[[0.         0.56055933]
 [0.1        1.16716927]
 [0.2        1.02731607]
 [0.3        1.96665864]
 [0.32341667 0.45425732]]",1,0.761
2,f,31,english,5,3,english,2024-02-09 13:55:12.834847,False,1,188,sounds\english\audio/english_279.wav,"[[  0.         -20.90398108]
 [  0.1         98.83098338]
 [  0.2        -95.37608427]
 [  0.3        -52.65380993]
 [  0.32341667  47.72500112]]","[[0.         0.60114424]
 [0.1        0.92336304]
 [0.2        1.39045705]
 [0.3        0.64938935]
 [0.32341667 1.57478054]]",0,0.15
2,f,31,english,5,3,english,2024-02-09 13:55:12.834847,False,1,189,sounds\english\audio/english_684.wav,"[[  0.           0.36394418]
 [  0.1         28.47964645]
 [  0.2         60.47995017]
 [  0.3        -33.43266819]
 [  0.32341667 -31.86672206]]","[[0.         1.65924935]
 [0.1        1.32149406]
 [0.2        0.32417562]
 [0.3        1.42108385]
 [0.32341667 1.29243289]]",0,0.327
2,f,31,english,5,3,english,2024-02-09 13:55:12.834847,False,1,190,sounds\english\audio/english_253.wav,"[[  0.          12.9108365 ]
 [  0.1        -70.83420593]
 [  0.2         -6.13796162]
 [  0.3         38.03543053]
 [  0.32341667 -61.21147917]]","[[0.         0.20464585]
 [0.1        1.97412558]
 [0.2        1.12401504]
 [0.3        1.75851492]
 [0.32341667 0.77953826]]",1,0.42
2,f,31,english,5,3,english,2024-02-09 13:55:12.834847,False,1,191,sounds\english\audio/english_480.wav,"[[  0.          -9.10453384]
 [  0.1         72.09708103]
 [  0.2        -73.7181862 ]
 [  0.3         18.73451671]
 [  0.32341667  83.35837597]]","[[0.         0.61491247]
 [0.1        1.35502449]
 [0.2        0.28674933]
 [0.3        0.14653082]
 [0.32341667 1.34653786]]",0,1.178
2,f,31,english,5,3,english,2024-02-09 13:55:12.834847,False,1,192,sounds\english\audio/english_959.wav,"[[  0.         -78.42285057]
 [  0.1          6.44734251]
 [  0.2         20.74966326]
 [  0.3        -29.69680039]
 [  0.32341667  34.2282551 ]]","[[0.         1.71892855]
 [0.1        1.96402951]
 [0.2        0.26247596]
 [0.3        1.29464598]
 [0.32341667 1.77868038]]",0,1.467
2,f,31,english,5,3,english,2024-02-09 13:55:12.834847,False,1,193,sounds\english\audio/english_13.wav,"[[  0.          85.79405153]
 [  0.1        -22.00296346]
 [  0.2         45.89988476]
 [  0.3        -17.47250281]
 [  0.32341667 -30.34546067]]","[[0.         0.93145275]
 [0.1        0.69811424]
 [0.2        1.08090206]
 [0.3        0.35305012]
 [0.32341667 0.65915907]]",1,0.43
2,f,31,english,5,3,english,2024-02-09 13:55:12.834847,False,1,194,sounds\english\audio/english_284.wav,"[[  0.         -77.15161711]
 [  0.1         80.53955212]
 [  0.2        -73.74967403]
 [  0.3        -47.67008962]
 [  0.32341667  40.40758666]]","[[0.         0.74585549]
 [0.1        0.017077  ]
 [0.2        0.284322  ]
 [0.3        1.04459593]
 [0.32341667 0.8536958 ]]",0,0.712
2,f,31,english,5,3,english,2024-02-09 13:55:12.834847,False,1,195,sounds\english\audio/english_464.wav,"[[  0.          53.08614354]
 [  0.1         30.21863436]
 [  0.2        -72.79337117]
 [  0.3         91.0452741 ]
 [  0.32341667 -31.40181873]]","[[0.         0.76512863]
 [0.1        1.75958979]
 [0.2        0.91412587]
 [0.3        1.02089091]
 [0.32341667 1.37846458]]",1,1.425
2,f,31,english,5,3,english,2024-02-09 13:55:12.834847,False,1,196,sounds\english\audio/english_671.wav,"[[  0.          32.91930287]
 [  0.1          6.16976114]
 [  0.2        -34.00390264]
 [  0.3         18.374511  ]
 [  0.32341667  -2.98713897]]","[[0.         1.74193101]
 [0.1        0.51820224]
 [0.2        0.07120536]
 [0.3        0.3828633 ]
 [0.32341667 1.2592669 ]]",0,0.268
2,f,31,english,5,3,english,2024-02-09 13:55:12.834847,False,1,197,sounds\english\audio/english_527.wav,"[[  0.         -32.70996179]
 [  0.1        -61.96334317]
 [  0.2         86.46317242]
 [  0.3        -18.9429262 ]
 [  0.32341667 -59.75355058]]","[[0.         0.06646481]
 [0.1        1.75268105]
 [0.2        0.41061726]
 [0.3        1.43024268]
 [0.32341667 0.73468543]]",0,0.555
2,f,31,english,5,3,english,2024-02-09 13:55:12.834847,False,1,198,sounds\english\audio/english_630.wav,"[[  0.          97.25925287]
 [  0.1         76.95662127]
 [  0.2          5.01423186]
 [  0.3        -27.88706711]
 [  0.32341667  90.69966072]]","[[0.         0.34607754]
 [0.1        0.15996234]
 [0.2        1.73874617]
 [0.3        0.41181915]
 [0.32341667 0.77788697]]",0,1.238
2,f,31,english,5,3,english,2024-02-09 13:55:12.834847,False,1,199,sounds\english\audio/english_315.wav,"[[  0.           3.76150079]
 [  0.1          4.93204799]
 [  0.2        -81.53480532]
 [  0.3         45.94577355]
 [  0.32341667 -55.96194099]]","[[0.         1.04293113]
 [0.1        0.55537984]
 [0.2        1.13024782]
 [0.3        1.06792043]
 [0.32341667 1.80369969]]",1,1.548
2,f,31,english,5,3,english,2024-02-09 13:55:12.834847,False,1,200,sounds\english\audio/english_886.wav,"[[  0.          52.0334205 ]
 [  0.1        -34.60142464]
 [  0.2         77.69993065]
 [  0.3         29.08950905]
 [  0.32341667 -98.8324779 ]]","[[0.         0.43451348]
 [0.1        1.57387994]
 [0.2        1.05416836]
 [0.3        0.32554246]
 [0.32341667 1.85669509]]",1,0.282
2,f,31,english,5,3,english,2024-02-09 13:55:12.834847,False,1,201,sounds\english\audio/english_220.wav,"[[  0.         -49.83323752]
 [  0.1         49.13629021]
 [  0.2         10.673463  ]
 [  0.3         -2.35218347]
 [  0.32341667  -2.61587219]]","[[0.         1.6244524 ]
 [0.1        0.7812698 ]
 [0.2        1.29736816]
 [0.3        1.3419496 ]
 [0.32341667 1.06575232]]",1,0.305
2,f,31,english,5,3,english,2024-02-09 13:55:12.834847,False,1,202,sounds\english\audio/english_83.wav,"[[  0.          98.86804112]
 [  0.1        -37.42051535]
 [  0.2         23.85234946]
 [  0.3         28.05435803]
 [  0.32341667   2.44147447]]","[[0.         0.82381457]
 [0.1        1.26275754]
 [0.2        0.74836396]
 [0.3        0.41584898]
 [0.32341667 1.88336536]]",1,0.86
2,f,31,english,5,3,english,2024-02-09 13:55:12.834847,False,1,203,sounds\english\audio/english_303.wav,"[[  0.          67.00540241]
 [  0.1         32.95821842]
 [  0.2        -23.67517146]
 [  0.3        -66.94926695]
 [  0.32341667  65.71723135]]","[[0.         1.22520816]
 [0.1        1.22732479]
 [0.2        0.54923068]
 [0.3        0.8977578 ]
 [0.32341667 1.41807679]]",0,0.338
2,f,31,english,5,3,english,2024-02-09 13:55:12.834847,False,1,204,sounds\english\audio/english_382.wav,"[[  0.         -83.35497559]
 [  0.1          7.83115402]
 [  0.2         77.46115257]
 [  0.3         89.755233  ]
 [  0.32341667 -36.08570956]]","[[0.         1.24516413]
 [0.1        0.59675254]
 [0.2        0.61036026]
 [0.3        1.95554414]
 [0.32341667 1.60845727]]",0,0.129
2,f,31,english,5,3,english,2024-02-09 13:55:12.834847,False,1,205,sounds\english\audio/english_460.wav,"[[  0.         -93.21492338]
 [  0.1        -65.59669931]
 [  0.2         76.47030005]
 [  0.3        -24.62267943]
 [  0.32341667  17.6428759 ]]","[[0.         1.97422145]
 [0.1        0.48313428]
 [0.2        0.91916034]
 [0.3        0.34121923]
 [0.32341667 0.75894887]]",1,0.402
2,f,31,english,5,3,english,2024-02-09 13:55:12.834847,False,1,206,sounds\english\audio/english_653.wav,"[[  0.           8.14815906]
 [  0.1          4.49815435]
 [  0.2        -96.80954485]
 [  0.3         -0.49075979]
 [  0.32341667  98.12577208]]","[[0.         1.27061672]
 [0.1        1.37470465]
 [0.2        1.57421691]
 [0.3        1.39011427]
 [0.32341667 0.75484601]]",1,0.628
2,f,31,english,5,3,english,2024-02-09 13:55:12.834847,False,1,207,sounds\english\audio/english_707.wav,"[[  0.         -17.04120346]
 [  0.1        -57.44917128]
 [  0.2         90.75848643]
 [  0.3         96.79852424]
 [  0.32341667  27.01716591]]","[[0.         1.06535483]
 [0.1        0.89541794]
 [0.2        1.64838001]
 [0.3        0.75431717]
 [0.32341667 0.48082071]]",1,0.284
2,f,31,english,5,3,english,2024-02-09 13:55:12.834847,False,1,208,sounds\english\audio/english_900.wav,"[[  0.         -54.93304755]
 [  0.1         58.88524349]
 [  0.2        -67.87194092]
 [  0.3         20.66021993]
 [  0.32341667 -10.79853151]]","[[0.         1.64865849]
 [0.1        1.11215591]
 [0.2        0.89823705]
 [0.3        1.30060406]
 [0.32341667 1.95850441]]",1,0.382
2,f,31,english,5,3,english,2024-02-09 13:55:12.834847,False,1,209,sounds\english\audio/english_859.wav,"[[  0.          71.31858369]
 [  0.1        -33.60875554]
 [  0.2        -64.15502461]
 [  0.3        -36.22537369]
 [  0.32341667 -23.59955866]]","[[0.         0.11764496]
 [0.1        0.29827778]
 [0.2        0.43254339]
 [0.3        0.12368506]
 [0.32341667 0.97858169]]",1,0.943
2,f,31,english,5,3,english,2024-02-09 13:55:12.834847,False,1,210,sounds\english\audio/english_915.wav,"[[  0.          40.39704719]
 [  0.1        -77.86782689]
 [  0.2         21.84672988]
 [  0.3        -56.0972156 ]
 [  0.32341667  65.00594456]]","[[0.         0.11203387]
 [0.1        0.449249  ]
 [0.2        0.02407483]
 [0.3        1.6502756 ]
 [0.32341667 0.65362707]]",0,0.202
2,f,31,english,5,3,english,2024-02-09 13:55:12.834847,False,1,211,sounds\english\audio/english_485.wav,"[[  0.          -7.08941798]
 [  0.1        -70.64579204]
 [  0.2         23.79115045]
 [  0.3          0.80487994]
 [  0.32341667   4.72097057]]","[[0.         1.8206563 ]
 [0.1        0.10660577]
 [0.2        1.92760945]
 [0.3        0.77499174]
 [0.32341667 1.20070888]]",1,0.837
2,f,31,english,5,3,english,2024-02-09 13:55:12.834847,False,1,212,sounds\english\audio/english_614.wav,"[[  0.          78.57791509]
 [  0.1         -6.15631212]
 [  0.2        -15.34092719]
 [  0.3         21.91351344]
 [  0.32341667 -10.50820757]]","[[0.         1.76663636]
 [0.1        0.7337869 ]
 [0.2        1.62880485]
 [0.3        0.61213133]
 [0.32341667 0.41097232]]",1,1.18
2,f,31,english,5,3,english,2024-02-09 13:55:12.834847,False,1,213,sounds\english\audio/english_354.wav,"[[  0.         -63.97501145]
 [  0.1        -43.11314734]
 [  0.2         10.53928595]
 [  0.3        -23.15258088]
 [  0.32341667   3.22925066]]","[[0.         0.52067601]
 [0.1        0.59903392]
 [0.2        0.9992363 ]
 [0.3        1.16142831]
 [0.32341667 0.37639432]]",0,0.411
2,f,31,english,5,3,english,2024-02-09 13:55:12.834847,False,1,214,sounds\english\audio/english_648.wav,"[[  0.         -36.17742204]
 [  0.1         30.10697278]
 [  0.2        -67.31320052]
 [  0.3        -10.94597212]
 [  0.32341667  72.59648235]]","[[0.         0.57576188]
 [0.1        1.1310908 ]
 [0.2        1.67112441]
 [0.3        0.39641968]
 [0.32341667 1.93789316]]",0,0.289
2,f,31,english,5,3,english,2024-02-09 13:55:12.834847,False,1,215,sounds\english\audio/english_689.wav,"[[  0.          42.02822248]
 [  0.1        -61.92185233]
 [  0.2         -8.45156809]
 [  0.3         15.09500637]
 [  0.32341667   8.33163023]]","[[0.         1.89069384]
 [0.1        0.33123617]
 [0.2        0.5478675 ]
 [0.3        0.80334133]
 [0.32341667 1.42024866]]",1,0.935
2,f,31,english,5,3,english,2024-02-09 13:55:12.834847,False,1,216,sounds\english\audio/english_818.wav,"[[  0.          88.49542613]
 [  0.1         -7.37005163]
 [  0.2         -1.58613611]
 [  0.3        -69.41222379]
 [  0.32341667  14.01707612]]","[[0.         1.4873036 ]
 [0.1        1.25102077]
 [0.2        0.80764036]
 [0.3        0.80656775]
 [0.32341667 1.41859799]]",1,0.19
2,f,31,english,5,3,english,2024-02-09 13:55:12.834847,False,1,217,sounds\english\audio/english_804.wav,"[[  0.          11.23319328]
 [  0.1        -75.15189859]
 [  0.2          5.39397939]
 [  0.3         42.92141331]
 [  0.32341667 -79.84726866]]","[[0.         0.16159815]
 [0.1        1.76023076]
 [0.2        0.7355024 ]
 [0.3        1.74636497]
 [0.32341667 1.05562007]]",0,0.826
2,f,31,english,5,3,english,2024-02-09 13:55:12.834847,False,1,218,sounds\english\audio/english_921.wav,"[[  0.          60.93482672]
 [  0.1        -71.63665921]
 [  0.2        -30.77028929]
 [  0.3        -44.68164597]
 [  0.32341667  34.59415858]]","[[0.         0.06624465]
 [0.1        1.88925143]
 [0.2        0.40013084]
 [0.3        1.26601564]
 [0.32341667 1.98956357]]",0,0.142
2,f,31,english,5,3,english,2024-02-09 13:55:12.834847,False,1,219,sounds\english\audio/english_591.wav,"[[  0.         -17.23532002]
 [  0.1        -55.20494434]
 [  0.2        -36.65883109]
 [  0.3         75.34514139]
 [  0.32341667  31.2832342 ]]","[[0.         0.16408748]
 [0.1        0.21361432]
 [0.2        0.19384467]
 [0.3        0.82850175]
 [0.32341667 1.471328  ]]",0,0.211
2,f,31,english,5,3,english,2024-02-09 13:55:12.834847,False,1,220,sounds\english\audio/english_617.wav,"[[  0.         -99.94195333]
 [  0.1        -27.54289523]
 [  0.2        -31.48016085]
 [  0.3        -72.28967102]
 [  0.32341667 -18.83127656]]","[[0.         1.17597353]
 [0.1        0.72595777]
 [0.2        0.94648609]
 [0.3        1.67485207]
 [0.32341667 0.94146903]]",0,0.577
2,f,31,english,5,3,english,2024-02-09 13:55:12.834847,False,1,221,sounds\english\audio/english_193.wav,"[[ 0.         98.63199606]
 [ 0.1        38.06859183]
 [ 0.2        58.19309996]
 [ 0.3        70.68425501]
 [ 0.32341667 89.06926868]]","[[0.         1.10219899]
 [0.1        1.75752318]
 [0.2        1.8701857 ]
 [0.3        1.90449871]
 [0.32341667 1.70479661]]",1,0.556
2,f,31,english,5,3,english,2024-02-09 13:55:12.834847,False,1,222,sounds\english\audio/english_103.wav,"[[  0.         -79.54710498]
 [  0.1        -41.31314025]
 [  0.2        -48.58046961]
 [  0.3         50.88097047]
 [  0.32341667  21.22320476]]","[[0.         0.84178061]
 [0.1        1.9706485 ]
 [0.2        1.55059924]
 [0.3        1.14550684]
 [0.32341667 1.67039139]]",1,0.743
2,f,31,english,5,3,english,2024-02-09 13:55:12.834847,False,1,223,sounds\english\audio/english_36.wav,"[[  0.           8.79498818]
 [  0.1        -18.99628775]
 [  0.2        -17.40156662]
 [  0.3        -85.73958234]
 [  0.32341667  45.44069908]]","[[0.         0.0614271 ]
 [0.1        0.22652961]
 [0.2        0.46484299]
 [0.3        0.81464033]
 [0.32341667 0.21843777]]",0,0.233
2,f,31,english,5,3,english,2024-02-09 13:55:12.834847,False,1,224,sounds\english\audio/english_682.wav,"[[  0.         -19.80167737]
 [  0.1        -30.98220326]
 [  0.2         26.07010201]
 [  0.3         -7.79776739]
 [  0.32341667 -10.9148898 ]]","[[0.         1.6131825 ]
 [0.1        1.03205672]
 [0.2        1.08357256]
 [0.3        1.70642947]
 [0.32341667 0.86858281]]",1,0.129
2,f,31,english,5,3,english,2024-02-09 13:55:12.834847,False,1,225,sounds\english\audio/english_767.wav,"[[  0.          29.63321135]
 [  0.1        -31.63783795]
 [  0.2         56.53254366]
 [  0.3         52.69149806]
 [  0.32341667  -0.8536295 ]]","[[0.         0.17563718]
 [0.1        0.61981002]
 [0.2        1.38773128]
 [0.3        1.37795514]
 [0.32341667 1.97315338]]",1,0.5
2,f,31,english,5,3,english,2024-02-09 13:55:12.834847,False,1,226,sounds\english\audio/english_735.wav,"[[  0.          51.40973306]
 [  0.1         -5.42867159]
 [  0.2         13.71146629]
 [  0.3        -14.17202169]
 [  0.32341667  14.98699592]]","[[0.         0.29099813]
 [0.1        1.62833375]
 [0.2        0.32849247]
 [0.3        0.46991549]
 [0.32341667 0.51625305]]",1,0.326
2,f,31,english,5,3,english,2024-02-09 13:55:12.834847,False,1,227,sounds\english\audio/english_957.wav,"[[  0.          -8.34255742]
 [  0.1        -36.8236739 ]
 [  0.2          6.68978896]
 [  0.3        -85.51463088]
 [  0.32341667 -16.82289389]]","[[0.         0.77577071]
 [0.1        1.35435363]
 [0.2        0.94592229]
 [0.3        0.8988777 ]
 [0.32341667 0.34403417]]",1,0.398
2,f,31,english,5,3,english,2024-02-09 13:55:12.834847,False,1,228,sounds\english\audio/english_424.wav,"[[  0.          -7.44814198]
 [  0.1          9.0703424 ]
 [  0.2        -65.6005214 ]
 [  0.3         79.88163057]
 [  0.32341667  48.78273262]]","[[0.         1.7438251 ]
 [0.1        1.33993463]
 [0.2        0.96535207]
 [0.3        0.39557207]
 [0.32341667 0.47346175]]",0,0.271
2,f,31,english,5,3,english,2024-02-09 13:55:12.834847,False,1,229,sounds\english\audio/english_654.wav,"[[  0.         -97.13147194]
 [  0.1        -81.37819023]
 [  0.2         51.48571278]
 [  0.3         54.00949099]
 [  0.32341667 -95.1633683 ]]","[[0.         0.91673578]
 [0.1        1.23280851]
 [0.2        1.64688363]
 [0.3        1.75994168]
 [0.32341667 0.20104411]]",0,0.178
2,f,31,english,5,3,english,2024-02-09 13:55:12.834847,False,1,230,sounds\english\audio/english_577.wav,"[[  0.           0.60742169]
 [  0.1        -16.75441018]
 [  0.2         32.29278586]
 [  0.3         94.63733595]
 [  0.32341667 -75.78119055]]","[[0.         1.18439754]
 [0.1        1.17258894]
 [0.2        0.00832478]
 [0.3        1.24529525]
 [0.32341667 0.24980342]]",1,0.637
2,f,31,english,5,3,english,2024-02-09 13:55:12.834847,False,1,231,sounds\english\audio/english_642.wav,"[[  0.          31.40946548]
 [  0.1          4.73018903]
 [  0.2         85.2390777 ]
 [  0.3        -59.81643451]
 [  0.32341667 -42.92691369]]","[[0.         0.21393667]
 [0.1        1.31302396]
 [0.2        0.95537026]
 [0.3        1.00167733]
 [0.32341667 0.89750156]]",0,0.132
2,f,31,english,5,3,english,2024-02-09 13:55:12.834847,False,1,232,sounds\english\audio/english_977.wav,"[[  0.          63.46196139]
 [  0.1        -23.64022125]
 [  0.2         31.65242203]
 [  0.3         16.19881364]
 [  0.32341667 -33.08554183]]","[[0.         0.87194913]
 [0.1        1.67919547]
 [0.2        0.97011806]
 [0.3        1.40431802]
 [0.32341667 1.02563167]]",1,0.411
2,f,31,english,5,3,english,2024-02-09 13:55:12.834847,False,1,233,sounds\english\audio/english_671.wav,"[[  0.          32.91930287]
 [  0.1          6.16976114]
 [  0.2        -34.00390264]
 [  0.3         18.374511  ]
 [  0.32341667  -2.98713897]]","[[0.         1.74193101]
 [0.1        0.51820224]
 [0.2        0.07120536]
 [0.3        0.3828633 ]
 [0.32341667 1.2592669 ]]",0,0.653
2,f,31,english,5,3,english,2024-02-09 13:55:12.834847,False,1,234,sounds\english\audio/english_6.wav,"[[  0.          -8.2116192 ]
 [  0.1        -28.50933877]
 [  0.2        -90.20174912]
 [  0.3         -7.18062469]
 [  0.32341667 -36.83558467]]","[[0.         1.24832701]
 [0.1        0.74984456]
 [0.2        1.37568362]
 [0.3        0.47637706]
 [0.32341667 0.68255954]]",1,0.337
2,f,31,english,5,3,english,2024-02-09 13:55:12.834847,False,1,235,sounds\english\audio/english_184.wav,"[[ 0.         29.65201825]
 [ 0.1        16.48348791]
 [ 0.2         3.77448983]
 [ 0.3        62.87502431]
 [ 0.32341667 -8.82418577]]","[[0.         1.69567788]
 [0.1        1.26735627]
 [0.2        0.95352895]
 [0.3        1.7991474 ]
 [0.32341667 0.98992659]]",0,0.276
2,f,31,english,5,3,english,2024-02-09 13:55:12.834847,False,1,236,sounds\english\audio/english_986.wav,"[[  0.          36.93997263]
 [  0.1        -76.80061303]
 [  0.2         60.8418497 ]
 [  0.3        -27.90828951]
 [  0.32341667  99.51838141]]","[[0.         1.7539978 ]
 [0.1        1.40735445]
 [0.2        0.62226098]
 [0.3        0.48175931]
 [0.32341667 1.5918282 ]]",1,1.101
2,f,31,english,5,3,english,2024-02-09 13:55:12.834847,False,1,237,sounds\english\audio/english_939.wav,"[[  0.         -23.2558256 ]
 [  0.1        -16.62065377]
 [  0.2        -49.54734698]
 [  0.3         22.82101289]
 [  0.32341667  28.63490654]]","[[0.         0.1774722 ]
 [0.1        0.56271239]
 [0.2        1.42782479]
 [0.3        0.76516147]
 [0.32341667 1.70219777]]",1,0.464
2,f,31,english,5,3,english,2024-02-09 13:55:12.834847,False,1,238,sounds\english\audio/english_374.wav,"[[  0.         -43.98521466]
 [  0.1        -24.87181663]
 [  0.2        -29.31566683]
 [  0.3        -43.36019392]
 [  0.32341667 -35.5175379 ]]","[[0.         1.11607514]
 [0.1        0.38249505]
 [0.2        1.56774755]
 [0.3        1.33837662]
 [0.32341667 0.68793086]]",1,0.314
2,f,31,english,5,3,english,2024-02-09 13:55:12.834847,False,1,239,sounds\english\audio/english_510.wav,"[[  0.         -39.77235695]
 [  0.1        -55.9025784 ]
 [  0.2         42.12378864]
 [  0.3         -5.9333084 ]
 [  0.32341667  84.8199861 ]]","[[0.         0.97080384]
 [0.1        0.1022914 ]
 [0.2        1.56878682]
 [0.3        1.19302163]
 [0.32341667 1.45606517]]",1,0.363
2,f,31,english,5,3,english,2024-02-09 13:55:12.834847,False,1,240,sounds\english\audio/english_321.wav,"[[ 0.          2.07721816]
 [ 0.1        59.48735819]
 [ 0.2        64.78149714]
 [ 0.3        65.58393414]
 [ 0.32341667 14.66673939]]","[[0.         1.69623759]
 [0.1        1.35736687]
 [0.2        1.92920457]
 [0.3        0.66559077]
 [0.32341667 1.66523208]]",1,0.206
2,f,31,english,5,3,english,2024-02-09 13:55:12.834847,False,1,241,sounds\english\audio/english_619.wav,"[[  0.          38.53351318]
 [  0.1        -11.21157995]
 [  0.2         29.79887689]
 [  0.3         48.6384615 ]
 [  0.32341667 -66.5905708 ]]","[[0.         1.25542912]
 [0.1        0.83005785]
 [0.2        1.51254928]
 [0.3        0.37972577]
 [0.32341667 0.44889873]]",0,0.709
2,f,31,english,5,3,english,2024-02-09 13:55:12.834847,False,1,242,sounds\english\audio/english_832.wav,"[[  0.         -21.62855277]
 [  0.1        -35.3834786 ]
 [  0.2         52.65867494]
 [  0.3         62.52082964]
 [  0.32341667  46.66062952]]","[[0.         1.31372842]
 [0.1        1.55258378]
 [0.2        1.50567803]
 [0.3        1.2163301 ]
 [0.32341667 1.20100353]]",1,0.239
2,f,31,english,5,3,english,2024-02-09 13:55:12.834847,False,1,243,sounds\english\audio/english_792.wav,"[[  0.         -56.39949456]
 [  0.1        -76.36067248]
 [  0.2        -58.44160547]
 [  0.3         25.29086486]
 [  0.32341667  -6.58788169]]","[[0.         1.32676777]
 [0.1        1.08004851]
 [0.2        1.5809308 ]
 [0.3        0.16508433]
 [0.32341667 1.18870574]]",0,0.622
2,f,31,english,5,3,english,2024-02-09 13:55:12.834847,False,1,244,sounds\english\audio/english_30.wav,"[[  0.         -18.5398728 ]
 [  0.1        -67.34991207]
 [  0.2         65.54879707]
 [  0.3         30.88088319]
 [  0.32341667  50.60550813]]","[[0.         0.31748681]
 [0.1        1.82477139]
 [0.2        1.59992979]
 [0.3        0.89523729]
 [0.32341667 1.02052202]]",1,0.221
2,f,31,english,5,3,english,2024-02-09 13:55:12.834847,False,1,245,sounds\english\audio/english_712.wav,"[[  0.         -69.83835125]
 [  0.1        -89.98535393]
 [  0.2         47.33040466]
 [  0.3        -32.03166139]
 [  0.32341667  -5.29851616]]","[[0.         1.15670948]
 [0.1        0.40201287]
 [0.2        0.06412681]
 [0.3        1.50973484]
 [0.32341667 1.18377017]]",0,0.288
2,f,31,english,5,3,english,2024-02-09 13:55:12.834847,False,1,246,sounds\english\audio/english_618.wav,"[[  0.          58.31579708]
 [  0.1          6.96253647]
 [  0.2         -4.41581756]
 [  0.3        -63.5775247 ]
 [  0.32341667  97.77631762]]","[[0.         1.46895394]
 [0.1        0.48660613]
 [0.2        1.00963977]
 [0.3        1.29399549]
 [0.32341667 0.84060701]]",0,0.121
2,f,31,english,5,3,english,2024-02-09 13:55:12.834847,False,1,247,sounds\english\audio/english_202.wav,"[[  0.         -30.7410802 ]
 [  0.1        -19.68361402]
 [  0.2         -9.93463647]
 [  0.3         -7.1971022 ]
 [  0.32341667 -23.97797133]]","[[0.         1.48506999]
 [0.1        1.61937363]
 [0.2        0.73964021]
 [0.3        1.93955383]
 [0.32341667 1.43199581]]",0,0.996
2,f,31,english,5,3,english,2024-02-09 13:55:12.834847,False,1,248,sounds\english\audio/english_767.wav,"[[  0.          29.63321135]
 [  0.1        -31.63783795]
 [  0.2         56.53254366]
 [  0.3         52.69149806]
 [  0.32341667  -0.8536295 ]]","[[0.         0.17563718]
 [0.1        0.61981002]
 [0.2        1.38773128]
 [0.3        1.37795514]
 [0.32341667 1.97315338]]",1,0.267
2,f,31,english,5,3,english,2024-02-09 13:55:12.834847,False,1,249,sounds\english\audio/english_823.wav,"[[ 0.         24.6891334 ]
 [ 0.1        86.03794788]
 [ 0.2        45.97308045]
 [ 0.3        39.11596791]
 [ 0.32341667 10.29734006]]","[[0.         1.19409205]
 [0.1        0.72053846]
 [0.2        0.2138623 ]
 [0.3        1.56743943]
 [0.32341667 1.24065623]]",0,0.617
2,f,31,english,5,3,english,2024-02-09 13:55:12.834847,False,1,250,sounds\english\audio/english_76.wav,"[[  0.          24.78743387]
 [  0.1         -7.95135802]
 [  0.2         -9.56689875]
 [  0.3        -78.25819759]
 [  0.32341667  26.4311908 ]]","[[0.         1.26829138]
 [0.1        1.4446717 ]
 [0.2        0.88177173]
 [0.3        1.63003096]
 [0.32341667 1.97074408]]",1,0.176
2,f,31,english,5,3,english,2024-02-09 13:55:12.834847,False,1,251,sounds\english\audio/english_809.wav,"[[  0.          -9.08149959]
 [  0.1         12.16544582]
 [  0.2         40.52205867]
 [  0.3        -94.19679153]
 [  0.32341667  -5.82752377]]","[[0.         0.73203403]
 [0.1        0.53159531]
 [0.2        1.48114639]
 [0.3        1.77078339]
 [0.32341667 1.36117577]]",1,0.85
2,f,31,english,5,3,english,2024-02-09 13:55:12.834847,False,1,252,sounds\english\audio/english_480.wav,"[[  0.          -9.10453384]
 [  0.1         72.09708103]
 [  0.2        -73.7181862 ]
 [  0.3         18.73451671]
 [  0.32341667  83.35837597]]","[[0.         0.61491247]
 [0.1        1.35502449]
 [0.2        0.28674933]
 [0.3        0.14653082]
 [0.32341667 1.34653786]]",0,0.27
2,f,31,english,5,3,english,2024-02-09 13:55:12.834847,False,1,253,sounds\english\audio/english_915.wav,"[[  0.          40.39704719]
 [  0.1        -77.86782689]
 [  0.2         21.84672988]
 [  0.3        -56.0972156 ]
 [  0.32341667  65.00594456]]","[[0.         0.11203387]
 [0.1        0.449249  ]
 [0.2        0.02407483]
 [0.3        1.6502756 ]
 [0.32341667 0.65362707]]",1,0.744
2,f,31,english,5,3,english,2024-02-09 13:55:12.834847,False,1,254,sounds\english\audio/english_421.wav,"[[ 0.         25.39012861]
 [ 0.1        49.11153532]
 [ 0.2        38.93723883]
 [ 0.3        -9.34286459]
 [ 0.32341667 -9.28476392]]","[[0.         1.47358925]
 [0.1        1.20920516]
 [0.2        0.72174872]
 [0.3        0.24556907]
 [0.32341667 0.87006143]]",1,0.639
2,f,31,english,5,3,english,2024-02-09 13:55:12.834847,False,1,255,sounds\english\audio/english_264.wav,"[[  0.          16.10521774]
 [  0.1        -43.55481907]
 [  0.2        -16.87093852]
 [  0.3        -81.41755984]
 [  0.32341667 -76.00277997]]","[[0.         1.02407609]
 [0.1        1.4393598 ]
 [0.2        1.31552174]
 [0.3        1.17516842]
 [0.32341667 0.613195  ]]",1,1.384
2,f,31,english,5,3,english,2024-02-09 13:55:12.834847,False,1,256,sounds\english\audio/english_160.wav,"[[ 0.          2.54964477]
 [ 0.1        26.84692557]
 [ 0.2        72.58457191]
 [ 0.3        -6.94481249]
 [ 0.32341667 35.80656171]]","[[0.         0.54357393]
 [0.1        1.29343216]
 [0.2        0.42070854]
 [0.3        1.04489529]
 [0.32341667 0.26802137]]",0,0.453
2,f,31,english,5,3,english,2024-02-09 13:55:12.834847,False,1,257,sounds\english\audio/english_255.wav,"[[  0.         -42.74550593]
 [  0.1         35.44578771]
 [  0.2         98.7346041 ]
 [  0.3         14.08839822]
 [  0.32341667 -55.38739786]]","[[0.         1.65518669]
 [0.1        1.85823386]
 [0.2        1.2123315 ]
 [0.3        0.62099519]
 [0.32341667 1.08486436]]",1,0.474
2,f,31,english,5,3,english,2024-02-09 13:55:12.834847,False,1,258,sounds\english\audio/english_762.wav,"[[  0.         -56.40971946]
 [  0.1         -9.09046034]
 [  0.2         20.98892014]
 [  0.3        -66.43296232]
 [  0.32341667 -91.78640069]]","[[0.         1.43822993]
