subj,sex,age,language,english,french,native_lang,date,practice,block,trial,stim,pitch,stretch,response,rt
8782735929,f,25,english,5,3,english/french/other,2024-02-01 10:29:39.775433,False,2,253,sounds\english\audio/english_511.wav,"[[  0.         -54.05076571]
 [  0.1         58.21305336]
 [  0.2         93.28984864]
 [  0.3        -93.08437199]
 [  0.32341667  48.49476441]]","[[0.         1.68448531]
 [0.1        0.64957271]
 [0.2        1.47534814]
 [0.3        1.38615571]
 [0.32341667 0.71972648]]",1,6.479
8782735929,f,25,english,5,3,english/french/other,2024-02-01 10:29:39.775433,False,2,254,sounds\english\audio/english_526.wav,"[[  0.         -32.34532461]
 [  0.1        -46.6208459 ]
 [  0.2        -42.84927068]
 [  0.3          3.47643827]
 [  0.32341667  52.79087598]]","[[0.         0.924261  ]
 [0.1        0.25414499]
 [0.2        1.01925886]
 [0.3        0.65966822]
 [0.32341667 1.50872035]]",0,0.864
8782735929,f,25,english,5,3,english/french/other,2024-02-01 10:29:39.775433,False,2,255,sounds\english\audio/english_895.wav,"[[  0.         -36.05432491]
 [  0.1          0.27991529]
 [  0.2        -68.50060493]
 [  0.3        -65.34452755]
 [  0.32341667  44.30205494]]","[[0.         1.57991636]
 [0.1        1.29141926]
 [0.2        0.78617821]
 [0.3        0.53071912]
 [0.32341667 1.44568828]]",1,0.898
8782735929,f,25,english,5,3,english/french/other,2024-02-01 10:29:39.775433,False,2,256,sounds\english\audio/english_272.wav,"[[  0.          61.82030971]
 [  0.1          4.16580657]
 [  0.2        -53.2567432 ]
 [  0.3        -52.99830768]
 [  0.32341667 -92.9943793 ]]","[[0.         1.51341556]
 [0.1        0.43290826]
 [0.2        1.82734584]
 [0.3        0.22094446]
 [0.32341667 1.88040337]]",1,0.735
8782735929,f,25,english,5,3,english/french/other,2024-02-01 10:29:39.775433,False,2,257,sounds\english\audio/english_553.wav,"[[  0.         -18.85071283]
 [  0.1         56.72439372]
 [  0.2        -32.51510613]
 [  0.3        -81.56708954]
 [  0.32341667  42.80590219]]","[[0.         1.30647824]
 [0.1        1.55205535]
 [0.2        1.79127341]
 [0.3        0.1795284 ]
 [0.32341667 0.48805839]]",0,0.505
8782735929,f,25,english,5,3,english/french/other,2024-02-01 10:29:39.775433,False,2,258,sounds\english\audio/english_139.wav,"[[  0.          55.35526281]
 [  0.1        -66.48550036]
 [  0.2         21.45340352]
 [  0.3        -32.80413748]
 [  0.32341667 -77.32206638]]","[[0.         1.40478417]
 [0.1        1.12007301]
 [0.2        1.58559909]
 [0.3        1.13081383]
 [0.32341667 0.38560717]]",1,0.36
8782735929,f,25,english,5,3,english/french/other,2024-02-01 10:29:39.775433,False,2,259,sounds\english\audio/english_831.wav,"[[  0.          -7.33710711]
 [  0.1        -87.69782071]
 [  0.2         34.03975531]
 [  0.3         -2.18295653]
 [  0.32341667  20.908766  ]]","[[0.         1.53159971]
 [0.1        1.22669962]
 [0.2        0.70180407]
 [0.3        1.02244347]
 [0.32341667 1.06702443]]",0,0.485
8782735929,f,25,english,5,3,english/french/other,2024-02-01 10:29:39.775433,False,2,260,sounds\english\audio/english_648.wav,"[[  0.         -36.17742204]
 [  0.1         30.10697278]
 [  0.2        -67.31320052]
 [  0.3        -10.94597212]
 [  0.32341667  72.59648235]]","[[0.         0.57576188]
 [0.1        1.1310908 ]
 [0.2        1.67112441]
 [0.3        0.39641968]
 [0.32341667 1.93789316]]",1,0.254
8782735929,f,25,english,5,3,english/french/other,2024-02-01 10:29:39.775433,False,2,261,sounds\english\audio/english_432.wav,"[[  0.          34.04923955]
 [  0.1        -20.16773507]
 [  0.2         58.06800811]
 [  0.3         46.82268278]
 [  0.32341667  16.04458546]]","[[0.         0.51661687]
 [0.1        0.2259012 ]
 [0.2        1.98214485]
 [0.3        1.23025235]
 [0.32341667 1.72803009]]",1,0.477
8782735929,f,25,english,5,3,english/french/other,2024-02-01 10:29:39.775433,False,2,262,sounds\english\audio/english_570.wav,"[[  0.          79.72420881]
 [  0.1        -10.34227762]
 [  0.2         18.32754659]
 [  0.3         15.23919529]
 [  0.32341667 -28.05357781]]","[[0.         1.67561776]
 [0.1        1.50139893]
 [0.2        1.41834695]
 [0.3        1.12876239]
 [0.32341667 0.72546523]]",0,0.392
8782735929,f,25,english,5,3,english/french/other,2024-02-01 10:29:39.775433,False,2,263,sounds\english\audio/english_609.wav,"[[  0.          93.61263388]
 [  0.1         38.40290552]
 [  0.2        -21.94770243]
 [  0.3        -11.92302894]
 [  0.32341667  30.65806027]]","[[0.         0.51617504]
 [0.1        0.56544547]
 [0.2        0.43418402]
 [0.3        1.38818447]
 [0.32341667 1.36410066]]",1,1.862
8782735929,f,25,english,5,3,english/french/other,2024-02-01 10:29:39.775433,False,2,264,sounds\english\audio/english_244.wav,"[[  0.         -70.20374383]
 [  0.1         67.84882107]
 [  0.2          0.61676271]
 [  0.3        -96.58934439]
 [  0.32341667 -77.46985837]]","[[0.         1.65134166]
 [0.1        1.23738837]
 [0.2        0.90147553]
 [0.3        1.79293216]
 [0.32341667 1.15013727]]",0,0.32
8782735929,f,25,english,5,3,english/french/other,2024-02-01 10:29:39.775433,False,2,265,sounds\english\audio/english_364.wav,"[[  0.          19.50953027]
 [  0.1         48.44847612]
 [  0.2        -85.20645473]
 [  0.3         97.47454191]
 [  0.32341667 -45.42958463]]","[[0.         1.75500584]
 [0.1        1.3553812 ]
 [0.2        0.86672295]
 [0.3        1.42489128]
 [0.32341667 1.19673805]]",0,0.176
8782735929,f,25,english,5,3,english/french/other,2024-02-01 10:29:39.775433,False,2,266,sounds\english\audio/english_886.wav,"[[  0.          52.0334205 ]
 [  0.1        -34.60142464]
 [  0.2         77.69993065]
 [  0.3         29.08950905]
 [  0.32341667 -98.8324779 ]]","[[0.         0.43451348]
 [0.1        1.57387994]
 [0.2        1.05416836]
 [0.3        0.32554246]
 [0.32341667 1.85669509]]",1,1.553
8782735929,f,25,english,5,3,english/french/other,2024-02-01 10:29:39.775433,False,2,267,sounds\english\audio/english_715.wav,"[[  0.         -64.21420564]
 [  0.1         77.40813629]
 [  0.2        -98.26791609]
 [  0.3        -32.66334796]
 [  0.32341667  93.12500574]]","[[0.         1.80154013]
 [0.1        0.51096517]
 [0.2        0.49870215]
 [0.3        0.64344691]
 [0.32341667 1.17662216]]",1,1.351
8782735929,f,25,english,5,3,english/french/other,2024-02-01 10:29:39.775433,False,2,268,sounds\english\audio/english_223.wav,"[[  0.         -51.58222533]
 [  0.1        -36.02700064]
 [  0.2        -35.4915315 ]
 [  0.3          1.26892628]
 [  0.32341667  72.37143842]]","[[0.         0.62889348]
 [0.1        1.73736573]
 [0.2        1.20130681]
 [0.3        0.53176439]
 [0.32341667 1.24562253]]",0,0.331
8782735929,f,25,english,5,3,english/french/other,2024-02-01 10:29:39.775433,False,2,269,sounds\english\audio/english_876.wav,"[[  0.         -20.36884991]
 [  0.1        -12.16725052]
 [  0.2        -26.42868614]
 [  0.3        -15.16942384]
 [  0.32341667 -52.65446315]]","[[0.         0.97958319]
 [0.1        0.93484439]
 [0.2        0.43422731]
 [0.3        0.12359811]
 [0.32341667 1.31629037]]",0,0.592
8782735929,f,25,english,5,3,english/french/other,2024-02-01 10:29:39.775433,False,2,270,sounds\english\audio/english_41.wav,"[[  0.          42.21237724]
 [  0.1         33.8271633 ]
 [  0.2         20.96644351]
 [  0.3        -53.61985723]
 [  0.32341667 -55.68725705]]","[[0.         0.98996482]
 [0.1        0.77076848]
 [0.2        0.37402384]
 [0.3        1.98545705]
 [0.32341667 1.53352273]]",0,0.5
8782735929,f,25,english,5,3,english/french/other,2024-02-01 10:29:39.775433,False,2,271,sounds\english\audio/english_921.wav,"[[  0.          60.93482672]
 [  0.1        -71.63665921]
 [  0.2        -30.77028929]
 [  0.3        -44.68164597]
 [  0.32341667  34.59415858]]","[[0.         0.06624465]
 [0.1        1.88925143]
 [0.2        0.40013084]
 [0.3        1.26601564]
 [0.32341667 1.98956357]]",1,0.42
8782735929,f,25,english,5,3,english/french/other,2024-02-01 10:29:39.775433,False,2,272,sounds\english\audio/english_14.wav,"[[  0.          98.00979643]
 [  0.1        -39.90204919]
 [  0.2         51.0517473 ]
 [  0.3         -8.39716694]
 [  0.32341667  82.54419716]]","[[0.         0.92494293]
 [0.1        0.80403915]
 [0.2        0.29426005]
 [0.3        0.14957292]
 [0.32341667 0.1717279 ]]",0,0.476
8782735929,f,25,english,5,3,english/french/other,2024-02-01 10:29:39.775433,False,2,273,sounds\english\audio/english_864.wav,"[[  0.         -41.66547405]
 [  0.1         47.36949562]
 [  0.2         87.97635609]
 [  0.3        -18.88921291]
 [  0.32341667  13.88839096]]","[[0.         0.15536101]
 [0.1        1.78739046]
 [0.2        1.48310956]
 [0.3        0.35838492]
 [0.32341667 0.21709894]]",1,0.389
8782735929,f,25,english,5,3,english/french/other,2024-02-01 10:29:39.775433,False,2,274,sounds\english\audio/english_886.wav,"[[  0.          52.0334205 ]
 [  0.1        -34.60142464]
 [  0.2         77.69993065]
 [  0.3         29.08950905]
 [  0.32341667 -98.8324779 ]]","[[0.         0.43451348]
 [0.1        1.57387994]
 [0.2        1.05416836]
 [0.3        0.32554246]
 [0.32341667 1.85669509]]",1,0.125
8782735929,f,25,english,5,3,english/french/other,2024-02-01 10:29:39.775433,False,2,275,sounds\english\audio/english_553.wav,"[[  0.         -18.85071283]
 [  0.1         56.72439372]
 [  0.2        -32.51510613]
 [  0.3        -81.56708954]
 [  0.32341667  42.80590219]]","[[0.         1.30647824]
 [0.1        1.55205535]
 [0.2        1.79127341]
 [0.3        0.1795284 ]
 [0.32341667 0.48805839]]",1,0.834
8782735929,f,25,english,5,3,english/french/other,2024-02-01 10:29:39.775433,False,2,276,sounds\english\audio/english_149.wav,"[[  0.          84.22842235]
 [  0.1        -27.4405272 ]
 [  0.2        -61.08664731]
 [  0.3        -73.42064763]
 [  0.32341667  74.80057547]]","[[0.         1.59516341]
 [0.1        0.66089578]
 [0.2        1.85372623]
 [0.3        1.25159901]
 [0.32341667 1.10687529]]",1,1.022
8782735929,f,25,english,5,3,english/french/other,2024-02-01 10:29:39.775433,False,2,277,sounds\english\audio/english_922.wav,"[[  0.         -90.36253489]
 [  0.1         -6.38761956]
 [  0.2        -78.09661245]
 [  0.3        -92.75722173]
 [  0.32341667 -80.16719401]]","[[0.         0.33253962]
 [0.1        1.51366693]
 [0.2        0.40049791]
 [0.3        1.29207892]
 [0.32341667 1.40400382]]",0,0.645
8782735929,f,25,english,5,3,english/french/other,2024-02-01 10:29:39.775433,False,2,278,sounds\english\audio/english_474.wav,"[[  0.          42.88606971]
 [  0.1          6.82691085]
 [  0.2        -33.80031927]
 [  0.3        -97.18672796]
 [  0.32341667  -4.7462475 ]]","[[0.         0.87351765]
 [0.1        1.08551449]
 [0.2        1.99847166]
 [0.3        0.27470298]
 [0.32341667 0.02962094]]",0,0.519
8782735929,f,25,english,5,3,english/french/other,2024-02-01 10:29:39.775433,False,2,279,sounds\english\audio/english_56.wav,"[[  0.          47.39262259]
 [  0.1          8.89686315]
 [  0.2        -49.65570225]
 [  0.3         44.77904805]
 [  0.32341667 -94.65832844]]","[[0.         1.7837475 ]
 [0.1        1.39740624]
 [0.2        0.11209095]
 [0.3        1.4946119 ]
 [0.32341667 1.03498606]]",1,1.3
8782735929,f,25,english,5,3,english/french/other,2024-02-01 10:29:39.775433,False,2,280,sounds\english\audio/english_890.wav,"[[  0.         -68.21158685]
 [  0.1        -83.19360642]
 [  0.2         79.13343252]
 [  0.3         80.54326003]
 [  0.32341667 -30.48737523]]","[[0.         0.82535308]
 [0.1        1.79167423]
 [0.2        0.78297904]
 [0.3        0.23441015]
 [0.32341667 1.41044901]]",0,0.724
8782735929,f,25,english,5,3,english/french/other,2024-02-01 10:29:39.775433,False,2,281,sounds\english\audio/english_471.wav,"[[  0.          47.42131089]
 [  0.1        -63.95282256]
 [  0.2         31.67244378]
 [  0.3         40.6572625 ]
 [  0.32341667 -18.6332399 ]]","[[0.         0.58869392]
 [0.1        1.74739294]
 [0.2        1.10105994]
 [0.3        0.54790015]
 [0.32341667 1.33029013]]",1,0.425
8782735929,f,25,english,5,3,english/french/other,2024-02-01 10:29:39.775433,False,2,282,sounds\english\audio/english_150.wav,"[[  0.         -51.77489255]
 [  0.1         16.7322824 ]
 [  0.2        -56.19561079]
 [  0.3         36.81691324]
 [  0.32341667 -97.11243964]]","[[0.         0.6625495 ]
 [0.1        1.26353984]
 [0.2        0.38378194]
 [0.3        1.59154348]
 [0.32341667 0.94821753]]",0,0.19
8782735929,f,25,english,5,3,english/french/other,2024-02-01 10:29:39.775433,False,2,283,sounds\english\audio/english_473.wav,"[[  0.           2.94536382]
 [  0.1         67.15962   ]
 [  0.2        -20.48190634]
 [  0.3         20.58811131]
 [  0.32341667 -71.10919795]]","[[0.         1.14273616]
 [0.1        0.71228689]
 [0.2        1.20280034]
 [0.3        0.94325649]
 [0.32341667 1.82149668]]",1,0.144
8782735929,f,25,english,5,3,english/french/other,2024-02-01 10:29:39.775433,False,2,284,sounds\english\audio/english_599.wav,"[[  0.         -57.09760884]
 [  0.1         31.85682387]
 [  0.2         -6.73425875]
 [  0.3         47.95830633]
 [  0.32341667 -83.8084816 ]]","[[0.         1.03382432]
 [0.1        1.26885403]
 [0.2        1.24717465]
 [0.3        1.34338376]
 [0.32341667 0.34550335]]",0,0.123
8782735929,f,25,english,5,3,english/french/other,2024-02-01 10:29:39.775433,False,2,285,sounds\english\audio/english_889.wav,"[[  0.         -92.0683747 ]
 [  0.1         92.92883541]
 [  0.2        -38.78028918]
 [  0.3         33.48812202]
 [  0.32341667  68.79643169]]","[[0.         0.69619005]
 [0.1        1.46059979]
 [0.2        1.13034103]
 [0.3        1.0639125 ]
 [0.32341667 0.42066581]]",1,0.057
8782735929,f,25,english,5,3,english/french/other,2024-02-01 10:29:39.775433,False,2,286,sounds\english\audio/english_402.wav,"[[  0.         -69.75327375]
 [  0.1        -37.13247603]
 [  0.2         95.06865819]
 [  0.3        -83.65219271]
 [  0.32341667 -39.65623645]]","[[0.         0.88104294]
 [0.1        1.50830761]
 [0.2        0.86613458]
 [0.3        1.46195184]
 [0.32341667 1.78030697]]",0,0.425
8782735929,f,25,english,5,3,english/french/other,2024-02-01 10:29:39.775433,False,2,287,sounds\english\audio/english_824.wav,"[[  0.          80.46503136]
 [  0.1        -48.668347  ]
 [  0.2         37.27765876]
 [  0.3        -91.29945309]
 [  0.32341667  14.46507007]]","[[0.         1.43025592]
 [0.1        0.89138167]
 [0.2        1.91281619]
 [0.3        0.71335031]
 [0.32341667 0.89780818]]",1,0.154
8782735929,f,25,english,5,3,english/french/other,2024-02-01 10:29:39.775433,False,2,288,sounds\english\audio/english_996.wav,"[[  0.         -71.70531914]
 [  0.1        -47.61419544]
 [  0.2         48.0330823 ]
 [  0.3         34.27821317]
 [  0.32341667 -72.4662587 ]]","[[0.         1.36459419]
 [0.1        0.5051745 ]
 [0.2        1.09957376]
 [0.3        0.27950682]
 [0.32341667 0.22836241]]",0,0.263
8782735929,f,25,english,5,3,english/french/other,2024-02-01 10:29:39.775433,False,2,289,sounds\english\audio/english_648.wav,"[[  0.         -36.17742204]
 [  0.1         30.10697278]
 [  0.2        -67.31320052]
 [  0.3        -10.94597212]
 [  0.32341667  72.59648235]]","[[0.         0.57576188]
 [0.1        1.1310908 ]
 [0.2        1.67112441]
 [0.3        0.39641968]
 [0.32341667 1.93789316]]",1,0.179
8782735929,f,25,english,5,3,english/french/other,2024-02-01 10:29:39.775433,False,2,290,sounds\english\audio/english_726.wav,"[[  0.          76.65318619]
 [  0.1         62.97746083]
 [  0.2        -20.72245964]
 [  0.3         42.64953343]
 [  0.32341667  23.5514061 ]]","[[0.         0.71374833]
 [0.1        1.94407191]
 [0.2        0.55951675]
 [0.3        0.7826891 ]
 [0.32341667 0.11592549]]",0,0.067
8782735929,f,25,english,5,3,english/french/other,2024-02-01 10:29:39.775433,False,2,291,sounds\english\audio/english_744.wav,"[[  0.          43.39686976]
 [  0.1        -61.67573043]
 [  0.2          0.51873183]
 [  0.3         12.88130512]
 [  0.32341667  57.31714449]]","[[0.         0.75505854]
 [0.1        1.01311725]
 [0.2        0.73457108]
 [0.3        0.90154102]
 [0.32341667 1.01338509]]",1,0.204
8782735929,f,25,english,5,3,english/french/other,2024-02-01 10:29:39.775433,False,2,292,sounds\english\audio/english_635.wav,"[[  0.          27.7169436 ]
 [  0.1        -44.8292656 ]
 [  0.2         67.97685769]
 [  0.3         82.0264667 ]
 [  0.32341667  84.34985253]]","[[0.         1.98702335]
 [0.1        1.27737447]
 [0.2        0.57401651]
 [0.3        0.46134276]
 [0.32341667 0.71235155]]",0,0.062
8782735929,f,25,english,5,3,english/french/other,2024-02-01 10:29:39.775433,False,2,293,sounds\english\audio/english_792.wav,"[[  0.         -56.39949456]
 [  0.1        -76.36067248]
 [  0.2        -58.44160547]
 [  0.3         25.29086486]
 [  0.32341667  -6.58788169]]","[[0.         1.32676777]
 [0.1        1.08004851]
 [0.2        1.5809308 ]
 [0.3        0.16508433]
 [0.32341667 1.18870574]]",0,1.208
8782735929,f,25,english,5,3,english/french/other,2024-02-01 10:29:39.775433,False,2,294,sounds\english\audio/english_92.wav,"[[  0.          31.88505953]
 [  0.1         -5.62534355]
 [  0.2        -66.19250112]
 [  0.3        -77.62644198]
 [  0.32341667 -66.61656061]]","[[0.         1.50112375]
 [0.1        0.35596674]
 [0.2        1.12270031]
 [0.3        1.09837269]
 [0.32341667 1.16274455]]",0,1.006
8782735929,f,25,english,5,3,english/french/other,2024-02-01 10:29:39.775433,False,2,295,sounds\english\audio/english_56.wav,"[[  0.          47.39262259]
 [  0.1          8.89686315]
 [  0.2        -49.65570225]
 [  0.3         44.77904805]
 [  0.32341667 -94.65832844]]","[[0.         1.7837475 ]
 [0.1        1.39740624]
 [0.2        0.11209095]
 [0.3        1.4946119 ]
 [0.32341667 1.03498606]]",0,0.206
8782735929,f,25,english,5,3,english/french/other,2024-02-01 10:29:39.775433,False,2,296,sounds\english\audio/english_408.wav,"[[  0.          -0.16211679]
 [  0.1         16.68246491]
 [  0.2        -84.31504289]
 [  0.3         20.95362966]
 [  0.32341667  15.25079186]]","[[0.         1.52185603]
 [0.1        0.27925492]
 [0.2        0.96179544]
 [0.3        1.64669203]
 [0.32341667 1.54793764]]",0,0.275
8782735929,f,25,english,5,3,english/french/other,2024-02-01 10:29:39.775433,False,2,297,sounds\english\audio/english_151.wav,"[[  0.          -8.78950662]
 [  0.1         -1.70650264]
 [  0.2        -17.50286784]
 [  0.3         88.78233286]
 [  0.32341667  55.08117545]]","[[0.         1.36403682]
 [0.1        1.76375426]
 [0.2        1.43087438]
 [0.3        1.18017331]
 [0.32341667 1.30400061]]",0,0.244
8782735929,f,25,english,5,3,english/french/other,2024-02-01 10:29:39.775433,False,2,298,sounds\english\audio/english_389.wav,"[[  0.          36.16487693]
 [  0.1        -97.36259769]
 [  0.2         24.50411951]
 [  0.3         43.1395046 ]
 [  0.32341667  85.14605982]]","[[0.         1.25286497]
 [0.1        1.31396789]
 [0.2        1.84060757]
 [0.3        0.64046023]
 [0.32341667 1.47992762]]",0,0.613
8782735929,f,25,english,5,3,english/french/other,2024-02-01 10:29:39.775433,False,2,299,sounds\english\audio/english_402.wav,"[[  0.         -69.75327375]
 [  0.1        -37.13247603]
 [  0.2         95.06865819]
 [  0.3        -83.65219271]
 [  0.32341667 -39.65623645]]","[[0.         0.88104294]
 [0.1        1.50830761]
 [0.2        0.86613458]
 [0.3        1.46195184]
 [0.32341667 1.78030697]]",0,0.229
8782735929,f,25,english,5,3,english/french/other,2024-02-01 10:29:39.775433,False,2,300,sounds\english\audio/english_51.wav,"[[  0.          88.48054236]
 [  0.1        -53.5534646 ]
 [  0.2        -33.31344908]
 [  0.3         87.0533187 ]
 [  0.32341667 -16.55219825]]","[[0.         0.21487201]
 [0.1        0.90061677]
 [0.2        0.24834744]
 [0.3        1.31052611]
 [0.32341667 0.58644625]]",0,0.179
8782735929,f,25,english,5,3,english/french/other,2024-02-01 10:29:39.775433,False,2,301,sounds\english\audio/english_444.wav,"[[  0.          57.2872587 ]
 [  0.1         68.85097071]
 [  0.2        -30.10164543]
 [  0.3        -57.0249627 ]
 [  0.32341667 -54.19692118]]","[[0.         0.52242118]
 [0.1        1.61316948]
 [0.2        0.15196309]
 [0.3        0.44426911]
 [0.32341667 1.48693747]]",0,0.089
8782735929,f,25,english,5,3,english/french/other,2024-02-01 10:29:39.775433,False,2,302,sounds\english\audio/english_556.wav,"[[ 0.         35.62658416]
 [ 0.1        28.75181601]
 [ 0.2        -2.62389444]
 [ 0.3        64.03572584]
 [ 0.32341667 72.79696002]]","[[0.         1.88481821]
 [0.1        0.4023528 ]
 [0.2        1.49364055]
 [0.3        1.54190039]
 [0.32341667 0.53435232]]",0,0.189
8782735929,f,25,english,5,3,english/french/other,2024-02-01 10:29:39.775433,False,2,303,sounds\english\audio/english_655.wav,"[[  0.          84.9811401 ]
 [  0.1         70.1996811 ]
 [  0.2         -5.60681941]
 [  0.3        -33.00324328]
 [  0.32341667  24.65490624]]","[[0.         1.09123398]
 [0.1        0.51840547]
 [0.2        0.58569322]
 [0.3        1.11132849]
 [0.32341667 0.28465301]]",1,0.298
8782735929,f,25,english,5,3,english/french/other,2024-02-01 10:29:39.775433,False,2,304,sounds\english\audio/english_780.wav,"[[  0.         -15.29393571]
 [  0.1        -51.86215325]
 [  0.2        -27.43889325]
 [  0.3         37.56841363]
 [  0.32341667 -40.51855496]]","[[0.         0.99089132]
 [0.1        0.3216491 ]
 [0.2        1.38797184]
 [0.3        0.96060741]
 [0.32341667 0.89048449]]",1,0.391
8782735929,f,25,english,5,3,english/french/other,2024-02-01 10:29:39.775433,False,2,305,sounds\english\audio/english_608.wav,"[[  0.          78.8022196 ]
 [  0.1         59.03316834]
 [  0.2        -13.94961152]
 [  0.3         55.83681575]
 [  0.32341667 -13.77656228]]","[[0.         1.54390555]
 [0.1        1.36513164]
 [0.2        0.78716897]
 [0.3        1.29889886]
 [0.32341667 0.44376749]]",0,0.137
8782735929,f,25,english,5,3,english/french/other,2024-02-01 10:29:39.775433,False,2,306,sounds\english\audio/english_848.wav,"[[  0.          43.30233352]
 [  0.1        -77.77691247]
 [  0.2        -68.99020863]
 [  0.3        -43.68641023]
 [  0.32341667 -14.19502025]]","[[0.         0.12582596]
 [0.1        1.72621372]
 [0.2        1.753656  ]
 [0.3        1.37442753]
 [0.32341667 1.04930351]]",0,0.545
8782735929,f,25,english,5,3,english/french/other,2024-02-01 10:29:39.775433,False,2,307,sounds\english\audio/english_682.wav,"[[  0.         -19.80167737]
 [  0.1        -30.98220326]
 [  0.2         26.07010201]
 [  0.3         -7.79776739]
 [  0.32341667 -10.9148898 ]]","[[0.         1.6131825 ]
 [0.1        1.03205672]
 [0.2        1.08357256]
 [0.3        1.70642947]
 [0.32341667 0.86858281]]",0,0.138
8782735929,f,25,english,5,3,english/french/other,2024-02-01 10:29:39.775433,False,2,308,sounds\english\audio/english_431.wav,"[[  0.         -28.91437381]
 [  0.1         30.6479342 ]
 [  0.2         41.25713347]
 [  0.3          9.19018397]
 [  0.32341667 -61.77590044]]","[[0.         1.3282391 ]
 [0.1        1.9405757 ]
 [0.2        1.67607787]
 [0.3        0.62213613]
 [0.32341667 0.50881411]]",0,0.733
8782735929,f,25,english,5,3,english/french/other,2024-02-01 10:29:39.775433,False,2,309,sounds\english\audio/english_466.wav,"[[  0.          59.64739432]
 [  0.1        -20.63646321]
 [  0.2         62.86141463]
 [  0.3        -65.74461877]
 [  0.32341667  44.70090984]]","[[0.         1.91119383]
 [0.1        1.29572765]
 [0.2        0.99944191]
 [0.3        1.01221774]
 [0.32341667 0.89697717]]",0,0.457
8782735929,f,25,english,5,3,english/french/other,2024-02-01 10:29:39.775433,False,2,310,sounds\english\audio/english_883.wav,"[[  0.         -17.60743744]
 [  0.1        -37.46625877]
 [  0.2         55.1108939 ]
 [  0.3         87.45591348]
 [  0.32341667 -90.78539671]]","[[0.         1.86037562]
 [0.1        0.9331332 ]
 [0.2        1.34322635]
 [0.3        0.07818604]
 [0.32341667 1.31446095]]",1,0.303
8782735929,f,25,english,5,3,english/french/other,2024-02-01 10:29:39.775433,False,2,311,sounds\english\audio/english_326.wav,"[[  0.         -13.70476372]
 [  0.1         47.7156259 ]
 [  0.2         23.24839736]
 [  0.3         67.08212267]
 [  0.32341667  78.79356023]]","[[0.         1.64570887]
 [0.1        0.91266102]
 [0.2        0.36997562]
 [0.3        1.96258237]
 [0.32341667 1.01334204]]",0,0.138
8782735929,f,25,english,5,3,english/french/other,2024-02-01 10:29:39.775433,False,2,312,sounds\english\audio/english_409.wav,"[[  0.         -24.04105399]
 [  0.1        -26.67389605]
 [  0.2         23.9966363 ]
 [  0.3         16.61705293]
 [  0.32341667  73.09980407]]","[[0.         0.29560797]
 [0.1        1.53762848]
 [0.2        0.34602898]
 [0.3        1.21824435]
 [0.32341667 1.55330233]]",1,1.016
8782735929,f,25,english,5,3,english/french/other,2024-02-01 10:29:39.775433,False,2,313,sounds\english\audio/english_857.wav,"[[  0.         -33.07031843]
 [  0.1         12.9349985 ]
 [  0.2          4.33682254]
 [  0.3         90.68056828]
 [  0.32341667  37.69781409]]","[[0.         1.04325491]
 [0.1        0.44078978]
 [0.2        1.36028147]
 [0.3        1.16905302]
 [0.32341667 1.24618942]]",1,0.251
8782735929,f,25,english,5,3,english/french/other,2024-02-01 10:29:39.775433,False,2,314,sounds\english\audio/english_983.wav,"[[  0.          32.38711768]
 [  0.1        -65.51600844]
 [  0.2         12.03576385]
 [  0.3        -64.14785636]
 [  0.32341667 -72.48499617]]","[[0.         0.79408654]
 [0.1        1.57845546]
 [0.2        1.23356187]
 [0.3        0.65581831]
 [0.32341667 0.27936162]]",1,0.018
8782735929,f,25,english,5,3,english/french/other,2024-02-01 10:29:39.775433,False,2,315,sounds\english\audio/english_597.wav,"[[  0.         -83.66792118]
 [  0.1        -19.98744657]
 [  0.2        -30.38458549]
 [  0.3        -63.4406446 ]
 [  0.32341667  25.67812426]]","[[0.         0.17389721]
 [0.1        0.39349672]
 [0.2        1.97590818]
 [0.3        1.84988074]
 [0.32341667 1.17620678]]",0,1.043
8782735929,f,25,english,5,3,english/french/other,2024-02-01 10:29:39.775433,False,2,316,sounds\english\audio/english_406.wav,"[[  0.          28.09923375]
 [  0.1        -15.10813675]
 [  0.2        -12.43931725]
 [  0.3        -27.33468297]
 [  0.32341667 -62.66931892]]","[[0.         1.43312072]
 [0.1        0.8890381 ]
 [0.2        0.60560557]
 [0.3        1.13565345]
 [0.32341667 1.8467177 ]]",1,0.018
8782735929,f,25,english,5,3,english/french/other,2024-02-01 10:29:39.775433,False,2,317,sounds\english\audio/english_641.wav,"[[  0.         -90.88934322]
 [  0.1         13.36673253]
 [  0.2        -36.70414591]
 [  0.3         -4.62417375]
 [  0.32341667  15.34366305]]","[[0.         1.28926835]
 [0.1        0.02464493]
 [0.2        0.5505433 ]
 [0.3        0.52188675]
 [0.32341667 0.01360039]]",0,0.103
8782735929,f,25,english,5,3,english/french/other,2024-02-01 10:29:39.775433,False,2,318,sounds\english\audio/english_310.wav,"[[  0.          82.1385274 ]
 [  0.1        -33.74608058]
 [  0.2         62.12487376]
 [  0.3         96.31437548]
 [  0.32341667 -23.64802517]]","[[0.         0.14341218]
 [0.1        1.80934389]
 [0.2        1.28785402]
 [0.3        1.13060378]
 [0.32341667 1.05137249]]",1,0.554
8782735929,f,25,english,5,3,english/french/other,2024-02-01 10:29:39.775433,False,2,319,sounds\english\audio/english_396.wav,"[[  0.           2.39126912]
 [  0.1        -38.95035948]
 [  0.2         78.31320688]
 [  0.3         16.98024706]
 [  0.32341667  44.66397079]]","[[0.         1.48231007]
 [0.1        0.85829723]
 [0.2        1.16655306]
 [0.3        0.51680164]
 [0.32341667 1.5133775 ]]",0,0.277
8782735929,f,25,english,5,3,english/french/other,2024-02-01 10:29:39.775433,False,2,320,sounds\english\audio/english_63.wav,"[[  0.         -99.27532027]
 [  0.1         76.75365344]
 [  0.2         -4.19867406]
 [  0.3         58.21469339]
 [  0.32341667 -76.25580242]]","[[0.         1.55063038]
 [0.1        0.78453917]
 [0.2        1.54061689]
 [0.3        0.9417581 ]
 [0.32341667 1.07689855]]",1,2.338
8782735929,f,25,english,5,3,english/french/other,2024-02-01 10:29:39.775433,False,2,321,sounds\english\audio/english_53.wav,"[[  0.           5.97237457]
 [  0.1        -76.12131912]
 [  0.2         55.18337216]
 [  0.3         70.32610425]
 [  0.32341667  26.40450832]]","[[0.         0.42230306]
 [0.1        0.60624646]
 [0.2        0.26369256]
 [0.3        1.07400525]
 [0.32341667 0.2721545 ]]",1,0.666
8782735929,f,25,english,5,3,english/french/other,2024-02-01 10:29:39.775433,False,2,322,sounds\english\audio/english_430.wav,"[[  0.          72.23510535]
 [  0.1         -9.56156918]
 [  0.2         36.71559936]
 [  0.3        -33.55254317]
 [  0.32341667 -25.71861109]]","[[0.         0.8682214 ]
 [0.1        0.26781202]
 [0.2        1.38873793]
 [0.3        0.29076709]
 [0.32341667 0.30869259]]",0,1.132
8782735929,f,25,english,5,3,english/french/other,2024-02-01 10:29:39.775433,False,2,323,sounds\english\audio/english_60.wav,"[[  0.          82.53369854]
 [  0.1         60.14491878]
 [  0.2        -26.84704149]
 [  0.3        -19.8784386 ]
 [  0.32341667 -26.04492652]]","[[0.         0.66834278]
 [0.1        1.16350573]
 [0.2        1.24827189]
 [0.3        0.70182905]
 [0.32341667 0.20173025]]",0,0.58
8782735929,f,25,english,5,3,english/french/other,2024-02-01 10:29:39.775433,False,2,324,sounds\english\audio/english_898.wav,"[[  0.          77.23607787]
 [  0.1        -36.99854877]
 [  0.2         16.09723403]
 [  0.3         29.12208023]
 [  0.32341667 -69.45423228]]","[[0.         0.41308158]
 [0.1        1.59324842]
 [0.2        1.42339693]
 [0.3        1.17478291]
 [0.32341667 1.88393163]]",0,0.533
8782735929,f,25,english,5,3,english/french/other,2024-02-01 10:29:39.775433,False,2,325,sounds\english\audio/english_967.wav,"[[  0.         -33.19777689]
 [  0.1         83.84847924]
 [  0.2         81.27362124]
 [  0.3         22.78466805]
 [  0.32341667  16.56894366]]","[[0.         0.76720641]
 [0.1        1.4094361 ]
 [0.2        0.74435637]
 [0.3        0.29904584]
 [0.32341667 0.47687807]]",0,0.618
8782735929,f,25,english,5,3,english/french/other,2024-02-01 10:29:39.775433,False,2,326,sounds\english\audio/english_910.wav,"[[  0.          -5.78748479]
 [  0.1         25.040103  ]
 [  0.2        -40.66398147]
 [  0.3        -99.21011725]
 [  0.32341667  30.82754841]]","[[0.         0.61840584]
 [0.1        1.20431928]
 [0.2        1.66594732]
 [0.3        0.99007018]
 [0.32341667 0.23705338]]",1,0.358
8782735929,f,25,english,5,3,english/french/other,2024-02-01 10:29:39.775433,False,2,327,sounds\english\audio/english_232.wav,"[[  0.          15.13134779]
 [  0.1        -49.29605083]
 [  0.2         59.10606455]
 [  0.3         48.81708847]
 [  0.32341667  14.83590121]]","[[0.         0.53160298]
 [0.1        0.4519978 ]
 [0.2        0.39260156]
 [0.3        0.4692084 ]
 [0.32341667 0.46233459]]",0,0.471
8782735929,f,25,english,5,3,english/french/other,2024-02-01 10:29:39.775433,False,2,328,sounds\english\audio/english_654.wav,"[[  0.         -97.13147194]
 [  0.1        -81.37819023]
 [  0.2         51.48571278]
 [  0.3         54.00949099]
 [  0.32341667 -95.1633683 ]]","[[0.         0.91673578]
 [0.1        1.23280851]
 [0.2        1.64688363]
 [0.3        1.75994168]
 [0.32341667 0.20104411]]",0,0.237
8782735929,f,25,english,5,3,english/french/other,2024-02-01 10:29:39.775433,False,2,329,sounds\english\audio/english_576.wav,"[[  0.          70.71636046]
 [  0.1        -53.10414049]
 [  0.2         34.4374047 ]
 [  0.3         19.64113521]
 [  0.32341667  36.63265498]]","[[0.         1.40655209]
 [0.1        0.7609351 ]
 [0.2        1.0155723 ]
 [0.3        1.45906276]
 [0.32341667 1.49724695]]",0,0.292
8782735929,f,25,english,5,3,english/french/other,2024-02-01 10:29:39.775433,False,2,330,sounds\english\audio/english_273.wav,"[[  0.         -44.98289573]
 [  0.1         24.32546199]
 [  0.2         61.84573583]
 [  0.3         -1.88803465]
 [  0.32341667  57.02125087]]","[[0.         1.94838534]
 [0.1        0.68888608]
 [0.2        1.95265796]
 [0.3        1.62060328]
 [0.32341667 0.94638053]]",0,0.234
8782735929,f,25,english,5,3,english/french/other,2024-02-01 10:29:39.775433,False,2,331,sounds\english\audio/english_920.wav,"[[  0.          95.7501832 ]
 [  0.1         -3.19831823]
 [  0.2        -16.96134457]
 [  0.3        -28.81747413]
 [  0.32341667  42.63505928]]","[[0.         1.54313256]
 [0.1        1.33500472]
 [0.2        1.12819963]
 [0.3        1.72147256]
 [0.32341667 0.57593815]]",0,0.11
8782735929,f,25,english,5,3,english/french/other,2024-02-01 10:29:39.775433,False,2,332,sounds\english\audio/english_884.wav,"[[ 0.         77.1498115 ]
 [ 0.1        10.32602389]
 [ 0.2         4.15464736]
 [ 0.3        21.19252889]
 [ 0.32341667 -7.11336122]]","[[0.         1.83268558]
 [0.1        0.76817862]
 [0.2        1.59331573]
 [0.3        0.58913169]
 [0.32341667 0.81393531]]",1,0.052
8782735929,f,25,english,5,3,english/french/other,2024-02-01 10:29:39.775433,False,2,333,sounds\english\audio/english_864.wav,"[[  0.         -41.66547405]
 [  0.1         47.36949562]
 [  0.2         87.97635609]
 [  0.3        -18.88921291]
 [  0.32341667  13.88839096]]","[[0.         0.15536101]
 [0.1        1.78739046]
 [0.2        1.48310956]
 [0.3        0.35838492]
 [0.32341667 0.21709894]]",0,0.056
8782735929,f,25,english,5,3,english/french/other,2024-02-01 10:29:39.775433,False,2,334,sounds\english\audio/english_2.wav,"[[  0.         -99.15346184]
 [  0.1         80.90141422]
 [  0.2         25.8663891 ]
 [  0.3         75.24606714]
 [  0.32341667 -83.41413367]]","[[0.         1.13720105]
 [0.1        1.91777804]
 [0.2        0.47706995]
 [0.3        0.3458575 ]
 [0.32341667 0.38623968]]",1,0.253
8782735929,f,25,english,5,3,english/french/other,2024-02-01 10:29:39.775433,False,2,335,sounds\english\audio/english_779.wav,"[[  0.         -66.48303018]
 [  0.1         55.33592885]
 [  0.2         67.38671669]
 [  0.3         65.49052189]
 [  0.32341667 -12.12955258]]","[[0.         1.22216448]
 [0.1        1.30288261]
 [0.2        0.25409759]
 [0.3        1.76174581]
 [0.32341667 0.12280057]]",0,0.02
8782735929,f,25,english,5,3,english/french/other,2024-02-01 10:29:39.775433,False,2,336,sounds\english\audio/english_391.wav,"[[  0.          67.64906061]
 [  0.1         79.28195584]
 [  0.2         62.27299227]
 [  0.3        -11.10764883]
 [  0.32341667  57.41338752]]","[[0.         0.41951577]
 [0.1        0.03526883]
 [0.2        0.81828659]
 [0.3        1.2900604 ]
 [0.32341667 1.95373865]]",1,0.315
8782735929,f,25,english,5,3,english/french/other,2024-02-01 10:29:39.775433,False,2,337,sounds\english\audio/english_157.wav,"[[  0.         -74.01864956]
 [  0.1          1.44529667]
 [  0.2        -42.76251303]
 [  0.3        -49.01483239]
 [  0.32341667 -96.85595697]]","[[0.         1.10168906]
 [0.1        1.71225259]
 [0.2        1.71884561]
 [0.3        1.47822148]
 [0.32341667 1.36273156]]",1,1.191
8782735929,f,25,english,5,3,english/french/other,2024-02-01 10:29:39.775433,False,2,338,sounds\english\audio/english_412.wav,"[[  0.         -82.38375592]
 [  0.1        -35.89348303]
 [  0.2        -78.50422887]
 [  0.3          8.19618882]
 [  0.32341667  88.30694734]]","[[0.         0.41347899]
 [0.1        0.05505218]
 [0.2        1.28972039]
 [0.3        0.97331843]
 [0.32341667 0.22558246]]",0,0.411
8782735929,f,25,english,5,3,english/french/other,2024-02-01 10:29:39.775433,False,2,339,sounds\english\audio/english_413.wav,"[[  0.          -9.66675054]
 [  0.1         15.27504309]
 [  0.2        -94.93171401]
 [  0.3        -42.87800999]
 [  0.32341667 -63.39385234]]","[[0.         1.82887045]
 [0.1        0.80668743]
 [0.2        0.90586838]
 [0.3        1.3937681 ]
 [0.32341667 0.34165264]]",1,0.643
8782735929,f,25,english,5,3,english/french/other,2024-02-01 10:29:39.775433,False,2,340,sounds\english\audio/english_811.wav,"[[  0.         -51.03425556]
 [  0.1         22.81695275]
 [  0.2         73.06623682]
 [  0.3         -9.17693151]
 [  0.32341667  79.97760745]]","[[0.         1.55055496]
 [0.1        1.74830484]
 [0.2        1.24661488]
 [0.3        0.09792889]
 [0.32341667 0.03735929]]",0,0.559
8782735929,f,25,english,5,3,english/french/other,2024-02-01 10:29:39.775433,False,2,341,sounds\english\audio/english_894.wav,"[[  0.          55.36181915]
 [  0.1          1.74798824]
 [  0.2         53.5320483 ]
 [  0.3        -10.60196251]
 [  0.32341667  46.95013059]]","[[0.         0.37154348]
 [0.1        0.78809476]
 [0.2        0.08099688]
 [0.3        1.90254096]
 [0.32341667 0.68783971]]",1,0.214
8782735929,f,25,english,5,3,english/french/other,2024-02-01 10:29:39.775433,False,2,342,sounds\english\audio/english_795.wav,"[[ 0.         39.36518311]
 [ 0.1        16.50141431]
 [ 0.2        54.87860026]
 [ 0.3        61.09971909]
 [ 0.32341667  4.28490532]]","[[0.         1.47453336]
 [0.1        0.29075574]
 [0.2        1.88174141]
 [0.3        0.27471403]
 [0.32341667 0.11399574]]",1,0.313
8782735929,f,25,english,5,3,english/french/other,2024-02-01 10:29:39.775433,False,2,343,sounds\english\audio/english_998.wav,"[[  0.         -57.03196796]
 [  0.1        -12.93623633]
 [  0.2        -24.63186366]
 [  0.3        -10.49750637]
 [  0.32341667  22.76793653]]","[[0.         0.0179282 ]
 [0.1        1.72217412]
 [0.2        0.91011795]
 [0.3        1.24282972]
 [0.32341667 0.40520665]]",1,0.89
8782735929,f,25,english,5,3,english/french/other,2024-02-01 10:29:39.775433,False,2,344,sounds\english\audio/english_595.wav,"[[  0.         -39.84727911]
 [  0.1        -68.85607622]
 [  0.2         23.68364187]
 [  0.3        -80.51887658]
 [  0.32341667 -94.66311932]]","[[0.         1.6526444 ]
 [0.1        1.11711065]
 [0.2        1.96516016]
 [0.3        0.34053421]
 [0.32341667 1.22603371]]",0,0.508
8782735929,f,25,english,5,3,english/french/other,2024-02-01 10:29:39.775433,False,2,345,sounds\english\audio/english_228.wav,"[[  0.          10.35680964]
 [  0.1        -84.53961792]
 [  0.2         38.41788342]
 [  0.3         -9.18015311]
 [  0.32341667 -12.25744947]]","[[0.         1.81276751]
 [0.1        0.9819477 ]
 [0.2        1.68506606]
 [0.3        0.19219142]
 [0.32341667 1.99636764]]",0,0.336
8782735929,f,25,english,5,3,english/french/other,2024-02-01 10:29:39.775433,False,2,346,sounds\english\audio/english_708.wav,"[[  0.         -27.19248895]
 [  0.1         84.25795725]
 [  0.2        -19.19551503]
 [  0.3         29.88012033]
 [  0.32341667  46.0858662 ]]","[[0.         0.74061838]
 [0.1        1.13599963]
 [0.2        1.10086254]
 [0.3        0.53054382]
 [0.32341667 1.51974387]]",0,0.441
8782735929,f,25,english,5,3,english/french/other,2024-02-01 10:29:39.775433,False,2,347,sounds\english\audio/english_808.wav,"[[  0.          23.02589628]
 [  0.1         10.58817829]
 [  0.2         36.77134597]
 [  0.3        -30.31603221]
 [  0.32341667   9.74764343]]","[[0.         1.07384277]
 [0.1        1.3919179 ]
 [0.2        0.54960524]
 [0.3        1.95871365]
 [0.32341667 0.79150541]]",0,0.228
8782735929,f,25,english,5,3,english/french/other,2024-02-01 10:29:39.775433,False,2,348,sounds\english\audio/english_632.wav,"[[  0.         -56.22391322]
 [  0.1        -47.59423942]
 [  0.2         91.93727259]
 [  0.3        -33.89646621]
 [  0.32341667  46.88387871]]","[[0.         1.21249895]
 [0.1        0.39515719]
 [0.2        1.8528852 ]
 [0.3        1.67254104]
 [0.32341667 1.21014685]]",1,0.173
8782735929,f,25,english,5,3,english/french/other,2024-02-01 10:29:39.775433,False,2,349,sounds\english\audio/english_16.wav,"[[  0.         -86.84797814]
 [  0.1         29.78439304]
 [  0.2         93.37667148]
 [  0.3        -84.28086854]
 [  0.32341667  -8.77302982]]","[[0.         0.47796166]
 [0.1        1.82902446]
 [0.2        1.57835565]
 [0.3        0.98546729]
 [0.32341667 0.88950072]]",0,0.063
8782735929,f,25,english,5,3,english/french/other,2024-02-01 10:29:39.775433,False,2,350,sounds\english\audio/english_109.wav,"[[  0.          44.56131593]
 [  0.1        -35.23159756]
 [  0.2        -19.62269282]
 [  0.3         38.10372837]
 [  0.32341667 -20.09605057]]","[[0.         1.07349586]
 [0.1        1.27535987]
 [0.2        1.28483541]
 [0.3        1.04109326]
 [0.32341667 0.10213448]]",0,0.132
8782735929,f,25,english,5,3,english/french/other,2024-02-01 10:29:39.775433,False,2,351,sounds\english\audio/english_962.wav,"[[  0.         -55.512918  ]
 [  0.1         90.34773129]
 [  0.2         -3.10818459]
 [  0.3         50.27619033]
 [  0.32341667 -47.3196173 ]]","[[0.         1.78332996]
 [0.1        1.25956614]
 [0.2        0.72891593]
 [0.3        1.49954356]
 [0.32341667 0.96339983]]",1,0.395
8782735929,f,25,english,5,3,english/french/other,2024-02-01 10:29:39.775433,False,2,352,sounds\english\audio/english_97.wav,"[[  0.          57.21139396]
 [  0.1         -7.40408397]
 [  0.2         77.7995227 ]
 [  0.3        -51.1747528 ]
 [  0.32341667  77.11982253]]","[[0.         1.63402743]
 [0.1        0.54734888]
 [0.2        1.5228594 ]
 [0.3        1.13050105]
 [0.32341667 0.82586999]]",1,0.132
8782735929,f,25,english,5,3,english/french/other,2024-02-01 10:29:39.775433,False,2,353,sounds\english\audio/english_182.wav,"[[  0.          57.43769915]
 [  0.1        -87.06676545]
 [  0.2        -91.52107401]
 [  0.3         52.0843588 ]
 [  0.32341667  18.07264914]]","[[0.         0.89919812]
 [0.1        1.25243937]
 [0.2        1.35021358]
 [0.3        0.52787795]
 [0.32341667 0.72620624]]",1,0.03
8782735929,f,25,english,5,3,english/french/other,2024-02-01 10:29:39.775433,False,2,354,sounds\english\audio/english_572.wav,"[[  0.         -16.16189062]
 [  0.1        -40.8511413 ]
 [  0.2        -77.3747243 ]
 [  0.3         87.62803369]
 [  0.32341667  81.6005998 ]]","[[0.         1.82210005]
 [0.1        0.80249033]
 [0.2        0.69959732]
 [0.3        0.43311894]
 [0.32341667 1.25204325]]",1,0.197
8782735929,f,25,english,5,3,english/french/other,2024-02-01 10:29:39.775433,False,2,355,sounds\english\audio/english_134.wav,"[[  0.          70.72156413]
 [  0.1        -64.20531103]
 [  0.2         35.7891913 ]
 [  0.3        -77.33475241]
 [  0.32341667  85.6978336 ]]","[[0.         1.84700732]
 [0.1        1.20878884]
 [0.2        0.51924654]
 [0.3        1.95615398]
 [0.32341667 1.72102519]]",0,0.643
8782735929,f,25,english,5,3,english/french/other,2024-02-01 10:29:39.775433,False,2,356,sounds\english\audio/english_162.wav,"[[  0.         -93.72635155]
 [  0.1        -77.68974918]
 [  0.2         15.19581884]
 [  0.3         64.44828449]
 [  0.32341667 -98.3856278 ]]","[[0.         0.46304305]
 [0.1        1.90149112]
 [0.2        1.02605911]
 [0.3        1.67084882]
 [0.32341667 0.11792656]]",1,0.318
8782735929,f,25,english,5,3,english/french/other,2024-02-01 10:29:39.775433,False,2,357,sounds\english\audio/english_130.wav,"[[  0.         -27.4951122 ]
 [  0.1        -38.07775804]
 [  0.2         -9.69340922]
 [  0.3        -88.09187015]
 [  0.32341667 -47.45461314]]","[[0.         0.83907871]
 [0.1        1.38560413]
 [0.2        0.50531735]
 [0.3        0.53414674]
 [0.32341667 1.10107345]]",0,0.713
8782735929,f,25,english,5,3,english/french/other,2024-02-01 10:29:39.775433,False,2,358,sounds\english\audio/english_910.wav,"[[  0.          -5.78748479]
 [  0.1         25.040103  ]
 [  0.2        -40.66398147]
 [  0.3        -99.21011725]
 [  0.32341667  30.82754841]]","[[0.         0.61840584]
 [0.1        1.20431928]
 [0.2        1.66594732]
 [0.3        0.99007018]
 [0.32341667 0.23705338]]",1,0.134
8782735929,f,25,english,5,3,english/french/other,2024-02-01 10:29:39.775433,False,2,359,sounds\english\audio/english_795.wav,"[[ 0.         39.36518311]
 [ 0.1        16.50141431]
 [ 0.2        54.87860026]
 [ 0.3        61.09971909]
 [ 0.32341667  4.28490532]]","[[0.         1.47453336]
 [0.1        0.29075574]
 [0.2        1.88174141]
 [0.3        0.27471403]
 [0.32341667 0.11399574]]",0,0.311
8782735929,f,25,english,5,3,english/french/other,2024-02-01 10:29:39.775433,False,2,360,sounds\english\audio/english_931.wav,"[[  0.         -78.99767873]
 [  0.1        -34.67093685]
 [  0.2          2.25144273]
 [  0.3        -93.87287365]
 [  0.32341667  57.8562517 ]]","[[0.         0.72988395]
 [0.1        1.40858855]
 [0.2        1.82787629]
 [0.3        1.51045502]
 [0.32341667 1.42241625]]",1,0.532
8782735929,f,25,english,5,3,english/french/other,2024-02-01 10:29:39.775433,False,2,361,sounds\english\audio/english_951.wav,"[[  0.          -0.1209724 ]
 [  0.1        -14.6507611 ]
 [  0.2         -2.36153686]
 [  0.3         15.28547447]
 [  0.32341667  -0.16445922]]","[[0.         0.19208806]
 [0.1        1.44795721]
 [0.2        0.88209985]
 [0.3        1.97099669]
 [0.32341667 0.158195  ]]",0,0.949
8782735929,f,25,english,5,3,english/french/other,2024-02-01 10:29:39.775433,False,2,362,sounds\english\audio/english_784.wav,"[[  0.           8.33598236]
 [  0.1        -95.44591543]
 [  0.2        -36.57026964]
 [  0.3         21.49915707]
 [  0.32341667  14.63720491]]","[[0.         1.26617784]
 [0.1        0.3784594 ]
 [0.2        1.54775832]
 [0.3        0.94378056]
 [0.32341667 0.98781772]]",0,0.231
8782735929,f,25,english,5,3,english/french/other,2024-02-01 10:29:39.775433,False,2,363,sounds\english\audio/english_117.wav,"[[  0.         -98.72491255]
 [  0.1        -15.15642563]
 [  0.2         24.45806353]
 [  0.3        -80.67224668]
 [  0.32341667 -97.50349755]]","[[0.         1.42659946]
 [0.1        1.64599539]
 [0.2        0.97767705]
 [0.3        0.37962884]
 [0.32341667 0.74274723]]",0,0.437
8782735929,f,25,english,5,3,english/french/other,2024-02-01 10:29:39.775433,False,2,364,sounds\english\audio/english_877.wav,"[[  0.          49.36401037]
 [  0.1         15.17280231]
 [  0.2         22.36436744]
 [  0.3        -25.51979868]
 [  0.32341667 -55.72443313]]","[[0.         1.25510861]
 [0.1        0.84700305]
 [0.2        0.32703774]
 [0.3        1.72637958]
 [0.32341667 0.52117686]]",0,0.242
8782735929,f,25,english,5,3,english/french/other,2024-02-01 10:29:39.775433,False,2,365,sounds\english\audio/english_496.wav,"[[  0.         -50.36729616]
 [  0.1         43.15166092]
 [  0.2        -89.08132341]
 [  0.3        -31.93753525]
 [  0.32341667 -79.66514086]]","[[0.         1.24588939]
 [0.1        1.651593  ]
 [0.2        0.94120535]
 [0.3        0.55989053]
 [0.32341667 1.95233748]]",0,0.369
8782735929,f,25,english,5,3,english/french/other,2024-02-01 10:29:39.775433,False,2,366,sounds\english\audio/english_196.wav,"[[  0.         -86.38202104]
 [  0.1          0.95731439]
 [  0.2        -48.4797064 ]
 [  0.3         50.57477866]
 [  0.32341667 -52.07184875]]","[[0.         1.63362226]
 [0.1        1.36148231]
 [0.2        0.68683683]
 [0.3        1.59869277]
 [0.32341667 0.40963154]]",0,0.302
8782735929,f,25,english,5,3,english/french/other,2024-02-01 10:29:39.775433,False,2,367,sounds\english\audio/english_367.wav,"[[  0.          69.68935346]
 [  0.1        -21.84293244]
 [  0.2        -22.40126322]
 [  0.3        -77.83415675]
 [  0.32341667  18.42522507]]","[[0.         1.12532443]
 [0.1        1.15903886]
 [0.2        1.68834661]
 [0.3        1.78966274]
 [0.32341667 1.57311162]]",0,0.251
8782735929,f,25,english,5,3,english/french/other,2024-02-01 10:29:39.775433,False,2,368,sounds\english\audio/english_821.wav,"[[  0.          -4.04234253]
 [  0.1         50.39518932]
 [  0.2         58.18996785]
 [  0.3        -22.07293427]
 [  0.32341667  56.43229939]]","[[0.         1.62928948]
 [0.1        0.78033958]
 [0.2        1.56476115]
 [0.3        0.56557752]
 [0.32341667 0.93389964]]",1,0.127
8782735929,f,25,english,5,3,english/french/other,2024-02-01 10:29:39.775433,False,2,369,sounds\english\audio/english_173.wav,"[[  0.          11.1251521 ]
 [  0.1         94.22411188]
 [  0.2         89.44753043]
 [  0.3         74.30769895]
 [  0.32341667 -37.47679669]]","[[0.         0.60172576]
 [0.1        0.44802145]
 [0.2        1.27552997]
 [0.3        1.09756939]
 [0.32341667 0.7907315 ]]",0,0.227
8782735929,f,25,english,5,3,english/french/other,2024-02-01 10:29:39.775433,False,2,370,sounds\english\audio/english_527.wav,"[[  0.         -32.70996179]
 [  0.1        -61.96334317]
 [  0.2         86.46317242]
 [  0.3        -18.9429262 ]
 [  0.32341667 -59.75355058]]","[[0.         0.06646481]
 [0.1        1.75268105]
 [0.2        0.41061726]
 [0.3        1.43024268]
 [0.32341667 0.73468543]]",1,0.649
8782735929,f,25,english,5,3,english/french/other,2024-02-01 10:29:39.775433,False,2,371,sounds\english\audio/english_551.wav,"[[  0.          51.69986033]
 [  0.1        -91.31948841]
 [  0.2         12.24586311]
 [  0.3        -52.90680215]
 [  0.32341667 -27.23325687]]","[[0.         0.0331047 ]
 [0.1        0.51079487]
 [0.2        1.83581854]
 [0.3        0.12201236]
 [0.32341667 1.55189277]]",1,0.665
8782735929,f,25,english,5,3,english/french/other,2024-02-01 10:29:39.775433,False,2,372,sounds\english\audio/english_375.wav,"[[  0.          18.096335  ]
 [  0.1        -55.77885891]
 [  0.2        -79.80603762]
 [  0.3        -57.7566014 ]
 [  0.32341667  74.14673873]]","[[0.         0.30735121]
 [0.1        1.17808606]
 [0.2        1.03107785]
 [0.3        0.46519988]
 [0.32341667 1.41875211]]",1,1.276
8782735929,f,25,english,5,3,english/french/other,2024-02-01 10:29:39.775433,False,2,373,sounds\english\audio/english_396.wav,"[[  0.           2.39126912]
 [  0.1        -38.95035948]
 [  0.2         78.31320688]
 [  0.3         16.98024706]
 [  0.32341667  44.66397079]]","[[0.         1.48231007]
 [0.1        0.85829723]
 [0.2        1.16655306]
 [0.3        0.51680164]
 [0.32341667 1.5133775 ]]",1,0.197
8782735929,f,25,english,5,3,english/french/other,2024-02-01 10:29:39.775433,False,2,374,sounds\english\audio/english_702.wav,"[[  0.         -19.6614881 ]
 [  0.1        -92.60133235]
 [  0.2        -18.01071493]
 [  0.3         91.54675011]
 [  0.32341667  23.09112348]]","[[0.         1.13820402]
 [0.1        1.47755069]
 [0.2        1.33705675]
 [0.3        0.59768286]
 [0.32341667 0.82103567]]",0,0.073
8782735929,f,25,english,5,3,english/french/other,2024-02-01 10:29:39.775433,False,2,375,sounds\english\audio/english_829.wav,"[[  0.          60.30417439]
 [  0.1        -26.87459656]
 [  0.2         59.05286014]
 [  0.3        -38.64739237]
 [  0.32341667  68.61732932]]","[[0.         0.94286345]
 [0.1        0.76756767]
 [0.2        1.50609211]
 [0.3        0.33518122]
 [0.32341667 1.40687349]]",0,0.207
8782735929,f,25,english,5,3,english/french/other,2024-02-01 10:29:39.775433,False,2,376,sounds\english\audio/english_837.wav,"[[  0.         -10.72674788]
 [  0.1         33.60933966]
 [  0.2         -1.37827911]
 [  0.3         29.3498758 ]
 [  0.32341667  31.86641091]]","[[0.         0.56055933]
 [0.1        1.16716927]
 [0.2        1.02731607]
 [0.3        1.96665864]
 [0.32341667 0.45425732]]",0,0.159
8782735929,f,25,english,5,3,english/french/other,2024-02-01 10:29:39.775433,False,2,377,sounds\english\audio/english_352.wav,"[[  0.          71.64354449]
 [  0.1         53.2516906 ]
 [  0.2         28.90726554]
 [  0.3        -49.8940387 ]
 [  0.32341667  21.76832357]]","[[0.         0.18312459]
 [0.1        1.19991438]
 [0.2        1.21095973]
 [0.3        1.61067418]
 [0.32341667 1.26376439]]",0,0.19
8782735929,f,25,english,5,3,english/french/other,2024-02-01 10:29:39.775433,False,2,378,sounds\english\audio/english_187.wav,"[[  0.         -18.35695568]
 [  0.1         10.21632188]
 [  0.2          0.69047377]
 [  0.3         67.68385624]
 [  0.32341667  48.15291114]]","[[0.         0.61755768]
 [0.1        1.6626445 ]
 [0.2        0.70950015]
 [0.3        0.8856252 ]
 [0.32341667 1.92627472]]",0,0.157
8782735929,f,25,english,5,3,english/french/other,2024-02-01 10:29:39.775433,False,2,379,sounds\english\audio/english_16.wav,"[[  0.         -86.84797814]
 [  0.1         29.78439304]
 [  0.2         93.37667148]
 [  0.3        -84.28086854]
 [  0.32341667  -8.77302982]]","[[0.         0.47796166]
 [0.1        1.82902446]
 [0.2        1.57835565]
 [0.3        0.98546729]
 [0.32341667 0.88950072]]",0,0.159
8782735929,f,25,english,5,3,english/french/other,2024-02-01 10:29:39.775433,False,2,380,sounds\english\audio/english_200.wav,"[[  0.          48.98677304]
 [  0.1         13.54292536]
 [  0.2         15.98335964]
 [  0.3        -46.7743147 ]
 [  0.32341667 -12.18386714]]","[[0.         1.07797747]
 [0.1        1.23698451]
 [0.2        0.85343662]
 [0.3        1.38707984]
 [0.32341667 0.65409939]]",0,0.181
8782735929,f,25,english,5,3,english/french/other,2024-02-01 10:29:39.775433,False,2,381,sounds\english\audio/english_85.wav,"[[  0.          69.91092253]
 [  0.1         90.04885235]
 [  0.2        -54.471964  ]
 [  0.3        -32.42862041]
 [  0.32341667 -26.25094384]]","[[0.         1.07696769]
 [0.1        1.65675227]
 [0.2        1.18566865]
 [0.3        0.43131811]
 [0.32341667 1.88641509]]",0,0.221
8782735929,f,25,english,5,3,english/french/other,2024-02-01 10:29:39.775433,False,2,382,sounds\english\audio/english_209.wav,"[[ 0.         14.15361396]
 [ 0.1        85.95109622]
 [ 0.2        18.04804687]
 [ 0.3        28.2522976 ]
 [ 0.32341667  5.36776296]]","[[0.         1.44232267]
 [0.1        1.49291498]
 [0.2        1.19611731]
 [0.3        1.49647535]
 [0.32341667 0.30324849]]",0,0.733
8782735929,f,25,english,5,3,english/french/other,2024-02-01 10:29:39.775433,False,2,383,sounds\english\audio/english_586.wav,"[[  0.         -62.23642036]
 [  0.1         79.13201234]
 [  0.2        -89.54923437]
 [  0.3        -19.27573078]
 [  0.32341667 -62.71214645]]","[[0.         1.06144709]
 [0.1        0.54207142]
 [0.2        0.72134233]
 [0.3        0.33417878]
 [0.32341667 1.54129631]]",0,0.866
8782735929,f,25,english,5,3,english/french/other,2024-02-01 10:29:39.775433,False,2,384,sounds\english\audio/english_530.wav,"[[  0.          21.55057906]
 [  0.1        -20.17265513]
 [  0.2        -52.07974762]
 [  0.3         87.36384387]
 [  0.32341667 -72.92256984]]","[[0.         0.25130805]
 [0.1        0.96020899]
 [0.2        1.55252741]
 [0.3        1.19622655]
 [0.32341667 0.75880724]]",0,1.069
8782735929,f,25,english,5,3,english/french/other,2024-02-01 10:29:39.775433,False,2,385,sounds\english\audio/english_811.wav,"[[  0.         -51.03425556]
 [  0.1         22.81695275]
 [  0.2         73.06623682]
 [  0.3         -9.17693151]
 [  0.32341667  79.97760745]]","[[0.         1.55055496]
 [0.1        1.74830484]
 [0.2        1.24661488]
 [0.3        0.09792889]
 [0.32341667 0.03735929]]",0,0.243
8782735929,f,25,english,5,3,english/french/other,2024-02-01 10:29:39.775433,False,2,386,sounds\english\audio/english_690.wav,"[[0.00000000e+00 3.30476540e+01]
 [1.00000000e-01 2.12167444e-02]
 [2.00000000e-01 2.13432370e+01]
 [3.00000000e-01 3.54710796e+01]
 [3.23416667e-01 7.94400816e+01]]","[[0.         1.58265684]
 [0.1        0.6931717 ]
 [0.2        1.47002515]
 [0.3        1.9856235 ]
 [0.32341667 1.00479917]]",0,0.952
8782735929,f,25,english,5,3,english/french/other,2024-02-01 10:29:39.775433,False,2,387,sounds\english\audio/english_322.wav,"[[  0.         -27.28438319]
 [  0.1        -98.66999083]
 [  0.2        -54.08694108]
 [  0.3         -7.3933801 ]
 [  0.32341667  72.49489683]]","[[0.         0.79345249]
 [0.1        0.28651419]
 [0.2        1.26482546]
 [0.3        0.6947791 ]
 [0.32341667 0.74875353]]",1,0.451
8782735929,f,25,english,5,3,english/french/other,2024-02-01 10:29:39.775433,False,2,388,sounds\english\audio/english_722.wav,"[[  0.          56.33358757]
 [  0.1        -63.11389498]
 [  0.2         65.64746862]
 [  0.3        -93.10605514]
 [  0.32341667 -45.92743551]]","[[0.         0.09194264]
 [0.1        1.89550133]
 [0.2        0.18403216]
 [0.3        1.23223326]
 [0.32341667 0.28331892]]",0,0.966
8782735929,f,25,english,5,3,english/french/other,2024-02-01 10:29:39.775433,False,2,389,sounds\english\audio/english_174.wav,"[[  0.         -14.93169449]
 [  0.1        -60.50222611]
 [  0.2        -88.67347191]
 [  0.3        -20.58504224]
 [  0.32341667 -52.28073567]]","[[0.         0.27768215]
 [0.1        0.13809097]
 [0.2        0.18584848]
 [0.3        1.46718454]
 [0.32341667 0.17567705]]",1,0.952
8782735929,f,25,english,5,3,english/french/other,2024-02-01 10:29:39.775433,False,2,390,sounds\english\audio/english_594.wav,"[[  0.         -85.15725243]
 [  0.1         18.57908242]
 [  0.2        -52.1381203 ]
 [  0.3         77.56862162]
 [  0.32341667  89.7133381 ]]","[[0.         1.49995106]
 [0.1        1.36683942]
 [0.2        1.31792707]
 [0.3        0.76119001]
 [0.32341667 1.77084997]]",0,0.182
8782735929,f,25,english,5,3,english/french/other,2024-02-01 10:29:39.775433,False,2,391,sounds\english\audio/english_80.wav,"[[  0.          33.21374474]
 [  0.1        -72.2618742 ]
 [  0.2        -29.44860443]
 [  0.3        -33.36418129]
 [  0.32341667 -65.11319145]]","[[0.         1.09809668]
 [0.1        1.73594877]
 [0.2        0.30037535]
 [0.3        0.36613598]
 [0.32341667 0.50687614]]",0,0.184
8782735929,f,25,english,5,3,english/french/other,2024-02-01 10:29:39.775433,False,2,392,sounds\english\audio/english_351.wav,"[[  0.         -56.55455818]
 [  0.1        -81.1333892 ]
 [  0.2         70.95296343]
 [  0.3        -82.79021433]
 [  0.32341667 -21.34496407]]","[[0.         0.98366365]
 [0.1        1.13800808]
 [0.2        1.04915948]
 [0.3        1.70890302]
 [0.32341667 1.83807055]]",0,0.038
8782735929,f,25,english,5,3,english/french/other,2024-02-01 10:29:39.775433,False,2,393,sounds\english\audio/english_353.wav,"[[  0.          51.44050484]
 [  0.1         -8.32491594]
 [  0.2        -53.32966552]
 [  0.3         68.29246543]
 [  0.32341667 -32.22441747]]","[[0.         0.16518243]
 [0.1        1.32533476]
 [0.2        0.41923861]
 [0.3        1.87374553]
 [0.32341667 1.13071195]]",0,0.297
8782735929,f,25,english,5,3,english/french/other,2024-02-01 10:29:39.775433,False,2,394,sounds\english\audio/english_164.wav,"[[  0.         -18.99376005]
 [  0.1        -38.65269109]
 [  0.2         64.75288033]
 [  0.3        -33.8407164 ]
 [  0.32341667  27.96502681]]","[[0.         1.91320144]
 [0.1        0.23857652]
 [0.2        1.41883879]
 [0.3        1.34667564]
 [0.32341667 0.04602263]]",0,0.813
8782735929,f,25,english,5,3,english/french/other,2024-02-01 10:29:39.775433,False,2,395,sounds\english\audio/english_457.wav,"[[  0.         -73.30847947]
 [  0.1        -25.74413936]
 [  0.2          8.82772976]
 [  0.3         -2.30416086]
 [  0.32341667 -34.04493945]]","[[0.         0.35525387]
 [0.1        0.90483023]
 [0.2        1.30004432]
 [0.3        0.93422762]
 [0.32341667 1.31504388]]",0,0.055
8782735929,f,25,english,5,3,english/french/other,2024-02-01 10:29:39.775433,False,2,396,sounds\english\audio/english_775.wav,"[[ 0.         58.00753923]
 [ 0.1        88.61433734]
 [ 0.2        97.9031651 ]
 [ 0.3        14.61974867]
 [ 0.32341667 -5.44703254]]","[[0.         1.75560269]
 [0.1        0.86519841]
 [0.2        0.93867241]
 [0.3        1.86901891]
 [0.32341667 0.0946911 ]]",0,0.023
8782735929,f,25,english,5,3,english/french/other,2024-02-01 10:29:39.775433,False,2,397,sounds\english\audio/english_574.wav,"[[  0.          53.128433  ]
 [  0.1         70.24248151]
 [  0.2         47.13290739]
 [  0.3         52.31480293]
 [  0.32341667 -33.06438127]]","[[0.         0.28349694]
 [0.1        0.66519348]
 [0.2        1.25768036]
 [0.3        1.43482954]
 [0.32341667 1.23350688]]",1,0.687
8782735929,f,25,english,5,3,english/french/other,2024-02-01 10:29:39.775433,False,2,398,sounds\english\audio/english_91.wav,"[[  0.         -67.73951944]
 [  0.1         83.83337034]
 [  0.2        -12.75649653]
 [  0.3          5.95502951]
 [  0.32341667  59.56964586]]","[[0.         0.2772338 ]
 [0.1        0.0816757 ]
 [0.2        0.92538416]
 [0.3        0.40714056]
 [0.32341667 1.8717525 ]]",0,0.218
8782735929,f,25,english,5,3,english/french/other,2024-02-01 10:29:39.775433,False,2,399,sounds\english\audio/english_807.wav,"[[  0.         -70.27095807]
 [  0.1         84.77391363]
 [  0.2        -27.52537388]
 [  0.3         36.82986288]
 [  0.32341667  16.63983573]]","[[0.         1.48455572]
 [0.1        1.24837561]
 [0.2        0.77726095]
 [0.3        1.65388598]
 [0.32341667 1.10343216]]",1,0.237
8782735929,f,25,english,5,3,english/french/other,2024-02-01 10:29:39.775433,False,2,400,sounds\english\audio/english_243.wav,"[[  0.         -74.41503345]
 [  0.1        -16.65530333]
 [  0.2         -1.41224798]
 [  0.3         37.30419975]
 [  0.32341667  -3.40378668]]","[[0.         0.65151457]
 [0.1        0.20623253]
 [0.2        0.87153721]
 [0.3        0.28583671]
 [0.32341667 1.90700275]]",1,0.153
8782735929,f,25,english,5,3,english/french/other,2024-02-01 10:29:39.775433,False,2,401,sounds\english\audio/english_326.wav,"[[  0.         -13.70476372]
 [  0.1         47.7156259 ]
 [  0.2         23.24839736]
 [  0.3         67.08212267]
 [  0.32341667  78.79356023]]","[[0.         1.64570887]
 [0.1        0.91266102]
 [0.2        0.36997562]
 [0.3        1.96258237]
 [0.32341667 1.01334204]]",1,0.204
8782735929,f,25,english,5,3,english/french/other,2024-02-01 10:29:39.775433,False,2,402,sounds\english\audio/english_972.wav,"[[  0.         -87.82800068]
 [  0.1        -25.45661385]
 [  0.2          2.95853851]
 [  0.3         84.61583696]
 [  0.32341667  42.95706616]]","[[0.         1.28286493]
 [0.1        0.89058027]
 [0.2        1.4716374 ]
 [0.3        0.6386035 ]
 [0.32341667 1.51056083]]",0,0.775
8782735929,f,25,english,5,3,english/french/other,2024-02-01 10:29:39.775433,False,2,403,sounds\english\audio/english_724.wav,"[[  0.         -91.46740291]
 [  0.1         23.01616352]
 [  0.2        -29.32408493]
 [  0.3        -79.49145217]
 [  0.32341667  82.35247912]]","[[0.         0.46376674]
 [0.1        1.84849858]
 [0.2        1.44978715]
 [0.3        1.24719002]
 [0.32341667 0.99570929]]",1,0.391
8782735929,f,25,english,5,3,english/french/other,2024-02-01 10:29:39.775433,False,2,404,sounds\english\audio/english_207.wav,"[[  0.         -64.55688296]
 [  0.1         98.33987034]
 [  0.2        -40.48281934]
 [  0.3        -36.48143513]
 [  0.32341667 -87.11188062]]","[[0.         1.06406661]
 [0.1        1.58122859]
 [0.2        1.31381917]
 [0.3        0.83233835]
 [0.32341667 0.12663517]]",0,0.273
8782735929,f,25,english,5,3,english/french/other,2024-02-01 10:29:39.775433,False,2,405,sounds\english\audio/english_391.wav,"[[  0.          67.64906061]
 [  0.1         79.28195584]
 [  0.2         62.27299227]
 [  0.3        -11.10764883]
 [  0.32341667  57.41338752]]","[[0.         0.41951577]
 [0.1        0.03526883]
 [0.2        0.81828659]
 [0.3        1.2900604 ]
 [0.32341667 1.95373865]]",0,1.133
8782735929,f,25,english,5,3,english/french/other,2024-02-01 10:29:39.775433,False,2,406,sounds\english\audio/english_18.wav,"[[ 0.00000000e+00 -6.19567004e+01]
 [ 1.00000000e-01  3.92027204e+01]
 [ 2.00000000e-01 -6.26834214e-02]
 [ 3.00000000e-01 -7.22820301e+01]
 [ 3.23416667e-01 -5.29459242e+01]]","[[0.         0.45038722]
 [0.1        1.56185221]
 [0.2        0.80652275]
 [0.3        0.39505163]
 [0.32341667 0.50402069]]",1,0.335
8782735929,f,25,english,5,3,english/french/other,2024-02-01 10:29:39.775433,False,2,407,sounds\english\audio/english_91.wav,"[[  0.         -67.73951944]
 [  0.1         83.83337034]
 [  0.2        -12.75649653]
 [  0.3          5.95502951]
 [  0.32341667  59.56964586]]","[[0.         0.2772338 ]
 [0.1        0.0816757 ]
 [0.2        0.92538416]
 [0.3        0.40714056]
 [0.32341667 1.8717525 ]]",0,0.698
8782735929,f,25,english,5,3,english/french/other,2024-02-01 10:29:39.775433,False,2,408,sounds\english\audio/english_196.wav,"[[  0.         -86.38202104]
 [  0.1          0.95731439]
 [  0.2        -48.4797064 ]
 [  0.3         50.57477866]
 [  0.32341667 -52.07184875]]","[[0.         1.63362226]
 [0.1        1.36148231]
 [0.2        0.68683683]
 [0.3        1.59869277]
 [0.32341667 0.40963154]]",1,0.983
8782735929,f,25,english,5,3,english/french/other,2024-02-01 10:29:39.775433,False,2,409,sounds\english\audio/english_274.wav,"[[  0.         -30.61452779]
 [  0.1        -42.14612233]
 [  0.2         32.00602795]
 [  0.3        -37.74375581]
 [  0.32341667 -54.5397802 ]]","[[0.         0.78021116]
 [0.1        1.93993358]
 [0.2        0.32963606]
 [0.3        1.46133782]
 [0.32341667 1.53178785]]",0,0.207
8782735929,f,25,english,5,3,english/french/other,2024-02-01 10:29:39.775433,False,2,410,sounds\english\audio/english_197.wav,"[[  0.         -60.72223742]
 [  0.1        -88.93421142]
 [  0.2         51.43827126]
 [  0.3          7.80125839]
 [  0.32341667 -53.06876459]]","[[0.         1.8449777 ]
 [0.1        1.74693134]
 [0.2        1.11057597]
 [0.3        1.67371275]
 [0.32341667 1.16077516]]",0,0.128
8782735929,f,25,english,5,3,english/french/other,2024-02-01 10:29:39.775433,False,2,411,sounds\english\audio/english_5.wav,"[[  0.         -15.92383461]
 [  0.1        -20.01914587]
 [  0.2         40.70457056]
 [  0.3        -94.67131236]
 [  0.32341667 -88.33027294]]","[[0.         0.27445408]
 [0.1        0.54328549]
 [0.2        0.32172142]
 [0.3        1.15903644]
 [0.32341667 0.94870148]]",1,0.475
8782735929,f,25,english,5,3,english/french/other,2024-02-01 10:29:39.775433,False,2,412,sounds\english\audio/english_515.wav,"[[  0.         -51.44071002]
 [  0.1        -54.80209221]
 [  0.2         64.47174239]
 [  0.3        -10.56071982]
 [  0.32341667 -39.86348554]]","[[0.         1.17100165]
 [0.1        0.37535268]
 [0.2        1.31079719]
 [0.3        1.40472496]
 [0.32341667 0.6392892 ]]",0,0.06
8782735929,f,25,english,5,3,english/french/other,2024-02-01 10:29:39.775433,False,2,413,sounds\english\audio/english_934.wav,"[[ 0.         48.23169593]
 [ 0.1        42.81145804]
 [ 0.2        79.06411095]
 [ 0.3        69.44528076]
 [ 0.32341667 88.54940569]]","[[0.         1.38760579]
 [0.1        1.74622613]
 [0.2        0.2874918 ]
 [0.3        1.61606763]
 [0.32341667 1.62058381]]",1,0.056
8782735929,f,25,english,5,3,english/french/other,2024-02-01 10:29:39.775433,False,2,414,sounds\english\audio/english_612.wav,"[[  0.         -84.32217164]
 [  0.1         36.55311424]
 [  0.2         92.38334081]
 [  0.3         11.68953794]
 [  0.32341667  43.3279226 ]]","[[0.         1.34068621]
 [0.1        0.03443149]
 [0.2        0.45903509]
 [0.3        0.60209198]
 [0.32341667 0.29533154]]",1,0.812
8782735929,f,25,english,5,3,english/french/other,2024-02-01 10:29:39.775433,False,2,415,sounds\english\audio/english_61.wav,"[[  0.         -58.73450167]
 [  0.1        -68.77732169]
 [  0.2        -61.07430116]
 [  0.3        -87.12791991]
 [  0.32341667  47.32358741]]","[[0.         1.5196582 ]
 [0.1        0.79346499]
 [0.2        0.90548432]
 [0.3        1.71431728]
 [0.32341667 0.57778581]]",0,0.452
8782735929,f,25,english,5,3,english/french/other,2024-02-01 10:29:39.775433,False,2,416,sounds\english\audio/english_443.wav,"[[  0.           0.608638  ]
 [  0.1         15.80398242]
 [  0.2        -53.8454718 ]
 [  0.3         32.36058062]
 [  0.32341667  41.23353215]]","[[0.         1.06022382]
 [0.1        1.02694767]
 [0.2        0.72801533]
 [0.3        1.22153209]
 [0.32341667 0.58841963]]",1,0.347
8782735929,f,25,english,5,3,english/french/other,2024-02-01 10:29:39.775433,False,2,417,sounds\english\audio/english_900.wav,"[[  0.         -54.93304755]
 [  0.1         58.88524349]
 [  0.2        -67.87194092]
 [  0.3         20.66021993]
 [  0.32341667 -10.79853151]]","[[0.         1.64865849]
 [0.1        1.11215591]
 [0.2        0.89823705]
 [0.3        1.30060406]
 [0.32341667 1.95850441]]",0,0.125
8782735929,f,25,english,5,3,english/french/other,2024-02-01 10:29:39.775433,False,2,418,sounds\english\audio/english_263.wav,"[[  0.           4.78285782]
 [  0.1         13.60270601]
 [  0.2         39.50896912]
 [  0.3         22.44107494]
 [  0.32341667 -36.00172497]]","[[0.         1.6410762 ]
 [0.1        0.7602565 ]
 [0.2        0.2694778 ]
 [0.3        1.51649535]
 [0.32341667 0.60574629]]",1,0.087
8782735929,f,25,english,5,3,english/french/other,2024-02-01 10:29:39.775433,False,2,419,sounds\english\audio/english_142.wav,"[[  0.         -46.59943425]
 [  0.1         63.17145436]
 [  0.2         73.87775976]
 [  0.3        -84.55157756]
 [  0.32341667  20.35536038]]","[[0.         0.40064358]
 [0.1        0.61162855]
 [0.2        0.23189939]
 [0.3        1.54635995]
 [0.32341667 1.86221744]]",0,0.236
8782735929,f,25,english,5,3,english/french/other,2024-02-01 10:29:39.775433,False,2,420,sounds\english\audio/english_370.wav,"[[  0.         -90.17078727]
 [  0.1        -71.99280791]
 [  0.2        -13.60727202]
 [  0.3         -0.93192742]
 [  0.32341667  33.27852394]]","[[0.         0.17796458]
 [0.1        1.08934715]
 [0.2        1.05914244]
 [0.3        1.87852505]
 [0.32341667 1.24161401]]",1,0.033
8782735929,f,25,english,5,3,english/french/other,2024-02-01 10:29:39.775433,False,2,421,sounds\english\audio/english_497.wav,"[[  0.           3.92391523]
 [  0.1        -39.44421726]
 [  0.2        -70.21843081]
 [  0.3        -95.13281119]
 [  0.32341667 -23.7064256 ]]","[[0.         0.25005623]
 [0.1        1.18920756]
 [0.2        1.75478959]
 [0.3        0.47878412]
 [0.32341667 0.88125504]]",0,0.112
8782735929,f,25,english,5,3,english/french/other,2024-02-01 10:29:39.775433,False,2,422,sounds\english\audio/english_543.wav,"[[  0.          13.74009622]
 [  0.1         51.80972721]
 [  0.2         86.3964352 ]
 [  0.3        -66.39783761]
 [  0.32341667  31.11863834]]","[[0.         0.63900578]
 [0.1        1.6206981 ]
 [0.2        0.03304675]
 [0.3        1.7049324 ]
 [0.32341667 1.46507556]]",1,0.01
8782735929,f,25,english,5,3,english/french/other,2024-02-01 10:29:39.775433,False,2,423,sounds\english\audio/english_743.wav,"[[  0.         -28.24983145]
 [  0.1         71.30498545]
 [  0.2        -89.00652632]
 [  0.3          3.43441779]
 [  0.32341667 -16.71659348]]","[[0.         1.42102626]
 [0.1        0.84283155]
 [0.2        0.82757129]
 [0.3        1.38808557]
 [0.32341667 0.28501565]]",1,0.228
8782735929,f,25,english,5,3,english/french/other,2024-02-01 10:29:39.775433,False,2,424,sounds\english\audio/english_178.wav,"[[  0.         -14.41838744]
 [  0.1         64.59665955]
 [  0.2        -96.76492712]
 [  0.3        -50.00654232]
 [  0.32341667  42.56426636]]","[[0.         0.71193749]
 [0.1        0.54024543]
 [0.2        1.78065704]
 [0.3        1.40559917]
 [0.32341667 0.99785593]]",1,0.568
8782735929,f,25,english,5,3,english/french/other,2024-02-01 10:29:39.775433,False,2,425,sounds\english\audio/english_766.wav,"[[  0.         -86.57417509]
 [  0.1        -67.75686223]
 [  0.2         74.21258041]
 [  0.3         65.20164426]
 [  0.32341667 -26.41371036]]","[[0.         1.21737292]
 [0.1        1.61484435]
 [0.2        1.47872362]
 [0.3        1.81064247]
 [0.32341667 1.37776493]]",0,0.076
8782735929,f,25,english,5,3,english/french/other,2024-02-01 10:29:39.775433,False,2,426,sounds\english\audio/english_135.wav,"[[  0.          92.53632507]
 [  0.1         42.68843281]
 [  0.2         87.27237188]
 [  0.3        -70.62725941]
 [  0.32341667  91.37204548]]","[[0.         0.8813083 ]
 [0.1        1.60503348]
 [0.2        0.22265806]
 [0.3        0.4233462 ]
 [0.32341667 0.99500327]]",0,0.508
8782735929,f,25,english,5,3,english/french/other,2024-02-01 10:29:39.775433,False,2,427,sounds\english\audio/english_942.wav,"[[  0.          96.26286183]
 [  0.1        -96.45992778]
 [  0.2         50.93322043]
 [  0.3         14.6207779 ]
 [  0.32341667   7.19296333]]","[[0.         1.14976657]
 [0.1        0.962364  ]
 [0.2        0.99280793]
 [0.3        1.92237923]
 [0.32341667 1.02094568]]",1,2.627
8782735929,f,25,english,5,3,english/french/other,2024-02-01 10:29:39.775433,False,2,428,sounds\english\audio/english_702.wav,"[[  0.         -19.6614881 ]
 [  0.1        -92.60133235]
 [  0.2        -18.01071493]
 [  0.3         91.54675011]
 [  0.32341667  23.09112348]]","[[0.         1.13820402]
 [0.1        1.47755069]
 [0.2        1.33705675]
 [0.3        0.59768286]
 [0.32341667 0.82103567]]",1,0.132
8782735929,f,25,english,5,3,english/french/other,2024-02-01 10:29:39.775433,False,2,429,sounds\english\audio/english_694.wav,"[[  0.         -79.88370205]
 [  0.1        -58.02841319]
 [  0.2        -50.54988317]
 [  0.3        -20.79864769]
 [  0.32341667 -73.64916114]]","[[0.         0.99496101]
 [0.1        0.06406007]
 [0.2        0.5055253 ]
 [0.3        0.19498426]
 [0.32341667 0.36410653]]",0,0.197
8782735929,f,25,english,5,3,english/french/other,2024-02-01 10:29:39.775433,False,2,430,sounds\english\audio/english_414.wav,"[[ 0.         19.47839865]
 [ 0.1        59.9490877 ]
 [ 0.2        22.33981162]
 [ 0.3        18.97426154]
 [ 0.32341667 15.16306506]]","[[0.         0.9434816 ]
 [0.1        1.1146936 ]
 [0.2        0.48476454]
 [0.3        0.23554241]
 [0.32341667 1.13007685]]",1,0.038
8782735929,f,25,english,5,3,english/french/other,2024-02-01 10:29:39.775433,False,2,431,sounds\english\audio/english_509.wav,"[[  0.          58.37136146]
 [  0.1        -30.59588084]
 [  0.2        -42.62400689]
 [  0.3         58.46483968]
 [  0.32341667  44.09610342]]","[[0.         0.93627824]
 [0.1        1.268957  ]
 [0.2        0.87018438]
 [0.3        1.67134466]
 [0.32341667 1.96584472]]",0,0.662
8782735929,f,25,english,5,3,english/french/other,2024-02-01 10:29:39.775433,False,2,432,sounds\english\audio/english_522.wav,"[[  0.          11.68148217]
 [  0.1        -74.55265788]
 [  0.2         95.15954448]
 [  0.3        -17.14209769]
 [  0.32341667 -35.38302731]]","[[0.         0.44643579]
 [0.1        0.16885459]
 [0.2        1.67161326]
 [0.3        0.53349848]
 [0.32341667 0.4645726 ]]",1,0.669
8782735929,f,25,english,5,3,english/french/other,2024-02-01 10:29:39.775433,False,2,433,sounds\english\audio/english_950.wav,"[[  0.         -21.9776243 ]
 [  0.1        -41.40023943]
 [  0.2         48.01515584]
 [  0.3        -87.95551252]
 [  0.32341667 -39.5252386 ]]","[[0.         0.20752278]
 [0.1        1.93939622]
 [0.2        1.55608343]
 [0.3        1.49634866]
 [0.32341667 0.91783384]]",0,0.763
8782735929,f,25,english,5,3,english/french/other,2024-02-01 10:29:39.775433,False,2,434,sounds\english\audio/english_561.wav,"[[  0.          62.21065415]
 [  0.1         -9.84770717]
 [  0.2        -12.92274306]
 [  0.3         16.08334811]
 [  0.32341667 -22.38830035]]","[[0.         1.32725493]
 [0.1        1.15871491]
 [0.2        0.82816789]
 [0.3        1.72308293]
 [0.32341667 0.72943893]]",1,0.048
8782735929,f,25,english,5,3,english/french/other,2024-02-01 10:29:39.775433,False,2,435,sounds\english\audio/english_473.wav,"[[  0.           2.94536382]
 [  0.1         67.15962   ]
 [  0.2        -20.48190634]
 [  0.3         20.58811131]
 [  0.32341667 -71.10919795]]","[[0.         1.14273616]
 [0.1        0.71228689]
 [0.2        1.20280034]
 [0.3        0.94325649]
 [0.32341667 1.82149668]]",0,0.737
8782735929,f,25,english,5,3,english/french/other,2024-02-01 10:29:39.775433,False,2,436,sounds\english\audio/english_284.wav,"[[  0.         -77.15161711]
 [  0.1         80.53955212]
 [  0.2        -73.74967403]
 [  0.3        -47.67008962]
 [  0.32341667  40.40758666]]","[[0.         0.74585549]
 [0.1        0.017077  ]
 [0.2        0.284322  ]
 [0.3        1.04459593]
 [0.32341667 0.8536958 ]]",1,0.091
8782735929,f,25,english,5,3,english/french/other,2024-02-01 10:29:39.775433,False,2,437,sounds\english\audio/english_951.wav,"[[  0.          -0.1209724 ]
 [  0.1        -14.6507611 ]
 [  0.2         -2.36153686]
 [  0.3         15.28547447]
 [  0.32341667  -0.16445922]]","[[0.         0.19208806]
 [0.1        1.44795721]
 [0.2        0.88209985]
 [0.3        1.97099669]
 [0.32341667 0.158195  ]]",0,1.415
8782735929,f,25,english,5,3,english/french/other,2024-02-01 10:29:39.775433,False,2,438,sounds\english\audio/english_961.wav,"[[  0.          20.81275789]
 [  0.1         46.48072234]
 [  0.2         79.36291712]
 [  0.3          7.86976501]
 [  0.32341667 -45.45751668]]","[[0.         1.87720953]
 [0.1        1.43497285]
 [0.2        1.9095844 ]
 [0.3        0.20821065]
 [0.32341667 0.0640973 ]]",0,1.343
8782735929,f,25,english,5,3,english/french/other,2024-02-01 10:29:39.775433,False,2,439,sounds\english\audio/english_942.wav,"[[  0.          96.26286183]
 [  0.1        -96.45992778]
 [  0.2         50.93322043]
 [  0.3         14.6207779 ]
 [  0.32341667   7.19296333]]","[[0.         1.14976657]
 [0.1        0.962364  ]
 [0.2        0.99280793]
 [0.3        1.92237923]
 [0.32341667 1.02094568]]",1,0.055
8782735929,f,25,english,5,3,english/french/other,2024-02-01 10:29:39.775433,False,2,440,sounds\english\audio/english_435.wav,"[[  0.         -61.49548479]
 [  0.1         18.53940612]
 [  0.2        -39.20879804]
 [  0.3        -30.66509024]
 [  0.32341667   7.07056367]]","[[0.         0.36819492]
 [0.1        1.77990606]
 [0.2        1.09377229]
 [0.3        1.98213584]
 [0.32341667 0.5936591 ]]",0,0.227
8782735929,f,25,english,5,3,english/french/other,2024-02-01 10:29:39.775433,False,2,441,sounds\english\audio/english_294.wav,"[[  0.         -92.15775888]
 [  0.1         71.96645866]
 [  0.2        -25.46852775]
 [  0.3         17.21488016]
 [  0.32341667 -10.41176069]]","[[0.         0.74816787]
 [0.1        1.71916745]
 [0.2        1.7524902 ]
 [0.3        0.9780509 ]
 [0.32341667 1.21177262]]",0,0.102
8782735929,f,25,english,5,3,english/french/other,2024-02-01 10:29:39.775433,False,2,442,sounds\english\audio/english_464.wav,"[[  0.          53.08614354]
 [  0.1         30.21863436]
 [  0.2        -72.79337117]
 [  0.3         91.0452741 ]
 [  0.32341667 -31.40181873]]","[[0.         0.76512863]
 [0.1        1.75958979]
 [0.2        0.91412587]
 [0.3        1.02089091]
 [0.32341667 1.37846458]]",0,0.137
8782735929,f,25,english,5,3,english/french/other,2024-02-01 10:29:39.775433,False,2,443,sounds\english\audio/english_449.wav,"[[  0.         -46.54576765]
 [  0.1         20.05422573]
 [  0.2         54.52400621]
 [  0.3         73.66855139]
 [  0.32341667  -1.88675615]]","[[0.         0.60085197]
 [0.1        1.74901032]
 [0.2        1.9506545 ]
 [0.3        1.81044704]
 [0.32341667 0.93562966]]",1,0.544
8782735929,f,25,english,5,3,english/french/other,2024-02-01 10:29:39.775433,False,2,444,sounds\english\audio/english_831.wav,"[[  0.          -7.33710711]
 [  0.1        -87.69782071]
 [  0.2         34.03975531]
 [  0.3         -2.18295653]
 [  0.32341667  20.908766  ]]","[[0.         1.53159971]
 [0.1        1.22669962]
 [0.2        0.70180407]
 [0.3        1.02244347]
 [0.32341667 1.06702443]]",0,0.894
8782735929,f,25,english,5,3,english/french/other,2024-02-01 10:29:39.775433,False,2,445,sounds\english\audio/english_302.wav,"[[  0.         -63.95927305]
 [  0.1        -82.44028643]
 [  0.2        -63.33590257]
 [  0.3        -82.33590521]
 [  0.32341667 -77.43124585]]","[[0.         1.3663617 ]
 [0.1        1.24112643]
 [0.2        1.83999602]
 [0.3        0.89576132]
 [0.32341667 1.51483357]]",0,0.211
8782735929,f,25,english,5,3,english/french/other,2024-02-01 10:29:39.775433,False,2,446,sounds\english\audio/english_949.wav,"[[  0.          48.32946721]
 [  0.1         73.83586198]
 [  0.2        -30.27812065]
 [  0.3        -32.50397555]
 [  0.32341667  96.46984971]]","[[0.         1.50413289]
 [0.1        1.55745414]
 [0.2        1.00772566]
 [0.3        0.86702054]
 [0.32341667 1.67836019]]",0,0.338
8782735929,f,25,english,5,3,english/french/other,2024-02-01 10:29:39.775433,False,2,447,sounds\english\audio/english_820.wav,"[[  0.         -46.83321603]
 [  0.1         41.6487922 ]
 [  0.2          8.4156442 ]
 [  0.3        -54.82963666]
 [  0.32341667  30.43602938]]","[[0.         0.84618107]
 [0.1        0.98544532]
 [0.2        0.7701051 ]
 [0.3        1.20043732]
 [0.32341667 1.85489027]]",1,0.484
8782735929,f,25,english,5,3,english/french/other,2024-02-01 10:29:39.775433,False,2,448,sounds\english\audio/english_407.wav,"[[  0.         -13.68776922]
 [  0.1        -57.11899702]
 [  0.2         62.94325807]
 [  0.3        -27.77030003]
 [  0.32341667 -61.90605897]]","[[0.         0.77658743]
 [0.1        1.53398674]
 [0.2        0.70379875]
 [0.3        0.72470084]
 [0.32341667 0.771678  ]]",0,0.13
8782735929,f,25,english,5,3,english/french/other,2024-02-01 10:29:39.775433,False,2,449,sounds\english\audio/english_247.wav,"[[  0.          48.65693284]
 [  0.1        -27.64572099]
 [  0.2        -20.19701808]
 [  0.3        -10.74442668]
 [  0.32341667  91.42432082]]","[[0.         0.25539499]
 [0.1        1.09429421]
 [0.2        0.88115619]
 [0.3        1.97859338]
 [0.32341667 0.10638235]]",1,0.388
8782735929,f,25,english,5,3,english/french/other,2024-02-01 10:29:39.775433,False,2,450,sounds\english\audio/english_9.wav,"[[  0.          24.77706225]
 [  0.1         91.05524194]
 [  0.2         30.20964975]
 [  0.3        -69.66301283]
 [  0.32341667  -3.83240646]]","[[0.         1.13145128]
 [0.1        1.19326311]
 [0.2        1.50029029]
 [0.3        1.4622179 ]
 [0.32341667 1.9316504 ]]",0,1.105
8782735929,f,25,english,5,3,english/french/other,2024-02-01 10:29:39.775433,False,2,451,sounds\english\audio/english_65.wav,"[[  0.         -46.88015867]
 [  0.1         54.34027197]
 [  0.2        -65.46386729]
 [  0.3        -66.7533487 ]
 [  0.32341667 -12.18147599]]","[[0.         0.62230507]
 [0.1        1.12355997]
 [0.2        1.0507031 ]
 [0.3        0.71238348]
 [0.32341667 0.41048607]]",1,0.206
8782735929,f,25,english,5,3,english/french/other,2024-02-01 10:29:39.775433,False,2,452,sounds\english\audio/english_224.wav,"[[  0.          -3.31597843]
 [  0.1        -35.19448657]
 [  0.2        -54.62049262]
 [  0.3         50.12510099]
 [  0.32341667  96.66013203]]","[[0.         0.45157501]
 [0.1        1.77513434]
 [0.2        0.36912314]
 [0.3        1.67171916]
 [0.32341667 1.16069525]]",0,0.185
8782735929,f,25,english,5,3,english/french/other,2024-02-01 10:29:39.775433,False,2,453,sounds\english\audio/english_279.wav,"[[  0.         -20.90398108]
 [  0.1         98.83098338]
 [  0.2        -95.37608427]
 [  0.3        -52.65380993]
 [  0.32341667  47.72500112]]","[[0.         0.60114424]
 [0.1        0.92336304]
 [0.2        1.39045705]
 [0.3        0.64938935]
 [0.32341667 1.57478054]]",1,0.136
8782735929,f,25,english,5,3,english/french/other,2024-02-01 10:29:39.775433,False,2,454,sounds\english\audio/english_382.wav,"[[  0.         -83.35497559]
 [  0.1          7.83115402]
 [  0.2         77.46115257]
 [  0.3         89.755233  ]
 [  0.32341667 -36.08570956]]","[[0.         1.24516413]
 [0.1        0.59675254]
 [0.2        0.61036026]
 [0.3        1.95554414]
 [0.32341667 1.60845727]]",0,0.912
8782735929,f,25,english,5,3,english/french/other,2024-02-01 10:29:39.775433,False,2,455,sounds\english\audio/english_206.wav,"[[  0.          29.86029141]
 [  0.1        -65.49550847]
 [  0.2         -8.37849199]
 [  0.3         16.32170521]
 [  0.32341667 -96.55544023]]","[[0.         0.9413203 ]
 [0.1        1.58501733]
 [0.2        1.84833856]
 [0.3        1.12864021]
 [0.32341667 0.85017735]]",1,0.53
8782735929,f,25,english,5,3,english/french/other,2024-02-01 10:29:39.775433,False,2,456,sounds\english\audio/english_439.wav,"[[  0.         -34.98153375]
 [  0.1         58.81829455]
 [  0.2        -39.64168408]
 [  0.3        -65.89684329]
 [  0.32341667 -18.09409032]]","[[0.         0.51703437]
 [0.1        0.92552513]
 [0.2        1.94754337]
 [0.3        0.19153473]
 [0.32341667 1.29438445]]",0,0.163
8782735929,f,25,english,5,3,english/french/other,2024-02-01 10:29:39.775433,False,2,457,sounds\english\audio/english_734.wav,"[[  0.          23.12527103]
 [  0.1         70.97885261]
 [  0.2        -68.62860591]
 [  0.3        -14.81239301]
 [  0.32341667 -74.40513958]]","[[0.         1.15728247]
 [0.1        1.10975856]
 [0.2        0.41126476]
 [0.3        1.45213782]
 [0.32341667 1.98917216]]",1,0.215
8782735929,f,25,english,5,3,english/french/other,2024-02-01 10:29:39.775433,False,2,458,sounds\english\audio/english_394.wav,"[[ 0.         73.08757955]
 [ 0.1         5.60908311]
 [ 0.2        76.56705043]
 [ 0.3        18.85166324]
 [ 0.32341667  8.45052692]]","[[0.         1.29313131]
 [0.1        0.62691873]
 [0.2        1.4938005 ]
 [0.3        1.2266925 ]
 [0.32341667 0.67844158]]",0,0.151
8782735929,f,25,english,5,3,english/french/other,2024-02-01 10:29:39.775433,False,2,459,sounds\english\audio/english_882.wav,"[[  0.         -42.93700265]
 [  0.1        -62.35786663]
 [  0.2        -16.20482572]
 [  0.3        -46.49020195]
 [  0.32341667 -64.89408339]]","[[0.         1.06489748]
 [0.1        1.38883859]
 [0.2        0.28843799]
 [0.3        1.05408179]
 [0.32341667 1.78517837]]",1,0.2
8782735929,f,25,english,5,3,english/french/other,2024-02-01 10:29:39.775433,False,2,460,sounds\english\audio/english_794.wav,"[[  0.           5.57967757]
 [  0.1         -3.8737546 ]
 [  0.2        -24.29943164]
 [  0.3          3.56417137]
 [  0.32341667 -13.30357118]]","[[0.         1.6157291 ]
 [0.1        0.80008436]
 [0.2        0.69881068]
 [0.3        1.55658335]
 [0.32341667 1.787412  ]]",0,0.098
8782735929,f,25,english,5,3,english/french/other,2024-02-01 10:29:39.775433,False,2,461,sounds\english\audio/english_360.wav,"[[  0.         -50.57937638]
 [  0.1        -29.22164644]
 [  0.2        -88.45421248]
 [  0.3         93.68039656]
 [  0.32341667  -2.59092547]]","[[0.         0.73788637]
 [0.1        0.6487653 ]
 [0.2        0.73193848]
 [0.3        1.75347372]
 [0.32341667 1.19277037]]",0,0.194
8782735929,f,25,english,5,3,english/french/other,2024-02-01 10:29:39.775433,False,2,462,sounds\english\audio/english_128.wav,"[[  0.         -84.07301703]
 [  0.1          0.2051398 ]
 [  0.2         50.77588291]
 [  0.3          3.27834455]
 [  0.32341667  59.5943459 ]]","[[0.         0.96445051]
 [0.1        0.77165422]
 [0.2        0.60279997]
 [0.3        0.59915485]
 [0.32341667 0.43521132]]",0,0.231
8782735929,f,25,english,5,3,english/french/other,2024-02-01 10:29:39.775433,False,2,463,sounds\english\audio/english_746.wav,"[[  0.          -1.32395796]
 [  0.1        -67.07117971]
 [  0.2         75.09604974]
 [  0.3        -48.59278454]
 [  0.32341667  -6.52080997]]","[[0.         1.72273729]
 [0.1        1.22961235]
 [0.2        1.29107068]
 [0.3        1.34694816]
 [0.32341667 0.94274536]]",0,1.093
8782735929,f,25,english,5,3,english/french/other,2024-02-01 10:29:39.775433,False,2,464,sounds\english\audio/english_234.wav,"[[  0.         -96.19421376]
 [  0.1         96.13097212]
 [  0.2        -68.61115628]
 [  0.3         58.3624958 ]
 [  0.32341667  60.51337125]]","[[0.         0.0948498 ]
 [0.1        1.36649532]
 [0.2        0.00312314]
 [0.3        0.01269103]
 [0.32341667 1.76377265]]",0,0.403
8782735929,f,25,english,5,3,english/french/other,2024-02-01 10:29:39.775433,False,2,465,sounds\english\audio/english_886.wav,"[[  0.          52.0334205 ]
 [  0.1        -34.60142464]
 [  0.2         77.69993065]
 [  0.3         29.08950905]
 [  0.32341667 -98.8324779 ]]","[[0.         0.43451348]
 [0.1        1.57387994]
 [0.2        1.05416836]
 [0.3        0.32554246]
 [0.32341667 1.85669509]]",1,0.05
8782735929,f,25,english,5,3,english/french/other,2024-02-01 10:29:39.775433,False,2,466,sounds\english\audio/english_8.wav,"[[  0.         -11.83025711]
 [  0.1          8.7470631 ]
 [  0.2        -15.41843982]
 [  0.3        -87.7437633 ]
 [  0.32341667 -40.85253846]]","[[0.         1.51300734]
 [0.1        0.24000547]
 [0.2        1.17952525]
 [0.3        1.57032258]
 [0.32341667 0.7584977 ]]",1,0.106
8782735929,f,25,english,5,3,english/french/other,2024-02-01 10:29:39.775433,False,2,467,sounds\english\audio/english_654.wav,"[[  0.         -97.13147194]
 [  0.1        -81.37819023]
 [  0.2         51.48571278]
 [  0.3         54.00949099]
 [  0.32341667 -95.1633683 ]]","[[0.         0.91673578]
 [0.1        1.23280851]
 [0.2        1.64688363]
 [0.3        1.75994168]
 [0.32341667 0.20104411]]",1,0.007
8782735929,f,25,english,5,3,english/french/other,2024-02-01 10:29:39.775433,False,2,468,sounds\english\audio/english_103.wav,"[[  0.         -79.54710498]
 [  0.1        -41.31314025]
 [  0.2        -48.58046961]
 [  0.3         50.88097047]
 [  0.32341667  21.22320476]]","[[0.         0.84178061]
 [0.1        1.9706485 ]
 [0.2        1.55059924]
 [0.3        1.14550684]
 [0.32341667 1.67039139]]",1,2.046
8782735929,f,25,english,5,3,english/french/other,2024-02-01 10:29:39.775433,False,2,469,sounds\english\audio/english_649.wav,"[[  0.          65.82222467]
 [  0.1         -9.35575527]
 [  0.2        -91.83315911]
 [  0.3         79.30022345]
 [  0.32341667  45.86180924]]","[[0.         0.56154429]
 [0.1        0.64767017]
 [0.2        0.84538271]
 [0.3        0.4979411 ]
 [0.32341667 0.89353148]]",0,0.145
8782735929,f,25,english,5,3,english/french/other,2024-02-01 10:29:39.775433,False,2,470,sounds\english\audio/english_595.wav,"[[  0.         -39.84727911]
 [  0.1        -68.85607622]
 [  0.2         23.68364187]
 [  0.3        -80.51887658]
 [  0.32341667 -94.66311932]]","[[0.         1.6526444 ]
 [0.1        1.11711065]
 [0.2        1.96516016]
 [0.3        0.34053421]
 [0.32341667 1.22603371]]",1,0.972
8782735929,f,25,english,5,3,english/french/other,2024-02-01 10:29:39.775433,False,2,471,sounds\english\audio/english_381.wav,"[[  0.         -64.83599525]
 [  0.1         97.61236857]
 [  0.2        -60.27157178]
 [  0.3         84.45732791]
 [  0.32341667 -87.53832291]]","[[0.         0.77808766]
 [0.1        1.62635576]
 [0.2        0.65298664]
 [0.3        0.46881793]
 [0.32341667 1.22836965]]",0,0.174
8782735929,f,25,english,5,3,english/french/other,2024-02-01 10:29:39.775433,False,2,472,sounds\english\audio/english_496.wav,"[[  0.         -50.36729616]
 [  0.1         43.15166092]
 [  0.2        -89.08132341]
 [  0.3        -31.93753525]
 [  0.32341667 -79.66514086]]","[[0.         1.24588939]
 [0.1        1.651593  ]
 [0.2        0.94120535]
 [0.3        0.55989053]
 [0.32341667 1.95233748]]",1,0.543
8782735929,f,25,english,5,3,english/french/other,2024-02-01 10:29:39.775433,False,2,473,sounds\english\audio/english_545.wav,"[[  0.          42.99494118]
 [  0.1         72.53025652]
 [  0.2          4.60849844]
 [  0.3          9.93291538]
 [  0.32341667 -11.25611892]]","[[0.         1.37740168]
 [0.1        0.91972232]
 [0.2        0.73226975]
 [0.3        1.52934768]
 [0.32341667 0.18478607]]",1,0.113
8782735929,f,25,english,5,3,english/french/other,2024-02-01 10:29:39.775433,False,2,474,sounds\english\audio/english_99.wav,"[[  0.           9.75149611]
 [  0.1         -7.37998228]
 [  0.2         29.15889261]
 [  0.3        -23.23230809]
 [  0.32341667  51.25937721]]","[[0.         0.79411887]
 [0.1        0.53064308]
 [0.2        0.10254027]
 [0.3        0.53999741]
 [0.32341667 0.74302856]]",1,1.283
8782735929,f,25,english,5,3,english/french/other,2024-02-01 10:29:39.775433,False,2,475,sounds\english\audio/english_588.wav,"[[  0.          99.95047602]
 [  0.1          6.8401109 ]
 [  0.2        -15.9093749 ]
 [  0.3        -95.80500507]
 [  0.32341667  23.59255786]]","[[0.         0.54608042]
 [0.1        0.86340392]
 [0.2        0.01522231]
 [0.3        0.86017392]
 [0.32341667 0.36914066]]",0,0.394
8782735929,f,25,english,5,3,english/french/other,2024-02-01 10:29:39.775433,False,2,476,sounds\english\audio/english_877.wav,"[[  0.          49.36401037]
 [  0.1         15.17280231]
 [  0.2         22.36436744]
 [  0.3        -25.51979868]
 [  0.32341667 -55.72443313]]","[[0.         1.25510861]
 [0.1        0.84700305]
 [0.2        0.32703774]
 [0.3        1.72637958]
 [0.32341667 0.52117686]]",0,0.333
8782735929,f,25,english,5,3,english/french/other,2024-02-01 10:29:39.775433,False,2,477,sounds\english\audio/english_273.wav,"[[  0.         -44.98289573]
 [  0.1         24.32546199]
 [  0.2         61.84573583]
 [  0.3         -1.88803465]
 [  0.32341667  57.02125087]]","[[0.         1.94838534]
 [0.1        0.68888608]
 [0.2        1.95265796]
 [0.3        1.62060328]
 [0.32341667 0.94638053]]",1,0.595
8782735929,f,25,english,5,3,english/french/other,2024-02-01 10:29:39.775433,False,2,478,sounds\english\audio/english_139.wav,"[[  0.          55.35526281]
 [  0.1        -66.48550036]
 [  0.2         21.45340352]
 [  0.3        -32.80413748]
 [  0.32341667 -77.32206638]]","[[0.         1.40478417]
 [0.1        1.12007301]
 [0.2        1.58559909]
 [0.3        1.13081383]
 [0.32341667 0.38560717]]",1,0.031
8782735929,f,25,english,5,3,english/french/other,2024-02-01 10:29:39.775433,False,2,479,sounds\english\audio/english_751.wav,"[[  0.          45.03630887]
 [  0.1         46.59103402]
 [  0.2        -30.90440374]
 [  0.3        -61.26470289]
 [  0.32341667  34.91384756]]","[[0.         0.43450625]
 [0.1        1.30072592]
 [0.2        1.20093797]
 [0.3        0.81911259]
 [0.32341667 0.19140491]]",1,0.113
8782735929,f,25,english,5,3,english/french/other,2024-02-01 10:29:39.775433,False,2,480,sounds\english\audio/english_980.wav,"[[  0.         -32.33629208]
 [  0.1         -4.4140807 ]
 [  0.2         76.81412515]
 [  0.3        -16.24877133]
 [  0.32341667 -26.44128118]]","[[0.         1.21290567]
 [0.1        0.22350007]
 [0.2        1.68078519]
 [0.3        0.16816052]
 [0.32341667 1.48722631]]",0,0.96
8782735929,f,25,english,5,3,english/french/other,2024-02-01 10:29:39.775433,False,2,481,sounds\english\audio/english_118.wav,"[[  0.         -46.26080879]
 [  0.1        -14.63576669]
 [  0.2         85.04541628]
 [  0.3        -49.31762638]
 [  0.32341667  16.64479416]]","[[0.         0.77156844]
 [0.1        0.55135676]
 [0.2        0.92804695]
 [0.3        1.40435072]
 [0.32341667 1.67291824]]",0,0.26
8782735929,f,25,english,5,3,english/french/other,2024-02-01 10:29:39.775433,False,2,482,sounds\english\audio/english_146.wav,"[[  0.          -7.47107612]
 [  0.1        -10.73298436]
 [  0.2         -4.63341632]
 [  0.3         14.65491039]
 [  0.32341667  19.96333333]]","[[0.         0.36907021]
 [0.1        0.24473139]
 [0.2        1.01983542]
 [0.3        0.62607899]
 [0.32341667 1.1005899 ]]",0,0.447
8782735929,f,25,english,5,3,english/french/other,2024-02-01 10:29:39.775433,False,2,483,sounds\english\audio/english_160.wav,"[[ 0.          2.54964477]
 [ 0.1        26.84692557]
 [ 0.2        72.58457191]
 [ 0.3        -6.94481249]
 [ 0.32341667 35.80656171]]","[[0.         0.54357393]
 [0.1        1.29343216]
 [0.2        0.42070854]
 [0.3        1.04489529]
 [0.32341667 0.26802137]]",0,0.243
8782735929,f,25,english,5,3,english/french/other,2024-02-01 10:29:39.775433,False,2,484,sounds\english\audio/english_84.wav,"[[  0.         -42.35488886]
 [  0.1         17.86576323]
 [  0.2        -56.36172821]
 [  0.3         69.8537656 ]
 [  0.32341667 -47.30652012]]","[[0.         0.45116064]
 [0.1        1.91320005]
 [0.2        1.53140363]
 [0.3        0.53091011]
 [0.32341667 1.59279301]]",0,0.715
8782735929,f,25,english,5,3,english/french/other,2024-02-01 10:29:39.775433,False,2,485,sounds\english\audio/english_787.wav,"[[  0.          57.99353047]
 [  0.1        -40.79525362]
 [  0.2         23.78072576]
 [  0.3         72.96982422]
 [  0.32341667  53.76957631]]","[[0.         1.96251481]
 [0.1        0.94444479]
 [0.2        0.924778  ]
 [0.3        0.31383508]
 [0.32341667 0.68947425]]",0,0.204
8782735929,f,25,english,5,3,english/french/other,2024-02-01 10:29:39.775433,False,2,486,sounds\english\audio/english_496.wav,"[[  0.         -50.36729616]
 [  0.1         43.15166092]
 [  0.2        -89.08132341]
 [  0.3        -31.93753525]
 [  0.32341667 -79.66514086]]","[[0.         1.24588939]
 [0.1        1.651593  ]
 [0.2        0.94120535]
 [0.3        0.55989053]
 [0.32341667 1.95233748]]",0,0.253
8782735929,f,25,english,5,3,english/french/other,2024-02-01 10:29:39.775433,False,2,487,sounds\english\audio/english_25.wav,"[[  0.         -93.68210842]
 [  0.1        -14.41268038]
 [  0.2         72.93230065]
 [  0.3         23.28545759]
 [  0.32341667  18.09953767]]","[[0.         1.14210865]
 [0.1        1.90089654]
 [0.2        0.61137859]
 [0.3        1.93042398]
 [0.32341667 1.11869114]]",1,0.377
8782735929,f,25,english,5,3,english/french/other,2024-02-01 10:29:39.775433,False,2,488,sounds\english\audio/english_590.wav,"[[  0.         -36.198224  ]
 [  0.1        -81.6019347 ]
 [  0.2         23.00860846]
 [  0.3        -40.72667736]
 [  0.32341667  31.06175796]]","[[0.         1.58650853]
 [0.1        0.24081988]
 [0.2        0.40073912]
 [0.3        0.83686248]
 [0.32341667 1.43958247]]",1,0.381
8782735929,f,25,english,5,3,english/french/other,2024-02-01 10:29:39.775433,False,2,489,sounds\english\audio/english_659.wav,"[[  0.         -86.13080632]
 [  0.1         39.51927718]
 [  0.2         -6.22185106]
 [  0.3          5.64287294]
 [  0.32341667  47.08694279]]","[[0.         0.77157019]
 [0.1        1.34569204]
 [0.2        0.71695874]
 [0.3        1.04110125]
 [0.32341667 1.84115141]]",0,0.109
8782735929,f,25,english,5,3,english/french/other,2024-02-01 10:29:39.775433,False,2,490,sounds\english\audio/english_148.wav,"[[  0.         -15.87588743]
 [  0.1         66.05332506]
 [  0.2         50.59551539]
 [  0.3        -59.45276716]
 [  0.32341667  58.4155276 ]]","[[0.         0.13468567]
 [0.1        1.11017862]
 [0.2        0.42983488]
 [0.3        0.2729575 ]
 [0.32341667 0.65396017]]",1,0.498
8782735929,f,25,english,5,3,english/french/other,2024-02-01 10:29:39.775433,False,2,491,sounds\english\audio/english_696.wav,"[[  0.         -48.45243871]
 [  0.1         82.41340646]
 [  0.2         -7.53339347]
 [  0.3        -30.87957178]
 [  0.32341667  75.39947922]]","[[0.         0.15817179]
 [0.1        0.69939178]
 [0.2        1.28466279]
 [0.3        1.90686052]
 [0.32341667 0.63235415]]",1,0.639
8782735929,f,25,english,5,3,english/french/other,2024-02-01 10:29:39.775433,False,2,492,sounds\english\audio/english_436.wav,"[[  0.          58.73131257]
 [  0.1         65.29204538]
 [  0.2          7.63213906]
 [  0.3         -2.54756362]
 [  0.32341667 -11.40614268]]","[[0.         0.30497449]
 [0.1        1.04665744]
 [0.2        1.03883923]
 [0.3        0.97345352]
 [0.32341667 0.16121918]]",1,0.275
8782735929,f,25,english,5,3,english/french/other,2024-02-01 10:29:39.775433,False,2,493,sounds\english\audio/english_266.wav,"[[  0.          16.70772117]
 [  0.1        -61.82971906]
 [  0.2        -31.41060896]
 [  0.3         -8.94045194]
 [  0.32341667 -27.43066022]]","[[0.         0.81064175]
 [0.1        1.48442032]
 [0.2        1.39445033]
 [0.3        1.01594082]
 [0.32341667 0.75934284]]",0,0.121
8782735929,f,25,english,5,3,english/french/other,2024-02-01 10:29:39.775433,False,2,494,sounds\english\audio/english_955.wav,"[[  0.         -93.58498903]
 [  0.1        -11.56731864]
 [  0.2         60.37787928]
 [  0.3         83.42366765]
 [  0.32341667 -60.32056418]]","[[0.         1.26703381]
 [0.1        0.51967441]
 [0.2        1.0313906 ]
 [0.3        1.58878747]
 [0.32341667 1.0025339 ]]",1,0.201
8782735929,f,25,english,5,3,english/french/other,2024-02-01 10:29:39.775433,False,2,495,sounds\english\audio/english_954.wav,"[[  0.         -31.7323473 ]
 [  0.1         26.42807939]
 [  0.2         22.25968883]
 [  0.3        -25.30270181]
 [  0.32341667  46.97185243]]","[[0.         1.78985335]
 [0.1        1.38754521]
 [0.2        1.54917493]
 [0.3        1.54718362]
 [0.32341667 0.09638929]]",1,0.881
8782735929,f,25,english,5,3,english/french/other,2024-02-01 10:29:39.775433,False,2,496,sounds\english\audio/english_104.wav,"[[  0.          42.44693926]
 [  0.1         82.22484934]
 [  0.2          7.21737924]
 [  0.3         26.54640215]
 [  0.32341667 -33.4974026 ]]","[[0.         0.1741435 ]
 [0.1        0.11379641]
 [0.2        1.60376175]
 [0.3        1.08059257]
 [0.32341667 1.8061622 ]]",0,0.311
8782735929,f,25,english,5,3,english/french/other,2024-02-01 10:29:39.775433,False,2,497,sounds\english\audio/english_709.wav,"[[  0.         -57.85840644]
 [  0.1         -9.03046344]
