subj,sex,age,language,english,french,native_lang,date,practice,block,trial,stim,pitch,stretch,response,rt
8730571689,f,19,english,5,3,english,2024-01-25 10:40:25.221683,False,2,253,sounds\english\audio/english_89.wav,"[[  0.         -42.28936571]
 [  0.1         12.96738115]
 [  0.2         -0.92476461]
 [  0.3         54.46155283]
 [  0.32341667  -5.27724964]]","[[0.         1.68633095]
 [0.1        0.49078122]
 [0.2        0.75584791]
 [0.3        1.37155139]
 [0.32341667 0.6613642 ]]",0,4.079
8730571689,f,19,english,5,3,english,2024-01-25 10:40:25.221683,False,2,254,sounds\english\audio/english_725.wav,"[[  0.          26.80600371]
 [  0.1         82.24352357]
 [  0.2         -3.79901328]
 [  0.3         68.54562933]
 [  0.32341667 -39.79698803]]","[[0.         0.25466557]
 [0.1        0.77088778]
 [0.2        0.70697722]
 [0.3        1.24247197]
 [0.32341667 1.34526742]]",1,3.269
8730571689,f,19,english,5,3,english,2024-01-25 10:40:25.221683,False,2,255,sounds\english\audio/english_782.wav,"[[  0.         -98.70381677]
 [  0.1        -69.82387258]
 [  0.2         35.26613747]
 [  0.3        -81.38004879]
 [  0.32341667 -61.83067014]]","[[0.         1.47488053]
 [0.1        0.7270016 ]
 [0.2        0.08778447]
 [0.3        1.16903228]
 [0.32341667 0.92727902]]",0,0.778
8730571689,f,19,english,5,3,english,2024-01-25 10:40:25.221683,False,2,256,sounds\english\audio/english_120.wav,"[[  0.          55.2306484 ]
 [  0.1         82.00530973]
 [  0.2         -5.84837635]
 [  0.3         66.20489525]
 [  0.32341667 -73.22302923]]","[[0.         0.43658612]
 [0.1        0.03999251]
 [0.2        0.80827096]
 [0.3        1.78669421]
 [0.32341667 1.04341795]]",1,0.865
8730571689,f,19,english,5,3,english,2024-01-25 10:40:25.221683,False,2,257,sounds\english\audio/english_536.wav,"[[  0.          19.16157828]
 [  0.1        -70.44875328]
 [  0.2          9.3844651 ]
 [  0.3         54.79833109]
 [  0.32341667 -43.58683919]]","[[0.         1.0914138 ]
 [0.1        1.55996729]
 [0.2        1.22014226]
 [0.3        0.24268308]
 [0.32341667 1.12643869]]",0,0.543
8730571689,f,19,english,5,3,english,2024-01-25 10:40:25.221683,False,2,258,sounds\english\audio/english_424.wav,"[[  0.          -7.44814198]
 [  0.1          9.0703424 ]
 [  0.2        -65.6005214 ]
 [  0.3         79.88163057]
 [  0.32341667  48.78273262]]","[[0.         1.7438251 ]
 [0.1        1.33993463]
 [0.2        0.96535207]
 [0.3        0.39557207]
 [0.32341667 0.47346175]]",0,1.123
8730571689,f,19,english,5,3,english,2024-01-25 10:40:25.221683,False,2,259,sounds\english\audio/english_363.wav,"[[  0.          -8.62246293]
 [  0.1        -37.95317313]
 [  0.2        -98.56362786]
 [  0.3         79.4101663 ]
 [  0.32341667 -19.01593507]]","[[0.         0.22304778]
 [0.1        0.51009023]
 [0.2        1.67320701]
 [0.3        0.32318158]
 [0.32341667 1.23606141]]",0,1.589
8730571689,f,19,english,5,3,english,2024-01-25 10:40:25.221683,False,2,260,sounds\english\audio/english_174.wav,"[[  0.         -14.93169449]
 [  0.1        -60.50222611]
 [  0.2        -88.67347191]
 [  0.3        -20.58504224]
 [  0.32341667 -52.28073567]]","[[0.         0.27768215]
 [0.1        0.13809097]
 [0.2        0.18584848]
 [0.3        1.46718454]
 [0.32341667 0.17567705]]",1,0.611
8730571689,f,19,english,5,3,english,2024-01-25 10:40:25.221683,False,2,261,sounds\english\audio/english_509.wav,"[[  0.          58.37136146]
 [  0.1        -30.59588084]
 [  0.2        -42.62400689]
 [  0.3         58.46483968]
 [  0.32341667  44.09610342]]","[[0.         0.93627824]
 [0.1        1.268957  ]
 [0.2        0.87018438]
 [0.3        1.67134466]
 [0.32341667 1.96584472]]",0,0.678
8730571689,f,19,english,5,3,english,2024-01-25 10:40:25.221683,False,2,262,sounds\english\audio/english_52.wav,"[[  0.          54.63859099]
 [  0.1        -85.67195477]
 [  0.2          2.4878885 ]
 [  0.3         86.13143505]
 [  0.32341667 -53.30399902]]","[[0.         0.91426261]
 [0.1        1.20728413]
 [0.2        0.71733995]
 [0.3        1.54149443]
 [0.32341667 1.3376245 ]]",0,0.32
8730571689,f,19,english,5,3,english,2024-01-25 10:40:25.221683,False,2,263,sounds\english\audio/english_615.wav,"[[  0.          76.05955912]
 [  0.1         54.62950786]
 [  0.2        -31.02204933]
 [  0.3         -3.27946314]
 [  0.32341667  51.350795  ]]","[[0.         1.68553334]
 [0.1        1.5058876 ]
 [0.2        1.66676809]
 [0.3        1.09840801]
 [0.32341667 0.25314986]]",1,0.399
8730571689,f,19,english,5,3,english,2024-01-25 10:40:25.221683,False,2,264,sounds\english\audio/english_512.wav,"[[  0.          92.76608442]
 [  0.1        -20.68005196]
 [  0.2        -55.10098951]
 [  0.3         79.8086149 ]
 [  0.32341667 -91.21136492]]","[[0.         1.91273189]
 [0.1        1.02897077]
 [0.2        0.7965214 ]
 [0.3        1.98502062]
 [0.32341667 0.13323305]]",1,0.353
8730571689,f,19,english,5,3,english,2024-01-25 10:40:25.221683,False,2,265,sounds\english\audio/english_997.wav,"[[  0.          93.4252615 ]
 [  0.1         62.16088314]
 [  0.2        -26.38638022]
 [  0.3         89.15363163]
 [  0.32341667 -25.83137337]]","[[0.         0.4603395 ]
 [0.1        0.21654412]
 [0.2        1.36234896]
 [0.3        1.07462804]
 [0.32341667 0.84007196]]",0,1.121
8730571689,f,19,english,5,3,english,2024-01-25 10:40:25.221683,False,2,266,sounds\english\audio/english_997.wav,"[[  0.          93.4252615 ]
 [  0.1         62.16088314]
 [  0.2        -26.38638022]
 [  0.3         89.15363163]
 [  0.32341667 -25.83137337]]","[[0.         0.4603395 ]
 [0.1        0.21654412]
 [0.2        1.36234896]
 [0.3        1.07462804]
 [0.32341667 0.84007196]]",1,0.534
8730571689,f,19,english,5,3,english,2024-01-25 10:40:25.221683,False,2,267,sounds\english\audio/english_211.wav,"[[  0.          37.34807541]
 [  0.1         97.98979508]
 [  0.2        -20.02981109]
 [  0.3        -69.8116311 ]
 [  0.32341667  35.11126142]]","[[0.         1.77380832]
 [0.1        1.35747523]
 [0.2        1.74013371]
 [0.3        0.94808553]
 [0.32341667 0.23094119]]",1,1.574
8730571689,f,19,english,5,3,english,2024-01-25 10:40:25.221683,False,2,268,sounds\english\audio/english_684.wav,"[[  0.           0.36394418]
 [  0.1         28.47964645]
 [  0.2         60.47995017]
 [  0.3        -33.43266819]
 [  0.32341667 -31.86672206]]","[[0.         1.65924935]
 [0.1        1.32149406]
 [0.2        0.32417562]
 [0.3        1.42108385]
 [0.32341667 1.29243289]]",0,0.402
8730571689,f,19,english,5,3,english,2024-01-25 10:40:25.221683,False,2,269,sounds\english\audio/english_927.wav,"[[  0.          81.66311017]
 [  0.1          0.87570902]
 [  0.2        -59.21619647]
 [  0.3        -57.6787773 ]
 [  0.32341667 -30.87043146]]","[[0.         1.3783001 ]
 [0.1        0.51323502]
 [0.2        0.98265958]
 [0.3        0.30790993]
 [0.32341667 1.17222751]]",0,0.431
8730571689,f,19,english,5,3,english,2024-01-25 10:40:25.221683,False,2,270,sounds\english\audio/english_412.wav,"[[  0.         -82.38375592]
 [  0.1        -35.89348303]
 [  0.2        -78.50422887]
 [  0.3          8.19618882]
 [  0.32341667  88.30694734]]","[[0.         0.41347899]
 [0.1        0.05505218]
 [0.2        1.28972039]
 [0.3        0.97331843]
 [0.32341667 0.22558246]]",1,0.563
8730571689,f,19,english,5,3,english,2024-01-25 10:40:25.221683,False,2,271,sounds\english\audio/english_332.wav,"[[  0.         -51.41680869]
 [  0.1          4.985172  ]
 [  0.2         88.20327684]
 [  0.3        -58.40734817]
 [  0.32341667  68.30800912]]","[[0.         1.58782391]
 [0.1        0.72138411]
 [0.2        1.12265768]
 [0.3        0.23569111]
 [0.32341667 1.23583309]]",0,0.308
8730571689,f,19,english,5,3,english,2024-01-25 10:40:25.221683,False,2,272,sounds\english\audio/english_193.wav,"[[ 0.         98.63199606]
 [ 0.1        38.06859183]
 [ 0.2        58.19309996]
 [ 0.3        70.68425501]
 [ 0.32341667 89.06926868]]","[[0.         1.10219899]
 [0.1        1.75752318]
 [0.2        1.8701857 ]
 [0.3        1.90449871]
 [0.32341667 1.70479661]]",1,0.314
8730571689,f,19,english,5,3,english,2024-01-25 10:40:25.221683,False,2,273,sounds\english\audio/english_466.wav,"[[  0.          59.64739432]
 [  0.1        -20.63646321]
 [  0.2         62.86141463]
 [  0.3        -65.74461877]
 [  0.32341667  44.70090984]]","[[0.         1.91119383]
 [0.1        1.29572765]
 [0.2        0.99944191]
 [0.3        1.01221774]
 [0.32341667 0.89697717]]",0,0.535
8730571689,f,19,english,5,3,english,2024-01-25 10:40:25.221683,False,2,274,sounds\english\audio/english_113.wav,"[[  0.           8.7952765 ]
 [  0.1         91.94692023]
 [  0.2         -6.68088057]
 [  0.3         38.28142065]
 [  0.32341667 -37.19939988]]","[[0.         0.51001639]
 [0.1        1.45766025]
 [0.2        1.25674442]
 [0.3        1.93213547]
 [0.32341667 0.45590133]]",1,0.641
8730571689,f,19,english,5,3,english,2024-01-25 10:40:25.221683,False,2,275,sounds\english\audio/english_295.wav,"[[  0.         -76.51454746]
 [  0.1        -96.9380047 ]
 [  0.2        -72.79782389]
 [  0.3        -31.86888898]
 [  0.32341667 -51.47839766]]","[[0.         1.12273409]
 [0.1        0.2018376 ]
 [0.2        1.81703153]
 [0.3        0.31799467]
 [0.32341667 0.71777059]]",1,3.811
8730571689,f,19,english,5,3,english,2024-01-25 10:40:25.221683,False,2,276,sounds\english\audio/english_452.wav,"[[  0.         -15.91859121]
 [  0.1         66.54493607]
 [  0.2         49.2405228 ]
 [  0.3         -8.75382859]
 [  0.32341667 -35.51952716]]","[[0.         0.16050204]
 [0.1        1.05820221]
 [0.2        1.42476674]
 [0.3        0.48128336]
 [0.32341667 0.52453318]]",0,0.336
8730571689,f,19,english,5,3,english,2024-01-25 10:40:25.221683,False,2,277,sounds\english\audio/english_733.wav,"[[  0.         -77.09135463]
 [  0.1        -30.68901019]
 [  0.2        -27.18135709]
 [  0.3        -10.74804936]
 [  0.32341667 -57.14773718]]","[[0.         1.21028291]
 [0.1        1.14931675]
 [0.2        1.68866455]
 [0.3        0.29390693]
 [0.32341667 0.43305962]]",0,2.177
8730571689,f,19,english,5,3,english,2024-01-25 10:40:25.221683,False,2,278,sounds\english\audio/english_980.wav,"[[  0.         -32.33629208]
 [  0.1         -4.4140807 ]
 [  0.2         76.81412515]
 [  0.3        -16.24877133]
 [  0.32341667 -26.44128118]]","[[0.         1.21290567]
 [0.1        0.22350007]
 [0.2        1.68078519]
 [0.3        0.16816052]
 [0.32341667 1.48722631]]",1,2.125
8730571689,f,19,english,5,3,english,2024-01-25 10:40:25.221683,False,2,279,sounds\english\audio/english_31.wav,"[[  0.          21.28810337]
 [  0.1         68.821868  ]
 [  0.2        -73.02143346]
 [  0.3         68.60173581]
 [  0.32341667  51.47999234]]","[[0.         1.2057056 ]
 [0.1        0.99381392]
 [0.2        0.87600828]
 [0.3        1.15844697]
 [0.32341667 1.3722803 ]]",1,1.419
8730571689,f,19,english,5,3,english,2024-01-25 10:40:25.221683,False,2,280,sounds\english\audio/english_405.wav,"[[  0.         -94.88566807]
 [  0.1         45.39575719]
 [  0.2        -94.78509898]
 [  0.3         54.14618135]
 [  0.32341667 -20.18916124]]","[[0.         1.97726842]
 [0.1        1.2658567 ]
 [0.2        0.10443365]
 [0.3        0.24635614]
 [0.32341667 0.76836832]]",1,2.136
8730571689,f,19,english,5,3,english,2024-01-25 10:40:25.221683,False,2,281,sounds\english\audio/english_463.wav,"[[  0.         -17.89775534]
 [  0.1        -21.51631701]
 [  0.2        -12.53951077]
 [  0.3         33.47501925]
 [  0.32341667 -93.09525534]]","[[0.         1.84132871]
 [0.1        1.66361617]
 [0.2        0.64060514]
 [0.3        1.01091097]
 [0.32341667 0.69499506]]",0,0.119
8730571689,f,19,english,5,3,english,2024-01-25 10:40:25.221683,False,2,282,sounds\english\audio/english_805.wav,"[[  0.         -11.97504695]
 [  0.1         96.82911573]
 [  0.2          7.51835152]
 [  0.3          2.47378187]
 [  0.32341667 -43.26336213]]","[[0.         0.06029378]
 [0.1        0.81391401]
 [0.2        1.33531055]
 [0.3        1.7608484 ]
 [0.32341667 1.4289718 ]]",1,1.429
8730571689,f,19,english,5,3,english,2024-01-25 10:40:25.221683,False,2,283,sounds\english\audio/english_89.wav,"[[  0.         -42.28936571]
 [  0.1         12.96738115]
 [  0.2         -0.92476461]
 [  0.3         54.46155283]
 [  0.32341667  -5.27724964]]","[[0.         1.68633095]
 [0.1        0.49078122]
 [0.2        0.75584791]
 [0.3        1.37155139]
 [0.32341667 0.6613642 ]]",0,4.743
8730571689,f,19,english,5,3,english,2024-01-25 10:40:25.221683,False,2,284,sounds\english\audio/english_204.wav,"[[  0.          67.46317025]
 [  0.1         38.91463365]
 [  0.2        -85.28377865]
 [  0.3         55.65505401]
 [  0.32341667  56.32983288]]","[[0.         1.58701212]
 [0.1        1.82178317]
 [0.2        1.60361911]
 [0.3        0.21823774]
 [0.32341667 0.04661671]]",0,1.653
8730571689,f,19,english,5,3,english,2024-01-25 10:40:25.221683,False,2,285,sounds\english\audio/english_326.wav,"[[  0.         -13.70476372]
 [  0.1         47.7156259 ]
 [  0.2         23.24839736]
 [  0.3         67.08212267]
 [  0.32341667  78.79356023]]","[[0.         1.64570887]
 [0.1        0.91266102]
 [0.2        0.36997562]
 [0.3        1.96258237]
 [0.32341667 1.01334204]]",1,0.778
8730571689,f,19,english,5,3,english,2024-01-25 10:40:25.221683,False,2,286,sounds\english\audio/english_981.wav,"[[  0.         -19.49446297]
 [  0.1        -69.0386812 ]
 [  0.2        -25.77088537]
 [  0.3         65.67633712]
 [  0.32341667  -6.1640169 ]]","[[0.         1.96452006]
 [0.1        1.2006287 ]
 [0.2        0.98600753]
 [0.3        0.21362544]
 [0.32341667 0.33780549]]",1,2.165
8730571689,f,19,english,5,3,english,2024-01-25 10:40:25.221683,False,2,287,sounds\english\audio/english_774.wav,"[[  0.         -13.3479616 ]
 [  0.1        -18.75352159]
 [  0.2        -41.83192829]
 [  0.3         14.77986843]
 [  0.32341667  45.85609187]]","[[0.         1.45409172]
 [0.1        1.07775337]
 [0.2        0.61872946]
 [0.3        1.87871381]
 [0.32341667 1.0399825 ]]",0,0.863
8730571689,f,19,english,5,3,english,2024-01-25 10:40:25.221683,False,2,288,sounds\english\audio/english_401.wav,"[[  0.         -70.37998858]
 [  0.1         49.27188779]
 [  0.2          5.09566389]
 [  0.3         58.42368176]
 [  0.32341667 -43.06407799]]","[[0.         1.11338134]
 [0.1        1.59691292]
 [0.2        0.88679935]
 [0.3        1.89749174]
 [0.32341667 1.35831765]]",1,1.314
8730571689,f,19,english,5,3,english,2024-01-25 10:40:25.221683,False,2,289,sounds\english\audio/english_158.wav,"[[  0.          33.09785739]
 [  0.1        -85.08083727]
 [  0.2         97.70701203]
 [  0.3          2.54261044]
 [  0.32341667 -59.73934841]]","[[0.         1.71128449]
 [0.1        1.56145129]
 [0.2        0.69707892]
 [0.3        1.19647348]
 [0.32341667 1.17782448]]",1,0.703
8730571689,f,19,english,5,3,english,2024-01-25 10:40:25.221683,False,2,290,sounds\english\audio/english_76.wav,"[[  0.          24.78743387]
 [  0.1         -7.95135802]
 [  0.2         -9.56689875]
 [  0.3        -78.25819759]
 [  0.32341667  26.4311908 ]]","[[0.         1.26829138]
 [0.1        1.4446717 ]
 [0.2        0.88177173]
 [0.3        1.63003096]
 [0.32341667 1.97074408]]",0,0.253
8730571689,f,19,english,5,3,english,2024-01-25 10:40:25.221683,False,2,291,sounds\english\audio/english_981.wav,"[[  0.         -19.49446297]
 [  0.1        -69.0386812 ]
 [  0.2        -25.77088537]
 [  0.3         65.67633712]
 [  0.32341667  -6.1640169 ]]","[[0.         1.96452006]
 [0.1        1.2006287 ]
 [0.2        0.98600753]
 [0.3        0.21362544]
 [0.32341667 0.33780549]]",1,0.658
8730571689,f,19,english,5,3,english,2024-01-25 10:40:25.221683,False,2,292,sounds\english\audio/english_51.wav,"[[  0.          88.48054236]
 [  0.1        -53.5534646 ]
 [  0.2        -33.31344908]
 [  0.3         87.0533187 ]
 [  0.32341667 -16.55219825]]","[[0.         0.21487201]
 [0.1        0.90061677]
 [0.2        0.24834744]
 [0.3        1.31052611]
 [0.32341667 0.58644625]]",0,2.257
8730571689,f,19,english,5,3,english,2024-01-25 10:40:25.221683,False,2,293,sounds\english\audio/english_656.wav,"[[  0.          -4.15957802]
 [  0.1        -31.70283109]
 [  0.2        -35.90055673]
 [  0.3        -27.39202404]
 [  0.32341667  -5.54715508]]","[[0.         0.9962349 ]
 [0.1        1.16669679]
 [0.2        0.85512169]
 [0.3        1.68840921]
 [0.32341667 1.5699395 ]]",1,2.164
8730571689,f,19,english,5,3,english,2024-01-25 10:40:25.221683,False,2,294,sounds\english\audio/english_944.wav,"[[  0.          70.24274457]
 [  0.1        -48.79231442]
 [  0.2         -6.42324239]
 [  0.3         -7.7338836 ]
 [  0.32341667  69.46240638]]","[[0.         0.61048125]
 [0.1        1.63310511]
 [0.2        0.21687347]
 [0.3        0.45027042]
 [0.32341667 0.90306897]]",0,1.441
8730571689,f,19,english,5,3,english,2024-01-25 10:40:25.221683,False,2,295,sounds\english\audio/english_935.wav,"[[  0.          64.39543101]
 [  0.1         86.95314533]
 [  0.2        -18.93400703]
 [  0.3         36.25821345]
 [  0.32341667 -52.75689815]]","[[0.         0.53440609]
 [0.1        0.5847186 ]
 [0.2        0.87093815]
 [0.3        1.35336039]
 [0.32341667 1.46825192]]",1,0.822
8730571689,f,19,english,5,3,english,2024-01-25 10:40:25.221683,False,2,296,sounds\english\audio/english_422.wav,"[[  0.         -79.81150205]
 [  0.1         -2.02836706]
 [  0.2        -11.18998235]
 [  0.3         52.04958687]
 [  0.32341667 -63.48776447]]","[[0.         1.34332733]
 [0.1        0.77514932]
 [0.2        0.33214039]
 [0.3        0.53493982]
 [0.32341667 0.45685022]]",1,1.56
8730571689,f,19,english,5,3,english,2024-01-25 10:40:25.221683,False,2,297,sounds\english\audio/english_499.wav,"[[  0.         -62.75547094]
 [  0.1         28.73361796]
 [  0.2        -71.86053711]
 [  0.3        -44.40399931]
 [  0.32341667  -2.72335033]]","[[0.         0.4212983 ]
 [0.1        1.54082224]
 [0.2        1.07919976]
 [0.3        1.20425095]
 [0.32341667 0.4618338 ]]",0,0.218
8730571689,f,19,english,5,3,english,2024-01-25 10:40:25.221683,False,2,298,sounds\english\audio/english_272.wav,"[[  0.          61.82030971]
 [  0.1          4.16580657]
 [  0.2        -53.2567432 ]
 [  0.3        -52.99830768]
 [  0.32341667 -92.9943793 ]]","[[0.         1.51341556]
 [0.1        0.43290826]
 [0.2        1.82734584]
 [0.3        0.22094446]
 [0.32341667 1.88040337]]",1,3.931
8730571689,f,19,english,5,3,english,2024-01-25 10:40:25.221683,False,2,299,sounds\english\audio/english_830.wav,"[[  0.           2.63258607]
 [  0.1        -31.8387274 ]
 [  0.2         -6.78563658]
 [  0.3        -57.52390495]
 [  0.32341667  51.13575953]]","[[0.         0.89301132]
 [0.1        1.32560067]
 [0.2        1.08718884]
 [0.3        0.53430446]
 [0.32341667 0.53816607]]",0,0.995
8730571689,f,19,english,5,3,english,2024-01-25 10:40:25.221683,False,2,300,sounds\english\audio/english_245.wav,"[[  0.          74.89239003]
 [  0.1         41.98679172]
 [  0.2         99.42105985]
 [  0.3        -75.11958538]
 [  0.32341667 -62.10664415]]","[[0.         1.30710747]
 [0.1        0.93119149]
 [0.2        1.84379828]
 [0.3        1.72828743]
 [0.32341667 0.50124118]]",1,1.598
8730571689,f,19,english,5,3,english,2024-01-25 10:40:25.221683,False,2,301,sounds\english\audio/english_551.wav,"[[  0.          51.69986033]
 [  0.1        -91.31948841]
 [  0.2         12.24586311]
 [  0.3        -52.90680215]
 [  0.32341667 -27.23325687]]","[[0.         0.0331047 ]
 [0.1        0.51079487]
 [0.2        1.83581854]
 [0.3        0.12201236]
 [0.32341667 1.55189277]]",1,0.535
8730571689,f,19,english,5,3,english,2024-01-25 10:40:25.221683,False,2,302,sounds\english\audio/english_239.wav,"[[  0.          87.44943986]
 [  0.1         50.09814929]
 [  0.2        -20.91132269]
 [  0.3          1.56869958]
 [  0.32341667  15.23790706]]","[[0.         1.42022081]
 [0.1        0.64261102]
 [0.2        0.17156284]
 [0.3        1.89365974]
 [0.32341667 1.86939691]]",0,0.856
8730571689,f,19,english,5,3,english,2024-01-25 10:40:25.221683,False,2,303,sounds\english\audio/english_621.wav,"[[  0.         -58.25251841]
 [  0.1         21.8974524 ]
 [  0.2        -22.03552483]
 [  0.3        -56.80446909]
 [  0.32341667 -23.41760562]]","[[0.         1.01186344]
 [0.1        1.03560921]
 [0.2        0.97057504]
 [0.3        1.33131235]
 [0.32341667 0.49151525]]",1,4.771
8730571689,f,19,english,5,3,english,2024-01-25 10:40:25.221683,False,2,304,sounds\english\audio/english_483.wav,"[[  0.          -5.76716701]
 [  0.1         70.49761143]
 [  0.2        -45.60331281]
 [  0.3         83.6717315 ]
 [  0.32341667 -49.24362833]]","[[0.         0.46419013]
 [0.1        1.51640771]
 [0.2        0.16811565]
 [0.3        0.53401791]
 [0.32341667 1.0404632 ]]",0,0.33
8730571689,f,19,english,5,3,english,2024-01-25 10:40:25.221683,False,2,305,sounds\english\audio/english_611.wav,"[[  0.           4.04989913]
 [  0.1        -26.35519993]
 [  0.2        -41.22744209]
 [  0.3        -72.41198747]
 [  0.32341667 -60.09703168]]","[[0.         1.48647041]
 [0.1        0.87297853]
 [0.2        0.91907267]
 [0.3        0.12624761]
 [0.32341667 0.964981  ]]",0,0.202
8730571689,f,19,english,5,3,english,2024-01-25 10:40:25.221683,False,2,306,sounds\english\audio/english_597.wav,"[[  0.         -83.66792118]
 [  0.1        -19.98744657]
 [  0.2        -30.38458549]
 [  0.3        -63.4406446 ]
 [  0.32341667  25.67812426]]","[[0.         0.17389721]
 [0.1        0.39349672]
 [0.2        1.97590818]
 [0.3        1.84988074]
 [0.32341667 1.17620678]]",0,3.001
8730571689,f,19,english,5,3,english,2024-01-25 10:40:25.221683,False,2,307,sounds\english\audio/english_743.wav,"[[  0.         -28.24983145]
 [  0.1         71.30498545]
 [  0.2        -89.00652632]
 [  0.3          3.43441779]
 [  0.32341667 -16.71659348]]","[[0.         1.42102626]
 [0.1        0.84283155]
 [0.2        0.82757129]
 [0.3        1.38808557]
 [0.32341667 0.28501565]]",1,4.748
8730571689,f,19,english,5,3,english,2024-01-25 10:40:25.221683,False,2,308,sounds\english\audio/english_248.wav,"[[  0.          62.49888219]
 [  0.1        -37.43052778]
 [  0.2         50.26474258]
 [  0.3        -90.47385391]
 [  0.32341667 -16.4169983 ]]","[[0.         0.01612638]
 [0.1        0.65001727]
 [0.2        1.10053755]
 [0.3        0.93833438]
 [0.32341667 1.90627888]]",1,3.643
8730571689,f,19,english,5,3,english,2024-01-25 10:40:25.221683,False,2,309,sounds\english\audio/english_882.wav,"[[  0.         -42.93700265]
 [  0.1        -62.35786663]
 [  0.2        -16.20482572]
 [  0.3        -46.49020195]
 [  0.32341667 -64.89408339]]","[[0.         1.06489748]
 [0.1        1.38883859]
 [0.2        0.28843799]
 [0.3        1.05408179]
 [0.32341667 1.78517837]]",1,3.373
8730571689,f,19,english,5,3,english,2024-01-25 10:40:25.221683,False,2,310,sounds\english\audio/english_612.wav,"[[  0.         -84.32217164]
 [  0.1         36.55311424]
 [  0.2         92.38334081]
 [  0.3         11.68953794]
 [  0.32341667  43.3279226 ]]","[[0.         1.34068621]
 [0.1        0.03443149]
 [0.2        0.45903509]
 [0.3        0.60209198]
 [0.32341667 0.29533154]]",0,0.427
8730571689,f,19,english,5,3,english,2024-01-25 10:40:25.221683,False,2,311,sounds\english\audio/english_883.wav,"[[  0.         -17.60743744]
 [  0.1        -37.46625877]
 [  0.2         55.1108939 ]
 [  0.3         87.45591348]
 [  0.32341667 -90.78539671]]","[[0.         1.86037562]
 [0.1        0.9331332 ]
 [0.2        1.34322635]
 [0.3        0.07818604]
 [0.32341667 1.31446095]]",0,3.307
8730571689,f,19,english,5,3,english,2024-01-25 10:40:25.221683,False,2,312,sounds\english\audio/english_896.wav,"[[  0.         -76.63716622]
 [  0.1        -73.11298951]
 [  0.2         48.53347054]
 [  0.3         -4.46661278]
 [  0.32341667 -44.69533701]]","[[0.         1.08893336]
 [0.1        0.41748987]
 [0.2        0.32012442]
 [0.3        0.63387312]
 [0.32341667 1.27766005]]",1,1.215
8730571689,f,19,english,5,3,english,2024-01-25 10:40:25.221683,False,2,313,sounds\english\audio/english_104.wav,"[[  0.          42.44693926]
 [  0.1         82.22484934]
 [  0.2          7.21737924]
 [  0.3         26.54640215]
 [  0.32341667 -33.4974026 ]]","[[0.         0.1741435 ]
 [0.1        0.11379641]
 [0.2        1.60376175]
 [0.3        1.08059257]
 [0.32341667 1.8061622 ]]",1,1.157
8730571689,f,19,english,5,3,english,2024-01-25 10:40:25.221683,False,2,314,sounds\english\audio/english_7.wav,"[[  0.         -21.06405819]
 [  0.1         52.71042782]
 [  0.2        -75.60464889]
 [  0.3        -40.56941306]
 [  0.32341667  63.70656894]]","[[0.         1.08184232]
 [0.1        0.36719269]
 [0.2        0.43185312]
 [0.3        0.01474265]
 [0.32341667 0.90880476]]",0,1.269
8730571689,f,19,english,5,3,english,2024-01-25 10:40:25.221683,False,2,315,sounds\english\audio/english_26.wav,"[[  0.          54.38966875]
 [  0.1          0.3460174 ]
 [  0.2        -72.33258957]
 [  0.3         67.09142092]
 [  0.32341667  16.00565239]]","[[0.         1.86679487]
 [0.1        0.79762949]
 [0.2        0.93682052]
 [0.3        1.42469209]
 [0.32341667 1.17807545]]",0,1.139
8730571689,f,19,english,5,3,english,2024-01-25 10:40:25.221683,False,2,316,sounds\english\audio/english_873.wav,"[[  0.          85.43762199]
 [  0.1        -27.24751419]
 [  0.2         -8.79829555]
 [  0.3        -97.88620301]
 [  0.32341667  49.57089273]]","[[0.         1.00056931]
 [0.1        0.47504393]
 [0.2        0.788147  ]
 [0.3        0.64075463]
 [0.32341667 0.87603086]]",1,1.133
8730571689,f,19,english,5,3,english,2024-01-25 10:40:25.221683,False,2,317,sounds\english\audio/english_783.wav,"[[ 0.         23.05268069]
 [ 0.1         9.36005369]
 [ 0.2        62.81522218]
 [ 0.3        67.71456376]
 [ 0.32341667 77.96788237]]","[[0.         1.49549247]
 [0.1        0.13797177]
 [0.2        1.80236654]
 [0.3        0.33800471]
 [0.32341667 1.97708045]]",0,2.775
8730571689,f,19,english,5,3,english,2024-01-25 10:40:25.221683,False,2,318,sounds\english\audio/english_30.wav,"[[  0.         -18.5398728 ]
 [  0.1        -67.34991207]
 [  0.2         65.54879707]
 [  0.3         30.88088319]
 [  0.32341667  50.60550813]]","[[0.         0.31748681]
 [0.1        1.82477139]
 [0.2        1.59992979]
 [0.3        0.89523729]
 [0.32341667 1.02052202]]",0,1.035
8730571689,f,19,english,5,3,english,2024-01-25 10:40:25.221683,False,2,319,sounds\english\audio/english_127.wav,"[[  0.         -69.70750805]
 [  0.1        -23.17484413]
 [  0.2         16.27024862]
 [  0.3        -50.08342814]
 [  0.32341667  22.60332787]]","[[0.         0.25070661]
 [0.1        1.1475992 ]
 [0.2        1.99299371]
 [0.3        0.57749513]
 [0.32341667 1.27832678]]",0,0.718
8730571689,f,19,english,5,3,english,2024-01-25 10:40:25.221683,False,2,320,sounds\english\audio/english_967.wav,"[[  0.         -33.19777689]
 [  0.1         83.84847924]
 [  0.2         81.27362124]
 [  0.3         22.78466805]
 [  0.32341667  16.56894366]]","[[0.         0.76720641]
 [0.1        1.4094361 ]
 [0.2        0.74435637]
 [0.3        0.29904584]
 [0.32341667 0.47687807]]",1,0.89
8730571689,f,19,english,5,3,english,2024-01-25 10:40:25.221683,False,2,321,sounds\english\audio/english_854.wav,"[[  0.          -3.2532791 ]
 [  0.1         19.40039505]
 [  0.2        -14.62360686]
 [  0.3        -63.13820282]
 [  0.32341667  44.42181264]]","[[0.         1.78139632]
 [0.1        1.50161717]
 [0.2        0.8978804 ]
 [0.3        1.66267041]
 [0.32341667 1.68588082]]",1,0.952
8730571689,f,19,english,5,3,english,2024-01-25 10:40:25.221683,False,2,322,sounds\english\audio/english_851.wav,"[[  0.         -83.90491711]
 [  0.1         92.94065497]
 [  0.2        -63.47542883]
 [  0.3         13.34025436]
 [  0.32341667  32.96474042]]","[[0.         1.65488062]
 [0.1        0.14315595]
 [0.2        0.84481863]
 [0.3        1.9580918 ]
 [0.32341667 0.23608581]]",0,0.376
8730571689,f,19,english,5,3,english,2024-01-25 10:40:25.221683,False,2,323,sounds\english\audio/english_639.wav,"[[  0.          -8.64176861]
 [  0.1         -2.28240571]
 [  0.2         61.07673865]
 [  0.3        -20.33592136]
 [  0.32341667 -24.05835486]]","[[0.         1.80061108]
 [0.1        0.32075858]
 [0.2        0.35362442]
 [0.3        1.48415136]
 [0.32341667 0.14560931]]",1,0.582
8730571689,f,19,english,5,3,english,2024-01-25 10:40:25.221683,False,2,324,sounds\english\audio/english_13.wav,"[[  0.          85.79405153]
 [  0.1        -22.00296346]
 [  0.2         45.89988476]
 [  0.3        -17.47250281]
 [  0.32341667 -30.34546067]]","[[0.         0.93145275]
 [0.1        0.69811424]
 [0.2        1.08090206]
 [0.3        0.35305012]
 [0.32341667 0.65915907]]",0,0.742
8730571689,f,19,english,5,3,english,2024-01-25 10:40:25.221683,False,2,325,sounds\english\audio/english_977.wav,"[[  0.          63.46196139]
 [  0.1        -23.64022125]
 [  0.2         31.65242203]
 [  0.3         16.19881364]
 [  0.32341667 -33.08554183]]","[[0.         0.87194913]
 [0.1        1.67919547]
 [0.2        0.97011806]
 [0.3        1.40431802]
 [0.32341667 1.02563167]]",0,0.22
8730571689,f,19,english,5,3,english,2024-01-25 10:40:25.221683,False,2,326,sounds\english\audio/english_102.wav,"[[  0.          32.71328306]
 [  0.1         59.73255369]
 [  0.2         -0.64397298]
 [  0.3        -37.18099902]
 [  0.32341667  41.63197766]]","[[0.         1.2311829 ]
 [0.1        0.25599615]
 [0.2        1.7526023 ]
 [0.3        1.98319627]
 [0.32341667 1.38410598]]",1,0.072
8730571689,f,19,english,5,3,english,2024-01-25 10:40:25.221683,False,2,327,sounds\english\audio/english_92.wav,"[[  0.          31.88505953]
 [  0.1         -5.62534355]
 [  0.2        -66.19250112]
 [  0.3        -77.62644198]
 [  0.32341667 -66.61656061]]","[[0.         1.50112375]
 [0.1        0.35596674]
 [0.2        1.12270031]
 [0.3        1.09837269]
 [0.32341667 1.16274455]]",0,0.66
8730571689,f,19,english,5,3,english,2024-01-25 10:40:25.221683,False,2,328,sounds\english\audio/english_575.wav,"[[  0.          61.73461998]
 [  0.1        -88.57549656]
 [  0.2        -30.88461278]
 [  0.3        -63.73327026]
 [  0.32341667  -0.55806298]]","[[0.         1.8510319 ]
 [0.1        1.54102878]
 [0.2        1.19801244]
 [0.3        1.20026237]
 [0.32341667 1.04112184]]",1,1.133
8730571689,f,19,english,5,3,english,2024-01-25 10:40:25.221683,False,2,329,sounds\english\audio/english_312.wav,"[[  0.          44.01610098]
 [  0.1        -34.76139374]
 [  0.2        -43.47986862]
 [  0.3         -9.79517271]
 [  0.32341667  85.48914895]]","[[0.         1.36033213]
 [0.1        0.08557756]
 [0.2        1.06509633]
 [0.3        0.67257935]
 [0.32341667 0.12614926]]",0,0.439
8730571689,f,19,english,5,3,english,2024-01-25 10:40:25.221683,False,2,330,sounds\english\audio/english_15.wav,"[[  0.         -84.2209614 ]
 [  0.1         62.09656714]
 [  0.2         55.13992629]
 [  0.3        -55.71077558]
 [  0.32341667  77.6678018 ]]","[[0.         0.31323186]
 [0.1        0.60538609]
 [0.2        0.21165259]
 [0.3        0.62501131]
 [0.32341667 0.97290752]]",1,0.367
8730571689,f,19,english,5,3,english,2024-01-25 10:40:25.221683,False,2,331,sounds\english\audio/english_460.wav,"[[  0.         -93.21492338]
 [  0.1        -65.59669931]
 [  0.2         76.47030005]
 [  0.3        -24.62267943]
 [  0.32341667  17.6428759 ]]","[[0.         1.97422145]
 [0.1        0.48313428]
 [0.2        0.91916034]
 [0.3        0.34121923]
 [0.32341667 0.75894887]]",0,0.643
8730571689,f,19,english,5,3,english,2024-01-25 10:40:25.221683,False,2,332,sounds\english\audio/english_323.wav,"[[  0.          92.33188111]
 [  0.1          4.22577609]
 [  0.2        -35.48560344]
 [  0.3          7.73763769]
 [  0.32341667  55.62458321]]","[[0.         1.59668922]
 [0.1        1.75306106]
 [0.2        1.06071567]
 [0.3        1.9328625 ]
 [0.32341667 1.27347405]]",0,0.342
8730571689,f,19,english,5,3,english,2024-01-25 10:40:25.221683,False,2,333,sounds\english\audio/english_322.wav,"[[  0.         -27.28438319]
 [  0.1        -98.66999083]
 [  0.2        -54.08694108]
 [  0.3         -7.3933801 ]
 [  0.32341667  72.49489683]]","[[0.         0.79345249]
 [0.1        0.28651419]
 [0.2        1.26482546]
 [0.3        0.6947791 ]
 [0.32341667 0.74875353]]",0,0.971
8730571689,f,19,english,5,3,english,2024-01-25 10:40:25.221683,False,2,334,sounds\english\audio/english_7.wav,"[[  0.         -21.06405819]
 [  0.1         52.71042782]
 [  0.2        -75.60464889]
 [  0.3        -40.56941306]
 [  0.32341667  63.70656894]]","[[0.         1.08184232]
 [0.1        0.36719269]
 [0.2        0.43185312]
 [0.3        0.01474265]
 [0.32341667 0.90880476]]",1,0.421
8730571689,f,19,english,5,3,english,2024-01-25 10:40:25.221683,False,2,335,sounds\english\audio/english_59.wav,"[[  0.          30.26604033]
 [  0.1         25.69112756]
 [  0.2        -24.85549033]
 [  0.3        -31.2790444 ]
 [  0.32341667  86.30355152]]","[[0.         1.5973148 ]
 [0.1        0.24758472]
 [0.2        0.1547886 ]
 [0.3        0.30754036]
 [0.32341667 0.40312024]]",1,2.464
8730571689,f,19,english,5,3,english,2024-01-25 10:40:25.221683,False,2,336,sounds\english\audio/english_383.wav,"[[  0.          -1.49759031]
 [  0.1         48.0809444 ]
 [  0.2        -84.09524499]
 [  0.3         95.23220486]
 [  0.32341667  64.91086902]]","[[0.         0.61403304]
 [0.1        0.69225556]
 [0.2        0.33452268]
 [0.3        1.06792504]
 [0.32341667 0.58483827]]",1,0.377
8730571689,f,19,english,5,3,english,2024-01-25 10:40:25.221683,False,2,337,sounds\english\audio/english_837.wav,"[[  0.         -10.72674788]
 [  0.1         33.60933966]
 [  0.2         -1.37827911]
 [  0.3         29.3498758 ]
 [  0.32341667  31.86641091]]","[[0.         0.56055933]
 [0.1        1.16716927]
 [0.2        1.02731607]
 [0.3        1.96665864]
 [0.32341667 0.45425732]]",0,0.376
8730571689,f,19,english,5,3,english,2024-01-25 10:40:25.221683,False,2,338,sounds\english\audio/english_220.wav,"[[  0.         -49.83323752]
 [  0.1         49.13629021]
 [  0.2         10.673463  ]
 [  0.3         -2.35218347]
 [  0.32341667  -2.61587219]]","[[0.         1.6244524 ]
 [0.1        0.7812698 ]
 [0.2        1.29736816]
 [0.3        1.3419496 ]
 [0.32341667 1.06575232]]",0,1.162
8730571689,f,19,english,5,3,english,2024-01-25 10:40:25.221683,False,2,339,sounds\english\audio/english_243.wav,"[[  0.         -74.41503345]
 [  0.1        -16.65530333]
 [  0.2         -1.41224798]
 [  0.3         37.30419975]
 [  0.32341667  -3.40378668]]","[[0.         0.65151457]
 [0.1        0.20623253]
 [0.2        0.87153721]
 [0.3        0.28583671]
 [0.32341667 1.90700275]]",1,0.828
8730571689,f,19,english,5,3,english,2024-01-25 10:40:25.221683,False,2,340,sounds\english\audio/english_206.wav,"[[  0.          29.86029141]
 [  0.1        -65.49550847]
 [  0.2         -8.37849199]
 [  0.3         16.32170521]
 [  0.32341667 -96.55544023]]","[[0.         0.9413203 ]
 [0.1        1.58501733]
 [0.2        1.84833856]
 [0.3        1.12864021]
 [0.32341667 0.85017735]]",0,1.414
8730571689,f,19,english,5,3,english,2024-01-25 10:40:25.221683,False,2,341,sounds\english\audio/english_299.wav,"[[  0.          -2.55977829]
 [  0.1          1.77446255]
 [  0.2        -18.83457859]
 [  0.3        -71.88845024]
 [  0.32341667  99.76623745]]","[[0.         0.95716625]
 [0.1        1.43363845]
 [0.2        1.1421669 ]
 [0.3        1.57148089]
 [0.32341667 1.70410623]]",0,0.902
8730571689,f,19,english,5,3,english,2024-01-25 10:40:25.221683,False,2,342,sounds\english\audio/english_146.wav,"[[  0.          -7.47107612]
 [  0.1        -10.73298436]
 [  0.2         -4.63341632]
 [  0.3         14.65491039]
 [  0.32341667  19.96333333]]","[[0.         0.36907021]
 [0.1        0.24473139]
 [0.2        1.01983542]
 [0.3        0.62607899]
 [0.32341667 1.1005899 ]]",1,0.963
8730571689,f,19,english,5,3,english,2024-01-25 10:40:25.221683,False,2,343,sounds\english\audio/english_579.wav,"[[  0.          78.52989573]
 [  0.1        -26.17758211]
 [  0.2        -65.60231522]
 [  0.3        -66.03357835]
 [  0.32341667 -36.23940811]]","[[0.         1.74799876]
 [0.1        0.36264633]
 [0.2        1.15645327]
 [0.3        1.81639149]
 [0.32341667 1.38509752]]",0,0.551
8730571689,f,19,english,5,3,english,2024-01-25 10:40:25.221683,False,2,344,sounds\english\audio/english_962.wav,"[[  0.         -55.512918  ]
 [  0.1         90.34773129]
 [  0.2         -3.10818459]
 [  0.3         50.27619033]
 [  0.32341667 -47.3196173 ]]","[[0.         1.78332996]
 [0.1        1.25956614]
 [0.2        0.72891593]
 [0.3        1.49954356]
 [0.32341667 0.96339983]]",0,1.345
8730571689,f,19,english,5,3,english,2024-01-25 10:40:25.221683,False,2,345,sounds\english\audio/english_363.wav,"[[  0.          -8.62246293]
 [  0.1        -37.95317313]
 [  0.2        -98.56362786]
 [  0.3         79.4101663 ]
 [  0.32341667 -19.01593507]]","[[0.         0.22304778]
 [0.1        0.51009023]
 [0.2        1.67320701]
 [0.3        0.32318158]
 [0.32341667 1.23606141]]",0,0.812
8730571689,f,19,english,5,3,english,2024-01-25 10:40:25.221683,False,2,346,sounds\english\audio/english_328.wav,"[[  0.         -24.96515822]
 [  0.1         36.64267249]
 [  0.2        -93.60804347]
 [  0.3          9.86556644]
 [  0.32341667 -17.13685423]]","[[0.         0.68772771]
 [0.1        0.30369637]
 [0.2        1.16330199]
 [0.3        0.69001341]
 [0.32341667 0.54642887]]",0,1.797
8730571689,f,19,english,5,3,english,2024-01-25 10:40:25.221683,False,2,347,sounds\english\audio/english_531.wav,"[[  0.         -79.40575395]
 [  0.1         24.69139357]
 [  0.2         31.85465478]
 [  0.3          0.37788074]
 [  0.32341667 -42.85922685]]","[[0.         0.23141906]
 [0.1        1.34739197]
 [0.2        0.44473315]
 [0.3        1.31624907]
 [0.32341667 0.82105614]]",1,0.424
8730571689,f,19,english,5,3,english,2024-01-25 10:40:25.221683,False,2,348,sounds\english\audio/english_666.wav,"[[  0.          -6.63307831]
 [  0.1        -47.66524373]
 [  0.2         66.93817534]
 [  0.3         -1.338646  ]
 [  0.32341667 -14.31927765]]","[[0.         0.44221414]
 [0.1        1.62559692]
 [0.2        0.27313334]
 [0.3        0.46846925]
 [0.32341667 1.08883823]]",1,0.329
8730571689,f,19,english,5,3,english,2024-01-25 10:40:25.221683,False,2,349,sounds\english\audio/english_74.wav,"[[  0.          86.29588785]
 [  0.1        -14.52381687]
 [  0.2         77.94321906]
 [  0.3        -32.33104188]
 [  0.32341667   9.46602754]]","[[0.         1.196208  ]
 [0.1        1.63208143]
 [0.2        0.46125368]
 [0.3        1.38278461]
 [0.32341667 0.83147108]]",0,0.361
8730571689,f,19,english,5,3,english,2024-01-25 10:40:25.221683,False,2,350,sounds\english\audio/english_336.wav,"[[  0.          29.43389708]
 [  0.1        -98.82505887]
 [  0.2         33.95949266]
 [  0.3        -57.79711044]
 [  0.32341667  81.65015026]]","[[0.         1.05594545]
 [0.1        1.57774783]
 [0.2        1.35373128]
 [0.3        1.04960404]
 [0.32341667 0.39151968]]",0,0.426
8730571689,f,19,english,5,3,english,2024-01-25 10:40:25.221683,False,2,351,sounds\english\audio/english_747.wav,"[[  0.         -77.73977436]
 [  0.1        -18.96284798]
 [  0.2        -36.55549612]
 [  0.3         89.20291952]
 [  0.32341667 -97.78574386]]","[[0.         1.00478752]
 [0.1        0.15717617]
 [0.2        1.90654565]
 [0.3        0.7651101 ]
 [0.32341667 0.92755825]]",0,0.669
8730571689,f,19,english,5,3,english,2024-01-25 10:40:25.221683,False,2,352,sounds\english\audio/english_227.wav,"[[  0.         -56.39318384]
 [  0.1         90.87442764]
 [  0.2        -39.94082392]
 [  0.3         31.5093861 ]
 [  0.32341667  70.38847456]]","[[0.         1.7541365 ]
 [0.1        0.66011804]
 [0.2        0.16454365]
 [0.3        0.63744506]
 [0.32341667 0.55874538]]",0,0.825
8730571689,f,19,english,5,3,english,2024-01-25 10:40:25.221683,False,2,353,sounds\english\audio/english_827.wav,"[[  0.         -49.24128803]
 [  0.1         62.6158679 ]
 [  0.2        -85.72053716]
 [  0.3        -65.54354982]
 [  0.32341667 -42.30235352]]","[[0.         1.70838213]
 [0.1        0.88048656]
 [0.2        1.47530841]
 [0.3        0.04991031]
 [0.32341667 0.1531298 ]]",0,0.983
8730571689,f,19,english,5,3,english,2024-01-25 10:40:25.221683,False,2,354,sounds\english\audio/english_775.wav,"[[ 0.         58.00753923]
 [ 0.1        88.61433734]
 [ 0.2        97.9031651 ]
 [ 0.3        14.61974867]
 [ 0.32341667 -5.44703254]]","[[0.         1.75560269]
 [0.1        0.86519841]
 [0.2        0.93867241]
 [0.3        1.86901891]
 [0.32341667 0.0946911 ]]",1,0.185
8730571689,f,19,english,5,3,english,2024-01-25 10:40:25.221683,False,2,355,sounds\english\audio/english_732.wav,"[[  0.         -12.49530298]
 [  0.1         77.35683448]
 [  0.2         46.14200593]
 [  0.3        -17.19403126]
 [  0.32341667 -81.60069167]]","[[0.         1.28394154]
 [0.1        1.95772399]
 [0.2        1.14408971]
 [0.3        0.21034957]
 [0.32341667 0.50538316]]",1,0.735
8730571689,f,19,english,5,3,english,2024-01-25 10:40:25.221683,False,2,356,sounds\english\audio/english_60.wav,"[[  0.          82.53369854]
 [  0.1         60.14491878]
 [  0.2        -26.84704149]
 [  0.3        -19.8784386 ]
 [  0.32341667 -26.04492652]]","[[0.         0.66834278]
 [0.1        1.16350573]
 [0.2        1.24827189]
 [0.3        0.70182905]
 [0.32341667 0.20173025]]",0,0.275
8730571689,f,19,english,5,3,english,2024-01-25 10:40:25.221683,False,2,357,sounds\english\audio/english_268.wav,"[[  0.          55.18591224]
 [  0.1         47.37483414]
 [  0.2         46.97410588]
 [  0.3        -64.08979313]
 [  0.32341667  35.8590447 ]]","[[0.         1.47327052]
 [0.1        0.95932673]
 [0.2        1.80275919]
 [0.3        1.6474991 ]
 [0.32341667 1.56533667]]",1,0.241
8730571689,f,19,english,5,3,english,2024-01-25 10:40:25.221683,False,2,358,sounds\english\audio/english_529.wav,"[[  0.          13.90759343]
 [  0.1        -33.526088  ]
 [  0.2        -34.32120589]
 [  0.3        -18.30112723]
 [  0.32341667  16.4796061 ]]","[[0.         0.83001961]
 [0.1        0.02518437]
 [0.2        1.61112877]
 [0.3        0.91948239]
 [0.32341667 0.33204613]]",0,0.389
8730571689,f,19,english,5,3,english,2024-01-25 10:40:25.221683,False,2,359,sounds\english\audio/english_634.wav,"[[  0.         -94.29539956]
 [  0.1         28.41708136]
 [  0.2        -99.13935281]
 [  0.3        -78.11216949]
 [  0.32341667 -54.5881907 ]]","[[0.         0.6011183 ]
 [0.1        1.15242669]
 [0.2        0.68826906]
 [0.3        1.44169335]
 [0.32341667 0.90266094]]",1,0.184
8730571689,f,19,english,5,3,english,2024-01-25 10:40:25.221683,False,2,360,sounds\english\audio/english_249.wav,"[[  0.          78.40227579]
 [  0.1        -55.1129652 ]
 [  0.2          6.74447168]
 [  0.3         27.3376716 ]
 [  0.32341667 -97.08031886]]","[[0.         1.91339694]
 [0.1        1.00834957]
 [0.2        0.29418026]
 [0.3        1.53256547]
 [0.32341667 0.99264532]]",0,0.187
8730571689,f,19,english,5,3,english,2024-01-25 10:40:25.221683,False,2,361,sounds\english\audio/english_20.wav,"[[  0.         -56.6830557 ]
 [  0.1         50.66790367]
 [  0.2        -18.96445326]
 [  0.3        -25.44345058]
 [  0.32341667  12.75548414]]","[[0.         0.06363068]
 [0.1        1.80739158]
 [0.2        1.41045117]
 [0.3        0.2049667 ]
 [0.32341667 0.27136646]]",1,0.326
8730571689,f,19,english,5,3,english,2024-01-25 10:40:25.221683,False,2,362,sounds\english\audio/english_648.wav,"[[  0.         -36.17742204]
 [  0.1         30.10697278]
 [  0.2        -67.31320052]
 [  0.3        -10.94597212]
 [  0.32341667  72.59648235]]","[[0.         0.57576188]
 [0.1        1.1310908 ]
 [0.2        1.67112441]
 [0.3        0.39641968]
 [0.32341667 1.93789316]]",0,0.417
8730571689,f,19,english,5,3,english,2024-01-25 10:40:25.221683,False,2,363,sounds\english\audio/english_576.wav,"[[  0.          70.71636046]
 [  0.1        -53.10414049]
 [  0.2         34.4374047 ]
 [  0.3         19.64113521]
 [  0.32341667  36.63265498]]","[[0.         1.40655209]
 [0.1        0.7609351 ]
 [0.2        1.0155723 ]
 [0.3        1.45906276]
 [0.32341667 1.49724695]]",1,0.327
8730571689,f,19,english,5,3,english,2024-01-25 10:40:25.221683,False,2,364,sounds\english\audio/english_315.wav,"[[  0.           3.76150079]
 [  0.1          4.93204799]
 [  0.2        -81.53480532]
 [  0.3         45.94577355]
 [  0.32341667 -55.96194099]]","[[0.         1.04293113]
 [0.1        0.55537984]
 [0.2        1.13024782]
 [0.3        1.06792043]
 [0.32341667 1.80369969]]",0,0.263
8730571689,f,19,english,5,3,english,2024-01-25 10:40:25.221683,False,2,365,sounds\english\audio/english_226.wav,"[[  0.         -56.53605181]
 [  0.1         -5.93547338]
 [  0.2        -81.0596442 ]
 [  0.3        -12.14261426]
 [  0.32341667  40.67667876]]","[[0.         0.51185795]
 [0.1        0.73377568]
 [0.2        1.62034912]
 [0.3        0.19474782]
 [0.32341667 0.1395898 ]]",0,0.285
8730571689,f,19,english,5,3,english,2024-01-25 10:40:25.221683,False,2,366,sounds\english\audio/english_143.wav,"[[  0.         -40.90047407]
 [  0.1        -35.35291254]
 [  0.2         36.32983964]
 [  0.3         -7.67980486]
 [  0.32341667 -89.59854269]]","[[0.         0.05812512]
 [0.1        0.81203879]
 [0.2        0.61124866]
 [0.3        0.41683772]
 [0.32341667 1.86697452]]",1,0.629
8730571689,f,19,english,5,3,english,2024-01-25 10:40:25.221683,False,2,367,sounds\english\audio/english_163.wav,"[[  0.         -28.85321754]
 [  0.1          9.37410395]
 [  0.2        -43.22266742]
 [  0.3         48.63715122]
 [  0.32341667 -94.22333204]]","[[0.         1.43434597]
 [0.1        1.75766865]
 [0.2        0.90391943]
 [0.3        1.21743426]
 [0.32341667 1.8516503 ]]",0,0.571
8730571689,f,19,english,5,3,english,2024-01-25 10:40:25.221683,False,2,368,sounds\english\audio/english_850.wav,"[[  0.          79.79173837]
 [  0.1        -44.24877139]
 [  0.2         74.77623955]
 [  0.3        -86.32612653]
 [  0.32341667 -11.10230867]]","[[0.         1.46721922]
 [0.1        0.57242606]
 [0.2        0.15597525]
 [0.3        1.3358867 ]
 [0.32341667 1.14618682]]",1,0.481
8730571689,f,19,english,5,3,english,2024-01-25 10:40:25.221683,False,2,369,sounds\english\audio/english_722.wav,"[[  0.          56.33358757]
 [  0.1        -63.11389498]
 [  0.2         65.64746862]
 [  0.3        -93.10605514]
 [  0.32341667 -45.92743551]]","[[0.         0.09194264]
 [0.1        1.89550133]
 [0.2        0.18403216]
 [0.3        1.23223326]
 [0.32341667 0.28331892]]",0,0.274
8730571689,f,19,english,5,3,english,2024-01-25 10:40:25.221683,False,2,370,sounds\english\audio/english_890.wav,"[[  0.         -68.21158685]
 [  0.1        -83.19360642]
 [  0.2         79.13343252]
 [  0.3         80.54326003]
 [  0.32341667 -30.48737523]]","[[0.         0.82535308]
 [0.1        1.79167423]
 [0.2        0.78297904]
 [0.3        0.23441015]
 [0.32341667 1.41044901]]",1,0.133
8730571689,f,19,english,5,3,english,2024-01-25 10:40:25.221683,False,2,371,sounds\english\audio/english_230.wav,"[[  0.          59.01519707]
 [  0.1        -74.67447784]
 [  0.2         78.11378701]
 [  0.3         26.79367619]
 [  0.32341667  29.92451654]]","[[0.         0.66464778]
 [0.1        1.09498554]
 [0.2        0.24708562]
 [0.3        1.40152246]
 [0.32341667 1.02203861]]",0,0.498
8730571689,f,19,english,5,3,english,2024-01-25 10:40:25.221683,False,2,372,sounds\english\audio/english_909.wav,"[[  0.         -19.4205152 ]
 [  0.1        -31.830868  ]
 [  0.2         71.05598051]
 [  0.3        -13.09259164]
 [  0.32341667 -99.47743822]]","[[0.         0.17681169]
 [0.1        1.02014656]
 [0.2        1.59945112]
 [0.3        1.33685121]
 [0.32341667 0.41114962]]",1,0.116
8730571689,f,19,english,5,3,english,2024-01-25 10:40:25.221683,False,2,373,sounds\english\audio/english_479.wav,"[[  0.          74.98268857]
 [  0.1         16.03290679]
 [  0.2         78.97784812]
 [  0.3        -15.63843586]
 [  0.32341667  42.04802753]]","[[0.         0.98081986]
 [0.1        0.71187618]
 [0.2        0.27050369]
 [0.3        1.15797271]
 [0.32341667 1.51318639]]",1,0.81
8730571689,f,19,english,5,3,english,2024-01-25 10:40:25.221683,False,2,374,sounds\english\audio/english_584.wav,"[[  0.          10.38934641]
 [  0.1         16.58552078]
 [  0.2         93.24376001]
 [  0.3        -17.62367845]
 [  0.32341667  35.31863132]]","[[0.         1.28044862]
 [0.1        0.12750447]
 [0.2        0.67889343]
 [0.3        1.20299248]
 [0.32341667 1.61660781]]",0,0.334
8730571689,f,19,english,5,3,english,2024-01-25 10:40:25.221683,False,2,375,sounds\english\audio/english_870.wav,"[[  0.         -85.66751388]
 [  0.1         30.55194498]
 [  0.2        -98.28008273]
 [  0.3        -58.1418371 ]
 [  0.32341667  81.20200135]]","[[0.         1.70746054]
 [0.1        0.68953906]
 [0.2        1.62274852]
 [0.3        0.74531017]
 [0.32341667 1.06596266]]",0,0.986
8730571689,f,19,english,5,3,english,2024-01-25 10:40:25.221683,False,2,376,sounds\english\audio/english_896.wav,"[[  0.         -76.63716622]
 [  0.1        -73.11298951]
 [  0.2         48.53347054]
 [  0.3         -4.46661278]
 [  0.32341667 -44.69533701]]","[[0.         1.08893336]
 [0.1        0.41748987]
 [0.2        0.32012442]
 [0.3        0.63387312]
 [0.32341667 1.27766005]]",1,0.509
8730571689,f,19,english,5,3,english,2024-01-25 10:40:25.221683,False,2,377,sounds\english\audio/english_139.wav,"[[  0.          55.35526281]
 [  0.1        -66.48550036]
 [  0.2         21.45340352]
 [  0.3        -32.80413748]
 [  0.32341667 -77.32206638]]","[[0.         1.40478417]
 [0.1        1.12007301]
 [0.2        1.58559909]
 [0.3        1.13081383]
 [0.32341667 0.38560717]]",0,1.146
8730571689,f,19,english,5,3,english,2024-01-25 10:40:25.221683,False,2,378,sounds\english\audio/english_966.wav,"[[  0.          23.00954068]
 [  0.1         -2.7733657 ]
 [  0.2         -6.00176123]
 [  0.3        -64.80320904]
 [  0.32341667  94.15296916]]","[[0.         1.02848684]
 [0.1        1.22612364]
 [0.2        0.03461529]
 [0.3        0.22357585]
 [0.32341667 0.55383001]]",1,1.895
8730571689,f,19,english,5,3,english,2024-01-25 10:40:25.221683,False,2,379,sounds\english\audio/english_737.wav,"[[  0.          21.35751723]
 [  0.1         61.52152077]
 [  0.2        -29.75610596]
 [  0.3        -39.80249708]
 [  0.32341667 -14.64937497]]","[[0.         1.17499048]
 [0.1        1.09581395]
 [0.2        0.62940412]
 [0.3        0.11793022]
 [0.32341667 0.62377861]]",0,0.31
8730571689,f,19,english,5,3,english,2024-01-25 10:40:25.221683,False,2,380,sounds\english\audio/english_436.wav,"[[  0.          58.73131257]
 [  0.1         65.29204538]
 [  0.2          7.63213906]
 [  0.3         -2.54756362]
 [  0.32341667 -11.40614268]]","[[0.         0.30497449]
 [0.1        1.04665744]
 [0.2        1.03883923]
 [0.3        0.97345352]
 [0.32341667 0.16121918]]",1,1.211
8730571689,f,19,english,5,3,english,2024-01-25 10:40:25.221683,False,2,381,sounds\english\audio/english_491.wav,"[[  0.         -58.06424917]
 [  0.1        -10.73132445]
 [  0.2         17.9230478 ]
 [  0.3        -41.27614743]
 [  0.32341667 -30.17832464]]","[[0.         1.23740358]
 [0.1        0.97891215]
 [0.2        0.17588849]
 [0.3        0.52166982]
 [0.32341667 1.65640468]]",1,0.967
8730571689,f,19,english,5,3,english,2024-01-25 10:40:25.221683,False,2,382,sounds\english\audio/english_963.wav,"[[  0.         -60.03327616]
 [  0.1        -15.51067414]
 [  0.2         59.36715957]
 [  0.3        -98.70464219]
 [  0.32341667  37.26723218]]","[[0.         0.86711865]
 [0.1        1.69273621]
 [0.2        0.74157302]
 [0.3        1.73078555]
 [0.32341667 1.37482324]]",1,0.787
8730571689,f,19,english,5,3,english,2024-01-25 10:40:25.221683,False,2,383,sounds\english\audio/english_895.wav,"[[  0.         -36.05432491]
 [  0.1          0.27991529]
 [  0.2        -68.50060493]
 [  0.3        -65.34452755]
 [  0.32341667  44.30205494]]","[[0.         1.57991636]
 [0.1        1.29141926]
 [0.2        0.78617821]
 [0.3        0.53071912]
 [0.32341667 1.44568828]]",0,0.408
8730571689,f,19,english,5,3,english,2024-01-25 10:40:25.221683,False,2,384,sounds\english\audio/english_281.wav,"[[  0.         -55.42099824]
 [  0.1         30.44020676]
 [  0.2         53.34739709]
 [  0.3        -32.26512488]
 [  0.32341667 -59.86883114]]","[[0.         1.64310908]
 [0.1        0.76997124]
 [0.2        0.1940809 ]
 [0.3        0.25794937]
 [0.32341667 1.27043487]]",1,0.437
8730571689,f,19,english,5,3,english,2024-01-25 10:40:25.221683,False,2,385,sounds\english\audio/english_643.wav,"[[  0.         -40.15003434]
 [  0.1        -24.12893917]
 [  0.2        -40.66556796]
 [  0.3         75.01987067]
 [  0.32341667  29.71481383]]","[[0.         1.60262153]
 [0.1        1.7682358 ]
 [0.2        0.31725537]
 [0.3        0.56722121]
 [0.32341667 1.87277365]]",0,0.395
8730571689,f,19,english,5,3,english,2024-01-25 10:40:25.221683,False,2,386,sounds\english\audio/english_216.wav,"[[  0.         -62.2888105 ]
 [  0.1        -52.19325919]
 [  0.2        -77.81566322]
 [  0.3         73.5246301 ]
 [  0.32341667  73.4409389 ]]","[[0.         1.07577895]
 [0.1        1.07125686]
 [0.2        1.51342084]
 [0.3        1.37714716]
 [0.32341667 1.55456291]]",1,0.464
8730571689,f,19,english,5,3,english,2024-01-25 10:40:25.221683,False,2,387,sounds\english\audio/english_245.wav,"[[  0.          74.89239003]
 [  0.1         41.98679172]
 [  0.2         99.42105985]
 [  0.3        -75.11958538]
 [  0.32341667 -62.10664415]]","[[0.         1.30710747]
 [0.1        0.93119149]
 [0.2        1.84379828]
 [0.3        1.72828743]
 [0.32341667 0.50124118]]",1,1.125
8730571689,f,19,english,5,3,english,2024-01-25 10:40:25.221683,False,2,388,sounds\english\audio/english_18.wav,"[[ 0.00000000e+00 -6.19567004e+01]
 [ 1.00000000e-01  3.92027204e+01]
 [ 2.00000000e-01 -6.26834214e-02]
 [ 3.00000000e-01 -7.22820301e+01]
 [ 3.23416667e-01 -5.29459242e+01]]","[[0.         0.45038722]
 [0.1        1.56185221]
 [0.2        0.80652275]
 [0.3        0.39505163]
 [0.32341667 0.50402069]]",0,0.313
8730571689,f,19,english,5,3,english,2024-01-25 10:40:25.221683,False,2,389,sounds\english\audio/english_517.wav,"[[  0.          11.23661905]
 [  0.1         58.81241605]
 [  0.2         38.38790279]
 [  0.3        -74.61462092]
 [  0.32341667 -36.69086471]]","[[0.         0.76208972]
 [0.1        0.18193562]
 [0.2        1.85963831]
 [0.3        0.20223028]
 [0.32341667 1.46287498]]",1,0.62
8730571689,f,19,english,5,3,english,2024-01-25 10:40:25.221683,False,2,390,sounds\english\audio/english_487.wav,"[[  0.          57.34447058]
 [  0.1        -38.59224607]
 [  0.2        -30.93562102]
 [  0.3        -21.39452484]
 [  0.32341667 -98.93333205]]","[[0.         0.27098038]
 [0.1        1.03105808]
 [0.2        0.17810411]
 [0.3        0.81608244]
 [0.32341667 1.1056793 ]]",1,0.58
8730571689,f,19,english,5,3,english,2024-01-25 10:40:25.221683,False,2,391,sounds\english\audio/english_214.wav,"[[  0.          58.82847816]
 [  0.1         87.26801489]
 [  0.2        -28.10234025]
 [  0.3        -36.12188516]
 [  0.32341667 -45.93983978]]","[[0.         1.81864401]
 [0.1        0.97241975]
 [0.2        1.91423566]
 [0.3        1.71940232]
 [0.32341667 0.68694042]]",0,0.413
8730571689,f,19,english,5,3,english,2024-01-25 10:40:25.221683,False,2,392,sounds\english\audio/english_920.wav,"[[  0.          95.7501832 ]
 [  0.1         -3.19831823]
 [  0.2        -16.96134457]
 [  0.3        -28.81747413]
 [  0.32341667  42.63505928]]","[[0.         1.54313256]
 [0.1        1.33500472]
 [0.2        1.12819963]
 [0.3        1.72147256]
 [0.32341667 0.57593815]]",1,1.225
8730571689,f,19,english,5,3,english,2024-01-25 10:40:25.221683,False,2,393,sounds\english\audio/english_245.wav,"[[  0.          74.89239003]
 [  0.1         41.98679172]
 [  0.2         99.42105985]
 [  0.3        -75.11958538]
 [  0.32341667 -62.10664415]]","[[0.         1.30710747]
 [0.1        0.93119149]
 [0.2        1.84379828]
 [0.3        1.72828743]
 [0.32341667 0.50124118]]",1,1.159
8730571689,f,19,english,5,3,english,2024-01-25 10:40:25.221683,False,2,394,sounds\english\audio/english_350.wav,"[[  0.          97.64268741]
 [  0.1         23.96704837]
 [  0.2         50.30792237]
 [  0.3         71.77937185]
 [  0.32341667 -64.81416361]]","[[0.         0.61487918]
 [0.1        0.40988424]
 [0.2        0.86872158]
 [0.3        1.01783109]
 [0.32341667 0.68761283]]",0,1.504
8730571689,f,19,english,5,3,english,2024-01-25 10:40:25.221683,False,2,395,sounds\english\audio/english_713.wav,"[[ 0.         18.77281956]
 [ 0.1        40.78610286]
 [ 0.2        84.18153491]
 [ 0.3        47.00827256]
 [ 0.32341667 66.01008384]]","[[0.         1.04868626]
 [0.1        0.48332939]
 [0.2        0.83217717]
 [0.3        1.90318663]
 [0.32341667 0.50055362]]",0,0.413
8730571689,f,19,english,5,3,english,2024-01-25 10:40:25.221683,False,2,396,sounds\english\audio/english_545.wav,"[[  0.          42.99494118]
 [  0.1         72.53025652]
 [  0.2          4.60849844]
 [  0.3          9.93291538]
 [  0.32341667 -11.25611892]]","[[0.         1.37740168]
 [0.1        0.91972232]
 [0.2        0.73226975]
 [0.3        1.52934768]
 [0.32341667 0.18478607]]",1,0.937
8730571689,f,19,english,5,3,english,2024-01-25 10:40:25.221683,False,2,397,sounds\english\audio/english_868.wav,"[[  0.         -32.61379415]
 [  0.1        -13.61007492]
 [  0.2        -35.23756027]
 [  0.3         83.12333319]
 [  0.32341667  62.80865362]]","[[0.         0.76599538]
 [0.1        0.34348987]
 [0.2        0.26787397]
 [0.3        0.46343078]
 [0.32341667 1.59158725]]",1,0.654
8730571689,f,19,english,5,3,english,2024-01-25 10:40:25.221683,False,2,398,sounds\english\audio/english_824.wav,"[[  0.          80.46503136]
 [  0.1        -48.668347  ]
 [  0.2         37.27765876]
 [  0.3        -91.29945309]
 [  0.32341667  14.46507007]]","[[0.         1.43025592]
 [0.1        0.89138167]
 [0.2        1.91281619]
 [0.3        0.71335031]
 [0.32341667 0.89780818]]",0,0.682
8730571689,f,19,english,5,3,english,2024-01-25 10:40:25.221683,False,2,399,sounds\english\audio/english_591.wav,"[[  0.         -17.23532002]
 [  0.1        -55.20494434]
 [  0.2        -36.65883109]
 [  0.3         75.34514139]
 [  0.32341667  31.2832342 ]]","[[0.         0.16408748]
 [0.1        0.21361432]
 [0.2        0.19384467]
 [0.3        0.82850175]
 [0.32341667 1.471328  ]]",1,0.447
8730571689,f,19,english,5,3,english,2024-01-25 10:40:25.221683,False,2,400,sounds\english\audio/english_764.wav,"[[  0.           7.00590276]
 [  0.1        -69.33047837]
 [  0.2        -20.89747671]
 [  0.3        -96.63564891]
 [  0.32341667  78.55111455]]","[[0.         1.84020442]
 [0.1        0.1607256 ]
 [0.2        1.70981587]
 [0.3        1.13854431]
 [0.32341667 1.5536836 ]]",0,0.702
8730571689,f,19,english,5,3,english,2024-01-25 10:40:25.221683,False,2,401,sounds\english\audio/english_32.wav,"[[  0.          89.50349963]
 [  0.1         51.51128255]
 [  0.2        -58.32910347]
 [  0.3         15.96172744]
 [  0.32341667  84.40449403]]","[[0.         1.73304916]
 [0.1        0.02192789]
 [0.2        1.71493142]
 [0.3        1.28451373]
 [0.32341667 1.22971166]]",0,0.417
8730571689,f,19,english,5,3,english,2024-01-25 10:40:25.221683,False,2,402,sounds\english\audio/english_302.wav,"[[  0.         -63.95927305]
 [  0.1        -82.44028643]
 [  0.2        -63.33590257]
 [  0.3        -82.33590521]
 [  0.32341667 -77.43124585]]","[[0.         1.3663617 ]
 [0.1        1.24112643]
 [0.2        1.83999602]
 [0.3        0.89576132]
 [0.32341667 1.51483357]]",0,0.864
8730571689,f,19,english,5,3,english,2024-01-25 10:40:25.221683,False,2,403,sounds\english\audio/english_600.wav,"[[  0.          37.30285492]
 [  0.1         57.58729363]
 [  0.2        -74.33256695]
 [  0.3        -35.711252  ]
 [  0.32341667   3.54782198]]","[[0.         1.23507691]
 [0.1        0.65453179]
 [0.2        1.70226061]
 [0.3        0.4723836 ]
 [0.32341667 0.49080622]]",1,0.935
8730571689,f,19,english,5,3,english,2024-01-25 10:40:25.221683,False,2,404,sounds\english\audio/english_466.wav,"[[  0.          59.64739432]
 [  0.1        -20.63646321]
 [  0.2         62.86141463]
 [  0.3        -65.74461877]
 [  0.32341667  44.70090984]]","[[0.         1.91119383]
 [0.1        1.29572765]
 [0.2        0.99944191]
 [0.3        1.01221774]
 [0.32341667 0.89697717]]",0,1.587
8730571689,f,19,english,5,3,english,2024-01-25 10:40:25.221683,False,2,405,sounds\english\audio/english_863.wav,"[[  0.          52.03013683]
 [  0.1         21.53783975]
 [  0.2        -42.8061331 ]
 [  0.3         -9.69253087]
 [  0.32341667  56.44290307]]","[[0.         1.83111202]
 [0.1        0.9779226 ]
 [0.2        1.19089157]
 [0.3        0.269847  ]
 [0.32341667 0.87913369]]",1,1.231
8730571689,f,19,english,5,3,english,2024-01-25 10:40:25.221683,False,2,406,sounds\english\audio/english_955.wav,"[[  0.         -93.58498903]
 [  0.1        -11.56731864]
 [  0.2         60.37787928]
 [  0.3         83.42366765]
 [  0.32341667 -60.32056418]]","[[0.         1.26703381]
 [0.1        0.51967441]
 [0.2        1.0313906 ]
 [0.3        1.58878747]
 [0.32341667 1.0025339 ]]",0,0.623
8730571689,f,19,english,5,3,english,2024-01-25 10:40:25.221683,False,2,407,sounds\english\audio/english_151.wav,"[[  0.          -8.78950662]
 [  0.1         -1.70650264]
 [  0.2        -17.50286784]
 [  0.3         88.78233286]
 [  0.32341667  55.08117545]]","[[0.         1.36403682]
 [0.1        1.76375426]
 [0.2        1.43087438]
 [0.3        1.18017331]
 [0.32341667 1.30400061]]",1,3.19
8730571689,f,19,english,5,3,english,2024-01-25 10:40:25.221683,False,2,408,sounds\english\audio/english_383.wav,"[[  0.          -1.49759031]
 [  0.1         48.0809444 ]
 [  0.2        -84.09524499]
 [  0.3         95.23220486]
 [  0.32341667  64.91086902]]","[[0.         0.61403304]
 [0.1        0.69225556]
 [0.2        0.33452268]
 [0.3        1.06792504]
 [0.32341667 0.58483827]]",1,0.7
8730571689,f,19,english,5,3,english,2024-01-25 10:40:25.221683,False,2,409,sounds\english\audio/english_170.wav,"[[ 0.          6.45066022]
 [ 0.1        -4.11198278]
 [ 0.2        96.59136675]
 [ 0.3        21.57070742]
 [ 0.32341667 94.47980818]]","[[0.         1.58910722]
 [0.1        0.3365331 ]
 [0.2        0.38643451]
 [0.3        1.58623933]
 [0.32341667 1.61968164]]",0,0.543
8730571689,f,19,english,5,3,english,2024-01-25 10:40:25.221683,False,2,410,sounds\english\audio/english_199.wav,"[[  0.         -24.89956817]
 [  0.1        -48.49200931]
 [  0.2        -89.66548778]
 [  0.3         29.20785813]
 [  0.32341667 -88.68286362]]","[[0.         0.07306367]
 [0.1        0.10334581]
 [0.2        1.49062114]
 [0.3        0.36717513]
 [0.32341667 1.33179809]]",1,0.592
8730571689,f,19,english,5,3,english,2024-01-25 10:40:25.221683,False,2,411,sounds\english\audio/english_684.wav,"[[  0.           0.36394418]
 [  0.1         28.47964645]
 [  0.2         60.47995017]
 [  0.3        -33.43266819]
 [  0.32341667 -31.86672206]]","[[0.         1.65924935]
 [0.1        1.32149406]
 [0.2        0.32417562]
 [0.3        1.42108385]
 [0.32341667 1.29243289]]",0,0.274
8730571689,f,19,english,5,3,english,2024-01-25 10:40:25.221683,False,2,412,sounds\english\audio/english_988.wav,"[[  0.          23.53561789]
 [  0.1         39.09545525]
 [  0.2        -32.2225044 ]
 [  0.3          5.54449519]
 [  0.32341667 -94.58480047]]","[[0.         0.18772999]
 [0.1        0.71537172]
 [0.2        0.50944864]
 [0.3        0.59930705]
 [0.32341667 1.43881296]]",0,0.704
8730571689,f,19,english,5,3,english,2024-01-25 10:40:25.221683,False,2,413,sounds\english\audio/english_795.wav,"[[ 0.         39.36518311]
 [ 0.1        16.50141431]
 [ 0.2        54.87860026]
 [ 0.3        61.09971909]
 [ 0.32341667  4.28490532]]","[[0.         1.47453336]
 [0.1        0.29075574]
 [0.2        1.88174141]
 [0.3        0.27471403]
 [0.32341667 0.11399574]]",0,0.78
8730571689,f,19,english,5,3,english,2024-01-25 10:40:25.221683,False,2,414,sounds\english\audio/english_849.wav,"[[  0.         -24.45439181]
 [  0.1        -64.97605389]
 [  0.2        -67.78874915]
 [  0.3         -6.53184928]
 [  0.32341667  59.1884023 ]]","[[0.         1.62147024]
 [0.1        1.28655358]
 [0.2        0.154454  ]
 [0.3        1.49227138]
 [0.32341667 1.08662162]]",1,0.449
8730571689,f,19,english,5,3,english,2024-01-25 10:40:25.221683,False,2,415,sounds\english\audio/english_572.wav,"[[  0.         -16.16189062]
 [  0.1        -40.8511413 ]
 [  0.2        -77.3747243 ]
 [  0.3         87.62803369]
 [  0.32341667  81.6005998 ]]","[[0.         1.82210005]
 [0.1        0.80249033]
 [0.2        0.69959732]
 [0.3        0.43311894]
 [0.32341667 1.25204325]]",1,2.725
8730571689,f,19,english,5,3,english,2024-01-25 10:40:25.221683,False,2,416,sounds\english\audio/english_967.wav,"[[  0.         -33.19777689]
 [  0.1         83.84847924]
 [  0.2         81.27362124]
 [  0.3         22.78466805]
 [  0.32341667  16.56894366]]","[[0.         0.76720641]
 [0.1        1.4094361 ]
 [0.2        0.74435637]
 [0.3        0.29904584]
 [0.32341667 0.47687807]]",0,0.389
8730571689,f,19,english,5,3,english,2024-01-25 10:40:25.221683,False,2,417,sounds\english\audio/english_984.wav,"[[ 0.         -4.00148485]
 [ 0.1        26.28173365]
 [ 0.2        80.79042683]
 [ 0.3        94.69131331]
 [ 0.32341667 75.17511154]]","[[0.         1.68596177]
 [0.1        0.06678014]
 [0.2        0.65490985]
 [0.3        0.57269921]
 [0.32341667 0.71264295]]",1,0.3
8730571689,f,19,english,5,3,english,2024-01-25 10:40:25.221683,False,2,418,sounds\english\audio/english_507.wav,"[[  0.         -61.1842488 ]
 [  0.1        -67.40048172]
 [  0.2         12.41471853]
 [  0.3        -23.82579329]
 [  0.32341667   9.53005369]]","[[0.         1.97653192]
 [0.1        1.52355847]
 [0.2        0.98006415]
 [0.3        0.44372312]
 [0.32341667 0.65281453]]",0,0.423
8730571689,f,19,english,5,3,english,2024-01-25 10:40:25.221683,False,2,419,sounds\english\audio/english_916.wav,"[[  0.         -50.62314768]
 [  0.1        -52.55300278]
 [  0.2         54.298582  ]
 [  0.3        -23.99088857]
 [  0.32341667   4.88948607]]","[[0.         0.5519299 ]
 [0.1        1.16723516]
 [0.2        1.72376738]
 [0.3        0.41493786]
 [0.32341667 1.97918138]]",1,0.415
8730571689,f,19,english,5,3,english,2024-01-25 10:40:25.221683,False,2,420,sounds\english\audio/english_686.wav,"[[  0.         -30.40223154]
 [  0.1         40.30213926]
 [  0.2         68.68183252]
 [  0.3         82.36920372]
 [  0.32341667   5.8000707 ]]","[[0.         0.36787347]
 [0.1        1.54584144]
 [0.2        1.54645212]
 [0.3        1.04035585]
 [0.32341667 1.51520661]]",0,0.385
8730571689,f,19,english,5,3,english,2024-01-25 10:40:25.221683,False,2,421,sounds\english\audio/english_605.wav,"[[  0.         -82.65591545]
 [  0.1         35.78886654]
 [  0.2        -36.80716754]
 [  0.3         -4.39131435]
 [  0.32341667 -17.17702763]]","[[0.         0.90945233]
 [0.1        1.65178877]
 [0.2        0.21181898]
 [0.3        1.21754483]
 [0.32341667 1.60493484]]",1,0.351
8730571689,f,19,english,5,3,english,2024-01-25 10:40:25.221683,False,2,422,sounds\english\audio/english_68.wav,"[[  0.         -23.38152803]
 [  0.1        -36.0918901 ]
 [  0.2         65.46592862]
 [  0.3         48.57602628]
 [  0.32341667 -93.64245591]]","[[0.         1.83565324]
 [0.1        0.35162477]
 [0.2        1.10705723]
 [0.3        1.09550925]
 [0.32341667 0.05753383]]",0,0.339
8730571689,f,19,english,5,3,english,2024-01-25 10:40:25.221683,False,2,423,sounds\english\audio/english_149.wav,"[[  0.          84.22842235]
 [  0.1        -27.4405272 ]
 [  0.2        -61.08664731]
 [  0.3        -73.42064763]
 [  0.32341667  74.80057547]]","[[0.         1.59516341]
 [0.1        0.66089578]
 [0.2        1.85372623]
 [0.3        1.25159901]
 [0.32341667 1.10687529]]",1,0.108
8730571689,f,19,english,5,3,english,2024-01-25 10:40:25.221683,False,2,424,sounds\english\audio/english_825.wav,"[[  0.           9.96211161]
 [  0.1        -28.44120521]
 [  0.2         58.95311712]
 [  0.3        -14.85414305]
 [  0.32341667  85.14956963]]","[[0.         0.17252736]
 [0.1        0.52830291]
 [0.2        0.51646024]
 [0.3        0.70859388]
 [0.32341667 0.64434305]]",0,0.863
8730571689,f,19,english,5,3,english,2024-01-25 10:40:25.221683,False,2,425,sounds\english\audio/english_55.wav,"[[  0.          71.89255128]
 [  0.1          0.20692224]
 [  0.2        -68.61006599]
 [  0.3         -5.20952515]
 [  0.32341667  28.45991968]]","[[0.         0.24931264]
 [0.1        1.79813092]
 [0.2        0.71729895]
 [0.3        1.28733782]
 [0.32341667 1.77061752]]",0,0.487
8730571689,f,19,english,5,3,english,2024-01-25 10:40:25.221683,False,2,426,sounds\english\audio/english_590.wav,"[[  0.         -36.198224  ]
 [  0.1        -81.6019347 ]
 [  0.2         23.00860846]
 [  0.3        -40.72667736]
 [  0.32341667  31.06175796]]","[[0.         1.58650853]
 [0.1        0.24081988]
 [0.2        0.40073912]
 [0.3        0.83686248]
 [0.32341667 1.43958247]]",1,0.472
8730571689,f,19,english,5,3,english,2024-01-25 10:40:25.221683,False,2,427,sounds\english\audio/english_755.wav,"[[  0.         -15.85533995]
 [  0.1        -97.95934782]
 [  0.2         -5.14559719]
 [  0.3         32.74087849]
 [  0.32341667 -56.93437429]]","[[0.         0.06987403]
 [0.1        0.83204773]
 [0.2        1.06816443]
 [0.3        1.42856986]
 [0.32341667 0.58130438]]",0,10.125
8730571689,f,19,english,5,3,english,2024-01-25 10:40:25.221683,False,2,428,sounds\english\audio/english_324.wav,"[[  0.          49.07155908]
 [  0.1        -58.77252084]
 [  0.2        -55.40155542]
 [  0.3         19.02224292]
 [  0.32341667  21.20382854]]","[[0.         0.10864525]
 [0.1        1.61132735]
 [0.2        0.60180616]
 [0.3        0.93555132]
 [0.32341667 0.34417591]]",1,0.998
8730571689,f,19,english,5,3,english,2024-01-25 10:40:25.221683,False,2,429,sounds\english\audio/english_614.wav,"[[  0.          78.57791509]
 [  0.1         -6.15631212]
 [  0.2        -15.34092719]
 [  0.3         21.91351344]
 [  0.32341667 -10.50820757]]","[[0.         1.76663636]
 [0.1        0.7337869 ]
 [0.2        1.62880485]
 [0.3        0.61213133]
 [0.32341667 0.41097232]]",0,0.371
8730571689,f,19,english,5,3,english,2024-01-25 10:40:25.221683,False,2,430,sounds\english\audio/english_396.wav,"[[  0.           2.39126912]
 [  0.1        -38.95035948]
 [  0.2         78.31320688]
 [  0.3         16.98024706]
 [  0.32341667  44.66397079]]","[[0.         1.48231007]
 [0.1        0.85829723]
 [0.2        1.16655306]
 [0.3        0.51680164]
 [0.32341667 1.5133775 ]]",0,0.532
8730571689,f,19,english,5,3,english,2024-01-25 10:40:25.221683,False,2,431,sounds\english\audio/english_249.wav,"[[  0.          78.40227579]
 [  0.1        -55.1129652 ]
 [  0.2          6.74447168]
 [  0.3         27.3376716 ]
 [  0.32341667 -97.08031886]]","[[0.         1.91339694]
 [0.1        1.00834957]
 [0.2        0.29418026]
 [0.3        1.53256547]
 [0.32341667 0.99264532]]",1,0.332
8730571689,f,19,english,5,3,english,2024-01-25 10:40:25.221683,False,2,432,sounds\english\audio/english_540.wav,"[[  0.         -46.6752609 ]
 [  0.1        -93.20209644]
 [  0.2         64.96419662]
 [  0.3        -12.16484387]
 [  0.32341667 -44.34688232]]","[[0.         1.16352469]
 [0.1        0.0234781 ]
 [0.2        0.05926191]
 [0.3        1.47406284]
 [0.32341667 0.60104864]]",1,1.271
8730571689,f,19,english,5,3,english,2024-01-25 10:40:25.221683,False,2,433,sounds\english\audio/english_905.wav,"[[  0.          73.76258642]
 [  0.1         49.84186991]
 [  0.2        -84.55275191]
 [  0.3         70.45460649]
 [  0.32341667 -84.87734561]]","[[0.         1.30259847]
 [0.1        0.15786419]
 [0.2        0.47562292]
 [0.3        1.69272047]
 [0.32341667 1.28570309]]",0,1.4
8730571689,f,19,english,5,3,english,2024-01-25 10:40:25.221683,False,2,434,sounds\english\audio/english_897.wav,"[[  0.          -6.17515852]
 [  0.1        -25.56252799]
 [  0.2        -51.51756482]
 [  0.3        -57.3776393 ]
 [  0.32341667 -65.82780913]]","[[0.         1.45954458]
 [0.1        1.4662158 ]
 [0.2        1.09304129]
 [0.3        1.17713492]
 [0.32341667 1.23726335]]",1,0.739
8730571689,f,19,english,5,3,english,2024-01-25 10:40:25.221683,False,2,435,sounds\english\audio/english_204.wav,"[[  0.          67.46317025]
 [  0.1         38.91463365]
 [  0.2        -85.28377865]
 [  0.3         55.65505401]
 [  0.32341667  56.32983288]]","[[0.         1.58701212]
 [0.1        1.82178317]
 [0.2        1.60361911]
 [0.3        0.21823774]
 [0.32341667 0.04661671]]",1,1.13
8730571689,f,19,english,5,3,english,2024-01-25 10:40:25.221683,False,2,436,sounds\english\audio/english_32.wav,"[[  0.          89.50349963]
 [  0.1         51.51128255]
 [  0.2        -58.32910347]
 [  0.3         15.96172744]
 [  0.32341667  84.40449403]]","[[0.         1.73304916]
 [0.1        0.02192789]
 [0.2        1.71493142]
 [0.3        1.28451373]
 [0.32341667 1.22971166]]",1,1.315
8730571689,f,19,english,5,3,english,2024-01-25 10:40:25.221683,False,2,437,sounds\english\audio/english_618.wav,"[[  0.          58.31579708]
 [  0.1          6.96253647]
 [  0.2         -4.41581756]
 [  0.3        -63.5775247 ]
 [  0.32341667  97.77631762]]","[[0.         1.46895394]
 [0.1        0.48660613]
 [0.2        1.00963977]
 [0.3        1.29399549]
 [0.32341667 0.84060701]]",0,0.441
8730571689,f,19,english,5,3,english,2024-01-25 10:40:25.221683,False,2,438,sounds\english\audio/english_834.wav,"[[  0.         -64.94927172]
 [  0.1         49.61052881]
 [  0.2        -25.04715585]
 [  0.3         95.09819394]
 [  0.32341667  84.16953653]]","[[0.         0.98752234]
 [0.1        1.31122352]
 [0.2        0.09065599]
 [0.3        1.07854905]
 [0.32341667 1.76453498]]",1,0.944
8730571689,f,19,english,5,3,english,2024-01-25 10:40:25.221683,False,2,439,sounds\english\audio/english_737.wav,"[[  0.          21.35751723]
 [  0.1         61.52152077]
 [  0.2        -29.75610596]
 [  0.3        -39.80249708]
 [  0.32341667 -14.64937497]]","[[0.         1.17499048]
 [0.1        1.09581395]
 [0.2        0.62940412]
 [0.3        0.11793022]
 [0.32341667 0.62377861]]",0,0.486
8730571689,f,19,english,5,3,english,2024-01-25 10:40:25.221683,False,2,440,sounds\english\audio/english_829.wav,"[[  0.          60.30417439]
 [  0.1        -26.87459656]
 [  0.2         59.05286014]
 [  0.3        -38.64739237]
 [  0.32341667  68.61732932]]","[[0.         0.94286345]
 [0.1        0.76756767]
 [0.2        1.50609211]
 [0.3        0.33518122]
 [0.32341667 1.40687349]]",1,0.502
8730571689,f,19,english,5,3,english,2024-01-25 10:40:25.221683,False,2,441,sounds\english\audio/english_749.wav,"[[  0.         -84.66020389]
 [  0.1         45.42505651]
 [  0.2         27.47623271]
 [  0.3         44.62305857]
 [  0.32341667 -87.62087265]]","[[0.         1.10062914]
 [0.1        0.81865822]
 [0.2        1.25164699]
 [0.3        1.77685805]
 [0.32341667 0.97343419]]",0,0.285
8730571689,f,19,english,5,3,english,2024-01-25 10:40:25.221683,False,2,442,sounds\english\audio/english_801.wav,"[[  0.          66.50571345]
 [  0.1        -53.03260979]
 [  0.2         -3.89459646]
 [  0.3          8.32951864]
 [  0.32341667 -87.46806733]]","[[0.         0.19311528]
 [0.1        0.48683601]
 [0.2        1.16293258]
 [0.3        1.55734707]
 [0.32341667 0.63471681]]",1,1.286
8730571689,f,19,english,5,3,english,2024-01-25 10:40:25.221683,False,2,443,sounds\english\audio/english_628.wav,"[[  0.         -19.71295886]
 [  0.1        -79.294697  ]
 [  0.2        -59.93256946]
 [  0.3        -18.46863719]
 [  0.32341667  53.30350975]]","[[0.         0.8960583 ]
 [0.1        1.61949508]
 [0.2        0.65483299]
 [0.3        0.12001531]
 [0.32341667 0.85308449]]",0,0.567
8730571689,f,19,english,5,3,english,2024-01-25 10:40:25.221683,False,2,444,sounds\english\audio/english_455.wav,"[[  0.          16.09493262]
 [  0.1         24.58982   ]
 [  0.2        -59.31201859]
 [  0.3         40.79603426]
 [  0.32341667 -39.30035714]]","[[0.         0.21208686]
 [0.1        1.0305564 ]
 [0.2        1.53057992]
 [0.3        0.62599766]
 [0.32341667 1.43054244]]",1,0.252
8730571689,f,19,english,5,3,english,2024-01-25 10:40:25.221683,False,2,445,sounds\english\audio/english_573.wav,"[[  0.         -46.41950257]
 [  0.1        -92.58424164]
 [  0.2         21.8123883 ]
 [  0.3         16.48756951]
 [  0.32341667 -54.36863361]]","[[0.         0.98293374]
 [0.1        0.99885906]
 [0.2        0.65769494]
 [0.3        0.46238493]
 [0.32341667 0.72259175]]",0,0.495
8730571689,f,19,english,5,3,english,2024-01-25 10:40:25.221683,False,2,446,sounds\english\audio/english_8.wav,"[[  0.         -11.83025711]
 [  0.1          8.7470631 ]
 [  0.2        -15.41843982]
 [  0.3        -87.7437633 ]
 [  0.32341667 -40.85253846]]","[[0.         1.51300734]
 [0.1        0.24000547]
 [0.2        1.17952525]
 [0.3        1.57032258]
 [0.32341667 0.7584977 ]]",1,0.428
8730571689,f,19,english,5,3,english,2024-01-25 10:40:25.221683,False,2,447,sounds\english\audio/english_648.wav,"[[  0.         -36.17742204]
 [  0.1         30.10697278]
 [  0.2        -67.31320052]
 [  0.3        -10.94597212]
 [  0.32341667  72.59648235]]","[[0.         0.57576188]
 [0.1        1.1310908 ]
 [0.2        1.67112441]
 [0.3        0.39641968]
 [0.32341667 1.93789316]]",0,0.267
8730571689,f,19,english,5,3,english,2024-01-25 10:40:25.221683,False,2,448,sounds\english\audio/english_296.wav,"[[  0.          -4.92142852]
 [  0.1         -5.74196289]
 [  0.2         76.26647078]
 [  0.3        -62.74030654]
 [  0.32341667 -60.661992  ]]","[[0.         1.99305172]
 [0.1        0.92633133]
 [0.2        0.44879969]
 [0.3        1.47417428]
 [0.32341667 1.05571007]]",1,0.175
8730571689,f,19,english,5,3,english,2024-01-25 10:40:25.221683,False,2,449,sounds\english\audio/english_206.wav,"[[  0.          29.86029141]
 [  0.1        -65.49550847]
 [  0.2         -8.37849199]
 [  0.3         16.32170521]
 [  0.32341667 -96.55544023]]","[[0.         0.9413203 ]
 [0.1        1.58501733]
 [0.2        1.84833856]
 [0.3        1.12864021]
 [0.32341667 0.85017735]]",0,0.232
8730571689,f,19,english,5,3,english,2024-01-25 10:40:25.221683,False,2,450,sounds\english\audio/english_85.wav,"[[  0.          69.91092253]
 [  0.1         90.04885235]
 [  0.2        -54.471964  ]
 [  0.3        -32.42862041]
 [  0.32341667 -26.25094384]]","[[0.         1.07696769]
 [0.1        1.65675227]
 [0.2        1.18566865]
 [0.3        0.43131811]
 [0.32341667 1.88641509]]",1,0.97
8730571689,f,19,english,5,3,english,2024-01-25 10:40:25.221683,False,2,451,sounds\english\audio/english_421.wav,"[[ 0.         25.39012861]
 [ 0.1        49.11153532]
 [ 0.2        38.93723883]
 [ 0.3        -9.34286459]
 [ 0.32341667 -9.28476392]]","[[0.         1.47358925]
 [0.1        1.20920516]
 [0.2        0.72174872]
 [0.3        0.24556907]
 [0.32341667 0.87006143]]",1,0.547
8730571689,f,19,english,5,3,english,2024-01-25 10:40:25.221683,False,2,452,sounds\english\audio/english_766.wav,"[[  0.         -86.57417509]
 [  0.1        -67.75686223]
 [  0.2         74.21258041]
 [  0.3         65.20164426]
 [  0.32341667 -26.41371036]]","[[0.         1.21737292]
 [0.1        1.61484435]
 [0.2        1.47872362]
 [0.3        1.81064247]
 [0.32341667 1.37776493]]",0,0.408
8730571689,f,19,english,5,3,english,2024-01-25 10:40:25.221683,False,2,453,sounds\english\audio/english_878.wav,"[[  0.          84.19501339]
 [  0.1         76.71234668]
 [  0.2        -74.61835319]
 [  0.3         83.79758366]
 [  0.32341667 -29.32243698]]","[[0.         0.22676298]
 [0.1        0.28568495]
 [0.2        0.74220819]
 [0.3        1.72755148]
 [0.32341667 1.88938616]]",1,0.387
8730571689,f,19,english,5,3,english,2024-01-25 10:40:25.221683,False,2,454,sounds\english\audio/english_463.wav,"[[  0.         -17.89775534]
 [  0.1        -21.51631701]
 [  0.2        -12.53951077]
 [  0.3         33.47501925]
 [  0.32341667 -93.09525534]]","[[0.         1.84132871]
 [0.1        1.66361617]
 [0.2        0.64060514]
 [0.3        1.01091097]
 [0.32341667 0.69499506]]",0,0.148
8730571689,f,19,english,5,3,english,2024-01-25 10:40:25.221683,False,2,455,sounds\english\audio/english_205.wav,"[[  0.          55.03693902]
 [  0.1         59.05347117]
 [  0.2        -51.93258482]
 [  0.3        -18.66886592]
 [  0.32341667 -25.16213195]]","[[0.         1.41699591]
 [0.1        0.25749205]
 [0.2        1.78695407]
 [0.3        0.11157042]
 [0.32341667 1.74030417]]",0,1.193
8730571689,f,19,english,5,3,english,2024-01-25 10:40:25.221683,False,2,456,sounds\english\audio/english_868.wav,"[[  0.         -32.61379415]
 [  0.1        -13.61007492]
 [  0.2        -35.23756027]
 [  0.3         83.12333319]
 [  0.32341667  62.80865362]]","[[0.         0.76599538]
 [0.1        0.34348987]
 [0.2        0.26787397]
 [0.3        0.46343078]
 [0.32341667 1.59158725]]",1,0.296
8730571689,f,19,english,5,3,english,2024-01-25 10:40:25.221683,False,2,457,sounds\english\audio/english_392.wav,"[[  0.         -12.90562814]
 [  0.1         -1.29416779]
 [  0.2        -53.34155903]
 [  0.3        -48.65153398]
 [  0.32341667 -43.47653164]]","[[0.         1.13144201]
 [0.1        0.98893381]
 [0.2        0.07204825]
 [0.3        1.52779633]
 [0.32341667 1.32355089]]",0,0.503
8730571689,f,19,english,5,3,english,2024-01-25 10:40:25.221683,False,2,458,sounds\english\audio/english_90.wav,"[[  0.          82.68866707]
 [  0.1        -81.25370946]
 [  0.2         56.28719083]
 [  0.3        -46.43338119]
 [  0.32341667 -19.93520327]]","[[0.         0.54239523]
 [0.1        1.03335699]
 [0.2        1.93576477]
 [0.3        0.74570916]
 [0.32341667 1.11115504]]",0,1.722
8730571689,f,19,english,5,3,english,2024-01-25 10:40:25.221683,False,2,459,sounds\english\audio/english_719.wav,"[[  0.         -32.14306232]
 [  0.1        -81.40439332]
 [  0.2        -20.1172293 ]
 [  0.3         67.63048238]
 [  0.32341667  50.83305788]]","[[0.         1.4431753 ]
 [0.1        0.46175707]
 [0.2        1.86886769]
 [0.3        0.67969247]
 [0.32341667 1.68151983]]",0,0.61
8730571689,f,19,english,5,3,english,2024-01-25 10:40:25.221683,False,2,460,sounds\english\audio/english_447.wav,"[[  0.          38.77193801]
 [  0.1         -3.53992528]
 [  0.2         54.1888363 ]
 [  0.3        -95.90180003]
 [  0.32341667  48.32118178]]","[[0.         0.52212734]
 [0.1        0.58948567]
 [0.2        0.60662966]
 [0.3        0.73195254]
 [0.32341667 0.21856551]]",1,0.381
8730571689,f,19,english,5,3,english,2024-01-25 10:40:25.221683,False,2,461,sounds\english\audio/english_442.wav,"[[  0.          -5.21319176]
 [  0.1        -16.23989513]
 [  0.2        -36.77315909]
 [  0.3        -33.51446291]
 [  0.32341667 -25.07447919]]","[[0.         1.35819452]
 [0.1        1.66019663]
 [0.2        0.51170704]
 [0.3        1.6590932 ]
 [0.32341667 0.97998973]]",0,0.594
8730571689,f,19,english,5,3,english,2024-01-25 10:40:25.221683,False,2,462,sounds\english\audio/english_836.wav,"[[  0.          34.85846782]
 [  0.1         41.54458908]
 [  0.2         23.27363575]
 [  0.3         86.83996211]
 [  0.32341667 -32.25656931]]","[[0.         1.04017402]
 [0.1        0.35535359]
 [0.2        0.10471693]
 [0.3        0.55523491]
 [0.32341667 0.70311776]]",1,0.356
8730571689,f,19,english,5,3,english,2024-01-25 10:40:25.221683,False,2,463,sounds\english\audio/english_87.wav,"[[  0.          54.83056612]
 [  0.1         56.31531505]
 [  0.2        -65.55002777]
 [  0.3        -25.15788212]
 [  0.32341667  22.72349562]]","[[0.         1.56132998]
 [0.1        1.28614089]
 [0.2        1.44579989]
 [0.3        0.3607766 ]
 [0.32341667 0.17745198]]",0,0.249
8730571689,f,19,english,5,3,english,2024-01-25 10:40:25.221683,False,2,464,sounds\english\audio/english_753.wav,"[[  0.          38.61944715]
 [  0.1        -76.3398938 ]
 [  0.2        -80.92813522]
 [  0.3        -16.48508052]
 [  0.32341667  16.23487259]]","[[0.         0.75641923]
 [0.1        1.17320485]
 [0.2        0.63072958]
 [0.3        1.96252246]
 [0.32341667 1.97125296]]",1,0.862
8730571689,f,19,english,5,3,english,2024-01-25 10:40:25.221683,False,2,465,sounds\english\audio/english_689.wav,"[[  0.          42.02822248]
 [  0.1        -61.92185233]
 [  0.2         -8.45156809]
 [  0.3         15.09500637]
 [  0.32341667   8.33163023]]","[[0.         1.89069384]
 [0.1        0.33123617]
 [0.2        0.5478675 ]
 [0.3        0.80334133]
 [0.32341667 1.42024866]]",0,0.287
8730571689,f,19,english,5,3,english,2024-01-25 10:40:25.221683,False,2,466,sounds\english\audio/english_294.wav,"[[  0.         -92.15775888]
 [  0.1         71.96645866]
 [  0.2        -25.46852775]
 [  0.3         17.21488016]
 [  0.32341667 -10.41176069]]","[[0.         0.74816787]
 [0.1        1.71916745]
 [0.2        1.7524902 ]
 [0.3        0.9780509 ]
 [0.32341667 1.21177262]]",1,0.183
8730571689,f,19,english,5,3,english,2024-01-25 10:40:25.221683,False,2,467,sounds\english\audio/english_349.wav,"[[  0.         -10.00495534]
 [  0.1         54.31199814]
 [  0.2         48.17968705]
 [  0.3          8.48926652]
 [  0.32341667  42.05620052]]","[[0.         0.36915768]
 [0.1        0.83111041]
 [0.2        1.70147194]
 [0.3        1.08588898]
 [0.32341667 0.02584958]]",0,1.359
8730571689,f,19,english,5,3,english,2024-01-25 10:40:25.221683,False,2,468,sounds\english\audio/english_979.wav,"[[  0.          -1.00654814]
 [  0.1         18.39835707]
 [  0.2        -42.91789413]
 [  0.3        -58.29527223]
 [  0.32341667  86.14740424]]","[[0.         1.61411081]
 [0.1        1.30464512]
 [0.2        0.93120215]
 [0.3        0.87145212]
 [0.32341667 1.17332389]]",1,0.703
8730571689,f,19,english,5,3,english,2024-01-25 10:40:25.221683,False,2,469,sounds\english\audio/english_318.wav,"[[  0.          40.16064427]
 [  0.1        -52.58874178]
 [  0.2         46.7653316 ]
 [  0.3        -41.44559589]
 [  0.32341667  -2.50443948]]","[[0.         0.11467793]
 [0.1        0.6224104 ]
 [0.2        0.05328619]
 [0.3        0.01138238]
 [0.32341667 1.16020285]]",1,0.683
8730571689,f,19,english,5,3,english,2024-01-25 10:40:25.221683,False,2,470,sounds\english\audio/english_667.wav,"[[  0.         -36.96649028]
 [  0.1          9.08709827]
 [  0.2         85.36553945]
 [  0.3        -41.19556041]
 [  0.32341667 -31.79783786]]","[[0.         1.3014101 ]
 [0.1        0.05882523]
 [0.2        1.428997  ]
 [0.3        1.2429303 ]
 [0.32341667 0.97363261]]",0,0.898
8730571689,f,19,english,5,3,english,2024-01-25 10:40:25.221683,False,2,471,sounds\english\audio/english_835.wav,"[[  0.         -14.38506183]
 [  0.1        -85.63264453]
 [  0.2         -9.08737486]
 [  0.3        -52.4382226 ]
 [  0.32341667  30.89255677]]","[[0.         1.1584592 ]
 [0.1        0.74788643]
 [0.2        0.99645811]
 [0.3        1.13057998]
 [0.32341667 0.17868889]]",1,0.812
8730571689,f,19,english,5,3,english,2024-01-25 10:40:25.221683,False,2,472,sounds\english\audio/english_179.wav,"[[ 0.         76.93131114]
 [ 0.1         5.5150778 ]
 [ 0.2         3.89208722]
 [ 0.3        -8.47825544]
 [ 0.32341667 50.73924617]]","[[0.         0.23318107]
 [0.1        0.47080089]
 [0.2        1.31062884]
 [0.3        0.27743795]
 [0.32341667 0.83516241]]",0,0.895
8730571689,f,19,english,5,3,english,2024-01-25 10:40:25.221683,False,2,473,sounds\english\audio/english_800.wav,"[[  0.          -9.91001254]
 [  0.1        -86.79409322]
 [  0.2        -27.39997365]
 [  0.3         13.46737707]
 [  0.32341667 -32.56208711]]","[[0.         0.13142639]
 [0.1        1.71040153]
 [0.2        0.18637657]
 [0.3        1.09766523]
 [0.32341667 1.57940615]]",0,0.999
8730571689,f,19,english,5,3,english,2024-01-25 10:40:25.221683,False,2,474,sounds\english\audio/english_274.wav,"[[  0.         -30.61452779]
 [  0.1        -42.14612233]
 [  0.2         32.00602795]
 [  0.3        -37.74375581]
 [  0.32341667 -54.5397802 ]]","[[0.         0.78021116]
 [0.1        1.93993358]
 [0.2        0.32963606]
 [0.3        1.46133782]
 [0.32341667 1.53178785]]",1,1.791
8730571689,f,19,english,5,3,english,2024-01-25 10:40:25.221683,False,2,475,sounds\english\audio/english_912.wav,"[[  0.         -43.64864707]
 [  0.1         94.54433808]
 [  0.2         67.98324072]
 [  0.3          9.27329172]
 [  0.32341667 -55.44973818]]","[[0.         0.87210048]
 [0.1        1.43243955]
 [0.2        1.49899487]
 [0.3        0.42663795]
 [0.32341667 0.19299009]]",1,3.211
8730571689,f,19,english,5,3,english,2024-01-25 10:40:25.221683,False,2,476,sounds\english\audio/english_360.wav,"[[  0.         -50.57937638]
 [  0.1        -29.22164644]
 [  0.2        -88.45421248]
 [  0.3         93.68039656]
 [  0.32341667  -2.59092547]]","[[0.         0.73788637]
 [0.1        0.6487653 ]
 [0.2        0.73193848]
 [0.3        1.75347372]
 [0.32341667 1.19277037]]",0,0.423
8730571689,f,19,english,5,3,english,2024-01-25 10:40:25.221683,False,2,477,sounds\english\audio/english_798.wav,"[[  0.         -16.40769998]
 [  0.1          3.00381127]
 [  0.2        -31.24410556]
 [  0.3        -53.27973877]
 [  0.32341667  91.43563813]]","[[0.         1.85457914]
 [0.1        1.50219522]
 [0.2        0.78751403]
 [0.3        1.17339142]
 [0.32341667 1.30184409]]",1,0.656
8730571689,f,19,english,5,3,english,2024-01-25 10:40:25.221683,False,2,478,sounds\english\audio/english_887.wav,"[[  0.          21.36154006]
 [  0.1        -21.46213737]
 [  0.2        -45.53850124]
 [  0.3        -75.36110743]
 [  0.32341667 -96.67184991]]","[[0.         0.58574694]
 [0.1        0.48413962]
 [0.2        1.16923549]
 [0.3        1.46190157]
 [0.32341667 0.00789239]]",0,1.199
8730571689,f,19,english,5,3,english,2024-01-25 10:40:25.221683,False,2,479,sounds\english\audio/english_60.wav,"[[  0.          82.53369854]
 [  0.1         60.14491878]
 [  0.2        -26.84704149]
 [  0.3        -19.8784386 ]
 [  0.32341667 -26.04492652]]","[[0.         0.66834278]
 [0.1        1.16350573]
 [0.2        1.24827189]
 [0.3        0.70182905]
 [0.32341667 0.20173025]]",0,0.524
8730571689,f,19,english,5,3,english,2024-01-25 10:40:25.221683,False,2,480,sounds\english\audio/english_477.wav,"[[  0.           9.7496965 ]
 [  0.1         70.56003184]
 [  0.2         34.49551211]
 [  0.3        -75.0597055 ]
 [  0.32341667 -82.15638008]]","[[0.         0.26828956]
 [0.1        0.51901368]
 [0.2        0.35677294]
 [0.3        1.39462812]
 [0.32341667 0.55199483]]",0,0.435
8730571689,f,19,english,5,3,english,2024-01-25 10:40:25.221683,False,2,481,sounds\english\audio/english_610.wav,"[[  0.         -14.96432812]
 [  0.1         48.51886955]
 [  0.2         47.07358548]
 [  0.3         17.30383174]
 [  0.32341667   1.51764356]]","[[0.         0.5672697 ]
 [0.1        0.75156182]
 [0.2        0.38846335]
 [0.3        1.52072292]
 [0.32341667 1.56024836]]",0,1.054
8730571689,f,19,english,5,3,english,2024-01-25 10:40:25.221683,False,2,482,sounds\english\audio/english_646.wav,"[[  0.          65.65927644]
 [  0.1        -31.23211399]
 [  0.2         62.59110385]
 [  0.3        -86.43369357]
 [  0.32341667  41.84315348]]","[[0.         1.85038449]
 [0.1        1.10748568]
 [0.2        1.14052106]
 [0.3        1.38971404]
 [0.32341667 0.49971738]]",1,2.678
8730571689,f,19,english,5,3,english,2024-01-25 10:40:25.221683,False,2,483,sounds\english\audio/english_487.wav,"[[  0.          57.34447058]
 [  0.1        -38.59224607]
 [  0.2        -30.93562102]
 [  0.3        -21.39452484]
 [  0.32341667 -98.93333205]]","[[0.         0.27098038]
 [0.1        1.03105808]
 [0.2        0.17810411]
 [0.3        0.81608244]
 [0.32341667 1.1056793 ]]",0,0.266
8730571689,f,19,english,5,3,english,2024-01-25 10:40:25.221683,False,2,484,sounds\english\audio/english_851.wav,"[[  0.         -83.90491711]
 [  0.1         92.94065497]
 [  0.2        -63.47542883]
 [  0.3         13.34025436]
 [  0.32341667  32.96474042]]","[[0.         1.65488062]
 [0.1        0.14315595]
 [0.2        0.84481863]
 [0.3        1.9580918 ]
 [0.32341667 0.23608581]]",1,0.669
8730571689,f,19,english,5,3,english,2024-01-25 10:40:25.221683,False,2,485,sounds\english\audio/english_303.wav,"[[  0.          67.00540241]
 [  0.1         32.95821842]
 [  0.2        -23.67517146]
 [  0.3        -66.94926695]
 [  0.32341667  65.71723135]]","[[0.         1.22520816]
 [0.1        1.22732479]
 [0.2        0.54923068]
 [0.3        0.8977578 ]
 [0.32341667 1.41807679]]",1,0.64
8730571689,f,19,english,5,3,english,2024-01-25 10:40:25.221683,False,2,486,sounds\english\audio/english_935.wav,"[[  0.          64.39543101]
 [  0.1         86.95314533]
 [  0.2        -18.93400703]
 [  0.3         36.25821345]
 [  0.32341667 -52.75689815]]","[[0.         0.53440609]
 [0.1        0.5847186 ]
 [0.2        0.87093815]
 [0.3        1.35336039]
 [0.32341667 1.46825192]]",0,0.424
8730571689,f,19,english,5,3,english,2024-01-25 10:40:25.221683,False,2,487,sounds\english\audio/english_310.wav,"[[  0.          82.1385274 ]
 [  0.1        -33.74608058]
 [  0.2         62.12487376]
 [  0.3         96.31437548]
 [  0.32341667 -23.64802517]]","[[0.         0.14341218]
 [0.1        1.80934389]
 [0.2        1.28785402]
 [0.3        1.13060378]
 [0.32341667 1.05137249]]",0,1.219
8730571689,f,19,english,5,3,english,2024-01-25 10:40:25.221683,False,2,488,sounds\english\audio/english_633.wav,"[[  0.         -53.72283933]
 [  0.1         14.71438877]
 [  0.2         95.18630031]
 [  0.3         96.89096157]
 [  0.32341667   8.38596779]]","[[0.         1.23998369]
 [0.1        1.35266241]
 [0.2        0.66132985]
 [0.3        0.52728002]
 [0.32341667 1.4824282 ]]",0,0.574
8730571689,f,19,english,5,3,english,2024-01-25 10:40:25.221683,False,2,489,sounds\english\audio/english_834.wav,"[[  0.         -64.94927172]
 [  0.1         49.61052881]
 [  0.2        -25.04715585]
 [  0.3         95.09819394]
 [  0.32341667  84.16953653]]","[[0.         0.98752234]
 [0.1        1.31122352]
 [0.2        0.09065599]
 [0.3        1.07854905]
 [0.32341667 1.76453498]]",1,1.308
8730571689,f,19,english,5,3,english,2024-01-25 10:40:25.221683,False,2,490,sounds\english\audio/english_270.wav,"[[  0.         -54.89328754]
 [  0.1        -41.12345733]
 [  0.2         79.03328036]
 [  0.3        -87.71335894]
 [  0.32341667 -48.20373708]]","[[0.         1.02368747]
 [0.1        1.74263534]
 [0.2        0.45342006]
 [0.3        1.29911503]
 [0.32341667 0.95859349]]",1,0.749
8730571689,f,19,english,5,3,english,2024-01-25 10:40:25.221683,False,2,491,sounds\english\audio/english_952.wav,"[[  0.          64.91746033]
 [  0.1        -25.84234774]
 [  0.2         60.30097417]
 [  0.3        -98.0606555 ]
 [  0.32341667 -77.98984902]]","[[0.         1.00586425]
 [0.1        1.28790365]
 [0.2        1.6668124 ]
 [0.3        1.44616756]
 [0.32341667 0.15831209]]",0,0.782
8730571689,f,19,english,5,3,english,2024-01-25 10:40:25.221683,False,2,492,sounds\english\audio/english_247.wav,"[[  0.          48.65693284]
 [  0.1        -27.64572099]
 [  0.2        -20.19701808]
 [  0.3        -10.74442668]
 [  0.32341667  91.42432082]]","[[0.         0.25539499]
 [0.1        1.09429421]
 [0.2        0.88115619]
 [0.3        1.97859338]
 [0.32341667 0.10638235]]",0,0.472
8730571689,f,19,english,5,3,english,2024-01-25 10:40:25.221683,False,2,493,sounds\english\audio/english_180.wav,"[[  0.         -79.96502932]
 [  0.1         33.21752916]
 [  0.2        -97.52705813]
 [  0.3         42.51331828]
 [  0.32341667 -42.98571984]]","[[0.         0.84610218]
 [0.1        1.88919334]
 [0.2        0.18699196]
 [0.3        0.0366283 ]
 [0.32341667 0.95813987]]",1,2.385
8730571689,f,19,english,5,3,english,2024-01-25 10:40:25.221683,False,2,494,sounds\english\audio/english_46.wav,"[[  0.         -29.32250151]
 [  0.1         -3.06808063]
 [  0.2         90.97923358]
 [  0.3         10.7462216 ]
 [  0.32341667 -76.74347892]]","[[0.         0.64118776]
 [0.1        0.73649566]
 [0.2        1.88790792]
 [0.3        0.26788582]
 [0.32341667 0.543593  ]]",0,0.855
8730571689,f,19,english,5,3,english,2024-01-25 10:40:25.221683,False,2,495,sounds\english\audio/english_485.wav,"[[  0.          -7.08941798]
 [  0.1        -70.64579204]
 [  0.2         23.79115045]
 [  0.3          0.80487994]
 [  0.32341667   4.72097057]]","[[0.         1.8206563 ]
 [0.1        0.10660577]
 [0.2        1.92760945]
 [0.3        0.77499174]
 [0.32341667 1.20070888]]",0,0.504
8730571689,f,19,english,5,3,english,2024-01-25 10:40:25.221683,False,2,496,sounds\english\audio/english_158.wav,"[[  0.          33.09785739]
 [  0.1        -85.08083727]
 [  0.2         97.70701203]
 [  0.3          2.54261044]
 [  0.32341667 -59.73934841]]","[[0.         1.71128449]
 [0.1        1.56145129]
 [0.2        0.69707892]
 [0.3        1.19647348]
 [0.32341667 1.17782448]]",0,0.683
8730571689,f,19,english,5,3,english,2024-01-25 10:40:25.221683,False,2,497,sounds\english\audio/english_26.wav,"[[  0.          54.38966875]
 [  0.1          0.3460174 ]
 [  0.2        -72.33258957]
 [  0.3         67.09142092]
 [  0.32341667  16.00565239]]","[[0.         1.86679487]
 [0.1        0.79762949]
 [0.2        0.93682052]
 [0.3        1.42469209]
 [0.32341667 1.17807545]]",1,1.543
8730571689,f,19,english,5,3,english,2024-01-25 10:40:25.221683,False,2,498,sounds\english\audio/english_300.wav,"[[  0.         -57.32903368]
 [  0.1        -14.80176218]
 [  0.2         17.32090115]
 [  0.3          9.38584248]
 [  0.32341667 -54.58865419]]","[[0.         1.31106943]
 [0.1        1.36432179]
 [0.2        1.9756976 ]
 [0.3        1.38621255]
 [0.32341667 1.60203422]]",0,0.414
8730571689,f,19,english,5,3,english,2024-01-25 10:40:25.221683,False,2,499,sounds\english\audio/english_923.wav,"[[  0.          -0.59122564]
 [  0.1         -5.70499959]
 [  0.2        -29.88927864]
 [  0.3        -82.02126299]
 [  0.32341667  16.89967319]]","[[0.         1.19594648]
 [0.1        1.05419104]
 [0.2        0.73000078]
 [0.3        1.36390543]
 [0.32341667 1.13865732]]",0,0.602
8730571689,f,19,english,5,3,english,2024-01-25 10:40:25.221683,False,2,500,sounds\english\audio/english_617.wav,"[[  0.         -99.94195333]
 [  0.1        -27.54289523]
 [  0.2        -31.48016085]
 [  0.3        -72.28967102]
 [  0.32341667 -18.83127656]]","[[0.         1.17597353]
 [0.1        0.72595777]
 [0.2        0.94648609]
 [0.3        1.67485207]
 [0.32341667 0.94146903]]",0,0.703
8730571689,f,19,english,5,3,english,2024-01-25 10:40:25.221683,False,2,501,sounds\english\audio/english_869.wav,"[[  0.          31.82870938]
 [  0.1         55.69153841]
 [  0.2         44.83997999]
 [  0.3        -64.6596515 ]
 [  0.32341667 -51.58434075]]","[[0.         0.91730192]
 [0.1        1.54634356]
 [0.2        0.32401745]
 [0.3        1.34292926]
 [0.32341667 0.99771643]]",1,0.393
8730571689,f,19,english,5,3,english,2024-01-25 10:40:25.221683,False,2,502,sounds\english\audio/english_205.wav,"[[  0.          55.03693902]
 [  0.1         59.05347117]
 [  0.2        -51.93258482]
 [  0.3        -18.66886592]
 [  0.32341667 -25.16213195]]","[[0.         1.41699591]
 [0.1        0.25749205]
 [0.2        1.78695407]
 [0.3        0.11157042]
 [0.32341667 1.74030417]]",0,0.762
