subj,sex,age,language,english,french,native_lang,date,practice,block,trial,stim,pitch,stretch,response,rt
5,m,38,english,5,3,english,2024-02-09 19:18:22.337453,True,0,0,sounds\english\audio/english_38.wav,"[[  0.          -2.78484508]
 [  0.1        -57.68912839]
 [  0.2        -17.27242754]
 [  0.3         -2.64514482]
 [  0.32341667  55.14373267]]","[[0.         0.45448836]
 [0.1        0.86252605]
 [0.2        1.61904865]
 [0.3        1.39130822]
 [0.32341667 1.59066599]]",1,6.506
5,m,38,english,5,3,english,2024-02-09 19:18:22.337453,True,0,1,sounds\english\audio/english_492.wav,"[[  0.         -66.2832746 ]
 [  0.1        -19.36008054]
 [  0.2         95.25769545]
 [  0.3        -42.69351484]
 [  0.32341667  48.13359561]]","[[0.         0.52930651]
 [0.1        1.11739795]
 [0.2        1.86018292]
 [0.3        0.07313262]
 [0.32341667 0.30480454]]",1,2.152
5,m,38,english,5,3,english,2024-02-09 19:18:22.337453,True,0,2,sounds\english\audio/english_218.wav,"[[  0.          87.3373499 ]
 [  0.1        -14.87903436]
 [  0.2        -31.97943339]
 [  0.3        -60.49311609]
 [  0.32341667 -63.68242647]]","[[0.         1.94084006]
 [0.1        0.13305972]
 [0.2        1.11441312]
 [0.3        1.83933377]
 [0.32341667 1.41053301]]",1,1.122
5,m,38,english,5,3,english,2024-02-09 19:18:22.337453,False,1,3,sounds\english\audio/english_206.wav,"[[  0.          29.86029141]
 [  0.1        -65.49550847]
 [  0.2         -8.37849199]
 [  0.3         16.32170521]
 [  0.32341667 -96.55544023]]","[[0.         0.9413203 ]
 [0.1        1.58501733]
 [0.2        1.84833856]
 [0.3        1.12864021]
 [0.32341667 0.85017735]]",0,2.452
5,m,38,english,5,3,english,2024-02-09 19:18:22.337453,False,1,4,sounds\english\audio/english_191.wav,"[[  0.           5.22709543]
 [  0.1        -51.29785688]
 [  0.2         14.39503603]
 [  0.3         60.50312404]
 [  0.32341667  68.15927452]]","[[0.         0.24693927]
 [0.1        1.61528443]
 [0.2        0.10158113]
 [0.3        1.02883866]
 [0.32341667 0.69870432]]",0,1.381
5,m,38,english,5,3,english,2024-02-09 19:18:22.337453,False,1,5,sounds\english\audio/english_303.wav,"[[  0.          67.00540241]
 [  0.1         32.95821842]
 [  0.2        -23.67517146]
 [  0.3        -66.94926695]
 [  0.32341667  65.71723135]]","[[0.         1.22520816]
 [0.1        1.22732479]
 [0.2        0.54923068]
 [0.3        0.8977578 ]
 [0.32341667 1.41807679]]",0,0.852
5,m,38,english,5,3,english,2024-02-09 19:18:22.337453,False,1,6,sounds\english\audio/english_45.wav,"[[  0.          72.55677234]
 [  0.1         34.43244276]
 [  0.2         12.66368291]
 [  0.3         47.17471186]
 [  0.32341667 -48.2883803 ]]","[[0.         0.302627  ]
 [0.1        1.957389  ]
 [0.2        1.1456601 ]
 [0.3        1.77472104]
 [0.32341667 1.7760992 ]]",1,0.549
5,m,38,english,5,3,english,2024-02-09 19:18:22.337453,False,1,7,sounds\english\audio/english_928.wav,"[[  0.          55.07207497]
 [  0.1         83.71672672]
 [  0.2        -43.28929986]
 [  0.3        -17.1692271 ]
 [  0.32341667 -36.644272  ]]","[[0.         1.22706758]
 [0.1        0.97206042]
 [0.2        0.16969859]
 [0.3        0.90092586]
 [0.32341667 0.43024518]]",0,0.777
5,m,38,english,5,3,english,2024-02-09 19:18:22.337453,False,1,8,sounds\english\audio/english_279.wav,"[[  0.         -20.90398108]
 [  0.1         98.83098338]
 [  0.2        -95.37608427]
 [  0.3        -52.65380993]
 [  0.32341667  47.72500112]]","[[0.         0.60114424]
 [0.1        0.92336304]
 [0.2        1.39045705]
 [0.3        0.64938935]
 [0.32341667 1.57478054]]",1,2.259
5,m,38,english,5,3,english,2024-02-09 19:18:22.337453,False,1,9,sounds\english\audio/english_948.wav,"[[  0.          12.28616187]
 [  0.1         33.44634687]
 [  0.2         98.80566767]
 [  0.3        -93.57044844]
 [  0.32341667 -51.09398555]]","[[0.         1.33435242]
 [0.1        1.33862855]
 [0.2        1.25876505]
 [0.3        1.87938727]
 [0.32341667 1.88731406]]",1,0.439
5,m,38,english,5,3,english,2024-02-09 19:18:22.337453,False,1,10,sounds\english\audio/english_91.wav,"[[  0.         -67.73951944]
 [  0.1         83.83337034]
 [  0.2        -12.75649653]
 [  0.3          5.95502951]
 [  0.32341667  59.56964586]]","[[0.         0.2772338 ]
 [0.1        0.0816757 ]
 [0.2        0.92538416]
 [0.3        0.40714056]
 [0.32341667 1.8717525 ]]",0,0.821
5,m,38,english,5,3,english,2024-02-09 19:18:22.337453,False,1,11,sounds\english\audio/english_592.wav,"[[  0.         -77.34060672]
 [  0.1         27.41551815]
 [  0.2        -17.47445882]
 [  0.3        -61.08462212]
 [  0.32341667  74.7675789 ]]","[[0.         0.96869857]
 [0.1        1.75134411]
 [0.2        1.41680483]
 [0.3        1.07260777]
 [0.32341667 0.73150904]]",1,2.501
5,m,38,english,5,3,english,2024-02-09 19:18:22.337453,False,1,12,sounds\english\audio/english_230.wav,"[[  0.          59.01519707]
 [  0.1        -74.67447784]
 [  0.2         78.11378701]
 [  0.3         26.79367619]
 [  0.32341667  29.92451654]]","[[0.         0.66464778]
 [0.1        1.09498554]
 [0.2        0.24708562]
 [0.3        1.40152246]
 [0.32341667 1.02203861]]",0,0.33
5,m,38,english,5,3,english,2024-02-09 19:18:22.337453,False,1,13,sounds\english\audio/english_537.wav,"[[  0.          70.8709352 ]
 [  0.1         32.34369018]
 [  0.2        -92.9302278 ]
 [  0.3         14.89115364]
 [  0.32341667 -67.12260703]]","[[0.         0.55947112]
 [0.1        1.10627241]
 [0.2        1.10842043]
 [0.3        0.86800797]
 [0.32341667 1.7659473 ]]",1,1.244
5,m,38,english,5,3,english,2024-02-09 19:18:22.337453,False,1,14,sounds\english\audio/english_44.wav,"[[  0.         -68.86201344]
 [  0.1         36.61833882]
 [  0.2        -60.65796264]
 [  0.3        -99.582901  ]
 [  0.32341667  68.59920212]]","[[0.         1.38154723]
 [0.1        0.11193842]
 [0.2        0.83798569]
 [0.3        0.3073865 ]
 [0.32341667 1.10922951]]",0,0.526
5,m,38,english,5,3,english,2024-02-09 19:18:22.337453,False,1,15,sounds\english\audio/english_791.wav,"[[  0.          65.91759783]
 [  0.1        -36.70731143]
 [  0.2         67.54354156]
 [  0.3          2.89249458]
 [  0.32341667 -55.92630603]]","[[0.         1.00744019]
 [0.1        0.67929445]
 [0.2        0.95779159]
 [0.3        1.93585264]
 [0.32341667 0.7587469 ]]",0,0.842
5,m,38,english,5,3,english,2024-02-09 19:18:22.337453,False,1,16,sounds\english\audio/english_271.wav,"[[  0.          24.41564841]
 [  0.1        -64.42577909]
 [  0.2         32.27025317]
 [  0.3         58.71212772]
 [  0.32341667  46.7300547 ]]","[[0.         0.25667552]
 [0.1        1.20221217]
 [0.2        0.24658485]
 [0.3        1.57844265]
 [0.32341667 1.00400066]]",0,0.63
5,m,38,english,5,3,english,2024-02-09 19:18:22.337453,False,1,17,sounds\english\audio/english_936.wav,"[[  0.          48.39129511]
 [  0.1        -60.21618585]
 [  0.2         21.92845445]
 [  0.3         72.85258749]
 [  0.32341667  60.11152814]]","[[0.         0.54114143]
 [0.1        1.68728974]
 [0.2        1.39155326]
 [0.3        0.90488419]
 [0.32341667 1.20326098]]",1,0.413
5,m,38,english,5,3,english,2024-02-09 19:18:22.337453,False,1,18,sounds\english\audio/english_772.wav,"[[  0.         -76.23750274]
 [  0.1         54.42820472]
 [  0.2         26.41325181]
 [  0.3         14.10037165]
 [  0.32341667 -75.83605273]]","[[0.         0.54712598]
 [0.1        1.66698734]
 [0.2        1.761061  ]
 [0.3        1.80899506]
 [0.32341667 1.29882268]]",1,0.2
5,m,38,english,5,3,english,2024-02-09 19:18:22.337453,False,1,19,sounds\english\audio/english_507.wav,"[[  0.         -61.1842488 ]
 [  0.1        -67.40048172]
 [  0.2         12.41471853]
 [  0.3        -23.82579329]
 [  0.32341667   9.53005369]]","[[0.         1.97653192]
 [0.1        1.52355847]
 [0.2        0.98006415]
 [0.3        0.44372312]
 [0.32341667 0.65281453]]",0,1.462
5,m,38,english,5,3,english,2024-02-09 19:18:22.337453,False,1,20,sounds\english\audio/english_928.wav,"[[  0.          55.07207497]
 [  0.1         83.71672672]
 [  0.2        -43.28929986]
 [  0.3        -17.1692271 ]
 [  0.32341667 -36.644272  ]]","[[0.         1.22706758]
 [0.1        0.97206042]
 [0.2        0.16969859]
 [0.3        0.90092586]
 [0.32341667 0.43024518]]",0,0.489
5,m,38,english,5,3,english,2024-02-09 19:18:22.337453,False,1,21,sounds\english\audio/english_893.wav,"[[  0.          17.19699967]
 [  0.1         57.52525856]
 [  0.2         13.30661706]
 [  0.3         33.02687073]
 [  0.32341667 -64.43392463]]","[[0.         0.82427167]
 [0.1        1.49866988]
 [0.2        0.84536161]
 [0.3        0.10168024]
 [0.32341667 0.7117056 ]]",1,0.592
5,m,38,english,5,3,english,2024-02-09 19:18:22.337453,False,1,22,sounds\english\audio/english_391.wav,"[[  0.          67.64906061]
 [  0.1         79.28195584]
 [  0.2         62.27299227]
 [  0.3        -11.10764883]
 [  0.32341667  57.41338752]]","[[0.         0.41951577]
 [0.1        0.03526883]
 [0.2        0.81828659]
 [0.3        1.2900604 ]
 [0.32341667 1.95373865]]",0,0.649
5,m,38,english,5,3,english,2024-02-09 19:18:22.337453,False,1,23,sounds\english\audio/english_656.wav,"[[  0.          -4.15957802]
 [  0.1        -31.70283109]
 [  0.2        -35.90055673]
 [  0.3        -27.39202404]
 [  0.32341667  -5.54715508]]","[[0.         0.9962349 ]
 [0.1        1.16669679]
 [0.2        0.85512169]
 [0.3        1.68840921]
 [0.32341667 1.5699395 ]]",1,1.61
5,m,38,english,5,3,english,2024-02-09 19:18:22.337453,False,1,24,sounds\english\audio/english_181.wav,"[[  0.         -20.89133039]
 [  0.1        -68.36112581]
 [  0.2        -21.7912093 ]
 [  0.3          7.62752627]
 [  0.32341667  53.94324841]]","[[0.         0.39550568]
 [0.1        0.87114476]
 [0.2        0.0214418 ]
 [0.3        1.98777716]
 [0.32341667 0.40706026]]",0,3.474
5,m,38,english,5,3,english,2024-02-09 19:18:22.337453,False,1,25,sounds\english\audio/english_801.wav,"[[  0.          66.50571345]
 [  0.1        -53.03260979]
 [  0.2         -3.89459646]
 [  0.3          8.32951864]
 [  0.32341667 -87.46806733]]","[[0.         0.19311528]
 [0.1        0.48683601]
 [0.2        1.16293258]
 [0.3        1.55734707]
 [0.32341667 0.63471681]]",0,0.732
5,m,38,english,5,3,english,2024-02-09 19:18:22.337453,False,1,26,sounds\english\audio/english_334.wav,"[[  0.         -67.45724149]
 [  0.1         -9.29085452]
 [  0.2        -52.27794836]
 [  0.3         97.74689659]
 [  0.32341667  69.13668576]]","[[0.         1.41500124]
 [0.1        1.93519658]
 [0.2        1.67457228]
 [0.3        1.80763723]
 [0.32341667 0.68141016]]",0,0.66
5,m,38,english,5,3,english,2024-02-09 19:18:22.337453,False,1,27,sounds\english\audio/english_302.wav,"[[  0.         -63.95927305]
 [  0.1        -82.44028643]
 [  0.2        -63.33590257]
 [  0.3        -82.33590521]
 [  0.32341667 -77.43124585]]","[[0.         1.3663617 ]
 [0.1        1.24112643]
 [0.2        1.83999602]
 [0.3        0.89576132]
 [0.32341667 1.51483357]]",0,0.593
5,m,38,english,5,3,english,2024-02-09 19:18:22.337453,False,1,28,sounds\english\audio/english_569.wav,"[[  0.         -44.4695194 ]
 [  0.1         50.36705327]
 [  0.2        -76.17438636]
 [  0.3         55.47083669]
 [  0.32341667 -10.68913609]]","[[0.         1.56768834]
 [0.1        0.42032873]
 [0.2        0.31133764]
 [0.3        0.91900801]
 [0.32341667 1.26529561]]",0,0.61
5,m,38,english,5,3,english,2024-02-09 19:18:22.337453,False,1,29,sounds\english\audio/english_705.wav,"[[  0.           3.76426423]
 [  0.1         90.96696755]
 [  0.2        -32.86898574]
 [  0.3        -21.12550784]
 [  0.32341667  39.74077299]]","[[0.         0.9500377 ]
 [0.1        0.74173997]
 [0.2        1.78776637]
 [0.3        0.8178788 ]
 [0.32341667 1.54913024]]",0,3.599
5,m,38,english,5,3,english,2024-02-09 19:18:22.337453,False,1,30,sounds\english\audio/english_373.wav,"[[  0.         -63.66458186]
 [  0.1        -61.42386056]
 [  0.2        -78.74831974]
 [  0.3        -23.23108213]
 [  0.32341667 -77.15694383]]","[[0.         0.61104768]
 [0.1        1.64905001]
 [0.2        1.44355649]
 [0.3        1.63671726]
 [0.32341667 1.96911306]]",0,0.316
5,m,38,english,5,3,english,2024-02-09 19:18:22.337453,False,1,31,sounds\english\audio/english_54.wav,"[[  0.           1.86764875]
 [  0.1         -1.78672474]
 [  0.2        -26.58380414]
 [  0.3         -2.56688864]
 [  0.32341667 -76.29238916]]","[[0.         1.47639799]
 [0.1        1.92944336]
 [0.2        0.76292987]
 [0.3        1.78735236]
 [0.32341667 0.80366269]]",1,0.445
5,m,38,english,5,3,english,2024-02-09 19:18:22.337453,False,1,32,sounds\english\audio/english_295.wav,"[[  0.         -76.51454746]
 [  0.1        -96.9380047 ]
 [  0.2        -72.79782389]
 [  0.3        -31.86888898]
 [  0.32341667 -51.47839766]]","[[0.         1.12273409]
 [0.1        0.2018376 ]
 [0.2        1.81703153]
 [0.3        0.31799467]
 [0.32341667 0.71777059]]",0,0.387
5,m,38,english,5,3,english,2024-02-09 19:18:22.337453,False,1,33,sounds\english\audio/english_903.wav,"[[  0.          73.58848698]
 [  0.1        -95.58060262]
 [  0.2         17.41642173]
 [  0.3         94.35223882]
 [  0.32341667 -49.48803877]]","[[0.         0.30588109]
 [0.1        0.88963747]
 [0.2        1.73634476]
 [0.3        0.71257749]
 [0.32341667 1.4824474 ]]",1,0.429
5,m,38,english,5,3,english,2024-02-09 19:18:22.337453,False,1,34,sounds\english\audio/english_139.wav,"[[  0.          55.35526281]
 [  0.1        -66.48550036]
 [  0.2         21.45340352]
 [  0.3        -32.80413748]
 [  0.32341667 -77.32206638]]","[[0.         1.40478417]
 [0.1        1.12007301]
 [0.2        1.58559909]
 [0.3        1.13081383]
 [0.32341667 0.38560717]]",0,0.651
5,m,38,english,5,3,english,2024-02-09 19:18:22.337453,False,1,35,sounds\english\audio/english_693.wav,"[[  0.         -83.71635172]
 [  0.1         32.46406691]
 [  0.2          8.27548994]
 [  0.3         15.80660539]
 [  0.32341667  74.32681132]]","[[0.         0.35753224]
 [0.1        1.09553371]
 [0.2        1.67166692]
 [0.3        1.61413862]
 [0.32341667 1.90943184]]",1,0.324
5,m,38,english,5,3,english,2024-02-09 19:18:22.337453,False,1,36,sounds\english\audio/english_140.wav,"[[  0.         -63.97366245]
 [  0.1        -84.90656008]
 [  0.2         93.42782744]
 [  0.3         11.57634117]
 [  0.32341667  80.35905055]]","[[0.         1.49783115]
 [0.1        1.37250299]
 [0.2        0.10650492]
 [0.3        0.84315206]
 [0.32341667 1.26233419]]",0,0.673
5,m,38,english,5,3,english,2024-02-09 19:18:22.337453,False,1,37,sounds\english\audio/english_114.wav,"[[  0.          32.66189176]
 [  0.1         11.50533392]
 [  0.2        -73.58201401]
 [  0.3         -8.93644113]
 [  0.32341667  -2.4794064 ]]","[[0.         0.56529239]
 [0.1        1.79520186]
 [0.2        1.4619954 ]
 [0.3        0.78288211]
 [0.32341667 0.66376764]]",1,0.875
5,m,38,english,5,3,english,2024-02-09 19:18:22.337453,False,1,38,sounds\english\audio/english_295.wav,"[[  0.         -76.51454746]
 [  0.1        -96.9380047 ]
 [  0.2        -72.79782389]
 [  0.3        -31.86888898]
 [  0.32341667 -51.47839766]]","[[0.         1.12273409]
 [0.1        0.2018376 ]
 [0.2        1.81703153]
 [0.3        0.31799467]
 [0.32341667 0.71777059]]",1,0.904
5,m,38,english,5,3,english,2024-02-09 19:18:22.337453,False,1,39,sounds\english\audio/english_305.wav,"[[  0.         -23.95553444]
 [  0.1        -97.95184299]
 [  0.2         95.23338475]
 [  0.3         10.74081096]
 [  0.32341667  24.9757793 ]]","[[0.         0.70401859]
 [0.1        0.00875292]
 [0.2        1.8427633 ]
 [0.3        1.83453859]
 [0.32341667 1.77535614]]",0,0.482
5,m,38,english,5,3,english,2024-02-09 19:18:22.337453,False,1,40,sounds\english\audio/english_710.wav,"[[  0.         -75.8732007 ]
 [  0.1        -57.22858583]
 [  0.2         28.4956072 ]
 [  0.3        -96.06281818]
 [  0.32341667  12.57492899]]","[[0.         1.76991952]
 [0.1        1.84377411]
 [0.2        1.20069914]
 [0.3        0.06088286]
 [0.32341667 1.86160088]]",0,0.955
5,m,38,english,5,3,english,2024-02-09 19:18:22.337453,False,1,41,sounds\english\audio/english_362.wav,"[[  0.          12.71485551]
 [  0.1        -18.83660308]
 [  0.2        -52.07271323]
 [  0.3        -29.96931661]
 [  0.32341667  -9.99178163]]","[[0.         1.44490364]
 [0.1        1.3029027 ]
 [0.2        1.10609828]
 [0.3        1.18379787]
 [0.32341667 1.80996789]]",0,0.943
5,m,38,english,5,3,english,2024-02-09 19:18:22.337453,False,1,42,sounds\english\audio/english_778.wav,"[[  0.          99.37283207]
 [  0.1         61.02900927]
 [  0.2        -43.89505842]
 [  0.3         -6.51139434]
 [  0.32341667 -98.37213751]]","[[0.         0.92158405]
 [0.1        1.90392814]
 [0.2        0.34916702]
 [0.3        1.21087231]
 [0.32341667 0.72140227]]",0,2.897
5,m,38,english,5,3,english,2024-02-09 19:18:22.337453,False,1,43,sounds\english\audio/english_751.wav,"[[  0.          45.03630887]
 [  0.1         46.59103402]
 [  0.2        -30.90440374]
 [  0.3        -61.26470289]
 [  0.32341667  34.91384756]]","[[0.         0.43450625]
 [0.1        1.30072592]
 [0.2        1.20093797]
 [0.3        0.81911259]
 [0.32341667 0.19140491]]",0,1.727
5,m,38,english,5,3,english,2024-02-09 19:18:22.337453,False,1,44,sounds\english\audio/english_793.wav,"[[  0.          -3.59370976]
 [  0.1        -92.44382947]
 [  0.2        -89.84008222]
 [  0.3         96.09352514]
 [  0.32341667  42.94050617]]","[[0.         0.95327953]
 [0.1        0.8890172 ]
 [0.2        0.47547445]
 [0.3        1.09208031]
 [0.32341667 0.63383093]]",0,2.429
5,m,38,english,5,3,english,2024-02-09 19:18:22.337453,False,1,45,sounds\english\audio/english_90.wav,"[[  0.          82.68866707]
 [  0.1        -81.25370946]
 [  0.2         56.28719083]
 [  0.3        -46.43338119]
 [  0.32341667 -19.93520327]]","[[0.         0.54239523]
 [0.1        1.03335699]
 [0.2        1.93576477]
 [0.3        0.74570916]
 [0.32341667 1.11115504]]",1,1.039
5,m,38,english,5,3,english,2024-02-09 19:18:22.337453,False,1,46,sounds\english\audio/english_895.wav,"[[  0.         -36.05432491]
 [  0.1          0.27991529]
 [  0.2        -68.50060493]
 [  0.3        -65.34452755]
 [  0.32341667  44.30205494]]","[[0.         1.57991636]
 [0.1        1.29141926]
 [0.2        0.78617821]
 [0.3        0.53071912]
 [0.32341667 1.44568828]]",0,6.264
5,m,38,english,5,3,english,2024-02-09 19:18:22.337453,False,1,47,sounds\english\audio/english_468.wav,"[[  0.         -33.82586043]
 [  0.1        -42.55840131]
 [  0.2        -36.6492295 ]
 [  0.3         39.91321296]
 [  0.32341667  54.14936319]]","[[0.         0.35164089]
 [0.1        0.20114733]
 [0.2        1.40729654]
 [0.3        0.04300573]
 [0.32341667 1.79642733]]",0,0.498
5,m,38,english,5,3,english,2024-02-09 19:18:22.337453,False,1,48,sounds\english\audio/english_872.wav,"[[  0.           0.56374655]
 [  0.1        -70.88107799]
 [  0.2          6.46677515]
 [  0.3        -23.51354109]
 [  0.32341667  81.64578493]]","[[0.         0.10935802]
 [0.1        0.91778609]
 [0.2        1.38740199]
 [0.3        0.12682507]
 [0.32341667 0.71067476]]",0,2.033
5,m,38,english,5,3,english,2024-02-09 19:18:22.337453,False,1,49,sounds\english\audio/english_724.wav,"[[  0.         -91.46740291]
 [  0.1         23.01616352]
 [  0.2        -29.32408493]
 [  0.3        -79.49145217]
 [  0.32341667  82.35247912]]","[[0.         0.46376674]
 [0.1        1.84849858]
 [0.2        1.44978715]
 [0.3        1.24719002]
 [0.32341667 0.99570929]]",0,0.665
5,m,38,english,5,3,english,2024-02-09 19:18:22.337453,False,1,50,sounds\english\audio/english_206.wav,"[[  0.          29.86029141]
 [  0.1        -65.49550847]
 [  0.2         -8.37849199]
 [  0.3         16.32170521]
 [  0.32341667 -96.55544023]]","[[0.         0.9413203 ]
 [0.1        1.58501733]
 [0.2        1.84833856]
 [0.3        1.12864021]
 [0.32341667 0.85017735]]",1,0.916
5,m,38,english,5,3,english,2024-02-09 19:18:22.337453,False,1,51,sounds\english\audio/english_486.wav,"[[  0.          31.41997184]
 [  0.1         58.03480486]
 [  0.2        -62.84801238]
 [  0.3         10.62451678]
 [  0.32341667  10.31835057]]","[[0.         1.22599644]
 [0.1        1.4547445 ]
 [0.2        0.27967606]
 [0.3        0.02065399]
 [0.32341667 0.3128479 ]]",0,0.53
5,m,38,english,5,3,english,2024-02-09 19:18:22.337453,False,1,52,sounds\english\audio/english_735.wav,"[[  0.          51.40973306]
 [  0.1         -5.42867159]
 [  0.2         13.71146629]
 [  0.3        -14.17202169]
 [  0.32341667  14.98699592]]","[[0.         0.29099813]
 [0.1        1.62833375]
 [0.2        0.32849247]
 [0.3        0.46991549]
 [0.32341667 0.51625305]]",0,1.479
5,m,38,english,5,3,english,2024-02-09 19:18:22.337453,False,1,53,sounds\english\audio/english_505.wav,"[[  0.         -14.1569725 ]
 [  0.1         55.52926248]
 [  0.2         53.00334781]
 [  0.3         75.03788466]
 [  0.32341667  -7.91266729]]","[[0.         0.45361713]
 [0.1        0.94516805]
 [0.2        0.85342654]
 [0.3        1.32942474]
 [0.32341667 0.93790665]]",1,0.473
5,m,38,english,5,3,english,2024-02-09 19:18:22.337453,False,1,54,sounds\english\audio/english_300.wav,"[[  0.         -57.32903368]
 [  0.1        -14.80176218]
 [  0.2         17.32090115]
 [  0.3          9.38584248]
 [  0.32341667 -54.58865419]]","[[0.         1.31106943]
 [0.1        1.36432179]
 [0.2        1.9756976 ]
 [0.3        1.38621255]
 [0.32341667 1.60203422]]",1,0.411
5,m,38,english,5,3,english,2024-02-09 19:18:22.337453,False,1,55,sounds\english\audio/english_110.wav,"[[  0.          87.43016285]
 [  0.1        -22.53798338]
 [  0.2         60.38266123]
 [  0.3         50.75224473]
 [  0.32341667  87.78495288]]","[[0.         1.84693198]
 [0.1        0.72868036]
 [0.2        1.6889543 ]
 [0.3        0.97311446]
 [0.32341667 0.46157718]]",1,0.22
5,m,38,english,5,3,english,2024-02-09 19:18:22.337453,False,1,56,sounds\english\audio/english_383.wav,"[[  0.          -1.49759031]
 [  0.1         48.0809444 ]
 [  0.2        -84.09524499]
 [  0.3         95.23220486]
 [  0.32341667  64.91086902]]","[[0.         0.61403304]
 [0.1        0.69225556]
 [0.2        0.33452268]
 [0.3        1.06792504]
 [0.32341667 0.58483827]]",0,0.381
5,m,38,english,5,3,english,2024-02-09 19:18:22.337453,False,1,57,sounds\english\audio/english_757.wav,"[[  0.         -71.37581006]
 [  0.1        -34.89028362]
 [  0.2         97.72444176]
 [  0.3          8.64322444]
 [  0.32341667 -59.15215987]]","[[0.         0.57944866]
 [0.1        1.76833087]
 [0.2        0.43040584]
 [0.3        1.84780211]
 [0.32341667 0.21714226]]",1,0.398
5,m,38,english,5,3,english,2024-02-09 19:18:22.337453,False,1,58,sounds\english\audio/english_841.wav,"[[  0.          36.57834023]
 [  0.1         81.12994836]
 [  0.2         55.4316434 ]
 [  0.3        -50.85387517]
 [  0.32341667 -52.13814436]]","[[0.         0.37598589]
 [0.1        1.18949815]
 [0.2        1.24219065]
 [0.3        1.45004046]
 [0.32341667 0.19253582]]",1,0.288
5,m,38,english,5,3,english,2024-02-09 19:18:22.337453,False,1,59,sounds\english\audio/english_367.wav,"[[  0.          69.68935346]
 [  0.1        -21.84293244]
 [  0.2        -22.40126322]
 [  0.3        -77.83415675]
 [  0.32341667  18.42522507]]","[[0.         1.12532443]
 [0.1        1.15903886]
 [0.2        1.68834661]
 [0.3        1.78966274]
 [0.32341667 1.57311162]]",1,0.109
5,m,38,english,5,3,english,2024-02-09 19:18:22.337453,False,1,60,sounds\english\audio/english_629.wav,"[[  0.          76.68747977]
 [  0.1         72.0676039 ]
 [  0.2         -3.42071834]
 [  0.3        -75.36993348]
 [  0.32341667 -15.4233884 ]]","[[0.         0.56482572]
 [0.1        0.14075004]
 [0.2        0.80885654]
 [0.3        1.43133267]
 [0.32341667 0.14234351]]",0,0.633
5,m,38,english,5,3,english,2024-02-09 19:18:22.337453,False,1,61,sounds\english\audio/english_111.wav,"[[  0.          43.12539807]
 [  0.1         63.99665526]
 [  0.2         86.04570556]
 [  0.3        -25.76798659]
 [  0.32341667 -36.14422463]]","[[0.         1.84745579]
 [0.1        0.92577031]
 [0.2        0.31264784]
 [0.3        0.89352032]
 [0.32341667 0.32138535]]",1,1.106
5,m,38,english,5,3,english,2024-02-09 19:18:22.337453,False,1,62,sounds\english\audio/english_620.wav,"[[ 0.00000000e+00 -9.29203055e+01]
 [ 1.00000000e-01  2.67086056e+01]
 [ 2.00000000e-01  8.91883135e+01]
 [ 3.00000000e-01 -5.57738795e-02]
 [ 3.23416667e-01  2.97872430e+00]]","[[0.         0.43561856]
 [0.1        0.24535421]
 [0.2        1.34102831]
 [0.3        1.80103954]
 [0.32341667 0.21248525]]",0,0.511
5,m,38,english,5,3,english,2024-02-09 19:18:22.337453,False,1,63,sounds\english\audio/english_43.wav,"[[  0.          22.40064366]
 [  0.1        -68.20152198]
 [  0.2         62.56231291]
 [  0.3         45.0736378 ]
 [  0.32341667 -36.46791656]]","[[0.         1.74132857]
 [0.1        0.12763156]
 [0.2        0.31420738]
 [0.3        0.98572154]
 [0.32341667 0.91325677]]",0,0.454
5,m,38,english,5,3,english,2024-02-09 19:18:22.337453,False,1,64,sounds\english\audio/english_114.wav,"[[  0.          32.66189176]
 [  0.1         11.50533392]
 [  0.2        -73.58201401]
 [  0.3         -8.93644113]
 [  0.32341667  -2.4794064 ]]","[[0.         0.56529239]
 [0.1        1.79520186]
 [0.2        1.4619954 ]
 [0.3        0.78288211]
 [0.32341667 0.66376764]]",1,2.109
5,m,38,english,5,3,english,2024-02-09 19:18:22.337453,False,1,65,sounds\english\audio/english_236.wav,"[[  0.          14.26564849]
 [  0.1         60.97219358]
 [  0.2        -12.39626346]
 [  0.3        -62.87774076]
 [  0.32341667 -75.97684705]]","[[0.         0.89253674]
 [0.1        0.38957934]
 [0.2        1.55558051]
 [0.3        0.2682718 ]
 [0.32341667 1.92182597]]",0,0.476
5,m,38,english,5,3,english,2024-02-09 19:18:22.337453,False,1,66,sounds\english\audio/english_1.wav,"[[  0.          53.99031816]
 [  0.1        -58.32145174]
 [  0.2        -86.75659624]
 [  0.3        -31.84945767]
 [  0.32341667 -59.21997754]]","[[0.         1.91732561]
 [0.1        0.75352701]
 [0.2        1.40297919]
 [0.3        0.12157709]
 [0.32341667 1.57687546]]",1,0.411
5,m,38,english,5,3,english,2024-02-09 19:18:22.337453,False,1,67,sounds\english\audio/english_829.wav,"[[  0.          60.30417439]
 [  0.1        -26.87459656]
 [  0.2         59.05286014]
 [  0.3        -38.64739237]
 [  0.32341667  68.61732932]]","[[0.         0.94286345]
 [0.1        0.76756767]
 [0.2        1.50609211]
 [0.3        0.33518122]
 [0.32341667 1.40687349]]",0,0.552
5,m,38,english,5,3,english,2024-02-09 19:18:22.337453,False,1,68,sounds\english\audio/english_471.wav,"[[  0.          47.42131089]
 [  0.1        -63.95282256]
 [  0.2         31.67244378]
 [  0.3         40.6572625 ]
 [  0.32341667 -18.6332399 ]]","[[0.         0.58869392]
 [0.1        1.74739294]
 [0.2        1.10105994]
 [0.3        0.54790015]
 [0.32341667 1.33029013]]",0,0.669
5,m,38,english,5,3,english,2024-02-09 19:18:22.337453,False,1,69,sounds\english\audio/english_340.wav,"[[  0.          42.62794877]
 [  0.1         67.09042835]
 [  0.2        -80.28719593]
 [  0.3        -47.97556268]
 [  0.32341667  32.7013797 ]]","[[0.         1.44385011]
 [0.1        1.29329602]
 [0.2        1.71068781]
 [0.3        0.48872717]
 [0.32341667 1.09000269]]",0,0.506
5,m,38,english,5,3,english,2024-02-09 19:18:22.337453,False,1,70,sounds\english\audio/english_625.wav,"[[  0.          25.70847239]
 [  0.1        -37.82303983]
 [  0.2         38.52328891]
 [  0.3        -23.93667478]
 [  0.32341667 -53.98326942]]","[[0.         1.1960971 ]
 [0.1        0.02795501]
 [0.2        1.10198652]
 [0.3        0.08852642]
 [0.32341667 1.59813041]]",1,1.713
5,m,38,english,5,3,english,2024-02-09 19:18:22.337453,False,1,71,sounds\english\audio/english_556.wav,"[[ 0.         35.62658416]
 [ 0.1        28.75181601]
 [ 0.2        -2.62389444]
 [ 0.3        64.03572584]
 [ 0.32341667 72.79696002]]","[[0.         1.88481821]
 [0.1        0.4023528 ]
 [0.2        1.49364055]
 [0.3        1.54190039]
 [0.32341667 0.53435232]]",0,0.414
5,m,38,english,5,3,english,2024-02-09 19:18:22.337453,False,1,72,sounds\english\audio/english_191.wav,"[[  0.           5.22709543]
 [  0.1        -51.29785688]
 [  0.2         14.39503603]
 [  0.3         60.50312404]
 [  0.32341667  68.15927452]]","[[0.         0.24693927]
 [0.1        1.61528443]
 [0.2        0.10158113]
 [0.3        1.02883866]
 [0.32341667 0.69870432]]",0,0.97
5,m,38,english,5,3,english,2024-02-09 19:18:22.337453,False,1,73,sounds\english\audio/english_899.wav,"[[  0.          34.44970312]
 [  0.1        -73.97598586]
 [  0.2          4.84970015]
 [  0.3         25.99530817]
 [  0.32341667   7.0197251 ]]","[[0.         1.0262563 ]
 [0.1        0.5565938 ]
 [0.2        0.08950317]
 [0.3        1.10823657]
 [0.32341667 1.27665612]]",1,0.402
5,m,38,english,5,3,english,2024-02-09 19:18:22.337453,False,1,74,sounds\english\audio/english_231.wav,"[[  0.         -57.04299033]
 [  0.1        -61.30294243]
 [  0.2         11.10207427]
 [  0.3         -1.38864911]
 [  0.32341667 -40.37897369]]","[[0.         1.30850831]
 [0.1        1.06317761]
 [0.2        1.86768436]
 [0.3        1.42169342]
 [0.32341667 0.58634772]]",1,0.446
5,m,38,english,5,3,english,2024-02-09 19:18:22.337453,False,1,75,sounds\english\audio/english_331.wav,"[[  0.          12.66323204]
 [  0.1        -81.78605138]
 [  0.2         59.07546792]
 [  0.3        -83.73170191]
 [  0.32341667   3.10587362]]","[[0.         1.93220763]
 [0.1        1.48237299]
 [0.2        1.15413743]
 [0.3        1.02182823]
 [0.32341667 0.81670354]]",0,0.321
5,m,38,english,5,3,english,2024-02-09 19:18:22.337453,False,1,76,sounds\english\audio/english_549.wav,"[[  0.          80.71270499]
 [  0.1        -71.31396277]
 [  0.2         48.34518996]
 [  0.3        -66.07502609]
 [  0.32341667 -52.28087662]]","[[0.         0.69011393]
 [0.1        1.1141308 ]
 [0.2        0.72072674]
 [0.3        0.60045359]
 [0.32341667 0.77200176]]",1,0.632
5,m,38,english,5,3,english,2024-02-09 19:18:22.337453,False,1,77,sounds\english\audio/english_906.wav,"[[  0.         -40.48589107]
 [  0.1         47.48995475]
 [  0.2        -46.73743802]
 [  0.3        -97.96557374]
 [  0.32341667  18.48293991]]","[[0.         1.22436898]
 [0.1        1.54823641]
 [0.2        1.02590908]
 [0.3        1.74877791]
 [0.32341667 0.76585735]]",0,0.76
5,m,38,english,5,3,english,2024-02-09 19:18:22.337453,False,1,78,sounds\english\audio/english_146.wav,"[[  0.          -7.47107612]
 [  0.1        -10.73298436]
 [  0.2         -4.63341632]
 [  0.3         14.65491039]
 [  0.32341667  19.96333333]]","[[0.         0.36907021]
 [0.1        0.24473139]
 [0.2        1.01983542]
 [0.3        0.62607899]
 [0.32341667 1.1005899 ]]",0,0.428
5,m,38,english,5,3,english,2024-02-09 19:18:22.337453,False,1,79,sounds\english\audio/english_998.wav,"[[  0.         -57.03196796]
 [  0.1        -12.93623633]
 [  0.2        -24.63186366]
 [  0.3        -10.49750637]
 [  0.32341667  22.76793653]]","[[0.         0.0179282 ]
 [0.1        1.72217412]
 [0.2        0.91011795]
 [0.3        1.24282972]
 [0.32341667 0.40520665]]",0,1.889
5,m,38,english,5,3,english,2024-02-09 19:18:22.337453,False,1,80,sounds\english\audio/english_590.wav,"[[  0.         -36.198224  ]
 [  0.1        -81.6019347 ]
 [  0.2         23.00860846]
 [  0.3        -40.72667736]
 [  0.32341667  31.06175796]]","[[0.         1.58650853]
 [0.1        0.24081988]
 [0.2        0.40073912]
 [0.3        0.83686248]
 [0.32341667 1.43958247]]",0,0.611
5,m,38,english,5,3,english,2024-02-09 19:18:22.337453,False,1,81,sounds\english\audio/english_909.wav,"[[  0.         -19.4205152 ]
 [  0.1        -31.830868  ]
 [  0.2         71.05598051]
 [  0.3        -13.09259164]
 [  0.32341667 -99.47743822]]","[[0.         0.17681169]
 [0.1        1.02014656]
 [0.2        1.59945112]
 [0.3        1.33685121]
 [0.32341667 0.41114962]]",1,0.7
5,m,38,english,5,3,english,2024-02-09 19:18:22.337453,False,1,82,sounds\english\audio/english_223.wav,"[[  0.         -51.58222533]
 [  0.1        -36.02700064]
 [  0.2        -35.4915315 ]
 [  0.3          1.26892628]
 [  0.32341667  72.37143842]]","[[0.         0.62889348]
 [0.1        1.73736573]
 [0.2        1.20130681]
 [0.3        0.53176439]
 [0.32341667 1.24562253]]",1,0.624
5,m,38,english,5,3,english,2024-02-09 19:18:22.337453,False,1,83,sounds\english\audio/english_942.wav,"[[  0.          96.26286183]
 [  0.1        -96.45992778]
 [  0.2         50.93322043]
 [  0.3         14.6207779 ]
 [  0.32341667   7.19296333]]","[[0.         1.14976657]
 [0.1        0.962364  ]
 [0.2        0.99280793]
 [0.3        1.92237923]
 [0.32341667 1.02094568]]",1,0.842
5,m,38,english,5,3,english,2024-02-09 19:18:22.337453,False,1,84,sounds\english\audio/english_796.wav,"[[  0.          57.52331511]
 [  0.1        -53.71774571]
 [  0.2        -36.09214461]
 [  0.3         23.21783142]
 [  0.32341667 -74.52171885]]","[[0.         0.93419081]
 [0.1        0.77950231]
 [0.2        0.54947466]
 [0.3        1.69054841]
 [0.32341667 0.76047802]]",0,1.03
5,m,38,english,5,3,english,2024-02-09 19:18:22.337453,False,1,85,sounds\english\audio/english_682.wav,"[[  0.         -19.80167737]
 [  0.1        -30.98220326]
 [  0.2         26.07010201]
 [  0.3         -7.79776739]
 [  0.32341667 -10.9148898 ]]","[[0.         1.6131825 ]
 [0.1        1.03205672]
 [0.2        1.08357256]
 [0.3        1.70642947]
 [0.32341667 0.86858281]]",0,0.502
5,m,38,english,5,3,english,2024-02-09 19:18:22.337453,False,1,86,sounds\english\audio/english_402.wav,"[[  0.         -69.75327375]
 [  0.1        -37.13247603]
 [  0.2         95.06865819]
 [  0.3        -83.65219271]
 [  0.32341667 -39.65623645]]","[[0.         0.88104294]
 [0.1        1.50830761]
 [0.2        0.86613458]
 [0.3        1.46195184]
 [0.32341667 1.78030697]]",1,0.649
5,m,38,english,5,3,english,2024-02-09 19:18:22.337453,False,1,87,sounds\english\audio/english_956.wav,"[[  0.         -98.71257913]
 [  0.1        -36.05702295]
 [  0.2        -31.95582623]
 [  0.3        -81.31295359]
 [  0.32341667  45.09425789]]","[[0.         1.5828524 ]
 [0.1        0.66985857]
 [0.2        0.13798036]
 [0.3        0.22663358]
 [0.32341667 0.54862974]]",0,0.352
5,m,38,english,5,3,english,2024-02-09 19:18:22.337453,False,1,88,sounds\english\audio/english_574.wav,"[[  0.          53.128433  ]
 [  0.1         70.24248151]
 [  0.2         47.13290739]
 [  0.3         52.31480293]
 [  0.32341667 -33.06438127]]","[[0.         0.28349694]
 [0.1        0.66519348]
 [0.2        1.25768036]
 [0.3        1.43482954]
 [0.32341667 1.23350688]]",1,0.245
5,m,38,english,5,3,english,2024-02-09 19:18:22.337453,False,1,89,sounds\english\audio/english_896.wav,"[[  0.         -76.63716622]
 [  0.1        -73.11298951]
 [  0.2         48.53347054]
 [  0.3         -4.46661278]
 [  0.32341667 -44.69533701]]","[[0.         1.08893336]
 [0.1        0.41748987]
 [0.2        0.32012442]
 [0.3        0.63387312]
 [0.32341667 1.27766005]]",0,0.286
5,m,38,english,5,3,english,2024-02-09 19:18:22.337453,False,1,90,sounds\english\audio/english_518.wav,"[[  0.          52.37511869]
 [  0.1        -33.3490586 ]
 [  0.2        -71.20035434]
 [  0.3          6.23243823]
 [  0.32341667 -29.48660546]]","[[0.         0.23824141]
 [0.1        0.80559068]
 [0.2        1.24725456]
 [0.3        1.01334401]
 [0.32341667 1.51264586]]",1,0.409
5,m,38,english,5,3,english,2024-02-09 19:18:22.337453,False,1,91,sounds\english\audio/english_327.wav,"[[  0.         -65.34261839]
 [  0.1        -88.88296173]
 [  0.2        -52.48624316]
 [  0.3         35.3894457 ]
 [  0.32341667 -31.26503482]]","[[0.         0.94624792]
 [0.1        0.88463276]
 [0.2        0.8064175 ]
 [0.3        1.08656597]
 [0.32341667 0.95323019]]",0,0.385
5,m,38,english,5,3,english,2024-02-09 19:18:22.337453,False,1,92,sounds\english\audio/english_492.wav,"[[  0.         -66.2832746 ]
 [  0.1        -19.36008054]
 [  0.2         95.25769545]
 [  0.3        -42.69351484]
 [  0.32341667  48.13359561]]","[[0.         0.52930651]
 [0.1        1.11739795]
 [0.2        1.86018292]
 [0.3        0.07313262]
 [0.32341667 0.30480454]]",1,0.344
5,m,38,english,5,3,english,2024-02-09 19:18:22.337453,False,1,93,sounds\english\audio/english_143.wav,"[[  0.         -40.90047407]
 [  0.1        -35.35291254]
 [  0.2         36.32983964]
 [  0.3         -7.67980486]
 [  0.32341667 -89.59854269]]","[[0.         0.05812512]
 [0.1        0.81203879]
 [0.2        0.61124866]
 [0.3        0.41683772]
 [0.32341667 1.86697452]]",1,0.339
5,m,38,english,5,3,english,2024-02-09 19:18:22.337453,False,1,94,sounds\english\audio/english_238.wav,"[[  0.          87.78466979]
 [  0.1         65.39287108]
 [  0.2        -38.39100082]
 [  0.3        -20.01297649]
 [  0.32341667  78.31880556]]","[[0.         1.0750983 ]
 [0.1        0.03626896]
 [0.2        1.9832234 ]
 [0.3        0.17604691]
 [0.32341667 1.61383808]]",1,0.385
5,m,38,english,5,3,english,2024-02-09 19:18:22.337453,False,1,95,sounds\english\audio/english_154.wav,"[[  0.          69.79630433]
 [  0.1        -67.81892388]
 [  0.2         14.97335347]
 [  0.3          8.47433965]
 [  0.32341667  32.47098569]]","[[0.         0.95543174]
 [0.1        1.87835363]
 [0.2        1.19287874]
 [0.3        1.12321966]
 [0.32341667 0.66995817]]",0,0.311
5,m,38,english,5,3,english,2024-02-09 19:18:22.337453,False,1,96,sounds\english\audio/english_481.wav,"[[  0.          -1.07793215]
 [  0.1         72.11929458]
 [  0.2         -0.36002545]
 [  0.3         11.70252104]
 [  0.32341667 -16.16595736]]","[[0.         1.34620279]
 [0.1        0.4682023 ]
 [0.2        1.2575358 ]
 [0.3        1.51306824]
 [0.32341667 1.86086011]]",0,0.322
5,m,38,english,5,3,english,2024-02-09 19:18:22.337453,False,1,97,sounds\english\audio/english_198.wav,"[[ 0.         -3.53881338]
 [ 0.1        58.04445454]
 [ 0.2        67.39523563]
 [ 0.3        56.58835275]
 [ 0.32341667  7.34595052]]","[[0.         0.6033193 ]
 [0.1        0.57837506]
 [0.2        1.37850613]
 [0.3        0.73107668]
 [0.32341667 0.42006089]]",1,0.263
5,m,38,english,5,3,english,2024-02-09 19:18:22.337453,False,1,98,sounds\english\audio/english_213.wav,"[[  0.         -29.91874444]
 [  0.1         41.64704809]
 [  0.2        -87.11075848]
 [  0.3        -61.54877495]
 [  0.32341667 -34.29429643]]","[[0.         1.42031243]
 [0.1        0.59218852]
 [0.2        1.10576613]
 [0.3        0.09529021]
 [0.32341667 1.15583312]]",1,0.076
5,m,38,english,5,3,english,2024-02-09 19:18:22.337453,False,1,99,sounds\english\audio/english_801.wav,"[[  0.          66.50571345]
 [  0.1        -53.03260979]
 [  0.2         -3.89459646]
 [  0.3          8.32951864]
 [  0.32341667 -87.46806733]]","[[0.         0.19311528]
 [0.1        0.48683601]
 [0.2        1.16293258]
 [0.3        1.55734707]
 [0.32341667 0.63471681]]",1,0.118
5,m,38,english,5,3,english,2024-02-09 19:18:22.337453,False,1,100,sounds\english\audio/english_856.wav,"[[  0.         -44.08940674]
 [  0.1        -25.77644107]
 [  0.2          6.39263247]
 [  0.3         92.67536145]
 [  0.32341667  45.15991817]]","[[0.         1.51880133]
 [0.1        0.99524475]
 [0.2        1.11391415]
 [0.3        0.95575529]
 [0.32341667 1.02944292]]",0,0.232
5,m,38,english,5,3,english,2024-02-09 19:18:22.337453,False,1,101,sounds\english\audio/english_186.wav,"[[  0.         -54.7664391 ]
 [  0.1         -8.4263529 ]
 [  0.2          6.22451559]
 [  0.3        -12.35671223]
 [  0.32341667  86.21839615]]","[[0.         1.87021502]
 [0.1        1.36390049]
 [0.2        1.69942617]
 [0.3        1.8066537 ]
 [0.32341667 1.2511354 ]]",1,0.203
5,m,38,english,5,3,english,2024-02-09 19:18:22.337453,False,1,102,sounds\english\audio/english_218.wav,"[[  0.          87.3373499 ]
 [  0.1        -14.87903436]
 [  0.2        -31.97943339]
 [  0.3        -60.49311609]
 [  0.32341667 -63.68242647]]","[[0.         1.94084006]
 [0.1        0.13305972]
 [0.2        1.11441312]
 [0.3        1.83933377]
 [0.32341667 1.41053301]]",1,0.305
5,m,38,english,5,3,english,2024-02-09 19:18:22.337453,False,1,103,sounds\english\audio/english_805.wav,"[[  0.         -11.97504695]
 [  0.1         96.82911573]
 [  0.2          7.51835152]
 [  0.3          2.47378187]
 [  0.32341667 -43.26336213]]","[[0.         0.06029378]
 [0.1        0.81391401]
 [0.2        1.33531055]
 [0.3        1.7608484 ]
 [0.32341667 1.4289718 ]]",0,0.509
5,m,38,english,5,3,english,2024-02-09 19:18:22.337453,False,1,104,sounds\english\audio/english_257.wav,"[[  0.         -68.31428674]
 [  0.1        -13.90908686]
 [  0.2         54.08743226]
 [  0.3        -42.73693867]
 [  0.32341667  -1.03846516]]","[[0.         1.40239735]
 [0.1        1.49673114]
 [0.2        1.07658057]
 [0.3        0.27427112]
 [0.32341667 1.90516482]]",1,0.326
5,m,38,english,5,3,english,2024-02-09 19:18:22.337453,False,1,105,sounds\english\audio/english_711.wav,"[[  0.          40.88671478]
 [  0.1          9.07407961]
 [  0.2        -23.01321115]
 [  0.3        -10.85681813]
 [  0.32341667  87.87195083]]","[[0.         0.99029016]
 [0.1        0.54320223]
 [0.2        1.60107   ]
 [0.3        1.574764  ]
 [0.32341667 1.34863725]]",0,0.268
5,m,38,english,5,3,english,2024-02-09 19:18:22.337453,False,1,106,sounds\english\audio/english_80.wav,"[[  0.          33.21374474]
 [  0.1        -72.2618742 ]
 [  0.2        -29.44860443]
 [  0.3        -33.36418129]
 [  0.32341667 -65.11319145]]","[[0.         1.09809668]
 [0.1        1.73594877]
 [0.2        0.30037535]
 [0.3        0.36613598]
 [0.32341667 0.50687614]]",1,0.38
5,m,38,english,5,3,english,2024-02-09 19:18:22.337453,False,1,107,sounds\english\audio/english_711.wav,"[[  0.          40.88671478]
 [  0.1          9.07407961]
 [  0.2        -23.01321115]
 [  0.3        -10.85681813]
 [  0.32341667  87.87195083]]","[[0.         0.99029016]
 [0.1        0.54320223]
 [0.2        1.60107   ]
 [0.3        1.574764  ]
 [0.32341667 1.34863725]]",0,0.124
5,m,38,english,5,3,english,2024-02-09 19:18:22.337453,False,1,108,sounds\english\audio/english_704.wav,"[[  0.         -24.48288207]
 [  0.1         -9.94163531]
 [  0.2         74.85271107]
 [  0.3        -38.44921803]
 [  0.32341667 -21.20994959]]","[[0.         0.92043902]
 [0.1        0.96595902]
 [0.2        1.40327859]
 [0.3        1.07325586]
 [0.32341667 1.87555588]]",0,0.21
5,m,38,english,5,3,english,2024-02-09 19:18:22.337453,False,1,109,sounds\english\audio/english_962.wav,"[[  0.         -55.512918  ]
 [  0.1         90.34773129]
 [  0.2         -3.10818459]
 [  0.3         50.27619033]
 [  0.32341667 -47.3196173 ]]","[[0.         1.78332996]
 [0.1        1.25956614]
 [0.2        0.72891593]
 [0.3        1.49954356]
 [0.32341667 0.96339983]]",1,0.438
5,m,38,english,5,3,english,2024-02-09 19:18:22.337453,False,1,110,sounds\english\audio/english_856.wav,"[[  0.         -44.08940674]
 [  0.1        -25.77644107]
 [  0.2          6.39263247]
 [  0.3         92.67536145]
 [  0.32341667  45.15991817]]","[[0.         1.51880133]
 [0.1        0.99524475]
 [0.2        1.11391415]
 [0.3        0.95575529]
 [0.32341667 1.02944292]]",0,0.247
5,m,38,english,5,3,english,2024-02-09 19:18:22.337453,False,1,111,sounds\english\audio/english_727.wav,"[[  0.          86.20347479]
 [  0.1         12.26210304]
 [  0.2          5.59218777]
 [  0.3        -46.39280156]
 [  0.32341667  21.79775503]]","[[0.         1.33530257]
 [0.1        1.85547333]
 [0.2        1.19683436]
 [0.3        1.89207751]
 [0.32341667 1.05019022]]",0,1.423
5,m,38,english,5,3,english,2024-02-09 19:18:22.337453,False,1,112,sounds\english\audio/english_969.wav,"[[  0.           0.27440165]
 [  0.1         32.90941676]
 [  0.2         65.54691775]
 [  0.3         38.11090315]
 [  0.32341667 -66.49311905]]","[[0.         1.49550116]
 [0.1        1.08086357]
 [0.2        0.25687245]
 [0.3        0.33107225]
 [0.32341667 0.72842933]]",0,0.523
5,m,38,english,5,3,english,2024-02-09 19:18:22.337453,False,1,113,sounds\english\audio/english_337.wav,"[[  0.          17.21863108]
 [  0.1        -16.30098312]
 [  0.2         70.17733319]
 [  0.3         -7.16478631]
 [  0.32341667 -84.96176299]]","[[0.         0.02346696]
 [0.1        1.2349353 ]
 [0.2        1.07823504]
 [0.3        1.83339424]
 [0.32341667 1.87583376]]",0,1.213
5,m,38,english,5,3,english,2024-02-09 19:18:22.337453,False,1,114,sounds\english\audio/english_41.wav,"[[  0.          42.21237724]
 [  0.1         33.8271633 ]
 [  0.2         20.96644351]
 [  0.3        -53.61985723]
 [  0.32341667 -55.68725705]]","[[0.         0.98996482]
 [0.1        0.77076848]
 [0.2        0.37402384]
 [0.3        1.98545705]
 [0.32341667 1.53352273]]",1,0.697
5,m,38,english,5,3,english,2024-02-09 19:18:22.337453,False,1,115,sounds\english\audio/english_337.wav,"[[  0.          17.21863108]
 [  0.1        -16.30098312]
 [  0.2         70.17733319]
 [  0.3         -7.16478631]
 [  0.32341667 -84.96176299]]","[[0.         0.02346696]
 [0.1        1.2349353 ]
 [0.2        1.07823504]
 [0.3        1.83339424]
 [0.32341667 1.87583376]]",1,0.502
5,m,38,english,5,3,english,2024-02-09 19:18:22.337453,False,1,116,sounds\english\audio/english_171.wav,"[[  0.          13.65984607]
 [  0.1         70.55092655]
 [  0.2         57.57935127]
 [  0.3        -55.35579571]
 [  0.32341667  13.04572565]]","[[0.         0.71637608]
 [0.1        1.80826384]
 [0.2        0.47277884]
 [0.3        1.22036711]
 [0.32341667 0.00907712]]",0,0.534
5,m,38,english,5,3,english,2024-02-09 19:18:22.337453,False,1,117,sounds\english\audio/english_949.wav,"[[  0.          48.32946721]
 [  0.1         73.83586198]
 [  0.2        -30.27812065]
 [  0.3        -32.50397555]
 [  0.32341667  96.46984971]]","[[0.         1.50413289]
 [0.1        1.55745414]
 [0.2        1.00772566]
 [0.3        0.86702054]
 [0.32341667 1.67836019]]",1,0.355
5,m,38,english,5,3,english,2024-02-09 19:18:22.337453,False,1,118,sounds\english\audio/english_486.wav,"[[  0.          31.41997184]
 [  0.1         58.03480486]
 [  0.2        -62.84801238]
 [  0.3         10.62451678]
 [  0.32341667  10.31835057]]","[[0.         1.22599644]
 [0.1        1.4547445 ]
 [0.2        0.27967606]
 [0.3        0.02065399]
 [0.32341667 0.3128479 ]]",0,0.675
5,m,38,english,5,3,english,2024-02-09 19:18:22.337453,False,1,119,sounds\english\audio/english_92.wav,"[[  0.          31.88505953]
 [  0.1         -5.62534355]
 [  0.2        -66.19250112]
 [  0.3        -77.62644198]
 [  0.32341667 -66.61656061]]","[[0.         1.50112375]
 [0.1        0.35596674]
 [0.2        1.12270031]
 [0.3        1.09837269]
 [0.32341667 1.16274455]]",1,0.347
5,m,38,english,5,3,english,2024-02-09 19:18:22.337453,False,1,120,sounds\english\audio/english_334.wav,"[[  0.         -67.45724149]
 [  0.1         -9.29085452]
 [  0.2        -52.27794836]
 [  0.3         97.74689659]
 [  0.32341667  69.13668576]]","[[0.         1.41500124]
 [0.1        1.93519658]
 [0.2        1.67457228]
 [0.3        1.80763723]
 [0.32341667 0.68141016]]",1,0.318
5,m,38,english,5,3,english,2024-02-09 19:18:22.337453,False,1,121,sounds\english\audio/english_397.wav,"[[  0.          89.67962381]
 [  0.1        -80.29722345]
 [  0.2         60.53564011]
 [  0.3          9.94565725]
 [  0.32341667   0.1319882 ]]","[[0.         0.42719638]
 [0.1        0.89466904]
 [0.2        0.56174568]
 [0.3        0.1553242 ]
 [0.32341667 1.89079641]]",0,0.948
5,m,38,english,5,3,english,2024-02-09 19:18:22.337453,False,1,122,sounds\english\audio/english_628.wav,"[[  0.         -19.71295886]
 [  0.1        -79.294697  ]
 [  0.2        -59.93256946]
 [  0.3        -18.46863719]
 [  0.32341667  53.30350975]]","[[0.         0.8960583 ]
 [0.1        1.61949508]
 [0.2        0.65483299]
 [0.3        0.12001531]
 [0.32341667 0.85308449]]",1,0.658
5,m,38,english,5,3,english,2024-02-09 19:18:22.337453,False,1,123,sounds\english\audio/english_978.wav,"[[  0.         -73.1961296 ]
 [  0.1        -56.98452675]
 [  0.2          1.81288897]
 [  0.3        -17.93803526]
 [  0.32341667 -33.17886565]]","[[0.         0.69168228]
 [0.1        1.28516196]
 [0.2        1.00851945]
 [0.3        0.05981722]
 [0.32341667 1.89275203]]",0,1.145
5,m,38,english,5,3,english,2024-02-09 19:18:22.337453,False,1,124,sounds\english\audio/english_710.wav,"[[  0.         -75.8732007 ]
 [  0.1        -57.22858583]
 [  0.2         28.4956072 ]
 [  0.3        -96.06281818]
 [  0.32341667  12.57492899]]","[[0.         1.76991952]
 [0.1        1.84377411]
 [0.2        1.20069914]
 [0.3        0.06088286]
 [0.32341667 1.86160088]]",1,0.541
5,m,38,english,5,3,english,2024-02-09 19:18:22.337453,False,1,125,sounds\english\audio/english_546.wav,"[[ 0.         81.21590514]
 [ 0.1        75.01018689]
 [ 0.2        15.56226302]
 [ 0.3        48.30886192]
 [ 0.32341667 18.80923499]]","[[0.         1.56657823]
 [0.1        0.84038259]
 [0.2        0.00684501]
 [0.3        1.68157273]
 [0.32341667 1.09409739]]",0,0.25
5,m,38,english,5,3,english,2024-02-09 19:18:22.337453,False,1,126,sounds\english\audio/english_867.wav,"[[  0.           9.0283109 ]
 [  0.1          6.96107974]
 [  0.2         14.88339172]
 [  0.3         -2.73093064]
 [  0.32341667 -85.27526638]]","[[0.         0.25019481]
 [0.1        0.62311927]
 [0.2        1.78918939]
 [0.3        1.34945049]
 [0.32341667 0.75720604]]",1,0.241
5,m,38,english,5,3,english,2024-02-09 19:18:22.337453,False,1,127,sounds\english\audio/english_760.wav,"[[ 0.00000000e+00  2.43902693e+01]
 [ 1.00000000e-01 -2.47174936e-02]
 [ 2.00000000e-01  8.28662613e+01]
 [ 3.00000000e-01 -7.97314524e+00]
 [ 3.23416667e-01 -6.32438983e+00]]","[[0.         0.67210823]
 [0.1        1.89588113]
 [0.2        0.23432987]
 [0.3        1.20797246]
 [0.32341667 1.72866971]]",0,0.426
5,m,38,english,5,3,english,2024-02-09 19:18:22.337453,False,1,128,sounds\english\audio/english_75.wav,"[[  0.          -9.18091647]
 [  0.1        -62.02164907]
 [  0.2        -12.90623207]
 [  0.3         15.17089036]
 [  0.32341667  10.89352922]]","[[0.         0.92930856]
 [0.1        1.94000482]
 [0.2        1.2183621 ]
 [0.3        0.47349695]
 [0.32341667 1.02561006]]",1,0.294
5,m,38,english,5,3,english,2024-02-09 19:18:22.337453,False,1,129,sounds\english\audio/english_323.wav,"[[  0.          92.33188111]
 [  0.1          4.22577609]
 [  0.2        -35.48560344]
 [  0.3          7.73763769]
 [  0.32341667  55.62458321]]","[[0.         1.59668922]
 [0.1        1.75306106]
 [0.2        1.06071567]
 [0.3        1.9328625 ]
 [0.32341667 1.27347405]]",1,1.457
5,m,38,english,5,3,english,2024-02-09 19:18:22.337453,False,1,130,sounds\english\audio/english_118.wav,"[[  0.         -46.26080879]
 [  0.1        -14.63576669]
 [  0.2         85.04541628]
 [  0.3        -49.31762638]
 [  0.32341667  16.64479416]]","[[0.         0.77156844]
 [0.1        0.55135676]
 [0.2        0.92804695]
 [0.3        1.40435072]
 [0.32341667 1.67291824]]",1,0.371
5,m,38,english,5,3,english,2024-02-09 19:18:22.337453,False,1,131,sounds\english\audio/english_958.wav,"[[  0.          17.32592779]
 [  0.1         89.03376041]
 [  0.2        -24.89219777]
 [  0.3        -92.10798137]
 [  0.32341667   3.27828718]]","[[0.         0.33109802]
 [0.1        1.83345348]
 [0.2        1.95859429]
 [0.3        1.50296341]
 [0.32341667 0.1474067 ]]",1,0.162
5,m,38,english,5,3,english,2024-02-09 19:18:22.337453,False,1,132,sounds\english\audio/english_66.wav,"[[  0.          16.07147303]
 [  0.1         50.76577123]
 [  0.2        -29.1595681 ]
 [  0.3        -80.89120138]
 [  0.32341667  -8.46229461]]","[[0.         1.75051971]
 [0.1        0.02971233]
 [0.2        0.63583886]
 [0.3        1.46734397]
 [0.32341667 1.61280944]]",1,2.723
5,m,38,english,5,3,english,2024-02-09 19:18:22.337453,False,1,133,sounds\english\audio/english_757.wav,"[[  0.         -71.37581006]
 [  0.1        -34.89028362]
 [  0.2         97.72444176]
 [  0.3          8.64322444]
 [  0.32341667 -59.15215987]]","[[0.         0.57944866]
 [0.1        1.76833087]
 [0.2        0.43040584]
 [0.3        1.84780211]
 [0.32341667 0.21714226]]",0,0.592
5,m,38,english,5,3,english,2024-02-09 19:18:22.337453,False,1,134,sounds\english\audio/english_556.wav,"[[ 0.         35.62658416]
 [ 0.1        28.75181601]
 [ 0.2        -2.62389444]
 [ 0.3        64.03572584]
 [ 0.32341667 72.79696002]]","[[0.         1.88481821]
 [0.1        0.4023528 ]
 [0.2        1.49364055]
 [0.3        1.54190039]
 [0.32341667 0.53435232]]",1,0.437
5,m,38,english,5,3,english,2024-02-09 19:18:22.337453,False,1,135,sounds\english\audio/english_887.wav,"[[  0.          21.36154006]
 [  0.1        -21.46213737]
 [  0.2        -45.53850124]
 [  0.3        -75.36110743]
 [  0.32341667 -96.67184991]]","[[0.         0.58574694]
 [0.1        0.48413962]
 [0.2        1.16923549]
 [0.3        1.46190157]
 [0.32341667 0.00789239]]",1,0.431
5,m,38,english,5,3,english,2024-02-09 19:18:22.337453,False,1,136,sounds\english\audio/english_582.wav,"[[  0.         -29.81423477]
 [  0.1         37.42565533]
 [  0.2         79.58894888]
 [  0.3         49.55779855]
 [  0.32341667  54.00509918]]","[[0.         0.27230029]
 [0.1        0.84765039]
 [0.2        1.99526631]
 [0.3        1.55519667]
 [0.32341667 1.66653349]]",0,0.243
5,m,38,english,5,3,english,2024-02-09 19:18:22.337453,False,1,137,sounds\english\audio/english_945.wav,"[[  0.          63.16075011]
 [  0.1         87.55520176]
 [  0.2        -69.60467193]
 [  0.3        -69.25530384]
 [  0.32341667 -47.64160087]]","[[0.         1.8314946 ]
 [0.1        1.3737613 ]
 [0.2        0.61639792]
 [0.3        1.67239747]
 [0.32341667 1.88344595]]",1,1.403
5,m,38,english,5,3,english,2024-02-09 19:18:22.337453,False,1,138,sounds\english\audio/english_243.wav,"[[  0.         -74.41503345]
 [  0.1        -16.65530333]
 [  0.2         -1.41224798]
 [  0.3         37.30419975]
 [  0.32341667  -3.40378668]]","[[0.         0.65151457]
 [0.1        0.20623253]
 [0.2        0.87153721]
 [0.3        0.28583671]
 [0.32341667 1.90700275]]",0,0.371
5,m,38,english,5,3,english,2024-02-09 19:18:22.337453,False,1,139,sounds\english\audio/english_707.wav,"[[  0.         -17.04120346]
 [  0.1        -57.44917128]
 [  0.2         90.75848643]
 [  0.3         96.79852424]
 [  0.32341667  27.01716591]]","[[0.         1.06535483]
 [0.1        0.89541794]
 [0.2        1.64838001]
 [0.3        0.75431717]
 [0.32341667 0.48082071]]",1,0.419
5,m,38,english,5,3,english,2024-02-09 19:18:22.337453,False,1,140,sounds\english\audio/english_340.wav,"[[  0.          42.62794877]
 [  0.1         67.09042835]
 [  0.2        -80.28719593]
 [  0.3        -47.97556268]
 [  0.32341667  32.7013797 ]]","[[0.         1.44385011]
 [0.1        1.29329602]
 [0.2        1.71068781]
 [0.3        0.48872717]
 [0.32341667 1.09000269]]",0,3.217
5,m,38,english,5,3,english,2024-02-09 19:18:22.337453,False,1,141,sounds\english\audio/english_865.wav,"[[  0.          57.45647421]
 [  0.1        -62.30549211]
 [  0.2        -35.85649312]
 [  0.3         55.00701181]
 [  0.32341667 -39.97662747]]","[[0.         1.64387024]
 [0.1        0.05749027]
 [0.2        0.09554773]
 [0.3        1.62598434]
 [0.32341667 0.71232625]]",1,0.259
5,m,38,english,5,3,english,2024-02-09 19:18:22.337453,False,1,142,sounds\english\audio/english_737.wav,"[[  0.          21.35751723]
 [  0.1         61.52152077]
 [  0.2        -29.75610596]
 [  0.3        -39.80249708]
 [  0.32341667 -14.64937497]]","[[0.         1.17499048]
 [0.1        1.09581395]
 [0.2        0.62940412]
 [0.3        0.11793022]
 [0.32341667 0.62377861]]",1,0.275
5,m,38,english,5,3,english,2024-02-09 19:18:22.337453,False,1,143,sounds\english\audio/english_705.wav,"[[  0.           3.76426423]
 [  0.1         90.96696755]
 [  0.2        -32.86898574]
 [  0.3        -21.12550784]
 [  0.32341667  39.74077299]]","[[0.         0.9500377 ]
 [0.1        0.74173997]
 [0.2        1.78776637]
 [0.3        0.8178788 ]
 [0.32341667 1.54913024]]",1,0.34
5,m,38,english,5,3,english,2024-02-09 19:18:22.337453,False,1,144,sounds\english\audio/english_897.wav,"[[  0.          -6.17515852]
 [  0.1        -25.56252799]
 [  0.2        -51.51756482]
 [  0.3        -57.3776393 ]
 [  0.32341667 -65.82780913]]","[[0.         1.45954458]
 [0.1        1.4662158 ]
 [0.2        1.09304129]
 [0.3        1.17713492]
 [0.32341667 1.23726335]]",0,0.415
5,m,38,english,5,3,english,2024-02-09 19:18:22.337453,False,1,145,sounds\english\audio/english_808.wav,"[[  0.          23.02589628]
 [  0.1         10.58817829]
 [  0.2         36.77134597]
 [  0.3        -30.31603221]
 [  0.32341667   9.74764343]]","[[0.         1.07384277]
 [0.1        1.3919179 ]
 [0.2        0.54960524]
 [0.3        1.95871365]
 [0.32341667 0.79150541]]",1,0.256
5,m,38,english,5,3,english,2024-02-09 19:18:22.337453,False,1,146,sounds\english\audio/english_525.wav,"[[  0.         -21.23223701]
 [  0.1          3.49974992]
 [  0.2        -75.71526263]
 [  0.3        -52.87512147]
 [  0.32341667  17.79573657]]","[[0.         1.69398532]
 [0.1        0.25491439]
 [0.2        0.17370365]
 [0.3        0.81797459]
 [0.32341667 0.70176203]]",1,0.509
5,m,38,english,5,3,english,2024-02-09 19:18:22.337453,False,1,147,sounds\english\audio/english_804.wav,"[[  0.          11.23319328]
 [  0.1        -75.15189859]
 [  0.2          5.39397939]
 [  0.3         42.92141331]
 [  0.32341667 -79.84726866]]","[[0.         0.16159815]
 [0.1        1.76023076]
 [0.2        0.7355024 ]
 [0.3        1.74636497]
 [0.32341667 1.05562007]]",1,0.241
5,m,38,english,5,3,english,2024-02-09 19:18:22.337453,False,1,148,sounds\english\audio/english_942.wav,"[[  0.          96.26286183]
 [  0.1        -96.45992778]
 [  0.2         50.93322043]
 [  0.3         14.6207779 ]
 [  0.32341667   7.19296333]]","[[0.         1.14976657]
 [0.1        0.962364  ]
 [0.2        0.99280793]
 [0.3        1.92237923]
 [0.32341667 1.02094568]]",0,0.343
5,m,38,english,5,3,english,2024-02-09 19:18:22.337453,False,1,149,sounds\english\audio/english_906.wav,"[[  0.         -40.48589107]
 [  0.1         47.48995475]
 [  0.2        -46.73743802]
 [  0.3        -97.96557374]
 [  0.32341667  18.48293991]]","[[0.         1.22436898]
 [0.1        1.54823641]
 [0.2        1.02590908]
 [0.3        1.74877791]
 [0.32341667 0.76585735]]",1,1.071
5,m,38,english,5,3,english,2024-02-09 19:18:22.337453,False,1,150,sounds\english\audio/english_501.wav,"[[  0.          -7.07122187]
 [  0.1         10.00250781]
 [  0.2        -21.98285256]
 [  0.3         46.16062549]
 [  0.32341667  41.01655214]]","[[0.         1.4737248 ]
 [0.1        1.10212017]
 [0.2        1.65595948]
 [0.3        0.64757112]
 [0.32341667 0.36171009]]",0,1.061
5,m,38,english,5,3,english,2024-02-09 19:18:22.337453,False,1,151,sounds\english\audio/english_456.wav,"[[ 0.         43.57092671]
 [ 0.1        59.73787768]
 [ 0.2        82.18665257]
 [ 0.3        84.09992258]
 [ 0.32341667 14.68455092]]","[[0.         0.12750432]
 [0.1        0.97340157]
 [0.2        0.43547726]
 [0.3        1.17970357]
 [0.32341667 0.64309566]]",0,0.383
5,m,38,english,5,3,english,2024-02-09 19:18:22.337453,False,1,152,sounds\english\audio/english_702.wav,"[[  0.         -19.6614881 ]
 [  0.1        -92.60133235]
 [  0.2        -18.01071493]
 [  0.3         91.54675011]
 [  0.32341667  23.09112348]]","[[0.         1.13820402]
 [0.1        1.47755069]
 [0.2        1.33705675]
 [0.3        0.59768286]
 [0.32341667 0.82103567]]",1,0.905
5,m,38,english,5,3,english,2024-02-09 19:18:22.337453,False,1,153,sounds\english\audio/english_135.wav,"[[  0.          92.53632507]
 [  0.1         42.68843281]
 [  0.2         87.27237188]
 [  0.3        -70.62725941]
 [  0.32341667  91.37204548]]","[[0.         0.8813083 ]
 [0.1        1.60503348]
 [0.2        0.22265806]
 [0.3        0.4233462 ]
 [0.32341667 0.99500327]]",0,0.452
5,m,38,english,5,3,english,2024-02-09 19:18:22.337453,False,1,154,sounds\english\audio/english_871.wav,"[[  0.          84.63625516]
 [  0.1        -19.11058767]
 [  0.2         49.1497137 ]
 [  0.3        -83.07816512]
 [  0.32341667  11.22002909]]","[[0.         0.21643415]
 [0.1        1.23538017]
 [0.2        1.26375285]
 [0.3        0.03257235]
 [0.32341667 1.90703832]]",0,0.162
5,m,38,english,5,3,english,2024-02-09 19:18:22.337453,False,1,155,sounds\english\audio/english_429.wav,"[[  0.         -70.82827187]
 [  0.1         79.2644825 ]
 [  0.2         14.29027084]
 [  0.3        -47.65971945]
 [  0.32341667   8.9954872 ]]","[[0.         0.34305232]
 [0.1        1.15525787]
 [0.2        1.85610569]
 [0.3        0.19828098]
 [0.32341667 1.51767034]]",0,0.284
5,m,38,english,5,3,english,2024-02-09 19:18:22.337453,False,1,156,sounds\english\audio/english_386.wav,"[[  0.          74.56899624]
 [  0.1         25.94107183]
 [  0.2         41.2839149 ]
 [  0.3         14.47866495]
 [  0.32341667 -14.73959674]]","[[0.         1.79299743]
 [0.1        0.16071221]
 [0.2        0.21721497]
 [0.3        1.22036918]
 [0.32341667 1.81871952]]",0,0.069
5,m,38,english,5,3,english,2024-02-09 19:18:22.337453,False,1,157,sounds\english\audio/english_142.wav,"[[  0.         -46.59943425]
 [  0.1         63.17145436]
 [  0.2         73.87775976]
 [  0.3        -84.55157756]
 [  0.32341667  20.35536038]]","[[0.         0.40064358]
 [0.1        0.61162855]
 [0.2        0.23189939]
 [0.3        1.54635995]
 [0.32341667 1.86221744]]",1,0.521
5,m,38,english,5,3,english,2024-02-09 19:18:22.337453,False,1,158,sounds\english\audio/english_429.wav,"[[  0.         -70.82827187]
 [  0.1         79.2644825 ]
 [  0.2         14.29027084]
 [  0.3        -47.65971945]
 [  0.32341667   8.9954872 ]]","[[0.         0.34305232]
 [0.1        1.15525787]
 [0.2        1.85610569]
 [0.3        0.19828098]
 [0.32341667 1.51767034]]",0,0.374
5,m,38,english,5,3,english,2024-02-09 19:18:22.337453,False,1,159,sounds\english\audio/english_215.wav,"[[  0.         -93.71362427]
 [  0.1         20.4696733 ]
 [  0.2        -66.57352715]
 [  0.3         -0.6079782 ]
 [  0.32341667  -5.73921948]]","[[0.         1.31176069]
 [0.1        1.25536714]
 [0.2        1.5696385 ]
 [0.3        0.03144419]
 [0.32341667 0.79048669]]",1,95.545
5,m,38,english,5,3,english,2024-02-09 19:18:22.337453,False,1,160,sounds\english\audio/english_84.wav,"[[  0.         -42.35488886]
 [  0.1         17.86576323]
 [  0.2        -56.36172821]
 [  0.3         69.8537656 ]
 [  0.32341667 -47.30652012]]","[[0.         0.45116064]
 [0.1        1.91320005]
 [0.2        1.53140363]
 [0.3        0.53091011]
 [0.32341667 1.59279301]]",0,2.112
5,m,38,english,5,3,english,2024-02-09 19:18:22.337453,False,1,161,sounds\english\audio/english_58.wav,"[[  0.          20.12478601]
 [  0.1        -22.60038942]
 [  0.2         34.38627512]
 [  0.3         30.90369434]
 [  0.32341667  11.39971337]]","[[0.         1.19415515]
 [0.1        0.26098942]
 [0.2        1.99195241]
 [0.3        0.42925074]
 [0.32341667 0.50368767]]",0,0.849
5,m,38,english,5,3,english,2024-02-09 19:18:22.337453,False,1,162,sounds\english\audio/english_133.wav,"[[  0.          12.35833749]
 [  0.1         40.12315016]
 [  0.2         21.09458129]
 [  0.3        -98.82286682]
 [  0.32341667 -85.44748976]]","[[0.         0.72635311]
 [0.1        1.38782059]
 [0.2        0.15947395]
 [0.3        0.28433836]
 [0.32341667 1.2581514 ]]",1,0.313
5,m,38,english,5,3,english,2024-02-09 19:18:22.337453,False,1,163,sounds\english\audio/english_531.wav,"[[  0.         -79.40575395]
 [  0.1         24.69139357]
 [  0.2         31.85465478]
 [  0.3          0.37788074]
 [  0.32341667 -42.85922685]]","[[0.         0.23141906]
 [0.1        1.34739197]
 [0.2        0.44473315]
 [0.3        1.31624907]
 [0.32341667 0.82105614]]",0,0.528
5,m,38,english,5,3,english,2024-02-09 19:18:22.337453,False,1,164,sounds\english\audio/english_462.wav,"[[  0.         -35.73318704]
 [  0.1         -5.65949109]
 [  0.2        -49.47542688]
 [  0.3        -98.18570674]
 [  0.32341667 -16.34927785]]","[[0.         1.53267708]
 [0.1        1.98369384]
 [0.2        1.31270994]
 [0.3        1.26289606]
 [0.32341667 1.36496903]]",0,1.081
5,m,38,english,5,3,english,2024-02-09 19:18:22.337453,False,1,165,sounds\english\audio/english_66.wav,"[[  0.          16.07147303]
 [  0.1         50.76577123]
 [  0.2        -29.1595681 ]
 [  0.3        -80.89120138]
 [  0.32341667  -8.46229461]]","[[0.         1.75051971]
 [0.1        0.02971233]
 [0.2        0.63583886]
 [0.3        1.46734397]
 [0.32341667 1.61280944]]",0,0.638
5,m,38,english,5,3,english,2024-02-09 19:18:22.337453,False,1,166,sounds\english\audio/english_574.wav,"[[  0.          53.128433  ]
 [  0.1         70.24248151]
 [  0.2         47.13290739]
 [  0.3         52.31480293]
 [  0.32341667 -33.06438127]]","[[0.         0.28349694]
 [0.1        0.66519348]
 [0.2        1.25768036]
 [0.3        1.43482954]
 [0.32341667 1.23350688]]",0,0.345
5,m,38,english,5,3,english,2024-02-09 19:18:22.337453,False,1,167,sounds\english\audio/english_686.wav,"[[  0.         -30.40223154]
 [  0.1         40.30213926]
 [  0.2         68.68183252]
 [  0.3         82.36920372]
 [  0.32341667   5.8000707 ]]","[[0.         0.36787347]
 [0.1        1.54584144]
 [0.2        1.54645212]
 [0.3        1.04035585]
 [0.32341667 1.51520661]]",1,0.304
5,m,38,english,5,3,english,2024-02-09 19:18:22.337453,False,1,168,sounds\english\audio/english_527.wav,"[[  0.         -32.70996179]
 [  0.1        -61.96334317]
 [  0.2         86.46317242]
 [  0.3        -18.9429262 ]
 [  0.32341667 -59.75355058]]","[[0.         0.06646481]
 [0.1        1.75268105]
 [0.2        0.41061726]
 [0.3        1.43024268]
 [0.32341667 0.73468543]]",0,0.329
5,m,38,english,5,3,english,2024-02-09 19:18:22.337453,False,1,169,sounds\english\audio/english_906.wav,"[[  0.         -40.48589107]
 [  0.1         47.48995475]
 [  0.2        -46.73743802]
 [  0.3        -97.96557374]
 [  0.32341667  18.48293991]]","[[0.         1.22436898]
 [0.1        1.54823641]
 [0.2        1.02590908]
 [0.3        1.74877791]
 [0.32341667 0.76585735]]",0,0.451
5,m,38,english,5,3,english,2024-02-09 19:18:22.337453,False,1,170,sounds\english\audio/english_952.wav,"[[  0.          64.91746033]
 [  0.1        -25.84234774]
 [  0.2         60.30097417]
 [  0.3        -98.0606555 ]
 [  0.32341667 -77.98984902]]","[[0.         1.00586425]
 [0.1        1.28790365]
 [0.2        1.6668124 ]
 [0.3        1.44616756]
 [0.32341667 0.15831209]]",0,0.197
5,m,38,english,5,3,english,2024-02-09 19:18:22.337453,False,1,171,sounds\english\audio/english_229.wav,"[[  0.          51.56916705]
 [  0.1        -51.28327497]
 [  0.2         97.78221202]
 [  0.3        -75.98126047]
 [  0.32341667 -44.05308002]]","[[0.         1.25898044]
 [0.1        0.34588319]
 [0.2        1.91985924]
 [0.3        0.82059623]
 [0.32341667 1.38191391]]",1,0.293
5,m,38,english,5,3,english,2024-02-09 19:18:22.337453,False,1,172,sounds\english\audio/english_935.wav,"[[  0.          64.39543101]
 [  0.1         86.95314533]
 [  0.2        -18.93400703]
 [  0.3         36.25821345]
 [  0.32341667 -52.75689815]]","[[0.         0.53440609]
 [0.1        0.5847186 ]
 [0.2        0.87093815]
 [0.3        1.35336039]
 [0.32341667 1.46825192]]",0,1.666
5,m,38,english,5,3,english,2024-02-09 19:18:22.337453,False,1,173,sounds\english\audio/english_986.wav,"[[  0.          36.93997263]
 [  0.1        -76.80061303]
 [  0.2         60.8418497 ]
 [  0.3        -27.90828951]
 [  0.32341667  99.51838141]]","[[0.         1.7539978 ]
 [0.1        1.40735445]
 [0.2        0.62226098]
 [0.3        0.48175931]
 [0.32341667 1.5918282 ]]",0,0.483
5,m,38,english,5,3,english,2024-02-09 19:18:22.337453,False,1,174,sounds\english\audio/english_379.wav,"[[  0.          30.14616912]
 [  0.1        -79.51193423]
 [  0.2          7.34860539]
 [  0.3        -43.99342265]
 [  0.32341667  37.72881761]]","[[0.         1.43961489]
 [0.1        1.4219763 ]
 [0.2        0.62633101]
 [0.3        1.13621958]
 [0.32341667 1.35387794]]",0,1.904
5,m,38,english,5,3,english,2024-02-09 19:18:22.337453,False,1,175,sounds\english\audio/english_956.wav,"[[  0.         -98.71257913]
 [  0.1        -36.05702295]
 [  0.2        -31.95582623]
 [  0.3        -81.31295359]
 [  0.32341667  45.09425789]]","[[0.         1.5828524 ]
 [0.1        0.66985857]
 [0.2        0.13798036]
 [0.3        0.22663358]
 [0.32341667 0.54862974]]",0,3.102
5,m,38,english,5,3,english,2024-02-09 19:18:22.337453,False,1,176,sounds\english\audio/english_193.wav,"[[ 0.         98.63199606]
 [ 0.1        38.06859183]
 [ 0.2        58.19309996]
 [ 0.3        70.68425501]
 [ 0.32341667 89.06926868]]","[[0.         1.10219899]
 [0.1        1.75752318]
 [0.2        1.8701857 ]
 [0.3        1.90449871]
 [0.32341667 1.70479661]]",0,0.865
5,m,38,english,5,3,english,2024-02-09 19:18:22.337453,False,1,177,sounds\english\audio/english_481.wav,"[[  0.          -1.07793215]
 [  0.1         72.11929458]
 [  0.2         -0.36002545]
 [  0.3         11.70252104]
 [  0.32341667 -16.16595736]]","[[0.         1.34620279]
 [0.1        0.4682023 ]
 [0.2        1.2575358 ]
 [0.3        1.51306824]
 [0.32341667 1.86086011]]",0,0.491
5,m,38,english,5,3,english,2024-02-09 19:18:22.337453,False,1,178,sounds\english\audio/english_196.wav,"[[  0.         -86.38202104]
 [  0.1          0.95731439]
 [  0.2        -48.4797064 ]
 [  0.3         50.57477866]
 [  0.32341667 -52.07184875]]","[[0.         1.63362226]
 [0.1        1.36148231]
 [0.2        0.68683683]
 [0.3        1.59869277]
 [0.32341667 0.40963154]]",0,0.548
5,m,38,english,5,3,english,2024-02-09 19:18:22.337453,False,1,179,sounds\english\audio/english_919.wav,"[[  0.         -78.03270024]
 [  0.1         24.9634274 ]
 [  0.2        -36.24618286]
 [  0.3        -67.38261266]
 [  0.32341667  86.21803917]]","[[0.         1.18744007]
 [0.1        0.32639994]
 [0.2        1.14830442]
 [0.3        0.75322619]
 [0.32341667 0.69239757]]",0,0.53
5,m,38,english,5,3,english,2024-02-09 19:18:22.337453,False,1,180,sounds\english\audio/english_225.wav,"[[  0.          66.72796839]
 [  0.1          3.03768966]
 [  0.2        -45.96345052]
 [  0.3        -88.14676012]
 [  0.32341667  46.76760659]]","[[0.         1.97535322]
 [0.1        1.18784527]
 [0.2        1.58393351]
 [0.3        1.17885171]
 [0.32341667 1.387907  ]]",0,0.173
5,m,38,english,5,3,english,2024-02-09 19:18:22.337453,False,1,181,sounds\english\audio/english_572.wav,"[[  0.         -16.16189062]
 [  0.1        -40.8511413 ]
 [  0.2        -77.3747243 ]
 [  0.3         87.62803369]
 [  0.32341667  81.6005998 ]]","[[0.         1.82210005]
 [0.1        0.80249033]
 [0.2        0.69959732]
 [0.3        0.43311894]
 [0.32341667 1.25204325]]",0,0.488
5,m,38,english,5,3,english,2024-02-09 19:18:22.337453,False,1,182,sounds\english\audio/english_402.wav,"[[  0.         -69.75327375]
 [  0.1        -37.13247603]
 [  0.2         95.06865819]
 [  0.3        -83.65219271]
 [  0.32341667 -39.65623645]]","[[0.         0.88104294]
 [0.1        1.50830761]
 [0.2        0.86613458]
 [0.3        1.46195184]
 [0.32341667 1.78030697]]",0,0.317
5,m,38,english,5,3,english,2024-02-09 19:18:22.337453,False,1,183,sounds\english\audio/english_523.wav,"[[ 0.          8.07414344]
 [ 0.1        27.61667564]
 [ 0.2        12.25175146]
 [ 0.3         5.7333769 ]
 [ 0.32341667 77.72310536]]","[[0.         0.20594791]
 [0.1        1.87511385]
 [0.2        0.19246655]
 [0.3        0.42766967]
 [0.32341667 1.43882185]]",0,0.63
5,m,38,english,5,3,english,2024-02-09 19:18:22.337453,False,1,184,sounds\english\audio/english_529.wav,"[[  0.          13.90759343]
 [  0.1        -33.526088  ]
 [  0.2        -34.32120589]
 [  0.3        -18.30112723]
 [  0.32341667  16.4796061 ]]","[[0.         0.83001961]
 [0.1        0.02518437]
 [0.2        1.61112877]
 [0.3        0.91948239]
 [0.32341667 0.33204613]]",0,0.361
5,m,38,english,5,3,english,2024-02-09 19:18:22.337453,False,1,185,sounds\english\audio/english_863.wav,"[[  0.          52.03013683]
 [  0.1         21.53783975]
 [  0.2        -42.8061331 ]
 [  0.3         -9.69253087]
 [  0.32341667  56.44290307]]","[[0.         1.83111202]
 [0.1        0.9779226 ]
 [0.2        1.19089157]
 [0.3        0.269847  ]
 [0.32341667 0.87913369]]",0,0.526
5,m,38,english,5,3,english,2024-02-09 19:18:22.337453,False,1,186,sounds\english\audio/english_683.wav,"[[  0.         -73.37543508]
 [  0.1         66.4080647 ]
 [  0.2         46.46812351]
 [  0.3         71.67755016]
 [  0.32341667   2.86253031]]","[[0.         1.70409633]
 [0.1        1.25556383]
 [0.2        0.87554738]
 [0.3        1.32863005]
 [0.32341667 0.20364682]]",0,0.365
5,m,38,english,5,3,english,2024-02-09 19:18:22.337453,False,1,187,sounds\english\audio/english_187.wav,"[[  0.         -18.35695568]
 [  0.1         10.21632188]
 [  0.2          0.69047377]
 [  0.3         67.68385624]
 [  0.32341667  48.15291114]]","[[0.         0.61755768]
 [0.1        1.6626445 ]
 [0.2        0.70950015]
 [0.3        0.8856252 ]
 [0.32341667 1.92627472]]",0,0.288
5,m,38,english,5,3,english,2024-02-09 19:18:22.337453,False,1,188,sounds\english\audio/english_476.wav,"[[  0.          67.27413703]
 [  0.1        -35.99891676]
 [  0.2         53.1347651 ]
 [  0.3        -27.53585108]
 [  0.32341667  13.88563074]]","[[0.         1.71507594]
 [0.1        1.5691203 ]
 [0.2        0.1869461 ]
 [0.3        0.94822926]
 [0.32341667 1.63186757]]",0,0.371
5,m,38,english,5,3,english,2024-02-09 19:18:22.337453,False,1,189,sounds\english\audio/english_743.wav,"[[  0.         -28.24983145]
 [  0.1         71.30498545]
 [  0.2        -89.00652632]
 [  0.3          3.43441779]
 [  0.32341667 -16.71659348]]","[[0.         1.42102626]
 [0.1        0.84283155]
 [0.2        0.82757129]
 [0.3        1.38808557]
 [0.32341667 0.28501565]]",0,0.288
5,m,38,english,5,3,english,2024-02-09 19:18:22.337453,False,1,190,sounds\english\audio/english_731.wav,"[[  0.          91.74609406]
 [  0.1         96.5637085 ]
 [  0.2        -58.02596537]
 [  0.3         21.59328018]
 [  0.32341667  13.26044458]]","[[0.         0.2840719 ]
 [0.1        1.75324284]
 [0.2        1.43086201]
 [0.3        1.68336342]
 [0.32341667 0.60031718]]",1,0.457
5,m,38,english,5,3,english,2024-02-09 19:18:22.337453,False,1,191,sounds\english\audio/english_125.wav,"[[  0.          -5.59692586]
 [  0.1         45.61970603]
 [  0.2        -80.48713695]
 [  0.3         76.65956808]
 [  0.32341667  -9.14506838]]","[[0.         0.61478703]
 [0.1        0.5852269 ]
 [0.2        1.26290546]
 [0.3        1.54178375]
 [0.32341667 0.79261171]]",0,0.237
5,m,38,english,5,3,english,2024-02-09 19:18:22.337453,False,1,192,sounds\english\audio/english_69.wav,"[[  0.         -57.18730239]
 [  0.1         16.22212469]
 [  0.2        -44.28071093]
 [  0.3        -70.80378082]
 [  0.32341667 -58.3439892 ]]","[[0.         0.11878381]
 [0.1        1.00797921]
 [0.2        0.42082068]
 [0.3        0.50205716]
 [0.32341667 0.68985838]]",0,0.325
5,m,38,english,5,3,english,2024-02-09 19:18:22.337453,False,1,193,sounds\english\audio/english_540.wav,"[[  0.         -46.6752609 ]
 [  0.1        -93.20209644]
 [  0.2         64.96419662]
 [  0.3        -12.16484387]
 [  0.32341667 -44.34688232]]","[[0.         1.16352469]
 [0.1        0.0234781 ]
 [0.2        0.05926191]
 [0.3        1.47406284]
 [0.32341667 0.60104864]]",0,0.872
5,m,38,english,5,3,english,2024-02-09 19:18:22.337453,False,1,194,sounds\english\audio/english_129.wav,"[[  0.          80.17800931]
 [  0.1          6.7929614 ]
 [  0.2         51.03188375]
 [  0.3        -14.28174581]
 [  0.32341667  32.60771632]]","[[0.         1.16690044]
 [0.1        1.89220933]
 [0.2        1.40122633]
 [0.3        0.72131347]
 [0.32341667 1.30692003]]",1,0.505
5,m,38,english,5,3,english,2024-02-09 19:18:22.337453,False,1,195,sounds\english\audio/english_253.wav,"[[  0.          12.9108365 ]
 [  0.1        -70.83420593]
 [  0.2         -6.13796162]
 [  0.3         38.03543053]
 [  0.32341667 -61.21147917]]","[[0.         0.20464585]
 [0.1        1.97412558]
 [0.2        1.12401504]
 [0.3        1.75851492]
 [0.32341667 0.77953826]]",0,0.299
5,m,38,english,5,3,english,2024-02-09 19:18:22.337453,False,1,196,sounds\english\audio/english_76.wav,"[[  0.          24.78743387]
 [  0.1         -7.95135802]
 [  0.2         -9.56689875]
 [  0.3        -78.25819759]
 [  0.32341667  26.4311908 ]]","[[0.         1.26829138]
 [0.1        1.4446717 ]
 [0.2        0.88177173]
 [0.3        1.63003096]
 [0.32341667 1.97074408]]",1,0.149
5,m,38,english,5,3,english,2024-02-09 19:18:22.337453,False,1,197,sounds\english\audio/english_256.wav,"[[  0.          22.60769813]
 [  0.1        -95.01444593]
 [  0.2        -19.91310746]
 [  0.3         -6.39209363]
 [  0.32341667  24.02209282]]","[[0.         1.84037168]
 [0.1        0.47687766]
 [0.2        0.85339151]
 [0.3        0.75097161]
 [0.32341667 1.98695073]]",0,0.422
5,m,38,english,5,3,english,2024-02-09 19:18:22.337453,False,1,198,sounds\english\audio/english_222.wav,"[[  0.          -5.8882644 ]
 [  0.1        -15.4334302 ]
 [  0.2        -39.50203868]
 [  0.3         67.79027175]
 [  0.32341667 -43.17344259]]","[[0.         0.97478352]
 [0.1        1.79573252]
 [0.2        1.71948726]
 [0.3        0.41699719]
 [0.32341667 0.26315099]]",1,0.21
5,m,38,english,5,3,english,2024-02-09 19:18:22.337453,False,1,199,sounds\english\audio/english_843.wav,"[[  0.         -34.38568909]
 [  0.1         91.48235516]
 [  0.2         45.43581208]
 [  0.3         47.04005582]
 [  0.32341667  30.80916685]]","[[0.         1.38988397]
 [0.1        0.61638546]
 [0.2        1.5800421 ]
 [0.3        1.07327256]
 [0.32341667 0.46994626]]",1,0.348
5,m,38,english,5,3,english,2024-02-09 19:18:22.337453,False,1,200,sounds\english\audio/english_409.wav,"[[  0.         -24.04105399]
 [  0.1        -26.67389605]
 [  0.2         23.9966363 ]
 [  0.3         16.61705293]
 [  0.32341667  73.09980407]]","[[0.         0.29560797]
 [0.1        1.53762848]
 [0.2        0.34602898]
 [0.3        1.21824435]
 [0.32341667 1.55330233]]",1,0.319
5,m,38,english,5,3,english,2024-02-09 19:18:22.337453,False,1,201,sounds\english\audio/english_107.wav,"[[  0.         -19.24931684]
 [  0.1         24.04874113]
 [  0.2         59.01955179]
 [  0.3         49.74315823]
 [  0.32341667 -75.23844627]]","[[0.         0.69122185]
 [0.1        0.13674094]
 [0.2        1.47608642]
 [0.3        1.52525824]
 [0.32341667 0.11985114]]",0,0.351
5,m,38,english,5,3,english,2024-02-09 19:18:22.337453,False,1,202,sounds\english\audio/english_506.wav,"[[  0.         -17.73769578]
 [  0.1        -41.45582363]
 [  0.2         30.66866042]
 [  0.3         59.8078046 ]
 [  0.32341667  84.38248427]]","[[0.         0.98447335]
 [0.1        0.94666259]
 [0.2        0.72831062]
 [0.3        1.02790064]
 [0.32341667 0.39724826]]",0,0.957
5,m,38,english,5,3,english,2024-02-09 19:18:22.337453,False,1,203,sounds\english\audio/english_249.wav,"[[  0.          78.40227579]
 [  0.1        -55.1129652 ]
 [  0.2          6.74447168]
 [  0.3         27.3376716 ]
 [  0.32341667 -97.08031886]]","[[0.         1.91339694]
 [0.1        1.00834957]
 [0.2        0.29418026]
 [0.3        1.53256547]
 [0.32341667 0.99264532]]",0,0.439
5,m,38,english,5,3,english,2024-02-09 19:18:22.337453,False,1,204,sounds\english\audio/english_947.wav,"[[  0.          73.13113362]
 [  0.1        -55.13077299]
 [  0.2         59.32217849]
 [  0.3        -71.25946194]
 [  0.32341667  39.2274254 ]]","[[0.         0.1925557 ]
 [0.1        1.89478059]
 [0.2        0.99662771]
 [0.3        0.61263341]
 [0.32341667 0.46373334]]",0,0.32
5,m,38,english,5,3,english,2024-02-09 19:18:22.337453,False,1,205,sounds\english\audio/english_457.wav,"[[  0.         -73.30847947]
 [  0.1        -25.74413936]
 [  0.2          8.82772976]
 [  0.3         -2.30416086]
 [  0.32341667 -34.04493945]]","[[0.         0.35525387]
 [0.1        0.90483023]
 [0.2        1.30004432]
 [0.3        0.93422762]
 [0.32341667 1.31504388]]",1,0.41
5,m,38,english,5,3,english,2024-02-09 19:18:22.337453,False,1,206,sounds\english\audio/english_357.wav,"[[  0.          76.35734026]
 [  0.1        -86.84267031]
 [  0.2        -64.6676431 ]
 [  0.3        -69.9472318 ]
 [  0.32341667  87.84988665]]","[[0.         1.14590216]
 [0.1        0.53472093]
 [0.2        0.54723503]
 [0.3        1.29334783]
 [0.32341667 1.74725804]]",0,0.406
5,m,38,english,5,3,english,2024-02-09 19:18:22.337453,False,1,207,sounds\english\audio/english_446.wav,"[[  0.         -50.90487531]
 [  0.1         77.9515464 ]
 [  0.2         12.96913102]
 [  0.3         31.20275809]
 [  0.32341667 -30.39700356]]","[[0.         0.84721497]
 [0.1        0.90863808]
 [0.2        0.45582271]
 [0.3        0.65529325]
 [0.32341667 0.08422993]]",0,0.474
5,m,38,english,5,3,english,2024-02-09 19:18:22.337453,False,1,208,sounds\english\audio/english_668.wav,"[[ 0.         48.8265236 ]
 [ 0.1        97.68090991]
 [ 0.2        47.50182685]
 [ 0.3        81.7432518 ]
 [ 0.32341667 28.08178094]]","[[0.         0.43768829]
 [0.1        0.31983773]
 [0.2        1.24438546]
 [0.3        0.49120307]
 [0.32341667 0.60639718]]",1,0.382
5,m,38,english,5,3,english,2024-02-09 19:18:22.337453,False,1,209,sounds\english\audio/english_729.wav,"[[  0.          31.16849918]
 [  0.1        -74.04657477]
 [  0.2         98.28479208]
 [  0.3         45.68234461]
 [  0.32341667 -23.12232547]]","[[0.         1.30127688]
 [0.1        1.28998605]
 [0.2        0.71365363]
 [0.3        0.61436371]
 [0.32341667 0.96520681]]",0,8.724
5,m,38,english,5,3,english,2024-02-09 19:18:22.337453,False,1,210,sounds\english\audio/english_908.wav,"[[  0.          48.62867987]
 [  0.1         15.18588807]
 [  0.2        -42.37345339]
 [  0.3         10.74033392]
 [  0.32341667 -40.14378972]]","[[0.         1.27180628]
 [0.1        0.65893562]
 [0.2        1.07678682]
 [0.3        1.66111239]
 [0.32341667 0.30218678]]",1,2.016
5,m,38,english,5,3,english,2024-02-09 19:18:22.337453,False,1,211,sounds\english\audio/english_970.wav,"[[  0.          37.22911191]
 [  0.1         36.57191813]
 [  0.2         20.2344678 ]
 [  0.3        -86.31030026]
 [  0.32341667 -83.96880691]]","[[0.         0.60712849]
 [0.1        1.26781741]
 [0.2        1.29373459]
 [0.3        0.18112256]
 [0.32341667 1.07780169]]",1,0.372
5,m,38,english,5,3,english,2024-02-09 19:18:22.337453,False,1,212,sounds\english\audio/english_937.wav,"[[  0.          76.77394395]
 [  0.1         49.33576264]
 [  0.2        -87.39935237]
 [  0.3         11.02170053]
 [  0.32341667  91.99381322]]","[[0.         1.55370699]
 [0.1        1.82028848]
 [0.2        1.42487505]
 [0.3        0.87896062]
 [0.32341667 0.96516852]]",1,0.237
5,m,38,english,5,3,english,2024-02-09 19:18:22.337453,False,1,213,sounds\english\audio/english_256.wav,"[[  0.          22.60769813]
 [  0.1        -95.01444593]
 [  0.2        -19.91310746]
 [  0.3         -6.39209363]
 [  0.32341667  24.02209282]]","[[0.         1.84037168]
 [0.1        0.47687766]
 [0.2        0.85339151]
 [0.3        0.75097161]
 [0.32341667 1.98695073]]",0,0.659
5,m,38,english,5,3,english,2024-02-09 19:18:22.337453,False,1,214,sounds\english\audio/english_803.wav,"[[  0.           8.73756077]
 [  0.1        -41.53503623]
 [  0.2        -84.76471985]
 [  0.3        -27.96408635]
 [  0.32341667  72.02290108]]","[[0.         1.22190991]
 [0.1        1.08276728]
 [0.2        1.59545905]
 [0.3        1.3875394 ]
 [0.32341667 0.92287786]]",0,2.198
5,m,38,english,5,3,english,2024-02-09 19:18:22.337453,False,1,215,sounds\english\audio/english_692.wav,"[[  0.         -29.13306787]
 [  0.1        -41.86406343]
 [  0.2        -94.94051661]
 [  0.3         78.40426091]
 [  0.32341667 -47.11562344]]","[[0.         0.55849531]
 [0.1        1.96517265]
 [0.2        0.19953253]
 [0.3        1.89357941]
 [0.32341667 1.37874109]]",1,0.264
5,m,38,english,5,3,english,2024-02-09 19:18:22.337453,False,1,216,sounds\english\audio/english_71.wav,"[[  0.         -89.06637534]
 [  0.1        -28.638437  ]
 [  0.2         -8.31899436]
 [  0.3         67.7820648 ]
 [  0.32341667   4.09606073]]","[[0.         0.37218892]
 [0.1        1.29479557]
 [0.2        1.34818575]
 [0.3        1.24266832]
 [0.32341667 1.38884894]]",0,62.779
5,m,38,english,5,3,english,2024-02-09 19:18:22.337453,False,1,217,sounds\english\audio/english_114.wav,"[[  0.          32.66189176]
 [  0.1         11.50533392]
 [  0.2        -73.58201401]
 [  0.3         -8.93644113]
 [  0.32341667  -2.4794064 ]]","[[0.         0.56529239]
 [0.1        1.79520186]
 [0.2        1.4619954 ]
 [0.3        0.78288211]
 [0.32341667 0.66376764]]",1,1.459
5,m,38,english,5,3,english,2024-02-09 19:18:22.337453,False,1,218,sounds\english\audio/english_728.wav,"[[  0.          -6.4565561 ]
 [  0.1          2.02882612]
 [  0.2        -40.29513079]
 [  0.3        -29.37287389]
 [  0.32341667 -32.17490136]]","[[0.         1.7247049 ]
 [0.1        1.95158608]
 [0.2        0.21085377]
 [0.3        0.85434083]
 [0.32341667 1.52436666]]",0,0.424
5,m,38,english,5,3,english,2024-02-09 19:18:22.337453,False,1,219,sounds\english\audio/english_670.wav,"[[  0.          64.75672565]
 [  0.1         85.95156369]
 [  0.2        -44.32949438]
 [  0.3         22.57192219]
 [  0.32341667  34.74005277]]","[[0.         1.5535903 ]
 [0.1        0.12522594]
 [0.2        0.22842632]
 [0.3        0.17636502]
 [0.32341667 0.16208776]]",0,0.52
5,m,38,english,5,3,english,2024-02-09 19:18:22.337453,False,1,220,sounds\english\audio/english_514.wav,"[[  0.         -61.65105701]
 [  0.1         49.84264816]
 [  0.2         14.14440898]
 [  0.3        -30.10662908]
 [  0.32341667  90.48337022]]","[[0.         1.12509033]
 [0.1        0.78701739]
 [0.2        0.37052689]
 [0.3        1.42053426]
 [0.32341667 1.94621598]]",0,0.733
5,m,38,english,5,3,english,2024-02-09 19:18:22.337453,False,1,221,sounds\english\audio/english_318.wav,"[[  0.          40.16064427]
 [  0.1        -52.58874178]
 [  0.2         46.7653316 ]
 [  0.3        -41.44559589]
 [  0.32341667  -2.50443948]]","[[0.         0.11467793]
 [0.1        0.6224104 ]
 [0.2        0.05328619]
 [0.3        0.01138238]
 [0.32341667 1.16020285]]",0,0.532
5,m,38,english,5,3,english,2024-02-09 19:18:22.337453,False,1,222,sounds\english\audio/english_368.wav,"[[  0.         -25.00542805]
 [  0.1        -48.20991773]
 [  0.2        -51.83604218]
 [  0.3         14.57062672]
 [  0.32341667 -26.77020505]]","[[0.         1.03431482]
 [0.1        0.92366821]
 [0.2        0.34019883]
 [0.3        1.21184807]
 [0.32341667 0.81530657]]",0,0.323
5,m,38,english,5,3,english,2024-02-09 19:18:22.337453,False,1,223,sounds\english\audio/english_245.wav,"[[  0.          74.89239003]
 [  0.1         41.98679172]
 [  0.2         99.42105985]
 [  0.3        -75.11958538]
 [  0.32341667 -62.10664415]]","[[0.         1.30710747]
 [0.1        0.93119149]
 [0.2        1.84379828]
 [0.3        1.72828743]
 [0.32341667 0.50124118]]",1,0.252
5,m,38,english,5,3,english,2024-02-09 19:18:22.337453,False,1,224,sounds\english\audio/english_812.wav,"[[  0.          70.24469457]
 [  0.1        -27.51466786]
 [  0.2         60.55844263]
 [  0.3         52.93607499]
 [  0.32341667  74.74872052]]","[[0.         0.85599223]
 [0.1        0.39005905]
 [0.2        1.43275618]
 [0.3        1.34329238]
 [0.32341667 0.96810209]]",1,0.295
5,m,38,english,5,3,english,2024-02-09 19:18:22.337453,False,1,225,sounds\english\audio/english_33.wav,"[[  0.          13.53683954]
 [  0.1        -23.61599557]
 [  0.2         60.58241295]
 [  0.3         -2.03686091]
 [  0.32341667  79.90239576]]","[[0.         1.37746345]
 [0.1        1.14776292]
 [0.2        1.15899553]
 [0.3        0.64766031]
 [0.32341667 1.69768968]]",1,0.583
5,m,38,english,5,3,english,2024-02-09 19:18:22.337453,False,1,226,sounds\english\audio/english_574.wav,"[[  0.          53.128433  ]
 [  0.1         70.24248151]
 [  0.2         47.13290739]
 [  0.3         52.31480293]
 [  0.32341667 -33.06438127]]","[[0.         0.28349694]
 [0.1        0.66519348]
 [0.2        1.25768036]
 [0.3        1.43482954]
 [0.32341667 1.23350688]]",1,0.377
5,m,38,english,5,3,english,2024-02-09 19:18:22.337453,False,1,227,sounds\english\audio/english_794.wav,"[[  0.           5.57967757]
 [  0.1         -3.8737546 ]
 [  0.2        -24.29943164]
 [  0.3          3.56417137]
 [  0.32341667 -13.30357118]]","[[0.         1.6157291 ]
 [0.1        0.80008436]
 [0.2        0.69881068]
 [0.3        1.55658335]
 [0.32341667 1.787412  ]]",1,0.194
5,m,38,english,5,3,english,2024-02-09 19:18:22.337453,False,1,228,sounds\english\audio/english_945.wav,"[[  0.          63.16075011]
 [  0.1         87.55520176]
 [  0.2        -69.60467193]
 [  0.3        -69.25530384]
 [  0.32341667 -47.64160087]]","[[0.         1.8314946 ]
 [0.1        1.3737613 ]
 [0.2        0.61639792]
 [0.3        1.67239747]
 [0.32341667 1.88344595]]",1,0.219
5,m,38,english,5,3,english,2024-02-09 19:18:22.337453,False,1,229,sounds\english\audio/english_828.wav,"[[  0.          51.6479082 ]
 [  0.1         37.62818293]
 [  0.2         55.79615955]
 [  0.3         31.91979646]
 [  0.32341667 -22.21091203]]","[[0.         0.4417702 ]
 [0.1        1.22957458]
 [0.2        0.69909727]
 [0.3        1.572544  ]
 [0.32341667 0.87669833]]",1,0.395
5,m,38,english,5,3,english,2024-02-09 19:18:22.337453,False,1,230,sounds\english\audio/english_714.wav,"[[  0.           6.62463448]
 [  0.1         -7.37775178]
 [  0.2        -58.74003357]
 [  0.3        -38.84014254]
 [  0.32341667 -23.67047323]]","[[0.         0.98205871]
 [0.1        1.90018259]
 [0.2        1.33033281]
 [0.3        0.20009115]
 [0.32341667 0.44650169]]",0,0.232
5,m,38,english,5,3,english,2024-02-09 19:18:22.337453,False,1,231,sounds\english\audio/english_934.wav,"[[ 0.         48.23169593]
 [ 0.1        42.81145804]
 [ 0.2        79.06411095]
 [ 0.3        69.44528076]
 [ 0.32341667 88.54940569]]","[[0.         1.38760579]
 [0.1        1.74622613]
 [0.2        0.2874918 ]
 [0.3        1.61606763]
 [0.32341667 1.62058381]]",0,0.799
5,m,38,english,5,3,english,2024-02-09 19:18:22.337453,False,1,232,sounds\english\audio/english_416.wav,"[[  0.          26.92040942]
 [  0.1         32.98463782]
 [  0.2         94.30298269]
 [  0.3         71.4008894 ]
 [  0.32341667 -13.61584313]]","[[0.         0.66708871]
 [0.1        0.46140785]
 [0.2        0.4311344 ]
 [0.3        0.4522554 ]
 [0.32341667 0.23817019]]",0,0.687
5,m,38,english,5,3,english,2024-02-09 19:18:22.337453,False,1,233,sounds\english\audio/english_999.wav,"[[  0.         -43.88463807]
 [  0.1        -19.69329198]
 [  0.2        -16.47401585]
 [  0.3        -27.91485083]
 [  0.32341667 -38.65265262]]","[[0.         1.5561212 ]
 [0.1        1.76032244]
 [0.2        0.67323911]
 [0.3        0.0725875 ]
 [0.32341667 0.89314247]]",1,0.472
5,m,38,english,5,3,english,2024-02-09 19:18:22.337453,False,1,234,sounds\english\audio/english_261.wav,"[[  0.         -19.34212076]
 [  0.1        -90.49371254]
 [  0.2         -2.84874079]
 [  0.3         26.59732755]
 [  0.32341667  39.97770901]]","[[0.         1.20182597]
 [0.1        0.701642  ]
 [0.2        0.72931556]
 [0.3        0.86687176]
 [0.32341667 1.42617677]]",1,0.347
5,m,38,english,5,3,english,2024-02-09 19:18:22.337453,False,1,235,sounds\english\audio/english_355.wav,"[[  0.          33.6784286 ]
 [  0.1         30.74796889]
 [  0.2         71.39310534]
 [  0.3         38.16266559]
 [  0.32341667 -39.8799084 ]]","[[0.         1.28512049]
 [0.1        1.04729355]
 [0.2        0.74339822]
 [0.3        0.86152361]
 [0.32341667 1.83215587]]",0,0.297
5,m,38,english,5,3,english,2024-02-09 19:18:22.337453,False,1,236,sounds\english\audio/english_756.wav,"[[  0.         -75.60908863]
 [  0.1         -4.30259752]
 [  0.2         20.94377522]
 [  0.3         10.45062111]
 [  0.32341667  86.50209298]]","[[0.         1.29894989]
 [0.1        0.61363685]
 [0.2        1.41793961]
 [0.3        1.73528762]
 [0.32341667 0.4791473 ]]",1,0.357
5,m,38,english,5,3,english,2024-02-09 19:18:22.337453,False,1,237,sounds\english\audio/english_682.wav,"[[  0.         -19.80167737]
 [  0.1        -30.98220326]
 [  0.2         26.07010201]
 [  0.3         -7.79776739]
 [  0.32341667 -10.9148898 ]]","[[0.         1.6131825 ]
 [0.1        1.03205672]
 [0.2        1.08357256]
 [0.3        1.70642947]
 [0.32341667 0.86858281]]",1,0.274
5,m,38,english,5,3,english,2024-02-09 19:18:22.337453,False,1,238,sounds\english\audio/english_423.wav,"[[  0.          48.83941012]
 [  0.1         26.57948938]
 [  0.2         56.70545245]
 [  0.3        -62.41131033]
 [  0.32341667  78.49803502]]","[[0.         1.35290702]
 [0.1        1.33919202]
 [0.2        1.37149513]
 [0.3        1.11357765]
 [0.32341667 1.20699722]]",1,0.142
5,m,38,english,5,3,english,2024-02-09 19:18:22.337453,False,1,239,sounds\english\audio/english_687.wav,"[[  0.          86.90300909]
 [  0.1         79.71843279]
 [  0.2         34.94433723]
 [  0.3        -45.53952821]
 [  0.32341667  63.0204093 ]]","[[0.         0.475784  ]
 [0.1        0.40603367]
 [0.2        0.97706088]
 [0.3        0.65075382]
 [0.32341667 0.93918167]]",0,0.344
5,m,38,english,5,3,english,2024-02-09 19:18:22.337453,False,1,240,sounds\english\audio/english_55.wav,"[[  0.          71.89255128]
 [  0.1          0.20692224]
 [  0.2        -68.61006599]
 [  0.3         -5.20952515]
 [  0.32341667  28.45991968]]","[[0.         0.24931264]
 [0.1        1.79813092]
 [0.2        0.71729895]
 [0.3        1.28733782]
 [0.32341667 1.77061752]]",1,0.171
5,m,38,english,5,3,english,2024-02-09 19:18:22.337453,False,1,241,sounds\english\audio/english_495.wav,"[[  0.          -5.58861003]
 [  0.1          8.95176437]
 [  0.2         39.42206983]
 [  0.3        -84.38976819]
 [  0.32341667  -2.90431636]]","[[0.         1.32978923]
 [0.1        0.81778757]
 [0.2        0.66481361]
 [0.3        0.35850052]
 [0.32341667 0.23899864]]",1,0.501
5,m,38,english,5,3,english,2024-02-09 19:18:22.337453,False,1,242,sounds\english\audio/english_510.wav,"[[  0.         -39.77235695]
 [  0.1        -55.9025784 ]
 [  0.2         42.12378864]
 [  0.3         -5.9333084 ]
 [  0.32341667  84.8199861 ]]","[[0.         0.97080384]
 [0.1        0.1022914 ]
 [0.2        1.56878682]
 [0.3        1.19302163]
 [0.32341667 1.45606517]]",1,0.308
5,m,38,english,5,3,english,2024-02-09 19:18:22.337453,False,1,243,sounds\english\audio/english_792.wav,"[[  0.         -56.39949456]
 [  0.1        -76.36067248]
 [  0.2        -58.44160547]
 [  0.3         25.29086486]
 [  0.32341667  -6.58788169]]","[[0.         1.32676777]
 [0.1        1.08004851]
 [0.2        1.5809308 ]
 [0.3        0.16508433]
 [0.32341667 1.18870574]]",0,0.311
5,m,38,english,5,3,english,2024-02-09 19:18:22.337453,False,1,244,sounds\english\audio/english_59.wav,"[[  0.          30.26604033]
 [  0.1         25.69112756]
 [  0.2        -24.85549033]
 [  0.3        -31.2790444 ]
 [  0.32341667  86.30355152]]","[[0.         1.5973148 ]
 [0.1        0.24758472]
 [0.2        0.1547886 ]
 [0.3        0.30754036]
 [0.32341667 0.40312024]]",1,0.444
5,m,38,english,5,3,english,2024-02-09 19:18:22.337453,False,1,245,sounds\english\audio/english_222.wav,"[[  0.          -5.8882644 ]
 [  0.1        -15.4334302 ]
 [  0.2        -39.50203868]
 [  0.3         67.79027175]
 [  0.32341667 -43.17344259]]","[[0.         0.97478352]
 [0.1        1.79573252]
 [0.2        1.71948726]
 [0.3        0.41699719]
 [0.32341667 0.26315099]]",0,0.305
5,m,38,english,5,3,english,2024-02-09 19:18:22.337453,False,1,246,sounds\english\audio/english_212.wav,"[[  0.          -8.03708838]
 [  0.1         72.60121642]
 [  0.2        -98.76374397]
 [  0.3         31.47742107]
 [  0.32341667  53.59344022]]","[[0.         0.69940518]
 [0.1        1.0039509 ]
 [0.2        1.17731185]
 [0.3        0.88066499]
 [0.32341667 0.33624016]]",1,0.427
5,m,38,english,5,3,english,2024-02-09 19:18:22.337453,False,1,247,sounds\english\audio/english_5.wav,"[[  0.         -15.92383461]
 [  0.1        -20.01914587]
 [  0.2         40.70457056]
 [  0.3        -94.67131236]
 [  0.32341667 -88.33027294]]","[[0.         0.27445408]
 [0.1        0.54328549]
 [0.2        0.32172142]
 [0.3        1.15903644]
 [0.32341667 0.94870148]]",1,0.42
5,m,38,english,5,3,english,2024-02-09 19:18:22.337453,False,1,248,sounds\english\audio/english_19.wav,"[[  0.          51.84788699]
 [  0.1         59.68091475]
 [  0.2        -27.71167756]
 [  0.3        -29.56443604]
 [  0.32341667 -58.55228515]]","[[0.         0.3981759 ]
 [0.1        1.61217409]
 [0.2        0.35158216]
 [0.3        0.8770992 ]
 [0.32341667 0.51670124]]",0,0.569
5,m,38,english,5,3,english,2024-02-09 19:18:22.337453,False,1,249,sounds\english\audio/english_882.wav,"[[  0.         -42.93700265]
 [  0.1        -62.35786663]
 [  0.2        -16.20482572]
 [  0.3        -46.49020195]
 [  0.32341667 -64.89408339]]","[[0.         1.06489748]
 [0.1        1.38883859]
 [0.2        0.28843799]
 [0.3        1.05408179]
 [0.32341667 1.78517837]]",1,0.196
5,m,38,english,5,3,english,2024-02-09 19:18:22.337453,False,1,250,sounds\english\audio/english_695.wav,"[[  0.         -74.02191529]
 [  0.1         54.28596986]
 [  0.2        -13.22196683]
 [  0.3          1.82272444]
 [  0.32341667 -11.74905262]]","[[0.         1.19534619]
 [0.1        0.93917139]
 [0.2        0.1241488 ]
 [0.3        1.20091234]
 [0.32341667 0.46222147]]",1,0.265
5,m,38,english,5,3,english,2024-02-09 19:18:22.337453,False,1,251,sounds\english\audio/english_908.wav,"[[  0.          48.62867987]
 [  0.1         15.18588807]
 [  0.2        -42.37345339]
 [  0.3         10.74033392]
 [  0.32341667 -40.14378972]]","[[0.         1.27180628]
 [0.1        0.65893562]
 [0.2        1.07678682]
 [0.3        1.66111239]
 [0.32341667 0.30218678]]",1,0.279
5,m,38,english,5,3,english,2024-02-09 19:18:22.337453,False,1,252,sounds\english\audio/english_970.wav,"[[  0.          37.22911191]
 [  0.1         36.57191813]
 [  0.2         20.2344678 ]
 [  0.3        -86.31030026]
 [  0.32341667 -83.96880691]]","[[0.         0.60712849]
 [0.1        1.26781741]
 [0.2        1.29373459]
 [0.3        0.18112256]
 [0.32341667 1.07780169]]",1,0.198
5,m,38,english,5,3,english,2024-02-09 19:18:22.337453,False,1,253,sounds\english\audio/english_37.wav,"[[  0.          -5.54999706]
 [  0.1         23.22206304]
 [  0.2        -57.36481589]
 [  0.3         58.0578648 ]
 [  0.32341667  66.03280024]]","[[0.         1.12257854]
 [0.1        1.8669628 ]
 [0.2        0.39386712]
 [0.3        1.21765674]
 [0.32341667 0.74428952]]",0,0.379
5,m,38,english,5,3,english,2024-02-09 19:18:22.337453,False,1,254,sounds\english\audio/english_678.wav,"[[  0.          87.86222938]
 [  0.1        -47.14792626]
 [  0.2         -6.84659798]
 [  0.3         87.67045201]
 [  0.32341667 -51.71213936]]","[[0.         1.6760541 ]
 [0.1        0.22369522]
 [0.2        1.1260271 ]
 [0.3        1.53941447]
 [0.32341667 1.37136581]]",1,0.516
5,m,38,english,5,3,english,2024-02-09 19:18:22.337453,False,1,255,sounds\english\audio/english_436.wav,"[[  0.          58.73131257]
 [  0.1         65.29204538]
 [  0.2          7.63213906]
 [  0.3         -2.54756362]
 [  0.32341667 -11.40614268]]","[[0.         0.30497449]
 [0.1        1.04665744]
 [0.2        1.03883923]
 [0.3        0.97345352]
 [0.32341667 0.16121918]]",0,1.49
5,m,38,english,5,3,english,2024-02-09 19:18:22.337453,False,1,256,sounds\english\audio/english_899.wav,"[[  0.          34.44970312]
 [  0.1        -73.97598586]
 [  0.2          4.84970015]
 [  0.3         25.99530817]
 [  0.32341667   7.0197251 ]]","[[0.         1.0262563 ]
 [0.1        0.5565938 ]
 [0.2        0.08950317]
 [0.3        1.10823657]
 [0.32341667 1.27665612]]",1,0.471
5,m,38,english,5,3,english,2024-02-09 19:18:22.337453,False,1,257,sounds\english\audio/english_91.wav,"[[  0.         -67.73951944]
 [  0.1         83.83337034]
 [  0.2        -12.75649653]
 [  0.3          5.95502951]
 [  0.32341667  59.56964586]]","[[0.         0.2772338 ]
 [0.1        0.0816757 ]
 [0.2        0.92538416]
 [0.3        0.40714056]
 [0.32341667 1.8717525 ]]",1,0.911
5,m,38,english,5,3,english,2024-02-09 19:18:22.337453,False,1,258,sounds\english\audio/english_155.wav,"[[  0.          53.87474094]
 [  0.1         74.81745726]
 [  0.2          8.25192738]
 [  0.3        -52.88121257]
