subj,sex,age,language,english,french,native_lang,date,practice,block,trial,stim,pitch,stretch,response,rt
8760830999,f,19,english,5,4,english,2024-02-09 14:29:59.482365,True,0,0,sounds\english\audio/english_309.wav,"[[  0.          59.8258624 ]
 [  0.1         73.70427758]
 [  0.2         -8.71125849]
 [  0.3        -86.6882155 ]
 [  0.32341667 -90.77340978]]","[[0.         0.58100331]
 [0.1        0.81024997]
 [0.2        0.10827203]
 [0.3        0.09670208]
 [0.32341667 1.53063904]]",1,2.726
8760830999,f,19,english,5,4,english,2024-02-09 14:29:59.482365,True,0,1,sounds\english\audio/english_467.wav,"[[  0.          -0.54983343]
 [  0.1        -84.54516502]
 [  0.2         54.30123894]
 [  0.3        -82.00368026]
 [  0.32341667 -54.10816942]]","[[0.         1.824027  ]
 [0.1        1.06295632]
 [0.2        1.09976952]
 [0.3        1.11766566]
 [0.32341667 0.44824559]]",1,0.92
8760830999,f,19,english,5,4,english,2024-02-09 14:29:59.482365,True,0,2,sounds\english\audio/english_137.wav,"[[  0.         -81.54177422]
 [  0.1         48.50229113]
 [  0.2        -43.40912925]
 [  0.3         54.89578869]
 [  0.32341667  90.09778797]]","[[0.         0.16940048]
 [0.1        1.33204053]
 [0.2        1.8593258 ]
 [0.3        1.77805515]
 [0.32341667 1.80981769]]",1,0.321
8760830999,f,19,english,5,4,english,2024-02-09 14:29:59.482365,False,1,3,sounds\english\audio/english_51.wav,"[[  0.          88.48054236]
 [  0.1        -53.5534646 ]
 [  0.2        -33.31344908]
 [  0.3         87.0533187 ]
 [  0.32341667 -16.55219825]]","[[0.         0.21487201]
 [0.1        0.90061677]
 [0.2        0.24834744]
 [0.3        1.31052611]
 [0.32341667 0.58644625]]",0,0.357
8760830999,f,19,english,5,4,english,2024-02-09 14:29:59.482365,False,1,4,sounds\english\audio/english_809.wav,"[[  0.          -9.08149959]
 [  0.1         12.16544582]
 [  0.2         40.52205867]
 [  0.3        -94.19679153]
 [  0.32341667  -5.82752377]]","[[0.         0.73203403]
 [0.1        0.53159531]
 [0.2        1.48114639]
 [0.3        1.77078339]
 [0.32341667 1.36117577]]",1,0.515
8760830999,f,19,english,5,4,english,2024-02-09 14:29:59.482365,False,1,5,sounds\english\audio/english_158.wav,"[[  0.          33.09785739]
 [  0.1        -85.08083727]
 [  0.2         97.70701203]
 [  0.3          2.54261044]
 [  0.32341667 -59.73934841]]","[[0.         1.71128449]
 [0.1        1.56145129]
 [0.2        0.69707892]
 [0.3        1.19647348]
 [0.32341667 1.17782448]]",1,0.251
8760830999,f,19,english,5,4,english,2024-02-09 14:29:59.482365,False,1,6,sounds\english\audio/english_144.wav,"[[  0.         -68.95587174]
 [  0.1        -74.16141139]
 [  0.2        -19.31034794]
 [  0.3        -77.96768175]
 [  0.32341667   3.46911061]]","[[0.         0.23806678]
 [0.1        0.77020267]
 [0.2        0.33858197]
 [0.3        1.42512122]
 [0.32341667 0.57629619]]",0,0.365
8760830999,f,19,english,5,4,english,2024-02-09 14:29:59.482365,False,1,7,sounds\english\audio/english_864.wav,"[[  0.         -41.66547405]
 [  0.1         47.36949562]
 [  0.2         87.97635609]
 [  0.3        -18.88921291]
 [  0.32341667  13.88839096]]","[[0.         0.15536101]
 [0.1        1.78739046]
 [0.2        1.48310956]
 [0.3        0.35838492]
 [0.32341667 0.21709894]]",1,0.359
8760830999,f,19,english,5,4,english,2024-02-09 14:29:59.482365,False,1,8,sounds\english\audio/english_702.wav,"[[  0.         -19.6614881 ]
 [  0.1        -92.60133235]
 [  0.2        -18.01071493]
 [  0.3         91.54675011]
 [  0.32341667  23.09112348]]","[[0.         1.13820402]
 [0.1        1.47755069]
 [0.2        1.33705675]
 [0.3        0.59768286]
 [0.32341667 0.82103567]]",1,0.326
8760830999,f,19,english,5,4,english,2024-02-09 14:29:59.482365,False,1,9,sounds\english\audio/english_603.wav,"[[  0.         -14.17444723]
 [  0.1         -4.64921339]
 [  0.2        -23.32469505]
 [  0.3        -59.01260874]
 [  0.32341667  88.53711532]]","[[0.         1.28295305]
 [0.1        0.35920956]
 [0.2        0.60281559]
 [0.3        0.58107079]
 [0.32341667 1.19087365]]",0,0.6
8760830999,f,19,english,5,4,english,2024-02-09 14:29:59.482365,False,1,10,sounds\english\audio/english_287.wav,"[[  0.          -5.71925808]
 [  0.1        -94.78041007]
 [  0.2          8.34641368]
 [  0.3         36.34893025]
 [  0.32341667 -22.47689594]]","[[0.         1.04112926]
 [0.1        0.35149142]
 [0.2        0.86781598]
 [0.3        1.897904  ]
 [0.32341667 0.5607403 ]]",1,0.399
8760830999,f,19,english,5,4,english,2024-02-09 14:29:59.482365,False,1,11,sounds\english\audio/english_882.wav,"[[  0.         -42.93700265]
 [  0.1        -62.35786663]
 [  0.2        -16.20482572]
 [  0.3        -46.49020195]
 [  0.32341667 -64.89408339]]","[[0.         1.06489748]
 [0.1        1.38883859]
 [0.2        0.28843799]
 [0.3        1.05408179]
 [0.32341667 1.78517837]]",1,0.413
8760830999,f,19,english,5,4,english,2024-02-09 14:29:59.482365,False,1,12,sounds\english\audio/english_301.wav,"[[  0.         -78.18927369]
 [  0.1         -3.52439177]
 [  0.2        -23.22473782]
 [  0.3        -11.7220967 ]
 [  0.32341667  -5.78047748]]","[[0.         1.31935747]
 [0.1        1.41636911]
 [0.2        1.38842862]
 [0.3        1.25169603]
 [0.32341667 1.38740104]]",1,0.566
8760830999,f,19,english,5,4,english,2024-02-09 14:29:59.482365,False,1,13,sounds\english\audio/english_832.wav,"[[  0.         -21.62855277]
 [  0.1        -35.3834786 ]
 [  0.2         52.65867494]
 [  0.3         62.52082964]
 [  0.32341667  46.66062952]]","[[0.         1.31372842]
 [0.1        1.55258378]
 [0.2        1.50567803]
 [0.3        1.2163301 ]
 [0.32341667 1.20100353]]",1,0.336
8760830999,f,19,english,5,4,english,2024-02-09 14:29:59.482365,False,1,14,sounds\english\audio/english_576.wav,"[[  0.          70.71636046]
 [  0.1        -53.10414049]
 [  0.2         34.4374047 ]
 [  0.3         19.64113521]
 [  0.32341667  36.63265498]]","[[0.         1.40655209]
 [0.1        0.7609351 ]
 [0.2        1.0155723 ]
 [0.3        1.45906276]
 [0.32341667 1.49724695]]",1,0.241
8760830999,f,19,english,5,4,english,2024-02-09 14:29:59.482365,False,1,15,sounds\english\audio/english_169.wav,"[[  0.          21.52556644]
 [  0.1        -62.21960884]
 [  0.2        -58.58818316]
 [  0.3         14.95103608]
 [  0.32341667  21.70814087]]","[[0.         0.24747868]
 [0.1        0.51530303]
 [0.2        1.14352058]
 [0.3        1.46694059]
 [0.32341667 1.67980684]]",1,0.371
8760830999,f,19,english,5,4,english,2024-02-09 14:29:59.482365,False,1,16,sounds\english\audio/english_841.wav,"[[  0.          36.57834023]
 [  0.1         81.12994836]
 [  0.2         55.4316434 ]
 [  0.3        -50.85387517]
 [  0.32341667 -52.13814436]]","[[0.         0.37598589]
 [0.1        1.18949815]
 [0.2        1.24219065]
 [0.3        1.45004046]
 [0.32341667 0.19253582]]",0,0.431
8760830999,f,19,english,5,4,english,2024-02-09 14:29:59.482365,False,1,17,sounds\english\audio/english_930.wav,"[[  0.         -52.65701122]
 [  0.1        -24.36484499]
 [  0.2          4.10813066]
 [  0.3         93.74919515]
 [  0.32341667  66.31726896]]","[[0.         0.60066533]
 [0.1        1.33650528]
 [0.2        0.15979886]
 [0.3        1.46288505]
 [0.32341667 0.93993915]]",0,0.665
8760830999,f,19,english,5,4,english,2024-02-09 14:29:59.482365,False,1,18,sounds\english\audio/english_134.wav,"[[  0.          70.72156413]
 [  0.1        -64.20531103]
 [  0.2         35.7891913 ]
 [  0.3        -77.33475241]
 [  0.32341667  85.6978336 ]]","[[0.         1.84700732]
 [0.1        1.20878884]
 [0.2        0.51924654]
 [0.3        1.95615398]
 [0.32341667 1.72102519]]",1,0.273
8760830999,f,19,english,5,4,english,2024-02-09 14:29:59.482365,False,1,19,sounds\english\audio/english_284.wav,"[[  0.         -77.15161711]
 [  0.1         80.53955212]
 [  0.2        -73.74967403]
 [  0.3        -47.67008962]
 [  0.32341667  40.40758666]]","[[0.         0.74585549]
 [0.1        0.017077  ]
 [0.2        0.284322  ]
 [0.3        1.04459593]
 [0.32341667 0.8536958 ]]",0,0.629
8760830999,f,19,english,5,4,english,2024-02-09 14:29:59.482365,False,1,20,sounds\english\audio/english_242.wav,"[[ 0.         26.44185099]
 [ 0.1        44.29547205]
 [ 0.2        -3.86423299]
 [ 0.3        60.29108386]
 [ 0.32341667 18.66576556]]","[[0.         0.44763058]
 [0.1        1.06541359]
 [0.2        0.64111919]
 [0.3        0.35225786]
 [0.32341667 1.0072971 ]]",0,0.483
8760830999,f,19,english,5,4,english,2024-02-09 14:29:59.482365,False,1,21,sounds\english\audio/english_729.wav,"[[  0.          31.16849918]
 [  0.1        -74.04657477]
 [  0.2         98.28479208]
 [  0.3         45.68234461]
 [  0.32341667 -23.12232547]]","[[0.         1.30127688]
 [0.1        1.28998605]
 [0.2        0.71365363]
 [0.3        0.61436371]
 [0.32341667 0.96520681]]",0,0.793
8760830999,f,19,english,5,4,english,2024-02-09 14:29:59.482365,False,1,22,sounds\english\audio/english_875.wav,"[[  0.         -72.29566874]
 [  0.1         40.49821439]
 [  0.2         61.66936014]
 [  0.3         36.92950197]
 [  0.32341667  61.03530789]]","[[0.         0.47412948]
 [0.1        0.97105678]
 [0.2        1.31175081]
 [0.3        0.55015514]
 [0.32341667 1.23529794]]",0,0.557
8760830999,f,19,english,5,4,english,2024-02-09 14:29:59.482365,False,1,23,sounds\english\audio/english_987.wav,"[[  0.          91.33137772]
 [  0.1        -39.20299527]
 [  0.2         78.9852337 ]
 [  0.3        -94.66209845]
 [  0.32341667 -71.76730894]]","[[0.         1.82656395]
 [0.1        1.12122948]
 [0.2        1.12025045]
 [0.3        1.02557261]
 [0.32341667 1.06580695]]",0,0.314
8760830999,f,19,english,5,4,english,2024-02-09 14:29:59.482365,False,1,24,sounds\english\audio/english_775.wav,"[[ 0.         58.00753923]
 [ 0.1        88.61433734]
 [ 0.2        97.9031651 ]
 [ 0.3        14.61974867]
 [ 0.32341667 -5.44703254]]","[[0.         1.75560269]
 [0.1        0.86519841]
 [0.2        0.93867241]
 [0.3        1.86901891]
 [0.32341667 0.0946911 ]]",1,0.724
8760830999,f,19,english,5,4,english,2024-02-09 14:29:59.482365,False,1,25,sounds\english\audio/english_76.wav,"[[  0.          24.78743387]
 [  0.1         -7.95135802]
 [  0.2         -9.56689875]
 [  0.3        -78.25819759]
 [  0.32341667  26.4311908 ]]","[[0.         1.26829138]
 [0.1        1.4446717 ]
 [0.2        0.88177173]
 [0.3        1.63003096]
 [0.32341667 1.97074408]]",1,0.271
8760830999,f,19,english,5,4,english,2024-02-09 14:29:59.482365,False,1,26,sounds\english\audio/english_387.wav,"[[  0.          14.25538659]
 [  0.1         -5.8057983 ]
 [  0.2         -2.59288607]
 [  0.3         19.33055559]
 [  0.32341667 -85.57173801]]","[[0.         0.59610882]
 [0.1        0.93453474]
 [0.2        1.87880123]
 [0.3        0.79709693]
 [0.32341667 0.90161027]]",0,0.463
8760830999,f,19,english,5,4,english,2024-02-09 14:29:59.482365,False,1,27,sounds\english\audio/english_516.wav,"[[  0.         -37.49134217]
 [  0.1         56.61653956]
 [  0.2         60.98574822]
 [  0.3         -0.52682824]
 [  0.32341667 -50.41932267]]","[[0.         0.47483782]
 [0.1        1.0523806 ]
 [0.2        0.59798137]
 [0.3        0.6957238 ]
 [0.32341667 1.76373844]]",0,0.562
8760830999,f,19,english,5,4,english,2024-02-09 14:29:59.482365,False,1,28,sounds\english\audio/english_101.wav,"[[  0.          60.77829508]
 [  0.1         43.41373716]
 [  0.2         56.16195873]
 [  0.3        -99.94719329]
 [  0.32341667  -1.35074094]]","[[0.         0.77962125]
 [0.1        0.02040908]
 [0.2        0.79248433]
 [0.3        1.74003505]
 [0.32341667 1.66206156]]",0,0.708
8760830999,f,19,english,5,4,english,2024-02-09 14:29:59.482365,False,1,29,sounds\english\audio/english_444.wav,"[[  0.          57.2872587 ]
 [  0.1         68.85097071]
 [  0.2        -30.10164543]
 [  0.3        -57.0249627 ]
 [  0.32341667 -54.19692118]]","[[0.         0.52242118]
 [0.1        1.61316948]
 [0.2        0.15196309]
 [0.3        0.44426911]
 [0.32341667 1.48693747]]",1,1.009
8760830999,f,19,english,5,4,english,2024-02-09 14:29:59.482365,False,1,30,sounds\english\audio/english_850.wav,"[[  0.          79.79173837]
 [  0.1        -44.24877139]
 [  0.2         74.77623955]
 [  0.3        -86.32612653]
 [  0.32341667 -11.10230867]]","[[0.         1.46721922]
 [0.1        0.57242606]
 [0.2        0.15597525]
 [0.3        1.3358867 ]
 [0.32341667 1.14618682]]",0,0.402
8760830999,f,19,english,5,4,english,2024-02-09 14:29:59.482365,False,1,31,sounds\english\audio/english_849.wav,"[[  0.         -24.45439181]
 [  0.1        -64.97605389]
 [  0.2        -67.78874915]
 [  0.3         -6.53184928]
 [  0.32341667  59.1884023 ]]","[[0.         1.62147024]
 [0.1        1.28655358]
 [0.2        0.154454  ]
 [0.3        1.49227138]
 [0.32341667 1.08662162]]",1,0.442
8760830999,f,19,english,5,4,english,2024-02-09 14:29:59.482365,False,1,32,sounds\english\audio/english_676.wav,"[[  0.           3.93099148]
 [  0.1         73.76311644]
 [  0.2        -26.92634129]
 [  0.3         51.70874443]
 [  0.32341667 -48.7675791 ]]","[[0.         1.7716209 ]
 [0.1        1.97281878]
 [0.2        1.42487848]
 [0.3        1.45099775]
 [0.32341667 1.84822532]]",1,0.219
8760830999,f,19,english,5,4,english,2024-02-09 14:29:59.482365,False,1,33,sounds\english\audio/english_758.wav,"[[  0.         -56.29380511]
 [  0.1          1.29517397]
 [  0.2         49.77366466]
 [  0.3         51.49077837]
 [  0.32341667  80.19813303]]","[[0.         1.72966744]
 [0.1        1.20455484]
 [0.2        0.98441853]
 [0.3        0.78323536]
 [0.32341667 1.88107652]]",1,0.16
8760830999,f,19,english,5,4,english,2024-02-09 14:29:59.482365,False,1,34,sounds\english\audio/english_257.wav,"[[  0.         -68.31428674]
 [  0.1        -13.90908686]
 [  0.2         54.08743226]
 [  0.3        -42.73693867]
 [  0.32341667  -1.03846516]]","[[0.         1.40239735]
 [0.1        1.49673114]
 [0.2        1.07658057]
 [0.3        0.27427112]
 [0.32341667 1.90516482]]",1,0.225
8760830999,f,19,english,5,4,english,2024-02-09 14:29:59.482365,False,1,35,sounds\english\audio/english_855.wav,"[[  0.          27.89321206]
 [  0.1        -46.00582393]
 [  0.2         35.37102385]
 [  0.3        -58.73762704]
 [  0.32341667 -46.78314799]]","[[0.         0.30262259]
 [0.1        1.40968126]
 [0.2        0.80904714]
 [0.3        1.48943687]
 [0.32341667 1.29572868]]",0,0.409
8760830999,f,19,english,5,4,english,2024-02-09 14:29:59.482365,False,1,36,sounds\english\audio/english_655.wav,"[[  0.          84.9811401 ]
 [  0.1         70.1996811 ]
 [  0.2         -5.60681941]
 [  0.3        -33.00324328]
 [  0.32341667  24.65490624]]","[[0.         1.09123398]
 [0.1        0.51840547]
 [0.2        0.58569322]
 [0.3        1.11132849]
 [0.32341667 0.28465301]]",1,0.367
8760830999,f,19,english,5,4,english,2024-02-09 14:29:59.482365,False,1,37,sounds\english\audio/english_36.wav,"[[  0.           8.79498818]
 [  0.1        -18.99628775]
 [  0.2        -17.40156662]
 [  0.3        -85.73958234]
 [  0.32341667  45.44069908]]","[[0.         0.0614271 ]
 [0.1        0.22652961]
 [0.2        0.46484299]
 [0.3        0.81464033]
 [0.32341667 0.21843777]]",0,0.707
8760830999,f,19,english,5,4,english,2024-02-09 14:29:59.482365,False,1,38,sounds\english\audio/english_198.wav,"[[ 0.         -3.53881338]
 [ 0.1        58.04445454]
 [ 0.2        67.39523563]
 [ 0.3        56.58835275]
 [ 0.32341667  7.34595052]]","[[0.         0.6033193 ]
 [0.1        0.57837506]
 [0.2        1.37850613]
 [0.3        0.73107668]
 [0.32341667 0.42006089]]",0,1.445
8760830999,f,19,english,5,4,english,2024-02-09 14:29:59.482365,False,1,39,sounds\english\audio/english_563.wav,"[[  0.          19.758909  ]
 [  0.1         33.70416131]
 [  0.2        -28.26228599]
 [  0.3         77.25360299]
 [  0.32341667 -40.65982077]]","[[0.         0.0609285 ]
 [0.1        1.63852294]
 [0.2        0.53834051]
 [0.3        0.54558093]
 [0.32341667 0.29994173]]",0,0.338
8760830999,f,19,english,5,4,english,2024-02-09 14:29:59.482365,False,1,40,sounds\english\audio/english_785.wav,"[[  0.          41.51350967]
 [  0.1         26.23517368]
 [  0.2        -12.63822228]
 [  0.3        -30.66588474]
 [  0.32341667  26.08399401]]","[[0.         0.93543931]
 [0.1        1.17819894]
 [0.2        1.98833146]
 [0.3        0.80021218]
 [0.32341667 1.2737519 ]]",0,0.491
8760830999,f,19,english,5,4,english,2024-02-09 14:29:59.482365,False,1,41,sounds\english\audio/english_397.wav,"[[  0.          89.67962381]
 [  0.1        -80.29722345]
 [  0.2         60.53564011]
 [  0.3          9.94565725]
 [  0.32341667   0.1319882 ]]","[[0.         0.42719638]
 [0.1        0.89466904]
 [0.2        0.56174568]
 [0.3        0.1553242 ]
 [0.32341667 1.89079641]]",0,0.464
8760830999,f,19,english,5,4,english,2024-02-09 14:29:59.482365,False,1,42,sounds\english\audio/english_78.wav,"[[  0.          57.57509383]
 [  0.1          8.37611797]
 [  0.2        -42.8518908 ]
 [  0.3         26.19415986]
 [  0.32341667  65.52498429]]","[[0.         0.85738581]
 [0.1        1.59375359]
 [0.2        1.65756647]
 [0.3        0.53011742]
 [0.32341667 1.5323802 ]]",1,0.31
8760830999,f,19,english,5,4,english,2024-02-09 14:29:59.482365,False,1,43,sounds\english\audio/english_142.wav,"[[  0.         -46.59943425]
 [  0.1         63.17145436]
 [  0.2         73.87775976]
 [  0.3        -84.55157756]
 [  0.32341667  20.35536038]]","[[0.         0.40064358]
 [0.1        0.61162855]
 [0.2        0.23189939]
 [0.3        1.54635995]
 [0.32341667 1.86221744]]",0,0.378
8760830999,f,19,english,5,4,english,2024-02-09 14:29:59.482365,False,1,44,sounds\english\audio/english_155.wav,"[[  0.          53.87474094]
 [  0.1         74.81745726]
 [  0.2          8.25192738]
 [  0.3        -52.88121257]
 [  0.32341667  48.31209788]]","[[0.         1.93436975]
 [0.1        0.64472983]
 [0.2        1.6098708 ]
 [0.3        1.15705679]
 [0.32341667 0.66500292]]",1,0.311
8760830999,f,19,english,5,4,english,2024-02-09 14:29:59.482365,False,1,45,sounds\english\audio/english_468.wav,"[[  0.         -33.82586043]
 [  0.1        -42.55840131]
 [  0.2        -36.6492295 ]
 [  0.3         39.91321296]
 [  0.32341667  54.14936319]]","[[0.         0.35164089]
 [0.1        0.20114733]
 [0.2        1.40729654]
 [0.3        0.04300573]
 [0.32341667 1.79642733]]",0,0.438
8760830999,f,19,english,5,4,english,2024-02-09 14:29:59.482365,False,1,46,sounds\english\audio/english_150.wav,"[[  0.         -51.77489255]
 [  0.1         16.7322824 ]
 [  0.2        -56.19561079]
 [  0.3         36.81691324]
 [  0.32341667 -97.11243964]]","[[0.         0.6625495 ]
 [0.1        1.26353984]
 [0.2        0.38378194]
 [0.3        1.59154348]
 [0.32341667 0.94821753]]",0,0.78
8760830999,f,19,english,5,4,english,2024-02-09 14:29:59.482365,False,1,47,sounds\english\audio/english_654.wav,"[[  0.         -97.13147194]
 [  0.1        -81.37819023]
 [  0.2         51.48571278]
 [  0.3         54.00949099]
 [  0.32341667 -95.1633683 ]]","[[0.         0.91673578]
 [0.1        1.23280851]
 [0.2        1.64688363]
 [0.3        1.75994168]
 [0.32341667 0.20104411]]",0,0.87
8760830999,f,19,english,5,4,english,2024-02-09 14:29:59.482365,False,1,48,sounds\english\audio/english_404.wav,"[[  0.          32.93077195]
 [  0.1         51.79107477]
 [  0.2        -61.91466198]
 [  0.3         33.45957754]
 [  0.32341667 -82.23793256]]","[[0.         0.80618862]
 [0.1        1.03327995]
 [0.2        1.39590152]
 [0.3        1.8615638 ]
 [0.32341667 0.80137687]]",0,0.772
8760830999,f,19,english,5,4,english,2024-02-09 14:29:59.482365,False,1,49,sounds\english\audio/english_405.wav,"[[  0.         -94.88566807]
 [  0.1         45.39575719]
 [  0.2        -94.78509898]
 [  0.3         54.14618135]
 [  0.32341667 -20.18916124]]","[[0.         1.97726842]
 [0.1        1.2658567 ]
 [0.2        0.10443365]
 [0.3        0.24635614]
 [0.32341667 0.76836832]]",1,0.489
8760830999,f,19,english,5,4,english,2024-02-09 14:29:59.482365,False,1,50,sounds\english\audio/english_107.wav,"[[  0.         -19.24931684]
 [  0.1         24.04874113]
 [  0.2         59.01955179]
 [  0.3         49.74315823]
 [  0.32341667 -75.23844627]]","[[0.         0.69122185]
 [0.1        0.13674094]
 [0.2        1.47608642]
 [0.3        1.52525824]
 [0.32341667 0.11985114]]",0,0.348
8760830999,f,19,english,5,4,english,2024-02-09 14:29:59.482365,False,1,51,sounds\english\audio/english_428.wav,"[[  0.         -98.34466569]
 [  0.1        -10.51162175]
 [  0.2         97.93427859]
 [  0.3         35.61870537]
 [  0.32341667 -12.49352836]]","[[0.         1.83106884]
 [0.1        1.34345266]
 [0.2        0.65853672]
 [0.3        1.28105878]
 [0.32341667 0.15324236]]",1,0.364
8760830999,f,19,english,5,4,english,2024-02-09 14:29:59.482365,False,1,52,sounds\english\audio/english_289.wav,"[[  0.         -55.97739865]
 [  0.1        -97.9801122 ]
 [  0.2         44.28679287]
 [  0.3        -74.0895039 ]
 [  0.32341667 -44.25845537]]","[[0.         0.95213243]
 [0.1        0.81858491]
 [0.2        1.16094748]
 [0.3        0.92969459]
 [0.32341667 0.41504245]]",0,0.311
8760830999,f,19,english,5,4,english,2024-02-09 14:29:59.482365,False,1,53,sounds\english\audio/english_273.wav,"[[  0.         -44.98289573]
 [  0.1         24.32546199]
 [  0.2         61.84573583]
 [  0.3         -1.88803465]
 [  0.32341667  57.02125087]]","[[0.         1.94838534]
 [0.1        0.68888608]
 [0.2        1.95265796]
 [0.3        1.62060328]
 [0.32341667 0.94638053]]",0,0.314
8760830999,f,19,english,5,4,english,2024-02-09 14:29:59.482365,False,1,54,sounds\english\audio/english_444.wav,"[[  0.          57.2872587 ]
 [  0.1         68.85097071]
 [  0.2        -30.10164543]
 [  0.3        -57.0249627 ]
 [  0.32341667 -54.19692118]]","[[0.         0.52242118]
 [0.1        1.61316948]
 [0.2        0.15196309]
 [0.3        0.44426911]
 [0.32341667 1.48693747]]",1,1.037
8760830999,f,19,english,5,4,english,2024-02-09 14:29:59.482365,False,1,55,sounds\english\audio/english_736.wav,"[[  0.          44.94907169]
 [  0.1        -89.05982676]
 [  0.2         27.88925208]
 [  0.3         77.01163693]
 [  0.32341667 -28.23601136]]","[[0.         1.40223879]
 [0.1        1.76358699]
 [0.2        0.99111008]
 [0.3        1.90426439]
 [0.32341667 1.97036362]]",1,0.345
8760830999,f,19,english,5,4,english,2024-02-09 14:29:59.482365,False,1,56,sounds\english\audio/english_699.wav,"[[  0.         -21.84844695]
 [  0.1        -20.61050251]
 [  0.2         -7.57046677]
 [  0.3        -90.18255135]
 [  0.32341667 -39.12532958]]","[[0.         0.55007596]
 [0.1        0.98595355]
 [0.2        1.16771202]
 [0.3        0.60930532]
 [0.32341667 1.39260434]]",0,0.712
8760830999,f,19,english,5,4,english,2024-02-09 14:29:59.482365,False,1,57,sounds\english\audio/english_965.wav,"[[  0.         -19.49526798]
 [  0.1        -33.46093545]
 [  0.2         95.24809114]
 [  0.3         26.23968625]
 [  0.32341667  15.70217089]]","[[0.         1.71910172]
 [0.1        1.16323176]
 [0.2        0.56514201]
 [0.3        1.82539978]
 [0.32341667 1.7659451 ]]",1,0.334
8760830999,f,19,english,5,4,english,2024-02-09 14:29:59.482365,False,1,58,sounds\english\audio/english_976.wav,"[[  0.         -92.49082032]
 [  0.1         92.01562452]
 [  0.2        -80.55764576]
 [  0.3        -70.09009567]
 [  0.32341667  -7.5394989 ]]","[[0.         0.30893725]
 [0.1        1.54393752]
 [0.2        1.31466429]
 [0.3        1.88171095]
 [0.32341667 1.71314556]]",0,0.362
8760830999,f,19,english,5,4,english,2024-02-09 14:29:59.482365,False,1,59,sounds\english\audio/english_493.wav,"[[  0.          42.62366846]
 [  0.1        -24.95330968]
 [  0.2         82.3526737 ]
 [  0.3         53.78370402]
 [  0.32341667 -52.5410085 ]]","[[0.         0.72879325]
 [0.1        1.87742997]
 [0.2        1.69463318]
 [0.3        0.82529142]
 [0.32341667 0.10126548]]",1,0.463
8760830999,f,19,english,5,4,english,2024-02-09 14:29:59.482365,False,1,60,sounds\english\audio/english_66.wav,"[[  0.          16.07147303]
 [  0.1         50.76577123]
 [  0.2        -29.1595681 ]
 [  0.3        -80.89120138]
 [  0.32341667  -8.46229461]]","[[0.         1.75051971]
 [0.1        0.02971233]
 [0.2        0.63583886]
 [0.3        1.46734397]
 [0.32341667 1.61280944]]",0,0.46
8760830999,f,19,english,5,4,english,2024-02-09 14:29:59.482365,False,1,61,sounds\english\audio/english_427.wav,"[[  0.          38.10585738]
 [  0.1         75.26959407]
 [  0.2        -92.48152235]
 [  0.3        -38.24940669]
 [  0.32341667 -41.67637111]]","[[0.         0.62221409]
 [0.1        1.20145201]
 [0.2        0.18894815]
 [0.3        0.36527681]
 [0.32341667 0.02898627]]",0,0.497
8760830999,f,19,english,5,4,english,2024-02-09 14:29:59.482365,False,1,62,sounds\english\audio/english_1000.wav,"[[  0.          27.35321797]
 [  0.1         42.13438871]
 [  0.2         95.34760893]
 [  0.3        -34.10168873]
 [  0.32341667  64.49689477]]","[[0.         1.01803417]
 [0.1        0.4558176 ]
 [0.2        0.52251179]
 [0.3        0.90165507]
 [0.32341667 0.38395199]]",1,0.415
8760830999,f,19,english,5,4,english,2024-02-09 14:29:59.482365,False,1,63,sounds\english\audio/english_420.wav,"[[  0.         -56.31893026]
 [  0.1         66.6522923 ]
 [  0.2          2.15493058]
 [  0.3        -23.51601285]
 [  0.32341667  22.32226467]]","[[0.         0.25307214]
 [0.1        1.93095887]
 [0.2        0.49520396]
 [0.3        1.55970731]
 [0.32341667 0.71957325]]",1,0.461
8760830999,f,19,english,5,4,english,2024-02-09 14:29:59.482365,False,1,64,sounds\english\audio/english_811.wav,"[[  0.         -51.03425556]
 [  0.1         22.81695275]
 [  0.2         73.06623682]
 [  0.3         -9.17693151]
 [  0.32341667  79.97760745]]","[[0.         1.55055496]
 [0.1        1.74830484]
 [0.2        1.24661488]
 [0.3        0.09792889]
 [0.32341667 0.03735929]]",0,0.469
8760830999,f,19,english,5,4,english,2024-02-09 14:29:59.482365,False,1,65,sounds\english\audio/english_304.wav,"[[  0.         -80.7192326 ]
 [  0.1         34.14230443]
 [  0.2        -43.78548789]
 [  0.3         85.79520644]
 [  0.32341667 -29.32737886]]","[[0.         0.54130022]
 [0.1        0.20766845]
 [0.2        1.25157904]
 [0.3        0.76195837]
 [0.32341667 0.20991234]]",1,0.376
8760830999,f,19,english,5,4,english,2024-02-09 14:29:59.482365,False,1,66,sounds\english\audio/english_254.wav,"[[  0.          -9.19838866]
 [  0.1         15.86633291]
 [  0.2        -42.67167238]
 [  0.3        -11.53254556]
 [  0.32341667 -12.27536806]]","[[0.         1.99657173]
 [0.1        1.39044581]
 [0.2        1.09933375]
 [0.3        0.78821302]
 [0.32341667 0.39297423]]",1,0.384
8760830999,f,19,english,5,4,english,2024-02-09 14:29:59.482365,False,1,67,sounds\english\audio/english_480.wav,"[[  0.          -9.10453384]
 [  0.1         72.09708103]
 [  0.2        -73.7181862 ]
 [  0.3         18.73451671]
 [  0.32341667  83.35837597]]","[[0.         0.61491247]
 [0.1        1.35502449]
 [0.2        0.28674933]
 [0.3        0.14653082]
 [0.32341667 1.34653786]]",0,0.338
8760830999,f,19,english,5,4,english,2024-02-09 14:29:59.482365,False,1,68,sounds\english\audio/english_590.wav,"[[  0.         -36.198224  ]
 [  0.1        -81.6019347 ]
 [  0.2         23.00860846]
 [  0.3        -40.72667736]
 [  0.32341667  31.06175796]]","[[0.         1.58650853]
 [0.1        0.24081988]
 [0.2        0.40073912]
 [0.3        0.83686248]
 [0.32341667 1.43958247]]",1,0.724
8760830999,f,19,english,5,4,english,2024-02-09 14:29:59.482365,False,1,69,sounds\english\audio/english_932.wav,"[[  0.          -3.8848098 ]
 [  0.1        -32.48916274]
 [  0.2         81.26251807]
 [  0.3        -18.23478105]
 [  0.32341667   7.90132089]]","[[0.         1.00949787]
 [0.1        1.44703087]
 [0.2        0.10808594]
 [0.3        0.03465182]
 [0.32341667 0.79845554]]",0,0.612
8760830999,f,19,english,5,4,english,2024-02-09 14:29:59.482365,False,1,70,sounds\english\audio/english_292.wav,"[[  0.         -39.45275529]
 [  0.1        -35.03464337]
 [  0.2         31.68370279]
 [  0.3        -53.75991965]
 [  0.32341667  12.49992629]]","[[0.         0.85174507]
 [0.1        0.73996191]
 [0.2        1.42892595]
 [0.3        0.04968332]
 [0.32341667 0.58931553]]",1,0.271
8760830999,f,19,english,5,4,english,2024-02-09 14:29:59.482365,False,1,71,sounds\english\audio/english_424.wav,"[[  0.          -7.44814198]
 [  0.1          9.0703424 ]
 [  0.2        -65.6005214 ]
 [  0.3         79.88163057]
 [  0.32341667  48.78273262]]","[[0.         1.7438251 ]
 [0.1        1.33993463]
 [0.2        0.96535207]
 [0.3        0.39557207]
 [0.32341667 0.47346175]]",1,0.468
8760830999,f,19,english,5,4,english,2024-02-09 14:29:59.482365,False,1,72,sounds\english\audio/english_110.wav,"[[  0.          87.43016285]
 [  0.1        -22.53798338]
 [  0.2         60.38266123]
 [  0.3         50.75224473]
 [  0.32341667  87.78495288]]","[[0.         1.84693198]
 [0.1        0.72868036]
 [0.2        1.6889543 ]
 [0.3        0.97311446]
 [0.32341667 0.46157718]]",1,0.346
8760830999,f,19,english,5,4,english,2024-02-09 14:29:59.482365,False,1,73,sounds\english\audio/english_764.wav,"[[  0.           7.00590276]
 [  0.1        -69.33047837]
 [  0.2        -20.89747671]
 [  0.3        -96.63564891]
 [  0.32341667  78.55111455]]","[[0.         1.84020442]
 [0.1        0.1607256 ]
 [0.2        1.70981587]
 [0.3        1.13854431]
 [0.32341667 1.5536836 ]]",1,0.2
8760830999,f,19,english,5,4,english,2024-02-09 14:29:59.482365,False,1,74,sounds\english\audio/english_51.wav,"[[  0.          88.48054236]
 [  0.1        -53.5534646 ]
 [  0.2        -33.31344908]
 [  0.3         87.0533187 ]
 [  0.32341667 -16.55219825]]","[[0.         0.21487201]
 [0.1        0.90061677]
 [0.2        0.24834744]
 [0.3        1.31052611]
 [0.32341667 0.58644625]]",0,0.357
8760830999,f,19,english,5,4,english,2024-02-09 14:29:59.482365,False,1,75,sounds\english\audio/english_502.wav,"[[  0.         -23.73065935]
 [  0.1          2.70754613]
 [  0.2         25.650451  ]
 [  0.3        -49.55254658]
 [  0.32341667  16.82642172]]","[[0.         0.0797034 ]
 [0.1        1.83600464]
 [0.2        1.48948742]
 [0.3        1.22465236]
 [0.32341667 1.41984075]]",1,0.416
8760830999,f,19,english,5,4,english,2024-02-09 14:29:59.482365,False,1,76,sounds\english\audio/english_383.wav,"[[  0.          -1.49759031]
 [  0.1         48.0809444 ]
 [  0.2        -84.09524499]
 [  0.3         95.23220486]
 [  0.32341667  64.91086902]]","[[0.         0.61403304]
 [0.1        0.69225556]
 [0.2        0.33452268]
 [0.3        1.06792504]
 [0.32341667 0.58483827]]",0,0.542
8760830999,f,19,english,5,4,english,2024-02-09 14:29:59.482365,False,1,77,sounds\english\audio/english_92.wav,"[[  0.          31.88505953]
 [  0.1         -5.62534355]
 [  0.2        -66.19250112]
 [  0.3        -77.62644198]
 [  0.32341667 -66.61656061]]","[[0.         1.50112375]
 [0.1        0.35596674]
 [0.2        1.12270031]
 [0.3        1.09837269]
 [0.32341667 1.16274455]]",1,0.385
8760830999,f,19,english,5,4,english,2024-02-09 14:29:59.482365,False,1,78,sounds\english\audio/english_512.wav,"[[  0.          92.76608442]
 [  0.1        -20.68005196]
 [  0.2        -55.10098951]
 [  0.3         79.8086149 ]
 [  0.32341667 -91.21136492]]","[[0.         1.91273189]
 [0.1        1.02897077]
 [0.2        0.7965214 ]
 [0.3        1.98502062]
 [0.32341667 0.13323305]]",1,0.395
8760830999,f,19,english,5,4,english,2024-02-09 14:29:59.482365,False,1,79,sounds\english\audio/english_990.wav,"[[  0.         -17.98511021]
 [  0.1        -90.3005676 ]
 [  0.2          4.37005684]
 [  0.3         83.93705034]
 [  0.32341667 -36.57803625]]","[[0.         0.6190444 ]
 [0.1        0.77548775]
 [0.2        0.55013224]
 [0.3        0.66784051]
 [0.32341667 0.32384409]]",1,0.414
8760830999,f,19,english,5,4,english,2024-02-09 14:29:59.482365,False,1,80,sounds\english\audio/english_857.wav,"[[  0.         -33.07031843]
 [  0.1         12.9349985 ]
 [  0.2          4.33682254]
 [  0.3         90.68056828]
 [  0.32341667  37.69781409]]","[[0.         1.04325491]
 [0.1        0.44078978]
 [0.2        1.36028147]
 [0.3        1.16905302]
 [0.32341667 1.24618942]]",0,0.23
8760830999,f,19,english,5,4,english,2024-02-09 14:29:59.482365,False,1,81,sounds\english\audio/english_636.wav,"[[  0.         -20.37295141]
 [  0.1        -84.7288786 ]
 [  0.2         24.84265136]
 [  0.3         -9.2443485 ]
 [  0.32341667  49.04875774]]","[[0.         1.69276631]
 [0.1        1.69908726]
 [0.2        1.44836333]
 [0.3        1.36647816]
 [0.32341667 0.88112598]]",1,0.119
8760830999,f,19,english,5,4,english,2024-02-09 14:29:59.482365,False,1,82,sounds\english\audio/english_119.wav,"[[  0.         -72.13623542]
 [  0.1        -47.93500709]
 [  0.2         91.39212861]
 [  0.3         -4.62561099]
 [  0.32341667 -33.86599352]]","[[0.         1.33116293]
 [0.1        0.14257244]
 [0.2        1.10285667]
 [0.3        0.57572872]
 [0.32341667 1.36512269]]",0,0.391
8760830999,f,19,english,5,4,english,2024-02-09 14:29:59.482365,False,1,83,sounds\english\audio/english_252.wav,"[[  0.          79.75601627]
 [  0.1         17.00183399]
 [  0.2        -25.42800597]
 [  0.3        -47.65138194]
 [  0.32341667  35.10652067]]","[[0.         0.77799761]
 [0.1        1.07711339]
 [0.2        0.7917181 ]
 [0.3        1.47632881]
 [0.32341667 1.65919103]]",1,0.197
8760830999,f,19,english,5,4,english,2024-02-09 14:29:59.482365,False,1,84,sounds\english\audio/english_614.wav,"[[  0.          78.57791509]
 [  0.1         -6.15631212]
 [  0.2        -15.34092719]
 [  0.3         21.91351344]
 [  0.32341667 -10.50820757]]","[[0.         1.76663636]
 [0.1        0.7337869 ]
 [0.2        1.62880485]
 [0.3        0.61213133]
 [0.32341667 0.41097232]]",1,0.247
8760830999,f,19,english,5,4,english,2024-02-09 14:29:59.482365,False,1,85,sounds\english\audio/english_31.wav,"[[  0.          21.28810337]
 [  0.1         68.821868  ]
 [  0.2        -73.02143346]
 [  0.3         68.60173581]
 [  0.32341667  51.47999234]]","[[0.         1.2057056 ]
 [0.1        0.99381392]
 [0.2        0.87600828]
 [0.3        1.15844697]
 [0.32341667 1.3722803 ]]",0,0.983
8760830999,f,19,english,5,4,english,2024-02-09 14:29:59.482365,False,1,86,sounds\english\audio/english_189.wav,"[[  0.         -22.70456848]
 [  0.1        -12.00888723]
 [  0.2         15.14046376]
 [  0.3        -19.30106293]
 [  0.32341667 -20.57313834]]","[[0.         0.82906961]
 [0.1        0.58408113]
 [0.2        0.19058783]
 [0.3        0.57788611]
 [0.32341667 0.32577637]]",1,0.353
8760830999,f,19,english,5,4,english,2024-02-09 14:29:59.482365,False,1,87,sounds\english\audio/english_420.wav,"[[  0.         -56.31893026]
 [  0.1         66.6522923 ]
 [  0.2          2.15493058]
 [  0.3        -23.51601285]
 [  0.32341667  22.32226467]]","[[0.         0.25307214]
 [0.1        1.93095887]
 [0.2        0.49520396]
 [0.3        1.55970731]
 [0.32341667 0.71957325]]",0,0.616
8760830999,f,19,english,5,4,english,2024-02-09 14:29:59.482365,False,1,88,sounds\english\audio/english_392.wav,"[[  0.         -12.90562814]
 [  0.1         -1.29416779]
 [  0.2        -53.34155903]
 [  0.3        -48.65153398]
 [  0.32341667 -43.47653164]]","[[0.         1.13144201]
 [0.1        0.98893381]
 [0.2        0.07204825]
 [0.3        1.52779633]
 [0.32341667 1.32355089]]",0,0.442
8760830999,f,19,english,5,4,english,2024-02-09 14:29:59.482365,False,1,89,sounds\english\audio/english_747.wav,"[[  0.         -77.73977436]
 [  0.1        -18.96284798]
 [  0.2        -36.55549612]
 [  0.3         89.20291952]
 [  0.32341667 -97.78574386]]","[[0.         1.00478752]
 [0.1        0.15717617]
 [0.2        1.90654565]
 [0.3        0.7651101 ]
 [0.32341667 0.92755825]]",1,0.312
8760830999,f,19,english,5,4,english,2024-02-09 14:29:59.482365,False,1,90,sounds\english\audio/english_759.wav,"[[  0.          22.56482953]
 [  0.1        -26.57515882]
 [  0.2         58.52096087]
 [  0.3         67.88336338]
 [  0.32341667 -98.7178367 ]]","[[0.         0.32974928]
 [0.1        0.74944663]
 [0.2        0.73148935]
 [0.3        0.69769471]
 [0.32341667 1.46371733]]",0,0.588
8760830999,f,19,english,5,4,english,2024-02-09 14:29:59.482365,False,1,91,sounds\english\audio/english_770.wav,"[[  0.         -33.21947329]
 [  0.1         63.53746239]
 [  0.2        -62.38231874]
 [  0.3         57.5515188 ]
 [  0.32341667 -11.94001254]]","[[0.         1.48551245]
 [0.1        1.21485607]
 [0.2        1.11129762]
 [0.3        1.59702794]
 [0.32341667 1.16110171]]",1,0.466
8760830999,f,19,english,5,4,english,2024-02-09 14:29:59.482365,False,1,92,sounds\english\audio/english_183.wav,"[[  0.         -43.98322413]
 [  0.1        -25.77671075]
 [  0.2         39.5110442 ]
 [  0.3        -32.19697736]
 [  0.32341667  10.88673449]]","[[0.         0.65201846]
 [0.1        1.22292345]
 [0.2        1.45876179]
 [0.3        0.98656907]
 [0.32341667 1.0349791 ]]",1,0.336
8760830999,f,19,english,5,4,english,2024-02-09 14:29:59.482365,False,1,93,sounds\english\audio/english_265.wav,"[[  0.         -30.2287418 ]
 [  0.1         86.62283936]
 [  0.2        -21.47577863]
 [  0.3         84.9300577 ]
 [  0.32341667  59.52250756]]","[[0.         1.31067296]
 [0.1        0.87427745]
 [0.2        1.37620008]
 [0.3        0.45825557]
 [0.32341667 1.13518739]]",0,0.338
8760830999,f,19,english,5,4,english,2024-02-09 14:29:59.482365,False,1,94,sounds\english\audio/english_902.wav,"[[  0.          -4.27617126]
 [  0.1         -5.01127315]
 [  0.2         83.22080084]
 [  0.3         77.56473772]
 [  0.32341667 -13.02741535]]","[[0.         0.16330526]
 [0.1        0.62492789]
 [0.2        1.08638924]
 [0.3        1.61764227]
 [0.32341667 1.72075309]]",1,0.229
8760830999,f,19,english,5,4,english,2024-02-09 14:29:59.482365,False,1,95,sounds\english\audio/english_744.wav,"[[  0.          43.39686976]
 [  0.1        -61.67573043]
 [  0.2          0.51873183]
 [  0.3         12.88130512]
 [  0.32341667  57.31714449]]","[[0.         0.75505854]
 [0.1        1.01311725]
 [0.2        0.73457108]
 [0.3        0.90154102]
 [0.32341667 1.01338509]]",1,0.487
8760830999,f,19,english,5,4,english,2024-02-09 14:29:59.482365,False,1,96,sounds\english\audio/english_734.wav,"[[  0.          23.12527103]
 [  0.1         70.97885261]
 [  0.2        -68.62860591]
 [  0.3        -14.81239301]
 [  0.32341667 -74.40513958]]","[[0.         1.15728247]
 [0.1        1.10975856]
 [0.2        0.41126476]
 [0.3        1.45213782]
 [0.32341667 1.98917216]]",0,0.141
8760830999,f,19,english,5,4,english,2024-02-09 14:29:59.482365,False,1,97,sounds\english\audio/english_637.wav,"[[ 0.         -1.71458324]
 [ 0.1        -8.03758275]
 [ 0.2        -8.49550443]
 [ 0.3        -8.27727969]
 [ 0.32341667 64.42471467]]","[[0.         1.21739028]
 [0.1        0.51882016]
 [0.2        1.63519413]
 [0.3        1.34863813]
 [0.32341667 1.93003029]]",1,0.345
8760830999,f,19,english,5,4,english,2024-02-09 14:29:59.482365,False,1,98,sounds\english\audio/english_898.wav,"[[  0.          77.23607787]
 [  0.1        -36.99854877]
 [  0.2         16.09723403]
 [  0.3         29.12208023]
 [  0.32341667 -69.45423228]]","[[0.         0.41308158]
 [0.1        1.59324842]
 [0.2        1.42339693]
 [0.3        1.17478291]
 [0.32341667 1.88393163]]",0,0.033
8760830999,f,19,english,5,4,english,2024-02-09 14:29:59.482365,False,1,99,sounds\english\audio/english_455.wav,"[[  0.          16.09493262]
 [  0.1         24.58982   ]
 [  0.2        -59.31201859]
 [  0.3         40.79603426]
 [  0.32341667 -39.30035714]]","[[0.         0.21208686]
 [0.1        1.0305564 ]
 [0.2        1.53057992]
 [0.3        0.62599766]
 [0.32341667 1.43054244]]",0,0.415
8760830999,f,19,english,5,4,english,2024-02-09 14:29:59.482365,False,1,100,sounds\english\audio/english_549.wav,"[[  0.          80.71270499]
 [  0.1        -71.31396277]
 [  0.2         48.34518996]
 [  0.3        -66.07502609]
 [  0.32341667 -52.28087662]]","[[0.         0.69011393]
 [0.1        1.1141308 ]
 [0.2        0.72072674]
 [0.3        0.60045359]
 [0.32341667 0.77200176]]",0,0.396
8760830999,f,19,english,5,4,english,2024-02-09 14:29:59.482365,False,1,101,sounds\english\audio/english_825.wav,"[[  0.           9.96211161]
 [  0.1        -28.44120521]
 [  0.2         58.95311712]
 [  0.3        -14.85414305]
 [  0.32341667  85.14956963]]","[[0.         0.17252736]
 [0.1        0.52830291]
 [0.2        0.51646024]
 [0.3        0.70859388]
 [0.32341667 0.64434305]]",1,0.432
8760830999,f,19,english,5,4,english,2024-02-09 14:29:59.482365,False,1,102,sounds\english\audio/english_774.wav,"[[  0.         -13.3479616 ]
 [  0.1        -18.75352159]
 [  0.2        -41.83192829]
 [  0.3         14.77986843]
 [  0.32341667  45.85609187]]","[[0.         1.45409172]
 [0.1        1.07775337]
 [0.2        0.61872946]
 [0.3        1.87871381]
 [0.32341667 1.0399825 ]]",1,0.506
8760830999,f,19,english,5,4,english,2024-02-09 14:29:59.482365,False,1,103,sounds\english\audio/english_800.wav,"[[  0.          -9.91001254]
 [  0.1        -86.79409322]
 [  0.2        -27.39997365]
 [  0.3         13.46737707]
 [  0.32341667 -32.56208711]]","[[0.         0.13142639]
 [0.1        1.71040153]
 [0.2        0.18637657]
 [0.3        1.09766523]
 [0.32341667 1.57940615]]",1,0.442
8760830999,f,19,english,5,4,english,2024-02-09 14:29:59.482365,False,1,104,sounds\english\audio/english_917.wav,"[[  0.          -2.28432431]
 [  0.1        -50.4941454 ]
 [  0.2         86.41176613]
 [  0.3        -50.97734163]
 [  0.32341667  97.13453513]]","[[0.         0.51220006]
 [0.1        0.3783057 ]
 [0.2        0.52629226]
 [0.3        0.68389314]
 [0.32341667 1.73708117]]",1,0.332
8760830999,f,19,english,5,4,english,2024-02-09 14:29:59.482365,False,1,105,sounds\english\audio/english_590.wav,"[[  0.         -36.198224  ]
 [  0.1        -81.6019347 ]
 [  0.2         23.00860846]
 [  0.3        -40.72667736]
 [  0.32341667  31.06175796]]","[[0.         1.58650853]
 [0.1        0.24081988]
 [0.2        0.40073912]
 [0.3        0.83686248]
 [0.32341667 1.43958247]]",0,0.733
8760830999,f,19,english,5,4,english,2024-02-09 14:29:59.482365,False,1,106,sounds\english\audio/english_391.wav,"[[  0.          67.64906061]
 [  0.1         79.28195584]
 [  0.2         62.27299227]
 [  0.3        -11.10764883]
 [  0.32341667  57.41338752]]","[[0.         0.41951577]
 [0.1        0.03526883]
 [0.2        0.81828659]
 [0.3        1.2900604 ]
 [0.32341667 1.95373865]]",1,0.64
8760830999,f,19,english,5,4,english,2024-02-09 14:29:59.482365,False,1,107,sounds\english\audio/english_735.wav,"[[  0.          51.40973306]
 [  0.1         -5.42867159]
 [  0.2         13.71146629]
 [  0.3        -14.17202169]
 [  0.32341667  14.98699592]]","[[0.         0.29099813]
 [0.1        1.62833375]
 [0.2        0.32849247]
 [0.3        0.46991549]
 [0.32341667 0.51625305]]",0,0.911
8760830999,f,19,english,5,4,english,2024-02-09 14:29:59.482365,False,1,108,sounds\english\audio/english_538.wav,"[[  0.           2.36208538]
 [  0.1         77.85923423]
 [  0.2        -89.1271409 ]
 [  0.3        -18.79772534]
 [  0.32341667  87.62276495]]","[[0.         1.54356298]
 [0.1        0.47597082]
 [0.2        1.27977799]
 [0.3        1.05516459]
 [0.32341667 1.20284762]]",1,0.5
8760830999,f,19,english,5,4,english,2024-02-09 14:29:59.482365,False,1,109,sounds\english\audio/english_145.wav,"[[  0.         -29.75830226]
 [  0.1          0.94664025]
 [  0.2        -55.39340023]
 [  0.3        -49.58722608]
 [  0.32341667 -83.35110665]]","[[0.         1.9441914 ]
 [0.1        0.04744273]
 [0.2        1.27144901]
 [0.3        0.20842421]
 [0.32341667 0.85478836]]",1,0.493
8760830999,f,19,english,5,4,english,2024-02-09 14:29:59.482365,False,1,110,sounds\english\audio/english_967.wav,"[[  0.         -33.19777689]
 [  0.1         83.84847924]
 [  0.2         81.27362124]
 [  0.3         22.78466805]
 [  0.32341667  16.56894366]]","[[0.         0.76720641]
 [0.1        1.4094361 ]
 [0.2        0.74435637]
 [0.3        0.29904584]
 [0.32341667 0.47687807]]",0,0.479
8760830999,f,19,english,5,4,english,2024-02-09 14:29:59.482365,False,1,111,sounds\english\audio/english_424.wav,"[[  0.          -7.44814198]
 [  0.1          9.0703424 ]
 [  0.2        -65.6005214 ]
 [  0.3         79.88163057]
 [  0.32341667  48.78273262]]","[[0.         1.7438251 ]
 [0.1        1.33993463]
 [0.2        0.96535207]
 [0.3        0.39557207]
 [0.32341667 0.47346175]]",1,0.149
8760830999,f,19,english,5,4,english,2024-02-09 14:29:59.482365,False,1,112,sounds\english\audio/english_49.wav,"[[  0.          -6.08822071]
 [  0.1        -56.0367764 ]
 [  0.2        -51.95657584]
 [  0.3        -59.93208112]
 [  0.32341667  -7.85847813]]","[[0.         0.36436507]
 [0.1        1.66948988]
 [0.2        1.20554654]
 [0.3        0.31084089]
 [0.32341667 0.44223059]]",1,0.299
8760830999,f,19,english,5,4,english,2024-02-09 14:29:59.482365,False,1,113,sounds\english\audio/english_279.wav,"[[  0.         -20.90398108]
 [  0.1         98.83098338]
 [  0.2        -95.37608427]
 [  0.3        -52.65380993]
 [  0.32341667  47.72500112]]","[[0.         0.60114424]
 [0.1        0.92336304]
 [0.2        1.39045705]
 [0.3        0.64938935]
 [0.32341667 1.57478054]]",1,0.405
8760830999,f,19,english,5,4,english,2024-02-09 14:29:59.482365,False,1,114,sounds\english\audio/english_816.wav,"[[  0.          -5.39935373]
 [  0.1        -58.12348851]
 [  0.2        -97.19740724]
 [  0.3          4.60418864]
 [  0.32341667  57.92285533]]","[[0.         0.27372013]
 [0.1        1.23542608]
 [0.2        1.6956732 ]
 [0.3        0.17466083]
 [0.32341667 0.69657013]]",0,0.446
8760830999,f,19,english,5,4,english,2024-02-09 14:29:59.482365,False,1,115,sounds\english\audio/english_502.wav,"[[  0.         -23.73065935]
 [  0.1          2.70754613]
 [  0.2         25.650451  ]
 [  0.3        -49.55254658]
 [  0.32341667  16.82642172]]","[[0.         0.0797034 ]
 [0.1        1.83600464]
 [0.2        1.48948742]
 [0.3        1.22465236]
 [0.32341667 1.41984075]]",0,0.215
8760830999,f,19,english,5,4,english,2024-02-09 14:29:59.482365,False,1,116,sounds\english\audio/english_468.wav,"[[  0.         -33.82586043]
 [  0.1        -42.55840131]
 [  0.2        -36.6492295 ]
 [  0.3         39.91321296]
 [  0.32341667  54.14936319]]","[[0.         0.35164089]
 [0.1        0.20114733]
 [0.2        1.40729654]
 [0.3        0.04300573]
 [0.32341667 1.79642733]]",1,1.036
8760830999,f,19,english,5,4,english,2024-02-09 14:29:59.482365,False,1,117,sounds\english\audio/english_522.wav,"[[  0.          11.68148217]
 [  0.1        -74.55265788]
 [  0.2         95.15954448]
 [  0.3        -17.14209769]
 [  0.32341667 -35.38302731]]","[[0.         0.44643579]
 [0.1        0.16885459]
 [0.2        1.67161326]
 [0.3        0.53349848]
 [0.32341667 0.4645726 ]]",0,0.452
8760830999,f,19,english,5,4,english,2024-02-09 14:29:59.482365,False,1,118,sounds\english\audio/english_206.wav,"[[  0.          29.86029141]
 [  0.1        -65.49550847]
 [  0.2         -8.37849199]
 [  0.3         16.32170521]
 [  0.32341667 -96.55544023]]","[[0.         0.9413203 ]
 [0.1        1.58501733]
 [0.2        1.84833856]
 [0.3        1.12864021]
 [0.32341667 0.85017735]]",1,0.658
8760830999,f,19,english,5,4,english,2024-02-09 14:29:59.482365,False,1,119,sounds\english\audio/english_725.wav,"[[  0.          26.80600371]
 [  0.1         82.24352357]
 [  0.2         -3.79901328]
 [  0.3         68.54562933]
 [  0.32341667 -39.79698803]]","[[0.         0.25466557]
 [0.1        0.77088778]
 [0.2        0.70697722]
 [0.3        1.24247197]
 [0.32341667 1.34526742]]",0,0.309
8760830999,f,19,english,5,4,english,2024-02-09 14:29:59.482365,False,1,120,sounds\english\audio/english_395.wav,"[[ 0.         12.69072165]
 [ 0.1        16.88915645]
 [ 0.2        49.23789678]
 [ 0.3        39.87613746]
 [ 0.32341667 70.90138048]]","[[0.         1.18485033]
 [0.1        0.64230571]
 [0.2        0.95454364]
 [0.3        0.75997929]
 [0.32341667 1.50770695]]",0,0.618
8760830999,f,19,english,5,4,english,2024-02-09 14:29:59.482365,False,1,121,sounds\english\audio/english_423.wav,"[[  0.          48.83941012]
 [  0.1         26.57948938]
 [  0.2         56.70545245]
 [  0.3        -62.41131033]
 [  0.32341667  78.49803502]]","[[0.         1.35290702]
 [0.1        1.33919202]
 [0.2        1.37149513]
 [0.3        1.11357765]
 [0.32341667 1.20699722]]",0,0.701
8760830999,f,19,english,5,4,english,2024-02-09 14:29:59.482365,False,1,122,sounds\english\audio/english_432.wav,"[[  0.          34.04923955]
 [  0.1        -20.16773507]
 [  0.2         58.06800811]
 [  0.3         46.82268278]
 [  0.32341667  16.04458546]]","[[0.         0.51661687]
 [0.1        0.2259012 ]
 [0.2        1.98214485]
 [0.3        1.23025235]
 [0.32341667 1.72803009]]",1,0.456
8760830999,f,19,english,5,4,english,2024-02-09 14:29:59.482365,False,1,123,sounds\english\audio/english_95.wav,"[[  0.          -9.17523314]
 [  0.1        -95.16832451]
 [  0.2        -21.6130257 ]
 [  0.3          0.51006416]
 [  0.32341667  43.00131518]]","[[0.         0.73915747]
 [0.1        1.01172325]
 [0.2        1.19817679]
 [0.3        1.53285694]
 [0.32341667 1.08383215]]",1,0.235
8760830999,f,19,english,5,4,english,2024-02-09 14:29:59.482365,False,1,124,sounds\english\audio/english_240.wav,"[[  0.         -96.55121617]
 [  0.1         73.99435309]
 [  0.2        -27.17256968]
 [  0.3         -2.05185553]
 [  0.32341667  80.37406519]]","[[0.         1.04823872]
 [0.1        1.11556714]
 [0.2        0.68795106]
 [0.3        1.30325309]
 [0.32341667 0.86977317]]",0,0.19
8760830999,f,19,english,5,4,english,2024-02-09 14:29:59.482365,False,1,125,sounds\english\audio/english_659.wav,"[[  0.         -86.13080632]
 [  0.1         39.51927718]
 [  0.2         -6.22185106]
 [  0.3          5.64287294]
 [  0.32341667  47.08694279]]","[[0.         0.77157019]
 [0.1        1.34569204]
 [0.2        0.71695874]
 [0.3        1.04110125]
 [0.32341667 1.84115141]]",0,0.494
8760830999,f,19,english,5,4,english,2024-02-09 14:29:59.482365,False,1,126,sounds\english\audio/english_396.wav,"[[  0.           2.39126912]
 [  0.1        -38.95035948]
 [  0.2         78.31320688]
 [  0.3         16.98024706]
 [  0.32341667  44.66397079]]","[[0.         1.48231007]
 [0.1        0.85829723]
 [0.2        1.16655306]
 [0.3        0.51680164]
 [0.32341667 1.5133775 ]]",0,0.523
8760830999,f,19,english,5,4,english,2024-02-09 14:29:59.482365,False,1,127,sounds\english\audio/english_224.wav,"[[  0.          -3.31597843]
 [  0.1        -35.19448657]
 [  0.2        -54.62049262]
 [  0.3         50.12510099]
 [  0.32341667  96.66013203]]","[[0.         0.45157501]
 [0.1        1.77513434]
 [0.2        0.36912314]
 [0.3        1.67171916]
 [0.32341667 1.16069525]]",1,0.367
8760830999,f,19,english,5,4,english,2024-02-09 14:29:59.482365,False,1,128,sounds\english\audio/english_821.wav,"[[  0.          -4.04234253]
 [  0.1         50.39518932]
 [  0.2         58.18996785]
 [  0.3        -22.07293427]
 [  0.32341667  56.43229939]]","[[0.         1.62928948]
 [0.1        0.78033958]
 [0.2        1.56476115]
 [0.3        0.56557752]
 [0.32341667 0.93389964]]",0,0.169
8760830999,f,19,english,5,4,english,2024-02-09 14:29:59.482365,False,1,129,sounds\english\audio/english_920.wav,"[[  0.          95.7501832 ]
 [  0.1         -3.19831823]
 [  0.2        -16.96134457]
 [  0.3        -28.81747413]
 [  0.32341667  42.63505928]]","[[0.         1.54313256]
 [0.1        1.33500472]
 [0.2        1.12819963]
 [0.3        1.72147256]
 [0.32341667 0.57593815]]",1,0.23
8760830999,f,19,english,5,4,english,2024-02-09 14:29:59.482365,False,1,130,sounds\english\audio/english_625.wav,"[[  0.          25.70847239]
 [  0.1        -37.82303983]
 [  0.2         38.52328891]
 [  0.3        -23.93667478]
 [  0.32341667 -53.98326942]]","[[0.         1.1960971 ]
 [0.1        0.02795501]
 [0.2        1.10198652]
 [0.3        0.08852642]
 [0.32341667 1.59813041]]",0,0.207
8760830999,f,19,english,5,4,english,2024-02-09 14:29:59.482365,False,1,131,sounds\english\audio/english_741.wav,"[[  0.         -74.62614727]
 [  0.1         33.834367  ]
 [  0.2        -60.21329901]
 [  0.3        -95.39639135]
 [  0.32341667   3.10560698]]","[[0.         1.92216761]
 [0.1        1.50741835]
 [0.2        0.74273648]
 [0.3        0.98175705]
 [0.32341667 0.9878567 ]]",1,0.14
8760830999,f,19,english,5,4,english,2024-02-09 14:29:59.482365,False,1,132,sounds\english\audio/english_381.wav,"[[  0.         -64.83599525]
 [  0.1         97.61236857]
 [  0.2        -60.27157178]
 [  0.3         84.45732791]
 [  0.32341667 -87.53832291]]","[[0.         0.77808766]
 [0.1        1.62635576]
 [0.2        0.65298664]
 [0.3        0.46881793]
 [0.32341667 1.22836965]]",0,0.344
8760830999,f,19,english,5,4,english,2024-02-09 14:29:59.482365,False,1,133,sounds\english\audio/english_863.wav,"[[  0.          52.03013683]
 [  0.1         21.53783975]
 [  0.2        -42.8061331 ]
 [  0.3         -9.69253087]
 [  0.32341667  56.44290307]]","[[0.         1.83111202]
 [0.1        0.9779226 ]
 [0.2        1.19089157]
 [0.3        0.269847  ]
 [0.32341667 0.87913369]]",1,0.339
8760830999,f,19,english,5,4,english,2024-02-09 14:29:59.482365,False,1,134,sounds\english\audio/english_267.wav,"[[  0.         -83.13365237]
 [  0.1         76.30308178]
 [  0.2         53.87961391]
 [  0.3         62.72167491]
 [  0.32341667 -33.79574379]]","[[0.         1.47105267]
 [0.1        0.87521108]
 [0.2        1.04060287]
 [0.3        0.25080793]
 [0.32341667 1.11989054]]",0,0.177
8760830999,f,19,english,5,4,english,2024-02-09 14:29:59.482365,False,1,135,sounds\english\audio/english_449.wav,"[[  0.         -46.54576765]
 [  0.1         20.05422573]
 [  0.2         54.52400621]
 [  0.3         73.66855139]
 [  0.32341667  -1.88675615]]","[[0.         0.60085197]
 [0.1        1.74901032]
 [0.2        1.9506545 ]
 [0.3        1.81044704]
 [0.32341667 0.93562966]]",0,0.476
8760830999,f,19,english,5,4,english,2024-02-09 14:29:59.482365,False,1,136,sounds\english\audio/english_709.wav,"[[  0.         -57.85840644]
 [  0.1         -9.03046344]
 [  0.2        -83.08592789]
 [  0.3        -30.28779026]
 [  0.32341667 -42.69418167]]","[[0.         1.64294201]
 [0.1        1.39808038]
 [0.2        1.46645034]
 [0.3        1.11724372]
 [0.32341667 0.30195694]]",1,0.481
8760830999,f,19,english,5,4,english,2024-02-09 14:29:59.482365,False,1,137,sounds\english\audio/english_934.wav,"[[ 0.         48.23169593]
 [ 0.1        42.81145804]
 [ 0.2        79.06411095]
 [ 0.3        69.44528076]
 [ 0.32341667 88.54940569]]","[[0.         1.38760579]
 [0.1        1.74622613]
 [0.2        0.2874918 ]
 [0.3        1.61606763]
 [0.32341667 1.62058381]]",0,0.186
8760830999,f,19,english,5,4,english,2024-02-09 14:29:59.482365,False,1,138,sounds\english\audio/english_517.wav,"[[  0.          11.23661905]
 [  0.1         58.81241605]
 [  0.2         38.38790279]
 [  0.3        -74.61462092]
 [  0.32341667 -36.69086471]]","[[0.         0.76208972]
 [0.1        0.18193562]
 [0.2        1.85963831]
 [0.3        0.20223028]
 [0.32341667 1.46287498]]",0,0.218
8760830999,f,19,english,5,4,english,2024-02-09 14:29:59.482365,False,1,139,sounds\english\audio/english_314.wav,"[[  0.         -64.95449137]
 [  0.1         41.76232806]
 [  0.2         68.0199099 ]
 [  0.3        -18.86846342]
 [  0.32341667  -2.58545886]]","[[0.         1.33019215]
 [0.1        0.95010379]
 [0.2        0.0418164 ]
 [0.3        0.3847457 ]
 [0.32341667 1.31154336]]",0,1.354
8760830999,f,19,english,5,4,english,2024-02-09 14:29:59.482365,False,1,140,sounds\english\audio/english_792.wav,"[[  0.         -56.39949456]
 [  0.1        -76.36067248]
 [  0.2        -58.44160547]
 [  0.3         25.29086486]
 [  0.32341667  -6.58788169]]","[[0.         1.32676777]
 [0.1        1.08004851]
 [0.2        1.5809308 ]
 [0.3        0.16508433]
 [0.32341667 1.18870574]]",1,0.295
8760830999,f,19,english,5,4,english,2024-02-09 14:29:59.482365,False,1,141,sounds\english\audio/english_711.wav,"[[  0.          40.88671478]
 [  0.1          9.07407961]
 [  0.2        -23.01321115]
 [  0.3        -10.85681813]
 [  0.32341667  87.87195083]]","[[0.         0.99029016]
 [0.1        0.54320223]
 [0.2        1.60107   ]
 [0.3        1.574764  ]
 [0.32341667 1.34863725]]",1,0.23
8760830999,f,19,english,5,4,english,2024-02-09 14:29:59.482365,False,1,142,sounds\english\audio/english_891.wav,"[[  0.          21.29241244]
 [  0.1         -1.23713702]
 [  0.2        -74.86460599]
 [  0.3         18.81587233]
 [  0.32341667  35.3489582 ]]","[[0.         0.7419472 ]
 [0.1        1.09270952]
 [0.2        0.8129571 ]
 [0.3        0.16019775]
 [0.32341667 1.17476401]]",1,0.238
8760830999,f,19,english,5,4,english,2024-02-09 14:29:59.482365,False,1,143,sounds\english\audio/english_791.wav,"[[  0.          65.91759783]
 [  0.1        -36.70731143]
 [  0.2         67.54354156]
 [  0.3          2.89249458]
 [  0.32341667 -55.92630603]]","[[0.         1.00744019]
 [0.1        0.67929445]
 [0.2        0.95779159]
 [0.3        1.93585264]
 [0.32341667 0.7587469 ]]",1,0.152
8760830999,f,19,english,5,4,english,2024-02-09 14:29:59.482365,False,1,144,sounds\english\audio/english_330.wav,"[[ 0.00000000e+00 -6.60623823e+01]
 [ 1.00000000e-01 -9.07862333e+01]
 [ 2.00000000e-01 -8.10713819e-03]
 [ 3.00000000e-01 -6.12450651e+01]
 [ 3.23416667e-01 -3.44586516e-01]]","[[0.         1.84658225]
 [0.1        0.94726644]
 [0.2        1.52006519]
 [0.3        1.63286843]
 [0.32341667 1.74173618]]",1,0.409
8760830999,f,19,english,5,4,english,2024-02-09 14:29:59.482365,False,1,145,sounds\english\audio/english_923.wav,"[[  0.          -0.59122564]
 [  0.1         -5.70499959]
 [  0.2        -29.88927864]
 [  0.3        -82.02126299]
 [  0.32341667  16.89967319]]","[[0.         1.19594648]
 [0.1        1.05419104]
 [0.2        0.73000078]
 [0.3        1.36390543]
 [0.32341667 1.13865732]]",0,0.209
8760830999,f,19,english,5,4,english,2024-02-09 14:29:59.482365,False,1,146,sounds\english\audio/english_193.wav,"[[ 0.         98.63199606]
 [ 0.1        38.06859183]
 [ 0.2        58.19309996]
 [ 0.3        70.68425501]
 [ 0.32341667 89.06926868]]","[[0.         1.10219899]
 [0.1        1.75752318]
 [0.2        1.8701857 ]
 [0.3        1.90449871]
 [0.32341667 1.70479661]]",1,0.211
8760830999,f,19,english,5,4,english,2024-02-09 14:29:59.482365,False,1,147,sounds\english\audio/english_927.wav,"[[  0.          81.66311017]
 [  0.1          0.87570902]
 [  0.2        -59.21619647]
 [  0.3        -57.6787773 ]
 [  0.32341667 -30.87043146]]","[[0.         1.3783001 ]
 [0.1        0.51323502]
 [0.2        0.98265958]
 [0.3        0.30790993]
 [0.32341667 1.17222751]]",0,0.357
8760830999,f,19,english,5,4,english,2024-02-09 14:29:59.482365,False,1,148,sounds\english\audio/english_196.wav,"[[  0.         -86.38202104]
 [  0.1          0.95731439]
 [  0.2        -48.4797064 ]
 [  0.3         50.57477866]
 [  0.32341667 -52.07184875]]","[[0.         1.63362226]
 [0.1        1.36148231]
 [0.2        0.68683683]
 [0.3        1.59869277]
 [0.32341667 0.40963154]]",0,0.455
8760830999,f,19,english,5,4,english,2024-02-09 14:29:59.482365,False,1,149,sounds\english\audio/english_100.wav,"[[  0.         -66.86198445]
 [  0.1         32.23990363]
 [  0.2        -63.31896149]
 [  0.3        -73.00038049]
 [  0.32341667  32.15710315]]","[[0.         0.79522553]
 [0.1        0.27784591]
 [0.2        1.76330212]
 [0.3        0.60946618]
 [0.32341667 0.42695433]]",1,0.787
8760830999,f,19,english,5,4,english,2024-02-09 14:29:59.482365,False,1,150,sounds\english\audio/english_432.wav,"[[  0.          34.04923955]
 [  0.1        -20.16773507]
 [  0.2         58.06800811]
 [  0.3         46.82268278]
 [  0.32341667  16.04458546]]","[[0.         0.51661687]
 [0.1        0.2259012 ]
 [0.2        1.98214485]
 [0.3        1.23025235]
 [0.32341667 1.72803009]]",0,0.503
8760830999,f,19,english,5,4,english,2024-02-09 14:29:59.482365,False,1,151,sounds\english\audio/english_660.wav,"[[  0.         -18.17224728]
 [  0.1        -51.94390165]
 [  0.2        -79.57293034]
 [  0.3         67.99606973]
 [  0.32341667  -2.00416122]]","[[0.         0.25133372]
 [0.1        0.1756709 ]
 [0.2        0.660284  ]
 [0.3        1.08301436]
 [0.32341667 0.81155284]]",1,0.335
8760830999,f,19,english,5,4,english,2024-02-09 14:29:59.482365,False,1,152,sounds\english\audio/english_881.wav,"[[  0.           7.28069095]
 [  0.1        -64.28928902]
 [  0.2         -2.07432692]
 [  0.3         51.5536886 ]
 [  0.32341667  65.74991707]]","[[0.         1.60234882]
 [0.1        0.93497238]
 [0.2        0.58107235]
 [0.3        1.34691236]
 [0.32341667 0.85842561]]",1,0.559
8760830999,f,19,english,5,4,english,2024-02-09 14:29:59.482365,False,1,153,sounds\english\audio/english_990.wav,"[[  0.         -17.98511021]
 [  0.1        -90.3005676 ]
 [  0.2          4.37005684]
 [  0.3         83.93705034]
 [  0.32341667 -36.57803625]]","[[0.         0.6190444 ]
 [0.1        0.77548775]
 [0.2        0.55013224]
 [0.3        0.66784051]
 [0.32341667 0.32384409]]",1,0.73
8760830999,f,19,english,5,4,english,2024-02-09 14:29:59.482365,False,1,154,sounds\english\audio/english_724.wav,"[[  0.         -91.46740291]
 [  0.1         23.01616352]
 [  0.2        -29.32408493]
 [  0.3        -79.49145217]
 [  0.32341667  82.35247912]]","[[0.         0.46376674]
 [0.1        1.84849858]
 [0.2        1.44978715]
 [0.3        1.24719002]
 [0.32341667 0.99570929]]",0,0.603
8760830999,f,19,english,5,4,english,2024-02-09 14:29:59.482365,False,1,155,sounds\english\audio/english_199.wav,"[[  0.         -24.89956817]
 [  0.1        -48.49200931]
 [  0.2        -89.66548778]
 [  0.3         29.20785813]
 [  0.32341667 -88.68286362]]","[[0.         0.07306367]
 [0.1        0.10334581]
 [0.2        1.49062114]
 [0.3        0.36717513]
 [0.32341667 1.33179809]]",0,0.657
8760830999,f,19,english,5,4,english,2024-02-09 14:29:59.482365,False,1,156,sounds\english\audio/english_562.wav,"[[  0.         -40.22672309]
 [  0.1         77.961849  ]
 [  0.2         25.52463525]
 [  0.3         84.62788358]
 [  0.32341667 -53.67427145]]","[[0.         0.64031882]
 [0.1        0.7637006 ]
 [0.2        0.87632482]
 [0.3        0.98972612]
 [0.32341667 0.74010285]]",0,0.355
8760830999,f,19,english,5,4,english,2024-02-09 14:29:59.482365,False,1,157,sounds\english\audio/english_152.wav,"[[  0.         -21.97873044]
 [  0.1         85.66675034]
 [  0.2        -66.57447909]
 [  0.3        -33.8772441 ]
 [  0.32341667 -46.50239179]]","[[0.         1.75752799]
 [0.1        1.21467008]
 [0.2        0.82299352]
 [0.3        0.48869868]
 [0.32341667 0.31705885]]",0,0.506
8760830999,f,19,english,5,4,english,2024-02-09 14:29:59.482365,False,1,158,sounds\english\audio/english_981.wav,"[[  0.         -19.49446297]
 [  0.1        -69.0386812 ]
 [  0.2        -25.77088537]
 [  0.3         65.67633712]
 [  0.32341667  -6.1640169 ]]","[[0.         1.96452006]
 [0.1        1.2006287 ]
 [0.2        0.98600753]
 [0.3        0.21362544]
 [0.32341667 0.33780549]]",1,0.575
8760830999,f,19,english,5,4,english,2024-02-09 14:29:59.482365,False,1,159,sounds\english\audio/english_976.wav,"[[  0.         -92.49082032]
 [  0.1         92.01562452]
 [  0.2        -80.55764576]
 [  0.3        -70.09009567]
 [  0.32341667  -7.5394989 ]]","[[0.         0.30893725]
 [0.1        1.54393752]
 [0.2        1.31466429]
 [0.3        1.88171095]
 [0.32341667 1.71314556]]",1,0.298
8760830999,f,19,english,5,4,english,2024-02-09 14:29:59.482365,False,1,160,sounds\english\audio/english_32.wav,"[[  0.          89.50349963]
 [  0.1         51.51128255]
 [  0.2        -58.32910347]
 [  0.3         15.96172744]
 [  0.32341667  84.40449403]]","[[0.         1.73304916]
 [0.1        0.02192789]
 [0.2        1.71493142]
 [0.3        1.28451373]
 [0.32341667 1.22971166]]",1,0.286
8760830999,f,19,english,5,4,english,2024-02-09 14:29:59.482365,False,1,161,sounds\english\audio/english_175.wav,"[[  0.         -88.83902874]
 [  0.1          8.60564456]
 [  0.2          7.189218  ]
 [  0.3         -2.31675389]
 [  0.32341667 -21.56803319]]","[[0.         0.00773228]
 [0.1        1.6431495 ]
 [0.2        0.24882977]
 [0.3        1.20663028]
 [0.32341667 0.57172188]]",0,1.346
8760830999,f,19,english,5,4,english,2024-02-09 14:29:59.482365,False,1,162,sounds\english\audio/english_591.wav,"[[  0.         -17.23532002]
 [  0.1        -55.20494434]
 [  0.2        -36.65883109]
 [  0.3         75.34514139]
 [  0.32341667  31.2832342 ]]","[[0.         0.16408748]
 [0.1        0.21361432]
 [0.2        0.19384467]
 [0.3        0.82850175]
 [0.32341667 1.471328  ]]",0,0.571
8760830999,f,19,english,5,4,english,2024-02-09 14:29:59.482365,False,1,163,sounds\english\audio/english_40.wav,"[[  0.          20.98315678]
 [  0.1         80.64974175]
 [  0.2          5.38930518]
 [  0.3         18.83593916]
 [  0.32341667 -14.62145671]]","[[0.         0.33544846]
 [0.1        0.81764939]
 [0.2        0.17548883]
 [0.3        0.83674413]
 [0.32341667 0.80890384]]",1,1.038
8760830999,f,19,english,5,4,english,2024-02-09 14:29:59.482365,False,1,164,sounds\english\audio/english_687.wav,"[[  0.          86.90300909]
 [  0.1         79.71843279]
 [  0.2         34.94433723]
 [  0.3        -45.53952821]
 [  0.32341667  63.0204093 ]]","[[0.         0.475784  ]
 [0.1        0.40603367]
 [0.2        0.97706088]
 [0.3        0.65075382]
 [0.32341667 0.93918167]]",1,0.435
8760830999,f,19,english,5,4,english,2024-02-09 14:29:59.482365,False,1,165,sounds\english\audio/english_369.wav,"[[  0.         -12.14177447]
 [  0.1         76.29699147]
 [  0.2        -85.49552365]
 [  0.3        -68.94608988]
 [  0.32341667  40.32615784]]","[[0.         1.64093778]
 [0.1        1.47479283]
 [0.2        1.31757561]
 [0.3        1.92077404]
 [0.32341667 1.4628922 ]]",1,0.333
8760830999,f,19,english,5,4,english,2024-02-09 14:29:59.482365,False,1,166,sounds\english\audio/english_960.wav,"[[  0.          35.80457434]
 [  0.1        -19.98469691]
 [  0.2         -8.88025322]
 [  0.3          6.59365348]
 [  0.32341667  64.0885905 ]]","[[0.         0.79357899]
 [0.1        0.63900775]
 [0.2        1.83966222]
 [0.3        1.05168668]
 [0.32341667 1.66020449]]",1,0.149
8760830999,f,19,english,5,4,english,2024-02-09 14:29:59.482365,False,1,167,sounds\english\audio/english_517.wav,"[[  0.          11.23661905]
 [  0.1         58.81241605]
 [  0.2         38.38790279]
 [  0.3        -74.61462092]
 [  0.32341667 -36.69086471]]","[[0.         0.76208972]
 [0.1        0.18193562]
 [0.2        1.85963831]
 [0.3        0.20223028]
 [0.32341667 1.46287498]]",0,0.564
8760830999,f,19,english,5,4,english,2024-02-09 14:29:59.482365,False,1,168,sounds\english\audio/english_118.wav,"[[  0.         -46.26080879]
 [  0.1        -14.63576669]
 [  0.2         85.04541628]
 [  0.3        -49.31762638]
 [  0.32341667  16.64479416]]","[[0.         0.77156844]
 [0.1        0.55135676]
 [0.2        0.92804695]
 [0.3        1.40435072]
 [0.32341667 1.67291824]]",1,0.398
8760830999,f,19,english,5,4,english,2024-02-09 14:29:59.482365,False,1,169,sounds\english\audio/english_998.wav,"[[  0.         -57.03196796]
 [  0.1        -12.93623633]
 [  0.2        -24.63186366]
 [  0.3        -10.49750637]
 [  0.32341667  22.76793653]]","[[0.         0.0179282 ]
 [0.1        1.72217412]
 [0.2        0.91011795]
 [0.3        1.24282972]
 [0.32341667 0.40520665]]",0,1.157
8760830999,f,19,english,5,4,english,2024-02-09 14:29:59.482365,False,1,170,sounds\english\audio/english_55.wav,"[[  0.          71.89255128]
 [  0.1          0.20692224]
 [  0.2        -68.61006599]
 [  0.3         -5.20952515]
 [  0.32341667  28.45991968]]","[[0.         0.24931264]
 [0.1        1.79813092]
 [0.2        0.71729895]
 [0.3        1.28733782]
 [0.32341667 1.77061752]]",1,0.711
8760830999,f,19,english,5,4,english,2024-02-09 14:29:59.482365,False,1,171,sounds\english\audio/english_393.wav,"[[  0.           3.63201436]
 [  0.1         64.52667935]
 [  0.2        -51.23523019]
 [  0.3        -89.75219839]
 [  0.32341667 -66.06218428]]","[[0.         1.68653621]
 [0.1        0.22518435]
 [0.2        0.07728703]
 [0.3        0.70962284]
 [0.32341667 0.7432397 ]]",1,0.478
8760830999,f,19,english,5,4,english,2024-02-09 14:29:59.482365,False,1,172,sounds\english\audio/english_916.wav,"[[  0.         -50.62314768]
 [  0.1        -52.55300278]
 [  0.2         54.298582  ]
 [  0.3        -23.99088857]
 [  0.32341667   4.88948607]]","[[0.         0.5519299 ]
 [0.1        1.16723516]
 [0.2        1.72376738]
 [0.3        0.41493786]
 [0.32341667 1.97918138]]",0,0.221
8760830999,f,19,english,5,4,english,2024-02-09 14:29:59.482365,False,1,173,sounds\english\audio/english_569.wav,"[[  0.         -44.4695194 ]
 [  0.1         50.36705327]
 [  0.2        -76.17438636]
 [  0.3         55.47083669]
 [  0.32341667 -10.68913609]]","[[0.         1.56768834]
 [0.1        0.42032873]
 [0.2        0.31133764]
 [0.3        0.91900801]
 [0.32341667 1.26529561]]",1,0.337
8760830999,f,19,english,5,4,english,2024-02-09 14:29:59.482365,False,1,174,sounds\english\audio/english_24.wav,"[[ 0.         83.82729659]
 [ 0.1        -2.54724082]
 [ 0.2        88.70909739]
 [ 0.3        48.93770926]
 [ 0.32341667 53.25190048]]","[[0.         0.31203725]
 [0.1        1.56948954]
 [0.2        0.87333864]
 [0.3        0.88535019]
 [0.32341667 0.66112496]]",1,0.392
8760830999,f,19,english,5,4,english,2024-02-09 14:29:59.482365,False,1,175,sounds\english\audio/english_974.wav,"[[  0.          29.63575745]
 [  0.1        -49.63946334]
 [  0.2         87.75163431]
 [  0.3        -62.39844007]
 [  0.32341667 -98.5513891 ]]","[[0.         0.7371821 ]
 [0.1        1.15838362]
 [0.2        1.66312363]
 [0.3        0.85783748]
 [0.32341667 1.53033297]]",0,0.189
8760830999,f,19,english,5,4,english,2024-02-09 14:29:59.482365,False,1,176,sounds\english\audio/english_568.wav,"[[  0.         -80.38325009]
 [  0.1         65.28340143]
 [  0.2         22.57833022]
 [  0.3        -55.44872251]
 [  0.32341667 -94.3142815 ]]","[[0.         1.52383372]
 [0.1        0.37337456]
 [0.2        0.67023469]
 [0.3        1.98652091]
 [0.32341667 1.15861726]]",1,0.301
8760830999,f,19,english,5,4,english,2024-02-09 14:29:59.482365,False,1,177,sounds\english\audio/english_663.wav,"[[  0.          55.84438863]
 [  0.1        -89.02249371]
 [  0.2        -13.61345685]
 [  0.3         14.50375693]
 [  0.32341667  80.63633164]]","[[0.         1.29444713]
 [0.1        0.90215198]
 [0.2        1.61104603]
 [0.3        0.31375715]
 [0.32341667 1.01784406]]",1,0.417
8760830999,f,19,english,5,4,english,2024-02-09 14:29:59.482365,False,1,178,sounds\english\audio/english_340.wav,"[[  0.          42.62794877]
 [  0.1         67.09042835]
 [  0.2        -80.28719593]
 [  0.3        -47.97556268]
 [  0.32341667  32.7013797 ]]","[[0.         1.44385011]
 [0.1        1.29329602]
 [0.2        1.71068781]
 [0.3        0.48872717]
 [0.32341667 1.09000269]]",0,0.397
8760830999,f,19,english,5,4,english,2024-02-09 14:29:59.482365,False,1,179,sounds\english\audio/english_892.wav,"[[ 0.         38.63128374]
 [ 0.1        22.49899687]
 [ 0.2        28.84135264]
 [ 0.3        81.19740532]
 [ 0.32341667 22.37782167]]","[[0.         0.97893944]
 [0.1        0.66551001]
 [0.2        0.36795179]
 [0.3        1.0840826 ]
 [0.32341667 0.83637256]]",0,0.322
8760830999,f,19,english,5,4,english,2024-02-09 14:29:59.482365,False,1,180,sounds\english\audio/english_87.wav,"[[  0.          54.83056612]
 [  0.1         56.31531505]
 [  0.2        -65.55002777]
 [  0.3        -25.15788212]
 [  0.32341667  22.72349562]]","[[0.         1.56132998]
 [0.1        1.28614089]
 [0.2        1.44579989]
 [0.3        0.3607766 ]
 [0.32341667 0.17745198]]",1,0.072
8760830999,f,19,english,5,4,english,2024-02-09 14:29:59.482365,False,1,181,sounds\english\audio/english_371.wav,"[[  0.          44.65928585]
 [  0.1          2.85031152]
 [  0.2        -57.71166213]
 [  0.3        -66.93032782]
 [  0.32341667  13.43806553]]","[[0.         0.25571852]
 [0.1        1.3562861 ]
 [0.2        1.30905236]
 [0.3        1.33160076]
 [0.32341667 0.62192137]]",0,0.156
8760830999,f,19,english,5,4,english,2024-02-09 14:29:59.482365,False,1,182,sounds\english\audio/english_789.wav,"[[  0.          70.69388181]
 [  0.1        -91.45782136]
 [  0.2        -94.67801392]
 [  0.3         83.76501612]
 [  0.32341667  -4.60584958]]","[[0.         1.62690516]
 [0.1        1.02092359]
 [0.2        0.93437639]
 [0.3        1.8239896 ]
 [0.32341667 1.29596798]]",1,0.146
8760830999,f,19,english,5,4,english,2024-02-09 14:29:59.482365,False,1,183,sounds\english\audio/english_666.wav,"[[  0.          -6.63307831]
 [  0.1        -47.66524373]
 [  0.2         66.93817534]
 [  0.3         -1.338646  ]
 [  0.32341667 -14.31927765]]","[[0.         0.44221414]
 [0.1        1.62559692]
 [0.2        0.27313334]
 [0.3        0.46846925]
 [0.32341667 1.08883823]]",0,0.399
8760830999,f,19,english,5,4,english,2024-02-09 14:29:59.482365,False,1,184,sounds\english\audio/english_532.wav,"[[  0.         -19.59321792]
 [  0.1         84.44945775]
 [  0.2         -5.6477907 ]
 [  0.3        -66.11375502]
 [  0.32341667 -46.16722618]]","[[0.         1.69826346]
 [0.1        1.19849103]
 [0.2        0.05164805]
 [0.3        0.74129516]
 [0.32341667 0.11393119]]",1,0.211
8760830999,f,19,english,5,4,english,2024-02-09 14:29:59.482365,False,1,185,sounds\english\audio/english_334.wav,"[[  0.         -67.45724149]
 [  0.1         -9.29085452]
 [  0.2        -52.27794836]
 [  0.3         97.74689659]
 [  0.32341667  69.13668576]]","[[0.         1.41500124]
 [0.1        1.93519658]
 [0.2        1.67457228]
 [0.3        1.80763723]
 [0.32341667 0.68141016]]",1,0.296
8760830999,f,19,english,5,4,english,2024-02-09 14:29:59.482365,False,1,186,sounds\english\audio/english_105.wav,"[[ 0.         15.80659439]
 [ 0.1        42.66899606]
 [ 0.2        70.76731416]
 [ 0.3        70.45261783]
 [ 0.32341667 38.01355443]]","[[0.         1.08535851]
 [0.1        0.24895576]
 [0.2        1.16165898]
 [0.3        1.37248151]
 [0.32341667 0.81952348]]",0,0.223
8760830999,f,19,english,5,4,english,2024-02-09 14:29:59.482365,False,1,187,sounds\english\audio/english_340.wav,"[[  0.          42.62794877]
 [  0.1         67.09042835]
 [  0.2        -80.28719593]
 [  0.3        -47.97556268]
 [  0.32341667  32.7013797 ]]","[[0.         1.44385011]
 [0.1        1.29329602]
 [0.2        1.71068781]
 [0.3        0.48872717]
 [0.32341667 1.09000269]]",0,0.529
8760830999,f,19,english,5,4,english,2024-02-09 14:29:59.482365,False,1,188,sounds\english\audio/english_342.wav,"[[  0.          78.00911228]
 [  0.1        -28.67768894]
 [  0.2         73.55618202]
 [  0.3         93.0509223 ]
 [  0.32341667  -2.74816459]]","[[0.         0.99673345]
 [0.1        1.80563483]
 [0.2        1.38552336]
 [0.3        0.17145116]
 [0.32341667 0.15059009]]",1,0.511
8760830999,f,19,english,5,4,english,2024-02-09 14:29:59.482365,False,1,189,sounds\english\audio/english_707.wav,"[[  0.         -17.04120346]
 [  0.1        -57.44917128]
 [  0.2         90.75848643]
 [  0.3         96.79852424]
 [  0.32341667  27.01716591]]","[[0.         1.06535483]
 [0.1        0.89541794]
 [0.2        1.64838001]
 [0.3        0.75431717]
 [0.32341667 0.48082071]]",1,0.363
8760830999,f,19,english,5,4,english,2024-02-09 14:29:59.482365,False,1,190,sounds\english\audio/english_479.wav,"[[  0.          74.98268857]
 [  0.1         16.03290679]
 [  0.2         78.97784812]
 [  0.3        -15.63843586]
 [  0.32341667  42.04802753]]","[[0.         0.98081986]
 [0.1        0.71187618]
 [0.2        0.27050369]
 [0.3        1.15797271]
 [0.32341667 1.51318639]]",0,0.329
8760830999,f,19,english,5,4,english,2024-02-09 14:29:59.482365,False,1,191,sounds\english\audio/english_915.wav,"[[  0.          40.39704719]
 [  0.1        -77.86782689]
 [  0.2         21.84672988]
 [  0.3        -56.0972156 ]
 [  0.32341667  65.00594456]]","[[0.         0.11203387]
 [0.1        0.449249  ]
 [0.2        0.02407483]
 [0.3        1.6502756 ]
 [0.32341667 0.65362707]]",1,0.395
8760830999,f,19,english,5,4,english,2024-02-09 14:29:59.482365,False,1,192,sounds\english\audio/english_742.wav,"[[  0.          12.62363586]
 [  0.1         23.02085171]
 [  0.2         23.36423086]
 [  0.3         97.70614946]
 [  0.32341667 -25.72861775]]","[[0.         1.26368295]
 [0.1        0.7448394 ]
 [0.2        0.05261082]
 [0.3        1.01748925]
 [0.32341667 0.88645775]]",1,0.236
8760830999,f,19,english,5,4,english,2024-02-09 14:29:59.482365,False,1,193,sounds\english\audio/english_542.wav,"[[  0.         -75.53633957]
 [  0.1        -65.83593262]
 [  0.2        -66.8010443 ]
 [  0.3         89.94318033]
 [  0.32341667 -28.80984484]]","[[0.         0.40538048]
 [0.1        1.98560632]
 [0.2        1.18970355]
 [0.3        1.00543009]
 [0.32341667 1.15995836]]",1,0.503
8760830999,f,19,english,5,4,english,2024-02-09 14:29:59.482365,False,1,194,sounds\english\audio/english_865.wav,"[[  0.          57.45647421]
 [  0.1        -62.30549211]
 [  0.2        -35.85649312]
 [  0.3         55.00701181]
 [  0.32341667 -39.97662747]]","[[0.         1.64387024]
 [0.1        0.05749027]
 [0.2        0.09554773]
 [0.3        1.62598434]
 [0.32341667 0.71232625]]",0,0.289
8760830999,f,19,english,5,4,english,2024-02-09 14:29:59.482365,False,1,195,sounds\english\audio/english_550.wav,"[[  0.          19.46608022]
 [  0.1        -94.3556307 ]
 [  0.2        -80.90695222]
 [  0.3        -65.36230075]
 [  0.32341667 -18.45722395]]","[[0.         0.78600887]
 [0.1        1.03273328]
 [0.2        0.36941932]
 [0.3        0.47038634]
 [0.32341667 0.11798167]]",1,0.278
8760830999,f,19,english,5,4,english,2024-02-09 14:29:59.482365,False,1,196,sounds\english\audio/english_425.wav,"[[ 0.         52.16022051]
 [ 0.1        -4.0342476 ]
 [ 0.2        71.82190917]
 [ 0.3        77.8432037 ]
 [ 0.32341667 29.14791909]]","[[0.         1.95369626]
 [0.1        0.01224448]
 [0.2        1.45838463]
 [0.3        1.1656734 ]
 [0.32341667 1.54078916]]",1,0.227
8760830999,f,19,english,5,4,english,2024-02-09 14:29:59.482365,False,1,197,sounds\english\audio/english_496.wav,"[[  0.         -50.36729616]
 [  0.1         43.15166092]
 [  0.2        -89.08132341]
 [  0.3        -31.93753525]
 [  0.32341667 -79.66514086]]","[[0.         1.24588939]
 [0.1        1.651593  ]
 [0.2        0.94120535]
 [0.3        0.55989053]
 [0.32341667 1.95233748]]",1,0.262
8760830999,f,19,english,5,4,english,2024-02-09 14:29:59.482365,False,1,198,sounds\english\audio/english_106.wav,"[[  0.         -46.25200282]
 [  0.1        -83.38564728]
 [  0.2         68.00501759]
 [  0.3         49.15199267]
 [  0.32341667  -5.93966373]]","[[0.         0.21046793]
 [0.1        1.42142181]
 [0.2        0.86156936]
 [0.3        0.65348811]
 [0.32341667 0.76273979]]",1,0.382
8760830999,f,19,english,5,4,english,2024-02-09 14:29:59.482365,False,1,199,sounds\english\audio/english_106.wav,"[[  0.         -46.25200282]
 [  0.1        -83.38564728]
 [  0.2         68.00501759]
 [  0.3         49.15199267]
 [  0.32341667  -5.93966373]]","[[0.         0.21046793]
 [0.1        1.42142181]
 [0.2        0.86156936]
 [0.3        0.65348811]
 [0.32341667 0.76273979]]",1,0.3
8760830999,f,19,english,5,4,english,2024-02-09 14:29:59.482365,False,1,200,sounds\english\audio/english_780.wav,"[[  0.         -15.29393571]
 [  0.1        -51.86215325]
 [  0.2        -27.43889325]
 [  0.3         37.56841363]
 [  0.32341667 -40.51855496]]","[[0.         0.99089132]
 [0.1        0.3216491 ]
 [0.2        1.38797184]
 [0.3        0.96060741]
 [0.32341667 0.89048449]]",0,0.328
8760830999,f,19,english,5,4,english,2024-02-09 14:29:59.482365,False,1,201,sounds\english\audio/english_567.wav,"[[  0.          26.28994663]
 [  0.1        -84.76959918]
 [  0.2        -17.21635209]
 [  0.3        -93.28005251]
 [  0.32341667  55.01605665]]","[[0.         0.43358591]
 [0.1        0.96759171]
 [0.2        0.27115372]
 [0.3        1.2000135 ]
 [0.32341667 1.11881456]]",1,0.4
8760830999,f,19,english,5,4,english,2024-02-09 14:29:59.482365,False,1,202,sounds\english\audio/english_983.wav,"[[  0.          32.38711768]
 [  0.1        -65.51600844]
 [  0.2         12.03576385]
 [  0.3        -64.14785636]
 [  0.32341667 -72.48499617]]","[[0.         0.79408654]
 [0.1        1.57845546]
 [0.2        1.23356187]
 [0.3        0.65581831]
 [0.32341667 0.27936162]]",1,0.37
8760830999,f,19,english,5,4,english,2024-02-09 14:29:59.482365,False,1,203,sounds\english\audio/english_544.wav,"[[  0.          96.80704334]
 [  0.1         70.5198752 ]
 [  0.2         78.21609099]
 [  0.3        -95.7752672 ]
 [  0.32341667 -56.58918052]]","[[0.         1.85115917]
 [0.1        0.8718407 ]
 [0.2        1.82238935]
 [0.3        0.25719172]
 [0.32341667 0.72929157]]",0,0.481
8760830999,f,19,english,5,4,english,2024-02-09 14:29:59.482365,False,1,204,sounds\english\audio/english_663.wav,"[[  0.          55.84438863]
 [  0.1        -89.02249371]
 [  0.2        -13.61345685]
 [  0.3         14.50375693]
 [  0.32341667  80.63633164]]","[[0.         1.29444713]
 [0.1        0.90215198]
 [0.2        1.61104603]
 [0.3        0.31375715]
 [0.32341667 1.01784406]]",1,0.213
8760830999,f,19,english,5,4,english,2024-02-09 14:29:59.482365,False,1,205,sounds\english\audio/english_213.wav,"[[  0.         -29.91874444]
 [  0.1         41.64704809]
 [  0.2        -87.11075848]
 [  0.3        -61.54877495]
 [  0.32341667 -34.29429643]]","[[0.         1.42031243]
 [0.1        0.59218852]
 [0.2        1.10576613]
 [0.3        0.09529021]
 [0.32341667 1.15583312]]",0,1.731
8760830999,f,19,english,5,4,english,2024-02-09 14:29:59.482365,False,1,206,sounds\english\audio/english_348.wav,"[[  0.          21.35215111]
 [  0.1         14.79849269]
 [  0.2         53.1788992 ]
 [  0.3        -95.85723561]
 [  0.32341667   5.27283499]]","[[0.         0.19799702]
 [0.1        0.60931017]
 [0.2        0.16102666]
 [0.3        1.54818605]
 [0.32341667 0.26552753]]",0,0.997
8760830999,f,19,english,5,4,english,2024-02-09 14:29:59.482365,False,1,207,sounds\english\audio/english_918.wav,"[[  0.         -64.11083249]
 [  0.1         75.84330997]
 [  0.2        -30.10314186]
 [  0.3         91.40385877]
 [  0.32341667 -14.12068895]]","[[0.         1.38668504]
 [0.1        1.4522357 ]
 [0.2        1.37046734]
 [0.3        0.70209545]
 [0.32341667 0.09881605]]",1,0.433
8760830999,f,19,english,5,4,english,2024-02-09 14:29:59.482365,False,1,208,sounds\english\audio/english_907.wav,"[[  0.          13.97638225]
 [  0.1         36.81481791]
 [  0.2          1.21651202]
 [  0.3         35.47405672]
 [  0.32341667 -27.93760057]]","[[0.         0.68575839]
 [0.1        1.58611259]
 [0.2        1.59547025]
 [0.3        0.75888392]
 [0.32341667 0.06937964]]",0,0.135
8760830999,f,19,english,5,4,english,2024-02-09 14:29:59.482365,False,1,209,sounds\english\audio/english_139.wav,"[[  0.          55.35526281]
 [  0.1        -66.48550036]
 [  0.2         21.45340352]
 [  0.3        -32.80413748]
 [  0.32341667 -77.32206638]]","[[0.         1.40478417]
 [0.1        1.12007301]
 [0.2        1.58559909]
 [0.3        1.13081383]
 [0.32341667 0.38560717]]",1,0.349
8760830999,f,19,english,5,4,english,2024-02-09 14:29:59.482365,False,1,210,sounds\english\audio/english_534.wav,"[[  0.         -42.4271338 ]
 [  0.1        -80.6424644 ]
 [  0.2         59.29592388]
 [  0.3         75.02007223]
 [  0.32341667 -57.55026449]]","[[0.         1.1267565 ]
 [0.1        0.6842577 ]
 [0.2        0.01459656]
 [0.3        1.03701198]
 [0.32341667 1.25840342]]",0,0.523
8760830999,f,19,english,5,4,english,2024-02-09 14:29:59.482365,False,1,211,sounds\english\audio/english_244.wav,"[[  0.         -70.20374383]
 [  0.1         67.84882107]
 [  0.2          0.61676271]
 [  0.3        -96.58934439]
 [  0.32341667 -77.46985837]]","[[0.         1.65134166]
 [0.1        1.23738837]
 [0.2        0.90147553]
 [0.3        1.79293216]
 [0.32341667 1.15013727]]",0,2.397
8760830999,f,19,english,5,4,english,2024-02-09 14:29:59.482365,False,1,212,sounds\english\audio/english_72.wav,"[[  0.           3.79788214]
 [  0.1        -35.73428138]
 [  0.2        -30.83181688]
 [  0.3        -68.4260973 ]
 [  0.32341667 -10.87667298]]","[[0.         1.04175162]
 [0.1        0.91099175]
 [0.2        0.34322307]
 [0.3        1.39599539]
 [0.32341667 0.78322702]]",0,0.422
8760830999,f,19,english,5,4,english,2024-02-09 14:29:59.482365,False,1,213,sounds\english\audio/english_578.wav,"[[  0.         -76.90925642]
 [  0.1        -68.48676994]
 [  0.2         36.30884798]
 [  0.3        -36.82491274]
 [  0.32341667  -4.04717442]]","[[0.         1.21901793]
 [0.1        1.4118495 ]
 [0.2        0.05521057]
 [0.3        1.45629656]
 [0.32341667 1.80268091]]",0,0.375
8760830999,f,19,english,5,4,english,2024-02-09 14:29:59.482365,False,1,214,sounds\english\audio/english_805.wav,"[[  0.         -11.97504695]
 [  0.1         96.82911573]
 [  0.2          7.51835152]
 [  0.3          2.47378187]
 [  0.32341667 -43.26336213]]","[[0.         0.06029378]
 [0.1        0.81391401]
 [0.2        1.33531055]
 [0.3        1.7608484 ]
 [0.32341667 1.4289718 ]]",1,0.498
8760830999,f,19,english,5,4,english,2024-02-09 14:29:59.482365,False,1,215,sounds\english\audio/english_786.wav,"[[  0.          50.77560123]
 [  0.1        -87.08435808]
 [  0.2        -36.07136163]
 [  0.3         98.77618087]
 [  0.32341667  86.70070823]]","[[0.         0.9907589 ]
 [0.1        0.48193409]
 [0.2        1.01949061]
 [0.3        1.06334926]
 [0.32341667 0.94164836]]",0,0.369
8760830999,f,19,english,5,4,english,2024-02-09 14:29:59.482365,False,1,216,sounds\english\audio/english_845.wav,"[[  0.         -39.21264236]
 [  0.1         99.78041888]
 [  0.2        -59.29104422]
 [  0.3         57.0409613 ]
 [  0.32341667 -93.6361214 ]]","[[0.         0.82761504]
 [0.1        0.53375751]
 [0.2        1.24236426]
 [0.3        1.27736464]
 [0.32341667 0.79024728]]",1,0.93
8760830999,f,19,english,5,4,english,2024-02-09 14:29:59.482365,False,1,217,sounds\english\audio/english_646.wav,"[[  0.          65.65927644]
 [  0.1        -31.23211399]
 [  0.2         62.59110385]
 [  0.3        -86.43369357]
 [  0.32341667  41.84315348]]","[[0.         1.85038449]
 [0.1        1.10748568]
 [0.2        1.14052106]
 [0.3        1.38971404]
 [0.32341667 0.49971738]]",0,0.206
8760830999,f,19,english,5,4,english,2024-02-09 14:29:59.482365,False,1,218,sounds\english\audio/english_484.wav,"[[  0.          79.97188672]
 [  0.1        -84.58904822]
 [  0.2         70.2960477 ]
 [  0.3        -66.44520929]
 [  0.32341667 -78.91715359]]","[[0.         0.20745104]
 [0.1        1.46214797]
 [0.2        0.40821612]
 [0.3        1.23203415]
 [0.32341667 1.26593617]]",1,0.304
8760830999,f,19,english,5,4,english,2024-02-09 14:29:59.482365,False,1,219,sounds\english\audio/english_646.wav,"[[  0.          65.65927644]
 [  0.1        -31.23211399]
 [  0.2         62.59110385]
 [  0.3        -86.43369357]
 [  0.32341667  41.84315348]]","[[0.         1.85038449]
 [0.1        1.10748568]
 [0.2        1.14052106]
 [0.3        1.38971404]
 [0.32341667 0.49971738]]",1,0.295
8760830999,f,19,english,5,4,english,2024-02-09 14:29:59.482365,False,1,220,sounds\english\audio/english_719.wav,"[[  0.         -32.14306232]
 [  0.1        -81.40439332]
 [  0.2        -20.1172293 ]
 [  0.3         67.63048238]
 [  0.32341667  50.83305788]]","[[0.         1.4431753 ]
 [0.1        0.46175707]
 [0.2        1.86886769]
 [0.3        0.67969247]
 [0.32341667 1.68151983]]",1,0.242
8760830999,f,19,english,5,4,english,2024-02-09 14:29:59.482365,False,1,221,sounds\english\audio/english_119.wav,"[[  0.         -72.13623542]
 [  0.1        -47.93500709]
 [  0.2         91.39212861]
 [  0.3         -4.62561099]
 [  0.32341667 -33.86599352]]","[[0.         1.33116293]
 [0.1        0.14257244]
 [0.2        1.10285667]
 [0.3        0.57572872]
 [0.32341667 1.36512269]]",0,0.501
8760830999,f,19,english,5,4,english,2024-02-09 14:29:59.482365,False,1,222,sounds\english\audio/english_261.wav,"[[  0.         -19.34212076]
 [  0.1        -90.49371254]
 [  0.2         -2.84874079]
 [  0.3         26.59732755]
 [  0.32341667  39.97770901]]","[[0.         1.20182597]
 [0.1        0.701642  ]
 [0.2        0.72931556]
 [0.3        0.86687176]
 [0.32341667 1.42617677]]",0,0.655
8760830999,f,19,english,5,4,english,2024-02-09 14:29:59.482365,False,1,223,sounds\english\audio/english_676.wav,"[[  0.           3.93099148]
 [  0.1         73.76311644]
 [  0.2        -26.92634129]
 [  0.3         51.70874443]
 [  0.32341667 -48.7675791 ]]","[[0.         1.7716209 ]
 [0.1        1.97281878]
 [0.2        1.42487848]
 [0.3        1.45099775]
 [0.32341667 1.84822532]]",1,0.124
8760830999,f,19,english,5,4,english,2024-02-09 14:29:59.482365,False,1,224,sounds\english\audio/english_903.wav,"[[  0.          73.58848698]
 [  0.1        -95.58060262]
 [  0.2         17.41642173]
 [  0.3         94.35223882]
 [  0.32341667 -49.48803877]]","[[0.         0.30588109]
 [0.1        0.88963747]
 [0.2        1.73634476]
 [0.3        0.71257749]
 [0.32341667 1.4824474 ]]",1,0.24
8760830999,f,19,english,5,4,english,2024-02-09 14:29:59.482365,False,1,225,sounds\english\audio/english_96.wav,"[[  0.          -2.60251168]
 [  0.1          3.1808695 ]
 [  0.2        -93.89625608]
 [  0.3         22.03695444]
 [  0.32341667  89.13776591]]","[[0.         1.33849038]
 [0.1        1.03790095]
 [0.2        0.32730996]
 [0.3        1.15118519]
 [0.32341667 1.37996061]]",0,0.521
8760830999,f,19,english,5,4,english,2024-02-09 14:29:59.482365,False,1,226,sounds\english\audio/english_940.wav,"[[  0.          47.11462569]
 [  0.1         11.81885745]
 [  0.2         -1.49931669]
 [  0.3         45.92466934]
 [  0.32341667 -72.78738407]]","[[0.         0.32214594]
 [0.1        0.21999868]
 [0.2        0.34357292]
 [0.3        1.61274527]
 [0.32341667 0.9185628 ]]",1,0.749
8760830999,f,19,english,5,4,english,2024-02-09 14:29:59.482365,False,1,227,sounds\english\audio/english_286.wav,"[[  0.         -94.9495111 ]
 [  0.1        -25.05656786]
 [  0.2         59.61150177]
 [  0.3        -32.97544875]
 [  0.32341667   7.58095242]]","[[0.         0.49849168]
 [0.1        1.27672914]
 [0.2        0.14515846]
 [0.3        1.67164973]
 [0.32341667 0.86492177]]",0,0.858
8760830999,f,19,english,5,4,english,2024-02-09 14:29:59.482365,False,1,228,sounds\english\audio/english_639.wav,"[[  0.          -8.64176861]
 [  0.1         -2.28240571]
 [  0.2         61.07673865]
 [  0.3        -20.33592136]
 [  0.32341667 -24.05835486]]","[[0.         1.80061108]
 [0.1        0.32075858]
 [0.2        0.35362442]
 [0.3        1.48415136]
 [0.32341667 0.14560931]]",1,0.435
8760830999,f,19,english,5,4,english,2024-02-09 14:29:59.482365,False,1,229,sounds\english\audio/english_462.wav,"[[  0.         -35.73318704]
 [  0.1         -5.65949109]
 [  0.2        -49.47542688]
 [  0.3        -98.18570674]
 [  0.32341667 -16.34927785]]","[[0.         1.53267708]
 [0.1        1.98369384]
 [0.2        1.31270994]
 [0.3        1.26289606]
 [0.32341667 1.36496903]]",1,0.28
8760830999,f,19,english,5,4,english,2024-02-09 14:29:59.482365,False,1,230,sounds\english\audio/english_774.wav,"[[  0.         -13.3479616 ]
 [  0.1        -18.75352159]
 [  0.2        -41.83192829]
 [  0.3         14.77986843]
 [  0.32341667  45.85609187]]","[[0.         1.45409172]
 [0.1        1.07775337]
 [0.2        0.61872946]
 [0.3        1.87871381]
 [0.32341667 1.0399825 ]]",1,0.354
8760830999,f,19,english,5,4,english,2024-02-09 14:29:59.482365,False,1,231,sounds\english\audio/english_372.wav,"[[  0.         -10.50721777]
 [  0.1         60.4890014 ]
 [  0.2         35.20626745]
 [  0.3        -86.52802988]
 [  0.32341667  85.69336351]]","[[0.         1.53321121]
 [0.1        1.14830486]
 [0.2        1.01416029]
 [0.3        1.14285759]
 [0.32341667 1.69996326]]",0,0.111
8760830999,f,19,english,5,4,english,2024-02-09 14:29:59.482365,False,1,232,sounds\english\audio/english_1.wav,"[[  0.          53.99031816]
 [  0.1        -58.32145174]
 [  0.2        -86.75659624]
 [  0.3        -31.84945767]
 [  0.32341667 -59.21997754]]","[[0.         1.91732561]
 [0.1        0.75352701]
 [0.2        1.40297919]
 [0.3        0.12157709]
 [0.32341667 1.57687546]]",1,0.226
8760830999,f,19,english,5,4,english,2024-02-09 14:29:59.482365,False,1,233,sounds\english\audio/english_369.wav,"[[  0.         -12.14177447]
 [  0.1         76.29699147]
 [  0.2        -85.49552365]
 [  0.3        -68.94608988]
 [  0.32341667  40.32615784]]","[[0.         1.64093778]
 [0.1        1.47479283]
 [0.2        1.31757561]
 [0.3        1.92077404]
 [0.32341667 1.4628922 ]]",1,0.498
8760830999,f,19,english,5,4,english,2024-02-09 14:29:59.482365,False,1,234,sounds\english\audio/english_678.wav,"[[  0.          87.86222938]
 [  0.1        -47.14792626]
 [  0.2         -6.84659798]
 [  0.3         87.67045201]
 [  0.32341667 -51.71213936]]","[[0.         1.6760541 ]
 [0.1        0.22369522]
 [0.2        1.1260271 ]
 [0.3        1.53941447]
 [0.32341667 1.37136581]]",0,0.452
8760830999,f,19,english,5,4,english,2024-02-09 14:29:59.482365,False,1,235,sounds\english\audio/english_300.wav,"[[  0.         -57.32903368]
 [  0.1        -14.80176218]
 [  0.2         17.32090115]
 [  0.3          9.38584248]
 [  0.32341667 -54.58865419]]","[[0.         1.31106943]
 [0.1        1.36432179]
 [0.2        1.9756976 ]
 [0.3        1.38621255]
 [0.32341667 1.60203422]]",1,0.188
8760830999,f,19,english,5,4,english,2024-02-09 14:29:59.482365,False,1,236,sounds\english\audio/english_961.wav,"[[  0.          20.81275789]
 [  0.1         46.48072234]
 [  0.2         79.36291712]
 [  0.3          7.86976501]
 [  0.32341667 -45.45751668]]","[[0.         1.87720953]
 [0.1        1.43497285]
 [0.2        1.9095844 ]
 [0.3        0.20821065]
 [0.32341667 0.0640973 ]]",1,1.394
8760830999,f,19,english,5,4,english,2024-02-09 14:29:59.482365,False,1,237,sounds\english\audio/english_128.wav,"[[  0.         -84.07301703]
 [  0.1          0.2051398 ]
 [  0.2         50.77588291]
 [  0.3          3.27834455]
 [  0.32341667  59.5943459 ]]","[[0.         0.96445051]
 [0.1        0.77165422]
 [0.2        0.60279997]
 [0.3        0.59915485]
 [0.32341667 0.43521132]]",0,0.475
8760830999,f,19,english,5,4,english,2024-02-09 14:29:59.482365,False,1,238,sounds\english\audio/english_857.wav,"[[  0.         -33.07031843]
 [  0.1         12.9349985 ]
 [  0.2          4.33682254]
 [  0.3         90.68056828]
 [  0.32341667  37.69781409]]","[[0.         1.04325491]
 [0.1        0.44078978]
 [0.2        1.36028147]
 [0.3        1.16905302]
 [0.32341667 1.24618942]]",0,0.389
8760830999,f,19,english,5,4,english,2024-02-09 14:29:59.482365,False,1,239,sounds\english\audio/english_655.wav,"[[  0.          84.9811401 ]
 [  0.1         70.1996811 ]
 [  0.2         -5.60681941]
 [  0.3        -33.00324328]
 [  0.32341667  24.65490624]]","[[0.         1.09123398]
 [0.1        0.51840547]
 [0.2        0.58569322]
 [0.3        1.11132849]
 [0.32341667 0.28465301]]",0,0.893
8760830999,f,19,english,5,4,english,2024-02-09 14:29:59.482365,False,1,240,sounds\english\audio/english_949.wav,"[[  0.          48.32946721]
 [  0.1         73.83586198]
 [  0.2        -30.27812065]
 [  0.3        -32.50397555]
 [  0.32341667  96.46984971]]","[[0.         1.50413289]
 [0.1        1.55745414]
 [0.2        1.00772566]
 [0.3        0.86702054]
 [0.32341667 1.67836019]]",1,0.353
8760830999,f,19,english,5,4,english,2024-02-09 14:29:59.482365,False,1,241,sounds\english\audio/english_427.wav,"[[  0.          38.10585738]
 [  0.1         75.26959407]
 [  0.2        -92.48152235]
 [  0.3        -38.24940669]
 [  0.32341667 -41.67637111]]","[[0.         0.62221409]
 [0.1        1.20145201]
 [0.2        0.18894815]
 [0.3        0.36527681]
 [0.32341667 0.02898627]]",0,0.77
8760830999,f,19,english,5,4,english,2024-02-09 14:29:59.482365,False,1,242,sounds\english\audio/english_379.wav,"[[  0.          30.14616912]
 [  0.1        -79.51193423]
 [  0.2          7.34860539]
 [  0.3        -43.99342265]
 [  0.32341667  37.72881761]]","[[0.         1.43961489]
 [0.1        1.4219763 ]
 [0.2        0.62633101]
 [0.3        1.13621958]
 [0.32341667 1.35387794]]",1,0.365
8760830999,f,19,english,5,4,english,2024-02-09 14:29:59.482365,False,1,243,sounds\english\audio/english_468.wav,"[[  0.         -33.82586043]
 [  0.1        -42.55840131]
 [  0.2        -36.6492295 ]
 [  0.3         39.91321296]
 [  0.32341667  54.14936319]]","[[0.         0.35164089]
 [0.1        0.20114733]
 [0.2        1.40729654]
 [0.3        0.04300573]
 [0.32341667 1.79642733]]",1,0.684
8760830999,f,19,english,5,4,english,2024-02-09 14:29:59.482365,False,1,244,sounds\english\audio/english_455.wav,"[[  0.          16.09493262]
 [  0.1         24.58982   ]
 [  0.2        -59.31201859]
 [  0.3         40.79603426]
 [  0.32341667 -39.30035714]]","[[0.         0.21208686]
 [0.1        1.0305564 ]
 [0.2        1.53057992]
 [0.3        0.62599766]
 [0.32341667 1.43054244]]",0,0.463
8760830999,f,19,english,5,4,english,2024-02-09 14:29:59.482365,False,1,245,sounds\english\audio/english_447.wav,"[[  0.          38.77193801]
 [  0.1         -3.53992528]
 [  0.2         54.1888363 ]
 [  0.3        -95.90180003]
 [  0.32341667  48.32118178]]","[[0.         0.52212734]
 [0.1        0.58948567]
 [0.2        0.60662966]
 [0.3        0.73195254]
 [0.32341667 0.21856551]]",1,0.458
8760830999,f,19,english,5,4,english,2024-02-09 14:29:59.482365,False,1,246,sounds\english\audio/english_597.wav,"[[  0.         -83.66792118]
 [  0.1        -19.98744657]
 [  0.2        -30.38458549]
 [  0.3        -63.4406446 ]
 [  0.32341667  25.67812426]]","[[0.         0.17389721]
 [0.1        0.39349672]
 [0.2        1.97590818]
 [0.3        1.84988074]
 [0.32341667 1.17620678]]",1,1.254
8760830999,f,19,english,5,4,english,2024-02-09 14:29:59.482365,False,1,247,sounds\english\audio/english_602.wav,"[[  0.         -53.18857274]
 [  0.1        -52.96167371]
 [  0.2         38.20784676]
 [  0.3         46.0178344 ]
 [  0.32341667  78.11630752]]","[[0.         1.95117352]
 [0.1        1.1427253 ]
 [0.2        1.10694813]
 [0.3        0.8717932 ]
 [0.32341667 0.71626065]]",0,0.511
8760830999,f,19,english,5,4,english,2024-02-09 14:29:59.482365,False,1,248,sounds\english\audio/english_620.wav,"[[ 0.00000000e+00 -9.29203055e+01]
 [ 1.00000000e-01  2.67086056e+01]
 [ 2.00000000e-01  8.91883135e+01]
 [ 3.00000000e-01 -5.57738795e-02]
 [ 3.23416667e-01  2.97872430e+00]]","[[0.         0.43561856]
 [0.1        0.24535421]
 [0.2        1.34102831]
 [0.3        1.80103954]
 [0.32341667 0.21248525]]",1,0.322
8760830999,f,19,english,5,4,english,2024-02-09 14:29:59.482365,False,1,249,sounds\english\audio/english_673.wav,"[[  0.         -57.74220233]
 [  0.1         51.69168463]
 [  0.2         32.71998218]
 [  0.3          1.53841214]
 [  0.32341667 -95.68622946]]","[[0.         1.16794182]
 [0.1        0.24005868]
 [0.2        1.1491536 ]
 [0.3        1.59180477]
 [0.32341667 1.00634228]]",1,0.23
8760830999,f,19,english,5,4,english,2024-02-09 14:29:59.482365,False,1,250,sounds\english\audio/english_238.wav,"[[  0.          87.78466979]
 [  0.1         65.39287108]
 [  0.2        -38.39100082]
 [  0.3        -20.01297649]
 [  0.32341667  78.31880556]]","[[0.         1.0750983 ]
 [0.1        0.03626896]
 [0.2        1.9832234 ]
 [0.3        0.17604691]
 [0.32341667 1.61383808]]",0,0.19
8760830999,f,19,english,5,4,english,2024-02-09 14:29:59.482365,False,1,251,sounds\english\audio/english_199.wav,"[[  0.         -24.89956817]
 [  0.1        -48.49200931]
 [  0.2        -89.66548778]
 [  0.3         29.20785813]
 [  0.32341667 -88.68286362]]","[[0.         0.07306367]
 [0.1        0.10334581]
 [0.2        1.49062114]
 [0.3        0.36717513]
 [0.32341667 1.33179809]]",0,0.664
8760830999,f,19,english,5,4,english,2024-02-09 14:29:59.482365,False,1,252,sounds\english\audio/english_847.wav,"[[  0.          76.45550118]
 [  0.1        -18.38123868]
 [  0.2         18.403778  ]
 [  0.3         57.196546  ]
 [  0.32341667  32.99763753]]","[[0.         0.38890762]
 [0.1        1.01718805]
