subj,sex,age,language,english,french,native_lang,date,practice,block,trial,stim,pitch,stretch,response,rt
8732112179,m,20,english,5,4,english,2024-01-30 13:04:55.138711,True,0,0,sounds\english\audio/english_56.wav,"[[  0.          47.39262259]
 [  0.1          8.89686315]
 [  0.2        -49.65570225]
 [  0.3         44.77904805]
 [  0.32341667 -94.65832844]]","[[0.         1.7837475 ]
 [0.1        1.39740624]
 [0.2        0.11209095]
 [0.3        1.4946119 ]
 [0.32341667 1.03498606]]",1,2.362
8732112179,m,20,english,5,4,english,2024-01-30 13:04:55.138711,True,0,1,sounds\english\audio/english_173.wav,"[[  0.          11.1251521 ]
 [  0.1         94.22411188]
 [  0.2         89.44753043]
 [  0.3         74.30769895]
 [  0.32341667 -37.47679669]]","[[0.         0.60172576]
 [0.1        0.44802145]
 [0.2        1.27552997]
 [0.3        1.09756939]
 [0.32341667 0.7907315 ]]",0,6.239
8732112179,m,20,english,5,4,english,2024-01-30 13:04:55.138711,True,0,2,sounds\english\audio/english_462.wav,"[[  0.         -35.73318704]
 [  0.1         -5.65949109]
 [  0.2        -49.47542688]
 [  0.3        -98.18570674]
 [  0.32341667 -16.34927785]]","[[0.         1.53267708]
 [0.1        1.98369384]
 [0.2        1.31270994]
 [0.3        1.26289606]
 [0.32341667 1.36496903]]",1,3.323
8732112179,m,20,english,5,4,english,2024-01-30 13:04:55.138711,False,1,3,sounds\english\audio/english_781.wav,"[[  0.          22.64916165]
 [  0.1          6.89582518]
 [  0.2        -79.07711894]
 [  0.3         66.534152  ]
 [  0.32341667  93.30494506]]","[[0.         0.31928057]
 [0.1        1.4040275 ]
 [0.2        0.86558079]
 [0.3        0.14510309]
 [0.32341667 0.79620595]]",1,1.33
8732112179,m,20,english,5,4,english,2024-01-30 13:04:55.138711,False,1,4,sounds\english\audio/english_852.wav,"[[  0.         -59.21906832]
 [  0.1          5.96662808]
 [  0.2         12.29830648]
 [  0.3        -98.20735767]
 [  0.32341667  -0.5186354 ]]","[[0.         1.76087743]
 [0.1        0.85304022]
 [0.2        0.5029047 ]
 [0.3        0.66544939]
 [0.32341667 0.26669214]]",1,2.119
8732112179,m,20,english,5,4,english,2024-01-30 13:04:55.138711,False,1,5,sounds\english\audio/english_234.wav,"[[  0.         -96.19421376]
 [  0.1         96.13097212]
 [  0.2        -68.61115628]
 [  0.3         58.3624958 ]
 [  0.32341667  60.51337125]]","[[0.         0.0948498 ]
 [0.1        1.36649532]
 [0.2        0.00312314]
 [0.3        0.01269103]
 [0.32341667 1.76377265]]",1,2.157
8732112179,m,20,english,5,4,english,2024-01-30 13:04:55.138711,False,1,6,sounds\english\audio/english_719.wav,"[[  0.         -32.14306232]
 [  0.1        -81.40439332]
 [  0.2        -20.1172293 ]
 [  0.3         67.63048238]
 [  0.32341667  50.83305788]]","[[0.         1.4431753 ]
 [0.1        0.46175707]
 [0.2        1.86886769]
 [0.3        0.67969247]
 [0.32341667 1.68151983]]",1,1.131
8732112179,m,20,english,5,4,english,2024-01-30 13:04:55.138711,False,1,7,sounds\english\audio/english_657.wav,"[[ 0.         30.03208284]
 [ 0.1        -5.57127058]
 [ 0.2         9.55793083]
 [ 0.3         3.39766504]
 [ 0.32341667 84.38659916]]","[[0.         1.42095662]
 [0.1        1.29790323]
 [0.2        0.51612643]
 [0.3        0.37671101]
 [0.32341667 1.20124021]]",1,1.147
8732112179,m,20,english,5,4,english,2024-01-30 13:04:55.138711,False,1,8,sounds\english\audio/english_5.wav,"[[  0.         -15.92383461]
 [  0.1        -20.01914587]
 [  0.2         40.70457056]
 [  0.3        -94.67131236]
 [  0.32341667 -88.33027294]]","[[0.         0.27445408]
 [0.1        0.54328549]
 [0.2        0.32172142]
 [0.3        1.15903644]
 [0.32341667 0.94870148]]",1,2.102
8732112179,m,20,english,5,4,english,2024-01-30 13:04:55.138711,False,1,9,sounds\english\audio/english_147.wav,"[[  0.         -14.37625717]
 [  0.1        -48.99147792]
 [  0.2        -76.025031  ]
 [  0.3         -4.271985  ]
 [  0.32341667  90.36670579]]","[[0.         1.08714974]
 [0.1        1.05600262]
 [0.2        0.62193731]
 [0.3        1.23272935]
 [0.32341667 0.90867663]]",1,1.054
8732112179,m,20,english,5,4,english,2024-01-30 13:04:55.138711,False,1,10,sounds\english\audio/english_416.wav,"[[  0.          26.92040942]
 [  0.1         32.98463782]
 [  0.2         94.30298269]
 [  0.3         71.4008894 ]
 [  0.32341667 -13.61584313]]","[[0.         0.66708871]
 [0.1        0.46140785]
 [0.2        0.4311344 ]
 [0.3        0.4522554 ]
 [0.32341667 0.23817019]]",1,1.565
8732112179,m,20,english,5,4,english,2024-01-30 13:04:55.138711,False,1,11,sounds\english\audio/english_186.wav,"[[  0.         -54.7664391 ]
 [  0.1         -8.4263529 ]
 [  0.2          6.22451559]
 [  0.3        -12.35671223]
 [  0.32341667  86.21839615]]","[[0.         1.87021502]
 [0.1        1.36390049]
 [0.2        1.69942617]
 [0.3        1.8066537 ]
 [0.32341667 1.2511354 ]]",1,0.658
8732112179,m,20,english,5,4,english,2024-01-30 13:04:55.138711,False,1,12,sounds\english\audio/english_188.wav,"[[  0.         -13.13088252]
 [  0.1         51.13663316]
 [  0.2        -80.18048506]
 [  0.3        -47.89773773]
 [  0.32341667  -7.0568118 ]]","[[0.         0.29227292]
 [0.1        1.25360943]
 [0.2        1.7916357 ]
 [0.3        0.58346705]
 [0.32341667 1.77612328]]",1,3.062
8732112179,m,20,english,5,4,english,2024-01-30 13:04:55.138711,False,1,13,sounds\english\audio/english_120.wav,"[[  0.          55.2306484 ]
 [  0.1         82.00530973]
 [  0.2         -5.84837635]
 [  0.3         66.20489525]
 [  0.32341667 -73.22302923]]","[[0.         0.43658612]
 [0.1        0.03999251]
 [0.2        0.80827096]
 [0.3        1.78669421]
 [0.32341667 1.04341795]]",1,1.7
8732112179,m,20,english,5,4,english,2024-01-30 13:04:55.138711,False,1,14,sounds\english\audio/english_952.wav,"[[  0.          64.91746033]
 [  0.1        -25.84234774]
 [  0.2         60.30097417]
 [  0.3        -98.0606555 ]
 [  0.32341667 -77.98984902]]","[[0.         1.00586425]
 [0.1        1.28790365]
 [0.2        1.6668124 ]
 [0.3        1.44616756]
 [0.32341667 0.15831209]]",1,1.6
8732112179,m,20,english,5,4,english,2024-01-30 13:04:55.138711,False,1,15,sounds\english\audio/english_451.wav,"[[  0.         -87.31297583]
 [  0.1        -44.51362963]
 [  0.2        -15.52945473]
 [  0.3         11.70886435]
 [  0.32341667  82.84342256]]","[[0.         0.44823779]
 [0.1        0.44678563]
 [0.2        1.69444841]
 [0.3        0.18586344]
 [0.32341667 0.9677256 ]]",1,1.767
8732112179,m,20,english,5,4,english,2024-01-30 13:04:55.138711,False,1,16,sounds\english\audio/english_480.wav,"[[  0.          -9.10453384]
 [  0.1         72.09708103]
 [  0.2        -73.7181862 ]
 [  0.3         18.73451671]
 [  0.32341667  83.35837597]]","[[0.         0.61491247]
 [0.1        1.35502449]
 [0.2        0.28674933]
 [0.3        0.14653082]
 [0.32341667 1.34653786]]",1,1.659
8732112179,m,20,english,5,4,english,2024-01-30 13:04:55.138711,False,1,17,sounds\english\audio/english_541.wav,"[[  0.         -20.13323906]
 [  0.1          2.48768759]
 [  0.2        -86.20966861]
 [  0.3         59.01445297]
 [  0.32341667  61.23853539]]","[[0.         0.51383156]
 [0.1        0.65082056]
 [0.2        0.48716137]
 [0.3        0.54905673]
 [0.32341667 1.76268899]]",1,1.102
8732112179,m,20,english,5,4,english,2024-01-30 13:04:55.138711,False,1,18,sounds\english\audio/english_503.wav,"[[  0.         -62.81458057]
 [  0.1         17.97702429]
 [  0.2         -8.2980926 ]
 [  0.3        -62.4217389 ]
 [  0.32341667  18.11027086]]","[[0.         1.15988152]
 [0.1        0.58853345]
 [0.2        1.29983279]
 [0.3        1.42406205]
 [0.32341667 0.84018378]]",1,1.753
8732112179,m,20,english,5,4,english,2024-01-30 13:04:55.138711,False,1,19,sounds\english\audio/english_288.wav,"[[  0.          35.15100251]
 [  0.1         49.55485069]
 [  0.2         28.604189  ]
 [  0.3         38.59633835]
 [  0.32341667 -98.9026904 ]]","[[0.         1.01330681]
 [0.1        0.90213232]
 [0.2        1.8181607 ]
 [0.3        1.82579698]
 [0.32341667 0.14571105]]",1,0.661
8732112179,m,20,english,5,4,english,2024-01-30 13:04:55.138711,False,1,20,sounds\english\audio/english_737.wav,"[[  0.          21.35751723]
 [  0.1         61.52152077]
 [  0.2        -29.75610596]
 [  0.3        -39.80249708]
 [  0.32341667 -14.64937497]]","[[0.         1.17499048]
 [0.1        1.09581395]
 [0.2        0.62940412]
 [0.3        0.11793022]
 [0.32341667 0.62377861]]",1,1.07
8732112179,m,20,english,5,4,english,2024-01-30 13:04:55.138711,False,1,21,sounds\english\audio/english_871.wav,"[[  0.          84.63625516]
 [  0.1        -19.11058767]
 [  0.2         49.1497137 ]
 [  0.3        -83.07816512]
 [  0.32341667  11.22002909]]","[[0.         0.21643415]
 [0.1        1.23538017]
 [0.2        1.26375285]
 [0.3        0.03257235]
 [0.32341667 1.90703832]]",1,1.231
8732112179,m,20,english,5,4,english,2024-01-30 13:04:55.138711,False,1,22,sounds\english\audio/english_817.wav,"[[  0.          58.06319333]
 [  0.1          0.91206114]
 [  0.2        -27.80824757]
 [  0.3        -73.7491051 ]
 [  0.32341667  69.75698508]]","[[0.         0.77394069]
 [0.1        0.81778066]
 [0.2        1.48752315]
 [0.3        0.41888886]
 [0.32341667 0.93012443]]",1,1.044
8732112179,m,20,english,5,4,english,2024-01-30 13:04:55.138711,False,1,23,sounds\english\audio/english_62.wav,"[[  0.          17.28527913]
 [  0.1          8.63936001]
 [  0.2        -69.0074729 ]
 [  0.3        -18.85502465]
 [  0.32341667  59.46739627]]","[[0.         1.12530616]
 [0.1        1.09357984]
 [0.2        1.07648496]
 [0.3        0.36768209]
 [0.32341667 0.39033463]]",1,0.715
8732112179,m,20,english,5,4,english,2024-01-30 13:04:55.138711,False,1,24,sounds\english\audio/english_343.wav,"[[  0.         -26.15456552]
 [  0.1         -4.26522308]
 [  0.2         55.3227334 ]
 [  0.3        -26.26518208]
 [  0.32341667 -18.3065251 ]]","[[0.         0.99905336]
 [0.1        0.59066439]
 [0.2        1.69088488]
 [0.3        1.70645599]
 [0.32341667 0.13143106]]",1,0.982
8732112179,m,20,english,5,4,english,2024-01-30 13:04:55.138711,False,1,25,sounds\english\audio/english_62.wav,"[[  0.          17.28527913]
 [  0.1          8.63936001]
 [  0.2        -69.0074729 ]
 [  0.3        -18.85502465]
 [  0.32341667  59.46739627]]","[[0.         1.12530616]
 [0.1        1.09357984]
 [0.2        1.07648496]
 [0.3        0.36768209]
 [0.32341667 0.39033463]]",1,1.213
8732112179,m,20,english,5,4,english,2024-01-30 13:04:55.138711,False,1,26,sounds\english\audio/english_195.wav,"[[ 0.         88.76446124]
 [ 0.1        56.50909504]
 [ 0.2        -5.11157055]
 [ 0.3        14.19517065]
 [ 0.32341667 67.19148892]]","[[0.         0.85936173]
 [0.1        1.06337161]
 [0.2        1.01766647]
 [0.3        1.03928052]
 [0.32341667 1.18131313]]",1,1.292
8732112179,m,20,english,5,4,english,2024-01-30 13:04:55.138711,False,1,27,sounds\english\audio/english_119.wav,"[[  0.         -72.13623542]
 [  0.1        -47.93500709]
 [  0.2         91.39212861]
 [  0.3         -4.62561099]
 [  0.32341667 -33.86599352]]","[[0.         1.33116293]
 [0.1        0.14257244]
 [0.2        1.10285667]
 [0.3        0.57572872]
 [0.32341667 1.36512269]]",1,0.921
8732112179,m,20,english,5,4,english,2024-01-30 13:04:55.138711,False,1,28,sounds\english\audio/english_75.wav,"[[  0.          -9.18091647]
 [  0.1        -62.02164907]
 [  0.2        -12.90623207]
 [  0.3         15.17089036]
 [  0.32341667  10.89352922]]","[[0.         0.92930856]
 [0.1        1.94000482]
 [0.2        1.2183621 ]
 [0.3        0.47349695]
 [0.32341667 1.02561006]]",1,1.212
8732112179,m,20,english,5,4,english,2024-01-30 13:04:55.138711,False,1,29,sounds\english\audio/english_988.wav,"[[  0.          23.53561789]
 [  0.1         39.09545525]
 [  0.2        -32.2225044 ]
 [  0.3          5.54449519]
 [  0.32341667 -94.58480047]]","[[0.         0.18772999]
 [0.1        0.71537172]
 [0.2        0.50944864]
 [0.3        0.59930705]
 [0.32341667 1.43881296]]",1,1.005
8732112179,m,20,english,5,4,english,2024-01-30 13:04:55.138711,False,1,30,sounds\english\audio/english_336.wav,"[[  0.          29.43389708]
 [  0.1        -98.82505887]
 [  0.2         33.95949266]
 [  0.3        -57.79711044]
 [  0.32341667  81.65015026]]","[[0.         1.05594545]
 [0.1        1.57774783]
 [0.2        1.35373128]
 [0.3        1.04960404]
 [0.32341667 0.39151968]]",1,0.868
8732112179,m,20,english,5,4,english,2024-01-30 13:04:55.138711,False,1,31,sounds\english\audio/english_485.wav,"[[  0.          -7.08941798]
 [  0.1        -70.64579204]
 [  0.2         23.79115045]
 [  0.3          0.80487994]
 [  0.32341667   4.72097057]]","[[0.         1.8206563 ]
 [0.1        0.10660577]
 [0.2        1.92760945]
 [0.3        0.77499174]
 [0.32341667 1.20070888]]",1,1.382
8732112179,m,20,english,5,4,english,2024-01-30 13:04:55.138711,False,1,32,sounds\english\audio/english_913.wav,"[[  0.          27.9375346 ]
 [  0.1         41.67879689]
 [  0.2        -50.96955224]
 [  0.3         93.1868058 ]
 [  0.32341667  83.79752677]]","[[0.         0.72243167]
 [0.1        1.59129257]
 [0.2        1.19382874]
 [0.3        0.86840853]
 [0.32341667 0.21021697]]",1,0.888
8732112179,m,20,english,5,4,english,2024-01-30 13:04:55.138711,False,1,33,sounds\english\audio/english_97.wav,"[[  0.          57.21139396]
 [  0.1         -7.40408397]
 [  0.2         77.7995227 ]
 [  0.3        -51.1747528 ]
 [  0.32341667  77.11982253]]","[[0.         1.63402743]
 [0.1        0.54734888]
 [0.2        1.5228594 ]
 [0.3        1.13050105]
 [0.32341667 0.82586999]]",1,1.294
8732112179,m,20,english,5,4,english,2024-01-30 13:04:55.138711,False,1,34,sounds\english\audio/english_74.wav,"[[  0.          86.29588785]
 [  0.1        -14.52381687]
 [  0.2         77.94321906]
 [  0.3        -32.33104188]
 [  0.32341667   9.46602754]]","[[0.         1.196208  ]
 [0.1        1.63208143]
 [0.2        0.46125368]
 [0.3        1.38278461]
 [0.32341667 0.83147108]]",1,0.687
8732112179,m,20,english,5,4,english,2024-01-30 13:04:55.138711,False,1,35,sounds\english\audio/english_572.wav,"[[  0.         -16.16189062]
 [  0.1        -40.8511413 ]
 [  0.2        -77.3747243 ]
 [  0.3         87.62803369]
 [  0.32341667  81.6005998 ]]","[[0.         1.82210005]
 [0.1        0.80249033]
 [0.2        0.69959732]
 [0.3        0.43311894]
 [0.32341667 1.25204325]]",1,1.978
8732112179,m,20,english,5,4,english,2024-01-30 13:04:55.138711,False,1,36,sounds\english\audio/english_255.wav,"[[  0.         -42.74550593]
 [  0.1         35.44578771]
 [  0.2         98.7346041 ]
 [  0.3         14.08839822]
 [  0.32341667 -55.38739786]]","[[0.         1.65518669]
 [0.1        1.85823386]
 [0.2        1.2123315 ]
 [0.3        0.62099519]
 [0.32341667 1.08486436]]",1,0.729
8732112179,m,20,english,5,4,english,2024-01-30 13:04:55.138711,False,1,37,sounds\english\audio/english_134.wav,"[[  0.          70.72156413]
 [  0.1        -64.20531103]
 [  0.2         35.7891913 ]
 [  0.3        -77.33475241]
 [  0.32341667  85.6978336 ]]","[[0.         1.84700732]
 [0.1        1.20878884]
 [0.2        0.51924654]
 [0.3        1.95615398]
 [0.32341667 1.72102519]]",1,0.633
8732112179,m,20,english,5,4,english,2024-01-30 13:04:55.138711,False,1,38,sounds\english\audio/english_630.wav,"[[  0.          97.25925287]
 [  0.1         76.95662127]
 [  0.2          5.01423186]
 [  0.3        -27.88706711]
 [  0.32341667  90.69966072]]","[[0.         0.34607754]
 [0.1        0.15996234]
 [0.2        1.73874617]
 [0.3        0.41181915]
 [0.32341667 0.77788697]]",1,0.956
8732112179,m,20,english,5,4,english,2024-01-30 13:04:55.138711,False,1,39,sounds\english\audio/english_383.wav,"[[  0.          -1.49759031]
 [  0.1         48.0809444 ]
 [  0.2        -84.09524499]
 [  0.3         95.23220486]
 [  0.32341667  64.91086902]]","[[0.         0.61403304]
 [0.1        0.69225556]
 [0.2        0.33452268]
 [0.3        1.06792504]
 [0.32341667 0.58483827]]",1,0.884
8732112179,m,20,english,5,4,english,2024-01-30 13:04:55.138711,False,1,40,sounds\english\audio/english_365.wav,"[[  0.          58.11205919]
 [  0.1        -61.04014877]
 [  0.2         12.43042802]
 [  0.3         17.00746388]
 [  0.32341667 -69.10644956]]","[[0.         0.53708026]
 [0.1        1.10456153]
 [0.2        1.31731937]
 [0.3        1.02387946]
 [0.32341667 1.31633463]]",1,0.609
8732112179,m,20,english,5,4,english,2024-01-30 13:04:55.138711,False,1,41,sounds\english\audio/english_293.wav,"[[  0.         -22.15906653]
 [  0.1        -88.62057809]
 [  0.2        -18.47979893]
 [  0.3        -74.2852497 ]
 [  0.32341667  59.45323022]]","[[0.         1.76366583]
 [0.1        0.55660069]
 [0.2        1.17282558]
 [0.3        0.49477424]
 [0.32341667 0.66659794]]",1,0.605
8732112179,m,20,english,5,4,english,2024-01-30 13:04:55.138711,False,1,42,sounds\english\audio/english_457.wav,"[[  0.         -73.30847947]
 [  0.1        -25.74413936]
 [  0.2          8.82772976]
 [  0.3         -2.30416086]
 [  0.32341667 -34.04493945]]","[[0.         0.35525387]
 [0.1        0.90483023]
 [0.2        1.30004432]
 [0.3        0.93422762]
 [0.32341667 1.31504388]]",1,0.503
8732112179,m,20,english,5,4,english,2024-01-30 13:04:55.138711,False,1,43,sounds\english\audio/english_645.wav,"[[  0.          44.09023725]
 [  0.1         53.49741331]
 [  0.2         28.7784214 ]
 [  0.3        -38.38386911]
 [  0.32341667  30.31484035]]","[[0.         0.24999948]
 [0.1        0.20669006]
 [0.2        0.13451906]
 [0.3        0.64617788]
 [0.32341667 0.83061833]]",1,3.71
8732112179,m,20,english,5,4,english,2024-01-30 13:04:55.138711,False,1,44,sounds\english\audio/english_888.wav,"[[  0.         -75.11317729]
 [  0.1        -15.41916561]
 [  0.2         30.82770832]
 [  0.3         69.72581111]
 [  0.32341667 -21.6620698 ]]","[[0.         0.15619421]
 [0.1        1.45351631]
 [0.2        1.60154734]
 [0.3        1.09787436]
 [0.32341667 1.3760261 ]]",1,1.01
8732112179,m,20,english,5,4,english,2024-01-30 13:04:55.138711,False,1,45,sounds\english\audio/english_686.wav,"[[  0.         -30.40223154]
 [  0.1         40.30213926]
 [  0.2         68.68183252]
 [  0.3         82.36920372]
 [  0.32341667   5.8000707 ]]","[[0.         0.36787347]
 [0.1        1.54584144]
 [0.2        1.54645212]
 [0.3        1.04035585]
 [0.32341667 1.51520661]]",1,1.082
8732112179,m,20,english,5,4,english,2024-01-30 13:04:55.138711,False,1,46,sounds\english\audio/english_838.wav,"[[  0.         -46.43239877]
 [  0.1         -0.77549132]
 [  0.2        -47.56158581]
 [  0.3          7.18116474]
 [  0.32341667 -87.38880816]]","[[0.         0.57293762]
 [0.1        1.65450135]
 [0.2        0.30574951]
 [0.3        0.96315644]
 [0.32341667 0.83017899]]",1,1.353
8732112179,m,20,english,5,4,english,2024-01-30 13:04:55.138711,False,1,47,sounds\english\audio/english_991.wav,"[[  0.         -73.33762004]
 [  0.1        -90.08677455]
 [  0.2        -98.84294029]
 [  0.3         59.84972986]
 [  0.32341667  21.03568625]]","[[0.         0.7279734 ]
 [0.1        0.374322  ]
 [0.2        0.98894361]
 [0.3        1.07774369]
 [0.32341667 0.51480923]]",1,1.581
8732112179,m,20,english,5,4,english,2024-01-30 13:04:55.138711,False,1,48,sounds\english\audio/english_630.wav,"[[  0.          97.25925287]
 [  0.1         76.95662127]
 [  0.2          5.01423186]
 [  0.3        -27.88706711]
 [  0.32341667  90.69966072]]","[[0.         0.34607754]
 [0.1        0.15996234]
 [0.2        1.73874617]
 [0.3        0.41181915]
 [0.32341667 0.77788697]]",1,0.926
8732112179,m,20,english,5,4,english,2024-01-30 13:04:55.138711,False,1,49,sounds\english\audio/english_897.wav,"[[  0.          -6.17515852]
 [  0.1        -25.56252799]
 [  0.2        -51.51756482]
 [  0.3        -57.3776393 ]
 [  0.32341667 -65.82780913]]","[[0.         1.45954458]
 [0.1        1.4662158 ]
 [0.2        1.09304129]
 [0.3        1.17713492]
 [0.32341667 1.23726335]]",1,0.633
8732112179,m,20,english,5,4,english,2024-01-30 13:04:55.138711,False,1,50,sounds\english\audio/english_538.wav,"[[  0.           2.36208538]
 [  0.1         77.85923423]
 [  0.2        -89.1271409 ]
 [  0.3        -18.79772534]
 [  0.32341667  87.62276495]]","[[0.         1.54356298]
 [0.1        0.47597082]
 [0.2        1.27977799]
 [0.3        1.05516459]
 [0.32341667 1.20284762]]",1,0.909
8732112179,m,20,english,5,4,english,2024-01-30 13:04:55.138711,False,1,51,sounds\english\audio/english_186.wav,"[[  0.         -54.7664391 ]
 [  0.1         -8.4263529 ]
 [  0.2          6.22451559]
 [  0.3        -12.35671223]
 [  0.32341667  86.21839615]]","[[0.         1.87021502]
 [0.1        1.36390049]
 [0.2        1.69942617]
 [0.3        1.8066537 ]
 [0.32341667 1.2511354 ]]",1,0.538
8732112179,m,20,english,5,4,english,2024-01-30 13:04:55.138711,False,1,52,sounds\english\audio/english_843.wav,"[[  0.         -34.38568909]
 [  0.1         91.48235516]
 [  0.2         45.43581208]
 [  0.3         47.04005582]
 [  0.32341667  30.80916685]]","[[0.         1.38988397]
 [0.1        0.61638546]
 [0.2        1.5800421 ]
 [0.3        1.07327256]
 [0.32341667 0.46994626]]",1,0.951
8732112179,m,20,english,5,4,english,2024-01-30 13:04:55.138711,False,1,53,sounds\english\audio/english_894.wav,"[[  0.          55.36181915]
 [  0.1          1.74798824]
 [  0.2         53.5320483 ]
 [  0.3        -10.60196251]
 [  0.32341667  46.95013059]]","[[0.         0.37154348]
 [0.1        0.78809476]
 [0.2        0.08099688]
 [0.3        1.90254096]
 [0.32341667 0.68783971]]",1,1.343
8732112179,m,20,english,5,4,english,2024-01-30 13:04:55.138711,False,1,54,sounds\english\audio/english_605.wav,"[[  0.         -82.65591545]
 [  0.1         35.78886654]
 [  0.2        -36.80716754]
 [  0.3         -4.39131435]
 [  0.32341667 -17.17702763]]","[[0.         0.90945233]
 [0.1        1.65178877]
 [0.2        0.21181898]
 [0.3        1.21754483]
 [0.32341667 1.60493484]]",1,0.833
8732112179,m,20,english,5,4,english,2024-01-30 13:04:55.138711,False,1,55,sounds\english\audio/english_234.wav,"[[  0.         -96.19421376]
 [  0.1         96.13097212]
 [  0.2        -68.61115628]
 [  0.3         58.3624958 ]
 [  0.32341667  60.51337125]]","[[0.         0.0948498 ]
 [0.1        1.36649532]
 [0.2        0.00312314]
 [0.3        0.01269103]
 [0.32341667 1.76377265]]",1,0.923
8732112179,m,20,english,5,4,english,2024-01-30 13:04:55.138711,False,1,56,sounds\english\audio/english_703.wav,"[[  0.          21.25560127]
 [  0.1         -5.61566417]
 [  0.2        -88.15973778]
 [  0.3         39.86499493]
 [  0.32341667  64.67338156]]","[[0.         1.22587136]
 [0.1        1.28752652]
 [0.2        1.61643937]
 [0.3        1.32560109]
 [0.32341667 0.74206522]]",1,0.576
8732112179,m,20,english,5,4,english,2024-01-30 13:04:55.138711,False,1,57,sounds\english\audio/english_375.wav,"[[  0.          18.096335  ]
 [  0.1        -55.77885891]
 [  0.2        -79.80603762]
 [  0.3        -57.7566014 ]
 [  0.32341667  74.14673873]]","[[0.         0.30735121]
 [0.1        1.17808606]
 [0.2        1.03107785]
 [0.3        0.46519988]
 [0.32341667 1.41875211]]",1,0.851
8732112179,m,20,english,5,4,english,2024-01-30 13:04:55.138711,False,1,58,sounds\english\audio/english_517.wav,"[[  0.          11.23661905]
 [  0.1         58.81241605]
 [  0.2         38.38790279]
 [  0.3        -74.61462092]
 [  0.32341667 -36.69086471]]","[[0.         0.76208972]
 [0.1        0.18193562]
 [0.2        1.85963831]
 [0.3        0.20223028]
 [0.32341667 1.46287498]]",1,0.561
8732112179,m,20,english,5,4,english,2024-01-30 13:04:55.138711,False,1,59,sounds\english\audio/english_366.wav,"[[  0.          30.08929792]
 [  0.1        -17.9139155 ]
 [  0.2        -66.75779592]
 [  0.3         77.64459909]
 [  0.32341667  72.64294537]]","[[0.         0.87054072]
 [0.1        0.34658018]
 [0.2        0.49970414]
 [0.3        1.94720887]
 [0.32341667 1.76390144]]",1,0.768
8732112179,m,20,english,5,4,english,2024-01-30 13:04:55.138711,False,1,60,sounds\english\audio/english_57.wav,"[[  0.         -27.39668164]
 [  0.1         63.52389761]
 [  0.2        -55.42033209]
 [  0.3         40.81906742]
 [  0.32341667 -12.75543821]]","[[0.         1.97835384]
 [0.1        0.69906452]
 [0.2        0.75389415]
 [0.3        0.20375649]
 [0.32341667 1.65585112]]",1,0.687
8732112179,m,20,english,5,4,english,2024-01-30 13:04:55.138711,False,1,61,sounds\english\audio/english_632.wav,"[[  0.         -56.22391322]
 [  0.1        -47.59423942]
 [  0.2         91.93727259]
 [  0.3        -33.89646621]
 [  0.32341667  46.88387871]]","[[0.         1.21249895]
 [0.1        0.39515719]
 [0.2        1.8528852 ]
 [0.3        1.67254104]
 [0.32341667 1.21014685]]",1,0.561
8732112179,m,20,english,5,4,english,2024-01-30 13:04:55.138711,False,1,62,sounds\english\audio/english_96.wav,"[[  0.          -2.60251168]
 [  0.1          3.1808695 ]
 [  0.2        -93.89625608]
 [  0.3         22.03695444]
 [  0.32341667  89.13776591]]","[[0.         1.33849038]
 [0.1        1.03790095]
 [0.2        0.32730996]
 [0.3        1.15118519]
 [0.32341667 1.37996061]]",1,0.546
8732112179,m,20,english,5,4,english,2024-01-30 13:04:55.138711,False,1,63,sounds\english\audio/english_143.wav,"[[  0.         -40.90047407]
 [  0.1        -35.35291254]
 [  0.2         36.32983964]
 [  0.3         -7.67980486]
 [  0.32341667 -89.59854269]]","[[0.         0.05812512]
 [0.1        0.81203879]
 [0.2        0.61124866]
 [0.3        0.41683772]
 [0.32341667 1.86697452]]",1,0.881
8732112179,m,20,english,5,4,english,2024-01-30 13:04:55.138711,False,1,64,sounds\english\audio/english_73.wav,"[[  0.         -73.49165063]
 [  0.1         65.54847429]
 [  0.2        -55.11967081]
 [  0.3         68.77466141]
 [  0.32341667 -37.79888894]]","[[0.         1.41947215]
 [0.1        1.68852165]
 [0.2        0.59259525]
 [0.3        0.85140805]
 [0.32341667 1.17745107]]",1,1.775
8732112179,m,20,english,5,4,english,2024-01-30 13:04:55.138711,False,1,65,sounds\english\audio/english_514.wav,"[[  0.         -61.65105701]
 [  0.1         49.84264816]
 [  0.2         14.14440898]
 [  0.3        -30.10662908]
 [  0.32341667  90.48337022]]","[[0.         1.12509033]
 [0.1        0.78701739]
 [0.2        0.37052689]
 [0.3        1.42053426]
 [0.32341667 1.94621598]]",1,4.345
8732112179,m,20,english,5,4,english,2024-01-30 13:04:55.138711,False,1,66,sounds\english\audio/english_127.wav,"[[  0.         -69.70750805]
 [  0.1        -23.17484413]
 [  0.2         16.27024862]
 [  0.3        -50.08342814]
 [  0.32341667  22.60332787]]","[[0.         0.25070661]
 [0.1        1.1475992 ]
 [0.2        1.99299371]
 [0.3        0.57749513]
 [0.32341667 1.27832678]]",1,0.594
8732112179,m,20,english,5,4,english,2024-01-30 13:04:55.138711,False,1,67,sounds\english\audio/english_990.wav,"[[  0.         -17.98511021]
 [  0.1        -90.3005676 ]
 [  0.2          4.37005684]
 [  0.3         83.93705034]
 [  0.32341667 -36.57803625]]","[[0.         0.6190444 ]
 [0.1        0.77548775]
 [0.2        0.55013224]
 [0.3        0.66784051]
 [0.32341667 0.32384409]]",1,0.727
8732112179,m,20,english,5,4,english,2024-01-30 13:04:55.138711,False,1,68,sounds\english\audio/english_95.wav,"[[  0.          -9.17523314]
 [  0.1        -95.16832451]
 [  0.2        -21.6130257 ]
 [  0.3          0.51006416]
 [  0.32341667  43.00131518]]","[[0.         0.73915747]
 [0.1        1.01172325]
 [0.2        1.19817679]
 [0.3        1.53285694]
 [0.32341667 1.08383215]]",1,1.182
8732112179,m,20,english,5,4,english,2024-01-30 13:04:55.138711,False,1,69,sounds\english\audio/english_607.wav,"[[ 0.         46.6865757 ]
 [ 0.1        39.2269946 ]
 [ 0.2         9.54774619]
 [ 0.3        16.02187378]
 [ 0.32341667 75.62266759]]","[[0.         1.30575186]
 [0.1        1.04660061]
 [0.2        0.88274406]
 [0.3        1.5824547 ]
 [0.32341667 0.67660632]]",1,0.597
8732112179,m,20,english,5,4,english,2024-01-30 13:04:55.138711,False,1,70,sounds\english\audio/english_781.wav,"[[  0.          22.64916165]
 [  0.1          6.89582518]
 [  0.2        -79.07711894]
 [  0.3         66.534152  ]
 [  0.32341667  93.30494506]]","[[0.         0.31928057]
 [0.1        1.4040275 ]
 [0.2        0.86558079]
 [0.3        0.14510309]
 [0.32341667 0.79620595]]",0,4.83
8732112179,m,20,english,5,4,english,2024-01-30 13:04:55.138711,False,1,71,sounds\english\audio/english_715.wav,"[[  0.         -64.21420564]
 [  0.1         77.40813629]
 [  0.2        -98.26791609]
 [  0.3        -32.66334796]
 [  0.32341667  93.12500574]]","[[0.         1.80154013]
 [0.1        0.51096517]
 [0.2        0.49870215]
 [0.3        0.64344691]
 [0.32341667 1.17662216]]",0,3.956
8732112179,m,20,english,5,4,english,2024-01-30 13:04:55.138711,False,1,72,sounds\english\audio/english_989.wav,"[[  0.         -51.1051603 ]
 [  0.1        -91.26717948]
 [  0.2         73.5145218 ]
 [  0.3         54.43703181]
 [  0.32341667 -36.95823638]]","[[0.         1.00035195]
 [0.1        0.46124463]
 [0.2        0.77735517]
 [0.3        1.21549894]
 [0.32341667 0.33045291]]",1,1.681
8732112179,m,20,english,5,4,english,2024-01-30 13:04:55.138711,False,1,73,sounds\english\audio/english_520.wav,"[[  0.          86.3711843 ]
 [  0.1         30.73905166]
 [  0.2          6.06230503]
 [  0.3        -72.93527416]
 [  0.32341667  40.17700679]]","[[0.         1.94117834]
 [0.1        1.71866566]
 [0.2        1.15295637]
 [0.3        0.80072648]
 [0.32341667 1.71054199]]",1,3.574
8732112179,m,20,english,5,4,english,2024-01-30 13:04:55.138711,False,1,74,sounds\english\audio/english_431.wav,"[[  0.         -28.91437381]
 [  0.1         30.6479342 ]
 [  0.2         41.25713347]
 [  0.3          9.19018397]
 [  0.32341667 -61.77590044]]","[[0.         1.3282391 ]
 [0.1        1.9405757 ]
 [0.2        1.67607787]
 [0.3        0.62213613]
 [0.32341667 0.50881411]]",0,1.819
8732112179,m,20,english,5,4,english,2024-01-30 13:04:55.138711,False,1,75,sounds\english\audio/english_52.wav,"[[  0.          54.63859099]
 [  0.1        -85.67195477]
 [  0.2          2.4878885 ]
 [  0.3         86.13143505]
 [  0.32341667 -53.30399902]]","[[0.         0.91426261]
 [0.1        1.20728413]
 [0.2        0.71733995]
 [0.3        1.54149443]
 [0.32341667 1.3376245 ]]",1,1.134
8732112179,m,20,english,5,4,english,2024-01-30 13:04:55.138711,False,1,76,sounds\english\audio/english_476.wav,"[[  0.          67.27413703]
 [  0.1        -35.99891676]
 [  0.2         53.1347651 ]
 [  0.3        -27.53585108]
 [  0.32341667  13.88563074]]","[[0.         1.71507594]
 [0.1        1.5691203 ]
 [0.2        0.1869461 ]
 [0.3        0.94822926]
 [0.32341667 1.63186757]]",1,5.156
8732112179,m,20,english,5,4,english,2024-01-30 13:04:55.138711,False,1,77,sounds\english\audio/english_679.wav,"[[ 0.         37.61966445]
 [ 0.1        51.99791738]
 [ 0.2        47.28862711]
 [ 0.3        96.96405016]
 [ 0.32341667 17.22990972]]","[[0.         0.05085037]
 [0.1        0.83446012]
 [0.2        0.17034906]
 [0.3        1.15010704]
 [0.32341667 1.32170415]]",0,2.01
8732112179,m,20,english,5,4,english,2024-01-30 13:04:55.138711,False,1,78,sounds\english\audio/english_993.wav,"[[  0.         -66.15449332]
 [  0.1         33.08083728]
 [  0.2         51.46479562]
 [  0.3        -80.58676237]
 [  0.32341667  81.97884737]]","[[0.         1.17508471]
 [0.1        0.94744004]
 [0.2        0.74931244]
 [0.3        0.35628979]
 [0.32341667 1.25416847]]",0,3.888
8732112179,m,20,english,5,4,english,2024-01-30 13:04:55.138711,False,1,79,sounds\english\audio/english_743.wav,"[[  0.         -28.24983145]
 [  0.1         71.30498545]
 [  0.2        -89.00652632]
 [  0.3          3.43441779]
 [  0.32341667 -16.71659348]]","[[0.         1.42102626]
 [0.1        0.84283155]
 [0.2        0.82757129]
 [0.3        1.38808557]
 [0.32341667 0.28501565]]",0,12.507
8732112179,m,20,english,5,4,english,2024-01-30 13:04:55.138711,False,1,80,sounds\english\audio/english_463.wav,"[[  0.         -17.89775534]
 [  0.1        -21.51631701]
 [  0.2        -12.53951077]
 [  0.3         33.47501925]
 [  0.32341667 -93.09525534]]","[[0.         1.84132871]
 [0.1        1.66361617]
 [0.2        0.64060514]
 [0.3        1.01091097]
 [0.32341667 0.69499506]]",1,2.162
8732112179,m,20,english,5,4,english,2024-01-30 13:04:55.138711,False,1,81,sounds\english\audio/english_8.wav,"[[  0.         -11.83025711]
 [  0.1          8.7470631 ]
 [  0.2        -15.41843982]
 [  0.3        -87.7437633 ]
 [  0.32341667 -40.85253846]]","[[0.         1.51300734]
 [0.1        0.24000547]
 [0.2        1.17952525]
 [0.3        1.57032258]
 [0.32341667 0.7584977 ]]",1,1.992
8732112179,m,20,english,5,4,english,2024-01-30 13:04:55.138711,False,1,82,sounds\english\audio/english_269.wav,"[[  0.          61.09556447]
 [  0.1         -3.97684721]
 [  0.2        -87.59080112]
 [  0.3         78.47165079]
 [  0.32341667 -52.74135522]]","[[0.         1.11606818]
 [0.1        1.55443041]
 [0.2        1.78173809]
 [0.3        1.73012946]
 [0.32341667 0.88090417]]",0,6.495
8732112179,m,20,english,5,4,english,2024-01-30 13:04:55.138711,False,1,83,sounds\english\audio/english_664.wav,"[[  0.         -76.94516773]
 [  0.1         -6.4858311 ]
 [  0.2         46.60528691]
 [  0.3          9.48323043]
 [  0.32341667  89.85696022]]","[[0.         1.88823832]
 [0.1        1.41396893]
 [0.2        0.11773869]
 [0.3        1.80376032]
 [0.32341667 1.43209877]]",0,2.01
8732112179,m,20,english,5,4,english,2024-01-30 13:04:55.138711,False,1,84,sounds\english\audio/english_30.wav,"[[  0.         -18.5398728 ]
 [  0.1        -67.34991207]
 [  0.2         65.54879707]
 [  0.3         30.88088319]
 [  0.32341667  50.60550813]]","[[0.         0.31748681]
 [0.1        1.82477139]
 [0.2        1.59992979]
 [0.3        0.89523729]
 [0.32341667 1.02052202]]",1,0.86
8732112179,m,20,english,5,4,english,2024-01-30 13:04:55.138711,False,1,85,sounds\english\audio/english_956.wav,"[[  0.         -98.71257913]
 [  0.1        -36.05702295]
 [  0.2        -31.95582623]
 [  0.3        -81.31295359]
 [  0.32341667  45.09425789]]","[[0.         1.5828524 ]
 [0.1        0.66985857]
 [0.2        0.13798036]
 [0.3        0.22663358]
 [0.32341667 0.54862974]]",1,1.58
8732112179,m,20,english,5,4,english,2024-01-30 13:04:55.138711,False,1,86,sounds\english\audio/english_574.wav,"[[  0.          53.128433  ]
 [  0.1         70.24248151]
 [  0.2         47.13290739]
 [  0.3         52.31480293]
 [  0.32341667 -33.06438127]]","[[0.         0.28349694]
 [0.1        0.66519348]
 [0.2        1.25768036]
 [0.3        1.43482954]
 [0.32341667 1.23350688]]",1,1.041
8732112179,m,20,english,5,4,english,2024-01-30 13:04:55.138711,False,1,87,sounds\english\audio/english_403.wav,"[[  0.         -92.65414009]
 [  0.1         75.99659731]
 [  0.2        -27.37801557]
 [  0.3        -80.04540334]
 [  0.32341667  30.50648557]]","[[0.         1.93574734]
 [0.1        0.36447309]
 [0.2        1.02888701]
 [0.3        0.02385722]
 [0.32341667 1.40553938]]",1,3.537
8732112179,m,20,english,5,4,english,2024-01-30 13:04:55.138711,False,1,88,sounds\english\audio/english_584.wav,"[[  0.          10.38934641]
 [  0.1         16.58552078]
 [  0.2         93.24376001]
 [  0.3        -17.62367845]
 [  0.32341667  35.31863132]]","[[0.         1.28044862]
 [0.1        0.12750447]
 [0.2        0.67889343]
 [0.3        1.20299248]
 [0.32341667 1.61660781]]",1,1.559
8732112179,m,20,english,5,4,english,2024-01-30 13:04:55.138711,False,1,89,sounds\english\audio/english_71.wav,"[[  0.         -89.06637534]
 [  0.1        -28.638437  ]
 [  0.2         -8.31899436]
 [  0.3         67.7820648 ]
 [  0.32341667   4.09606073]]","[[0.         0.37218892]
 [0.1        1.29479557]
 [0.2        1.34818575]
 [0.3        1.24266832]
 [0.32341667 1.38884894]]",0,5.387
8732112179,m,20,english,5,4,english,2024-01-30 13:04:55.138711,False,1,90,sounds\english\audio/english_854.wav,"[[  0.          -3.2532791 ]
 [  0.1         19.40039505]
 [  0.2        -14.62360686]
 [  0.3        -63.13820282]
 [  0.32341667  44.42181264]]","[[0.         1.78139632]
 [0.1        1.50161717]
 [0.2        0.8978804 ]
 [0.3        1.66267041]
 [0.32341667 1.68588082]]",0,1.598
8732112179,m,20,english,5,4,english,2024-01-30 13:04:55.138711,False,1,91,sounds\english\audio/english_777.wav,"[[  0.         -69.33808121]
 [  0.1         83.00406244]
 [  0.2         52.8456083 ]
 [  0.3        -67.57367145]
 [  0.32341667  44.30015735]]","[[0.         1.41371967]
 [0.1        0.89293833]
 [0.2        0.52129979]
 [0.3        0.31704889]
 [0.32341667 0.90388625]]",0,1.84
8732112179,m,20,english,5,4,english,2024-01-30 13:04:55.138711,False,1,92,sounds\english\audio/english_428.wav,"[[  0.         -98.34466569]
 [  0.1        -10.51162175]
 [  0.2         97.93427859]
 [  0.3         35.61870537]
 [  0.32341667 -12.49352836]]","[[0.         1.83106884]
 [0.1        1.34345266]
 [0.2        0.65853672]
 [0.3        1.28105878]
 [0.32341667 0.15324236]]",0,2.137
8732112179,m,20,english,5,4,english,2024-01-30 13:04:55.138711,False,1,93,sounds\english\audio/english_837.wav,"[[  0.         -10.72674788]
 [  0.1         33.60933966]
 [  0.2         -1.37827911]
 [  0.3         29.3498758 ]
 [  0.32341667  31.86641091]]","[[0.         0.56055933]
 [0.1        1.16716927]
 [0.2        1.02731607]
 [0.3        1.96665864]
 [0.32341667 0.45425732]]",0,2.967
8732112179,m,20,english,5,4,english,2024-01-30 13:04:55.138711,False,1,94,sounds\english\audio/english_819.wav,"[[  0.          56.56933068]
 [  0.1         16.98960986]
 [  0.2        -13.59600893]
 [  0.3         79.1710335 ]
 [  0.32341667  25.34620926]]","[[0.         1.61805944]
 [0.1        1.69207785]
 [0.2        1.33633205]
 [0.3        0.49452457]
 [0.32341667 1.97134574]]",0,1.305
8732112179,m,20,english,5,4,english,2024-01-30 13:04:55.138711,False,1,95,sounds\english\audio/english_827.wav,"[[  0.         -49.24128803]
 [  0.1         62.6158679 ]
 [  0.2        -85.72053716]
 [  0.3        -65.54354982]
 [  0.32341667 -42.30235352]]","[[0.         1.70838213]
 [0.1        0.88048656]
 [0.2        1.47530841]
 [0.3        0.04991031]
 [0.32341667 0.1531298 ]]",0,3.742
8732112179,m,20,english,5,4,english,2024-01-30 13:04:55.138711,False,1,96,sounds\english\audio/english_905.wav,"[[  0.          73.76258642]
 [  0.1         49.84186991]
 [  0.2        -84.55275191]
 [  0.3         70.45460649]
 [  0.32341667 -84.87734561]]","[[0.         1.30259847]
 [0.1        0.15786419]
 [0.2        0.47562292]
 [0.3        1.69272047]
 [0.32341667 1.28570309]]",0,4.62
8732112179,m,20,english,5,4,english,2024-01-30 13:04:55.138711,False,1,97,sounds\english\audio/english_952.wav,"[[  0.          64.91746033]
 [  0.1        -25.84234774]
 [  0.2         60.30097417]
 [  0.3        -98.0606555 ]
 [  0.32341667 -77.98984902]]","[[0.         1.00586425]
 [0.1        1.28790365]
 [0.2        1.6668124 ]
 [0.3        1.44616756]
 [0.32341667 0.15831209]]",0,3.643
8732112179,m,20,english,5,4,english,2024-01-30 13:04:55.138711,False,1,98,sounds\english\audio/english_516.wav,"[[  0.         -37.49134217]
 [  0.1         56.61653956]
 [  0.2         60.98574822]
 [  0.3         -0.52682824]
 [  0.32341667 -50.41932267]]","[[0.         0.47483782]
 [0.1        1.0523806 ]
 [0.2        0.59798137]
 [0.3        0.6957238 ]
 [0.32341667 1.76373844]]",1,4.452
8732112179,m,20,english,5,4,english,2024-01-30 13:04:55.138711,False,1,99,sounds\english\audio/english_603.wav,"[[  0.         -14.17444723]
 [  0.1         -4.64921339]
 [  0.2        -23.32469505]
 [  0.3        -59.01260874]
 [  0.32341667  88.53711532]]","[[0.         1.28295305]
 [0.1        0.35920956]
 [0.2        0.60281559]
 [0.3        0.58107079]
 [0.32341667 1.19087365]]",1,10.066
8732112179,m,20,english,5,4,english,2024-01-30 13:04:55.138711,False,1,100,sounds\english\audio/english_908.wav,"[[  0.          48.62867987]
 [  0.1         15.18588807]
 [  0.2        -42.37345339]
 [  0.3         10.74033392]
 [  0.32341667 -40.14378972]]","[[0.         1.27180628]
 [0.1        0.65893562]
 [0.2        1.07678682]
 [0.3        1.66111239]
 [0.32341667 0.30218678]]",1,6.28
8732112179,m,20,english,5,4,english,2024-01-30 13:04:55.138711,False,1,101,sounds\english\audio/english_443.wav,"[[  0.           0.608638  ]
 [  0.1         15.80398242]
 [  0.2        -53.8454718 ]
 [  0.3         32.36058062]
 [  0.32341667  41.23353215]]","[[0.         1.06022382]
 [0.1        1.02694767]
 [0.2        0.72801533]
 [0.3        1.22153209]
 [0.32341667 0.58841963]]",0,2.686
8732112179,m,20,english,5,4,english,2024-01-30 13:04:55.138711,False,1,102,sounds\english\audio/english_520.wav,"[[  0.          86.3711843 ]
 [  0.1         30.73905166]
 [  0.2          6.06230503]
 [  0.3        -72.93527416]
 [  0.32341667  40.17700679]]","[[0.         1.94117834]
 [0.1        1.71866566]
 [0.2        1.15295637]
 [0.3        0.80072648]
 [0.32341667 1.71054199]]",0,2.948
8732112179,m,20,english,5,4,english,2024-01-30 13:04:55.138711,False,1,103,sounds\english\audio/english_709.wav,"[[  0.         -57.85840644]
 [  0.1         -9.03046344]
 [  0.2        -83.08592789]
 [  0.3        -30.28779026]
 [  0.32341667 -42.69418167]]","[[0.         1.64294201]
 [0.1        1.39808038]
 [0.2        1.46645034]
 [0.3        1.11724372]
 [0.32341667 0.30195694]]",1,7.171
8732112179,m,20,english,5,4,english,2024-01-30 13:04:55.138711,False,1,104,sounds\english\audio/english_85.wav,"[[  0.          69.91092253]
 [  0.1         90.04885235]
 [  0.2        -54.471964  ]
 [  0.3        -32.42862041]
 [  0.32341667 -26.25094384]]","[[0.         1.07696769]
 [0.1        1.65675227]
 [0.2        1.18566865]
 [0.3        0.43131811]
 [0.32341667 1.88641509]]",1,1.123
8732112179,m,20,english,5,4,english,2024-01-30 13:04:55.138711,False,1,105,sounds\english\audio/english_240.wav,"[[  0.         -96.55121617]
 [  0.1         73.99435309]
 [  0.2        -27.17256968]
 [  0.3         -2.05185553]
 [  0.32341667  80.37406519]]","[[0.         1.04823872]
 [0.1        1.11556714]
 [0.2        0.68795106]
 [0.3        1.30325309]
 [0.32341667 0.86977317]]",0,7.43
8732112179,m,20,english,5,4,english,2024-01-30 13:04:55.138711,False,1,106,sounds\english\audio/english_567.wav,"[[  0.          26.28994663]
 [  0.1        -84.76959918]
 [  0.2        -17.21635209]
 [  0.3        -93.28005251]
 [  0.32341667  55.01605665]]","[[0.         0.43358591]
 [0.1        0.96759171]
 [0.2        0.27115372]
 [0.3        1.2000135 ]
 [0.32341667 1.11881456]]",1,1.803
8732112179,m,20,english,5,4,english,2024-01-30 13:04:55.138711,False,1,107,sounds\english\audio/english_55.wav,"[[  0.          71.89255128]
 [  0.1          0.20692224]
 [  0.2        -68.61006599]
 [  0.3         -5.20952515]
 [  0.32341667  28.45991968]]","[[0.         0.24931264]
 [0.1        1.79813092]
 [0.2        0.71729895]
 [0.3        1.28733782]
 [0.32341667 1.77061752]]",1,1.695
8732112179,m,20,english,5,4,english,2024-01-30 13:04:55.138711,False,1,108,sounds\english\audio/english_616.wav,"[[  0.         -71.12360497]
 [  0.1         55.35355355]
 [  0.2        -15.85026512]
 [  0.3        -22.60587367]
 [  0.32341667 -45.64131884]]","[[0.         0.83412473]
 [0.1        1.49185731]
 [0.2        1.32170209]
 [0.3        0.90458331]
 [0.32341667 1.17134835]]",1,2.551
8732112179,m,20,english,5,4,english,2024-01-30 13:04:55.138711,False,1,109,sounds\english\audio/english_867.wav,"[[  0.           9.0283109 ]
 [  0.1          6.96107974]
 [  0.2         14.88339172]
 [  0.3         -2.73093064]
 [  0.32341667 -85.27526638]]","[[0.         0.25019481]
 [0.1        0.62311927]
 [0.2        1.78918939]
 [0.3        1.34945049]
 [0.32341667 0.75720604]]",1,2.292
8732112179,m,20,english,5,4,english,2024-01-30 13:04:55.138711,False,1,110,sounds\english\audio/english_784.wav,"[[  0.           8.33598236]
 [  0.1        -95.44591543]
 [  0.2        -36.57026964]
 [  0.3         21.49915707]
 [  0.32341667  14.63720491]]","[[0.         1.26617784]
 [0.1        0.3784594 ]
 [0.2        1.54775832]
 [0.3        0.94378056]
 [0.32341667 0.98781772]]",1,2.13
8732112179,m,20,english,5,4,english,2024-01-30 13:04:55.138711,False,1,111,sounds\english\audio/english_825.wav,"[[  0.           9.96211161]
 [  0.1        -28.44120521]
 [  0.2         58.95311712]
 [  0.3        -14.85414305]
 [  0.32341667  85.14956963]]","[[0.         0.17252736]
 [0.1        0.52830291]
 [0.2        0.51646024]
 [0.3        0.70859388]
 [0.32341667 0.64434305]]",1,3.284
8732112179,m,20,english,5,4,english,2024-01-30 13:04:55.138711,False,1,112,sounds\english\audio/english_944.wav,"[[  0.          70.24274457]
 [  0.1        -48.79231442]
 [  0.2         -6.42324239]
 [  0.3         -7.7338836 ]
 [  0.32341667  69.46240638]]","[[0.         0.61048125]
 [0.1        1.63310511]
 [0.2        0.21687347]
 [0.3        0.45027042]
 [0.32341667 0.90306897]]",1,2.065
8732112179,m,20,english,5,4,english,2024-01-30 13:04:55.138711,False,1,113,sounds\english\audio/english_94.wav,"[[  0.         -78.50776969]
 [  0.1         21.81048112]
 [  0.2         76.78230264]
 [  0.3        -35.62145712]
 [  0.32341667 -71.39427505]]","[[0.         1.58967719]
 [0.1        0.88841047]
 [0.2        1.12549424]
 [0.3        1.80621507]
 [0.32341667 1.00879957]]",1,1.572
8732112179,m,20,english,5,4,english,2024-01-30 13:04:55.138711,False,1,114,sounds\english\audio/english_472.wav,"[[  0.         -33.48324222]
 [  0.1        -52.47175565]
 [  0.2        -13.12063744]
 [  0.3         83.57117959]
 [  0.32341667  95.60610647]]","[[0.         1.19367533]
 [0.1        0.64788551]
 [0.2        0.92970714]
 [0.3        0.61503547]
 [0.32341667 0.52013695]]",1,0.913
8732112179,m,20,english,5,4,english,2024-01-30 13:04:55.138711,False,1,115,sounds\english\audio/english_513.wav,"[[  0.          76.78578212]
 [  0.1         20.42124481]
 [  0.2         83.32251122]
 [  0.3         47.28432413]
 [  0.32341667 -50.64117466]]","[[0.         0.02403043]
 [0.1        0.85164369]
 [0.2        1.08658436]
 [0.3        0.40639055]
 [0.32341667 1.29336046]]",1,2.715
8732112179,m,20,english,5,4,english,2024-01-30 13:04:55.138711,False,1,116,sounds\english\audio/english_723.wav,"[[  0.         -85.17156731]
 [  0.1         92.93654667]
 [  0.2        -28.89042756]
 [  0.3         36.79914563]
 [  0.32341667   6.86426773]]","[[0.         1.02541656]
 [0.1        0.92088513]
 [0.2        0.78256854]
 [0.3        1.22887413]
 [0.32341667 1.77193963]]",1,2.102
8732112179,m,20,english,5,4,english,2024-01-30 13:04:55.138711,False,1,117,sounds\english\audio/english_277.wav,"[[  0.          57.10742469]
 [  0.1        -91.86277199]
 [  0.2         15.18492706]
 [  0.3        -70.52173838]
 [  0.32341667  87.41438228]]","[[0.         0.00973607]
 [0.1        0.30409245]
 [0.2        1.04533503]
 [0.3        1.32138987]
 [0.32341667 0.22027268]]",1,7.149
8732112179,m,20,english,5,4,english,2024-01-30 13:04:55.138711,False,1,118,sounds\english\audio/english_645.wav,"[[  0.          44.09023725]
 [  0.1         53.49741331]
 [  0.2         28.7784214 ]
 [  0.3        -38.38386911]
 [  0.32341667  30.31484035]]","[[0.         0.24999948]
 [0.1        0.20669006]
 [0.2        0.13451906]
 [0.3        0.64617788]
 [0.32341667 0.83061833]]",1,1.557
8732112179,m,20,english,5,4,english,2024-01-30 13:04:55.138711,False,1,119,sounds\english\audio/english_370.wav,"[[  0.         -90.17078727]
 [  0.1        -71.99280791]
 [  0.2        -13.60727202]
 [  0.3         -0.93192742]
 [  0.32341667  33.27852394]]","[[0.         0.17796458]
 [0.1        1.08934715]
 [0.2        1.05914244]
 [0.3        1.87852505]
 [0.32341667 1.24161401]]",1,0.61
8732112179,m,20,english,5,4,english,2024-01-30 13:04:55.138711,False,1,120,sounds\english\audio/english_332.wav,"[[  0.         -51.41680869]
 [  0.1          4.985172  ]
 [  0.2         88.20327684]
 [  0.3        -58.40734817]
 [  0.32341667  68.30800912]]","[[0.         1.58782391]
 [0.1        0.72138411]
 [0.2        1.12265768]
 [0.3        0.23569111]
 [0.32341667 1.23583309]]",1,1.056
8732112179,m,20,english,5,4,english,2024-01-30 13:04:55.138711,False,1,121,sounds\english\audio/english_581.wav,"[[  0.          -4.1565262 ]
 [  0.1         84.55344465]
 [  0.2        -57.45750027]
 [  0.3        -14.35569009]
 [  0.32341667 -54.33758456]]","[[0.         0.01704603]
 [0.1        1.32903406]
 [0.2        1.58046526]
 [0.3        1.16633299]
 [0.32341667 1.20758605]]",1,7.847
8732112179,m,20,english,5,4,english,2024-01-30 13:04:55.138711,False,1,122,sounds\english\audio/english_94.wav,"[[  0.         -78.50776969]
 [  0.1         21.81048112]
 [  0.2         76.78230264]
 [  0.3        -35.62145712]
 [  0.32341667 -71.39427505]]","[[0.         1.58967719]
 [0.1        0.88841047]
 [0.2        1.12549424]
 [0.3        1.80621507]
 [0.32341667 1.00879957]]",1,0.319
8732112179,m,20,english,5,4,english,2024-01-30 13:04:55.138711,False,1,123,sounds\english\audio/english_467.wav,"[[  0.          -0.54983343]
 [  0.1        -84.54516502]
 [  0.2         54.30123894]
 [  0.3        -82.00368026]
 [  0.32341667 -54.10816942]]","[[0.         1.824027  ]
 [0.1        1.06295632]
 [0.2        1.09976952]
 [0.3        1.11766566]
 [0.32341667 0.44824559]]",1,0.619
8732112179,m,20,english,5,4,english,2024-01-30 13:04:55.138711,False,1,124,sounds\english\audio/english_486.wav,"[[  0.          31.41997184]
 [  0.1         58.03480486]
 [  0.2        -62.84801238]
 [  0.3         10.62451678]
 [  0.32341667  10.31835057]]","[[0.         1.22599644]
 [0.1        1.4547445 ]
 [0.2        0.27967606]
 [0.3        0.02065399]
 [0.32341667 0.3128479 ]]",1,1.023
8732112179,m,20,english,5,4,english,2024-01-30 13:04:55.138711,False,1,125,sounds\english\audio/english_221.wav,"[[  0.          85.84184869]
 [  0.1        -20.37513589]
 [  0.2        -89.75984637]
 [  0.3         50.66879934]
 [  0.32341667  20.92538743]]","[[0.         1.38100565]
 [0.1        0.79531516]
 [0.2        0.9538446 ]
 [0.3        1.56492426]
 [0.32341667 1.60855456]]",1,0.74
8732112179,m,20,english,5,4,english,2024-01-30 13:04:55.138711,False,1,126,sounds\english\audio/english_543.wav,"[[  0.          13.74009622]
 [  0.1         51.80972721]
 [  0.2         86.3964352 ]
 [  0.3        -66.39783761]
 [  0.32341667  31.11863834]]","[[0.         0.63900578]
 [0.1        1.6206981 ]
 [0.2        0.03304675]
 [0.3        1.7049324 ]
 [0.32341667 1.46507556]]",1,0.348
8732112179,m,20,english,5,4,english,2024-01-30 13:04:55.138711,False,1,127,sounds\english\audio/english_756.wav,"[[  0.         -75.60908863]
 [  0.1         -4.30259752]
 [  0.2         20.94377522]
 [  0.3         10.45062111]
 [  0.32341667  86.50209298]]","[[0.         1.29894989]
 [0.1        0.61363685]
 [0.2        1.41793961]
 [0.3        1.73528762]
 [0.32341667 0.4791473 ]]",1,0.771
8732112179,m,20,english,5,4,english,2024-01-30 13:04:55.138711,False,1,128,sounds\english\audio/english_630.wav,"[[  0.          97.25925287]
 [  0.1         76.95662127]
 [  0.2          5.01423186]
 [  0.3        -27.88706711]
 [  0.32341667  90.69966072]]","[[0.         0.34607754]
 [0.1        0.15996234]
 [0.2        1.73874617]
 [0.3        0.41181915]
 [0.32341667 0.77788697]]",1,1.632
8732112179,m,20,english,5,4,english,2024-01-30 13:04:55.138711,False,1,129,sounds\english\audio/english_309.wav,"[[  0.          59.8258624 ]
 [  0.1         73.70427758]
 [  0.2         -8.71125849]
 [  0.3        -86.6882155 ]
 [  0.32341667 -90.77340978]]","[[0.         0.58100331]
 [0.1        0.81024997]
 [0.2        0.10827203]
 [0.3        0.09670208]
 [0.32341667 1.53063904]]",1,1.039
8732112179,m,20,english,5,4,english,2024-01-30 13:04:55.138711,False,1,130,sounds\english\audio/english_400.wav,"[[  0.          -9.17924521]
 [  0.1        -51.0410118 ]
 [  0.2         66.2548805 ]
 [  0.3         92.33374018]
 [  0.32341667 -60.80730989]]","[[0.         1.06898792]
 [0.1        0.05890524]
 [0.2        1.54728483]
 [0.3        1.43953162]
 [0.32341667 1.12546459]]",1,4.664
8732112179,m,20,english,5,4,english,2024-01-30 13:04:55.138711,False,1,131,sounds\english\audio/english_672.wav,"[[  0.          30.04022321]
 [  0.1        -49.20146972]
 [  0.2         68.57510342]
 [  0.3         46.99705545]
 [  0.32341667 -96.75951233]]","[[0.         0.7872581 ]
 [0.1        1.24822874]
 [0.2        1.0921985 ]
 [0.3        1.42682896]
 [0.32341667 0.39437363]]",1,0.78
8732112179,m,20,english,5,4,english,2024-01-30 13:04:55.138711,False,1,132,sounds\english\audio/english_737.wav,"[[  0.          21.35751723]
 [  0.1         61.52152077]
 [  0.2        -29.75610596]
 [  0.3        -39.80249708]
 [  0.32341667 -14.64937497]]","[[0.         1.17499048]
 [0.1        1.09581395]
 [0.2        0.62940412]
 [0.3        0.11793022]
 [0.32341667 0.62377861]]",1,1.154
8732112179,m,20,english,5,4,english,2024-01-30 13:04:55.138711,False,1,133,sounds\english\audio/english_587.wav,"[[  0.         -33.32102811]
 [  0.1         46.1287001 ]
 [  0.2        -62.23894368]
 [  0.3         36.67711132]
 [  0.32341667 -11.53320103]]","[[0.         0.7972352 ]
 [0.1        1.97425238]
 [0.2        0.99609006]
 [0.3        1.18577707]
 [0.32341667 1.64089558]]",1,0.35
8732112179,m,20,english,5,4,english,2024-01-30 13:04:55.138711,False,1,134,sounds\english\audio/english_379.wav,"[[  0.          30.14616912]
 [  0.1        -79.51193423]
 [  0.2          7.34860539]
 [  0.3        -43.99342265]
 [  0.32341667  37.72881761]]","[[0.         1.43961489]
 [0.1        1.4219763 ]
 [0.2        0.62633101]
 [0.3        1.13621958]
 [0.32341667 1.35387794]]",1,1.277
8732112179,m,20,english,5,4,english,2024-01-30 13:04:55.138711,False,1,135,sounds\english\audio/english_900.wav,"[[  0.         -54.93304755]
 [  0.1         58.88524349]
 [  0.2        -67.87194092]
 [  0.3         20.66021993]
 [  0.32341667 -10.79853151]]","[[0.         1.64865849]
 [0.1        1.11215591]
 [0.2        0.89823705]
 [0.3        1.30060406]
 [0.32341667 1.95850441]]",1,0.826
8732112179,m,20,english,5,4,english,2024-01-30 13:04:55.138711,False,1,136,sounds\english\audio/english_237.wav,"[[  0.         -40.35335157]
 [  0.1         42.86374565]
 [  0.2          7.79480372]
 [  0.3        -48.50613844]
 [  0.32341667  17.78174719]]","[[0.         0.42178982]
 [0.1        0.6060796 ]
 [0.2        0.58312984]
 [0.3        1.50499267]
 [0.32341667 1.72211243]]",1,0.933
8732112179,m,20,english,5,4,english,2024-01-30 13:04:55.138711,False,1,137,sounds\english\audio/english_585.wav,"[[  0.         -47.47167609]
 [  0.1        -85.73018253]
 [  0.2          4.69567907]
 [  0.3         51.83381109]
 [  0.32341667  14.12777642]]","[[0.         0.91486293]
 [0.1        0.8051019 ]
 [0.2        1.25289508]
 [0.3        0.83258124]
 [0.32341667 1.43411439]]",1,0.642
8732112179,m,20,english,5,4,english,2024-01-30 13:04:55.138711,False,1,138,sounds\english\audio/english_14.wav,"[[  0.          98.00979643]
 [  0.1        -39.90204919]
 [  0.2         51.0517473 ]
 [  0.3         -8.39716694]
 [  0.32341667  82.54419716]]","[[0.         0.92494293]
 [0.1        0.80403915]
 [0.2        0.29426005]
 [0.3        0.14957292]
 [0.32341667 0.1717279 ]]",1,0.72
8732112179,m,20,english,5,4,english,2024-01-30 13:04:55.138711,False,1,139,sounds\english\audio/english_178.wav,"[[  0.         -14.41838744]
 [  0.1         64.59665955]
 [  0.2        -96.76492712]
 [  0.3        -50.00654232]
 [  0.32341667  42.56426636]]","[[0.         0.71193749]
 [0.1        0.54024543]
 [0.2        1.78065704]
 [0.3        1.40559917]
 [0.32341667 0.99785593]]",1,2.19
8732112179,m,20,english,5,4,english,2024-01-30 13:04:55.138711,False,1,140,sounds\english\audio/english_799.wav,"[[  0.         -48.4958847 ]
 [  0.1         -9.52866418]
 [  0.2          1.94176449]
 [  0.3          5.71676827]
 [  0.32341667  30.27282792]]","[[0.         1.9233431 ]
 [0.1        1.11542891]
 [0.2        0.95865462]
 [0.3        0.6616034 ]
 [0.32341667 1.91183458]]",1,1.162
8732112179,m,20,english,5,4,english,2024-01-30 13:04:55.138711,False,1,141,sounds\english\audio/english_204.wav,"[[  0.          67.46317025]
 [  0.1         38.91463365]
 [  0.2        -85.28377865]
 [  0.3         55.65505401]
 [  0.32341667  56.32983288]]","[[0.         1.58701212]
 [0.1        1.82178317]
 [0.2        1.60361911]
 [0.3        0.21823774]
 [0.32341667 0.04661671]]",0,2.02
8732112179,m,20,english,5,4,english,2024-01-30 13:04:55.138711,False,1,142,sounds\english\audio/english_161.wav,"[[  0.          16.17182642]
 [  0.1         51.23408036]
 [  0.2         56.55598601]
 [  0.3        -25.08054758]
 [  0.32341667 -70.36900789]]","[[0.         0.80971259]
 [0.1        1.56168911]
 [0.2        0.91666403]
 [0.3        1.93998208]
 [0.32341667 0.76147365]]",0,0.614
8732112179,m,20,english,5,4,english,2024-01-30 13:04:55.138711,False,1,143,sounds\english\audio/english_383.wav,"[[  0.          -1.49759031]
 [  0.1         48.0809444 ]
 [  0.2        -84.09524499]
 [  0.3         95.23220486]
 [  0.32341667  64.91086902]]","[[0.         0.61403304]
 [0.1        0.69225556]
 [0.2        0.33452268]
 [0.3        1.06792504]
 [0.32341667 0.58483827]]",1,0.629
8732112179,m,20,english,5,4,english,2024-01-30 13:04:55.138711,False,1,144,sounds\english\audio/english_225.wav,"[[  0.          66.72796839]
 [  0.1          3.03768966]
 [  0.2        -45.96345052]
 [  0.3        -88.14676012]
 [  0.32341667  46.76760659]]","[[0.         1.97535322]
 [0.1        1.18784527]
 [0.2        1.58393351]
 [0.3        1.17885171]
 [0.32341667 1.387907  ]]",1,0.408
8732112179,m,20,english,5,4,english,2024-01-30 13:04:55.138711,False,1,145,sounds\english\audio/english_693.wav,"[[  0.         -83.71635172]
 [  0.1         32.46406691]
 [  0.2          8.27548994]
 [  0.3         15.80660539]
 [  0.32341667  74.32681132]]","[[0.         0.35753224]
 [0.1        1.09553371]
 [0.2        1.67166692]
 [0.3        1.61413862]
 [0.32341667 1.90943184]]",1,0.472
8732112179,m,20,english,5,4,english,2024-01-30 13:04:55.138711,False,1,146,sounds\english\audio/english_621.wav,"[[  0.         -58.25251841]
 [  0.1         21.8974524 ]
 [  0.2        -22.03552483]
 [  0.3        -56.80446909]
 [  0.32341667 -23.41760562]]","[[0.         1.01186344]
 [0.1        1.03560921]
 [0.2        0.97057504]
 [0.3        1.33131235]
 [0.32341667 0.49151525]]",1,0.474
8732112179,m,20,english,5,4,english,2024-01-30 13:04:55.138711,False,1,147,sounds\english\audio/english_91.wav,"[[  0.         -67.73951944]
 [  0.1         83.83337034]
 [  0.2        -12.75649653]
 [  0.3          5.95502951]
 [  0.32341667  59.56964586]]","[[0.         0.2772338 ]
 [0.1        0.0816757 ]
 [0.2        0.92538416]
 [0.3        0.40714056]
 [0.32341667 1.8717525 ]]",1,1.179
8732112179,m,20,english,5,4,english,2024-01-30 13:04:55.138711,False,1,148,sounds\english\audio/english_624.wav,"[[  0.         -66.94889137]
 [  0.1         -6.87427926]
 [  0.2         69.52298075]
 [  0.3        -45.26015132]
 [  0.32341667 -50.37935108]]","[[0.         0.79130031]
 [0.1        1.85178888]
 [0.2        0.79988954]
 [0.3        0.87521033]
 [0.32341667 1.50754026]]",1,0.486
8732112179,m,20,english,5,4,english,2024-01-30 13:04:55.138711,False,1,149,sounds\english\audio/english_805.wav,"[[  0.         -11.97504695]
 [  0.1         96.82911573]
 [  0.2          7.51835152]
 [  0.3          2.47378187]
 [  0.32341667 -43.26336213]]","[[0.         0.06029378]
 [0.1        0.81391401]
 [0.2        1.33531055]
 [0.3        1.7608484 ]
 [0.32341667 1.4289718 ]]",1,0.44
8732112179,m,20,english,5,4,english,2024-01-30 13:04:55.138711,False,1,150,sounds\english\audio/english_468.wav,"[[  0.         -33.82586043]
 [  0.1        -42.55840131]
 [  0.2        -36.6492295 ]
 [  0.3         39.91321296]
 [  0.32341667  54.14936319]]","[[0.         0.35164089]
 [0.1        0.20114733]
 [0.2        1.40729654]
 [0.3        0.04300573]
 [0.32341667 1.79642733]]",1,1.309
8732112179,m,20,english,5,4,english,2024-01-30 13:04:55.138711,False,1,151,sounds\english\audio/english_897.wav,"[[  0.          -6.17515852]
 [  0.1        -25.56252799]
 [  0.2        -51.51756482]
 [  0.3        -57.3776393 ]
 [  0.32341667 -65.82780913]]","[[0.         1.45954458]
 [0.1        1.4662158 ]
 [0.2        1.09304129]
 [0.3        1.17713492]
 [0.32341667 1.23726335]]",1,0.787
8732112179,m,20,english,5,4,english,2024-01-30 13:04:55.138711,False,1,152,sounds\english\audio/english_486.wav,"[[  0.          31.41997184]
 [  0.1         58.03480486]
 [  0.2        -62.84801238]
 [  0.3         10.62451678]
 [  0.32341667  10.31835057]]","[[0.         1.22599644]
 [0.1        1.4547445 ]
 [0.2        0.27967606]
 [0.3        0.02065399]
 [0.32341667 0.3128479 ]]",1,0.567
8732112179,m,20,english,5,4,english,2024-01-30 13:04:55.138711,False,1,153,sounds\english\audio/english_299.wav,"[[  0.          -2.55977829]
 [  0.1          1.77446255]
 [  0.2        -18.83457859]
 [  0.3        -71.88845024]
 [  0.32341667  99.76623745]]","[[0.         0.95716625]
 [0.1        1.43363845]
 [0.2        1.1421669 ]
 [0.3        1.57148089]
 [0.32341667 1.70410623]]",1,0.24
8732112179,m,20,english,5,4,english,2024-01-30 13:04:55.138711,False,1,154,sounds\english\audio/english_530.wav,"[[  0.          21.55057906]
 [  0.1        -20.17265513]
 [  0.2        -52.07974762]
 [  0.3         87.36384387]
 [  0.32341667 -72.92256984]]","[[0.         0.25130805]
 [0.1        0.96020899]
 [0.2        1.55252741]
 [0.3        1.19622655]
 [0.32341667 0.75880724]]",1,0.475
8732112179,m,20,english,5,4,english,2024-01-30 13:04:55.138711,False,1,155,sounds\english\audio/english_923.wav,"[[  0.          -0.59122564]
 [  0.1         -5.70499959]
 [  0.2        -29.88927864]
 [  0.3        -82.02126299]
 [  0.32341667  16.89967319]]","[[0.         1.19594648]
 [0.1        1.05419104]
 [0.2        0.73000078]
 [0.3        1.36390543]
 [0.32341667 1.13865732]]",1,0.248
8732112179,m,20,english,5,4,english,2024-01-30 13:04:55.138711,False,1,156,sounds\english\audio/english_476.wav,"[[  0.          67.27413703]
 [  0.1        -35.99891676]
 [  0.2         53.1347651 ]
 [  0.3        -27.53585108]
 [  0.32341667  13.88563074]]","[[0.         1.71507594]
 [0.1        1.5691203 ]
 [0.2        0.1869461 ]
 [0.3        0.94822926]
 [0.32341667 1.63186757]]",0,0.53
8732112179,m,20,english,5,4,english,2024-01-30 13:04:55.138711,False,1,157,sounds\english\audio/english_883.wav,"[[  0.         -17.60743744]
 [  0.1        -37.46625877]
 [  0.2         55.1108939 ]
 [  0.3         87.45591348]
 [  0.32341667 -90.78539671]]","[[0.         1.86037562]
 [0.1        0.9331332 ]
 [0.2        1.34322635]
 [0.3        0.07818604]
 [0.32341667 1.31446095]]",0,0.679
8732112179,m,20,english,5,4,english,2024-01-30 13:04:55.138711,False,1,158,sounds\english\audio/english_962.wav,"[[  0.         -55.512918  ]
 [  0.1         90.34773129]
 [  0.2         -3.10818459]
 [  0.3         50.27619033]
 [  0.32341667 -47.3196173 ]]","[[0.         1.78332996]
 [0.1        1.25956614]
 [0.2        0.72891593]
 [0.3        1.49954356]
 [0.32341667 0.96339983]]",0,0.509
8732112179,m,20,english,5,4,english,2024-01-30 13:04:55.138711,False,1,159,sounds\english\audio/english_756.wav,"[[  0.         -75.60908863]
 [  0.1         -4.30259752]
 [  0.2         20.94377522]
 [  0.3         10.45062111]
 [  0.32341667  86.50209298]]","[[0.         1.29894989]
 [0.1        0.61363685]
 [0.2        1.41793961]
 [0.3        1.73528762]
 [0.32341667 0.4791473 ]]",1,1.224
8732112179,m,20,english,5,4,english,2024-01-30 13:04:55.138711,False,1,160,sounds\english\audio/english_948.wav,"[[  0.          12.28616187]
 [  0.1         33.44634687]
 [  0.2         98.80566767]
 [  0.3        -93.57044844]
 [  0.32341667 -51.09398555]]","[[0.         1.33435242]
 [0.1        1.33862855]
 [0.2        1.25876505]
 [0.3        1.87938727]
 [0.32341667 1.88731406]]",1,2.011
8732112179,m,20,english,5,4,english,2024-01-30 13:04:55.138711,False,1,161,sounds\english\audio/english_265.wav,"[[  0.         -30.2287418 ]
 [  0.1         86.62283936]
 [  0.2        -21.47577863]
 [  0.3         84.9300577 ]
 [  0.32341667  59.52250756]]","[[0.         1.31067296]
 [0.1        0.87427745]
 [0.2        1.37620008]
 [0.3        0.45825557]
 [0.32341667 1.13518739]]",1,1.739
8732112179,m,20,english,5,4,english,2024-01-30 13:04:55.138711,False,1,162,sounds\english\audio/english_76.wav,"[[  0.          24.78743387]
 [  0.1         -7.95135802]
 [  0.2         -9.56689875]
 [  0.3        -78.25819759]
 [  0.32341667  26.4311908 ]]","[[0.         1.26829138]
 [0.1        1.4446717 ]
 [0.2        0.88177173]
 [0.3        1.63003096]
 [0.32341667 1.97074408]]",1,0.666
8732112179,m,20,english,5,4,english,2024-01-30 13:04:55.138711,False,1,163,sounds\english\audio/english_484.wav,"[[  0.          79.97188672]
 [  0.1        -84.58904822]
 [  0.2         70.2960477 ]
 [  0.3        -66.44520929]
 [  0.32341667 -78.91715359]]","[[0.         0.20745104]
 [0.1        1.46214797]
 [0.2        0.40821612]
 [0.3        1.23203415]
 [0.32341667 1.26593617]]",0,0.457
8732112179,m,20,english,5,4,english,2024-01-30 13:04:55.138711,False,1,164,sounds\english\audio/english_605.wav,"[[  0.         -82.65591545]
 [  0.1         35.78886654]
 [  0.2        -36.80716754]
 [  0.3         -4.39131435]
 [  0.32341667 -17.17702763]]","[[0.         0.90945233]
 [0.1        1.65178877]
 [0.2        0.21181898]
 [0.3        1.21754483]
 [0.32341667 1.60493484]]",0,0.994
8732112179,m,20,english,5,4,english,2024-01-30 13:04:55.138711,False,1,165,sounds\english\audio/english_694.wav,"[[  0.         -79.88370205]
 [  0.1        -58.02841319]
 [  0.2        -50.54988317]
 [  0.3        -20.79864769]
 [  0.32341667 -73.64916114]]","[[0.         0.99496101]
 [0.1        0.06406007]
 [0.2        0.5055253 ]
 [0.3        0.19498426]
 [0.32341667 0.36410653]]",1,1.203
8732112179,m,20,english,5,4,english,2024-01-30 13:04:55.138711,False,1,166,sounds\english\audio/english_370.wav,"[[  0.         -90.17078727]
 [  0.1        -71.99280791]
 [  0.2        -13.60727202]
 [  0.3         -0.93192742]
 [  0.32341667  33.27852394]]","[[0.         0.17796458]
 [0.1        1.08934715]
 [0.2        1.05914244]
 [0.3        1.87852505]
 [0.32341667 1.24161401]]",1,1.184
8732112179,m,20,english,5,4,english,2024-01-30 13:04:55.138711,False,1,167,sounds\english\audio/english_607.wav,"[[ 0.         46.6865757 ]
 [ 0.1        39.2269946 ]
 [ 0.2         9.54774619]
 [ 0.3        16.02187378]
 [ 0.32341667 75.62266759]]","[[0.         1.30575186]
 [0.1        1.04660061]
 [0.2        0.88274406]
 [0.3        1.5824547 ]
 [0.32341667 0.67660632]]",0,0.811
8732112179,m,20,english,5,4,english,2024-01-30 13:04:55.138711,False,1,168,sounds\english\audio/english_926.wav,"[[  0.         -21.84910749]
 [  0.1         92.62617727]
 [  0.2        -40.07927874]
 [  0.3         30.58508574]
 [  0.32341667 -68.98646438]]","[[0.         1.63725542]
 [0.1        0.91190035]
 [0.2        0.45967153]
 [0.3        0.64362954]
 [0.32341667 1.44788087]]",0,0.858
8732112179,m,20,english,5,4,english,2024-01-30 13:04:55.138711,False,1,169,sounds\english\audio/english_32.wav,"[[  0.          89.50349963]
 [  0.1         51.51128255]
 [  0.2        -58.32910347]
 [  0.3         15.96172744]
 [  0.32341667  84.40449403]]","[[0.         1.73304916]
 [0.1        0.02192789]
 [0.2        1.71493142]
 [0.3        1.28451373]
 [0.32341667 1.22971166]]",1,1.533
8732112179,m,20,english,5,4,english,2024-01-30 13:04:55.138711,False,1,170,sounds\english\audio/english_523.wav,"[[ 0.          8.07414344]
 [ 0.1        27.61667564]
 [ 0.2        12.25175146]
 [ 0.3         5.7333769 ]
 [ 0.32341667 77.72310536]]","[[0.         0.20594791]
 [0.1        1.87511385]
 [0.2        0.19246655]
 [0.3        0.42766967]
 [0.32341667 1.43882185]]",0,0.677
8732112179,m,20,english,5,4,english,2024-01-30 13:04:55.138711,False,1,171,sounds\english\audio/english_169.wav,"[[  0.          21.52556644]
 [  0.1        -62.21960884]
 [  0.2        -58.58818316]
 [  0.3         14.95103608]
 [  0.32341667  21.70814087]]","[[0.         0.24747868]
 [0.1        0.51530303]
 [0.2        1.14352058]
 [0.3        1.46694059]
 [0.32341667 1.67980684]]",1,0.45
8732112179,m,20,english,5,4,english,2024-01-30 13:04:55.138711,False,1,172,sounds\english\audio/english_314.wav,"[[  0.         -64.95449137]
 [  0.1         41.76232806]
 [  0.2         68.0199099 ]
 [  0.3        -18.86846342]
 [  0.32341667  -2.58545886]]","[[0.         1.33019215]
 [0.1        0.95010379]
 [0.2        0.0418164 ]
 [0.3        0.3847457 ]
 [0.32341667 1.31154336]]",1,1.275
8732112179,m,20,english,5,4,english,2024-01-30 13:04:55.138711,False,1,173,sounds\english\audio/english_857.wav,"[[  0.         -33.07031843]
 [  0.1         12.9349985 ]
 [  0.2          4.33682254]
 [  0.3         90.68056828]
 [  0.32341667  37.69781409]]","[[0.         1.04325491]
 [0.1        0.44078978]
 [0.2        1.36028147]
 [0.3        1.16905302]
 [0.32341667 1.24618942]]",1,1.328
8732112179,m,20,english,5,4,english,2024-01-30 13:04:55.138711,False,1,174,sounds\english\audio/english_170.wav,"[[ 0.          6.45066022]
 [ 0.1        -4.11198278]
 [ 0.2        96.59136675]
 [ 0.3        21.57070742]
 [ 0.32341667 94.47980818]]","[[0.         1.58910722]
 [0.1        0.3365331 ]
 [0.2        0.38643451]
 [0.3        1.58623933]
 [0.32341667 1.61968164]]",1,0.787
8732112179,m,20,english,5,4,english,2024-01-30 13:04:55.138711,False,1,175,sounds\english\audio/english_346.wav,"[[  0.          29.51078372]
 [  0.1         86.25753287]
 [  0.2         95.6553577 ]
 [  0.3        -65.97707071]
 [  0.32341667  49.79896228]]","[[0.         1.24489428]
 [0.1        1.77356048]
 [0.2        1.30862901]
 [0.3        0.68318311]
 [0.32341667 1.63073528]]",0,0.735
8732112179,m,20,english,5,4,english,2024-01-30 13:04:55.138711,False,1,176,sounds\english\audio/english_970.wav,"[[  0.          37.22911191]
 [  0.1         36.57191813]
 [  0.2         20.2344678 ]
 [  0.3        -86.31030026]
 [  0.32341667 -83.96880691]]","[[0.         0.60712849]
 [0.1        1.26781741]
 [0.2        1.29373459]
 [0.3        0.18112256]
 [0.32341667 1.07780169]]",0,1.257
8732112179,m,20,english,5,4,english,2024-01-30 13:04:55.138711,False,1,177,sounds\english\audio/english_696.wav,"[[  0.         -48.45243871]
 [  0.1         82.41340646]
 [  0.2         -7.53339347]
 [  0.3        -30.87957178]
 [  0.32341667  75.39947922]]","[[0.         0.15817179]
 [0.1        0.69939178]
 [0.2        1.28466279]
 [0.3        1.90686052]
 [0.32341667 0.63235415]]",1,0.452
8732112179,m,20,english,5,4,english,2024-01-30 13:04:55.138711,False,1,178,sounds\english\audio/english_102.wav,"[[  0.          32.71328306]
 [  0.1         59.73255369]
 [  0.2         -0.64397298]
 [  0.3        -37.18099902]
 [  0.32341667  41.63197766]]","[[0.         1.2311829 ]
 [0.1        0.25599615]
 [0.2        1.7526023 ]
 [0.3        1.98319627]
 [0.32341667 1.38410598]]",1,3.96
8732112179,m,20,english,5,4,english,2024-01-30 13:04:55.138711,False,1,179,sounds\english\audio/english_269.wav,"[[  0.          61.09556447]
 [  0.1         -3.97684721]
 [  0.2        -87.59080112]
 [  0.3         78.47165079]
 [  0.32341667 -52.74135522]]","[[0.         1.11606818]
 [0.1        1.55443041]
 [0.2        1.78173809]
 [0.3        1.73012946]
 [0.32341667 0.88090417]]",0,0.784
8732112179,m,20,english,5,4,english,2024-01-30 13:04:55.138711,False,1,180,sounds\english\audio/english_815.wav,"[[  0.         -76.1669867 ]
 [  0.1        -40.517901  ]
 [  0.2        -46.68959253]
 [  0.3        -79.23468646]
 [  0.32341667 -63.63497058]]","[[0.         0.29426078]
 [0.1        0.96858733]
 [0.2        0.83382199]
 [0.3        1.13727176]
 [0.32341667 0.09357312]]",0,0.831
8732112179,m,20,english,5,4,english,2024-01-30 13:04:55.138711,False,1,181,sounds\english\audio/english_84.wav,"[[  0.         -42.35488886]
 [  0.1         17.86576323]
 [  0.2        -56.36172821]
 [  0.3         69.8537656 ]
 [  0.32341667 -47.30652012]]","[[0.         0.45116064]
 [0.1        1.91320005]
 [0.2        1.53140363]
 [0.3        0.53091011]
 [0.32341667 1.59279301]]",0,0.152
8732112179,m,20,english,5,4,english,2024-01-30 13:04:55.138711,False,1,182,sounds\english\audio/english_600.wav,"[[  0.          37.30285492]
 [  0.1         57.58729363]
 [  0.2        -74.33256695]
 [  0.3        -35.711252  ]
 [  0.32341667   3.54782198]]","[[0.         1.23507691]
 [0.1        0.65453179]
 [0.2        1.70226061]
 [0.3        0.4723836 ]
 [0.32341667 0.49080622]]",0,0.203
8732112179,m,20,english,5,4,english,2024-01-30 13:04:55.138711,False,1,183,sounds\english\audio/english_785.wav,"[[  0.          41.51350967]
 [  0.1         26.23517368]
 [  0.2        -12.63822228]
 [  0.3        -30.66588474]
 [  0.32341667  26.08399401]]","[[0.         0.93543931]
 [0.1        1.17819894]
 [0.2        1.98833146]
 [0.3        0.80021218]
 [0.32341667 1.2737519 ]]",0,3.058
8732112179,m,20,english,5,4,english,2024-01-30 13:04:55.138711,False,1,184,sounds\english\audio/english_438.wav,"[[ 0.         31.75305261]
 [ 0.1        20.27112767]
 [ 0.2        66.65258945]
 [ 0.3        70.72003494]
 [ 0.32341667 59.11013505]]","[[0.         1.38451981]
 [0.1        1.99020027]
 [0.2        0.15645945]
 [0.3        1.37678514]
 [0.32341667 0.82730153]]",0,0.369
8732112179,m,20,english,5,4,english,2024-01-30 13:04:55.138711,False,1,185,sounds\english\audio/english_659.wav,"[[  0.         -86.13080632]
 [  0.1         39.51927718]
 [  0.2         -6.22185106]
 [  0.3          5.64287294]
 [  0.32341667  47.08694279]]","[[0.         0.77157019]
 [0.1        1.34569204]
 [0.2        0.71695874]
 [0.3        1.04110125]
 [0.32341667 1.84115141]]",0,0.334
8732112179,m,20,english,5,4,english,2024-01-30 13:04:55.138711,False,1,186,sounds\english\audio/english_982.wav,"[[  0.          12.44046596]
 [  0.1        -60.41666302]
 [  0.2        -35.31499742]
 [  0.3        -10.96739076]
 [  0.32341667  44.50624474]]","[[0.         0.81508625]
 [0.1        0.92712357]
 [0.2        0.77678916]
 [0.3        1.0294352 ]
 [0.32341667 1.1322674 ]]",1,0.771
8732112179,m,20,english,5,4,english,2024-01-30 13:04:55.138711,False,1,187,sounds\english\audio/english_227.wav,"[[  0.         -56.39318384]
 [  0.1         90.87442764]
 [  0.2        -39.94082392]
 [  0.3         31.5093861 ]
 [  0.32341667  70.38847456]]","[[0.         1.7541365 ]
 [0.1        0.66011804]
 [0.2        0.16454365]
 [0.3        0.63744506]
 [0.32341667 0.55874538]]",1,0.502
8732112179,m,20,english,5,4,english,2024-01-30 13:04:55.138711,False,1,188,sounds\english\audio/english_917.wav,"[[  0.          -2.28432431]
 [  0.1        -50.4941454 ]
 [  0.2         86.41176613]
 [  0.3        -50.97734163]
 [  0.32341667  97.13453513]]","[[0.         0.51220006]
 [0.1        0.3783057 ]
 [0.2        0.52629226]
 [0.3        0.68389314]
 [0.32341667 1.73708117]]",1,0.513
8732112179,m,20,english,5,4,english,2024-01-30 13:04:55.138711,False,1,189,sounds\english\audio/english_681.wav,"[[ 0.         65.45313908]
 [ 0.1        23.22224239]
 [ 0.2        44.35096717]
 [ 0.3        67.45757963]
 [ 0.32341667 55.5822091 ]]","[[0.         1.43173201]
 [0.1        1.64604346]
 [0.2        0.82186037]
 [0.3        0.26689352]
 [0.32341667 1.64490636]]",0,1.002
8732112179,m,20,english,5,4,english,2024-01-30 13:04:55.138711,False,1,190,sounds\english\audio/english_311.wav,"[[  0.         -35.59355899]
 [  0.1        -50.39310557]
 [  0.2        -53.37222601]
 [  0.3         72.25802658]
 [  0.32341667  48.72421008]]","[[0.         0.16094856]
 [0.1        1.33895436]
 [0.2        0.01028283]
 [0.3        0.48497386]
 [0.32341667 0.48591183]]",0,0.305
8732112179,m,20,english,5,4,english,2024-01-30 13:04:55.138711,False,1,191,sounds\english\audio/english_461.wav,"[[  0.         -99.86661298]
 [  0.1         65.11959058]
 [  0.2        -96.19635976]
 [  0.3         56.69155656]
 [  0.32341667 -82.13106063]]","[[0.         0.04975834]
 [0.1        1.27856071]
 [0.2        1.53618081]
 [0.3        1.97602464]
 [0.32341667 1.41647384]]",0,0.813
8732112179,m,20,english,5,4,english,2024-01-30 13:04:55.138711,False,1,192,sounds\english\audio/english_919.wav,"[[  0.         -78.03270024]
 [  0.1         24.9634274 ]
 [  0.2        -36.24618286]
 [  0.3        -67.38261266]
 [  0.32341667  86.21803917]]","[[0.         1.18744007]
 [0.1        0.32639994]
 [0.2        1.14830442]
 [0.3        0.75322619]
 [0.32341667 0.69239757]]",1,0.838
8732112179,m,20,english,5,4,english,2024-01-30 13:04:55.138711,False,1,193,sounds\english\audio/english_174.wav,"[[  0.         -14.93169449]
 [  0.1        -60.50222611]
 [  0.2        -88.67347191]
 [  0.3        -20.58504224]
 [  0.32341667 -52.28073567]]","[[0.         0.27768215]
 [0.1        0.13809097]
 [0.2        0.18584848]
 [0.3        1.46718454]
 [0.32341667 0.17567705]]",1,2.324
8732112179,m,20,english,5,4,english,2024-01-30 13:04:55.138711,False,1,194,sounds\english\audio/english_929.wav,"[[  0.          29.19700723]
 [  0.1         15.63825327]
 [  0.2          3.65085895]
 [  0.3        -91.18848108]
 [  0.32341667  53.29025089]]","[[0.         1.75028237]
 [0.1        0.16776534]
 [0.2        0.15899819]
 [0.3        0.41497916]
 [0.32341667 0.946821  ]]",1,0.617
8732112179,m,20,english,5,4,english,2024-01-30 13:04:55.138711,False,1,195,sounds\english\audio/english_18.wav,"[[ 0.00000000e+00 -6.19567004e+01]
 [ 1.00000000e-01  3.92027204e+01]
 [ 2.00000000e-01 -6.26834214e-02]
 [ 3.00000000e-01 -7.22820301e+01]
 [ 3.23416667e-01 -5.29459242e+01]]","[[0.         0.45038722]
 [0.1        1.56185221]
 [0.2        0.80652275]
 [0.3        0.39505163]
 [0.32341667 0.50402069]]",1,0.404
8732112179,m,20,english,5,4,english,2024-01-30 13:04:55.138711,False,1,196,sounds\english\audio/english_660.wav,"[[  0.         -18.17224728]
 [  0.1        -51.94390165]
 [  0.2        -79.57293034]
 [  0.3         67.99606973]
 [  0.32341667  -2.00416122]]","[[0.         0.25133372]
 [0.1        0.1756709 ]
 [0.2        0.660284  ]
 [0.3        1.08301436]
 [0.32341667 0.81155284]]",1,0.615
8732112179,m,20,english,5,4,english,2024-01-30 13:04:55.138711,False,1,197,sounds\english\audio/english_581.wav,"[[  0.          -4.1565262 ]
 [  0.1         84.55344465]
 [  0.2        -57.45750027]
 [  0.3        -14.35569009]
 [  0.32341667 -54.33758456]]","[[0.         0.01704603]
 [0.1        1.32903406]
 [0.2        1.58046526]
 [0.3        1.16633299]
 [0.32341667 1.20758605]]",0,2.224
8732112179,m,20,english,5,4,english,2024-01-30 13:04:55.138711,False,1,198,sounds\english\audio/english_326.wav,"[[  0.         -13.70476372]
 [  0.1         47.7156259 ]
 [  0.2         23.24839736]
 [  0.3         67.08212267]
 [  0.32341667  78.79356023]]","[[0.         1.64570887]
 [0.1        0.91266102]
 [0.2        0.36997562]
 [0.3        1.96258237]
 [0.32341667 1.01334204]]",0,0.979
8732112179,m,20,english,5,4,english,2024-01-30 13:04:55.138711,False,1,199,sounds\english\audio/english_75.wav,"[[  0.          -9.18091647]
 [  0.1        -62.02164907]
 [  0.2        -12.90623207]
 [  0.3         15.17089036]
 [  0.32341667  10.89352922]]","[[0.         0.92930856]
 [0.1        1.94000482]
 [0.2        1.2183621 ]
 [0.3        0.47349695]
 [0.32341667 1.02561006]]",1,0.478
8732112179,m,20,english,5,4,english,2024-01-30 13:04:55.138711,False,1,200,sounds\english\audio/english_291.wav,"[[  0.         -23.91479102]
 [  0.1        -31.34063508]
 [  0.2        -16.29866726]
 [  0.3         10.36632866]
 [  0.32341667   7.35722843]]","[[0.         1.25533579]
 [0.1        0.8599513 ]
 [0.2        1.40556138]
 [0.3        0.42924112]
 [0.32341667 0.61564446]]",1,0.542
8732112179,m,20,english,5,4,english,2024-01-30 13:04:55.138711,False,1,201,sounds\english\audio/english_518.wav,"[[  0.          52.37511869]
 [  0.1        -33.3490586 ]
 [  0.2        -71.20035434]
 [  0.3          6.23243823]
 [  0.32341667 -29.48660546]]","[[0.         0.23824141]
 [0.1        0.80559068]
 [0.2        1.24725456]
 [0.3        1.01334401]
 [0.32341667 1.51264586]]",1,0.476
8732112179,m,20,english,5,4,english,2024-01-30 13:04:55.138711,False,1,202,sounds\english\audio/english_630.wav,"[[  0.          97.25925287]
 [  0.1         76.95662127]
 [  0.2          5.01423186]
 [  0.3        -27.88706711]
 [  0.32341667  90.69966072]]","[[0.         0.34607754]
 [0.1        0.15996234]
 [0.2        1.73874617]
 [0.3        0.41181915]
 [0.32341667 0.77788697]]",1,1.188
8732112179,m,20,english,5,4,english,2024-01-30 13:04:55.138711,False,1,203,sounds\english\audio/english_421.wav,"[[ 0.         25.39012861]
 [ 0.1        49.11153532]
 [ 0.2        38.93723883]
 [ 0.3        -9.34286459]
 [ 0.32341667 -9.28476392]]","[[0.         1.47358925]
 [0.1        1.20920516]
 [0.2        0.72174872]
 [0.3        0.24556907]
 [0.32341667 0.87006143]]",0,0.413
8732112179,m,20,english,5,4,english,2024-01-30 13:04:55.138711,False,1,204,sounds\english\audio/english_138.wav,"[[  0.         -79.80620147]
 [  0.1        -15.42889109]
 [  0.2        -88.31677226]
 [  0.3         26.6486106 ]
 [  0.32341667 -42.18894711]]","[[0.         0.37063564]
 [0.1        0.81801141]
 [0.2        0.0634538 ]
 [0.3        1.85131452]
 [0.32341667 1.66059024]]",0,1.448
8732112179,m,20,english,5,4,english,2024-01-30 13:04:55.138711,False,1,205,sounds\english\audio/english_615.wav,"[[  0.          76.05955912]
 [  0.1         54.62950786]
 [  0.2        -31.02204933]
 [  0.3         -3.27946314]
 [  0.32341667  51.350795  ]]","[[0.         1.68553334]
 [0.1        1.5058876 ]
 [0.2        1.66676809]
 [0.3        1.09840801]
 [0.32341667 0.25314986]]",0,0.658
8732112179,m,20,english,5,4,english,2024-01-30 13:04:55.138711,False,1,206,sounds\english\audio/english_385.wav,"[[  0.         -55.07910634]
 [  0.1        -94.47680079]
 [  0.2         38.70414457]
 [  0.3        -46.17691   ]
 [  0.32341667   2.5941508 ]]","[[0.         1.75648555]
 [0.1        1.20856462]
 [0.2        0.98103352]
 [0.3        1.45745263]
 [0.32341667 0.88353815]]",0,0.18
8732112179,m,20,english,5,4,english,2024-01-30 13:04:55.138711,False,1,207,sounds\english\audio/english_822.wav,"[[ 0.         22.19463519]
 [ 0.1        46.02970585]
 [ 0.2        44.31281831]
 [ 0.3        27.24156044]
 [ 0.32341667 41.58842879]]","[[0.         1.34957498]
 [0.1        1.18534363]
 [0.2        0.88966115]
 [0.3        1.22476657]
 [0.32341667 0.51847317]]",0,0.441
8732112179,m,20,english,5,4,english,2024-01-30 13:04:55.138711,False,1,208,sounds\english\audio/english_62.wav,"[[  0.          17.28527913]
 [  0.1          8.63936001]
 [  0.2        -69.0074729 ]
 [  0.3        -18.85502465]
 [  0.32341667  59.46739627]]","[[0.         1.12530616]
 [0.1        1.09357984]
 [0.2        1.07648496]
 [0.3        0.36768209]
 [0.32341667 0.39033463]]",0,0.56
8732112179,m,20,english,5,4,english,2024-01-30 13:04:55.138711,False,1,209,sounds\english\audio/english_35.wav,"[[  0.         -35.14158545]
 [  0.1        -54.49669119]
 [  0.2         37.91149238]
 [  0.3        -55.38086503]
 [  0.32341667  54.77667999]]","[[0.         0.855771  ]
 [0.1        0.5452371 ]
 [0.2        1.65995376]
 [0.3        0.74505496]
 [0.32341667 0.83530932]]",0,0.153
8732112179,m,20,english,5,4,english,2024-01-30 13:04:55.138711,False,1,210,sounds\english\audio/english_70.wav,"[[  0.         -53.09237622]
 [  0.1         85.97526897]
 [  0.2         25.5645184 ]
 [  0.3          1.25172137]
 [  0.32341667  93.59431896]]","[[0.         1.21678364]
 [0.1        0.94111324]
 [0.2        1.03926055]
 [0.3        0.29519406]
 [0.32341667 0.80175783]]",1,0.483
8732112179,m,20,english,5,4,english,2024-01-30 13:04:55.138711,False,1,211,sounds\english\audio/english_288.wav,"[[  0.          35.15100251]
 [  0.1         49.55485069]
 [  0.2         28.604189  ]
 [  0.3         38.59633835]
 [  0.32341667 -98.9026904 ]]","[[0.         1.01330681]
 [0.1        0.90213232]
 [0.2        1.8181607 ]
 [0.3        1.82579698]
 [0.32341667 0.14571105]]",0,2.313
8732112179,m,20,english,5,4,english,2024-01-30 13:04:55.138711,False,1,212,sounds\english\audio/english_873.wav,"[[  0.          85.43762199]
 [  0.1        -27.24751419]
 [  0.2         -8.79829555]
 [  0.3        -97.88620301]
 [  0.32341667  49.57089273]]","[[0.         1.00056931]
 [0.1        0.47504393]
 [0.2        0.788147  ]
 [0.3        0.64075463]
 [0.32341667 0.87603086]]",0,0.428
8732112179,m,20,english,5,4,english,2024-01-30 13:04:55.138711,False,1,213,sounds\english\audio/english_257.wav,"[[  0.         -68.31428674]
 [  0.1        -13.90908686]
 [  0.2         54.08743226]
 [  0.3        -42.73693867]
 [  0.32341667  -1.03846516]]","[[0.         1.40239735]
 [0.1        1.49673114]
 [0.2        1.07658057]
 [0.3        0.27427112]
 [0.32341667 1.90516482]]",0,0.476
8732112179,m,20,english,5,4,english,2024-01-30 13:04:55.138711,False,1,214,sounds\english\audio/english_9.wav,"[[  0.          24.77706225]
 [  0.1         91.05524194]
 [  0.2         30.20964975]
 [  0.3        -69.66301283]
 [  0.32341667  -3.83240646]]","[[0.         1.13145128]
 [0.1        1.19326311]
 [0.2        1.50029029]
 [0.3        1.4622179 ]
 [0.32341667 1.9316504 ]]",0,0.322
8732112179,m,20,english,5,4,english,2024-01-30 13:04:55.138711,False,1,215,sounds\english\audio/english_370.wav,"[[  0.         -90.17078727]
 [  0.1        -71.99280791]
 [  0.2        -13.60727202]
 [  0.3         -0.93192742]
 [  0.32341667  33.27852394]]","[[0.         0.17796458]
 [0.1        1.08934715]
 [0.2        1.05914244]
 [0.3        1.87852505]
 [0.32341667 1.24161401]]",1,0.577
8732112179,m,20,english,5,4,english,2024-01-30 13:04:55.138711,False,1,216,sounds\english\audio/english_111.wav,"[[  0.          43.12539807]
 [  0.1         63.99665526]
 [  0.2         86.04570556]
 [  0.3        -25.76798659]
 [  0.32341667 -36.14422463]]","[[0.         1.84745579]
 [0.1        0.92577031]
 [0.2        0.31264784]
 [0.3        0.89352032]
 [0.32341667 0.32138535]]",0,0.801
8732112179,m,20,english,5,4,english,2024-01-30 13:04:55.138711,False,1,217,sounds\english\audio/english_443.wav,"[[  0.           0.608638  ]
 [  0.1         15.80398242]
 [  0.2        -53.8454718 ]
 [  0.3         32.36058062]
 [  0.32341667  41.23353215]]","[[0.         1.06022382]
 [0.1        1.02694767]
 [0.2        0.72801533]
 [0.3        1.22153209]
 [0.32341667 0.58841963]]",0,1.301
8732112179,m,20,english,5,4,english,2024-01-30 13:04:55.138711,False,1,218,sounds\english\audio/english_323.wav,"[[  0.          92.33188111]
 [  0.1          4.22577609]
 [  0.2        -35.48560344]
 [  0.3          7.73763769]
 [  0.32341667  55.62458321]]","[[0.         1.59668922]
 [0.1        1.75306106]
 [0.2        1.06071567]
 [0.3        1.9328625 ]
 [0.32341667 1.27347405]]",0,0.611
8732112179,m,20,english,5,4,english,2024-01-30 13:04:55.138711,False,1,219,sounds\english\audio/english_71.wav,"[[  0.         -89.06637534]
 [  0.1        -28.638437  ]
 [  0.2         -8.31899436]
 [  0.3         67.7820648 ]
 [  0.32341667   4.09606073]]","[[0.         0.37218892]
 [0.1        1.29479557]
 [0.2        1.34818575]
 [0.3        1.24266832]
 [0.32341667 1.38884894]]",0,0.172
8732112179,m,20,english,5,4,english,2024-01-30 13:04:55.138711,False,1,220,sounds\english\audio/english_187.wav,"[[  0.         -18.35695568]
 [  0.1         10.21632188]
 [  0.2          0.69047377]
 [  0.3         67.68385624]
 [  0.32341667  48.15291114]]","[[0.         0.61755768]
 [0.1        1.6626445 ]
 [0.2        0.70950015]
 [0.3        0.8856252 ]
 [0.32341667 1.92627472]]",0,0.851
8732112179,m,20,english,5,4,english,2024-01-30 13:04:55.138711,False,1,221,sounds\english\audio/english_829.wav,"[[  0.          60.30417439]
 [  0.1        -26.87459656]
 [  0.2         59.05286014]
 [  0.3        -38.64739237]
 [  0.32341667  68.61732932]]","[[0.         0.94286345]
 [0.1        0.76756767]
 [0.2        1.50609211]
 [0.3        0.33518122]
 [0.32341667 1.40687349]]",0,0.801
8732112179,m,20,english,5,4,english,2024-01-30 13:04:55.138711,False,1,222,sounds\english\audio/english_445.wav,"[[  0.          88.00598922]
 [  0.1         96.51328737]
 [  0.2         29.11093561]
 [  0.3         69.6076589 ]
 [  0.32341667 -59.73938179]]","[[0.         1.42174052]
 [0.1        1.49122509]
 [0.2        0.62095286]
 [0.3        1.14630865]
 [0.32341667 1.38538671]]",0,1.38
8732112179,m,20,english,5,4,english,2024-01-30 13:04:55.138711,False,1,223,sounds\english\audio/english_24.wav,"[[ 0.         83.82729659]
 [ 0.1        -2.54724082]
 [ 0.2        88.70909739]
 [ 0.3        48.93770926]
 [ 0.32341667 53.25190048]]","[[0.         0.31203725]
 [0.1        1.56948954]
 [0.2        0.87333864]
 [0.3        0.88535019]
 [0.32341667 0.66112496]]",0,0.373
8732112179,m,20,english,5,4,english,2024-01-30 13:04:55.138711,False,1,224,sounds\english\audio/english_609.wav,"[[  0.          93.61263388]
 [  0.1         38.40290552]
 [  0.2        -21.94770243]
 [  0.3        -11.92302894]
 [  0.32341667  30.65806027]]","[[0.         0.51617504]
 [0.1        0.56544547]
 [0.2        0.43418402]
 [0.3        1.38818447]
 [0.32341667 1.36410066]]",0,0.422
8732112179,m,20,english,5,4,english,2024-01-30 13:04:55.138711,False,1,225,sounds\english\audio/english_407.wav,"[[  0.         -13.68776922]
 [  0.1        -57.11899702]
 [  0.2         62.94325807]
 [  0.3        -27.77030003]
 [  0.32341667 -61.90605897]]","[[0.         0.77658743]
 [0.1        1.53398674]
 [0.2        0.70379875]
 [0.3        0.72470084]
 [0.32341667 0.771678  ]]",0,0.746
8732112179,m,20,english,5,4,english,2024-01-30 13:04:55.138711,False,1,226,sounds\english\audio/english_93.wav,"[[  0.         -63.58558414]
 [  0.1         47.93190562]
 [  0.2         74.1463043 ]
 [  0.3         46.42515129]
 [  0.32341667 -19.17332826]]","[[0.         0.84265136]
 [0.1        0.45441634]
 [0.2        1.33476805]
 [0.3        0.61821532]
 [0.32341667 1.94889868]]",1,0.913
8732112179,m,20,english,5,4,english,2024-01-30 13:04:55.138711,False,1,227,sounds\english\audio/english_129.wav,"[[  0.          80.17800931]
 [  0.1          6.7929614 ]
 [  0.2         51.03188375]
 [  0.3        -14.28174581]
 [  0.32341667  32.60771632]]","[[0.         1.16690044]
 [0.1        1.89220933]
 [0.2        1.40122633]
 [0.3        0.72131347]
 [0.32341667 1.30692003]]",0,0.626
8732112179,m,20,english,5,4,english,2024-01-30 13:04:55.138711,False,1,228,sounds\english\audio/english_219.wav,"[[  0.          38.40040381]
 [  0.1        -26.23926727]
 [  0.2        -57.67558578]
 [  0.3         50.56926795]
 [  0.32341667  64.39220397]]","[[0.         1.09142553]
 [0.1        0.5740428 ]
 [0.2        1.19056911]
 [0.3        1.87089358]
 [0.32341667 1.06933149]]",1,2.244
8732112179,m,20,english,5,4,english,2024-01-30 13:04:55.138711,False,1,229,sounds\english\audio/english_44.wav,"[[  0.         -68.86201344]
 [  0.1         36.61833882]
 [  0.2        -60.65796264]
 [  0.3        -99.582901  ]
 [  0.32341667  68.59920212]]","[[0.         1.38154723]
 [0.1        0.11193842]
 [0.2        0.83798569]
 [0.3        0.3073865 ]
 [0.32341667 1.10922951]]",1,0.731
8732112179,m,20,english,5,4,english,2024-01-30 13:04:55.138711,False,1,230,sounds\english\audio/english_159.wav,"[[  0.         -83.7072706 ]
 [  0.1        -62.69238784]
 [  0.2         22.09248507]
 [  0.3        -80.94681782]
 [  0.32341667 -55.76861956]]","[[0.         0.09138871]
 [0.1        0.63335487]
 [0.2        1.23550763]
 [0.3        1.83356136]
 [0.32341667 0.76796393]]",0,1.195
8732112179,m,20,english,5,4,english,2024-01-30 13:04:55.138711,False,1,231,sounds\english\audio/english_159.wav,"[[  0.         -83.7072706 ]
 [  0.1        -62.69238784]
 [  0.2         22.09248507]
 [  0.3        -80.94681782]
 [  0.32341667 -55.76861956]]","[[0.         0.09138871]
 [0.1        0.63335487]
 [0.2        1.23550763]
 [0.3        1.83356136]
 [0.32341667 0.76796393]]",1,2.757
8732112179,m,20,english,5,4,english,2024-01-30 13:04:55.138711,False,1,232,sounds\english\audio/english_585.wav,"[[  0.         -47.47167609]
 [  0.1        -85.73018253]
 [  0.2          4.69567907]
 [  0.3         51.83381109]
 [  0.32341667  14.12777642]]","[[0.         0.91486293]
 [0.1        0.8051019 ]
 [0.2        1.25289508]
 [0.3        0.83258124]
 [0.32341667 1.43411439]]",1,0.724
8732112179,m,20,english,5,4,english,2024-01-30 13:04:55.138711,False,1,233,sounds\english\audio/english_655.wav,"[[  0.          84.9811401 ]
 [  0.1         70.1996811 ]
 [  0.2         -5.60681941]
 [  0.3        -33.00324328]
 [  0.32341667  24.65490624]]","[[0.         1.09123398]
 [0.1        0.51840547]
 [0.2        0.58569322]
 [0.3        1.11132849]
 [0.32341667 0.28465301]]",0,2.148
8732112179,m,20,english,5,4,english,2024-01-30 13:04:55.138711,False,1,234,sounds\english\audio/english_691.wav,"[[  0.          28.79078449]
 [  0.1         99.1184909 ]
 [  0.2        -54.13985733]
 [  0.3        -85.36319246]
 [  0.32341667 -73.61621094]]","[[0.         1.07683297]
 [0.1        1.07376069]
 [0.2        0.28522735]
 [0.3        0.85701066]
 [0.32341667 1.71165398]]",1,1.129
8732112179,m,20,english,5,4,english,2024-01-30 13:04:55.138711,False,1,235,sounds\english\audio/english_675.wav,"[[  0.         -31.75128323]
 [  0.1         60.52679753]
 [  0.2        -22.8835824 ]
 [  0.3         -6.32596177]
 [  0.32341667 -61.06491024]]","[[0.         1.35198954]
 [0.1        1.32787853]
 [0.2        1.57632911]
 [0.3        0.80140737]
 [0.32341667 0.99818917]]",0,0.719
8732112179,m,20,english,5,4,english,2024-01-30 13:04:55.138711,False,1,236,sounds\english\audio/english_742.wav,"[[  0.          12.62363586]
 [  0.1         23.02085171]
 [  0.2         23.36423086]
 [  0.3         97.70614946]
 [  0.32341667 -25.72861775]]","[[0.         1.26368295]
 [0.1        0.7448394 ]
 [0.2        0.05261082]
 [0.3        1.01748925]
 [0.32341667 0.88645775]]",0,0.8
8732112179,m,20,english,5,4,english,2024-01-30 13:04:55.138711,False,1,237,sounds\english\audio/english_896.wav,"[[  0.         -76.63716622]
 [  0.1        -73.11298951]
 [  0.2         48.53347054]
 [  0.3         -4.46661278]
 [  0.32341667 -44.69533701]]","[[0.         1.08893336]
 [0.1        0.41748987]
 [0.2        0.32012442]
 [0.3        0.63387312]
 [0.32341667 1.27766005]]",1,0.908
8732112179,m,20,english,5,4,english,2024-01-30 13:04:55.138711,False,1,238,sounds\english\audio/english_903.wav,"[[  0.          73.58848698]
 [  0.1        -95.58060262]
 [  0.2         17.41642173]
 [  0.3         94.35223882]
 [  0.32341667 -49.48803877]]","[[0.         0.30588109]
 [0.1        0.88963747]
 [0.2        1.73634476]
 [0.3        0.71257749]
 [0.32341667 1.4824474 ]]",1,0.994
8732112179,m,20,english,5,4,english,2024-01-30 13:04:55.138711,False,1,239,sounds\english\audio/english_382.wav,"[[  0.         -83.35497559]
 [  0.1          7.83115402]
 [  0.2         77.46115257]
 [  0.3         89.755233  ]
 [  0.32341667 -36.08570956]]","[[0.         1.24516413]
 [0.1        0.59675254]
 [0.2        0.61036026]
 [0.3        1.95554414]
 [0.32341667 1.60845727]]",1,0.394
8732112179,m,20,english,5,4,english,2024-01-30 13:04:55.138711,False,1,240,sounds\english\audio/english_954.wav,"[[  0.         -31.7323473 ]
 [  0.1         26.42807939]
 [  0.2         22.25968883]
 [  0.3        -25.30270181]
 [  0.32341667  46.97185243]]","[[0.         1.78985335]
 [0.1        1.38754521]
 [0.2        1.54917493]
 [0.3        1.54718362]
 [0.32341667 0.09638929]]",0,0.418
8732112179,m,20,english,5,4,english,2024-01-30 13:04:55.138711,False,1,241,sounds\english\audio/english_465.wav,"[[  0.          40.04056426]
 [  0.1        -97.28817369]
 [  0.2        -58.72937184]
 [  0.3         82.2448524 ]
 [  0.32341667 -29.20233879]]","[[0.         1.33778995]
 [0.1        0.1899685 ]
 [0.2        1.35609136]
 [0.3        1.94032164]
 [0.32341667 0.27858753]]",1,0.627
8732112179,m,20,english,5,4,english,2024-01-30 13:04:55.138711,False,1,242,sounds\english\audio/english_464.wav,"[[  0.          53.08614354]
 [  0.1         30.21863436]
 [  0.2        -72.79337117]
 [  0.3         91.0452741 ]
 [  0.32341667 -31.40181873]]","[[0.         0.76512863]
 [0.1        1.75958979]
 [0.2        0.91412587]
 [0.3        1.02089091]
 [0.32341667 1.37846458]]",0,0.274
8732112179,m,20,english,5,4,english,2024-01-30 13:04:55.138711,False,1,243,sounds\english\audio/english_413.wav,"[[  0.          -9.66675054]
 [  0.1         15.27504309]
 [  0.2        -94.93171401]
 [  0.3        -42.87800999]
 [  0.32341667 -63.39385234]]","[[0.         1.82887045]
 [0.1        0.80668743]
 [0.2        0.90586838]
 [0.3        1.3937681 ]
 [0.32341667 0.34165264]]",0,0.838
8732112179,m,20,english,5,4,english,2024-01-30 13:04:55.138711,False,1,244,sounds\english\audio/english_174.wav,"[[  0.         -14.93169449]
 [  0.1        -60.50222611]
 [  0.2        -88.67347191]
 [  0.3        -20.58504224]
 [  0.32341667 -52.28073567]]","[[0.         0.27768215]
 [0.1        0.13809097]
 [0.2        0.18584848]
 [0.3        1.46718454]
 [0.32341667 0.17567705]]",1,1.07
8732112179,m,20,english,5,4,english,2024-01-30 13:04:55.138711,False,1,245,sounds\english\audio/english_289.wav,"[[  0.         -55.97739865]
 [  0.1        -97.9801122 ]
 [  0.2         44.28679287]
 [  0.3        -74.0895039 ]
 [  0.32341667 -44.25845537]]","[[0.         0.95213243]
 [0.1        0.81858491]
 [0.2        1.16094748]
 [0.3        0.92969459]
 [0.32341667 0.41504245]]",0,0.333
8732112179,m,20,english,5,4,english,2024-01-30 13:04:55.138711,False,1,246,sounds\english\audio/english_527.wav,"[[  0.         -32.70996179]
 [  0.1        -61.96334317]
 [  0.2         86.46317242]
 [  0.3        -18.9429262 ]
 [  0.32341667 -59.75355058]]","[[0.         0.06646481]
 [0.1        1.75268105]
 [0.2        0.41061726]
 [0.3        1.43024268]
 [0.32341667 0.73468543]]",0,0.401
8732112179,m,20,english,5,4,english,2024-01-30 13:04:55.138711,False,1,247,sounds\english\audio/english_343.wav,"[[  0.         -26.15456552]
 [  0.1         -4.26522308]
 [  0.2         55.3227334 ]
 [  0.3        -26.26518208]
 [  0.32341667 -18.3065251 ]]","[[0.         0.99905336]
 [0.1        0.59066439]
 [0.2        1.69088488]
 [0.3        1.70645599]
 [0.32341667 0.13143106]]",1,0.318
8732112179,m,20,english,5,4,english,2024-01-30 13:04:55.138711,False,1,248,sounds\english\audio/english_733.wav,"[[  0.         -77.09135463]
 [  0.1        -30.68901019]
 [  0.2        -27.18135709]
 [  0.3        -10.74804936]
 [  0.32341667 -57.14773718]]","[[0.         1.21028291]
 [0.1        1.14931675]
 [0.2        1.68866455]
 [0.3        0.29390693]
 [0.32341667 0.43305962]]",1,1.006
8732112179,m,20,english,5,4,english,2024-01-30 13:04:55.138711,False,1,249,sounds\english\audio/english_443.wav,"[[  0.           0.608638  ]
 [  0.1         15.80398242]
 [  0.2        -53.8454718 ]
 [  0.3         32.36058062]
 [  0.32341667  41.23353215]]","[[0.         1.06022382]
 [0.1        1.02694767]
 [0.2        0.72801533]
 [0.3        1.22153209]
 [0.32341667 0.58841963]]",0,0.51
8732112179,m,20,english,5,4,english,2024-01-30 13:04:55.138711,False,1,250,sounds\english\audio/english_640.wav,"[[  0.          74.95875769]
 [  0.1         87.73764633]
 [  0.2        -71.36544648]
 [  0.3         11.07583082]
 [  0.32341667  18.32643638]]","[[0.         1.81273707]
 [0.1        1.50076703]
 [0.2        0.25286143]
 [0.3        0.53181051]
 [0.32341667 0.76351343]]",0,0.854
8732112179,m,20,english,5,4,english,2024-01-30 13:04:55.138711,False,1,251,sounds\english\audio/english_394.wav,"[[ 0.         73.08757955]
 [ 0.1         5.60908311]
 [ 0.2        76.56705043]
 [ 0.3        18.85166324]
 [ 0.32341667  8.45052692]]","[[0.         1.29313131]
 [0.1        0.62691873]
 [0.2        1.4938005 ]
 [0.3        1.2266925 ]
 [0.32341667 0.67844158]]",1,0.621
8732112179,m,20,english,5,4,english,2024-01-30 13:04:55.138711,False,1,252,sounds\english\audio/english_67.wav,"[[  0.          70.16279698]
 [  0.1         33.8182948 ]
 [  0.2        -49.10498957]
 [  0.3         -4.93823124]
 [  0.32341667  24.09614703]]","[[0.         0.73199358]
 [0.1        0.88382403]
 [0.2        1.67993254]
 [0.3        0.24455532]
