subj,sex,age,language,english,french,native_lang,date,practice,block,trial,stim,pitch,stretch,response,rt
8768944929,m,21,english,5,4,english,2024-02-01 10:32:41.968799,False,2,253,sounds\english\audio/english_743.wav,"[[  0.         -28.24983145]
 [  0.1         71.30498545]
 [  0.2        -89.00652632]
 [  0.3          3.43441779]
 [  0.32341667 -16.71659348]]","[[0.         1.42102626]
 [0.1        0.84283155]
 [0.2        0.82757129]
 [0.3        1.38808557]
 [0.32341667 0.28501565]]",0,0.352
8768944929,m,21,english,5,4,english,2024-02-01 10:32:41.968799,False,2,254,sounds\english\audio/english_709.wav,"[[  0.         -57.85840644]
 [  0.1         -9.03046344]
 [  0.2        -83.08592789]
 [  0.3        -30.28779026]
 [  0.32341667 -42.69418167]]","[[0.         1.64294201]
 [0.1        1.39808038]
 [0.2        1.46645034]
 [0.3        1.11724372]
 [0.32341667 0.30195694]]",0,1.055
8768944929,m,21,english,5,4,english,2024-02-01 10:32:41.968799,False,2,255,sounds\english\audio/english_391.wav,"[[  0.          67.64906061]
 [  0.1         79.28195584]
 [  0.2         62.27299227]
 [  0.3        -11.10764883]
 [  0.32341667  57.41338752]]","[[0.         0.41951577]
 [0.1        0.03526883]
 [0.2        0.81828659]
 [0.3        1.2900604 ]
 [0.32341667 1.95373865]]",1,0.341
8768944929,m,21,english,5,4,english,2024-02-01 10:32:41.968799,False,2,256,sounds\english\audio/english_326.wav,"[[  0.         -13.70476372]
 [  0.1         47.7156259 ]
 [  0.2         23.24839736]
 [  0.3         67.08212267]
 [  0.32341667  78.79356023]]","[[0.         1.64570887]
 [0.1        0.91266102]
 [0.2        0.36997562]
 [0.3        1.96258237]
 [0.32341667 1.01334204]]",0,0.092
8768944929,m,21,english,5,4,english,2024-02-01 10:32:41.968799,False,2,257,sounds\english\audio/english_516.wav,"[[  0.         -37.49134217]
 [  0.1         56.61653956]
 [  0.2         60.98574822]
 [  0.3         -0.52682824]
 [  0.32341667 -50.41932267]]","[[0.         0.47483782]
 [0.1        1.0523806 ]
 [0.2        0.59798137]
 [0.3        0.6957238 ]
 [0.32341667 1.76373844]]",0,0.295
8768944929,m,21,english,5,4,english,2024-02-01 10:32:41.968799,False,2,258,sounds\english\audio/english_328.wav,"[[  0.         -24.96515822]
 [  0.1         36.64267249]
 [  0.2        -93.60804347]
 [  0.3          9.86556644]
 [  0.32341667 -17.13685423]]","[[0.         0.68772771]
 [0.1        0.30369637]
 [0.2        1.16330199]
 [0.3        0.69001341]
 [0.32341667 0.54642887]]",0,0.27
8768944929,m,21,english,5,4,english,2024-02-01 10:32:41.968799,False,2,259,sounds\english\audio/english_948.wav,"[[  0.          12.28616187]
 [  0.1         33.44634687]
 [  0.2         98.80566767]
 [  0.3        -93.57044844]
 [  0.32341667 -51.09398555]]","[[0.         1.33435242]
 [0.1        1.33862855]
 [0.2        1.25876505]
 [0.3        1.87938727]
 [0.32341667 1.88731406]]",0,0.121
8768944929,m,21,english,5,4,english,2024-02-01 10:32:41.968799,False,2,260,sounds\english\audio/english_880.wav,"[[  0.           3.17154152]
 [  0.1        -74.02271749]
 [  0.2         46.15952764]
 [  0.3          4.14106927]
 [  0.32341667  26.36707366]]","[[0.         0.81183988]
 [0.1        1.44061269]
 [0.2        0.42884863]
 [0.3        1.93838261]
 [0.32341667 1.4503687 ]]",0,0.11
8768944929,m,21,english,5,4,english,2024-02-01 10:32:41.968799,False,2,261,sounds\english\audio/english_464.wav,"[[  0.          53.08614354]
 [  0.1         30.21863436]
 [  0.2        -72.79337117]
 [  0.3         91.0452741 ]
 [  0.32341667 -31.40181873]]","[[0.         0.76512863]
 [0.1        1.75958979]
 [0.2        0.91412587]
 [0.3        1.02089091]
 [0.32341667 1.37846458]]",1,0.206
8768944929,m,21,english,5,4,english,2024-02-01 10:32:41.968799,False,2,262,sounds\english\audio/english_716.wav,"[[  0.         -41.01159081]
 [  0.1        -51.78631031]
 [  0.2        -25.7252513 ]
 [  0.3         78.18950514]
 [  0.32341667 -26.78025651]]","[[0.         1.70683796]
 [0.1        1.57787804]
 [0.2        1.76538287]
 [0.3        1.34280163]
 [0.32341667 1.89346788]]",1,0.123
8768944929,m,21,english,5,4,english,2024-02-01 10:32:41.968799,False,2,263,sounds\english\audio/english_966.wav,"[[  0.          23.00954068]
 [  0.1         -2.7733657 ]
 [  0.2         -6.00176123]
 [  0.3        -64.80320904]
 [  0.32341667  94.15296916]]","[[0.         1.02848684]
 [0.1        1.22612364]
 [0.2        0.03461529]
 [0.3        0.22357585]
 [0.32341667 0.55383001]]",1,0.345
8768944929,m,21,english,5,4,english,2024-02-01 10:32:41.968799,False,2,264,sounds\english\audio/english_679.wav,"[[ 0.         37.61966445]
 [ 0.1        51.99791738]
 [ 0.2        47.28862711]
 [ 0.3        96.96405016]
 [ 0.32341667 17.22990972]]","[[0.         0.05085037]
 [0.1        0.83446012]
 [0.2        0.17034906]
 [0.3        1.15010704]
 [0.32341667 1.32170415]]",0,0.618
8768944929,m,21,english,5,4,english,2024-02-01 10:32:41.968799,False,2,265,sounds\english\audio/english_404.wav,"[[  0.          32.93077195]
 [  0.1         51.79107477]
 [  0.2        -61.91466198]
 [  0.3         33.45957754]
 [  0.32341667 -82.23793256]]","[[0.         0.80618862]
 [0.1        1.03327995]
 [0.2        1.39590152]
 [0.3        1.8615638 ]
 [0.32341667 0.80137687]]",0,0.114
8768944929,m,21,english,5,4,english,2024-02-01 10:32:41.968799,False,2,266,sounds\english\audio/english_264.wav,"[[  0.          16.10521774]
 [  0.1        -43.55481907]
 [  0.2        -16.87093852]
 [  0.3        -81.41755984]
 [  0.32341667 -76.00277997]]","[[0.         1.02407609]
 [0.1        1.4393598 ]
 [0.2        1.31552174]
 [0.3        1.17516842]
 [0.32341667 0.613195  ]]",0,0.212
8768944929,m,21,english,5,4,english,2024-02-01 10:32:41.968799,False,2,267,sounds\english\audio/english_542.wav,"[[  0.         -75.53633957]
 [  0.1        -65.83593262]
 [  0.2        -66.8010443 ]
 [  0.3         89.94318033]
 [  0.32341667 -28.80984484]]","[[0.         0.40538048]
 [0.1        1.98560632]
 [0.2        1.18970355]
 [0.3        1.00543009]
 [0.32341667 1.15995836]]",0,0.224
8768944929,m,21,english,5,4,english,2024-02-01 10:32:41.968799,False,2,268,sounds\english\audio/english_271.wav,"[[  0.          24.41564841]
 [  0.1        -64.42577909]
 [  0.2         32.27025317]
 [  0.3         58.71212772]
 [  0.32341667  46.7300547 ]]","[[0.         0.25667552]
 [0.1        1.20221217]
 [0.2        0.24658485]
 [0.3        1.57844265]
 [0.32341667 1.00400066]]",1,0.78
8768944929,m,21,english,5,4,english,2024-02-01 10:32:41.968799,False,2,269,sounds\english\audio/english_873.wav,"[[  0.          85.43762199]
 [  0.1        -27.24751419]
 [  0.2         -8.79829555]
 [  0.3        -97.88620301]
 [  0.32341667  49.57089273]]","[[0.         1.00056931]
 [0.1        0.47504393]
 [0.2        0.788147  ]
 [0.3        0.64075463]
 [0.32341667 0.87603086]]",0,0.538
8768944929,m,21,english,5,4,english,2024-02-01 10:32:41.968799,False,2,270,sounds\english\audio/english_876.wav,"[[  0.         -20.36884991]
 [  0.1        -12.16725052]
 [  0.2        -26.42868614]
 [  0.3        -15.16942384]
 [  0.32341667 -52.65446315]]","[[0.         0.97958319]
 [0.1        0.93484439]
 [0.2        0.43422731]
 [0.3        0.12359811]
 [0.32341667 1.31629037]]",0,0.325
8768944929,m,21,english,5,4,english,2024-02-01 10:32:41.968799,False,2,271,sounds\english\audio/english_266.wav,"[[  0.          16.70772117]
 [  0.1        -61.82971906]
 [  0.2        -31.41060896]
 [  0.3         -8.94045194]
 [  0.32341667 -27.43066022]]","[[0.         0.81064175]
 [0.1        1.48442032]
 [0.2        1.39445033]
 [0.3        1.01594082]
 [0.32341667 0.75934284]]",0,0.355
8768944929,m,21,english,5,4,english,2024-02-01 10:32:41.968799,False,2,272,sounds\english\audio/english_344.wav,"[[  0.         -81.18103124]
 [  0.1        -15.12635331]
 [  0.2         92.11407185]
 [  0.3        -26.28325028]
 [  0.32341667 -10.89648072]]","[[0.         1.80730522]
 [0.1        1.30606229]
 [0.2        0.89739403]
 [0.3        0.17834637]
 [0.32341667 0.48618419]]",1,0.673
8768944929,m,21,english,5,4,english,2024-02-01 10:32:41.968799,False,2,273,sounds\english\audio/english_299.wav,"[[  0.          -2.55977829]
 [  0.1          1.77446255]
 [  0.2        -18.83457859]
 [  0.3        -71.88845024]
 [  0.32341667  99.76623745]]","[[0.         0.95716625]
 [0.1        1.43363845]
 [0.2        1.1421669 ]
 [0.3        1.57148089]
 [0.32341667 1.70410623]]",1,0.601
8768944929,m,21,english,5,4,english,2024-02-01 10:32:41.968799,False,2,274,sounds\english\audio/english_271.wav,"[[  0.          24.41564841]
 [  0.1        -64.42577909]
 [  0.2         32.27025317]
 [  0.3         58.71212772]
 [  0.32341667  46.7300547 ]]","[[0.         0.25667552]
 [0.1        1.20221217]
 [0.2        0.24658485]
 [0.3        1.57844265]
 [0.32341667 1.00400066]]",1,0.221
8768944929,m,21,english,5,4,english,2024-02-01 10:32:41.968799,False,2,275,sounds\english\audio/english_313.wav,"[[  0.          63.86599335]
 [  0.1        -55.89800258]
 [  0.2         90.86254046]
 [  0.3          0.53087649]
 [  0.32341667 -69.87913817]]","[[0.         0.35841412]
 [0.1        0.35021793]
 [0.2        1.77750413]
 [0.3        1.87396687]
 [0.32341667 1.16176786]]",1,1.284
8768944929,m,21,english,5,4,english,2024-02-01 10:32:41.968799,False,2,276,sounds\english\audio/english_726.wav,"[[  0.          76.65318619]
 [  0.1         62.97746083]
 [  0.2        -20.72245964]
 [  0.3         42.64953343]
 [  0.32341667  23.5514061 ]]","[[0.         0.71374833]
 [0.1        1.94407191]
 [0.2        0.55951675]
 [0.3        0.7826891 ]
 [0.32341667 0.11592549]]",0,0.234
8768944929,m,21,english,5,4,english,2024-02-01 10:32:41.968799,False,2,277,sounds\english\audio/english_897.wav,"[[  0.          -6.17515852]
 [  0.1        -25.56252799]
 [  0.2        -51.51756482]
 [  0.3        -57.3776393 ]
 [  0.32341667 -65.82780913]]","[[0.         1.45954458]
 [0.1        1.4662158 ]
 [0.2        1.09304129]
 [0.3        1.17713492]
 [0.32341667 1.23726335]]",0,0.054
8768944929,m,21,english,5,4,english,2024-02-01 10:32:41.968799,False,2,278,sounds\english\audio/english_170.wav,"[[ 0.          6.45066022]
 [ 0.1        -4.11198278]
 [ 0.2        96.59136675]
 [ 0.3        21.57070742]
 [ 0.32341667 94.47980818]]","[[0.         1.58910722]
 [0.1        0.3365331 ]
 [0.2        0.38643451]
 [0.3        1.58623933]
 [0.32341667 1.61968164]]",0,0.284
8768944929,m,21,english,5,4,english,2024-02-01 10:32:41.968799,False,2,279,sounds\english\audio/english_959.wav,"[[  0.         -78.42285057]
 [  0.1          6.44734251]
 [  0.2         20.74966326]
 [  0.3        -29.69680039]
 [  0.32341667  34.2282551 ]]","[[0.         1.71892855]
 [0.1        1.96402951]
 [0.2        0.26247596]
 [0.3        1.29464598]
 [0.32341667 1.77868038]]",0,0.519
8768944929,m,21,english,5,4,english,2024-02-01 10:32:41.968799,False,2,280,sounds\english\audio/english_858.wav,"[[  0.          45.12570132]
 [  0.1        -46.71359417]
 [  0.2        -60.32464978]
 [  0.3        -70.46241098]
 [  0.32341667  76.51169453]]","[[0.         0.50395823]
 [0.1        1.50658612]
 [0.2        0.86887416]
 [0.3        0.20520469]
 [0.32341667 1.05885662]]",1,0.116
8768944929,m,21,english,5,4,english,2024-02-01 10:32:41.968799,False,2,281,sounds\english\audio/english_781.wav,"[[  0.          22.64916165]
 [  0.1          6.89582518]
 [  0.2        -79.07711894]
 [  0.3         66.534152  ]
 [  0.32341667  93.30494506]]","[[0.         0.31928057]
 [0.1        1.4040275 ]
 [0.2        0.86558079]
 [0.3        0.14510309]
 [0.32341667 0.79620595]]",0,0.547
8768944929,m,21,english,5,4,english,2024-02-01 10:32:41.968799,False,2,282,sounds\english\audio/english_898.wav,"[[  0.          77.23607787]
 [  0.1        -36.99854877]
 [  0.2         16.09723403]
 [  0.3         29.12208023]
 [  0.32341667 -69.45423228]]","[[0.         0.41308158]
 [0.1        1.59324842]
 [0.2        1.42339693]
 [0.3        1.17478291]
 [0.32341667 1.88393163]]",1,0.26
8768944929,m,21,english,5,4,english,2024-02-01 10:32:41.968799,False,2,283,sounds\english\audio/english_308.wav,"[[  0.          71.04817524]
 [  0.1        -29.23230128]
 [  0.2        -23.90252129]
 [  0.3        -20.50746627]
 [  0.32341667 -25.31970697]]","[[0.         1.27905886]
 [0.1        0.28593244]
 [0.2        0.87298087]
 [0.3        0.50431278]
 [0.32341667 1.06118321]]",1,0.405
8768944929,m,21,english,5,4,english,2024-02-01 10:32:41.968799,False,2,284,sounds\english\audio/english_256.wav,"[[  0.          22.60769813]
 [  0.1        -95.01444593]
 [  0.2        -19.91310746]
 [  0.3         -6.39209363]
 [  0.32341667  24.02209282]]","[[0.         1.84037168]
 [0.1        0.47687766]
 [0.2        0.85339151]
 [0.3        0.75097161]
 [0.32341667 1.98695073]]",1,0.468
8768944929,m,21,english,5,4,english,2024-02-01 10:32:41.968799,False,2,285,sounds\english\audio/english_80.wav,"[[  0.          33.21374474]
 [  0.1        -72.2618742 ]
 [  0.2        -29.44860443]
 [  0.3        -33.36418129]
 [  0.32341667 -65.11319145]]","[[0.         1.09809668]
 [0.1        1.73594877]
 [0.2        0.30037535]
 [0.3        0.36613598]
 [0.32341667 0.50687614]]",1,0.771
8768944929,m,21,english,5,4,english,2024-02-01 10:32:41.968799,False,2,286,sounds\english\audio/english_376.wav,"[[  0.         -10.66231765]
 [  0.1        -53.95799634]
 [  0.2        -44.60014177]
 [  0.3        -84.32777745]
 [  0.32341667  -2.76179289]]","[[0.         0.83936518]
 [0.1        1.7265478 ]
 [0.2        0.44309389]
 [0.3        1.91772458]
 [0.32341667 0.76255227]]",0,0.19
8768944929,m,21,english,5,4,english,2024-02-01 10:32:41.968799,False,2,287,sounds\english\audio/english_704.wav,"[[  0.         -24.48288207]
 [  0.1         -9.94163531]
 [  0.2         74.85271107]
 [  0.3        -38.44921803]
 [  0.32341667 -21.20994959]]","[[0.         0.92043902]
 [0.1        0.96595902]
 [0.2        1.40327859]
 [0.3        1.07325586]
 [0.32341667 1.87555588]]",0,0.169
8768944929,m,21,english,5,4,english,2024-02-01 10:32:41.968799,False,2,288,sounds\english\audio/english_550.wav,"[[  0.          19.46608022]
 [  0.1        -94.3556307 ]
 [  0.2        -80.90695222]
 [  0.3        -65.36230075]
 [  0.32341667 -18.45722395]]","[[0.         0.78600887]
 [0.1        1.03273328]
 [0.2        0.36941932]
 [0.3        0.47038634]
 [0.32341667 0.11798167]]",1,0.34
8768944929,m,21,english,5,4,english,2024-02-01 10:32:41.968799,False,2,289,sounds\english\audio/english_895.wav,"[[  0.         -36.05432491]
 [  0.1          0.27991529]
 [  0.2        -68.50060493]
 [  0.3        -65.34452755]
 [  0.32341667  44.30205494]]","[[0.         1.57991636]
 [0.1        1.29141926]
 [0.2        0.78617821]
 [0.3        0.53071912]
 [0.32341667 1.44568828]]",1,1.292
8768944929,m,21,english,5,4,english,2024-02-01 10:32:41.968799,False,2,290,sounds\english\audio/english_14.wav,"[[  0.          98.00979643]
 [  0.1        -39.90204919]
 [  0.2         51.0517473 ]
 [  0.3         -8.39716694]
 [  0.32341667  82.54419716]]","[[0.         0.92494293]
 [0.1        0.80403915]
 [0.2        0.29426005]
 [0.3        0.14957292]
 [0.32341667 0.1717279 ]]",1,1.842
8768944929,m,21,english,5,4,english,2024-02-01 10:32:41.968799,False,2,291,sounds\english\audio/english_650.wav,"[[  0.         -14.34164867]
 [  0.1        -59.47569919]
 [  0.2        -47.0995584 ]
 [  0.3        -55.25841156]
 [  0.32341667  83.92345375]]","[[0.         1.10695192]
 [0.1        1.2442548 ]
 [0.2        0.31281267]
 [0.3        1.9869399 ]
 [0.32341667 1.10607629]]",0,0.338
8768944929,m,21,english,5,4,english,2024-02-01 10:32:41.968799,False,2,292,sounds\english\audio/english_27.wav,"[[  0.          -6.18374659]
 [  0.1         32.21095844]
 [  0.2         21.02729748]
 [  0.3          4.79829383]
 [  0.32341667 -70.7577659 ]]","[[0.         1.89085405]
 [0.1        0.80138328]
 [0.2        1.01248602]
 [0.3        1.67412938]
 [0.32341667 0.3387802 ]]",0,0.11
8768944929,m,21,english,5,4,english,2024-02-01 10:32:41.968799,False,2,293,sounds\english\audio/english_601.wav,"[[  0.          54.32401431]
 [  0.1         -6.72935942]
 [  0.2         39.12079493]
 [  0.3         39.92141387]
 [  0.32341667 -27.14681087]]","[[0.         0.08668951]
 [0.1        1.16468766]
 [0.2        1.8612572 ]
 [0.3        0.92171433]
 [0.32341667 0.50419734]]",1,0.306
8768944929,m,21,english,5,4,english,2024-02-01 10:32:41.968799,False,2,294,sounds\english\audio/english_52.wav,"[[  0.          54.63859099]
 [  0.1        -85.67195477]
 [  0.2          2.4878885 ]
 [  0.3         86.13143505]
 [  0.32341667 -53.30399902]]","[[0.         0.91426261]
 [0.1        1.20728413]
 [0.2        0.71733995]
 [0.3        1.54149443]
 [0.32341667 1.3376245 ]]",0,0.088
8768944929,m,21,english,5,4,english,2024-02-01 10:32:41.968799,False,2,295,sounds\english\audio/english_48.wav,"[[  0.          73.79399561]
 [  0.1         -6.33056249]
 [  0.2        -25.55346814]
 [  0.3         46.43305776]
 [  0.32341667 -46.56414761]]","[[0.         0.74385981]
 [0.1        1.05457567]
 [0.2        0.45493163]
 [0.3        0.06513279]
 [0.32341667 0.46755714]]",1,1.13
8768944929,m,21,english,5,4,english,2024-02-01 10:32:41.968799,False,2,296,sounds\english\audio/english_861.wav,"[[  0.         -30.19921015]
 [  0.1         75.2433288 ]
 [  0.2        -49.47813624]
 [  0.3         86.59581665]
 [  0.32341667  58.40562581]]","[[0.         0.56503536]
 [0.1        1.43622494]
 [0.2        1.73497671]
 [0.3        0.70763908]
 [0.32341667 1.29518241]]",0,0.299
8768944929,m,21,english,5,4,english,2024-02-01 10:32:41.968799,False,2,297,sounds\english\audio/english_18.wav,"[[ 0.00000000e+00 -6.19567004e+01]
 [ 1.00000000e-01  3.92027204e+01]
 [ 2.00000000e-01 -6.26834214e-02]
 [ 3.00000000e-01 -7.22820301e+01]
 [ 3.23416667e-01 -5.29459242e+01]]","[[0.         0.45038722]
 [0.1        1.56185221]
 [0.2        0.80652275]
 [0.3        0.39505163]
 [0.32341667 0.50402069]]",0,0.344
8768944929,m,21,english,5,4,english,2024-02-01 10:32:41.968799,False,2,298,sounds\english\audio/english_442.wav,"[[  0.          -5.21319176]
 [  0.1        -16.23989513]
 [  0.2        -36.77315909]
 [  0.3        -33.51446291]
 [  0.32341667 -25.07447919]]","[[0.         1.35819452]
 [0.1        1.66019663]
 [0.2        0.51170704]
 [0.3        1.6590932 ]
 [0.32341667 0.97998973]]",0,0.195
8768944929,m,21,english,5,4,english,2024-02-01 10:32:41.968799,False,2,299,sounds\english\audio/english_977.wav,"[[  0.          63.46196139]
 [  0.1        -23.64022125]
 [  0.2         31.65242203]
 [  0.3         16.19881364]
 [  0.32341667 -33.08554183]]","[[0.         0.87194913]
 [0.1        1.67919547]
 [0.2        0.97011806]
 [0.3        1.40431802]
 [0.32341667 1.02563167]]",0,0.775
8768944929,m,21,english,5,4,english,2024-02-01 10:32:41.968799,False,2,300,sounds\english\audio/english_779.wav,"[[  0.         -66.48303018]
 [  0.1         55.33592885]
 [  0.2         67.38671669]
 [  0.3         65.49052189]
 [  0.32341667 -12.12955258]]","[[0.         1.22216448]
 [0.1        1.30288261]
 [0.2        0.25409759]
 [0.3        1.76174581]
 [0.32341667 0.12280057]]",0,0.416
8768944929,m,21,english,5,4,english,2024-02-01 10:32:41.968799,False,2,301,sounds\english\audio/english_807.wav,"[[  0.         -70.27095807]
 [  0.1         84.77391363]
 [  0.2        -27.52537388]
 [  0.3         36.82986288]
 [  0.32341667  16.63983573]]","[[0.         1.48455572]
 [0.1        1.24837561]
 [0.2        0.77726095]
 [0.3        1.65388598]
 [0.32341667 1.10343216]]",0,0.199
8768944929,m,21,english,5,4,english,2024-02-01 10:32:41.968799,False,2,302,sounds\english\audio/english_133.wav,"[[  0.          12.35833749]
 [  0.1         40.12315016]
 [  0.2         21.09458129]
 [  0.3        -98.82286682]
 [  0.32341667 -85.44748976]]","[[0.         0.72635311]
 [0.1        1.38782059]
 [0.2        0.15947395]
 [0.3        0.28433836]
 [0.32341667 1.2581514 ]]",0,0.288
8768944929,m,21,english,5,4,english,2024-02-01 10:32:41.968799,False,2,303,sounds\english\audio/english_862.wav,"[[  0.          97.17644144]
 [  0.1         26.34966999]
 [  0.2        -21.73584106]
 [  0.3         70.49109419]
 [  0.32341667  43.48373212]]","[[0.         0.51253178]
 [0.1        0.21080737]
 [0.2        0.27401534]
 [0.3        1.91980484]
 [0.32341667 0.96077188]]",1,0.199
8768944929,m,21,english,5,4,english,2024-02-01 10:32:41.968799,False,2,304,sounds\english\audio/english_585.wav,"[[  0.         -47.47167609]
 [  0.1        -85.73018253]
 [  0.2          4.69567907]
 [  0.3         51.83381109]
 [  0.32341667  14.12777642]]","[[0.         0.91486293]
 [0.1        0.8051019 ]
 [0.2        1.25289508]
 [0.3        0.83258124]
 [0.32341667 1.43411439]]",0,0.112
8768944929,m,21,english,5,4,english,2024-02-01 10:32:41.968799,False,2,305,sounds\english\audio/english_848.wav,"[[  0.          43.30233352]
 [  0.1        -77.77691247]
 [  0.2        -68.99020863]
 [  0.3        -43.68641023]
 [  0.32341667 -14.19502025]]","[[0.         0.12582596]
 [0.1        1.72621372]
 [0.2        1.753656  ]
 [0.3        1.37442753]
 [0.32341667 1.04930351]]",0,0.474
8768944929,m,21,english,5,4,english,2024-02-01 10:32:41.968799,False,2,306,sounds\english\audio/english_600.wav,"[[  0.          37.30285492]
 [  0.1         57.58729363]
 [  0.2        -74.33256695]
 [  0.3        -35.711252  ]
 [  0.32341667   3.54782198]]","[[0.         1.23507691]
 [0.1        0.65453179]
 [0.2        1.70226061]
 [0.3        0.4723836 ]
 [0.32341667 0.49080622]]",0,0.303
8768944929,m,21,english,5,4,english,2024-02-01 10:32:41.968799,False,2,307,sounds\english\audio/english_899.wav,"[[  0.          34.44970312]
 [  0.1        -73.97598586]
 [  0.2          4.84970015]
 [  0.3         25.99530817]
 [  0.32341667   7.0197251 ]]","[[0.         1.0262563 ]
 [0.1        0.5565938 ]
 [0.2        0.08950317]
 [0.3        1.10823657]
 [0.32341667 1.27665612]]",1,0.351
8768944929,m,21,english,5,4,english,2024-02-01 10:32:41.968799,False,2,308,sounds\english\audio/english_500.wav,"[[  0.          34.07818593]
 [  0.1         31.06479142]
 [  0.2        -63.34751057]
 [  0.3         36.97827554]
 [  0.32341667  96.68235718]]","[[0.         1.14050746]
 [0.1        1.87458021]
 [0.2        0.77467433]
 [0.3        1.278432  ]
 [0.32341667 0.68469821]]",0,0.112
8768944929,m,21,english,5,4,english,2024-02-01 10:32:41.968799,False,2,309,sounds\english\audio/english_939.wav,"[[  0.         -23.2558256 ]
 [  0.1        -16.62065377]
 [  0.2        -49.54734698]
 [  0.3         22.82101289]
 [  0.32341667  28.63490654]]","[[0.         0.1774722 ]
 [0.1        0.56271239]
 [0.2        1.42782479]
 [0.3        0.76516147]
 [0.32341667 1.70219777]]",0,0.29
8768944929,m,21,english,5,4,english,2024-02-01 10:32:41.968799,False,2,310,sounds\english\audio/english_112.wav,"[[  0.         -98.7507832 ]
 [  0.1        -92.72198769]
 [  0.2         15.54821062]
 [  0.3        -40.54151432]
 [  0.32341667 -42.89167932]]","[[0.         1.62855774]
 [0.1        1.23374737]
 [0.2        0.76022921]
 [0.3        0.49860071]
 [0.32341667 0.23801633]]",1,0.263
8768944929,m,21,english,5,4,english,2024-02-01 10:32:41.968799,False,2,311,sounds\english\audio/english_395.wav,"[[ 0.         12.69072165]
 [ 0.1        16.88915645]
 [ 0.2        49.23789678]
 [ 0.3        39.87613746]
 [ 0.32341667 70.90138048]]","[[0.         1.18485033]
 [0.1        0.64230571]
 [0.2        0.95454364]
 [0.3        0.75997929]
 [0.32341667 1.50770695]]",0,0.649
8768944929,m,21,english,5,4,english,2024-02-01 10:32:41.968799,False,2,312,sounds\english\audio/english_14.wav,"[[  0.          98.00979643]
 [  0.1        -39.90204919]
 [  0.2         51.0517473 ]
 [  0.3         -8.39716694]
 [  0.32341667  82.54419716]]","[[0.         0.92494293]
 [0.1        0.80403915]
 [0.2        0.29426005]
 [0.3        0.14957292]
 [0.32341667 0.1717279 ]]",1,0.41
8768944929,m,21,english,5,4,english,2024-02-01 10:32:41.968799,False,2,313,sounds\english\audio/english_593.wav,"[[ 0.          0.23295982]
 [ 0.1        -0.52832444]
 [ 0.2        18.28609946]
 [ 0.3        21.25816485]
 [ 0.32341667 60.44039038]]","[[0.         1.83954553]
 [0.1        1.77820403]
 [0.2        0.36770598]
 [0.3        0.42189114]
 [0.32341667 0.07588974]]",0,0.144
8768944929,m,21,english,5,4,english,2024-02-01 10:32:41.968799,False,2,314,sounds\english\audio/english_953.wav,"[[  0.         -16.02430182]
 [  0.1         29.58660593]
 [  0.2        -69.77021268]
 [  0.3         10.24378989]
 [  0.32341667 -68.66835117]]","[[0.         0.31806788]
 [0.1        0.5983964 ]
 [0.2        1.47459901]
 [0.3        1.63555671]
 [0.32341667 1.74756834]]",1,0.068
8768944929,m,21,english,5,4,english,2024-02-01 10:32:41.968799,False,2,315,sounds\english\audio/english_54.wav,"[[  0.           1.86764875]
 [  0.1         -1.78672474]
 [  0.2        -26.58380414]
 [  0.3         -2.56688864]
 [  0.32341667 -76.29238916]]","[[0.         1.47639799]
 [0.1        1.92944336]
 [0.2        0.76292987]
 [0.3        1.78735236]
 [0.32341667 0.80366269]]",0,0.132
8768944929,m,21,english,5,4,english,2024-02-01 10:32:41.968799,False,2,316,sounds\english\audio/english_197.wav,"[[  0.         -60.72223742]
 [  0.1        -88.93421142]
 [  0.2         51.43827126]
 [  0.3          7.80125839]
 [  0.32341667 -53.06876459]]","[[0.         1.8449777 ]
 [0.1        1.74693134]
 [0.2        1.11057597]
 [0.3        1.67371275]
 [0.32341667 1.16077516]]",1,0.3
8768944929,m,21,english,5,4,english,2024-02-01 10:32:41.968799,False,2,317,sounds\english\audio/english_413.wav,"[[  0.          -9.66675054]
 [  0.1         15.27504309]
 [  0.2        -94.93171401]
 [  0.3        -42.87800999]
 [  0.32341667 -63.39385234]]","[[0.         1.82887045]
 [0.1        0.80668743]
 [0.2        0.90586838]
 [0.3        1.3937681 ]
 [0.32341667 0.34165264]]",0,1.099
8768944929,m,21,english,5,4,english,2024-02-01 10:32:41.968799,False,2,318,sounds\english\audio/english_715.wav,"[[  0.         -64.21420564]
 [  0.1         77.40813629]
 [  0.2        -98.26791609]
 [  0.3        -32.66334796]
 [  0.32341667  93.12500574]]","[[0.         1.80154013]
 [0.1        0.51096517]
 [0.2        0.49870215]
 [0.3        0.64344691]
 [0.32341667 1.17662216]]",1,0.723
8768944929,m,21,english,5,4,english,2024-02-01 10:32:41.968799,False,2,319,sounds\english\audio/english_949.wav,"[[  0.          48.32946721]
 [  0.1         73.83586198]
 [  0.2        -30.27812065]
 [  0.3        -32.50397555]
 [  0.32341667  96.46984971]]","[[0.         1.50413289]
 [0.1        1.55745414]
 [0.2        1.00772566]
 [0.3        0.86702054]
 [0.32341667 1.67836019]]",0,0.46
8768944929,m,21,english,5,4,english,2024-02-01 10:32:41.968799,False,2,320,sounds\english\audio/english_339.wav,"[[  0.         -58.67599578]
 [  0.1        -13.30258388]
 [  0.2        -52.40820381]
 [  0.3         11.33062491]
 [  0.32341667   9.6385593 ]]","[[0.         0.13141934]
 [0.1        0.16133177]
 [0.2        1.13500643]
 [0.3        0.98717522]
 [0.32341667 0.10332776]]",1,0.456
8768944929,m,21,english,5,4,english,2024-02-01 10:32:41.968799,False,2,321,sounds\english\audio/english_598.wav,"[[  0.           4.26365523]
 [  0.1        -29.634957  ]
 [  0.2        -17.49120793]
 [  0.3        -34.93876912]
 [  0.32341667  49.49845506]]","[[0.         0.04069017]
 [0.1        1.27980102]
 [0.2        0.98781586]
 [0.3        1.55939702]
 [0.32341667 1.74128412]]",1,0.781
8768944929,m,21,english,5,4,english,2024-02-01 10:32:41.968799,False,2,322,sounds\english\audio/english_598.wav,"[[  0.           4.26365523]
 [  0.1        -29.634957  ]
 [  0.2        -17.49120793]
 [  0.3        -34.93876912]
 [  0.32341667  49.49845506]]","[[0.         0.04069017]
 [0.1        1.27980102]
 [0.2        0.98781586]
 [0.3        1.55939702]
 [0.32341667 1.74128412]]",1,0.348
8768944929,m,21,english,5,4,english,2024-02-01 10:32:41.968799,False,2,323,sounds\english\audio/english_647.wav,"[[  0.          -8.76796469]
 [  0.1        -49.13996982]
 [  0.2         43.79634461]
 [  0.3          5.5781311 ]
 [  0.32341667  17.41251701]]","[[0.         1.6238225 ]
 [0.1        1.56934089]
 [0.2        0.78560304]
 [0.3        0.61771672]
 [0.32341667 1.2404866 ]]",0,0.189
8768944929,m,21,english,5,4,english,2024-02-01 10:32:41.968799,False,2,324,sounds\english\audio/english_956.wav,"[[  0.         -98.71257913]
 [  0.1        -36.05702295]
 [  0.2        -31.95582623]
 [  0.3        -81.31295359]
 [  0.32341667  45.09425789]]","[[0.         1.5828524 ]
 [0.1        0.66985857]
 [0.2        0.13798036]
 [0.3        0.22663358]
 [0.32341667 0.54862974]]",0,0.305
8768944929,m,21,english,5,4,english,2024-02-01 10:32:41.968799,False,2,325,sounds\english\audio/english_165.wav,"[[  0.         -65.85966689]
 [  0.1         57.4210377 ]
 [  0.2        -53.4891742 ]
 [  0.3        -32.80877015]
 [  0.32341667 -23.63509804]]","[[0.         0.99094124]
 [0.1        1.25140592]
 [0.2        1.66606931]
 [0.3        0.56557264]
 [0.32341667 1.31427626]]",0,0.167
8768944929,m,21,english,5,4,english,2024-02-01 10:32:41.968799,False,2,326,sounds\english\audio/english_721.wav,"[[  0.          -1.67193172]
 [  0.1         23.81304459]
 [  0.2         94.27532923]
 [  0.3         10.08520391]
 [  0.32341667 -26.68837018]]","[[0.         0.23966059]
 [0.1        1.61361986]
 [0.2        0.58045828]
 [0.3        1.63757532]
 [0.32341667 1.4581473 ]]",0,0.209
8768944929,m,21,english,5,4,english,2024-02-01 10:32:41.968799,False,2,327,sounds\english\audio/english_343.wav,"[[  0.         -26.15456552]
 [  0.1         -4.26522308]
 [  0.2         55.3227334 ]
 [  0.3        -26.26518208]
 [  0.32341667 -18.3065251 ]]","[[0.         0.99905336]
 [0.1        0.59066439]
 [0.2        1.69088488]
 [0.3        1.70645599]
 [0.32341667 0.13143106]]",0,0.143
8768944929,m,21,english,5,4,english,2024-02-01 10:32:41.968799,False,2,328,sounds\english\audio/english_444.wav,"[[  0.          57.2872587 ]
 [  0.1         68.85097071]
 [  0.2        -30.10164543]
 [  0.3        -57.0249627 ]
 [  0.32341667 -54.19692118]]","[[0.         0.52242118]
 [0.1        1.61316948]
 [0.2        0.15196309]
 [0.3        0.44426911]
 [0.32341667 1.48693747]]",0,0.289
8768944929,m,21,english,5,4,english,2024-02-01 10:32:41.968799,False,2,329,sounds\english\audio/english_475.wav,"[[  0.         -68.25626322]
 [  0.1        -56.46648788]
 [  0.2         49.77560279]
 [  0.3        -41.74178488]
 [  0.32341667 -60.3255454 ]]","[[0.         0.40988158]
 [0.1        1.90107213]
 [0.2        0.54721615]
 [0.3        1.80730726]
 [0.32341667 0.11427958]]",1,0.514
8768944929,m,21,english,5,4,english,2024-02-01 10:32:41.968799,False,2,330,sounds\english\audio/english_618.wav,"[[  0.          58.31579708]
 [  0.1          6.96253647]
 [  0.2         -4.41581756]
 [  0.3        -63.5775247 ]
 [  0.32341667  97.77631762]]","[[0.         1.46895394]
 [0.1        0.48660613]
 [0.2        1.00963977]
 [0.3        1.29399549]
 [0.32341667 0.84060701]]",0,0.398
8768944929,m,21,english,5,4,english,2024-02-01 10:32:41.968799,False,2,331,sounds\english\audio/english_645.wav,"[[  0.          44.09023725]
 [  0.1         53.49741331]
 [  0.2         28.7784214 ]
 [  0.3        -38.38386911]
 [  0.32341667  30.31484035]]","[[0.         0.24999948]
 [0.1        0.20669006]
 [0.2        0.13451906]
 [0.3        0.64617788]
 [0.32341667 0.83061833]]",1,0.451
8768944929,m,21,english,5,4,english,2024-02-01 10:32:41.968799,False,2,332,sounds\english\audio/english_997.wav,"[[  0.          93.4252615 ]
 [  0.1         62.16088314]
 [  0.2        -26.38638022]
 [  0.3         89.15363163]
 [  0.32341667 -25.83137337]]","[[0.         0.4603395 ]
 [0.1        0.21654412]
 [0.2        1.36234896]
 [0.3        1.07462804]
 [0.32341667 0.84007196]]",1,0.825
8768944929,m,21,english,5,4,english,2024-02-01 10:32:41.968799,False,2,333,sounds\english\audio/english_285.wav,"[[  0.         -19.0536712 ]
 [  0.1        -63.15395986]
 [  0.2        -57.682926  ]
 [  0.3        -56.52362331]
 [  0.32341667  11.40665652]]","[[0.         1.18823065]
 [0.1        1.010644  ]
 [0.2        0.4943662 ]
 [0.3        0.66348991]
 [0.32341667 0.86242978]]",0,0.367
8768944929,m,21,english,5,4,english,2024-02-01 10:32:41.968799,False,2,334,sounds\english\audio/english_511.wav,"[[  0.         -54.05076571]
 [  0.1         58.21305336]
 [  0.2         93.28984864]
 [  0.3        -93.08437199]
 [  0.32341667  48.49476441]]","[[0.         1.68448531]
 [0.1        0.64957271]
 [0.2        1.47534814]
 [0.3        1.38615571]
 [0.32341667 0.71972648]]",0,0.24
8768944929,m,21,english,5,4,english,2024-02-01 10:32:41.968799,False,2,335,sounds\english\audio/english_752.wav,"[[  0.         -89.50526135]
 [  0.1         16.42916277]
 [  0.2        -62.11724863]
 [  0.3        -22.7839786 ]
 [  0.32341667  21.77934146]]","[[0.         1.26833375]
 [0.1        1.25445964]
 [0.2        1.84048801]
 [0.3        0.96813738]
 [0.32341667 1.95604557]]",0,0.4
8768944929,m,21,english,5,4,english,2024-02-01 10:32:41.968799,False,2,336,sounds\english\audio/english_470.wav,"[[  0.         -20.39789813]
 [  0.1         20.62750989]
 [  0.2        -59.78251605]
 [  0.3        -88.74051682]
 [  0.32341667   8.31634628]]","[[0.         1.83124966]
 [0.1        0.41787925]
 [0.2        1.85790598]
 [0.3        0.99710793]
 [0.32341667 0.56985764]]",1,0.252
8768944929,m,21,english,5,4,english,2024-02-01 10:32:41.968799,False,2,337,sounds\english\audio/english_923.wav,"[[  0.          -0.59122564]
 [  0.1         -5.70499959]
 [  0.2        -29.88927864]
 [  0.3        -82.02126299]
 [  0.32341667  16.89967319]]","[[0.         1.19594648]
 [0.1        1.05419104]
 [0.2        0.73000078]
 [0.3        1.36390543]
 [0.32341667 1.13865732]]",1,0.248
8768944929,m,21,english,5,4,english,2024-02-01 10:32:41.968799,False,2,338,sounds\english\audio/english_831.wav,"[[  0.          -7.33710711]
 [  0.1        -87.69782071]
 [  0.2         34.03975531]
 [  0.3         -2.18295653]
 [  0.32341667  20.908766  ]]","[[0.         1.53159971]
 [0.1        1.22669962]
 [0.2        0.70180407]
 [0.3        1.02244347]
 [0.32341667 1.06702443]]",0,0.227
8768944929,m,21,english,5,4,english,2024-02-01 10:32:41.968799,False,2,339,sounds\english\audio/english_240.wav,"[[  0.         -96.55121617]
 [  0.1         73.99435309]
 [  0.2        -27.17256968]
 [  0.3         -2.05185553]
 [  0.32341667  80.37406519]]","[[0.         1.04823872]
 [0.1        1.11556714]
 [0.2        0.68795106]
 [0.3        1.30325309]
 [0.32341667 0.86977317]]",0,0.694
8768944929,m,21,english,5,4,english,2024-02-01 10:32:41.968799,False,2,340,sounds\english\audio/english_673.wav,"[[  0.         -57.74220233]
 [  0.1         51.69168463]
 [  0.2         32.71998218]
 [  0.3          1.53841214]
 [  0.32341667 -95.68622946]]","[[0.         1.16794182]
 [0.1        0.24005868]
 [0.2        1.1491536 ]
 [0.3        1.59180477]
 [0.32341667 1.00634228]]",1,0.19
8768944929,m,21,english,5,4,english,2024-02-01 10:32:41.968799,False,2,341,sounds\english\audio/english_925.wav,"[[  0.         -23.38055082]
 [  0.1         12.69502826]
 [  0.2         77.53463838]
 [  0.3         58.05299948]
 [  0.32341667  54.12197927]]","[[0.         1.07708889]
 [0.1        1.65606803]
 [0.2        0.48648737]
 [0.3        0.8939016 ]
 [0.32341667 0.72199492]]",0,0.286
8768944929,m,21,english,5,4,english,2024-02-01 10:32:41.968799,False,2,342,sounds\english\audio/english_832.wav,"[[  0.         -21.62855277]
 [  0.1        -35.3834786 ]
 [  0.2         52.65867494]
 [  0.3         62.52082964]
 [  0.32341667  46.66062952]]","[[0.         1.31372842]
 [0.1        1.55258378]
 [0.2        1.50567803]
 [0.3        1.2163301 ]
 [0.32341667 1.20100353]]",1,0.793
8768944929,m,21,english,5,4,english,2024-02-01 10:32:41.968799,False,2,343,sounds\english\audio/english_231.wav,"[[  0.         -57.04299033]
 [  0.1        -61.30294243]
 [  0.2         11.10207427]
 [  0.3         -1.38864911]
 [  0.32341667 -40.37897369]]","[[0.         1.30850831]
 [0.1        1.06317761]
 [0.2        1.86768436]
 [0.3        1.42169342]
 [0.32341667 0.58634772]]",0,0.073
8768944929,m,21,english,5,4,english,2024-02-01 10:32:41.968799,False,2,344,sounds\english\audio/english_504.wav,"[[ 0.          4.11468456]
 [ 0.1        70.56620437]
 [ 0.2         3.26767498]
 [ 0.3        -3.14493553]
 [ 0.32341667 43.57926014]]","[[0.         0.75379057]
 [0.1        1.18348717]
 [0.2        0.25360202]
 [0.3        1.87094491]
 [0.32341667 0.110125  ]]",0,0.717
8768944929,m,21,english,5,4,english,2024-02-01 10:32:41.968799,False,2,345,sounds\english\audio/english_597.wav,"[[  0.         -83.66792118]
 [  0.1        -19.98744657]
 [  0.2        -30.38458549]
 [  0.3        -63.4406446 ]
 [  0.32341667  25.67812426]]","[[0.         0.17389721]
 [0.1        0.39349672]
 [0.2        1.97590818]
 [0.3        1.84988074]
 [0.32341667 1.17620678]]",1,0.195
8768944929,m,21,english,5,4,english,2024-02-01 10:32:41.968799,False,2,346,sounds\english\audio/english_939.wav,"[[  0.         -23.2558256 ]
 [  0.1        -16.62065377]
 [  0.2        -49.54734698]
 [  0.3         22.82101289]
 [  0.32341667  28.63490654]]","[[0.         0.1774722 ]
 [0.1        0.56271239]
 [0.2        1.42782479]
 [0.3        0.76516147]
 [0.32341667 1.70219777]]",0,0.156
8768944929,m,21,english,5,4,english,2024-02-01 10:32:41.968799,False,2,347,sounds\english\audio/english_164.wav,"[[  0.         -18.99376005]
 [  0.1        -38.65269109]
 [  0.2         64.75288033]
 [  0.3        -33.8407164 ]
 [  0.32341667  27.96502681]]","[[0.         1.91320144]
 [0.1        0.23857652]
 [0.2        1.41883879]
 [0.3        1.34667564]
 [0.32341667 0.04602263]]",0,0.248
8768944929,m,21,english,5,4,english,2024-02-01 10:32:41.968799,False,2,348,sounds\english\audio/english_251.wav,"[[  0.         -35.26640223]
 [  0.1        -82.14936791]
 [  0.2         39.53587687]
 [  0.3        -75.44024907]
 [  0.32341667  26.94148116]]","[[0.         1.59441442]
 [0.1        1.21410308]
 [0.2        0.89125894]
 [0.3        0.14763688]
 [0.32341667 1.71797298]]",0,0.178
8768944929,m,21,english,5,4,english,2024-02-01 10:32:41.968799,False,2,349,sounds\english\audio/english_469.wav,"[[  0.         -12.92877168]
 [  0.1        -67.35237443]
 [  0.2        -70.76493751]
 [  0.3         86.785725  ]
 [  0.32341667 -36.33255728]]","[[0.         0.59007764]
 [0.1        1.36577084]
 [0.2        1.86337992]
 [0.3        1.85233296]
 [0.32341667 1.108986  ]]",0,0.127
8768944929,m,21,english,5,4,english,2024-02-01 10:32:41.968799,False,2,350,sounds\english\audio/english_429.wav,"[[  0.         -70.82827187]
 [  0.1         79.2644825 ]
 [  0.2         14.29027084]
 [  0.3        -47.65971945]
 [  0.32341667   8.9954872 ]]","[[0.         0.34305232]
 [0.1        1.15525787]
 [0.2        1.85610569]
 [0.3        0.19828098]
 [0.32341667 1.51767034]]",0,0.214
8768944929,m,21,english,5,4,english,2024-02-01 10:32:41.968799,False,2,351,sounds\english\audio/english_79.wav,"[[  0.         -69.52518262]
 [  0.1         56.533406  ]
 [  0.2         25.92051761]
 [  0.3         81.58880491]
 [  0.32341667 -19.75719301]]","[[0.         0.23164561]
 [0.1        1.01948637]
 [0.2        0.17653141]
 [0.3        0.14868702]
 [0.32341667 0.33345335]]",1,0.432
8768944929,m,21,english,5,4,english,2024-02-01 10:32:41.968799,False,2,352,sounds\english\audio/english_372.wav,"[[  0.         -10.50721777]
 [  0.1         60.4890014 ]
 [  0.2         35.20626745]
 [  0.3        -86.52802988]
 [  0.32341667  85.69336351]]","[[0.         1.53321121]
 [0.1        1.14830486]
 [0.2        1.01416029]
 [0.3        1.14285759]
 [0.32341667 1.69996326]]",0,0.231
8768944929,m,21,english,5,4,english,2024-02-01 10:32:41.968799,False,2,353,sounds\english\audio/english_250.wav,"[[  0.          15.9272347 ]
 [  0.1        -20.77070657]
 [  0.2        -20.08480075]
 [  0.3        -29.82576937]
 [  0.32341667  87.83532187]]","[[0.         0.97372592]
 [0.1        1.45189783]
 [0.2        0.50513237]
 [0.3        1.38910207]
 [0.32341667 1.51614456]]",0,0.274
8768944929,m,21,english,5,4,english,2024-02-01 10:32:41.968799,False,2,354,sounds\english\audio/english_632.wav,"[[  0.         -56.22391322]
 [  0.1        -47.59423942]
 [  0.2         91.93727259]
 [  0.3        -33.89646621]
 [  0.32341667  46.88387871]]","[[0.         1.21249895]
 [0.1        0.39515719]
 [0.2        1.8528852 ]
 [0.3        1.67254104]
 [0.32341667 1.21014685]]",0,0.021
8768944929,m,21,english,5,4,english,2024-02-01 10:32:41.968799,False,2,355,sounds\english\audio/english_559.wav,"[[  0.          72.91796617]
 [  0.1         49.0763932 ]
 [  0.2         37.36372944]
 [  0.3         62.8744144 ]
 [  0.32341667 -70.24316133]]","[[0.         0.28347303]
 [0.1        0.33705515]
 [0.2        1.25665906]
 [0.3        0.42135622]
 [0.32341667 0.44445559]]",1,0.324
8768944929,m,21,english,5,4,english,2024-02-01 10:32:41.968799,False,2,356,sounds\english\audio/english_853.wav,"[[ 0.         87.83319324]
 [ 0.1        64.16710312]
 [ 0.2        12.98667351]
 [ 0.3        25.03434444]
 [ 0.32341667 98.3458188 ]]","[[0.         0.81037323]
 [0.1        1.2495933 ]
 [0.2        0.22916278]
 [0.3        0.67764146]
 [0.32341667 0.13807639]]",0,0.378
8768944929,m,21,english,5,4,english,2024-02-01 10:32:41.968799,False,2,357,sounds\english\audio/english_922.wav,"[[  0.         -90.36253489]
 [  0.1         -6.38761956]
 [  0.2        -78.09661245]
 [  0.3        -92.75722173]
 [  0.32341667 -80.16719401]]","[[0.         0.33253962]
 [0.1        1.51366693]
 [0.2        0.40049791]
 [0.3        1.29207892]
 [0.32341667 1.40400382]]",0,0.081
8768944929,m,21,english,5,4,english,2024-02-01 10:32:41.968799,False,2,358,sounds\english\audio/english_871.wav,"[[  0.          84.63625516]
 [  0.1        -19.11058767]
 [  0.2         49.1497137 ]
 [  0.3        -83.07816512]
 [  0.32341667  11.22002909]]","[[0.         0.21643415]
 [0.1        1.23538017]
 [0.2        1.26375285]
 [0.3        0.03257235]
 [0.32341667 1.90703832]]",1,0.178
8768944929,m,21,english,5,4,english,2024-02-01 10:32:41.968799,False,2,359,sounds\english\audio/english_445.wav,"[[  0.          88.00598922]
 [  0.1         96.51328737]
 [  0.2         29.11093561]
 [  0.3         69.6076589 ]
 [  0.32341667 -59.73938179]]","[[0.         1.42174052]
 [0.1        1.49122509]
 [0.2        0.62095286]
 [0.3        1.14630865]
 [0.32341667 1.38538671]]",0,0.14
8768944929,m,21,english,5,4,english,2024-02-01 10:32:41.968799,False,2,360,sounds\english\audio/english_413.wav,"[[  0.          -9.66675054]
 [  0.1         15.27504309]
 [  0.2        -94.93171401]
 [  0.3        -42.87800999]
 [  0.32341667 -63.39385234]]","[[0.         1.82887045]
 [0.1        0.80668743]
 [0.2        0.90586838]
 [0.3        1.3937681 ]
 [0.32341667 0.34165264]]",1,0.562
8768944929,m,21,english,5,4,english,2024-02-01 10:32:41.968799,False,2,361,sounds\english\audio/english_35.wav,"[[  0.         -35.14158545]
 [  0.1        -54.49669119]
 [  0.2         37.91149238]
 [  0.3        -55.38086503]
 [  0.32341667  54.77667999]]","[[0.         0.855771  ]
 [0.1        0.5452371 ]
 [0.2        1.65995376]
 [0.3        0.74505496]
 [0.32341667 0.83530932]]",0,0.178
8768944929,m,21,english,5,4,english,2024-02-01 10:32:41.968799,False,2,362,sounds\english\audio/english_644.wav,"[[  0.          21.57551932]
 [  0.1        -11.98636437]
 [  0.2        -86.21942338]
 [  0.3        -38.98906039]
 [  0.32341667 -28.58177745]]","[[0.         1.87520752]
 [0.1        1.28750901]
 [0.2        0.33708129]
 [0.3        1.53524213]
 [0.32341667 0.3058721 ]]",0,0.117
8768944929,m,21,english,5,4,english,2024-02-01 10:32:41.968799,False,2,363,sounds\english\audio/english_778.wav,"[[  0.          99.37283207]
 [  0.1         61.02900927]
 [  0.2        -43.89505842]
 [  0.3         -6.51139434]
 [  0.32341667 -98.37213751]]","[[0.         0.92158405]
 [0.1        1.90392814]
 [0.2        0.34916702]
 [0.3        1.21087231]
 [0.32341667 0.72140227]]",0,0.07
8768944929,m,21,english,5,4,english,2024-02-01 10:32:41.968799,False,2,364,sounds\english\audio/english_974.wav,"[[  0.          29.63575745]
 [  0.1        -49.63946334]
 [  0.2         87.75163431]
 [  0.3        -62.39844007]
 [  0.32341667 -98.5513891 ]]","[[0.         0.7371821 ]
 [0.1        1.15838362]
 [0.2        1.66312363]
 [0.3        0.85783748]
 [0.32341667 1.53033297]]",1,0.028
8768944929,m,21,english,5,4,english,2024-02-01 10:32:41.968799,False,2,365,sounds\english\audio/english_437.wav,"[[  0.          61.91803223]
 [  0.1          0.99543568]
 [  0.2        -50.96874522]
 [  0.3        -47.73319396]
 [  0.32341667  15.35939938]]","[[0.         0.36516876]
 [0.1        0.43500315]
 [0.2        1.25398366]
 [0.3        0.60570222]
 [0.32341667 0.97208355]]",1,3.304
8768944929,m,21,english,5,4,english,2024-02-01 10:32:41.968799,False,2,366,sounds\english\audio/english_539.wav,"[[  0.         -67.77604021]
 [  0.1         61.22104537]
 [  0.2         38.09257369]
 [  0.3        -20.76875757]
 [  0.32341667 -47.71444482]]","[[0.         0.83598486]
 [0.1        1.51877163]
 [0.2        1.73578169]
 [0.3        0.52680037]
 [0.32341667 1.99278149]]",0,0.896
8768944929,m,21,english,5,4,english,2024-02-01 10:32:41.968799,False,2,367,sounds\english\audio/english_809.wav,"[[  0.          -9.08149959]
 [  0.1         12.16544582]
 [  0.2         40.52205867]
 [  0.3        -94.19679153]
 [  0.32341667  -5.82752377]]","[[0.         0.73203403]
 [0.1        0.53159531]
 [0.2        1.48114639]
 [0.3        1.77078339]
 [0.32341667 1.36117577]]",1,1.036
8768944929,m,21,english,5,4,english,2024-02-01 10:32:41.968799,False,2,368,sounds\english\audio/english_767.wav,"[[  0.          29.63321135]
 [  0.1        -31.63783795]
 [  0.2         56.53254366]
 [  0.3         52.69149806]
 [  0.32341667  -0.8536295 ]]","[[0.         0.17563718]
 [0.1        0.61981002]
 [0.2        1.38773128]
 [0.3        1.37795514]
 [0.32341667 1.97315338]]",1,0.321
8768944929,m,21,english,5,4,english,2024-02-01 10:32:41.968799,False,2,369,sounds\english\audio/english_264.wav,"[[  0.          16.10521774]
 [  0.1        -43.55481907]
 [  0.2        -16.87093852]
 [  0.3        -81.41755984]
 [  0.32341667 -76.00277997]]","[[0.         1.02407609]
 [0.1        1.4393598 ]
 [0.2        1.31552174]
 [0.3        1.17516842]
 [0.32341667 0.613195  ]]",1,0.607
8768944929,m,21,english,5,4,english,2024-02-01 10:32:41.968799,False,2,370,sounds\english\audio/english_379.wav,"[[  0.          30.14616912]
 [  0.1        -79.51193423]
 [  0.2          7.34860539]
 [  0.3        -43.99342265]
 [  0.32341667  37.72881761]]","[[0.         1.43961489]
 [0.1        1.4219763 ]
 [0.2        0.62633101]
 [0.3        1.13621958]
 [0.32341667 1.35387794]]",0,0.699
8768944929,m,21,english,5,4,english,2024-02-01 10:32:41.968799,False,2,371,sounds\english\audio/english_499.wav,"[[  0.         -62.75547094]
 [  0.1         28.73361796]
 [  0.2        -71.86053711]
 [  0.3        -44.40399931]
 [  0.32341667  -2.72335033]]","[[0.         0.4212983 ]
 [0.1        1.54082224]
 [0.2        1.07919976]
 [0.3        1.20425095]
 [0.32341667 0.4618338 ]]",0,0.329
8768944929,m,21,english,5,4,english,2024-02-01 10:32:41.968799,False,2,372,sounds\english\audio/english_420.wav,"[[  0.         -56.31893026]
 [  0.1         66.6522923 ]
 [  0.2          2.15493058]
 [  0.3        -23.51601285]
 [  0.32341667  22.32226467]]","[[0.         0.25307214]
 [0.1        1.93095887]
 [0.2        0.49520396]
 [0.3        1.55970731]
 [0.32341667 0.71957325]]",0,0.324
8768944929,m,21,english,5,4,english,2024-02-01 10:32:41.968799,False,2,373,sounds\english\audio/english_65.wav,"[[  0.         -46.88015867]
 [  0.1         54.34027197]
 [  0.2        -65.46386729]
 [  0.3        -66.7533487 ]
 [  0.32341667 -12.18147599]]","[[0.         0.62230507]
 [0.1        1.12355997]
 [0.2        1.0507031 ]
 [0.3        0.71238348]
 [0.32341667 0.41048607]]",1,0.596
8768944929,m,21,english,5,4,english,2024-02-01 10:32:41.968799,False,2,374,sounds\english\audio/english_877.wav,"[[  0.          49.36401037]
 [  0.1         15.17280231]
 [  0.2         22.36436744]
 [  0.3        -25.51979868]
 [  0.32341667 -55.72443313]]","[[0.         1.25510861]
 [0.1        0.84700305]
 [0.2        0.32703774]
 [0.3        1.72637958]
 [0.32341667 0.52117686]]",1,1.551
8768944929,m,21,english,5,4,english,2024-02-01 10:32:41.968799,False,2,375,sounds\english\audio/english_856.wav,"[[  0.         -44.08940674]
 [  0.1        -25.77644107]
 [  0.2          6.39263247]
 [  0.3         92.67536145]
 [  0.32341667  45.15991817]]","[[0.         1.51880133]
 [0.1        0.99524475]
 [0.2        1.11391415]
 [0.3        0.95575529]
 [0.32341667 1.02944292]]",0,0.158
8768944929,m,21,english,5,4,english,2024-02-01 10:32:41.968799,False,2,376,sounds\english\audio/english_180.wav,"[[  0.         -79.96502932]
 [  0.1         33.21752916]
 [  0.2        -97.52705813]
 [  0.3         42.51331828]
 [  0.32341667 -42.98571984]]","[[0.         0.84610218]
 [0.1        1.88919334]
 [0.2        0.18699196]
 [0.3        0.0366283 ]
 [0.32341667 0.95813987]]",1,0.939
8768944929,m,21,english,5,4,english,2024-02-01 10:32:41.968799,False,2,377,sounds\english\audio/english_703.wav,"[[  0.          21.25560127]
 [  0.1         -5.61566417]
 [  0.2        -88.15973778]
 [  0.3         39.86499493]
 [  0.32341667  64.67338156]]","[[0.         1.22587136]
 [0.1        1.28752652]
 [0.2        1.61643937]
 [0.3        1.32560109]
 [0.32341667 0.74206522]]",1,0.573
8768944929,m,21,english,5,4,english,2024-02-01 10:32:41.968799,False,2,378,sounds\english\audio/english_11.wav,"[[  0.         -20.45826732]
 [  0.1        -31.26113472]
 [  0.2         84.03210455]
 [  0.3         30.35463164]
 [  0.32341667 -63.36217442]]","[[0.         1.19869378]
 [0.1        0.2059713 ]
 [0.2        0.62296143]
 [0.3        1.49781179]
 [0.32341667 0.18750748]]",0,0.304
8768944929,m,21,english,5,4,english,2024-02-01 10:32:41.968799,False,2,379,sounds\english\audio/english_812.wav,"[[  0.          70.24469457]
 [  0.1        -27.51466786]
 [  0.2         60.55844263]
 [  0.3         52.93607499]
 [  0.32341667  74.74872052]]","[[0.         0.85599223]
 [0.1        0.39005905]
 [0.2        1.43275618]
 [0.3        1.34329238]
 [0.32341667 0.96810209]]",0,0.918
8768944929,m,21,english,5,4,english,2024-02-01 10:32:41.968799,False,2,380,sounds\english\audio/english_280.wav,"[[  0.          88.60957906]
 [  0.1         84.68226706]
 [  0.2        -77.43679957]
 [  0.3         45.11946934]
 [  0.32341667 -36.96988582]]","[[0.         0.0301642 ]
 [0.1        1.61205195]
 [0.2        1.42137195]
 [0.3        1.73240953]
 [0.32341667 0.09602122]]",1,0.373
8768944929,m,21,english,5,4,english,2024-02-01 10:32:41.968799,False,2,381,sounds\english\audio/english_757.wav,"[[  0.         -71.37581006]
 [  0.1        -34.89028362]
 [  0.2         97.72444176]
 [  0.3          8.64322444]
 [  0.32341667 -59.15215987]]","[[0.         0.57944866]
 [0.1        1.76833087]
 [0.2        0.43040584]
 [0.3        1.84780211]
 [0.32341667 0.21714226]]",0,0.179
8768944929,m,21,english,5,4,english,2024-02-01 10:32:41.968799,False,2,382,sounds\english\audio/english_989.wav,"[[  0.         -51.1051603 ]
 [  0.1        -91.26717948]
 [  0.2         73.5145218 ]
 [  0.3         54.43703181]
 [  0.32341667 -36.95823638]]","[[0.         1.00035195]
 [0.1        0.46124463]
 [0.2        0.77735517]
 [0.3        1.21549894]
 [0.32341667 0.33045291]]",0,0.306
8768944929,m,21,english,5,4,english,2024-02-01 10:32:41.968799,False,2,383,sounds\english\audio/english_127.wav,"[[  0.         -69.70750805]
 [  0.1        -23.17484413]
 [  0.2         16.27024862]
 [  0.3        -50.08342814]
 [  0.32341667  22.60332787]]","[[0.         0.25070661]
 [0.1        1.1475992 ]
 [0.2        1.99299371]
 [0.3        0.57749513]
 [0.32341667 1.27832678]]",1,1.843
8768944929,m,21,english,5,4,english,2024-02-01 10:32:41.968799,False,2,384,sounds\english\audio/english_582.wav,"[[  0.         -29.81423477]
 [  0.1         37.42565533]
 [  0.2         79.58894888]
 [  0.3         49.55779855]
 [  0.32341667  54.00509918]]","[[0.         0.27230029]
 [0.1        0.84765039]
 [0.2        1.99526631]
 [0.3        1.55519667]
 [0.32341667 1.66653349]]",0,0.524
8768944929,m,21,english,5,4,english,2024-02-01 10:32:41.968799,False,2,385,sounds\english\audio/english_226.wav,"[[  0.         -56.53605181]
 [  0.1         -5.93547338]
 [  0.2        -81.0596442 ]
 [  0.3        -12.14261426]
 [  0.32341667  40.67667876]]","[[0.         0.51185795]
 [0.1        0.73377568]
 [0.2        1.62034912]
 [0.3        0.19474782]
 [0.32341667 0.1395898 ]]",0,0.456
8768944929,m,21,english,5,4,english,2024-02-01 10:32:41.968799,False,2,386,sounds\english\audio/english_591.wav,"[[  0.         -17.23532002]
 [  0.1        -55.20494434]
 [  0.2        -36.65883109]
 [  0.3         75.34514139]
 [  0.32341667  31.2832342 ]]","[[0.         0.16408748]
 [0.1        0.21361432]
 [0.2        0.19384467]
 [0.3        0.82850175]
 [0.32341667 1.471328  ]]",0,0.764
8768944929,m,21,english,5,4,english,2024-02-01 10:32:41.968799,False,2,387,sounds\english\audio/english_854.wav,"[[  0.          -3.2532791 ]
 [  0.1         19.40039505]
 [  0.2        -14.62360686]
 [  0.3        -63.13820282]
 [  0.32341667  44.42181264]]","[[0.         1.78139632]
 [0.1        1.50161717]
 [0.2        0.8978804 ]
 [0.3        1.66267041]
 [0.32341667 1.68588082]]",0,0.862
8768944929,m,21,english,5,4,english,2024-02-01 10:32:41.968799,False,2,388,sounds\english\audio/english_348.wav,"[[  0.          21.35215111]
 [  0.1         14.79849269]
 [  0.2         53.1788992 ]
 [  0.3        -95.85723561]
 [  0.32341667   5.27283499]]","[[0.         0.19799702]
 [0.1        0.60931017]
 [0.2        0.16102666]
 [0.3        1.54818605]
 [0.32341667 0.26552753]]",1,0.239
8768944929,m,21,english,5,4,english,2024-02-01 10:32:41.968799,False,2,389,sounds\english\audio/english_134.wav,"[[  0.          70.72156413]
 [  0.1        -64.20531103]
 [  0.2         35.7891913 ]
 [  0.3        -77.33475241]
 [  0.32341667  85.6978336 ]]","[[0.         1.84700732]
 [0.1        1.20878884]
 [0.2        0.51924654]
 [0.3        1.95615398]
 [0.32341667 1.72102519]]",1,0.271
8768944929,m,21,english,5,4,english,2024-02-01 10:32:41.968799,False,2,390,sounds\english\audio/english_484.wav,"[[  0.          79.97188672]
 [  0.1        -84.58904822]
 [  0.2         70.2960477 ]
 [  0.3        -66.44520929]
 [  0.32341667 -78.91715359]]","[[0.         0.20745104]
 [0.1        1.46214797]
 [0.2        0.40821612]
 [0.3        1.23203415]
 [0.32341667 1.26593617]]",1,0.272
8768944929,m,21,english,5,4,english,2024-02-01 10:32:41.968799,False,2,391,sounds\english\audio/english_239.wav,"[[  0.          87.44943986]
 [  0.1         50.09814929]
 [  0.2        -20.91132269]
 [  0.3          1.56869958]
 [  0.32341667  15.23790706]]","[[0.         1.42022081]
 [0.1        0.64261102]
 [0.2        0.17156284]
 [0.3        1.89365974]
 [0.32341667 1.86939691]]",0,0.228
8768944929,m,21,english,5,4,english,2024-02-01 10:32:41.968799,False,2,392,sounds\english\audio/english_469.wav,"[[  0.         -12.92877168]
 [  0.1        -67.35237443]
 [  0.2        -70.76493751]
 [  0.3         86.785725  ]
 [  0.32341667 -36.33255728]]","[[0.         0.59007764]
 [0.1        1.36577084]
 [0.2        1.86337992]
 [0.3        1.85233296]
 [0.32341667 1.108986  ]]",0,0.765
8768944929,m,21,english,5,4,english,2024-02-01 10:32:41.968799,False,2,393,sounds\english\audio/english_213.wav,"[[  0.         -29.91874444]
 [  0.1         41.64704809]
 [  0.2        -87.11075848]
 [  0.3        -61.54877495]
 [  0.32341667 -34.29429643]]","[[0.         1.42031243]
 [0.1        0.59218852]
 [0.2        1.10576613]
 [0.3        0.09529021]
 [0.32341667 1.15583312]]",1,0.214
8768944929,m,21,english,5,4,english,2024-02-01 10:32:41.968799,False,2,394,sounds\english\audio/english_756.wav,"[[  0.         -75.60908863]
 [  0.1         -4.30259752]
 [  0.2         20.94377522]
 [  0.3         10.45062111]
 [  0.32341667  86.50209298]]","[[0.         1.29894989]
 [0.1        0.61363685]
 [0.2        1.41793961]
 [0.3        1.73528762]
 [0.32341667 0.4791473 ]]",0,0.119
8768944929,m,21,english,5,4,english,2024-02-01 10:32:41.968799,False,2,395,sounds\english\audio/english_150.wav,"[[  0.         -51.77489255]
 [  0.1         16.7322824 ]
 [  0.2        -56.19561079]
 [  0.3         36.81691324]
 [  0.32341667 -97.11243964]]","[[0.         0.6625495 ]
 [0.1        1.26353984]
 [0.2        0.38378194]
 [0.3        1.59154348]
 [0.32341667 0.94821753]]",0,0.399
8768944929,m,21,english,5,4,english,2024-02-01 10:32:41.968799,False,2,396,sounds\english\audio/english_157.wav,"[[  0.         -74.01864956]
 [  0.1          1.44529667]
 [  0.2        -42.76251303]
 [  0.3        -49.01483239]
 [  0.32341667 -96.85595697]]","[[0.         1.10168906]
 [0.1        1.71225259]
 [0.2        1.71884561]
 [0.3        1.47822148]
 [0.32341667 1.36273156]]",0,0.12
8768944929,m,21,english,5,4,english,2024-02-01 10:32:41.968799,False,2,397,sounds\english\audio/english_371.wav,"[[  0.          44.65928585]
 [  0.1          2.85031152]
 [  0.2        -57.71166213]
 [  0.3        -66.93032782]
 [  0.32341667  13.43806553]]","[[0.         0.25571852]
 [0.1        1.3562861 ]
 [0.2        1.30905236]
 [0.3        1.33160076]
 [0.32341667 0.62192137]]",1,0.497
8768944929,m,21,english,5,4,english,2024-02-01 10:32:41.968799,False,2,398,sounds\english\audio/english_548.wav,"[[  0.          19.39315344]
 [  0.1         82.09582914]
 [  0.2        -65.55781301]
 [  0.3         -5.02691035]
 [  0.32341667  62.63141303]]","[[0.         0.41811488]
 [0.1        1.70384437]
 [0.2        1.82142436]
 [0.3        1.13784798]
 [0.32341667 1.73168063]]",1,1.428
8768944929,m,21,english,5,4,english,2024-02-01 10:32:41.968799,False,2,399,sounds\english\audio/english_39.wav,"[[  0.          28.0167149 ]
 [  0.1          0.73047565]
 [  0.2        -55.83763262]
 [  0.3        -59.78026112]
 [  0.32341667  81.1603589 ]]","[[0.         1.3269735 ]
 [0.1        0.59121622]
 [0.2        0.32613901]
 [0.3        1.39661139]
 [0.32341667 0.76065887]]",0,0.186
8768944929,m,21,english,5,4,english,2024-02-01 10:32:41.968799,False,2,400,sounds\english\audio/english_710.wav,"[[  0.         -75.8732007 ]
 [  0.1        -57.22858583]
 [  0.2         28.4956072 ]
 [  0.3        -96.06281818]
 [  0.32341667  12.57492899]]","[[0.         1.76991952]
 [0.1        1.84377411]
 [0.2        1.20069914]
 [0.3        0.06088286]
 [0.32341667 1.86160088]]",0,0.139
8768944929,m,21,english,5,4,english,2024-02-01 10:32:41.968799,False,2,401,sounds\english\audio/english_265.wav,"[[  0.         -30.2287418 ]
 [  0.1         86.62283936]
 [  0.2        -21.47577863]
 [  0.3         84.9300577 ]
 [  0.32341667  59.52250756]]","[[0.         1.31067296]
 [0.1        0.87427745]
 [0.2        1.37620008]
 [0.3        0.45825557]
 [0.32341667 1.13518739]]",0,0.343
8768944929,m,21,english,5,4,english,2024-02-01 10:32:41.968799,False,2,402,sounds\english\audio/english_838.wav,"[[  0.         -46.43239877]
 [  0.1         -0.77549132]
 [  0.2        -47.56158581]
 [  0.3          7.18116474]
 [  0.32341667 -87.38880816]]","[[0.         0.57293762]
 [0.1        1.65450135]
 [0.2        0.30574951]
 [0.3        0.96315644]
 [0.32341667 0.83017899]]",0,0.287
8768944929,m,21,english,5,4,english,2024-02-01 10:32:41.968799,False,2,403,sounds\english\audio/english_537.wav,"[[  0.          70.8709352 ]
 [  0.1         32.34369018]
 [  0.2        -92.9302278 ]
 [  0.3         14.89115364]
 [  0.32341667 -67.12260703]]","[[0.         0.55947112]
 [0.1        1.10627241]
 [0.2        1.10842043]
 [0.3        0.86800797]
 [0.32341667 1.7659473 ]]",0,0.195
8768944929,m,21,english,5,4,english,2024-02-01 10:32:41.968799,False,2,404,sounds\english\audio/english_179.wav,"[[ 0.         76.93131114]
 [ 0.1         5.5150778 ]
 [ 0.2         3.89208722]
 [ 0.3        -8.47825544]
 [ 0.32341667 50.73924617]]","[[0.         0.23318107]
 [0.1        0.47080089]
 [0.2        1.31062884]
 [0.3        0.27743795]
 [0.32341667 0.83516241]]",1,0.613
8768944929,m,21,english,5,4,english,2024-02-01 10:32:41.968799,False,2,405,sounds\english\audio/english_763.wav,"[[ 0.         64.63144232]
 [ 0.1         8.86346429]
 [ 0.2        32.79569159]
 [ 0.3        10.55051177]
 [ 0.32341667  6.38738619]]","[[0.         0.7800836 ]
 [0.1        1.26656169]
 [0.2        1.93170043]
 [0.3        0.29422641]
 [0.32341667 1.43860225]]",0,0.737
8768944929,m,21,english,5,4,english,2024-02-01 10:32:41.968799,False,2,406,sounds\english\audio/english_782.wav,"[[  0.         -98.70381677]
 [  0.1        -69.82387258]
 [  0.2         35.26613747]
 [  0.3        -81.38004879]
 [  0.32341667 -61.83067014]]","[[0.         1.47488053]
 [0.1        0.7270016 ]
 [0.2        0.08778447]
 [0.3        1.16903228]
 [0.32341667 0.92727902]]",1,0.285
8768944929,m,21,english,5,4,english,2024-02-01 10:32:41.968799,False,2,407,sounds\english\audio/english_615.wav,"[[  0.          76.05955912]
 [  0.1         54.62950786]
 [  0.2        -31.02204933]
 [  0.3         -3.27946314]
 [  0.32341667  51.350795  ]]","[[0.         1.68553334]
 [0.1        1.5058876 ]
 [0.2        1.66676809]
 [0.3        1.09840801]
 [0.32341667 0.25314986]]",0,0.341
8768944929,m,21,english,5,4,english,2024-02-01 10:32:41.968799,False,2,408,sounds\english\audio/english_514.wav,"[[  0.         -61.65105701]
 [  0.1         49.84264816]
 [  0.2         14.14440898]
 [  0.3        -30.10662908]
 [  0.32341667  90.48337022]]","[[0.         1.12509033]
 [0.1        0.78701739]
 [0.2        0.37052689]
 [0.3        1.42053426]
 [0.32341667 1.94621598]]",1,0.276
8768944929,m,21,english,5,4,english,2024-02-01 10:32:41.968799,False,2,409,sounds\english\audio/english_4.wav,"[[ 0.         97.57442054]
 [ 0.1        57.41970729]
 [ 0.2        32.67065062]
 [ 0.3        34.06011343]
 [ 0.32341667 83.59797788]]","[[0.         1.3122383 ]
 [0.1        1.27661748]
 [0.2        1.16138222]
 [0.3        0.34510216]
 [0.32341667 1.84938224]]",0,0.167
8768944929,m,21,english,5,4,english,2024-02-01 10:32:41.968799,False,2,410,sounds\english\audio/english_241.wav,"[[  0.          68.9743722 ]
 [  0.1         68.48567391]
 [  0.2         12.6952975 ]
 [  0.3         61.42298605]
 [  0.32341667 -18.578671  ]]","[[0.         1.94478574]
 [0.1        1.84895789]
 [0.2        1.1085625 ]
 [0.3        1.36682755]
 [0.32341667 0.93494379]]",0,1.106
8768944929,m,21,english,5,4,english,2024-02-01 10:32:41.968799,False,2,411,sounds\english\audio/english_458.wav,"[[  0.         -49.69821038]
 [  0.1        -49.80647014]
 [  0.2         11.98261521]
 [  0.3         59.43319096]
 [  0.32341667 -34.5671642 ]]","[[0.         0.39452057]
 [0.1        1.24604375]
 [0.2        0.42272405]
 [0.3        0.21259233]
 [0.32341667 1.13235362]]",1,0.76
8768944929,m,21,english,5,4,english,2024-02-01 10:32:41.968799,False,2,412,sounds\english\audio/english_742.wav,"[[  0.          12.62363586]
 [  0.1         23.02085171]
 [  0.2         23.36423086]
 [  0.3         97.70614946]
 [  0.32341667 -25.72861775]]","[[0.         1.26368295]
 [0.1        0.7448394 ]
 [0.2        0.05261082]
 [0.3        1.01748925]
 [0.32341667 0.88645775]]",1,1.657
8768944929,m,21,english,5,4,english,2024-02-01 10:32:41.968799,False,2,413,sounds\english\audio/english_367.wav,"[[  0.          69.68935346]
 [  0.1        -21.84293244]
 [  0.2        -22.40126322]
 [  0.3        -77.83415675]
 [  0.32341667  18.42522507]]","[[0.         1.12532443]
 [0.1        1.15903886]
 [0.2        1.68834661]
 [0.3        1.78966274]
 [0.32341667 1.57311162]]",0,0.638
8768944929,m,21,english,5,4,english,2024-02-01 10:32:41.968799,False,2,414,sounds\english\audio/english_127.wav,"[[  0.         -69.70750805]
 [  0.1        -23.17484413]
 [  0.2         16.27024862]
 [  0.3        -50.08342814]
 [  0.32341667  22.60332787]]","[[0.         0.25070661]
 [0.1        1.1475992 ]
 [0.2        1.99299371]
 [0.3        0.57749513]
 [0.32341667 1.27832678]]",0,0.35
8768944929,m,21,english,5,4,english,2024-02-01 10:32:41.968799,False,2,415,sounds\english\audio/english_659.wav,"[[  0.         -86.13080632]
 [  0.1         39.51927718]
 [  0.2         -6.22185106]
 [  0.3          5.64287294]
 [  0.32341667  47.08694279]]","[[0.         0.77157019]
 [0.1        1.34569204]
 [0.2        0.71695874]
 [0.3        1.04110125]
 [0.32341667 1.84115141]]",1,0.373
8768944929,m,21,english,5,4,english,2024-02-01 10:32:41.968799,False,2,416,sounds\english\audio/english_49.wav,"[[  0.          -6.08822071]
 [  0.1        -56.0367764 ]
 [  0.2        -51.95657584]
 [  0.3        -59.93208112]
 [  0.32341667  -7.85847813]]","[[0.         0.36436507]
 [0.1        1.66948988]
 [0.2        1.20554654]
 [0.3        0.31084089]
 [0.32341667 0.44223059]]",0,0.53
8768944929,m,21,english,5,4,english,2024-02-01 10:32:41.968799,False,2,417,sounds\english\audio/english_414.wav,"[[ 0.         19.47839865]
 [ 0.1        59.9490877 ]
 [ 0.2        22.33981162]
 [ 0.3        18.97426154]
 [ 0.32341667 15.16306506]]","[[0.         0.9434816 ]
 [0.1        1.1146936 ]
 [0.2        0.48476454]
 [0.3        0.23554241]
 [0.32341667 1.13007685]]",0,0.784
8768944929,m,21,english,5,4,english,2024-02-01 10:32:41.968799,False,2,418,sounds\english\audio/english_555.wav,"[[  0.          69.49762262]
 [  0.1         42.72159746]
 [  0.2         96.74773092]
 [  0.3        -27.92411753]
 [  0.32341667  33.93273626]]","[[0.         1.08530069]
 [0.1        0.99979939]
 [0.2        1.75882447]
 [0.3        1.36775981]
 [0.32341667 0.90104071]]",0,0.911
8768944929,m,21,english,5,4,english,2024-02-01 10:32:41.968799,False,2,419,sounds\english\audio/english_841.wav,"[[  0.          36.57834023]
 [  0.1         81.12994836]
 [  0.2         55.4316434 ]
 [  0.3        -50.85387517]
 [  0.32341667 -52.13814436]]","[[0.         0.37598589]
 [0.1        1.18949815]
 [0.2        1.24219065]
 [0.3        1.45004046]
 [0.32341667 0.19253582]]",0,0.309
8768944929,m,21,english,5,4,english,2024-02-01 10:32:41.968799,False,2,420,sounds\english\audio/english_400.wav,"[[  0.          -9.17924521]
 [  0.1        -51.0410118 ]
 [  0.2         66.2548805 ]
 [  0.3         92.33374018]
 [  0.32341667 -60.80730989]]","[[0.         1.06898792]
 [0.1        0.05890524]
 [0.2        1.54728483]
 [0.3        1.43953162]
 [0.32341667 1.12546459]]",0,0.592
8768944929,m,21,english,5,4,english,2024-02-01 10:32:41.968799,False,2,421,sounds\english\audio/english_554.wav,"[[  0.           9.57607907]
 [  0.1         29.37398753]
 [  0.2        -58.71210794]
 [  0.3        -10.7927705 ]
 [  0.32341667  21.8128915 ]]","[[0.         1.93967122]
 [0.1        1.74360796]
 [0.2        0.37945994]
 [0.3        1.56347046]
 [0.32341667 1.38248676]]",0,0.391
8768944929,m,21,english,5,4,english,2024-02-01 10:32:41.968799,False,2,422,sounds\english\audio/english_295.wav,"[[  0.         -76.51454746]
 [  0.1        -96.9380047 ]
 [  0.2        -72.79782389]
 [  0.3        -31.86888898]
 [  0.32341667 -51.47839766]]","[[0.         1.12273409]
 [0.1        0.2018376 ]
 [0.2        1.81703153]
 [0.3        0.31799467]
 [0.32341667 0.71777059]]",0,0.298
8768944929,m,21,english,5,4,english,2024-02-01 10:32:41.968799,False,2,423,sounds\english\audio/english_538.wav,"[[  0.           2.36208538]
 [  0.1         77.85923423]
 [  0.2        -89.1271409 ]
 [  0.3        -18.79772534]
 [  0.32341667  87.62276495]]","[[0.         1.54356298]
 [0.1        0.47597082]
 [0.2        1.27977799]
 [0.3        1.05516459]
 [0.32341667 1.20284762]]",0,0.132
8768944929,m,21,english,5,4,english,2024-02-01 10:32:41.968799,False,2,424,sounds\english\audio/english_86.wav,"[[  0.         -48.59393833]
 [  0.1         77.37095157]
 [  0.2         44.19816726]
 [  0.3        -99.780271  ]
 [  0.32341667  38.96545556]]","[[0.         1.45450552]
 [0.1        1.8635573 ]
 [0.2        1.174515  ]
 [0.3        1.46785746]
 [0.32341667 0.99607158]]",0,0.258
8768944929,m,21,english,5,4,english,2024-02-01 10:32:41.968799,False,2,425,sounds\english\audio/english_78.wav,"[[  0.          57.57509383]
 [  0.1          8.37611797]
 [  0.2        -42.8518908 ]
 [  0.3         26.19415986]
 [  0.32341667  65.52498429]]","[[0.         0.85738581]
 [0.1        1.59375359]
 [0.2        1.65756647]
 [0.3        0.53011742]
 [0.32341667 1.5323802 ]]",0,0.082
8768944929,m,21,english,5,4,english,2024-02-01 10:32:41.968799,False,2,426,sounds\english\audio/english_26.wav,"[[  0.          54.38966875]
 [  0.1          0.3460174 ]
 [  0.2        -72.33258957]
 [  0.3         67.09142092]
 [  0.32341667  16.00565239]]","[[0.         1.86679487]
 [0.1        0.79762949]
 [0.2        0.93682052]
 [0.3        1.42469209]
 [0.32341667 1.17807545]]",0,0.117
8768944929,m,21,english,5,4,english,2024-02-01 10:32:41.968799,False,2,427,sounds\english\audio/english_731.wav,"[[  0.          91.74609406]
 [  0.1         96.5637085 ]
 [  0.2        -58.02596537]
 [  0.3         21.59328018]
 [  0.32341667  13.26044458]]","[[0.         0.2840719 ]
 [0.1        1.75324284]
 [0.2        1.43086201]
 [0.3        1.68336342]
 [0.32341667 0.60031718]]",0,0.103
8768944929,m,21,english,5,4,english,2024-02-01 10:32:41.968799,False,2,428,sounds\english\audio/english_229.wav,"[[  0.          51.56916705]
 [  0.1        -51.28327497]
 [  0.2         97.78221202]
 [  0.3        -75.98126047]
 [  0.32341667 -44.05308002]]","[[0.         1.25898044]
 [0.1        0.34588319]
 [0.2        1.91985924]
 [0.3        0.82059623]
 [0.32341667 1.38191391]]",0,0.162
8768944929,m,21,english,5,4,english,2024-02-01 10:32:41.968799,False,2,429,sounds\english\audio/english_144.wav,"[[  0.         -68.95587174]
 [  0.1        -74.16141139]
 [  0.2        -19.31034794]
 [  0.3        -77.96768175]
 [  0.32341667   3.46911061]]","[[0.         0.23806678]
 [0.1        0.77020267]
 [0.2        0.33858197]
 [0.3        1.42512122]
 [0.32341667 0.57629619]]",0,0.455
8768944929,m,21,english,5,4,english,2024-02-01 10:32:41.968799,False,2,430,sounds\english\audio/english_394.wav,"[[ 0.         73.08757955]
 [ 0.1         5.60908311]
 [ 0.2        76.56705043]
 [ 0.3        18.85166324]
 [ 0.32341667  8.45052692]]","[[0.         1.29313131]
 [0.1        0.62691873]
 [0.2        1.4938005 ]
 [0.3        1.2266925 ]
 [0.32341667 0.67844158]]",0,0.471
8768944929,m,21,english,5,4,english,2024-02-01 10:32:41.968799,False,2,431,sounds\english\audio/english_611.wav,"[[  0.           4.04989913]
 [  0.1        -26.35519993]
 [  0.2        -41.22744209]
 [  0.3        -72.41198747]
 [  0.32341667 -60.09703168]]","[[0.         1.48647041]
 [0.1        0.87297853]
 [0.2        0.91907267]
 [0.3        0.12624761]
 [0.32341667 0.964981  ]]",0,0.523
8768944929,m,21,english,5,4,english,2024-02-01 10:32:41.968799,False,2,432,sounds\english\audio/english_505.wav,"[[  0.         -14.1569725 ]
 [  0.1         55.52926248]
 [  0.2         53.00334781]
 [  0.3         75.03788466]
 [  0.32341667  -7.91266729]]","[[0.         0.45361713]
 [0.1        0.94516805]
 [0.2        0.85342654]
 [0.3        1.32942474]
 [0.32341667 0.93790665]]",0,0.343
8768944929,m,21,english,5,4,english,2024-02-01 10:32:41.968799,False,2,433,sounds\english\audio/english_317.wav,"[[  0.         -26.75650792]
 [  0.1          9.07297032]
 [  0.2         17.58512652]
 [  0.3         29.57201507]
 [  0.32341667  56.4667582 ]]","[[0.         1.75672771]
 [0.1        1.82949168]
 [0.2        1.6954519 ]
 [0.3        0.7122411 ]
 [0.32341667 1.26753728]]",0,1.069
8768944929,m,21,english,5,4,english,2024-02-01 10:32:41.968799,False,2,434,sounds\english\audio/english_395.wav,"[[ 0.         12.69072165]
 [ 0.1        16.88915645]
 [ 0.2        49.23789678]
 [ 0.3        39.87613746]
 [ 0.32341667 70.90138048]]","[[0.         1.18485033]
 [0.1        0.64230571]
 [0.2        0.95454364]
 [0.3        0.75997929]
 [0.32341667 1.50770695]]",1,0.323
8768944929,m,21,english,5,4,english,2024-02-01 10:32:41.968799,False,2,435,sounds\english\audio/english_831.wav,"[[  0.          -7.33710711]
 [  0.1        -87.69782071]
 [  0.2         34.03975531]
 [  0.3         -2.18295653]
 [  0.32341667  20.908766  ]]","[[0.         1.53159971]
 [0.1        1.22669962]
 [0.2        0.70180407]
 [0.3        1.02244347]
 [0.32341667 1.06702443]]",1,0.337
8768944929,m,21,english,5,4,english,2024-02-01 10:32:41.968799,False,2,436,sounds\english\audio/english_970.wav,"[[  0.          37.22911191]
 [  0.1         36.57191813]
 [  0.2         20.2344678 ]
 [  0.3        -86.31030026]
 [  0.32341667 -83.96880691]]","[[0.         0.60712849]
 [0.1        1.26781741]
 [0.2        1.29373459]
 [0.3        0.18112256]
 [0.32341667 1.07780169]]",1,0.193
8768944929,m,21,english,5,4,english,2024-02-01 10:32:41.968799,False,2,437,sounds\english\audio/english_59.wav,"[[  0.          30.26604033]
 [  0.1         25.69112756]
 [  0.2        -24.85549033]
 [  0.3        -31.2790444 ]
 [  0.32341667  86.30355152]]","[[0.         1.5973148 ]
 [0.1        0.24758472]
 [0.2        0.1547886 ]
 [0.3        0.30754036]
 [0.32341667 0.40312024]]",0,0.515
8768944929,m,21,english,5,4,english,2024-02-01 10:32:41.968799,False,2,438,sounds\english\audio/english_728.wav,"[[  0.          -6.4565561 ]
 [  0.1          2.02882612]
 [  0.2        -40.29513079]
 [  0.3        -29.37287389]
 [  0.32341667 -32.17490136]]","[[0.         1.7247049 ]
 [0.1        1.95158608]
 [0.2        0.21085377]
 [0.3        0.85434083]
 [0.32341667 1.52436666]]",1,0.519
8768944929,m,21,english,5,4,english,2024-02-01 10:32:41.968799,False,2,439,sounds\english\audio/english_639.wav,"[[  0.          -8.64176861]
 [  0.1         -2.28240571]
 [  0.2         61.07673865]
 [  0.3        -20.33592136]
 [  0.32341667 -24.05835486]]","[[0.         1.80061108]
 [0.1        0.32075858]
 [0.2        0.35362442]
 [0.3        1.48415136]
 [0.32341667 0.14560931]]",0,0.348
8768944929,m,21,english,5,4,english,2024-02-01 10:32:41.968799,False,2,440,sounds\english\audio/english_840.wav,"[[  0.         -27.11425843]
 [  0.1        -47.31494811]
 [  0.2        -88.66887426]
 [  0.3          7.86940595]
 [  0.32341667  87.61758205]]","[[0.         1.31301797]
 [0.1        0.54280133]
 [0.2        0.14090987]
 [0.3        0.11950116]
 [0.32341667 1.48166624]]",0,1.625
8768944929,m,21,english,5,4,english,2024-02-01 10:32:41.968799,False,2,441,sounds\english\audio/english_822.wav,"[[ 0.         22.19463519]
 [ 0.1        46.02970585]
 [ 0.2        44.31281831]
 [ 0.3        27.24156044]
 [ 0.32341667 41.58842879]]","[[0.         1.34957498]
 [0.1        1.18534363]
 [0.2        0.88966115]
 [0.3        1.22476657]
 [0.32341667 0.51847317]]",0,0.724
8768944929,m,21,english,5,4,english,2024-02-01 10:32:41.968799,False,2,442,sounds\english\audio/english_305.wav,"[[  0.         -23.95553444]
 [  0.1        -97.95184299]
 [  0.2         95.23338475]
 [  0.3         10.74081096]
 [  0.32341667  24.9757793 ]]","[[0.         0.70401859]
 [0.1        0.00875292]
 [0.2        1.8427633 ]
 [0.3        1.83453859]
 [0.32341667 1.77535614]]",1,0.153
8768944929,m,21,english,5,4,english,2024-02-01 10:32:41.968799,False,2,443,sounds\english\audio/english_340.wav,"[[  0.          42.62794877]
 [  0.1         67.09042835]
 [  0.2        -80.28719593]
 [  0.3        -47.97556268]
 [  0.32341667  32.7013797 ]]","[[0.         1.44385011]
 [0.1        1.29329602]
 [0.2        1.71068781]
 [0.3        0.48872717]
 [0.32341667 1.09000269]]",0,0.273
8768944929,m,21,english,5,4,english,2024-02-01 10:32:41.968799,False,2,444,sounds\english\audio/english_182.wav,"[[  0.          57.43769915]
 [  0.1        -87.06676545]
 [  0.2        -91.52107401]
 [  0.3         52.0843588 ]
 [  0.32341667  18.07264914]]","[[0.         0.89919812]
 [0.1        1.25243937]
 [0.2        1.35021358]
 [0.3        0.52787795]
 [0.32341667 0.72620624]]",1,0.46
8768944929,m,21,english,5,4,english,2024-02-01 10:32:41.968799,False,2,445,sounds\english\audio/english_903.wav,"[[  0.          73.58848698]
 [  0.1        -95.58060262]
 [  0.2         17.41642173]
 [  0.3         94.35223882]
 [  0.32341667 -49.48803877]]","[[0.         0.30588109]
 [0.1        0.88963747]
 [0.2        1.73634476]
 [0.3        0.71257749]
 [0.32341667 1.4824474 ]]",1,0.378
8768944929,m,21,english,5,4,english,2024-02-01 10:32:41.968799,False,2,446,sounds\english\audio/english_193.wav,"[[ 0.         98.63199606]
 [ 0.1        38.06859183]
 [ 0.2        58.19309996]
 [ 0.3        70.68425501]
 [ 0.32341667 89.06926868]]","[[0.         1.10219899]
 [0.1        1.75752318]
 [0.2        1.8701857 ]
 [0.3        1.90449871]
 [0.32341667 1.70479661]]",0,0.158
8768944929,m,21,english,5,4,english,2024-02-01 10:32:41.968799,False,2,447,sounds\english\audio/english_274.wav,"[[  0.         -30.61452779]
 [  0.1        -42.14612233]
 [  0.2         32.00602795]
 [  0.3        -37.74375581]
 [  0.32341667 -54.5397802 ]]","[[0.         0.78021116]
 [0.1        1.93993358]
 [0.2        0.32963606]
 [0.3        1.46133782]
 [0.32341667 1.53178785]]",0,0.159
8768944929,m,21,english,5,4,english,2024-02-01 10:32:41.968799,False,2,448,sounds\english\audio/english_730.wav,"[[  0.          12.15035978]
 [  0.1        -56.22765555]
 [  0.2        -53.26534685]
 [  0.3        -25.75230742]
 [  0.32341667 -73.04726616]]","[[0.         0.91227818]
 [0.1        1.17022701]
 [0.2        0.58034143]
 [0.3        1.9562998 ]
 [0.32341667 1.99538846]]",0,0.219
8768944929,m,21,english,5,4,english,2024-02-01 10:32:41.968799,False,2,449,sounds\english\audio/english_584.wav,"[[  0.          10.38934641]
 [  0.1         16.58552078]
 [  0.2         93.24376001]
 [  0.3        -17.62367845]
 [  0.32341667  35.31863132]]","[[0.         1.28044862]
 [0.1        0.12750447]
 [0.2        0.67889343]
 [0.3        1.20299248]
 [0.32341667 1.61660781]]",1,0.181
8768944929,m,21,english,5,4,english,2024-02-01 10:32:41.968799,False,2,450,sounds\english\audio/english_938.wav,"[[  0.          55.68553541]
 [  0.1         19.57508628]
 [  0.2         99.59707332]
 [  0.3        -43.3789335 ]
 [  0.32341667  90.00594125]]","[[0.         1.13527087]
 [0.1        0.57526943]
 [0.2        0.71873046]
 [0.3        0.88566698]
 [0.32341667 0.39461425]]",0,0.207
8768944929,m,21,english,5,4,english,2024-02-01 10:32:41.968799,False,2,451,sounds\english\audio/english_553.wav,"[[  0.         -18.85071283]
 [  0.1         56.72439372]
 [  0.2        -32.51510613]
 [  0.3        -81.56708954]
 [  0.32341667  42.80590219]]","[[0.         1.30647824]
 [0.1        1.55205535]
 [0.2        1.79127341]
 [0.3        0.1795284 ]
 [0.32341667 0.48805839]]",0,0.157
8768944929,m,21,english,5,4,english,2024-02-01 10:32:41.968799,False,2,452,sounds\english\audio/english_540.wav,"[[  0.         -46.6752609 ]
 [  0.1        -93.20209644]
 [  0.2         64.96419662]
 [  0.3        -12.16484387]
 [  0.32341667 -44.34688232]]","[[0.         1.16352469]
 [0.1        0.0234781 ]
 [0.2        0.05926191]
 [0.3        1.47406284]
 [0.32341667 0.60104864]]",1,0.416
8768944929,m,21,english,5,4,english,2024-02-01 10:32:41.968799,False,2,453,sounds\english\audio/english_744.wav,"[[  0.          43.39686976]
 [  0.1        -61.67573043]
 [  0.2          0.51873183]
 [  0.3         12.88130512]
 [  0.32341667  57.31714449]]","[[0.         0.75505854]
 [0.1        1.01311725]
 [0.2        0.73457108]
 [0.3        0.90154102]
 [0.32341667 1.01338509]]",0,0.45
8768944929,m,21,english,5,4,english,2024-02-01 10:32:41.968799,False,2,454,sounds\english\audio/english_899.wav,"[[  0.          34.44970312]
 [  0.1        -73.97598586]
 [  0.2          4.84970015]
 [  0.3         25.99530817]
 [  0.32341667   7.0197251 ]]","[[0.         1.0262563 ]
 [0.1        0.5565938 ]
 [0.2        0.08950317]
 [0.3        1.10823657]
 [0.32341667 1.27665612]]",1,0.384
8768944929,m,21,english,5,4,english,2024-02-01 10:32:41.968799,False,2,455,sounds\english\audio/english_721.wav,"[[  0.          -1.67193172]
 [  0.1         23.81304459]
 [  0.2         94.27532923]
 [  0.3         10.08520391]
 [  0.32341667 -26.68837018]]","[[0.         0.23966059]
 [0.1        1.61361986]
 [0.2        0.58045828]
 [0.3        1.63757532]
 [0.32341667 1.4581473 ]]",0,0.366
8768944929,m,21,english,5,4,english,2024-02-01 10:32:41.968799,False,2,456,sounds\english\audio/english_398.wav,"[[  0.         -72.24204172]
 [  0.1         29.80242672]
 [  0.2        -29.26741326]
 [  0.3         30.68380911]
 [  0.32341667 -23.61694816]]","[[0.         0.50855809]
 [0.1        0.68040596]
 [0.2        1.59063958]
 [0.3        1.71035635]
 [0.32341667 1.737831  ]]",1,0.099
8768944929,m,21,english,5,4,english,2024-02-01 10:32:41.968799,False,2,457,sounds\english\audio/english_997.wav,"[[  0.          93.4252615 ]
 [  0.1         62.16088314]
 [  0.2        -26.38638022]
 [  0.3         89.15363163]
 [  0.32341667 -25.83137337]]","[[0.         0.4603395 ]
 [0.1        0.21654412]
 [0.2        1.36234896]
 [0.3        1.07462804]
 [0.32341667 0.84007196]]",0,0.717
8768944929,m,21,english,5,4,english,2024-02-01 10:32:41.968799,False,2,458,sounds\english\audio/english_812.wav,"[[  0.          70.24469457]
 [  0.1        -27.51466786]
 [  0.2         60.55844263]
 [  0.3         52.93607499]
 [  0.32341667  74.74872052]]","[[0.         0.85599223]
 [0.1        0.39005905]
 [0.2        1.43275618]
 [0.3        1.34329238]
 [0.32341667 0.96810209]]",1,0.377
8768944929,m,21,english,5,4,english,2024-02-01 10:32:41.968799,False,2,459,sounds\english\audio/english_544.wav,"[[  0.          96.80704334]
 [  0.1         70.5198752 ]
 [  0.2         78.21609099]
 [  0.3        -95.7752672 ]
 [  0.32341667 -56.58918052]]","[[0.         1.85115917]
 [0.1        0.8718407 ]
 [0.2        1.82238935]
 [0.3        0.25719172]
 [0.32341667 0.72929157]]",0,0.187
8768944929,m,21,english,5,4,english,2024-02-01 10:32:41.968799,False,2,460,sounds\english\audio/english_208.wav,"[[  0.         -16.36413188]
 [  0.1         25.67725806]
 [  0.2         15.43722313]
 [  0.3        -39.3158007 ]
 [  0.32341667  38.48956167]]","[[0.         1.19542909]
 [0.1        0.42717457]
 [0.2        1.01088833]
 [0.3        1.09044814]
 [0.32341667 1.60091335]]",1,0.113
8768944929,m,21,english,5,4,english,2024-02-01 10:32:41.968799,False,2,461,sounds\english\audio/english_335.wav,"[[  0.           2.73277154]
 [  0.1         -7.1950175 ]
 [  0.2         60.45920583]
 [  0.3        -26.91989021]
 [  0.32341667  -2.30142169]]","[[0.         0.73564724]
 [0.1        0.15546095]
 [0.2        0.90435367]
 [0.3        0.56661996]
 [0.32341667 1.21763394]]",1,0.497
8768944929,m,21,english,5,4,english,2024-02-01 10:32:41.968799,False,2,462,sounds\english\audio/english_773.wav,"[[  0.         -97.46951928]
 [  0.1         85.58858853]
 [  0.2        -54.69649905]
 [  0.3        -97.24656559]
 [  0.32341667  40.28006613]]","[[0.         0.54003315]
 [0.1        1.35505424]
 [0.2        1.09283168]
 [0.3        1.42526307]
 [0.32341667 0.69844725]]",0,0.054
8768944929,m,21,english,5,4,english,2024-02-01 10:32:41.968799,False,2,463,sounds\english\audio/english_960.wav,"[[  0.          35.80457434]
 [  0.1        -19.98469691]
 [  0.2         -8.88025322]
 [  0.3          6.59365348]
 [  0.32341667  64.0885905 ]]","[[0.         0.79357899]
 [0.1        0.63900775]
 [0.2        1.83966222]
 [0.3        1.05168668]
 [0.32341667 1.66020449]]",1,0.213
8768944929,m,21,english,5,4,english,2024-02-01 10:32:41.968799,False,2,464,sounds\english\audio/english_308.wav,"[[  0.          71.04817524]
 [  0.1        -29.23230128]
 [  0.2        -23.90252129]
 [  0.3        -20.50746627]
 [  0.32341667 -25.31970697]]","[[0.         1.27905886]
 [0.1        0.28593244]
 [0.2        0.87298087]
 [0.3        0.50431278]
 [0.32341667 1.06118321]]",0,0.362
8768944929,m,21,english,5,4,english,2024-02-01 10:32:41.968799,False,2,465,sounds\english\audio/english_659.wav,"[[  0.         -86.13080632]
 [  0.1         39.51927718]
 [  0.2         -6.22185106]
 [  0.3          5.64287294]
 [  0.32341667  47.08694279]]","[[0.         0.77157019]
 [0.1        1.34569204]
 [0.2        0.71695874]
 [0.3        1.04110125]
 [0.32341667 1.84115141]]",1,0.21
8768944929,m,21,english,5,4,english,2024-02-01 10:32:41.968799,False,2,466,sounds\english\audio/english_17.wav,"[[  0.          54.20763778]
 [  0.1         56.90002318]
 [  0.2         53.34795505]
 [  0.3        -49.04179277]
 [  0.32341667 -46.12718147]]","[[0.         0.24306789]
 [0.1        0.93194053]
 [0.2        0.70954885]
 [0.3        1.57385934]
 [0.32341667 1.28258365]]",1,0.665
8768944929,m,21,english,5,4,english,2024-02-01 10:32:41.968799,False,2,467,sounds\english\audio/english_312.wav,"[[  0.          44.01610098]
 [  0.1        -34.76139374]
 [  0.2        -43.47986862]
 [  0.3         -9.79517271]
 [  0.32341667  85.48914895]]","[[0.         1.36033213]
 [0.1        0.08557756]
 [0.2        1.06509633]
 [0.3        0.67257935]
 [0.32341667 0.12614926]]",0,0.195
8768944929,m,21,english,5,4,english,2024-02-01 10:32:41.968799,False,2,468,sounds\english\audio/english_70.wav,"[[  0.         -53.09237622]
 [  0.1         85.97526897]
 [  0.2         25.5645184 ]
 [  0.3          1.25172137]
 [  0.32341667  93.59431896]]","[[0.         1.21678364]
 [0.1        0.94111324]
 [0.2        1.03926055]
 [0.3        0.29519406]
 [0.32341667 0.80175783]]",1,0.296
8768944929,m,21,english,5,4,english,2024-02-01 10:32:41.968799,False,2,469,sounds\english\audio/english_6.wav,"[[  0.          -8.2116192 ]
 [  0.1        -28.50933877]
 [  0.2        -90.20174912]
 [  0.3         -7.18062469]
 [  0.32341667 -36.83558467]]","[[0.         1.24832701]
 [0.1        0.74984456]
 [0.2        1.37568362]
 [0.3        0.47637706]
 [0.32341667 0.68255954]]",0,0.054
8768944929,m,21,english,5,4,english,2024-02-01 10:32:41.968799,False,2,470,sounds\english\audio/english_575.wav,"[[  0.          61.73461998]
 [  0.1        -88.57549656]
 [  0.2        -30.88461278]
 [  0.3        -63.73327026]
 [  0.32341667  -0.55806298]]","[[0.         1.8510319 ]
 [0.1        1.54102878]
 [0.2        1.19801244]
 [0.3        1.20026237]
 [0.32341667 1.04112184]]",0,0.354
8768944929,m,21,english,5,4,english,2024-02-01 10:32:41.968799,False,2,471,sounds\english\audio/english_814.wav,"[[  0.         -63.32480856]
 [  0.1         34.42157774]
 [  0.2         -1.27362148]
 [  0.3         11.18388565]
 [  0.32341667  -9.56708644]]","[[0.         1.93717082]
 [0.1        0.66627456]
 [0.2        1.33718687]
 [0.3        1.12749716]
 [0.32341667 0.66623879]]",1,0.106
8768944929,m,21,english,5,4,english,2024-02-01 10:32:41.968799,False,2,472,sounds\english\audio/english_960.wav,"[[  0.          35.80457434]
 [  0.1        -19.98469691]
 [  0.2         -8.88025322]
 [  0.3          6.59365348]
 [  0.32341667  64.0885905 ]]","[[0.         0.79357899]
 [0.1        0.63900775]
 [0.2        1.83966222]
 [0.3        1.05168668]
 [0.32341667 1.66020449]]",0,0.178
8768944929,m,21,english,5,4,english,2024-02-01 10:32:41.968799,False,2,473,sounds\english\audio/english_252.wav,"[[  0.          79.75601627]
 [  0.1         17.00183399]
 [  0.2        -25.42800597]
 [  0.3        -47.65138194]
 [  0.32341667  35.10652067]]","[[0.         0.77799761]
 [0.1        1.07711339]
 [0.2        0.7917181 ]
 [0.3        1.47632881]
 [0.32341667 1.65919103]]",0,0.227
8768944929,m,21,english,5,4,english,2024-02-01 10:32:41.968799,False,2,474,sounds\english\audio/english_145.wav,"[[  0.         -29.75830226]
 [  0.1          0.94664025]
 [  0.2        -55.39340023]
 [  0.3        -49.58722608]
 [  0.32341667 -83.35110665]]","[[0.         1.9441914 ]
 [0.1        0.04744273]
 [0.2        1.27144901]
 [0.3        0.20842421]
 [0.32341667 0.85478836]]",0,0.311
8768944929,m,21,english,5,4,english,2024-02-01 10:32:41.968799,False,2,475,sounds\english\audio/english_1000.wav,"[[  0.          27.35321797]
 [  0.1         42.13438871]
 [  0.2         95.34760893]
 [  0.3        -34.10168873]
 [  0.32341667  64.49689477]]","[[0.         1.01803417]
 [0.1        0.4558176 ]
 [0.2        0.52251179]
 [0.3        0.90165507]
 [0.32341667 0.38395199]]",1,0.281
8768944929,m,21,english,5,4,english,2024-02-01 10:32:41.968799,False,2,476,sounds\english\audio/english_79.wav,"[[  0.         -69.52518262]
 [  0.1         56.533406  ]
 [  0.2         25.92051761]
 [  0.3         81.58880491]
 [  0.32341667 -19.75719301]]","[[0.         0.23164561]
 [0.1        1.01948637]
 [0.2        0.17653141]
 [0.3        0.14868702]
 [0.32341667 0.33345335]]",0,0.309
8768944929,m,21,english,5,4,english,2024-02-01 10:32:41.968799,False,2,477,sounds\english\audio/english_934.wav,"[[ 0.         48.23169593]
 [ 0.1        42.81145804]
 [ 0.2        79.06411095]
 [ 0.3        69.44528076]
 [ 0.32341667 88.54940569]]","[[0.         1.38760579]
 [0.1        1.74622613]
 [0.2        0.2874918 ]
 [0.3        1.61606763]
 [0.32341667 1.62058381]]",1,0.12
8768944929,m,21,english,5,4,english,2024-02-01 10:32:41.968799,False,2,478,sounds\english\audio/english_760.wav,"[[ 0.00000000e+00  2.43902693e+01]
 [ 1.00000000e-01 -2.47174936e-02]
 [ 2.00000000e-01  8.28662613e+01]
 [ 3.00000000e-01 -7.97314524e+00]
 [ 3.23416667e-01 -6.32438983e+00]]","[[0.         0.67210823]
 [0.1        1.89588113]
 [0.2        0.23432987]
 [0.3        1.20797246]
 [0.32341667 1.72866971]]",1,0.473
8768944929,m,21,english,5,4,english,2024-02-01 10:32:41.968799,False,2,479,sounds\english\audio/english_820.wav,"[[  0.         -46.83321603]
 [  0.1         41.6487922 ]
 [  0.2          8.4156442 ]
 [  0.3        -54.82963666]
 [  0.32341667  30.43602938]]","[[0.         0.84618107]
 [0.1        0.98544532]
 [0.2        0.7701051 ]
 [0.3        1.20043732]
 [0.32341667 1.85489027]]",0,0.094
8768944929,m,21,english,5,4,english,2024-02-01 10:32:41.968799,False,2,480,sounds\english\audio/english_680.wav,"[[  0.          93.24972168]
 [  0.1         21.55707386]
 [  0.2        -58.84044748]
 [  0.3        -13.55367876]
 [  0.32341667  17.98073729]]","[[0.         1.89994278]
 [0.1        1.06559033]
 [0.2        0.79606997]
 [0.3        0.35899559]
 [0.32341667 1.50925573]]",1,0.143
8768944929,m,21,english,5,4,english,2024-02-01 10:32:41.968799,False,2,481,sounds\english\audio/english_547.wav,"[[  0.          30.48969685]
 [  0.1        -38.27442703]
 [  0.2         29.58442849]
 [  0.3         -4.27268154]
 [  0.32341667  58.02076364]]","[[0.         1.04682874]
 [0.1        0.75017858]
 [0.2        0.7996645 ]
 [0.3        1.92102789]
 [0.32341667 1.77056707]]",0,0.087
8768944929,m,21,english,5,4,english,2024-02-01 10:32:41.968799,False,2,482,sounds\english\audio/english_351.wav,"[[  0.         -56.55455818]
 [  0.1        -81.1333892 ]
 [  0.2         70.95296343]
 [  0.3        -82.79021433]
 [  0.32341667 -21.34496407]]","[[0.         0.98366365]
 [0.1        1.13800808]
 [0.2        1.04915948]
 [0.3        1.70890302]
 [0.32341667 1.83807055]]",1,0.198
8768944929,m,21,english,5,4,english,2024-02-01 10:32:41.968799,False,2,483,sounds\english\audio/english_667.wav,"[[  0.         -36.96649028]
 [  0.1          9.08709827]
 [  0.2         85.36553945]
 [  0.3        -41.19556041]
 [  0.32341667 -31.79783786]]","[[0.         1.3014101 ]
 [0.1        0.05882523]
 [0.2        1.428997  ]
 [0.3        1.2429303 ]
 [0.32341667 0.97363261]]",1,0.368
8768944929,m,21,english,5,4,english,2024-02-01 10:32:41.968799,False,2,484,sounds\english\audio/english_833.wav,"[[  0.          18.29317799]
 [  0.1         20.01945042]
 [  0.2        -77.99741705]
 [  0.3         19.36192697]
 [  0.32341667  43.06785988]]","[[0.         0.49951345]
 [0.1        1.12176851]
 [0.2        0.59960618]
 [0.3        0.50557433]
 [0.32341667 0.3288339 ]]",0,0.221
8768944929,m,21,english,5,4,english,2024-02-01 10:32:41.968799,False,2,485,sounds\english\audio/english_639.wav,"[[  0.          -8.64176861]
 [  0.1         -2.28240571]
 [  0.2         61.07673865]
 [  0.3        -20.33592136]
 [  0.32341667 -24.05835486]]","[[0.         1.80061108]
 [0.1        0.32075858]
 [0.2        0.35362442]
 [0.3        1.48415136]
 [0.32341667 0.14560931]]",1,0.271
8768944929,m,21,english,5,4,english,2024-02-01 10:32:41.968799,False,2,486,sounds\english\audio/english_264.wav,"[[  0.          16.10521774]
 [  0.1        -43.55481907]
 [  0.2        -16.87093852]
 [  0.3        -81.41755984]
 [  0.32341667 -76.00277997]]","[[0.         1.02407609]
 [0.1        1.4393598 ]
 [0.2        1.31552174]
 [0.3        1.17516842]
 [0.32341667 0.613195  ]]",1,0.766
8768944929,m,21,english,5,4,english,2024-02-01 10:32:41.968799,False,2,487,sounds\english\audio/english_517.wav,"[[  0.          11.23661905]
 [  0.1         58.81241605]
 [  0.2         38.38790279]
 [  0.3        -74.61462092]
 [  0.32341667 -36.69086471]]","[[0.         0.76208972]
 [0.1        0.18193562]
 [0.2        1.85963831]
 [0.3        0.20223028]
 [0.32341667 1.46287498]]",0,0.358
8768944929,m,21,english,5,4,english,2024-02-01 10:32:41.968799,False,2,488,sounds\english\audio/english_81.wav,"[[  0.          -8.99652005]
 [  0.1         37.2959996 ]
 [  0.2         56.49217416]
 [  0.3         99.31521879]
 [  0.32341667 -25.36881215]]","[[0.         1.6890162 ]
 [0.1        1.86826101]
 [0.2        0.68929954]
 [0.3        0.22383451]
 [0.32341667 0.930773  ]]",0,0.895
8768944929,m,21,english,5,4,english,2024-02-01 10:32:41.968799,False,2,489,sounds\english\audio/english_349.wav,"[[  0.         -10.00495534]
 [  0.1         54.31199814]
 [  0.2         48.17968705]
 [  0.3          8.48926652]
 [  0.32341667  42.05620052]]","[[0.         0.36915768]
 [0.1        0.83111041]
 [0.2        1.70147194]
 [0.3        1.08588898]
 [0.32341667 0.02584958]]",1,0.194
8768944929,m,21,english,5,4,english,2024-02-01 10:32:41.968799,False,2,490,sounds\english\audio/english_306.wav,"[[  0.         -78.46406697]
 [  0.1        -60.64765069]
 [  0.2         41.654101  ]
 [  0.3         58.45609749]
 [  0.32341667 -89.32145871]]","[[0.         1.96625377]
 [0.1        1.9128761 ]
 [0.2        0.92284414]
 [0.3        1.12546267]
 [0.32341667 0.77622038]]",0,0.178
8768944929,m,21,english,5,4,english,2024-02-01 10:32:41.968799,False,2,491,sounds\english\audio/english_28.wav,"[[  0.          46.68805065]
 [  0.1        -19.91180265]
 [  0.2         30.74929008]
 [  0.3         14.01537548]
 [  0.32341667 -32.95915121]]","[[0.         0.37315412]
 [0.1        0.08560602]
 [0.2        0.67724734]
 [0.3        0.53332652]
 [0.32341667 1.33480721]]",1,0.219
8768944929,m,21,english,5,4,english,2024-02-01 10:32:41.968799,False,2,492,sounds\english\audio/english_112.wav,"[[  0.         -98.7507832 ]
 [  0.1        -92.72198769]
 [  0.2         15.54821062]
 [  0.3        -40.54151432]
 [  0.32341667 -42.89167932]]","[[0.         1.62855774]
 [0.1        1.23374737]
 [0.2        0.76022921]
 [0.3        0.49860071]
 [0.32341667 0.23801633]]",0,0.134
8768944929,m,21,english,5,4,english,2024-02-01 10:32:41.968799,False,2,493,sounds\english\audio/english_106.wav,"[[  0.         -46.25200282]
 [  0.1        -83.38564728]
 [  0.2         68.00501759]
 [  0.3         49.15199267]
 [  0.32341667  -5.93966373]]","[[0.         0.21046793]
 [0.1        1.42142181]
 [0.2        0.86156936]
 [0.3        0.65348811]
 [0.32341667 0.76273979]]",0,0.394
8768944929,m,21,english,5,4,english,2024-02-01 10:32:41.968799,False,2,494,sounds\english\audio/english_30.wav,"[[  0.         -18.5398728 ]
 [  0.1        -67.34991207]
 [  0.2         65.54879707]
 [  0.3         30.88088319]
 [  0.32341667  50.60550813]]","[[0.         0.31748681]
 [0.1        1.82477139]
 [0.2        1.59992979]
 [0.3        0.89523729]
 [0.32341667 1.02052202]]",0,0.212
8768944929,m,21,english,5,4,english,2024-02-01 10:32:41.968799,False,2,495,sounds\english\audio/english_498.wav,"[[  0.           2.49020902]
 [  0.1        -20.55300452]
 [  0.2        -34.14985779]
 [  0.3         79.54997135]
 [  0.32341667  20.54695207]]","[[0.         0.78964515]
 [0.1        0.24391593]
 [0.2        0.11401041]
 [0.3        1.52582154]
 [0.32341667 0.62547878]]",0,0.325
8768944929,m,21,english,5,4,english,2024-02-01 10:32:41.968799,False,2,496,sounds\english\audio/english_40.wav,"[[  0.          20.98315678]
 [  0.1         80.64974175]
 [  0.2          5.38930518]
 [  0.3         18.83593916]
 [  0.32341667 -14.62145671]]","[[0.         0.33544846]
 [0.1        0.81764939]
 [0.2        0.17548883]
 [0.3        0.83674413]
 [0.32341667 0.80890384]]",1,0.209
8768944929,m,21,english,5,4,english,2024-02-01 10:32:41.968799,False,2,497,sounds\english\audio/english_706.wav,"[[  0.         -14.02426606]
 [  0.1         23.81630209]
 [  0.2         94.24266466]
 [  0.3         20.03642156]
 [  0.32341667  57.92570785]]","[[0.         0.18721001]
 [0.1        0.48464851]
 [0.2        1.46456973]
 [0.3        0.11403632]
 [0.32341667 0.61389372]]",1,0.208
8768944929,m,21,english,5,4,english,2024-02-01 10:32:41.968799,False,2,498,sounds\english\audio/english_810.wav,"[[ 0.00000000e+00  4.46757801e+01]
 [ 1.00000000e-01 -9.84252216e+01]
 [ 2.00000000e-01  5.54106213e+01]
 [ 3.00000000e-01 -1.84676839e+01]
 [ 3.23416667e-01  2.59169543e-02]]","[[0.         0.77700382]
 [0.1        1.25917073]
 [0.2        0.78203472]
 [0.3        1.13021068]
 [0.32341667 0.14578676]]",1,0.366
8768944929,m,21,english,5,4,english,2024-02-01 10:32:41.968799,False,2,499,sounds\english\audio/english_315.wav,"[[  0.           3.76150079]
 [  0.1          4.93204799]
 [  0.2        -81.53480532]
 [  0.3         45.94577355]
 [  0.32341667 -55.96194099]]","[[0.         1.04293113]
 [0.1        0.55537984]
 [0.2        1.13024782]
 [0.3        1.06792043]
 [0.32341667 1.80369969]]",0,0.143
8768944929,m,21,english,5,4,english,2024-02-01 10:32:41.968799,False,2,500,sounds\english\audio/english_290.wav,"[[  0.          73.71968657]
 [  0.1        -59.85317413]
 [  0.2         71.1426587 ]
 [  0.3        -18.50007061]
 [  0.32341667 -65.91143137]]","[[0.         0.30552726]
 [0.1        1.31636279]
 [0.2        0.54925413]
 [0.3        1.26204455]
 [0.32341667 0.60528556]]",1,0.166
8768944929,m,21,english,5,4,english,2024-02-01 10:32:41.968799,False,2,501,sounds\english\audio/english_659.wav,"[[  0.         -86.13080632]
 [  0.1         39.51927718]
 [  0.2         -6.22185106]
 [  0.3          5.64287294]
 [  0.32341667  47.08694279]]","[[0.         0.77157019]
 [0.1        1.34569204]
 [0.2        0.71695874]
 [0.3        1.04110125]
 [0.32341667 1.84115141]]",1,0.355
8768944929,m,21,english,5,4,english,2024-02-01 10:32:41.968799,False,2,502,sounds\english\audio/english_584.wav,"[[  0.          10.38934641]
 [  0.1         16.58552078]
 [  0.2         93.24376001]
 [  0.3        -17.62367845]
 [  0.32341667  35.31863132]]","[[0.         1.28044862]
 [0.1        0.12750447]
 [0.2        0.67889343]
 [0.3        1.20299248]
 [0.32341667 1.61660781]]",0,0.37
