subj,sex,age,language,english,french,native_lang,date,practice,block,trial,stim,pitch,stretch,response,rt
8729820499,f,20,english,5,3,english,2024-02-01 10:36:57.252449,True,0,0,sounds\english\audio/english_832.wav,"[[  0.         -21.62855277]
 [  0.1        -35.3834786 ]
 [  0.2         52.65867494]
 [  0.3         62.52082964]
 [  0.32341667  46.66062952]]","[[0.         1.31372842]
 [0.1        1.55258378]
 [0.2        1.50567803]
 [0.3        1.2163301 ]
 [0.32341667 1.20100353]]",1,3.912
8729820499,f,20,english,5,3,english,2024-02-01 10:36:57.252449,True,0,1,sounds\english\audio/english_936.wav,"[[  0.          48.39129511]
 [  0.1        -60.21618585]
 [  0.2         21.92845445]
 [  0.3         72.85258749]
 [  0.32341667  60.11152814]]","[[0.         0.54114143]
 [0.1        1.68728974]
 [0.2        1.39155326]
 [0.3        0.90488419]
 [0.32341667 1.20326098]]",1,0.983
8729820499,f,20,english,5,3,english,2024-02-01 10:36:57.252449,True,0,2,sounds\english\audio/english_317.wav,"[[  0.         -26.75650792]
 [  0.1          9.07297032]
 [  0.2         17.58512652]
 [  0.3         29.57201507]
 [  0.32341667  56.4667582 ]]","[[0.         1.75672771]
 [0.1        1.82949168]
 [0.2        1.6954519 ]
 [0.3        0.7122411 ]
 [0.32341667 1.26753728]]",1,0.246
8729820499,f,20,english,5,3,english,2024-02-01 10:36:57.252449,False,1,3,sounds\english\audio/english_421.wav,"[[ 0.         25.39012861]
 [ 0.1        49.11153532]
 [ 0.2        38.93723883]
 [ 0.3        -9.34286459]
 [ 0.32341667 -9.28476392]]","[[0.         1.47358925]
 [0.1        1.20920516]
 [0.2        0.72174872]
 [0.3        0.24556907]
 [0.32341667 0.87006143]]",0,0.669
8729820499,f,20,english,5,3,english,2024-02-01 10:36:57.252449,False,1,4,sounds\english\audio/english_158.wav,"[[  0.          33.09785739]
 [  0.1        -85.08083727]
 [  0.2         97.70701203]
 [  0.3          2.54261044]
 [  0.32341667 -59.73934841]]","[[0.         1.71128449]
 [0.1        1.56145129]
 [0.2        0.69707892]
 [0.3        1.19647348]
 [0.32341667 1.17782448]]",0,0.207
8729820499,f,20,english,5,3,english,2024-02-01 10:36:57.252449,False,1,5,sounds\english\audio/english_111.wav,"[[  0.          43.12539807]
 [  0.1         63.99665526]
 [  0.2         86.04570556]
 [  0.3        -25.76798659]
 [  0.32341667 -36.14422463]]","[[0.         1.84745579]
 [0.1        0.92577031]
 [0.2        0.31264784]
 [0.3        0.89352032]
 [0.32341667 0.32138535]]",1,0.253
8729820499,f,20,english,5,3,english,2024-02-01 10:36:57.252449,False,1,6,sounds\english\audio/english_461.wav,"[[  0.         -99.86661298]
 [  0.1         65.11959058]
 [  0.2        -96.19635976]
 [  0.3         56.69155656]
 [  0.32341667 -82.13106063]]","[[0.         0.04975834]
 [0.1        1.27856071]
 [0.2        1.53618081]
 [0.3        1.97602464]
 [0.32341667 1.41647384]]",0,0.13
8729820499,f,20,english,5,3,english,2024-02-01 10:36:57.252449,False,1,7,sounds\english\audio/english_878.wav,"[[  0.          84.19501339]
 [  0.1         76.71234668]
 [  0.2        -74.61835319]
 [  0.3         83.79758366]
 [  0.32341667 -29.32243698]]","[[0.         0.22676298]
 [0.1        0.28568495]
 [0.2        0.74220819]
 [0.3        1.72755148]
 [0.32341667 1.88938616]]",1,1.507
8729820499,f,20,english,5,3,english,2024-02-01 10:36:57.252449,False,1,8,sounds\english\audio/english_597.wav,"[[  0.         -83.66792118]
 [  0.1        -19.98744657]
 [  0.2        -30.38458549]
 [  0.3        -63.4406446 ]
 [  0.32341667  25.67812426]]","[[0.         0.17389721]
 [0.1        0.39349672]
 [0.2        1.97590818]
 [0.3        1.84988074]
 [0.32341667 1.17620678]]",1,0.786
8729820499,f,20,english,5,3,english,2024-02-01 10:36:57.252449,False,1,9,sounds\english\audio/english_285.wav,"[[  0.         -19.0536712 ]
 [  0.1        -63.15395986]
 [  0.2        -57.682926  ]
 [  0.3        -56.52362331]
 [  0.32341667  11.40665652]]","[[0.         1.18823065]
 [0.1        1.010644  ]
 [0.2        0.4943662 ]
 [0.3        0.66348991]
 [0.32341667 0.86242978]]",1,0.91
8729820499,f,20,english,5,3,english,2024-02-01 10:36:57.252449,False,1,10,sounds\english\audio/english_908.wav,"[[  0.          48.62867987]
 [  0.1         15.18588807]
 [  0.2        -42.37345339]
 [  0.3         10.74033392]
 [  0.32341667 -40.14378972]]","[[0.         1.27180628]
 [0.1        0.65893562]
 [0.2        1.07678682]
 [0.3        1.66111239]
 [0.32341667 0.30218678]]",1,0.267
8729820499,f,20,english,5,3,english,2024-02-01 10:36:57.252449,False,1,11,sounds\english\audio/english_968.wav,"[[  0.         -36.76350372]
 [  0.1        -99.8991193 ]
 [  0.2         27.503089  ]
 [  0.3        -34.85106147]
 [  0.32341667  68.2869663 ]]","[[0.         0.52322451]
 [0.1        0.66419732]
 [0.2        0.44232096]
 [0.3        1.90778707]
 [0.32341667 0.59652698]]",0,0.714
8729820499,f,20,english,5,3,english,2024-02-01 10:36:57.252449,False,1,12,sounds\english\audio/english_12.wav,"[[  0.          48.33680056]
 [  0.1         27.41870997]
 [  0.2        -39.95667364]
 [  0.3         73.52964836]
 [  0.32341667 -36.35494906]]","[[0.         1.48429429]
 [0.1        0.15715938]
 [0.2        0.62940339]
 [0.3        0.05281398]
 [0.32341667 1.6412938 ]]",0,0.695
8729820499,f,20,english,5,3,english,2024-02-01 10:36:57.252449,False,1,13,sounds\english\audio/english_34.wav,"[[  0.         -48.07924103]
 [  0.1        -64.84739183]
 [  0.2        -20.81716265]
 [  0.3         91.13652067]
 [  0.32341667 -54.46543937]]","[[0.         1.44836266]
 [0.1        1.89580324]
 [0.2        0.64308549]
 [0.3        0.0848332 ]
 [0.32341667 0.8036564 ]]",1,0.231
8729820499,f,20,english,5,3,english,2024-02-01 10:36:57.252449,False,1,14,sounds\english\audio/english_429.wav,"[[  0.         -70.82827187]
 [  0.1         79.2644825 ]
 [  0.2         14.29027084]
 [  0.3        -47.65971945]
 [  0.32341667   8.9954872 ]]","[[0.         0.34305232]
 [0.1        1.15525787]
 [0.2        1.85610569]
 [0.3        0.19828098]
 [0.32341667 1.51767034]]",0,1.033
8729820499,f,20,english,5,3,english,2024-02-01 10:36:57.252449,False,1,15,sounds\english\audio/english_287.wav,"[[  0.          -5.71925808]
 [  0.1        -94.78041007]
 [  0.2          8.34641368]
 [  0.3         36.34893025]
 [  0.32341667 -22.47689594]]","[[0.         1.04112926]
 [0.1        0.35149142]
 [0.2        0.86781598]
 [0.3        1.897904  ]
 [0.32341667 0.5607403 ]]",0,1.347
8729820499,f,20,english,5,3,english,2024-02-01 10:36:57.252449,False,1,16,sounds\english\audio/english_297.wav,"[[  0.          43.84745313]
 [  0.1        -76.77337823]
 [  0.2         52.72097055]
 [  0.3        -53.36684977]
 [  0.32341667  81.15212258]]","[[0.         1.28698197]
 [0.1        0.55126404]
 [0.2        0.14077967]
 [0.3        1.29889067]
 [0.32341667 1.30715655]]",1,0.325
8729820499,f,20,english,5,3,english,2024-02-01 10:36:57.252449,False,1,17,sounds\english\audio/english_401.wav,"[[  0.         -70.37998858]
 [  0.1         49.27188779]
 [  0.2          5.09566389]
 [  0.3         58.42368176]
 [  0.32341667 -43.06407799]]","[[0.         1.11338134]
 [0.1        1.59691292]
 [0.2        0.88679935]
 [0.3        1.89749174]
 [0.32341667 1.35831765]]",0,0.981
8729820499,f,20,english,5,3,english,2024-02-01 10:36:57.252449,False,1,18,sounds\english\audio/english_885.wav,"[[  0.          36.3288655 ]
 [  0.1        -33.4786966 ]
 [  0.2          8.05827153]
 [  0.3         84.98004341]
 [  0.32341667 -34.65749493]]","[[0.         0.78617108]
 [0.1        0.96292114]
 [0.2        0.70266535]
 [0.3        0.45613544]
 [0.32341667 0.81873504]]",1,0.727
8729820499,f,20,english,5,3,english,2024-02-01 10:36:57.252449,False,1,19,sounds\english\audio/english_246.wav,"[[  0.         -62.23082525]
 [  0.1         59.67623932]
 [  0.2        -63.30715513]
 [  0.3         15.41118057]
 [  0.32341667  90.60814582]]","[[0.         0.02615808]
 [0.1        1.52596932]
 [0.2        1.87080553]
 [0.3        0.81226596]
 [0.32341667 0.64975072]]",1,0.562
8729820499,f,20,english,5,3,english,2024-02-01 10:36:57.252449,False,1,20,sounds\english\audio/english_782.wav,"[[  0.         -98.70381677]
 [  0.1        -69.82387258]
 [  0.2         35.26613747]
 [  0.3        -81.38004879]
 [  0.32341667 -61.83067014]]","[[0.         1.47488053]
 [0.1        0.7270016 ]
 [0.2        0.08778447]
 [0.3        1.16903228]
 [0.32341667 0.92727902]]",1,0.582
8729820499,f,20,english,5,3,english,2024-02-01 10:36:57.252449,False,1,21,sounds\english\audio/english_801.wav,"[[  0.          66.50571345]
 [  0.1        -53.03260979]
 [  0.2         -3.89459646]
 [  0.3          8.32951864]
 [  0.32341667 -87.46806733]]","[[0.         0.19311528]
 [0.1        0.48683601]
 [0.2        1.16293258]
 [0.3        1.55734707]
 [0.32341667 0.63471681]]",1,0.673
8729820499,f,20,english,5,3,english,2024-02-01 10:36:57.252449,False,1,22,sounds\english\audio/english_789.wav,"[[  0.          70.69388181]
 [  0.1        -91.45782136]
 [  0.2        -94.67801392]
 [  0.3         83.76501612]
 [  0.32341667  -4.60584958]]","[[0.         1.62690516]
 [0.1        1.02092359]
 [0.2        0.93437639]
 [0.3        1.8239896 ]
 [0.32341667 1.29596798]]",1,0.203
8729820499,f,20,english,5,3,english,2024-02-01 10:36:57.252449,False,1,23,sounds\english\audio/english_654.wav,"[[  0.         -97.13147194]
 [  0.1        -81.37819023]
 [  0.2         51.48571278]
 [  0.3         54.00949099]
 [  0.32341667 -95.1633683 ]]","[[0.         0.91673578]
 [0.1        1.23280851]
 [0.2        1.64688363]
 [0.3        1.75994168]
 [0.32341667 0.20104411]]",1,0.18
8729820499,f,20,english,5,3,english,2024-02-01 10:36:57.252449,False,1,24,sounds\english\audio/english_708.wav,"[[  0.         -27.19248895]
 [  0.1         84.25795725]
 [  0.2        -19.19551503]
 [  0.3         29.88012033]
 [  0.32341667  46.0858662 ]]","[[0.         0.74061838]
 [0.1        1.13599963]
 [0.2        1.10086254]
 [0.3        0.53054382]
 [0.32341667 1.51974387]]",1,0.294
8729820499,f,20,english,5,3,english,2024-02-01 10:36:57.252449,False,1,25,sounds\english\audio/english_777.wav,"[[  0.         -69.33808121]
 [  0.1         83.00406244]
 [  0.2         52.8456083 ]
 [  0.3        -67.57367145]
 [  0.32341667  44.30015735]]","[[0.         1.41371967]
 [0.1        0.89293833]
 [0.2        0.52129979]
 [0.3        0.31704889]
 [0.32341667 0.90388625]]",1,0.36
8729820499,f,20,english,5,3,english,2024-02-01 10:36:57.252449,False,1,26,sounds\english\audio/english_592.wav,"[[  0.         -77.34060672]
 [  0.1         27.41551815]
 [  0.2        -17.47445882]
 [  0.3        -61.08462212]
 [  0.32341667  74.7675789 ]]","[[0.         0.96869857]
 [0.1        1.75134411]
 [0.2        1.41680483]
 [0.3        1.07260777]
 [0.32341667 0.73150904]]",0,0.139
8729820499,f,20,english,5,3,english,2024-02-01 10:36:57.252449,False,1,27,sounds\english\audio/english_610.wav,"[[  0.         -14.96432812]
 [  0.1         48.51886955]
 [  0.2         47.07358548]
 [  0.3         17.30383174]
 [  0.32341667   1.51764356]]","[[0.         0.5672697 ]
 [0.1        0.75156182]
 [0.2        0.38846335]
 [0.3        1.52072292]
 [0.32341667 1.56024836]]",0,0.28
8729820499,f,20,english,5,3,english,2024-02-01 10:36:57.252449,False,1,28,sounds\english\audio/english_609.wav,"[[  0.          93.61263388]
 [  0.1         38.40290552]
 [  0.2        -21.94770243]
 [  0.3        -11.92302894]
 [  0.32341667  30.65806027]]","[[0.         0.51617504]
 [0.1        0.56544547]
 [0.2        0.43418402]
 [0.3        1.38818447]
 [0.32341667 1.36410066]]",1,0.878
8729820499,f,20,english,5,3,english,2024-02-01 10:36:57.252449,False,1,29,sounds\english\audio/english_578.wav,"[[  0.         -76.90925642]
 [  0.1        -68.48676994]
 [  0.2         36.30884798]
 [  0.3        -36.82491274]
 [  0.32341667  -4.04717442]]","[[0.         1.21901793]
 [0.1        1.4118495 ]
 [0.2        0.05521057]
 [0.3        1.45629656]
 [0.32341667 1.80268091]]",1,3.544
8729820499,f,20,english,5,3,english,2024-02-01 10:36:57.252449,False,1,30,sounds\english\audio/english_644.wav,"[[  0.          21.57551932]
 [  0.1        -11.98636437]
 [  0.2        -86.21942338]
 [  0.3        -38.98906039]
 [  0.32341667 -28.58177745]]","[[0.         1.87520752]
 [0.1        1.28750901]
 [0.2        0.33708129]
 [0.3        1.53524213]
 [0.32341667 0.3058721 ]]",0,0.273
8729820499,f,20,english,5,3,english,2024-02-01 10:36:57.252449,False,1,31,sounds\english\audio/english_77.wav,"[[  0.         -72.40491727]
 [  0.1          8.82020558]
 [  0.2         89.28229375]
 [  0.3        -14.39120814]
 [  0.32341667   0.18022976]]","[[0.         0.02183184]
 [0.1        1.36505393]
 [0.2        1.34112472]
 [0.3        0.45737201]
 [0.32341667 1.1673494 ]]",1,0.524
8729820499,f,20,english,5,3,english,2024-02-01 10:36:57.252449,False,1,32,sounds\english\audio/english_468.wav,"[[  0.         -33.82586043]
 [  0.1        -42.55840131]
 [  0.2        -36.6492295 ]
 [  0.3         39.91321296]
 [  0.32341667  54.14936319]]","[[0.         0.35164089]
 [0.1        0.20114733]
 [0.2        1.40729654]
 [0.3        0.04300573]
 [0.32341667 1.79642733]]",1,0.629
8729820499,f,20,english,5,3,english,2024-02-01 10:36:57.252449,False,1,33,sounds\english\audio/english_148.wav,"[[  0.         -15.87588743]
 [  0.1         66.05332506]
 [  0.2         50.59551539]
 [  0.3        -59.45276716]
 [  0.32341667  58.4155276 ]]","[[0.         0.13468567]
 [0.1        1.11017862]
 [0.2        0.42983488]
 [0.3        0.2729575 ]
 [0.32341667 0.65396017]]",0,0.189
8729820499,f,20,english,5,3,english,2024-02-01 10:36:57.252449,False,1,34,sounds\english\audio/english_458.wav,"[[  0.         -49.69821038]
 [  0.1        -49.80647014]
 [  0.2         11.98261521]
 [  0.3         59.43319096]
 [  0.32341667 -34.5671642 ]]","[[0.         0.39452057]
 [0.1        1.24604375]
 [0.2        0.42272405]
 [0.3        0.21259233]
 [0.32341667 1.13235362]]",0,0.261
8729820499,f,20,english,5,3,english,2024-02-01 10:36:57.252449,False,1,35,sounds\english\audio/english_788.wav,"[[  0.         -93.79628683]
 [  0.1        -45.29703147]
 [  0.2        -46.01001772]
 [  0.3        -56.6729179 ]
 [  0.32341667  51.29020462]]","[[0.         0.67330318]
 [0.1        1.33385595]
 [0.2        1.35248941]
 [0.3        1.33220146]
 [0.32341667 1.32468206]]",1,1.719
8729820499,f,20,english,5,3,english,2024-02-01 10:36:57.252449,False,1,36,sounds\english\audio/english_920.wav,"[[  0.          95.7501832 ]
 [  0.1         -3.19831823]
 [  0.2        -16.96134457]
 [  0.3        -28.81747413]
 [  0.32341667  42.63505928]]","[[0.         1.54313256]
 [0.1        1.33500472]
 [0.2        1.12819963]
 [0.3        1.72147256]
 [0.32341667 0.57593815]]",1,0.456
8729820499,f,20,english,5,3,english,2024-02-01 10:36:57.252449,False,1,37,sounds\english\audio/english_87.wav,"[[  0.          54.83056612]
 [  0.1         56.31531505]
 [  0.2        -65.55002777]
 [  0.3        -25.15788212]
 [  0.32341667  22.72349562]]","[[0.         1.56132998]
 [0.1        1.28614089]
 [0.2        1.44579989]
 [0.3        0.3607766 ]
 [0.32341667 0.17745198]]",1,0.08
8729820499,f,20,english,5,3,english,2024-02-01 10:36:57.252449,False,1,38,sounds\english\audio/english_997.wav,"[[  0.          93.4252615 ]
 [  0.1         62.16088314]
 [  0.2        -26.38638022]
 [  0.3         89.15363163]
 [  0.32341667 -25.83137337]]","[[0.         0.4603395 ]
 [0.1        0.21654412]
 [0.2        1.36234896]
 [0.3        1.07462804]
 [0.32341667 0.84007196]]",1,0.436
8729820499,f,20,english,5,3,english,2024-02-01 10:36:57.252449,False,1,39,sounds\english\audio/english_897.wav,"[[  0.          -6.17515852]
 [  0.1        -25.56252799]
 [  0.2        -51.51756482]
 [  0.3        -57.3776393 ]
 [  0.32341667 -65.82780913]]","[[0.         1.45954458]
 [0.1        1.4662158 ]
 [0.2        1.09304129]
 [0.3        1.17713492]
 [0.32341667 1.23726335]]",1,0.037
8729820499,f,20,english,5,3,english,2024-02-01 10:36:57.252449,False,1,40,sounds\english\audio/english_184.wav,"[[ 0.         29.65201825]
 [ 0.1        16.48348791]
 [ 0.2         3.77448983]
 [ 0.3        62.87502431]
 [ 0.32341667 -8.82418577]]","[[0.         1.69567788]
 [0.1        1.26735627]
 [0.2        0.95352895]
 [0.3        1.7991474 ]
 [0.32341667 0.98992659]]",1,1.35
8729820499,f,20,english,5,3,english,2024-02-01 10:36:57.252449,False,1,41,sounds\english\audio/english_619.wav,"[[  0.          38.53351318]
 [  0.1        -11.21157995]
 [  0.2         29.79887689]
 [  0.3         48.6384615 ]
 [  0.32341667 -66.5905708 ]]","[[0.         1.25542912]
 [0.1        0.83005785]
 [0.2        1.51254928]
 [0.3        0.37972577]
 [0.32341667 0.44889873]]",1,1.261
8729820499,f,20,english,5,3,english,2024-02-01 10:36:57.252449,False,1,42,sounds\english\audio/english_835.wav,"[[  0.         -14.38506183]
 [  0.1        -85.63264453]
 [  0.2         -9.08737486]
 [  0.3        -52.4382226 ]
 [  0.32341667  30.89255677]]","[[0.         1.1584592 ]
 [0.1        0.74788643]
 [0.2        0.99645811]
 [0.3        1.13057998]
 [0.32341667 0.17868889]]",1,0.166
8729820499,f,20,english,5,3,english,2024-02-01 10:36:57.252449,False,1,43,sounds\english\audio/english_796.wav,"[[  0.          57.52331511]
 [  0.1        -53.71774571]
 [  0.2        -36.09214461]
 [  0.3         23.21783142]
 [  0.32341667 -74.52171885]]","[[0.         0.93419081]
 [0.1        0.77950231]
 [0.2        0.54947466]
 [0.3        1.69054841]
 [0.32341667 0.76047802]]",0,0.338
8729820499,f,20,english,5,3,english,2024-02-01 10:36:57.252449,False,1,44,sounds\english\audio/english_690.wav,"[[0.00000000e+00 3.30476540e+01]
 [1.00000000e-01 2.12167444e-02]
 [2.00000000e-01 2.13432370e+01]
 [3.00000000e-01 3.54710796e+01]
 [3.23416667e-01 7.94400816e+01]]","[[0.         1.58265684]
 [0.1        0.6931717 ]
 [0.2        1.47002515]
 [0.3        1.9856235 ]
 [0.32341667 1.00479917]]",1,0.717
8729820499,f,20,english,5,3,english,2024-02-01 10:36:57.252449,False,1,45,sounds\english\audio/english_940.wav,"[[  0.          47.11462569]
 [  0.1         11.81885745]
 [  0.2         -1.49931669]
 [  0.3         45.92466934]
 [  0.32341667 -72.78738407]]","[[0.         0.32214594]
 [0.1        0.21999868]
 [0.2        0.34357292]
 [0.3        1.61274527]
 [0.32341667 0.9185628 ]]",0,1.494
8729820499,f,20,english,5,3,english,2024-02-01 10:36:57.252449,False,1,46,sounds\english\audio/english_619.wav,"[[  0.          38.53351318]
 [  0.1        -11.21157995]
 [  0.2         29.79887689]
 [  0.3         48.6384615 ]
 [  0.32341667 -66.5905708 ]]","[[0.         1.25542912]
 [0.1        0.83005785]
 [0.2        1.51254928]
 [0.3        0.37972577]
 [0.32341667 0.44889873]]",1,0.659
8729820499,f,20,english,5,3,english,2024-02-01 10:36:57.252449,False,1,47,sounds\english\audio/english_173.wav,"[[  0.          11.1251521 ]
 [  0.1         94.22411188]
 [  0.2         89.44753043]
 [  0.3         74.30769895]
 [  0.32341667 -37.47679669]]","[[0.         0.60172576]
 [0.1        0.44802145]
 [0.2        1.27552997]
 [0.3        1.09756939]
 [0.32341667 0.7907315 ]]",0,1.092
8729820499,f,20,english,5,3,english,2024-02-01 10:36:57.252449,False,1,48,sounds\english\audio/english_299.wav,"[[  0.          -2.55977829]
 [  0.1          1.77446255]
 [  0.2        -18.83457859]
 [  0.3        -71.88845024]
 [  0.32341667  99.76623745]]","[[0.         0.95716625]
 [0.1        1.43363845]
 [0.2        1.1421669 ]
 [0.3        1.57148089]
 [0.32341667 1.70410623]]",1,0.737
8729820499,f,20,english,5,3,english,2024-02-01 10:36:57.252449,False,1,49,sounds\english\audio/english_933.wav,"[[  0.         -48.12258855]
 [  0.1         27.26905516]
 [  0.2          0.35087756]
 [  0.3         94.96402149]
 [  0.32341667  61.52669097]]","[[0.         1.54767366]
 [0.1        0.30219473]
 [0.2        1.50410475]
 [0.3        1.44820406]
 [0.32341667 0.05049928]]",1,0.474
8729820499,f,20,english,5,3,english,2024-02-01 10:36:57.252449,False,1,50,sounds\english\audio/english_698.wav,"[[  0.         -86.30999669]
 [  0.1        -91.60158578]
 [  0.2        -41.16326515]
 [  0.3          7.86252123]
 [  0.32341667  25.04181708]]","[[0.         1.66322514]
 [0.1        1.16924533]
 [0.2        1.29610919]
 [0.3        1.21006153]
 [0.32341667 1.83628755]]",1,0.316
8729820499,f,20,english,5,3,english,2024-02-01 10:36:57.252449,False,1,51,sounds\english\audio/english_789.wav,"[[  0.          70.69388181]
 [  0.1        -91.45782136]
 [  0.2        -94.67801392]
 [  0.3         83.76501612]
 [  0.32341667  -4.60584958]]","[[0.         1.62690516]
 [0.1        1.02092359]
 [0.2        0.93437639]
 [0.3        1.8239896 ]
 [0.32341667 1.29596798]]",1,1.065
8729820499,f,20,english,5,3,english,2024-02-01 10:36:57.252449,False,1,52,sounds\english\audio/english_914.wav,"[[  0.          37.51857345]
 [  0.1        -30.53068311]
 [  0.2        -12.980452  ]
 [  0.3        -99.09260462]
 [  0.32341667 -34.91402533]]","[[0.         0.04486829]
 [0.1        1.18486584]
 [0.2        1.58356311]
 [0.3        1.35478251]
 [0.32341667 1.16671671]]",1,1.169
8729820499,f,20,english,5,3,english,2024-02-01 10:36:57.252449,False,1,53,sounds\english\audio/english_45.wav,"[[  0.          72.55677234]
 [  0.1         34.43244276]
 [  0.2         12.66368291]
 [  0.3         47.17471186]
 [  0.32341667 -48.2883803 ]]","[[0.         0.302627  ]
 [0.1        1.957389  ]
 [0.2        1.1456601 ]
 [0.3        1.77472104]
 [0.32341667 1.7760992 ]]",1,0.624
8729820499,f,20,english,5,3,english,2024-02-01 10:36:57.252449,False,1,54,sounds\english\audio/english_748.wav,"[[  0.           0.23647087]
 [  0.1         45.60572596]
 [  0.2          6.14588966]
 [  0.3        -10.39850874]
 [  0.32341667  -7.86503132]]","[[0.         0.91094575]
 [0.1        1.68800655]
 [0.2        1.37684191]
 [0.3        0.70556294]
 [0.32341667 1.52987196]]",0,3.491
8729820499,f,20,english,5,3,english,2024-02-01 10:36:57.252449,False,1,55,sounds\english\audio/english_387.wav,"[[  0.          14.25538659]
 [  0.1         -5.8057983 ]
 [  0.2         -2.59288607]
 [  0.3         19.33055559]
 [  0.32341667 -85.57173801]]","[[0.         0.59610882]
 [0.1        0.93453474]
 [0.2        1.87880123]
 [0.3        0.79709693]
 [0.32341667 0.90161027]]",1,0.22
8729820499,f,20,english,5,3,english,2024-02-01 10:36:57.252449,False,1,56,sounds\english\audio/english_815.wav,"[[  0.         -76.1669867 ]
 [  0.1        -40.517901  ]
 [  0.2        -46.68959253]
 [  0.3        -79.23468646]
 [  0.32341667 -63.63497058]]","[[0.         0.29426078]
 [0.1        0.96858733]
 [0.2        0.83382199]
 [0.3        1.13727176]
 [0.32341667 0.09357312]]",0,0.451
8729820499,f,20,english,5,3,english,2024-02-01 10:36:57.252449,False,1,57,sounds\english\audio/english_834.wav,"[[  0.         -64.94927172]
 [  0.1         49.61052881]
 [  0.2        -25.04715585]
 [  0.3         95.09819394]
 [  0.32341667  84.16953653]]","[[0.         0.98752234]
 [0.1        1.31122352]
 [0.2        0.09065599]
 [0.3        1.07854905]
 [0.32341667 1.76453498]]",0,0.626
8729820499,f,20,english,5,3,english,2024-02-01 10:36:57.252449,False,1,58,sounds\english\audio/english_146.wav,"[[  0.          -7.47107612]
 [  0.1        -10.73298436]
 [  0.2         -4.63341632]
 [  0.3         14.65491039]
 [  0.32341667  19.96333333]]","[[0.         0.36907021]
 [0.1        0.24473139]
 [0.2        1.01983542]
 [0.3        0.62607899]
 [0.32341667 1.1005899 ]]",1,1.21
8729820499,f,20,english,5,3,english,2024-02-01 10:36:57.252449,False,1,59,sounds\english\audio/english_186.wav,"[[  0.         -54.7664391 ]
 [  0.1         -8.4263529 ]
 [  0.2          6.22451559]
 [  0.3        -12.35671223]
 [  0.32341667  86.21839615]]","[[0.         1.87021502]
 [0.1        1.36390049]
 [0.2        1.69942617]
 [0.3        1.8066537 ]
 [0.32341667 1.2511354 ]]",0,0.587
8729820499,f,20,english,5,3,english,2024-02-01 10:36:57.252449,False,1,60,sounds\english\audio/english_594.wav,"[[  0.         -85.15725243]
 [  0.1         18.57908242]
 [  0.2        -52.1381203 ]
 [  0.3         77.56862162]
 [  0.32341667  89.7133381 ]]","[[0.         1.49995106]
 [0.1        1.36683942]
 [0.2        1.31792707]
 [0.3        0.76119001]
 [0.32341667 1.77084997]]",0,0.894
8729820499,f,20,english,5,3,english,2024-02-01 10:36:57.252449,False,1,61,sounds\english\audio/english_290.wav,"[[  0.          73.71968657]
 [  0.1        -59.85317413]
 [  0.2         71.1426587 ]
 [  0.3        -18.50007061]
 [  0.32341667 -65.91143137]]","[[0.         0.30552726]
 [0.1        1.31636279]
 [0.2        0.54925413]
 [0.3        1.26204455]
 [0.32341667 0.60528556]]",0,0.679
8729820499,f,20,english,5,3,english,2024-02-01 10:36:57.252449,False,1,62,sounds\english\audio/english_191.wav,"[[  0.           5.22709543]
 [  0.1        -51.29785688]
 [  0.2         14.39503603]
 [  0.3         60.50312404]
 [  0.32341667  68.15927452]]","[[0.         0.24693927]
 [0.1        1.61528443]
 [0.2        0.10158113]
 [0.3        1.02883866]
 [0.32341667 0.69870432]]",0,0.344
8729820499,f,20,english,5,3,english,2024-02-01 10:36:57.252449,False,1,63,sounds\english\audio/english_440.wav,"[[  0.          44.70308901]
 [  0.1        -88.0257567 ]
 [  0.2          1.19893433]
 [  0.3         19.45485395]
 [  0.32341667  13.00088222]]","[[0.00000000e+00 1.51497438e+00]
 [1.00000000e-01 1.05972447e+00]
 [2.00000000e-01 5.90820378e-01]
 [3.00000000e-01 6.80586803e-01]
 [3.23416667e-01 6.18341324e-04]]",1,0.354
8729820499,f,20,english,5,3,english,2024-02-01 10:36:57.252449,False,1,64,sounds\english\audio/english_14.wav,"[[  0.          98.00979643]
 [  0.1        -39.90204919]
 [  0.2         51.0517473 ]
 [  0.3         -8.39716694]
 [  0.32341667  82.54419716]]","[[0.         0.92494293]
 [0.1        0.80403915]
 [0.2        0.29426005]
 [0.3        0.14957292]
 [0.32341667 0.1717279 ]]",1,1.156
8729820499,f,20,english,5,3,english,2024-02-01 10:36:57.252449,False,1,65,sounds\english\audio/english_766.wav,"[[  0.         -86.57417509]
 [  0.1        -67.75686223]
 [  0.2         74.21258041]
 [  0.3         65.20164426]
 [  0.32341667 -26.41371036]]","[[0.         1.21737292]
 [0.1        1.61484435]
 [0.2        1.47872362]
 [0.3        1.81064247]
 [0.32341667 1.37776493]]",1,0.401
8729820499,f,20,english,5,3,english,2024-02-01 10:36:57.252449,False,1,66,sounds\english\audio/english_413.wav,"[[  0.          -9.66675054]
 [  0.1         15.27504309]
 [  0.2        -94.93171401]
 [  0.3        -42.87800999]
 [  0.32341667 -63.39385234]]","[[0.         1.82887045]
 [0.1        0.80668743]
 [0.2        0.90586838]
 [0.3        1.3937681 ]
 [0.32341667 0.34165264]]",1,1.116
8729820499,f,20,english,5,3,english,2024-02-01 10:36:57.252449,False,1,67,sounds\english\audio/english_476.wav,"[[  0.          67.27413703]
 [  0.1        -35.99891676]
 [  0.2         53.1347651 ]
 [  0.3        -27.53585108]
 [  0.32341667  13.88563074]]","[[0.         1.71507594]
 [0.1        1.5691203 ]
 [0.2        0.1869461 ]
 [0.3        0.94822926]
 [0.32341667 1.63186757]]",1,0.634
8729820499,f,20,english,5,3,english,2024-02-01 10:36:57.252449,False,1,68,sounds\english\audio/english_710.wav,"[[  0.         -75.8732007 ]
 [  0.1        -57.22858583]
 [  0.2         28.4956072 ]
 [  0.3        -96.06281818]
 [  0.32341667  12.57492899]]","[[0.         1.76991952]
 [0.1        1.84377411]
 [0.2        1.20069914]
 [0.3        0.06088286]
 [0.32341667 1.86160088]]",1,0.304
8729820499,f,20,english,5,3,english,2024-02-01 10:36:57.252449,False,1,69,sounds\english\audio/english_865.wav,"[[  0.          57.45647421]
 [  0.1        -62.30549211]
 [  0.2        -35.85649312]
 [  0.3         55.00701181]
 [  0.32341667 -39.97662747]]","[[0.         1.64387024]
 [0.1        0.05749027]
 [0.2        0.09554773]
 [0.3        1.62598434]
 [0.32341667 0.71232625]]",1,0.754
8729820499,f,20,english,5,3,english,2024-02-01 10:36:57.252449,False,1,70,sounds\english\audio/english_963.wav,"[[  0.         -60.03327616]
 [  0.1        -15.51067414]
 [  0.2         59.36715957]
 [  0.3        -98.70464219]
 [  0.32341667  37.26723218]]","[[0.         0.86711865]
 [0.1        1.69273621]
 [0.2        0.74157302]
 [0.3        1.73078555]
 [0.32341667 1.37482324]]",0,0.462
8729820499,f,20,english,5,3,english,2024-02-01 10:36:57.252449,False,1,71,sounds\english\audio/english_272.wav,"[[  0.          61.82030971]
 [  0.1          4.16580657]
 [  0.2        -53.2567432 ]
 [  0.3        -52.99830768]
 [  0.32341667 -92.9943793 ]]","[[0.         1.51341556]
 [0.1        0.43290826]
 [0.2        1.82734584]
 [0.3        0.22094446]
 [0.32341667 1.88040337]]",1,0.382
8729820499,f,20,english,5,3,english,2024-02-01 10:36:57.252449,False,1,72,sounds\english\audio/english_176.wav,"[[  0.         -62.84257592]
 [  0.1         86.95506575]
 [  0.2        -28.0397163 ]
 [  0.3        -64.80124174]
 [  0.32341667 -98.66046935]]","[[0.         0.68193044]
 [0.1        0.26950978]
 [0.2        0.45294908]
 [0.3        0.91353321]
 [0.32341667 1.10925614]]",1,0.415
8729820499,f,20,english,5,3,english,2024-02-01 10:36:57.252449,False,1,73,sounds\english\audio/english_708.wav,"[[  0.         -27.19248895]
 [  0.1         84.25795725]
 [  0.2        -19.19551503]
 [  0.3         29.88012033]
 [  0.32341667  46.0858662 ]]","[[0.         0.74061838]
 [0.1        1.13599963]
 [0.2        1.10086254]
 [0.3        0.53054382]
 [0.32341667 1.51974387]]",1,1.199
8729820499,f,20,english,5,3,english,2024-02-01 10:36:57.252449,False,1,74,sounds\english\audio/english_18.wav,"[[ 0.00000000e+00 -6.19567004e+01]
 [ 1.00000000e-01  3.92027204e+01]
 [ 2.00000000e-01 -6.26834214e-02]
 [ 3.00000000e-01 -7.22820301e+01]
 [ 3.23416667e-01 -5.29459242e+01]]","[[0.         0.45038722]
 [0.1        1.56185221]
 [0.2        0.80652275]
 [0.3        0.39505163]
 [0.32341667 0.50402069]]",1,0.6
8729820499,f,20,english,5,3,english,2024-02-01 10:36:57.252449,False,1,75,sounds\english\audio/english_785.wav,"[[  0.          41.51350967]
 [  0.1         26.23517368]
 [  0.2        -12.63822228]
 [  0.3        -30.66588474]
 [  0.32341667  26.08399401]]","[[0.         0.93543931]
 [0.1        1.17819894]
 [0.2        1.98833146]
 [0.3        0.80021218]
 [0.32341667 1.2737519 ]]",1,0.872
8729820499,f,20,english,5,3,english,2024-02-01 10:36:57.252449,False,1,76,sounds\english\audio/english_721.wav,"[[  0.          -1.67193172]
 [  0.1         23.81304459]
 [  0.2         94.27532923]
 [  0.3         10.08520391]
 [  0.32341667 -26.68837018]]","[[0.         0.23966059]
 [0.1        1.61361986]
 [0.2        0.58045828]
 [0.3        1.63757532]
 [0.32341667 1.4581473 ]]",1,0.108
8729820499,f,20,english,5,3,english,2024-02-01 10:36:57.252449,False,1,77,sounds\english\audio/english_513.wav,"[[  0.          76.78578212]
 [  0.1         20.42124481]
 [  0.2         83.32251122]
 [  0.3         47.28432413]
 [  0.32341667 -50.64117466]]","[[0.         0.02403043]
 [0.1        0.85164369]
 [0.2        1.08658436]
 [0.3        0.40639055]
 [0.32341667 1.29336046]]",0,0.965
8729820499,f,20,english,5,3,english,2024-02-01 10:36:57.252449,False,1,78,sounds\english\audio/english_755.wav,"[[  0.         -15.85533995]
 [  0.1        -97.95934782]
 [  0.2         -5.14559719]
 [  0.3         32.74087849]
 [  0.32341667 -56.93437429]]","[[0.         0.06987403]
 [0.1        0.83204773]
 [0.2        1.06816443]
 [0.3        1.42856986]
 [0.32341667 0.58130438]]",1,0.646
8729820499,f,20,english,5,3,english,2024-02-01 10:36:57.252449,False,1,79,sounds\english\audio/english_537.wav,"[[  0.          70.8709352 ]
 [  0.1         32.34369018]
 [  0.2        -92.9302278 ]
 [  0.3         14.89115364]
 [  0.32341667 -67.12260703]]","[[0.         0.55947112]
 [0.1        1.10627241]
 [0.2        1.10842043]
 [0.3        0.86800797]
 [0.32341667 1.7659473 ]]",1,0.564
8729820499,f,20,english,5,3,english,2024-02-01 10:36:57.252449,False,1,80,sounds\english\audio/english_270.wav,"[[  0.         -54.89328754]
 [  0.1        -41.12345733]
 [  0.2         79.03328036]
 [  0.3        -87.71335894]
 [  0.32341667 -48.20373708]]","[[0.         1.02368747]
 [0.1        1.74263534]
 [0.2        0.45342006]
 [0.3        1.29911503]
 [0.32341667 0.95859349]]",1,0.262
8729820499,f,20,english,5,3,english,2024-02-01 10:36:57.252449,False,1,81,sounds\english\audio/english_568.wav,"[[  0.         -80.38325009]
 [  0.1         65.28340143]
 [  0.2         22.57833022]
 [  0.3        -55.44872251]
 [  0.32341667 -94.3142815 ]]","[[0.         1.52383372]
 [0.1        0.37337456]
 [0.2        0.67023469]
 [0.3        1.98652091]
 [0.32341667 1.15861726]]",1,0.713
8729820499,f,20,english,5,3,english,2024-02-01 10:36:57.252449,False,1,82,sounds\english\audio/english_521.wav,"[[  0.         -39.78859965]
 [  0.1         94.65680132]
 [  0.2        -68.68225016]
 [  0.3         19.56493677]
 [  0.32341667  69.42990376]]","[[0.         1.84590666]
 [0.1        0.33665341]
 [0.2        1.01474729]
 [0.3        0.73624599]
 [0.32341667 1.4391639 ]]",0,0.698
8729820499,f,20,english,5,3,english,2024-02-01 10:36:57.252449,False,1,83,sounds\english\audio/english_602.wav,"[[  0.         -53.18857274]
 [  0.1        -52.96167371]
 [  0.2         38.20784676]
 [  0.3         46.0178344 ]
 [  0.32341667  78.11630752]]","[[0.         1.95117352]
 [0.1        1.1427253 ]
 [0.2        1.10694813]
 [0.3        0.8717932 ]
 [0.32341667 0.71626065]]",1,1.187
8729820499,f,20,english,5,3,english,2024-02-01 10:36:57.252449,False,1,84,sounds\english\audio/english_257.wav,"[[  0.         -68.31428674]
 [  0.1        -13.90908686]
 [  0.2         54.08743226]
 [  0.3        -42.73693867]
 [  0.32341667  -1.03846516]]","[[0.         1.40239735]
 [0.1        1.49673114]
 [0.2        1.07658057]
 [0.3        0.27427112]
 [0.32341667 1.90516482]]",0,0.334
8729820499,f,20,english,5,3,english,2024-02-01 10:36:57.252449,False,1,85,sounds\english\audio/english_801.wav,"[[  0.          66.50571345]
 [  0.1        -53.03260979]
 [  0.2         -3.89459646]
 [  0.3          8.32951864]
 [  0.32341667 -87.46806733]]","[[0.         0.19311528]
 [0.1        0.48683601]
 [0.2        1.16293258]
 [0.3        1.55734707]
 [0.32341667 0.63471681]]",1,1.232
8729820499,f,20,english,5,3,english,2024-02-01 10:36:57.252449,False,1,86,sounds\english\audio/english_527.wav,"[[  0.         -32.70996179]
 [  0.1        -61.96334317]
 [  0.2         86.46317242]
 [  0.3        -18.9429262 ]
 [  0.32341667 -59.75355058]]","[[0.         0.06646481]
 [0.1        1.75268105]
 [0.2        0.41061726]
 [0.3        1.43024268]
 [0.32341667 0.73468543]]",0,0.788
8729820499,f,20,english,5,3,english,2024-02-01 10:36:57.252449,False,1,87,sounds\english\audio/english_983.wav,"[[  0.          32.38711768]
 [  0.1        -65.51600844]
 [  0.2         12.03576385]
 [  0.3        -64.14785636]
 [  0.32341667 -72.48499617]]","[[0.         0.79408654]
 [0.1        1.57845546]
 [0.2        1.23356187]
 [0.3        0.65581831]
 [0.32341667 0.27936162]]",1,0.602
8729820499,f,20,english,5,3,english,2024-02-01 10:36:57.252449,False,1,88,sounds\english\audio/english_488.wav,"[[  0.           7.19120882]
 [  0.1         11.64873536]
 [  0.2         59.26032861]
 [  0.3        -31.0631162 ]
 [  0.32341667  23.8619583 ]]","[[0.         0.55609806]
 [0.1        1.36121935]
 [0.2        0.93872915]
 [0.3        1.52041262]
 [0.32341667 1.83140972]]",1,1.109
8729820499,f,20,english,5,3,english,2024-02-01 10:36:57.252449,False,1,89,sounds\english\audio/english_868.wav,"[[  0.         -32.61379415]
 [  0.1        -13.61007492]
 [  0.2        -35.23756027]
 [  0.3         83.12333319]
 [  0.32341667  62.80865362]]","[[0.         0.76599538]
 [0.1        0.34348987]
 [0.2        0.26787397]
 [0.3        0.46343078]
 [0.32341667 1.59158725]]",1,1.026
8729820499,f,20,english,5,3,english,2024-02-01 10:36:57.252449,False,1,90,sounds\english\audio/english_106.wav,"[[  0.         -46.25200282]
 [  0.1        -83.38564728]
 [  0.2         68.00501759]
 [  0.3         49.15199267]
 [  0.32341667  -5.93966373]]","[[0.         0.21046793]
 [0.1        1.42142181]
 [0.2        0.86156936]
 [0.3        0.65348811]
 [0.32341667 0.76273979]]",1,0.852
8729820499,f,20,english,5,3,english,2024-02-01 10:36:57.252449,False,1,91,sounds\english\audio/english_205.wav,"[[  0.          55.03693902]
 [  0.1         59.05347117]
 [  0.2        -51.93258482]
 [  0.3        -18.66886592]
 [  0.32341667 -25.16213195]]","[[0.         1.41699591]
 [0.1        0.25749205]
 [0.2        1.78695407]
 [0.3        0.11157042]
 [0.32341667 1.74030417]]",1,0.718
8729820499,f,20,english,5,3,english,2024-02-01 10:36:57.252449,False,1,92,sounds\english\audio/english_885.wav,"[[  0.          36.3288655 ]
 [  0.1        -33.4786966 ]
 [  0.2          8.05827153]
 [  0.3         84.98004341]
 [  0.32341667 -34.65749493]]","[[0.         0.78617108]
 [0.1        0.96292114]
 [0.2        0.70266535]
 [0.3        0.45613544]
 [0.32341667 0.81873504]]",1,1.167
8729820499,f,20,english,5,3,english,2024-02-01 10:36:57.252449,False,1,93,sounds\english\audio/english_664.wav,"[[  0.         -76.94516773]
 [  0.1         -6.4858311 ]
 [  0.2         46.60528691]
 [  0.3          9.48323043]
 [  0.32341667  89.85696022]]","[[0.         1.88823832]
 [0.1        1.41396893]
 [0.2        0.11773869]
 [0.3        1.80376032]
 [0.32341667 1.43209877]]",0,0.587
8729820499,f,20,english,5,3,english,2024-02-01 10:36:57.252449,False,1,94,sounds\english\audio/english_473.wav,"[[  0.           2.94536382]
 [  0.1         67.15962   ]
 [  0.2        -20.48190634]
 [  0.3         20.58811131]
 [  0.32341667 -71.10919795]]","[[0.         1.14273616]
 [0.1        0.71228689]
 [0.2        1.20280034]
 [0.3        0.94325649]
 [0.32341667 1.82149668]]",1,0.365
8729820499,f,20,english,5,3,english,2024-02-01 10:36:57.252449,False,1,95,sounds\english\audio/english_456.wav,"[[ 0.         43.57092671]
 [ 0.1        59.73787768]
 [ 0.2        82.18665257]
 [ 0.3        84.09992258]
 [ 0.32341667 14.68455092]]","[[0.         0.12750432]
 [0.1        0.97340157]
 [0.2        0.43547726]
 [0.3        1.17970357]
 [0.32341667 0.64309566]]",1,0.146
8729820499,f,20,english,5,3,english,2024-02-01 10:36:57.252449,False,1,96,sounds\english\audio/english_534.wav,"[[  0.         -42.4271338 ]
 [  0.1        -80.6424644 ]
 [  0.2         59.29592388]
 [  0.3         75.02007223]
 [  0.32341667 -57.55026449]]","[[0.         1.1267565 ]
 [0.1        0.6842577 ]
 [0.2        0.01459656]
 [0.3        1.03701198]
 [0.32341667 1.25840342]]",1,0.432
8729820499,f,20,english,5,3,english,2024-02-01 10:36:57.252449,False,1,97,sounds\english\audio/english_88.wav,"[[  0.          26.55889683]
 [  0.1         31.00356365]
 [  0.2        -60.56468942]
 [  0.3        -56.53017227]
 [  0.32341667 -78.90279024]]","[[0.         1.3027014 ]
 [0.1        0.67122251]
 [0.2        0.59704477]
 [0.3        1.68194373]
 [0.32341667 0.42277005]]",1,0.963
8729820499,f,20,english,5,3,english,2024-02-01 10:36:57.252449,False,1,98,sounds\english\audio/english_816.wav,"[[  0.          -5.39935373]
 [  0.1        -58.12348851]
 [  0.2        -97.19740724]
 [  0.3          4.60418864]
 [  0.32341667  57.92285533]]","[[0.         0.27372013]
 [0.1        1.23542608]
 [0.2        1.6956732 ]
 [0.3        0.17466083]
 [0.32341667 0.69657013]]",1,0.714
8729820499,f,20,english,5,3,english,2024-02-01 10:36:57.252449,False,1,99,sounds\english\audio/english_147.wav,"[[  0.         -14.37625717]
 [  0.1        -48.99147792]
 [  0.2        -76.025031  ]
 [  0.3         -4.271985  ]
 [  0.32341667  90.36670579]]","[[0.         1.08714974]
 [0.1        1.05600262]
 [0.2        0.62193731]
 [0.3        1.23272935]
 [0.32341667 0.90867663]]",0,0.478
8729820499,f,20,english,5,3,english,2024-02-01 10:36:57.252449,False,1,100,sounds\english\audio/english_547.wav,"[[  0.          30.48969685]
 [  0.1        -38.27442703]
 [  0.2         29.58442849]
 [  0.3         -4.27268154]
 [  0.32341667  58.02076364]]","[[0.         1.04682874]
 [0.1        0.75017858]
 [0.2        0.7996645 ]
 [0.3        1.92102789]
 [0.32341667 1.77056707]]",1,1.088
8729820499,f,20,english,5,3,english,2024-02-01 10:36:57.252449,False,1,101,sounds\english\audio/english_982.wav,"[[  0.          12.44046596]
 [  0.1        -60.41666302]
 [  0.2        -35.31499742]
 [  0.3        -10.96739076]
 [  0.32341667  44.50624474]]","[[0.         0.81508625]
 [0.1        0.92712357]
 [0.2        0.77678916]
 [0.3        1.0294352 ]
 [0.32341667 1.1322674 ]]",1,0.195
8729820499,f,20,english,5,3,english,2024-02-01 10:36:57.252449,False,1,102,sounds\english\audio/english_866.wav,"[[  0.         -75.90204766]
 [  0.1        -89.66881049]
 [  0.2        -86.78535298]
 [  0.3         50.96369643]
 [  0.32341667  36.94157773]]","[[0.         0.10539101]
 [0.1        1.63294926]
 [0.2        0.21421971]
 [0.3        1.47001367]
 [0.32341667 1.56453662]]",1,0.512
8729820499,f,20,english,5,3,english,2024-02-01 10:36:57.252449,False,1,103,sounds\english\audio/english_211.wav,"[[  0.          37.34807541]
 [  0.1         97.98979508]
 [  0.2        -20.02981109]
 [  0.3        -69.8116311 ]
 [  0.32341667  35.11126142]]","[[0.         1.77380832]
 [0.1        1.35747523]
 [0.2        1.74013371]
 [0.3        0.94808553]
 [0.32341667 0.23094119]]",1,0.899
8729820499,f,20,english,5,3,english,2024-02-01 10:36:57.252449,False,1,104,sounds\english\audio/english_62.wav,"[[  0.          17.28527913]
 [  0.1          8.63936001]
 [  0.2        -69.0074729 ]
 [  0.3        -18.85502465]
 [  0.32341667  59.46739627]]","[[0.         1.12530616]
 [0.1        1.09357984]
 [0.2        1.07648496]
 [0.3        0.36768209]
 [0.32341667 0.39033463]]",1,0.584
8729820499,f,20,english,5,3,english,2024-02-01 10:36:57.252449,False,1,105,sounds\english\audio/english_137.wav,"[[  0.         -81.54177422]
 [  0.1         48.50229113]
 [  0.2        -43.40912925]
 [  0.3         54.89578869]
 [  0.32341667  90.09778797]]","[[0.         0.16940048]
 [0.1        1.33204053]
 [0.2        1.8593258 ]
 [0.3        1.77805515]
 [0.32341667 1.80981769]]",1,0.567
8729820499,f,20,english,5,3,english,2024-02-01 10:36:57.252449,False,1,106,sounds\english\audio/english_292.wav,"[[  0.         -39.45275529]
 [  0.1        -35.03464337]
 [  0.2         31.68370279]
 [  0.3        -53.75991965]
 [  0.32341667  12.49992629]]","[[0.         0.85174507]
 [0.1        0.73996191]
 [0.2        1.42892595]
 [0.3        0.04968332]
 [0.32341667 0.58931553]]",1,0.623
8729820499,f,20,english,5,3,english,2024-02-01 10:36:57.252449,False,1,107,sounds\english\audio/english_554.wav,"[[  0.           9.57607907]
 [  0.1         29.37398753]
 [  0.2        -58.71210794]
 [  0.3        -10.7927705 ]
 [  0.32341667  21.8128915 ]]","[[0.         1.93967122]
 [0.1        1.74360796]
 [0.2        0.37945994]
 [0.3        1.56347046]
 [0.32341667 1.38248676]]",1,0.529
8729820499,f,20,english,5,3,english,2024-02-01 10:36:57.252449,False,1,108,sounds\english\audio/english_872.wav,"[[  0.           0.56374655]
 [  0.1        -70.88107799]
 [  0.2          6.46677515]
 [  0.3        -23.51354109]
 [  0.32341667  81.64578493]]","[[0.         0.10935802]
 [0.1        0.91778609]
 [0.2        1.38740199]
 [0.3        0.12682507]
 [0.32341667 0.71067476]]",1,0.754
8729820499,f,20,english,5,3,english,2024-02-01 10:36:57.252449,False,1,109,sounds\english\audio/english_486.wav,"[[  0.          31.41997184]
 [  0.1         58.03480486]
 [  0.2        -62.84801238]
 [  0.3         10.62451678]
 [  0.32341667  10.31835057]]","[[0.         1.22599644]
 [0.1        1.4547445 ]
 [0.2        0.27967606]
 [0.3        0.02065399]
 [0.32341667 0.3128479 ]]",0,0.458
8729820499,f,20,english,5,3,english,2024-02-01 10:36:57.252449,False,1,110,sounds\english\audio/english_450.wav,"[[  0.          32.75253923]
 [  0.1        -95.51335644]
 [  0.2         34.87485597]
 [  0.3        -23.91285283]
 [  0.32341667  -8.67870007]]","[[0.         1.28767958]
 [0.1        1.7262356 ]
 [0.2        0.97567272]
 [0.3        1.94639387]
 [0.32341667 1.78958339]]",1,1.203
8729820499,f,20,english,5,3,english,2024-02-01 10:36:57.252449,False,1,111,sounds\english\audio/english_618.wav,"[[  0.          58.31579708]
 [  0.1          6.96253647]
 [  0.2         -4.41581756]
 [  0.3        -63.5775247 ]
 [  0.32341667  97.77631762]]","[[0.         1.46895394]
 [0.1        0.48660613]
 [0.2        1.00963977]
 [0.3        1.29399549]
 [0.32341667 0.84060701]]",1,0.525
8729820499,f,20,english,5,3,english,2024-02-01 10:36:57.252449,False,1,112,sounds\english\audio/english_648.wav,"[[  0.         -36.17742204]
 [  0.1         30.10697278]
 [  0.2        -67.31320052]
 [  0.3        -10.94597212]
 [  0.32341667  72.59648235]]","[[0.         0.57576188]
 [0.1        1.1310908 ]
 [0.2        1.67112441]
 [0.3        0.39641968]
 [0.32341667 1.93789316]]",0,0.812
8729820499,f,20,english,5,3,english,2024-02-01 10:36:57.252449,False,1,113,sounds\english\audio/english_151.wav,"[[  0.          -8.78950662]
 [  0.1         -1.70650264]
 [  0.2        -17.50286784]
 [  0.3         88.78233286]
 [  0.32341667  55.08117545]]","[[0.         1.36403682]
 [0.1        1.76375426]
 [0.2        1.43087438]
 [0.3        1.18017331]
 [0.32341667 1.30400061]]",0,0.606
8729820499,f,20,english,5,3,english,2024-02-01 10:36:57.252449,False,1,114,sounds\english\audio/english_663.wav,"[[  0.          55.84438863]
 [  0.1        -89.02249371]
 [  0.2        -13.61345685]
 [  0.3         14.50375693]
 [  0.32341667  80.63633164]]","[[0.         1.29444713]
 [0.1        0.90215198]
 [0.2        1.61104603]
 [0.3        0.31375715]
 [0.32341667 1.01784406]]",0,0.475
8729820499,f,20,english,5,3,english,2024-02-01 10:36:57.252449,False,1,115,sounds\english\audio/english_531.wav,"[[  0.         -79.40575395]
 [  0.1         24.69139357]
 [  0.2         31.85465478]
 [  0.3          0.37788074]
 [  0.32341667 -42.85922685]]","[[0.         0.23141906]
 [0.1        1.34739197]
 [0.2        0.44473315]
 [0.3        1.31624907]
 [0.32341667 0.82105614]]",1,0.603
8729820499,f,20,english,5,3,english,2024-02-01 10:36:57.252449,False,1,116,sounds\english\audio/english_942.wav,"[[  0.          96.26286183]
 [  0.1        -96.45992778]
 [  0.2         50.93322043]
 [  0.3         14.6207779 ]
 [  0.32341667   7.19296333]]","[[0.         1.14976657]
 [0.1        0.962364  ]
 [0.2        0.99280793]
 [0.3        1.92237923]
 [0.32341667 1.02094568]]",0,1.185
8729820499,f,20,english,5,3,english,2024-02-01 10:36:57.252449,False,1,117,sounds\english\audio/english_91.wav,"[[  0.         -67.73951944]
 [  0.1         83.83337034]
 [  0.2        -12.75649653]
 [  0.3          5.95502951]
 [  0.32341667  59.56964586]]","[[0.         0.2772338 ]
 [0.1        0.0816757 ]
 [0.2        0.92538416]
 [0.3        0.40714056]
 [0.32341667 1.8717525 ]]",0,0.552
8729820499,f,20,english,5,3,english,2024-02-01 10:36:57.252449,False,1,118,sounds\english\audio/english_393.wav,"[[  0.           3.63201436]
 [  0.1         64.52667935]
 [  0.2        -51.23523019]
 [  0.3        -89.75219839]
 [  0.32341667 -66.06218428]]","[[0.         1.68653621]
 [0.1        0.22518435]
 [0.2        0.07728703]
 [0.3        0.70962284]
 [0.32341667 0.7432397 ]]",0,0.393
8729820499,f,20,english,5,3,english,2024-02-01 10:36:57.252449,False,1,119,sounds\english\audio/english_433.wav,"[[  0.         -74.58178472]
 [  0.1        -50.00917691]
 [  0.2         48.18572343]
 [  0.3        -63.95387597]
 [  0.32341667 -68.91859183]]","[[0.         0.69852952]
 [0.1        1.92405883]
 [0.2        0.3905825 ]
 [0.3        0.31453116]
 [0.32341667 1.4953114 ]]",1,0.901
8729820499,f,20,english,5,3,english,2024-02-01 10:36:57.252449,False,1,120,sounds\english\audio/english_457.wav,"[[  0.         -73.30847947]
 [  0.1        -25.74413936]
 [  0.2          8.82772976]
 [  0.3         -2.30416086]
 [  0.32341667 -34.04493945]]","[[0.         0.35525387]
 [0.1        0.90483023]
 [0.2        1.30004432]
 [0.3        0.93422762]
 [0.32341667 1.31504388]]",1,0.425
8729820499,f,20,english,5,3,english,2024-02-01 10:36:57.252449,False,1,121,sounds\english\audio/english_127.wav,"[[  0.         -69.70750805]
 [  0.1        -23.17484413]
 [  0.2         16.27024862]
 [  0.3        -50.08342814]
 [  0.32341667  22.60332787]]","[[0.         0.25070661]
 [0.1        1.1475992 ]
 [0.2        1.99299371]
 [0.3        0.57749513]
 [0.32341667 1.27832678]]",1,0.164
8729820499,f,20,english,5,3,english,2024-02-01 10:36:57.252449,False,1,122,sounds\english\audio/english_907.wav,"[[  0.          13.97638225]
 [  0.1         36.81481791]
 [  0.2          1.21651202]
 [  0.3         35.47405672]
 [  0.32341667 -27.93760057]]","[[0.         0.68575839]
 [0.1        1.58611259]
 [0.2        1.59547025]
 [0.3        0.75888392]
 [0.32341667 0.06937964]]",1,0.144
8729820499,f,20,english,5,3,english,2024-02-01 10:36:57.252449,False,1,123,sounds\english\audio/english_336.wav,"[[  0.          29.43389708]
 [  0.1        -98.82505887]
 [  0.2         33.95949266]
 [  0.3        -57.79711044]
 [  0.32341667  81.65015026]]","[[0.         1.05594545]
 [0.1        1.57774783]
 [0.2        1.35373128]
 [0.3        1.04960404]
 [0.32341667 0.39151968]]",1,0.908
8729820499,f,20,english,5,3,english,2024-02-01 10:36:57.252449,False,1,124,sounds\english\audio/english_811.wav,"[[  0.         -51.03425556]
 [  0.1         22.81695275]
 [  0.2         73.06623682]
 [  0.3         -9.17693151]
 [  0.32341667  79.97760745]]","[[0.         1.55055496]
 [0.1        1.74830484]
 [0.2        1.24661488]
 [0.3        0.09792889]
 [0.32341667 0.03735929]]",1,0.237
8729820499,f,20,english,5,3,english,2024-02-01 10:36:57.252449,False,1,125,sounds\english\audio/english_220.wav,"[[  0.         -49.83323752]
 [  0.1         49.13629021]
 [  0.2         10.673463  ]
 [  0.3         -2.35218347]
 [  0.32341667  -2.61587219]]","[[0.         1.6244524 ]
 [0.1        0.7812698 ]
 [0.2        1.29736816]
 [0.3        1.3419496 ]
 [0.32341667 1.06575232]]",1,0.157
8729820499,f,20,english,5,3,english,2024-02-01 10:36:57.252449,False,1,126,sounds\english\audio/english_315.wav,"[[  0.           3.76150079]
 [  0.1          4.93204799]
 [  0.2        -81.53480532]
 [  0.3         45.94577355]
 [  0.32341667 -55.96194099]]","[[0.         1.04293113]
 [0.1        0.55537984]
 [0.2        1.13024782]
 [0.3        1.06792043]
 [0.32341667 1.80369969]]",1,0.393
8729820499,f,20,english,5,3,english,2024-02-01 10:36:57.252449,False,1,127,sounds\english\audio/english_529.wav,"[[  0.          13.90759343]
 [  0.1        -33.526088  ]
 [  0.2        -34.32120589]
 [  0.3        -18.30112723]
 [  0.32341667  16.4796061 ]]","[[0.         0.83001961]
 [0.1        0.02518437]
 [0.2        1.61112877]
 [0.3        0.91948239]
 [0.32341667 0.33204613]]",1,0.549
8729820499,f,20,english,5,3,english,2024-02-01 10:36:57.252449,False,1,128,sounds\english\audio/english_736.wav,"[[  0.          44.94907169]
 [  0.1        -89.05982676]
 [  0.2         27.88925208]
 [  0.3         77.01163693]
 [  0.32341667 -28.23601136]]","[[0.         1.40223879]
 [0.1        1.76358699]
 [0.2        0.99111008]
 [0.3        1.90426439]
 [0.32341667 1.97036362]]",1,0.083
8729820499,f,20,english,5,3,english,2024-02-01 10:36:57.252449,False,1,129,sounds\english\audio/english_953.wav,"[[  0.         -16.02430182]
 [  0.1         29.58660593]
 [  0.2        -69.77021268]
 [  0.3         10.24378989]
 [  0.32341667 -68.66835117]]","[[0.         0.31806788]
 [0.1        0.5983964 ]
 [0.2        1.47459901]
 [0.3        1.63555671]
 [0.32341667 1.74756834]]",1,0.943
8729820499,f,20,english,5,3,english,2024-02-01 10:36:57.252449,False,1,130,sounds\english\audio/english_698.wav,"[[  0.         -86.30999669]
 [  0.1        -91.60158578]
 [  0.2        -41.16326515]
 [  0.3          7.86252123]
 [  0.32341667  25.04181708]]","[[0.         1.66322514]
 [0.1        1.16924533]
 [0.2        1.29610919]
 [0.3        1.21006153]
 [0.32341667 1.83628755]]",1,0.206
8729820499,f,20,english,5,3,english,2024-02-01 10:36:57.252449,False,1,131,sounds\english\audio/english_78.wav,"[[  0.          57.57509383]
 [  0.1          8.37611797]
 [  0.2        -42.8518908 ]
 [  0.3         26.19415986]
 [  0.32341667  65.52498429]]","[[0.         0.85738581]
 [0.1        1.59375359]
 [0.2        1.65756647]
 [0.3        0.53011742]
 [0.32341667 1.5323802 ]]",0,0.354
8729820499,f,20,english,5,3,english,2024-02-01 10:36:57.252449,False,1,132,sounds\english\audio/english_217.wav,"[[  0.         -87.44045162]
 [  0.1         26.67222095]
 [  0.2         97.90977363]
 [  0.3          4.49718441]
 [  0.32341667  13.31384309]]","[[0.         1.20965721]
 [0.1        0.05295089]
 [0.2        1.23557872]
 [0.3        1.80752812]
 [0.32341667 1.57586313]]",1,0.831
8729820499,f,20,english,5,3,english,2024-02-01 10:36:57.252449,False,1,133,sounds\english\audio/english_94.wav,"[[  0.         -78.50776969]
 [  0.1         21.81048112]
 [  0.2         76.78230264]
 [  0.3        -35.62145712]
 [  0.32341667 -71.39427505]]","[[0.         1.58967719]
 [0.1        0.88841047]
 [0.2        1.12549424]
 [0.3        1.80621507]
 [0.32341667 1.00879957]]",0,0.37
8729820499,f,20,english,5,3,english,2024-02-01 10:36:57.252449,False,1,134,sounds\english\audio/english_61.wav,"[[  0.         -58.73450167]
 [  0.1        -68.77732169]
 [  0.2        -61.07430116]
 [  0.3        -87.12791991]
 [  0.32341667  47.32358741]]","[[0.         1.5196582 ]
 [0.1        0.79346499]
 [0.2        0.90548432]
 [0.3        1.71431728]
 [0.32341667 0.57778581]]",1,0.591
8729820499,f,20,english,5,3,english,2024-02-01 10:36:57.252449,False,1,135,sounds\english\audio/english_885.wav,"[[  0.          36.3288655 ]
 [  0.1        -33.4786966 ]
 [  0.2          8.05827153]
 [  0.3         84.98004341]
 [  0.32341667 -34.65749493]]","[[0.         0.78617108]
 [0.1        0.96292114]
 [0.2        0.70266535]
 [0.3        0.45613544]
 [0.32341667 0.81873504]]",1,0.724
8729820499,f,20,english,5,3,english,2024-02-01 10:36:57.252449,False,1,136,sounds\english\audio/english_158.wav,"[[  0.          33.09785739]
 [  0.1        -85.08083727]
 [  0.2         97.70701203]
 [  0.3          2.54261044]
 [  0.32341667 -59.73934841]]","[[0.         1.71128449]
 [0.1        1.56145129]
 [0.2        0.69707892]
 [0.3        1.19647348]
 [0.32341667 1.17782448]]",1,0.128
8729820499,f,20,english,5,3,english,2024-02-01 10:36:57.252449,False,1,137,sounds\english\audio/english_268.wav,"[[  0.          55.18591224]
 [  0.1         47.37483414]
 [  0.2         46.97410588]
 [  0.3        -64.08979313]
 [  0.32341667  35.8590447 ]]","[[0.         1.47327052]
 [0.1        0.95932673]
 [0.2        1.80275919]
 [0.3        1.6474991 ]
 [0.32341667 1.56533667]]",1,0.393
8729820499,f,20,english,5,3,english,2024-02-01 10:36:57.252449,False,1,138,sounds\english\audio/english_424.wav,"[[  0.          -7.44814198]
 [  0.1          9.0703424 ]
 [  0.2        -65.6005214 ]
 [  0.3         79.88163057]
 [  0.32341667  48.78273262]]","[[0.         1.7438251 ]
 [0.1        1.33993463]
 [0.2        0.96535207]
 [0.3        0.39557207]
 [0.32341667 0.47346175]]",1,0.214
8729820499,f,20,english,5,3,english,2024-02-01 10:36:57.252449,False,1,139,sounds\english\audio/english_391.wav,"[[  0.          67.64906061]
 [  0.1         79.28195584]
 [  0.2         62.27299227]
 [  0.3        -11.10764883]
 [  0.32341667  57.41338752]]","[[0.         0.41951577]
 [0.1        0.03526883]
 [0.2        0.81828659]
 [0.3        1.2900604 ]
 [0.32341667 1.95373865]]",1,1.023
8729820499,f,20,english,5,3,english,2024-02-01 10:36:57.252449,False,1,140,sounds\english\audio/english_517.wav,"[[  0.          11.23661905]
 [  0.1         58.81241605]
 [  0.2         38.38790279]
 [  0.3        -74.61462092]
 [  0.32341667 -36.69086471]]","[[0.         0.76208972]
 [0.1        0.18193562]
 [0.2        1.85963831]
 [0.3        0.20223028]
 [0.32341667 1.46287498]]",1,0.363
8729820499,f,20,english,5,3,english,2024-02-01 10:36:57.252449,False,1,141,sounds\english\audio/english_560.wav,"[[  0.           6.26341837]
 [  0.1        -94.10474965]
 [  0.2        -43.88069215]
 [  0.3        -26.3559156 ]
 [  0.32341667 -91.38105747]]","[[0.         1.61909233]
 [0.1        0.93851614]
 [0.2        1.37910144]
 [0.3        1.10578935]
 [0.32341667 0.02070647]]",1,0.599
8729820499,f,20,english,5,3,english,2024-02-01 10:36:57.252449,False,1,142,sounds\english\audio/english_893.wav,"[[  0.          17.19699967]
 [  0.1         57.52525856]
 [  0.2         13.30661706]
 [  0.3         33.02687073]
 [  0.32341667 -64.43392463]]","[[0.         0.82427167]
 [0.1        1.49866988]
 [0.2        0.84536161]
 [0.3        0.10168024]
 [0.32341667 0.7117056 ]]",1,0.765
8729820499,f,20,english,5,3,english,2024-02-01 10:36:57.252449,False,1,143,sounds\english\audio/english_768.wav,"[[  0.         -28.93145359]
 [  0.1         59.49166151]
 [  0.2         41.87955621]
 [  0.3        -92.17589111]
 [  0.32341667  15.2364545 ]]","[[0.         1.5002074 ]
 [0.1        1.15432208]
 [0.2        0.01731471]
 [0.3        0.98337229]
 [0.32341667 0.4381055 ]]",1,0.759
8729820499,f,20,english,5,3,english,2024-02-01 10:36:57.252449,False,1,144,sounds\english\audio/english_944.wav,"[[  0.          70.24274457]
 [  0.1        -48.79231442]
 [  0.2         -6.42324239]
 [  0.3         -7.7338836 ]
 [  0.32341667  69.46240638]]","[[0.         0.61048125]
 [0.1        1.63310511]
 [0.2        0.21687347]
 [0.3        0.45027042]
 [0.32341667 0.90306897]]",0,0.5
8729820499,f,20,english,5,3,english,2024-02-01 10:36:57.252449,False,1,145,sounds\english\audio/english_870.wav,"[[  0.         -85.66751388]
 [  0.1         30.55194498]
 [  0.2        -98.28008273]
 [  0.3        -58.1418371 ]
 [  0.32341667  81.20200135]]","[[0.         1.70746054]
 [0.1        0.68953906]
 [0.2        1.62274852]
 [0.3        0.74531017]
 [0.32341667 1.06596266]]",1,0.799
8729820499,f,20,english,5,3,english,2024-02-01 10:36:57.252449,False,1,146,sounds\english\audio/english_40.wav,"[[  0.          20.98315678]
 [  0.1         80.64974175]
 [  0.2          5.38930518]
 [  0.3         18.83593916]
 [  0.32341667 -14.62145671]]","[[0.         0.33544846]
 [0.1        0.81764939]
 [0.2        0.17548883]
 [0.3        0.83674413]
 [0.32341667 0.80890384]]",0,0.311
8729820499,f,20,english,5,3,english,2024-02-01 10:36:57.252449,False,1,147,sounds\english\audio/english_532.wav,"[[  0.         -19.59321792]
 [  0.1         84.44945775]
 [  0.2         -5.6477907 ]
 [  0.3        -66.11375502]
 [  0.32341667 -46.16722618]]","[[0.         1.69826346]
 [0.1        1.19849103]
 [0.2        0.05164805]
 [0.3        0.74129516]
 [0.32341667 0.11393119]]",0,0.358
8729820499,f,20,english,5,3,english,2024-02-01 10:36:57.252449,False,1,148,sounds\english\audio/english_199.wav,"[[  0.         -24.89956817]
 [  0.1        -48.49200931]
 [  0.2        -89.66548778]
 [  0.3         29.20785813]
 [  0.32341667 -88.68286362]]","[[0.         0.07306367]
 [0.1        0.10334581]
 [0.2        1.49062114]
 [0.3        0.36717513]
 [0.32341667 1.33179809]]",1,0.253
8729820499,f,20,english,5,3,english,2024-02-01 10:36:57.252449,False,1,149,sounds\english\audio/english_745.wav,"[[  0.         -57.64472866]
 [  0.1        -14.80975681]
 [  0.2         44.46939178]
 [  0.3         56.80280999]
 [  0.32341667 -16.53068296]]","[[0.         1.88925258]
 [0.1        0.26333653]
 [0.2        1.01945351]
 [0.3        0.00901457]
 [0.32341667 0.38778228]]",0,0.346
8729820499,f,20,english,5,3,english,2024-02-01 10:36:57.252449,False,1,150,sounds\english\audio/english_331.wav,"[[  0.          12.66323204]
 [  0.1        -81.78605138]
 [  0.2         59.07546792]
 [  0.3        -83.73170191]
 [  0.32341667   3.10587362]]","[[0.         1.93220763]
 [0.1        1.48237299]
 [0.2        1.15413743]
 [0.3        1.02182823]
 [0.32341667 0.81670354]]",1,0.921
8729820499,f,20,english,5,3,english,2024-02-01 10:36:57.252449,False,1,151,sounds\english\audio/english_443.wav,"[[  0.           0.608638  ]
 [  0.1         15.80398242]
 [  0.2        -53.8454718 ]
 [  0.3         32.36058062]
 [  0.32341667  41.23353215]]","[[0.         1.06022382]
 [0.1        1.02694767]
 [0.2        0.72801533]
 [0.3        1.22153209]
 [0.32341667 0.58841963]]",1,0.619
8729820499,f,20,english,5,3,english,2024-02-01 10:36:57.252449,False,1,152,sounds\english\audio/english_581.wav,"[[  0.          -4.1565262 ]
 [  0.1         84.55344465]
 [  0.2        -57.45750027]
 [  0.3        -14.35569009]
 [  0.32341667 -54.33758456]]","[[0.         0.01704603]
 [0.1        1.32903406]
 [0.2        1.58046526]
 [0.3        1.16633299]
 [0.32341667 1.20758605]]",0,1.629
8729820499,f,20,english,5,3,english,2024-02-01 10:36:57.252449,False,1,153,sounds\english\audio/english_417.wav,"[[  0.         -17.25972862]
 [  0.1         72.11413149]
 [  0.2         83.70212603]
 [  0.3         67.19530478]
 [  0.32341667  29.72084594]]","[[0.         1.29903721]
 [0.1        0.87773419]
 [0.2        1.45838331]
 [0.3        0.90979472]
 [0.32341667 0.1224986 ]]",0,0.8
8729820499,f,20,english,5,3,english,2024-02-01 10:36:57.252449,False,1,154,sounds\english\audio/english_888.wav,"[[  0.         -75.11317729]
 [  0.1        -15.41916561]
 [  0.2         30.82770832]
 [  0.3         69.72581111]
 [  0.32341667 -21.6620698 ]]","[[0.         0.15619421]
 [0.1        1.45351631]
 [0.2        1.60154734]
 [0.3        1.09787436]
 [0.32341667 1.3760261 ]]",0,1.625
8729820499,f,20,english,5,3,english,2024-02-01 10:36:57.252449,False,1,155,sounds\english\audio/english_982.wav,"[[  0.          12.44046596]
 [  0.1        -60.41666302]
 [  0.2        -35.31499742]
 [  0.3        -10.96739076]
 [  0.32341667  44.50624474]]","[[0.         0.81508625]
 [0.1        0.92712357]
 [0.2        0.77678916]
 [0.3        1.0294352 ]
 [0.32341667 1.1322674 ]]",1,0.943
8729820499,f,20,english,5,3,english,2024-02-01 10:36:57.252449,False,1,156,sounds\english\audio/english_255.wav,"[[  0.         -42.74550593]
 [  0.1         35.44578771]
 [  0.2         98.7346041 ]
 [  0.3         14.08839822]
 [  0.32341667 -55.38739786]]","[[0.         1.65518669]
 [0.1        1.85823386]
 [0.2        1.2123315 ]
 [0.3        0.62099519]
 [0.32341667 1.08486436]]",1,0.314
8729820499,f,20,english,5,3,english,2024-02-01 10:36:57.252449,False,1,157,sounds\english\audio/english_581.wav,"[[  0.          -4.1565262 ]
 [  0.1         84.55344465]
 [  0.2        -57.45750027]
 [  0.3        -14.35569009]
 [  0.32341667 -54.33758456]]","[[0.         0.01704603]
 [0.1        1.32903406]
 [0.2        1.58046526]
 [0.3        1.16633299]
 [0.32341667 1.20758605]]",0,1.148
8729820499,f,20,english,5,3,english,2024-02-01 10:36:57.252449,False,1,158,sounds\english\audio/english_873.wav,"[[  0.          85.43762199]
 [  0.1        -27.24751419]
 [  0.2         -8.79829555]
 [  0.3        -97.88620301]
 [  0.32341667  49.57089273]]","[[0.         1.00056931]
 [0.1        0.47504393]
 [0.2        0.788147  ]
 [0.3        0.64075463]
 [0.32341667 0.87603086]]",0,0.536
8729820499,f,20,english,5,3,english,2024-02-01 10:36:57.252449,False,1,159,sounds\english\audio/english_673.wav,"[[  0.         -57.74220233]
 [  0.1         51.69168463]
 [  0.2         32.71998218]
 [  0.3          1.53841214]
 [  0.32341667 -95.68622946]]","[[0.         1.16794182]
 [0.1        0.24005868]
 [0.2        1.1491536 ]
 [0.3        1.59180477]
 [0.32341667 1.00634228]]",1,0.571
8729820499,f,20,english,5,3,english,2024-02-01 10:36:57.252449,False,1,160,sounds\english\audio/english_305.wav,"[[  0.         -23.95553444]
 [  0.1        -97.95184299]
 [  0.2         95.23338475]
 [  0.3         10.74081096]
 [  0.32341667  24.9757793 ]]","[[0.         0.70401859]
 [0.1        0.00875292]
 [0.2        1.8427633 ]
 [0.3        1.83453859]
 [0.32341667 1.77535614]]",1,0.705
8729820499,f,20,english,5,3,english,2024-02-01 10:36:57.252449,False,1,161,sounds\english\audio/english_609.wav,"[[  0.          93.61263388]
 [  0.1         38.40290552]
 [  0.2        -21.94770243]
 [  0.3        -11.92302894]
 [  0.32341667  30.65806027]]","[[0.         0.51617504]
 [0.1        0.56544547]
 [0.2        0.43418402]
 [0.3        1.38818447]
 [0.32341667 1.36410066]]",1,0.879
8729820499,f,20,english,5,3,english,2024-02-01 10:36:57.252449,False,1,162,sounds\english\audio/english_644.wav,"[[  0.          21.57551932]
 [  0.1        -11.98636437]
 [  0.2        -86.21942338]
 [  0.3        -38.98906039]
 [  0.32341667 -28.58177745]]","[[0.         1.87520752]
 [0.1        1.28750901]
 [0.2        0.33708129]
 [0.3        1.53524213]
 [0.32341667 0.3058721 ]]",1,0.887
8729820499,f,20,english,5,3,english,2024-02-01 10:36:57.252449,False,1,163,sounds\english\audio/english_340.wav,"[[  0.          42.62794877]
 [  0.1         67.09042835]
 [  0.2        -80.28719593]
 [  0.3        -47.97556268]
 [  0.32341667  32.7013797 ]]","[[0.         1.44385011]
 [0.1        1.29329602]
 [0.2        1.71068781]
 [0.3        0.48872717]
 [0.32341667 1.09000269]]",1,0.608
8729820499,f,20,english,5,3,english,2024-02-01 10:36:57.252449,False,1,164,sounds\english\audio/english_164.wav,"[[  0.         -18.99376005]
 [  0.1        -38.65269109]
 [  0.2         64.75288033]
 [  0.3        -33.8407164 ]
 [  0.32341667  27.96502681]]","[[0.         1.91320144]
 [0.1        0.23857652]
 [0.2        1.41883879]
 [0.3        1.34667564]
 [0.32341667 0.04602263]]",1,1.572
8729820499,f,20,english,5,3,english,2024-02-01 10:36:57.252449,False,1,165,sounds\english\audio/english_201.wav,"[[  0.         -11.66329209]
 [  0.1        -73.85436231]
 [  0.2        -12.5199597 ]
 [  0.3        -44.18013019]
 [  0.32341667  47.68284229]]","[[0.         1.59313322]
 [0.1        1.78385616]
 [0.2        0.57641365]
 [0.3        1.54371285]
 [0.32341667 1.11944384]]",1,1.285
8729820499,f,20,english,5,3,english,2024-02-01 10:36:57.252449,False,1,166,sounds\english\audio/english_945.wav,"[[  0.          63.16075011]
 [  0.1         87.55520176]
 [  0.2        -69.60467193]
 [  0.3        -69.25530384]
 [  0.32341667 -47.64160087]]","[[0.         1.8314946 ]
 [0.1        1.3737613 ]
 [0.2        0.61639792]
 [0.3        1.67239747]
 [0.32341667 1.88344595]]",1,0.84
8729820499,f,20,english,5,3,english,2024-02-01 10:36:57.252449,False,1,167,sounds\english\audio/english_14.wav,"[[  0.          98.00979643]
 [  0.1        -39.90204919]
 [  0.2         51.0517473 ]
 [  0.3         -8.39716694]
 [  0.32341667  82.54419716]]","[[0.         0.92494293]
 [0.1        0.80403915]
 [0.2        0.29426005]
 [0.3        0.14957292]
 [0.32341667 0.1717279 ]]",1,0.605
8729820499,f,20,english,5,3,english,2024-02-01 10:36:57.252449,False,1,168,sounds\english\audio/english_127.wav,"[[  0.         -69.70750805]
 [  0.1        -23.17484413]
 [  0.2         16.27024862]
 [  0.3        -50.08342814]
 [  0.32341667  22.60332787]]","[[0.         0.25070661]
 [0.1        1.1475992 ]
 [0.2        1.99299371]
 [0.3        0.57749513]
 [0.32341667 1.27832678]]",1,0.435
8729820499,f,20,english,5,3,english,2024-02-01 10:36:57.252449,False,1,169,sounds\english\audio/english_371.wav,"[[  0.          44.65928585]
 [  0.1          2.85031152]
 [  0.2        -57.71166213]
 [  0.3        -66.93032782]
 [  0.32341667  13.43806553]]","[[0.         0.25571852]
 [0.1        1.3562861 ]
 [0.2        1.30905236]
 [0.3        1.33160076]
 [0.32341667 0.62192137]]",1,0.269
8729820499,f,20,english,5,3,english,2024-02-01 10:36:57.252449,False,1,170,sounds\english\audio/english_730.wav,"[[  0.          12.15035978]
 [  0.1        -56.22765555]
 [  0.2        -53.26534685]
 [  0.3        -25.75230742]
 [  0.32341667 -73.04726616]]","[[0.         0.91227818]
 [0.1        1.17022701]
 [0.2        0.58034143]
 [0.3        1.9562998 ]
 [0.32341667 1.99538846]]",0,0.709
8729820499,f,20,english,5,3,english,2024-02-01 10:36:57.252449,False,1,171,sounds\english\audio/english_433.wav,"[[  0.         -74.58178472]
 [  0.1        -50.00917691]
 [  0.2         48.18572343]
 [  0.3        -63.95387597]
 [  0.32341667 -68.91859183]]","[[0.         0.69852952]
 [0.1        1.92405883]
 [0.2        0.3905825 ]
 [0.3        0.31453116]
 [0.32341667 1.4953114 ]]",0,0.965
8729820499,f,20,english,5,3,english,2024-02-01 10:36:57.252449,False,1,172,sounds\english\audio/english_709.wav,"[[  0.         -57.85840644]
 [  0.1         -9.03046344]
 [  0.2        -83.08592789]
 [  0.3        -30.28779026]
 [  0.32341667 -42.69418167]]","[[0.         1.64294201]
 [0.1        1.39808038]
 [0.2        1.46645034]
 [0.3        1.11724372]
 [0.32341667 0.30195694]]",0,1.169
8729820499,f,20,english,5,3,english,2024-02-01 10:36:57.252449,False,1,173,sounds\english\audio/english_550.wav,"[[  0.          19.46608022]
 [  0.1        -94.3556307 ]
 [  0.2        -80.90695222]
 [  0.3        -65.36230075]
 [  0.32341667 -18.45722395]]","[[0.         0.78600887]
 [0.1        1.03273328]
 [0.2        0.36941932]
 [0.3        0.47038634]
 [0.32341667 0.11798167]]",0,0.368
8729820499,f,20,english,5,3,english,2024-02-01 10:36:57.252449,False,1,174,sounds\english\audio/english_571.wav,"[[  0.         -42.92588422]
 [  0.1        -87.39276897]
 [  0.2         19.06282168]
 [  0.3        -99.30459792]
 [  0.32341667  41.25263337]]","[[0.         0.65590276]
 [0.1        1.8306878 ]
 [0.2        0.06889765]
 [0.3        0.29364209]
 [0.32341667 1.388798  ]]",0,1.479
8729820499,f,20,english,5,3,english,2024-02-01 10:36:57.252449,False,1,175,sounds\english\audio/english_1000.wav,"[[  0.          27.35321797]
 [  0.1         42.13438871]
 [  0.2         95.34760893]
 [  0.3        -34.10168873]
 [  0.32341667  64.49689477]]","[[0.         1.01803417]
 [0.1        0.4558176 ]
 [0.2        0.52251179]
 [0.3        0.90165507]
 [0.32341667 0.38395199]]",1,1.511
8729820499,f,20,english,5,3,english,2024-02-01 10:36:57.252449,False,1,176,sounds\english\audio/english_179.wav,"[[ 0.         76.93131114]
 [ 0.1         5.5150778 ]
 [ 0.2         3.89208722]
 [ 0.3        -8.47825544]
 [ 0.32341667 50.73924617]]","[[0.         0.23318107]
 [0.1        0.47080089]
 [0.2        1.31062884]
 [0.3        0.27743795]
 [0.32341667 0.83516241]]",1,1.395
8729820499,f,20,english,5,3,english,2024-02-01 10:36:57.252449,False,1,177,sounds\english\audio/english_403.wav,"[[  0.         -92.65414009]
 [  0.1         75.99659731]
 [  0.2        -27.37801557]
 [  0.3        -80.04540334]
 [  0.32341667  30.50648557]]","[[0.         1.93574734]
 [0.1        0.36447309]
 [0.2        1.02888701]
 [0.3        0.02385722]
 [0.32341667 1.40553938]]",1,0.289
8729820499,f,20,english,5,3,english,2024-02-01 10:36:57.252449,False,1,178,sounds\english\audio/english_129.wav,"[[  0.          80.17800931]
 [  0.1          6.7929614 ]
 [  0.2         51.03188375]
 [  0.3        -14.28174581]
 [  0.32341667  32.60771632]]","[[0.         1.16690044]
 [0.1        1.89220933]
 [0.2        1.40122633]
 [0.3        0.72131347]
 [0.32341667 1.30692003]]",1,0.836
8729820499,f,20,english,5,3,english,2024-02-01 10:36:57.252449,False,1,179,sounds\english\audio/english_9.wav,"[[  0.          24.77706225]
 [  0.1         91.05524194]
 [  0.2         30.20964975]
 [  0.3        -69.66301283]
 [  0.32341667  -3.83240646]]","[[0.         1.13145128]
 [0.1        1.19326311]
 [0.2        1.50029029]
 [0.3        1.4622179 ]
 [0.32341667 1.9316504 ]]",1,0.077
8729820499,f,20,english,5,3,english,2024-02-01 10:36:57.252449,False,1,180,sounds\english\audio/english_13.wav,"[[  0.          85.79405153]
 [  0.1        -22.00296346]
 [  0.2         45.89988476]
 [  0.3        -17.47250281]
 [  0.32341667 -30.34546067]]","[[0.         0.93145275]
 [0.1        0.69811424]
 [0.2        1.08090206]
 [0.3        0.35305012]
 [0.32341667 0.65915907]]",0,1.708
8729820499,f,20,english,5,3,english,2024-02-01 10:36:57.252449,False,1,181,sounds\english\audio/english_456.wav,"[[ 0.         43.57092671]
 [ 0.1        59.73787768]
 [ 0.2        82.18665257]
 [ 0.3        84.09992258]
 [ 0.32341667 14.68455092]]","[[0.         0.12750432]
 [0.1        0.97340157]
 [0.2        0.43547726]
 [0.3        1.17970357]
 [0.32341667 0.64309566]]",0,0.473
8729820499,f,20,english,5,3,english,2024-02-01 10:36:57.252449,False,1,182,sounds\english\audio/english_903.wav,"[[  0.          73.58848698]
 [  0.1        -95.58060262]
 [  0.2         17.41642173]
 [  0.3         94.35223882]
 [  0.32341667 -49.48803877]]","[[0.         0.30588109]
 [0.1        0.88963747]
 [0.2        1.73634476]
 [0.3        0.71257749]
 [0.32341667 1.4824474 ]]",0,1.029
8729820499,f,20,english,5,3,english,2024-02-01 10:36:57.252449,False,1,183,sounds\english\audio/english_600.wav,"[[  0.          37.30285492]
 [  0.1         57.58729363]
 [  0.2        -74.33256695]
 [  0.3        -35.711252  ]
 [  0.32341667   3.54782198]]","[[0.         1.23507691]
 [0.1        0.65453179]
 [0.2        1.70226061]
 [0.3        0.4723836 ]
 [0.32341667 0.49080622]]",0,0.506
8729820499,f,20,english,5,3,english,2024-02-01 10:36:57.252449,False,1,184,sounds\english\audio/english_128.wav,"[[  0.         -84.07301703]
 [  0.1          0.2051398 ]
 [  0.2         50.77588291]
 [  0.3          3.27834455]
 [  0.32341667  59.5943459 ]]","[[0.         0.96445051]
 [0.1        0.77165422]
 [0.2        0.60279997]
 [0.3        0.59915485]
 [0.32341667 0.43521132]]",1,0.324
8729820499,f,20,english,5,3,english,2024-02-01 10:36:57.252449,False,1,185,sounds\english\audio/english_955.wav,"[[  0.         -93.58498903]
 [  0.1        -11.56731864]
 [  0.2         60.37787928]
 [  0.3         83.42366765]
 [  0.32341667 -60.32056418]]","[[0.         1.26703381]
 [0.1        0.51967441]
 [0.2        1.0313906 ]
 [0.3        1.58878747]
 [0.32341667 1.0025339 ]]",0,1.833
8729820499,f,20,english,5,3,english,2024-02-01 10:36:57.252449,False,1,186,sounds\english\audio/english_862.wav,"[[  0.          97.17644144]
 [  0.1         26.34966999]
 [  0.2        -21.73584106]
 [  0.3         70.49109419]
 [  0.32341667  43.48373212]]","[[0.         0.51253178]
 [0.1        0.21080737]
 [0.2        0.27401534]
 [0.3        1.91980484]
 [0.32341667 0.96077188]]",0,0.606
8729820499,f,20,english,5,3,english,2024-02-01 10:36:57.252449,False,1,187,sounds\english\audio/english_187.wav,"[[  0.         -18.35695568]
 [  0.1         10.21632188]
 [  0.2          0.69047377]
 [  0.3         67.68385624]
 [  0.32341667  48.15291114]]","[[0.         0.61755768]
 [0.1        1.6626445 ]
 [0.2        0.70950015]
 [0.3        0.8856252 ]
 [0.32341667 1.92627472]]",0,0.274
8729820499,f,20,english,5,3,english,2024-02-01 10:36:57.252449,False,1,188,sounds\english\audio/english_780.wav,"[[  0.         -15.29393571]
 [  0.1        -51.86215325]
 [  0.2        -27.43889325]
 [  0.3         37.56841363]
 [  0.32341667 -40.51855496]]","[[0.         0.99089132]
 [0.1        0.3216491 ]
 [0.2        1.38797184]
 [0.3        0.96060741]
 [0.32341667 0.89048449]]",0,0.263
8729820499,f,20,english,5,3,english,2024-02-01 10:36:57.252449,False,1,189,sounds\english\audio/english_42.wav,"[[  0.         -15.36487641]
 [  0.1         11.43696078]
 [  0.2         34.58464447]
 [  0.3         68.67640378]
 [  0.32341667 -67.59461511]]","[[0.         1.81244548]
 [0.1        1.472484  ]
 [0.2        0.21504119]
 [0.3        0.80253652]
 [0.32341667 1.53231421]]",1,0.966
8729820499,f,20,english,5,3,english,2024-02-01 10:36:57.252449,False,1,190,sounds\english\audio/english_650.wav,"[[  0.         -14.34164867]
 [  0.1        -59.47569919]
 [  0.2        -47.0995584 ]
 [  0.3        -55.25841156]
 [  0.32341667  83.92345375]]","[[0.         1.10695192]
 [0.1        1.2442548 ]
 [0.2        0.31281267]
 [0.3        1.9869399 ]
 [0.32341667 1.10607629]]",0,0.334
8729820499,f,20,english,5,3,english,2024-02-01 10:36:57.252449,False,1,191,sounds\english\audio/english_341.wav,"[[  0.          -3.29192029]
 [  0.1        -63.07334109]
 [  0.2        -52.81319379]
 [  0.3         47.65296252]
 [  0.32341667  -2.67842738]]","[[0.         0.92007635]
 [0.1        0.76766635]
 [0.2        0.00478881]
 [0.3        0.69804387]
 [0.32341667 0.15231077]]",1,1.42
8729820499,f,20,english,5,3,english,2024-02-01 10:36:57.252449,False,1,192,sounds\english\audio/english_617.wav,"[[  0.         -99.94195333]
 [  0.1        -27.54289523]
 [  0.2        -31.48016085]
 [  0.3        -72.28967102]
 [  0.32341667 -18.83127656]]","[[0.         1.17597353]
 [0.1        0.72595777]
 [0.2        0.94648609]
 [0.3        1.67485207]
 [0.32341667 0.94146903]]",1,0.123
8729820499,f,20,english,5,3,english,2024-02-01 10:36:57.252449,False,1,193,sounds\english\audio/english_723.wav,"[[  0.         -85.17156731]
 [  0.1         92.93654667]
 [  0.2        -28.89042756]
 [  0.3         36.79914563]
 [  0.32341667   6.86426773]]","[[0.         1.02541656]
 [0.1        0.92088513]
 [0.2        0.78256854]
 [0.3        1.22887413]
 [0.32341667 1.77193963]]",1,0.199
8729820499,f,20,english,5,3,english,2024-02-01 10:36:57.252449,False,1,194,sounds\english\audio/english_39.wav,"[[  0.          28.0167149 ]
 [  0.1          0.73047565]
 [  0.2        -55.83763262]
 [  0.3        -59.78026112]
 [  0.32341667  81.1603589 ]]","[[0.         1.3269735 ]
 [0.1        0.59121622]
 [0.2        0.32613901]
 [0.3        1.39661139]
 [0.32341667 0.76065887]]",1,0.19
8729820499,f,20,english,5,3,english,2024-02-01 10:36:57.252449,False,1,195,sounds\english\audio/english_764.wav,"[[  0.           7.00590276]
 [  0.1        -69.33047837]
 [  0.2        -20.89747671]
 [  0.3        -96.63564891]
 [  0.32341667  78.55111455]]","[[0.         1.84020442]
 [0.1        0.1607256 ]
 [0.2        1.70981587]
 [0.3        1.13854431]
 [0.32341667 1.5536836 ]]",1,0.883
8729820499,f,20,english,5,3,english,2024-02-01 10:36:57.252449,False,1,196,sounds\english\audio/english_308.wav,"[[  0.          71.04817524]
 [  0.1        -29.23230128]
 [  0.2        -23.90252129]
 [  0.3        -20.50746627]
 [  0.32341667 -25.31970697]]","[[0.         1.27905886]
 [0.1        0.28593244]
 [0.2        0.87298087]
 [0.3        0.50431278]
 [0.32341667 1.06118321]]",1,0.366
8729820499,f,20,english,5,3,english,2024-02-01 10:36:57.252449,False,1,197,sounds\english\audio/english_218.wav,"[[  0.          87.3373499 ]
 [  0.1        -14.87903436]
 [  0.2        -31.97943339]
 [  0.3        -60.49311609]
 [  0.32341667 -63.68242647]]","[[0.         1.94084006]
 [0.1        0.13305972]
 [0.2        1.11441312]
 [0.3        1.83933377]
 [0.32341667 1.41053301]]",1,0.375
8729820499,f,20,english,5,3,english,2024-02-01 10:36:57.252449,False,1,198,sounds\english\audio/english_460.wav,"[[  0.         -93.21492338]
 [  0.1        -65.59669931]
 [  0.2         76.47030005]
 [  0.3        -24.62267943]
 [  0.32341667  17.6428759 ]]","[[0.         1.97422145]
 [0.1        0.48313428]
 [0.2        0.91916034]
 [0.3        0.34121923]
 [0.32341667 0.75894887]]",1,0.042
8729820499,f,20,english,5,3,english,2024-02-01 10:36:57.252449,False,1,199,sounds\english\audio/english_918.wav,"[[  0.         -64.11083249]
 [  0.1         75.84330997]
 [  0.2        -30.10314186]
 [  0.3         91.40385877]
 [  0.32341667 -14.12068895]]","[[0.         1.38668504]
 [0.1        1.4522357 ]
 [0.2        1.37046734]
 [0.3        0.70209545]
 [0.32341667 0.09881605]]",1,0.242
8729820499,f,20,english,5,3,english,2024-02-01 10:36:57.252449,False,1,200,sounds\english\audio/english_770.wav,"[[  0.         -33.21947329]
 [  0.1         63.53746239]
 [  0.2        -62.38231874]
 [  0.3         57.5515188 ]
 [  0.32341667 -11.94001254]]","[[0.         1.48551245]
 [0.1        1.21485607]
 [0.2        1.11129762]
 [0.3        1.59702794]
 [0.32341667 1.16110171]]",1,0.204
8729820499,f,20,english,5,3,english,2024-02-01 10:36:57.252449,False,1,201,sounds\english\audio/english_928.wav,"[[  0.          55.07207497]
 [  0.1         83.71672672]
 [  0.2        -43.28929986]
 [  0.3        -17.1692271 ]
 [  0.32341667 -36.644272  ]]","[[0.         1.22706758]
 [0.1        0.97206042]
 [0.2        0.16969859]
 [0.3        0.90092586]
 [0.32341667 0.43024518]]",1,0.268
8729820499,f,20,english,5,3,english,2024-02-01 10:36:57.252449,False,1,202,sounds\english\audio/english_169.wav,"[[  0.          21.52556644]
 [  0.1        -62.21960884]
 [  0.2        -58.58818316]
 [  0.3         14.95103608]
 [  0.32341667  21.70814087]]","[[0.         0.24747868]
 [0.1        0.51530303]
 [0.2        1.14352058]
 [0.3        1.46694059]
 [0.32341667 1.67980684]]",0,1.725
8729820499,f,20,english,5,3,english,2024-02-01 10:36:57.252449,False,1,203,sounds\english\audio/english_587.wav,"[[  0.         -33.32102811]
 [  0.1         46.1287001 ]
 [  0.2        -62.23894368]
 [  0.3         36.67711132]
 [  0.32341667 -11.53320103]]","[[0.         0.7972352 ]
 [0.1        1.97425238]
 [0.2        0.99609006]
 [0.3        1.18577707]
 [0.32341667 1.64089558]]",1,0.235
8729820499,f,20,english,5,3,english,2024-02-01 10:36:57.252449,False,1,204,sounds\english\audio/english_53.wav,"[[  0.           5.97237457]
 [  0.1        -76.12131912]
 [  0.2         55.18337216]
 [  0.3         70.32610425]
 [  0.32341667  26.40450832]]","[[0.         0.42230306]
 [0.1        0.60624646]
 [0.2        0.26369256]
 [0.3        1.07400525]
 [0.32341667 0.2721545 ]]",1,0.467
8729820499,f,20,english,5,3,english,2024-02-01 10:36:57.252449,False,1,205,sounds\english\audio/english_623.wav,"[[  0.         -23.54178515]
 [  0.1        -47.52772515]
 [  0.2         47.20668934]
 [  0.3        -98.32001938]
 [  0.32341667 -63.09014275]]","[[0.         1.91881792]
 [0.1        0.99675119]
 [0.2        0.26332691]
 [0.3        1.33317057]
 [0.32341667 1.04211108]]",1,0.083
8729820499,f,20,english,5,3,english,2024-02-01 10:36:57.252449,False,1,206,sounds\english\audio/english_455.wav,"[[  0.          16.09493262]
 [  0.1         24.58982   ]
 [  0.2        -59.31201859]
 [  0.3         40.79603426]
 [  0.32341667 -39.30035714]]","[[0.         0.21208686]
 [0.1        1.0305564 ]
 [0.2        1.53057992]
 [0.3        0.62599766]
 [0.32341667 1.43054244]]",1,0.329
8729820499,f,20,english,5,3,english,2024-02-01 10:36:57.252449,False,1,207,sounds\english\audio/english_129.wav,"[[  0.          80.17800931]
 [  0.1          6.7929614 ]
 [  0.2         51.03188375]
 [  0.3        -14.28174581]
 [  0.32341667  32.60771632]]","[[0.         1.16690044]
 [0.1        1.89220933]
 [0.2        1.40122633]
 [0.3        0.72131347]
 [0.32341667 1.30692003]]",1,1.777
8729820499,f,20,english,5,3,english,2024-02-01 10:36:57.252449,False,1,208,sounds\english\audio/english_397.wav,"[[  0.          89.67962381]
 [  0.1        -80.29722345]
 [  0.2         60.53564011]
 [  0.3          9.94565725]
 [  0.32341667   0.1319882 ]]","[[0.         0.42719638]
 [0.1        0.89466904]
 [0.2        0.56174568]
 [0.3        0.1553242 ]
 [0.32341667 1.89079641]]",1,0.384
8729820499,f,20,english,5,3,english,2024-02-01 10:36:57.252449,False,1,209,sounds\english\audio/english_13.wav,"[[  0.          85.79405153]
 [  0.1        -22.00296346]
 [  0.2         45.89988476]
 [  0.3        -17.47250281]
 [  0.32341667 -30.34546067]]","[[0.         0.93145275]
 [0.1        0.69811424]
 [0.2        1.08090206]
 [0.3        0.35305012]
 [0.32341667 0.65915907]]",1,0.123
8729820499,f,20,english,5,3,english,2024-02-01 10:36:57.252449,False,1,210,sounds\english\audio/english_678.wav,"[[  0.          87.86222938]
 [  0.1        -47.14792626]
 [  0.2         -6.84659798]
 [  0.3         87.67045201]
 [  0.32341667 -51.71213936]]","[[0.         1.6760541 ]
 [0.1        0.22369522]
 [0.2        1.1260271 ]
 [0.3        1.53941447]
 [0.32341667 1.37136581]]",1,0.243
8729820499,f,20,english,5,3,english,2024-02-01 10:36:57.252449,False,1,211,sounds\english\audio/english_915.wav,"[[  0.          40.39704719]
 [  0.1        -77.86782689]
 [  0.2         21.84672988]
 [  0.3        -56.0972156 ]
 [  0.32341667  65.00594456]]","[[0.         0.11203387]
 [0.1        0.449249  ]
 [0.2        0.02407483]
 [0.3        1.6502756 ]
 [0.32341667 0.65362707]]",0,0.295
8729820499,f,20,english,5,3,english,2024-02-01 10:36:57.252449,False,1,212,sounds\english\audio/english_662.wav,"[[  0.         -34.20942979]
 [  0.1        -64.9220759 ]
 [  0.2        -46.13526655]
 [  0.3         16.61128262]
 [  0.32341667 -72.42442326]]","[[0.         0.58122658]
 [0.1        0.35407044]
 [0.2        1.02300599]
 [0.3        0.09808433]
 [0.32341667 0.71975239]]",1,2.793
8729820499,f,20,english,5,3,english,2024-02-01 10:36:57.252449,False,1,213,sounds\english\audio/english_59.wav,"[[  0.          30.26604033]
 [  0.1         25.69112756]
 [  0.2        -24.85549033]
 [  0.3        -31.2790444 ]
 [  0.32341667  86.30355152]]","[[0.         1.5973148 ]
 [0.1        0.24758472]
 [0.2        0.1547886 ]
 [0.3        0.30754036]
 [0.32341667 0.40312024]]",1,0.37
8729820499,f,20,english,5,3,english,2024-02-01 10:36:57.252449,False,1,214,sounds\english\audio/english_974.wav,"[[  0.          29.63575745]
 [  0.1        -49.63946334]
 [  0.2         87.75163431]
 [  0.3        -62.39844007]
 [  0.32341667 -98.5513891 ]]","[[0.         0.7371821 ]
 [0.1        1.15838362]
 [0.2        1.66312363]
 [0.3        0.85783748]
 [0.32341667 1.53033297]]",0,1.608
8729820499,f,20,english,5,3,english,2024-02-01 10:36:57.252449,False,1,215,sounds\english\audio/english_218.wav,"[[  0.          87.3373499 ]
 [  0.1        -14.87903436]
 [  0.2        -31.97943339]
 [  0.3        -60.49311609]
 [  0.32341667 -63.68242647]]","[[0.         1.94084006]
 [0.1        0.13305972]
 [0.2        1.11441312]
 [0.3        1.83933377]
 [0.32341667 1.41053301]]",0,0.431
8729820499,f,20,english,5,3,english,2024-02-01 10:36:57.252449,False,1,216,sounds\english\audio/english_111.wav,"[[  0.          43.12539807]
 [  0.1         63.99665526]
 [  0.2         86.04570556]
 [  0.3        -25.76798659]
 [  0.32341667 -36.14422463]]","[[0.         1.84745579]
 [0.1        0.92577031]
 [0.2        0.31264784]
 [0.3        0.89352032]
 [0.32341667 0.32138535]]",1,0.266
8729820499,f,20,english,5,3,english,2024-02-01 10:36:57.252449,False,1,217,sounds\english\audio/english_408.wav,"[[  0.          -0.16211679]
 [  0.1         16.68246491]
 [  0.2        -84.31504289]
 [  0.3         20.95362966]
 [  0.32341667  15.25079186]]","[[0.         1.52185603]
 [0.1        0.27925492]
 [0.2        0.96179544]
 [0.3        1.64669203]
 [0.32341667 1.54793764]]",1,0.69
8729820499,f,20,english,5,3,english,2024-02-01 10:36:57.252449,False,1,218,sounds\english\audio/english_22.wav,"[[  0.          78.11206964]
 [  0.1         30.08823316]
 [  0.2         62.70691674]
 [  0.3        -69.9857022 ]
 [  0.32341667  -1.96178027]]","[[0.         1.48448967]
 [0.1        0.28770474]
 [0.2        1.03274311]
 [0.3        0.45071415]
 [0.32341667 0.30900593]]",1,0.197
8729820499,f,20,english,5,3,english,2024-02-01 10:36:57.252449,False,1,219,sounds\english\audio/english_928.wav,"[[  0.          55.07207497]
 [  0.1         83.71672672]
 [  0.2        -43.28929986]
 [  0.3        -17.1692271 ]
 [  0.32341667 -36.644272  ]]","[[0.         1.22706758]
 [0.1        0.97206042]
 [0.2        0.16969859]
 [0.3        0.90092586]
 [0.32341667 0.43024518]]",1,0.234
8729820499,f,20,english,5,3,english,2024-02-01 10:36:57.252449,False,1,220,sounds\english\audio/english_958.wav,"[[  0.          17.32592779]
 [  0.1         89.03376041]
 [  0.2        -24.89219777]
 [  0.3        -92.10798137]
 [  0.32341667   3.27828718]]","[[0.         0.33109802]
 [0.1        1.83345348]
 [0.2        1.95859429]
 [0.3        1.50296341]
 [0.32341667 0.1474067 ]]",0,0.366
8729820499,f,20,english,5,3,english,2024-02-01 10:36:57.252449,False,1,221,sounds\english\audio/english_995.wav,"[[ 0.         49.33707883]
 [ 0.1        54.78730957]
 [ 0.2        -5.99414072]
 [ 0.3        26.8687238 ]
 [ 0.32341667 38.3348194 ]]","[[0.         0.89732458]
 [0.1        0.49662083]
 [0.2        0.83265132]
 [0.3        1.32035917]
 [0.32341667 1.99869744]]",1,0.295
8729820499,f,20,english,5,3,english,2024-02-01 10:36:57.252449,False,1,222,sounds\english\audio/english_855.wav,"[[  0.          27.89321206]
 [  0.1        -46.00582393]
 [  0.2         35.37102385]
 [  0.3        -58.73762704]
 [  0.32341667 -46.78314799]]","[[0.         0.30262259]
 [0.1        1.40968126]
 [0.2        0.80904714]
 [0.3        1.48943687]
 [0.32341667 1.29572868]]",0,0.787
8729820499,f,20,english,5,3,english,2024-02-01 10:36:57.252449,False,1,223,sounds\english\audio/english_404.wav,"[[  0.          32.93077195]
 [  0.1         51.79107477]
 [  0.2        -61.91466198]
 [  0.3         33.45957754]
 [  0.32341667 -82.23793256]]","[[0.         0.80618862]
 [0.1        1.03327995]
 [0.2        1.39590152]
 [0.3        1.8615638 ]
 [0.32341667 0.80137687]]",0,1.603
8729820499,f,20,english,5,3,english,2024-02-01 10:36:57.252449,False,1,224,sounds\english\audio/english_558.wav,"[[  0.         -73.38624366]
 [  0.1        -42.42633216]
 [  0.2         15.99713578]
 [  0.3        -33.12568725]
 [  0.32341667  44.00446366]]","[[0.         1.58797859]
 [0.1        1.10525313]
 [0.2        0.42598769]
 [0.3        0.25629603]
 [0.32341667 1.81995896]]",1,0.323
8729820499,f,20,english,5,3,english,2024-02-01 10:36:57.252449,False,1,225,sounds\english\audio/english_403.wav,"[[  0.         -92.65414009]
 [  0.1         75.99659731]
 [  0.2        -27.37801557]
 [  0.3        -80.04540334]
 [  0.32341667  30.50648557]]","[[0.         1.93574734]
 [0.1        0.36447309]
 [0.2        1.02888701]
 [0.3        0.02385722]
 [0.32341667 1.40553938]]",1,0.46
8729820499,f,20,english,5,3,english,2024-02-01 10:36:57.252449,False,1,226,sounds\english\audio/english_299.wav,"[[  0.          -2.55977829]
 [  0.1          1.77446255]
 [  0.2        -18.83457859]
 [  0.3        -71.88845024]
 [  0.32341667  99.76623745]]","[[0.         0.95716625]
 [0.1        1.43363845]
 [0.2        1.1421669 ]
 [0.3        1.57148089]
 [0.32341667 1.70410623]]",1,0.095
8729820499,f,20,english,5,3,english,2024-02-01 10:36:57.252449,False,1,227,sounds\english\audio/english_337.wav,"[[  0.          17.21863108]
 [  0.1        -16.30098312]
 [  0.2         70.17733319]
 [  0.3         -7.16478631]
 [  0.32341667 -84.96176299]]","[[0.         0.02346696]
 [0.1        1.2349353 ]
 [0.2        1.07823504]
 [0.3        1.83339424]
 [0.32341667 1.87583376]]",1,2.34
8729820499,f,20,english,5,3,english,2024-02-01 10:36:57.252449,False,1,228,sounds\english\audio/english_686.wav,"[[  0.         -30.40223154]
 [  0.1         40.30213926]
 [  0.2         68.68183252]
 [  0.3         82.36920372]
 [  0.32341667   5.8000707 ]]","[[0.         0.36787347]
 [0.1        1.54584144]
 [0.2        1.54645212]
 [0.3        1.04035585]
 [0.32341667 1.51520661]]",1,1.121
8729820499,f,20,english,5,3,english,2024-02-01 10:36:57.252449,False,1,229,sounds\english\audio/english_341.wav,"[[  0.          -3.29192029]
 [  0.1        -63.07334109]
 [  0.2        -52.81319379]
 [  0.3         47.65296252]
 [  0.32341667  -2.67842738]]","[[0.         0.92007635]
 [0.1        0.76766635]
 [0.2        0.00478881]
 [0.3        0.69804387]
 [0.32341667 0.15231077]]",0,0.325
8729820499,f,20,english,5,3,english,2024-02-01 10:36:57.252449,False,1,230,sounds\english\audio/english_48.wav,"[[  0.          73.79399561]
 [  0.1         -6.33056249]
 [  0.2        -25.55346814]
 [  0.3         46.43305776]
 [  0.32341667 -46.56414761]]","[[0.         0.74385981]
 [0.1        1.05457567]
 [0.2        0.45493163]
 [0.3        0.06513279]
 [0.32341667 0.46755714]]",1,0.345
8729820499,f,20,english,5,3,english,2024-02-01 10:36:57.252449,False,1,231,sounds\english\audio/english_955.wav,"[[  0.         -93.58498903]
 [  0.1        -11.56731864]
 [  0.2         60.37787928]
 [  0.3         83.42366765]
 [  0.32341667 -60.32056418]]","[[0.         1.26703381]
 [0.1        0.51967441]
 [0.2        1.0313906 ]
 [0.3        1.58878747]
 [0.32341667 1.0025339 ]]",1,1.123
8729820499,f,20,english,5,3,english,2024-02-01 10:36:57.252449,False,1,232,sounds\english\audio/english_952.wav,"[[  0.          64.91746033]
 [  0.1        -25.84234774]
 [  0.2         60.30097417]
 [  0.3        -98.0606555 ]
 [  0.32341667 -77.98984902]]","[[0.         1.00586425]
 [0.1        1.28790365]
 [0.2        1.6668124 ]
 [0.3        1.44616756]
 [0.32341667 0.15831209]]",1,0.509
8729820499,f,20,english,5,3,english,2024-02-01 10:36:57.252449,False,1,233,sounds\english\audio/english_155.wav,"[[  0.          53.87474094]
 [  0.1         74.81745726]
 [  0.2          8.25192738]
 [  0.3        -52.88121257]
 [  0.32341667  48.31209788]]","[[0.         1.93436975]
 [0.1        0.64472983]
 [0.2        1.6098708 ]
 [0.3        1.15705679]
 [0.32341667 0.66500292]]",1,0.032
8729820499,f,20,english,5,3,english,2024-02-01 10:36:57.252449,False,1,234,sounds\english\audio/english_493.wav,"[[  0.          42.62366846]
 [  0.1        -24.95330968]
 [  0.2         82.3526737 ]
 [  0.3         53.78370402]
 [  0.32341667 -52.5410085 ]]","[[0.         0.72879325]
 [0.1        1.87742997]
 [0.2        1.69463318]
 [0.3        0.82529142]
 [0.32341667 0.10126548]]",1,0.737
8729820499,f,20,english,5,3,english,2024-02-01 10:36:57.252449,False,1,235,sounds\english\audio/english_817.wav,"[[  0.          58.06319333]
 [  0.1          0.91206114]
 [  0.2        -27.80824757]
 [  0.3        -73.7491051 ]
 [  0.32341667  69.75698508]]","[[0.         0.77394069]
 [0.1        0.81778066]
 [0.2        1.48752315]
 [0.3        0.41888886]
 [0.32341667 0.93012443]]",1,0.354
8729820499,f,20,english,5,3,english,2024-02-01 10:36:57.252449,False,1,236,sounds\english\audio/english_304.wav,"[[  0.         -80.7192326 ]
 [  0.1         34.14230443]
 [  0.2        -43.78548789]
 [  0.3         85.79520644]
 [  0.32341667 -29.32737886]]","[[0.         0.54130022]
 [0.1        0.20766845]
 [0.2        1.25157904]
 [0.3        0.76195837]
 [0.32341667 0.20991234]]",1,0.653
8729820499,f,20,english,5,3,english,2024-02-01 10:36:57.252449,False,1,237,sounds\english\audio/english_220.wav,"[[  0.         -49.83323752]
 [  0.1         49.13629021]
 [  0.2         10.673463  ]
 [  0.3         -2.35218347]
 [  0.32341667  -2.61587219]]","[[0.         1.6244524 ]
 [0.1        0.7812698 ]
 [0.2        1.29736816]
 [0.3        1.3419496 ]
 [0.32341667 1.06575232]]",0,0.735
8729820499,f,20,english,5,3,english,2024-02-01 10:36:57.252449,False,1,238,sounds\english\audio/english_242.wav,"[[ 0.         26.44185099]
 [ 0.1        44.29547205]
 [ 0.2        -3.86423299]
 [ 0.3        60.29108386]
 [ 0.32341667 18.66576556]]","[[0.         0.44763058]
 [0.1        1.06541359]
 [0.2        0.64111919]
 [0.3        0.35225786]
 [0.32341667 1.0072971 ]]",0,0.594
8729820499,f,20,english,5,3,english,2024-02-01 10:36:57.252449,False,1,239,sounds\english\audio/english_794.wav,"[[  0.           5.57967757]
 [  0.1         -3.8737546 ]
 [  0.2        -24.29943164]
 [  0.3          3.56417137]
 [  0.32341667 -13.30357118]]","[[0.         1.6157291 ]
 [0.1        0.80008436]
 [0.2        0.69881068]
 [0.3        1.55658335]
 [0.32341667 1.787412  ]]",1,0.458
8729820499,f,20,english,5,3,english,2024-02-01 10:36:57.252449,False,1,240,sounds\english\audio/english_582.wav,"[[  0.         -29.81423477]
 [  0.1         37.42565533]
 [  0.2         79.58894888]
 [  0.3         49.55779855]
 [  0.32341667  54.00509918]]","[[0.         0.27230029]
 [0.1        0.84765039]
 [0.2        1.99526631]
 [0.3        1.55519667]
 [0.32341667 1.66653349]]",1,0.392
8729820499,f,20,english,5,3,english,2024-02-01 10:36:57.252449,False,1,241,sounds\english\audio/english_24.wav,"[[ 0.         83.82729659]
 [ 0.1        -2.54724082]
 [ 0.2        88.70909739]
 [ 0.3        48.93770926]
 [ 0.32341667 53.25190048]]","[[0.         0.31203725]
 [0.1        1.56948954]
 [0.2        0.87333864]
 [0.3        0.88535019]
 [0.32341667 0.66112496]]",0,0.409
8729820499,f,20,english,5,3,english,2024-02-01 10:36:57.252449,False,1,242,sounds\english\audio/english_435.wav,"[[  0.         -61.49548479]
 [  0.1         18.53940612]
 [  0.2        -39.20879804]
 [  0.3        -30.66509024]
 [  0.32341667   7.07056367]]","[[0.         0.36819492]
 [0.1        1.77990606]
 [0.2        1.09377229]
 [0.3        1.98213584]
 [0.32341667 0.5936591 ]]",0,0.115
8729820499,f,20,english,5,3,english,2024-02-01 10:36:57.252449,False,1,243,sounds\english\audio/english_522.wav,"[[  0.          11.68148217]
 [  0.1        -74.55265788]
 [  0.2         95.15954448]
 [  0.3        -17.14209769]
 [  0.32341667 -35.38302731]]","[[0.         0.44643579]
 [0.1        0.16885459]
 [0.2        1.67161326]
 [0.3        0.53349848]
 [0.32341667 0.4645726 ]]",0,0.879
8729820499,f,20,english,5,3,english,2024-02-01 10:36:57.252449,False,1,244,sounds\english\audio/english_48.wav,"[[  0.          73.79399561]
 [  0.1         -6.33056249]
 [  0.2        -25.55346814]
 [  0.3         46.43305776]
 [  0.32341667 -46.56414761]]","[[0.         0.74385981]
 [0.1        1.05457567]
 [0.2        0.45493163]
 [0.3        0.06513279]
 [0.32341667 0.46755714]]",0,0.262
8729820499,f,20,english,5,3,english,2024-02-01 10:36:57.252449,False,1,245,sounds\english\audio/english_456.wav,"[[ 0.         43.57092671]
 [ 0.1        59.73787768]
 [ 0.2        82.18665257]
 [ 0.3        84.09992258]
 [ 0.32341667 14.68455092]]","[[0.         0.12750432]
 [0.1        0.97340157]
 [0.2        0.43547726]
 [0.3        1.17970357]
 [0.32341667 0.64309566]]",0,0.123
8729820499,f,20,english,5,3,english,2024-02-01 10:36:57.252449,False,1,246,sounds\english\audio/english_63.wav,"[[  0.         -99.27532027]
 [  0.1         76.75365344]
 [  0.2         -4.19867406]
 [  0.3         58.21469339]
 [  0.32341667 -76.25580242]]","[[0.         1.55063038]
 [0.1        0.78453917]
 [0.2        1.54061689]
 [0.3        0.9417581 ]
 [0.32341667 1.07689855]]",0,0.212
8729820499,f,20,english,5,3,english,2024-02-01 10:36:57.252449,False,1,247,sounds\english\audio/english_828.wav,"[[  0.          51.6479082 ]
 [  0.1         37.62818293]
 [  0.2         55.79615955]
 [  0.3         31.91979646]
 [  0.32341667 -22.21091203]]","[[0.         0.4417702 ]
 [0.1        1.22957458]
 [0.2        0.69909727]
 [0.3        1.572544  ]
 [0.32341667 0.87669833]]",1,0.058
8729820499,f,20,english,5,3,english,2024-02-01 10:36:57.252449,False,1,248,sounds\english\audio/english_739.wav,"[[  0.         -30.44662447]
 [  0.1        -27.69908881]
 [  0.2         25.08576745]
 [  0.3        -20.92476775]
 [  0.32341667 -46.92266257]]","[[0.         1.4086692 ]
 [0.1        0.95518545]
 [0.2        1.0815723 ]
 [0.3        0.08724184]
 [0.32341667 1.12979104]]",1,0.239
8729820499,f,20,english,5,3,english,2024-02-01 10:36:57.252449,False,1,249,sounds\english\audio/english_618.wav,"[[  0.          58.31579708]
 [  0.1          6.96253647]
 [  0.2         -4.41581756]
 [  0.3        -63.5775247 ]
 [  0.32341667  97.77631762]]","[[0.         1.46895394]
 [0.1        0.48660613]
 [0.2        1.00963977]
 [0.3        1.29399549]
 [0.32341667 0.84060701]]",1,0.179
8729820499,f,20,english,5,3,english,2024-02-01 10:36:57.252449,False,1,250,sounds\english\audio/english_161.wav,"[[  0.          16.17182642]
 [  0.1         51.23408036]
 [  0.2         56.55598601]
 [  0.3        -25.08054758]
 [  0.32341667 -70.36900789]]","[[0.         0.80971259]
 [0.1        1.56168911]
 [0.2        0.91666403]
 [0.3        1.93998208]
 [0.32341667 0.76147365]]",1,0.35
8729820499,f,20,english,5,3,english,2024-02-01 10:36:57.252449,False,1,251,sounds\english\audio/english_725.wav,"[[  0.          26.80600371]
 [  0.1         82.24352357]
 [  0.2         -3.79901328]
 [  0.3         68.54562933]
 [  0.32341667 -39.79698803]]","[[0.         0.25466557]
 [0.1        0.77088778]
 [0.2        0.70697722]
 [0.3        1.24247197]
 [0.32341667 1.34526742]]",1,0.378
8729820499,f,20,english,5,3,english,2024-02-01 10:36:57.252449,False,1,252,sounds\english\audio/english_273.wav,"[[  0.         -44.98289573]
 [  0.1         24.32546199]
 [  0.2         61.84573583]
 [  0.3         -1.88803465]
