subj,trial,block,date,stim,stim_order,response,rt,age,english,language,sex,param_index,segment,pitch,stretch
WH,0,0,2024-06-14T05:46:03.105Z,english_280.wav,0,1,3746,,,,,0,0,88.39262763,0.21682945
WH,0,0,2024-06-14T05:46:03.105Z,english_280.wav,0,1,3746,,,,,1,0.1,-30.0419816,1.88667459
WH,0,0,2024-06-14T05:46:03.105Z,english_280.wav,0,1,3746,,,,,2,0.2,-70.85942958,0.16117743
WH,0,0,2024-06-14T05:46:03.105Z,english_280.wav,0,1,3746,,,,,3,0.3,-46.07032191,0.35719266
WH,0,0,2024-06-14T05:46:03.105Z,english_280.wav,0,1,3746,,,,,4,0.4,22.37889655,1.6700127
WH,0,0,2024-06-14T05:46:03.105Z,english_280.wav,0,1,3746,,,,,5,0.5,47.83072725,1.73336776
WH,0,0,2024-06-14T05:46:03.105Z,english_280.wav,0,1,3746,,,,,6,0.6,22.02613007,0.653825
WH,0,0,2024-06-14T05:46:03.105Z,english_280.wav,0,1,3746,,,,,7,0.7,-10.57655449,1.99113264
WH,0,0,2024-06-14T05:46:03.105Z,english_280.wav,0,1,3746,,,,,8,0.8,78.01759084,1.83439976
WH,0,0,2024-06-14T05:46:03.105Z,english_280.wav,0,1,3746,,,,,9,0.9,38.41828257,1.29158868
WH,0,0,2024-06-14T05:46:03.105Z,english_280.wav,0,1,3746,,,,,10,1,88.43566384,1.21494043
WH,0,0,2024-06-14T05:46:03.105Z,english_280.wav,0,1,3746,,,,,11,1.09391667,-41.21843243,1.43203323
WH,1,0,2024-06-14T05:46:03.105Z,english_319.wav,0,1,25462,,,,,0,0,77.16443591,0.7420308
WH,1,0,2024-06-14T05:46:03.105Z,english_319.wav,0,1,25462,,,,,1,0.1,-97.50447801,0.79369359
WH,1,0,2024-06-14T05:46:03.105Z,english_319.wav,0,1,25462,,,,,2,0.2,48.22320359,0.01474693
WH,1,0,2024-06-14T05:46:03.105Z,english_319.wav,0,1,25462,,,,,3,0.3,85.69365628,0.05089627
WH,1,0,2024-06-14T05:46:03.105Z,english_319.wav,0,1,25462,,,,,4,0.4,-99.19363603,1.27499461
WH,1,0,2024-06-14T05:46:03.105Z,english_319.wav,0,1,25462,,,,,5,0.5,-23.7721795,1.87204787
WH,1,0,2024-06-14T05:46:03.105Z,english_319.wav,0,1,25462,,,,,6,0.6,69.35156136,1.81900072
WH,1,0,2024-06-14T05:46:03.105Z,english_319.wav,0,1,25462,,,,,7,0.7,-45.28598517,1.18018
WH,1,0,2024-06-14T05:46:03.105Z,english_319.wav,0,1,25462,,,,,8,0.8,-63.05288391,1.07853439
WH,1,0,2024-06-14T05:46:03.105Z,english_319.wav,0,1,25462,,,,,9,0.9,-37.89893573,1.96522233
WH,1,0,2024-06-14T05:46:03.105Z,english_319.wav,0,1,25462,,,,,10,1,-33.85226459,1.95815374
WH,1,0,2024-06-14T05:46:03.105Z,english_319.wav,0,1,25462,,,,,11,1.09391667,-77.07753192,1.86512983
WH,2,0,2024-06-14T05:46:03.105Z,english_450.wav,0,1,3439,,,,,0,0,-40.47622517,1.62313454
WH,2,0,2024-06-14T05:46:03.105Z,english_450.wav,0,1,3439,,,,,1,0.1,32.74162238,1.28157799
WH,2,0,2024-06-14T05:46:03.105Z,english_450.wav,0,1,3439,,,,,2,0.2,-31.99785117,0.17374894
WH,2,0,2024-06-14T05:46:03.105Z,english_450.wav,0,1,3439,,,,,3,0.3,26.01051774,1.33840529
WH,2,0,2024-06-14T05:46:03.105Z,english_450.wav,0,1,3439,,,,,4,0.4,80.55211369,1.99443486
WH,2,0,2024-06-14T05:46:03.105Z,english_450.wav,0,1,3439,,,,,5,0.5,18.01549087,1.3531925
WH,2,0,2024-06-14T05:46:03.105Z,english_450.wav,0,1,3439,,,,,6,0.6,52.7809862,1.87514045
WH,2,0,2024-06-14T05:46:03.105Z,english_450.wav,0,1,3439,,,,,7,0.7,49.03700675,0.88384361
WH,2,0,2024-06-14T05:46:03.105Z,english_450.wav,0,1,3439,,,,,8,0.8,-27.91135425,1.18722403
WH,2,0,2024-06-14T05:46:03.105Z,english_450.wav,0,1,3439,,,,,9,0.9,36.58986798,1.83701617
WH,2,0,2024-06-14T05:46:03.105Z,english_450.wav,0,1,3439,,,,,10,1,-73.7373691,1.36559917
WH,2,0,2024-06-14T05:46:03.105Z,english_450.wav,0,1,3439,,,,,11,1.09391667,98.91564747,0.09127158
WH,3,0,2024-06-14T05:46:03.105Z,english_658.wav,0,1,1639,,,,,0,0,28.12480694,0.12118838
WH,3,0,2024-06-14T05:46:03.105Z,english_658.wav,0,1,1639,,,,,1,0.1,17.57040955,1.52191588
WH,3,0,2024-06-14T05:46:03.105Z,english_658.wav,0,1,1639,,,,,2,0.2,57.56255577,1.14331833
WH,3,0,2024-06-14T05:46:03.105Z,english_658.wav,0,1,1639,,,,,3,0.3,-3.0966162,0.60390633
WH,3,0,2024-06-14T05:46:03.105Z,english_658.wav,0,1,1639,,,,,4,0.4,6.39522781,0.27160458
WH,3,0,2024-06-14T05:46:03.105Z,english_658.wav,0,1,1639,,,,,5,0.5,16.02438064,0.17957329
WH,3,0,2024-06-14T05:46:03.105Z,english_658.wav,0,1,1639,,,,,6,0.6,-1.20192687,0.27771517
WH,3,0,2024-06-14T05:46:03.105Z,english_658.wav,0,1,1639,,,,,7,0.7,-8.08463242,0.60605354
WH,3,0,2024-06-14T05:46:03.105Z,english_658.wav,0,1,1639,,,,,8,0.8,-12.30429445,1.71812783
WH,3,0,2024-06-14T05:46:03.105Z,english_658.wav,0,1,1639,,,,,9,0.9,-0.5409395,0.55654772
WH,3,0,2024-06-14T05:46:03.105Z,english_658.wav,0,1,1639,,,,,10,1,25.97570406,1.53064605
WH,3,0,2024-06-14T05:46:03.105Z,english_658.wav,0,1,1639,,,,,11,1.09391667,75.76475536,1.32831885
WH,4,0,2024-06-14T05:46:03.105Z,english_486.wav,0,1,2618,,,,,0,0,14.09044268,1.6475495
WH,4,0,2024-06-14T05:46:03.105Z,english_486.wav,0,1,2618,,,,,1,0.1,28.13825665,1.6255176
WH,4,0,2024-06-14T05:46:03.105Z,english_486.wav,0,1,2618,,,,,2,0.2,-40.21559781,1.99682212
WH,4,0,2024-06-14T05:46:03.105Z,english_486.wav,0,1,2618,,,,,3,0.3,9.13288013,0.39670369
WH,4,0,2024-06-14T05:46:03.105Z,english_486.wav,0,1,2618,,,,,4,0.4,89.32859242,1.34395023
WH,4,0,2024-06-14T05:46:03.105Z,english_486.wav,0,1,2618,,,,,5,0.5,-17.87642912,0.55691658
WH,4,0,2024-06-14T05:46:03.105Z,english_486.wav,0,1,2618,,,,,6,0.6,80.16824269,1.45409657
WH,4,0,2024-06-14T05:46:03.105Z,english_486.wav,0,1,2618,,,,,7,0.7,40.51786148,1.8204099
WH,4,0,2024-06-14T05:46:03.105Z,english_486.wav,0,1,2618,,,,,8,0.8,-19.91774538,0.51861004
WH,4,0,2024-06-14T05:46:03.105Z,english_486.wav,0,1,2618,,,,,9,0.9,-8.63425979,0.91268117
WH,4,0,2024-06-14T05:46:03.105Z,english_486.wav,0,1,2618,,,,,10,1,-22.84814304,1.67784611
WH,4,0,2024-06-14T05:46:03.105Z,english_486.wav,0,1,2618,,,,,11,1.09391667,36.71518597,0.60064436
WH,5,0,2024-06-14T05:46:03.105Z,english_793.wav,0,1,2348,,,,,0,0,-39.70617561,0.49970472
WH,5,0,2024-06-14T05:46:03.105Z,english_793.wav,0,1,2348,,,,,1,0.1,-29.28823244,0.64262829
WH,5,0,2024-06-14T05:46:03.105Z,english_793.wav,0,1,2348,,,,,2,0.2,-89.65836103,1.52317209
WH,5,0,2024-06-14T05:46:03.105Z,english_793.wav,0,1,2348,,,,,3,0.3,9.66432805,0.03732268
WH,5,0,2024-06-14T05:46:03.105Z,english_793.wav,0,1,2348,,,,,4,0.4,46.78400104,0.76197013
WH,5,0,2024-06-14T05:46:03.105Z,english_793.wav,0,1,2348,,,,,5,0.5,77.17847788,1.20681543
WH,5,0,2024-06-14T05:46:03.105Z,english_793.wav,0,1,2348,,,,,6,0.6,65.90216738,0.39643945
WH,5,0,2024-06-14T05:46:03.105Z,english_793.wav,0,1,2348,,,,,7,0.7,19.02180402,0.55038392
WH,5,0,2024-06-14T05:46:03.105Z,english_793.wav,0,1,2348,,,,,8,0.8,4.99424524,0.97724905
WH,5,0,2024-06-14T05:46:03.105Z,english_793.wav,0,1,2348,,,,,9,0.9,95.94113908,1.29198989
WH,5,0,2024-06-14T05:46:03.105Z,english_793.wav,0,1,2348,,,,,10,1,5.28849012,1.94187371
WH,5,0,2024-06-14T05:46:03.105Z,english_793.wav,0,1,2348,,,,,11,1.09391667,-28.1855206,0.04726533
WH,6,0,2024-06-14T05:46:03.105Z,english_347.wav,0,1,3157,,,,,0,0,-77.92779138,1.02669822
WH,6,0,2024-06-14T05:46:03.105Z,english_347.wav,0,1,3157,,,,,1,0.1,-64.69220677,0.41696548
WH,6,0,2024-06-14T05:46:03.105Z,english_347.wav,0,1,3157,,,,,2,0.2,-52.71418659,1.03112891
WH,6,0,2024-06-14T05:46:03.105Z,english_347.wav,0,1,3157,,,,,3,0.3,63.39772469,0.20004082
WH,6,0,2024-06-14T05:46:03.105Z,english_347.wav,0,1,3157,,,,,4,0.4,28.65691045,0.24296187
WH,6,0,2024-06-14T05:46:03.105Z,english_347.wav,0,1,3157,,,,,5,0.5,-54.91733511,0.01939813
WH,6,0,2024-06-14T05:46:03.105Z,english_347.wav,0,1,3157,,,,,6,0.6,28.83719113,1.71588951
WH,6,0,2024-06-14T05:46:03.105Z,english_347.wav,0,1,3157,,,,,7,0.7,71.325035,0.13307252
WH,6,0,2024-06-14T05:46:03.105Z,english_347.wav,0,1,3157,,,,,8,0.8,64.29714523,0.90631223
WH,6,0,2024-06-14T05:46:03.105Z,english_347.wav,0,1,3157,,,,,9,0.9,-52.51835147,1.74084271
WH,6,0,2024-06-14T05:46:03.105Z,english_347.wav,0,1,3157,,,,,10,1,-41.65784487,0.63465457
WH,6,0,2024-06-14T05:46:03.105Z,english_347.wav,0,1,3157,,,,,11,1.09391667,-56.27332848,1.27137416
WH,7,0,2024-06-14T05:46:03.105Z,english_20.wav,0,1,1418,,,,,0,0,63.0600358,0.86275217
WH,7,0,2024-06-14T05:46:03.105Z,english_20.wav,0,1,1418,,,,,1,0.1,-51.01536648,0.66446023
WH,7,0,2024-06-14T05:46:03.105Z,english_20.wav,0,1,1418,,,,,2,0.2,-79.38394235,0.76617276
WH,7,0,2024-06-14T05:46:03.105Z,english_20.wav,0,1,1418,,,,,3,0.3,18.37962799,1.08107646
WH,7,0,2024-06-14T05:46:03.105Z,english_20.wav,0,1,1418,,,,,4,0.4,-93.10550864,0.88129698
WH,7,0,2024-06-14T05:46:03.105Z,english_20.wav,0,1,1418,,,,,5,0.5,-34.41615075,1.16389527
WH,7,0,2024-06-14T05:46:03.105Z,english_20.wav,0,1,1418,,,,,6,0.6,-59.60856077,1.73817265
WH,7,0,2024-06-14T05:46:03.105Z,english_20.wav,0,1,1418,,,,,7,0.7,-5.91904512,1.94089825
WH,7,0,2024-06-14T05:46:03.105Z,english_20.wav,0,1,1418,,,,,8,0.8,-91.08119021,0.88467755
WH,7,0,2024-06-14T05:46:03.105Z,english_20.wav,0,1,1418,,,,,9,0.9,-45.35675883,1.32628719
WH,7,0,2024-06-14T05:46:03.105Z,english_20.wav,0,1,1418,,,,,10,1,-19.89168543,0.31006302
WH,7,0,2024-06-14T05:46:03.105Z,english_20.wav,0,1,1418,,,,,11,1.09391667,49.76773146,0.42478041
WH,8,0,2024-06-14T05:46:03.105Z,english_560.wav,0,1,615,,,,,0,0,-58.05020857,1.72720005
WH,8,0,2024-06-14T05:46:03.105Z,english_560.wav,0,1,615,,,,,1,0.1,0.75359215,0.87170151
WH,8,0,2024-06-14T05:46:03.105Z,english_560.wav,0,1,615,,,,,2,0.2,-63.0427696,1.11137899
WH,8,0,2024-06-14T05:46:03.105Z,english_560.wav,0,1,615,,,,,3,0.3,-80.65695741,1.61210877
WH,8,0,2024-06-14T05:46:03.105Z,english_560.wav,0,1,615,,,,,4,0.4,30.22073259,0.77402776
WH,8,0,2024-06-14T05:46:03.105Z,english_560.wav,0,1,615,,,,,5,0.5,78.65082856,1.41240522
WH,8,0,2024-06-14T05:46:03.105Z,english_560.wav,0,1,615,,,,,6,0.6,-21.87019315,1.5310865
WH,8,0,2024-06-14T05:46:03.105Z,english_560.wav,0,1,615,,,,,7,0.7,-81.08775569,0.91259008
WH,8,0,2024-06-14T05:46:03.105Z,english_560.wav,0,1,615,,,,,8,0.8,-85.95097006,0.61355253
WH,8,0,2024-06-14T05:46:03.105Z,english_560.wav,0,1,615,,,,,9,0.9,55.61706947,0.53974683
WH,8,0,2024-06-14T05:46:03.105Z,english_560.wav,0,1,615,,,,,10,1,78.8186599,1.30815579
WH,8,0,2024-06-14T05:46:03.105Z,english_560.wav,0,1,615,,,,,11,1.09391667,-38.99290187,1.62027104
WH,9,0,2024-06-14T05:46:03.105Z,english_774.wav,0,1,1130,,,,,0,0,38.7876064,0.43642058
WH,9,0,2024-06-14T05:46:03.105Z,english_774.wav,0,1,1130,,,,,1,0.1,-21.79427352,1.59194207
WH,9,0,2024-06-14T05:46:03.105Z,english_774.wav,0,1,1130,,,,,2,0.2,-78.67296896,1.92489987
WH,9,0,2024-06-14T05:46:03.105Z,english_774.wav,0,1,1130,,,,,3,0.3,-75.97471041,1.73224365
WH,9,0,2024-06-14T05:46:03.105Z,english_774.wav,0,1,1130,,,,,4,0.4,-9.72862999,0.83130124
WH,9,0,2024-06-14T05:46:03.105Z,english_774.wav,0,1,1130,,,,,5,0.5,-62.72542351,0.05776376
WH,9,0,2024-06-14T05:46:03.105Z,english_774.wav,0,1,1130,,,,,6,0.6,-92.46329741,0.22257067
WH,9,0,2024-06-14T05:46:03.105Z,english_774.wav,0,1,1130,,,,,7,0.7,9.68208163,0.82578939
WH,9,0,2024-06-14T05:46:03.105Z,english_774.wav,0,1,1130,,,,,8,0.8,-31.34266524,1.91233014
WH,9,0,2024-06-14T05:46:03.105Z,english_774.wav,0,1,1130,,,,,9,0.9,-62.50555476,1.41810173
WH,9,0,2024-06-14T05:46:03.105Z,english_774.wav,0,1,1130,,,,,10,1,-53.48833614,1.61286395
WH,9,0,2024-06-14T05:46:03.105Z,english_774.wav,0,1,1130,,,,,11,1.09391667,21.65178302,1.48005452
WH,10,0,2024-06-14T05:46:03.105Z,english_462.wav,0,1,881,,,,,0,0,78.76621738,0.83121963
WH,10,0,2024-06-14T05:46:03.105Z,english_462.wav,0,1,881,,,,,1,0.1,31.47495931,1.43506309
WH,10,0,2024-06-14T05:46:03.105Z,english_462.wav,0,1,881,,,,,2,0.2,-13.74936046,0.97721307
WH,10,0,2024-06-14T05:46:03.105Z,english_462.wav,0,1,881,,,,,3,0.3,-80.17251448,0.92562125
WH,10,0,2024-06-14T05:46:03.105Z,english_462.wav,0,1,881,,,,,4,0.4,-78.67939132,0.04016866
WH,10,0,2024-06-14T05:46:03.105Z,english_462.wav,0,1,881,,,,,5,0.5,43.51355655,0.46288791
WH,10,0,2024-06-14T05:46:03.105Z,english_462.wav,0,1,881,,,,,6,0.6,3.64631971,1.76703425
WH,10,0,2024-06-14T05:46:03.105Z,english_462.wav,0,1,881,,,,,7,0.7,-45.69022839,1.40353438
WH,10,0,2024-06-14T05:46:03.105Z,english_462.wav,0,1,881,,,,,8,0.8,-12.47954209,0.01443424
WH,10,0,2024-06-14T05:46:03.105Z,english_462.wav,0,1,881,,,,,9,0.9,-13.33411056,0.75223744
WH,10,0,2024-06-14T05:46:03.105Z,english_462.wav,0,1,881,,,,,10,1,14.72637348,0.69611535
WH,10,0,2024-06-14T05:46:03.105Z,english_462.wav,0,1,881,,,,,11,1.09391667,-47.88617719,0.81633503
WH,11,0,2024-06-14T05:46:03.105Z,english_21.wav,0,1,1701,,,,,0,0,-92.93238975,1.42780018
WH,11,0,2024-06-14T05:46:03.105Z,english_21.wav,0,1,1701,,,,,1,0.1,28.88119071,1.12059603
WH,11,0,2024-06-14T05:46:03.105Z,english_21.wav,0,1,1701,,,,,2,0.2,26.75659422,0.11228596
WH,11,0,2024-06-14T05:46:03.105Z,english_21.wav,0,1,1701,,,,,3,0.3,84.25033289,1.44253616
WH,11,0,2024-06-14T05:46:03.105Z,english_21.wav,0,1,1701,,,,,4,0.4,-63.52476529,0.8833185
WH,11,0,2024-06-14T05:46:03.105Z,english_21.wav,0,1,1701,,,,,5,0.5,17.24927989,1.19555363
WH,11,0,2024-06-14T05:46:03.105Z,english_21.wav,0,1,1701,,,,,6,0.6,51.24429763,1.82378504
WH,11,0,2024-06-14T05:46:03.105Z,english_21.wav,0,1,1701,,,,,7,0.7,-49.66599845,0.34338191
WH,11,0,2024-06-14T05:46:03.105Z,english_21.wav,0,1,1701,,,,,8,0.8,63.10207102,1.63020131
WH,11,0,2024-06-14T05:46:03.105Z,english_21.wav,0,1,1701,,,,,9,0.9,10.69932434,0.5370763
WH,11,0,2024-06-14T05:46:03.105Z,english_21.wav,0,1,1701,,,,,10,1,77.88197251,1.08980212
WH,11,0,2024-06-14T05:46:03.105Z,english_21.wav,0,1,1701,,,,,11,1.09391667,-71.28425317,0.35221603
WH,12,0,2024-06-14T05:46:03.105Z,english_137.wav,0,1,810,,,,,0,0,-3.02796188,0.22157338
WH,12,0,2024-06-14T05:46:03.105Z,english_137.wav,0,1,810,,,,,1,0.1,-18.39329507,1.5970131
WH,12,0,2024-06-14T05:46:03.105Z,english_137.wav,0,1,810,,,,,2,0.2,27.99408469,0.93366249
WH,12,0,2024-06-14T05:46:03.105Z,english_137.wav,0,1,810,,,,,3,0.3,61.38529345,1.16388988
WH,12,0,2024-06-14T05:46:03.105Z,english_137.wav,0,1,810,,,,,4,0.4,72.06706498,1.82522819
WH,12,0,2024-06-14T05:46:03.105Z,english_137.wav,0,1,810,,,,,5,0.5,-49.20369567,0.19075337
WH,12,0,2024-06-14T05:46:03.105Z,english_137.wav,0,1,810,,,,,6,0.6,-60.60556526,1.29752633
WH,12,0,2024-06-14T05:46:03.105Z,english_137.wav,0,1,810,,,,,7,0.7,4.80843339,0.8825569
WH,12,0,2024-06-14T05:46:03.105Z,english_137.wav,0,1,810,,,,,8,0.8,-95.20794281,0.57273421
WH,12,0,2024-06-14T05:46:03.105Z,english_137.wav,0,1,810,,,,,9,0.9,-29.95436641,1.14765765
WH,12,0,2024-06-14T05:46:03.105Z,english_137.wav,0,1,810,,,,,10,1,-33.21264223,0.82478891
WH,12,0,2024-06-14T05:46:03.105Z,english_137.wav,0,1,810,,,,,11,1.09391667,-31.67625375,1.98926818
WH,13,0,2024-06-14T05:46:03.105Z,english_945.wav,0,1,1271,,,,,0,0,-8.90413291,0.85973831
WH,13,0,2024-06-14T05:46:03.105Z,english_945.wav,0,1,1271,,,,,1,0.1,14.69079878,1.50793383
WH,13,0,2024-06-14T05:46:03.105Z,english_945.wav,0,1,1271,,,,,2,0.2,16.86515392,1.6389584
WH,13,0,2024-06-14T05:46:03.105Z,english_945.wav,0,1,1271,,,,,3,0.3,-0.90328453,1.35118399
WH,13,0,2024-06-14T05:46:03.105Z,english_945.wav,0,1,1271,,,,,4,0.4,-81.95044393,0.67347382
WH,13,0,2024-06-14T05:46:03.105Z,english_945.wav,0,1,1271,,,,,5,0.5,39.38574307,0.90170453
WH,13,0,2024-06-14T05:46:03.105Z,english_945.wav,0,1,1271,,,,,6,0.6,48.97516123,1.48284903
WH,13,0,2024-06-14T05:46:03.105Z,english_945.wav,0,1,1271,,,,,7,0.7,22.02745292,0.52532692
WH,13,0,2024-06-14T05:46:03.105Z,english_945.wav,0,1,1271,,,,,8,0.8,-62.58672275,0.42512417
WH,13,0,2024-06-14T05:46:03.105Z,english_945.wav,0,1,1271,,,,,9,0.9,40.96128128,0.61558677
WH,13,0,2024-06-14T05:46:03.105Z,english_945.wav,0,1,1271,,,,,10,1,-87.24049134,1.20691188
WH,13,0,2024-06-14T05:46:03.105Z,english_945.wav,0,1,1271,,,,,11,1.09391667,-36.18929768,1.76719884
WH,14,0,2024-06-14T05:46:03.105Z,english_256.wav,0,1,560,,,,,0,0,19.13786367,0.71756401
WH,14,0,2024-06-14T05:46:03.105Z,english_256.wav,0,1,560,,,,,1,0.1,78.7613355,1.21129656
WH,14,0,2024-06-14T05:46:03.105Z,english_256.wav,0,1,560,,,,,2,0.2,-10.99930376,0.86820307
WH,14,0,2024-06-14T05:46:03.105Z,english_256.wav,0,1,560,,,,,3,0.3,-4.24203719,0.23513199
WH,14,0,2024-06-14T05:46:03.105Z,english_256.wav,0,1,560,,,,,4,0.4,-18.22969313,1.96127331
WH,14,0,2024-06-14T05:46:03.105Z,english_256.wav,0,1,560,,,,,5,0.5,-1.97438764,1.02094295
WH,14,0,2024-06-14T05:46:03.105Z,english_256.wav,0,1,560,,,,,6,0.6,58.65018523,0.44586948
WH,14,0,2024-06-14T05:46:03.105Z,english_256.wav,0,1,560,,,,,7,0.7,-44.17944685,0.67070074
WH,14,0,2024-06-14T05:46:03.105Z,english_256.wav,0,1,560,,,,,8,0.8,-19.76307931,0.92528927
WH,14,0,2024-06-14T05:46:03.105Z,english_256.wav,0,1,560,,,,,9,0.9,51.42512852,0.89913532
WH,14,0,2024-06-14T05:46:03.105Z,english_256.wav,0,1,560,,,,,10,1,29.86121545,1.8576014
WH,14,0,2024-06-14T05:46:03.105Z,english_256.wav,0,1,560,,,,,11,1.09391667,94.6134288,1.03800996
WH,15,0,2024-06-14T05:46:03.105Z,english_471.wav,0,1,695,,,,,0,0,-44.33438949,1.24178701
WH,15,0,2024-06-14T05:46:03.105Z,english_471.wav,0,1,695,,,,,1,0.1,16.47774329,1.49559335
WH,15,0,2024-06-14T05:46:03.105Z,english_471.wav,0,1,695,,,,,2,0.2,-22.18014429,1.46207388
WH,15,0,2024-06-14T05:46:03.105Z,english_471.wav,0,1,695,,,,,3,0.3,96.62980594,0.79768684
WH,15,0,2024-06-14T05:46:03.105Z,english_471.wav,0,1,695,,,,,4,0.4,0.22905681,0.93952191
WH,15,0,2024-06-14T05:46:03.105Z,english_471.wav,0,1,695,,,,,5,0.5,25.29876176,1.31580264
WH,15,0,2024-06-14T05:46:03.105Z,english_471.wav,0,1,695,,,,,6,0.6,-1.90422532,0.66385174
WH,15,0,2024-06-14T05:46:03.105Z,english_471.wav,0,1,695,,,,,7,0.7,20.77355212,0.36428101
WH,15,0,2024-06-14T05:46:03.105Z,english_471.wav,0,1,695,,,,,8,0.8,26.61706742,1.49472861
WH,15,0,2024-06-14T05:46:03.105Z,english_471.wav,0,1,695,,,,,9,0.9,-76.46197336,1.78460372
WH,15,0,2024-06-14T05:46:03.105Z,english_471.wav,0,1,695,,,,,10,1,74.78681403,1.14119983
WH,15,0,2024-06-14T05:46:03.105Z,english_471.wav,0,1,695,,,,,11,1.09391667,70.35269737,0.45644683
WH,16,0,2024-06-14T05:46:03.105Z,english_657.wav,0,0,1317,,,,,0,0,-63.69177318,1.72307232
WH,16,0,2024-06-14T05:46:03.105Z,english_657.wav,0,0,1317,,,,,1,0.1,54.73276248,1.66830023
WH,16,0,2024-06-14T05:46:03.105Z,english_657.wav,0,0,1317,,,,,2,0.2,-43.55623832,1.13616271
WH,16,0,2024-06-14T05:46:03.105Z,english_657.wav,0,0,1317,,,,,3,0.3,11.0238782,1.88829015
WH,16,0,2024-06-14T05:46:03.105Z,english_657.wav,0,0,1317,,,,,4,0.4,-59.68015802,1.12700282
WH,16,0,2024-06-14T05:46:03.105Z,english_657.wav,0,0,1317,,,,,5,0.5,27.65759043,0.7230722
WH,16,0,2024-06-14T05:46:03.105Z,english_657.wav,0,0,1317,,,,,6,0.6,-5.28412069,0.45968236
WH,16,0,2024-06-14T05:46:03.105Z,english_657.wav,0,0,1317,,,,,7,0.7,11.72971173,1.25039239
WH,16,0,2024-06-14T05:46:03.105Z,english_657.wav,0,0,1317,,,,,8,0.8,72.01905562,0.98563216
WH,16,0,2024-06-14T05:46:03.105Z,english_657.wav,0,0,1317,,,,,9,0.9,65.996528,0.19974442
WH,16,0,2024-06-14T05:46:03.105Z,english_657.wav,0,0,1317,,,,,10,1,-90.37548991,1.44886145
WH,16,0,2024-06-14T05:46:03.105Z,english_657.wav,0,0,1317,,,,,11,1.09391667,-82.6734304,0.27222986
WH,17,0,2024-06-14T05:46:03.105Z,english_807.wav,0,1,508,,,,,0,0,-34.7601745,1.20965337
WH,17,0,2024-06-14T05:46:03.105Z,english_807.wav,0,1,508,,,,,1,0.1,33.36048689,1.65563234
WH,17,0,2024-06-14T05:46:03.105Z,english_807.wav,0,1,508,,,,,2,0.2,-67.67370502,1.59964516
WH,17,0,2024-06-14T05:46:03.105Z,english_807.wav,0,1,508,,,,,3,0.3,-75.303265,0.1616649
WH,17,0,2024-06-14T05:46:03.105Z,english_807.wav,0,1,508,,,,,4,0.4,50.02795893,0.65690397
WH,17,0,2024-06-14T05:46:03.105Z,english_807.wav,0,1,508,,,,,5,0.5,-86.15237501,1.06047173
WH,17,0,2024-06-14T05:46:03.105Z,english_807.wav,0,1,508,,,,,6,0.6,75.95576156,1.33167503
WH,17,0,2024-06-14T05:46:03.105Z,english_807.wav,0,1,508,,,,,7,0.7,90.49040763,0.49356808
WH,17,0,2024-06-14T05:46:03.105Z,english_807.wav,0,1,508,,,,,8,0.8,-21.66303016,0.55567292
WH,17,0,2024-06-14T05:46:03.105Z,english_807.wav,0,1,508,,,,,9,0.9,-29.03621191,1.52247069
WH,17,0,2024-06-14T05:46:03.105Z,english_807.wav,0,1,508,,,,,10,1,-43.10401298,1.04125391
WH,17,0,2024-06-14T05:46:03.105Z,english_807.wav,0,1,508,,,,,11,1.09391667,15.25709301,0.73437953
WH,18,0,2024-06-14T05:46:03.105Z,english_508.wav,0,1,688,,,,,0,0,29.95487344,1.28947786
WH,18,0,2024-06-14T05:46:03.105Z,english_508.wav,0,1,688,,,,,1,0.1,-43.56994085,0.45872669
WH,18,0,2024-06-14T05:46:03.105Z,english_508.wav,0,1,688,,,,,2,0.2,95.99440846,1.02864136
WH,18,0,2024-06-14T05:46:03.105Z,english_508.wav,0,1,688,,,,,3,0.3,96.63128694,1.38697031
WH,18,0,2024-06-14T05:46:03.105Z,english_508.wav,0,1,688,,,,,4,0.4,81.88240965,0.48619633
WH,18,0,2024-06-14T05:46:03.105Z,english_508.wav,0,1,688,,,,,5,0.5,-30.32405698,1.35316712
WH,18,0,2024-06-14T05:46:03.105Z,english_508.wav,0,1,688,,,,,6,0.6,-70.6760635,0.61818132
WH,18,0,2024-06-14T05:46:03.105Z,english_508.wav,0,1,688,,,,,7,0.7,-36.19238407,0.31535759
WH,18,0,2024-06-14T05:46:03.105Z,english_508.wav,0,1,688,,,,,8,0.8,18.2315003,1.60240226
WH,18,0,2024-06-14T05:46:03.105Z,english_508.wav,0,1,688,,,,,9,0.9,-71.56865734,1.17638413
WH,18,0,2024-06-14T05:46:03.105Z,english_508.wav,0,1,688,,,,,10,1,-72.78274833,0.8457368
WH,18,0,2024-06-14T05:46:03.105Z,english_508.wav,0,1,688,,,,,11,1.09391667,51.72471755,0.31851434
WH,19,0,2024-06-14T05:46:03.105Z,english_35.wav,0,0,1512,,,,,0,0,-33.2471352,0.63198815
WH,19,0,2024-06-14T05:46:03.105Z,english_35.wav,0,0,1512,,,,,1,0.1,-56.9991421,0.43394686
WH,19,0,2024-06-14T05:46:03.105Z,english_35.wav,0,0,1512,,,,,2,0.2,-53.141025,1.61809769
WH,19,0,2024-06-14T05:46:03.105Z,english_35.wav,0,0,1512,,,,,3,0.3,-97.470792,0.75167401
WH,19,0,2024-06-14T05:46:03.105Z,english_35.wav,0,0,1512,,,,,4,0.4,25.2422215,0.72143441
WH,19,0,2024-06-14T05:46:03.105Z,english_35.wav,0,0,1512,,,,,5,0.5,-39.0524292,1.49847169
WH,19,0,2024-06-14T05:46:03.105Z,english_35.wav,0,0,1512,,,,,6,0.6,-99.0462998,0.81761607
WH,19,0,2024-06-14T05:46:03.105Z,english_35.wav,0,0,1512,,,,,7,0.7,48.0059539,1.11392086
WH,19,0,2024-06-14T05:46:03.105Z,english_35.wav,0,0,1512,,,,,8,0.8,73.4220257,1.25690952
WH,19,0,2024-06-14T05:46:03.105Z,english_35.wav,0,0,1512,,,,,9,0.9,-41.814313,1.7324837
WH,19,0,2024-06-14T05:46:03.105Z,english_35.wav,0,0,1512,,,,,10,1,0.040670218,0.64426718
WH,19,0,2024-06-14T05:46:03.105Z,english_35.wav,0,0,1512,,,,,11,1.09391667,34.2858519,1.0286628
WH,20,0,2024-06-14T05:46:03.105Z,english_421.wav,0,0,1387,,,,,0,0,-77.37875109,0.40906671
WH,20,0,2024-06-14T05:46:03.105Z,english_421.wav,0,0,1387,,,,,1,0.1,21.68470971,0.10764534
WH,20,0,2024-06-14T05:46:03.105Z,english_421.wav,0,0,1387,,,,,2,0.2,25.95594031,0.09890733
WH,20,0,2024-06-14T05:46:03.105Z,english_421.wav,0,0,1387,,,,,3,0.3,-54.56850785,1.06704705
WH,20,0,2024-06-14T05:46:03.105Z,english_421.wav,0,0,1387,,,,,4,0.4,24.0018444,0.2085299
WH,20,0,2024-06-14T05:46:03.105Z,english_421.wav,0,0,1387,,,,,5,0.5,-47.82681182,0.29426066
WH,20,0,2024-06-14T05:46:03.105Z,english_421.wav,0,0,1387,,,,,6,0.6,-46.58707105,1.5200041
WH,20,0,2024-06-14T05:46:03.105Z,english_421.wav,0,0,1387,,,,,7,0.7,77.25272005,0.50765671
WH,20,0,2024-06-14T05:46:03.105Z,english_421.wav,0,0,1387,,,,,8,0.8,77.76425926,0.03381604
WH,20,0,2024-06-14T05:46:03.105Z,english_421.wav,0,0,1387,,,,,9,0.9,25.41801762,1.11402173
WH,20,0,2024-06-14T05:46:03.105Z,english_421.wav,0,0,1387,,,,,10,1,38.43952496,1.16253286
WH,20,0,2024-06-14T05:46:03.105Z,english_421.wav,0,0,1387,,,,,11,1.09391667,67.75811728,1.4554509
WH,21,0,2024-06-14T05:46:03.105Z,english_974.wav,0,1,571,,,,,0,0,-93.03864928,0.43845399
WH,21,0,2024-06-14T05:46:03.105Z,english_974.wav,0,1,571,,,,,1,0.1,-77.75716604,1.6903579
WH,21,0,2024-06-14T05:46:03.105Z,english_974.wav,0,1,571,,,,,2,0.2,0.69139929,1.16063432
WH,21,0,2024-06-14T05:46:03.105Z,english_974.wav,0,1,571,,,,,3,0.3,26.0953238,1.86115796
WH,21,0,2024-06-14T05:46:03.105Z,english_974.wav,0,1,571,,,,,4,0.4,98.53440651,1.84489406
WH,21,0,2024-06-14T05:46:03.105Z,english_974.wav,0,1,571,,,,,5,0.5,92.94553081,1.48551441
WH,21,0,2024-06-14T05:46:03.105Z,english_974.wav,0,1,571,,,,,6,0.6,-7.63804917,0.45444214
WH,21,0,2024-06-14T05:46:03.105Z,english_974.wav,0,1,571,,,,,7,0.7,9.10874073,0.66005011
WH,21,0,2024-06-14T05:46:03.105Z,english_974.wav,0,1,571,,,,,8,0.8,-89.79433239,1.73425962
WH,21,0,2024-06-14T05:46:03.105Z,english_974.wav,0,1,571,,,,,9,0.9,-25.22506103,0.5346903
WH,21,0,2024-06-14T05:46:03.105Z,english_974.wav,0,1,571,,,,,10,1,90.91634132,1.12098349
WH,21,0,2024-06-14T05:46:03.105Z,english_974.wav,0,1,571,,,,,11,1.09391667,96.1258414,0.52486182
WH,22,0,2024-06-14T05:46:03.105Z,english_971.wav,0,1,1083,,,,,0,0,21.92702064,0.459047
WH,22,0,2024-06-14T05:46:03.105Z,english_971.wav,0,1,1083,,,,,1,0.1,-53.27203396,0.06454192
WH,22,0,2024-06-14T05:46:03.105Z,english_971.wav,0,1,1083,,,,,2,0.2,16.04080675,1.47088252
WH,22,0,2024-06-14T05:46:03.105Z,english_971.wav,0,1,1083,,,,,3,0.3,-93.72897718,0.63214126
WH,22,0,2024-06-14T05:46:03.105Z,english_971.wav,0,1,1083,,,,,4,0.4,76.75922717,0.53041825
WH,22,0,2024-06-14T05:46:03.105Z,english_971.wav,0,1,1083,,,,,5,0.5,2.23154985,0.36671068
WH,22,0,2024-06-14T05:46:03.105Z,english_971.wav,0,1,1083,,,,,6,0.6,57.16774736,0.84112941
WH,22,0,2024-06-14T05:46:03.105Z,english_971.wav,0,1,1083,,,,,7,0.7,-66.3096603,0.93270713
WH,22,0,2024-06-14T05:46:03.105Z,english_971.wav,0,1,1083,,,,,8,0.8,-54.36784686,0.0064824
WH,22,0,2024-06-14T05:46:03.105Z,english_971.wav,0,1,1083,,,,,9,0.9,31.74688825,0.04508119
WH,22,0,2024-06-14T05:46:03.105Z,english_971.wav,0,1,1083,,,,,10,1,-41.88838509,1.17781348
WH,22,0,2024-06-14T05:46:03.105Z,english_971.wav,0,1,1083,,,,,11,1.09391667,-46.11178706,0.19249934
WH,23,0,2024-06-14T05:46:03.105Z,english_366.wav,0,1,351,,,,,0,0,-51.97670193,0.41387665
WH,23,0,2024-06-14T05:46:03.105Z,english_366.wav,0,1,351,,,,,1,0.1,-66.3802986,1.82440093
WH,23,0,2024-06-14T05:46:03.105Z,english_366.wav,0,1,351,,,,,2,0.2,-43.44577517,1.51666721
WH,23,0,2024-06-14T05:46:03.105Z,english_366.wav,0,1,351,,,,,3,0.3,-27.66745881,0.79221573
WH,23,0,2024-06-14T05:46:03.105Z,english_366.wav,0,1,351,,,,,4,0.4,-24.71146446,1.07358208
WH,23,0,2024-06-14T05:46:03.105Z,english_366.wav,0,1,351,,,,,5,0.5,7.18823907,0.88629464
WH,23,0,2024-06-14T05:46:03.105Z,english_366.wav,0,1,351,,,,,6,0.6,-1.04467208,1.421231
WH,23,0,2024-06-14T05:46:03.105Z,english_366.wav,0,1,351,,,,,7,0.7,-90.31563808,0.93675223
WH,23,0,2024-06-14T05:46:03.105Z,english_366.wav,0,1,351,,,,,8,0.8,-10.23526275,1.47759882
WH,23,0,2024-06-14T05:46:03.105Z,english_366.wav,0,1,351,,,,,9,0.9,47.79218582,1.29623614
WH,23,0,2024-06-14T05:46:03.105Z,english_366.wav,0,1,351,,,,,10,1,3.55736556,1.92903866
WH,23,0,2024-06-14T05:46:03.105Z,english_366.wav,0,1,351,,,,,11,1.09391667,-83.88061388,1.30968338
WH,24,0,2024-06-14T05:46:03.105Z,english_173.wav,0,1,624,,,,,0,0,34.32682043,0.82312646
WH,24,0,2024-06-14T05:46:03.105Z,english_173.wav,0,1,624,,,,,1,0.1,-35.22347769,0.84965345
WH,24,0,2024-06-14T05:46:03.105Z,english_173.wav,0,1,624,,,,,2,0.2,15.69043139,0.84607348
WH,24,0,2024-06-14T05:46:03.105Z,english_173.wav,0,1,624,,,,,3,0.3,-71.83777825,0.55995079
WH,24,0,2024-06-14T05:46:03.105Z,english_173.wav,0,1,624,,,,,4,0.4,-96.81426106,0.51635348
WH,24,0,2024-06-14T05:46:03.105Z,english_173.wav,0,1,624,,,,,5,0.5,-51.15803827,1.6072313
WH,24,0,2024-06-14T05:46:03.105Z,english_173.wav,0,1,624,,,,,6,0.6,-12.70248505,1.25349503
WH,24,0,2024-06-14T05:46:03.105Z,english_173.wav,0,1,624,,,,,7,0.7,-30.75730157,1.4731344
WH,24,0,2024-06-14T05:46:03.105Z,english_173.wav,0,1,624,,,,,8,0.8,-5.0022938,0.28621328
WH,24,0,2024-06-14T05:46:03.105Z,english_173.wav,0,1,624,,,,,9,0.9,41.07030003,0.95942448
WH,24,0,2024-06-14T05:46:03.105Z,english_173.wav,0,1,624,,,,,10,1,-5.319412,0.2847469
WH,24,0,2024-06-14T05:46:03.105Z,english_173.wav,0,1,624,,,,,11,1.09391667,43.01251996,0.4938404
WH,25,0,2024-06-14T05:46:03.105Z,english_622.wav,0,1,756,,,,,0,0,85.23778605,0.25362511
WH,25,0,2024-06-14T05:46:03.105Z,english_622.wav,0,1,756,,,,,1,0.1,-65.052425,0.70835512
WH,25,0,2024-06-14T05:46:03.105Z,english_622.wav,0,1,756,,,,,2,0.2,94.1080223,1.56739435
WH,25,0,2024-06-14T05:46:03.105Z,english_622.wav,0,1,756,,,,,3,0.3,60.75067227,0.57882882
WH,25,0,2024-06-14T05:46:03.105Z,english_622.wav,0,1,756,,,,,4,0.4,82.36087021,1.03820214
WH,25,0,2024-06-14T05:46:03.105Z,english_622.wav,0,1,756,,,,,5,0.5,-1.2973795,0.49027556
WH,25,0,2024-06-14T05:46:03.105Z,english_622.wav,0,1,756,,,,,6,0.6,-58.39763813,0.28856178
WH,25,0,2024-06-14T05:46:03.105Z,english_622.wav,0,1,756,,,,,7,0.7,58.2192584,1.06997695
WH,25,0,2024-06-14T05:46:03.105Z,english_622.wav,0,1,756,,,,,8,0.8,-34.88970136,1.42411309
WH,25,0,2024-06-14T05:46:03.105Z,english_622.wav,0,1,756,,,,,9,0.9,58.73036873,1.57990687
WH,25,0,2024-06-14T05:46:03.105Z,english_622.wav,0,1,756,,,,,10,1,-83.0394786,0.97655658
WH,25,0,2024-06-14T05:46:03.105Z,english_622.wav,0,1,756,,,,,11,1.09391667,11.79606421,1.49131796
WH,26,0,2024-06-14T05:46:03.105Z,english_501.wav,0,1,738,,,,,0,0,-77.74446326,0.58310938
WH,26,0,2024-06-14T05:46:03.105Z,english_501.wav,0,1,738,,,,,1,0.1,-2.03843579,1.55300385
WH,26,0,2024-06-14T05:46:03.105Z,english_501.wav,0,1,738,,,,,2,0.2,-96.88873428,1.96337639
WH,26,0,2024-06-14T05:46:03.105Z,english_501.wav,0,1,738,,,,,3,0.3,-65.26537264,1.90170473
WH,26,0,2024-06-14T05:46:03.105Z,english_501.wav,0,1,738,,,,,4,0.4,20.10074667,1.92179136
WH,26,0,2024-06-14T05:46:03.105Z,english_501.wav,0,1,738,,,,,5,0.5,61.35543997,1.23988027
WH,26,0,2024-06-14T05:46:03.105Z,english_501.wav,0,1,738,,,,,6,0.6,65.65951244,0.8779329
WH,26,0,2024-06-14T05:46:03.105Z,english_501.wav,0,1,738,,,,,7,0.7,78.35949412,1.06874401
WH,26,0,2024-06-14T05:46:03.105Z,english_501.wav,0,1,738,,,,,8,0.8,39.47708972,1.24831936
WH,26,0,2024-06-14T05:46:03.105Z,english_501.wav,0,1,738,,,,,9,0.9,-39.43243223,0.13883645
WH,26,0,2024-06-14T05:46:03.105Z,english_501.wav,0,1,738,,,,,10,1,-6.34452472,0.71986461
WH,26,0,2024-06-14T05:46:03.105Z,english_501.wav,0,1,738,,,,,11,1.09391667,-41.95684031,1.1315232
WH,27,0,2024-06-14T05:46:03.105Z,english_37.wav,0,1,1256,,,,,0,0,68.40782596,0.52957209
WH,27,0,2024-06-14T05:46:03.105Z,english_37.wav,0,1,1256,,,,,1,0.1,41.58379148,1.67320718
WH,27,0,2024-06-14T05:46:03.105Z,english_37.wav,0,1,1256,,,,,2,0.2,63.04378759,1.31144487
WH,27,0,2024-06-14T05:46:03.105Z,english_37.wav,0,1,1256,,,,,3,0.3,12.39470235,1.11254506
WH,27,0,2024-06-14T05:46:03.105Z,english_37.wav,0,1,1256,,,,,4,0.4,-38.69600303,0.57972705
WH,27,0,2024-06-14T05:46:03.105Z,english_37.wav,0,1,1256,,,,,5,0.5,-51.98957982,0.30651039
WH,27,0,2024-06-14T05:46:03.105Z,english_37.wav,0,1,1256,,,,,6,0.6,90.7945682,0.45858619
WH,27,0,2024-06-14T05:46:03.105Z,english_37.wav,0,1,1256,,,,,7,0.7,40.67115675,1.55641423
WH,27,0,2024-06-14T05:46:03.105Z,english_37.wav,0,1,1256,,,,,8,0.8,34.01498334,1.01642962
WH,27,0,2024-06-14T05:46:03.105Z,english_37.wav,0,1,1256,,,,,9,0.9,-88.26662934,0.95850402
WH,27,0,2024-06-14T05:46:03.105Z,english_37.wav,0,1,1256,,,,,10,1,-41.35685221,0.70833558
WH,27,0,2024-06-14T05:46:03.105Z,english_37.wav,0,1,1256,,,,,11,1.09391667,-27.43470179,0.55678167
WH,28,0,2024-06-14T05:46:03.105Z,english_989.wav,0,0,944,,,,,0,0,82.98869891,0.1174877
WH,28,0,2024-06-14T05:46:03.105Z,english_989.wav,0,0,944,,,,,1,0.1,24.01311559,0.45178594
WH,28,0,2024-06-14T05:46:03.105Z,english_989.wav,0,0,944,,,,,2,0.2,71.48528654,1.23946025
WH,28,0,2024-06-14T05:46:03.105Z,english_989.wav,0,0,944,,,,,3,0.3,82.44483013,1.76656678
WH,28,0,2024-06-14T05:46:03.105Z,english_989.wav,0,0,944,,,,,4,0.4,98.48869079,0.06101367
WH,28,0,2024-06-14T05:46:03.105Z,english_989.wav,0,0,944,,,,,5,0.5,52.58496553,0.35631173
WH,28,0,2024-06-14T05:46:03.105Z,english_989.wav,0,0,944,,,,,6,0.6,-12.54848129,0.41315994
WH,28,0,2024-06-14T05:46:03.105Z,english_989.wav,0,0,944,,,,,7,0.7,-85.91000404,1.50303793
WH,28,0,2024-06-14T05:46:03.105Z,english_989.wav,0,0,944,,,,,8,0.8,-71.42298859,0.56943281
WH,28,0,2024-06-14T05:46:03.105Z,english_989.wav,0,0,944,,,,,9,0.9,25.94025435,1.73902477
WH,28,0,2024-06-14T05:46:03.105Z,english_989.wav,0,0,944,,,,,10,1,87.85887099,1.10677421
WH,28,0,2024-06-14T05:46:03.105Z,english_989.wav,0,0,944,,,,,11,1.09391667,-0.32541585,1.65366883
WH,29,0,2024-06-14T05:46:03.105Z,english_38.wav,0,1,520,,,,,0,0,84.84297862,0.12127835
WH,29,0,2024-06-14T05:46:03.105Z,english_38.wav,0,1,520,,,,,1,0.1,-41.13766339,0.39553601
WH,29,0,2024-06-14T05:46:03.105Z,english_38.wav,0,1,520,,,,,2,0.2,31.0243005,1.29400733
WH,29,0,2024-06-14T05:46:03.105Z,english_38.wav,0,1,520,,,,,3,0.3,51.71643077,0.38578685
WH,29,0,2024-06-14T05:46:03.105Z,english_38.wav,0,1,520,,,,,4,0.4,-15.52187673,0.67216324
WH,29,0,2024-06-14T05:46:03.105Z,english_38.wav,0,1,520,,,,,5,0.5,37.47478577,0.61922356
WH,29,0,2024-06-14T05:46:03.105Z,english_38.wav,0,1,520,,,,,6,0.6,27.01527087,0.0538602
WH,29,0,2024-06-14T05:46:03.105Z,english_38.wav,0,1,520,,,,,7,0.7,44.60136097,0.56901487
WH,29,0,2024-06-14T05:46:03.105Z,english_38.wav,0,1,520,,,,,8,0.8,-52.37417606,1.28646438
WH,29,0,2024-06-14T05:46:03.105Z,english_38.wav,0,1,520,,,,,9,0.9,-48.58777174,0.80149466
WH,29,0,2024-06-14T05:46:03.105Z,english_38.wav,0,1,520,,,,,10,1,7.20305444,1.28981754
WH,29,0,2024-06-14T05:46:03.105Z,english_38.wav,0,1,520,,,,,11,1.09391667,-74.66052111,0.46742112
WH,30,0,2024-06-14T05:46:03.105Z,english_225.wav,0,1,342,,,,,0,0,-44.18539546,0.94661558
WH,30,0,2024-06-14T05:46:03.105Z,english_225.wav,0,1,342,,,,,1,0.1,98.45836914,0.50305164
WH,30,0,2024-06-14T05:46:03.105Z,english_225.wav,0,1,342,,,,,2,0.2,-29.25134998,0.27788422
WH,30,0,2024-06-14T05:46:03.105Z,english_225.wav,0,1,342,,,,,3,0.3,3.09020259,0.91972932
WH,30,0,2024-06-14T05:46:03.105Z,english_225.wav,0,1,342,,,,,4,0.4,-47.25747067,1.19561164
WH,30,0,2024-06-14T05:46:03.105Z,english_225.wav,0,1,342,,,,,5,0.5,-56.49635783,1.34544194
WH,30,0,2024-06-14T05:46:03.105Z,english_225.wav,0,1,342,,,,,6,0.6,-4.90331194,0.16377231
WH,30,0,2024-06-14T05:46:03.105Z,english_225.wav,0,1,342,,,,,7,0.7,46.68398305,1.35188114
WH,30,0,2024-06-14T05:46:03.105Z,english_225.wav,0,1,342,,,,,8,0.8,6.9824473,1.88786979
WH,30,0,2024-06-14T05:46:03.105Z,english_225.wav,0,1,342,,,,,9,0.9,66.07062576,1.27635088
WH,30,0,2024-06-14T05:46:03.105Z,english_225.wav,0,1,342,,,,,10,1,-46.91429175,1.3192813
WH,30,0,2024-06-14T05:46:03.105Z,english_225.wav,0,1,342,,,,,11,1.09391667,-70.62927251,0.77732241
WH,31,0,2024-06-14T05:46:03.105Z,english_74.wav,0,1,608,,,,,0,0,24.65162801,0.19950325
WH,31,0,2024-06-14T05:46:03.105Z,english_74.wav,0,1,608,,,,,1,0.1,-30.39880554,1.43111439
WH,31,0,2024-06-14T05:46:03.105Z,english_74.wav,0,1,608,,,,,2,0.2,-41.38450202,0.7414266
WH,31,0,2024-06-14T05:46:03.105Z,english_74.wav,0,1,608,,,,,3,0.3,31.11276598,1.07627737
WH,31,0,2024-06-14T05:46:03.105Z,english_74.wav,0,1,608,,,,,4,0.4,-57.65294567,1.92323622
WH,31,0,2024-06-14T05:46:03.105Z,english_74.wav,0,1,608,,,,,5,0.5,-51.69576528,1.17854767
WH,31,0,2024-06-14T05:46:03.105Z,english_74.wav,0,1,608,,,,,6,0.6,24.90932223,0.17974996
WH,31,0,2024-06-14T05:46:03.105Z,english_74.wav,0,1,608,,,,,7,0.7,-33.10450871,0.92482308
WH,31,0,2024-06-14T05:46:03.105Z,english_74.wav,0,1,608,,,,,8,0.8,-69.97293112,0.31413891
WH,31,0,2024-06-14T05:46:03.105Z,english_74.wav,0,1,608,,,,,9,0.9,88.74386832,1.87630938
WH,31,0,2024-06-14T05:46:03.105Z,english_74.wav,0,1,608,,,,,10,1,-68.30431972,1.39265686
WH,31,0,2024-06-14T05:46:03.105Z,english_74.wav,0,1,608,,,,,11,1.09391667,-30.20733398,0.32158433
WH,32,0,2024-06-14T05:46:03.105Z,english_55.wav,0,1,374,,,,,0,0,55.67307479,0.52782995
WH,32,0,2024-06-14T05:46:03.105Z,english_55.wav,0,1,374,,,,,1,0.1,-68.77763233,1.04888997
WH,32,0,2024-06-14T05:46:03.105Z,english_55.wav,0,1,374,,,,,2,0.2,-65.56479824,1.48348863
WH,32,0,2024-06-14T05:46:03.105Z,english_55.wav,0,1,374,,,,,3,0.3,-28.17507295,0.48831434
WH,32,0,2024-06-14T05:46:03.105Z,english_55.wav,0,1,374,,,,,4,0.4,12.71546493,0.57381204
WH,32,0,2024-06-14T05:46:03.105Z,english_55.wav,0,1,374,,,,,5,0.5,79.84163838,0.45321787
WH,32,0,2024-06-14T05:46:03.105Z,english_55.wav,0,1,374,,,,,6,0.6,-44.12045936,1.63628375
WH,32,0,2024-06-14T05:46:03.105Z,english_55.wav,0,1,374,,,,,7,0.7,-80.03895773,1.60012046
WH,32,0,2024-06-14T05:46:03.105Z,english_55.wav,0,1,374,,,,,8,0.8,89.560279,1.77258714
WH,32,0,2024-06-14T05:46:03.105Z,english_55.wav,0,1,374,,,,,9,0.9,-86.43761931,0.52302607
WH,32,0,2024-06-14T05:46:03.105Z,english_55.wav,0,1,374,,,,,10,1,26.43928763,1.59376443
WH,32,0,2024-06-14T05:46:03.105Z,english_55.wav,0,1,374,,,,,11,1.09391667,35.34186428,1.33420322
WH,33,0,2024-06-14T05:46:03.105Z,english_656.wav,0,1,551,,,,,0,0,-81.79066312,1.40445152
WH,33,0,2024-06-14T05:46:03.105Z,english_656.wav,0,1,551,,,,,1,0.1,82.04093637,1.3245448
WH,33,0,2024-06-14T05:46:03.105Z,english_656.wav,0,1,551,,,,,2,0.2,-52.28001609,1.15771434
WH,33,0,2024-06-14T05:46:03.105Z,english_656.wav,0,1,551,,,,,3,0.3,67.28232458,1.36671169
WH,33,0,2024-06-14T05:46:03.105Z,english_656.wav,0,1,551,,,,,4,0.4,-93.82911819,1.65032622
WH,33,0,2024-06-14T05:46:03.105Z,english_656.wav,0,1,551,,,,,5,0.5,-25.69923398,0.37873681
WH,33,0,2024-06-14T05:46:03.105Z,english_656.wav,0,1,551,,,,,6,0.6,-22.63880376,0.51917639
WH,33,0,2024-06-14T05:46:03.105Z,english_656.wav,0,1,551,,,,,7,0.7,28.9128231,1.1632187
WH,33,0,2024-06-14T05:46:03.105Z,english_656.wav,0,1,551,,,,,8,0.8,-87.87621278,0.95022034
WH,33,0,2024-06-14T05:46:03.105Z,english_656.wav,0,1,551,,,,,9,0.9,-32.99395829,1.57205129
WH,33,0,2024-06-14T05:46:03.105Z,english_656.wav,0,1,551,,,,,10,1,67.88283241,0.61260001
WH,33,0,2024-06-14T05:46:03.105Z,english_656.wav,0,1,551,,,,,11,1.09391667,-65.62849391,1.24421279
WH,34,0,2024-06-14T05:46:03.105Z,english_999.wav,0,1,1458,,,,,0,0,-8.27619319,0.000148642599
WH,34,0,2024-06-14T05:46:03.105Z,english_999.wav,0,1,1458,,,,,1,0.1,-49.3883822,1.22232627
WH,34,0,2024-06-14T05:46:03.105Z,english_999.wav,0,1,1458,,,,,2,0.2,97.54217101,1.1174933
WH,34,0,2024-06-14T05:46:03.105Z,english_999.wav,0,1,1458,,,,,3,0.3,-49.81406735,1.80111229
WH,34,0,2024-06-14T05:46:03.105Z,english_999.wav,0,1,1458,,,,,4,0.4,46.43683506,0.552807392
WH,34,0,2024-06-14T05:46:03.105Z,english_999.wav,0,1,1458,,,,,5,0.5,89.32784762,1.53319988
WH,34,0,2024-06-14T05:46:03.105Z,english_999.wav,0,1,1458,,,,,6,0.6,-55.73277594,1.7616442
WH,34,0,2024-06-14T05:46:03.105Z,english_999.wav,0,1,1458,,,,,7,0.7,49.38462906,0.0772486607
WH,34,0,2024-06-14T05:46:03.105Z,english_999.wav,0,1,1458,,,,,8,0.8,85.41123264,1.0025863
WH,34,0,2024-06-14T05:46:03.105Z,english_999.wav,0,1,1458,,,,,9,0.9,-58.86557708,0.329932429
WH,34,0,2024-06-14T05:46:03.105Z,english_999.wav,0,1,1458,,,,,10,1,99.11766896,1.88826288
WH,34,0,2024-06-14T05:46:03.105Z,english_999.wav,0,1,1458,,,,,11,1.09391667,28.82385918,1.88223689
WH,35,0,2024-06-14T05:46:03.105Z,english_192.wav,0,0,643,,,,,0,0,-44.06496916,1.38059828
WH,35,0,2024-06-14T05:46:03.105Z,english_192.wav,0,0,643,,,,,1,0.1,-1.73373059,0.79242211
WH,35,0,2024-06-14T05:46:03.105Z,english_192.wav,0,0,643,,,,,2,0.2,-29.10510113,0.7213484
WH,35,0,2024-06-14T05:46:03.105Z,english_192.wav,0,0,643,,,,,3,0.3,71.54582207,1.27323666
WH,35,0,2024-06-14T05:46:03.105Z,english_192.wav,0,0,643,,,,,4,0.4,47.17920128,0.22557274
WH,35,0,2024-06-14T05:46:03.105Z,english_192.wav,0,0,643,,,,,5,0.5,46.36925649,1.52280769
WH,35,0,2024-06-14T05:46:03.105Z,english_192.wav,0,0,643,,,,,6,0.6,34.98575102,0.97358447
WH,35,0,2024-06-14T05:46:03.105Z,english_192.wav,0,0,643,,,,,7,0.7,51.8668686,0.90127966
WH,35,0,2024-06-14T05:46:03.105Z,english_192.wav,0,0,643,,,,,8,0.8,-35.42178409,0.86874685
WH,35,0,2024-06-14T05:46:03.105Z,english_192.wav,0,0,643,,,,,9,0.9,-56.11776415,1.58446024
WH,35,0,2024-06-14T05:46:03.105Z,english_192.wav,0,0,643,,,,,10,1,-44.79305263,1.51736237
WH,35,0,2024-06-14T05:46:03.105Z,english_192.wav,0,0,643,,,,,11,1.09391667,37.72006641,0.71870831
WH,36,0,2024-06-14T05:46:03.105Z,english_832.wav,0,1,778,,,,,0,0,-88.58549248,0.22284511
WH,36,0,2024-06-14T05:46:03.105Z,english_832.wav,0,1,778,,,,,1,0.1,8.34347478,1.43554353
WH,36,0,2024-06-14T05:46:03.105Z,english_832.wav,0,1,778,,,,,2,0.2,-33.69240403,1.25168829
WH,36,0,2024-06-14T05:46:03.105Z,english_832.wav,0,1,778,,,,,3,0.3,-38.19874018,1.76549117
WH,36,0,2024-06-14T05:46:03.105Z,english_832.wav,0,1,778,,,,,4,0.4,69.91001741,0.48241117
WH,36,0,2024-06-14T05:46:03.105Z,english_832.wav,0,1,778,,,,,5,0.5,76.9560892,1.98484056
WH,36,0,2024-06-14T05:46:03.105Z,english_832.wav,0,1,778,,,,,6,0.6,32.91071569,0.38621033
WH,36,0,2024-06-14T05:46:03.105Z,english_832.wav,0,1,778,,,,,7,0.7,-13.39927827,0.77915885
WH,36,0,2024-06-14T05:46:03.105Z,english_832.wav,0,1,778,,,,,8,0.8,44.52631215,0.49939301
WH,36,0,2024-06-14T05:46:03.105Z,english_832.wav,0,1,778,,,,,9,0.9,45.29069076,1.70508711
WH,36,0,2024-06-14T05:46:03.105Z,english_832.wav,0,1,778,,,,,10,1,-68.4923338,1.07362721
WH,36,0,2024-06-14T05:46:03.105Z,english_832.wav,0,1,778,,,,,11,1.09391667,-25.64660407,1.64737721
WH,37,0,2024-06-14T05:46:03.105Z,english_85.wav,0,0,185,,,,,0,0,-6.14964992,0.56025081
WH,37,0,2024-06-14T05:46:03.105Z,english_85.wav,0,0,185,,,,,1,0.1,32.16339234,0.61514747
WH,37,0,2024-06-14T05:46:03.105Z,english_85.wav,0,0,185,,,,,2,0.2,-24.97067864,1.35990705
WH,37,0,2024-06-14T05:46:03.105Z,english_85.wav,0,0,185,,,,,3,0.3,89.32269375,1.86054319
WH,37,0,2024-06-14T05:46:03.105Z,english_85.wav,0,0,185,,,,,4,0.4,50.53908361,0.59713816
WH,37,0,2024-06-14T05:46:03.105Z,english_85.wav,0,0,185,,,,,5,0.5,40.43548113,0.3523201
WH,37,0,2024-06-14T05:46:03.105Z,english_85.wav,0,0,185,,,,,6,0.6,-51.5766196,0.98047294
WH,37,0,2024-06-14T05:46:03.105Z,english_85.wav,0,0,185,,,,,7,0.7,98.63406519,0.71363617
WH,37,0,2024-06-14T05:46:03.105Z,english_85.wav,0,0,185,,,,,8,0.8,15.90562432,1.19020527
WH,37,0,2024-06-14T05:46:03.105Z,english_85.wav,0,0,185,,,,,9,0.9,-42.65370164,0.91645954
WH,37,0,2024-06-14T05:46:03.105Z,english_85.wav,0,0,185,,,,,10,1,89.3078196,1.15839844
WH,37,0,2024-06-14T05:46:03.105Z,english_85.wav,0,0,185,,,,,11,1.09391667,-29.48451548,0.12488766
WH,38,0,2024-06-14T05:46:03.105Z,english_760.wav,0,1,258,,,,,0,0,47.27372451,1.90030816
WH,38,0,2024-06-14T05:46:03.105Z,english_760.wav,0,1,258,,,,,1,0.1,46.53530355,0.64747902
WH,38,0,2024-06-14T05:46:03.105Z,english_760.wav,0,1,258,,,,,2,0.2,-24.42746322,1.68645788
WH,38,0,2024-06-14T05:46:03.105Z,english_760.wav,0,1,258,,,,,3,0.3,-83.25481365,0.7717333
WH,38,0,2024-06-14T05:46:03.105Z,english_760.wav,0,1,258,,,,,4,0.4,-76.36732845,0.72158444
WH,38,0,2024-06-14T05:46:03.105Z,english_760.wav,0,1,258,,,,,5,0.5,49.65509994,1.63248564
WH,38,0,2024-06-14T05:46:03.105Z,english_760.wav,0,1,258,,,,,6,0.6,-0.21531061,0.67358777
WH,38,0,2024-06-14T05:46:03.105Z,english_760.wav,0,1,258,,,,,7,0.7,97.69744282,1.75458052
WH,38,0,2024-06-14T05:46:03.105Z,english_760.wav,0,1,258,,,,,8,0.8,-79.50455281,0.7766848
WH,38,0,2024-06-14T05:46:03.105Z,english_760.wav,0,1,258,,,,,9,0.9,-8.48709935,0.96559376
WH,38,0,2024-06-14T05:46:03.105Z,english_760.wav,0,1,258,,,,,10,1,-57.2440405,1.44704785
WH,38,0,2024-06-14T05:46:03.105Z,english_760.wav,0,1,258,,,,,11,1.09391667,-52.62348211,0.65092854
WH,39,0,2024-06-14T05:46:03.105Z,english_529.wav,0,1,1120,,,,,0,0,-75.44052411,0.27425441
WH,39,0,2024-06-14T05:46:03.105Z,english_529.wav,0,1,1120,,,,,1,0.1,73.68823703,1.79894556
WH,39,0,2024-06-14T05:46:03.105Z,english_529.wav,0,1,1120,,,,,2,0.2,35.88983091,1.38498362
WH,39,0,2024-06-14T05:46:03.105Z,english_529.wav,0,1,1120,,,,,3,0.3,74.9860534,1.12136542
WH,39,0,2024-06-14T05:46:03.105Z,english_529.wav,0,1,1120,,,,,4,0.4,39.79761308,0.69021564
WH,39,0,2024-06-14T05:46:03.105Z,english_529.wav,0,1,1120,,,,,5,0.5,87.56894365,1.32432139
WH,39,0,2024-06-14T05:46:03.105Z,english_529.wav,0,1,1120,,,,,6,0.6,-70.18354505,0.62496123
WH,39,0,2024-06-14T05:46:03.105Z,english_529.wav,0,1,1120,,,,,7,0.7,30.14757838,0.16694554
WH,39,0,2024-06-14T05:46:03.105Z,english_529.wav,0,1,1120,,,,,8,0.8,-85.67720686,1.72485798
WH,39,0,2024-06-14T05:46:03.105Z,english_529.wav,0,1,1120,,,,,9,0.9,-5.22909547,0.11317639
WH,39,0,2024-06-14T05:46:03.105Z,english_529.wav,0,1,1120,,,,,10,1,-29.17041088,1.97903266
WH,39,0,2024-06-14T05:46:03.105Z,english_529.wav,0,1,1120,,,,,11,1.09391667,91.40497623,0.92289832
WH,40,0,2024-06-14T05:46:03.105Z,english_548.wav,0,0,756,,,,,0,0,-24.88128465,1.63350405
WH,40,0,2024-06-14T05:46:03.105Z,english_548.wav,0,0,756,,,,,1,0.1,1.54687273,0.1653087
WH,40,0,2024-06-14T05:46:03.105Z,english_548.wav,0,0,756,,,,,2,0.2,58.02940435,0.01517729
WH,40,0,2024-06-14T05:46:03.105Z,english_548.wav,0,0,756,,,,,3,0.3,-2.90148727,1.81666457
WH,40,0,2024-06-14T05:46:03.105Z,english_548.wav,0,0,756,,,,,4,0.4,9.31686881,0.9208407
WH,40,0,2024-06-14T05:46:03.105Z,english_548.wav,0,0,756,,,,,5,0.5,-62.70026351,1.35074745
WH,40,0,2024-06-14T05:46:03.105Z,english_548.wav,0,0,756,,,,,6,0.6,-56.6580034,0.86467249
WH,40,0,2024-06-14T05:46:03.105Z,english_548.wav,0,0,756,,,,,7,0.7,14.62965286,1.73416909
WH,40,0,2024-06-14T05:46:03.105Z,english_548.wav,0,0,756,,,,,8,0.8,-14.87483285,1.42113571
WH,40,0,2024-06-14T05:46:03.105Z,english_548.wav,0,0,756,,,,,9,0.9,69.23683794,0.95555023
WH,40,0,2024-06-14T05:46:03.105Z,english_548.wav,0,0,756,,,,,10,1,-42.98683333,1.22888343
WH,40,0,2024-06-14T05:46:03.105Z,english_548.wav,0,0,756,,,,,11,1.09391667,67.19958302,1.18114311
WH,41,0,2024-06-14T05:46:03.105Z,english_676.wav,0,1,468,,,,,0,0,77.23951032,1.33259474
WH,41,0,2024-06-14T05:46:03.105Z,english_676.wav,0,1,468,,,,,1,0.1,27.47427545,0.90028372
WH,41,0,2024-06-14T05:46:03.105Z,english_676.wav,0,1,468,,,,,2,0.2,92.07370265,1.66717955
WH,41,0,2024-06-14T05:46:03.105Z,english_676.wav,0,1,468,,,,,3,0.3,-39.62602007,0.42158585
WH,41,0,2024-06-14T05:46:03.105Z,english_676.wav,0,1,468,,,,,4,0.4,-81.22107243,1.7878255
WH,41,0,2024-06-14T05:46:03.105Z,english_676.wav,0,1,468,,,,,5,0.5,-99.04707649,1.33780608
WH,41,0,2024-06-14T05:46:03.105Z,english_676.wav,0,1,468,,,,,6,0.6,-64.5180536,0.94548991
WH,41,0,2024-06-14T05:46:03.105Z,english_676.wav,0,1,468,,,,,7,0.7,91.29392748,1.43207041
WH,41,0,2024-06-14T05:46:03.105Z,english_676.wav,0,1,468,,,,,8,0.8,97.8635705,1.03085722
WH,41,0,2024-06-14T05:46:03.105Z,english_676.wav,0,1,468,,,,,9,0.9,-84.2423741,0.34895699
WH,41,0,2024-06-14T05:46:03.105Z,english_676.wav,0,1,468,,,,,10,1,-76.68596269,0.83720355
WH,41,0,2024-06-14T05:46:03.105Z,english_676.wav,0,1,468,,,,,11,1.09391667,65.10857552,1.31764415
WH,42,0,2024-06-14T05:46:03.105Z,english_992.wav,0,1,662,,,,,0,0,-5.15788791,0.02044401
WH,42,0,2024-06-14T05:46:03.105Z,english_992.wav,0,1,662,,,,,1,0.1,87.86739991,0.14748193
WH,42,0,2024-06-14T05:46:03.105Z,english_992.wav,0,1,662,,,,,2,0.2,-74.96538965,1.08794539
WH,42,0,2024-06-14T05:46:03.105Z,english_992.wav,0,1,662,,,,,3,0.3,51.5508712,1.90839795
WH,42,0,2024-06-14T05:46:03.105Z,english_992.wav,0,1,662,,,,,4,0.4,55.84577921,0.11098659
WH,42,0,2024-06-14T05:46:03.105Z,english_992.wav,0,1,662,,,,,5,0.5,-73.81356171,1.14044774
WH,42,0,2024-06-14T05:46:03.105Z,english_992.wav,0,1,662,,,,,6,0.6,-70.33946252,0.24836029
WH,42,0,2024-06-14T05:46:03.105Z,english_992.wav,0,1,662,,,,,7,0.7,-76.12910815,1.64559676
WH,42,0,2024-06-14T05:46:03.105Z,english_992.wav,0,1,662,,,,,8,0.8,-38.0545779,1.57501427
WH,42,0,2024-06-14T05:46:03.105Z,english_992.wav,0,1,662,,,,,9,0.9,-5.26509044,0.82338834
WH,42,0,2024-06-14T05:46:03.105Z,english_992.wav,0,1,662,,,,,10,1,33.43231637,0.44386037
WH,42,0,2024-06-14T05:46:03.105Z,english_992.wav,0,1,662,,,,,11,1.09391667,-37.46452433,0.70783957
WH,43,0,2024-06-14T05:46:03.105Z,english_740.wav,0,0,437,,,,,0,0,44.23615519,0.18420553
WH,43,0,2024-06-14T05:46:03.105Z,english_740.wav,0,0,437,,,,,1,0.1,98.76848798,0.33702749
WH,43,0,2024-06-14T05:46:03.105Z,english_740.wav,0,0,437,,,,,2,0.2,-87.19170744,1.65487116
WH,43,0,2024-06-14T05:46:03.105Z,english_740.wav,0,0,437,,,,,3,0.3,17.94684961,1.85046367
WH,43,0,2024-06-14T05:46:03.105Z,english_740.wav,0,0,437,,,,,4,0.4,-12.45304931,1.41062797
WH,43,0,2024-06-14T05:46:03.105Z,english_740.wav,0,0,437,,,,,5,0.5,-75.39454761,0.63278533
WH,43,0,2024-06-14T05:46:03.105Z,english_740.wav,0,0,437,,,,,6,0.6,-53.40311478,0.41831459
WH,43,0,2024-06-14T05:46:03.105Z,english_740.wav,0,0,437,,,,,7,0.7,-59.89405571,0.99199332
WH,43,0,2024-06-14T05:46:03.105Z,english_740.wav,0,0,437,,,,,8,0.8,75.23070465,1.19341016
WH,43,0,2024-06-14T05:46:03.105Z,english_740.wav,0,0,437,,,,,9,0.9,-2.56343276,1.12149102
WH,43,0,2024-06-14T05:46:03.105Z,english_740.wav,0,0,437,,,,,10,1,-6.86096821,0.55698581
WH,43,0,2024-06-14T05:46:03.105Z,english_740.wav,0,0,437,,,,,11,1.09391667,-15.16975803,1.3020905
WH,44,0,2024-06-14T05:46:03.105Z,english_116.wav,0,1,867,,,,,0,0,-9.55497422,1.40906913
WH,44,0,2024-06-14T05:46:03.105Z,english_116.wav,0,1,867,,,,,1,0.1,49.93536879,1.01406047
WH,44,0,2024-06-14T05:46:03.105Z,english_116.wav,0,1,867,,,,,2,0.2,-79.25579082,0.11711084
WH,44,0,2024-06-14T05:46:03.105Z,english_116.wav,0,1,867,,,,,3,0.3,-36.23152563,0.60671403
WH,44,0,2024-06-14T05:46:03.105Z,english_116.wav,0,1,867,,,,,4,0.4,-13.54411706,0.84673882
WH,44,0,2024-06-14T05:46:03.105Z,english_116.wav,0,1,867,,,,,5,0.5,94.79003248,0.4711221
WH,44,0,2024-06-14T05:46:03.105Z,english_116.wav,0,1,867,,,,,6,0.6,82.07262677,0.05184022
WH,44,0,2024-06-14T05:46:03.105Z,english_116.wav,0,1,867,,,,,7,0.7,34.20482138,0.25033894
WH,44,0,2024-06-14T05:46:03.105Z,english_116.wav,0,1,867,,,,,8,0.8,-57.39554956,0.57212798
WH,44,0,2024-06-14T05:46:03.105Z,english_116.wav,0,1,867,,,,,9,0.9,74.8891327,0.83139931
WH,44,0,2024-06-14T05:46:03.105Z,english_116.wav,0,1,867,,,,,10,1,25.67722271,0.9159615
WH,44,0,2024-06-14T05:46:03.105Z,english_116.wav,0,1,867,,,,,11,1.09391667,39.70859054,1.32229157
WH,45,0,2024-06-14T05:46:03.105Z,english_216.wav,0,1,630,,,,,0,0,-40.27379603,1.31885312
WH,45,0,2024-06-14T05:46:03.105Z,english_216.wav,0,1,630,,,,,1,0.1,-9.47472605,1.52413536
WH,45,0,2024-06-14T05:46:03.105Z,english_216.wav,0,1,630,,,,,2,0.2,10.83044308,0.3375517
WH,45,0,2024-06-14T05:46:03.105Z,english_216.wav,0,1,630,,,,,3,0.3,-73.80571365,0.67857864
WH,45,0,2024-06-14T05:46:03.105Z,english_216.wav,0,1,630,,,,,4,0.4,41.89217051,0.9344087
WH,45,0,2024-06-14T05:46:03.105Z,english_216.wav,0,1,630,,,,,5,0.5,-33.36366466,0.89775046
WH,45,0,2024-06-14T05:46:03.105Z,english_216.wav,0,1,630,,,,,6,0.6,-97.24072999,0.74652634
WH,45,0,2024-06-14T05:46:03.105Z,english_216.wav,0,1,630,,,,,7,0.7,-3.36916359,0.00621512
WH,45,0,2024-06-14T05:46:03.105Z,english_216.wav,0,1,630,,,,,8,0.8,-1.27566838,0.72729094
WH,45,0,2024-06-14T05:46:03.105Z,english_216.wav,0,1,630,,,,,9,0.9,29.4346129,1.23180128
WH,45,0,2024-06-14T05:46:03.105Z,english_216.wav,0,1,630,,,,,10,1,96.31719875,0.44193416
WH,45,0,2024-06-14T05:46:03.105Z,english_216.wav,0,1,630,,,,,11,1.09391667,90.69441865,0.08230135
WH,46,0,2024-06-14T05:46:03.105Z,english_816.wav,0,1,765,,,,,0,0,-17.35587933,1.80713615
WH,46,0,2024-06-14T05:46:03.105Z,english_816.wav,0,1,765,,,,,1,0.1,0.95768859,0.65818518
WH,46,0,2024-06-14T05:46:03.105Z,english_816.wav,0,1,765,,,,,2,0.2,47.37608494,0.13743933
WH,46,0,2024-06-14T05:46:03.105Z,english_816.wav,0,1,765,,,,,3,0.3,-29.30928245,0.63156649
WH,46,0,2024-06-14T05:46:03.105Z,english_816.wav,0,1,765,,,,,4,0.4,0.3886714,0.74841843
WH,46,0,2024-06-14T05:46:03.105Z,english_816.wav,0,1,765,,,,,5,0.5,11.78751261,1.47868634
WH,46,0,2024-06-14T05:46:03.105Z,english_816.wav,0,1,765,,,,,6,0.6,-3.17696206,1.19861887
WH,46,0,2024-06-14T05:46:03.105Z,english_816.wav,0,1,765,,,,,7,0.7,-19.53944189,0.27488431
WH,46,0,2024-06-14T05:46:03.105Z,english_816.wav,0,1,765,,,,,8,0.8,-7.70582249,0.84423799
WH,46,0,2024-06-14T05:46:03.105Z,english_816.wav,0,1,765,,,,,9,0.9,-20.54964166,0.77450003
WH,46,0,2024-06-14T05:46:03.105Z,english_816.wav,0,1,765,,,,,10,1,-60.75740285,1.95248665
WH,46,0,2024-06-14T05:46:03.105Z,english_816.wav,0,1,765,,,,,11,1.09391667,-12.71558958,0.720403
WH,47,0,2024-06-14T05:46:03.105Z,english_274.wav,0,1,1112,,,,,0,0,90.15852298,1.09879686
WH,47,0,2024-06-14T05:46:03.105Z,english_274.wav,0,1,1112,,,,,1,0.1,54.46178194,1.93033732
WH,47,0,2024-06-14T05:46:03.105Z,english_274.wav,0,1,1112,,,,,2,0.2,92.29787974,1.35119606
WH,47,0,2024-06-14T05:46:03.105Z,english_274.wav,0,1,1112,,,,,3,0.3,56.79856413,1.49147937
WH,47,0,2024-06-14T05:46:03.105Z,english_274.wav,0,1,1112,,,,,4,0.4,6.80655331,1.75081802
WH,47,0,2024-06-14T05:46:03.105Z,english_274.wav,0,1,1112,,,,,5,0.5,85.98039627,0.26277184
WH,47,0,2024-06-14T05:46:03.105Z,english_274.wav,0,1,1112,,,,,6,0.6,79.54748497,1.06227003
WH,47,0,2024-06-14T05:46:03.105Z,english_274.wav,0,1,1112,,,,,7,0.7,-50.26158779,0.06438964
WH,47,0,2024-06-14T05:46:03.105Z,english_274.wav,0,1,1112,,,,,8,0.8,46.33910856,0.88741243
WH,47,0,2024-06-14T05:46:03.105Z,english_274.wav,0,1,1112,,,,,9,0.9,-52.2237302,0.12141514
WH,47,0,2024-06-14T05:46:03.105Z,english_274.wav,0,1,1112,,,,,10,1,14.53688649,1.07853955
WH,47,0,2024-06-14T05:46:03.105Z,english_274.wav,0,1,1112,,,,,11,1.09391667,26.74527789,0.24561082
WH,48,0,2024-06-14T05:46:03.105Z,english_260.wav,0,0,813,,,,,0,0,15.97763116,1.94177241
WH,48,0,2024-06-14T05:46:03.105Z,english_260.wav,0,0,813,,,,,1,0.1,-13.3847134,0.74015027
WH,48,0,2024-06-14T05:46:03.105Z,english_260.wav,0,0,813,,,,,2,0.2,-29.63675022,0.26772348
WH,48,0,2024-06-14T05:46:03.105Z,english_260.wav,0,0,813,,,,,3,0.3,-94.12252117,0.24482628
WH,48,0,2024-06-14T05:46:03.105Z,english_260.wav,0,0,813,,,,,4,0.4,37.44404644,0.73676391
WH,48,0,2024-06-14T05:46:03.105Z,english_260.wav,0,0,813,,,,,5,0.5,-13.47562993,0.3869803
WH,48,0,2024-06-14T05:46:03.105Z,english_260.wav,0,0,813,,,,,6,0.6,28.72077468,0.62582606
WH,48,0,2024-06-14T05:46:03.105Z,english_260.wav,0,0,813,,,,,7,0.7,-25.31213713,0.50244213
WH,48,0,2024-06-14T05:46:03.105Z,english_260.wav,0,0,813,,,,,8,0.8,12.33791488,0.1260874
WH,48,0,2024-06-14T05:46:03.105Z,english_260.wav,0,0,813,,,,,9,0.9,1.56732473,0.8031848
WH,48,0,2024-06-14T05:46:03.105Z,english_260.wav,0,0,813,,,,,10,1,-29.87361041,1.5387452
WH,48,0,2024-06-14T05:46:03.105Z,english_260.wav,0,0,813,,,,,11,1.09391667,9.56042619,0.69389389
WH,49,0,2024-06-14T05:46:03.105Z,english_180.wav,0,1,674,,,,,0,0,42.85478744,0.49645543
WH,49,0,2024-06-14T05:46:03.105Z,english_180.wav,0,1,674,,,,,1,0.1,11.60642133,1.40377655
WH,49,0,2024-06-14T05:46:03.105Z,english_180.wav,0,1,674,,,,,2,0.2,-27.38772625,0.70453688
WH,49,0,2024-06-14T05:46:03.105Z,english_180.wav,0,1,674,,,,,3,0.3,80.41560742,1.01697082
WH,49,0,2024-06-14T05:46:03.105Z,english_180.wav,0,1,674,,,,,4,0.4,-67.11843031,0.59692665
WH,49,0,2024-06-14T05:46:03.105Z,english_180.wav,0,1,674,,,,,5,0.5,25.47679572,0.43242047
WH,49,0,2024-06-14T05:46:03.105Z,english_180.wav,0,1,674,,,,,6,0.6,29.48556379,0.65503898
WH,49,0,2024-06-14T05:46:03.105Z,english_180.wav,0,1,674,,,,,7,0.7,-62.53851543,1.14916488
WH,49,0,2024-06-14T05:46:03.105Z,english_180.wav,0,1,674,,,,,8,0.8,-49.48041885,0.12826618
WH,49,0,2024-06-14T05:46:03.105Z,english_180.wav,0,1,674,,,,,9,0.9,29.80835172,1.82068044
WH,49,0,2024-06-14T05:46:03.105Z,english_180.wav,0,1,674,,,,,10,1,83.85336689,1.93281092
WH,49,0,2024-06-14T05:46:03.105Z,english_180.wav,0,1,674,,,,,11,1.09391667,-22.17498974,1.38105191
WH,50,1,2024-06-14T05:46:03.105Z,english_491.wav,0,1,875,,,,,0,0,-86.04728356,0.47614904
WH,50,1,2024-06-14T05:46:03.105Z,english_491.wav,0,1,875,,,,,1,0.1,-65.88451303,0.55089812
WH,50,1,2024-06-14T05:46:03.105Z,english_491.wav,0,1,875,,,,,2,0.2,-80.48711576,1.1167033
WH,50,1,2024-06-14T05:46:03.105Z,english_491.wav,0,1,875,,,,,3,0.3,-14.20773903,1.47203435
WH,50,1,2024-06-14T05:46:03.105Z,english_491.wav,0,1,875,,,,,4,0.4,8.14780759,1.34464479
WH,50,1,2024-06-14T05:46:03.105Z,english_491.wav,0,1,875,,,,,5,0.5,-64.09571567,1.15432427
WH,50,1,2024-06-14T05:46:03.105Z,english_491.wav,0,1,875,,,,,6,0.6,54.51757577,1.10816548
WH,50,1,2024-06-14T05:46:03.105Z,english_491.wav,0,1,875,,,,,7,0.7,44.38602798,0.53599429
WH,50,1,2024-06-14T05:46:03.105Z,english_491.wav,0,1,875,,,,,8,0.8,-1.2376907,1.13980754
WH,50,1,2024-06-14T05:46:03.105Z,english_491.wav,0,1,875,,,,,9,0.9,77.13121924,0.89300384
WH,50,1,2024-06-14T05:46:03.105Z,english_491.wav,0,1,875,,,,,10,1,-14.590686,0.5502855
WH,50,1,2024-06-14T05:46:03.105Z,english_491.wav,0,1,875,,,,,11,1.09391667,68.41813951,1.59909439
WH,51,1,2024-06-14T05:46:03.105Z,english_193.wav,0,1,505,,,,,0,0,-79.19298438,1.8278475
WH,51,1,2024-06-14T05:46:03.105Z,english_193.wav,0,1,505,,,,,1,0.1,83.18398782,1.66141822
WH,51,1,2024-06-14T05:46:03.105Z,english_193.wav,0,1,505,,,,,2,0.2,41.62817707,0.29384933
WH,51,1,2024-06-14T05:46:03.105Z,english_193.wav,0,1,505,,,,,3,0.3,-63.57509965,0.14342966
WH,51,1,2024-06-14T05:46:03.105Z,english_193.wav,0,1,505,,,,,4,0.4,84.76628996,1.0428664
WH,51,1,2024-06-14T05:46:03.105Z,english_193.wav,0,1,505,,,,,5,0.5,10.12738943,1.69229155
WH,51,1,2024-06-14T05:46:03.105Z,english_193.wav,0,1,505,,,,,6,0.6,-37.32432508,0.16574738
WH,51,1,2024-06-14T05:46:03.105Z,english_193.wav,0,1,505,,,,,7,0.7,4.93485207,1.7490427
WH,51,1,2024-06-14T05:46:03.105Z,english_193.wav,0,1,505,,,,,8,0.8,34.87911105,0.62073431
WH,51,1,2024-06-14T05:46:03.105Z,english_193.wav,0,1,505,,,,,9,0.9,-39.85363935,0.72815791
WH,51,1,2024-06-14T05:46:03.105Z,english_193.wav,0,1,505,,,,,10,1,34.81523129,1.27219327
WH,51,1,2024-06-14T05:46:03.105Z,english_193.wav,0,1,505,,,,,11,1.09391667,72.77087749,1.22929628
WH,52,1,2024-06-14T05:46:03.105Z,english_756.wav,0,0,416,,,,,0,0,-32.70542045,0.92316539
WH,52,1,2024-06-14T05:46:03.105Z,english_756.wav,0,0,416,,,,,1,0.1,62.91454888,0.37547917
WH,52,1,2024-06-14T05:46:03.105Z,english_756.wav,0,0,416,,,,,2,0.2,-9.17678833,1.92598223
WH,52,1,2024-06-14T05:46:03.105Z,english_756.wav,0,0,416,,,,,3,0.3,16.28624283,0.89010875
WH,52,1,2024-06-14T05:46:03.105Z,english_756.wav,0,0,416,,,,,4,0.4,-33.51792534,0.38662098
WH,52,1,2024-06-14T05:46:03.105Z,english_756.wav,0,0,416,,,,,5,0.5,88.01648813,1.17672662
WH,52,1,2024-06-14T05:46:03.105Z,english_756.wav,0,0,416,,,,,6,0.6,62.37064714,0.21957896
WH,52,1,2024-06-14T05:46:03.105Z,english_756.wav,0,0,416,,,,,7,0.7,-52.3683359,1.78953747
WH,52,1,2024-06-14T05:46:03.105Z,english_756.wav,0,0,416,,,,,8,0.8,56.37360277,1.89812903
WH,52,1,2024-06-14T05:46:03.105Z,english_756.wav,0,0,416,,,,,9,0.9,-54.86484941,1.43873799
WH,52,1,2024-06-14T05:46:03.105Z,english_756.wav,0,0,416,,,,,10,1,91.23924333,1.51351367
WH,52,1,2024-06-14T05:46:03.105Z,english_756.wav,0,0,416,,,,,11,1.09391667,-26.61223969,1.73327561
WH,53,1,2024-06-14T05:46:03.105Z,english_196.wav,0,1,382,,,,,0,0,2.02767746,0.52488194
WH,53,1,2024-06-14T05:46:03.105Z,english_196.wav,0,1,382,,,,,1,0.1,-33.8864136,0.07938129
WH,53,1,2024-06-14T05:46:03.105Z,english_196.wav,0,1,382,,,,,2,0.2,22.2108892,1.27880301
WH,53,1,2024-06-14T05:46:03.105Z,english_196.wav,0,1,382,,,,,3,0.3,26.8443858,0.8345871
WH,53,1,2024-06-14T05:46:03.105Z,english_196.wav,0,1,382,,,,,4,0.4,54.5751314,1.20448566
WH,53,1,2024-06-14T05:46:03.105Z,english_196.wav,0,1,382,,,,,5,0.5,17.7209079,1.38294306
WH,53,1,2024-06-14T05:46:03.105Z,english_196.wav,0,1,382,,,,,6,0.6,46.4311721,1.20996935
WH,53,1,2024-06-14T05:46:03.105Z,english_196.wav,0,1,382,,,,,7,0.7,74.3025548,0.87104857
WH,53,1,2024-06-14T05:46:03.105Z,english_196.wav,0,1,382,,,,,8,0.8,24.2178378,0.98676135
WH,53,1,2024-06-14T05:46:03.105Z,english_196.wav,0,1,382,,,,,9,0.9,-0.0117232829,0.71720025
WH,53,1,2024-06-14T05:46:03.105Z,english_196.wav,0,1,382,,,,,10,1,-55.3381983,1.3134078
WH,53,1,2024-06-14T05:46:03.105Z,english_196.wav,0,1,382,,,,,11,1.09391667,-51.2005151,0.6531164
WH,54,1,2024-06-14T05:46:03.105Z,english_735.wav,0,1,233,,,,,0,0,45.17443614,1.05701846
WH,54,1,2024-06-14T05:46:03.105Z,english_735.wav,0,1,233,,,,,1,0.1,47.16225486,0.44895522
WH,54,1,2024-06-14T05:46:03.105Z,english_735.wav,0,1,233,,,,,2,0.2,15.3532987,0.19506386
WH,54,1,2024-06-14T05:46:03.105Z,english_735.wav,0,1,233,,,,,3,0.3,-43.81061568,0.99480529
WH,54,1,2024-06-14T05:46:03.105Z,english_735.wav,0,1,233,,,,,4,0.4,83.17284614,0.46252356
WH,54,1,2024-06-14T05:46:03.105Z,english_735.wav,0,1,233,,,,,5,0.5,60.7769414,1.45908064
WH,54,1,2024-06-14T05:46:03.105Z,english_735.wav,0,1,233,,,,,6,0.6,-66.30411683,0.86428301
WH,54,1,2024-06-14T05:46:03.105Z,english_735.wav,0,1,233,,,,,7,0.7,76.89695455,1.14188193
WH,54,1,2024-06-14T05:46:03.105Z,english_735.wav,0,1,233,,,,,8,0.8,67.53178197,1.15486393
WH,54,1,2024-06-14T05:46:03.105Z,english_735.wav,0,1,233,,,,,9,0.9,52.8137554,1.55511006
WH,54,1,2024-06-14T05:46:03.105Z,english_735.wav,0,1,233,,,,,10,1,-86.58423276,0.92101672
WH,54,1,2024-06-14T05:46:03.105Z,english_735.wav,0,1,233,,,,,11,1.09391667,98.32439456,1.0777974
WH,55,1,2024-06-14T05:46:03.105Z,english_443.wav,0,0,946,,,,,0,0,81.96165797,0.75557645
WH,55,1,2024-06-14T05:46:03.105Z,english_443.wav,0,0,946,,,,,1,0.1,-28.05483683,1.24238721
WH,55,1,2024-06-14T05:46:03.105Z,english_443.wav,0,0,946,,,,,2,0.2,-21.59346314,1.29479034
WH,55,1,2024-06-14T05:46:03.105Z,english_443.wav,0,0,946,,,,,3,0.3,1.08429848,1.78084003
WH,55,1,2024-06-14T05:46:03.105Z,english_443.wav,0,0,946,,,,,4,0.4,21.43423257,0.20990132
WH,55,1,2024-06-14T05:46:03.105Z,english_443.wav,0,0,946,,,,,5,0.5,75.67535371,0.69063729
WH,55,1,2024-06-14T05:46:03.105Z,english_443.wav,0,0,946,,,,,6,0.6,-12.42326874,1.52523801
WH,55,1,2024-06-14T05:46:03.105Z,english_443.wav,0,0,946,,,,,7,0.7,-43.03784954,1.69469222
WH,55,1,2024-06-14T05:46:03.105Z,english_443.wav,0,0,946,,,,,8,0.8,-95.88108409,1.5231422
WH,55,1,2024-06-14T05:46:03.105Z,english_443.wav,0,0,946,,,,,9,0.9,5.88501358,0.01978813
WH,55,1,2024-06-14T05:46:03.105Z,english_443.wav,0,0,946,,,,,10,1,-74.23415878,0.32318558
WH,55,1,2024-06-14T05:46:03.105Z,english_443.wav,0,0,946,,,,,11,1.09391667,-13.77398798,1.99092699
WH,56,1,2024-06-14T05:46:03.105Z,english_57.wav,0,1,292,,,,,0,0,69.92924321,1.37399784
WH,56,1,2024-06-14T05:46:03.105Z,english_57.wav,0,1,292,,,,,1,0.1,50.83595835,1.30125162
WH,56,1,2024-06-14T05:46:03.105Z,english_57.wav,0,1,292,,,,,2,0.2,72.89041726,0.76532722
WH,56,1,2024-06-14T05:46:03.105Z,english_57.wav,0,1,292,,,,,3,0.3,-25.50577281,0.08256356
WH,56,1,2024-06-14T05:46:03.105Z,english_57.wav,0,1,292,,,,,4,0.4,-12.89341009,1.10396563
WH,56,1,2024-06-14T05:46:03.105Z,english_57.wav,0,1,292,,,,,5,0.5,-24.95937253,1.0000289
WH,56,1,2024-06-14T05:46:03.105Z,english_57.wav,0,1,292,,,,,6,0.6,64.68704807,0.6504756
WH,56,1,2024-06-14T05:46:03.105Z,english_57.wav,0,1,292,,,,,7,0.7,26.76917617,1.09615913
WH,56,1,2024-06-14T05:46:03.105Z,english_57.wav,0,1,292,,,,,8,0.8,-85.40894658,0.70411597
WH,56,1,2024-06-14T05:46:03.105Z,english_57.wav,0,1,292,,,,,9,0.9,-86.04927125,0.54802277
WH,56,1,2024-06-14T05:46:03.105Z,english_57.wav,0,1,292,,,,,10,1,86.88641586,1.43991022
WH,56,1,2024-06-14T05:46:03.105Z,english_57.wav,0,1,292,,,,,11,1.09391667,-99.07725694,1.41890007
WH,57,1,2024-06-14T05:46:03.105Z,english_40.wav,0,1,461,,,,,0,0,48.02478729,1.95808972
WH,57,1,2024-06-14T05:46:03.105Z,english_40.wav,0,1,461,,,,,1,0.1,-63.01746301,0.59596382
WH,57,1,2024-06-14T05:46:03.105Z,english_40.wav,0,1,461,,,,,2,0.2,99.88373943,1.52240022
WH,57,1,2024-06-14T05:46:03.105Z,english_40.wav,0,1,461,,,,,3,0.3,-35.62748252,1.96915834
WH,57,1,2024-06-14T05:46:03.105Z,english_40.wav,0,1,461,,,,,4,0.4,22.54548674,0.95314863
WH,57,1,2024-06-14T05:46:03.105Z,english_40.wav,0,1,461,,,,,5,0.5,64.17300345,0.51463989
WH,57,1,2024-06-14T05:46:03.105Z,english_40.wav,0,1,461,,,,,6,0.6,-98.43334374,0.71558666
WH,57,1,2024-06-14T05:46:03.105Z,english_40.wav,0,1,461,,,,,7,0.7,-29.30341943,1.3085379
WH,57,1,2024-06-14T05:46:03.105Z,english_40.wav,0,1,461,,,,,8,0.8,-86.78861614,0.72652205
WH,57,1,2024-06-14T05:46:03.105Z,english_40.wav,0,1,461,,,,,9,0.9,-30.45625268,0.70559874
WH,57,1,2024-06-14T05:46:03.105Z,english_40.wav,0,1,461,,,,,10,1,-71.34202466,1.16093561
WH,57,1,2024-06-14T05:46:03.105Z,english_40.wav,0,1,461,,,,,11,1.09391667,-99.87345526,1.23446985
WH,58,1,2024-06-14T05:46:03.105Z,english_269.wav,0,1,503,,,,,0,0,-83.93501444,0.85151873
WH,58,1,2024-06-14T05:46:03.105Z,english_269.wav,0,1,503,,,,,1,0.1,88.09879619,0.93284173
WH,58,1,2024-06-14T05:46:03.105Z,english_269.wav,0,1,503,,,,,2,0.2,-88.94573115,0.56585091
WH,58,1,2024-06-14T05:46:03.105Z,english_269.wav,0,1,503,,,,,3,0.3,-19.78587184,1.66708848
WH,58,1,2024-06-14T05:46:03.105Z,english_269.wav,0,1,503,,,,,4,0.4,69.53650184,0.92160414
WH,58,1,2024-06-14T05:46:03.105Z,english_269.wav,0,1,503,,,,,5,0.5,-12.80260332,0.96478354
WH,58,1,2024-06-14T05:46:03.105Z,english_269.wav,0,1,503,,,,,6,0.6,37.86483682,0.12392918
WH,58,1,2024-06-14T05:46:03.105Z,english_269.wav,0,1,503,,,,,7,0.7,20.748183,0.94784748
WH,58,1,2024-06-14T05:46:03.105Z,english_269.wav,0,1,503,,,,,8,0.8,68.31338511,0.83939678
WH,58,1,2024-06-14T05:46:03.105Z,english_269.wav,0,1,503,,,,,9,0.9,-95.26136032,1.67634699
WH,58,1,2024-06-14T05:46:03.105Z,english_269.wav,0,1,503,,,,,10,1,60.98745535,1.66934281
WH,58,1,2024-06-14T05:46:03.105Z,english_269.wav,0,1,503,,,,,11,1.09391667,-4.34526385,1.1076262
WH,59,1,2024-06-14T05:46:03.105Z,english_86.wav,0,1,739,,,,,0,0,-3.72553925,0.66197281
WH,59,1,2024-06-14T05:46:03.105Z,english_86.wav,0,1,739,,,,,1,0.1,-41.77635103,0.38892539
WH,59,1,2024-06-14T05:46:03.105Z,english_86.wav,0,1,739,,,,,2,0.2,-64.64581593,1.26355648
WH,59,1,2024-06-14T05:46:03.105Z,english_86.wav,0,1,739,,,,,3,0.3,-0.78514906,0.34485331
WH,59,1,2024-06-14T05:46:03.105Z,english_86.wav,0,1,739,,,,,4,0.4,-70.50997039,0.98807129
WH,59,1,2024-06-14T05:46:03.105Z,english_86.wav,0,1,739,,,,,5,0.5,-34.81986123,0.56904936
WH,59,1,2024-06-14T05:46:03.105Z,english_86.wav,0,1,739,,,,,6,0.6,-59.46042522,0.23018048
WH,59,1,2024-06-14T05:46:03.105Z,english_86.wav,0,1,739,,,,,7,0.7,29.81407596,1.60610688
WH,59,1,2024-06-14T05:46:03.105Z,english_86.wav,0,1,739,,,,,8,0.8,-52.11647052,1.58476743
WH,59,1,2024-06-14T05:46:03.105Z,english_86.wav,0,1,739,,,,,9,0.9,98.4622519,0.26441475
WH,59,1,2024-06-14T05:46:03.105Z,english_86.wav,0,1,739,,,,,10,1,58.6455937,0.54392284
WH,59,1,2024-06-14T05:46:03.105Z,english_86.wav,0,1,739,,,,,11,1.09391667,89.20517371,0.04911314
WH,60,1,2024-06-14T05:46:03.105Z,english_959.wav,0,1,390,,,,,0,0,-72.11702721,0.58402208
WH,60,1,2024-06-14T05:46:03.105Z,english_959.wav,0,1,390,,,,,1,0.1,-40.70802273,1.62475599
WH,60,1,2024-06-14T05:46:03.105Z,english_959.wav,0,1,390,,,,,2,0.2,87.64553822,1.65188883
WH,60,1,2024-06-14T05:46:03.105Z,english_959.wav,0,1,390,,,,,3,0.3,-48.2331893,0.55484279
WH,60,1,2024-06-14T05:46:03.105Z,english_959.wav,0,1,390,,,,,4,0.4,-95.5440406,0.6061604
WH,60,1,2024-06-14T05:46:03.105Z,english_959.wav,0,1,390,,,,,5,0.5,59.94111347,1.49451004
WH,60,1,2024-06-14T05:46:03.105Z,english_959.wav,0,1,390,,,,,6,0.6,91.02979874,0.05914992
WH,60,1,2024-06-14T05:46:03.105Z,english_959.wav,0,1,390,,,,,7,0.7,19.11555726,1.4845686
WH,60,1,2024-06-14T05:46:03.105Z,english_959.wav,0,1,390,,,,,8,0.8,75.67996803,1.97323442
WH,60,1,2024-06-14T05:46:03.105Z,english_959.wav,0,1,390,,,,,9,0.9,92.01217726,0.84762709
WH,60,1,2024-06-14T05:46:03.105Z,english_959.wav,0,1,390,,,,,10,1,-10.30028839,0.74785562
WH,60,1,2024-06-14T05:46:03.105Z,english_959.wav,0,1,390,,,,,11,1.09391667,-99.09748483,1.91422779
WH,61,1,2024-06-14T05:46:03.105Z,english_947.wav,0,1,890,,,,,0,0,30.31601864,1.90953585
WH,61,1,2024-06-14T05:46:03.105Z,english_947.wav,0,1,890,,,,,1,0.1,-75.95641423,1.97785982
WH,61,1,2024-06-14T05:46:03.105Z,english_947.wav,0,1,890,,,,,2,0.2,54.94521645,0.82379025
WH,61,1,2024-06-14T05:46:03.105Z,english_947.wav,0,1,890,,,,,3,0.3,26.24562162,0.15379293
WH,61,1,2024-06-14T05:46:03.105Z,english_947.wav,0,1,890,,,,,4,0.4,54.40237068,1.01827888
WH,61,1,2024-06-14T05:46:03.105Z,english_947.wav,0,1,890,,,,,5,0.5,40.82679184,1.47839937
WH,61,1,2024-06-14T05:46:03.105Z,english_947.wav,0,1,890,,,,,6,0.6,77.31299723,1.20847868
WH,61,1,2024-06-14T05:46:03.105Z,english_947.wav,0,1,890,,,,,7,0.7,1.15315344,0.14564675
WH,61,1,2024-06-14T05:46:03.105Z,english_947.wav,0,1,890,,,,,8,0.8,73.19645095,0.87070751
WH,61,1,2024-06-14T05:46:03.105Z,english_947.wav,0,1,890,,,,,9,0.9,6.20643858,0.13653501
WH,61,1,2024-06-14T05:46:03.105Z,english_947.wav,0,1,890,,,,,10,1,28.66234598,0.34449422
WH,61,1,2024-06-14T05:46:03.105Z,english_947.wav,0,1,890,,,,,11,1.09391667,7.34981137,1.34190112
WH,62,1,2024-06-14T05:46:03.105Z,english_975.wav,0,1,739,,,,,0,0,-53.40155937,0.28931867
WH,62,1,2024-06-14T05:46:03.105Z,english_975.wav,0,1,739,,,,,1,0.1,-46.7591449,0.26014098
WH,62,1,2024-06-14T05:46:03.105Z,english_975.wav,0,1,739,,,,,2,0.2,-39.94858347,0.60863929
WH,62,1,2024-06-14T05:46:03.105Z,english_975.wav,0,1,739,,,,,3,0.3,4.12816175,1.96061536
WH,62,1,2024-06-14T05:46:03.105Z,english_975.wav,0,1,739,,,,,4,0.4,83.44282051,0.74428813
WH,62,1,2024-06-14T05:46:03.105Z,english_975.wav,0,1,739,,,,,5,0.5,20.33193784,1.01644474
WH,62,1,2024-06-14T05:46:03.105Z,english_975.wav,0,1,739,,,,,6,0.6,-92.84690604,0.21290726
WH,62,1,2024-06-14T05:46:03.105Z,english_975.wav,0,1,739,,,,,7,0.7,69.62119896,0.78909982
WH,62,1,2024-06-14T05:46:03.105Z,english_975.wav,0,1,739,,,,,8,0.8,-27.30637844,1.61436772
WH,62,1,2024-06-14T05:46:03.105Z,english_975.wav,0,1,739,,,,,9,0.9,71.11664605,0.92754286
WH,62,1,2024-06-14T05:46:03.105Z,english_975.wav,0,1,739,,,,,10,1,-25.28708081,1.92956557
WH,62,1,2024-06-14T05:46:03.105Z,english_975.wav,0,1,739,,,,,11,1.09391667,-18.06651804,1.66494484
WH,63,1,2024-06-14T05:46:03.105Z,english_78.wav,0,1,908,,,,,0,0,42.39797886,1.50616235
WH,63,1,2024-06-14T05:46:03.105Z,english_78.wav,0,1,908,,,,,1,0.1,-36.07857938,0.54303847
WH,63,1,2024-06-14T05:46:03.105Z,english_78.wav,0,1,908,,,,,2,0.2,-66.49689514,0.95347503
WH,63,1,2024-06-14T05:46:03.105Z,english_78.wav,0,1,908,,,,,3,0.3,52.41013344,1.62003629
WH,63,1,2024-06-14T05:46:03.105Z,english_78.wav,0,1,908,,,,,4,0.4,60.05478812,1.61647939
WH,63,1,2024-06-14T05:46:03.105Z,english_78.wav,0,1,908,,,,,5,0.5,-4.62250103,0.17410512
WH,63,1,2024-06-14T05:46:03.105Z,english_78.wav,0,1,908,,,,,6,0.6,-80.28349147,0.43268803
WH,63,1,2024-06-14T05:46:03.105Z,english_78.wav,0,1,908,,,,,7,0.7,83.57222547,0.08104601
WH,63,1,2024-06-14T05:46:03.105Z,english_78.wav,0,1,908,,,,,8,0.8,7.4922518,1.61489209
WH,63,1,2024-06-14T05:46:03.105Z,english_78.wav,0,1,908,,,,,9,0.9,-18.57317231,0.08012208
WH,63,1,2024-06-14T05:46:03.105Z,english_78.wav,0,1,908,,,,,10,1,-60.66079691,0.76901301
WH,63,1,2024-06-14T05:46:03.105Z,english_78.wav,0,1,908,,,,,11,1.09391667,37.22949989,1.86046092
WH,64,1,2024-06-14T05:46:03.105Z,english_351.wav,0,1,1431,,,,,0,0,-19.65986015,1.42460204
WH,64,1,2024-06-14T05:46:03.105Z,english_351.wav,0,1,1431,,,,,1,0.1,73.58710044,0.00643347
WH,64,1,2024-06-14T05:46:03.105Z,english_351.wav,0,1,1431,,,,,2,0.2,74.12275499,0.97495265
WH,64,1,2024-06-14T05:46:03.105Z,english_351.wav,0,1,1431,,,,,3,0.3,-24.45683786,0.52137616
WH,64,1,2024-06-14T05:46:03.105Z,english_351.wav,0,1,1431,,,,,4,0.4,21.01511918,1.11946487
WH,64,1,2024-06-14T05:46:03.105Z,english_351.wav,0,1,1431,,,,,5,0.5,55.7456538,0.33788576
WH,64,1,2024-06-14T05:46:03.105Z,english_351.wav,0,1,1431,,,,,6,0.6,54.50583955,1.25361851
WH,64,1,2024-06-14T05:46:03.105Z,english_351.wav,0,1,1431,,,,,7,0.7,74.68230433,1.43767459
WH,64,1,2024-06-14T05:46:03.105Z,english_351.wav,0,1,1431,,,,,8,0.8,-93.39577551,0.08040705
WH,64,1,2024-06-14T05:46:03.105Z,english_351.wav,0,1,1431,,,,,9,0.9,89.8823857,0.01025875
WH,64,1,2024-06-14T05:46:03.105Z,english_351.wav,0,1,1431,,,,,10,1,82.37960735,0.65117528
WH,64,1,2024-06-14T05:46:03.105Z,english_351.wav,0,1,1431,,,,,11,1.09391667,-9.15420485,0.78690639
WH,65,1,2024-06-14T05:46:03.105Z,english_815.wav,0,1,581,,,,,0,0,13.37098153,0.8883119
WH,65,1,2024-06-14T05:46:03.105Z,english_815.wav,0,1,581,,,,,1,0.1,65.78624278,0.67980941
WH,65,1,2024-06-14T05:46:03.105Z,english_815.wav,0,1,581,,,,,2,0.2,66.40667823,0.95780133
WH,65,1,2024-06-14T05:46:03.105Z,english_815.wav,0,1,581,,,,,3,0.3,-44.62639189,1.51398111
WH,65,1,2024-06-14T05:46:03.105Z,english_815.wav,0,1,581,,,,,4,0.4,-51.75725077,1.4565051
WH,65,1,2024-06-14T05:46:03.105Z,english_815.wav,0,1,581,,,,,5,0.5,-79.21957107,0.83683567
WH,65,1,2024-06-14T05:46:03.105Z,english_815.wav,0,1,581,,,,,6,0.6,-56.86584236,0.38900819
WH,65,1,2024-06-14T05:46:03.105Z,english_815.wav,0,1,581,,,,,7,0.7,42.29244477,1.92415526
WH,65,1,2024-06-14T05:46:03.105Z,english_815.wav,0,1,581,,,,,8,0.8,-94.28545135,0.30571249
WH,65,1,2024-06-14T05:46:03.105Z,english_815.wav,0,1,581,,,,,9,0.9,-14.77734417,0.35189603
WH,65,1,2024-06-14T05:46:03.105Z,english_815.wav,0,1,581,,,,,10,1,55.50770682,0.8512317
WH,65,1,2024-06-14T05:46:03.105Z,english_815.wav,0,1,581,,,,,11,1.09391667,3.0451597,1.01865879
WH,66,1,2024-06-14T05:46:03.105Z,english_680.wav,0,1,1143,,,,,0,0,34.87100104,0.28324866
WH,66,1,2024-06-14T05:46:03.105Z,english_680.wav,0,1,1143,,,,,1,0.1,-42.78152033,0.8126674
WH,66,1,2024-06-14T05:46:03.105Z,english_680.wav,0,1,1143,,,,,2,0.2,53.30670494,0.29371905
WH,66,1,2024-06-14T05:46:03.105Z,english_680.wav,0,1,1143,,,,,3,0.3,-19.15351041,0.35755618
WH,66,1,2024-06-14T05:46:03.105Z,english_680.wav,0,1,1143,,,,,4,0.4,81.43981803,1.51227527
WH,66,1,2024-06-14T05:46:03.105Z,english_680.wav,0,1,1143,,,,,5,0.5,-40.3529223,1.96868376
WH,66,1,2024-06-14T05:46:03.105Z,english_680.wav,0,1,1143,,,,,6,0.6,-80.08540334,0.83617015
WH,66,1,2024-06-14T05:46:03.105Z,english_680.wav,0,1,1143,,,,,7,0.7,-59.88446673,0.96819403
WH,66,1,2024-06-14T05:46:03.105Z,english_680.wav,0,1,1143,,,,,8,0.8,14.21531263,0.41039135
WH,66,1,2024-06-14T05:46:03.105Z,english_680.wav,0,1,1143,,,,,9,0.9,39.26105915,0.45984498
WH,66,1,2024-06-14T05:46:03.105Z,english_680.wav,0,1,1143,,,,,10,1,-43.76684188,0.60924907
WH,66,1,2024-06-14T05:46:03.105Z,english_680.wav,0,1,1143,,,,,11,1.09391667,-17.50761484,0.18151502
WH,67,1,2024-06-14T05:46:03.105Z,english_730.wav,0,1,929,,,,,0,0,98.7829688,0.6873965
WH,67,1,2024-06-14T05:46:03.105Z,english_730.wav,0,1,929,,,,,1,0.1,-67.9329994,0.65236597
WH,67,1,2024-06-14T05:46:03.105Z,english_730.wav,0,1,929,,,,,2,0.2,-35.4157721,1.04626144
WH,67,1,2024-06-14T05:46:03.105Z,english_730.wav,0,1,929,,,,,3,0.3,8.75583116,1.65669948
WH,67,1,2024-06-14T05:46:03.105Z,english_730.wav,0,1,929,,,,,4,0.4,-60.72300086,1.8622585
WH,67,1,2024-06-14T05:46:03.105Z,english_730.wav,0,1,929,,,,,5,0.5,-43.53238385,1.86205359
WH,67,1,2024-06-14T05:46:03.105Z,english_730.wav,0,1,929,,,,,6,0.6,7.41942565,1.2731877
WH,67,1,2024-06-14T05:46:03.105Z,english_730.wav,0,1,929,,,,,7,0.7,-30.23988593,0.2835626
WH,67,1,2024-06-14T05:46:03.105Z,english_730.wav,0,1,929,,,,,8,0.8,98.85106115,0.42372638
WH,67,1,2024-06-14T05:46:03.105Z,english_730.wav,0,1,929,,,,,9,0.9,11.8745124,1.35675351
WH,67,1,2024-06-14T05:46:03.105Z,english_730.wav,0,1,929,,,,,10,1,-15.67114445,1.03423815
WH,67,1,2024-06-14T05:46:03.105Z,english_730.wav,0,1,929,,,,,11,1.09391667,-67.06238252,0.63701046
WH,68,1,2024-06-14T05:46:03.105Z,english_220.wav,0,1,534,,,,,0,0,-71.93993547,1.17959242
WH,68,1,2024-06-14T05:46:03.105Z,english_220.wav,0,1,534,,,,,1,0.1,-1.62152464,1.60180584
WH,68,1,2024-06-14T05:46:03.105Z,english_220.wav,0,1,534,,,,,2,0.2,50.61668834,0.65172432
WH,68,1,2024-06-14T05:46:03.105Z,english_220.wav,0,1,534,,,,,3,0.3,-81.57207342,1.31776936
WH,68,1,2024-06-14T05:46:03.105Z,english_220.wav,0,1,534,,,,,4,0.4,25.23040328,0.27212312
WH,68,1,2024-06-14T05:46:03.105Z,english_220.wav,0,1,534,,,,,5,0.5,-31.83310786,0.63067237
WH,68,1,2024-06-14T05:46:03.105Z,english_220.wav,0,1,534,,,,,6,0.6,-66.5422469,0.24736815
WH,68,1,2024-06-14T05:46:03.105Z,english_220.wav,0,1,534,,,,,7,0.7,42.39816589,1.98971363
WH,68,1,2024-06-14T05:46:03.105Z,english_220.wav,0,1,534,,,,,8,0.8,6.21411894,1.78438062
WH,68,1,2024-06-14T05:46:03.105Z,english_220.wav,0,1,534,,,,,9,0.9,64.95547395,0.78537094
WH,68,1,2024-06-14T05:46:03.105Z,english_220.wav,0,1,534,,,,,10,1,-81.60559831,1.30952979
WH,68,1,2024-06-14T05:46:03.105Z,english_220.wav,0,1,534,,,,,11,1.09391667,-34.61937884,0.30452812
WH,69,1,2024-06-14T05:46:03.105Z,english_107.wav,0,1,385,,,,,0,0,14.75106281,1.14538344
WH,69,1,2024-06-14T05:46:03.105Z,english_107.wav,0,1,385,,,,,1,0.1,61.55616618,1.63691709
WH,69,1,2024-06-14T05:46:03.105Z,english_107.wav,0,1,385,,,,,2,0.2,-53.67988365,1.34954163
WH,69,1,2024-06-14T05:46:03.105Z,english_107.wav,0,1,385,,,,,3,0.3,-26.40552644,0.87865188
WH,69,1,2024-06-14T05:46:03.105Z,english_107.wav,0,1,385,,,,,4,0.4,-39.74978172,0.87105183
WH,69,1,2024-06-14T05:46:03.105Z,english_107.wav,0,1,385,,,,,5,0.5,59.30152115,0.97837698
WH,69,1,2024-06-14T05:46:03.105Z,english_107.wav,0,1,385,,,,,6,0.6,47.78500901,0.24331513
WH,69,1,2024-06-14T05:46:03.105Z,english_107.wav,0,1,385,,,,,7,0.7,-56.28829924,1.31332622
WH,69,1,2024-06-14T05:46:03.105Z,english_107.wav,0,1,385,,,,,8,0.8,-27.92998764,1.65018095
WH,69,1,2024-06-14T05:46:03.105Z,english_107.wav,0,1,385,,,,,9,0.9,-79.09348068,0.9374591
WH,69,1,2024-06-14T05:46:03.105Z,english_107.wav,0,1,385,,,,,10,1,-12.41548757,1.20965119
WH,69,1,2024-06-14T05:46:03.105Z,english_107.wav,0,1,385,,,,,11,1.09391667,52.16057728,1.85980397
WH,70,1,2024-06-14T05:46:03.105Z,english_29.wav,0,1,625,,,,,0,0,26.34165935,1.71213773
WH,70,1,2024-06-14T05:46:03.105Z,english_29.wav,0,1,625,,,,,1,0.1,-56.59594866,1.15120834
WH,70,1,2024-06-14T05:46:03.105Z,english_29.wav,0,1,625,,,,,2,0.2,55.77264446,0.20532707
WH,70,1,2024-06-14T05:46:03.105Z,english_29.wav,0,1,625,,,,,3,0.3,59.58576331,1.44609217
WH,70,1,2024-06-14T05:46:03.105Z,english_29.wav,0,1,625,,,,,4,0.4,50.57214918,1.59031005
WH,70,1,2024-06-14T05:46:03.105Z,english_29.wav,0,1,625,,,,,5,0.5,-27.64478316,1.08553967
WH,70,1,2024-06-14T05:46:03.105Z,english_29.wav,0,1,625,,,,,6,0.6,2.0668356,0.33734673
WH,70,1,2024-06-14T05:46:03.105Z,english_29.wav,0,1,625,,,,,7,0.7,16.42838057,1.73819429
WH,70,1,2024-06-14T05:46:03.105Z,english_29.wav,0,1,625,,,,,8,0.8,-69.32816756,1.21021958
WH,70,1,2024-06-14T05:46:03.105Z,english_29.wav,0,1,625,,,,,9,0.9,-50.9336042,0.40648389
WH,70,1,2024-06-14T05:46:03.105Z,english_29.wav,0,1,625,,,,,10,1,-74.04317483,1.02452254
WH,70,1,2024-06-14T05:46:03.105Z,english_29.wav,0,1,625,,,,,11,1.09391667,-55.97160762,0.57453433
WH,71,1,2024-06-14T05:46:03.105Z,english_147.wav,0,1,390,,,,,0,0,13.5835913,1.55424913
WH,71,1,2024-06-14T05:46:03.105Z,english_147.wav,0,1,390,,,,,1,0.1,-12.78269311,1.36751472
WH,71,1,2024-06-14T05:46:03.105Z,english_147.wav,0,1,390,,,,,2,0.2,-68.15160011,0.0989476
WH,71,1,2024-06-14T05:46:03.105Z,english_147.wav,0,1,390,,,,,3,0.3,-22.06196162,1.09942606
WH,71,1,2024-06-14T05:46:03.105Z,english_147.wav,0,1,390,,,,,4,0.4,-52.80599893,0.66767386
WH,71,1,2024-06-14T05:46:03.105Z,english_147.wav,0,1,390,,,,,5,0.5,-19.06204323,1.22234283
WH,71,1,2024-06-14T05:46:03.105Z,english_147.wav,0,1,390,,,,,6,0.6,99.53651939,1.18173491
WH,71,1,2024-06-14T05:46:03.105Z,english_147.wav,0,1,390,,,,,7,0.7,-28.8369824,1.33756281
WH,71,1,2024-06-14T05:46:03.105Z,english_147.wav,0,1,390,,,,,8,0.8,74.70483883,0.81214456
WH,71,1,2024-06-14T05:46:03.105Z,english_147.wav,0,1,390,,,,,9,0.9,42.275031,0.37062199
WH,71,1,2024-06-14T05:46:03.105Z,english_147.wav,0,1,390,,,,,10,1,-85.9360484,1.6700327
WH,71,1,2024-06-14T05:46:03.105Z,english_147.wav,0,1,390,,,,,11,1.09391667,70.70596031,1.62026459
WH,72,1,2024-06-14T05:46:03.105Z,english_532.wav,0,0,280,,,,,0,0,60.85707462,0.2444237
WH,72,1,2024-06-14T05:46:03.105Z,english_532.wav,0,0,280,,,,,1,0.1,13.03416057,1.53493401
WH,72,1,2024-06-14T05:46:03.105Z,english_532.wav,0,0,280,,,,,2,0.2,-48.45411351,1.45787945
WH,72,1,2024-06-14T05:46:03.105Z,english_532.wav,0,0,280,,,,,3,0.3,16.77450497,0.11915761
WH,72,1,2024-06-14T05:46:03.105Z,english_532.wav,0,0,280,,,,,4,0.4,-7.6707259,0.99575033
WH,72,1,2024-06-14T05:46:03.105Z,english_532.wav,0,0,280,,,,,5,0.5,-84.48187603,1.34203353
WH,72,1,2024-06-14T05:46:03.105Z,english_532.wav,0,0,280,,,,,6,0.6,-5.50880589,0.42679286
WH,72,1,2024-06-14T05:46:03.105Z,english_532.wav,0,0,280,,,,,7,0.7,-53.77002933,1.97733711
WH,72,1,2024-06-14T05:46:03.105Z,english_532.wav,0,0,280,,,,,8,0.8,11.75325856,0.79534295
WH,72,1,2024-06-14T05:46:03.105Z,english_532.wav,0,0,280,,,,,9,0.9,41.28277306,0.9990701
WH,72,1,2024-06-14T05:46:03.105Z,english_532.wav,0,0,280,,,,,10,1,14.79272929,1.48802156
WH,72,1,2024-06-14T05:46:03.105Z,english_532.wav,0,0,280,,,,,11,1.09391667,-15.59183139,0.74270144
WH,73,1,2024-06-14T05:46:03.105Z,english_201.wav,0,1,891,,,,,0,0,38.80737773,0.9006916
WH,73,1,2024-06-14T05:46:03.105Z,english_201.wav,0,1,891,,,,,1,0.1,-19.59989916,0.40577957
WH,73,1,2024-06-14T05:46:03.105Z,english_201.wav,0,1,891,,,,,2,0.2,66.60738163,0.32844259
WH,73,1,2024-06-14T05:46:03.105Z,english_201.wav,0,1,891,,,,,3,0.3,-56.04483053,1.02628552
WH,73,1,2024-06-14T05:46:03.105Z,english_201.wav,0,1,891,,,,,4,0.4,70.74519799,1.24548515
WH,73,1,2024-06-14T05:46:03.105Z,english_201.wav,0,1,891,,,,,5,0.5,-47.08782515,0.07505998
WH,73,1,2024-06-14T05:46:03.105Z,english_201.wav,0,1,891,,,,,6,0.6,-82.17312899,0.1226459
WH,73,1,2024-06-14T05:46:03.105Z,english_201.wav,0,1,891,,,,,7,0.7,4.63557835,1.79532837
WH,73,1,2024-06-14T05:46:03.105Z,english_201.wav,0,1,891,,,,,8,0.8,13.50311248,1.69109423
WH,73,1,2024-06-14T05:46:03.105Z,english_201.wav,0,1,891,,,,,9,0.9,50.05274214,0.91883167
WH,73,1,2024-06-14T05:46:03.105Z,english_201.wav,0,1,891,,,,,10,1,-76.13616328,0.81807561
WH,73,1,2024-06-14T05:46:03.105Z,english_201.wav,0,1,891,,,,,11,1.09391667,8.54722281,1.88316121
WH,74,1,2024-06-14T05:46:03.105Z,english_535.wav,0,0,801,,,,,0,0,-4.00375318,0.74823916
WH,74,1,2024-06-14T05:46:03.105Z,english_535.wav,0,0,801,,,,,1,0.1,-37.57387138,0.9109632
WH,74,1,2024-06-14T05:46:03.105Z,english_535.wav,0,0,801,,,,,2,0.2,-31.12595353,0.84755902
WH,74,1,2024-06-14T05:46:03.105Z,english_535.wav,0,0,801,,,,,3,0.3,2.06341331,1.09662022
WH,74,1,2024-06-14T05:46:03.105Z,english_535.wav,0,0,801,,,,,4,0.4,56.11576492,0.26254995
WH,74,1,2024-06-14T05:46:03.105Z,english_535.wav,0,0,801,,,,,5,0.5,30.13214978,1.29967994
WH,74,1,2024-06-14T05:46:03.105Z,english_535.wav,0,0,801,,,,,6,0.6,14.78197265,1.50452532
WH,74,1,2024-06-14T05:46:03.105Z,english_535.wav,0,0,801,,,,,7,0.7,-18.38930177,1.51808924
WH,74,1,2024-06-14T05:46:03.105Z,english_535.wav,0,0,801,,,,,8,0.8,-10.54396075,0.34439234
WH,74,1,2024-06-14T05:46:03.105Z,english_535.wav,0,0,801,,,,,9,0.9,39.09773013,0.86790386
WH,74,1,2024-06-14T05:46:03.105Z,english_535.wav,0,0,801,,,,,10,1,46.13111143,0.86784134
WH,74,1,2024-06-14T05:46:03.105Z,english_535.wav,0,0,801,,,,,11,1.09391667,-64.44597459,0.57511998
WH,75,1,2024-06-14T05:46:03.105Z,english_574.wav,0,1,659,,,,,0,0,30.16253717,0.985146
WH,75,1,2024-06-14T05:46:03.105Z,english_574.wav,0,1,659,,,,,1,0.1,-51.87995618,1.53182158
WH,75,1,2024-06-14T05:46:03.105Z,english_574.wav,0,1,659,,,,,2,0.2,24.46456732,1.42910062
WH,75,1,2024-06-14T05:46:03.105Z,english_574.wav,0,1,659,,,,,3,0.3,-94.35752884,0.82906666
WH,75,1,2024-06-14T05:46:03.105Z,english_574.wav,0,1,659,,,,,4,0.4,64.35841576,1.00783528
WH,75,1,2024-06-14T05:46:03.105Z,english_574.wav,0,1,659,,,,,5,0.5,-49.28362763,1.2732344
WH,75,1,2024-06-14T05:46:03.105Z,english_574.wav,0,1,659,,,,,6,0.6,14.18269939,1.27248482
WH,75,1,2024-06-14T05:46:03.105Z,english_574.wav,0,1,659,,,,,7,0.7,-50.86809752,0.5240718
WH,75,1,2024-06-14T05:46:03.105Z,english_574.wav,0,1,659,,,,,8,0.8,53.84502892,0.53991613
WH,75,1,2024-06-14T05:46:03.105Z,english_574.wav,0,1,659,,,,,9,0.9,-66.65469805,0.74966761
WH,75,1,2024-06-14T05:46:03.105Z,english_574.wav,0,1,659,,,,,10,1,-86.96769925,0.29132247
WH,75,1,2024-06-14T05:46:03.105Z,english_574.wav,0,1,659,,,,,11,1.09391667,-53.07810136,0.5179051
WH,76,1,2024-06-14T05:46:03.105Z,english_304.wav,0,0,410,,,,,0,0,96.43315713,1.4273089
WH,76,1,2024-06-14T05:46:03.105Z,english_304.wav,0,0,410,,,,,1,0.1,95.93138412,1.40169358
WH,76,1,2024-06-14T05:46:03.105Z,english_304.wav,0,0,410,,,,,2,0.2,65.83383482,1.37134036
WH,76,1,2024-06-14T05:46:03.105Z,english_304.wav,0,0,410,,,,,3,0.3,84.09537744,0.09577365
WH,76,1,2024-06-14T05:46:03.105Z,english_304.wav,0,0,410,,,,,4,0.4,-66.2474925,1.82897854
WH,76,1,2024-06-14T05:46:03.105Z,english_304.wav,0,0,410,,,,,5,0.5,93.4095627,0.08231512
WH,76,1,2024-06-14T05:46:03.105Z,english_304.wav,0,0,410,,,,,6,0.6,-1.11643,0.16260787
WH,76,1,2024-06-14T05:46:03.105Z,english_304.wav,0,0,410,,,,,7,0.7,-9.86041812,1.3997004
WH,76,1,2024-06-14T05:46:03.105Z,english_304.wav,0,0,410,,,,,8,0.8,-26.38054207,0.11489059
WH,76,1,2024-06-14T05:46:03.105Z,english_304.wav,0,0,410,,,,,9,0.9,9.25483922,1.90722294
WH,76,1,2024-06-14T05:46:03.105Z,english_304.wav,0,0,410,,,,,10,1,-76.37569973,1.30374267
WH,76,1,2024-06-14T05:46:03.105Z,english_304.wav,0,0,410,,,,,11,1.09391667,-10.54226117,1.55839178
WH,77,1,2024-06-14T05:46:03.105Z,english_794.wav,0,1,757,,,,,0,0,-94.32956865,0.17232345
WH,77,1,2024-06-14T05:46:03.105Z,english_794.wav,0,1,757,,,,,1,0.1,-54.44529308,0.63768668
WH,77,1,2024-06-14T05:46:03.105Z,english_794.wav,0,1,757,,,,,2,0.2,41.27752313,0.54334699
WH,77,1,2024-06-14T05:46:03.105Z,english_794.wav,0,1,757,,,,,3,0.3,-24.41011935,0.41814183
WH,77,1,2024-06-14T05:46:03.105Z,english_794.wav,0,1,757,,,,,4,0.4,-17.86009113,0.83205575
WH,77,1,2024-06-14T05:46:03.105Z,english_794.wav,0,1,757,,,,,5,0.5,70.96620098,1.38587001
WH,77,1,2024-06-14T05:46:03.105Z,english_794.wav,0,1,757,,,,,6,0.6,-6.92588192,0.50257762
WH,77,1,2024-06-14T05:46:03.105Z,english_794.wav,0,1,757,,,,,7,0.7,1.86567935,1.6396819
WH,77,1,2024-06-14T05:46:03.105Z,english_794.wav,0,1,757,,,,,8,0.8,85.29780195,1.19491374
WH,77,1,2024-06-14T05:46:03.105Z,english_794.wav,0,1,757,,,,,9,0.9,66.99714839,0.22376499
WH,77,1,2024-06-14T05:46:03.105Z,english_794.wav,0,1,757,,,,,10,1,34.72052642,0.81945326
WH,77,1,2024-06-14T05:46:03.105Z,english_794.wav,0,1,757,,,,,11,1.09391667,18.1862992,1.51337696
WH,78,1,2024-06-14T05:46:03.105Z,english_809.wav,0,0,1601,,,,,0,0,-9.12051171,1.24060405
WH,78,1,2024-06-14T05:46:03.105Z,english_809.wav,0,0,1601,,,,,1,0.1,56.83840218,0.92544531
WH,78,1,2024-06-14T05:46:03.105Z,english_809.wav,0,0,1601,,,,,2,0.2,-21.1464042,1.6749497
WH,78,1,2024-06-14T05:46:03.105Z,english_809.wav,0,0,1601,,,,,3,0.3,57.63617788,0.74168877
WH,78,1,2024-06-14T05:46:03.105Z,english_809.wav,0,0,1601,,,,,4,0.4,81.73006696,0.96063823
WH,78,1,2024-06-14T05:46:03.105Z,english_809.wav,0,0,1601,,,,,5,0.5,1.9499243,1.38564295
WH,78,1,2024-06-14T05:46:03.105Z,english_809.wav,0,0,1601,,,,,6,0.6,94.78967393,0.56911063
WH,78,1,2024-06-14T05:46:03.105Z,english_809.wav,0,0,1601,,,,,7,0.7,65.64249462,0.51453492
WH,78,1,2024-06-14T05:46:03.105Z,english_809.wav,0,0,1601,,,,,8,0.8,90.5146219,0.11779349
WH,78,1,2024-06-14T05:46:03.105Z,english_809.wav,0,0,1601,,,,,9,0.9,37.72992996,0.31036913
WH,78,1,2024-06-14T05:46:03.105Z,english_809.wav,0,0,1601,,,,,10,1,-3.08128901,0.78583843
WH,78,1,2024-06-14T05:46:03.105Z,english_809.wav,0,0,1601,,,,,11,1.09391667,81.22811773,1.12131059
WH,79,1,2024-06-14T05:46:03.105Z,english_182.wav,0,1,628,,,,,0,0,-33.72839549,0.64170462
WH,79,1,2024-06-14T05:46:03.105Z,english_182.wav,0,1,628,,,,,1,0.1,71.95583488,0.46910546
WH,79,1,2024-06-14T05:46:03.105Z,english_182.wav,0,1,628,,,,,2,0.2,93.77497833,1.36329359
WH,79,1,2024-06-14T05:46:03.105Z,english_182.wav,0,1,628,,,,,3,0.3,-96.3431589,1.23106937
WH,79,1,2024-06-14T05:46:03.105Z,english_182.wav,0,1,628,,,,,4,0.4,-58.26438495,1.40247691
WH,79,1,2024-06-14T05:46:03.105Z,english_182.wav,0,1,628,,,,,5,0.5,40.50395066,0.60520266
WH,79,1,2024-06-14T05:46:03.105Z,english_182.wav,0,1,628,,,,,6,0.6,-57.53982371,0.0944441
WH,79,1,2024-06-14T05:46:03.105Z,english_182.wav,0,1,628,,,,,7,0.7,19.26336492,0.39825095
WH,79,1,2024-06-14T05:46:03.105Z,english_182.wav,0,1,628,,,,,8,0.8,53.61678759,0.94728121
WH,79,1,2024-06-14T05:46:03.105Z,english_182.wav,0,1,628,,,,,9,0.9,33.80250156,0.19803834
WH,79,1,2024-06-14T05:46:03.105Z,english_182.wav,0,1,628,,,,,10,1,47.27321227,1.21672532
WH,79,1,2024-06-14T05:46:03.105Z,english_182.wav,0,1,628,,,,,11,1.09391667,72.04949346,0.20681806
WH,80,1,2024-06-14T05:46:03.105Z,english_970.wav,0,1,542,,,,,0,0,-54.89447986,0.81951556
WH,80,1,2024-06-14T05:46:03.105Z,english_970.wav,0,1,542,,,,,1,0.1,25.1169893,1.67117432
WH,80,1,2024-06-14T05:46:03.105Z,english_970.wav,0,1,542,,,,,2,0.2,-40.43511265,1.15867829
WH,80,1,2024-06-14T05:46:03.105Z,english_970.wav,0,1,542,,,,,3,0.3,-62.36717191,1.19627059
WH,80,1,2024-06-14T05:46:03.105Z,english_970.wav,0,1,542,,,,,4,0.4,-52.87769156,1.65204518
WH,80,1,2024-06-14T05:46:03.105Z,english_970.wav,0,1,542,,,,,5,0.5,-60.51030312,1.89905296
WH,80,1,2024-06-14T05:46:03.105Z,english_970.wav,0,1,542,,,,,6,0.6,-20.66217752,1.49874094
WH,80,1,2024-06-14T05:46:03.105Z,english_970.wav,0,1,542,,,,,7,0.7,39.3890126,1.49402448
WH,80,1,2024-06-14T05:46:03.105Z,english_970.wav,0,1,542,,,,,8,0.8,-42.20316614,0.52089687
WH,80,1,2024-06-14T05:46:03.105Z,english_970.wav,0,1,542,,,,,9,0.9,-5.07453967,0.54496633
WH,80,1,2024-06-14T05:46:03.105Z,english_970.wav,0,1,542,,,,,10,1,63.70783578,0.14699143
WH,80,1,2024-06-14T05:46:03.105Z,english_970.wav,0,1,542,,,,,11,1.09391667,15.89619138,0.8383136
WH,81,1,2024-06-14T05:46:03.105Z,english_565.wav,0,1,159,,,,,0,0,90.76087004,0.64245812
WH,81,1,2024-06-14T05:46:03.105Z,english_565.wav,0,1,159,,,,,1,0.1,90.93114699,0.32525734
WH,81,1,2024-06-14T05:46:03.105Z,english_565.wav,0,1,159,,,,,2,0.2,-32.37019607,1.091812
WH,81,1,2024-06-14T05:46:03.105Z,english_565.wav,0,1,159,,,,,3,0.3,77.30434891,0.92230791
WH,81,1,2024-06-14T05:46:03.105Z,english_565.wav,0,1,159,,,,,4,0.4,-9.73234267,0.30031599
WH,81,1,2024-06-14T05:46:03.105Z,english_565.wav,0,1,159,,,,,5,0.5,-83.24650182,0.39093775
WH,81,1,2024-06-14T05:46:03.105Z,english_565.wav,0,1,159,,,,,6,0.6,21.51683352,0.75549465
WH,81,1,2024-06-14T05:46:03.105Z,english_565.wav,0,1,159,,,,,7,0.7,88.66647516,1.68865449
WH,81,1,2024-06-14T05:46:03.105Z,english_565.wav,0,1,159,,,,,8,0.8,21.52943084,0.98033477
WH,81,1,2024-06-14T05:46:03.105Z,english_565.wav,0,1,159,,,,,9,0.9,0.60796245,1.75979764
WH,81,1,2024-06-14T05:46:03.105Z,english_565.wav,0,1,159,,,,,10,1,9.87605239,1.41337712
WH,81,1,2024-06-14T05:46:03.105Z,english_565.wav,0,1,159,,,,,11,1.09391667,92.11409348,0.97633592
WH,82,1,2024-06-14T05:46:03.105Z,english_681.wav,0,0,942,,,,,0,0,-92.26077834,1.18766689
WH,82,1,2024-06-14T05:46:03.105Z,english_681.wav,0,0,942,,,,,1,0.1,11.95344045,1.17925246
WH,82,1,2024-06-14T05:46:03.105Z,english_681.wav,0,0,942,,,,,2,0.2,35.63077321,1.18714511
WH,82,1,2024-06-14T05:46:03.105Z,english_681.wav,0,0,942,,,,,3,0.3,10.32953838,0.81117053
WH,82,1,2024-06-14T05:46:03.105Z,english_681.wav,0,0,942,,,,,4,0.4,-65.38984885,0.881102
WH,82,1,2024-06-14T05:46:03.105Z,english_681.wav,0,0,942,,,,,5,0.5,97.33649353,0.91983652
WH,82,1,2024-06-14T05:46:03.105Z,english_681.wav,0,0,942,,,,,6,0.6,-8.45532029,1.26950169
WH,82,1,2024-06-14T05:46:03.105Z,english_681.wav,0,0,942,,,,,7,0.7,-65.12679711,1.73435483
WH,82,1,2024-06-14T05:46:03.105Z,english_681.wav,0,0,942,,,,,8,0.8,-45.40923943,0.23522848
WH,82,1,2024-06-14T05:46:03.105Z,english_681.wav,0,0,942,,,,,9,0.9,15.66943247,1.44084722
WH,82,1,2024-06-14T05:46:03.105Z,english_681.wav,0,0,942,,,,,10,1,-78.97347716,0.55279263
WH,82,1,2024-06-14T05:46:03.105Z,english_681.wav,0,0,942,,,,,11,1.09391667,28.12793686,1.79690954
WH,83,1,2024-06-14T05:46:03.105Z,english_972.wav,0,1,348,,,,,0,0,-23.39425143,1.25085973
WH,83,1,2024-06-14T05:46:03.105Z,english_972.wav,0,1,348,,,,,1,0.1,35.85055319,1.0698884
WH,83,1,2024-06-14T05:46:03.105Z,english_972.wav,0,1,348,,,,,2,0.2,67.19735569,1.90990051
WH,83,1,2024-06-14T05:46:03.105Z,english_972.wav,0,1,348,,,,,3,0.3,-48.3142237,1.50553478
WH,83,1,2024-06-14T05:46:03.105Z,english_972.wav,0,1,348,,,,,4,0.4,98.37530376,1.59397111
WH,83,1,2024-06-14T05:46:03.105Z,english_972.wav,0,1,348,,,,,5,0.5,49.57162288,0.74863955
WH,83,1,2024-06-14T05:46:03.105Z,english_972.wav,0,1,348,,,,,6,0.6,57.60699349,0.82823128
WH,83,1,2024-06-14T05:46:03.105Z,english_972.wav,0,1,348,,,,,7,0.7,-63.06687642,0.17780137
WH,83,1,2024-06-14T05:46:03.105Z,english_972.wav,0,1,348,,,,,8,0.8,66.62148397,0.09555814
WH,83,1,2024-06-14T05:46:03.105Z,english_972.wav,0,1,348,,,,,9,0.9,25.13322135,1.59117444
WH,83,1,2024-06-14T05:46:03.105Z,english_972.wav,0,1,348,,,,,10,1,-29.0922144,1.44799229
WH,83,1,2024-06-14T05:46:03.105Z,english_972.wav,0,1,348,,,,,11,1.09391667,-22.18125143,1.21058423
WH,84,1,2024-06-14T05:46:03.105Z,english_608.wav,0,1,78,,,,,0,0,51.7664081,1.51537713
WH,84,1,2024-06-14T05:46:03.105Z,english_608.wav,0,1,78,,,,,1,0.1,-80.54246428,0.15028224
WH,84,1,2024-06-14T05:46:03.105Z,english_608.wav,0,1,78,,,,,2,0.2,-77.98130797,1.81254149
WH,84,1,2024-06-14T05:46:03.105Z,english_608.wav,0,1,78,,,,,3,0.3,25.40612748,1.88904665
WH,84,1,2024-06-14T05:46:03.105Z,english_608.wav,0,1,78,,,,,4,0.4,-25.13261416,0.02307613
WH,84,1,2024-06-14T05:46:03.105Z,english_608.wav,0,1,78,,,,,5,0.5,-47.23330204,1.59293411
WH,84,1,2024-06-14T05:46:03.105Z,english_608.wav,0,1,78,,,,,6,0.6,80.77508225,1.34709582
WH,84,1,2024-06-14T05:46:03.105Z,english_608.wav,0,1,78,,,,,7,0.7,-91.19719701,0.43937258
WH,84,1,2024-06-14T05:46:03.105Z,english_608.wav,0,1,78,,,,,8,0.8,-56.07696763,1.30698023
WH,84,1,2024-06-14T05:46:03.105Z,english_608.wav,0,1,78,,,,,9,0.9,-57.98593589,1.72852212
WH,84,1,2024-06-14T05:46:03.105Z,english_608.wav,0,1,78,,,,,10,1,87.03595353,1.13440146
WH,84,1,2024-06-14T05:46:03.105Z,english_608.wav,0,1,78,,,,,11,1.09391667,-36.96026424,1.09789882
WH,85,1,2024-06-14T05:46:03.105Z,english_513.wav,0,1,409,,,,,0,0,69.69423026,1.14751405
WH,85,1,2024-06-14T05:46:03.105Z,english_513.wav,0,1,409,,,,,1,0.1,-61.65221054,0.70036193
WH,85,1,2024-06-14T05:46:03.105Z,english_513.wav,0,1,409,,,,,2,0.2,12.06620713,1.7124885
WH,85,1,2024-06-14T05:46:03.105Z,english_513.wav,0,1,409,,,,,3,0.3,68.31024972,0.98016869
WH,85,1,2024-06-14T05:46:03.105Z,english_513.wav,0,1,409,,,,,4,0.4,74.12641094,0.11366006
WH,85,1,2024-06-14T05:46:03.105Z,english_513.wav,0,1,409,,,,,5,0.5,6.77833978,0.43979592
WH,85,1,2024-06-14T05:46:03.105Z,english_513.wav,0,1,409,,,,,6,0.6,-4.07072349,1.91776754
WH,85,1,2024-06-14T05:46:03.105Z,english_513.wav,0,1,409,,,,,7,0.7,-75.18978196,0.49107068
WH,85,1,2024-06-14T05:46:03.105Z,english_513.wav,0,1,409,,,,,8,0.8,-25.44315508,0.92055325
WH,85,1,2024-06-14T05:46:03.105Z,english_513.wav,0,1,409,,,,,9,0.9,1.64473536,0.8410121
WH,85,1,2024-06-14T05:46:03.105Z,english_513.wav,0,1,409,,,,,10,1,-82.34234751,0.34671239
WH,85,1,2024-06-14T05:46:03.105Z,english_513.wav,0,1,409,,,,,11,1.09391667,-17.87879592,1.52659427
WH,86,1,2024-06-14T05:46:03.105Z,english_108.wav,0,1,668,,,,,0,0,-72.12984017,0.26945128
WH,86,1,2024-06-14T05:46:03.105Z,english_108.wav,0,1,668,,,,,1,0.1,8.19812644,1.01925784
WH,86,1,2024-06-14T05:46:03.105Z,english_108.wav,0,1,668,,,,,2,0.2,78.6546888,1.32918217
WH,86,1,2024-06-14T05:46:03.105Z,english_108.wav,0,1,668,,,,,3,0.3,-30.04278384,0.63536527
WH,86,1,2024-06-14T05:46:03.105Z,english_108.wav,0,1,668,,,,,4,0.4,-12.36369755,1.19436668
WH,86,1,2024-06-14T05:46:03.105Z,english_108.wav,0,1,668,,,,,5,0.5,70.67382026,0.3289366
WH,86,1,2024-06-14T05:46:03.105Z,english_108.wav,0,1,668,,,,,6,0.6,-56.34929952,1.40732185
WH,86,1,2024-06-14T05:46:03.105Z,english_108.wav,0,1,668,,,,,7,0.7,-58.84895788,0.91014899
WH,86,1,2024-06-14T05:46:03.105Z,english_108.wav,0,1,668,,,,,8,0.8,-57.8473435,0.89824174
WH,86,1,2024-06-14T05:46:03.105Z,english_108.wav,0,1,668,,,,,9,0.9,74.00200547,0.75928312
WH,86,1,2024-06-14T05:46:03.105Z,english_108.wav,0,1,668,,,,,10,1,14.31080133,1.3591553
WH,86,1,2024-06-14T05:46:03.105Z,english_108.wav,0,1,668,,,,,11,1.09391667,52.36561827,1.12113776
WH,87,1,2024-06-14T05:46:03.105Z,english_612.wav,0,1,414,,,,,0,0,-32.56638412,1.34102199
WH,87,1,2024-06-14T05:46:03.105Z,english_612.wav,0,1,414,,,,,1,0.1,49.8981081,0.75759379
WH,87,1,2024-06-14T05:46:03.105Z,english_612.wav,0,1,414,,,,,2,0.2,-21.03155474,1.225333
WH,87,1,2024-06-14T05:46:03.105Z,english_612.wav,0,1,414,,,,,3,0.3,-51.85436973,1.79972666
WH,87,1,2024-06-14T05:46:03.105Z,english_612.wav,0,1,414,,,,,4,0.4,-40.10971626,0.82062061
WH,87,1,2024-06-14T05:46:03.105Z,english_612.wav,0,1,414,,,,,5,0.5,-9.29933233,0.18015475
WH,87,1,2024-06-14T05:46:03.105Z,english_612.wav,0,1,414,,,,,6,0.6,53.77549864,0.28029793
WH,87,1,2024-06-14T05:46:03.105Z,english_612.wav,0,1,414,,,,,7,0.7,-93.73306799,1.24302717
WH,87,1,2024-06-14T05:46:03.105Z,english_612.wav,0,1,414,,,,,8,0.8,10.07222851,1.83652713
WH,87,1,2024-06-14T05:46:03.105Z,english_612.wav,0,1,414,,,,,9,0.9,17.79731187,1.55098579
WH,87,1,2024-06-14T05:46:03.105Z,english_612.wav,0,1,414,,,,,10,1,-51.55835123,0.97719026
WH,87,1,2024-06-14T05:46:03.105Z,english_612.wav,0,1,414,,,,,11,1.09391667,-22.80344529,0.39162915
WH,88,1,2024-06-14T05:46:03.105Z,english_383.wav,0,1,748,,,,,0,0,-63.19284146,0.88359619
WH,88,1,2024-06-14T05:46:03.105Z,english_383.wav,0,1,748,,,,,1,0.1,-11.67623943,0.67885576
WH,88,1,2024-06-14T05:46:03.105Z,english_383.wav,0,1,748,,,,,2,0.2,10.29419774,0.79033279
WH,88,1,2024-06-14T05:46:03.105Z,english_383.wav,0,1,748,,,,,3,0.3,-5.52009964,1.96206588
WH,88,1,2024-06-14T05:46:03.105Z,english_383.wav,0,1,748,,,,,4,0.4,51.48969715,1.53913599
WH,88,1,2024-06-14T05:46:03.105Z,english_383.wav,0,1,748,,,,,5,0.5,36.94617894,0.70890723
WH,88,1,2024-06-14T05:46:03.105Z,english_383.wav,0,1,748,,,,,6,0.6,-43.5176619,1.30448928
WH,88,1,2024-06-14T05:46:03.105Z,english_383.wav,0,1,748,,,,,7,0.7,48.24470616,0.63214347
WH,88,1,2024-06-14T05:46:03.105Z,english_383.wav,0,1,748,,,,,8,0.8,-27.34462671,1.26781992
WH,88,1,2024-06-14T05:46:03.105Z,english_383.wav,0,1,748,,,,,9,0.9,77.23299658,0.08660782
WH,88,1,2024-06-14T05:46:03.105Z,english_383.wav,0,1,748,,,,,10,1,-26.93588993,1.53722143
WH,88,1,2024-06-14T05:46:03.105Z,english_383.wav,0,1,748,,,,,11,1.09391667,-78.64800704,1.42646009
WH,89,1,2024-06-14T05:46:03.105Z,english_143.wav,0,0,466,,,,,0,0,49.57787404,1.32411669
WH,89,1,2024-06-14T05:46:03.105Z,english_143.wav,0,0,466,,,,,1,0.1,18.07857637,1.28938823
WH,89,1,2024-06-14T05:46:03.105Z,english_143.wav,0,0,466,,,,,2,0.2,-4.95603362,1.776944
WH,89,1,2024-06-14T05:46:03.105Z,english_143.wav,0,0,466,,,,,3,0.3,-9.7553448,0.84910797
WH,89,1,2024-06-14T05:46:03.105Z,english_143.wav,0,0,466,,,,,4,0.4,61.69368854,1.3085087
WH,89,1,2024-06-14T05:46:03.105Z,english_143.wav,0,0,466,,,,,5,0.5,50.12830069,1.88982163
WH,89,1,2024-06-14T05:46:03.105Z,english_143.wav,0,0,466,,,,,6,0.6,61.18653055,1.48457271
WH,89,1,2024-06-14T05:46:03.105Z,english_143.wav,0,0,466,,,,,7,0.7,14.45494157,1.24491043
WH,89,1,2024-06-14T05:46:03.105Z,english_143.wav,0,0,466,,,,,8,0.8,-10.6333814,0.24786477
WH,89,1,2024-06-14T05:46:03.105Z,english_143.wav,0,0,466,,,,,9,0.9,-91.12009128,0.10794868
WH,89,1,2024-06-14T05:46:03.105Z,english_143.wav,0,0,466,,,,,10,1,-92.0599703,0.66722176
WH,89,1,2024-06-14T05:46:03.105Z,english_143.wav,0,0,466,,,,,11,1.09391667,65.42121395,1.367479
WH,90,1,2024-06-14T05:46:03.105Z,english_76.wav,0,1,772,,,,,0,0,24.53692124,0.00919351
WH,90,1,2024-06-14T05:46:03.105Z,english_76.wav,0,1,772,,,,,1,0.1,4.74525032,1.89780668
WH,90,1,2024-06-14T05:46:03.105Z,english_76.wav,0,1,772,,,,,2,0.2,-11.73085706,1.28424019
WH,90,1,2024-06-14T05:46:03.105Z,english_76.wav,0,1,772,,,,,3,0.3,-67.51409973,0.97330389
WH,90,1,2024-06-14T05:46:03.105Z,english_76.wav,0,1,772,,,,,4,0.4,18.72894419,1.57704982
WH,90,1,2024-06-14T05:46:03.105Z,english_76.wav,0,1,772,,,,,5,0.5,-87.08655703,0.6100989
WH,90,1,2024-06-14T05:46:03.105Z,english_76.wav,0,1,772,,,,,6,0.6,8.86378377,0.1303689
WH,90,1,2024-06-14T05:46:03.105Z,english_76.wav,0,1,772,,,,,7,0.7,-88.70159666,1.07980698
WH,90,1,2024-06-14T05:46:03.105Z,english_76.wav,0,1,772,,,,,8,0.8,-19.63742154,0.36042094
WH,90,1,2024-06-14T05:46:03.105Z,english_76.wav,0,1,772,,,,,9,0.9,-28.01043875,1.46264173
WH,90,1,2024-06-14T05:46:03.105Z,english_76.wav,0,1,772,,,,,10,1,-30.77636244,0.93716424
WH,90,1,2024-06-14T05:46:03.105Z,english_76.wav,0,1,772,,,,,11,1.09391667,-23.02477644,0.27656628
WH,91,1,2024-06-14T05:46:03.105Z,english_716.wav,0,1,557,,,,,0,0,43.74330497,0.97173824
WH,91,1,2024-06-14T05:46:03.105Z,english_716.wav,0,1,557,,,,,1,0.1,1.01157467,1.13719013
WH,91,1,2024-06-14T05:46:03.105Z,english_716.wav,0,1,557,,,,,2,0.2,43.31214435,0.97088095
WH,91,1,2024-06-14T05:46:03.105Z,english_716.wav,0,1,557,,,,,3,0.3,-64.99824003,1.35537493
WH,91,1,2024-06-14T05:46:03.105Z,english_716.wav,0,1,557,,,,,4,0.4,66.22849696,1.16227483
WH,91,1,2024-06-14T05:46:03.105Z,english_716.wav,0,1,557,,,,,5,0.5,15.92034767,1.14260693
WH,91,1,2024-06-14T05:46:03.105Z,english_716.wav,0,1,557,,,,,6,0.6,-84.49981369,1.21216761
WH,91,1,2024-06-14T05:46:03.105Z,english_716.wav,0,1,557,,,,,7,0.7,-36.42045257,1.78190595
WH,91,1,2024-06-14T05:46:03.105Z,english_716.wav,0,1,557,,,,,8,0.8,0.56154779,1.16672006
WH,91,1,2024-06-14T05:46:03.105Z,english_716.wav,0,1,557,,,,,9,0.9,-55.57576832,1.41993199
WH,91,1,2024-06-14T05:46:03.105Z,english_716.wav,0,1,557,,,,,10,1,55.0789401,0.32201877
