subj,trial,block,date,stim,stim_order,response,rt,age,english,language,sex,param_index,segment,pitch,stretch
TYT,0,0,2024-06-13T14:54:48.301Z,english_879.wav,0,0,1414,,,,,0,0,-41.71376067,1.10654485
TYT,0,0,2024-06-13T14:54:48.301Z,english_879.wav,0,0,1414,,,,,1,0.1,5.81272632,1.32832236
TYT,0,0,2024-06-13T14:54:48.301Z,english_879.wav,0,0,1414,,,,,2,0.2,-22.32054487,1.5555922
TYT,0,0,2024-06-13T14:54:48.301Z,english_879.wav,0,0,1414,,,,,3,0.3,93.64091385,0.11041486
TYT,0,0,2024-06-13T14:54:48.301Z,english_879.wav,0,0,1414,,,,,4,0.4,-40.92402167,1.31993608
TYT,0,0,2024-06-13T14:54:48.301Z,english_879.wav,0,0,1414,,,,,5,0.5,13.45427288,1.7629303
TYT,0,0,2024-06-13T14:54:48.301Z,english_879.wav,0,0,1414,,,,,6,0.6,-86.15210755,1.83129602
TYT,0,0,2024-06-13T14:54:48.301Z,english_879.wav,0,0,1414,,,,,7,0.7,-20.9667874,1.42589619
TYT,0,0,2024-06-13T14:54:48.301Z,english_879.wav,0,0,1414,,,,,8,0.8,-18.58842444,0.74351112
TYT,0,0,2024-06-13T14:54:48.301Z,english_879.wav,0,0,1414,,,,,9,0.9,-72.1364449,0.32763887
TYT,0,0,2024-06-13T14:54:48.301Z,english_879.wav,0,0,1414,,,,,10,1,-83.06025628,1.7749803
TYT,0,0,2024-06-13T14:54:48.301Z,english_879.wav,0,0,1414,,,,,11,1.09391667,76.41221389,1.6164567
TYT,1,0,2024-06-13T14:54:48.301Z,english_59.wav,0,0,1150,,,,,0,0,13.6818357,1.39102809
TYT,1,0,2024-06-13T14:54:48.301Z,english_59.wav,0,0,1150,,,,,1,0.1,-62.28772111,1.7641323
TYT,1,0,2024-06-13T14:54:48.301Z,english_59.wav,0,0,1150,,,,,2,0.2,49.12418905,1.93370096
TYT,1,0,2024-06-13T14:54:48.301Z,english_59.wav,0,0,1150,,,,,3,0.3,-11.37021527,1.41546104
TYT,1,0,2024-06-13T14:54:48.301Z,english_59.wav,0,0,1150,,,,,4,0.4,-54.18333873,1.8712645
TYT,1,0,2024-06-13T14:54:48.301Z,english_59.wav,0,0,1150,,,,,5,0.5,89.00177849,1.58142361
TYT,1,0,2024-06-13T14:54:48.301Z,english_59.wav,0,0,1150,,,,,6,0.6,-39.13145847,1.31038649
TYT,1,0,2024-06-13T14:54:48.301Z,english_59.wav,0,0,1150,,,,,7,0.7,-8.40184911,1.79881342
TYT,1,0,2024-06-13T14:54:48.301Z,english_59.wav,0,0,1150,,,,,8,0.8,-34.91016987,0.00761053
TYT,1,0,2024-06-13T14:54:48.301Z,english_59.wav,0,0,1150,,,,,9,0.9,92.47037208,0.77279167
TYT,1,0,2024-06-13T14:54:48.301Z,english_59.wav,0,0,1150,,,,,10,1,91.56160698,0.86326769
TYT,1,0,2024-06-13T14:54:48.301Z,english_59.wav,0,0,1150,,,,,11,1.09391667,-64.52293265,1.19458968
TYT,2,0,2024-06-13T14:54:48.301Z,english_536.wav,0,1,1022,,,,,0,0,12.53985852,0.4318111
TYT,2,0,2024-06-13T14:54:48.301Z,english_536.wav,0,1,1022,,,,,1,0.1,21.99103782,1.06422616
TYT,2,0,2024-06-13T14:54:48.301Z,english_536.wav,0,1,1022,,,,,2,0.2,62.33634556,1.97390757
TYT,2,0,2024-06-13T14:54:48.301Z,english_536.wav,0,1,1022,,,,,3,0.3,-74.90025976,0.26817195
TYT,2,0,2024-06-13T14:54:48.301Z,english_536.wav,0,1,1022,,,,,4,0.4,32.85398174,0.16804155
TYT,2,0,2024-06-13T14:54:48.301Z,english_536.wav,0,1,1022,,,,,5,0.5,-33.4537755,0.37593725
TYT,2,0,2024-06-13T14:54:48.301Z,english_536.wav,0,1,1022,,,,,6,0.6,-42.71623429,1.32070102
TYT,2,0,2024-06-13T14:54:48.301Z,english_536.wav,0,1,1022,,,,,7,0.7,-1.00699642,0.04715572
TYT,2,0,2024-06-13T14:54:48.301Z,english_536.wav,0,1,1022,,,,,8,0.8,-25.01596186,1.04948049
TYT,2,0,2024-06-13T14:54:48.301Z,english_536.wav,0,1,1022,,,,,9,0.9,-49.31989542,0.94782972
TYT,2,0,2024-06-13T14:54:48.301Z,english_536.wav,0,1,1022,,,,,10,1,38.02707377,1.69951962
TYT,2,0,2024-06-13T14:54:48.301Z,english_536.wav,0,1,1022,,,,,11,1.09391667,50.96675347,1.16734118
TYT,3,0,2024-06-13T14:54:48.301Z,english_976.wav,0,0,545,,,,,0,0,-7.94823885,1.93996979
TYT,3,0,2024-06-13T14:54:48.301Z,english_976.wav,0,0,545,,,,,1,0.1,96.34184584,0.68967214
TYT,3,0,2024-06-13T14:54:48.301Z,english_976.wav,0,0,545,,,,,2,0.2,-33.68410723,1.52037239
TYT,3,0,2024-06-13T14:54:48.301Z,english_976.wav,0,0,545,,,,,3,0.3,71.00734619,0.92144072
TYT,3,0,2024-06-13T14:54:48.301Z,english_976.wav,0,0,545,,,,,4,0.4,-73.42321757,1.16805043
TYT,3,0,2024-06-13T14:54:48.301Z,english_976.wav,0,0,545,,,,,5,0.5,68.14494718,0.75881772
TYT,3,0,2024-06-13T14:54:48.301Z,english_976.wav,0,0,545,,,,,6,0.6,72.66069131,0.99023479
TYT,3,0,2024-06-13T14:54:48.301Z,english_976.wav,0,0,545,,,,,7,0.7,-46.1327141,1.21750342
TYT,3,0,2024-06-13T14:54:48.301Z,english_976.wav,0,0,545,,,,,8,0.8,-13.93014286,1.7476055
TYT,3,0,2024-06-13T14:54:48.301Z,english_976.wav,0,0,545,,,,,9,0.9,53.41967838,1.87214478
TYT,3,0,2024-06-13T14:54:48.301Z,english_976.wav,0,0,545,,,,,10,1,-12.62377888,0.1004517
TYT,3,0,2024-06-13T14:54:48.301Z,english_976.wav,0,0,545,,,,,11,1.09391667,-9.46767518,1.64660027
TYT,4,0,2024-06-13T14:54:48.301Z,english_204.wav,0,0,822,,,,,0,0,-54.18548322,0.4935822
TYT,4,0,2024-06-13T14:54:48.301Z,english_204.wav,0,0,822,,,,,1,0.1,-11.27218157,1.37686427
TYT,4,0,2024-06-13T14:54:48.301Z,english_204.wav,0,0,822,,,,,2,0.2,57.70913134,1.17627269
TYT,4,0,2024-06-13T14:54:48.301Z,english_204.wav,0,0,822,,,,,3,0.3,-85.27797026,1.14645494
TYT,4,0,2024-06-13T14:54:48.301Z,english_204.wav,0,0,822,,,,,4,0.4,28.61054009,1.61303053
TYT,4,0,2024-06-13T14:54:48.301Z,english_204.wav,0,0,822,,,,,5,0.5,-36.71816677,0.72559221
TYT,4,0,2024-06-13T14:54:48.301Z,english_204.wav,0,0,822,,,,,6,0.6,-27.72446487,1.95000364
TYT,4,0,2024-06-13T14:54:48.301Z,english_204.wav,0,0,822,,,,,7,0.7,14.69142801,0.06695508
TYT,4,0,2024-06-13T14:54:48.301Z,english_204.wav,0,0,822,,,,,8,0.8,9.61746044,1.52094915
TYT,4,0,2024-06-13T14:54:48.301Z,english_204.wav,0,0,822,,,,,9,0.9,22.67127582,0.41034945
TYT,4,0,2024-06-13T14:54:48.301Z,english_204.wav,0,0,822,,,,,10,1,69.36328148,0.4470276
TYT,4,0,2024-06-13T14:54:48.301Z,english_204.wav,0,0,822,,,,,11,1.09391667,-44.4283226,1.93225144
TYT,5,0,2024-06-13T14:54:48.301Z,english_81.wav,0,1,628,,,,,0,0,71.09666265,1.09569192
TYT,5,0,2024-06-13T14:54:48.301Z,english_81.wav,0,1,628,,,,,1,0.1,-38.93956525,1.65684188
TYT,5,0,2024-06-13T14:54:48.301Z,english_81.wav,0,1,628,,,,,2,0.2,-48.61950395,0.44216952
TYT,5,0,2024-06-13T14:54:48.301Z,english_81.wav,0,1,628,,,,,3,0.3,33.39514041,1.72758961
TYT,5,0,2024-06-13T14:54:48.301Z,english_81.wav,0,1,628,,,,,4,0.4,18.24180048,1.46257927
TYT,5,0,2024-06-13T14:54:48.301Z,english_81.wav,0,1,628,,,,,5,0.5,-45.85953695,1.53730542
TYT,5,0,2024-06-13T14:54:48.301Z,english_81.wav,0,1,628,,,,,6,0.6,-0.32699599,1.28818555
TYT,5,0,2024-06-13T14:54:48.301Z,english_81.wav,0,1,628,,,,,7,0.7,-32.78716597,1.19414744
TYT,5,0,2024-06-13T14:54:48.301Z,english_81.wav,0,1,628,,,,,8,0.8,-37.9267269,1.01923165
TYT,5,0,2024-06-13T14:54:48.301Z,english_81.wav,0,1,628,,,,,9,0.9,24.21331247,1.67441048
TYT,5,0,2024-06-13T14:54:48.301Z,english_81.wav,0,1,628,,,,,10,1,-31.33871225,1.88948336
TYT,5,0,2024-06-13T14:54:48.301Z,english_81.wav,0,1,628,,,,,11,1.09391667,-77.74283174,1.81428343
TYT,6,0,2024-06-13T14:54:48.301Z,english_593.wav,0,1,951,,,,,0,0,13.70313969,0.31776168
TYT,6,0,2024-06-13T14:54:48.301Z,english_593.wav,0,1,951,,,,,1,0.1,-26.02533881,1.39381701
TYT,6,0,2024-06-13T14:54:48.301Z,english_593.wav,0,1,951,,,,,2,0.2,50.8702686,0.5191281
TYT,6,0,2024-06-13T14:54:48.301Z,english_593.wav,0,1,951,,,,,3,0.3,26.063803,0.69401342
TYT,6,0,2024-06-13T14:54:48.301Z,english_593.wav,0,1,951,,,,,4,0.4,-79.95092445,0.71717885
TYT,6,0,2024-06-13T14:54:48.301Z,english_593.wav,0,1,951,,,,,5,0.5,-94.01020979,0.74327862
TYT,6,0,2024-06-13T14:54:48.301Z,english_593.wav,0,1,951,,,,,6,0.6,-33.71882566,1.75165486
TYT,6,0,2024-06-13T14:54:48.301Z,english_593.wav,0,1,951,,,,,7,0.7,-16.71092424,0.78541269
TYT,6,0,2024-06-13T14:54:48.301Z,english_593.wav,0,1,951,,,,,8,0.8,-31.84366891,0.5067154
TYT,6,0,2024-06-13T14:54:48.301Z,english_593.wav,0,1,951,,,,,9,0.9,-64.24810633,1.19882101
TYT,6,0,2024-06-13T14:54:48.301Z,english_593.wav,0,1,951,,,,,10,1,73.5130108,0.30708851
TYT,6,0,2024-06-13T14:54:48.301Z,english_593.wav,0,1,951,,,,,11,1.09391667,1.16296444,1.70447125
TYT,7,0,2024-06-13T14:54:48.301Z,english_451.wav,0,1,808,,,,,0,0,-86.97928696,0.12091055
TYT,7,0,2024-06-13T14:54:48.301Z,english_451.wav,0,1,808,,,,,1,0.1,35.46303065,0.11109609
TYT,7,0,2024-06-13T14:54:48.301Z,english_451.wav,0,1,808,,,,,2,0.2,-6.55574904,0.96762463
TYT,7,0,2024-06-13T14:54:48.301Z,english_451.wav,0,1,808,,,,,3,0.3,-70.24481901,0.33361345
TYT,7,0,2024-06-13T14:54:48.301Z,english_451.wav,0,1,808,,,,,4,0.4,-15.3143791,1.63079661
TYT,7,0,2024-06-13T14:54:48.301Z,english_451.wav,0,1,808,,,,,5,0.5,-46.78683141,1.71822711
TYT,7,0,2024-06-13T14:54:48.301Z,english_451.wav,0,1,808,,,,,6,0.6,30.57428638,1.99896141
TYT,7,0,2024-06-13T14:54:48.301Z,english_451.wav,0,1,808,,,,,7,0.7,-51.27590564,1.31564503
TYT,7,0,2024-06-13T14:54:48.301Z,english_451.wav,0,1,808,,,,,8,0.8,-57.45214614,0.39748904
TYT,7,0,2024-06-13T14:54:48.301Z,english_451.wav,0,1,808,,,,,9,0.9,43.47837492,0.70409186
TYT,7,0,2024-06-13T14:54:48.301Z,english_451.wav,0,1,808,,,,,10,1,45.12702561,0.48590378
TYT,7,0,2024-06-13T14:54:48.301Z,english_451.wav,0,1,808,,,,,11,1.09391667,-26.34948453,1.98999714
TYT,8,0,2024-06-13T14:54:48.301Z,english_861.wav,0,1,407,,,,,0,0,25.4501387,1.11165111
TYT,8,0,2024-06-13T14:54:48.301Z,english_861.wav,0,1,407,,,,,1,0.1,63.77188621,1.38930356
TYT,8,0,2024-06-13T14:54:48.301Z,english_861.wav,0,1,407,,,,,2,0.2,8.16107914,0.85763188
TYT,8,0,2024-06-13T14:54:48.301Z,english_861.wav,0,1,407,,,,,3,0.3,41.89997673,0.26479285
TYT,8,0,2024-06-13T14:54:48.301Z,english_861.wav,0,1,407,,,,,4,0.4,-63.53893236,0.36121213
TYT,8,0,2024-06-13T14:54:48.301Z,english_861.wav,0,1,407,,,,,5,0.5,57.74914229,1.75452306
TYT,8,0,2024-06-13T14:54:48.301Z,english_861.wav,0,1,407,,,,,6,0.6,-60.14311181,1.62162149
TYT,8,0,2024-06-13T14:54:48.301Z,english_861.wav,0,1,407,,,,,7,0.7,3.67795544,0.63165878
TYT,8,0,2024-06-13T14:54:48.301Z,english_861.wav,0,1,407,,,,,8,0.8,-80.01439722,0.85751028
TYT,8,0,2024-06-13T14:54:48.301Z,english_861.wav,0,1,407,,,,,9,0.9,-37.7550596,1.51613867
TYT,8,0,2024-06-13T14:54:48.301Z,english_861.wav,0,1,407,,,,,10,1,-13.58281726,1.37338535
TYT,8,0,2024-06-13T14:54:48.301Z,english_861.wav,0,1,407,,,,,11,1.09391667,59.5288882,0.25913333
TYT,9,0,2024-06-13T14:54:48.301Z,english_428.wav,0,1,947,,,,,0,0,81.83092524,1.65195738
TYT,9,0,2024-06-13T14:54:48.301Z,english_428.wav,0,1,947,,,,,1,0.1,-80.13069751,1.50342219
TYT,9,0,2024-06-13T14:54:48.301Z,english_428.wav,0,1,947,,,,,2,0.2,-11.65632902,1.06152039
TYT,9,0,2024-06-13T14:54:48.301Z,english_428.wav,0,1,947,,,,,3,0.3,-46.08084266,0.87273268
TYT,9,0,2024-06-13T14:54:48.301Z,english_428.wav,0,1,947,,,,,4,0.4,3.29741478,1.30041173
TYT,9,0,2024-06-13T14:54:48.301Z,english_428.wav,0,1,947,,,,,5,0.5,38.2144639,1.27181021
TYT,9,0,2024-06-13T14:54:48.301Z,english_428.wav,0,1,947,,,,,6,0.6,-36.34649143,1.2829939
TYT,9,0,2024-06-13T14:54:48.301Z,english_428.wav,0,1,947,,,,,7,0.7,-64.94911042,0.80379216
TYT,9,0,2024-06-13T14:54:48.301Z,english_428.wav,0,1,947,,,,,8,0.8,55.28808141,0.54976242
TYT,9,0,2024-06-13T14:54:48.301Z,english_428.wav,0,1,947,,,,,9,0.9,-85.65631623,1.4846347
TYT,9,0,2024-06-13T14:54:48.301Z,english_428.wav,0,1,947,,,,,10,1,45.03584187,0.86531381
TYT,9,0,2024-06-13T14:54:48.301Z,english_428.wav,0,1,947,,,,,11,1.09391667,-22.28745039,0.63375774
TYT,10,0,2024-06-13T14:54:48.301Z,english_834.wav,0,1,673,,,,,0,0,-86.16375599,1.62153397
TYT,10,0,2024-06-13T14:54:48.301Z,english_834.wav,0,1,673,,,,,1,0.1,-22.09919923,1.42577166
TYT,10,0,2024-06-13T14:54:48.301Z,english_834.wav,0,1,673,,,,,2,0.2,63.82090938,1.22840095
TYT,10,0,2024-06-13T14:54:48.301Z,english_834.wav,0,1,673,,,,,3,0.3,38.26115817,1.977843
TYT,10,0,2024-06-13T14:54:48.301Z,english_834.wav,0,1,673,,,,,4,0.4,15.19654457,0.63466945
TYT,10,0,2024-06-13T14:54:48.301Z,english_834.wav,0,1,673,,,,,5,0.5,78.054871,1.94429469
TYT,10,0,2024-06-13T14:54:48.301Z,english_834.wav,0,1,673,,,,,6,0.6,63.1081572,0.531594
TYT,10,0,2024-06-13T14:54:48.301Z,english_834.wav,0,1,673,,,,,7,0.7,43.43236214,1.34157161
TYT,10,0,2024-06-13T14:54:48.301Z,english_834.wav,0,1,673,,,,,8,0.8,-74.3897683,1.32269287
TYT,10,0,2024-06-13T14:54:48.301Z,english_834.wav,0,1,673,,,,,9,0.9,40.24285486,1.75386624
TYT,10,0,2024-06-13T14:54:48.301Z,english_834.wav,0,1,673,,,,,10,1,-67.71571624,1.01238939
TYT,10,0,2024-06-13T14:54:48.301Z,english_834.wav,0,1,673,,,,,11,1.09391667,40.03958616,1.44306133
TYT,11,0,2024-06-13T14:54:48.301Z,english_447.wav,0,0,552,,,,,0,0,-49.70124271,1.81391456
TYT,11,0,2024-06-13T14:54:48.301Z,english_447.wav,0,0,552,,,,,1,0.1,6.80747638,1.91818371
TYT,11,0,2024-06-13T14:54:48.301Z,english_447.wav,0,0,552,,,,,2,0.2,78.85711307,1.77045116
TYT,11,0,2024-06-13T14:54:48.301Z,english_447.wav,0,0,552,,,,,3,0.3,58.81086859,1.59965973
TYT,11,0,2024-06-13T14:54:48.301Z,english_447.wav,0,0,552,,,,,4,0.4,-4.36201374,1.21262432
TYT,11,0,2024-06-13T14:54:48.301Z,english_447.wav,0,0,552,,,,,5,0.5,-19.70745175,1.80283693
TYT,11,0,2024-06-13T14:54:48.301Z,english_447.wav,0,0,552,,,,,6,0.6,5.54500097,0.57888703
TYT,11,0,2024-06-13T14:54:48.301Z,english_447.wav,0,0,552,,,,,7,0.7,-73.03933833,0.47461482
TYT,11,0,2024-06-13T14:54:48.301Z,english_447.wav,0,0,552,,,,,8,0.8,-20.453142,0.56581151
TYT,11,0,2024-06-13T14:54:48.301Z,english_447.wav,0,0,552,,,,,9,0.9,9.14360097,0.85442376
TYT,11,0,2024-06-13T14:54:48.301Z,english_447.wav,0,0,552,,,,,10,1,-42.46591072,0.56057863
TYT,11,0,2024-06-13T14:54:48.301Z,english_447.wav,0,0,552,,,,,11,1.09391667,3.646082,1.46752368
TYT,12,0,2024-06-13T14:54:48.301Z,english_268.wav,0,0,693,,,,,0,0,-10.36348141,0.34238631
TYT,12,0,2024-06-13T14:54:48.301Z,english_268.wav,0,0,693,,,,,1,0.1,83.25825445,0.93968033
TYT,12,0,2024-06-13T14:54:48.301Z,english_268.wav,0,0,693,,,,,2,0.2,90.11608715,0.03117119
TYT,12,0,2024-06-13T14:54:48.301Z,english_268.wav,0,0,693,,,,,3,0.3,32.1996215,0.99400779
TYT,12,0,2024-06-13T14:54:48.301Z,english_268.wav,0,0,693,,,,,4,0.4,8.976783,0.56090086
TYT,12,0,2024-06-13T14:54:48.301Z,english_268.wav,0,0,693,,,,,5,0.5,-6.95203106,0.18644764
TYT,12,0,2024-06-13T14:54:48.301Z,english_268.wav,0,0,693,,,,,6,0.6,67.82169398,1.05098713
TYT,12,0,2024-06-13T14:54:48.301Z,english_268.wav,0,0,693,,,,,7,0.7,50.85858074,0.33151379
TYT,12,0,2024-06-13T14:54:48.301Z,english_268.wav,0,0,693,,,,,8,0.8,11.07143565,0.1498151
TYT,12,0,2024-06-13T14:54:48.301Z,english_268.wav,0,0,693,,,,,9,0.9,40.44499652,0.7130759
TYT,12,0,2024-06-13T14:54:48.301Z,english_268.wav,0,0,693,,,,,10,1,87.615801,0.85732073
TYT,12,0,2024-06-13T14:54:48.301Z,english_268.wav,0,0,693,,,,,11,1.09391667,-54.91088926,1.8995277
TYT,13,0,2024-06-13T14:54:48.301Z,english_324.wav,0,1,684,,,,,0,0,17.54140289,0.28643924
TYT,13,0,2024-06-13T14:54:48.301Z,english_324.wav,0,1,684,,,,,1,0.1,71.06846472,0.89310243
TYT,13,0,2024-06-13T14:54:48.301Z,english_324.wav,0,1,684,,,,,2,0.2,-58.0756972,0.19434283
TYT,13,0,2024-06-13T14:54:48.301Z,english_324.wav,0,1,684,,,,,3,0.3,21.96350357,1.40300385
TYT,13,0,2024-06-13T14:54:48.301Z,english_324.wav,0,1,684,,,,,4,0.4,8.51736718,0.22031138
TYT,13,0,2024-06-13T14:54:48.301Z,english_324.wav,0,1,684,,,,,5,0.5,54.10034556,1.10087032
TYT,13,0,2024-06-13T14:54:48.301Z,english_324.wav,0,1,684,,,,,6,0.6,-45.23490782,0.61239123
TYT,13,0,2024-06-13T14:54:48.301Z,english_324.wav,0,1,684,,,,,7,0.7,-47.50195247,0.50887139
TYT,13,0,2024-06-13T14:54:48.301Z,english_324.wav,0,1,684,,,,,8,0.8,90.23201078,1.93720132
TYT,13,0,2024-06-13T14:54:48.301Z,english_324.wav,0,1,684,,,,,9,0.9,-25.79699052,1.9219801
TYT,13,0,2024-06-13T14:54:48.301Z,english_324.wav,0,1,684,,,,,10,1,-46.49971987,0.58550327
TYT,13,0,2024-06-13T14:54:48.301Z,english_324.wav,0,1,684,,,,,11,1.09391667,53.98083149,0.44963146
TYT,14,0,2024-06-13T14:54:48.301Z,english_822.wav,0,0,875,,,,,0,0,-57.24532264,1.07162112
TYT,14,0,2024-06-13T14:54:48.301Z,english_822.wav,0,0,875,,,,,1,0.1,-0.6561153,1.88043926
TYT,14,0,2024-06-13T14:54:48.301Z,english_822.wav,0,0,875,,,,,2,0.2,20.41316559,0.90199971
TYT,14,0,2024-06-13T14:54:48.301Z,english_822.wav,0,0,875,,,,,3,0.3,41.70802905,0.26893632
TYT,14,0,2024-06-13T14:54:48.301Z,english_822.wav,0,0,875,,,,,4,0.4,-77.9443686,1.26571685
TYT,14,0,2024-06-13T14:54:48.301Z,english_822.wav,0,0,875,,,,,5,0.5,63.06825284,1.37105199
TYT,14,0,2024-06-13T14:54:48.301Z,english_822.wav,0,0,875,,,,,6,0.6,-26.82945761,1.3296767
TYT,14,0,2024-06-13T14:54:48.301Z,english_822.wav,0,0,875,,,,,7,0.7,-92.61277401,1.89258001
TYT,14,0,2024-06-13T14:54:48.301Z,english_822.wav,0,0,875,,,,,8,0.8,-55.75237854,1.15705119
TYT,14,0,2024-06-13T14:54:48.301Z,english_822.wav,0,0,875,,,,,9,0.9,-53.36958595,0.11001008
TYT,14,0,2024-06-13T14:54:48.301Z,english_822.wav,0,0,875,,,,,10,1,65.67162204,0.72053282
TYT,14,0,2024-06-13T14:54:48.301Z,english_822.wav,0,0,875,,,,,11,1.09391667,97.68319671,1.63006682
TYT,15,0,2024-06-13T14:54:48.301Z,english_304.wav,0,1,860,,,,,0,0,96.43315713,1.4273089
TYT,15,0,2024-06-13T14:54:48.301Z,english_304.wav,0,1,860,,,,,1,0.1,95.93138412,1.40169358
TYT,15,0,2024-06-13T14:54:48.301Z,english_304.wav,0,1,860,,,,,2,0.2,65.83383482,1.37134036
TYT,15,0,2024-06-13T14:54:48.301Z,english_304.wav,0,1,860,,,,,3,0.3,84.09537744,0.09577365
TYT,15,0,2024-06-13T14:54:48.301Z,english_304.wav,0,1,860,,,,,4,0.4,-66.2474925,1.82897854
TYT,15,0,2024-06-13T14:54:48.301Z,english_304.wav,0,1,860,,,,,5,0.5,93.4095627,0.08231512
TYT,15,0,2024-06-13T14:54:48.301Z,english_304.wav,0,1,860,,,,,6,0.6,-1.11643,0.16260787
TYT,15,0,2024-06-13T14:54:48.301Z,english_304.wav,0,1,860,,,,,7,0.7,-9.86041812,1.3997004
TYT,15,0,2024-06-13T14:54:48.301Z,english_304.wav,0,1,860,,,,,8,0.8,-26.38054207,0.11489059
TYT,15,0,2024-06-13T14:54:48.301Z,english_304.wav,0,1,860,,,,,9,0.9,9.25483922,1.90722294
TYT,15,0,2024-06-13T14:54:48.301Z,english_304.wav,0,1,860,,,,,10,1,-76.37569973,1.30374267
TYT,15,0,2024-06-13T14:54:48.301Z,english_304.wav,0,1,860,,,,,11,1.09391667,-10.54226117,1.55839178
TYT,16,0,2024-06-13T14:54:48.301Z,english_218.wav,0,0,1021,,,,,0,0,-28.20463256,0.06975638
TYT,16,0,2024-06-13T14:54:48.301Z,english_218.wav,0,0,1021,,,,,1,0.1,-75.86656262,1.24902799
TYT,16,0,2024-06-13T14:54:48.301Z,english_218.wav,0,0,1021,,,,,2,0.2,78.51568347,0.38757705
TYT,16,0,2024-06-13T14:54:48.301Z,english_218.wav,0,0,1021,,,,,3,0.3,-67.19866651,1.18680549
TYT,16,0,2024-06-13T14:54:48.301Z,english_218.wav,0,0,1021,,,,,4,0.4,-11.47483433,1.20454768
TYT,16,0,2024-06-13T14:54:48.301Z,english_218.wav,0,0,1021,,,,,5,0.5,-96.34493339,0.70131962
TYT,16,0,2024-06-13T14:54:48.301Z,english_218.wav,0,0,1021,,,,,6,0.6,71.58709959,0.25791663
TYT,16,0,2024-06-13T14:54:48.301Z,english_218.wav,0,0,1021,,,,,7,0.7,-9.8928997,0.10961417
TYT,16,0,2024-06-13T14:54:48.301Z,english_218.wav,0,0,1021,,,,,8,0.8,-1.71040265,1.17923692
TYT,16,0,2024-06-13T14:54:48.301Z,english_218.wav,0,0,1021,,,,,9,0.9,46.05003014,0.25195767
TYT,16,0,2024-06-13T14:54:48.301Z,english_218.wav,0,0,1021,,,,,10,1,-54.51031069,1.75432787
TYT,16,0,2024-06-13T14:54:48.301Z,english_218.wav,0,0,1021,,,,,11,1.09391667,-36.41626056,1.27588471
TYT,17,0,2024-06-13T14:54:48.301Z,english_149.wav,0,1,1224,,,,,0,0,-53.20573735,0.95670134
TYT,17,0,2024-06-13T14:54:48.301Z,english_149.wav,0,1,1224,,,,,1,0.1,-90.4921868,0.5519459
TYT,17,0,2024-06-13T14:54:48.301Z,english_149.wav,0,1,1224,,,,,2,0.2,-21.57127114,0.68228705
TYT,17,0,2024-06-13T14:54:48.301Z,english_149.wav,0,1,1224,,,,,3,0.3,-29.49661343,0.40950451
TYT,17,0,2024-06-13T14:54:48.301Z,english_149.wav,0,1,1224,,,,,4,0.4,-77.75712455,1.98655192
TYT,17,0,2024-06-13T14:54:48.301Z,english_149.wav,0,1,1224,,,,,5,0.5,-23.65011592,0.22349442
TYT,17,0,2024-06-13T14:54:48.301Z,english_149.wav,0,1,1224,,,,,6,0.6,-4.31853851,1.34559787
TYT,17,0,2024-06-13T14:54:48.301Z,english_149.wav,0,1,1224,,,,,7,0.7,95.2447513,0.78513236
TYT,17,0,2024-06-13T14:54:48.301Z,english_149.wav,0,1,1224,,,,,8,0.8,-64.13043019,1.81674813
TYT,17,0,2024-06-13T14:54:48.301Z,english_149.wav,0,1,1224,,,,,9,0.9,20.09083708,1.85324621
TYT,17,0,2024-06-13T14:54:48.301Z,english_149.wav,0,1,1224,,,,,10,1,47.07706549,1.9199937
TYT,17,0,2024-06-13T14:54:48.301Z,english_149.wav,0,1,1224,,,,,11,1.09391667,-54.30871038,0.6097093
TYT,18,0,2024-06-13T14:54:48.301Z,english_264.wav,0,0,807,,,,,0,0,-7.97071304,0.52584892
TYT,18,0,2024-06-13T14:54:48.301Z,english_264.wav,0,0,807,,,,,1,0.1,5.26810794,0.35098417
TYT,18,0,2024-06-13T14:54:48.301Z,english_264.wav,0,0,807,,,,,2,0.2,42.90180093,0.87826506
TYT,18,0,2024-06-13T14:54:48.301Z,english_264.wav,0,0,807,,,,,3,0.3,32.54664666,0.85267403
TYT,18,0,2024-06-13T14:54:48.301Z,english_264.wav,0,0,807,,,,,4,0.4,-75.33920427,0.05665148
TYT,18,0,2024-06-13T14:54:48.301Z,english_264.wav,0,0,807,,,,,5,0.5,-92.87225366,0.902019
TYT,18,0,2024-06-13T14:54:48.301Z,english_264.wav,0,0,807,,,,,6,0.6,1.54584209,0.36999328
TYT,18,0,2024-06-13T14:54:48.301Z,english_264.wav,0,0,807,,,,,7,0.7,-61.85301996,1.87523396
TYT,18,0,2024-06-13T14:54:48.301Z,english_264.wav,0,0,807,,,,,8,0.8,-59.27209487,0.99775271
TYT,18,0,2024-06-13T14:54:48.301Z,english_264.wav,0,0,807,,,,,9,0.9,-3.4044868,0.18460265
TYT,18,0,2024-06-13T14:54:48.301Z,english_264.wav,0,0,807,,,,,10,1,20.29119999,0.05992377
TYT,18,0,2024-06-13T14:54:48.301Z,english_264.wav,0,0,807,,,,,11,1.09391667,76.66199878,1.79844018
TYT,19,0,2024-06-13T14:54:48.301Z,english_49.wav,0,1,1142,,,,,0,0,-7.77522682,0.84923144
TYT,19,0,2024-06-13T14:54:48.301Z,english_49.wav,0,1,1142,,,,,1,0.1,-69.00488143,0.33119372
TYT,19,0,2024-06-13T14:54:48.301Z,english_49.wav,0,1,1142,,,,,2,0.2,56.47558832,1.22070051
TYT,19,0,2024-06-13T14:54:48.301Z,english_49.wav,0,1,1142,,,,,3,0.3,47.73828653,0.09401361
TYT,19,0,2024-06-13T14:54:48.301Z,english_49.wav,0,1,1142,,,,,4,0.4,-58.74936134,0.13758585
TYT,19,0,2024-06-13T14:54:48.301Z,english_49.wav,0,1,1142,,,,,5,0.5,-16.00930073,1.02104263
TYT,19,0,2024-06-13T14:54:48.301Z,english_49.wav,0,1,1142,,,,,6,0.6,68.77090309,1.27727042
TYT,19,0,2024-06-13T14:54:48.301Z,english_49.wav,0,1,1142,,,,,7,0.7,47.28501738,0.65680798
TYT,19,0,2024-06-13T14:54:48.301Z,english_49.wav,0,1,1142,,,,,8,0.8,-26.83696642,1.41824482
TYT,19,0,2024-06-13T14:54:48.301Z,english_49.wav,0,1,1142,,,,,9,0.9,16.45883289,0.73136625
TYT,19,0,2024-06-13T14:54:48.301Z,english_49.wav,0,1,1142,,,,,10,1,-23.79769264,0.31271595
TYT,19,0,2024-06-13T14:54:48.301Z,english_49.wav,0,1,1142,,,,,11,1.09391667,62.62161118,0.15435739
TYT,20,0,2024-06-13T14:54:48.301Z,english_674.wav,0,0,610,,,,,0,0,-98.04630788,1.00959277
TYT,20,0,2024-06-13T14:54:48.301Z,english_674.wav,0,0,610,,,,,1,0.1,-67.7388386,1.32906917
TYT,20,0,2024-06-13T14:54:48.301Z,english_674.wav,0,0,610,,,,,2,0.2,42.66102915,0.34524669
TYT,20,0,2024-06-13T14:54:48.301Z,english_674.wav,0,0,610,,,,,3,0.3,-47.4601568,1.53911224
TYT,20,0,2024-06-13T14:54:48.301Z,english_674.wav,0,0,610,,,,,4,0.4,19.12628611,0.37006092
TYT,20,0,2024-06-13T14:54:48.301Z,english_674.wav,0,0,610,,,,,5,0.5,-84.54204909,0.51745569
TYT,20,0,2024-06-13T14:54:48.301Z,english_674.wav,0,0,610,,,,,6,0.6,-71.85903786,0.24033901
TYT,20,0,2024-06-13T14:54:48.301Z,english_674.wav,0,0,610,,,,,7,0.7,83.31217322,0.56180337
TYT,20,0,2024-06-13T14:54:48.301Z,english_674.wav,0,0,610,,,,,8,0.8,-12.56030822,0.37273026
TYT,20,0,2024-06-13T14:54:48.301Z,english_674.wav,0,0,610,,,,,9,0.9,2.8176003,0.28626573
TYT,20,0,2024-06-13T14:54:48.301Z,english_674.wav,0,0,610,,,,,10,1,36.77486132,1.87627127
TYT,20,0,2024-06-13T14:54:48.301Z,english_674.wav,0,0,610,,,,,11,1.09391667,32.03385029,1.91315754
TYT,21,0,2024-06-13T14:54:48.301Z,english_294.wav,0,1,1698,,,,,0,0,-35.26170476,0.76895084
TYT,21,0,2024-06-13T14:54:48.301Z,english_294.wav,0,1,1698,,,,,1,0.1,-68.79847515,0.42345848
TYT,21,0,2024-06-13T14:54:48.301Z,english_294.wav,0,1,1698,,,,,2,0.2,21.65443345,1.88759315
TYT,21,0,2024-06-13T14:54:48.301Z,english_294.wav,0,1,1698,,,,,3,0.3,18.61336719,0.20743541
TYT,21,0,2024-06-13T14:54:48.301Z,english_294.wav,0,1,1698,,,,,4,0.4,29.14118392,0.10193981
TYT,21,0,2024-06-13T14:54:48.301Z,english_294.wav,0,1,1698,,,,,5,0.5,-0.79474297,0.31438326
TYT,21,0,2024-06-13T14:54:48.301Z,english_294.wav,0,1,1698,,,,,6,0.6,-83.10715175,1.2995954
TYT,21,0,2024-06-13T14:54:48.301Z,english_294.wav,0,1,1698,,,,,7,0.7,-22.63410673,1.94703728
TYT,21,0,2024-06-13T14:54:48.301Z,english_294.wav,0,1,1698,,,,,8,0.8,-21.26415856,0.92366458
TYT,21,0,2024-06-13T14:54:48.301Z,english_294.wav,0,1,1698,,,,,9,0.9,47.90727918,1.04223302
TYT,21,0,2024-06-13T14:54:48.301Z,english_294.wav,0,1,1698,,,,,10,1,-39.88232682,1.01801331
TYT,21,0,2024-06-13T14:54:48.301Z,english_294.wav,0,1,1698,,,,,11,1.09391667,-74.09279353,0.911147
TYT,22,0,2024-06-13T14:54:48.301Z,english_959.wav,0,1,807,,,,,0,0,-72.11702721,0.58402208
TYT,22,0,2024-06-13T14:54:48.301Z,english_959.wav,0,1,807,,,,,1,0.1,-40.70802273,1.62475599
TYT,22,0,2024-06-13T14:54:48.301Z,english_959.wav,0,1,807,,,,,2,0.2,87.64553822,1.65188883
TYT,22,0,2024-06-13T14:54:48.301Z,english_959.wav,0,1,807,,,,,3,0.3,-48.2331893,0.55484279
TYT,22,0,2024-06-13T14:54:48.301Z,english_959.wav,0,1,807,,,,,4,0.4,-95.5440406,0.6061604
TYT,22,0,2024-06-13T14:54:48.301Z,english_959.wav,0,1,807,,,,,5,0.5,59.94111347,1.49451004
TYT,22,0,2024-06-13T14:54:48.301Z,english_959.wav,0,1,807,,,,,6,0.6,91.02979874,0.05914992
TYT,22,0,2024-06-13T14:54:48.301Z,english_959.wav,0,1,807,,,,,7,0.7,19.11555726,1.4845686
TYT,22,0,2024-06-13T14:54:48.301Z,english_959.wav,0,1,807,,,,,8,0.8,75.67996803,1.97323442
TYT,22,0,2024-06-13T14:54:48.301Z,english_959.wav,0,1,807,,,,,9,0.9,92.01217726,0.84762709
TYT,22,0,2024-06-13T14:54:48.301Z,english_959.wav,0,1,807,,,,,10,1,-10.30028839,0.74785562
TYT,22,0,2024-06-13T14:54:48.301Z,english_959.wav,0,1,807,,,,,11,1.09391667,-99.09748483,1.91422779
TYT,23,0,2024-06-13T14:54:48.301Z,english_857.wav,0,1,895,,,,,0,0,-56.93168928,1.92395656
TYT,23,0,2024-06-13T14:54:48.301Z,english_857.wav,0,1,895,,,,,1,0.1,-40.57515649,1.41156549
TYT,23,0,2024-06-13T14:54:48.301Z,english_857.wav,0,1,895,,,,,2,0.2,-26.26283105,0.14185194
TYT,23,0,2024-06-13T14:54:48.301Z,english_857.wav,0,1,895,,,,,3,0.3,-49.62797955,1.1985334
TYT,23,0,2024-06-13T14:54:48.301Z,english_857.wav,0,1,895,,,,,4,0.4,47.07146778,0.83326814
TYT,23,0,2024-06-13T14:54:48.301Z,english_857.wav,0,1,895,,,,,5,0.5,-96.41882062,0.71224123
TYT,23,0,2024-06-13T14:54:48.301Z,english_857.wav,0,1,895,,,,,6,0.6,63.09662026,1.58040322
TYT,23,0,2024-06-13T14:54:48.301Z,english_857.wav,0,1,895,,,,,7,0.7,98.67053018,1.02327595
TYT,23,0,2024-06-13T14:54:48.301Z,english_857.wav,0,1,895,,,,,8,0.8,-56.85749065,1.48703987
TYT,23,0,2024-06-13T14:54:48.301Z,english_857.wav,0,1,895,,,,,9,0.9,-18.03690135,0.70290333
TYT,23,0,2024-06-13T14:54:48.301Z,english_857.wav,0,1,895,,,,,10,1,52.13097753,0.53460392
TYT,23,0,2024-06-13T14:54:48.301Z,english_857.wav,0,1,895,,,,,11,1.09391667,52.54650928,1.10851945
TYT,24,0,2024-06-13T14:54:48.301Z,english_335.wav,0,0,385,,,,,0,0,41.80743468,1.01381682
TYT,24,0,2024-06-13T14:54:48.301Z,english_335.wav,0,0,385,,,,,1,0.1,-95.17376615,1.5620604
TYT,24,0,2024-06-13T14:54:48.301Z,english_335.wav,0,0,385,,,,,2,0.2,39.98208272,0.19265383
TYT,24,0,2024-06-13T14:54:48.301Z,english_335.wav,0,0,385,,,,,3,0.3,-46.35703256,1.42247653
TYT,24,0,2024-06-13T14:54:48.301Z,english_335.wav,0,0,385,,,,,4,0.4,24.82145544,0.70328136
TYT,24,0,2024-06-13T14:54:48.301Z,english_335.wav,0,0,385,,,,,5,0.5,-31.00133873,1.01966488
TYT,24,0,2024-06-13T14:54:48.301Z,english_335.wav,0,0,385,,,,,6,0.6,-26.38344945,1.23451824
TYT,24,0,2024-06-13T14:54:48.301Z,english_335.wav,0,0,385,,,,,7,0.7,86.60347,0.55082158
TYT,24,0,2024-06-13T14:54:48.301Z,english_335.wav,0,0,385,,,,,8,0.8,-70.37080157,0.451758
TYT,24,0,2024-06-13T14:54:48.301Z,english_335.wav,0,0,385,,,,,9,0.9,61.18063824,0.68398752
TYT,24,0,2024-06-13T14:54:48.301Z,english_335.wav,0,0,385,,,,,10,1,-30.21404124,0.79476381
TYT,24,0,2024-06-13T14:54:48.301Z,english_335.wav,0,0,385,,,,,11,1.09391667,-36.90555067,1.69556673
TYT,25,0,2024-06-13T14:54:48.301Z,english_8.wav,0,0,507,,,,,0,0,-40.69746503,1.91325818
TYT,25,0,2024-06-13T14:54:48.301Z,english_8.wav,0,0,507,,,,,1,0.1,-2.63283103,0.20995582
TYT,25,0,2024-06-13T14:54:48.301Z,english_8.wav,0,0,507,,,,,2,0.2,5.50551206,1.37536133
TYT,25,0,2024-06-13T14:54:48.301Z,english_8.wav,0,0,507,,,,,3,0.3,17.73685221,1.26994408
TYT,25,0,2024-06-13T14:54:48.301Z,english_8.wav,0,0,507,,,,,4,0.4,-9.16902595,1.33651222
TYT,25,0,2024-06-13T14:54:48.301Z,english_8.wav,0,0,507,,,,,5,0.5,-34.7445518,1.4592859
TYT,25,0,2024-06-13T14:54:48.301Z,english_8.wav,0,0,507,,,,,6,0.6,-48.45099415,0.38968971
TYT,25,0,2024-06-13T14:54:48.301Z,english_8.wav,0,0,507,,,,,7,0.7,77.2460415,0.19810868
TYT,25,0,2024-06-13T14:54:48.301Z,english_8.wav,0,0,507,,,,,8,0.8,-58.60489112,0.97081537
TYT,25,0,2024-06-13T14:54:48.301Z,english_8.wav,0,0,507,,,,,9,0.9,-48.13629471,0.35861069
TYT,25,0,2024-06-13T14:54:48.301Z,english_8.wav,0,0,507,,,,,10,1,56.51883775,1.51205719
TYT,25,0,2024-06-13T14:54:48.301Z,english_8.wav,0,0,507,,,,,11,1.09391667,-41.21742626,0.71101002
TYT,26,0,2024-06-13T14:54:48.301Z,english_394.wav,0,1,1104,,,,,0,0,-15.73952497,0.37404547
TYT,26,0,2024-06-13T14:54:48.301Z,english_394.wav,0,1,1104,,,,,1,0.1,-72.53875874,0.74662783
TYT,26,0,2024-06-13T14:54:48.301Z,english_394.wav,0,1,1104,,,,,2,0.2,-2.77448658,0.09869687
TYT,26,0,2024-06-13T14:54:48.301Z,english_394.wav,0,1,1104,,,,,3,0.3,-34.13929652,0.4926167
TYT,26,0,2024-06-13T14:54:48.301Z,english_394.wav,0,1,1104,,,,,4,0.4,98.89455917,0.88094357
TYT,26,0,2024-06-13T14:54:48.301Z,english_394.wav,0,1,1104,,,,,5,0.5,92.17283268,1.74845503
TYT,26,0,2024-06-13T14:54:48.301Z,english_394.wav,0,1,1104,,,,,6,0.6,57.90330337,0.56104095
TYT,26,0,2024-06-13T14:54:48.301Z,english_394.wav,0,1,1104,,,,,7,0.7,42.86143517,1.17773509
TYT,26,0,2024-06-13T14:54:48.301Z,english_394.wav,0,1,1104,,,,,8,0.8,-24.72366611,1.30676371
TYT,26,0,2024-06-13T14:54:48.301Z,english_394.wav,0,1,1104,,,,,9,0.9,1.80991862,0.02013397
TYT,26,0,2024-06-13T14:54:48.301Z,english_394.wav,0,1,1104,,,,,10,1,-3.52242486,1.86341361
TYT,26,0,2024-06-13T14:54:48.301Z,english_394.wav,0,1,1104,,,,,11,1.09391667,-17.84344946,0.37928015
TYT,27,0,2024-06-13T14:54:48.301Z,english_313.wav,0,1,710,,,,,0,0,-22.0180916,0.52298953
TYT,27,0,2024-06-13T14:54:48.301Z,english_313.wav,0,1,710,,,,,1,0.1,96.16831441,0.58043298
TYT,27,0,2024-06-13T14:54:48.301Z,english_313.wav,0,1,710,,,,,2,0.2,-45.33444961,0.43861373
TYT,27,0,2024-06-13T14:54:48.301Z,english_313.wav,0,1,710,,,,,3,0.3,-30.76295123,0.29063093
TYT,27,0,2024-06-13T14:54:48.301Z,english_313.wav,0,1,710,,,,,4,0.4,27.42080434,1.23880448
TYT,27,0,2024-06-13T14:54:48.301Z,english_313.wav,0,1,710,,,,,5,0.5,96.50313713,0.08705859
TYT,27,0,2024-06-13T14:54:48.301Z,english_313.wav,0,1,710,,,,,6,0.6,-0.94763764,1.32086894
TYT,27,0,2024-06-13T14:54:48.301Z,english_313.wav,0,1,710,,,,,7,0.7,67.04457313,1.2914561
TYT,27,0,2024-06-13T14:54:48.301Z,english_313.wav,0,1,710,,,,,8,0.8,2.6862445,0.44865702
TYT,27,0,2024-06-13T14:54:48.301Z,english_313.wav,0,1,710,,,,,9,0.9,47.07555832,1.89388378
TYT,27,0,2024-06-13T14:54:48.301Z,english_313.wav,0,1,710,,,,,10,1,-32.41079138,1.69735018
TYT,27,0,2024-06-13T14:54:48.301Z,english_313.wav,0,1,710,,,,,11,1.09391667,11.15794631,1.75721469
TYT,28,0,2024-06-13T14:54:48.301Z,english_299.wav,0,1,356,,,,,0,0,-74.4174694,1.88606728
TYT,28,0,2024-06-13T14:54:48.301Z,english_299.wav,0,1,356,,,,,1,0.1,67.95279973,1.33791825
TYT,28,0,2024-06-13T14:54:48.301Z,english_299.wav,0,1,356,,,,,2,0.2,-39.20846612,1.49728268
TYT,28,0,2024-06-13T14:54:48.301Z,english_299.wav,0,1,356,,,,,3,0.3,75.10442899,0.10286405
TYT,28,0,2024-06-13T14:54:48.301Z,english_299.wav,0,1,356,,,,,4,0.4,64.17156696,0.88852199
TYT,28,0,2024-06-13T14:54:48.301Z,english_299.wav,0,1,356,,,,,5,0.5,-42.38450544,0.77437708
TYT,28,0,2024-06-13T14:54:48.301Z,english_299.wav,0,1,356,,,,,6,0.6,-86.29317574,1.38211023
TYT,28,0,2024-06-13T14:54:48.301Z,english_299.wav,0,1,356,,,,,7,0.7,11.40905892,1.00427558
TYT,28,0,2024-06-13T14:54:48.301Z,english_299.wav,0,1,356,,,,,8,0.8,13.2984643,1.53256025
TYT,28,0,2024-06-13T14:54:48.301Z,english_299.wav,0,1,356,,,,,9,0.9,-36.56440039,1.00789046
TYT,28,0,2024-06-13T14:54:48.301Z,english_299.wav,0,1,356,,,,,10,1,-93.57212319,0.84413966
TYT,28,0,2024-06-13T14:54:48.301Z,english_299.wav,0,1,356,,,,,11,1.09391667,13.37429031,1.54480909
TYT,29,0,2024-06-13T14:54:48.301Z,english_133.wav,0,1,603,,,,,0,0,10.63343709,0.76476464
TYT,29,0,2024-06-13T14:54:48.301Z,english_133.wav,0,1,603,,,,,1,0.1,24.84890696,1.29515793
TYT,29,0,2024-06-13T14:54:48.301Z,english_133.wav,0,1,603,,,,,2,0.2,-34.79554397,1.91673142
TYT,29,0,2024-06-13T14:54:48.301Z,english_133.wav,0,1,603,,,,,3,0.3,-18.60172977,1.0879203
TYT,29,0,2024-06-13T14:54:48.301Z,english_133.wav,0,1,603,,,,,4,0.4,-98.89022724,1.20589026
TYT,29,0,2024-06-13T14:54:48.301Z,english_133.wav,0,1,603,,,,,5,0.5,23.30800479,1.56284498
TYT,29,0,2024-06-13T14:54:48.301Z,english_133.wav,0,1,603,,,,,6,0.6,30.70048396,0.05267283
TYT,29,0,2024-06-13T14:54:48.301Z,english_133.wav,0,1,603,,,,,7,0.7,-76.25426305,1.08371144
TYT,29,0,2024-06-13T14:54:48.301Z,english_133.wav,0,1,603,,,,,8,0.8,14.35819181,0.48506717
TYT,29,0,2024-06-13T14:54:48.301Z,english_133.wav,0,1,603,,,,,9,0.9,-62.19404817,1.72104901
TYT,29,0,2024-06-13T14:54:48.301Z,english_133.wav,0,1,603,,,,,10,1,77.39529663,1.20839478
TYT,29,0,2024-06-13T14:54:48.301Z,english_133.wav,0,1,603,,,,,11,1.09391667,16.52655074,0.51907939
TYT,30,0,2024-06-13T14:54:48.301Z,english_227.wav,0,1,435,,,,,0,0,87.02540196,1.45120071
TYT,30,0,2024-06-13T14:54:48.301Z,english_227.wav,0,1,435,,,,,1,0.1,-87.16855408,1.99718195
TYT,30,0,2024-06-13T14:54:48.301Z,english_227.wav,0,1,435,,,,,2,0.2,13.6128173,0.6126104
TYT,30,0,2024-06-13T14:54:48.301Z,english_227.wav,0,1,435,,,,,3,0.3,25.59592298,0.97530447
TYT,30,0,2024-06-13T14:54:48.301Z,english_227.wav,0,1,435,,,,,4,0.4,3.06661623,1.74861281
TYT,30,0,2024-06-13T14:54:48.301Z,english_227.wav,0,1,435,,,,,5,0.5,-6.41872275,1.95931784
TYT,30,0,2024-06-13T14:54:48.301Z,english_227.wav,0,1,435,,,,,6,0.6,-40.97922684,1.44262054
TYT,30,0,2024-06-13T14:54:48.301Z,english_227.wav,0,1,435,,,,,7,0.7,-51.74632522,0.76385193
TYT,30,0,2024-06-13T14:54:48.301Z,english_227.wav,0,1,435,,,,,8,0.8,-35.50720635,0.83123806
TYT,30,0,2024-06-13T14:54:48.301Z,english_227.wav,0,1,435,,,,,9,0.9,-52.46041148,1.0121191
TYT,30,0,2024-06-13T14:54:48.301Z,english_227.wav,0,1,435,,,,,10,1,-5.55255579,1.39124165
TYT,30,0,2024-06-13T14:54:48.301Z,english_227.wav,0,1,435,,,,,11,1.09391667,92.65490635,1.37791309
TYT,31,0,2024-06-13T14:54:48.301Z,english_333.wav,0,1,447,,,,,0,0,-77.09264939,1.23191038
TYT,31,0,2024-06-13T14:54:48.301Z,english_333.wav,0,1,447,,,,,1,0.1,-5.78875624,1.45836537
TYT,31,0,2024-06-13T14:54:48.301Z,english_333.wav,0,1,447,,,,,2,0.2,-83.87680905,1.0531546
TYT,31,0,2024-06-13T14:54:48.301Z,english_333.wav,0,1,447,,,,,3,0.3,28.79088839,0.44111738
TYT,31,0,2024-06-13T14:54:48.301Z,english_333.wav,0,1,447,,,,,4,0.4,-8.31834177,1.38984954
TYT,31,0,2024-06-13T14:54:48.301Z,english_333.wav,0,1,447,,,,,5,0.5,-89.41834338,0.9205918
TYT,31,0,2024-06-13T14:54:48.301Z,english_333.wav,0,1,447,,,,,6,0.6,26.9852541,0.41991315
TYT,31,0,2024-06-13T14:54:48.301Z,english_333.wav,0,1,447,,,,,7,0.7,33.61847072,1.33278744
TYT,31,0,2024-06-13T14:54:48.301Z,english_333.wav,0,1,447,,,,,8,0.8,46.07239873,1.39586389
TYT,31,0,2024-06-13T14:54:48.301Z,english_333.wav,0,1,447,,,,,9,0.9,28.18917884,1.14407521
TYT,31,0,2024-06-13T14:54:48.301Z,english_333.wav,0,1,447,,,,,10,1,-44.50200932,1.34818546
TYT,31,0,2024-06-13T14:54:48.301Z,english_333.wav,0,1,447,,,,,11,1.09391667,47.37913403,0.31125762
TYT,32,0,2024-06-13T14:54:48.301Z,english_122.wav,0,1,339,,,,,0,0,77.3413932,0.58709567
TYT,32,0,2024-06-13T14:54:48.301Z,english_122.wav,0,1,339,,,,,1,0.1,-67.39185751,0.0796985
TYT,32,0,2024-06-13T14:54:48.301Z,english_122.wav,0,1,339,,,,,2,0.2,89.18550357,1.00639024
TYT,32,0,2024-06-13T14:54:48.301Z,english_122.wav,0,1,339,,,,,3,0.3,12.33038367,0.81094575
TYT,32,0,2024-06-13T14:54:48.301Z,english_122.wav,0,1,339,,,,,4,0.4,70.68402371,0.57598842
TYT,32,0,2024-06-13T14:54:48.301Z,english_122.wav,0,1,339,,,,,5,0.5,25.06803156,0.93423984
TYT,32,0,2024-06-13T14:54:48.301Z,english_122.wav,0,1,339,,,,,6,0.6,56.81750659,1.53113092
TYT,32,0,2024-06-13T14:54:48.301Z,english_122.wav,0,1,339,,,,,7,0.7,-43.57912499,1.09738921
TYT,32,0,2024-06-13T14:54:48.301Z,english_122.wav,0,1,339,,,,,8,0.8,-51.88401647,1.34315846
TYT,32,0,2024-06-13T14:54:48.301Z,english_122.wav,0,1,339,,,,,9,0.9,-2.10023036,0.94720038
TYT,32,0,2024-06-13T14:54:48.301Z,english_122.wav,0,1,339,,,,,10,1,-47.35507429,1.69772014
TYT,32,0,2024-06-13T14:54:48.301Z,english_122.wav,0,1,339,,,,,11,1.09391667,20.07877732,1.14244601
TYT,33,0,2024-06-13T14:54:48.301Z,english_288.wav,0,0,648,,,,,0,0,-10.61246008,0.04412775
TYT,33,0,2024-06-13T14:54:48.301Z,english_288.wav,0,0,648,,,,,1,0.1,-77.3112588,0.21847975
TYT,33,0,2024-06-13T14:54:48.301Z,english_288.wav,0,0,648,,,,,2,0.2,12.30562344,1.50294944
TYT,33,0,2024-06-13T14:54:48.301Z,english_288.wav,0,0,648,,,,,3,0.3,-36.70742639,1.12595953
TYT,33,0,2024-06-13T14:54:48.301Z,english_288.wav,0,0,648,,,,,4,0.4,41.04793924,1.62688255
TYT,33,0,2024-06-13T14:54:48.301Z,english_288.wav,0,0,648,,,,,5,0.5,-35.19832077,1.25280317
TYT,33,0,2024-06-13T14:54:48.301Z,english_288.wav,0,0,648,,,,,6,0.6,-67.76212828,1.61760302
TYT,33,0,2024-06-13T14:54:48.301Z,english_288.wav,0,0,648,,,,,7,0.7,-31.76962834,1.08014254
TYT,33,0,2024-06-13T14:54:48.301Z,english_288.wav,0,0,648,,,,,8,0.8,52.35478753,0.46218832
TYT,33,0,2024-06-13T14:54:48.301Z,english_288.wav,0,0,648,,,,,9,0.9,-75.48042215,1.57844793
TYT,33,0,2024-06-13T14:54:48.301Z,english_288.wav,0,0,648,,,,,10,1,62.21198268,0.42631449
TYT,33,0,2024-06-13T14:54:48.301Z,english_288.wav,0,0,648,,,,,11,1.09391667,-19.37131538,1.42176412
TYT,34,0,2024-06-13T14:54:48.301Z,english_51.wav,0,0,697,,,,,0,0,4.82438937,1.72214018
TYT,34,0,2024-06-13T14:54:48.301Z,english_51.wav,0,0,697,,,,,1,0.1,-25.96164734,0.88661189
TYT,34,0,2024-06-13T14:54:48.301Z,english_51.wav,0,0,697,,,,,2,0.2,69.41579929,0.13058188
TYT,34,0,2024-06-13T14:54:48.301Z,english_51.wav,0,0,697,,,,,3,0.3,-53.59443599,0.95728679
TYT,34,0,2024-06-13T14:54:48.301Z,english_51.wav,0,0,697,,,,,4,0.4,-3.65182133,1.79715226
TYT,34,0,2024-06-13T14:54:48.301Z,english_51.wav,0,0,697,,,,,5,0.5,-31.28869864,0.9981941
TYT,34,0,2024-06-13T14:54:48.301Z,english_51.wav,0,0,697,,,,,6,0.6,61.83683128,0.02786947
TYT,34,0,2024-06-13T14:54:48.301Z,english_51.wav,0,0,697,,,,,7,0.7,21.64373061,0.63001571
TYT,34,0,2024-06-13T14:54:48.301Z,english_51.wav,0,0,697,,,,,8,0.8,63.25865389,1.19147023
TYT,34,0,2024-06-13T14:54:48.301Z,english_51.wav,0,0,697,,,,,9,0.9,-40.06070135,0.58040848
TYT,34,0,2024-06-13T14:54:48.301Z,english_51.wav,0,0,697,,,,,10,1,68.22105394,1.03101423
TYT,34,0,2024-06-13T14:54:48.301Z,english_51.wav,0,0,697,,,,,11,1.09391667,-1.01243895,0.89107538
TYT,35,0,2024-06-13T14:54:48.301Z,english_650.wav,0,1,530,,,,,0,0,84.72208984,1.44671944
TYT,35,0,2024-06-13T14:54:48.301Z,english_650.wav,0,1,530,,,,,1,0.1,-25.46570276,0.96213955
TYT,35,0,2024-06-13T14:54:48.301Z,english_650.wav,0,1,530,,,,,2,0.2,-14.49877792,0.60880641
TYT,35,0,2024-06-13T14:54:48.301Z,english_650.wav,0,1,530,,,,,3,0.3,92.39693734,0.82954369
TYT,35,0,2024-06-13T14:54:48.301Z,english_650.wav,0,1,530,,,,,4,0.4,-32.47071196,0.31003161
TYT,35,0,2024-06-13T14:54:48.301Z,english_650.wav,0,1,530,,,,,5,0.5,57.90191837,1.04774221
TYT,35,0,2024-06-13T14:54:48.301Z,english_650.wav,0,1,530,,,,,6,0.6,-80.89557153,1.35433017
TYT,35,0,2024-06-13T14:54:48.301Z,english_650.wav,0,1,530,,,,,7,0.7,-42.41945014,0.91007785
TYT,35,0,2024-06-13T14:54:48.301Z,english_650.wav,0,1,530,,,,,8,0.8,-93.95714217,1.66906144
TYT,35,0,2024-06-13T14:54:48.301Z,english_650.wav,0,1,530,,,,,9,0.9,72.90615392,0.82431
TYT,35,0,2024-06-13T14:54:48.301Z,english_650.wav,0,1,530,,,,,10,1,69.05005157,0.70002504
TYT,35,0,2024-06-13T14:54:48.301Z,english_650.wav,0,1,530,,,,,11,1.09391667,82.64627583,0.57122533
TYT,36,0,2024-06-13T14:54:48.301Z,english_573.wav,0,0,652,,,,,0,0,79.01360671,0.58078149
TYT,36,0,2024-06-13T14:54:48.301Z,english_573.wav,0,0,652,,,,,1,0.1,52.71884285,1.30954319
TYT,36,0,2024-06-13T14:54:48.301Z,english_573.wav,0,0,652,,,,,2,0.2,50.53447538,0.29557882
TYT,36,0,2024-06-13T14:54:48.301Z,english_573.wav,0,0,652,,,,,3,0.3,-77.30718956,0.06017209
TYT,36,0,2024-06-13T14:54:48.301Z,english_573.wav,0,0,652,,,,,4,0.4,33.34946603,1.37776662
TYT,36,0,2024-06-13T14:54:48.301Z,english_573.wav,0,0,652,,,,,5,0.5,65.54692119,1.42660443
TYT,36,0,2024-06-13T14:54:48.301Z,english_573.wav,0,0,652,,,,,6,0.6,18.3747553,1.66364869
TYT,36,0,2024-06-13T14:54:48.301Z,english_573.wav,0,0,652,,,,,7,0.7,51.17957479,1.08928957
TYT,36,0,2024-06-13T14:54:48.301Z,english_573.wav,0,0,652,,,,,8,0.8,29.2707463,0.72793509
TYT,36,0,2024-06-13T14:54:48.301Z,english_573.wav,0,0,652,,,,,9,0.9,19.39700322,0.41728398
TYT,36,0,2024-06-13T14:54:48.301Z,english_573.wav,0,0,652,,,,,10,1,64.73291428,0.11685832
TYT,36,0,2024-06-13T14:54:48.301Z,english_573.wav,0,0,652,,,,,11,1.09391667,32.81987365,0.66462102
TYT,37,0,2024-06-13T14:54:48.301Z,english_503.wav,0,0,529,,,,,0,0,82.81450313,0.83149822
TYT,37,0,2024-06-13T14:54:48.301Z,english_503.wav,0,0,529,,,,,1,0.1,87.05662754,1.91463783
TYT,37,0,2024-06-13T14:54:48.301Z,english_503.wav,0,0,529,,,,,2,0.2,42.99051807,0.15190796
TYT,37,0,2024-06-13T14:54:48.301Z,english_503.wav,0,0,529,,,,,3,0.3,23.32883613,1.60754129
TYT,37,0,2024-06-13T14:54:48.301Z,english_503.wav,0,0,529,,,,,4,0.4,48.50951883,0.81229928
TYT,37,0,2024-06-13T14:54:48.301Z,english_503.wav,0,0,529,,,,,5,0.5,-47.47339199,1.3748652
TYT,37,0,2024-06-13T14:54:48.301Z,english_503.wav,0,0,529,,,,,6,0.6,-9.99119765,1.71927888
TYT,37,0,2024-06-13T14:54:48.301Z,english_503.wav,0,0,529,,,,,7,0.7,68.86997334,0.8455295
TYT,37,0,2024-06-13T14:54:48.301Z,english_503.wav,0,0,529,,,,,8,0.8,-44.22385081,0.49975448
TYT,37,0,2024-06-13T14:54:48.301Z,english_503.wav,0,0,529,,,,,9,0.9,14.75546466,0.2402037
TYT,37,0,2024-06-13T14:54:48.301Z,english_503.wav,0,0,529,,,,,10,1,-47.31135976,1.02101903
TYT,37,0,2024-06-13T14:54:48.301Z,english_503.wav,0,0,529,,,,,11,1.09391667,-18.86254353,1.59376689
TYT,38,0,2024-06-13T14:54:48.301Z,english_980.wav,0,0,481,,,,,0,0,-89.21120638,0.86013949
TYT,38,0,2024-06-13T14:54:48.301Z,english_980.wav,0,0,481,,,,,1,0.1,-61.94586113,1.20415769
TYT,38,0,2024-06-13T14:54:48.301Z,english_980.wav,0,0,481,,,,,2,0.2,66.92224931,1.12519254
TYT,38,0,2024-06-13T14:54:48.301Z,english_980.wav,0,0,481,,,,,3,0.3,-8.83169244,1.93563119
TYT,38,0,2024-06-13T14:54:48.301Z,english_980.wav,0,0,481,,,,,4,0.4,-62.26224073,1.36290277
TYT,38,0,2024-06-13T14:54:48.301Z,english_980.wav,0,0,481,,,,,5,0.5,-40.69471865,0.31823405
TYT,38,0,2024-06-13T14:54:48.301Z,english_980.wav,0,0,481,,,,,6,0.6,-55.09323572,1.64522851
TYT,38,0,2024-06-13T14:54:48.301Z,english_980.wav,0,0,481,,,,,7,0.7,-85.76938639,0.41705872
TYT,38,0,2024-06-13T14:54:48.301Z,english_980.wav,0,0,481,,,,,8,0.8,-61.73931362,0.77550812
TYT,38,0,2024-06-13T14:54:48.301Z,english_980.wav,0,0,481,,,,,9,0.9,29.10621895,0.71060598
TYT,38,0,2024-06-13T14:54:48.301Z,english_980.wav,0,0,481,,,,,10,1,-54.92010394,0.25781542
TYT,38,0,2024-06-13T14:54:48.301Z,english_980.wav,0,0,481,,,,,11,1.09391667,-99.59524777,0.26651543
TYT,39,0,2024-06-13T14:54:48.301Z,english_598.wav,0,0,428,,,,,0,0,66.59254232,1.11503085
TYT,39,0,2024-06-13T14:54:48.301Z,english_598.wav,0,0,428,,,,,1,0.1,-0.16294116,1.29891619
TYT,39,0,2024-06-13T14:54:48.301Z,english_598.wav,0,0,428,,,,,2,0.2,87.91623233,0.04302605
TYT,39,0,2024-06-13T14:54:48.301Z,english_598.wav,0,0,428,,,,,3,0.3,4.78179149,1.90355783
TYT,39,0,2024-06-13T14:54:48.301Z,english_598.wav,0,0,428,,,,,4,0.4,87.27330533,0.66957129
TYT,39,0,2024-06-13T14:54:48.301Z,english_598.wav,0,0,428,,,,,5,0.5,15.94205468,1.28062406
TYT,39,0,2024-06-13T14:54:48.301Z,english_598.wav,0,0,428,,,,,6,0.6,-57.72302194,0.15067731
TYT,39,0,2024-06-13T14:54:48.301Z,english_598.wav,0,0,428,,,,,7,0.7,-11.53545195,0.37044447
TYT,39,0,2024-06-13T14:54:48.301Z,english_598.wav,0,0,428,,,,,8,0.8,-97.23766847,0.00668091
TYT,39,0,2024-06-13T14:54:48.301Z,english_598.wav,0,0,428,,,,,9,0.9,-89.11050407,1.24076678
TYT,39,0,2024-06-13T14:54:48.301Z,english_598.wav,0,0,428,,,,,10,1,-7.65193873,0.4751477
TYT,39,0,2024-06-13T14:54:48.301Z,english_598.wav,0,0,428,,,,,11,1.09391667,-0.117565,1.3589293
TYT,40,0,2024-06-13T14:54:48.301Z,english_889.wav,0,0,699,,,,,0,0,79.20623471,0.68216584
TYT,40,0,2024-06-13T14:54:48.301Z,english_889.wav,0,0,699,,,,,1,0.1,15.95650002,0.42686819
TYT,40,0,2024-06-13T14:54:48.301Z,english_889.wav,0,0,699,,,,,2,0.2,-76.24687764,0.02909108
TYT,40,0,2024-06-13T14:54:48.301Z,english_889.wav,0,0,699,,,,,3,0.3,-99.60118401,1.3182061
TYT,40,0,2024-06-13T14:54:48.301Z,english_889.wav,0,0,699,,,,,4,0.4,78.05893195,0.10574875
TYT,40,0,2024-06-13T14:54:48.301Z,english_889.wav,0,0,699,,,,,5,0.5,-14.00699602,0.2853218
TYT,40,0,2024-06-13T14:54:48.301Z,english_889.wav,0,0,699,,,,,6,0.6,-89.17552829,1.14496721
TYT,40,0,2024-06-13T14:54:48.301Z,english_889.wav,0,0,699,,,,,7,0.7,-14.96184535,1.04613331
TYT,40,0,2024-06-13T14:54:48.301Z,english_889.wav,0,0,699,,,,,8,0.8,59.85859642,1.03396969
TYT,40,0,2024-06-13T14:54:48.301Z,english_889.wav,0,0,699,,,,,9,0.9,11.94153074,0.35198627
TYT,40,0,2024-06-13T14:54:48.301Z,english_889.wav,0,0,699,,,,,10,1,-11.03565413,0.4382774
TYT,40,0,2024-06-13T14:54:48.301Z,english_889.wav,0,0,699,,,,,11,1.09391667,35.54802425,1.08765543
TYT,41,0,2024-06-13T14:54:48.301Z,english_24.wav,0,0,463,,,,,0,0,19.80934614,1.72303363
TYT,41,0,2024-06-13T14:54:48.301Z,english_24.wav,0,0,463,,,,,1,0.1,18.47296287,1.17223446
TYT,41,0,2024-06-13T14:54:48.301Z,english_24.wav,0,0,463,,,,,2,0.2,-87.44087303,0.32252022
TYT,41,0,2024-06-13T14:54:48.301Z,english_24.wav,0,0,463,,,,,3,0.3,-24.76838412,1.29113778
TYT,41,0,2024-06-13T14:54:48.301Z,english_24.wav,0,0,463,,,,,4,0.4,28.54854922,1.23026356
TYT,41,0,2024-06-13T14:54:48.301Z,english_24.wav,0,0,463,,,,,5,0.5,-93.00925389,1.272094
TYT,41,0,2024-06-13T14:54:48.301Z,english_24.wav,0,0,463,,,,,6,0.6,43.83851229,1.03857334
TYT,41,0,2024-06-13T14:54:48.301Z,english_24.wav,0,0,463,,,,,7,0.7,56.50445967,0.04355902
TYT,41,0,2024-06-13T14:54:48.301Z,english_24.wav,0,0,463,,,,,8,0.8,-34.51680679,1.12262583
TYT,41,0,2024-06-13T14:54:48.301Z,english_24.wav,0,0,463,,,,,9,0.9,77.91008798,0.83275479
TYT,41,0,2024-06-13T14:54:48.301Z,english_24.wav,0,0,463,,,,,10,1,22.21951013,0.49987962
TYT,41,0,2024-06-13T14:54:48.301Z,english_24.wav,0,0,463,,,,,11,1.09391667,44.21755505,0.6404637
TYT,42,0,2024-06-13T14:54:48.301Z,english_412.wav,0,1,239,,,,,0,0,26.80121406,1.83350646
TYT,42,0,2024-06-13T14:54:48.301Z,english_412.wav,0,1,239,,,,,1,0.1,42.5524274,0.85761925
TYT,42,0,2024-06-13T14:54:48.301Z,english_412.wav,0,1,239,,,,,2,0.2,38.73121894,0.81318793
TYT,42,0,2024-06-13T14:54:48.301Z,english_412.wav,0,1,239,,,,,3,0.3,55.35824973,1.83972978
TYT,42,0,2024-06-13T14:54:48.301Z,english_412.wav,0,1,239,,,,,4,0.4,-87.34208499,0.56193469
TYT,42,0,2024-06-13T14:54:48.301Z,english_412.wav,0,1,239,,,,,5,0.5,91.77879658,1.27086462
TYT,42,0,2024-06-13T14:54:48.301Z,english_412.wav,0,1,239,,,,,6,0.6,-99.58264321,1.22553346
TYT,42,0,2024-06-13T14:54:48.301Z,english_412.wav,0,1,239,,,,,7,0.7,89.55239913,0.34439159
TYT,42,0,2024-06-13T14:54:48.301Z,english_412.wav,0,1,239,,,,,8,0.8,-28.13161571,1.78223109
TYT,42,0,2024-06-13T14:54:48.301Z,english_412.wav,0,1,239,,,,,9,0.9,19.27007549,1.75477532
TYT,42,0,2024-06-13T14:54:48.301Z,english_412.wav,0,1,239,,,,,10,1,60.0301485,0.33667923
TYT,42,0,2024-06-13T14:54:48.301Z,english_412.wav,0,1,239,,,,,11,1.09391667,67.95145907,1.7966079
TYT,43,0,2024-06-13T14:54:48.301Z,english_721.wav,0,1,414,,,,,0,0,-21.91327124,0.70003707
TYT,43,0,2024-06-13T14:54:48.301Z,english_721.wav,0,1,414,,,,,1,0.1,-90.20435546,0.21927921
TYT,43,0,2024-06-13T14:54:48.301Z,english_721.wav,0,1,414,,,,,2,0.2,95.69234683,1.46481191
TYT,43,0,2024-06-13T14:54:48.301Z,english_721.wav,0,1,414,,,,,3,0.3,22.1637049,0.791078
TYT,43,0,2024-06-13T14:54:48.301Z,english_721.wav,0,1,414,,,,,4,0.4,11.60833415,1.28893612
TYT,43,0,2024-06-13T14:54:48.301Z,english_721.wav,0,1,414,,,,,5,0.5,-18.08358407,1.03888409
TYT,43,0,2024-06-13T14:54:48.301Z,english_721.wav,0,1,414,,,,,6,0.6,-18.19761364,1.04801609
TYT,43,0,2024-06-13T14:54:48.301Z,english_721.wav,0,1,414,,,,,7,0.7,68.04091508,1.56253366
TYT,43,0,2024-06-13T14:54:48.301Z,english_721.wav,0,1,414,,,,,8,0.8,78.50797801,1.28640088
TYT,43,0,2024-06-13T14:54:48.301Z,english_721.wav,0,1,414,,,,,9,0.9,-26.72259946,0.27215185
TYT,43,0,2024-06-13T14:54:48.301Z,english_721.wav,0,1,414,,,,,10,1,-5.45523717,0.551057
TYT,43,0,2024-06-13T14:54:48.301Z,english_721.wav,0,1,414,,,,,11,1.09391667,8.48352437,1.19022125
TYT,44,0,2024-06-13T14:54:48.301Z,english_348.wav,0,0,586,,,,,0,0,49.10415519,0.2034627
TYT,44,0,2024-06-13T14:54:48.301Z,english_348.wav,0,0,586,,,,,1,0.1,-48.79965422,1.25044247
TYT,44,0,2024-06-13T14:54:48.301Z,english_348.wav,0,0,586,,,,,2,0.2,53.20165278,0.74094366
TYT,44,0,2024-06-13T14:54:48.301Z,english_348.wav,0,0,586,,,,,3,0.3,57.36742524,0.00954132
TYT,44,0,2024-06-13T14:54:48.301Z,english_348.wav,0,0,586,,,,,4,0.4,94.02129802,1.6517129
TYT,44,0,2024-06-13T14:54:48.301Z,english_348.wav,0,0,586,,,,,5,0.5,75.45128831,0.80661731
TYT,44,0,2024-06-13T14:54:48.301Z,english_348.wav,0,0,586,,,,,6,0.6,28.29323428,1.01146739
TYT,44,0,2024-06-13T14:54:48.301Z,english_348.wav,0,0,586,,,,,7,0.7,-56.033964,0.68924025
TYT,44,0,2024-06-13T14:54:48.301Z,english_348.wav,0,0,586,,,,,8,0.8,-29.54315548,1.21892084
TYT,44,0,2024-06-13T14:54:48.301Z,english_348.wav,0,0,586,,,,,9,0.9,76.45106471,0.39109075
TYT,44,0,2024-06-13T14:54:48.301Z,english_348.wav,0,0,586,,,,,10,1,-33.55717755,0.51319042
TYT,44,0,2024-06-13T14:54:48.301Z,english_348.wav,0,0,586,,,,,11,1.09391667,-82.96462131,0.0502457
TYT,45,0,2024-06-13T14:54:48.301Z,english_758.wav,0,1,567,,,,,0,0,44.67997232,1.19309781
TYT,45,0,2024-06-13T14:54:48.301Z,english_758.wav,0,1,567,,,,,1,0.1,27.10099403,0.27221696
TYT,45,0,2024-06-13T14:54:48.301Z,english_758.wav,0,1,567,,,,,2,0.2,-48.30493583,0.58591156
TYT,45,0,2024-06-13T14:54:48.301Z,english_758.wav,0,1,567,,,,,3,0.3,-73.5260898,1.06118241
TYT,45,0,2024-06-13T14:54:48.301Z,english_758.wav,0,1,567,,,,,4,0.4,19.32057449,1.53382291
TYT,45,0,2024-06-13T14:54:48.301Z,english_758.wav,0,1,567,,,,,5,0.5,-32.65273306,1.10934516
TYT,45,0,2024-06-13T14:54:48.301Z,english_758.wav,0,1,567,,,,,6,0.6,-67.58997162,1.53621874
TYT,45,0,2024-06-13T14:54:48.301Z,english_758.wav,0,1,567,,,,,7,0.7,-76.10184919,0.32907917
TYT,45,0,2024-06-13T14:54:48.301Z,english_758.wav,0,1,567,,,,,8,0.8,55.20632284,0.47500698
TYT,45,0,2024-06-13T14:54:48.301Z,english_758.wav,0,1,567,,,,,9,0.9,3.61347388,1.81944253
TYT,45,0,2024-06-13T14:54:48.301Z,english_758.wav,0,1,567,,,,,10,1,-39.33689268,1.02148435
TYT,45,0,2024-06-13T14:54:48.301Z,english_758.wav,0,1,567,,,,,11,1.09391667,44.43004874,0.12347796
TYT,46,0,2024-06-13T14:54:48.301Z,english_357.wav,0,1,299,,,,,0,0,-87.96365185,1.52852124
TYT,46,0,2024-06-13T14:54:48.301Z,english_357.wav,0,1,299,,,,,1,0.1,-8.5190019,1.93288072
TYT,46,0,2024-06-13T14:54:48.301Z,english_357.wav,0,1,299,,,,,2,0.2,34.94660595,1.80201728
TYT,46,0,2024-06-13T14:54:48.301Z,english_357.wav,0,1,299,,,,,3,0.3,74.01534503,0.94192251
TYT,46,0,2024-06-13T14:54:48.301Z,english_357.wav,0,1,299,,,,,4,0.4,13.59562063,1.02469598
TYT,46,0,2024-06-13T14:54:48.301Z,english_357.wav,0,1,299,,,,,5,0.5,-84.64423503,1.61646509
TYT,46,0,2024-06-13T14:54:48.301Z,english_357.wav,0,1,299,,,,,6,0.6,-29.1291793,0.27950667
TYT,46,0,2024-06-13T14:54:48.301Z,english_357.wav,0,1,299,,,,,7,0.7,-52.42503967,1.30320323
TYT,46,0,2024-06-13T14:54:48.301Z,english_357.wav,0,1,299,,,,,8,0.8,21.24796122,1.07824702
TYT,46,0,2024-06-13T14:54:48.301Z,english_357.wav,0,1,299,,,,,9,0.9,32.72205185,0.68433039
TYT,46,0,2024-06-13T14:54:48.301Z,english_357.wav,0,1,299,,,,,10,1,-96.5222269,1.27621022
TYT,46,0,2024-06-13T14:54:48.301Z,english_357.wav,0,1,299,,,,,11,1.09391667,30.40810686,1.23591368
TYT,47,0,2024-06-13T14:54:48.301Z,english_998.wav,0,1,801,,,,,0,0,-83.67346728,1.27391906
TYT,47,0,2024-06-13T14:54:48.301Z,english_998.wav,0,1,801,,,,,1,0.1,-68.43297462,0.75913393
TYT,47,0,2024-06-13T14:54:48.301Z,english_998.wav,0,1,801,,,,,2,0.2,47.84560439,1.02363825
TYT,47,0,2024-06-13T14:54:48.301Z,english_998.wav,0,1,801,,,,,3,0.3,71.43971258,1.78775676
TYT,47,0,2024-06-13T14:54:48.301Z,english_998.wav,0,1,801,,,,,4,0.4,-30.40941836,0.0961221
TYT,47,0,2024-06-13T14:54:48.301Z,english_998.wav,0,1,801,,,,,5,0.5,69.31214212,1.18933693
TYT,47,0,2024-06-13T14:54:48.301Z,english_998.wav,0,1,801,,,,,6,0.6,-95.04564508,1.9379163
TYT,47,0,2024-06-13T14:54:48.301Z,english_998.wav,0,1,801,,,,,7,0.7,-61.88405175,1.91389769
TYT,47,0,2024-06-13T14:54:48.301Z,english_998.wav,0,1,801,,,,,8,0.8,11.43915949,1.08895614
TYT,47,0,2024-06-13T14:54:48.301Z,english_998.wav,0,1,801,,,,,9,0.9,79.6365109,1.52042952
TYT,47,0,2024-06-13T14:54:48.301Z,english_998.wav,0,1,801,,,,,10,1,58.29305302,0.38016323
TYT,47,0,2024-06-13T14:54:48.301Z,english_998.wav,0,1,801,,,,,11,1.09391667,44.0288717,1.77799574
TYT,48,0,2024-06-13T14:54:48.301Z,english_644.wav,0,1,462,,,,,0,0,-7.74705656,0.66688753
TYT,48,0,2024-06-13T14:54:48.301Z,english_644.wav,0,1,462,,,,,1,0.1,13.74923295,1.25240531
TYT,48,0,2024-06-13T14:54:48.301Z,english_644.wav,0,1,462,,,,,2,0.2,40.16854527,1.72800914
TYT,48,0,2024-06-13T14:54:48.301Z,english_644.wav,0,1,462,,,,,3,0.3,16.95590876,1.901406
TYT,48,0,2024-06-13T14:54:48.301Z,english_644.wav,0,1,462,,,,,4,0.4,92.94154477,1.33708406
TYT,48,0,2024-06-13T14:54:48.301Z,english_644.wav,0,1,462,,,,,5,0.5,56.03551628,0.15832583
TYT,48,0,2024-06-13T14:54:48.301Z,english_644.wav,0,1,462,,,,,6,0.6,38.20742884,0.92905529
TYT,48,0,2024-06-13T14:54:48.301Z,english_644.wav,0,1,462,,,,,7,0.7,77.59912579,1.33051148
TYT,48,0,2024-06-13T14:54:48.301Z,english_644.wav,0,1,462,,,,,8,0.8,-70.6366221,1.52220135
TYT,48,0,2024-06-13T14:54:48.301Z,english_644.wav,0,1,462,,,,,9,0.9,28.8352997,0.90700951
TYT,48,0,2024-06-13T14:54:48.301Z,english_644.wav,0,1,462,,,,,10,1,-31.19037079,0.18646841
TYT,48,0,2024-06-13T14:54:48.301Z,english_644.wav,0,1,462,,,,,11,1.09391667,-96.94347339,1.53278214
TYT,49,0,2024-06-13T14:54:48.301Z,english_543.wav,0,0,553,,,,,0,0,-38.60842869,0.01455056
TYT,49,0,2024-06-13T14:54:48.301Z,english_543.wav,0,0,553,,,,,1,0.1,53.1018826,1.33130856
TYT,49,0,2024-06-13T14:54:48.301Z,english_543.wav,0,0,553,,,,,2,0.2,21.93281072,0.07852499
TYT,49,0,2024-06-13T14:54:48.301Z,english_543.wav,0,0,553,,,,,3,0.3,-40.4815272,1.77861337
TYT,49,0,2024-06-13T14:54:48.301Z,english_543.wav,0,0,553,,,,,4,0.4,2.89670018,1.72434721
TYT,49,0,2024-06-13T14:54:48.301Z,english_543.wav,0,0,553,,,,,5,0.5,31.11758458,1.53256383
TYT,49,0,2024-06-13T14:54:48.301Z,english_543.wav,0,0,553,,,,,6,0.6,1.30911675,1.33712035
TYT,49,0,2024-06-13T14:54:48.301Z,english_543.wav,0,0,553,,,,,7,0.7,46.76912586,0.29783205
TYT,49,0,2024-06-13T14:54:48.301Z,english_543.wav,0,0,553,,,,,8,0.8,-75.40535735,1.43997323
TYT,49,0,2024-06-13T14:54:48.301Z,english_543.wav,0,0,553,,,,,9,0.9,57.91130712,0.04561747
TYT,49,0,2024-06-13T14:54:48.301Z,english_543.wav,0,0,553,,,,,10,1,-90.16753315,1.78781135
TYT,49,0,2024-06-13T14:54:48.301Z,english_543.wav,0,0,553,,,,,11,1.09391667,-42.19615814,1.03895071
TYT,50,1,2024-06-13T14:59:14.638Z,english_425.wav,0,1,584,,,,,0,0,85.86099955,1.60253472
TYT,50,1,2024-06-13T14:59:14.638Z,english_425.wav,0,1,584,,,,,1,0.1,-74.24278906,1.17756514
TYT,50,1,2024-06-13T14:59:14.638Z,english_425.wav,0,1,584,,,,,2,0.2,66.63239561,1.35741875
TYT,50,1,2024-06-13T14:59:14.638Z,english_425.wav,0,1,584,,,,,3,0.3,48.1989772,1.41012003
TYT,50,1,2024-06-13T14:59:14.638Z,english_425.wav,0,1,584,,,,,4,0.4,-24.59174715,0.10488559
TYT,50,1,2024-06-13T14:59:14.638Z,english_425.wav,0,1,584,,,,,5,0.5,-13.08814226,1.84558303
TYT,50,1,2024-06-13T14:59:14.638Z,english_425.wav,0,1,584,,,,,6,0.6,3.3813436,1.65169658
TYT,50,1,2024-06-13T14:59:14.638Z,english_425.wav,0,1,584,,,,,7,0.7,-77.57885428,0.99070069
TYT,50,1,2024-06-13T14:59:14.638Z,english_425.wav,0,1,584,,,,,8,0.8,64.2992526,1.03905924
TYT,50,1,2024-06-13T14:59:14.638Z,english_425.wav,0,1,584,,,,,9,0.9,-69.82436983,1.4199326
TYT,50,1,2024-06-13T14:59:14.638Z,english_425.wav,0,1,584,,,,,10,1,-17.74567454,1.83949921
TYT,50,1,2024-06-13T14:59:14.638Z,english_425.wav,0,1,584,,,,,11,1.09391667,34.86644748,1.32096962
TYT,51,1,2024-06-13T14:59:14.638Z,english_843.wav,0,1,387,,,,,0,0,13.87584617,1.27519345
TYT,51,1,2024-06-13T14:59:14.638Z,english_843.wav,0,1,387,,,,,1,0.1,17.53714881,0.4999323
TYT,51,1,2024-06-13T14:59:14.638Z,english_843.wav,0,1,387,,,,,2,0.2,70.72069662,1.20187255
TYT,51,1,2024-06-13T14:59:14.638Z,english_843.wav,0,1,387,,,,,3,0.3,14.49652428,0.99598265
TYT,51,1,2024-06-13T14:59:14.638Z,english_843.wav,0,1,387,,,,,4,0.4,-65.08259112,1.86186318
TYT,51,1,2024-06-13T14:59:14.638Z,english_843.wav,0,1,387,,,,,5,0.5,26.6308795,0.44944471
TYT,51,1,2024-06-13T14:59:14.638Z,english_843.wav,0,1,387,,,,,6,0.6,-80.57084842,0.60839379
TYT,51,1,2024-06-13T14:59:14.638Z,english_843.wav,0,1,387,,,,,7,0.7,-48.22210442,1.68983896
TYT,51,1,2024-06-13T14:59:14.638Z,english_843.wav,0,1,387,,,,,8,0.8,-90.5256354,1.90866012
TYT,51,1,2024-06-13T14:59:14.638Z,english_843.wav,0,1,387,,,,,9,0.9,39.07951266,0.50710565
TYT,51,1,2024-06-13T14:59:14.638Z,english_843.wav,0,1,387,,,,,10,1,-12.6282176,1.80732727
TYT,51,1,2024-06-13T14:59:14.638Z,english_843.wav,0,1,387,,,,,11,1.09391667,-11.67818775,0.54311362
TYT,52,1,2024-06-13T14:59:14.638Z,english_259.wav,0,1,449,,,,,0,0,-96.45723027,1.20447661
TYT,52,1,2024-06-13T14:59:14.638Z,english_259.wav,0,1,449,,,,,1,0.1,46.81898893,1.98089962
TYT,52,1,2024-06-13T14:59:14.638Z,english_259.wav,0,1,449,,,,,2,0.2,-52.24123134,0.13419359
TYT,52,1,2024-06-13T14:59:14.638Z,english_259.wav,0,1,449,,,,,3,0.3,-93.20482306,0.77341906
TYT,52,1,2024-06-13T14:59:14.638Z,english_259.wav,0,1,449,,,,,4,0.4,-73.17016095,0.41314705
TYT,52,1,2024-06-13T14:59:14.638Z,english_259.wav,0,1,449,,,,,5,0.5,65.38390332,1.70927399
TYT,52,1,2024-06-13T14:59:14.638Z,english_259.wav,0,1,449,,,,,6,0.6,-74.48910715,0.82975987
TYT,52,1,2024-06-13T14:59:14.638Z,english_259.wav,0,1,449,,,,,7,0.7,18.35767077,1.00284167
TYT,52,1,2024-06-13T14:59:14.638Z,english_259.wav,0,1,449,,,,,8,0.8,-83.13603565,0.65136174
TYT,52,1,2024-06-13T14:59:14.638Z,english_259.wav,0,1,449,,,,,9,0.9,-60.914408,1.08902536
TYT,52,1,2024-06-13T14:59:14.638Z,english_259.wav,0,1,449,,,,,10,1,13.76318207,0.29016251
TYT,52,1,2024-06-13T14:59:14.638Z,english_259.wav,0,1,449,,,,,11,1.09391667,-74.06068615,0.25284804
TYT,53,1,2024-06-13T14:59:14.638Z,english_967.wav,0,0,387,,,,,0,0,-95.01579597,1.84793029
TYT,53,1,2024-06-13T14:59:14.638Z,english_967.wav,0,0,387,,,,,1,0.1,-83.85694312,0.58680999
TYT,53,1,2024-06-13T14:59:14.638Z,english_967.wav,0,0,387,,,,,2,0.2,-85.29120752,1.7718572
TYT,53,1,2024-06-13T14:59:14.638Z,english_967.wav,0,0,387,,,,,3,0.3,39.64714204,1.16952376
TYT,53,1,2024-06-13T14:59:14.638Z,english_967.wav,0,0,387,,,,,4,0.4,57.5109199,0.26483397
TYT,53,1,2024-06-13T14:59:14.638Z,english_967.wav,0,0,387,,,,,5,0.5,17.84726357,0.70174807
TYT,53,1,2024-06-13T14:59:14.638Z,english_967.wav,0,0,387,,,,,6,0.6,72.49898727,1.00653378
TYT,53,1,2024-06-13T14:59:14.638Z,english_967.wav,0,0,387,,,,,7,0.7,-49.28489837,0.37312662
TYT,53,1,2024-06-13T14:59:14.638Z,english_967.wav,0,0,387,,,,,8,0.8,27.76319329,0.21661179
TYT,53,1,2024-06-13T14:59:14.638Z,english_967.wav,0,0,387,,,,,9,0.9,40.88732144,1.37557681
TYT,53,1,2024-06-13T14:59:14.638Z,english_967.wav,0,0,387,,,,,10,1,25.08094833,0.83851773
TYT,53,1,2024-06-13T14:59:14.638Z,english_967.wav,0,0,387,,,,,11,1.09391667,-11.2848797,1.10196179
TYT,54,1,2024-06-13T14:59:14.638Z,english_380.wav,0,0,549,,,,,0,0,-98.28114878,1.65071685
TYT,54,1,2024-06-13T14:59:14.638Z,english_380.wav,0,0,549,,,,,1,0.1,56.78361718,0.83910099
TYT,54,1,2024-06-13T14:59:14.638Z,english_380.wav,0,0,549,,,,,2,0.2,85.44160667,0.37505411
TYT,54,1,2024-06-13T14:59:14.638Z,english_380.wav,0,0,549,,,,,3,0.3,-84.55731912,1.88837589
TYT,54,1,2024-06-13T14:59:14.638Z,english_380.wav,0,0,549,,,,,4,0.4,49.20342555,1.08728138
TYT,54,1,2024-06-13T14:59:14.638Z,english_380.wav,0,0,549,,,,,5,0.5,-52.595959,1.97160724
TYT,54,1,2024-06-13T14:59:14.638Z,english_380.wav,0,0,549,,,,,6,0.6,98.42131641,1.47544821
TYT,54,1,2024-06-13T14:59:14.638Z,english_380.wav,0,0,549,,,,,7,0.7,9.72308327,1.24926611
TYT,54,1,2024-06-13T14:59:14.638Z,english_380.wav,0,0,549,,,,,8,0.8,12.04937736,0.22244064
TYT,54,1,2024-06-13T14:59:14.638Z,english_380.wav,0,0,549,,,,,9,0.9,-39.23819918,0.47451493
TYT,54,1,2024-06-13T14:59:14.638Z,english_380.wav,0,0,549,,,,,10,1,44.86165429,1.20182695
TYT,54,1,2024-06-13T14:59:14.638Z,english_380.wav,0,0,549,,,,,11,1.09391667,-9.34942597,1.47839352
TYT,55,1,2024-06-13T14:59:14.638Z,english_991.wav,0,1,362,,,,,0,0,-1.1896089,1.11058757
TYT,55,1,2024-06-13T14:59:14.638Z,english_991.wav,0,1,362,,,,,1,0.1,-96.26402249,0.1672209
TYT,55,1,2024-06-13T14:59:14.638Z,english_991.wav,0,1,362,,,,,2,0.2,35.13230964,1.95155766
TYT,55,1,2024-06-13T14:59:14.638Z,english_991.wav,0,1,362,,,,,3,0.3,16.47291022,0.04651437
TYT,55,1,2024-06-13T14:59:14.638Z,english_991.wav,0,1,362,,,,,4,0.4,-88.97016612,1.74859016
TYT,55,1,2024-06-13T14:59:14.638Z,english_991.wav,0,1,362,,,,,5,0.5,-18.26917978,1.4122656
TYT,55,1,2024-06-13T14:59:14.638Z,english_991.wav,0,1,362,,,,,6,0.6,-86.44611587,0.52281086
TYT,55,1,2024-06-13T14:59:14.638Z,english_991.wav,0,1,362,,,,,7,0.7,-23.18394533,1.29572944
TYT,55,1,2024-06-13T14:59:14.638Z,english_991.wav,0,1,362,,,,,8,0.8,-34.88810698,1.11115335
TYT,55,1,2024-06-13T14:59:14.638Z,english_991.wav,0,1,362,,,,,9,0.9,58.2484142,1.29146841
TYT,55,1,2024-06-13T14:59:14.638Z,english_991.wav,0,1,362,,,,,10,1,13.64122516,1.37847477
TYT,55,1,2024-06-13T14:59:14.638Z,english_991.wav,0,1,362,,,,,11,1.09391667,-13.61979163,0.12249008
TYT,56,1,2024-06-13T14:59:14.638Z,english_263.wav,0,1,446,,,,,0,0,60.54836266,0.88286661
TYT,56,1,2024-06-13T14:59:14.638Z,english_263.wav,0,1,446,,,,,1,0.1,-7.25947701,0.15523443
TYT,56,1,2024-06-13T14:59:14.638Z,english_263.wav,0,1,446,,,,,2,0.2,57.3147166,0.89947763
TYT,56,1,2024-06-13T14:59:14.638Z,english_263.wav,0,1,446,,,,,3,0.3,-54.27216299,1.94594407
TYT,56,1,2024-06-13T14:59:14.638Z,english_263.wav,0,1,446,,,,,4,0.4,-55.29215067,0.36252841
TYT,56,1,2024-06-13T14:59:14.638Z,english_263.wav,0,1,446,,,,,5,0.5,-35.67260064,0.43064253
TYT,56,1,2024-06-13T14:59:14.638Z,english_263.wav,0,1,446,,,,,6,0.6,64.27930659,0.12649613
TYT,56,1,2024-06-13T14:59:14.638Z,english_263.wav,0,1,446,,,,,7,0.7,39.11312223,0.99935682
TYT,56,1,2024-06-13T14:59:14.638Z,english_263.wav,0,1,446,,,,,8,0.8,-36.26628423,0.98138808
TYT,56,1,2024-06-13T14:59:14.638Z,english_263.wav,0,1,446,,,,,9,0.9,24.26738527,1.68351405
TYT,56,1,2024-06-13T14:59:14.638Z,english_263.wav,0,1,446,,,,,10,1,43.73514677,0.97417267
TYT,56,1,2024-06-13T14:59:14.638Z,english_263.wav,0,1,446,,,,,11,1.09391667,-15.47335433,0.42659576
TYT,57,1,2024-06-13T14:59:14.638Z,english_135.wav,0,0,384,,,,,0,0,1.52771956,1.05574256
TYT,57,1,2024-06-13T14:59:14.638Z,english_135.wav,0,0,384,,,,,1,0.1,87.85930758,0.07400982
TYT,57,1,2024-06-13T14:59:14.638Z,english_135.wav,0,0,384,,,,,2,0.2,10.69232429,1.27555025
TYT,57,1,2024-06-13T14:59:14.638Z,english_135.wav,0,0,384,,,,,3,0.3,-30.56293348,1.65548466
TYT,57,1,2024-06-13T14:59:14.638Z,english_135.wav,0,0,384,,,,,4,0.4,18.68768105,0.65488565
TYT,57,1,2024-06-13T14:59:14.638Z,english_135.wav,0,0,384,,,,,5,0.5,83.74749446,1.6850938
TYT,57,1,2024-06-13T14:59:14.638Z,english_135.wav,0,0,384,,,,,6,0.6,2.30267465,0.17916719
TYT,57,1,2024-06-13T14:59:14.638Z,english_135.wav,0,0,384,,,,,7,0.7,10.55624665,0.7091252
TYT,57,1,2024-06-13T14:59:14.638Z,english_135.wav,0,0,384,,,,,8,0.8,-52.17497639,1.14424326
TYT,57,1,2024-06-13T14:59:14.638Z,english_135.wav,0,0,384,,,,,9,0.9,63.1552018,0.08021557
TYT,57,1,2024-06-13T14:59:14.638Z,english_135.wav,0,0,384,,,,,10,1,32.56027872,1.28558373
TYT,57,1,2024-06-13T14:59:14.638Z,english_135.wav,0,0,384,,,,,11,1.09391667,49.01841871,0.80254185
TYT,58,1,2024-06-13T14:59:14.638Z,english_735.wav,0,1,216,,,,,0,0,45.17443614,1.05701846
TYT,58,1,2024-06-13T14:59:14.638Z,english_735.wav,0,1,216,,,,,1,0.1,47.16225486,0.44895522
TYT,58,1,2024-06-13T14:59:14.638Z,english_735.wav,0,1,216,,,,,2,0.2,15.3532987,0.19506386
TYT,58,1,2024-06-13T14:59:14.638Z,english_735.wav,0,1,216,,,,,3,0.3,-43.81061568,0.99480529
TYT,58,1,2024-06-13T14:59:14.638Z,english_735.wav,0,1,216,,,,,4,0.4,83.17284614,0.46252356
TYT,58,1,2024-06-13T14:59:14.638Z,english_735.wav,0,1,216,,,,,5,0.5,60.7769414,1.45908064
TYT,58,1,2024-06-13T14:59:14.638Z,english_735.wav,0,1,216,,,,,6,0.6,-66.30411683,0.86428301
TYT,58,1,2024-06-13T14:59:14.638Z,english_735.wav,0,1,216,,,,,7,0.7,76.89695455,1.14188193
TYT,58,1,2024-06-13T14:59:14.638Z,english_735.wav,0,1,216,,,,,8,0.8,67.53178197,1.15486393
TYT,58,1,2024-06-13T14:59:14.638Z,english_735.wav,0,1,216,,,,,9,0.9,52.8137554,1.55511006
TYT,58,1,2024-06-13T14:59:14.638Z,english_735.wav,0,1,216,,,,,10,1,-86.58423276,0.92101672
TYT,58,1,2024-06-13T14:59:14.638Z,english_735.wav,0,1,216,,,,,11,1.09391667,98.32439456,1.0777974
TYT,59,1,2024-06-13T14:59:14.638Z,english_196.wav,0,0,850,,,,,0,0,2.02767746,0.52488194
TYT,59,1,2024-06-13T14:59:14.638Z,english_196.wav,0,0,850,,,,,1,0.1,-33.8864136,0.07938129
TYT,59,1,2024-06-13T14:59:14.638Z,english_196.wav,0,0,850,,,,,2,0.2,22.2108892,1.27880301
TYT,59,1,2024-06-13T14:59:14.638Z,english_196.wav,0,0,850,,,,,3,0.3,26.8443858,0.8345871
TYT,59,1,2024-06-13T14:59:14.638Z,english_196.wav,0,0,850,,,,,4,0.4,54.5751314,1.20448566
TYT,59,1,2024-06-13T14:59:14.638Z,english_196.wav,0,0,850,,,,,5,0.5,17.7209079,1.38294306
TYT,59,1,2024-06-13T14:59:14.638Z,english_196.wav,0,0,850,,,,,6,0.6,46.4311721,1.20996935
TYT,59,1,2024-06-13T14:59:14.638Z,english_196.wav,0,0,850,,,,,7,0.7,74.3025548,0.87104857
TYT,59,1,2024-06-13T14:59:14.638Z,english_196.wav,0,0,850,,,,,8,0.8,24.2178378,0.98676135
TYT,59,1,2024-06-13T14:59:14.638Z,english_196.wav,0,0,850,,,,,9,0.9,-0.0117232829,0.71720025
TYT,59,1,2024-06-13T14:59:14.638Z,english_196.wav,0,0,850,,,,,10,1,-55.3381983,1.3134078
TYT,59,1,2024-06-13T14:59:14.638Z,english_196.wav,0,0,850,,,,,11,1.09391667,-51.2005151,0.6531164
TYT,60,1,2024-06-13T14:59:14.638Z,english_372.wav,0,0,541,,,,,0,0,26.59916967,1.01937466
TYT,60,1,2024-06-13T14:59:14.638Z,english_372.wav,0,0,541,,,,,1,0.1,3.58814385,0.79696142
TYT,60,1,2024-06-13T14:59:14.638Z,english_372.wav,0,0,541,,,,,2,0.2,-60.14178388,0.00503004
TYT,60,1,2024-06-13T14:59:14.638Z,english_372.wav,0,0,541,,,,,3,0.3,-44.19894674,0.84575405
TYT,60,1,2024-06-13T14:59:14.638Z,english_372.wav,0,0,541,,,,,4,0.4,-38.03613901,0.48969314
TYT,60,1,2024-06-13T14:59:14.638Z,english_372.wav,0,0,541,,,,,5,0.5,46.39303355,1.79043023
TYT,60,1,2024-06-13T14:59:14.638Z,english_372.wav,0,0,541,,,,,6,0.6,-33.97181462,1.46860797
TYT,60,1,2024-06-13T14:59:14.638Z,english_372.wav,0,0,541,,,,,7,0.7,-27.46884733,0.04122284
TYT,60,1,2024-06-13T14:59:14.638Z,english_372.wav,0,0,541,,,,,8,0.8,-45.55461231,0.63203754
TYT,60,1,2024-06-13T14:59:14.638Z,english_372.wav,0,0,541,,,,,9,0.9,20.15963599,1.00944548
TYT,60,1,2024-06-13T14:59:14.638Z,english_372.wav,0,0,541,,,,,10,1,54.79355498,0.7711604
TYT,60,1,2024-06-13T14:59:14.638Z,english_372.wav,0,0,541,,,,,11,1.09391667,93.56246184,0.15048829
TYT,61,1,2024-06-13T14:59:14.638Z,english_236.wav,0,1,212,,,,,0,0,-58.47147348,1.25570844
TYT,61,1,2024-06-13T14:59:14.638Z,english_236.wav,0,1,212,,,,,1,0.1,25.25879028,1.3068123
TYT,61,1,2024-06-13T14:59:14.638Z,english_236.wav,0,1,212,,,,,2,0.2,-78.78616324,1.48831799
TYT,61,1,2024-06-13T14:59:14.638Z,english_236.wav,0,1,212,,,,,3,0.3,11.29938963,0.34919936
TYT,61,1,2024-06-13T14:59:14.638Z,english_236.wav,0,1,212,,,,,4,0.4,39.53352696,1.00725943
TYT,61,1,2024-06-13T14:59:14.638Z,english_236.wav,0,1,212,,,,,5,0.5,91.57483284,1.25472599
TYT,61,1,2024-06-13T14:59:14.638Z,english_236.wav,0,1,212,,,,,6,0.6,22.72019707,1.46652556
TYT,61,1,2024-06-13T14:59:14.638Z,english_236.wav,0,1,212,,,,,7,0.7,30.21012118,0.98566412
TYT,61,1,2024-06-13T14:59:14.638Z,english_236.wav,0,1,212,,,,,8,0.8,-41.20304871,1.93402839
TYT,61,1,2024-06-13T14:59:14.638Z,english_236.wav,0,1,212,,,,,9,0.9,28.6164571,1.61503367
TYT,61,1,2024-06-13T14:59:14.638Z,english_236.wav,0,1,212,,,,,10,1,36.23029146,0.92571768
TYT,61,1,2024-06-13T14:59:14.638Z,english_236.wav,0,1,212,,,,,11,1.09391667,-21.60177346,1.50534637
TYT,62,1,2024-06-13T14:59:14.638Z,english_282.wav,0,0,414,,,,,0,0,79.51809952,1.2792911
TYT,62,1,2024-06-13T14:59:14.638Z,english_282.wav,0,0,414,,,,,1,0.1,55.92109115,0.93344042
TYT,62,1,2024-06-13T14:59:14.638Z,english_282.wav,0,0,414,,,,,2,0.2,36.01060515,1.94968889
TYT,62,1,2024-06-13T14:59:14.638Z,english_282.wav,0,0,414,,,,,3,0.3,4.60281664,1.12428424
TYT,62,1,2024-06-13T14:59:14.638Z,english_282.wav,0,0,414,,,,,4,0.4,35.69966579,0.7610034
TYT,62,1,2024-06-13T14:59:14.638Z,english_282.wav,0,0,414,,,,,5,0.5,-79.87721836,0.66186596
TYT,62,1,2024-06-13T14:59:14.638Z,english_282.wav,0,0,414,,,,,6,0.6,-3.98252218,0.57211865
TYT,62,1,2024-06-13T14:59:14.638Z,english_282.wav,0,0,414,,,,,7,0.7,-78.10052274,0.40544896
TYT,62,1,2024-06-13T14:59:14.638Z,english_282.wav,0,0,414,,,,,8,0.8,69.1474283,0.68156422
TYT,62,1,2024-06-13T14:59:14.638Z,english_282.wav,0,0,414,,,,,9,0.9,58.09261901,0.87028019
TYT,62,1,2024-06-13T14:59:14.638Z,english_282.wav,0,0,414,,,,,10,1,94.50826365,1.91563213
TYT,62,1,2024-06-13T14:59:14.638Z,english_282.wav,0,0,414,,,,,11,1.09391667,71.90418642,1.01931827
TYT,63,1,2024-06-13T14:59:14.638Z,english_537.wav,0,0,407,,,,,0,0,25.88544012,0.61690243
TYT,63,1,2024-06-13T14:59:14.638Z,english_537.wav,0,0,407,,,,,1,0.1,63.63390934,0.90177056
TYT,63,1,2024-06-13T14:59:14.638Z,english_537.wav,0,0,407,,,,,2,0.2,-38.93036314,0.07664126
TYT,63,1,2024-06-13T14:59:14.638Z,english_537.wav,0,0,407,,,,,3,0.3,-12.64573365,0.99300436
TYT,63,1,2024-06-13T14:59:14.638Z,english_537.wav,0,0,407,,,,,4,0.4,52.79705028,1.13924036
TYT,63,1,2024-06-13T14:59:14.638Z,english_537.wav,0,0,407,,,,,5,0.5,61.08523752,0.99509991
TYT,63,1,2024-06-13T14:59:14.638Z,english_537.wav,0,0,407,,,,,6,0.6,-57.84944614,0.07377403
TYT,63,1,2024-06-13T14:59:14.638Z,english_537.wav,0,0,407,,,,,7,0.7,-52.33335847,0.81215825
TYT,63,1,2024-06-13T14:59:14.638Z,english_537.wav,0,0,407,,,,,8,0.8,-67.65126846,0.21197166
TYT,63,1,2024-06-13T14:59:14.638Z,english_537.wav,0,0,407,,,,,9,0.9,-85.68414248,0.62739584
TYT,63,1,2024-06-13T14:59:14.638Z,english_537.wav,0,0,407,,,,,10,1,-93.50354449,1.8723754
TYT,63,1,2024-06-13T14:59:14.638Z,english_537.wav,0,0,407,,,,,11,1.09391667,82.40982397,0.03126294
TYT,64,1,2024-06-13T14:59:14.638Z,english_731.wav,0,1,488,,,,,0,0,-7.36185514,1.393769
TYT,64,1,2024-06-13T14:59:14.638Z,english_731.wav,0,1,488,,,,,1,0.1,90.53877185,0.98238467
TYT,64,1,2024-06-13T14:59:14.638Z,english_731.wav,0,1,488,,,,,2,0.2,-41.94407757,1.23695651
TYT,64,1,2024-06-13T14:59:14.638Z,english_731.wav,0,1,488,,,,,3,0.3,25.1521842,1.19631379
TYT,64,1,2024-06-13T14:59:14.638Z,english_731.wav,0,1,488,,,,,4,0.4,68.57946125,0.88911396
TYT,64,1,2024-06-13T14:59:14.638Z,english_731.wav,0,1,488,,,,,5,0.5,65.86891495,1.98349596
TYT,64,1,2024-06-13T14:59:14.638Z,english_731.wav,0,1,488,,,,,6,0.6,-52.28114947,0.8296111
TYT,64,1,2024-06-13T14:59:14.638Z,english_731.wav,0,1,488,,,,,7,0.7,15.16550818,0.44150217
TYT,64,1,2024-06-13T14:59:14.638Z,english_731.wav,0,1,488,,,,,8,0.8,25.27999627,1.48173114
TYT,64,1,2024-06-13T14:59:14.638Z,english_731.wav,0,1,488,,,,,9,0.9,11.70162838,1.09419359
TYT,64,1,2024-06-13T14:59:14.638Z,english_731.wav,0,1,488,,,,,10,1,-94.01759602,0.20829797
TYT,64,1,2024-06-13T14:59:14.638Z,english_731.wav,0,1,488,,,,,11,1.09391667,-3.24792735,1.32232845
TYT,65,1,2024-06-13T14:59:14.638Z,english_680.wav,0,0,695,,,,,0,0,34.87100104,0.28324866
TYT,65,1,2024-06-13T14:59:14.638Z,english_680.wav,0,0,695,,,,,1,0.1,-42.78152033,0.8126674
TYT,65,1,2024-06-13T14:59:14.638Z,english_680.wav,0,0,695,,,,,2,0.2,53.30670494,0.29371905
TYT,65,1,2024-06-13T14:59:14.638Z,english_680.wav,0,0,695,,,,,3,0.3,-19.15351041,0.35755618
TYT,65,1,2024-06-13T14:59:14.638Z,english_680.wav,0,0,695,,,,,4,0.4,81.43981803,1.51227527
TYT,65,1,2024-06-13T14:59:14.638Z,english_680.wav,0,0,695,,,,,5,0.5,-40.3529223,1.96868376
TYT,65,1,2024-06-13T14:59:14.638Z,english_680.wav,0,0,695,,,,,6,0.6,-80.08540334,0.83617015
TYT,65,1,2024-06-13T14:59:14.638Z,english_680.wav,0,0,695,,,,,7,0.7,-59.88446673,0.96819403
TYT,65,1,2024-06-13T14:59:14.638Z,english_680.wav,0,0,695,,,,,8,0.8,14.21531263,0.41039135
TYT,65,1,2024-06-13T14:59:14.638Z,english_680.wav,0,0,695,,,,,9,0.9,39.26105915,0.45984498
TYT,65,1,2024-06-13T14:59:14.638Z,english_680.wav,0,0,695,,,,,10,1,-43.76684188,0.60924907
TYT,65,1,2024-06-13T14:59:14.638Z,english_680.wav,0,0,695,,,,,11,1.09391667,-17.50761484,0.18151502
TYT,66,1,2024-06-13T14:59:14.638Z,english_772.wav,0,1,964,,,,,0,0,-98.58408334,0.99511883
TYT,66,1,2024-06-13T14:59:14.638Z,english_772.wav,0,1,964,,,,,1,0.1,-61.87034705,1.73357078
TYT,66,1,2024-06-13T14:59:14.638Z,english_772.wav,0,1,964,,,,,2,0.2,-18.09819366,0.0586696
TYT,66,1,2024-06-13T14:59:14.638Z,english_772.wav,0,1,964,,,,,3,0.3,12.3782964,0.06385699
TYT,66,1,2024-06-13T14:59:14.638Z,english_772.wav,0,1,964,,,,,4,0.4,-22.02938965,1.69798328
TYT,66,1,2024-06-13T14:59:14.638Z,english_772.wav,0,1,964,,,,,5,0.5,59.95527001,1.42811841
TYT,66,1,2024-06-13T14:59:14.638Z,english_772.wav,0,1,964,,,,,6,0.6,-20.50157966,1.57518039
TYT,66,1,2024-06-13T14:59:14.638Z,english_772.wav,0,1,964,,,,,7,0.7,-21.89990222,1.02318801
TYT,66,1,2024-06-13T14:59:14.638Z,english_772.wav,0,1,964,,,,,8,0.8,25.10186839,0.72889481
TYT,66,1,2024-06-13T14:59:14.638Z,english_772.wav,0,1,964,,,,,9,0.9,-9.02191032,0.61952628
TYT,66,1,2024-06-13T14:59:14.638Z,english_772.wav,0,1,964,,,,,10,1,-16.49784397,1.31221342
TYT,66,1,2024-06-13T14:59:14.638Z,english_772.wav,0,1,964,,,,,11,1.09391667,-42.94184761,1.78690458
TYT,67,1,2024-06-13T14:59:14.638Z,english_284.wav,0,0,627,,,,,0,0,-64.32327457,0.91308262
TYT,67,1,2024-06-13T14:59:14.638Z,english_284.wav,0,0,627,,,,,1,0.1,-67.89025783,0.76791564
TYT,67,1,2024-06-13T14:59:14.638Z,english_284.wav,0,0,627,,,,,2,0.2,63.39804367,0.83095971
TYT,67,1,2024-06-13T14:59:14.638Z,english_284.wav,0,0,627,,,,,3,0.3,-47.8895651,1.79742446
TYT,67,1,2024-06-13T14:59:14.638Z,english_284.wav,0,0,627,,,,,4,0.4,27.68105964,1.18503846
TYT,67,1,2024-06-13T14:59:14.638Z,english_284.wav,0,0,627,,,,,5,0.5,58.35244252,1.29913938
TYT,67,1,2024-06-13T14:59:14.638Z,english_284.wav,0,0,627,,,,,6,0.6,-24.74070708,1.72192785
TYT,67,1,2024-06-13T14:59:14.638Z,english_284.wav,0,0,627,,,,,7,0.7,-82.19387926,1.7387844
TYT,67,1,2024-06-13T14:59:14.638Z,english_284.wav,0,0,627,,,,,8,0.8,-97.32479033,1.05930336
TYT,67,1,2024-06-13T14:59:14.638Z,english_284.wav,0,0,627,,,,,9,0.9,99.46728609,0.10150249
TYT,67,1,2024-06-13T14:59:14.638Z,english_284.wav,0,0,627,,,,,10,1,-92.70862536,0.67687392
TYT,67,1,2024-06-13T14:59:14.638Z,english_284.wav,0,0,627,,,,,11,1.09391667,47.98339035,1.83996488
TYT,68,1,2024-06-13T14:59:14.638Z,english_548.wav,0,1,379,,,,,0,0,-24.88128465,1.63350405
TYT,68,1,2024-06-13T14:59:14.638Z,english_548.wav,0,1,379,,,,,1,0.1,1.54687273,0.1653087
TYT,68,1,2024-06-13T14:59:14.638Z,english_548.wav,0,1,379,,,,,2,0.2,58.02940435,0.01517729
TYT,68,1,2024-06-13T14:59:14.638Z,english_548.wav,0,1,379,,,,,3,0.3,-2.90148727,1.81666457
TYT,68,1,2024-06-13T14:59:14.638Z,english_548.wav,0,1,379,,,,,4,0.4,9.31686881,0.9208407
TYT,68,1,2024-06-13T14:59:14.638Z,english_548.wav,0,1,379,,,,,5,0.5,-62.70026351,1.35074745
TYT,68,1,2024-06-13T14:59:14.638Z,english_548.wav,0,1,379,,,,,6,0.6,-56.6580034,0.86467249
TYT,68,1,2024-06-13T14:59:14.638Z,english_548.wav,0,1,379,,,,,7,0.7,14.62965286,1.73416909
TYT,68,1,2024-06-13T14:59:14.638Z,english_548.wav,0,1,379,,,,,8,0.8,-14.87483285,1.42113571
TYT,68,1,2024-06-13T14:59:14.638Z,english_548.wav,0,1,379,,,,,9,0.9,69.23683794,0.95555023
TYT,68,1,2024-06-13T14:59:14.638Z,english_548.wav,0,1,379,,,,,10,1,-42.98683333,1.22888343
TYT,68,1,2024-06-13T14:59:14.638Z,english_548.wav,0,1,379,,,,,11,1.09391667,67.19958302,1.18114311
TYT,69,1,2024-06-13T14:59:14.638Z,english_780.wav,0,1,696,,,,,0,0,-87.5022813,1.98466869
TYT,69,1,2024-06-13T14:59:14.638Z,english_780.wav,0,1,696,,,,,1,0.1,48.02010378,1.54311759
TYT,69,1,2024-06-13T14:59:14.638Z,english_780.wav,0,1,696,,,,,2,0.2,83.84572734,0.61016867
TYT,69,1,2024-06-13T14:59:14.638Z,english_780.wav,0,1,696,,,,,3,0.3,9.25847543,1.29361746
TYT,69,1,2024-06-13T14:59:14.638Z,english_780.wav,0,1,696,,,,,4,0.4,49.97347861,0.77747475
TYT,69,1,2024-06-13T14:59:14.638Z,english_780.wav,0,1,696,,,,,5,0.5,-60.69242488,1.18422754
TYT,69,1,2024-06-13T14:59:14.638Z,english_780.wav,0,1,696,,,,,6,0.6,-21.82497806,0.82850866
TYT,69,1,2024-06-13T14:59:14.638Z,english_780.wav,0,1,696,,,,,7,0.7,13.87798501,0.60760734
TYT,69,1,2024-06-13T14:59:14.638Z,english_780.wav,0,1,696,,,,,8,0.8,32.41479889,0.87727466
TYT,69,1,2024-06-13T14:59:14.638Z,english_780.wav,0,1,696,,,,,9,0.9,54.1006632,1.39371886
TYT,69,1,2024-06-13T14:59:14.638Z,english_780.wav,0,1,696,,,,,10,1,-56.48325956,1.23252422
TYT,69,1,2024-06-13T14:59:14.638Z,english_780.wav,0,1,696,,,,,11,1.09391667,96.27244158,0.39725777
TYT,70,1,2024-06-13T14:59:14.638Z,english_478.wav,0,0,474,,,,,0,0,49.52865222,0.59081153
TYT,70,1,2024-06-13T14:59:14.638Z,english_478.wav,0,0,474,,,,,1,0.1,12.15356225,0.51284871
TYT,70,1,2024-06-13T14:59:14.638Z,english_478.wav,0,0,474,,,,,2,0.2,-37.73778512,1.1444407
TYT,70,1,2024-06-13T14:59:14.638Z,english_478.wav,0,0,474,,,,,3,0.3,-10.50364884,1.54775545
TYT,70,1,2024-06-13T14:59:14.638Z,english_478.wav,0,0,474,,,,,4,0.4,38.58870475,1.52435775
TYT,70,1,2024-06-13T14:59:14.638Z,english_478.wav,0,0,474,,,,,5,0.5,-22.27355878,1.20325801
TYT,70,1,2024-06-13T14:59:14.638Z,english_478.wav,0,0,474,,,,,6,0.6,-48.47445884,0.62139426
TYT,70,1,2024-06-13T14:59:14.638Z,english_478.wav,0,0,474,,,,,7,0.7,-51.27115533,0.67212897
TYT,70,1,2024-06-13T14:59:14.638Z,english_478.wav,0,0,474,,,,,8,0.8,73.13710457,1.21899898
TYT,70,1,2024-06-13T14:59:14.638Z,english_478.wav,0,0,474,,,,,9,0.9,5.78656281,0.57488153
TYT,70,1,2024-06-13T14:59:14.638Z,english_478.wav,0,0,474,,,,,10,1,-98.51331711,0.34521849
TYT,70,1,2024-06-13T14:59:14.638Z,english_478.wav,0,0,474,,,,,11,1.09391667,24.20472837,1.9492818
TYT,71,1,2024-06-13T14:59:14.638Z,english_165.wav,0,1,630,,,,,0,0,-2.19989306,1.80366268
TYT,71,1,2024-06-13T14:59:14.638Z,english_165.wav,0,1,630,,,,,1,0.1,-17.54385673,0.63199927
TYT,71,1,2024-06-13T14:59:14.638Z,english_165.wav,0,1,630,,,,,2,0.2,-35.4480887,1.72021084
TYT,71,1,2024-06-13T14:59:14.638Z,english_165.wav,0,1,630,,,,,3,0.3,38.42421814,1.85097281
TYT,71,1,2024-06-13T14:59:14.638Z,english_165.wav,0,1,630,,,,,4,0.4,19.51422171,0.29605958
TYT,71,1,2024-06-13T14:59:14.638Z,english_165.wav,0,1,630,,,,,5,0.5,-2.86344702,1.04155763
TYT,71,1,2024-06-13T14:59:14.638Z,english_165.wav,0,1,630,,,,,6,0.6,24.21245357,0.33290829
TYT,71,1,2024-06-13T14:59:14.638Z,english_165.wav,0,1,630,,,,,7,0.7,-20.07763652,0.77719776
TYT,71,1,2024-06-13T14:59:14.638Z,english_165.wav,0,1,630,,,,,8,0.8,-4.69526924,1.6690738
TYT,71,1,2024-06-13T14:59:14.638Z,english_165.wav,0,1,630,,,,,9,0.9,46.92767694,0.76251785
TYT,71,1,2024-06-13T14:59:14.638Z,english_165.wav,0,1,630,,,,,10,1,-4.88253914,1.74728665
TYT,71,1,2024-06-13T14:59:14.638Z,english_165.wav,0,1,630,,,,,11,1.09391667,23.85195976,0.67244999
TYT,72,1,2024-06-13T14:59:14.638Z,english_365.wav,0,1,669,,,,,0,0,-13.81078305,1.74540369
TYT,72,1,2024-06-13T14:59:14.638Z,english_365.wav,0,1,669,,,,,1,0.1,10.90636048,0.64746191
TYT,72,1,2024-06-13T14:59:14.638Z,english_365.wav,0,1,669,,,,,2,0.2,71.51010514,0.6414627
TYT,72,1,2024-06-13T14:59:14.638Z,english_365.wav,0,1,669,,,,,3,0.3,42.52309231,0.02436054
TYT,72,1,2024-06-13T14:59:14.638Z,english_365.wav,0,1,669,,,,,4,0.4,61.30753847,0.53231596
TYT,72,1,2024-06-13T14:59:14.638Z,english_365.wav,0,1,669,,,,,5,0.5,-34.48448602,1.68146763
TYT,72,1,2024-06-13T14:59:14.638Z,english_365.wav,0,1,669,,,,,6,0.6,35.84346113,1.59056588
TYT,72,1,2024-06-13T14:59:14.638Z,english_365.wav,0,1,669,,,,,7,0.7,-56.39981073,1.84748389
TYT,72,1,2024-06-13T14:59:14.638Z,english_365.wav,0,1,669,,,,,8,0.8,-86.58866218,1.51888636
TYT,72,1,2024-06-13T14:59:14.638Z,english_365.wav,0,1,669,,,,,9,0.9,-51.1308372,0.50507437
TYT,72,1,2024-06-13T14:59:14.638Z,english_365.wav,0,1,669,,,,,10,1,-44.59979753,1.32144417
TYT,72,1,2024-06-13T14:59:14.638Z,english_365.wav,0,1,669,,,,,11,1.09391667,99.72573964,1.70632081
TYT,73,1,2024-06-13T14:59:14.638Z,english_88.wav,0,0,367,,,,,0,0,-71.9844785,0.53660294
TYT,73,1,2024-06-13T14:59:14.638Z,english_88.wav,0,0,367,,,,,1,0.1,-49.01939905,1.47642874
TYT,73,1,2024-06-13T14:59:14.638Z,english_88.wav,0,0,367,,,,,2,0.2,50.12381506,0.52511459
TYT,73,1,2024-06-13T14:59:14.638Z,english_88.wav,0,0,367,,,,,3,0.3,-84.58055822,1.50109779
TYT,73,1,2024-06-13T14:59:14.638Z,english_88.wav,0,0,367,,,,,4,0.4,-75.77840035,0.97976024
TYT,73,1,2024-06-13T14:59:14.638Z,english_88.wav,0,0,367,,,,,5,0.5,-24.7911267,0.85239994
TYT,73,1,2024-06-13T14:59:14.638Z,english_88.wav,0,0,367,,,,,6,0.6,-23.67428976,1.05191942
TYT,73,1,2024-06-13T14:59:14.638Z,english_88.wav,0,0,367,,,,,7,0.7,-54.46174988,0.4066024
TYT,73,1,2024-06-13T14:59:14.638Z,english_88.wav,0,0,367,,,,,8,0.8,17.41292988,0.004424
TYT,73,1,2024-06-13T14:59:14.638Z,english_88.wav,0,0,367,,,,,9,0.9,-76.44908604,1.90836134
TYT,73,1,2024-06-13T14:59:14.638Z,english_88.wav,0,0,367,,,,,10,1,-2.36913576,1.74184755
TYT,73,1,2024-06-13T14:59:14.638Z,english_88.wav,0,0,367,,,,,11,1.09391667,-39.62259758,0.66301055
TYT,74,1,2024-06-13T14:59:14.638Z,english_990.wav,0,0,611,,,,,0,0,-41.91954114,1.07016473
TYT,74,1,2024-06-13T14:59:14.638Z,english_990.wav,0,0,611,,,,,1,0.1,-81.73689018,0.80416299
TYT,74,1,2024-06-13T14:59:14.638Z,english_990.wav,0,0,611,,,,,2,0.2,-8.6439495,1.27361164
TYT,74,1,2024-06-13T14:59:14.638Z,english_990.wav,0,0,611,,,,,3,0.3,-35.79468829,0.8357561
TYT,74,1,2024-06-13T14:59:14.638Z,english_990.wav,0,0,611,,,,,4,0.4,-15.71846635,0.68387575
TYT,74,1,2024-06-13T14:59:14.638Z,english_990.wav,0,0,611,,,,,5,0.5,30.29696997,0.51659091
TYT,74,1,2024-06-13T14:59:14.638Z,english_990.wav,0,0,611,,,,,6,0.6,58.5778321,0.86090319
TYT,74,1,2024-06-13T14:59:14.638Z,english_990.wav,0,0,611,,,,,7,0.7,-55.43771635,1.86495605
TYT,74,1,2024-06-13T14:59:14.638Z,english_990.wav,0,0,611,,,,,8,0.8,-4.04287403,0.50523281
TYT,74,1,2024-06-13T14:59:14.638Z,english_990.wav,0,0,611,,,,,9,0.9,96.7741085,0.60576665
TYT,74,1,2024-06-13T14:59:14.638Z,english_990.wav,0,0,611,,,,,10,1,73.27929718,1.38942897
TYT,74,1,2024-06-13T14:59:14.638Z,english_990.wav,0,0,611,,,,,11,1.09391667,-50.83652549,0.62697308
TYT,75,1,2024-06-13T14:59:14.638Z,english_113.wav,0,1,582,,,,,0,0,15.28166422,0.55667307
TYT,75,1,2024-06-13T14:59:14.638Z,english_113.wav,0,1,582,,,,,1,0.1,47.09879561,0.58592964
TYT,75,1,2024-06-13T14:59:14.638Z,english_113.wav,0,1,582,,,,,2,0.2,30.55065419,1.23790542
TYT,75,1,2024-06-13T14:59:14.638Z,english_113.wav,0,1,582,,,,,3,0.3,60.74459651,0.97364291
TYT,75,1,2024-06-13T14:59:14.638Z,english_113.wav,0,1,582,,,,,4,0.4,-80.73338373,0.01252312
TYT,75,1,2024-06-13T14:59:14.638Z,english_113.wav,0,1,582,,,,,5,0.5,-58.25545597,0.68334247
TYT,75,1,2024-06-13T14:59:14.638Z,english_113.wav,0,1,582,,,,,6,0.6,82.81118061,0.36908508
TYT,75,1,2024-06-13T14:59:14.638Z,english_113.wav,0,1,582,,,,,7,0.7,-61.4933419,0.9756346
TYT,75,1,2024-06-13T14:59:14.638Z,english_113.wav,0,1,582,,,,,8,0.8,15.22379089,1.72445689
TYT,75,1,2024-06-13T14:59:14.638Z,english_113.wav,0,1,582,,,,,9,0.9,-30.23460484,0.62749292
TYT,75,1,2024-06-13T14:59:14.638Z,english_113.wav,0,1,582,,,,,10,1,29.92994598,0.55530103
TYT,75,1,2024-06-13T14:59:14.638Z,english_113.wav,0,1,582,,,,,11,1.09391667,22.43308389,0.65235156
TYT,76,1,2024-06-13T14:59:14.638Z,english_522.wav,0,1,587,,,,,0,0,-41.53907187,0.57004443
TYT,76,1,2024-06-13T14:59:14.638Z,english_522.wav,0,1,587,,,,,1,0.1,-34.77242331,0.9419408
TYT,76,1,2024-06-13T14:59:14.638Z,english_522.wav,0,1,587,,,,,2,0.2,44.84688975,1.66104168
TYT,76,1,2024-06-13T14:59:14.638Z,english_522.wav,0,1,587,,,,,3,0.3,0.52781467,0.91446022
TYT,76,1,2024-06-13T14:59:14.638Z,english_522.wav,0,1,587,,,,,4,0.4,-85.49095183,1.87910308
TYT,76,1,2024-06-13T14:59:14.638Z,english_522.wav,0,1,587,,,,,5,0.5,49.75805681,1.6772423
TYT,76,1,2024-06-13T14:59:14.638Z,english_522.wav,0,1,587,,,,,6,0.6,-34.01238983,1.00245935
TYT,76,1,2024-06-13T14:59:14.638Z,english_522.wav,0,1,587,,,,,7,0.7,-76.80695945,1.44049733
TYT,76,1,2024-06-13T14:59:14.638Z,english_522.wav,0,1,587,,,,,8,0.8,57.48181657,0.74965877
TYT,76,1,2024-06-13T14:59:14.638Z,english_522.wav,0,1,587,,,,,9,0.9,-42.740182,1.30386633
TYT,76,1,2024-06-13T14:59:14.638Z,english_522.wav,0,1,587,,,,,10,1,76.48970234,1.30270801
TYT,76,1,2024-06-13T14:59:14.638Z,english_522.wav,0,1,587,,,,,11,1.09391667,-24.33451257,0.47933239
TYT,77,1,2024-06-13T14:59:14.638Z,english_123.wav,0,1,651,,,,,0,0,-32.38117679,1.9386571
TYT,77,1,2024-06-13T14:59:14.638Z,english_123.wav,0,1,651,,,,,1,0.1,-64.71485254,0.09408227
TYT,77,1,2024-06-13T14:59:14.638Z,english_123.wav,0,1,651,,,,,2,0.2,-18.01291226,0.88874753
TYT,77,1,2024-06-13T14:59:14.638Z,english_123.wav,0,1,651,,,,,3,0.3,-79.77518117,1.32217329
TYT,77,1,2024-06-13T14:59:14.638Z,english_123.wav,0,1,651,,,,,4,0.4,-61.15753939,0.99742331
TYT,77,1,2024-06-13T14:59:14.638Z,english_123.wav,0,1,651,,,,,5,0.5,5.43029515,0.11774982
TYT,77,1,2024-06-13T14:59:14.638Z,english_123.wav,0,1,651,,,,,6,0.6,-66.97873388,0.31317678
TYT,77,1,2024-06-13T14:59:14.638Z,english_123.wav,0,1,651,,,,,7,0.7,5.34490813,0.67167814
TYT,77,1,2024-06-13T14:59:14.638Z,english_123.wav,0,1,651,,,,,8,0.8,4.4190052,1.13014618
TYT,77,1,2024-06-13T14:59:14.638Z,english_123.wav,0,1,651,,,,,9,0.9,-81.7992949,1.16110431
TYT,77,1,2024-06-13T14:59:14.638Z,english_123.wav,0,1,651,,,,,10,1,16.85173502,1.02455086
TYT,77,1,2024-06-13T14:59:14.638Z,english_123.wav,0,1,651,,,,,11,1.09391667,68.10720927,1.2246775
TYT,78,1,2024-06-13T14:59:14.638Z,english_770.wav,0,1,742,,,,,0,0,91.12421142,0.39537222
TYT,78,1,2024-06-13T14:59:14.638Z,english_770.wav,0,1,742,,,,,1,0.1,-19.58540638,0.64754321
TYT,78,1,2024-06-13T14:59:14.638Z,english_770.wav,0,1,742,,,,,2,0.2,-79.28932671,1.33811004
TYT,78,1,2024-06-13T14:59:14.638Z,english_770.wav,0,1,742,,,,,3,0.3,84.41656944,0.79999887
TYT,78,1,2024-06-13T14:59:14.638Z,english_770.wav,0,1,742,,,,,4,0.4,-7.14437585,0.34341238
TYT,78,1,2024-06-13T14:59:14.638Z,english_770.wav,0,1,742,,,,,5,0.5,-65.427815,0.89137249
TYT,78,1,2024-06-13T14:59:14.638Z,english_770.wav,0,1,742,,,,,6,0.6,24.29112002,1.67993341
TYT,78,1,2024-06-13T14:59:14.638Z,english_770.wav,0,1,742,,,,,7,0.7,-96.64014953,1.65600172
TYT,78,1,2024-06-13T14:59:14.638Z,english_770.wav,0,1,742,,,,,8,0.8,-19.88619379,0.2664894
TYT,78,1,2024-06-13T14:59:14.638Z,english_770.wav,0,1,742,,,,,9,0.9,6.75538061,1.80740877
TYT,78,1,2024-06-13T14:59:14.638Z,english_770.wav,0,1,742,,,,,10,1,-9.4599271,0.27817675
TYT,78,1,2024-06-13T14:59:14.638Z,english_770.wav,0,1,742,,,,,11,1.09391667,37.64052975,0.07045036
TYT,79,1,2024-06-13T14:59:14.638Z,english_33.wav,0,1,580,,,,,0,0,-39.58082457,0.53160826
TYT,79,1,2024-06-13T14:59:14.638Z,english_33.wav,0,1,580,,,,,1,0.1,30.52342894,0.02130102
TYT,79,1,2024-06-13T14:59:14.638Z,english_33.wav,0,1,580,,,,,2,0.2,23.47265499,1.79968549
TYT,79,1,2024-06-13T14:59:14.638Z,english_33.wav,0,1,580,,,,,3,0.3,35.06724548,1.77904441
TYT,79,1,2024-06-13T14:59:14.638Z,english_33.wav,0,1,580,,,,,4,0.4,68.41384456,0.50678762
TYT,79,1,2024-06-13T14:59:14.638Z,english_33.wav,0,1,580,,,,,5,0.5,91.35527089,1.72631603
TYT,79,1,2024-06-13T14:59:14.638Z,english_33.wav,0,1,580,,,,,6,0.6,45.24436298,0.90579128
TYT,79,1,2024-06-13T14:59:14.638Z,english_33.wav,0,1,580,,,,,7,0.7,-95.9941639,1.42335886
TYT,79,1,2024-06-13T14:59:14.638Z,english_33.wav,0,1,580,,,,,8,0.8,52.18884155,1.10708789
TYT,79,1,2024-06-13T14:59:14.638Z,english_33.wav,0,1,580,,,,,9,0.9,-59.5821221,1.04407415
TYT,79,1,2024-06-13T14:59:14.638Z,english_33.wav,0,1,580,,,,,10,1,-35.64274737,1.58844638
TYT,79,1,2024-06-13T14:59:14.638Z,english_33.wav,0,1,580,,,,,11,1.09391667,-73.32122587,0.94640907
TYT,80,1,2024-06-13T14:59:14.638Z,english_842.wav,0,1,520,,,,,0,0,-81.72100022,1.05096469
TYT,80,1,2024-06-13T14:59:14.638Z,english_842.wav,0,1,520,,,,,1,0.1,18.84637506,0.68369723
TYT,80,1,2024-06-13T14:59:14.638Z,english_842.wav,0,1,520,,,,,2,0.2,-80.18621681,1.52749806
TYT,80,1,2024-06-13T14:59:14.638Z,english_842.wav,0,1,520,,,,,3,0.3,38.99509662,0.81526033
TYT,80,1,2024-06-13T14:59:14.638Z,english_842.wav,0,1,520,,,,,4,0.4,24.76840986,1.70702662
TYT,80,1,2024-06-13T14:59:14.638Z,english_842.wav,0,1,520,,,,,5,0.5,-19.71585535,1.05576458
TYT,80,1,2024-06-13T14:59:14.638Z,english_842.wav,0,1,520,,,,,6,0.6,69.03077802,0.15620837
TYT,80,1,2024-06-13T14:59:14.638Z,english_842.wav,0,1,520,,,,,7,0.7,35.91349986,1.43624924
TYT,80,1,2024-06-13T14:59:14.638Z,english_842.wav,0,1,520,,,,,8,0.8,-27.17447615,0.34293919
TYT,80,1,2024-06-13T14:59:14.638Z,english_842.wav,0,1,520,,,,,9,0.9,-26.64790606,1.32305508
TYT,80,1,2024-06-13T14:59:14.638Z,english_842.wav,0,1,520,,,,,10,1,27.41987323,1.04384127
TYT,80,1,2024-06-13T14:59:14.638Z,english_842.wav,0,1,520,,,,,11,1.09391667,30.72990316,1.55933633
TYT,81,1,2024-06-13T14:59:14.638Z,english_45.wav,0,1,450,,,,,0,0,-55.14721801,0.29299266
TYT,81,1,2024-06-13T14:59:14.638Z,english_45.wav,0,1,450,,,,,1,0.1,57.09452307,0.9247964
TYT,81,1,2024-06-13T14:59:14.638Z,english_45.wav,0,1,450,,,,,2,0.2,-1.62499195,1.0494158
TYT,81,1,2024-06-13T14:59:14.638Z,english_45.wav,0,1,450,,,,,3,0.3,-13.00347301,1.81345336
TYT,81,1,2024-06-13T14:59:14.638Z,english_45.wav,0,1,450,,,,,4,0.4,13.64765964,1.7292362
TYT,81,1,2024-06-13T14:59:14.638Z,english_45.wav,0,1,450,,,,,5,0.5,-16.23645369,0.3059786
TYT,81,1,2024-06-13T14:59:14.638Z,english_45.wav,0,1,450,,,,,6,0.6,12.80202188,1.60566624
TYT,81,1,2024-06-13T14:59:14.638Z,english_45.wav,0,1,450,,,,,7,0.7,18.490615,1.60640041
TYT,81,1,2024-06-13T14:59:14.638Z,english_45.wav,0,1,450,,,,,8,0.8,-32.73911513,0.6923723
TYT,81,1,2024-06-13T14:59:14.638Z,english_45.wav,0,1,450,,,,,9,0.9,72.91810524,1.31031073
TYT,81,1,2024-06-13T14:59:14.638Z,english_45.wav,0,1,450,,,,,10,1,-39.54069726,0.9624361
TYT,81,1,2024-06-13T14:59:14.638Z,english_45.wav,0,1,450,,,,,11,1.09391667,1.32954538,1.523717
TYT,82,1,2024-06-13T14:59:14.638Z,english_893.wav,0,0,474,,,,,0,0,-88.27288408,0.46079997
TYT,82,1,2024-06-13T14:59:14.638Z,english_893.wav,0,0,474,,,,,1,0.1,65.02931774,1.28353758
TYT,82,1,2024-06-13T14:59:14.638Z,english_893.wav,0,0,474,,,,,2,0.2,52.75255946,1.5240413
TYT,82,1,2024-06-13T14:59:14.638Z,english_893.wav,0,0,474,,,,,3,0.3,83.63729727,1.67217786
TYT,82,1,2024-06-13T14:59:14.638Z,english_893.wav,0,0,474,,,,,4,0.4,-40.64554186,1.32541151
TYT,82,1,2024-06-13T14:59:14.638Z,english_893.wav,0,0,474,,,,,5,0.5,-63.5561657,0.97852107
TYT,82,1,2024-06-13T14:59:14.638Z,english_893.wav,0,0,474,,,,,6,0.6,86.64180858,0.03458433
TYT,82,1,2024-06-13T14:59:14.638Z,english_893.wav,0,0,474,,,,,7,0.7,66.95085035,1.20988187
TYT,82,1,2024-06-13T14:59:14.638Z,english_893.wav,0,0,474,,,,,8,0.8,-95.78590216,1.76333765
TYT,82,1,2024-06-13T14:59:14.638Z,english_893.wav,0,0,474,,,,,9,0.9,-69.05067698,0.45158105
TYT,82,1,2024-06-13T14:59:14.638Z,english_893.wav,0,0,474,,,,,10,1,-26.34394451,1.28641333
TYT,82,1,2024-06-13T14:59:14.638Z,english_893.wav,0,0,474,,,,,11,1.09391667,46.22858611,0.88140728
TYT,83,1,2024-06-13T14:59:14.638Z,english_845.wav,0,1,350,,,,,0,0,-61.18892781,1.55957949
TYT,83,1,2024-06-13T14:59:14.638Z,english_845.wav,0,1,350,,,,,1,0.1,8.4641668,1.05534156
TYT,83,1,2024-06-13T14:59:14.638Z,english_845.wav,0,1,350,,,,,2,0.2,0.84088791,0.93552033
TYT,83,1,2024-06-13T14:59:14.638Z,english_845.wav,0,1,350,,,,,3,0.3,-9.8412312,0.24777776
TYT,83,1,2024-06-13T14:59:14.638Z,english_845.wav,0,1,350,,,,,4,0.4,-21.11860301,1.606596
TYT,83,1,2024-06-13T14:59:14.638Z,english_845.wav,0,1,350,,,,,5,0.5,34.07912785,0.0797637
TYT,83,1,2024-06-13T14:59:14.638Z,english_845.wav,0,1,350,,,,,6,0.6,64.64422996,1.39069449
TYT,83,1,2024-06-13T14:59:14.638Z,english_845.wav,0,1,350,,,,,7,0.7,81.5282496,1.71426298
TYT,83,1,2024-06-13T14:59:14.638Z,english_845.wav,0,1,350,,,,,8,0.8,-41.49609234,1.5257375
TYT,83,1,2024-06-13T14:59:14.638Z,english_845.wav,0,1,350,,,,,9,0.9,-61.24692635,1.70112136
TYT,83,1,2024-06-13T14:59:14.638Z,english_845.wav,0,1,350,,,,,10,1,-26.75626129,1.79204809
TYT,83,1,2024-06-13T14:59:14.638Z,english_845.wav,0,1,350,,,,,11,1.09391667,-16.60910859,0.33711634
TYT,84,1,2024-06-13T14:59:14.638Z,english_860.wav,0,1,442,,,,,0,0,-75.11512177,0.5802678
TYT,84,1,2024-06-13T14:59:14.638Z,english_860.wav,0,1,442,,,,,1,0.1,-76.73255409,0.63510207
TYT,84,1,2024-06-13T14:59:14.638Z,english_860.wav,0,1,442,,,,,2,0.2,-22.8093588,1.68265606
TYT,84,1,2024-06-13T14:59:14.638Z,english_860.wav,0,1,442,,,,,3,0.3,52.97738113,1.3480606
TYT,84,1,2024-06-13T14:59:14.638Z,english_860.wav,0,1,442,,,,,4,0.4,-48.45234216,1.82238625
TYT,84,1,2024-06-13T14:59:14.638Z,english_860.wav,0,1,442,,,,,5,0.5,-73.13735188,1.51063726
TYT,84,1,2024-06-13T14:59:14.638Z,english_860.wav,0,1,442,,,,,6,0.6,-46.97684059,1.0243353
TYT,84,1,2024-06-13T14:59:14.638Z,english_860.wav,0,1,442,,,,,7,0.7,-71.08749695,1.81300466
TYT,84,1,2024-06-13T14:59:14.638Z,english_860.wav,0,1,442,,,,,8,0.8,63.11648415,1.10665048
TYT,84,1,2024-06-13T14:59:14.638Z,english_860.wav,0,1,442,,,,,9,0.9,33.70639775,0.26575263
TYT,84,1,2024-06-13T14:59:14.638Z,english_860.wav,0,1,442,,,,,10,1,39.70734852,1.65404894
TYT,84,1,2024-06-13T14:59:14.638Z,english_860.wav,0,1,442,,,,,11,1.09391667,-93.86026271,1.66618104
TYT,85,1,2024-06-13T14:59:14.638Z,english_472.wav,0,0,335,,,,,0,0,-23.72821767,0.96911452
TYT,85,1,2024-06-13T14:59:14.638Z,english_472.wav,0,0,335,,,,,1,0.1,7.29471696,0.40121138
TYT,85,1,2024-06-13T14:59:14.638Z,english_472.wav,0,0,335,,,,,2,0.2,-58.55005371,1.15410482
TYT,85,1,2024-06-13T14:59:14.638Z,english_472.wav,0,0,335,,,,,3,0.3,77.0504256,1.91400861
TYT,85,1,2024-06-13T14:59:14.638Z,english_472.wav,0,0,335,,,,,4,0.4,87.29275565,0.05830067
TYT,85,1,2024-06-13T14:59:14.638Z,english_472.wav,0,0,335,,,,,5,0.5,-70.9646192,0.87176087
TYT,85,1,2024-06-13T14:59:14.638Z,english_472.wav,0,0,335,,,,,6,0.6,72.82743185,0.23371631
TYT,85,1,2024-06-13T14:59:14.638Z,english_472.wav,0,0,335,,,,,7,0.7,-40.27439915,1.66198616
TYT,85,1,2024-06-13T14:59:14.638Z,english_472.wav,0,0,335,,,,,8,0.8,-15.91396931,0.22492459
TYT,85,1,2024-06-13T14:59:14.638Z,english_472.wav,0,0,335,,,,,9,0.9,27.40014094,0.55757982
TYT,85,1,2024-06-13T14:59:14.638Z,english_472.wav,0,0,335,,,,,10,1,-13.69917785,1.15387827
TYT,85,1,2024-06-13T14:59:14.638Z,english_472.wav,0,0,335,,,,,11,1.09391667,26.78237701,1.85526867
TYT,86,1,2024-06-13T14:59:14.638Z,english_620.wav,0,1,552,,,,,0,0,70.25249287,1.60927754
TYT,86,1,2024-06-13T14:59:14.638Z,english_620.wav,0,1,552,,,,,1,0.1,-54.17403538,0.35556605
TYT,86,1,2024-06-13T14:59:14.638Z,english_620.wav,0,1,552,,,,,2,0.2,-24.27909239,1.04145572
TYT,86,1,2024-06-13T14:59:14.638Z,english_620.wav,0,1,552,,,,,3,0.3,-72.34505274,1.98653049
TYT,86,1,2024-06-13T14:59:14.638Z,english_620.wav,0,1,552,,,,,4,0.4,-84.16228676,0.35027861
TYT,86,1,2024-06-13T14:59:14.638Z,english_620.wav,0,1,552,,,,,5,0.5,-50.29822256,1.43135392
TYT,86,1,2024-06-13T14:59:14.638Z,english_620.wav,0,1,552,,,,,6,0.6,87.34344189,1.2880573
TYT,86,1,2024-06-13T14:59:14.638Z,english_620.wav,0,1,552,,,,,7,0.7,-51.38543443,1.68116405
TYT,86,1,2024-06-13T14:59:14.638Z,english_620.wav,0,1,552,,,,,8,0.8,40.7028666,1.8236964
TYT,86,1,2024-06-13T14:59:14.638Z,english_620.wav,0,1,552,,,,,9,0.9,-95.70979416,0.04712506
TYT,86,1,2024-06-13T14:59:14.638Z,english_620.wav,0,1,552,,,,,10,1,95.25950338,1.86928379
TYT,86,1,2024-06-13T14:59:14.638Z,english_620.wav,0,1,552,,,,,11,1.09391667,-68.50782959,0.75081121
TYT,87,1,2024-06-13T14:59:14.638Z,english_527.wav,0,1,303,,,,,0,0,-1.3381573,0.84142087
TYT,87,1,2024-06-13T14:59:14.638Z,english_527.wav,0,1,303,,,,,1,0.1,58.15701777,0.45178491
TYT,87,1,2024-06-13T14:59:14.638Z,english_527.wav,0,1,303,,,,,2,0.2,8.11788849,1.20075359
TYT,87,1,2024-06-13T14:59:14.638Z,english_527.wav,0,1,303,,,,,3,0.3,44.39731413,0.65328865
TYT,87,1,2024-06-13T14:59:14.638Z,english_527.wav,0,1,303,,,,,4,0.4,-87.54788147,0.96835908
TYT,87,1,2024-06-13T14:59:14.638Z,english_527.wav,0,1,303,,,,,5,0.5,-93.25195843,0.53512631
TYT,87,1,2024-06-13T14:59:14.638Z,english_527.wav,0,1,303,,,,,6,0.6,93.45473079,1.66257619
TYT,87,1,2024-06-13T14:59:14.638Z,english_527.wav,0,1,303,,,,,7,0.7,47.10175622,1.10602602
TYT,87,1,2024-06-13T14:59:14.638Z,english_527.wav,0,1,303,,,,,8,0.8,40.24548325,0.88440787
TYT,87,1,2024-06-13T14:59:14.638Z,english_527.wav,0,1,303,,,,,9,0.9,26.99431972,1.16792169
TYT,87,1,2024-06-13T14:59:14.638Z,english_527.wav,0,1,303,,,,,10,1,23.18417948,1.44045273
TYT,87,1,2024-06-13T14:59:14.638Z,english_527.wav,0,1,303,,,,,11,1.09391667,1.05655255,0.83626501
TYT,88,1,2024-06-13T14:59:14.638Z,english_248.wav,0,1,712,,,,,0,0,-77.65935665,1.91143756
TYT,88,1,2024-06-13T14:59:14.638Z,english_248.wav,0,1,712,,,,,1,0.1,13.01307899,0.95656899
TYT,88,1,2024-06-13T14:59:14.638Z,english_248.wav,0,1,712,,,,,2,0.2,-6.27197977,0.05318577
TYT,88,1,2024-06-13T14:59:14.638Z,english_248.wav,0,1,712,,,,,3,0.3,99.77801709,1.67121165
TYT,88,1,2024-06-13T14:59:14.638Z,english_248.wav,0,1,712,,,,,4,0.4,-3.73096601,0.67240869
TYT,88,1,2024-06-13T14:59:14.638Z,english_248.wav,0,1,712,,,,,5,0.5,48.17717711,1.00234822
TYT,88,1,2024-06-13T14:59:14.638Z,english_248.wav,0,1,712,,,,,6,0.6,-36.84313939,0.30376957
TYT,88,1,2024-06-13T14:59:14.638Z,english_248.wav,0,1,712,,,,,7,0.7,-61.99766544,1.01064126
TYT,88,1,2024-06-13T14:59:14.638Z,english_248.wav,0,1,712,,,,,8,0.8,-76.82864618,1.57737707
TYT,88,1,2024-06-13T14:59:14.638Z,english_248.wav,0,1,712,,,,,9,0.9,-38.01252631,0.84763517
TYT,88,1,2024-06-13T14:59:14.638Z,english_248.wav,0,1,712,,,,,10,1,85.29761704,1.67346182
TYT,88,1,2024-06-13T14:59:14.638Z,english_248.wav,0,1,712,,,,,11,1.09391667,46.87388229,0.28083573
TYT,89,1,2024-06-13T14:59:14.638Z,english_491.wav,0,1,1108,,,,,0,0,-86.04728356,0.47614904
TYT,89,1,2024-06-13T14:59:14.638Z,english_491.wav,0,1,1108,,,,,1,0.1,-65.88451303,0.55089812
TYT,89,1,2024-06-13T14:59:14.638Z,english_491.wav,0,1,1108,,,,,2,0.2,-80.48711576,1.1167033
TYT,89,1,2024-06-13T14:59:14.638Z,english_491.wav,0,1,1108,,,,,3,0.3,-14.20773903,1.47203435
TYT,89,1,2024-06-13T14:59:14.638Z,english_491.wav,0,1,1108,,,,,4,0.4,8.14780759,1.34464479
TYT,89,1,2024-06-13T14:59:14.638Z,english_491.wav,0,1,1108,,,,,5,0.5,-64.09571567,1.15432427
TYT,89,1,2024-06-13T14:59:14.638Z,english_491.wav,0,1,1108,,,,,6,0.6,54.51757577,1.10816548
TYT,89,1,2024-06-13T14:59:14.638Z,english_491.wav,0,1,1108,,,,,7,0.7,44.38602798,0.53599429
TYT,89,1,2024-06-13T14:59:14.638Z,english_491.wav,0,1,1108,,,,,8,0.8,-1.2376907,1.13980754
TYT,89,1,2024-06-13T14:59:14.638Z,english_491.wav,0,1,1108,,,,,9,0.9,77.13121924,0.89300384
TYT,89,1,2024-06-13T14:59:14.638Z,english_491.wav,0,1,1108,,,,,10,1,-14.590686,0.5502855
TYT,89,1,2024-06-13T14:59:14.638Z,english_491.wav,0,1,1108,,,,,11,1.09391667,68.41813951,1.59909439
TYT,90,1,2024-06-13T14:59:14.638Z,english_883.wav,0,0,687,,,,,0,0,-84.46412598,0.36586486
TYT,90,1,2024-06-13T14:59:14.638Z,english_883.wav,0,0,687,,,,,1,0.1,-48.29800463,1.2838589
TYT,90,1,2024-06-13T14:59:14.638Z,english_883.wav,0,0,687,,,,,2,0.2,-81.14674871,0.35124497
TYT,90,1,2024-06-13T14:59:14.638Z,english_883.wav,0,0,687,,,,,3,0.3,-14.72052063,0.55313004
TYT,90,1,2024-06-13T14:59:14.638Z,english_883.wav,0,0,687,,,,,4,0.4,84.15645486,1.38696071
TYT,90,1,2024-06-13T14:59:14.638Z,english_883.wav,0,0,687,,,,,5,0.5,-46.7306994,0.05285084
TYT,90,1,2024-06-13T14:59:14.638Z,english_883.wav,0,0,687,,,,,6,0.6,-55.92753429,0.33437309
TYT,90,1,2024-06-13T14:59:14.638Z,english_883.wav,0,0,687,,,,,7,0.7,69.20414462,0.05014106
TYT,90,1,2024-06-13T14:59:14.638Z,english_883.wav,0,0,687,,,,,8,0.8,42.35113705,1.1093355
TYT,90,1,2024-06-13T14:59:14.638Z,english_883.wav,0,0,687,,,,,9,0.9,68.93741473,1.05755937
TYT,90,1,2024-06-13T14:59:14.638Z,english_883.wav,0,0,687,,,,,10,1,5.16727893,0.06749628
TYT,90,1,2024-06-13T14:59:14.638Z,english_883.wav,0,0,687,,,,,11,1.09391667,-87.05225408,1.22701865
