subj,trial,block,date,stim,stim_order,response,rt,age,english,language,sex,param_index,segment,pitch,stretch
wxb_1058,0,0,2024-06-16T02:59:50.941Z,english_885.wav,0,1,2904,22,4,chinese,m,0,0,54.55471531,1.33761042
wxb_1058,0,0,2024-06-16T02:59:50.941Z,english_885.wav,0,1,2904,22,4,chinese,m,1,0.1,-9.45538995,0.16839263
wxb_1058,0,0,2024-06-16T02:59:50.941Z,english_885.wav,0,1,2904,22,4,chinese,m,2,0.2,51.71669589,0.15282828
wxb_1058,0,0,2024-06-16T02:59:50.941Z,english_885.wav,0,1,2904,22,4,chinese,m,3,0.3,35.30778931,0.93528856
wxb_1058,0,0,2024-06-16T02:59:50.941Z,english_885.wav,0,1,2904,22,4,chinese,m,4,0.4,20.62870104,0.42450529
wxb_1058,0,0,2024-06-16T02:59:50.941Z,english_885.wav,0,1,2904,22,4,chinese,m,5,0.5,45.97492152,1.13086713
wxb_1058,0,0,2024-06-16T02:59:50.941Z,english_885.wav,0,1,2904,22,4,chinese,m,6,0.6,57.72908242,1.16302136
wxb_1058,0,0,2024-06-16T02:59:50.941Z,english_885.wav,0,1,2904,22,4,chinese,m,7,0.7,-7.90762664,1.12991064
wxb_1058,0,0,2024-06-16T02:59:50.941Z,english_885.wav,0,1,2904,22,4,chinese,m,8,0.8,-27.43803549,0.98725245
wxb_1058,0,0,2024-06-16T02:59:50.941Z,english_885.wav,0,1,2904,22,4,chinese,m,9,0.9,-45.75999486,0.61152154
wxb_1058,0,0,2024-06-16T02:59:50.941Z,english_885.wav,0,1,2904,22,4,chinese,m,10,1,65.06809526,0.86912983
wxb_1058,0,0,2024-06-16T02:59:50.941Z,english_885.wav,0,1,2904,22,4,chinese,m,11,1.09391667,85.31433116,0.92468658
wxb_1058,1,0,2024-06-16T02:59:50.941Z,english_892.wav,0,1,1794,22,4,chinese,m,0,0,-38.86767844,1.06552273
wxb_1058,1,0,2024-06-16T02:59:50.941Z,english_892.wav,0,1,1794,22,4,chinese,m,1,0.1,29.31331075,1.21891825
wxb_1058,1,0,2024-06-16T02:59:50.941Z,english_892.wav,0,1,1794,22,4,chinese,m,2,0.2,37.64120423,0.29574975
wxb_1058,1,0,2024-06-16T02:59:50.941Z,english_892.wav,0,1,1794,22,4,chinese,m,3,0.3,25.96997634,0.59708479
wxb_1058,1,0,2024-06-16T02:59:50.941Z,english_892.wav,0,1,1794,22,4,chinese,m,4,0.4,25.06772021,1.90102073
wxb_1058,1,0,2024-06-16T02:59:50.941Z,english_892.wav,0,1,1794,22,4,chinese,m,5,0.5,19.15395825,0.08656429
wxb_1058,1,0,2024-06-16T02:59:50.941Z,english_892.wav,0,1,1794,22,4,chinese,m,6,0.6,96.7473058,1.91022134
wxb_1058,1,0,2024-06-16T02:59:50.941Z,english_892.wav,0,1,1794,22,4,chinese,m,7,0.7,-43.25342834,0.18523015
wxb_1058,1,0,2024-06-16T02:59:50.941Z,english_892.wav,0,1,1794,22,4,chinese,m,8,0.8,-30.92807771,0.17424813
wxb_1058,1,0,2024-06-16T02:59:50.941Z,english_892.wav,0,1,1794,22,4,chinese,m,9,0.9,-18.81814059,1.10584125
wxb_1058,1,0,2024-06-16T02:59:50.941Z,english_892.wav,0,1,1794,22,4,chinese,m,10,1,21.2135068,1.16786025
wxb_1058,1,0,2024-06-16T02:59:50.941Z,english_892.wav,0,1,1794,22,4,chinese,m,11,1.09391667,36.95597597,1.53062308
wxb_1058,2,0,2024-06-16T02:59:50.941Z,english_498.wav,0,1,1349,22,4,chinese,m,0,0,43.98055184,1.94722798
wxb_1058,2,0,2024-06-16T02:59:50.941Z,english_498.wav,0,1,1349,22,4,chinese,m,1,0.1,91.3545984,1.93048351
wxb_1058,2,0,2024-06-16T02:59:50.941Z,english_498.wav,0,1,1349,22,4,chinese,m,2,0.2,-25.91563113,0.27240706
wxb_1058,2,0,2024-06-16T02:59:50.941Z,english_498.wav,0,1,1349,22,4,chinese,m,3,0.3,-14.96140851,1.06623965
wxb_1058,2,0,2024-06-16T02:59:50.941Z,english_498.wav,0,1,1349,22,4,chinese,m,4,0.4,-8.05824247,1.41558656
wxb_1058,2,0,2024-06-16T02:59:50.941Z,english_498.wav,0,1,1349,22,4,chinese,m,5,0.5,-61.63888891,0.26700347
wxb_1058,2,0,2024-06-16T02:59:50.941Z,english_498.wav,0,1,1349,22,4,chinese,m,6,0.6,37.86658664,0.54434522
wxb_1058,2,0,2024-06-16T02:59:50.941Z,english_498.wav,0,1,1349,22,4,chinese,m,7,0.7,-97.52325855,0.79258737
wxb_1058,2,0,2024-06-16T02:59:50.941Z,english_498.wav,0,1,1349,22,4,chinese,m,8,0.8,-16.03910224,1.13417158
wxb_1058,2,0,2024-06-16T02:59:50.941Z,english_498.wav,0,1,1349,22,4,chinese,m,9,0.9,83.25609208,0.68565339
wxb_1058,2,0,2024-06-16T02:59:50.941Z,english_498.wav,0,1,1349,22,4,chinese,m,10,1,-65.28300381,0.73020294
wxb_1058,2,0,2024-06-16T02:59:50.941Z,english_498.wav,0,1,1349,22,4,chinese,m,11,1.09391667,38.04109912,1.48505369
wxb_1058,3,0,2024-06-16T02:59:50.941Z,english_69.wav,0,1,610,22,4,chinese,m,0,0,-8.22406931,0.7296211
wxb_1058,3,0,2024-06-16T02:59:50.941Z,english_69.wav,0,1,610,22,4,chinese,m,1,0.1,-46.19784604,1.54205881
wxb_1058,3,0,2024-06-16T02:59:50.941Z,english_69.wav,0,1,610,22,4,chinese,m,2,0.2,-49.45533056,0.56573239
wxb_1058,3,0,2024-06-16T02:59:50.941Z,english_69.wav,0,1,610,22,4,chinese,m,3,0.3,69.56374807,1.53704253
wxb_1058,3,0,2024-06-16T02:59:50.941Z,english_69.wav,0,1,610,22,4,chinese,m,4,0.4,-92.74652317,0.47977854
wxb_1058,3,0,2024-06-16T02:59:50.941Z,english_69.wav,0,1,610,22,4,chinese,m,5,0.5,52.31402986,0.1278397
wxb_1058,3,0,2024-06-16T02:59:50.941Z,english_69.wav,0,1,610,22,4,chinese,m,6,0.6,35.98181846,1.442132
wxb_1058,3,0,2024-06-16T02:59:50.941Z,english_69.wav,0,1,610,22,4,chinese,m,7,0.7,29.79563749,0.12498308
wxb_1058,3,0,2024-06-16T02:59:50.941Z,english_69.wav,0,1,610,22,4,chinese,m,8,0.8,49.53175238,0.29427441
wxb_1058,3,0,2024-06-16T02:59:50.941Z,english_69.wav,0,1,610,22,4,chinese,m,9,0.9,-69.91203253,1.27290514
wxb_1058,3,0,2024-06-16T02:59:50.941Z,english_69.wav,0,1,610,22,4,chinese,m,10,1,-91.34062215,0.87034484
wxb_1058,3,0,2024-06-16T02:59:50.941Z,english_69.wav,0,1,610,22,4,chinese,m,11,1.09391667,39.19432379,1.40202541
wxb_1058,4,0,2024-06-16T02:59:50.941Z,english_13.wav,0,0,1370,22,4,chinese,m,0,0,64.38962342,1.00112645
wxb_1058,4,0,2024-06-16T02:59:50.941Z,english_13.wav,0,0,1370,22,4,chinese,m,1,0.1,-51.8551163,1.06925212
wxb_1058,4,0,2024-06-16T02:59:50.941Z,english_13.wav,0,0,1370,22,4,chinese,m,2,0.2,-2.17663011,1.94512736
wxb_1058,4,0,2024-06-16T02:59:50.941Z,english_13.wav,0,0,1370,22,4,chinese,m,3,0.3,58.1527086,1.38458927
wxb_1058,4,0,2024-06-16T02:59:50.941Z,english_13.wav,0,0,1370,22,4,chinese,m,4,0.4,-46.96650895,1.28889459
wxb_1058,4,0,2024-06-16T02:59:50.941Z,english_13.wav,0,0,1370,22,4,chinese,m,5,0.5,-16.57361125,1.54024857
wxb_1058,4,0,2024-06-16T02:59:50.941Z,english_13.wav,0,0,1370,22,4,chinese,m,6,0.6,75.93348377,1.09201657
wxb_1058,4,0,2024-06-16T02:59:50.941Z,english_13.wav,0,0,1370,22,4,chinese,m,7,0.7,19.1912547,0.41927036
wxb_1058,4,0,2024-06-16T02:59:50.941Z,english_13.wav,0,0,1370,22,4,chinese,m,8,0.8,-13.17481254,0.35094068
wxb_1058,4,0,2024-06-16T02:59:50.941Z,english_13.wav,0,0,1370,22,4,chinese,m,9,0.9,82.06501342,1.95646908
wxb_1058,4,0,2024-06-16T02:59:50.941Z,english_13.wav,0,0,1370,22,4,chinese,m,10,1,98.060651,0.64409889
wxb_1058,4,0,2024-06-16T02:59:50.941Z,english_13.wav,0,0,1370,22,4,chinese,m,11,1.09391667,-65.93265282,0.45282126
wxb_1058,5,0,2024-06-16T02:59:50.941Z,english_579.wav,0,1,698,22,4,chinese,m,0,0,-6.35392527,1.17195822
wxb_1058,5,0,2024-06-16T02:59:50.941Z,english_579.wav,0,1,698,22,4,chinese,m,1,0.1,5.78092652,1.67817047
wxb_1058,5,0,2024-06-16T02:59:50.941Z,english_579.wav,0,1,698,22,4,chinese,m,2,0.2,55.74149698,0.96512057
wxb_1058,5,0,2024-06-16T02:59:50.941Z,english_579.wav,0,1,698,22,4,chinese,m,3,0.3,64.66054606,0.73760998
wxb_1058,5,0,2024-06-16T02:59:50.941Z,english_579.wav,0,1,698,22,4,chinese,m,4,0.4,-20.37343055,0.24043414
wxb_1058,5,0,2024-06-16T02:59:50.941Z,english_579.wav,0,1,698,22,4,chinese,m,5,0.5,97.55604333,0.0297902
wxb_1058,5,0,2024-06-16T02:59:50.941Z,english_579.wav,0,1,698,22,4,chinese,m,6,0.6,-7.40313463,0.83835869
wxb_1058,5,0,2024-06-16T02:59:50.941Z,english_579.wav,0,1,698,22,4,chinese,m,7,0.7,-9.7199121,0.36547932
wxb_1058,5,0,2024-06-16T02:59:50.941Z,english_579.wav,0,1,698,22,4,chinese,m,8,0.8,-43.88557754,1.0786992
wxb_1058,5,0,2024-06-16T02:59:50.941Z,english_579.wav,0,1,698,22,4,chinese,m,9,0.9,89.28129007,1.76340712
wxb_1058,5,0,2024-06-16T02:59:50.941Z,english_579.wav,0,1,698,22,4,chinese,m,10,1,21.49927336,0.94339598
wxb_1058,5,0,2024-06-16T02:59:50.941Z,english_579.wav,0,1,698,22,4,chinese,m,11,1.09391667,85.53999973,1.1220246
wxb_1058,6,0,2024-06-16T02:59:50.941Z,english_456.wav,0,1,668,22,4,chinese,m,0,0,71.04099317,0.32232713
wxb_1058,6,0,2024-06-16T02:59:50.941Z,english_456.wav,0,1,668,22,4,chinese,m,1,0.1,-42.03930608,1.90963826
wxb_1058,6,0,2024-06-16T02:59:50.941Z,english_456.wav,0,1,668,22,4,chinese,m,2,0.2,46.93563502,0.28107249
wxb_1058,6,0,2024-06-16T02:59:50.941Z,english_456.wav,0,1,668,22,4,chinese,m,3,0.3,-51.87328236,0.54097624
wxb_1058,6,0,2024-06-16T02:59:50.941Z,english_456.wav,0,1,668,22,4,chinese,m,4,0.4,10.60142126,0.28507748
wxb_1058,6,0,2024-06-16T02:59:50.941Z,english_456.wav,0,1,668,22,4,chinese,m,5,0.5,59.34112363,1.95449542
wxb_1058,6,0,2024-06-16T02:59:50.941Z,english_456.wav,0,1,668,22,4,chinese,m,6,0.6,-57.32922539,0.17900475
wxb_1058,6,0,2024-06-16T02:59:50.941Z,english_456.wav,0,1,668,22,4,chinese,m,7,0.7,63.74085998,0.64982675
wxb_1058,6,0,2024-06-16T02:59:50.941Z,english_456.wav,0,1,668,22,4,chinese,m,8,0.8,80.12937217,1.14361022
wxb_1058,6,0,2024-06-16T02:59:50.941Z,english_456.wav,0,1,668,22,4,chinese,m,9,0.9,-45.30017258,0.6672144
wxb_1058,6,0,2024-06-16T02:59:50.941Z,english_456.wav,0,1,668,22,4,chinese,m,10,1,30.99436051,0.14207979
wxb_1058,6,0,2024-06-16T02:59:50.941Z,english_456.wav,0,1,668,22,4,chinese,m,11,1.09391667,18.44545635,0.00415302
wxb_1058,7,0,2024-06-16T02:59:50.941Z,english_927.wav,0,1,815,22,4,chinese,m,0,0,-59.83926294,0.47046778
wxb_1058,7,0,2024-06-16T02:59:50.941Z,english_927.wav,0,1,815,22,4,chinese,m,1,0.1,-55.07345908,0.3359419
wxb_1058,7,0,2024-06-16T02:59:50.941Z,english_927.wav,0,1,815,22,4,chinese,m,2,0.2,23.01792414,0.47092449
wxb_1058,7,0,2024-06-16T02:59:50.941Z,english_927.wav,0,1,815,22,4,chinese,m,3,0.3,79.95942336,0.24313159
wxb_1058,7,0,2024-06-16T02:59:50.941Z,english_927.wav,0,1,815,22,4,chinese,m,4,0.4,-17.18079026,1.33138527
wxb_1058,7,0,2024-06-16T02:59:50.941Z,english_927.wav,0,1,815,22,4,chinese,m,5,0.5,-63.61008443,0.70267187
wxb_1058,7,0,2024-06-16T02:59:50.941Z,english_927.wav,0,1,815,22,4,chinese,m,6,0.6,89.30642255,1.06517667
wxb_1058,7,0,2024-06-16T02:59:50.941Z,english_927.wav,0,1,815,22,4,chinese,m,7,0.7,-30.45736296,1.53858916
wxb_1058,7,0,2024-06-16T02:59:50.941Z,english_927.wav,0,1,815,22,4,chinese,m,8,0.8,-34.22678019,0.26895536
wxb_1058,7,0,2024-06-16T02:59:50.941Z,english_927.wav,0,1,815,22,4,chinese,m,9,0.9,-97.1214348,1.04309053
wxb_1058,7,0,2024-06-16T02:59:50.941Z,english_927.wav,0,1,815,22,4,chinese,m,10,1,-70.92857542,1.24996871
wxb_1058,7,0,2024-06-16T02:59:50.941Z,english_927.wav,0,1,815,22,4,chinese,m,11,1.09391667,48.94211635,1.20293368
wxb_1058,8,0,2024-06-16T02:59:50.941Z,english_110.wav,0,1,1638,22,4,chinese,m,0,0,45.88171242,1.49952965
wxb_1058,8,0,2024-06-16T02:59:50.941Z,english_110.wav,0,1,1638,22,4,chinese,m,1,0.1,19.65275358,1.27857126
wxb_1058,8,0,2024-06-16T02:59:50.941Z,english_110.wav,0,1,1638,22,4,chinese,m,2,0.2,-52.5669285,1.16755208
wxb_1058,8,0,2024-06-16T02:59:50.941Z,english_110.wav,0,1,1638,22,4,chinese,m,3,0.3,50.69142125,1.53878992
wxb_1058,8,0,2024-06-16T02:59:50.941Z,english_110.wav,0,1,1638,22,4,chinese,m,4,0.4,62.87836258,1.32526566
wxb_1058,8,0,2024-06-16T02:59:50.941Z,english_110.wav,0,1,1638,22,4,chinese,m,5,0.5,39.63979386,1.5325195
wxb_1058,8,0,2024-06-16T02:59:50.941Z,english_110.wav,0,1,1638,22,4,chinese,m,6,0.6,-26.37670891,0.18426731
wxb_1058,8,0,2024-06-16T02:59:50.941Z,english_110.wav,0,1,1638,22,4,chinese,m,7,0.7,-93.2202358,1.63742876
wxb_1058,8,0,2024-06-16T02:59:50.941Z,english_110.wav,0,1,1638,22,4,chinese,m,8,0.8,-56.06410486,1.91360144
wxb_1058,8,0,2024-06-16T02:59:50.941Z,english_110.wav,0,1,1638,22,4,chinese,m,9,0.9,-55.01568925,1.5607569
wxb_1058,8,0,2024-06-16T02:59:50.941Z,english_110.wav,0,1,1638,22,4,chinese,m,10,1,78.10124913,0.22178097
wxb_1058,8,0,2024-06-16T02:59:50.941Z,english_110.wav,0,1,1638,22,4,chinese,m,11,1.09391667,16.50451183,0.02570083
wxb_1058,9,0,2024-06-16T02:59:50.941Z,english_443.wav,0,1,6075,22,4,chinese,m,0,0,81.96165797,0.75557645
wxb_1058,9,0,2024-06-16T02:59:50.941Z,english_443.wav,0,1,6075,22,4,chinese,m,1,0.1,-28.05483683,1.24238721
wxb_1058,9,0,2024-06-16T02:59:50.941Z,english_443.wav,0,1,6075,22,4,chinese,m,2,0.2,-21.59346314,1.29479034
wxb_1058,9,0,2024-06-16T02:59:50.941Z,english_443.wav,0,1,6075,22,4,chinese,m,3,0.3,1.08429848,1.78084003
wxb_1058,9,0,2024-06-16T02:59:50.941Z,english_443.wav,0,1,6075,22,4,chinese,m,4,0.4,21.43423257,0.20990132
wxb_1058,9,0,2024-06-16T02:59:50.941Z,english_443.wav,0,1,6075,22,4,chinese,m,5,0.5,75.67535371,0.69063729
wxb_1058,9,0,2024-06-16T02:59:50.941Z,english_443.wav,0,1,6075,22,4,chinese,m,6,0.6,-12.42326874,1.52523801
wxb_1058,9,0,2024-06-16T02:59:50.941Z,english_443.wav,0,1,6075,22,4,chinese,m,7,0.7,-43.03784954,1.69469222
wxb_1058,9,0,2024-06-16T02:59:50.941Z,english_443.wav,0,1,6075,22,4,chinese,m,8,0.8,-95.88108409,1.5231422
wxb_1058,9,0,2024-06-16T02:59:50.941Z,english_443.wav,0,1,6075,22,4,chinese,m,9,0.9,5.88501358,0.01978813
wxb_1058,9,0,2024-06-16T02:59:50.941Z,english_443.wav,0,1,6075,22,4,chinese,m,10,1,-74.23415878,0.32318558
wxb_1058,9,0,2024-06-16T02:59:50.941Z,english_443.wav,0,1,6075,22,4,chinese,m,11,1.09391667,-13.77398798,1.99092699
wxb_1058,10,0,2024-06-16T02:59:50.941Z,english_799.wav,0,0,1815,22,4,chinese,m,0,0,20.93448877,0.48820712
wxb_1058,10,0,2024-06-16T02:59:50.941Z,english_799.wav,0,0,1815,22,4,chinese,m,1,0.1,74.90549066,0.80562581
wxb_1058,10,0,2024-06-16T02:59:50.941Z,english_799.wav,0,0,1815,22,4,chinese,m,2,0.2,79.35216778,1.19822254
wxb_1058,10,0,2024-06-16T02:59:50.941Z,english_799.wav,0,0,1815,22,4,chinese,m,3,0.3,-10.62506754,1.60128914
wxb_1058,10,0,2024-06-16T02:59:50.941Z,english_799.wav,0,0,1815,22,4,chinese,m,4,0.4,6.33564747,0.01319764
wxb_1058,10,0,2024-06-16T02:59:50.941Z,english_799.wav,0,0,1815,22,4,chinese,m,5,0.5,90.41443979,1.72553046
wxb_1058,10,0,2024-06-16T02:59:50.941Z,english_799.wav,0,0,1815,22,4,chinese,m,6,0.6,-60.57880503,1.2547609
wxb_1058,10,0,2024-06-16T02:59:50.941Z,english_799.wav,0,0,1815,22,4,chinese,m,7,0.7,9.86229071,0.74830712
wxb_1058,10,0,2024-06-16T02:59:50.941Z,english_799.wav,0,0,1815,22,4,chinese,m,8,0.8,-45.57695026,0.71080767
wxb_1058,10,0,2024-06-16T02:59:50.941Z,english_799.wav,0,0,1815,22,4,chinese,m,9,0.9,4.80419962,0.83933205
wxb_1058,10,0,2024-06-16T02:59:50.941Z,english_799.wav,0,0,1815,22,4,chinese,m,10,1,49.35310044,0.24394342
wxb_1058,10,0,2024-06-16T02:59:50.941Z,english_799.wav,0,0,1815,22,4,chinese,m,11,1.09391667,82.63345718,0.9569793
wxb_1058,11,0,2024-06-16T02:59:50.941Z,english_809.wav,0,1,1395,22,4,chinese,m,0,0,-9.12051171,1.24060405
wxb_1058,11,0,2024-06-16T02:59:50.941Z,english_809.wav,0,1,1395,22,4,chinese,m,1,0.1,56.83840218,0.92544531
wxb_1058,11,0,2024-06-16T02:59:50.941Z,english_809.wav,0,1,1395,22,4,chinese,m,2,0.2,-21.1464042,1.6749497
wxb_1058,11,0,2024-06-16T02:59:50.941Z,english_809.wav,0,1,1395,22,4,chinese,m,3,0.3,57.63617788,0.74168877
wxb_1058,11,0,2024-06-16T02:59:50.941Z,english_809.wav,0,1,1395,22,4,chinese,m,4,0.4,81.73006696,0.96063823
wxb_1058,11,0,2024-06-16T02:59:50.941Z,english_809.wav,0,1,1395,22,4,chinese,m,5,0.5,1.9499243,1.38564295
wxb_1058,11,0,2024-06-16T02:59:50.941Z,english_809.wav,0,1,1395,22,4,chinese,m,6,0.6,94.78967393,0.56911063
wxb_1058,11,0,2024-06-16T02:59:50.941Z,english_809.wav,0,1,1395,22,4,chinese,m,7,0.7,65.64249462,0.51453492
wxb_1058,11,0,2024-06-16T02:59:50.941Z,english_809.wav,0,1,1395,22,4,chinese,m,8,0.8,90.5146219,0.11779349
wxb_1058,11,0,2024-06-16T02:59:50.941Z,english_809.wav,0,1,1395,22,4,chinese,m,9,0.9,37.72992996,0.31036913
wxb_1058,11,0,2024-06-16T02:59:50.941Z,english_809.wav,0,1,1395,22,4,chinese,m,10,1,-3.08128901,0.78583843
wxb_1058,11,0,2024-06-16T02:59:50.941Z,english_809.wav,0,1,1395,22,4,chinese,m,11,1.09391667,81.22811773,1.12131059
wxb_1058,12,0,2024-06-16T02:59:50.941Z,english_619.wav,0,1,3367,22,4,chinese,m,0,0,-41.0924044,1.71942116
wxb_1058,12,0,2024-06-16T02:59:50.941Z,english_619.wav,0,1,3367,22,4,chinese,m,1,0.1,-7.96280913,1.03534148
wxb_1058,12,0,2024-06-16T02:59:50.941Z,english_619.wav,0,1,3367,22,4,chinese,m,2,0.2,-87.23866402,1.90474628
wxb_1058,12,0,2024-06-16T02:59:50.941Z,english_619.wav,0,1,3367,22,4,chinese,m,3,0.3,-49.33627733,1.25465254
wxb_1058,12,0,2024-06-16T02:59:50.941Z,english_619.wav,0,1,3367,22,4,chinese,m,4,0.4,-9.049641,0.872658
wxb_1058,12,0,2024-06-16T02:59:50.941Z,english_619.wav,0,1,3367,22,4,chinese,m,5,0.5,-44.96771142,0.88442624
wxb_1058,12,0,2024-06-16T02:59:50.941Z,english_619.wav,0,1,3367,22,4,chinese,m,6,0.6,-40.79885207,0.90889779
wxb_1058,12,0,2024-06-16T02:59:50.941Z,english_619.wav,0,1,3367,22,4,chinese,m,7,0.7,40.82825876,0.65121567
wxb_1058,12,0,2024-06-16T02:59:50.941Z,english_619.wav,0,1,3367,22,4,chinese,m,8,0.8,-20.59710474,0.05436153
wxb_1058,12,0,2024-06-16T02:59:50.941Z,english_619.wav,0,1,3367,22,4,chinese,m,9,0.9,39.88878166,1.54961319
wxb_1058,12,0,2024-06-16T02:59:50.941Z,english_619.wav,0,1,3367,22,4,chinese,m,10,1,26.7856421,0.36194851
wxb_1058,12,0,2024-06-16T02:59:50.941Z,english_619.wav,0,1,3367,22,4,chinese,m,11,1.09391667,40.93095409,0.79464548
wxb_1058,13,0,2024-06-16T02:59:50.941Z,english_601.wav,0,0,2862,22,4,chinese,m,0,0,-27.72780098,0.09196254
wxb_1058,13,0,2024-06-16T02:59:50.941Z,english_601.wav,0,0,2862,22,4,chinese,m,1,0.1,51.56349227,1.85324858
wxb_1058,13,0,2024-06-16T02:59:50.941Z,english_601.wav,0,0,2862,22,4,chinese,m,2,0.2,-30.24590837,0.5611499
wxb_1058,13,0,2024-06-16T02:59:50.941Z,english_601.wav,0,0,2862,22,4,chinese,m,3,0.3,-73.97880656,0.48638388
wxb_1058,13,0,2024-06-16T02:59:50.941Z,english_601.wav,0,0,2862,22,4,chinese,m,4,0.4,-2.25523595,0.72682426
wxb_1058,13,0,2024-06-16T02:59:50.941Z,english_601.wav,0,0,2862,22,4,chinese,m,5,0.5,-30.15739329,0.02882605
wxb_1058,13,0,2024-06-16T02:59:50.941Z,english_601.wav,0,0,2862,22,4,chinese,m,6,0.6,-26.45428241,0.44853458
wxb_1058,13,0,2024-06-16T02:59:50.941Z,english_601.wav,0,0,2862,22,4,chinese,m,7,0.7,-98.06133759,1.63868559
wxb_1058,13,0,2024-06-16T02:59:50.941Z,english_601.wav,0,0,2862,22,4,chinese,m,8,0.8,5.27582611,1.86240344
wxb_1058,13,0,2024-06-16T02:59:50.941Z,english_601.wav,0,0,2862,22,4,chinese,m,9,0.9,81.45966426,0.90381109
wxb_1058,13,0,2024-06-16T02:59:50.941Z,english_601.wav,0,0,2862,22,4,chinese,m,10,1,21.92696124,1.07749357
wxb_1058,13,0,2024-06-16T02:59:50.941Z,english_601.wav,0,0,2862,22,4,chinese,m,11,1.09391667,-86.33242355,0.98518899
wxb_1058,14,0,2024-06-16T02:59:50.941Z,english_815.wav,0,1,637,22,4,chinese,m,0,0,13.37098153,0.8883119
wxb_1058,14,0,2024-06-16T02:59:50.941Z,english_815.wav,0,1,637,22,4,chinese,m,1,0.1,65.78624278,0.67980941
wxb_1058,14,0,2024-06-16T02:59:50.941Z,english_815.wav,0,1,637,22,4,chinese,m,2,0.2,66.40667823,0.95780133
wxb_1058,14,0,2024-06-16T02:59:50.941Z,english_815.wav,0,1,637,22,4,chinese,m,3,0.3,-44.62639189,1.51398111
wxb_1058,14,0,2024-06-16T02:59:50.941Z,english_815.wav,0,1,637,22,4,chinese,m,4,0.4,-51.75725077,1.4565051
wxb_1058,14,0,2024-06-16T02:59:50.941Z,english_815.wav,0,1,637,22,4,chinese,m,5,0.5,-79.21957107,0.83683567
wxb_1058,14,0,2024-06-16T02:59:50.941Z,english_815.wav,0,1,637,22,4,chinese,m,6,0.6,-56.86584236,0.38900819
wxb_1058,14,0,2024-06-16T02:59:50.941Z,english_815.wav,0,1,637,22,4,chinese,m,7,0.7,42.29244477,1.92415526
wxb_1058,14,0,2024-06-16T02:59:50.941Z,english_815.wav,0,1,637,22,4,chinese,m,8,0.8,-94.28545135,0.30571249
wxb_1058,14,0,2024-06-16T02:59:50.941Z,english_815.wav,0,1,637,22,4,chinese,m,9,0.9,-14.77734417,0.35189603
wxb_1058,14,0,2024-06-16T02:59:50.941Z,english_815.wav,0,1,637,22,4,chinese,m,10,1,55.50770682,0.8512317
wxb_1058,14,0,2024-06-16T02:59:50.941Z,english_815.wav,0,1,637,22,4,chinese,m,11,1.09391667,3.0451597,1.01865879
wxb_1058,15,0,2024-06-16T02:59:50.941Z,english_294.wav,0,1,675,22,4,chinese,m,0,0,-35.26170476,0.76895084
wxb_1058,15,0,2024-06-16T02:59:50.941Z,english_294.wav,0,1,675,22,4,chinese,m,1,0.1,-68.79847515,0.42345848
wxb_1058,15,0,2024-06-16T02:59:50.941Z,english_294.wav,0,1,675,22,4,chinese,m,2,0.2,21.65443345,1.88759315
wxb_1058,15,0,2024-06-16T02:59:50.941Z,english_294.wav,0,1,675,22,4,chinese,m,3,0.3,18.61336719,0.20743541
wxb_1058,15,0,2024-06-16T02:59:50.941Z,english_294.wav,0,1,675,22,4,chinese,m,4,0.4,29.14118392,0.10193981
wxb_1058,15,0,2024-06-16T02:59:50.941Z,english_294.wav,0,1,675,22,4,chinese,m,5,0.5,-0.79474297,0.31438326
wxb_1058,15,0,2024-06-16T02:59:50.941Z,english_294.wav,0,1,675,22,4,chinese,m,6,0.6,-83.10715175,1.2995954
wxb_1058,15,0,2024-06-16T02:59:50.941Z,english_294.wav,0,1,675,22,4,chinese,m,7,0.7,-22.63410673,1.94703728
wxb_1058,15,0,2024-06-16T02:59:50.941Z,english_294.wav,0,1,675,22,4,chinese,m,8,0.8,-21.26415856,0.92366458
wxb_1058,15,0,2024-06-16T02:59:50.941Z,english_294.wav,0,1,675,22,4,chinese,m,9,0.9,47.90727918,1.04223302
wxb_1058,15,0,2024-06-16T02:59:50.941Z,english_294.wav,0,1,675,22,4,chinese,m,10,1,-39.88232682,1.01801331
wxb_1058,15,0,2024-06-16T02:59:50.941Z,english_294.wav,0,1,675,22,4,chinese,m,11,1.09391667,-74.09279353,0.911147
wxb_1058,16,0,2024-06-16T02:59:50.941Z,english_571.wav,0,1,663,22,4,chinese,m,0,0,66.27002453,0.70496708
wxb_1058,16,0,2024-06-16T02:59:50.941Z,english_571.wav,0,1,663,22,4,chinese,m,1,0.1,72.56873765,1.41341806
wxb_1058,16,0,2024-06-16T02:59:50.941Z,english_571.wav,0,1,663,22,4,chinese,m,2,0.2,-47.18075811,1.56676293
wxb_1058,16,0,2024-06-16T02:59:50.941Z,english_571.wav,0,1,663,22,4,chinese,m,3,0.3,-50.2773596,1.96972076
wxb_1058,16,0,2024-06-16T02:59:50.941Z,english_571.wav,0,1,663,22,4,chinese,m,4,0.4,-37.39995802,1.04150982
wxb_1058,16,0,2024-06-16T02:59:50.941Z,english_571.wav,0,1,663,22,4,chinese,m,5,0.5,44.57144772,0.64987665
wxb_1058,16,0,2024-06-16T02:59:50.941Z,english_571.wav,0,1,663,22,4,chinese,m,6,0.6,-77.42232626,0.50073604
wxb_1058,16,0,2024-06-16T02:59:50.941Z,english_571.wav,0,1,663,22,4,chinese,m,7,0.7,-61.53894289,1.36720733
wxb_1058,16,0,2024-06-16T02:59:50.941Z,english_571.wav,0,1,663,22,4,chinese,m,8,0.8,57.25780133,0.69150917
wxb_1058,16,0,2024-06-16T02:59:50.941Z,english_571.wav,0,1,663,22,4,chinese,m,9,0.9,-53.9092717,0.1917381
wxb_1058,16,0,2024-06-16T02:59:50.941Z,english_571.wav,0,1,663,22,4,chinese,m,10,1,79.641801,1.04532949
wxb_1058,16,0,2024-06-16T02:59:50.941Z,english_571.wav,0,1,663,22,4,chinese,m,11,1.09391667,81.23373834,0.53527151
wxb_1058,17,0,2024-06-16T02:59:50.941Z,english_254.wav,0,1,1109,22,4,chinese,m,0,0,-79.97486314,0.1587751
wxb_1058,17,0,2024-06-16T02:59:50.941Z,english_254.wav,0,1,1109,22,4,chinese,m,1,0.1,4.97939185,1.19895937
wxb_1058,17,0,2024-06-16T02:59:50.941Z,english_254.wav,0,1,1109,22,4,chinese,m,2,0.2,-28.78047168,0.42029652
wxb_1058,17,0,2024-06-16T02:59:50.941Z,english_254.wav,0,1,1109,22,4,chinese,m,3,0.3,54.84679162,0.35684023
wxb_1058,17,0,2024-06-16T02:59:50.941Z,english_254.wav,0,1,1109,22,4,chinese,m,4,0.4,-29.5092506,0.61489906
wxb_1058,17,0,2024-06-16T02:59:50.941Z,english_254.wav,0,1,1109,22,4,chinese,m,5,0.5,32.35526616,0.62359164
wxb_1058,17,0,2024-06-16T02:59:50.941Z,english_254.wav,0,1,1109,22,4,chinese,m,6,0.6,30.73043206,0.73353012
wxb_1058,17,0,2024-06-16T02:59:50.941Z,english_254.wav,0,1,1109,22,4,chinese,m,7,0.7,-63.39934618,1.26915249
wxb_1058,17,0,2024-06-16T02:59:50.941Z,english_254.wav,0,1,1109,22,4,chinese,m,8,0.8,41.52768957,1.27281169
wxb_1058,17,0,2024-06-16T02:59:50.941Z,english_254.wav,0,1,1109,22,4,chinese,m,9,0.9,-68.73480186,1.34629586
wxb_1058,17,0,2024-06-16T02:59:50.941Z,english_254.wav,0,1,1109,22,4,chinese,m,10,1,39.94615362,0.72701625
wxb_1058,17,0,2024-06-16T02:59:50.941Z,english_254.wav,0,1,1109,22,4,chinese,m,11,1.09391667,-8.67015509,0.66252937
wxb_1058,18,0,2024-06-16T02:59:50.941Z,english_492.wav,0,1,3239,22,4,chinese,m,0,0,-29.9472328,1.28534899
wxb_1058,18,0,2024-06-16T02:59:50.941Z,english_492.wav,0,1,3239,22,4,chinese,m,1,0.1,35.33010824,1.03908978
wxb_1058,18,0,2024-06-16T02:59:50.941Z,english_492.wav,0,1,3239,22,4,chinese,m,2,0.2,-3.45968041,1.26033893
wxb_1058,18,0,2024-06-16T02:59:50.941Z,english_492.wav,0,1,3239,22,4,chinese,m,3,0.3,59.06456756,0.39463808
wxb_1058,18,0,2024-06-16T02:59:50.941Z,english_492.wav,0,1,3239,22,4,chinese,m,4,0.4,98.23949624,0.21276087
wxb_1058,18,0,2024-06-16T02:59:50.941Z,english_492.wav,0,1,3239,22,4,chinese,m,5,0.5,-1.48270349,0.25205409
wxb_1058,18,0,2024-06-16T02:59:50.941Z,english_492.wav,0,1,3239,22,4,chinese,m,6,0.6,-1.72219507,0.58596557
wxb_1058,18,0,2024-06-16T02:59:50.941Z,english_492.wav,0,1,3239,22,4,chinese,m,7,0.7,12.69106909,1.49088879
wxb_1058,18,0,2024-06-16T02:59:50.941Z,english_492.wav,0,1,3239,22,4,chinese,m,8,0.8,-21.74180351,1.5225112
wxb_1058,18,0,2024-06-16T02:59:50.941Z,english_492.wav,0,1,3239,22,4,chinese,m,9,0.9,-33.92370757,0.13189423
wxb_1058,18,0,2024-06-16T02:59:50.941Z,english_492.wav,0,1,3239,22,4,chinese,m,10,1,37.93162517,0.89918189
wxb_1058,18,0,2024-06-16T02:59:50.941Z,english_492.wav,0,1,3239,22,4,chinese,m,11,1.09391667,-90.75179354,1.07142866
wxb_1058,19,0,2024-06-16T02:59:50.941Z,english_724.wav,0,1,616,22,4,chinese,m,0,0,-56.76875747,1.98134375
wxb_1058,19,0,2024-06-16T02:59:50.941Z,english_724.wav,0,1,616,22,4,chinese,m,1,0.1,-86.21406354,1.3755847
wxb_1058,19,0,2024-06-16T02:59:50.941Z,english_724.wav,0,1,616,22,4,chinese,m,2,0.2,60.18994207,0.59510503
wxb_1058,19,0,2024-06-16T02:59:50.941Z,english_724.wav,0,1,616,22,4,chinese,m,3,0.3,-73.18576328,0.94085573
wxb_1058,19,0,2024-06-16T02:59:50.941Z,english_724.wav,0,1,616,22,4,chinese,m,4,0.4,9.02898682,1.58537713
wxb_1058,19,0,2024-06-16T02:59:50.941Z,english_724.wav,0,1,616,22,4,chinese,m,5,0.5,0.09152752,0.37644638
wxb_1058,19,0,2024-06-16T02:59:50.941Z,english_724.wav,0,1,616,22,4,chinese,m,6,0.6,-45.20734969,0.99166811
wxb_1058,19,0,2024-06-16T02:59:50.941Z,english_724.wav,0,1,616,22,4,chinese,m,7,0.7,41.14572905,0.69217337
wxb_1058,19,0,2024-06-16T02:59:50.941Z,english_724.wav,0,1,616,22,4,chinese,m,8,0.8,-8.90641818,0.6776497
wxb_1058,19,0,2024-06-16T02:59:50.941Z,english_724.wav,0,1,616,22,4,chinese,m,9,0.9,16.12067161,0.10142147
wxb_1058,19,0,2024-06-16T02:59:50.941Z,english_724.wav,0,1,616,22,4,chinese,m,10,1,72.53679682,1.80502318
wxb_1058,19,0,2024-06-16T02:59:50.941Z,english_724.wav,0,1,616,22,4,chinese,m,11,1.09391667,17.69672556,1.15790189
wxb_1058,20,0,2024-06-16T02:59:50.941Z,english_970.wav,0,1,1009,22,4,chinese,m,0,0,-54.89447986,0.81951556
wxb_1058,20,0,2024-06-16T02:59:50.941Z,english_970.wav,0,1,1009,22,4,chinese,m,1,0.1,25.1169893,1.67117432
wxb_1058,20,0,2024-06-16T02:59:50.941Z,english_970.wav,0,1,1009,22,4,chinese,m,2,0.2,-40.43511265,1.15867829
wxb_1058,20,0,2024-06-16T02:59:50.941Z,english_970.wav,0,1,1009,22,4,chinese,m,3,0.3,-62.36717191,1.19627059
wxb_1058,20,0,2024-06-16T02:59:50.941Z,english_970.wav,0,1,1009,22,4,chinese,m,4,0.4,-52.87769156,1.65204518
wxb_1058,20,0,2024-06-16T02:59:50.941Z,english_970.wav,0,1,1009,22,4,chinese,m,5,0.5,-60.51030312,1.89905296
wxb_1058,20,0,2024-06-16T02:59:50.941Z,english_970.wav,0,1,1009,22,4,chinese,m,6,0.6,-20.66217752,1.49874094
wxb_1058,20,0,2024-06-16T02:59:50.941Z,english_970.wav,0,1,1009,22,4,chinese,m,7,0.7,39.3890126,1.49402448
wxb_1058,20,0,2024-06-16T02:59:50.941Z,english_970.wav,0,1,1009,22,4,chinese,m,8,0.8,-42.20316614,0.52089687
wxb_1058,20,0,2024-06-16T02:59:50.941Z,english_970.wav,0,1,1009,22,4,chinese,m,9,0.9,-5.07453967,0.54496633
wxb_1058,20,0,2024-06-16T02:59:50.941Z,english_970.wav,0,1,1009,22,4,chinese,m,10,1,63.70783578,0.14699143
wxb_1058,20,0,2024-06-16T02:59:50.941Z,english_970.wav,0,1,1009,22,4,chinese,m,11,1.09391667,15.89619138,0.8383136
wxb_1058,21,0,2024-06-16T02:59:50.941Z,english_39.wav,0,1,3671,22,4,chinese,m,0,0,34.55093166,1.34796705
wxb_1058,21,0,2024-06-16T02:59:50.941Z,english_39.wav,0,1,3671,22,4,chinese,m,1,0.1,-1.41260387,0.08491471
wxb_1058,21,0,2024-06-16T02:59:50.941Z,english_39.wav,0,1,3671,22,4,chinese,m,2,0.2,91.9059208,1.67265438
wxb_1058,21,0,2024-06-16T02:59:50.941Z,english_39.wav,0,1,3671,22,4,chinese,m,3,0.3,67.91256725,0.89650698
wxb_1058,21,0,2024-06-16T02:59:50.941Z,english_39.wav,0,1,3671,22,4,chinese,m,4,0.4,-65.38565065,0.64014049
wxb_1058,21,0,2024-06-16T02:59:50.941Z,english_39.wav,0,1,3671,22,4,chinese,m,5,0.5,-78.2257863,1.50034896
wxb_1058,21,0,2024-06-16T02:59:50.941Z,english_39.wav,0,1,3671,22,4,chinese,m,6,0.6,-21.37966567,0.90896714
wxb_1058,21,0,2024-06-16T02:59:50.941Z,english_39.wav,0,1,3671,22,4,chinese,m,7,0.7,29.85741907,1.5349886
wxb_1058,21,0,2024-06-16T02:59:50.941Z,english_39.wav,0,1,3671,22,4,chinese,m,8,0.8,-64.93181205,0.91983464
wxb_1058,21,0,2024-06-16T02:59:50.941Z,english_39.wav,0,1,3671,22,4,chinese,m,9,0.9,27.95057541,1.17583732
wxb_1058,21,0,2024-06-16T02:59:50.941Z,english_39.wav,0,1,3671,22,4,chinese,m,10,1,5.43341778,1.89111311
wxb_1058,21,0,2024-06-16T02:59:50.941Z,english_39.wav,0,1,3671,22,4,chinese,m,11,1.09391667,-89.64672073,1.19651243
wxb_1058,22,0,2024-06-16T02:59:50.941Z,english_375.wav,0,1,508,22,4,chinese,m,0,0,-66.54027977,1.30902013
wxb_1058,22,0,2024-06-16T02:59:50.941Z,english_375.wav,0,1,508,22,4,chinese,m,1,0.1,72.08787066,1.77420651
wxb_1058,22,0,2024-06-16T02:59:50.941Z,english_375.wav,0,1,508,22,4,chinese,m,2,0.2,-56.77584869,1.24550761
wxb_1058,22,0,2024-06-16T02:59:50.941Z,english_375.wav,0,1,508,22,4,chinese,m,3,0.3,-36.97947012,0.68148521
wxb_1058,22,0,2024-06-16T02:59:50.941Z,english_375.wav,0,1,508,22,4,chinese,m,4,0.4,43.73402827,1.5097978
wxb_1058,22,0,2024-06-16T02:59:50.941Z,english_375.wav,0,1,508,22,4,chinese,m,5,0.5,19.53034116,0.87895003
wxb_1058,22,0,2024-06-16T02:59:50.941Z,english_375.wav,0,1,508,22,4,chinese,m,6,0.6,-35.65016919,0.57287352
wxb_1058,22,0,2024-06-16T02:59:50.941Z,english_375.wav,0,1,508,22,4,chinese,m,7,0.7,12.37356045,0.19847139
wxb_1058,22,0,2024-06-16T02:59:50.941Z,english_375.wav,0,1,508,22,4,chinese,m,8,0.8,-24.97795402,1.57884859
wxb_1058,22,0,2024-06-16T02:59:50.941Z,english_375.wav,0,1,508,22,4,chinese,m,9,0.9,57.77915604,1.32641243
wxb_1058,22,0,2024-06-16T02:59:50.941Z,english_375.wav,0,1,508,22,4,chinese,m,10,1,-30.716589,0.36090675
wxb_1058,22,0,2024-06-16T02:59:50.941Z,english_375.wav,0,1,508,22,4,chinese,m,11,1.09391667,78.48935482,1.90030926
wxb_1058,23,0,2024-06-16T02:59:50.941Z,english_391.wav,0,1,589,22,4,chinese,m,0,0,48.72029915,1.46381994
wxb_1058,23,0,2024-06-16T02:59:50.941Z,english_391.wav,0,1,589,22,4,chinese,m,1,0.1,3.36267099,1.74177862
wxb_1058,23,0,2024-06-16T02:59:50.941Z,english_391.wav,0,1,589,22,4,chinese,m,2,0.2,-54.73892797,0.37153285
wxb_1058,23,0,2024-06-16T02:59:50.941Z,english_391.wav,0,1,589,22,4,chinese,m,3,0.3,-4.43599027,1.37930547
wxb_1058,23,0,2024-06-16T02:59:50.941Z,english_391.wav,0,1,589,22,4,chinese,m,4,0.4,-4.38697431,1.2025528
wxb_1058,23,0,2024-06-16T02:59:50.941Z,english_391.wav,0,1,589,22,4,chinese,m,5,0.5,12.32416895,1.41669348
wxb_1058,23,0,2024-06-16T02:59:50.941Z,english_391.wav,0,1,589,22,4,chinese,m,6,0.6,-35.16299901,1.90409923
wxb_1058,23,0,2024-06-16T02:59:50.941Z,english_391.wav,0,1,589,22,4,chinese,m,7,0.7,-18.71198536,0.35955458
wxb_1058,23,0,2024-06-16T02:59:50.941Z,english_391.wav,0,1,589,22,4,chinese,m,8,0.8,50.45333825,0.73524
wxb_1058,23,0,2024-06-16T02:59:50.941Z,english_391.wav,0,1,589,22,4,chinese,m,9,0.9,24.10808682,1.22465208
wxb_1058,23,0,2024-06-16T02:59:50.941Z,english_391.wav,0,1,589,22,4,chinese,m,10,1,-10.46564493,1.61244098
wxb_1058,23,0,2024-06-16T02:59:50.941Z,english_391.wav,0,1,589,22,4,chinese,m,11,1.09391667,6.45782967,1.66867903
wxb_1058,24,0,2024-06-16T02:59:50.941Z,english_277.wav,0,1,485,22,4,chinese,m,0,0,-44.33616139,0.73788807
wxb_1058,24,0,2024-06-16T02:59:50.941Z,english_277.wav,0,1,485,22,4,chinese,m,1,0.1,44.35260019,1.74394891
wxb_1058,24,0,2024-06-16T02:59:50.941Z,english_277.wav,0,1,485,22,4,chinese,m,2,0.2,-49.49233779,0.42488183
wxb_1058,24,0,2024-06-16T02:59:50.941Z,english_277.wav,0,1,485,22,4,chinese,m,3,0.3,-85.34810724,1.67106469
wxb_1058,24,0,2024-06-16T02:59:50.941Z,english_277.wav,0,1,485,22,4,chinese,m,4,0.4,28.63854814,1.81238123
wxb_1058,24,0,2024-06-16T02:59:50.941Z,english_277.wav,0,1,485,22,4,chinese,m,5,0.5,67.28491477,1.08162705
wxb_1058,24,0,2024-06-16T02:59:50.941Z,english_277.wav,0,1,485,22,4,chinese,m,6,0.6,56.85897208,1.34108587
wxb_1058,24,0,2024-06-16T02:59:50.941Z,english_277.wav,0,1,485,22,4,chinese,m,7,0.7,-23.80647194,0.83894526
wxb_1058,24,0,2024-06-16T02:59:50.941Z,english_277.wav,0,1,485,22,4,chinese,m,8,0.8,-34.73638316,0.08057135
wxb_1058,24,0,2024-06-16T02:59:50.941Z,english_277.wav,0,1,485,22,4,chinese,m,9,0.9,-44.12670418,0.78361609
wxb_1058,24,0,2024-06-16T02:59:50.941Z,english_277.wav,0,1,485,22,4,chinese,m,10,1,-49.9038669,1.89078492
wxb_1058,24,0,2024-06-16T02:59:50.941Z,english_277.wav,0,1,485,22,4,chinese,m,11,1.09391667,-45.21232541,1.1409546
wxb_1058,25,0,2024-06-16T02:59:50.941Z,english_38.wav,0,1,5271,22,4,chinese,m,0,0,84.84297862,0.12127835
wxb_1058,25,0,2024-06-16T02:59:50.941Z,english_38.wav,0,1,5271,22,4,chinese,m,1,0.1,-41.13766339,0.39553601
wxb_1058,25,0,2024-06-16T02:59:50.941Z,english_38.wav,0,1,5271,22,4,chinese,m,2,0.2,31.0243005,1.29400733
wxb_1058,25,0,2024-06-16T02:59:50.941Z,english_38.wav,0,1,5271,22,4,chinese,m,3,0.3,51.71643077,0.38578685
wxb_1058,25,0,2024-06-16T02:59:50.941Z,english_38.wav,0,1,5271,22,4,chinese,m,4,0.4,-15.52187673,0.67216324
wxb_1058,25,0,2024-06-16T02:59:50.941Z,english_38.wav,0,1,5271,22,4,chinese,m,5,0.5,37.47478577,0.61922356
wxb_1058,25,0,2024-06-16T02:59:50.941Z,english_38.wav,0,1,5271,22,4,chinese,m,6,0.6,27.01527087,0.0538602
wxb_1058,25,0,2024-06-16T02:59:50.941Z,english_38.wav,0,1,5271,22,4,chinese,m,7,0.7,44.60136097,0.56901487
wxb_1058,25,0,2024-06-16T02:59:50.941Z,english_38.wav,0,1,5271,22,4,chinese,m,8,0.8,-52.37417606,1.28646438
wxb_1058,25,0,2024-06-16T02:59:50.941Z,english_38.wav,0,1,5271,22,4,chinese,m,9,0.9,-48.58777174,0.80149466
wxb_1058,25,0,2024-06-16T02:59:50.941Z,english_38.wav,0,1,5271,22,4,chinese,m,10,1,7.20305444,1.28981754
wxb_1058,25,0,2024-06-16T02:59:50.941Z,english_38.wav,0,1,5271,22,4,chinese,m,11,1.09391667,-74.66052111,0.46742112
wxb_1058,26,0,2024-06-16T02:59:50.941Z,english_444.wav,0,1,1116,22,4,chinese,m,0,0,-22.35255086,1.17037243
wxb_1058,26,0,2024-06-16T02:59:50.941Z,english_444.wav,0,1,1116,22,4,chinese,m,1,0.1,-38.39735659,0.80831945
wxb_1058,26,0,2024-06-16T02:59:50.941Z,english_444.wav,0,1,1116,22,4,chinese,m,2,0.2,81.84483339,1.07936497
wxb_1058,26,0,2024-06-16T02:59:50.941Z,english_444.wav,0,1,1116,22,4,chinese,m,3,0.3,89.66951187,1.80338122
wxb_1058,26,0,2024-06-16T02:59:50.941Z,english_444.wav,0,1,1116,22,4,chinese,m,4,0.4,78.72815519,1.1980111
wxb_1058,26,0,2024-06-16T02:59:50.941Z,english_444.wav,0,1,1116,22,4,chinese,m,5,0.5,-52.70100407,1.57414757
wxb_1058,26,0,2024-06-16T02:59:50.941Z,english_444.wav,0,1,1116,22,4,chinese,m,6,0.6,-16.77558941,1.54546577
wxb_1058,26,0,2024-06-16T02:59:50.941Z,english_444.wav,0,1,1116,22,4,chinese,m,7,0.7,74.67924026,0.86646901
wxb_1058,26,0,2024-06-16T02:59:50.941Z,english_444.wav,0,1,1116,22,4,chinese,m,8,0.8,58.06859333,1.76340154
wxb_1058,26,0,2024-06-16T02:59:50.941Z,english_444.wav,0,1,1116,22,4,chinese,m,9,0.9,62.1778936,1.16134605
wxb_1058,26,0,2024-06-16T02:59:50.941Z,english_444.wav,0,1,1116,22,4,chinese,m,10,1,-11.97095728,0.83068954
wxb_1058,26,0,2024-06-16T02:59:50.941Z,english_444.wav,0,1,1116,22,4,chinese,m,11,1.09391667,61.96058284,1.94365144
wxb_1058,27,0,2024-06-16T02:59:50.941Z,english_185.wav,0,1,641,22,4,chinese,m,0,0,-23.80747302,1.70362326
wxb_1058,27,0,2024-06-16T02:59:50.941Z,english_185.wav,0,1,641,22,4,chinese,m,1,0.1,-67.70846726,1.95632733
wxb_1058,27,0,2024-06-16T02:59:50.941Z,english_185.wav,0,1,641,22,4,chinese,m,2,0.2,27.78292916,1.63625516
wxb_1058,27,0,2024-06-16T02:59:50.941Z,english_185.wav,0,1,641,22,4,chinese,m,3,0.3,-22.37709268,0.69364986
wxb_1058,27,0,2024-06-16T02:59:50.941Z,english_185.wav,0,1,641,22,4,chinese,m,4,0.4,15.61755946,0.15498305
wxb_1058,27,0,2024-06-16T02:59:50.941Z,english_185.wav,0,1,641,22,4,chinese,m,5,0.5,-59.82139972,1.72553948
wxb_1058,27,0,2024-06-16T02:59:50.941Z,english_185.wav,0,1,641,22,4,chinese,m,6,0.6,-43.59424473,1.78198359
wxb_1058,27,0,2024-06-16T02:59:50.941Z,english_185.wav,0,1,641,22,4,chinese,m,7,0.7,74.12043651,1.30006103
wxb_1058,27,0,2024-06-16T02:59:50.941Z,english_185.wav,0,1,641,22,4,chinese,m,8,0.8,77.01624641,0.79426106
wxb_1058,27,0,2024-06-16T02:59:50.941Z,english_185.wav,0,1,641,22,4,chinese,m,9,0.9,-47.03527172,0.29849321
wxb_1058,27,0,2024-06-16T02:59:50.941Z,english_185.wav,0,1,641,22,4,chinese,m,10,1,2.38207477,1.71648204
wxb_1058,27,0,2024-06-16T02:59:50.941Z,english_185.wav,0,1,641,22,4,chinese,m,11,1.09391667,-48.42317698,0.84883975
wxb_1058,28,0,2024-06-16T02:59:50.941Z,english_962.wav,0,1,1750,22,4,chinese,m,0,0,-16.60048673,0.55938727
wxb_1058,28,0,2024-06-16T02:59:50.941Z,english_962.wav,0,1,1750,22,4,chinese,m,1,0.1,86.97119881,1.40731286
wxb_1058,28,0,2024-06-16T02:59:50.941Z,english_962.wav,0,1,1750,22,4,chinese,m,2,0.2,60.43507778,0.29415182
wxb_1058,28,0,2024-06-16T02:59:50.941Z,english_962.wav,0,1,1750,22,4,chinese,m,3,0.3,34.28838618,0.53536257
wxb_1058,28,0,2024-06-16T02:59:50.941Z,english_962.wav,0,1,1750,22,4,chinese,m,4,0.4,-3.8203387,0.38742579
wxb_1058,28,0,2024-06-16T02:59:50.941Z,english_962.wav,0,1,1750,22,4,chinese,m,5,0.5,82.49891636,0.91323434
wxb_1058,28,0,2024-06-16T02:59:50.941Z,english_962.wav,0,1,1750,22,4,chinese,m,6,0.6,22.18578672,0.69102333
wxb_1058,28,0,2024-06-16T02:59:50.941Z,english_962.wav,0,1,1750,22,4,chinese,m,7,0.7,20.13766391,0.47321431
wxb_1058,28,0,2024-06-16T02:59:50.941Z,english_962.wav,0,1,1750,22,4,chinese,m,8,0.8,74.50191695,1.91525386
wxb_1058,28,0,2024-06-16T02:59:50.941Z,english_962.wav,0,1,1750,22,4,chinese,m,9,0.9,68.04596391,0.05569164
wxb_1058,28,0,2024-06-16T02:59:50.941Z,english_962.wav,0,1,1750,22,4,chinese,m,10,1,-41.45827676,1.5038001
wxb_1058,28,0,2024-06-16T02:59:50.941Z,english_962.wav,0,1,1750,22,4,chinese,m,11,1.09391667,-81.40338911,1.11433977
wxb_1058,29,0,2024-06-16T02:59:50.941Z,english_553.wav,0,0,7450,22,4,chinese,m,0,0,-24.88703549,1.59716139
wxb_1058,29,0,2024-06-16T02:59:50.941Z,english_553.wav,0,0,7450,22,4,chinese,m,1,0.1,-32.78735509,1.94339053
wxb_1058,29,0,2024-06-16T02:59:50.941Z,english_553.wav,0,0,7450,22,4,chinese,m,2,0.2,11.78475046,0.07176258
wxb_1058,29,0,2024-06-16T02:59:50.941Z,english_553.wav,0,0,7450,22,4,chinese,m,3,0.3,-49.38675094,1.26590086
wxb_1058,29,0,2024-06-16T02:59:50.941Z,english_553.wav,0,0,7450,22,4,chinese,m,4,0.4,87.03858762,0.74193634
wxb_1058,29,0,2024-06-16T02:59:50.941Z,english_553.wav,0,0,7450,22,4,chinese,m,5,0.5,60.30502824,1.61552542
wxb_1058,29,0,2024-06-16T02:59:50.941Z,english_553.wav,0,0,7450,22,4,chinese,m,6,0.6,10.13311967,0.16579471
wxb_1058,29,0,2024-06-16T02:59:50.941Z,english_553.wav,0,0,7450,22,4,chinese,m,7,0.7,67.86345644,1.42366471
wxb_1058,29,0,2024-06-16T02:59:50.941Z,english_553.wav,0,0,7450,22,4,chinese,m,8,0.8,-60.17677271,1.14167702
wxb_1058,29,0,2024-06-16T02:59:50.941Z,english_553.wav,0,0,7450,22,4,chinese,m,9,0.9,12.98417217,1.59651853
wxb_1058,29,0,2024-06-16T02:59:50.941Z,english_553.wav,0,0,7450,22,4,chinese,m,10,1,49.25042129,1.95090435
wxb_1058,29,0,2024-06-16T02:59:50.941Z,english_553.wav,0,0,7450,22,4,chinese,m,11,1.09391667,-82.97566862,0.60671916
wxb_1058,30,0,2024-06-16T02:59:50.941Z,english_833.wav,0,1,789,22,4,chinese,m,0,0,-9.82911833,0.41898606
wxb_1058,30,0,2024-06-16T02:59:50.941Z,english_833.wav,0,1,789,22,4,chinese,m,1,0.1,26.84576298,1.36279301
wxb_1058,30,0,2024-06-16T02:59:50.941Z,english_833.wav,0,1,789,22,4,chinese,m,2,0.2,-28.2282446,1.58440298
wxb_1058,30,0,2024-06-16T02:59:50.941Z,english_833.wav,0,1,789,22,4,chinese,m,3,0.3,66.90500865,0.74607222
wxb_1058,30,0,2024-06-16T02:59:50.941Z,english_833.wav,0,1,789,22,4,chinese,m,4,0.4,-49.09073162,0.77124081
wxb_1058,30,0,2024-06-16T02:59:50.941Z,english_833.wav,0,1,789,22,4,chinese,m,5,0.5,-87.4525088,1.83467454
wxb_1058,30,0,2024-06-16T02:59:50.941Z,english_833.wav,0,1,789,22,4,chinese,m,6,0.6,32.13028208,0.88970779
wxb_1058,30,0,2024-06-16T02:59:50.941Z,english_833.wav,0,1,789,22,4,chinese,m,7,0.7,-17.61981843,1.25647355
wxb_1058,30,0,2024-06-16T02:59:50.941Z,english_833.wav,0,1,789,22,4,chinese,m,8,0.8,-38.32230825,1.59512471
wxb_1058,30,0,2024-06-16T02:59:50.941Z,english_833.wav,0,1,789,22,4,chinese,m,9,0.9,65.65277193,0.88454985
wxb_1058,30,0,2024-06-16T02:59:50.941Z,english_833.wav,0,1,789,22,4,chinese,m,10,1,-65.08326891,1.48034163
wxb_1058,30,0,2024-06-16T02:59:50.941Z,english_833.wav,0,1,789,22,4,chinese,m,11,1.09391667,73.10934072,1.02393934
wxb_1058,31,0,2024-06-16T02:59:50.941Z,english_698.wav,0,1,714,22,4,chinese,m,0,0,-98.49976842,0.43179997
wxb_1058,31,0,2024-06-16T02:59:50.941Z,english_698.wav,0,1,714,22,4,chinese,m,1,0.1,97.00885889,1.41337894
wxb_1058,31,0,2024-06-16T02:59:50.941Z,english_698.wav,0,1,714,22,4,chinese,m,2,0.2,54.87082892,1.17184634
wxb_1058,31,0,2024-06-16T02:59:50.941Z,english_698.wav,0,1,714,22,4,chinese,m,3,0.3,-24.25113459,0.60534302
wxb_1058,31,0,2024-06-16T02:59:50.941Z,english_698.wav,0,1,714,22,4,chinese,m,4,0.4,-19.41361559,1.24831976
wxb_1058,31,0,2024-06-16T02:59:50.941Z,english_698.wav,0,1,714,22,4,chinese,m,5,0.5,38.63477703,1.39113252
wxb_1058,31,0,2024-06-16T02:59:50.941Z,english_698.wav,0,1,714,22,4,chinese,m,6,0.6,-31.74740997,1.28562889
wxb_1058,31,0,2024-06-16T02:59:50.941Z,english_698.wav,0,1,714,22,4,chinese,m,7,0.7,75.16156156,1.10433052
wxb_1058,31,0,2024-06-16T02:59:50.941Z,english_698.wav,0,1,714,22,4,chinese,m,8,0.8,41.06057046,1.08053659
wxb_1058,31,0,2024-06-16T02:59:50.941Z,english_698.wav,0,1,714,22,4,chinese,m,9,0.9,-30.65402234,1.52582563
wxb_1058,31,0,2024-06-16T02:59:50.941Z,english_698.wav,0,1,714,22,4,chinese,m,10,1,-13.5987644,0.95244876
wxb_1058,31,0,2024-06-16T02:59:50.941Z,english_698.wav,0,1,714,22,4,chinese,m,11,1.09391667,-10.25655958,1.39681887
wxb_1058,32,0,2024-06-16T02:59:50.941Z,english_791.wav,0,1,1352,22,4,chinese,m,0,0,-46.06630558,1.16002163
wxb_1058,32,0,2024-06-16T02:59:50.941Z,english_791.wav,0,1,1352,22,4,chinese,m,1,0.1,-10.41029295,1.31545425
wxb_1058,32,0,2024-06-16T02:59:50.941Z,english_791.wav,0,1,1352,22,4,chinese,m,2,0.2,46.47346809,0.89173565
wxb_1058,32,0,2024-06-16T02:59:50.941Z,english_791.wav,0,1,1352,22,4,chinese,m,3,0.3,-10.43860287,0.05427007
wxb_1058,32,0,2024-06-16T02:59:50.941Z,english_791.wav,0,1,1352,22,4,chinese,m,4,0.4,-38.16717219,1.4017057
wxb_1058,32,0,2024-06-16T02:59:50.941Z,english_791.wav,0,1,1352,22,4,chinese,m,5,0.5,44.56559314,0.47849772
wxb_1058,32,0,2024-06-16T02:59:50.941Z,english_791.wav,0,1,1352,22,4,chinese,m,6,0.6,43.70696978,1.59729287
wxb_1058,32,0,2024-06-16T02:59:50.941Z,english_791.wav,0,1,1352,22,4,chinese,m,7,0.7,-5.54884815,1.50901191
wxb_1058,32,0,2024-06-16T02:59:50.941Z,english_791.wav,0,1,1352,22,4,chinese,m,8,0.8,89.91059564,0.68083576
wxb_1058,32,0,2024-06-16T02:59:50.941Z,english_791.wav,0,1,1352,22,4,chinese,m,9,0.9,90.72111025,1.62669182
wxb_1058,32,0,2024-06-16T02:59:50.941Z,english_791.wav,0,1,1352,22,4,chinese,m,10,1,4.8020349,1.81653342
wxb_1058,32,0,2024-06-16T02:59:50.941Z,english_791.wav,0,1,1352,22,4,chinese,m,11,1.09391667,7.87463746,1.33572141
wxb_1058,33,0,2024-06-16T02:59:50.941Z,english_967.wav,0,1,2295,22,4,chinese,m,0,0,-95.01579597,1.84793029
wxb_1058,33,0,2024-06-16T02:59:50.941Z,english_967.wav,0,1,2295,22,4,chinese,m,1,0.1,-83.85694312,0.58680999
wxb_1058,33,0,2024-06-16T02:59:50.941Z,english_967.wav,0,1,2295,22,4,chinese,m,2,0.2,-85.29120752,1.7718572
wxb_1058,33,0,2024-06-16T02:59:50.941Z,english_967.wav,0,1,2295,22,4,chinese,m,3,0.3,39.64714204,1.16952376
wxb_1058,33,0,2024-06-16T02:59:50.941Z,english_967.wav,0,1,2295,22,4,chinese,m,4,0.4,57.5109199,0.26483397
wxb_1058,33,0,2024-06-16T02:59:50.941Z,english_967.wav,0,1,2295,22,4,chinese,m,5,0.5,17.84726357,0.70174807
wxb_1058,33,0,2024-06-16T02:59:50.941Z,english_967.wav,0,1,2295,22,4,chinese,m,6,0.6,72.49898727,1.00653378
wxb_1058,33,0,2024-06-16T02:59:50.941Z,english_967.wav,0,1,2295,22,4,chinese,m,7,0.7,-49.28489837,0.37312662
wxb_1058,33,0,2024-06-16T02:59:50.941Z,english_967.wav,0,1,2295,22,4,chinese,m,8,0.8,27.76319329,0.21661179
wxb_1058,33,0,2024-06-16T02:59:50.941Z,english_967.wav,0,1,2295,22,4,chinese,m,9,0.9,40.88732144,1.37557681
wxb_1058,33,0,2024-06-16T02:59:50.941Z,english_967.wav,0,1,2295,22,4,chinese,m,10,1,25.08094833,0.83851773
wxb_1058,33,0,2024-06-16T02:59:50.941Z,english_967.wav,0,1,2295,22,4,chinese,m,11,1.09391667,-11.2848797,1.10196179
wxb_1058,34,0,2024-06-16T02:59:50.941Z,english_1.wav,0,1,667,22,4,chinese,m,0,0,82.44203382,0.97617089
wxb_1058,34,0,2024-06-16T02:59:50.941Z,english_1.wav,0,1,667,22,4,chinese,m,1,0.1,-30.17618245,0.62833649
wxb_1058,34,0,2024-06-16T02:59:50.941Z,english_1.wav,0,1,667,22,4,chinese,m,2,0.2,29.86670871,1.71628267
wxb_1058,34,0,2024-06-16T02:59:50.941Z,english_1.wav,0,1,667,22,4,chinese,m,3,0.3,-30.59558791,1.57876253
wxb_1058,34,0,2024-06-16T02:59:50.941Z,english_1.wav,0,1,667,22,4,chinese,m,4,0.4,-47.57675763,0.47000387
wxb_1058,34,0,2024-06-16T02:59:50.941Z,english_1.wav,0,1,667,22,4,chinese,m,5,0.5,-17.44773817,0.87334438
wxb_1058,34,0,2024-06-16T02:59:50.941Z,english_1.wav,0,1,667,22,4,chinese,m,6,0.6,-73.86718122,0.40526307
wxb_1058,34,0,2024-06-16T02:59:50.941Z,english_1.wav,0,1,667,22,4,chinese,m,7,0.7,70.17077277,1.31867186
wxb_1058,34,0,2024-06-16T02:59:50.941Z,english_1.wav,0,1,667,22,4,chinese,m,8,0.8,-75.98538301,0.46239136
wxb_1058,34,0,2024-06-16T02:59:50.941Z,english_1.wav,0,1,667,22,4,chinese,m,9,0.9,-57.43154571,0.66642176
wxb_1058,34,0,2024-06-16T02:59:50.941Z,english_1.wav,0,1,667,22,4,chinese,m,10,1,93.54956166,0.4005644
wxb_1058,34,0,2024-06-16T02:59:50.941Z,english_1.wav,0,1,667,22,4,chinese,m,11,1.09391667,-19.42635274,0.62556241
wxb_1058,35,0,2024-06-16T02:59:50.941Z,english_188.wav,0,1,2974,22,4,chinese,m,0,0,-44.78438497,0.94710117
wxb_1058,35,0,2024-06-16T02:59:50.941Z,english_188.wav,0,1,2974,22,4,chinese,m,1,0.1,-59.64362525,0.96413905
wxb_1058,35,0,2024-06-16T02:59:50.941Z,english_188.wav,0,1,2974,22,4,chinese,m,2,0.2,-64.08533898,0.84840618
wxb_1058,35,0,2024-06-16T02:59:50.941Z,english_188.wav,0,1,2974,22,4,chinese,m,3,0.3,-29.1378116,0.37627617
wxb_1058,35,0,2024-06-16T02:59:50.941Z,english_188.wav,0,1,2974,22,4,chinese,m,4,0.4,-4.14868477,1.62621942
wxb_1058,35,0,2024-06-16T02:59:50.941Z,english_188.wav,0,1,2974,22,4,chinese,m,5,0.5,-61.00737987,0.44747201
wxb_1058,35,0,2024-06-16T02:59:50.941Z,english_188.wav,0,1,2974,22,4,chinese,m,6,0.6,61.72468412,0.51555254
wxb_1058,35,0,2024-06-16T02:59:50.941Z,english_188.wav,0,1,2974,22,4,chinese,m,7,0.7,91.61563335,1.97040932
wxb_1058,35,0,2024-06-16T02:59:50.941Z,english_188.wav,0,1,2974,22,4,chinese,m,8,0.8,-69.21450223,0.35468899
wxb_1058,35,0,2024-06-16T02:59:50.941Z,english_188.wav,0,1,2974,22,4,chinese,m,9,0.9,55.80681999,1.42342949
wxb_1058,35,0,2024-06-16T02:59:50.941Z,english_188.wav,0,1,2974,22,4,chinese,m,10,1,-13.47812759,1.23724986
wxb_1058,35,0,2024-06-16T02:59:50.941Z,english_188.wav,0,1,2974,22,4,chinese,m,11,1.09391667,47.39616925,0.05613364
wxb_1058,36,0,2024-06-16T02:59:50.941Z,english_760.wav,0,0,4836,22,4,chinese,m,0,0,47.27372451,1.90030816
wxb_1058,36,0,2024-06-16T02:59:50.941Z,english_760.wav,0,0,4836,22,4,chinese,m,1,0.1,46.53530355,0.64747902
wxb_1058,36,0,2024-06-16T02:59:50.941Z,english_760.wav,0,0,4836,22,4,chinese,m,2,0.2,-24.42746322,1.68645788
wxb_1058,36,0,2024-06-16T02:59:50.941Z,english_760.wav,0,0,4836,22,4,chinese,m,3,0.3,-83.25481365,0.7717333
wxb_1058,36,0,2024-06-16T02:59:50.941Z,english_760.wav,0,0,4836,22,4,chinese,m,4,0.4,-76.36732845,0.72158444
wxb_1058,36,0,2024-06-16T02:59:50.941Z,english_760.wav,0,0,4836,22,4,chinese,m,5,0.5,49.65509994,1.63248564
wxb_1058,36,0,2024-06-16T02:59:50.941Z,english_760.wav,0,0,4836,22,4,chinese,m,6,0.6,-0.21531061,0.67358777
wxb_1058,36,0,2024-06-16T02:59:50.941Z,english_760.wav,0,0,4836,22,4,chinese,m,7,0.7,97.69744282,1.75458052
wxb_1058,36,0,2024-06-16T02:59:50.941Z,english_760.wav,0,0,4836,22,4,chinese,m,8,0.8,-79.50455281,0.7766848
wxb_1058,36,0,2024-06-16T02:59:50.941Z,english_760.wav,0,0,4836,22,4,chinese,m,9,0.9,-8.48709935,0.96559376
wxb_1058,36,0,2024-06-16T02:59:50.941Z,english_760.wav,0,0,4836,22,4,chinese,m,10,1,-57.2440405,1.44704785
wxb_1058,36,0,2024-06-16T02:59:50.941Z,english_760.wav,0,0,4836,22,4,chinese,m,11,1.09391667,-52.62348211,0.65092854
wxb_1058,37,0,2024-06-16T02:59:50.941Z,english_289.wav,0,1,492,22,4,chinese,m,0,0,-74.78655,1.54308435
wxb_1058,37,0,2024-06-16T02:59:50.941Z,english_289.wav,0,1,492,22,4,chinese,m,1,0.1,-90.25985406,1.23232394
wxb_1058,37,0,2024-06-16T02:59:50.941Z,english_289.wav,0,1,492,22,4,chinese,m,2,0.2,-27.93675794,0.21652241
wxb_1058,37,0,2024-06-16T02:59:50.941Z,english_289.wav,0,1,492,22,4,chinese,m,3,0.3,-69.8278995,1.88715195
wxb_1058,37,0,2024-06-16T02:59:50.941Z,english_289.wav,0,1,492,22,4,chinese,m,4,0.4,80.83899325,0.72261078
wxb_1058,37,0,2024-06-16T02:59:50.941Z,english_289.wav,0,1,492,22,4,chinese,m,5,0.5,59.60907912,1.3658372
wxb_1058,37,0,2024-06-16T02:59:50.941Z,english_289.wav,0,1,492,22,4,chinese,m,6,0.6,-7.23667322,0.39334931
wxb_1058,37,0,2024-06-16T02:59:50.941Z,english_289.wav,0,1,492,22,4,chinese,m,7,0.7,40.65599914,0.15923439
wxb_1058,37,0,2024-06-16T02:59:50.941Z,english_289.wav,0,1,492,22,4,chinese,m,8,0.8,70.76112858,0.96106175
wxb_1058,37,0,2024-06-16T02:59:50.941Z,english_289.wav,0,1,492,22,4,chinese,m,9,0.9,55.20165463,1.02832529
wxb_1058,37,0,2024-06-16T02:59:50.941Z,english_289.wav,0,1,492,22,4,chinese,m,10,1,12.92586279,1.79645227
wxb_1058,37,0,2024-06-16T02:59:50.941Z,english_289.wav,0,1,492,22,4,chinese,m,11,1.09391667,79.89951156,0.36571396
wxb_1058,38,0,2024-06-16T02:59:50.941Z,english_319.wav,0,1,1295,22,4,chinese,m,0,0,77.16443591,0.7420308
wxb_1058,38,0,2024-06-16T02:59:50.941Z,english_319.wav,0,1,1295,22,4,chinese,m,1,0.1,-97.50447801,0.79369359
wxb_1058,38,0,2024-06-16T02:59:50.941Z,english_319.wav,0,1,1295,22,4,chinese,m,2,0.2,48.22320359,0.01474693
wxb_1058,38,0,2024-06-16T02:59:50.941Z,english_319.wav,0,1,1295,22,4,chinese,m,3,0.3,85.69365628,0.05089627
wxb_1058,38,0,2024-06-16T02:59:50.941Z,english_319.wav,0,1,1295,22,4,chinese,m,4,0.4,-99.19363603,1.27499461
wxb_1058,38,0,2024-06-16T02:59:50.941Z,english_319.wav,0,1,1295,22,4,chinese,m,5,0.5,-23.7721795,1.87204787
wxb_1058,38,0,2024-06-16T02:59:50.941Z,english_319.wav,0,1,1295,22,4,chinese,m,6,0.6,69.35156136,1.81900072
wxb_1058,38,0,2024-06-16T02:59:50.941Z,english_319.wav,0,1,1295,22,4,chinese,m,7,0.7,-45.28598517,1.18018
wxb_1058,38,0,2024-06-16T02:59:50.941Z,english_319.wav,0,1,1295,22,4,chinese,m,8,0.8,-63.05288391,1.07853439
wxb_1058,38,0,2024-06-16T02:59:50.941Z,english_319.wav,0,1,1295,22,4,chinese,m,9,0.9,-37.89893573,1.96522233
wxb_1058,38,0,2024-06-16T02:59:50.941Z,english_319.wav,0,1,1295,22,4,chinese,m,10,1,-33.85226459,1.95815374
wxb_1058,38,0,2024-06-16T02:59:50.941Z,english_319.wav,0,1,1295,22,4,chinese,m,11,1.09391667,-77.07753192,1.86512983
wxb_1058,39,0,2024-06-16T02:59:50.941Z,english_615.wav,0,1,3192,22,4,chinese,m,0,0,-59.46419525,1.45272118
wxb_1058,39,0,2024-06-16T02:59:50.941Z,english_615.wav,0,1,3192,22,4,chinese,m,1,0.1,57.8993682,1.05218588
wxb_1058,39,0,2024-06-16T02:59:50.941Z,english_615.wav,0,1,3192,22,4,chinese,m,2,0.2,96.50473449,0.16877242
wxb_1058,39,0,2024-06-16T02:59:50.941Z,english_615.wav,0,1,3192,22,4,chinese,m,3,0.3,70.35497861,0.80491698
wxb_1058,39,0,2024-06-16T02:59:50.941Z,english_615.wav,0,1,3192,22,4,chinese,m,4,0.4,41.87750843,0.90543026
wxb_1058,39,0,2024-06-16T02:59:50.941Z,english_615.wav,0,1,3192,22,4,chinese,m,5,0.5,-81.49095224,1.05177913
wxb_1058,39,0,2024-06-16T02:59:50.941Z,english_615.wav,0,1,3192,22,4,chinese,m,6,0.6,57.42750946,0.09637859
wxb_1058,39,0,2024-06-16T02:59:50.941Z,english_615.wav,0,1,3192,22,4,chinese,m,7,0.7,4.11503666,0.17788962
wxb_1058,39,0,2024-06-16T02:59:50.941Z,english_615.wav,0,1,3192,22,4,chinese,m,8,0.8,-69.97079252,0.7335246
wxb_1058,39,0,2024-06-16T02:59:50.941Z,english_615.wav,0,1,3192,22,4,chinese,m,9,0.9,35.15344639,1.1040214
wxb_1058,39,0,2024-06-16T02:59:50.941Z,english_615.wav,0,1,3192,22,4,chinese,m,10,1,-81.03238812,0.9742901
wxb_1058,39,0,2024-06-16T02:59:50.941Z,english_615.wav,0,1,3192,22,4,chinese,m,11,1.09391667,-73.59723868,0.84036339
wxb_1058,40,0,2024-06-16T02:59:50.941Z,english_667.wav,0,1,2435,22,4,chinese,m,0,0,-40.55421882,0.65900383
wxb_1058,40,0,2024-06-16T02:59:50.941Z,english_667.wav,0,1,2435,22,4,chinese,m,1,0.1,-4.36791553,1.32668807
wxb_1058,40,0,2024-06-16T02:59:50.941Z,english_667.wav,0,1,2435,22,4,chinese,m,2,0.2,-47.28306179,1.36801295
wxb_1058,40,0,2024-06-16T02:59:50.941Z,english_667.wav,0,1,2435,22,4,chinese,m,3,0.3,4.54742829,1.31909989
wxb_1058,40,0,2024-06-16T02:59:50.941Z,english_667.wav,0,1,2435,22,4,chinese,m,4,0.4,56.02469614,1.3880932
wxb_1058,40,0,2024-06-16T02:59:50.941Z,english_667.wav,0,1,2435,22,4,chinese,m,5,0.5,-1.96932384,1.04427425
wxb_1058,40,0,2024-06-16T02:59:50.941Z,english_667.wav,0,1,2435,22,4,chinese,m,6,0.6,5.19539512,1.75340959
wxb_1058,40,0,2024-06-16T02:59:50.941Z,english_667.wav,0,1,2435,22,4,chinese,m,7,0.7,-58.89384288,0.51778984
wxb_1058,40,0,2024-06-16T02:59:50.941Z,english_667.wav,0,1,2435,22,4,chinese,m,8,0.8,-23.79810438,1.0404646
wxb_1058,40,0,2024-06-16T02:59:50.941Z,english_667.wav,0,1,2435,22,4,chinese,m,9,0.9,98.84523473,0.97755594
wxb_1058,40,0,2024-06-16T02:59:50.941Z,english_667.wav,0,1,2435,22,4,chinese,m,10,1,7.14220046,0.3681696
wxb_1058,40,0,2024-06-16T02:59:50.941Z,english_667.wav,0,1,2435,22,4,chinese,m,11,1.09391667,-53.41190767,1.51620439
wxb_1058,41,0,2024-06-16T02:59:50.941Z,english_189.wav,0,1,498,22,4,chinese,m,0,0,38.06728106,1.56553487
wxb_1058,41,0,2024-06-16T02:59:50.941Z,english_189.wav,0,1,498,22,4,chinese,m,1,0.1,-1.4916867,1.31424407
wxb_1058,41,0,2024-06-16T02:59:50.941Z,english_189.wav,0,1,498,22,4,chinese,m,2,0.2,43.23022726,1.86938367
wxb_1058,41,0,2024-06-16T02:59:50.941Z,english_189.wav,0,1,498,22,4,chinese,m,3,0.3,70.52777392,0.10876999
wxb_1058,41,0,2024-06-16T02:59:50.941Z,english_189.wav,0,1,498,22,4,chinese,m,4,0.4,-59.79939787,1.05429822
wxb_1058,41,0,2024-06-16T02:59:50.941Z,english_189.wav,0,1,498,22,4,chinese,m,5,0.5,5.41678611,0.01998106
wxb_1058,41,0,2024-06-16T02:59:50.941Z,english_189.wav,0,1,498,22,4,chinese,m,6,0.6,44.76349545,0.98555546
wxb_1058,41,0,2024-06-16T02:59:50.941Z,english_189.wav,0,1,498,22,4,chinese,m,7,0.7,-14.25166989,1.99583415
wxb_1058,41,0,2024-06-16T02:59:50.941Z,english_189.wav,0,1,498,22,4,chinese,m,8,0.8,-20.12101429,0.39293902
wxb_1058,41,0,2024-06-16T02:59:50.941Z,english_189.wav,0,1,498,22,4,chinese,m,9,0.9,-43.3681134,0.55662411
wxb_1058,41,0,2024-06-16T02:59:50.941Z,english_189.wav,0,1,498,22,4,chinese,m,10,1,-43.09833267,0.66082483
wxb_1058,41,0,2024-06-16T02:59:50.941Z,english_189.wav,0,1,498,22,4,chinese,m,11,1.09391667,-43.67138872,0.74070611
wxb_1058,42,0,2024-06-16T02:59:50.941Z,english_146.wav,0,1,491,22,4,chinese,m,0,0,56.30698685,0.40218926
wxb_1058,42,0,2024-06-16T02:59:50.941Z,english_146.wav,0,1,491,22,4,chinese,m,1,0.1,33.76808102,1.30498568
wxb_1058,42,0,2024-06-16T02:59:50.941Z,english_146.wav,0,1,491,22,4,chinese,m,2,0.2,7.3416935,1.88518083
wxb_1058,42,0,2024-06-16T02:59:50.941Z,english_146.wav,0,1,491,22,4,chinese,m,3,0.3,54.00115317,0.73939723
wxb_1058,42,0,2024-06-16T02:59:50.941Z,english_146.wav,0,1,491,22,4,chinese,m,4,0.4,60.50079064,1.18416515
wxb_1058,42,0,2024-06-16T02:59:50.941Z,english_146.wav,0,1,491,22,4,chinese,m,5,0.5,93.58064811,0.74397262
wxb_1058,42,0,2024-06-16T02:59:50.941Z,english_146.wav,0,1,491,22,4,chinese,m,6,0.6,16.38414301,1.77833366
wxb_1058,42,0,2024-06-16T02:59:50.941Z,english_146.wav,0,1,491,22,4,chinese,m,7,0.7,53.45076847,0.98273851
wxb_1058,42,0,2024-06-16T02:59:50.941Z,english_146.wav,0,1,491,22,4,chinese,m,8,0.8,57.56482396,1.41119053
wxb_1058,42,0,2024-06-16T02:59:50.941Z,english_146.wav,0,1,491,22,4,chinese,m,9,0.9,-28.26782972,0.90766435
wxb_1058,42,0,2024-06-16T02:59:50.941Z,english_146.wav,0,1,491,22,4,chinese,m,10,1,79.66793606,0.33691203
wxb_1058,42,0,2024-06-16T02:59:50.941Z,english_146.wav,0,1,491,22,4,chinese,m,11,1.09391667,23.81863578,1.86488134
wxb_1058,43,0,2024-06-16T02:59:50.941Z,english_41.wav,0,1,6913,22,4,chinese,m,0,0,94.86935215,0.27348518
wxb_1058,43,0,2024-06-16T02:59:50.941Z,english_41.wav,0,1,6913,22,4,chinese,m,1,0.1,-7.05168928,1.18971652
wxb_1058,43,0,2024-06-16T02:59:50.941Z,english_41.wav,0,1,6913,22,4,chinese,m,2,0.2,83.29541273,1.0683571
wxb_1058,43,0,2024-06-16T02:59:50.941Z,english_41.wav,0,1,6913,22,4,chinese,m,3,0.3,-1.78314142,1.37978433
wxb_1058,43,0,2024-06-16T02:59:50.941Z,english_41.wav,0,1,6913,22,4,chinese,m,4,0.4,48.9333274,0.66104529
wxb_1058,43,0,2024-06-16T02:59:50.941Z,english_41.wav,0,1,6913,22,4,chinese,m,5,0.5,-37.7603382,1.58723319
wxb_1058,43,0,2024-06-16T02:59:50.941Z,english_41.wav,0,1,6913,22,4,chinese,m,6,0.6,-73.18439231,0.96658357
wxb_1058,43,0,2024-06-16T02:59:50.941Z,english_41.wav,0,1,6913,22,4,chinese,m,7,0.7,14.0804343,1.12331941
wxb_1058,43,0,2024-06-16T02:59:50.941Z,english_41.wav,0,1,6913,22,4,chinese,m,8,0.8,-63.54643631,1.41064232
wxb_1058,43,0,2024-06-16T02:59:50.941Z,english_41.wav,0,1,6913,22,4,chinese,m,9,0.9,15.76603415,0.93302581
wxb_1058,43,0,2024-06-16T02:59:50.941Z,english_41.wav,0,1,6913,22,4,chinese,m,10,1,6.93433941,0.83854769
wxb_1058,43,0,2024-06-16T02:59:50.941Z,english_41.wav,0,1,6913,22,4,chinese,m,11,1.09391667,-37.21216737,1.07714606
wxb_1058,44,0,2024-06-16T02:59:50.941Z,english_514.wav,0,0,4764,22,4,chinese,m,0,0,-59.82766829,1.35471226
wxb_1058,44,0,2024-06-16T02:59:50.941Z,english_514.wav,0,0,4764,22,4,chinese,m,1,0.1,-4.54284015,0.81191054
wxb_1058,44,0,2024-06-16T02:59:50.941Z,english_514.wav,0,0,4764,22,4,chinese,m,2,0.2,75.12688257,1.30120799
wxb_1058,44,0,2024-06-16T02:59:50.941Z,english_514.wav,0,0,4764,22,4,chinese,m,3,0.3,52.77263543,1.91982738
wxb_1058,44,0,2024-06-16T02:59:50.941Z,english_514.wav,0,0,4764,22,4,chinese,m,4,0.4,-86.38859223,1.85775535
wxb_1058,44,0,2024-06-16T02:59:50.941Z,english_514.wav,0,0,4764,22,4,chinese,m,5,0.5,22.0573972,0.92799532
wxb_1058,44,0,2024-06-16T02:59:50.941Z,english_514.wav,0,0,4764,22,4,chinese,m,6,0.6,-81.94223644,0.39882237
wxb_1058,44,0,2024-06-16T02:59:50.941Z,english_514.wav,0,0,4764,22,4,chinese,m,7,0.7,33.46090425,1.85696096
wxb_1058,44,0,2024-06-16T02:59:50.941Z,english_514.wav,0,0,4764,22,4,chinese,m,8,0.8,10.59703074,0.26578536
wxb_1058,44,0,2024-06-16T02:59:50.941Z,english_514.wav,0,0,4764,22,4,chinese,m,9,0.9,74.40481447,1.80594265
wxb_1058,44,0,2024-06-16T02:59:50.941Z,english_514.wav,0,0,4764,22,4,chinese,m,10,1,35.18551728,0.66929464
wxb_1058,44,0,2024-06-16T02:59:50.941Z,english_514.wav,0,0,4764,22,4,chinese,m,11,1.09391667,-52.88743611,1.62933111
wxb_1058,45,0,2024-06-16T02:59:50.941Z,english_361.wav,0,1,4107,22,4,chinese,m,0,0,20.84328773,1.90680099
wxb_1058,45,0,2024-06-16T02:59:50.941Z,english_361.wav,0,1,4107,22,4,chinese,m,1,0.1,31.97314279,0.60095823
wxb_1058,45,0,2024-06-16T02:59:50.941Z,english_361.wav,0,1,4107,22,4,chinese,m,2,0.2,0.96518171,1.38207831
wxb_1058,45,0,2024-06-16T02:59:50.941Z,english_361.wav,0,1,4107,22,4,chinese,m,3,0.3,76.6061975,1.17298151
wxb_1058,45,0,2024-06-16T02:59:50.941Z,english_361.wav,0,1,4107,22,4,chinese,m,4,0.4,-77.10206306,1.57242958
wxb_1058,45,0,2024-06-16T02:59:50.941Z,english_361.wav,0,1,4107,22,4,chinese,m,5,0.5,23.53898445,0.07487762
wxb_1058,45,0,2024-06-16T02:59:50.941Z,english_361.wav,0,1,4107,22,4,chinese,m,6,0.6,-12.32061179,1.72866781
wxb_1058,45,0,2024-06-16T02:59:50.941Z,english_361.wav,0,1,4107,22,4,chinese,m,7,0.7,28.9259581,0.62365339
wxb_1058,45,0,2024-06-16T02:59:50.941Z,english_361.wav,0,1,4107,22,4,chinese,m,8,0.8,-94.91860317,0.31926535
wxb_1058,45,0,2024-06-16T02:59:50.941Z,english_361.wav,0,1,4107,22,4,chinese,m,9,0.9,-45.1021446,1.82585567
wxb_1058,45,0,2024-06-16T02:59:50.941Z,english_361.wav,0,1,4107,22,4,chinese,m,10,1,37.31543609,1.81117851
wxb_1058,45,0,2024-06-16T02:59:50.941Z,english_361.wav,0,1,4107,22,4,chinese,m,11,1.09391667,-48.80421802,0.64368516
wxb_1058,46,0,2024-06-16T02:59:50.941Z,english_562.wav,0,1,7060,22,4,chinese,m,0,0,-66.46118552,0.76561111
wxb_1058,46,0,2024-06-16T02:59:50.941Z,english_562.wav,0,1,7060,22,4,chinese,m,1,0.1,50.11424094,1.84010469
wxb_1058,46,0,2024-06-16T02:59:50.941Z,english_562.wav,0,1,7060,22,4,chinese,m,2,0.2,38.4118161,1.52246451
wxb_1058,46,0,2024-06-16T02:59:50.941Z,english_562.wav,0,1,7060,22,4,chinese,m,3,0.3,55.44168462,0.37876531
wxb_1058,46,0,2024-06-16T02:59:50.941Z,english_562.wav,0,1,7060,22,4,chinese,m,4,0.4,19.14590229,1.46315217
wxb_1058,46,0,2024-06-16T02:59:50.941Z,english_562.wav,0,1,7060,22,4,chinese,m,5,0.5,-3.26381008,0.03585566
wxb_1058,46,0,2024-06-16T02:59:50.941Z,english_562.wav,0,1,7060,22,4,chinese,m,6,0.6,91.90960542,0.70876992
wxb_1058,46,0,2024-06-16T02:59:50.941Z,english_562.wav,0,1,7060,22,4,chinese,m,7,0.7,62.21453642,1.53596627
wxb_1058,46,0,2024-06-16T02:59:50.941Z,english_562.wav,0,1,7060,22,4,chinese,m,8,0.8,83.94650253,1.29387044
wxb_1058,46,0,2024-06-16T02:59:50.941Z,english_562.wav,0,1,7060,22,4,chinese,m,9,0.9,-69.18732996,0.65619247
wxb_1058,46,0,2024-06-16T02:59:50.941Z,english_562.wav,0,1,7060,22,4,chinese,m,10,1,-21.18203071,0.14449541
wxb_1058,46,0,2024-06-16T02:59:50.941Z,english_562.wav,0,1,7060,22,4,chinese,m,11,1.09391667,12.05175974,1.12518845
wxb_1058,47,0,2024-06-16T02:59:50.941Z,english_858.wav,0,1,3022,22,4,chinese,m,0,0,-15.37505572,0.64393049
wxb_1058,47,0,2024-06-16T02:59:50.941Z,english_858.wav,0,1,3022,22,4,chinese,m,1,0.1,47.09921101,1.19859165
wxb_1058,47,0,2024-06-16T02:59:50.941Z,english_858.wav,0,1,3022,22,4,chinese,m,2,0.2,-76.0790668,1.93258785
wxb_1058,47,0,2024-06-16T02:59:50.941Z,english_858.wav,0,1,3022,22,4,chinese,m,3,0.3,-80.27517843,0.51921333
wxb_1058,47,0,2024-06-16T02:59:50.941Z,english_858.wav,0,1,3022,22,4,chinese,m,4,0.4,-25.73472899,0.72976133
wxb_1058,47,0,2024-06-16T02:59:50.941Z,english_858.wav,0,1,3022,22,4,chinese,m,5,0.5,-3.51621139,1.3656743
wxb_1058,47,0,2024-06-16T02:59:50.941Z,english_858.wav,0,1,3022,22,4,chinese,m,6,0.6,-42.58463449,1.33625445
wxb_1058,47,0,2024-06-16T02:59:50.941Z,english_858.wav,0,1,3022,22,4,chinese,m,7,0.7,-98.39604525,1.13554824
wxb_1058,47,0,2024-06-16T02:59:50.941Z,english_858.wav,0,1,3022,22,4,chinese,m,8,0.8,89.96106068,1.47590746
wxb_1058,47,0,2024-06-16T02:59:50.941Z,english_858.wav,0,1,3022,22,4,chinese,m,9,0.9,77.78135143,1.4256977
wxb_1058,47,0,2024-06-16T02:59:50.941Z,english_858.wav,0,1,3022,22,4,chinese,m,10,1,-48.66962061,0.99815363
wxb_1058,47,0,2024-06-16T02:59:50.941Z,english_858.wav,0,1,3022,22,4,chinese,m,11,1.09391667,-42.55835381,1.06699265
wxb_1058,48,0,2024-06-16T02:59:50.941Z,english_790.wav,0,1,9196,22,4,chinese,m,0,0,5.47810166,1.26408321
wxb_1058,48,0,2024-06-16T02:59:50.941Z,english_790.wav,0,1,9196,22,4,chinese,m,1,0.1,-9.2687044,0.26503637
wxb_1058,48,0,2024-06-16T02:59:50.941Z,english_790.wav,0,1,9196,22,4,chinese,m,2,0.2,71.91302434,0.46926152
wxb_1058,48,0,2024-06-16T02:59:50.941Z,english_790.wav,0,1,9196,22,4,chinese,m,3,0.3,-95.14086012,0.64840522
wxb_1058,48,0,2024-06-16T02:59:50.941Z,english_790.wav,0,1,9196,22,4,chinese,m,4,0.4,81.24819191,0.79568814
wxb_1058,48,0,2024-06-16T02:59:50.941Z,english_790.wav,0,1,9196,22,4,chinese,m,5,0.5,-43.38316414,0.82256958
wxb_1058,48,0,2024-06-16T02:59:50.941Z,english_790.wav,0,1,9196,22,4,chinese,m,6,0.6,81.5189634,1.36445651
wxb_1058,48,0,2024-06-16T02:59:50.941Z,english_790.wav,0,1,9196,22,4,chinese,m,7,0.7,36.28483158,0.42135765
wxb_1058,48,0,2024-06-16T02:59:50.941Z,english_790.wav,0,1,9196,22,4,chinese,m,8,0.8,68.43717388,0.07801016
wxb_1058,48,0,2024-06-16T02:59:50.941Z,english_790.wav,0,1,9196,22,4,chinese,m,9,0.9,10.19963637,0.70937824
wxb_1058,48,0,2024-06-16T02:59:50.941Z,english_790.wav,0,1,9196,22,4,chinese,m,10,1,-15.25841054,1.62056491
wxb_1058,48,0,2024-06-16T02:59:50.941Z,english_790.wav,0,1,9196,22,4,chinese,m,11,1.09391667,-62.44422803,1.67467407
wxb_1058,49,0,2024-06-16T02:59:50.941Z,english_613.wav,0,1,1834,22,4,chinese,m,0,0,56.02417359,1.45969094
wxb_1058,49,0,2024-06-16T02:59:50.941Z,english_613.wav,0,1,1834,22,4,chinese,m,1,0.1,-15.12096295,0.70307333
wxb_1058,49,0,2024-06-16T02:59:50.941Z,english_613.wav,0,1,1834,22,4,chinese,m,2,0.2,24.11599025,1.55595157
wxb_1058,49,0,2024-06-16T02:59:50.941Z,english_613.wav,0,1,1834,22,4,chinese,m,3,0.3,-98.52161237,0.89820675
wxb_1058,49,0,2024-06-16T02:59:50.941Z,english_613.wav,0,1,1834,22,4,chinese,m,4,0.4,-83.03822249,1.36107021
wxb_1058,49,0,2024-06-16T02:59:50.941Z,english_613.wav,0,1,1834,22,4,chinese,m,5,0.5,21.43017138,0.16432707
wxb_1058,49,0,2024-06-16T02:59:50.941Z,english_613.wav,0,1,1834,22,4,chinese,m,6,0.6,63.83169659,0.04833877
wxb_1058,49,0,2024-06-16T02:59:50.941Z,english_613.wav,0,1,1834,22,4,chinese,m,7,0.7,20.52778074,0.40598637
wxb_1058,49,0,2024-06-16T02:59:50.941Z,english_613.wav,0,1,1834,22,4,chinese,m,8,0.8,94.54806404,1.56556559
wxb_1058,49,0,2024-06-16T02:59:50.941Z,english_613.wav,0,1,1834,22,4,chinese,m,9,0.9,22.39216261,0.73835637
wxb_1058,49,0,2024-06-16T02:59:50.941Z,english_613.wav,0,1,1834,22,4,chinese,m,10,1,-21.9484098,1.13631796
wxb_1058,49,0,2024-06-16T02:59:50.941Z,english_613.wav,0,1,1834,22,4,chinese,m,11,1.09391667,-64.50590256,0.17382409
wxb_1058,50,1,2024-06-16T02:59:50.941Z,english_383.wav,0,1,3076,22,4,chinese,m,0,0,-63.19284146,0.88359619
wxb_1058,50,1,2024-06-16T02:59:50.941Z,english_383.wav,0,1,3076,22,4,chinese,m,1,0.1,-11.67623943,0.67885576
wxb_1058,50,1,2024-06-16T02:59:50.941Z,english_383.wav,0,1,3076,22,4,chinese,m,2,0.2,10.29419774,0.79033279
wxb_1058,50,1,2024-06-16T02:59:50.941Z,english_383.wav,0,1,3076,22,4,chinese,m,3,0.3,-5.52009964,1.96206588
wxb_1058,50,1,2024-06-16T02:59:50.941Z,english_383.wav,0,1,3076,22,4,chinese,m,4,0.4,51.48969715,1.53913599
wxb_1058,50,1,2024-06-16T02:59:50.941Z,english_383.wav,0,1,3076,22,4,chinese,m,5,0.5,36.94617894,0.70890723
wxb_1058,50,1,2024-06-16T02:59:50.941Z,english_383.wav,0,1,3076,22,4,chinese,m,6,0.6,-43.5176619,1.30448928
wxb_1058,50,1,2024-06-16T02:59:50.941Z,english_383.wav,0,1,3076,22,4,chinese,m,7,0.7,48.24470616,0.63214347
wxb_1058,50,1,2024-06-16T02:59:50.941Z,english_383.wav,0,1,3076,22,4,chinese,m,8,0.8,-27.34462671,1.26781992
wxb_1058,50,1,2024-06-16T02:59:50.941Z,english_383.wav,0,1,3076,22,4,chinese,m,9,0.9,77.23299658,0.08660782
wxb_1058,50,1,2024-06-16T02:59:50.941Z,english_383.wav,0,1,3076,22,4,chinese,m,10,1,-26.93588993,1.53722143
wxb_1058,50,1,2024-06-16T02:59:50.941Z,english_383.wav,0,1,3076,22,4,chinese,m,11,1.09391667,-78.64800704,1.42646009
wxb_1058,51,1,2024-06-16T02:59:50.941Z,english_116.wav,0,0,1861,22,4,chinese,m,0,0,-9.55497422,1.40906913
wxb_1058,51,1,2024-06-16T02:59:50.941Z,english_116.wav,0,0,1861,22,4,chinese,m,1,0.1,49.93536879,1.01406047
wxb_1058,51,1,2024-06-16T02:59:50.941Z,english_116.wav,0,0,1861,22,4,chinese,m,2,0.2,-79.25579082,0.11711084
wxb_1058,51,1,2024-06-16T02:59:50.941Z,english_116.wav,0,0,1861,22,4,chinese,m,3,0.3,-36.23152563,0.60671403
wxb_1058,51,1,2024-06-16T02:59:50.941Z,english_116.wav,0,0,1861,22,4,chinese,m,4,0.4,-13.54411706,0.84673882
wxb_1058,51,1,2024-06-16T02:59:50.941Z,english_116.wav,0,0,1861,22,4,chinese,m,5,0.5,94.79003248,0.4711221
wxb_1058,51,1,2024-06-16T02:59:50.941Z,english_116.wav,0,0,1861,22,4,chinese,m,6,0.6,82.07262677,0.05184022
wxb_1058,51,1,2024-06-16T02:59:50.941Z,english_116.wav,0,0,1861,22,4,chinese,m,7,0.7,34.20482138,0.25033894
wxb_1058,51,1,2024-06-16T02:59:50.941Z,english_116.wav,0,0,1861,22,4,chinese,m,8,0.8,-57.39554956,0.57212798
wxb_1058,51,1,2024-06-16T02:59:50.941Z,english_116.wav,0,0,1861,22,4,chinese,m,9,0.9,74.8891327,0.83139931
wxb_1058,51,1,2024-06-16T02:59:50.941Z,english_116.wav,0,0,1861,22,4,chinese,m,10,1,25.67722271,0.9159615
wxb_1058,51,1,2024-06-16T02:59:50.941Z,english_116.wav,0,0,1861,22,4,chinese,m,11,1.09391667,39.70859054,1.32229157
wxb_1058,52,1,2024-06-16T02:59:50.941Z,english_75.wav,0,1,867,22,4,chinese,m,0,0,65.41838677,1.57781759
wxb_1058,52,1,2024-06-16T02:59:50.941Z,english_75.wav,0,1,867,22,4,chinese,m,1,0.1,-26.14209168,0.77148349
wxb_1058,52,1,2024-06-16T02:59:50.941Z,english_75.wav,0,1,867,22,4,chinese,m,2,0.2,-26.49286349,1.21755239
wxb_1058,52,1,2024-06-16T02:59:50.941Z,english_75.wav,0,1,867,22,4,chinese,m,3,0.3,24.3393517,1.81969944
wxb_1058,52,1,2024-06-16T02:59:50.941Z,english_75.wav,0,1,867,22,4,chinese,m,4,0.4,41.72589255,1.02092036
wxb_1058,52,1,2024-06-16T02:59:50.941Z,english_75.wav,0,1,867,22,4,chinese,m,5,0.5,5.99778054,0.99503371
wxb_1058,52,1,2024-06-16T02:59:50.941Z,english_75.wav,0,1,867,22,4,chinese,m,6,0.6,-80.58181045,0.23100369
wxb_1058,52,1,2024-06-16T02:59:50.941Z,english_75.wav,0,1,867,22,4,chinese,m,7,0.7,-99.66211708,0.28893428
wxb_1058,52,1,2024-06-16T02:59:50.941Z,english_75.wav,0,1,867,22,4,chinese,m,8,0.8,55.65408757,1.5775207
wxb_1058,52,1,2024-06-16T02:59:50.941Z,english_75.wav,0,1,867,22,4,chinese,m,9,0.9,95.67727499,1.18557327
wxb_1058,52,1,2024-06-16T02:59:50.941Z,english_75.wav,0,1,867,22,4,chinese,m,10,1,-83.58076108,0.49264005
wxb_1058,52,1,2024-06-16T02:59:50.941Z,english_75.wav,0,1,867,22,4,chinese,m,11,1.09391667,-10.73672479,0.18205409
wxb_1058,53,1,2024-06-16T02:59:50.941Z,english_506.wav,0,1,1411,22,4,chinese,m,0,0,-13.3952031,0.85990944
wxb_1058,53,1,2024-06-16T02:59:50.941Z,english_506.wav,0,1,1411,22,4,chinese,m,1,0.1,8.8632007,0.40173642
wxb_1058,53,1,2024-06-16T02:59:50.941Z,english_506.wav,0,1,1411,22,4,chinese,m,2,0.2,-83.95985859,0.03154553
wxb_1058,53,1,2024-06-16T02:59:50.941Z,english_506.wav,0,1,1411,22,4,chinese,m,3,0.3,38.02193565,0.39528278
wxb_1058,53,1,2024-06-16T02:59:50.941Z,english_506.wav,0,1,1411,22,4,chinese,m,4,0.4,29.61638046,0.64999614
wxb_1058,53,1,2024-06-16T02:59:50.941Z,english_506.wav,0,1,1411,22,4,chinese,m,5,0.5,91.08087873,0.76132632
wxb_1058,53,1,2024-06-16T02:59:50.941Z,english_506.wav,0,1,1411,22,4,chinese,m,6,0.6,45.85080553,0.84020916
wxb_1058,53,1,2024-06-16T02:59:50.941Z,english_506.wav,0,1,1411,22,4,chinese,m,7,0.7,15.18618823,1.25961369
wxb_1058,53,1,2024-06-16T02:59:50.941Z,english_506.wav,0,1,1411,22,4,chinese,m,8,0.8,7.43914734,1.02786985
wxb_1058,53,1,2024-06-16T02:59:50.941Z,english_506.wav,0,1,1411,22,4,chinese,m,9,0.9,90.87583829,1.37241819
wxb_1058,53,1,2024-06-16T02:59:50.941Z,english_506.wav,0,1,1411,22,4,chinese,m,10,1,-85.58318538,0.76507647
wxb_1058,53,1,2024-06-16T02:59:50.941Z,english_506.wav,0,1,1411,22,4,chinese,m,11,1.09391667,-68.83720883,1.93766079
wxb_1058,54,1,2024-06-16T02:59:50.941Z,english_187.wav,0,1,7275,22,4,chinese,m,0,0,55.99370729,1.82256068
wxb_1058,54,1,2024-06-16T02:59:50.941Z,english_187.wav,0,1,7275,22,4,chinese,m,1,0.1,-13.74585555,1.69505517
wxb_1058,54,1,2024-06-16T02:59:50.941Z,english_187.wav,0,1,7275,22,4,chinese,m,2,0.2,-0.42640895,1.33791079
wxb_1058,54,1,2024-06-16T02:59:50.941Z,english_187.wav,0,1,7275,22,4,chinese,m,3,0.3,-47.34493384,0.12415078
wxb_1058,54,1,2024-06-16T02:59:50.941Z,english_187.wav,0,1,7275,22,4,chinese,m,4,0.4,1.27244399,1.40350832
wxb_1058,54,1,2024-06-16T02:59:50.941Z,english_187.wav,0,1,7275,22,4,chinese,m,5,0.5,-51.74565009,1.6134035
wxb_1058,54,1,2024-06-16T02:59:50.941Z,english_187.wav,0,1,7275,22,4,chinese,m,6,0.6,-77.25155481,1.12966524
wxb_1058,54,1,2024-06-16T02:59:50.941Z,english_187.wav,0,1,7275,22,4,chinese,m,7,0.7,69.19112944,0.02740784
wxb_1058,54,1,2024-06-16T02:59:50.941Z,english_187.wav,0,1,7275,22,4,chinese,m,8,0.8,-97.84143732,1.26777643
wxb_1058,54,1,2024-06-16T02:59:50.941Z,english_187.wav,0,1,7275,22,4,chinese,m,9,0.9,5.06490506,1.52431862
wxb_1058,54,1,2024-06-16T02:59:50.941Z,english_187.wav,0,1,7275,22,4,chinese,m,10,1,67.30450542,1.3588447
wxb_1058,54,1,2024-06-16T02:59:50.941Z,english_187.wav,0,1,7275,22,4,chinese,m,11,1.09391667,44.03847764,1.80453633
wxb_1058,55,1,2024-06-16T02:59:50.941Z,english_495.wav,0,1,1750,22,4,chinese,m,0,0,94.59077128,0.77928027
wxb_1058,55,1,2024-06-16T02:59:50.941Z,english_495.wav,0,1,1750,22,4,chinese,m,1,0.1,-55.76476968,0.9821174
wxb_1058,55,1,2024-06-16T02:59:50.941Z,english_495.wav,0,1,1750,22,4,chinese,m,2,0.2,85.25239669,1.84587448
wxb_1058,55,1,2024-06-16T02:59:50.941Z,english_495.wav,0,1,1750,22,4,chinese,m,3,0.3,70.1736543,0.98653196
wxb_1058,55,1,2024-06-16T02:59:50.941Z,english_495.wav,0,1,1750,22,4,chinese,m,4,0.4,19.94350226,1.73373308
wxb_1058,55,1,2024-06-16T02:59:50.941Z,english_495.wav,0,1,1750,22,4,chinese,m,5,0.5,54.47178353,1.46449203
wxb_1058,55,1,2024-06-16T02:59:50.941Z,english_495.wav,0,1,1750,22,4,chinese,m,6,0.6,-87.09076246,0.51679657
wxb_1058,55,1,2024-06-16T02:59:50.941Z,english_495.wav,0,1,1750,22,4,chinese,m,7,0.7,-72.04241592,0.83282116
wxb_1058,55,1,2024-06-16T02:59:50.941Z,english_495.wav,0,1,1750,22,4,chinese,m,8,0.8,25.07065193,0.91008341
wxb_1058,55,1,2024-06-16T02:59:50.941Z,english_495.wav,0,1,1750,22,4,chinese,m,9,0.9,90.72301547,1.90880083
wxb_1058,55,1,2024-06-16T02:59:50.941Z,english_495.wav,0,1,1750,22,4,chinese,m,10,1,24.05757485,1.11137725
wxb_1058,55,1,2024-06-16T02:59:50.941Z,english_495.wav,0,1,1750,22,4,chinese,m,11,1.09391667,-32.87582459,1.50541044
wxb_1058,56,1,2024-06-16T02:59:50.941Z,english_283.wav,0,1,1868,22,4,chinese,m,0,0,-12.90091121,0.5789399
wxb_1058,56,1,2024-06-16T02:59:50.941Z,english_283.wav,0,1,1868,22,4,chinese,m,1,0.1,42.27249946,1.95381107
wxb_1058,56,1,2024-06-16T02:59:50.941Z,english_283.wav,0,1,1868,22,4,chinese,m,2,0.2,5.12381798,1.0168321
wxb_1058,56,1,2024-06-16T02:59:50.941Z,english_283.wav,0,1,1868,22,4,chinese,m,3,0.3,1.7675065,0.61202955
wxb_1058,56,1,2024-06-16T02:59:50.941Z,english_283.wav,0,1,1868,22,4,chinese,m,4,0.4,-21.55461961,0.89680875
wxb_1058,56,1,2024-06-16T02:59:50.941Z,english_283.wav,0,1,1868,22,4,chinese,m,5,0.5,-31.65586282,1.15056599
wxb_1058,56,1,2024-06-16T02:59:50.941Z,english_283.wav,0,1,1868,22,4,chinese,m,6,0.6,20.15160145,0.34242076
wxb_1058,56,1,2024-06-16T02:59:50.941Z,english_283.wav,0,1,1868,22,4,chinese,m,7,0.7,82.41987013,1.76180701
wxb_1058,56,1,2024-06-16T02:59:50.941Z,english_283.wav,0,1,1868,22,4,chinese,m,8,0.8,59.09454669,0.95604839
wxb_1058,56,1,2024-06-16T02:59:50.941Z,english_283.wav,0,1,1868,22,4,chinese,m,9,0.9,36.30583869,1.86733505
wxb_1058,56,1,2024-06-16T02:59:50.941Z,english_283.wav,0,1,1868,22,4,chinese,m,10,1,-40.78038553,1.17388738
wxb_1058,56,1,2024-06-16T02:59:50.941Z,english_283.wav,0,1,1868,22,4,chinese,m,11,1.09391667,39.65520312,1.73016304
wxb_1058,57,1,2024-06-16T02:59:50.941Z,english_500.wav,0,1,1373,22,4,chinese,m,0,0,66.22088329,0.53820699
wxb_1058,57,1,2024-06-16T02:59:50.941Z,english_500.wav,0,1,1373,22,4,chinese,m,1,0.1,-5.13412803,0.50417448
wxb_1058,57,1,2024-06-16T02:59:50.941Z,english_500.wav,0,1,1373,22,4,chinese,m,2,0.2,-6.11874153,1.24224985
wxb_1058,57,1,2024-06-16T02:59:50.941Z,english_500.wav,0,1,1373,22,4,chinese,m,3,0.3,-90.40360626,1.39300909
wxb_1058,57,1,2024-06-16T02:59:50.941Z,english_500.wav,0,1,1373,22,4,chinese,m,4,0.4,32.06545372,1.26037646
wxb_1058,57,1,2024-06-16T02:59:50.941Z,english_500.wav,0,1,1373,22,4,chinese,m,5,0.5,-65.0306572,1.07818355
wxb_1058,57,1,2024-06-16T02:59:50.941Z,english_500.wav,0,1,1373,22,4,chinese,m,6,0.6,-6.23225895,1.23543803
wxb_1058,57,1,2024-06-16T02:59:50.941Z,english_500.wav,0,1,1373,22,4,chinese,m,7,0.7,-23.5823243,1.80782898
wxb_1058,57,1,2024-06-16T02:59:50.941Z,english_500.wav,0,1,1373,22,4,chinese,m,8,0.8,77.81337781,0.94957733
wxb_1058,57,1,2024-06-16T02:59:50.941Z,english_500.wav,0,1,1373,22,4,chinese,m,9,0.9,-20.41987669,0.60641079
wxb_1058,57,1,2024-06-16T02:59:50.941Z,english_500.wav,0,1,1373,22,4,chinese,m,10,1,21.49612229,1.83181528
wxb_1058,57,1,2024-06-16T02:59:50.941Z,english_500.wav,0,1,1373,22,4,chinese,m,11,1.09391667,9.32174873,0.67500242
wxb_1058,58,1,2024-06-16T02:59:50.941Z,english_301.wav,0,1,1184,22,4,chinese,m,0,0,20.00084454,0.51149801
wxb_1058,58,1,2024-06-16T02:59:50.941Z,english_301.wav,0,1,1184,22,4,chinese,m,1,0.1,-52.8514029,1.39891418
wxb_1058,58,1,2024-06-16T02:59:50.941Z,english_301.wav,0,1,1184,22,4,chinese,m,2,0.2,18.35573453,1.20064295
wxb_1058,58,1,2024-06-16T02:59:50.941Z,english_301.wav,0,1,1184,22,4,chinese,m,3,0.3,20.24530443,1.16262284
wxb_1058,58,1,2024-06-16T02:59:50.941Z,english_301.wav,0,1,1184,22,4,chinese,m,4,0.4,-31.13596974,0.89189618
wxb_1058,58,1,2024-06-16T02:59:50.941Z,english_301.wav,0,1,1184,22,4,chinese,m,5,0.5,-57.63348461,0.05591257
wxb_1058,58,1,2024-06-16T02:59:50.941Z,english_301.wav,0,1,1184,22,4,chinese,m,6,0.6,-75.64185581,1.65560528
wxb_1058,58,1,2024-06-16T02:59:50.941Z,english_301.wav,0,1,1184,22,4,chinese,m,7,0.7,11.75816268,0.92096294
wxb_1058,58,1,2024-06-16T02:59:50.941Z,english_301.wav,0,1,1184,22,4,chinese,m,8,0.8,94.20607314,0.41490279
wxb_1058,58,1,2024-06-16T02:59:50.941Z,english_301.wav,0,1,1184,22,4,chinese,m,9,0.9,-85.03664705,1.73145538
wxb_1058,58,1,2024-06-16T02:59:50.941Z,english_301.wav,0,1,1184,22,4,chinese,m,10,1,-35.05020918,1.60276464
wxb_1058,58,1,2024-06-16T02:59:50.941Z,english_301.wav,0,1,1184,22,4,chinese,m,11,1.09391667,79.38839228,1.26188471
wxb_1058,59,1,2024-06-16T02:59:50.941Z,english_210.wav,0,1,8085,22,4,chinese,m,0,0,-22.3598959,0.75499894
wxb_1058,59,1,2024-06-16T02:59:50.941Z,english_210.wav,0,1,8085,22,4,chinese,m,1,0.1,82.81767229,1.61294131
wxb_1058,59,1,2024-06-16T02:59:50.941Z,english_210.wav,0,1,8085,22,4,chinese,m,2,0.2,64.75592146,0.96857287
wxb_1058,59,1,2024-06-16T02:59:50.941Z,english_210.wav,0,1,8085,22,4,chinese,m,3,0.3,38.64105246,1.31710082
wxb_1058,59,1,2024-06-16T02:59:50.941Z,english_210.wav,0,1,8085,22,4,chinese,m,4,0.4,-56.81269148,0.48607374
wxb_1058,59,1,2024-06-16T02:59:50.941Z,english_210.wav,0,1,8085,22,4,chinese,m,5,0.5,55.50536216,0.56849668
wxb_1058,59,1,2024-06-16T02:59:50.941Z,english_210.wav,0,1,8085,22,4,chinese,m,6,0.6,-90.16901587,0.68954785
wxb_1058,59,1,2024-06-16T02:59:50.941Z,english_210.wav,0,1,8085,22,4,chinese,m,7,0.7,-5.65019453,1.61518036
wxb_1058,59,1,2024-06-16T02:59:50.941Z,english_210.wav,0,1,8085,22,4,chinese,m,8,0.8,-52.20950635,0.58148747
wxb_1058,59,1,2024-06-16T02:59:50.941Z,english_210.wav,0,1,8085,22,4,chinese,m,9,0.9,2.11037441,1.45053329
wxb_1058,59,1,2024-06-16T02:59:50.941Z,english_210.wav,0,1,8085,22,4,chinese,m,10,1,-72.63173863,1.53157276
wxb_1058,59,1,2024-06-16T02:59:50.941Z,english_210.wav,0,1,8085,22,4,chinese,m,11,1.09391667,-28.48995406,1.31948045
wxb_1058,60,1,2024-06-16T02:59:50.941Z,english_614.wav,0,1,1948,22,4,chinese,m,0,0,-82.48035623,0.71590115
wxb_1058,60,1,2024-06-16T02:59:50.941Z,english_614.wav,0,1,1948,22,4,chinese,m,1,0.1,79.46307131,0.88553055
wxb_1058,60,1,2024-06-16T02:59:50.941Z,english_614.wav,0,1,1948,22,4,chinese,m,2,0.2,-34.63501936,0.6127243
wxb_1058,60,1,2024-06-16T02:59:50.941Z,english_614.wav,0,1,1948,22,4,chinese,m,3,0.3,-36.11573217,1.30048752
wxb_1058,60,1,2024-06-16T02:59:50.941Z,english_614.wav,0,1,1948,22,4,chinese,m,4,0.4,28.60715933,0.96267967
wxb_1058,60,1,2024-06-16T02:59:50.941Z,english_614.wav,0,1,1948,22,4,chinese,m,5,0.5,-48.6136036,0.63406811
wxb_1058,60,1,2024-06-16T02:59:50.941Z,english_614.wav,0,1,1948,22,4,chinese,m,6,0.6,-7.2226969,1.30483529
wxb_1058,60,1,2024-06-16T02:59:50.941Z,english_614.wav,0,1,1948,22,4,chinese,m,7,0.7,-29.94263831,0.38784821
wxb_1058,60,1,2024-06-16T02:59:50.941Z,english_614.wav,0,1,1948,22,4,chinese,m,8,0.8,-84.37614436,0.63559187
wxb_1058,60,1,2024-06-16T02:59:50.941Z,english_614.wav,0,1,1948,22,4,chinese,m,9,0.9,6.08502503,0.26922563
wxb_1058,60,1,2024-06-16T02:59:50.941Z,english_614.wav,0,1,1948,22,4,chinese,m,10,1,89.45930015,0.19525475
wxb_1058,60,1,2024-06-16T02:59:50.941Z,english_614.wav,0,1,1948,22,4,chinese,m,11,1.09391667,-99.05808014,1.74947328
wxb_1058,61,1,2024-06-16T02:59:50.941Z,english_81.wav,0,1,1430,22,4,chinese,m,0,0,71.09666265,1.09569192
wxb_1058,61,1,2024-06-16T02:59:50.941Z,english_81.wav,0,1,1430,22,4,chinese,m,1,0.1,-38.93956525,1.65684188
wxb_1058,61,1,2024-06-16T02:59:50.941Z,english_81.wav,0,1,1430,22,4,chinese,m,2,0.2,-48.61950395,0.44216952
wxb_1058,61,1,2024-06-16T02:59:50.941Z,english_81.wav,0,1,1430,22,4,chinese,m,3,0.3,33.39514041,1.72758961
wxb_1058,61,1,2024-06-16T02:59:50.941Z,english_81.wav,0,1,1430,22,4,chinese,m,4,0.4,18.24180048,1.46257927
wxb_1058,61,1,2024-06-16T02:59:50.941Z,english_81.wav,0,1,1430,22,4,chinese,m,5,0.5,-45.85953695,1.53730542
wxb_1058,61,1,2024-06-16T02:59:50.941Z,english_81.wav,0,1,1430,22,4,chinese,m,6,0.6,-0.32699599,1.28818555
wxb_1058,61,1,2024-06-16T02:59:50.941Z,english_81.wav,0,1,1430,22,4,chinese,m,7,0.7,-32.78716597,1.19414744
wxb_1058,61,1,2024-06-16T02:59:50.941Z,english_81.wav,0,1,1430,22,4,chinese,m,8,0.8,-37.9267269,1.01923165
wxb_1058,61,1,2024-06-16T02:59:50.941Z,english_81.wav,0,1,1430,22,4,chinese,m,9,0.9,24.21331247,1.67441048
wxb_1058,61,1,2024-06-16T02:59:50.941Z,english_81.wav,0,1,1430,22,4,chinese,m,10,1,-31.33871225,1.88948336
wxb_1058,61,1,2024-06-16T02:59:50.941Z,english_81.wav,0,1,1430,22,4,chinese,m,11,1.09391667,-77.74283174,1.81428343
wxb_1058,62,1,2024-06-16T02:59:50.941Z,english_315.wav,0,1,1635,22,4,chinese,m,0,0,20.11963367,1.15782854
wxb_1058,62,1,2024-06-16T02:59:50.941Z,english_315.wav,0,1,1635,22,4,chinese,m,1,0.1,-30.87144334,1.37599817
wxb_1058,62,1,2024-06-16T02:59:50.941Z,english_315.wav,0,1,1635,22,4,chinese,m,2,0.2,39.10248869,1.4514196
wxb_1058,62,1,2024-06-16T02:59:50.941Z,english_315.wav,0,1,1635,22,4,chinese,m,3,0.3,-19.08604714,1.32135016
wxb_1058,62,1,2024-06-16T02:59:50.941Z,english_315.wav,0,1,1635,22,4,chinese,m,4,0.4,90.41461318,1.69132556
wxb_1058,62,1,2024-06-16T02:59:50.941Z,english_315.wav,0,1,1635,22,4,chinese,m,5,0.5,-82.87118979,0.65296677
wxb_1058,62,1,2024-06-16T02:59:50.941Z,english_315.wav,0,1,1635,22,4,chinese,m,6,0.6,-12.30252898,1.40058812
wxb_1058,62,1,2024-06-16T02:59:50.941Z,english_315.wav,0,1,1635,22,4,chinese,m,7,0.7,9.37098005,0.87815256
wxb_1058,62,1,2024-06-16T02:59:50.941Z,english_315.wav,0,1,1635,22,4,chinese,m,8,0.8,-86.3809894,0.15444706
wxb_1058,62,1,2024-06-16T02:59:50.941Z,english_315.wav,0,1,1635,22,4,chinese,m,9,0.9,2.03064205,1.46097728
wxb_1058,62,1,2024-06-16T02:59:50.941Z,english_315.wav,0,1,1635,22,4,chinese,m,10,1,99.30710259,0.37640447
wxb_1058,62,1,2024-06-16T02:59:50.941Z,english_315.wav,0,1,1635,22,4,chinese,m,11,1.09391667,58.65294367,1.18518174
wxb_1058,63,1,2024-06-16T02:59:50.941Z,english_50.wav,0,1,1636,22,4,chinese,m,0,0,-32.36494138,1.37054129
wxb_1058,63,1,2024-06-16T02:59:50.941Z,english_50.wav,0,1,1636,22,4,chinese,m,1,0.1,76.6244439,1.57215181
wxb_1058,63,1,2024-06-16T02:59:50.941Z,english_50.wav,0,1,1636,22,4,chinese,m,2,0.2,-16.62217643,1.07317842
wxb_1058,63,1,2024-06-16T02:59:50.941Z,english_50.wav,0,1,1636,22,4,chinese,m,3,0.3,63.40850527,0.82623857
wxb_1058,63,1,2024-06-16T02:59:50.941Z,english_50.wav,0,1,1636,22,4,chinese,m,4,0.4,68.81783594,0.72038729
wxb_1058,63,1,2024-06-16T02:59:50.941Z,english_50.wav,0,1,1636,22,4,chinese,m,5,0.5,-35.17384088,1.90936147
wxb_1058,63,1,2024-06-16T02:59:50.941Z,english_50.wav,0,1,1636,22,4,chinese,m,6,0.6,42.93688325,0.3744962
wxb_1058,63,1,2024-06-16T02:59:50.941Z,english_50.wav,0,1,1636,22,4,chinese,m,7,0.7,-82.21044816,0.69245834
wxb_1058,63,1,2024-06-16T02:59:50.941Z,english_50.wav,0,1,1636,22,4,chinese,m,8,0.8,-42.73245843,0.60585647
wxb_1058,63,1,2024-06-16T02:59:50.941Z,english_50.wav,0,1,1636,22,4,chinese,m,9,0.9,-3.13393134,1.24840552
wxb_1058,63,1,2024-06-16T02:59:50.941Z,english_50.wav,0,1,1636,22,4,chinese,m,10,1,-86.41078269,0.02488175
wxb_1058,63,1,2024-06-16T02:59:50.941Z,english_50.wav,0,1,1636,22,4,chinese,m,11,1.09391667,14.80187439,1.59728167
wxb_1058,64,1,2024-06-16T02:59:50.941Z,english_27.wav,0,1,11205,22,4,chinese,m,0,0,79.54091256,1.25862136
wxb_1058,64,1,2024-06-16T02:59:50.941Z,english_27.wav,0,1,11205,22,4,chinese,m,1,0.1,8.12106861,0.9398724
wxb_1058,64,1,2024-06-16T02:59:50.941Z,english_27.wav,0,1,11205,22,4,chinese,m,2,0.2,-86.96528304,1.23485766
wxb_1058,64,1,2024-06-16T02:59:50.941Z,english_27.wav,0,1,11205,22,4,chinese,m,3,0.3,34.39896744,0.94041456
wxb_1058,64,1,2024-06-16T02:59:50.941Z,english_27.wav,0,1,11205,22,4,chinese,m,4,0.4,73.46875222,1.68451502
wxb_1058,64,1,2024-06-16T02:59:50.941Z,english_27.wav,0,1,11205,22,4,chinese,m,5,0.5,-83.8449803,0.54115759
wxb_1058,64,1,2024-06-16T02:59:50.941Z,english_27.wav,0,1,11205,22,4,chinese,m,6,0.6,58.21808767,0.09765006
wxb_1058,64,1,2024-06-16T02:59:50.941Z,english_27.wav,0,1,11205,22,4,chinese,m,7,0.7,-1.02085817,0.91208016
wxb_1058,64,1,2024-06-16T02:59:50.941Z,english_27.wav,0,1,11205,22,4,chinese,m,8,0.8,-33.33574161,1.53320318
wxb_1058,64,1,2024-06-16T02:59:50.941Z,english_27.wav,0,1,11205,22,4,chinese,m,9,0.9,24.41997053,1.39457069
wxb_1058,64,1,2024-06-16T02:59:50.941Z,english_27.wav,0,1,11205,22,4,chinese,m,10,1,-54.97722052,0.85736332
wxb_1058,64,1,2024-06-16T02:59:50.941Z,english_27.wav,0,1,11205,22,4,chinese,m,11,1.09391667,-40.91525951,0.73478674
wxb_1058,65,1,2024-06-16T02:59:50.941Z,english_167.wav,0,0,762,22,4,chinese,m,0,0,24.63183347,0.27443004
wxb_1058,65,1,2024-06-16T02:59:50.941Z,english_167.wav,0,0,762,22,4,chinese,m,1,0.1,13.73246145,1.84171745
wxb_1058,65,1,2024-06-16T02:59:50.941Z,english_167.wav,0,0,762,22,4,chinese,m,2,0.2,-60.43880616,1.67288004
wxb_1058,65,1,2024-06-16T02:59:50.941Z,english_167.wav,0,0,762,22,4,chinese,m,3,0.3,7.09789875,0.06788145
wxb_1058,65,1,2024-06-16T02:59:50.941Z,english_167.wav,0,0,762,22,4,chinese,m,4,0.4,-33.19551678,0.85380936
wxb_1058,65,1,2024-06-16T02:59:50.941Z,english_167.wav,0,0,762,22,4,chinese,m,5,0.5,95.64356753,0.74095746
wxb_1058,65,1,2024-06-16T02:59:50.941Z,english_167.wav,0,0,762,22,4,chinese,m,6,0.6,-14.26788655,0.50118345
wxb_1058,65,1,2024-06-16T02:59:50.941Z,english_167.wav,0,0,762,22,4,chinese,m,7,0.7,66.37452918,0.34417323
wxb_1058,65,1,2024-06-16T02:59:50.941Z,english_167.wav,0,0,762,22,4,chinese,m,8,0.8,21.11990371,0.18827799
wxb_1058,65,1,2024-06-16T02:59:50.941Z,english_167.wav,0,0,762,22,4,chinese,m,9,0.9,91.73440173,1.5764248
wxb_1058,65,1,2024-06-16T02:59:50.941Z,english_167.wav,0,0,762,22,4,chinese,m,10,1,98.54474933,1.57665407
wxb_1058,65,1,2024-06-16T02:59:50.941Z,english_167.wav,0,0,762,22,4,chinese,m,11,1.09391667,47.66166762,0.79567252
wxb_1058,66,1,2024-06-16T02:59:50.941Z,english_137.wav,0,1,907,22,4,chinese,m,0,0,-3.02796188,0.22157338
wxb_1058,66,1,2024-06-16T02:59:50.941Z,english_137.wav,0,1,907,22,4,chinese,m,1,0.1,-18.39329507,1.5970131
wxb_1058,66,1,2024-06-16T02:59:50.941Z,english_137.wav,0,1,907,22,4,chinese,m,2,0.2,27.99408469,0.93366249
wxb_1058,66,1,2024-06-16T02:59:50.941Z,english_137.wav,0,1,907,22,4,chinese,m,3,0.3,61.38529345,1.16388988
wxb_1058,66,1,2024-06-16T02:59:50.941Z,english_137.wav,0,1,907,22,4,chinese,m,4,0.4,72.06706498,1.82522819
wxb_1058,66,1,2024-06-16T02:59:50.941Z,english_137.wav,0,1,907,22,4,chinese,m,5,0.5,-49.20369567,0.19075337
wxb_1058,66,1,2024-06-16T02:59:50.941Z,english_137.wav,0,1,907,22,4,chinese,m,6,0.6,-60.60556526,1.29752633
wxb_1058,66,1,2024-06-16T02:59:50.941Z,english_137.wav,0,1,907,22,4,chinese,m,7,0.7,4.80843339,0.8825569
wxb_1058,66,1,2024-06-16T02:59:50.941Z,english_137.wav,0,1,907,22,4,chinese,m,8,0.8,-95.20794281,0.57273421
wxb_1058,66,1,2024-06-16T02:59:50.941Z,english_137.wav,0,1,907,22,4,chinese,m,9,0.9,-29.95436641,1.14765765
wxb_1058,66,1,2024-06-16T02:59:50.941Z,english_137.wav,0,1,907,22,4,chinese,m,10,1,-33.21264223,0.82478891
wxb_1058,66,1,2024-06-16T02:59:50.941Z,english_137.wav,0,1,907,22,4,chinese,m,11,1.09391667,-31.67625375,1.98926818
wxb_1058,67,1,2024-06-16T02:59:50.941Z,english_929.wav,0,1,777,22,4,chinese,m,0,0,-18.74393268,1.03205893
wxb_1058,67,1,2024-06-16T02:59:50.941Z,english_929.wav,0,1,777,22,4,chinese,m,1,0.1,33.5098218,1.56324899
wxb_1058,67,1,2024-06-16T02:59:50.941Z,english_929.wav,0,1,777,22,4,chinese,m,2,0.2,-29.94782209,1.48903241
wxb_1058,67,1,2024-06-16T02:59:50.941Z,english_929.wav,0,1,777,22,4,chinese,m,3,0.3,-33.25977884,0.12654912
wxb_1058,67,1,2024-06-16T02:59:50.941Z,english_929.wav,0,1,777,22,4,chinese,m,4,0.4,-9.01985938,0.84484029
wxb_1058,67,1,2024-06-16T02:59:50.941Z,english_929.wav,0,1,777,22,4,chinese,m,5,0.5,-82.73987875,0.94715121
wxb_1058,67,1,2024-06-16T02:59:50.941Z,english_929.wav,0,1,777,22,4,chinese,m,6,0.6,48.07587241,1.69154368
wxb_1058,67,1,2024-06-16T02:59:50.941Z,english_929.wav,0,1,777,22,4,chinese,m,7,0.7,-43.15088987,0.81126675
wxb_1058,67,1,2024-06-16T02:59:50.941Z,english_929.wav,0,1,777,22,4,chinese,m,8,0.8,82.92488977,0.36905029
wxb_1058,67,1,2024-06-16T02:59:50.941Z,english_929.wav,0,1,777,22,4,chinese,m,9,0.9,-60.38444868,0.50874334
wxb_1058,67,1,2024-06-16T02:59:50.941Z,english_929.wav,0,1,777,22,4,chinese,m,10,1,27.71416794,0.95284967
wxb_1058,67,1,2024-06-16T02:59:50.941Z,english_929.wav,0,1,777,22,4,chinese,m,11,1.09391667,21.92497573,0.65099343
wxb_1058,68,1,2024-06-16T02:59:50.941Z,english_224.wav,0,1,5512,22,4,chinese,m,0,0,-78.61506242,0.96291184
wxb_1058,68,1,2024-06-16T02:59:50.941Z,english_224.wav,0,1,5512,22,4,chinese,m,1,0.1,50.32903383,1.02849412
wxb_1058,68,1,2024-06-16T02:59:50.941Z,english_224.wav,0,1,5512,22,4,chinese,m,2,0.2,13.41609495,1.48046057
wxb_1058,68,1,2024-06-16T02:59:50.941Z,english_224.wav,0,1,5512,22,4,chinese,m,3,0.3,-65.62214638,0.95403391
wxb_1058,68,1,2024-06-16T02:59:50.941Z,english_224.wav,0,1,5512,22,4,chinese,m,4,0.4,-58.93648778,0.16536285
wxb_1058,68,1,2024-06-16T02:59:50.941Z,english_224.wav,0,1,5512,22,4,chinese,m,5,0.5,72.28111683,1.42811474
wxb_1058,68,1,2024-06-16T02:59:50.941Z,english_224.wav,0,1,5512,22,4,chinese,m,6,0.6,-46.77069374,0.74831178
wxb_1058,68,1,2024-06-16T02:59:50.941Z,english_224.wav,0,1,5512,22,4,chinese,m,7,0.7,-90.37193795,1.44512366
wxb_1058,68,1,2024-06-16T02:59:50.941Z,english_224.wav,0,1,5512,22,4,chinese,m,8,0.8,-0.43339445,1.0370843
wxb_1058,68,1,2024-06-16T02:59:50.941Z,english_224.wav,0,1,5512,22,4,chinese,m,9,0.9,-45.45823975,0.73747726
wxb_1058,68,1,2024-06-16T02:59:50.941Z,english_224.wav,0,1,5512,22,4,chinese,m,10,1,-68.1553756,0.53686902
wxb_1058,68,1,2024-06-16T02:59:50.941Z,english_224.wav,0,1,5512,22,4,chinese,m,11,1.09391667,-50.27313826,1.24590757
wxb_1058,69,1,2024-06-16T02:59:50.941Z,english_351.wav,0,1,9592,22,4,chinese,m,0,0,-19.65986015,1.42460204
wxb_1058,69,1,2024-06-16T02:59:50.941Z,english_351.wav,0,1,9592,22,4,chinese,m,1,0.1,73.58710044,0.00643347
wxb_1058,69,1,2024-06-16T02:59:50.941Z,english_351.wav,0,1,9592,22,4,chinese,m,2,0.2,74.12275499,0.97495265
wxb_1058,69,1,2024-06-16T02:59:50.941Z,english_351.wav,0,1,9592,22,4,chinese,m,3,0.3,-24.45683786,0.52137616
wxb_1058,69,1,2024-06-16T02:59:50.941Z,english_351.wav,0,1,9592,22,4,chinese,m,4,0.4,21.01511918,1.11946487
wxb_1058,69,1,2024-06-16T02:59:50.941Z,english_351.wav,0,1,9592,22,4,chinese,m,5,0.5,55.7456538,0.33788576
wxb_1058,69,1,2024-06-16T02:59:50.941Z,english_351.wav,0,1,9592,22,4,chinese,m,6,0.6,54.50583955,1.25361851
wxb_1058,69,1,2024-06-16T02:59:50.941Z,english_351.wav,0,1,9592,22,4,chinese,m,7,0.7,74.68230433,1.43767459
wxb_1058,69,1,2024-06-16T02:59:50.941Z,english_351.wav,0,1,9592,22,4,chinese,m,8,0.8,-93.39577551,0.08040705
wxb_1058,69,1,2024-06-16T02:59:50.941Z,english_351.wav,0,1,9592,22,4,chinese,m,9,0.9,89.8823857,0.01025875
wxb_1058,69,1,2024-06-16T02:59:50.941Z,english_351.wav,0,1,9592,22,4,chinese,m,10,1,82.37960735,0.65117528
wxb_1058,69,1,2024-06-16T02:59:50.941Z,english_351.wav,0,1,9592,22,4,chinese,m,11,1.09391667,-9.15420485,0.78690639
wxb_1058,70,1,2024-06-16T02:59:50.941Z,english_612.wav,0,1,1416,22,4,chinese,m,0,0,-32.56638412,1.34102199
wxb_1058,70,1,2024-06-16T02:59:50.941Z,english_612.wav,0,1,1416,22,4,chinese,m,1,0.1,49.8981081,0.75759379
wxb_1058,70,1,2024-06-16T02:59:50.941Z,english_612.wav,0,1,1416,22,4,chinese,m,2,0.2,-21.03155474,1.225333
wxb_1058,70,1,2024-06-16T02:59:50.941Z,english_612.wav,0,1,1416,22,4,chinese,m,3,0.3,-51.85436973,1.79972666
wxb_1058,70,1,2024-06-16T02:59:50.941Z,english_612.wav,0,1,1416,22,4,chinese,m,4,0.4,-40.10971626,0.82062061
wxb_1058,70,1,2024-06-16T02:59:50.941Z,english_612.wav,0,1,1416,22,4,chinese,m,5,0.5,-9.29933233,0.18015475
wxb_1058,70,1,2024-06-16T02:59:50.941Z,english_612.wav,0,1,1416,22,4,chinese,m,6,0.6,53.77549864,0.28029793
wxb_1058,70,1,2024-06-16T02:59:50.941Z,english_612.wav,0,1,1416,22,4,chinese,m,7,0.7,-93.73306799,1.24302717
wxb_1058,70,1,2024-06-16T02:59:50.941Z,english_612.wav,0,1,1416,22,4,chinese,m,8,0.8,10.07222851,1.83652713
wxb_1058,70,1,2024-06-16T02:59:50.941Z,english_612.wav,0,1,1416,22,4,chinese,m,9,0.9,17.79731187,1.55098579
wxb_1058,70,1,2024-06-16T02:59:50.941Z,english_612.wav,0,1,1416,22,4,chinese,m,10,1,-51.55835123,0.97719026
wxb_1058,70,1,2024-06-16T02:59:50.941Z,english_612.wav,0,1,1416,22,4,chinese,m,11,1.09391667,-22.80344529,0.39162915
wxb_1058,71,1,2024-06-16T02:59:50.941Z,english_733.wav,0,0,1676,22,4,chinese,m,0,0,60.12911829,1.17715688
wxb_1058,71,1,2024-06-16T02:59:50.941Z,english_733.wav,0,0,1676,22,4,chinese,m,1,0.1,-6.07350544,0.73101999
wxb_1058,71,1,2024-06-16T02:59:50.941Z,english_733.wav,0,0,1676,22,4,chinese,m,2,0.2,-97.34447637,0.23762906
wxb_1058,71,1,2024-06-16T02:59:50.941Z,english_733.wav,0,0,1676,22,4,chinese,m,3,0.3,13.91289177,0.47801532
wxb_1058,71,1,2024-06-16T02:59:50.941Z,english_733.wav,0,0,1676,22,4,chinese,m,4,0.4,24.58615212,1.00660929
wxb_1058,71,1,2024-06-16T02:59:50.941Z,english_733.wav,0,0,1676,22,4,chinese,m,5,0.5,-0.46947401,0.69954151
wxb_1058,71,1,2024-06-16T02:59:50.941Z,english_733.wav,0,0,1676,22,4,chinese,m,6,0.6,-95.42432467,0.66296436
wxb_1058,71,1,2024-06-16T02:59:50.941Z,english_733.wav,0,0,1676,22,4,chinese,m,7,0.7,-12.42368325,0.8353001
wxb_1058,71,1,2024-06-16T02:59:50.941Z,english_733.wav,0,0,1676,22,4,chinese,m,8,0.8,-68.21201108,0.93210743
wxb_1058,71,1,2024-06-16T02:59:50.941Z,english_733.wav,0,0,1676,22,4,chinese,m,9,0.9,80.23434779,0.7426454
wxb_1058,71,1,2024-06-16T02:59:50.941Z,english_733.wav,0,0,1676,22,4,chinese,m,10,1,37.72859174,1.31979312
wxb_1058,71,1,2024-06-16T02:59:50.941Z,english_733.wav,0,0,1676,22,4,chinese,m,11,1.09391667,99.34819771,0.72211033
wxb_1058,72,1,2024-06-16T02:59:50.941Z,english_346.wav,0,1,6845,22,4,chinese,m,0,0,24.07666509,0.66537663
wxb_1058,72,1,2024-06-16T02:59:50.941Z,english_346.wav,0,1,6845,22,4,chinese,m,1,0.1,-87.64157913,1.54123619
wxb_1058,72,1,2024-06-16T02:59:50.941Z,english_346.wav,0,1,6845,22,4,chinese,m,2,0.2,-51.3970499,0.92348631
wxb_1058,72,1,2024-06-16T02:59:50.941Z,english_346.wav,0,1,6845,22,4,chinese,m,3,0.3,79.45874018,0.33920207
wxb_1058,72,1,2024-06-16T02:59:50.941Z,english_346.wav,0,1,6845,22,4,chinese,m,4,0.4,-74.83031912,0.94433533
wxb_1058,72,1,2024-06-16T02:59:50.941Z,english_346.wav,0,1,6845,22,4,chinese,m,5,0.5,-2.98294823,0.8352321
wxb_1058,72,1,2024-06-16T02:59:50.941Z,english_346.wav,0,1,6845,22,4,chinese,m,6,0.6,-32.38946294,0.95810053
wxb_1058,72,1,2024-06-16T02:59:50.941Z,english_346.wav,0,1,6845,22,4,chinese,m,7,0.7,-24.81590652,0.99822629
wxb_1058,72,1,2024-06-16T02:59:50.941Z,english_346.wav,0,1,6845,22,4,chinese,m,8,0.8,-13.90891955,0.18782062
wxb_1058,72,1,2024-06-16T02:59:50.941Z,english_346.wav,0,1,6845,22,4,chinese,m,9,0.9,-33.49626836,1.6271571
wxb_1058,72,1,2024-06-16T02:59:50.941Z,english_346.wav,0,1,6845,22,4,chinese,m,10,1,-23.2144111,1.67158741
wxb_1058,72,1,2024-06-16T02:59:50.941Z,english_346.wav,0,1,6845,22,4,chinese,m,11,1.09391667,-9.66358574,1.16169049
wxb_1058,73,1,2024-06-16T02:59:50.941Z,english_48.wav,0,1,4093,22,4,chinese,m,0,0,60.63460718,0.33804588
wxb_1058,73,1,2024-06-16T02:59:50.941Z,english_48.wav,0,1,4093,22,4,chinese,m,1,0.1,-63.25879977,1.53774441
wxb_1058,73,1,2024-06-16T02:59:50.941Z,english_48.wav,0,1,4093,22,4,chinese,m,2,0.2,72.16287223,0.96691945
wxb_1058,73,1,2024-06-16T02:59:50.941Z,english_48.wav,0,1,4093,22,4,chinese,m,3,0.3,56.56802271,1.67994136
wxb_1058,73,1,2024-06-16T02:59:50.941Z,english_48.wav,0,1,4093,22,4,chinese,m,4,0.4,90.70764649,1.00040305
wxb_1058,73,1,2024-06-16T02:59:50.941Z,english_48.wav,0,1,4093,22,4,chinese,m,5,0.5,-36.31712893,1.89041629
wxb_1058,73,1,2024-06-16T02:59:50.941Z,english_48.wav,0,1,4093,22,4,chinese,m,6,0.6,25.72223985,0.11424734
wxb_1058,73,1,2024-06-16T02:59:50.941Z,english_48.wav,0,1,4093,22,4,chinese,m,7,0.7,-14.91989637,0.3528252
wxb_1058,73,1,2024-06-16T02:59:50.941Z,english_48.wav,0,1,4093,22,4,chinese,m,8,0.8,-17.95558792,0.85742963
wxb_1058,73,1,2024-06-16T02:59:50.941Z,english_48.wav,0,1,4093,22,4,chinese,m,9,0.9,-5.44719263,0.59657969
wxb_1058,73,1,2024-06-16T02:59:50.941Z,english_48.wav,0,1,4093,22,4,chinese,m,10,1,-94.92564537,0.30631529
wxb_1058,73,1,2024-06-16T02:59:50.941Z,english_48.wav,0,1,4093,22,4,chinese,m,11,1.09391667,-13.08808473,1.45053444
wxb_1058,74,1,2024-06-16T02:59:50.941Z,english_582.wav,0,1,9191,22,4,chinese,m,0,0,-92.78340469,1.00518837
wxb_1058,74,1,2024-06-16T02:59:50.941Z,english_582.wav,0,1,9191,22,4,chinese,m,1,0.1,42.51344298,1.30114299
wxb_1058,74,1,2024-06-16T02:59:50.941Z,english_582.wav,0,1,9191,22,4,chinese,m,2,0.2,-42.63495555,1.27031636
wxb_1058,74,1,2024-06-16T02:59:50.941Z,english_582.wav,0,1,9191,22,4,chinese,m,3,0.3,52.58085474,1.12025144
wxb_1058,74,1,2024-06-16T02:59:50.941Z,english_582.wav,0,1,9191,22,4,chinese,m,4,0.4,-78.11848263,0.79798268
wxb_1058,74,1,2024-06-16T02:59:50.941Z,english_582.wav,0,1,9191,22,4,chinese,m,5,0.5,-34.20952238,0.6293022
wxb_1058,74,1,2024-06-16T02:59:50.941Z,english_582.wav,0,1,9191,22,4,chinese,m,6,0.6,-86.64412457,1.95773952
wxb_1058,74,1,2024-06-16T02:59:50.941Z,english_582.wav,0,1,9191,22,4,chinese,m,7,0.7,26.30632387,0.97092523
wxb_1058,74,1,2024-06-16T02:59:50.941Z,english_582.wav,0,1,9191,22,4,chinese,m,8,0.8,-34.45754989,1.38286632
wxb_1058,74,1,2024-06-16T02:59:50.941Z,english_582.wav,0,1,9191,22,4,chinese,m,9,0.9,-45.78416277,1.31952832
wxb_1058,74,1,2024-06-16T02:59:50.941Z,english_582.wav,0,1,9191,22,4,chinese,m,10,1,-16.65162857,1.84309931
wxb_1058,74,1,2024-06-16T02:59:50.941Z,english_582.wav,0,1,9191,22,4,chinese,m,11,1.09391667,7.21919156,1.34013439
wxb_1058,75,1,2024-06-16T02:59:50.941Z,english_725.wav,0,1,895,22,4,chinese,m,0,0,-9.03644008,1.33439085
wxb_1058,75,1,2024-06-16T02:59:50.941Z,english_725.wav,0,1,895,22,4,chinese,m,1,0.1,17.25768585,1.14250237
wxb_1058,75,1,2024-06-16T02:59:50.941Z,english_725.wav,0,1,895,22,4,chinese,m,2,0.2,31.80596944,1.31071592
wxb_1058,75,1,2024-06-16T02:59:50.941Z,english_725.wav,0,1,895,22,4,chinese,m,3,0.3,-37.53705258,0.64785465
wxb_1058,75,1,2024-06-16T02:59:50.941Z,english_725.wav,0,1,895,22,4,chinese,m,4,0.4,-72.83315878,1.42686134
wxb_1058,75,1,2024-06-16T02:59:50.941Z,english_725.wav,0,1,895,22,4,chinese,m,5,0.5,-86.89655244,1.9351134
wxb_1058,75,1,2024-06-16T02:59:50.941Z,english_725.wav,0,1,895,22,4,chinese,m,6,0.6,-41.36643193,0.6329639
wxb_1058,75,1,2024-06-16T02:59:50.941Z,english_725.wav,0,1,895,22,4,chinese,m,7,0.7,-24.29547068,1.12609379
wxb_1058,75,1,2024-06-16T02:59:50.941Z,english_725.wav,0,1,895,22,4,chinese,m,8,0.8,-10.26201034,0.4317144
wxb_1058,75,1,2024-06-16T02:59:50.941Z,english_725.wav,0,1,895,22,4,chinese,m,9,0.9,-84.73732243,0.11714111
wxb_1058,75,1,2024-06-16T02:59:50.941Z,english_725.wav,0,1,895,22,4,chinese,m,10,1,29.57592595,1.51572797
wxb_1058,75,1,2024-06-16T02:59:50.941Z,english_725.wav,0,1,895,22,4,chinese,m,11,1.09391667,-31.00210879,0.75437121
wxb_1058,76,1,2024-06-16T02:59:50.941Z,english_257.wav,0,1,1219,22,4,chinese,m,0,0,40.54895098,0.78978042
wxb_1058,76,1,2024-06-16T02:59:50.941Z,english_257.wav,0,1,1219,22,4,chinese,m,1,0.1,40.15801064,1.47705853
wxb_1058,76,1,2024-06-16T02:59:50.941Z,english_257.wav,0,1,1219,22,4,chinese,m,2,0.2,-24.20266722,0.45256837
wxb_1058,76,1,2024-06-16T02:59:50.941Z,english_257.wav,0,1,1219,22,4,chinese,m,3,0.3,-7.17661388,1.62604433
wxb_1058,76,1,2024-06-16T02:59:50.941Z,english_257.wav,0,1,1219,22,4,chinese,m,4,0.4,-28.64234321,1.35763463
wxb_1058,76,1,2024-06-16T02:59:50.941Z,english_257.wav,0,1,1219,22,4,chinese,m,5,0.5,21.61308764,0.40071863
wxb_1058,76,1,2024-06-16T02:59:50.941Z,english_257.wav,0,1,1219,22,4,chinese,m,6,0.6,53.78152607,1.66804391
wxb_1058,76,1,2024-06-16T02:59:50.941Z,english_257.wav,0,1,1219,22,4,chinese,m,7,0.7,7.01627137,0.9369016
wxb_1058,76,1,2024-06-16T02:59:50.941Z,english_257.wav,0,1,1219,22,4,chinese,m,8,0.8,35.40837973,1.28942555
wxb_1058,76,1,2024-06-16T02:59:50.941Z,english_257.wav,0,1,1219,22,4,chinese,m,9,0.9,-20.07672714,0.91090345
wxb_1058,76,1,2024-06-16T02:59:50.941Z,english_257.wav,0,1,1219,22,4,chinese,m,10,1,-5.14564183,1.13070963
wxb_1058,76,1,2024-06-16T02:59:50.941Z,english_257.wav,0,1,1219,22,4,chinese,m,11,1.09391667,-39.03797323,1.90359161
