subj,trial,block,date,stim,stim_order,response,rt,age,english,language,sex,param_index,segment,pitch,stretch
QMH,0,0,2024-06-14T15:32:36.649Z,english_541.wav,0,0,9666,20,3,Chinese,f,0,0,-82.81265179,1.86592143
QMH,0,0,2024-06-14T15:32:36.649Z,english_541.wav,0,0,9666,20,3,Chinese,f,1,0.1,18.23831049,0.0388768
QMH,0,0,2024-06-14T15:32:36.649Z,english_541.wav,0,0,9666,20,3,Chinese,f,2,0.2,-76.96396075,1.09878478
QMH,0,0,2024-06-14T15:32:36.649Z,english_541.wav,0,0,9666,20,3,Chinese,f,3,0.3,86.02032489,0.28431894
QMH,0,0,2024-06-14T15:32:36.649Z,english_541.wav,0,0,9666,20,3,Chinese,f,4,0.4,57.7574695,0.60530487
QMH,0,0,2024-06-14T15:32:36.649Z,english_541.wav,0,0,9666,20,3,Chinese,f,5,0.5,-18.45048615,0.68867988
QMH,0,0,2024-06-14T15:32:36.649Z,english_541.wav,0,0,9666,20,3,Chinese,f,6,0.6,-3.56295596,0.07188907
QMH,0,0,2024-06-14T15:32:36.649Z,english_541.wav,0,0,9666,20,3,Chinese,f,7,0.7,30.63851894,1.28694892
QMH,0,0,2024-06-14T15:32:36.649Z,english_541.wav,0,0,9666,20,3,Chinese,f,8,0.8,-39.32138092,0.37107191
QMH,0,0,2024-06-14T15:32:36.649Z,english_541.wav,0,0,9666,20,3,Chinese,f,9,0.9,87.82943792,0.0101762
QMH,0,0,2024-06-14T15:32:36.649Z,english_541.wav,0,0,9666,20,3,Chinese,f,10,1,-83.54766347,1.03448412
QMH,0,0,2024-06-14T15:32:36.649Z,english_541.wav,0,0,9666,20,3,Chinese,f,11,1.09391667,-65.29737413,1.0808851
QMH,1,0,2024-06-14T15:32:36.649Z,english_504.wav,0,0,12288,20,3,Chinese,f,0,0,-66.23189197,1.64024725
QMH,1,0,2024-06-14T15:32:36.649Z,english_504.wav,0,0,12288,20,3,Chinese,f,1,0.1,-7.28081394,1.33861833
QMH,1,0,2024-06-14T15:32:36.649Z,english_504.wav,0,0,12288,20,3,Chinese,f,2,0.2,-74.05426979,0.21996253
QMH,1,0,2024-06-14T15:32:36.649Z,english_504.wav,0,0,12288,20,3,Chinese,f,3,0.3,-2.17834407,0.9295354
QMH,1,0,2024-06-14T15:32:36.649Z,english_504.wav,0,0,12288,20,3,Chinese,f,4,0.4,-44.29553612,0.18867482
QMH,1,0,2024-06-14T15:32:36.649Z,english_504.wav,0,0,12288,20,3,Chinese,f,5,0.5,-21.93882769,0.17745141
QMH,1,0,2024-06-14T15:32:36.649Z,english_504.wav,0,0,12288,20,3,Chinese,f,6,0.6,-6.80381408,1.36415298
QMH,1,0,2024-06-14T15:32:36.649Z,english_504.wav,0,0,12288,20,3,Chinese,f,7,0.7,9.00050206,1.08571676
QMH,1,0,2024-06-14T15:32:36.649Z,english_504.wav,0,0,12288,20,3,Chinese,f,8,0.8,-19.58321875,1.38544941
QMH,1,0,2024-06-14T15:32:36.649Z,english_504.wav,0,0,12288,20,3,Chinese,f,9,0.9,-97.27632106,0.33380342
QMH,1,0,2024-06-14T15:32:36.649Z,english_504.wav,0,0,12288,20,3,Chinese,f,10,1,94.36582119,0.16971293
QMH,1,0,2024-06-14T15:32:36.649Z,english_504.wav,0,0,12288,20,3,Chinese,f,11,1.09391667,-77.55415354,0.89224977
QMH,2,0,2024-06-14T15:32:36.649Z,english_554.wav,0,1,3125,20,3,Chinese,f,0,0,68.06713434,1.26196428
QMH,2,0,2024-06-14T15:32:36.649Z,english_554.wav,0,1,3125,20,3,Chinese,f,1,0.1,51.53363243,1.49608983
QMH,2,0,2024-06-14T15:32:36.649Z,english_554.wav,0,1,3125,20,3,Chinese,f,2,0.2,96.79789275,1.01925431
QMH,2,0,2024-06-14T15:32:36.649Z,english_554.wav,0,1,3125,20,3,Chinese,f,3,0.3,-32.97805092,1.27259864
QMH,2,0,2024-06-14T15:32:36.649Z,english_554.wav,0,1,3125,20,3,Chinese,f,4,0.4,38.32175517,0.99325409
QMH,2,0,2024-06-14T15:32:36.649Z,english_554.wav,0,1,3125,20,3,Chinese,f,5,0.5,-48.79684279,1.83296218
QMH,2,0,2024-06-14T15:32:36.649Z,english_554.wav,0,1,3125,20,3,Chinese,f,6,0.6,6.57101052,1.99419824
QMH,2,0,2024-06-14T15:32:36.649Z,english_554.wav,0,1,3125,20,3,Chinese,f,7,0.7,30.34426539,1.31395906
QMH,2,0,2024-06-14T15:32:36.649Z,english_554.wav,0,1,3125,20,3,Chinese,f,8,0.8,57.10485473,1.83167901
QMH,2,0,2024-06-14T15:32:36.649Z,english_554.wav,0,1,3125,20,3,Chinese,f,9,0.9,-93.21826179,1.93422624
QMH,2,0,2024-06-14T15:32:36.649Z,english_554.wav,0,1,3125,20,3,Chinese,f,10,1,58.97430912,1.62256756
QMH,2,0,2024-06-14T15:32:36.649Z,english_554.wav,0,1,3125,20,3,Chinese,f,11,1.09391667,32.65345188,0.90589094
QMH,3,0,2024-06-14T15:32:36.649Z,english_998.wav,0,0,3223,20,3,Chinese,f,0,0,-83.67346728,1.27391906
QMH,3,0,2024-06-14T15:32:36.649Z,english_998.wav,0,0,3223,20,3,Chinese,f,1,0.1,-68.43297462,0.75913393
QMH,3,0,2024-06-14T15:32:36.649Z,english_998.wav,0,0,3223,20,3,Chinese,f,2,0.2,47.84560439,1.02363825
QMH,3,0,2024-06-14T15:32:36.649Z,english_998.wav,0,0,3223,20,3,Chinese,f,3,0.3,71.43971258,1.78775676
QMH,3,0,2024-06-14T15:32:36.649Z,english_998.wav,0,0,3223,20,3,Chinese,f,4,0.4,-30.40941836,0.0961221
QMH,3,0,2024-06-14T15:32:36.649Z,english_998.wav,0,0,3223,20,3,Chinese,f,5,0.5,69.31214212,1.18933693
QMH,3,0,2024-06-14T15:32:36.649Z,english_998.wav,0,0,3223,20,3,Chinese,f,6,0.6,-95.04564508,1.9379163
QMH,3,0,2024-06-14T15:32:36.649Z,english_998.wav,0,0,3223,20,3,Chinese,f,7,0.7,-61.88405175,1.91389769
QMH,3,0,2024-06-14T15:32:36.649Z,english_998.wav,0,0,3223,20,3,Chinese,f,8,0.8,11.43915949,1.08895614
QMH,3,0,2024-06-14T15:32:36.649Z,english_998.wav,0,0,3223,20,3,Chinese,f,9,0.9,79.6365109,1.52042952
QMH,3,0,2024-06-14T15:32:36.649Z,english_998.wav,0,0,3223,20,3,Chinese,f,10,1,58.29305302,0.38016323
QMH,3,0,2024-06-14T15:32:36.649Z,english_998.wav,0,0,3223,20,3,Chinese,f,11,1.09391667,44.0288717,1.77799574
QMH,4,0,2024-06-14T15:32:36.649Z,english_359.wav,0,0,1225,20,3,Chinese,f,0,0,16.62356483,0.11907426
QMH,4,0,2024-06-14T15:32:36.649Z,english_359.wav,0,0,1225,20,3,Chinese,f,1,0.1,-64.66657599,1.11022803
QMH,4,0,2024-06-14T15:32:36.649Z,english_359.wav,0,0,1225,20,3,Chinese,f,2,0.2,20.81574107,1.93552837
QMH,4,0,2024-06-14T15:32:36.649Z,english_359.wav,0,0,1225,20,3,Chinese,f,3,0.3,62.21324861,0.18628365
QMH,4,0,2024-06-14T15:32:36.649Z,english_359.wav,0,0,1225,20,3,Chinese,f,4,0.4,-96.92379856,1.68045213
QMH,4,0,2024-06-14T15:32:36.649Z,english_359.wav,0,0,1225,20,3,Chinese,f,5,0.5,-63.09314604,0.56124054
QMH,4,0,2024-06-14T15:32:36.649Z,english_359.wav,0,0,1225,20,3,Chinese,f,6,0.6,85.3804948,1.40840471
QMH,4,0,2024-06-14T15:32:36.649Z,english_359.wav,0,0,1225,20,3,Chinese,f,7,0.7,-5.84073458,0.76045624
QMH,4,0,2024-06-14T15:32:36.649Z,english_359.wav,0,0,1225,20,3,Chinese,f,8,0.8,1.07766227,0.79738911
QMH,4,0,2024-06-14T15:32:36.649Z,english_359.wav,0,0,1225,20,3,Chinese,f,9,0.9,-3.48391837,0.78873787
QMH,4,0,2024-06-14T15:32:36.649Z,english_359.wav,0,0,1225,20,3,Chinese,f,10,1,5.39755614,0.96854707
QMH,4,0,2024-06-14T15:32:36.649Z,english_359.wav,0,0,1225,20,3,Chinese,f,11,1.09391667,59.72301587,0.15927381
QMH,5,0,2024-06-14T15:32:36.649Z,english_743.wav,0,0,2371,20,3,Chinese,f,0,0,97.77122609,0.40936323
QMH,5,0,2024-06-14T15:32:36.649Z,english_743.wav,0,0,2371,20,3,Chinese,f,1,0.1,75.39760322,0.83333714
QMH,5,0,2024-06-14T15:32:36.649Z,english_743.wav,0,0,2371,20,3,Chinese,f,2,0.2,-92.56300928,1.9299588
QMH,5,0,2024-06-14T15:32:36.649Z,english_743.wav,0,0,2371,20,3,Chinese,f,3,0.3,73.60734954,0.31044819
QMH,5,0,2024-06-14T15:32:36.649Z,english_743.wav,0,0,2371,20,3,Chinese,f,4,0.4,84.82420222,1.11112706
QMH,5,0,2024-06-14T15:32:36.649Z,english_743.wav,0,0,2371,20,3,Chinese,f,5,0.5,-57.35733587,0.30641345
QMH,5,0,2024-06-14T15:32:36.649Z,english_743.wav,0,0,2371,20,3,Chinese,f,6,0.6,36.05799571,1.79191215
QMH,5,0,2024-06-14T15:32:36.649Z,english_743.wav,0,0,2371,20,3,Chinese,f,7,0.7,-80.10781894,1.43353199
QMH,5,0,2024-06-14T15:32:36.649Z,english_743.wav,0,0,2371,20,3,Chinese,f,8,0.8,79.81818761,0.61341243
QMH,5,0,2024-06-14T15:32:36.649Z,english_743.wav,0,0,2371,20,3,Chinese,f,9,0.9,71.53815245,1.6920607
QMH,5,0,2024-06-14T15:32:36.649Z,english_743.wav,0,0,2371,20,3,Chinese,f,10,1,39.3075371,0.85862509
QMH,5,0,2024-06-14T15:32:36.649Z,english_743.wav,0,0,2371,20,3,Chinese,f,11,1.09391667,85.61049635,0.78833379
QMH,6,0,2024-06-14T15:32:36.649Z,english_173.wav,0,0,1502,20,3,Chinese,f,0,0,34.32682043,0.82312646
QMH,6,0,2024-06-14T15:32:36.649Z,english_173.wav,0,0,1502,20,3,Chinese,f,1,0.1,-35.22347769,0.84965345
QMH,6,0,2024-06-14T15:32:36.649Z,english_173.wav,0,0,1502,20,3,Chinese,f,2,0.2,15.69043139,0.84607348
QMH,6,0,2024-06-14T15:32:36.649Z,english_173.wav,0,0,1502,20,3,Chinese,f,3,0.3,-71.83777825,0.55995079
QMH,6,0,2024-06-14T15:32:36.649Z,english_173.wav,0,0,1502,20,3,Chinese,f,4,0.4,-96.81426106,0.51635348
QMH,6,0,2024-06-14T15:32:36.649Z,english_173.wav,0,0,1502,20,3,Chinese,f,5,0.5,-51.15803827,1.6072313
QMH,6,0,2024-06-14T15:32:36.649Z,english_173.wav,0,0,1502,20,3,Chinese,f,6,0.6,-12.70248505,1.25349503
QMH,6,0,2024-06-14T15:32:36.649Z,english_173.wav,0,0,1502,20,3,Chinese,f,7,0.7,-30.75730157,1.4731344
QMH,6,0,2024-06-14T15:32:36.649Z,english_173.wav,0,0,1502,20,3,Chinese,f,8,0.8,-5.0022938,0.28621328
QMH,6,0,2024-06-14T15:32:36.649Z,english_173.wav,0,0,1502,20,3,Chinese,f,9,0.9,41.07030003,0.95942448
QMH,6,0,2024-06-14T15:32:36.649Z,english_173.wav,0,0,1502,20,3,Chinese,f,10,1,-5.319412,0.2847469
QMH,6,0,2024-06-14T15:32:36.649Z,english_173.wav,0,0,1502,20,3,Chinese,f,11,1.09391667,43.01251996,0.4938404
QMH,7,0,2024-06-14T15:32:36.649Z,english_579.wav,0,1,983,20,3,Chinese,f,0,0,-6.35392527,1.17195822
QMH,7,0,2024-06-14T15:32:36.649Z,english_579.wav,0,1,983,20,3,Chinese,f,1,0.1,5.78092652,1.67817047
QMH,7,0,2024-06-14T15:32:36.649Z,english_579.wav,0,1,983,20,3,Chinese,f,2,0.2,55.74149698,0.96512057
QMH,7,0,2024-06-14T15:32:36.649Z,english_579.wav,0,1,983,20,3,Chinese,f,3,0.3,64.66054606,0.73760998
QMH,7,0,2024-06-14T15:32:36.649Z,english_579.wav,0,1,983,20,3,Chinese,f,4,0.4,-20.37343055,0.24043414
QMH,7,0,2024-06-14T15:32:36.649Z,english_579.wav,0,1,983,20,3,Chinese,f,5,0.5,97.55604333,0.0297902
QMH,7,0,2024-06-14T15:32:36.649Z,english_579.wav,0,1,983,20,3,Chinese,f,6,0.6,-7.40313463,0.83835869
QMH,7,0,2024-06-14T15:32:36.649Z,english_579.wav,0,1,983,20,3,Chinese,f,7,0.7,-9.7199121,0.36547932
QMH,7,0,2024-06-14T15:32:36.649Z,english_579.wav,0,1,983,20,3,Chinese,f,8,0.8,-43.88557754,1.0786992
QMH,7,0,2024-06-14T15:32:36.649Z,english_579.wav,0,1,983,20,3,Chinese,f,9,0.9,89.28129007,1.76340712
QMH,7,0,2024-06-14T15:32:36.649Z,english_579.wav,0,1,983,20,3,Chinese,f,10,1,21.49927336,0.94339598
QMH,7,0,2024-06-14T15:32:36.649Z,english_579.wav,0,1,983,20,3,Chinese,f,11,1.09391667,85.53999973,1.1220246
QMH,8,0,2024-06-14T15:32:36.649Z,english_329.wav,0,0,1076,20,3,Chinese,f,0,0,-73.5267518,0.87153309
QMH,8,0,2024-06-14T15:32:36.649Z,english_329.wav,0,0,1076,20,3,Chinese,f,1,0.1,26.40936661,1.24873758
QMH,8,0,2024-06-14T15:32:36.649Z,english_329.wav,0,0,1076,20,3,Chinese,f,2,0.2,95.94954551,0.87594124
QMH,8,0,2024-06-14T15:32:36.649Z,english_329.wav,0,0,1076,20,3,Chinese,f,3,0.3,-92.18268605,0.88012103
QMH,8,0,2024-06-14T15:32:36.649Z,english_329.wav,0,0,1076,20,3,Chinese,f,4,0.4,-98.10910069,1.62824367
QMH,8,0,2024-06-14T15:32:36.649Z,english_329.wav,0,0,1076,20,3,Chinese,f,5,0.5,-61.34103681,1.41725229
QMH,8,0,2024-06-14T15:32:36.649Z,english_329.wav,0,0,1076,20,3,Chinese,f,6,0.6,34.88723994,1.27607992
QMH,8,0,2024-06-14T15:32:36.649Z,english_329.wav,0,0,1076,20,3,Chinese,f,7,0.7,66.83835425,0.30685243
QMH,8,0,2024-06-14T15:32:36.649Z,english_329.wav,0,0,1076,20,3,Chinese,f,8,0.8,-67.43059972,0.43279956
QMH,8,0,2024-06-14T15:32:36.649Z,english_329.wav,0,0,1076,20,3,Chinese,f,9,0.9,51.12526405,0.74557381
QMH,8,0,2024-06-14T15:32:36.649Z,english_329.wav,0,0,1076,20,3,Chinese,f,10,1,-25.5134348,0.84179224
QMH,8,0,2024-06-14T15:32:36.649Z,english_329.wav,0,0,1076,20,3,Chinese,f,11,1.09391667,-82.24978729,0.84260005
QMH,9,0,2024-06-14T15:32:36.649Z,english_770.wav,0,0,1271,20,3,Chinese,f,0,0,91.12421142,0.39537222
QMH,9,0,2024-06-14T15:32:36.649Z,english_770.wav,0,0,1271,20,3,Chinese,f,1,0.1,-19.58540638,0.64754321
QMH,9,0,2024-06-14T15:32:36.649Z,english_770.wav,0,0,1271,20,3,Chinese,f,2,0.2,-79.28932671,1.33811004
QMH,9,0,2024-06-14T15:32:36.649Z,english_770.wav,0,0,1271,20,3,Chinese,f,3,0.3,84.41656944,0.79999887
QMH,9,0,2024-06-14T15:32:36.649Z,english_770.wav,0,0,1271,20,3,Chinese,f,4,0.4,-7.14437585,0.34341238
QMH,9,0,2024-06-14T15:32:36.649Z,english_770.wav,0,0,1271,20,3,Chinese,f,5,0.5,-65.427815,0.89137249
QMH,9,0,2024-06-14T15:32:36.649Z,english_770.wav,0,0,1271,20,3,Chinese,f,6,0.6,24.29112002,1.67993341
QMH,9,0,2024-06-14T15:32:36.649Z,english_770.wav,0,0,1271,20,3,Chinese,f,7,0.7,-96.64014953,1.65600172
QMH,9,0,2024-06-14T15:32:36.649Z,english_770.wav,0,0,1271,20,3,Chinese,f,8,0.8,-19.88619379,0.2664894
QMH,9,0,2024-06-14T15:32:36.649Z,english_770.wav,0,0,1271,20,3,Chinese,f,9,0.9,6.75538061,1.80740877
QMH,9,0,2024-06-14T15:32:36.649Z,english_770.wav,0,0,1271,20,3,Chinese,f,10,1,-9.4599271,0.27817675
QMH,9,0,2024-06-14T15:32:36.649Z,english_770.wav,0,0,1271,20,3,Chinese,f,11,1.09391667,37.64052975,0.07045036
QMH,10,0,2024-06-14T15:32:36.649Z,english_182.wav,0,0,922,20,3,Chinese,f,0,0,-33.72839549,0.64170462
QMH,10,0,2024-06-14T15:32:36.649Z,english_182.wav,0,0,922,20,3,Chinese,f,1,0.1,71.95583488,0.46910546
QMH,10,0,2024-06-14T15:32:36.649Z,english_182.wav,0,0,922,20,3,Chinese,f,2,0.2,93.77497833,1.36329359
QMH,10,0,2024-06-14T15:32:36.649Z,english_182.wav,0,0,922,20,3,Chinese,f,3,0.3,-96.3431589,1.23106937
QMH,10,0,2024-06-14T15:32:36.649Z,english_182.wav,0,0,922,20,3,Chinese,f,4,0.4,-58.26438495,1.40247691
QMH,10,0,2024-06-14T15:32:36.649Z,english_182.wav,0,0,922,20,3,Chinese,f,5,0.5,40.50395066,0.60520266
QMH,10,0,2024-06-14T15:32:36.649Z,english_182.wav,0,0,922,20,3,Chinese,f,6,0.6,-57.53982371,0.0944441
QMH,10,0,2024-06-14T15:32:36.649Z,english_182.wav,0,0,922,20,3,Chinese,f,7,0.7,19.26336492,0.39825095
QMH,10,0,2024-06-14T15:32:36.649Z,english_182.wav,0,0,922,20,3,Chinese,f,8,0.8,53.61678759,0.94728121
QMH,10,0,2024-06-14T15:32:36.649Z,english_182.wav,0,0,922,20,3,Chinese,f,9,0.9,33.80250156,0.19803834
QMH,10,0,2024-06-14T15:32:36.649Z,english_182.wav,0,0,922,20,3,Chinese,f,10,1,47.27321227,1.21672532
QMH,10,0,2024-06-14T15:32:36.649Z,english_182.wav,0,0,922,20,3,Chinese,f,11,1.09391667,72.04949346,0.20681806
QMH,11,0,2024-06-14T15:32:36.649Z,english_89.wav,0,1,554,20,3,Chinese,f,0,0,44.55560521,0.83141016
QMH,11,0,2024-06-14T15:32:36.649Z,english_89.wav,0,1,554,20,3,Chinese,f,1,0.1,-38.12575075,0.73728779
QMH,11,0,2024-06-14T15:32:36.649Z,english_89.wav,0,1,554,20,3,Chinese,f,2,0.2,-85.08741113,0.76468972
QMH,11,0,2024-06-14T15:32:36.649Z,english_89.wav,0,1,554,20,3,Chinese,f,3,0.3,-34.51149373,1.40220205
QMH,11,0,2024-06-14T15:32:36.649Z,english_89.wav,0,1,554,20,3,Chinese,f,4,0.4,91.4200198,1.40801955
QMH,11,0,2024-06-14T15:32:36.649Z,english_89.wav,0,1,554,20,3,Chinese,f,5,0.5,-88.24762839,0.24508348
QMH,11,0,2024-06-14T15:32:36.649Z,english_89.wav,0,1,554,20,3,Chinese,f,6,0.6,-12.15976794,0.73331541
QMH,11,0,2024-06-14T15:32:36.649Z,english_89.wav,0,1,554,20,3,Chinese,f,7,0.7,8.11504905,1.14258486
QMH,11,0,2024-06-14T15:32:36.649Z,english_89.wav,0,1,554,20,3,Chinese,f,8,0.8,48.7516223,0.28719695
QMH,11,0,2024-06-14T15:32:36.649Z,english_89.wav,0,1,554,20,3,Chinese,f,9,0.9,-61.89417078,1.82425172
QMH,11,0,2024-06-14T15:32:36.649Z,english_89.wav,0,1,554,20,3,Chinese,f,10,1,70.08039029,1.66848997
QMH,11,0,2024-06-14T15:32:36.649Z,english_89.wav,0,1,554,20,3,Chinese,f,11,1.09391667,73.1109171,1.25647122
QMH,12,0,2024-06-14T15:32:36.649Z,english_260.wav,0,0,1865,20,3,Chinese,f,0,0,15.97763116,1.94177241
QMH,12,0,2024-06-14T15:32:36.649Z,english_260.wav,0,0,1865,20,3,Chinese,f,1,0.1,-13.3847134,0.74015027
QMH,12,0,2024-06-14T15:32:36.649Z,english_260.wav,0,0,1865,20,3,Chinese,f,2,0.2,-29.63675022,0.26772348
QMH,12,0,2024-06-14T15:32:36.649Z,english_260.wav,0,0,1865,20,3,Chinese,f,3,0.3,-94.12252117,0.24482628
QMH,12,0,2024-06-14T15:32:36.649Z,english_260.wav,0,0,1865,20,3,Chinese,f,4,0.4,37.44404644,0.73676391
QMH,12,0,2024-06-14T15:32:36.649Z,english_260.wav,0,0,1865,20,3,Chinese,f,5,0.5,-13.47562993,0.3869803
QMH,12,0,2024-06-14T15:32:36.649Z,english_260.wav,0,0,1865,20,3,Chinese,f,6,0.6,28.72077468,0.62582606
QMH,12,0,2024-06-14T15:32:36.649Z,english_260.wav,0,0,1865,20,3,Chinese,f,7,0.7,-25.31213713,0.50244213
QMH,12,0,2024-06-14T15:32:36.649Z,english_260.wav,0,0,1865,20,3,Chinese,f,8,0.8,12.33791488,0.1260874
QMH,12,0,2024-06-14T15:32:36.649Z,english_260.wav,0,0,1865,20,3,Chinese,f,9,0.9,1.56732473,0.8031848
QMH,12,0,2024-06-14T15:32:36.649Z,english_260.wav,0,0,1865,20,3,Chinese,f,10,1,-29.87361041,1.5387452
QMH,12,0,2024-06-14T15:32:36.649Z,english_260.wav,0,0,1865,20,3,Chinese,f,11,1.09391667,9.56042619,0.69389389
QMH,13,0,2024-06-14T15:32:36.649Z,english_367.wav,0,1,574,20,3,Chinese,f,0,0,40.69288354,1.09000391
QMH,13,0,2024-06-14T15:32:36.649Z,english_367.wav,0,1,574,20,3,Chinese,f,1,0.1,-87.28554983,0.74880644
QMH,13,0,2024-06-14T15:32:36.649Z,english_367.wav,0,1,574,20,3,Chinese,f,2,0.2,-64.50130746,0.58255578
QMH,13,0,2024-06-14T15:32:36.649Z,english_367.wav,0,1,574,20,3,Chinese,f,3,0.3,65.0554957,0.66468618
QMH,13,0,2024-06-14T15:32:36.649Z,english_367.wav,0,1,574,20,3,Chinese,f,4,0.4,-34.90387066,1.54627645
QMH,13,0,2024-06-14T15:32:36.649Z,english_367.wav,0,1,574,20,3,Chinese,f,5,0.5,29.56597753,0.56660027
QMH,13,0,2024-06-14T15:32:36.649Z,english_367.wav,0,1,574,20,3,Chinese,f,6,0.6,36.50215848,0.69792946
QMH,13,0,2024-06-14T15:32:36.649Z,english_367.wav,0,1,574,20,3,Chinese,f,7,0.7,-55.69798386,1.00541299
QMH,13,0,2024-06-14T15:32:36.649Z,english_367.wav,0,1,574,20,3,Chinese,f,8,0.8,12.84757482,0.65534854
QMH,13,0,2024-06-14T15:32:36.649Z,english_367.wav,0,1,574,20,3,Chinese,f,9,0.9,-23.54866279,1.89531092
QMH,13,0,2024-06-14T15:32:36.649Z,english_367.wav,0,1,574,20,3,Chinese,f,10,1,-55.73647309,0.87598705
QMH,13,0,2024-06-14T15:32:36.649Z,english_367.wav,0,1,574,20,3,Chinese,f,11,1.09391667,79.84600893,1.75535151
QMH,14,0,2024-06-14T15:32:36.649Z,english_13.wav,0,1,1030,20,3,Chinese,f,0,0,64.38962342,1.00112645
QMH,14,0,2024-06-14T15:32:36.649Z,english_13.wav,0,1,1030,20,3,Chinese,f,1,0.1,-51.8551163,1.06925212
QMH,14,0,2024-06-14T15:32:36.649Z,english_13.wav,0,1,1030,20,3,Chinese,f,2,0.2,-2.17663011,1.94512736
QMH,14,0,2024-06-14T15:32:36.649Z,english_13.wav,0,1,1030,20,3,Chinese,f,3,0.3,58.1527086,1.38458927
QMH,14,0,2024-06-14T15:32:36.649Z,english_13.wav,0,1,1030,20,3,Chinese,f,4,0.4,-46.96650895,1.28889459
QMH,14,0,2024-06-14T15:32:36.649Z,english_13.wav,0,1,1030,20,3,Chinese,f,5,0.5,-16.57361125,1.54024857
QMH,14,0,2024-06-14T15:32:36.649Z,english_13.wav,0,1,1030,20,3,Chinese,f,6,0.6,75.93348377,1.09201657
QMH,14,0,2024-06-14T15:32:36.649Z,english_13.wav,0,1,1030,20,3,Chinese,f,7,0.7,19.1912547,0.41927036
QMH,14,0,2024-06-14T15:32:36.649Z,english_13.wav,0,1,1030,20,3,Chinese,f,8,0.8,-13.17481254,0.35094068
QMH,14,0,2024-06-14T15:32:36.649Z,english_13.wav,0,1,1030,20,3,Chinese,f,9,0.9,82.06501342,1.95646908
QMH,14,0,2024-06-14T15:32:36.649Z,english_13.wav,0,1,1030,20,3,Chinese,f,10,1,98.060651,0.64409889
QMH,14,0,2024-06-14T15:32:36.649Z,english_13.wav,0,1,1030,20,3,Chinese,f,11,1.09391667,-65.93265282,0.45282126
QMH,15,0,2024-06-14T15:32:36.649Z,english_930.wav,0,0,9590,20,3,Chinese,f,0,0,19.45977217,0.84483281
QMH,15,0,2024-06-14T15:32:36.649Z,english_930.wav,0,0,9590,20,3,Chinese,f,1,0.1,-80.07863209,1.28415243
QMH,15,0,2024-06-14T15:32:36.649Z,english_930.wav,0,0,9590,20,3,Chinese,f,2,0.2,45.52554026,0.42013726
QMH,15,0,2024-06-14T15:32:36.649Z,english_930.wav,0,0,9590,20,3,Chinese,f,3,0.3,15.52716044,0.73216184
QMH,15,0,2024-06-14T15:32:36.649Z,english_930.wav,0,0,9590,20,3,Chinese,f,4,0.4,-83.05812581,0.68838287
QMH,15,0,2024-06-14T15:32:36.649Z,english_930.wav,0,0,9590,20,3,Chinese,f,5,0.5,-71.84540183,1.12855875
QMH,15,0,2024-06-14T15:32:36.649Z,english_930.wav,0,0,9590,20,3,Chinese,f,6,0.6,-43.21972941,1.19871165
QMH,15,0,2024-06-14T15:32:36.649Z,english_930.wav,0,0,9590,20,3,Chinese,f,7,0.7,24.79128716,1.34030412
QMH,15,0,2024-06-14T15:32:36.649Z,english_930.wav,0,0,9590,20,3,Chinese,f,8,0.8,-16.02759849,0.99943393
QMH,15,0,2024-06-14T15:32:36.649Z,english_930.wav,0,0,9590,20,3,Chinese,f,9,0.9,5.32070927,1.01667004
QMH,15,0,2024-06-14T15:32:36.649Z,english_930.wav,0,0,9590,20,3,Chinese,f,10,1,41.16408732,1.52152501
QMH,15,0,2024-06-14T15:32:36.649Z,english_930.wav,0,0,9590,20,3,Chinese,f,11,1.09391667,45.49028899,0.12802686
QMH,16,0,2024-06-14T15:32:36.649Z,english_626.wav,0,1,665,20,3,Chinese,f,0,0,-0.56370029,1.601019
QMH,16,0,2024-06-14T15:32:36.649Z,english_626.wav,0,1,665,20,3,Chinese,f,1,0.1,-99.91896683,1.02479774
QMH,16,0,2024-06-14T15:32:36.649Z,english_626.wav,0,1,665,20,3,Chinese,f,2,0.2,71.91666298,1.56428022
QMH,16,0,2024-06-14T15:32:36.649Z,english_626.wav,0,1,665,20,3,Chinese,f,3,0.3,5.93440056,1.41456241
QMH,16,0,2024-06-14T15:32:36.649Z,english_626.wav,0,1,665,20,3,Chinese,f,4,0.4,30.6659702,1.90457562
QMH,16,0,2024-06-14T15:32:36.649Z,english_626.wav,0,1,665,20,3,Chinese,f,5,0.5,50.2345252,1.04545234
QMH,16,0,2024-06-14T15:32:36.649Z,english_626.wav,0,1,665,20,3,Chinese,f,6,0.6,26.80081253,1.05575336
QMH,16,0,2024-06-14T15:32:36.649Z,english_626.wav,0,1,665,20,3,Chinese,f,7,0.7,57.01154581,1.40636518
QMH,16,0,2024-06-14T15:32:36.649Z,english_626.wav,0,1,665,20,3,Chinese,f,8,0.8,-79.56021694,1.56161819
QMH,16,0,2024-06-14T15:32:36.649Z,english_626.wav,0,1,665,20,3,Chinese,f,9,0.9,19.7734095,0.61190755
QMH,16,0,2024-06-14T15:32:36.649Z,english_626.wav,0,1,665,20,3,Chinese,f,10,1,24.01737707,0.77515613
QMH,16,0,2024-06-14T15:32:36.649Z,english_626.wav,0,1,665,20,3,Chinese,f,11,1.09391667,-71.48633622,1.93548934
QMH,17,0,2024-06-14T15:32:36.649Z,english_93.wav,0,0,468,20,3,Chinese,f,0,0,-5.64044051,0.93985767
QMH,17,0,2024-06-14T15:32:36.649Z,english_93.wav,0,0,468,20,3,Chinese,f,1,0.1,-71.62427253,1.9578989
QMH,17,0,2024-06-14T15:32:36.649Z,english_93.wav,0,0,468,20,3,Chinese,f,2,0.2,44.8568839,1.04309205
QMH,17,0,2024-06-14T15:32:36.649Z,english_93.wav,0,0,468,20,3,Chinese,f,3,0.3,13.73699883,1.22075438
QMH,17,0,2024-06-14T15:32:36.649Z,english_93.wav,0,0,468,20,3,Chinese,f,4,0.4,-9.51130818,1.24468343
QMH,17,0,2024-06-14T15:32:36.649Z,english_93.wav,0,0,468,20,3,Chinese,f,5,0.5,25.73719345,1.1802762
QMH,17,0,2024-06-14T15:32:36.649Z,english_93.wav,0,0,468,20,3,Chinese,f,6,0.6,-9.54816374,1.78615262
QMH,17,0,2024-06-14T15:32:36.649Z,english_93.wav,0,0,468,20,3,Chinese,f,7,0.7,-99.85495199,1.82361192
QMH,17,0,2024-06-14T15:32:36.649Z,english_93.wav,0,0,468,20,3,Chinese,f,8,0.8,26.311999,0.83873706
QMH,17,0,2024-06-14T15:32:36.649Z,english_93.wav,0,0,468,20,3,Chinese,f,9,0.9,37.40170351,1.41980792
QMH,17,0,2024-06-14T15:32:36.649Z,english_93.wav,0,0,468,20,3,Chinese,f,10,1,-54.32300287,0.16266534
QMH,17,0,2024-06-14T15:32:36.649Z,english_93.wav,0,0,468,20,3,Chinese,f,11,1.09391667,-13.38941708,1.86742119
QMH,18,0,2024-06-14T15:32:36.649Z,english_879.wav,0,0,1646,20,3,Chinese,f,0,0,-41.71376067,1.10654485
QMH,18,0,2024-06-14T15:32:36.649Z,english_879.wav,0,0,1646,20,3,Chinese,f,1,0.1,5.81272632,1.32832236
QMH,18,0,2024-06-14T15:32:36.649Z,english_879.wav,0,0,1646,20,3,Chinese,f,2,0.2,-22.32054487,1.5555922
QMH,18,0,2024-06-14T15:32:36.649Z,english_879.wav,0,0,1646,20,3,Chinese,f,3,0.3,93.64091385,0.11041486
QMH,18,0,2024-06-14T15:32:36.649Z,english_879.wav,0,0,1646,20,3,Chinese,f,4,0.4,-40.92402167,1.31993608
QMH,18,0,2024-06-14T15:32:36.649Z,english_879.wav,0,0,1646,20,3,Chinese,f,5,0.5,13.45427288,1.7629303
QMH,18,0,2024-06-14T15:32:36.649Z,english_879.wav,0,0,1646,20,3,Chinese,f,6,0.6,-86.15210755,1.83129602
QMH,18,0,2024-06-14T15:32:36.649Z,english_879.wav,0,0,1646,20,3,Chinese,f,7,0.7,-20.9667874,1.42589619
QMH,18,0,2024-06-14T15:32:36.649Z,english_879.wav,0,0,1646,20,3,Chinese,f,8,0.8,-18.58842444,0.74351112
QMH,18,0,2024-06-14T15:32:36.649Z,english_879.wav,0,0,1646,20,3,Chinese,f,9,0.9,-72.1364449,0.32763887
QMH,18,0,2024-06-14T15:32:36.649Z,english_879.wav,0,0,1646,20,3,Chinese,f,10,1,-83.06025628,1.7749803
QMH,18,0,2024-06-14T15:32:36.649Z,english_879.wav,0,0,1646,20,3,Chinese,f,11,1.09391667,76.41221389,1.6164567
QMH,19,0,2024-06-14T15:32:36.649Z,english_39.wav,0,1,610,20,3,Chinese,f,0,0,34.55093166,1.34796705
QMH,19,0,2024-06-14T15:32:36.649Z,english_39.wav,0,1,610,20,3,Chinese,f,1,0.1,-1.41260387,0.08491471
QMH,19,0,2024-06-14T15:32:36.649Z,english_39.wav,0,1,610,20,3,Chinese,f,2,0.2,91.9059208,1.67265438
QMH,19,0,2024-06-14T15:32:36.649Z,english_39.wav,0,1,610,20,3,Chinese,f,3,0.3,67.91256725,0.89650698
QMH,19,0,2024-06-14T15:32:36.649Z,english_39.wav,0,1,610,20,3,Chinese,f,4,0.4,-65.38565065,0.64014049
QMH,19,0,2024-06-14T15:32:36.649Z,english_39.wav,0,1,610,20,3,Chinese,f,5,0.5,-78.2257863,1.50034896
QMH,19,0,2024-06-14T15:32:36.649Z,english_39.wav,0,1,610,20,3,Chinese,f,6,0.6,-21.37966567,0.90896714
QMH,19,0,2024-06-14T15:32:36.649Z,english_39.wav,0,1,610,20,3,Chinese,f,7,0.7,29.85741907,1.5349886
QMH,19,0,2024-06-14T15:32:36.649Z,english_39.wav,0,1,610,20,3,Chinese,f,8,0.8,-64.93181205,0.91983464
QMH,19,0,2024-06-14T15:32:36.649Z,english_39.wav,0,1,610,20,3,Chinese,f,9,0.9,27.95057541,1.17583732
QMH,19,0,2024-06-14T15:32:36.649Z,english_39.wav,0,1,610,20,3,Chinese,f,10,1,5.43341778,1.89111311
QMH,19,0,2024-06-14T15:32:36.649Z,english_39.wav,0,1,610,20,3,Chinese,f,11,1.09391667,-89.64672073,1.19651243
QMH,20,0,2024-06-14T15:32:36.649Z,english_530.wav,0,0,920,20,3,Chinese,f,0,0,-28.7119875,1.05000618
QMH,20,0,2024-06-14T15:32:36.649Z,english_530.wav,0,0,920,20,3,Chinese,f,1,0.1,81.63061579,1.8823678
QMH,20,0,2024-06-14T15:32:36.649Z,english_530.wav,0,0,920,20,3,Chinese,f,2,0.2,-13.39591128,0.84340221
QMH,20,0,2024-06-14T15:32:36.649Z,english_530.wav,0,0,920,20,3,Chinese,f,3,0.3,13.92143377,0.28078116
QMH,20,0,2024-06-14T15:32:36.649Z,english_530.wav,0,0,920,20,3,Chinese,f,4,0.4,40.01462212,0.79575784
QMH,20,0,2024-06-14T15:32:36.649Z,english_530.wav,0,0,920,20,3,Chinese,f,5,0.5,23.69444491,1.14952556
QMH,20,0,2024-06-14T15:32:36.649Z,english_530.wav,0,0,920,20,3,Chinese,f,6,0.6,46.64828823,1.01103968
QMH,20,0,2024-06-14T15:32:36.649Z,english_530.wav,0,0,920,20,3,Chinese,f,7,0.7,26.92480587,1.41983577
QMH,20,0,2024-06-14T15:32:36.649Z,english_530.wav,0,0,920,20,3,Chinese,f,8,0.8,14.68160338,0.81631883
QMH,20,0,2024-06-14T15:32:36.649Z,english_530.wav,0,0,920,20,3,Chinese,f,9,0.9,49.42082928,0.77345056
QMH,20,0,2024-06-14T15:32:36.649Z,english_530.wav,0,0,920,20,3,Chinese,f,10,1,-24.27885184,1.60646934
QMH,20,0,2024-06-14T15:32:36.649Z,english_530.wav,0,0,920,20,3,Chinese,f,11,1.09391667,68.97066726,0.9871725
QMH,21,0,2024-06-14T15:32:36.649Z,english_172.wav,0,0,931,20,3,Chinese,f,0,0,-67.89328127,0.87390127
QMH,21,0,2024-06-14T15:32:36.649Z,english_172.wav,0,0,931,20,3,Chinese,f,1,0.1,-98.24711177,0.45073311
QMH,21,0,2024-06-14T15:32:36.649Z,english_172.wav,0,0,931,20,3,Chinese,f,2,0.2,49.39394348,1.74616009
QMH,21,0,2024-06-14T15:32:36.649Z,english_172.wav,0,0,931,20,3,Chinese,f,3,0.3,76.5993294,0.92964788
QMH,21,0,2024-06-14T15:32:36.649Z,english_172.wav,0,0,931,20,3,Chinese,f,4,0.4,-22.3707882,0.40511794
QMH,21,0,2024-06-14T15:32:36.649Z,english_172.wav,0,0,931,20,3,Chinese,f,5,0.5,-81.77647202,1.07981793
QMH,21,0,2024-06-14T15:32:36.649Z,english_172.wav,0,0,931,20,3,Chinese,f,6,0.6,14.32482273,0.29673002
QMH,21,0,2024-06-14T15:32:36.649Z,english_172.wav,0,0,931,20,3,Chinese,f,7,0.7,-55.4844165,1.5346781
QMH,21,0,2024-06-14T15:32:36.649Z,english_172.wav,0,0,931,20,3,Chinese,f,8,0.8,3.0799131,0.29263687
QMH,21,0,2024-06-14T15:32:36.649Z,english_172.wav,0,0,931,20,3,Chinese,f,9,0.9,-69.51196042,0.8048794
QMH,21,0,2024-06-14T15:32:36.649Z,english_172.wav,0,0,931,20,3,Chinese,f,10,1,75.4726198,0.86167059
QMH,21,0,2024-06-14T15:32:36.649Z,english_172.wav,0,0,931,20,3,Chinese,f,11,1.09391667,0.51193247,0.22289692
QMH,22,0,2024-06-14T15:32:36.649Z,english_964.wav,0,0,2357,20,3,Chinese,f,0,0,53.46570898,1.49731262
QMH,22,0,2024-06-14T15:32:36.649Z,english_964.wav,0,0,2357,20,3,Chinese,f,1,0.1,-29.34116619,1.91326808
QMH,22,0,2024-06-14T15:32:36.649Z,english_964.wav,0,0,2357,20,3,Chinese,f,2,0.2,54.99768825,0.76008105
QMH,22,0,2024-06-14T15:32:36.649Z,english_964.wav,0,0,2357,20,3,Chinese,f,3,0.3,-81.76915679,1.84891579
QMH,22,0,2024-06-14T15:32:36.649Z,english_964.wav,0,0,2357,20,3,Chinese,f,4,0.4,-62.14603757,0.58371441
QMH,22,0,2024-06-14T15:32:36.649Z,english_964.wav,0,0,2357,20,3,Chinese,f,5,0.5,-51.83468115,0.22320605
QMH,22,0,2024-06-14T15:32:36.649Z,english_964.wav,0,0,2357,20,3,Chinese,f,6,0.6,22.82176289,0.86228006
QMH,22,0,2024-06-14T15:32:36.649Z,english_964.wav,0,0,2357,20,3,Chinese,f,7,0.7,43.03362668,1.2736027
QMH,22,0,2024-06-14T15:32:36.649Z,english_964.wav,0,0,2357,20,3,Chinese,f,8,0.8,-91.1613604,0.96508229
QMH,22,0,2024-06-14T15:32:36.649Z,english_964.wav,0,0,2357,20,3,Chinese,f,9,0.9,9.75788821,0.5978171
QMH,22,0,2024-06-14T15:32:36.649Z,english_964.wav,0,0,2357,20,3,Chinese,f,10,1,-2.87390503,0.802961
QMH,22,0,2024-06-14T15:32:36.649Z,english_964.wav,0,0,2357,20,3,Chinese,f,11,1.09391667,-53.09298444,0.69400331
QMH,23,0,2024-06-14T15:32:36.649Z,english_596.wav,0,0,2244,20,3,Chinese,f,0,0,-42.68859768,1.28071693
QMH,23,0,2024-06-14T15:32:36.649Z,english_596.wav,0,0,2244,20,3,Chinese,f,1,0.1,67.29414518,0.77411838
QMH,23,0,2024-06-14T15:32:36.649Z,english_596.wav,0,0,2244,20,3,Chinese,f,2,0.2,-56.57562289,1.32627092
QMH,23,0,2024-06-14T15:32:36.649Z,english_596.wav,0,0,2244,20,3,Chinese,f,3,0.3,71.30769152,0.49089119
QMH,23,0,2024-06-14T15:32:36.649Z,english_596.wav,0,0,2244,20,3,Chinese,f,4,0.4,95.1886681,0.72473062
QMH,23,0,2024-06-14T15:32:36.649Z,english_596.wav,0,0,2244,20,3,Chinese,f,5,0.5,72.69751936,1.52798236
QMH,23,0,2024-06-14T15:32:36.649Z,english_596.wav,0,0,2244,20,3,Chinese,f,6,0.6,62.43561612,1.79088814
QMH,23,0,2024-06-14T15:32:36.649Z,english_596.wav,0,0,2244,20,3,Chinese,f,7,0.7,-87.58634469,1.96984618
QMH,23,0,2024-06-14T15:32:36.649Z,english_596.wav,0,0,2244,20,3,Chinese,f,8,0.8,-28.77393345,1.38508216
QMH,23,0,2024-06-14T15:32:36.649Z,english_596.wav,0,0,2244,20,3,Chinese,f,9,0.9,-89.27970112,1.05217053
QMH,23,0,2024-06-14T15:32:36.649Z,english_596.wav,0,0,2244,20,3,Chinese,f,10,1,-11.13754725,1.15113027
QMH,23,0,2024-06-14T15:32:36.649Z,english_596.wav,0,0,2244,20,3,Chinese,f,11,1.09391667,-71.54799937,0.49767302
QMH,24,0,2024-06-14T15:32:36.649Z,english_514.wav,0,1,682,20,3,Chinese,f,0,0,-59.82766829,1.35471226
QMH,24,0,2024-06-14T15:32:36.649Z,english_514.wav,0,1,682,20,3,Chinese,f,1,0.1,-4.54284015,0.81191054
QMH,24,0,2024-06-14T15:32:36.649Z,english_514.wav,0,1,682,20,3,Chinese,f,2,0.2,75.12688257,1.30120799
QMH,24,0,2024-06-14T15:32:36.649Z,english_514.wav,0,1,682,20,3,Chinese,f,3,0.3,52.77263543,1.91982738
QMH,24,0,2024-06-14T15:32:36.649Z,english_514.wav,0,1,682,20,3,Chinese,f,4,0.4,-86.38859223,1.85775535
QMH,24,0,2024-06-14T15:32:36.649Z,english_514.wav,0,1,682,20,3,Chinese,f,5,0.5,22.0573972,0.92799532
QMH,24,0,2024-06-14T15:32:36.649Z,english_514.wav,0,1,682,20,3,Chinese,f,6,0.6,-81.94223644,0.39882237
QMH,24,0,2024-06-14T15:32:36.649Z,english_514.wav,0,1,682,20,3,Chinese,f,7,0.7,33.46090425,1.85696096
QMH,24,0,2024-06-14T15:32:36.649Z,english_514.wav,0,1,682,20,3,Chinese,f,8,0.8,10.59703074,0.26578536
QMH,24,0,2024-06-14T15:32:36.649Z,english_514.wav,0,1,682,20,3,Chinese,f,9,0.9,74.40481447,1.80594265
QMH,24,0,2024-06-14T15:32:36.649Z,english_514.wav,0,1,682,20,3,Chinese,f,10,1,35.18551728,0.66929464
QMH,24,0,2024-06-14T15:32:36.649Z,english_514.wav,0,1,682,20,3,Chinese,f,11,1.09391667,-52.88743611,1.62933111
QMH,25,0,2024-06-14T15:32:36.649Z,english_891.wav,0,0,940,20,3,Chinese,f,0,0,-51.94899703,0.42846165
QMH,25,0,2024-06-14T15:32:36.649Z,english_891.wav,0,0,940,20,3,Chinese,f,1,0.1,-40.85786471,0.93876637
QMH,25,0,2024-06-14T15:32:36.649Z,english_891.wav,0,0,940,20,3,Chinese,f,2,0.2,-13.56091334,1.78643125
QMH,25,0,2024-06-14T15:32:36.649Z,english_891.wav,0,0,940,20,3,Chinese,f,3,0.3,13.09065144,1.47761109
QMH,25,0,2024-06-14T15:32:36.649Z,english_891.wav,0,0,940,20,3,Chinese,f,4,0.4,-0.86453478,1.66653353
QMH,25,0,2024-06-14T15:32:36.649Z,english_891.wav,0,0,940,20,3,Chinese,f,5,0.5,31.90721085,1.63856449
QMH,25,0,2024-06-14T15:32:36.649Z,english_891.wav,0,0,940,20,3,Chinese,f,6,0.6,-27.60460343,1.17540335
QMH,25,0,2024-06-14T15:32:36.649Z,english_891.wav,0,0,940,20,3,Chinese,f,7,0.7,85.79516825,1.60236138
QMH,25,0,2024-06-14T15:32:36.649Z,english_891.wav,0,0,940,20,3,Chinese,f,8,0.8,83.05957198,0.96737739
QMH,25,0,2024-06-14T15:32:36.649Z,english_891.wav,0,0,940,20,3,Chinese,f,9,0.9,-61.83196055,1.42758327
QMH,25,0,2024-06-14T15:32:36.649Z,english_891.wav,0,0,940,20,3,Chinese,f,10,1,-69.67221927,0.19704513
QMH,25,0,2024-06-14T15:32:36.649Z,english_891.wav,0,0,940,20,3,Chinese,f,11,1.09391667,4.62166255,0.91556812
QMH,26,0,2024-06-14T15:32:36.649Z,english_948.wav,0,0,1035,20,3,Chinese,f,0,0,70.08788288,1.73905021
QMH,26,0,2024-06-14T15:32:36.649Z,english_948.wav,0,0,1035,20,3,Chinese,f,1,0.1,9.51278832,0.0665574
QMH,26,0,2024-06-14T15:32:36.649Z,english_948.wav,0,0,1035,20,3,Chinese,f,2,0.2,-59.8724706,1.97257093
QMH,26,0,2024-06-14T15:32:36.649Z,english_948.wav,0,0,1035,20,3,Chinese,f,3,0.3,-7.8364385,0.54442479
QMH,26,0,2024-06-14T15:32:36.649Z,english_948.wav,0,0,1035,20,3,Chinese,f,4,0.4,-78.88155559,0.88565994
QMH,26,0,2024-06-14T15:32:36.649Z,english_948.wav,0,0,1035,20,3,Chinese,f,5,0.5,68.60860792,1.07148871
QMH,26,0,2024-06-14T15:32:36.649Z,english_948.wav,0,0,1035,20,3,Chinese,f,6,0.6,-33.65925785,0.5392424
QMH,26,0,2024-06-14T15:32:36.649Z,english_948.wav,0,0,1035,20,3,Chinese,f,7,0.7,-55.41448182,0.22870417
QMH,26,0,2024-06-14T15:32:36.649Z,english_948.wav,0,0,1035,20,3,Chinese,f,8,0.8,50.68602882,0.62800338
QMH,26,0,2024-06-14T15:32:36.649Z,english_948.wav,0,0,1035,20,3,Chinese,f,9,0.9,61.97320966,0.19317235
QMH,26,0,2024-06-14T15:32:36.649Z,english_948.wav,0,0,1035,20,3,Chinese,f,10,1,-81.646441,0.59223908
QMH,26,0,2024-06-14T15:32:36.649Z,english_948.wav,0,0,1035,20,3,Chinese,f,11,1.09391667,-76.82315441,1.64165992
QMH,27,0,2024-06-14T15:32:36.649Z,english_779.wav,0,0,610,20,3,Chinese,f,0,0,2.5732513,1.647041
QMH,27,0,2024-06-14T15:32:36.649Z,english_779.wav,0,0,610,20,3,Chinese,f,1,0.1,65.46905282,1.84593927
QMH,27,0,2024-06-14T15:32:36.649Z,english_779.wav,0,0,610,20,3,Chinese,f,2,0.2,71.19594141,0.45510565
QMH,27,0,2024-06-14T15:32:36.649Z,english_779.wav,0,0,610,20,3,Chinese,f,3,0.3,60.39832791,1.01795959
QMH,27,0,2024-06-14T15:32:36.649Z,english_779.wav,0,0,610,20,3,Chinese,f,4,0.4,-88.69626856,0.08128748
QMH,27,0,2024-06-14T15:32:36.649Z,english_779.wav,0,0,610,20,3,Chinese,f,5,0.5,88.13724484,1.92668947
QMH,27,0,2024-06-14T15:32:36.649Z,english_779.wav,0,0,610,20,3,Chinese,f,6,0.6,-21.3716901,0.83024876
QMH,27,0,2024-06-14T15:32:36.649Z,english_779.wav,0,0,610,20,3,Chinese,f,7,0.7,50.45377943,1.4170414
QMH,27,0,2024-06-14T15:32:36.649Z,english_779.wav,0,0,610,20,3,Chinese,f,8,0.8,88.14580375,1.13372324
QMH,27,0,2024-06-14T15:32:36.649Z,english_779.wav,0,0,610,20,3,Chinese,f,9,0.9,-75.16546804,0.91489346
QMH,27,0,2024-06-14T15:32:36.649Z,english_779.wav,0,0,610,20,3,Chinese,f,10,1,-15.63730308,0.03287719
QMH,27,0,2024-06-14T15:32:36.649Z,english_779.wav,0,0,610,20,3,Chinese,f,11,1.09391667,-11.80666885,1.28058258
QMH,28,0,2024-06-14T15:32:36.649Z,english_701.wav,0,0,784,20,3,Chinese,f,0,0,-93.84804117,0.47905205
QMH,28,0,2024-06-14T15:32:36.649Z,english_701.wav,0,0,784,20,3,Chinese,f,1,0.1,-77.23912918,0.43335114
QMH,28,0,2024-06-14T15:32:36.649Z,english_701.wav,0,0,784,20,3,Chinese,f,2,0.2,-45.57356693,0.98258142
QMH,28,0,2024-06-14T15:32:36.649Z,english_701.wav,0,0,784,20,3,Chinese,f,3,0.3,-80.33366172,1.56424934
QMH,28,0,2024-06-14T15:32:36.649Z,english_701.wav,0,0,784,20,3,Chinese,f,4,0.4,95.38038132,1.99053476
QMH,28,0,2024-06-14T15:32:36.649Z,english_701.wav,0,0,784,20,3,Chinese,f,5,0.5,43.37257018,1.06230172
QMH,28,0,2024-06-14T15:32:36.649Z,english_701.wav,0,0,784,20,3,Chinese,f,6,0.6,20.80863296,1.81617496
QMH,28,0,2024-06-14T15:32:36.649Z,english_701.wav,0,0,784,20,3,Chinese,f,7,0.7,-74.49587502,0.70378114
QMH,28,0,2024-06-14T15:32:36.649Z,english_701.wav,0,0,784,20,3,Chinese,f,8,0.8,53.82285156,1.40362465
QMH,28,0,2024-06-14T15:32:36.649Z,english_701.wav,0,0,784,20,3,Chinese,f,9,0.9,86.20229822,0.70617413
QMH,28,0,2024-06-14T15:32:36.649Z,english_701.wav,0,0,784,20,3,Chinese,f,10,1,-84.46214873,0.74798843
QMH,28,0,2024-06-14T15:32:36.649Z,english_701.wav,0,0,784,20,3,Chinese,f,11,1.09391667,1.75691035,0.6850293
QMH,29,0,2024-06-14T15:32:36.649Z,english_103.wav,0,1,420,20,3,Chinese,f,0,0,48.6835233,0.31659488
QMH,29,0,2024-06-14T15:32:36.649Z,english_103.wav,0,1,420,20,3,Chinese,f,1,0.1,36.55238137,0.91966706
QMH,29,0,2024-06-14T15:32:36.649Z,english_103.wav,0,1,420,20,3,Chinese,f,2,0.2,48.06121709,0.7088313
QMH,29,0,2024-06-14T15:32:36.649Z,english_103.wav,0,1,420,20,3,Chinese,f,3,0.3,-53.21418968,0.61655079
QMH,29,0,2024-06-14T15:32:36.649Z,english_103.wav,0,1,420,20,3,Chinese,f,4,0.4,-84.49986715,0.3504638
QMH,29,0,2024-06-14T15:32:36.649Z,english_103.wav,0,1,420,20,3,Chinese,f,5,0.5,2.274647,0.15173733
QMH,29,0,2024-06-14T15:32:36.649Z,english_103.wav,0,1,420,20,3,Chinese,f,6,0.6,65.76169241,0.65986716
QMH,29,0,2024-06-14T15:32:36.649Z,english_103.wav,0,1,420,20,3,Chinese,f,7,0.7,-54.56461338,1.01542857
QMH,29,0,2024-06-14T15:32:36.649Z,english_103.wav,0,1,420,20,3,Chinese,f,8,0.8,-9.60778265,0.43719066
QMH,29,0,2024-06-14T15:32:36.649Z,english_103.wav,0,1,420,20,3,Chinese,f,9,0.9,20.85441667,1.38316606
QMH,29,0,2024-06-14T15:32:36.649Z,english_103.wav,0,1,420,20,3,Chinese,f,10,1,-75.91935247,1.2339212
QMH,29,0,2024-06-14T15:32:36.649Z,english_103.wav,0,1,420,20,3,Chinese,f,11,1.09391667,-89.16544197,1.84830476
QMH,30,0,2024-06-14T15:32:36.649Z,english_124.wav,0,1,970,20,3,Chinese,f,0,0,5.35510852,0.99413203
QMH,30,0,2024-06-14T15:32:36.649Z,english_124.wav,0,1,970,20,3,Chinese,f,1,0.1,82.22763866,0.35886786
QMH,30,0,2024-06-14T15:32:36.649Z,english_124.wav,0,1,970,20,3,Chinese,f,2,0.2,78.44526729,0.68901736
QMH,30,0,2024-06-14T15:32:36.649Z,english_124.wav,0,1,970,20,3,Chinese,f,3,0.3,-3.07690156,1.32582542
QMH,30,0,2024-06-14T15:32:36.649Z,english_124.wav,0,1,970,20,3,Chinese,f,4,0.4,-26.87127611,1.93650033
QMH,30,0,2024-06-14T15:32:36.649Z,english_124.wav,0,1,970,20,3,Chinese,f,5,0.5,-1.1256219,1.64621245
QMH,30,0,2024-06-14T15:32:36.649Z,english_124.wav,0,1,970,20,3,Chinese,f,6,0.6,-86.86575837,1.68793936
QMH,30,0,2024-06-14T15:32:36.649Z,english_124.wav,0,1,970,20,3,Chinese,f,7,0.7,73.06997556,1.14468764
QMH,30,0,2024-06-14T15:32:36.649Z,english_124.wav,0,1,970,20,3,Chinese,f,8,0.8,48.90999268,1.13594555
QMH,30,0,2024-06-14T15:32:36.649Z,english_124.wav,0,1,970,20,3,Chinese,f,9,0.9,52.65203742,0.473778
QMH,30,0,2024-06-14T15:32:36.649Z,english_124.wav,0,1,970,20,3,Chinese,f,10,1,-49.74668146,1.84215607
QMH,30,0,2024-06-14T15:32:36.649Z,english_124.wav,0,1,970,20,3,Chinese,f,11,1.09391667,-71.87075445,0.96391319
QMH,31,0,2024-06-14T15:32:36.649Z,english_96.wav,0,0,963,20,3,Chinese,f,0,0,-65.02634732,0.97232816
QMH,31,0,2024-06-14T15:32:36.649Z,english_96.wav,0,0,963,20,3,Chinese,f,1,0.1,26.89498136,0.38357595
QMH,31,0,2024-06-14T15:32:36.649Z,english_96.wav,0,0,963,20,3,Chinese,f,2,0.2,43.91987782,1.32659615
QMH,31,0,2024-06-14T15:32:36.649Z,english_96.wav,0,0,963,20,3,Chinese,f,3,0.3,-59.57375142,1.36640746
QMH,31,0,2024-06-14T15:32:36.649Z,english_96.wav,0,0,963,20,3,Chinese,f,4,0.4,-60.38364834,1.49535362
QMH,31,0,2024-06-14T15:32:36.649Z,english_96.wav,0,0,963,20,3,Chinese,f,5,0.5,44.26176545,0.82408653
QMH,31,0,2024-06-14T15:32:36.649Z,english_96.wav,0,0,963,20,3,Chinese,f,6,0.6,-64.04538638,0.04141002
QMH,31,0,2024-06-14T15:32:36.649Z,english_96.wav,0,0,963,20,3,Chinese,f,7,0.7,-45.23049702,0.9269043
QMH,31,0,2024-06-14T15:32:36.649Z,english_96.wav,0,0,963,20,3,Chinese,f,8,0.8,-76.14418672,1.44350466
QMH,31,0,2024-06-14T15:32:36.649Z,english_96.wav,0,0,963,20,3,Chinese,f,9,0.9,28.81354354,0.19413347
QMH,31,0,2024-06-14T15:32:36.649Z,english_96.wav,0,0,963,20,3,Chinese,f,10,1,56.5836812,0.94594394
QMH,31,0,2024-06-14T15:32:36.649Z,english_96.wav,0,0,963,20,3,Chinese,f,11,1.09391667,88.01492367,1.65487259
QMH,32,0,2024-06-14T15:32:36.649Z,english_163.wav,0,1,664,20,3,Chinese,f,0,0,-75.52696483,0.21633828
QMH,32,0,2024-06-14T15:32:36.649Z,english_163.wav,0,1,664,20,3,Chinese,f,1,0.1,-50.94410786,0.31603177
QMH,32,0,2024-06-14T15:32:36.649Z,english_163.wav,0,1,664,20,3,Chinese,f,2,0.2,-38.29944429,1.04333718
QMH,32,0,2024-06-14T15:32:36.649Z,english_163.wav,0,1,664,20,3,Chinese,f,3,0.3,-32.57127411,1.57763682
QMH,32,0,2024-06-14T15:32:36.649Z,english_163.wav,0,1,664,20,3,Chinese,f,4,0.4,-30.55941116,0.14485533
QMH,32,0,2024-06-14T15:32:36.649Z,english_163.wav,0,1,664,20,3,Chinese,f,5,0.5,-14.52407307,1.53043555
QMH,32,0,2024-06-14T15:32:36.649Z,english_163.wav,0,1,664,20,3,Chinese,f,6,0.6,28.48601544,0.0734581
QMH,32,0,2024-06-14T15:32:36.649Z,english_163.wav,0,1,664,20,3,Chinese,f,7,0.7,-14.30599007,1.19104414
QMH,32,0,2024-06-14T15:32:36.649Z,english_163.wav,0,1,664,20,3,Chinese,f,8,0.8,38.98323909,0.4056819
QMH,32,0,2024-06-14T15:32:36.649Z,english_163.wav,0,1,664,20,3,Chinese,f,9,0.9,-70.97720427,1.30823112
QMH,32,0,2024-06-14T15:32:36.649Z,english_163.wav,0,1,664,20,3,Chinese,f,10,1,-31.77991107,1.63835528
QMH,32,0,2024-06-14T15:32:36.649Z,english_163.wav,0,1,664,20,3,Chinese,f,11,1.09391667,-57.22342155,1.03131117
QMH,33,0,2024-06-14T15:32:36.649Z,english_192.wav,0,1,784,20,3,Chinese,f,0,0,-44.06496916,1.38059828
QMH,33,0,2024-06-14T15:32:36.649Z,english_192.wav,0,1,784,20,3,Chinese,f,1,0.1,-1.73373059,0.79242211
QMH,33,0,2024-06-14T15:32:36.649Z,english_192.wav,0,1,784,20,3,Chinese,f,2,0.2,-29.10510113,0.7213484
QMH,33,0,2024-06-14T15:32:36.649Z,english_192.wav,0,1,784,20,3,Chinese,f,3,0.3,71.54582207,1.27323666
QMH,33,0,2024-06-14T15:32:36.649Z,english_192.wav,0,1,784,20,3,Chinese,f,4,0.4,47.17920128,0.22557274
QMH,33,0,2024-06-14T15:32:36.649Z,english_192.wav,0,1,784,20,3,Chinese,f,5,0.5,46.36925649,1.52280769
QMH,33,0,2024-06-14T15:32:36.649Z,english_192.wav,0,1,784,20,3,Chinese,f,6,0.6,34.98575102,0.97358447
QMH,33,0,2024-06-14T15:32:36.649Z,english_192.wav,0,1,784,20,3,Chinese,f,7,0.7,51.8668686,0.90127966
QMH,33,0,2024-06-14T15:32:36.649Z,english_192.wav,0,1,784,20,3,Chinese,f,8,0.8,-35.42178409,0.86874685
QMH,33,0,2024-06-14T15:32:36.649Z,english_192.wav,0,1,784,20,3,Chinese,f,9,0.9,-56.11776415,1.58446024
QMH,33,0,2024-06-14T15:32:36.649Z,english_192.wav,0,1,784,20,3,Chinese,f,10,1,-44.79305263,1.51736237
QMH,33,0,2024-06-14T15:32:36.649Z,english_192.wav,0,1,784,20,3,Chinese,f,11,1.09391667,37.72006641,0.71870831
QMH,34,0,2024-06-14T15:32:36.649Z,english_558.wav,0,0,821,20,3,Chinese,f,0,0,9.45595183,1.13403788
QMH,34,0,2024-06-14T15:32:36.649Z,english_558.wav,0,0,821,20,3,Chinese,f,1,0.1,-66.91447075,1.18278708
QMH,34,0,2024-06-14T15:32:36.649Z,english_558.wav,0,0,821,20,3,Chinese,f,2,0.2,5.01642616,1.11112331
QMH,34,0,2024-06-14T15:32:36.649Z,english_558.wav,0,0,821,20,3,Chinese,f,3,0.3,-82.30049302,0.91283519
QMH,34,0,2024-06-14T15:32:36.649Z,english_558.wav,0,0,821,20,3,Chinese,f,4,0.4,-10.29129966,0.71678122
QMH,34,0,2024-06-14T15:32:36.649Z,english_558.wav,0,0,821,20,3,Chinese,f,5,0.5,99.14240741,1.64554748
QMH,34,0,2024-06-14T15:32:36.649Z,english_558.wav,0,0,821,20,3,Chinese,f,6,0.6,34.85025227,0.99485251
QMH,34,0,2024-06-14T15:32:36.649Z,english_558.wav,0,0,821,20,3,Chinese,f,7,0.7,43.44441895,0.12536515
QMH,34,0,2024-06-14T15:32:36.649Z,english_558.wav,0,0,821,20,3,Chinese,f,8,0.8,-97.39694164,0.12044716
QMH,34,0,2024-06-14T15:32:36.649Z,english_558.wav,0,0,821,20,3,Chinese,f,9,0.9,-31.97632868,0.33780284
QMH,34,0,2024-06-14T15:32:36.649Z,english_558.wav,0,0,821,20,3,Chinese,f,10,1,-74.01115338,0.39284816
QMH,34,0,2024-06-14T15:32:36.649Z,english_558.wav,0,0,821,20,3,Chinese,f,11,1.09391667,43.18570617,1.38494175
QMH,35,0,2024-06-14T15:32:36.649Z,english_632.wav,0,1,471,20,3,Chinese,f,0,0,54.27416022,0.37224575
QMH,35,0,2024-06-14T15:32:36.649Z,english_632.wav,0,1,471,20,3,Chinese,f,1,0.1,37.10784124,1.19176423
QMH,35,0,2024-06-14T15:32:36.649Z,english_632.wav,0,1,471,20,3,Chinese,f,2,0.2,-11.42343802,1.11602641
QMH,35,0,2024-06-14T15:32:36.649Z,english_632.wav,0,1,471,20,3,Chinese,f,3,0.3,83.07683271,0.86319718
QMH,35,0,2024-06-14T15:32:36.649Z,english_632.wav,0,1,471,20,3,Chinese,f,4,0.4,-41.86230003,1.45181299
QMH,35,0,2024-06-14T15:32:36.649Z,english_632.wav,0,1,471,20,3,Chinese,f,5,0.5,-65.18909296,0.00810665
QMH,35,0,2024-06-14T15:32:36.649Z,english_632.wav,0,1,471,20,3,Chinese,f,6,0.6,73.88921211,1.82551729
QMH,35,0,2024-06-14T15:32:36.649Z,english_632.wav,0,1,471,20,3,Chinese,f,7,0.7,-78.27421644,0.97441054
QMH,35,0,2024-06-14T15:32:36.649Z,english_632.wav,0,1,471,20,3,Chinese,f,8,0.8,-55.91875918,1.38456518
QMH,35,0,2024-06-14T15:32:36.649Z,english_632.wav,0,1,471,20,3,Chinese,f,9,0.9,38.52779866,1.39025004
QMH,35,0,2024-06-14T15:32:36.649Z,english_632.wav,0,1,471,20,3,Chinese,f,10,1,-63.00995407,0.73323837
QMH,35,0,2024-06-14T15:32:36.649Z,english_632.wav,0,1,471,20,3,Chinese,f,11,1.09391667,-47.01105768,1.12337895
QMH,36,0,2024-06-14T15:32:36.649Z,english_750.wav,0,0,1174,20,3,Chinese,f,0,0,-25.16303224,0.86862278
QMH,36,0,2024-06-14T15:32:36.649Z,english_750.wav,0,0,1174,20,3,Chinese,f,1,0.1,-14.02768866,0.53645709
QMH,36,0,2024-06-14T15:32:36.649Z,english_750.wav,0,0,1174,20,3,Chinese,f,2,0.2,69.31394604,1.09554837
QMH,36,0,2024-06-14T15:32:36.649Z,english_750.wav,0,0,1174,20,3,Chinese,f,3,0.3,90.85453111,0.97960852
QMH,36,0,2024-06-14T15:32:36.649Z,english_750.wav,0,0,1174,20,3,Chinese,f,4,0.4,-11.11189664,1.14883971
QMH,36,0,2024-06-14T15:32:36.649Z,english_750.wav,0,0,1174,20,3,Chinese,f,5,0.5,99.7192225,0.16341609
QMH,36,0,2024-06-14T15:32:36.649Z,english_750.wav,0,0,1174,20,3,Chinese,f,6,0.6,59.23899804,1.34227106
QMH,36,0,2024-06-14T15:32:36.649Z,english_750.wav,0,0,1174,20,3,Chinese,f,7,0.7,61.96409814,1.64659331
QMH,36,0,2024-06-14T15:32:36.649Z,english_750.wav,0,0,1174,20,3,Chinese,f,8,0.8,86.60257641,0.80940412
QMH,36,0,2024-06-14T15:32:36.649Z,english_750.wav,0,0,1174,20,3,Chinese,f,9,0.9,26.97835103,1.55602713
QMH,36,0,2024-06-14T15:32:36.649Z,english_750.wav,0,0,1174,20,3,Chinese,f,10,1,-29.13235822,0.0040181
QMH,36,0,2024-06-14T15:32:36.649Z,english_750.wav,0,0,1174,20,3,Chinese,f,11,1.09391667,-49.9357994,1.03656175
QMH,37,0,2024-06-14T15:32:36.649Z,english_227.wav,0,0,1174,20,3,Chinese,f,0,0,87.02540196,1.45120071
QMH,37,0,2024-06-14T15:32:36.649Z,english_227.wav,0,0,1174,20,3,Chinese,f,1,0.1,-87.16855408,1.99718195
QMH,37,0,2024-06-14T15:32:36.649Z,english_227.wav,0,0,1174,20,3,Chinese,f,2,0.2,13.6128173,0.6126104
QMH,37,0,2024-06-14T15:32:36.649Z,english_227.wav,0,0,1174,20,3,Chinese,f,3,0.3,25.59592298,0.97530447
QMH,37,0,2024-06-14T15:32:36.649Z,english_227.wav,0,0,1174,20,3,Chinese,f,4,0.4,3.06661623,1.74861281
QMH,37,0,2024-06-14T15:32:36.649Z,english_227.wav,0,0,1174,20,3,Chinese,f,5,0.5,-6.41872275,1.95931784
QMH,37,0,2024-06-14T15:32:36.649Z,english_227.wav,0,0,1174,20,3,Chinese,f,6,0.6,-40.97922684,1.44262054
QMH,37,0,2024-06-14T15:32:36.649Z,english_227.wav,0,0,1174,20,3,Chinese,f,7,0.7,-51.74632522,0.76385193
QMH,37,0,2024-06-14T15:32:36.649Z,english_227.wav,0,0,1174,20,3,Chinese,f,8,0.8,-35.50720635,0.83123806
QMH,37,0,2024-06-14T15:32:36.649Z,english_227.wav,0,0,1174,20,3,Chinese,f,9,0.9,-52.46041148,1.0121191
QMH,37,0,2024-06-14T15:32:36.649Z,english_227.wav,0,0,1174,20,3,Chinese,f,10,1,-5.55255579,1.39124165
QMH,37,0,2024-06-14T15:32:36.649Z,english_227.wav,0,0,1174,20,3,Chinese,f,11,1.09391667,92.65490635,1.37791309
QMH,38,0,2024-06-14T15:32:36.649Z,english_369.wav,0,0,988,20,3,Chinese,f,0,0,-98.51702781,1.05319591
QMH,38,0,2024-06-14T15:32:36.649Z,english_369.wav,0,0,988,20,3,Chinese,f,1,0.1,-77.74164505,0.35563608
QMH,38,0,2024-06-14T15:32:36.649Z,english_369.wav,0,0,988,20,3,Chinese,f,2,0.2,13.86053007,0.74921535
QMH,38,0,2024-06-14T15:32:36.649Z,english_369.wav,0,0,988,20,3,Chinese,f,3,0.3,94.45294859,1.88151113
QMH,38,0,2024-06-14T15:32:36.649Z,english_369.wav,0,0,988,20,3,Chinese,f,4,0.4,-68.44131684,1.38340448
QMH,38,0,2024-06-14T15:32:36.649Z,english_369.wav,0,0,988,20,3,Chinese,f,5,0.5,-11.02159052,1.0971757
QMH,38,0,2024-06-14T15:32:36.649Z,english_369.wav,0,0,988,20,3,Chinese,f,6,0.6,-93.03562761,0.74102815
QMH,38,0,2024-06-14T15:32:36.649Z,english_369.wav,0,0,988,20,3,Chinese,f,7,0.7,92.19991551,0.86578633
QMH,38,0,2024-06-14T15:32:36.649Z,english_369.wav,0,0,988,20,3,Chinese,f,8,0.8,44.28946949,0.42333119
QMH,38,0,2024-06-14T15:32:36.649Z,english_369.wav,0,0,988,20,3,Chinese,f,9,0.9,-36.54704406,1.30148328
QMH,38,0,2024-06-14T15:32:36.649Z,english_369.wav,0,0,988,20,3,Chinese,f,10,1,75.92915306,0.13274677
QMH,38,0,2024-06-14T15:32:36.649Z,english_369.wav,0,0,988,20,3,Chinese,f,11,1.09391667,43.6375557,0.3552412
QMH,39,0,2024-06-14T15:32:36.649Z,english_411.wav,0,1,450,20,3,Chinese,f,0,0,-19.70973195,0.11468893
QMH,39,0,2024-06-14T15:32:36.649Z,english_411.wav,0,1,450,20,3,Chinese,f,1,0.1,35.06337641,1.30305137
QMH,39,0,2024-06-14T15:32:36.649Z,english_411.wav,0,1,450,20,3,Chinese,f,2,0.2,-47.07660398,1.23342094
QMH,39,0,2024-06-14T15:32:36.649Z,english_411.wav,0,1,450,20,3,Chinese,f,3,0.3,-98.68669902,0.59067951
QMH,39,0,2024-06-14T15:32:36.649Z,english_411.wav,0,1,450,20,3,Chinese,f,4,0.4,2.91607837,0.74798004
QMH,39,0,2024-06-14T15:32:36.649Z,english_411.wav,0,1,450,20,3,Chinese,f,5,0.5,-8.99732851,0.55407034
QMH,39,0,2024-06-14T15:32:36.649Z,english_411.wav,0,1,450,20,3,Chinese,f,6,0.6,57.60803457,1.68778529
QMH,39,0,2024-06-14T15:32:36.649Z,english_411.wav,0,1,450,20,3,Chinese,f,7,0.7,1.53142899,0.22674115
QMH,39,0,2024-06-14T15:32:36.649Z,english_411.wav,0,1,450,20,3,Chinese,f,8,0.8,-32.18919875,0.93004634
QMH,39,0,2024-06-14T15:32:36.649Z,english_411.wav,0,1,450,20,3,Chinese,f,9,0.9,-92.02235415,1.85827411
QMH,39,0,2024-06-14T15:32:36.649Z,english_411.wav,0,1,450,20,3,Chinese,f,10,1,33.72578798,0.07029884
QMH,39,0,2024-06-14T15:32:36.649Z,english_411.wav,0,1,450,20,3,Chinese,f,11,1.09391667,81.16053662,1.14058722
QMH,40,0,2024-06-14T15:32:36.649Z,english_926.wav,0,1,549,20,3,Chinese,f,0,0,53.49151787,0.226364497
QMH,40,0,2024-06-14T15:32:36.649Z,english_926.wav,0,1,549,20,3,Chinese,f,1,0.1,10.58129761,0.000721176289
QMH,40,0,2024-06-14T15:32:36.649Z,english_926.wav,0,1,549,20,3,Chinese,f,2,0.2,10.53773661,0.875811779
QMH,40,0,2024-06-14T15:32:36.649Z,english_926.wav,0,1,549,20,3,Chinese,f,3,0.3,41.27195991,1.25055456
QMH,40,0,2024-06-14T15:32:36.649Z,english_926.wav,0,1,549,20,3,Chinese,f,4,0.4,-17.37234578,0.546896354
QMH,40,0,2024-06-14T15:32:36.649Z,english_926.wav,0,1,549,20,3,Chinese,f,5,0.5,66.8871695,1.08222942
QMH,40,0,2024-06-14T15:32:36.649Z,english_926.wav,0,1,549,20,3,Chinese,f,6,0.6,69.01436048,0.838599058
QMH,40,0,2024-06-14T15:32:36.649Z,english_926.wav,0,1,549,20,3,Chinese,f,7,0.7,89.40824761,0.626338416
QMH,40,0,2024-06-14T15:32:36.649Z,english_926.wav,0,1,549,20,3,Chinese,f,8,0.8,-98.42632437,1.27601453
QMH,40,0,2024-06-14T15:32:36.649Z,english_926.wav,0,1,549,20,3,Chinese,f,9,0.9,27.58055205,1.32538862
QMH,40,0,2024-06-14T15:32:36.649Z,english_926.wav,0,1,549,20,3,Chinese,f,10,1,-11.99004947,1.73191108
QMH,40,0,2024-06-14T15:32:36.649Z,english_926.wav,0,1,549,20,3,Chinese,f,11,1.09391667,15.35572308,0.629016927
QMH,41,0,2024-06-14T15:32:36.649Z,english_478.wav,0,0,836,20,3,Chinese,f,0,0,49.52865222,0.59081153
QMH,41,0,2024-06-14T15:32:36.649Z,english_478.wav,0,0,836,20,3,Chinese,f,1,0.1,12.15356225,0.51284871
QMH,41,0,2024-06-14T15:32:36.649Z,english_478.wav,0,0,836,20,3,Chinese,f,2,0.2,-37.73778512,1.1444407
QMH,41,0,2024-06-14T15:32:36.649Z,english_478.wav,0,0,836,20,3,Chinese,f,3,0.3,-10.50364884,1.54775545
QMH,41,0,2024-06-14T15:32:36.649Z,english_478.wav,0,0,836,20,3,Chinese,f,4,0.4,38.58870475,1.52435775
QMH,41,0,2024-06-14T15:32:36.649Z,english_478.wav,0,0,836,20,3,Chinese,f,5,0.5,-22.27355878,1.20325801
QMH,41,0,2024-06-14T15:32:36.649Z,english_478.wav,0,0,836,20,3,Chinese,f,6,0.6,-48.47445884,0.62139426
QMH,41,0,2024-06-14T15:32:36.649Z,english_478.wav,0,0,836,20,3,Chinese,f,7,0.7,-51.27115533,0.67212897
QMH,41,0,2024-06-14T15:32:36.649Z,english_478.wav,0,0,836,20,3,Chinese,f,8,0.8,73.13710457,1.21899898
QMH,41,0,2024-06-14T15:32:36.649Z,english_478.wav,0,0,836,20,3,Chinese,f,9,0.9,5.78656281,0.57488153
QMH,41,0,2024-06-14T15:32:36.649Z,english_478.wav,0,0,836,20,3,Chinese,f,10,1,-98.51331711,0.34521849
QMH,41,0,2024-06-14T15:32:36.649Z,english_478.wav,0,0,836,20,3,Chinese,f,11,1.09391667,24.20472837,1.9492818
QMH,42,0,2024-06-14T15:32:36.649Z,english_483.wav,0,0,606,20,3,Chinese,f,0,0,81.48477159,0.74240463
QMH,42,0,2024-06-14T15:32:36.649Z,english_483.wav,0,0,606,20,3,Chinese,f,1,0.1,-89.60480044,0.55858717
QMH,42,0,2024-06-14T15:32:36.649Z,english_483.wav,0,0,606,20,3,Chinese,f,2,0.2,34.01203533,0.25858635
QMH,42,0,2024-06-14T15:32:36.649Z,english_483.wav,0,0,606,20,3,Chinese,f,3,0.3,-53.73578063,0.09361457
QMH,42,0,2024-06-14T15:32:36.649Z,english_483.wav,0,0,606,20,3,Chinese,f,4,0.4,84.54249603,1.33981299
QMH,42,0,2024-06-14T15:32:36.649Z,english_483.wav,0,0,606,20,3,Chinese,f,5,0.5,-37.49389681,0.4736205
QMH,42,0,2024-06-14T15:32:36.649Z,english_483.wav,0,0,606,20,3,Chinese,f,6,0.6,15.30386948,0.19064795
QMH,42,0,2024-06-14T15:32:36.649Z,english_483.wav,0,0,606,20,3,Chinese,f,7,0.7,-61.92265371,0.85022642
QMH,42,0,2024-06-14T15:32:36.649Z,english_483.wav,0,0,606,20,3,Chinese,f,8,0.8,-8.76713856,0.89668703
QMH,42,0,2024-06-14T15:32:36.649Z,english_483.wav,0,0,606,20,3,Chinese,f,9,0.9,-10.35003035,0.92354333
QMH,42,0,2024-06-14T15:32:36.649Z,english_483.wav,0,0,606,20,3,Chinese,f,10,1,30.44811047,0.32093747
QMH,42,0,2024-06-14T15:32:36.649Z,english_483.wav,0,0,606,20,3,Chinese,f,11,1.09391667,58.404663,0.85640019
QMH,43,0,2024-06-14T15:32:36.649Z,english_694.wav,0,1,350,20,3,Chinese,f,0,0,28.89643962,0.23097519
QMH,43,0,2024-06-14T15:32:36.649Z,english_694.wav,0,1,350,20,3,Chinese,f,1,0.1,-44.49941165,1.12594213
QMH,43,0,2024-06-14T15:32:36.649Z,english_694.wav,0,1,350,20,3,Chinese,f,2,0.2,60.6754056,1.01502789
QMH,43,0,2024-06-14T15:32:36.649Z,english_694.wav,0,1,350,20,3,Chinese,f,3,0.3,72.66869222,0.55545347
QMH,43,0,2024-06-14T15:32:36.649Z,english_694.wav,0,1,350,20,3,Chinese,f,4,0.4,26.91102981,0.313515
QMH,43,0,2024-06-14T15:32:36.649Z,english_694.wav,0,1,350,20,3,Chinese,f,5,0.5,-19.36398165,0.8133174
QMH,43,0,2024-06-14T15:32:36.649Z,english_694.wav,0,1,350,20,3,Chinese,f,6,0.6,83.61982614,0.08479119
QMH,43,0,2024-06-14T15:32:36.649Z,english_694.wav,0,1,350,20,3,Chinese,f,7,0.7,-93.83830037,1.36590055
QMH,43,0,2024-06-14T15:32:36.649Z,english_694.wav,0,1,350,20,3,Chinese,f,8,0.8,-41.75440855,1.50882856
QMH,43,0,2024-06-14T15:32:36.649Z,english_694.wav,0,1,350,20,3,Chinese,f,9,0.9,-17.17525064,1.54263899
QMH,43,0,2024-06-14T15:32:36.649Z,english_694.wav,0,1,350,20,3,Chinese,f,10,1,5.88397372,1.28663395
QMH,43,0,2024-06-14T15:32:36.649Z,english_694.wav,0,1,350,20,3,Chinese,f,11,1.09391667,84.29938157,0.05122723
QMH,44,0,2024-06-14T15:32:36.649Z,english_3.wav,0,0,1387,20,3,Chinese,f,0,0,46.12890401,1.26973721
QMH,44,0,2024-06-14T15:32:36.649Z,english_3.wav,0,0,1387,20,3,Chinese,f,1,0.1,-46.79234899,0.81563074
QMH,44,0,2024-06-14T15:32:36.649Z,english_3.wav,0,0,1387,20,3,Chinese,f,2,0.2,43.27356125,1.94124466
QMH,44,0,2024-06-14T15:32:36.649Z,english_3.wav,0,0,1387,20,3,Chinese,f,3,0.3,-72.16670898,0.70667384
QMH,44,0,2024-06-14T15:32:36.649Z,english_3.wav,0,0,1387,20,3,Chinese,f,4,0.4,-20.43688573,1.08403016
QMH,44,0,2024-06-14T15:32:36.649Z,english_3.wav,0,0,1387,20,3,Chinese,f,5,0.5,47.47685518,0.3642344
QMH,44,0,2024-06-14T15:32:36.649Z,english_3.wav,0,0,1387,20,3,Chinese,f,6,0.6,-99.10404807,0.99174199
QMH,44,0,2024-06-14T15:32:36.649Z,english_3.wav,0,0,1387,20,3,Chinese,f,7,0.7,26.000254,0.55041702
QMH,44,0,2024-06-14T15:32:36.649Z,english_3.wav,0,0,1387,20,3,Chinese,f,8,0.8,-7.26217139,0.75824974
QMH,44,0,2024-06-14T15:32:36.649Z,english_3.wav,0,0,1387,20,3,Chinese,f,9,0.9,-22.74562987,0.866985
QMH,44,0,2024-06-14T15:32:36.649Z,english_3.wav,0,0,1387,20,3,Chinese,f,10,1,-68.2177704,1.56473108
QMH,44,0,2024-06-14T15:32:36.649Z,english_3.wav,0,0,1387,20,3,Chinese,f,11,1.09391667,25.12417325,0.96011667
QMH,45,0,2024-06-14T15:32:36.649Z,english_834.wav,0,1,406,20,3,Chinese,f,0,0,-86.16375599,1.62153397
QMH,45,0,2024-06-14T15:32:36.649Z,english_834.wav,0,1,406,20,3,Chinese,f,1,0.1,-22.09919923,1.42577166
QMH,45,0,2024-06-14T15:32:36.649Z,english_834.wav,0,1,406,20,3,Chinese,f,2,0.2,63.82090938,1.22840095
QMH,45,0,2024-06-14T15:32:36.649Z,english_834.wav,0,1,406,20,3,Chinese,f,3,0.3,38.26115817,1.977843
QMH,45,0,2024-06-14T15:32:36.649Z,english_834.wav,0,1,406,20,3,Chinese,f,4,0.4,15.19654457,0.63466945
QMH,45,0,2024-06-14T15:32:36.649Z,english_834.wav,0,1,406,20,3,Chinese,f,5,0.5,78.054871,1.94429469
QMH,45,0,2024-06-14T15:32:36.649Z,english_834.wav,0,1,406,20,3,Chinese,f,6,0.6,63.1081572,0.531594
QMH,45,0,2024-06-14T15:32:36.649Z,english_834.wav,0,1,406,20,3,Chinese,f,7,0.7,43.43236214,1.34157161
QMH,45,0,2024-06-14T15:32:36.649Z,english_834.wav,0,1,406,20,3,Chinese,f,8,0.8,-74.3897683,1.32269287
QMH,45,0,2024-06-14T15:32:36.649Z,english_834.wav,0,1,406,20,3,Chinese,f,9,0.9,40.24285486,1.75386624
QMH,45,0,2024-06-14T15:32:36.649Z,english_834.wav,0,1,406,20,3,Chinese,f,10,1,-67.71571624,1.01238939
QMH,45,0,2024-06-14T15:32:36.649Z,english_834.wav,0,1,406,20,3,Chinese,f,11,1.09391667,40.03958616,1.44306133
QMH,46,0,2024-06-14T15:32:36.649Z,english_55.wav,0,1,279,20,3,Chinese,f,0,0,55.67307479,0.52782995
QMH,46,0,2024-06-14T15:32:36.649Z,english_55.wav,0,1,279,20,3,Chinese,f,1,0.1,-68.77763233,1.04888997
QMH,46,0,2024-06-14T15:32:36.649Z,english_55.wav,0,1,279,20,3,Chinese,f,2,0.2,-65.56479824,1.48348863
QMH,46,0,2024-06-14T15:32:36.649Z,english_55.wav,0,1,279,20,3,Chinese,f,3,0.3,-28.17507295,0.48831434
QMH,46,0,2024-06-14T15:32:36.649Z,english_55.wav,0,1,279,20,3,Chinese,f,4,0.4,12.71546493,0.57381204
QMH,46,0,2024-06-14T15:32:36.649Z,english_55.wav,0,1,279,20,3,Chinese,f,5,0.5,79.84163838,0.45321787
QMH,46,0,2024-06-14T15:32:36.649Z,english_55.wav,0,1,279,20,3,Chinese,f,6,0.6,-44.12045936,1.63628375
QMH,46,0,2024-06-14T15:32:36.649Z,english_55.wav,0,1,279,20,3,Chinese,f,7,0.7,-80.03895773,1.60012046
QMH,46,0,2024-06-14T15:32:36.649Z,english_55.wav,0,1,279,20,3,Chinese,f,8,0.8,89.560279,1.77258714
QMH,46,0,2024-06-14T15:32:36.649Z,english_55.wav,0,1,279,20,3,Chinese,f,9,0.9,-86.43761931,0.52302607
QMH,46,0,2024-06-14T15:32:36.649Z,english_55.wav,0,1,279,20,3,Chinese,f,10,1,26.43928763,1.59376443
QMH,46,0,2024-06-14T15:32:36.649Z,english_55.wav,0,1,279,20,3,Chinese,f,11,1.09391667,35.34186428,1.33420322
QMH,47,0,2024-06-14T15:32:36.649Z,english_115.wav,0,0,578,20,3,Chinese,f,0,0,-26.06400201,1.03170605
QMH,47,0,2024-06-14T15:32:36.649Z,english_115.wav,0,0,578,20,3,Chinese,f,1,0.1,28.0769801,0.8133226
QMH,47,0,2024-06-14T15:32:36.649Z,english_115.wav,0,0,578,20,3,Chinese,f,2,0.2,0.22454624,0.23304389
QMH,47,0,2024-06-14T15:32:36.649Z,english_115.wav,0,0,578,20,3,Chinese,f,3,0.3,56.47311496,0.50394373
QMH,47,0,2024-06-14T15:32:36.649Z,english_115.wav,0,0,578,20,3,Chinese,f,4,0.4,-7.56064775,1.43876449
QMH,47,0,2024-06-14T15:32:36.649Z,english_115.wav,0,0,578,20,3,Chinese,f,5,0.5,-63.44787447,0.35899171
QMH,47,0,2024-06-14T15:32:36.649Z,english_115.wav,0,0,578,20,3,Chinese,f,6,0.6,-52.68338839,1.5505321
QMH,47,0,2024-06-14T15:32:36.649Z,english_115.wav,0,0,578,20,3,Chinese,f,7,0.7,37.43443466,0.2049404
QMH,47,0,2024-06-14T15:32:36.649Z,english_115.wav,0,0,578,20,3,Chinese,f,8,0.8,-32.93332061,0.392349
QMH,47,0,2024-06-14T15:32:36.649Z,english_115.wav,0,0,578,20,3,Chinese,f,9,0.9,74.83402321,1.84542686
QMH,47,0,2024-06-14T15:32:36.649Z,english_115.wav,0,0,578,20,3,Chinese,f,10,1,-11.65316277,0.75053433
QMH,47,0,2024-06-14T15:32:36.649Z,english_115.wav,0,0,578,20,3,Chinese,f,11,1.09391667,-63.92247639,1.42014848
QMH,48,0,2024-06-14T15:32:36.649Z,english_778.wav,0,0,329,20,3,Chinese,f,0,0,82.0288253,1.66099758
QMH,48,0,2024-06-14T15:32:36.649Z,english_778.wav,0,0,329,20,3,Chinese,f,1,0.1,-20.3816384,0.6394452
QMH,48,0,2024-06-14T15:32:36.649Z,english_778.wav,0,0,329,20,3,Chinese,f,2,0.2,20.1187508,1.73198521
QMH,48,0,2024-06-14T15:32:36.649Z,english_778.wav,0,0,329,20,3,Chinese,f,3,0.3,-67.3840406,1.63414449
QMH,48,0,2024-06-14T15:32:36.649Z,english_778.wav,0,0,329,20,3,Chinese,f,4,0.4,41.792495,0.91528965
QMH,48,0,2024-06-14T15:32:36.649Z,english_778.wav,0,0,329,20,3,Chinese,f,5,0.5,69.2908492,1.84340145
QMH,48,0,2024-06-14T15:32:36.649Z,english_778.wav,0,0,329,20,3,Chinese,f,6,0.6,-41.9809295,0.70098427
QMH,48,0,2024-06-14T15:32:36.649Z,english_778.wav,0,0,329,20,3,Chinese,f,7,0.7,93.0761369,1.59677801
QMH,48,0,2024-06-14T15:32:36.649Z,english_778.wav,0,0,329,20,3,Chinese,f,8,0.8,4.08814008,0.75626513
QMH,48,0,2024-06-14T15:32:36.649Z,english_778.wav,0,0,329,20,3,Chinese,f,9,0.9,-0.0375531871,1.05104073
QMH,48,0,2024-06-14T15:32:36.649Z,english_778.wav,0,0,329,20,3,Chinese,f,10,1,-79.0647822,0.42401001
QMH,48,0,2024-06-14T15:32:36.649Z,english_778.wav,0,0,329,20,3,Chinese,f,11,1.09391667,-53.0664028,1.42241932
QMH,49,0,2024-06-14T15:32:36.649Z,english_158.wav,0,0,946,20,3,Chinese,f,0,0,41.17268037,0.12012262
QMH,49,0,2024-06-14T15:32:36.649Z,english_158.wav,0,0,946,20,3,Chinese,f,1,0.1,39.43055099,1.02753784
QMH,49,0,2024-06-14T15:32:36.649Z,english_158.wav,0,0,946,20,3,Chinese,f,2,0.2,18.17307199,1.36643436
QMH,49,0,2024-06-14T15:32:36.649Z,english_158.wav,0,0,946,20,3,Chinese,f,3,0.3,2.1288608,1.78617089
QMH,49,0,2024-06-14T15:32:36.649Z,english_158.wav,0,0,946,20,3,Chinese,f,4,0.4,14.16848378,0.39713516
QMH,49,0,2024-06-14T15:32:36.649Z,english_158.wav,0,0,946,20,3,Chinese,f,5,0.5,-31.43837624,1.5313636
QMH,49,0,2024-06-14T15:32:36.649Z,english_158.wav,0,0,946,20,3,Chinese,f,6,0.6,46.37345031,1.20655285
QMH,49,0,2024-06-14T15:32:36.649Z,english_158.wav,0,0,946,20,3,Chinese,f,7,0.7,58.75582509,0.16880901
QMH,49,0,2024-06-14T15:32:36.649Z,english_158.wav,0,0,946,20,3,Chinese,f,8,0.8,23.78862253,0.30409425
QMH,49,0,2024-06-14T15:32:36.649Z,english_158.wav,0,0,946,20,3,Chinese,f,9,0.9,-4.2911947,1.28329421
QMH,49,0,2024-06-14T15:32:36.649Z,english_158.wav,0,0,946,20,3,Chinese,f,10,1,-43.40891041,0.17704904
QMH,49,0,2024-06-14T15:32:36.649Z,english_158.wav,0,0,946,20,3,Chinese,f,11,1.09391667,16.25522825,0.66899263
QMH,50,1,2024-06-14T15:32:36.649Z,english_724.wav,0,0,908,20,3,Chinese,f,0,0,-56.76875747,1.98134375
QMH,50,1,2024-06-14T15:32:36.649Z,english_724.wav,0,0,908,20,3,Chinese,f,1,0.1,-86.21406354,1.3755847
QMH,50,1,2024-06-14T15:32:36.649Z,english_724.wav,0,0,908,20,3,Chinese,f,2,0.2,60.18994207,0.59510503
QMH,50,1,2024-06-14T15:32:36.649Z,english_724.wav,0,0,908,20,3,Chinese,f,3,0.3,-73.18576328,0.94085573
QMH,50,1,2024-06-14T15:32:36.649Z,english_724.wav,0,0,908,20,3,Chinese,f,4,0.4,9.02898682,1.58537713
QMH,50,1,2024-06-14T15:32:36.649Z,english_724.wav,0,0,908,20,3,Chinese,f,5,0.5,0.09152752,0.37644638
QMH,50,1,2024-06-14T15:32:36.649Z,english_724.wav,0,0,908,20,3,Chinese,f,6,0.6,-45.20734969,0.99166811
QMH,50,1,2024-06-14T15:32:36.649Z,english_724.wav,0,0,908,20,3,Chinese,f,7,0.7,41.14572905,0.69217337
QMH,50,1,2024-06-14T15:32:36.649Z,english_724.wav,0,0,908,20,3,Chinese,f,8,0.8,-8.90641818,0.6776497
QMH,50,1,2024-06-14T15:32:36.649Z,english_724.wav,0,0,908,20,3,Chinese,f,9,0.9,16.12067161,0.10142147
QMH,50,1,2024-06-14T15:32:36.649Z,english_724.wav,0,0,908,20,3,Chinese,f,10,1,72.53679682,1.80502318
QMH,50,1,2024-06-14T15:32:36.649Z,english_724.wav,0,0,908,20,3,Chinese,f,11,1.09391667,17.69672556,1.15790189
QMH,51,1,2024-06-14T15:32:36.649Z,english_845.wav,0,1,419,20,3,Chinese,f,0,0,-61.18892781,1.55957949
QMH,51,1,2024-06-14T15:32:36.649Z,english_845.wav,0,1,419,20,3,Chinese,f,1,0.1,8.4641668,1.05534156
QMH,51,1,2024-06-14T15:32:36.649Z,english_845.wav,0,1,419,20,3,Chinese,f,2,0.2,0.84088791,0.93552033
QMH,51,1,2024-06-14T15:32:36.649Z,english_845.wav,0,1,419,20,3,Chinese,f,3,0.3,-9.8412312,0.24777776
QMH,51,1,2024-06-14T15:32:36.649Z,english_845.wav,0,1,419,20,3,Chinese,f,4,0.4,-21.11860301,1.606596
QMH,51,1,2024-06-14T15:32:36.649Z,english_845.wav,0,1,419,20,3,Chinese,f,5,0.5,34.07912785,0.0797637
QMH,51,1,2024-06-14T15:32:36.649Z,english_845.wav,0,1,419,20,3,Chinese,f,6,0.6,64.64422996,1.39069449
QMH,51,1,2024-06-14T15:32:36.649Z,english_845.wav,0,1,419,20,3,Chinese,f,7,0.7,81.5282496,1.71426298
QMH,51,1,2024-06-14T15:32:36.649Z,english_845.wav,0,1,419,20,3,Chinese,f,8,0.8,-41.49609234,1.5257375
QMH,51,1,2024-06-14T15:32:36.649Z,english_845.wav,0,1,419,20,3,Chinese,f,9,0.9,-61.24692635,1.70112136
QMH,51,1,2024-06-14T15:32:36.649Z,english_845.wav,0,1,419,20,3,Chinese,f,10,1,-26.75626129,1.79204809
QMH,51,1,2024-06-14T15:32:36.649Z,english_845.wav,0,1,419,20,3,Chinese,f,11,1.09391667,-16.60910859,0.33711634
QMH,52,1,2024-06-14T15:32:36.649Z,english_616.wav,0,1,257,20,3,Chinese,f,0,0,-58.43899918,1.31887323
QMH,52,1,2024-06-14T15:32:36.649Z,english_616.wav,0,1,257,20,3,Chinese,f,1,0.1,91.54551443,1.19326366
QMH,52,1,2024-06-14T15:32:36.649Z,english_616.wav,0,1,257,20,3,Chinese,f,2,0.2,-72.76331238,1.15507306
QMH,52,1,2024-06-14T15:32:36.649Z,english_616.wav,0,1,257,20,3,Chinese,f,3,0.3,98.66983591,1.15408068
QMH,52,1,2024-06-14T15:32:36.649Z,english_616.wav,0,1,257,20,3,Chinese,f,4,0.4,30.89695447,1.80966351
QMH,52,1,2024-06-14T15:32:36.649Z,english_616.wav,0,1,257,20,3,Chinese,f,5,0.5,95.21036015,0.8568389
QMH,52,1,2024-06-14T15:32:36.649Z,english_616.wav,0,1,257,20,3,Chinese,f,6,0.6,38.34251154,0.52507159
QMH,52,1,2024-06-14T15:32:36.649Z,english_616.wav,0,1,257,20,3,Chinese,f,7,0.7,53.37022057,1.38987598
QMH,52,1,2024-06-14T15:32:36.649Z,english_616.wav,0,1,257,20,3,Chinese,f,8,0.8,64.27718414,1.91003383
QMH,52,1,2024-06-14T15:32:36.649Z,english_616.wav,0,1,257,20,3,Chinese,f,9,0.9,-47.15745764,1.62420327
QMH,52,1,2024-06-14T15:32:36.649Z,english_616.wav,0,1,257,20,3,Chinese,f,10,1,61.31789033,1.95831122
QMH,52,1,2024-06-14T15:32:36.649Z,english_616.wav,0,1,257,20,3,Chinese,f,11,1.09391667,-28.29544228,0.95794745
QMH,53,1,2024-06-14T15:32:36.649Z,english_805.wav,0,0,417,20,3,Chinese,f,0,0,19.24000096,0.52175854
QMH,53,1,2024-06-14T15:32:36.649Z,english_805.wav,0,0,417,20,3,Chinese,f,1,0.1,-57.56428934,1.45107426
QMH,53,1,2024-06-14T15:32:36.649Z,english_805.wav,0,0,417,20,3,Chinese,f,2,0.2,-17.74165003,1.66296684
QMH,53,1,2024-06-14T15:32:36.649Z,english_805.wav,0,0,417,20,3,Chinese,f,3,0.3,94.45114709,1.339528
QMH,53,1,2024-06-14T15:32:36.649Z,english_805.wav,0,0,417,20,3,Chinese,f,4,0.4,58.80414928,1.45905309
QMH,53,1,2024-06-14T15:32:36.649Z,english_805.wav,0,0,417,20,3,Chinese,f,5,0.5,15.95265091,0.95701688
QMH,53,1,2024-06-14T15:32:36.649Z,english_805.wav,0,0,417,20,3,Chinese,f,6,0.6,-64.01744173,0.10004415
QMH,53,1,2024-06-14T15:32:36.649Z,english_805.wav,0,0,417,20,3,Chinese,f,7,0.7,-39.81720589,1.33408917
QMH,53,1,2024-06-14T15:32:36.649Z,english_805.wav,0,0,417,20,3,Chinese,f,8,0.8,48.58222908,0.26158276
QMH,53,1,2024-06-14T15:32:36.649Z,english_805.wav,0,0,417,20,3,Chinese,f,9,0.9,79.1348353,0.78316965
QMH,53,1,2024-06-14T15:32:36.649Z,english_805.wav,0,0,417,20,3,Chinese,f,10,1,66.03274921,0.77046412
QMH,53,1,2024-06-14T15:32:36.649Z,english_805.wav,0,0,417,20,3,Chinese,f,11,1.09391667,-37.34721406,0.38567889
QMH,54,1,2024-06-14T15:32:36.649Z,english_975.wav,0,1,645,20,3,Chinese,f,0,0,-53.40155937,0.28931867
QMH,54,1,2024-06-14T15:32:36.649Z,english_975.wav,0,1,645,20,3,Chinese,f,1,0.1,-46.7591449,0.26014098
QMH,54,1,2024-06-14T15:32:36.649Z,english_975.wav,0,1,645,20,3,Chinese,f,2,0.2,-39.94858347,0.60863929
QMH,54,1,2024-06-14T15:32:36.649Z,english_975.wav,0,1,645,20,3,Chinese,f,3,0.3,4.12816175,1.96061536
QMH,54,1,2024-06-14T15:32:36.649Z,english_975.wav,0,1,645,20,3,Chinese,f,4,0.4,83.44282051,0.74428813
QMH,54,1,2024-06-14T15:32:36.649Z,english_975.wav,0,1,645,20,3,Chinese,f,5,0.5,20.33193784,1.01644474
QMH,54,1,2024-06-14T15:32:36.649Z,english_975.wav,0,1,645,20,3,Chinese,f,6,0.6,-92.84690604,0.21290726
QMH,54,1,2024-06-14T15:32:36.649Z,english_975.wav,0,1,645,20,3,Chinese,f,7,0.7,69.62119896,0.78909982
QMH,54,1,2024-06-14T15:32:36.649Z,english_975.wav,0,1,645,20,3,Chinese,f,8,0.8,-27.30637844,1.61436772
QMH,54,1,2024-06-14T15:32:36.649Z,english_975.wav,0,1,645,20,3,Chinese,f,9,0.9,71.11664605,0.92754286
QMH,54,1,2024-06-14T15:32:36.649Z,english_975.wav,0,1,645,20,3,Chinese,f,10,1,-25.28708081,1.92956557
QMH,54,1,2024-06-14T15:32:36.649Z,english_975.wav,0,1,645,20,3,Chinese,f,11,1.09391667,-18.06651804,1.66494484
QMH,55,1,2024-06-14T15:32:36.649Z,english_327.wav,0,1,550,20,3,Chinese,f,0,0,68.47046609,1.54763433
QMH,55,1,2024-06-14T15:32:36.649Z,english_327.wav,0,1,550,20,3,Chinese,f,1,0.1,85.76832326,1.83635771
QMH,55,1,2024-06-14T15:32:36.649Z,english_327.wav,0,1,550,20,3,Chinese,f,2,0.2,-75.98339762,0.3050113
QMH,55,1,2024-06-14T15:32:36.649Z,english_327.wav,0,1,550,20,3,Chinese,f,3,0.3,74.12796235,0.70474203
QMH,55,1,2024-06-14T15:32:36.649Z,english_327.wav,0,1,550,20,3,Chinese,f,4,0.4,11.46376172,0.8224078
QMH,55,1,2024-06-14T15:32:36.649Z,english_327.wav,0,1,550,20,3,Chinese,f,5,0.5,-5.50560149,0.00526041
QMH,55,1,2024-06-14T15:32:36.649Z,english_327.wav,0,1,550,20,3,Chinese,f,6,0.6,27.1504605,0.35213553
QMH,55,1,2024-06-14T15:32:36.649Z,english_327.wav,0,1,550,20,3,Chinese,f,7,0.7,27.2911911,1.7713752
QMH,55,1,2024-06-14T15:32:36.649Z,english_327.wav,0,1,550,20,3,Chinese,f,8,0.8,-20.36547399,1.08380037
QMH,55,1,2024-06-14T15:32:36.649Z,english_327.wav,0,1,550,20,3,Chinese,f,9,0.9,-51.25849452,0.55113913
QMH,55,1,2024-06-14T15:32:36.649Z,english_327.wav,0,1,550,20,3,Chinese,f,10,1,79.11844333,0.59854608
QMH,55,1,2024-06-14T15:32:36.649Z,english_327.wav,0,1,550,20,3,Chinese,f,11,1.09391667,-53.98607147,1.65860026
QMH,56,1,2024-06-14T15:32:36.649Z,english_906.wav,0,0,475,20,3,Chinese,f,0,0,64.42168111,1.18257449
QMH,56,1,2024-06-14T15:32:36.649Z,english_906.wav,0,0,475,20,3,Chinese,f,1,0.1,-75.32695158,0.45696721
QMH,56,1,2024-06-14T15:32:36.649Z,english_906.wav,0,0,475,20,3,Chinese,f,2,0.2,-55.78357421,1.62263234
QMH,56,1,2024-06-14T15:32:36.649Z,english_906.wav,0,0,475,20,3,Chinese,f,3,0.3,26.12850677,0.83346952
QMH,56,1,2024-06-14T15:32:36.649Z,english_906.wav,0,0,475,20,3,Chinese,f,4,0.4,29.10012221,0.76465534
QMH,56,1,2024-06-14T15:32:36.649Z,english_906.wav,0,0,475,20,3,Chinese,f,5,0.5,7.95357938,1.66892635
QMH,56,1,2024-06-14T15:32:36.649Z,english_906.wav,0,0,475,20,3,Chinese,f,6,0.6,-42.71112843,1.28815297
QMH,56,1,2024-06-14T15:32:36.649Z,english_906.wav,0,0,475,20,3,Chinese,f,7,0.7,-60.64092572,1.91632775
QMH,56,1,2024-06-14T15:32:36.649Z,english_906.wav,0,0,475,20,3,Chinese,f,8,0.8,-45.42100425,1.00822189
QMH,56,1,2024-06-14T15:32:36.649Z,english_906.wav,0,0,475,20,3,Chinese,f,9,0.9,59.9641991,0.39736855
QMH,56,1,2024-06-14T15:32:36.649Z,english_906.wav,0,0,475,20,3,Chinese,f,10,1,50.66532668,0.09371369
QMH,56,1,2024-06-14T15:32:36.649Z,english_906.wav,0,0,475,20,3,Chinese,f,11,1.09391667,-51.29146387,1.05932382
QMH,57,1,2024-06-14T15:32:36.649Z,english_735.wav,0,1,631,20,3,Chinese,f,0,0,45.17443614,1.05701846
QMH,57,1,2024-06-14T15:32:36.649Z,english_735.wav,0,1,631,20,3,Chinese,f,1,0.1,47.16225486,0.44895522
QMH,57,1,2024-06-14T15:32:36.649Z,english_735.wav,0,1,631,20,3,Chinese,f,2,0.2,15.3532987,0.19506386
QMH,57,1,2024-06-14T15:32:36.649Z,english_735.wav,0,1,631,20,3,Chinese,f,3,0.3,-43.81061568,0.99480529
QMH,57,1,2024-06-14T15:32:36.649Z,english_735.wav,0,1,631,20,3,Chinese,f,4,0.4,83.17284614,0.46252356
QMH,57,1,2024-06-14T15:32:36.649Z,english_735.wav,0,1,631,20,3,Chinese,f,5,0.5,60.7769414,1.45908064
QMH,57,1,2024-06-14T15:32:36.649Z,english_735.wav,0,1,631,20,3,Chinese,f,6,0.6,-66.30411683,0.86428301
QMH,57,1,2024-06-14T15:32:36.649Z,english_735.wav,0,1,631,20,3,Chinese,f,7,0.7,76.89695455,1.14188193
QMH,57,1,2024-06-14T15:32:36.649Z,english_735.wav,0,1,631,20,3,Chinese,f,8,0.8,67.53178197,1.15486393
QMH,57,1,2024-06-14T15:32:36.649Z,english_735.wav,0,1,631,20,3,Chinese,f,9,0.9,52.8137554,1.55511006
QMH,57,1,2024-06-14T15:32:36.649Z,english_735.wav,0,1,631,20,3,Chinese,f,10,1,-86.58423276,0.92101672
QMH,57,1,2024-06-14T15:32:36.649Z,english_735.wav,0,1,631,20,3,Chinese,f,11,1.09391667,98.32439456,1.0777974
QMH,58,1,2024-06-14T15:32:36.649Z,english_953.wav,0,1,49683,20,3,Chinese,f,0,0,66.99743889,1.15286604
QMH,58,1,2024-06-14T15:32:36.649Z,english_953.wav,0,1,49683,20,3,Chinese,f,1,0.1,-76.84252631,1.84100888
QMH,58,1,2024-06-14T15:32:36.649Z,english_953.wav,0,1,49683,20,3,Chinese,f,2,0.2,-45.49309493,0.29896559
QMH,58,1,2024-06-14T15:32:36.649Z,english_953.wav,0,1,49683,20,3,Chinese,f,3,0.3,55.46461894,0.47017465
QMH,58,1,2024-06-14T15:32:36.649Z,english_953.wav,0,1,49683,20,3,Chinese,f,4,0.4,81.99201124,0.15248902
QMH,58,1,2024-06-14T15:32:36.649Z,english_953.wav,0,1,49683,20,3,Chinese,f,5,0.5,1.34607331,1.13290225
QMH,58,1,2024-06-14T15:32:36.649Z,english_953.wav,0,1,49683,20,3,Chinese,f,6,0.6,50.45029952,0.34595451
QMH,58,1,2024-06-14T15:32:36.649Z,english_953.wav,0,1,49683,20,3,Chinese,f,7,0.7,74.64893983,0.44244875
QMH,58,1,2024-06-14T15:32:36.649Z,english_953.wav,0,1,49683,20,3,Chinese,f,8,0.8,26.00448077,0.8076701
QMH,58,1,2024-06-14T15:32:36.649Z,english_953.wav,0,1,49683,20,3,Chinese,f,9,0.9,-99.39894728,1.93347558
QMH,58,1,2024-06-14T15:32:36.649Z,english_953.wav,0,1,49683,20,3,Chinese,f,10,1,-16.71063882,1.69365872
QMH,58,1,2024-06-14T15:32:36.649Z,english_953.wav,0,1,49683,20,3,Chinese,f,11,1.09391667,53.60095231,1.16220812
QMH,59,1,2024-06-14T15:32:36.649Z,english_499.wav,0,0,959,20,3,Chinese,f,0,0,-7.75302897,0.29368166
QMH,59,1,2024-06-14T15:32:36.649Z,english_499.wav,0,0,959,20,3,Chinese,f,1,0.1,23.88086762,1.58141682
QMH,59,1,2024-06-14T15:32:36.649Z,english_499.wav,0,0,959,20,3,Chinese,f,2,0.2,-0.54854112,0.68322719
QMH,59,1,2024-06-14T15:32:36.649Z,english_499.wav,0,0,959,20,3,Chinese,f,3,0.3,11.38417001,1.0607803
QMH,59,1,2024-06-14T15:32:36.649Z,english_499.wav,0,0,959,20,3,Chinese,f,4,0.4,76.48373601,0.5459371
QMH,59,1,2024-06-14T15:32:36.649Z,english_499.wav,0,0,959,20,3,Chinese,f,5,0.5,34.68075028,1.82829661
QMH,59,1,2024-06-14T15:32:36.649Z,english_499.wav,0,0,959,20,3,Chinese,f,6,0.6,-14.34298834,1.23009433
QMH,59,1,2024-06-14T15:32:36.649Z,english_499.wav,0,0,959,20,3,Chinese,f,7,0.7,26.82043511,1.38131853
QMH,59,1,2024-06-14T15:32:36.649Z,english_499.wav,0,0,959,20,3,Chinese,f,8,0.8,60.32593039,0.45099226
QMH,59,1,2024-06-14T15:32:36.649Z,english_499.wav,0,0,959,20,3,Chinese,f,9,0.9,-38.40765739,1.79672484
QMH,59,1,2024-06-14T15:32:36.649Z,english_499.wav,0,0,959,20,3,Chinese,f,10,1,7.55243951,0.11050545
QMH,59,1,2024-06-14T15:32:36.649Z,english_499.wav,0,0,959,20,3,Chinese,f,11,1.09391667,-96.29085545,0.98124995
QMH,60,1,2024-06-14T15:32:36.649Z,english_104.wav,0,0,499,20,3,Chinese,f,0,0,-44.36265311,0.57549521
QMH,60,1,2024-06-14T15:32:36.649Z,english_104.wav,0,0,499,20,3,Chinese,f,1,0.1,-54.18444724,1.28133407
QMH,60,1,2024-06-14T15:32:36.649Z,english_104.wav,0,0,499,20,3,Chinese,f,2,0.2,85.0725802,1.08596543
QMH,60,1,2024-06-14T15:32:36.649Z,english_104.wav,0,0,499,20,3,Chinese,f,3,0.3,26.58924477,1.95916684
QMH,60,1,2024-06-14T15:32:36.649Z,english_104.wav,0,0,499,20,3,Chinese,f,4,0.4,-12.96639675,0.37544414
QMH,60,1,2024-06-14T15:32:36.649Z,english_104.wav,0,0,499,20,3,Chinese,f,5,0.5,-66.5599203,0.78577569
QMH,60,1,2024-06-14T15:32:36.649Z,english_104.wav,0,0,499,20,3,Chinese,f,6,0.6,21.67855603,0.65129956
QMH,60,1,2024-06-14T15:32:36.649Z,english_104.wav,0,0,499,20,3,Chinese,f,7,0.7,-15.50031997,0.77672945
QMH,60,1,2024-06-14T15:32:36.649Z,english_104.wav,0,0,499,20,3,Chinese,f,8,0.8,-68.33822385,0.45937825
QMH,60,1,2024-06-14T15:32:36.649Z,english_104.wav,0,0,499,20,3,Chinese,f,9,0.9,47.23398252,0.91963539
QMH,60,1,2024-06-14T15:32:36.649Z,english_104.wav,0,0,499,20,3,Chinese,f,10,1,-52.36694839,0.17538168
QMH,60,1,2024-06-14T15:32:36.649Z,english_104.wav,0,0,499,20,3,Chinese,f,11,1.09391667,-55.61838026,1.965861
QMH,61,1,2024-06-14T15:32:36.649Z,english_758.wav,0,1,754,20,3,Chinese,f,0,0,44.67997232,1.19309781
QMH,61,1,2024-06-14T15:32:36.649Z,english_758.wav,0,1,754,20,3,Chinese,f,1,0.1,27.10099403,0.27221696
QMH,61,1,2024-06-14T15:32:36.649Z,english_758.wav,0,1,754,20,3,Chinese,f,2,0.2,-48.30493583,0.58591156
QMH,61,1,2024-06-14T15:32:36.649Z,english_758.wav,0,1,754,20,3,Chinese,f,3,0.3,-73.5260898,1.06118241
QMH,61,1,2024-06-14T15:32:36.649Z,english_758.wav,0,1,754,20,3,Chinese,f,4,0.4,19.32057449,1.53382291
QMH,61,1,2024-06-14T15:32:36.649Z,english_758.wav,0,1,754,20,3,Chinese,f,5,0.5,-32.65273306,1.10934516
QMH,61,1,2024-06-14T15:32:36.649Z,english_758.wav,0,1,754,20,3,Chinese,f,6,0.6,-67.58997162,1.53621874
QMH,61,1,2024-06-14T15:32:36.649Z,english_758.wav,0,1,754,20,3,Chinese,f,7,0.7,-76.10184919,0.32907917
QMH,61,1,2024-06-14T15:32:36.649Z,english_758.wav,0,1,754,20,3,Chinese,f,8,0.8,55.20632284,0.47500698
QMH,61,1,2024-06-14T15:32:36.649Z,english_758.wav,0,1,754,20,3,Chinese,f,9,0.9,3.61347388,1.81944253
QMH,61,1,2024-06-14T15:32:36.649Z,english_758.wav,0,1,754,20,3,Chinese,f,10,1,-39.33689268,1.02148435
QMH,61,1,2024-06-14T15:32:36.649Z,english_758.wav,0,1,754,20,3,Chinese,f,11,1.09391667,44.43004874,0.12347796
QMH,62,1,2024-06-14T15:32:36.649Z,english_473.wav,0,0,611,20,3,Chinese,f,0,0,34.16652782,1.17233757
QMH,62,1,2024-06-14T15:32:36.649Z,english_473.wav,0,0,611,20,3,Chinese,f,1,0.1,-54.30241254,0.18073836
QMH,62,1,2024-06-14T15:32:36.649Z,english_473.wav,0,0,611,20,3,Chinese,f,2,0.2,68.49127604,0.50191646
QMH,62,1,2024-06-14T15:32:36.649Z,english_473.wav,0,0,611,20,3,Chinese,f,3,0.3,-13.36842793,1.67378041
QMH,62,1,2024-06-14T15:32:36.649Z,english_473.wav,0,0,611,20,3,Chinese,f,4,0.4,44.07944523,1.50905301
QMH,62,1,2024-06-14T15:32:36.649Z,english_473.wav,0,0,611,20,3,Chinese,f,5,0.5,-89.72603501,0.15702334
QMH,62,1,2024-06-14T15:32:36.649Z,english_473.wav,0,0,611,20,3,Chinese,f,6,0.6,-81.86028748,1.34472247
QMH,62,1,2024-06-14T15:32:36.649Z,english_473.wav,0,0,611,20,3,Chinese,f,7,0.7,-91.3095106,1.62088857
QMH,62,1,2024-06-14T15:32:36.649Z,english_473.wav,0,0,611,20,3,Chinese,f,8,0.8,98.81807411,0.94454058
QMH,62,1,2024-06-14T15:32:36.649Z,english_473.wav,0,0,611,20,3,Chinese,f,9,0.9,-68.88676759,0.56012654
QMH,62,1,2024-06-14T15:32:36.649Z,english_473.wav,0,0,611,20,3,Chinese,f,10,1,72.77796498,0.62880925
QMH,62,1,2024-06-14T15:32:36.649Z,english_473.wav,0,0,611,20,3,Chinese,f,11,1.09391667,55.96804174,1.11353678
QMH,63,1,2024-06-14T15:32:36.649Z,english_956.wav,0,0,515,20,3,Chinese,f,0,0,-69.56603744,1.25885793
QMH,63,1,2024-06-14T15:32:36.649Z,english_956.wav,0,0,515,20,3,Chinese,f,1,0.1,-25.37186141,1.06466306
QMH,63,1,2024-06-14T15:32:36.649Z,english_956.wav,0,0,515,20,3,Chinese,f,2,0.2,27.97650052,0.94194041
QMH,63,1,2024-06-14T15:32:36.649Z,english_956.wav,0,0,515,20,3,Chinese,f,3,0.3,-27.59550019,1.53569938
QMH,63,1,2024-06-14T15:32:36.649Z,english_956.wav,0,0,515,20,3,Chinese,f,4,0.4,-92.97950526,1.85243798
QMH,63,1,2024-06-14T15:32:36.649Z,english_956.wav,0,0,515,20,3,Chinese,f,5,0.5,38.52785923,1.85210152
QMH,63,1,2024-06-14T15:32:36.649Z,english_956.wav,0,0,515,20,3,Chinese,f,6,0.6,10.83790673,0.63562422
QMH,63,1,2024-06-14T15:32:36.649Z,english_956.wav,0,0,515,20,3,Chinese,f,7,0.7,-7.44647917,1.69096149
QMH,63,1,2024-06-14T15:32:36.649Z,english_956.wav,0,0,515,20,3,Chinese,f,8,0.8,21.12716208,0.44450575
QMH,63,1,2024-06-14T15:32:36.649Z,english_956.wav,0,0,515,20,3,Chinese,f,9,0.9,68.89451613,0.92187191
QMH,63,1,2024-06-14T15:32:36.649Z,english_956.wav,0,0,515,20,3,Chinese,f,10,1,40.53084536,1.63644611
QMH,63,1,2024-06-14T15:32:36.649Z,english_956.wav,0,0,515,20,3,Chinese,f,11,1.09391667,63.98453991,0.57157091
QMH,64,1,2024-06-14T15:32:36.649Z,english_894.wav,0,0,921,20,3,Chinese,f,0,0,-80.20723644,1.79346893
QMH,64,1,2024-06-14T15:32:36.649Z,english_894.wav,0,0,921,20,3,Chinese,f,1,0.1,70.63971402,0.36641107
QMH,64,1,2024-06-14T15:32:36.649Z,english_894.wav,0,0,921,20,3,Chinese,f,2,0.2,-37.49635732,1.22262179
QMH,64,1,2024-06-14T15:32:36.649Z,english_894.wav,0,0,921,20,3,Chinese,f,3,0.3,-83.65831032,1.81798895
QMH,64,1,2024-06-14T15:32:36.649Z,english_894.wav,0,0,921,20,3,Chinese,f,4,0.4,-33.74406965,0.98569015
QMH,64,1,2024-06-14T15:32:36.649Z,english_894.wav,0,0,921,20,3,Chinese,f,5,0.5,51.66171184,1.39342992
QMH,64,1,2024-06-14T15:32:36.649Z,english_894.wav,0,0,921,20,3,Chinese,f,6,0.6,19.47391611,1.02882877
QMH,64,1,2024-06-14T15:32:36.649Z,english_894.wav,0,0,921,20,3,Chinese,f,7,0.7,-13.53975377,0.49108551
QMH,64,1,2024-06-14T15:32:36.649Z,english_894.wav,0,0,921,20,3,Chinese,f,8,0.8,-20.28527638,0.73422482
QMH,64,1,2024-06-14T15:32:36.649Z,english_894.wav,0,0,921,20,3,Chinese,f,9,0.9,-1.05192851,1.80196554
QMH,64,1,2024-06-14T15:32:36.649Z,english_894.wav,0,0,921,20,3,Chinese,f,10,1,-21.57661458,0.14842719
QMH,64,1,2024-06-14T15:32:36.649Z,english_894.wav,0,0,921,20,3,Chinese,f,11,1.09391667,-6.12644826,0.9088618
QMH,65,1,2024-06-14T15:32:36.649Z,english_899.wav,0,0,519,20,3,Chinese,f,0,0,36.05043058,0.90588284
QMH,65,1,2024-06-14T15:32:36.649Z,english_899.wav,0,0,519,20,3,Chinese,f,1,0.1,33.3197066,1.60760833
QMH,65,1,2024-06-14T15:32:36.649Z,english_899.wav,0,0,519,20,3,Chinese,f,2,0.2,-89.01295916,1.45467369
QMH,65,1,2024-06-14T15:32:36.649Z,english_899.wav,0,0,519,20,3,Chinese,f,3,0.3,98.52221139,0.4019209
QMH,65,1,2024-06-14T15:32:36.649Z,english_899.wav,0,0,519,20,3,Chinese,f,4,0.4,-46.63657868,1.10920818
QMH,65,1,2024-06-14T15:32:36.649Z,english_899.wav,0,0,519,20,3,Chinese,f,5,0.5,-65.65669191,1.04007942
QMH,65,1,2024-06-14T15:32:36.649Z,english_899.wav,0,0,519,20,3,Chinese,f,6,0.6,76.90163594,0.20562094
QMH,65,1,2024-06-14T15:32:36.649Z,english_899.wav,0,0,519,20,3,Chinese,f,7,0.7,36.98286823,0.26673383
QMH,65,1,2024-06-14T15:32:36.649Z,english_899.wav,0,0,519,20,3,Chinese,f,8,0.8,58.54417199,0.17186704
QMH,65,1,2024-06-14T15:32:36.649Z,english_899.wav,0,0,519,20,3,Chinese,f,9,0.9,37.91895182,1.28815156
QMH,65,1,2024-06-14T15:32:36.649Z,english_899.wav,0,0,519,20,3,Chinese,f,10,1,-84.2401269,0.03412997
QMH,65,1,2024-06-14T15:32:36.649Z,english_899.wav,0,0,519,20,3,Chinese,f,11,1.09391667,-3.10665722,1.51688145
QMH,66,1,2024-06-14T15:32:36.649Z,english_138.wav,0,0,647,20,3,Chinese,f,0,0,84.66208912,1.51830246
QMH,66,1,2024-06-14T15:32:36.649Z,english_138.wav,0,0,647,20,3,Chinese,f,1,0.1,-96.9061077,0.02156416
QMH,66,1,2024-06-14T15:32:36.649Z,english_138.wav,0,0,647,20,3,Chinese,f,2,0.2,56.17770157,1.9703834
QMH,66,1,2024-06-14T15:32:36.649Z,english_138.wav,0,0,647,20,3,Chinese,f,3,0.3,-78.07946429,1.25545273
QMH,66,1,2024-06-14T15:32:36.649Z,english_138.wav,0,0,647,20,3,Chinese,f,4,0.4,91.20181194,0.91568969
QMH,66,1,2024-06-14T15:32:36.649Z,english_138.wav,0,0,647,20,3,Chinese,f,5,0.5,-30.87660198,1.83228794
QMH,66,1,2024-06-14T15:32:36.649Z,english_138.wav,0,0,647,20,3,Chinese,f,6,0.6,27.3117693,1.04000857
QMH,66,1,2024-06-14T15:32:36.649Z,english_138.wav,0,0,647,20,3,Chinese,f,7,0.7,-99.12692265,1.75318047
QMH,66,1,2024-06-14T15:32:36.649Z,english_138.wav,0,0,647,20,3,Chinese,f,8,0.8,-51.46520236,0.69204702
QMH,66,1,2024-06-14T15:32:36.649Z,english_138.wav,0,0,647,20,3,Chinese,f,9,0.9,-3.34321361,0.65368484
QMH,66,1,2024-06-14T15:32:36.649Z,english_138.wav,0,0,647,20,3,Chinese,f,10,1,-7.25861447,0.00684889
QMH,66,1,2024-06-14T15:32:36.649Z,english_138.wav,0,0,647,20,3,Chinese,f,11,1.09391667,-2.49487658,0.43470638
QMH,67,1,2024-06-14T15:32:36.649Z,english_857.wav,0,0,663,20,3,Chinese,f,0,0,-56.93168928,1.92395656
QMH,67,1,2024-06-14T15:32:36.649Z,english_857.wav,0,0,663,20,3,Chinese,f,1,0.1,-40.57515649,1.41156549
QMH,67,1,2024-06-14T15:32:36.649Z,english_857.wav,0,0,663,20,3,Chinese,f,2,0.2,-26.26283105,0.14185194
QMH,67,1,2024-06-14T15:32:36.649Z,english_857.wav,0,0,663,20,3,Chinese,f,3,0.3,-49.62797955,1.1985334
QMH,67,1,2024-06-14T15:32:36.649Z,english_857.wav,0,0,663,20,3,Chinese,f,4,0.4,47.07146778,0.83326814
QMH,67,1,2024-06-14T15:32:36.649Z,english_857.wav,0,0,663,20,3,Chinese,f,5,0.5,-96.41882062,0.71224123
QMH,67,1,2024-06-14T15:32:36.649Z,english_857.wav,0,0,663,20,3,Chinese,f,6,0.6,63.09662026,1.58040322
QMH,67,1,2024-06-14T15:32:36.649Z,english_857.wav,0,0,663,20,3,Chinese,f,7,0.7,98.67053018,1.02327595
QMH,67,1,2024-06-14T15:32:36.649Z,english_857.wav,0,0,663,20,3,Chinese,f,8,0.8,-56.85749065,1.48703987
QMH,67,1,2024-06-14T15:32:36.649Z,english_857.wav,0,0,663,20,3,Chinese,f,9,0.9,-18.03690135,0.70290333
QMH,67,1,2024-06-14T15:32:36.649Z,english_857.wav,0,0,663,20,3,Chinese,f,10,1,52.13097753,0.53460392
QMH,67,1,2024-06-14T15:32:36.649Z,english_857.wav,0,0,663,20,3,Chinese,f,11,1.09391667,52.54650928,1.10851945
QMH,68,1,2024-06-14T15:32:36.649Z,english_803.wav,0,1,1147,20,3,Chinese,f,0,0,-87.73830572,0.85344372
QMH,68,1,2024-06-14T15:32:36.649Z,english_803.wav,0,1,1147,20,3,Chinese,f,1,0.1,-15.08646711,1.55927117
QMH,68,1,2024-06-14T15:32:36.649Z,english_803.wav,0,1,1147,20,3,Chinese,f,2,0.2,-93.06982521,1.70131734
QMH,68,1,2024-06-14T15:32:36.649Z,english_803.wav,0,1,1147,20,3,Chinese,f,3,0.3,-69.48431994,0.94684337
QMH,68,1,2024-06-14T15:32:36.649Z,english_803.wav,0,1,1147,20,3,Chinese,f,4,0.4,66.11466902,1.98181189
QMH,68,1,2024-06-14T15:32:36.649Z,english_803.wav,0,1,1147,20,3,Chinese,f,5,0.5,9.32273235,0.71685289
QMH,68,1,2024-06-14T15:32:36.649Z,english_803.wav,0,1,1147,20,3,Chinese,f,6,0.6,66.48896901,0.68582038
QMH,68,1,2024-06-14T15:32:36.649Z,english_803.wav,0,1,1147,20,3,Chinese,f,7,0.7,-66.59180882,0.52787947
QMH,68,1,2024-06-14T15:32:36.649Z,english_803.wav,0,1,1147,20,3,Chinese,f,8,0.8,43.6326205,1.2789965
QMH,68,1,2024-06-14T15:32:36.649Z,english_803.wav,0,1,1147,20,3,Chinese,f,9,0.9,-52.46264607,1.18929342
QMH,68,1,2024-06-14T15:32:36.649Z,english_803.wav,0,1,1147,20,3,Chinese,f,10,1,47.80537721,1.0745206
QMH,68,1,2024-06-14T15:32:36.649Z,english_803.wav,0,1,1147,20,3,Chinese,f,11,1.09391667,7.91826016,1.28256899
QMH,69,1,2024-06-14T15:32:36.649Z,english_713.wav,0,1,2450,20,3,Chinese,f,0,0,-93.47933458,1.62613831
QMH,69,1,2024-06-14T15:32:36.649Z,english_713.wav,0,1,2450,20,3,Chinese,f,1,0.1,17.56811932,0.15624323
QMH,69,1,2024-06-14T15:32:36.649Z,english_713.wav,0,1,2450,20,3,Chinese,f,2,0.2,35.67998285,1.16642221
QMH,69,1,2024-06-14T15:32:36.649Z,english_713.wav,0,1,2450,20,3,Chinese,f,3,0.3,22.32245501,1.85687669
QMH,69,1,2024-06-14T15:32:36.649Z,english_713.wav,0,1,2450,20,3,Chinese,f,4,0.4,-55.00810372,0.77296433
QMH,69,1,2024-06-14T15:32:36.649Z,english_713.wav,0,1,2450,20,3,Chinese,f,5,0.5,-25.94753581,0.17905086
QMH,69,1,2024-06-14T15:32:36.649Z,english_713.wav,0,1,2450,20,3,Chinese,f,6,0.6,12.36521929,0.48201302
QMH,69,1,2024-06-14T15:32:36.649Z,english_713.wav,0,1,2450,20,3,Chinese,f,7,0.7,42.68303221,0.74996995
QMH,69,1,2024-06-14T15:32:36.649Z,english_713.wav,0,1,2450,20,3,Chinese,f,8,0.8,68.77442649,1.90885108
QMH,69,1,2024-06-14T15:32:36.649Z,english_713.wav,0,1,2450,20,3,Chinese,f,9,0.9,-39.13144034,0.17419233
QMH,69,1,2024-06-14T15:32:36.649Z,english_713.wav,0,1,2450,20,3,Chinese,f,10,1,48.51746803,1.84801942
QMH,69,1,2024-06-14T15:32:36.649Z,english_713.wav,0,1,2450,20,3,Chinese,f,11,1.09391667,-19.71329918,0.87144157
QMH,70,1,2024-06-14T15:32:36.649Z,english_516.wav,0,0,1009,20,3,Chinese,f,0,0,65.27468838,0.72548384
QMH,70,1,2024-06-14T15:32:36.649Z,english_516.wav,0,0,1009,20,3,Chinese,f,1,0.1,28.38678538,1.78002716
QMH,70,1,2024-06-14T15:32:36.649Z,english_516.wav,0,0,1009,20,3,Chinese,f,2,0.2,-16.29491298,1.52601333
QMH,70,1,2024-06-14T15:32:36.649Z,english_516.wav,0,0,1009,20,3,Chinese,f,3,0.3,29.01072094,0.22704286
QMH,70,1,2024-06-14T15:32:36.649Z,english_516.wav,0,0,1009,20,3,Chinese,f,4,0.4,-47.32267929,1.00592853
QMH,70,1,2024-06-14T15:32:36.649Z,english_516.wav,0,0,1009,20,3,Chinese,f,5,0.5,-47.60418852,0.3740999
QMH,70,1,2024-06-14T15:32:36.649Z,english_516.wav,0,0,1009,20,3,Chinese,f,6,0.6,19.91194594,1.89933748
QMH,70,1,2024-06-14T15:32:36.649Z,english_516.wav,0,0,1009,20,3,Chinese,f,7,0.7,-28.9289623,0.62297075
QMH,70,1,2024-06-14T15:32:36.649Z,english_516.wav,0,0,1009,20,3,Chinese,f,8,0.8,5.6204603,1.26182982
QMH,70,1,2024-06-14T15:32:36.649Z,english_516.wav,0,0,1009,20,3,Chinese,f,9,0.9,55.47321842,0.11401837
QMH,70,1,2024-06-14T15:32:36.649Z,english_516.wav,0,0,1009,20,3,Chinese,f,10,1,12.03381774,0.27832104
QMH,70,1,2024-06-14T15:32:36.649Z,english_516.wav,0,0,1009,20,3,Chinese,f,11,1.09391667,-64.39892236,1.09838576
QMH,71,1,2024-06-14T15:32:36.649Z,english_983.wav,0,0,830,20,3,Chinese,f,0,0,-50.22823897,0.88633634
QMH,71,1,2024-06-14T15:32:36.649Z,english_983.wav,0,0,830,20,3,Chinese,f,1,0.1,-4.67437073,1.28034271
QMH,71,1,2024-06-14T15:32:36.649Z,english_983.wav,0,0,830,20,3,Chinese,f,2,0.2,-31.6094098,0.94172266
QMH,71,1,2024-06-14T15:32:36.649Z,english_983.wav,0,0,830,20,3,Chinese,f,3,0.3,25.42275216,0.73344406
QMH,71,1,2024-06-14T15:32:36.649Z,english_983.wav,0,0,830,20,3,Chinese,f,4,0.4,79.9624674,1.78223604
QMH,71,1,2024-06-14T15:32:36.649Z,english_983.wav,0,0,830,20,3,Chinese,f,5,0.5,11.84827872,1.04715588
QMH,71,1,2024-06-14T15:32:36.649Z,english_983.wav,0,0,830,20,3,Chinese,f,6,0.6,-53.41316004,1.93599287
QMH,71,1,2024-06-14T15:32:36.649Z,english_983.wav,0,0,830,20,3,Chinese,f,7,0.7,-2.37481813,0.44413806
QMH,71,1,2024-06-14T15:32:36.649Z,english_983.wav,0,0,830,20,3,Chinese,f,8,0.8,81.38125647,0.67013669
QMH,71,1,2024-06-14T15:32:36.649Z,english_983.wav,0,0,830,20,3,Chinese,f,9,0.9,-62.03068284,1.03528206
QMH,71,1,2024-06-14T15:32:36.649Z,english_983.wav,0,0,830,20,3,Chinese,f,10,1,-64.21224493,0.12422577
QMH,71,1,2024-06-14T15:32:36.649Z,english_983.wav,0,0,830,20,3,Chinese,f,11,1.09391667,38.19793451,1.50859084
QMH,72,1,2024-06-14T15:32:36.649Z,english_563.wav,0,0,909,20,3,Chinese,f,0,0,97.71228094,1.26204961
QMH,72,1,2024-06-14T15:32:36.649Z,english_563.wav,0,0,909,20,3,Chinese,f,1,0.1,-46.61979444,1.17265915
QMH,72,1,2024-06-14T15:32:36.649Z,english_563.wav,0,0,909,20,3,Chinese,f,2,0.2,2.79591849,0.73553811
QMH,72,1,2024-06-14T15:32:36.649Z,english_563.wav,0,0,909,20,3,Chinese,f,3,0.3,-24.69974698,1.75222103
QMH,72,1,2024-06-14T15:32:36.649Z,english_563.wav,0,0,909,20,3,Chinese,f,4,0.4,-33.21670204,1.16360082
QMH,72,1,2024-06-14T15:32:36.649Z,english_563.wav,0,0,909,20,3,Chinese,f,5,0.5,-22.29161776,0.78496451
QMH,72,1,2024-06-14T15:32:36.649Z,english_563.wav,0,0,909,20,3,Chinese,f,6,0.6,-9.78409371,0.25812971
QMH,72,1,2024-06-14T15:32:36.649Z,english_563.wav,0,0,909,20,3,Chinese,f,7,0.7,22.41186375,1.68001513
QMH,72,1,2024-06-14T15:32:36.649Z,english_563.wav,0,0,909,20,3,Chinese,f,8,0.8,-16.19600926,1.88614824
QMH,72,1,2024-06-14T15:32:36.649Z,english_563.wav,0,0,909,20,3,Chinese,f,9,0.9,96.89254029,0.22022692
QMH,72,1,2024-06-14T15:32:36.649Z,english_563.wav,0,0,909,20,3,Chinese,f,10,1,-8.68448167,0.44747932
QMH,72,1,2024-06-14T15:32:36.649Z,english_563.wav,0,0,909,20,3,Chinese,f,11,1.09391667,22.23097911,1.70220981
QMH,73,1,2024-06-14T15:32:36.649Z,english_144.wav,0,0,688,20,3,Chinese,f,0,0,31.57285019,1.02092862
QMH,73,1,2024-06-14T15:32:36.649Z,english_144.wav,0,0,688,20,3,Chinese,f,1,0.1,-66.82367858,1.21687454
QMH,73,1,2024-06-14T15:32:36.649Z,english_144.wav,0,0,688,20,3,Chinese,f,2,0.2,25.9026646,0.83451974
QMH,73,1,2024-06-14T15:32:36.649Z,english_144.wav,0,0,688,20,3,Chinese,f,3,0.3,-73.3005143,1.57454957
QMH,73,1,2024-06-14T15:32:36.649Z,english_144.wav,0,0,688,20,3,Chinese,f,4,0.4,44.123678,0.07717076
QMH,73,1,2024-06-14T15:32:36.649Z,english_144.wav,0,0,688,20,3,Chinese,f,5,0.5,49.27770762,0.27181384
QMH,73,1,2024-06-14T15:32:36.649Z,english_144.wav,0,0,688,20,3,Chinese,f,6,0.6,22.38256085,1.7133157
QMH,73,1,2024-06-14T15:32:36.649Z,english_144.wav,0,0,688,20,3,Chinese,f,7,0.7,-9.16605426,1.06775729
QMH,73,1,2024-06-14T15:32:36.649Z,english_144.wav,0,0,688,20,3,Chinese,f,8,0.8,-36.80428778,1.42091993
QMH,73,1,2024-06-14T15:32:36.649Z,english_144.wav,0,0,688,20,3,Chinese,f,9,0.9,-3.57060361,0.01524657
QMH,73,1,2024-06-14T15:32:36.649Z,english_144.wav,0,0,688,20,3,Chinese,f,10,1,-56.05458997,0.90246411
QMH,73,1,2024-06-14T15:32:36.649Z,english_144.wav,0,0,688,20,3,Chinese,f,11,1.09391667,-88.6470882,1.74083532
QMH,74,1,2024-06-14T15:32:36.649Z,english_389.wav,0,1,651,20,3,Chinese,f,0,0,-27.92030451,1.81186154
QMH,74,1,2024-06-14T15:32:36.649Z,english_389.wav,0,1,651,20,3,Chinese,f,1,0.1,-46.10796153,1.54804085
QMH,74,1,2024-06-14T15:32:36.649Z,english_389.wav,0,1,651,20,3,Chinese,f,2,0.2,29.27243325,0.55488288
QMH,74,1,2024-06-14T15:32:36.649Z,english_389.wav,0,1,651,20,3,Chinese,f,3,0.3,-81.13766006,1.00824624
QMH,74,1,2024-06-14T15:32:36.649Z,english_389.wav,0,1,651,20,3,Chinese,f,4,0.4,-25.00115648,1.07224035
QMH,74,1,2024-06-14T15:32:36.649Z,english_389.wav,0,1,651,20,3,Chinese,f,5,0.5,-17.10951233,0.42212287
QMH,74,1,2024-06-14T15:32:36.649Z,english_389.wav,0,1,651,20,3,Chinese,f,6,0.6,15.83507298,1.0440142
QMH,74,1,2024-06-14T15:32:36.649Z,english_389.wav,0,1,651,20,3,Chinese,f,7,0.7,79.29241289,1.00958508
QMH,74,1,2024-06-14T15:32:36.649Z,english_389.wav,0,1,651,20,3,Chinese,f,8,0.8,27.96570621,0.92707182
QMH,74,1,2024-06-14T15:32:36.649Z,english_389.wav,0,1,651,20,3,Chinese,f,9,0.9,-91.92786914,1.30621654
QMH,74,1,2024-06-14T15:32:36.649Z,english_389.wav,0,1,651,20,3,Chinese,f,10,1,39.38033895,1.4968603
QMH,74,1,2024-06-14T15:32:36.649Z,english_389.wav,0,1,651,20,3,Chinese,f,11,1.09391667,-32.92969944,0.53867672
QMH,75,1,2024-06-14T15:32:36.649Z,english_704.wav,0,0,619,20,3,Chinese,f,0,0,-66.86347245,1.10852805
QMH,75,1,2024-06-14T15:32:36.649Z,english_704.wav,0,0,619,20,3,Chinese,f,1,0.1,-33.45070856,1.50534643
QMH,75,1,2024-06-14T15:32:36.649Z,english_704.wav,0,0,619,20,3,Chinese,f,2,0.2,98.95748792,1.36402955
QMH,75,1,2024-06-14T15:32:36.649Z,english_704.wav,0,0,619,20,3,Chinese,f,3,0.3,40.39124026,1.09402875
QMH,75,1,2024-06-14T15:32:36.649Z,english_704.wav,0,0,619,20,3,Chinese,f,4,0.4,76.62361043,0.97410313
QMH,75,1,2024-06-14T15:32:36.649Z,english_704.wav,0,0,619,20,3,Chinese,f,5,0.5,61.00109246,1.19276443
QMH,75,1,2024-06-14T15:32:36.649Z,english_704.wav,0,0,619,20,3,Chinese,f,6,0.6,24.61875858,0.71178311
QMH,75,1,2024-06-14T15:32:36.649Z,english_704.wav,0,0,619,20,3,Chinese,f,7,0.7,32.51289689,1.62027576
QMH,75,1,2024-06-14T15:32:36.649Z,english_704.wav,0,0,619,20,3,Chinese,f,8,0.8,93.51972076,1.01576623
QMH,75,1,2024-06-14T15:32:36.649Z,english_704.wav,0,0,619,20,3,Chinese,f,9,0.9,43.30633586,0.07371268
QMH,75,1,2024-06-14T15:32:36.649Z,english_704.wav,0,0,619,20,3,Chinese,f,10,1,5.62352462,0.93560494
QMH,75,1,2024-06-14T15:32:36.649Z,english_704.wav,0,0,619,20,3,Chinese,f,11,1.09391667,87.81172513,0.13780059
QMH,76,1,2024-06-14T15:32:36.649Z,english_613.wav,0,0,665,20,3,Chinese,f,0,0,56.02417359,1.45969094
QMH,76,1,2024-06-14T15:32:36.649Z,english_613.wav,0,0,665,20,3,Chinese,f,1,0.1,-15.12096295,0.70307333
QMH,76,1,2024-06-14T15:32:36.649Z,english_613.wav,0,0,665,20,3,Chinese,f,2,0.2,24.11599025,1.55595157
QMH,76,1,2024-06-14T15:32:36.649Z,english_613.wav,0,0,665,20,3,Chinese,f,3,0.3,-98.52161237,0.89820675
QMH,76,1,2024-06-14T15:32:36.649Z,english_613.wav,0,0,665,20,3,Chinese,f,4,0.4,-83.03822249,1.36107021
QMH,76,1,2024-06-14T15:32:36.649Z,english_613.wav,0,0,665,20,3,Chinese,f,5,0.5,21.43017138,0.16432707
QMH,76,1,2024-06-14T15:32:36.649Z,english_613.wav,0,0,665,20,3,Chinese,f,6,0.6,63.83169659,0.04833877
QMH,76,1,2024-06-14T15:32:36.649Z,english_613.wav,0,0,665,20,3,Chinese,f,7,0.7,20.52778074,0.40598637
QMH,76,1,2024-06-14T15:32:36.649Z,english_613.wav,0,0,665,20,3,Chinese,f,8,0.8,94.54806404,1.56556559
QMH,76,1,2024-06-14T15:32:36.649Z,english_613.wav,0,0,665,20,3,Chinese,f,9,0.9,22.39216261,0.73835637
QMH,76,1,2024-06-14T15:32:36.649Z,english_613.wav,0,0,665,20,3,Chinese,f,10,1,-21.9484098,1.13631796
QMH,76,1,2024-06-14T15:32:36.649Z,english_613.wav,0,0,665,20,3,Chinese,f,11,1.09391667,-64.50590256,0.17382409
QMH,77,1,2024-06-14T15:32:36.649Z,english_586.wav,0,0,1486,20,3,Chinese,f,0,0,19.9692207,1.34383916
QMH,77,1,2024-06-14T15:32:36.649Z,english_586.wav,0,0,1486,20,3,Chinese,f,1,0.1,22.22606315,0.0196847498
QMH,77,1,2024-06-14T15:32:36.649Z,english_586.wav,0,0,1486,20,3,Chinese,f,2,0.2,44.76083147,1.32604329
QMH,77,1,2024-06-14T15:32:36.649Z,english_586.wav,0,0,1486,20,3,Chinese,f,3,0.3,30.56518658,0.457164903
QMH,77,1,2024-06-14T15:32:36.649Z,english_586.wav,0,0,1486,20,3,Chinese,f,4,0.4,70.50807044,0.862218031
QMH,77,1,2024-06-14T15:32:36.649Z,english_586.wav,0,0,1486,20,3,Chinese,f,5,0.5,-99.40073456,1.19900353
QMH,77,1,2024-06-14T15:32:36.649Z,english_586.wav,0,0,1486,20,3,Chinese,f,6,0.6,-34.76596453,1.85917609
QMH,77,1,2024-06-14T15:32:36.649Z,english_586.wav,0,0,1486,20,3,Chinese,f,7,0.7,-7.2574162,0.599282433
QMH,77,1,2024-06-14T15:32:36.649Z,english_586.wav,0,0,1486,20,3,Chinese,f,8,0.8,-34.51491792,0.420457526
QMH,77,1,2024-06-14T15:32:36.649Z,english_586.wav,0,0,1486,20,3,Chinese,f,9,0.9,40.55984504,1.44903206
QMH,77,1,2024-06-14T15:32:36.649Z,english_586.wav,0,0,1486,20,3,Chinese,f,10,1,43.92860722,0.00056977348
QMH,77,1,2024-06-14T15:32:36.649Z,english_586.wav,0,0,1486,20,3,Chinese,f,11,1.09391667,97.81958787,1.67148022
QMH,78,1,2024-06-14T15:32:36.649Z,english_468.wav,0,0,642,20,3,Chinese,f,0,0,19.31976264,0.66158439
QMH,78,1,2024-06-14T15:32:36.649Z,english_468.wav,0,0,642,20,3,Chinese,f,1,0.1,-31.93707888,1.54343798
QMH,78,1,2024-06-14T15:32:36.649Z,english_468.wav,0,0,642,20,3,Chinese,f,2,0.2,87.74953583,1.18268033
QMH,78,1,2024-06-14T15:32:36.649Z,english_468.wav,0,0,642,20,3,Chinese,f,3,0.3,75.542399,0.92842135
QMH,78,1,2024-06-14T15:32:36.649Z,english_468.wav,0,0,642,20,3,Chinese,f,4,0.4,-30.66435396,1.55978724
QMH,78,1,2024-06-14T15:32:36.649Z,english_468.wav,0,0,642,20,3,Chinese,f,5,0.5,27.34391208,1.04364147
QMH,78,1,2024-06-14T15:32:36.649Z,english_468.wav,0,0,642,20,3,Chinese,f,6,0.6,-88.33380447,1.4617077
QMH,78,1,2024-06-14T15:32:36.649Z,english_468.wav,0,0,642,20,3,Chinese,f,7,0.7,22.89610212,1.75173298
QMH,78,1,2024-06-14T15:32:36.649Z,english_468.wav,0,0,642,20,3,Chinese,f,8,0.8,-23.39935551,0.43321648
QMH,78,1,2024-06-14T15:32:36.649Z,english_468.wav,0,0,642,20,3,Chinese,f,9,0.9,4.99226109,0.70184302
QMH,78,1,2024-06-14T15:32:36.649Z,english_468.wav,0,0,642,20,3,Chinese,f,10,1,10.7480571,0.01962582
QMH,78,1,2024-06-14T15:32:36.649Z,english_468.wav,0,0,642,20,3,Chinese,f,11,1.09391667,16.97403313,1.09642758
QMH,79,1,2024-06-14T15:32:36.649Z,english_528.wav,0,0,591,20,3,Chinese,f,0,0,89.92931817,1.55464654
QMH,79,1,2024-06-14T15:32:36.649Z,english_528.wav,0,0,591,20,3,Chinese,f,1,0.1,69.43761356,1.5693867
QMH,79,1,2024-06-14T15:32:36.649Z,english_528.wav,0,0,591,20,3,Chinese,f,2,0.2,-74.63581074,0.24579909
QMH,79,1,2024-06-14T15:32:36.649Z,english_528.wav,0,0,591,20,3,Chinese,f,3,0.3,66.94799646,0.89003704
QMH,79,1,2024-06-14T15:32:36.649Z,english_528.wav,0,0,591,20,3,Chinese,f,4,0.4,93.4667874,0.02709789
QMH,79,1,2024-06-14T15:32:36.649Z,english_528.wav,0,0,591,20,3,Chinese,f,5,0.5,-73.58583841,1.93159194
QMH,79,1,2024-06-14T15:32:36.649Z,english_528.wav,0,0,591,20,3,Chinese,f,6,0.6,60.58074805,1.21534299
QMH,79,1,2024-06-14T15:32:36.649Z,english_528.wav,0,0,591,20,3,Chinese,f,7,0.7,-19.51561534,1.54968918
QMH,79,1,2024-06-14T15:32:36.649Z,english_528.wav,0,0,591,20,3,Chinese,f,8,0.8,1.50674214,1.22283315
QMH,79,1,2024-06-14T15:32:36.649Z,english_528.wav,0,0,591,20,3,Chinese,f,9,0.9,-4.69145727,0.16463995
QMH,79,1,2024-06-14T15:32:36.649Z,english_528.wav,0,0,591,20,3,Chinese,f,10,1,-90.65001005,0.26004795
QMH,79,1,2024-06-14T15:32:36.649Z,english_528.wav,0,0,591,20,3,Chinese,f,11,1.09391667,80.40130965,0.00778095
QMH,80,1,2024-06-14T15:32:36.649Z,english_122.wav,0,1,640,20,3,Chinese,f,0,0,77.3413932,0.58709567
QMH,80,1,2024-06-14T15:32:36.649Z,english_122.wav,0,1,640,20,3,Chinese,f,1,0.1,-67.39185751,0.0796985
QMH,80,1,2024-06-14T15:32:36.649Z,english_122.wav,0,1,640,20,3,Chinese,f,2,0.2,89.18550357,1.00639024
QMH,80,1,2024-06-14T15:32:36.649Z,english_122.wav,0,1,640,20,3,Chinese,f,3,0.3,12.33038367,0.81094575
QMH,80,1,2024-06-14T15:32:36.649Z,english_122.wav,0,1,640,20,3,Chinese,f,4,0.4,70.68402371,0.57598842
QMH,80,1,2024-06-14T15:32:36.649Z,english_122.wav,0,1,640,20,3,Chinese,f,5,0.5,25.06803156,0.93423984
QMH,80,1,2024-06-14T15:32:36.649Z,english_122.wav,0,1,640,20,3,Chinese,f,6,0.6,56.81750659,1.53113092
QMH,80,1,2024-06-14T15:32:36.649Z,english_122.wav,0,1,640,20,3,Chinese,f,7,0.7,-43.57912499,1.09738921
QMH,80,1,2024-06-14T15:32:36.649Z,english_122.wav,0,1,640,20,3,Chinese,f,8,0.8,-51.88401647,1.34315846
QMH,80,1,2024-06-14T15:32:36.649Z,english_122.wav,0,1,640,20,3,Chinese,f,9,0.9,-2.10023036,0.94720038
QMH,80,1,2024-06-14T15:32:36.649Z,english_122.wav,0,1,640,20,3,Chinese,f,10,1,-47.35507429,1.69772014
QMH,80,1,2024-06-14T15:32:36.649Z,english_122.wav,0,1,640,20,3,Chinese,f,11,1.09391667,20.07877732,1.14244601
