subj,trial,block,date,stim,stim_order,response,rt,age,english,language,sex,param_index,segment,pitch,stretch
DJX,0,0,2024-06-13T10:28:56.157Z,english_416.wav,0,0,1526,20,4,Chinese,f,0,0,82.43182744,0.48127721
DJX,0,0,2024-06-13T10:28:56.157Z,english_416.wav,0,0,1526,20,4,Chinese,f,1,0.1,53.03166004,0.55506125
DJX,0,0,2024-06-13T10:28:56.157Z,english_416.wav,0,0,1526,20,4,Chinese,f,2,0.2,97.51798843,1.10002465
DJX,0,0,2024-06-13T10:28:56.157Z,english_416.wav,0,0,1526,20,4,Chinese,f,3,0.3,29.41957171,0.46187328
DJX,0,0,2024-06-13T10:28:56.157Z,english_416.wav,0,0,1526,20,4,Chinese,f,4,0.4,-25.73379092,1.80124094
DJX,0,0,2024-06-13T10:28:56.157Z,english_416.wav,0,0,1526,20,4,Chinese,f,5,0.5,-41.53228359,1.29733702
DJX,0,0,2024-06-13T10:28:56.157Z,english_416.wav,0,0,1526,20,4,Chinese,f,6,0.6,-18.26850451,0.88634114
DJX,0,0,2024-06-13T10:28:56.157Z,english_416.wav,0,0,1526,20,4,Chinese,f,7,0.7,36.25947798,0.74571926
DJX,0,0,2024-06-13T10:28:56.157Z,english_416.wav,0,0,1526,20,4,Chinese,f,8,0.8,3.82481386,0.12319745
DJX,0,0,2024-06-13T10:28:56.157Z,english_416.wav,0,0,1526,20,4,Chinese,f,9,0.9,51.45810025,1.56017106
DJX,0,0,2024-06-13T10:28:56.157Z,english_416.wav,0,0,1526,20,4,Chinese,f,10,1,0.92473006,1.11470687
DJX,0,0,2024-06-13T10:28:56.157Z,english_416.wav,0,0,1526,20,4,Chinese,f,11,1.09391667,18.75162815,1.36917422
DJX,1,0,2024-06-13T10:28:56.157Z,english_426.wav,0,1,4063,20,4,Chinese,f,0,0,-67.17987083,1.61589393
DJX,1,0,2024-06-13T10:28:56.157Z,english_426.wav,0,1,4063,20,4,Chinese,f,1,0.1,70.02176421,1.03467422
DJX,1,0,2024-06-13T10:28:56.157Z,english_426.wav,0,1,4063,20,4,Chinese,f,2,0.2,82.2704811,1.69488483
DJX,1,0,2024-06-13T10:28:56.157Z,english_426.wav,0,1,4063,20,4,Chinese,f,3,0.3,-4.42560713,0.26984678
DJX,1,0,2024-06-13T10:28:56.157Z,english_426.wav,0,1,4063,20,4,Chinese,f,4,0.4,-22.03224373,1.53427209
DJX,1,0,2024-06-13T10:28:56.157Z,english_426.wav,0,1,4063,20,4,Chinese,f,5,0.5,-71.21536039,1.44135847
DJX,1,0,2024-06-13T10:28:56.157Z,english_426.wav,0,1,4063,20,4,Chinese,f,6,0.6,23.47193627,0.91698709
DJX,1,0,2024-06-13T10:28:56.157Z,english_426.wav,0,1,4063,20,4,Chinese,f,7,0.7,-95.21485964,0.33548871
DJX,1,0,2024-06-13T10:28:56.157Z,english_426.wav,0,1,4063,20,4,Chinese,f,8,0.8,76.54647,1.77334308
DJX,1,0,2024-06-13T10:28:56.157Z,english_426.wav,0,1,4063,20,4,Chinese,f,9,0.9,67.43828429,1.62177199
DJX,1,0,2024-06-13T10:28:56.157Z,english_426.wav,0,1,4063,20,4,Chinese,f,10,1,-41.3478141,0.29474728
DJX,1,0,2024-06-13T10:28:56.157Z,english_426.wav,0,1,4063,20,4,Chinese,f,11,1.09391667,-8.81391429,0.79627592
DJX,2,0,2024-06-13T10:28:56.157Z,english_636.wav,0,0,1186,20,4,Chinese,f,0,0,67.71914356,0.71351394
DJX,2,0,2024-06-13T10:28:56.157Z,english_636.wav,0,0,1186,20,4,Chinese,f,1,0.1,73.23750135,0.58810626
DJX,2,0,2024-06-13T10:28:56.157Z,english_636.wav,0,0,1186,20,4,Chinese,f,2,0.2,-94.77637622,0.12310704
DJX,2,0,2024-06-13T10:28:56.157Z,english_636.wav,0,0,1186,20,4,Chinese,f,3,0.3,41.8095849,0.24518537
DJX,2,0,2024-06-13T10:28:56.157Z,english_636.wav,0,0,1186,20,4,Chinese,f,4,0.4,44.54848263,1.96939905
DJX,2,0,2024-06-13T10:28:56.157Z,english_636.wav,0,0,1186,20,4,Chinese,f,5,0.5,-87.10854597,1.82615159
DJX,2,0,2024-06-13T10:28:56.157Z,english_636.wav,0,0,1186,20,4,Chinese,f,6,0.6,12.76932042,0.20211228
DJX,2,0,2024-06-13T10:28:56.157Z,english_636.wav,0,0,1186,20,4,Chinese,f,7,0.7,-15.47844842,0.69598299
DJX,2,0,2024-06-13T10:28:56.157Z,english_636.wav,0,0,1186,20,4,Chinese,f,8,0.8,-27.08826091,0.43499073
DJX,2,0,2024-06-13T10:28:56.157Z,english_636.wav,0,0,1186,20,4,Chinese,f,9,0.9,-8.55837042,1.83264506
DJX,2,0,2024-06-13T10:28:56.157Z,english_636.wav,0,0,1186,20,4,Chinese,f,10,1,62.11399846,0.36387194
DJX,2,0,2024-06-13T10:28:56.157Z,english_636.wav,0,0,1186,20,4,Chinese,f,11,1.09391667,1.57014334,0.65195864
DJX,3,0,2024-06-13T10:28:56.157Z,english_236.wav,0,1,1795,20,4,Chinese,f,0,0,-58.47147348,1.25570844
DJX,3,0,2024-06-13T10:28:56.157Z,english_236.wav,0,1,1795,20,4,Chinese,f,1,0.1,25.25879028,1.3068123
DJX,3,0,2024-06-13T10:28:56.157Z,english_236.wav,0,1,1795,20,4,Chinese,f,2,0.2,-78.78616324,1.48831799
DJX,3,0,2024-06-13T10:28:56.157Z,english_236.wav,0,1,1795,20,4,Chinese,f,3,0.3,11.29938963,0.34919936
DJX,3,0,2024-06-13T10:28:56.157Z,english_236.wav,0,1,1795,20,4,Chinese,f,4,0.4,39.53352696,1.00725943
DJX,3,0,2024-06-13T10:28:56.157Z,english_236.wav,0,1,1795,20,4,Chinese,f,5,0.5,91.57483284,1.25472599
DJX,3,0,2024-06-13T10:28:56.157Z,english_236.wav,0,1,1795,20,4,Chinese,f,6,0.6,22.72019707,1.46652556
DJX,3,0,2024-06-13T10:28:56.157Z,english_236.wav,0,1,1795,20,4,Chinese,f,7,0.7,30.21012118,0.98566412
DJX,3,0,2024-06-13T10:28:56.157Z,english_236.wav,0,1,1795,20,4,Chinese,f,8,0.8,-41.20304871,1.93402839
DJX,3,0,2024-06-13T10:28:56.157Z,english_236.wav,0,1,1795,20,4,Chinese,f,9,0.9,28.6164571,1.61503367
DJX,3,0,2024-06-13T10:28:56.157Z,english_236.wav,0,1,1795,20,4,Chinese,f,10,1,36.23029146,0.92571768
DJX,3,0,2024-06-13T10:28:56.157Z,english_236.wav,0,1,1795,20,4,Chinese,f,11,1.09391667,-21.60177346,1.50534637
DJX,4,0,2024-06-13T10:28:56.157Z,english_882.wav,0,0,897,20,4,Chinese,f,0,0,-7.05979315,0.25493427
DJX,4,0,2024-06-13T10:28:56.157Z,english_882.wav,0,0,897,20,4,Chinese,f,1,0.1,11.12287517,1.40090196
DJX,4,0,2024-06-13T10:28:56.157Z,english_882.wav,0,0,897,20,4,Chinese,f,2,0.2,28.5672698,0.1131803
DJX,4,0,2024-06-13T10:28:56.157Z,english_882.wav,0,0,897,20,4,Chinese,f,3,0.3,16.48717496,1.17672005
DJX,4,0,2024-06-13T10:28:56.157Z,english_882.wav,0,0,897,20,4,Chinese,f,4,0.4,6.46389904,1.65791719
DJX,4,0,2024-06-13T10:28:56.157Z,english_882.wav,0,0,897,20,4,Chinese,f,5,0.5,-33.62191601,1.48549593
DJX,4,0,2024-06-13T10:28:56.157Z,english_882.wav,0,0,897,20,4,Chinese,f,6,0.6,24.95644847,0.02678123
DJX,4,0,2024-06-13T10:28:56.157Z,english_882.wav,0,0,897,20,4,Chinese,f,7,0.7,-38.16076581,0.84885904
DJX,4,0,2024-06-13T10:28:56.157Z,english_882.wav,0,0,897,20,4,Chinese,f,8,0.8,-79.20201093,0.30029844
DJX,4,0,2024-06-13T10:28:56.157Z,english_882.wav,0,0,897,20,4,Chinese,f,9,0.9,-71.11539398,0.49544308
DJX,4,0,2024-06-13T10:28:56.157Z,english_882.wav,0,0,897,20,4,Chinese,f,10,1,-86.32031944,0.41090122
DJX,4,0,2024-06-13T10:28:56.157Z,english_882.wav,0,0,897,20,4,Chinese,f,11,1.09391667,-43.4557724,0.68463909
DJX,5,0,2024-06-13T10:28:56.157Z,english_569.wav,0,1,2644,20,4,Chinese,f,0,0,80.86242067,1.33421849
DJX,5,0,2024-06-13T10:28:56.157Z,english_569.wav,0,1,2644,20,4,Chinese,f,1,0.1,-36.85440805,1.5057291
DJX,5,0,2024-06-13T10:28:56.157Z,english_569.wav,0,1,2644,20,4,Chinese,f,2,0.2,55.48604093,1.7838276
DJX,5,0,2024-06-13T10:28:56.157Z,english_569.wav,0,1,2644,20,4,Chinese,f,3,0.3,-32.48832212,0.34502948
DJX,5,0,2024-06-13T10:28:56.157Z,english_569.wav,0,1,2644,20,4,Chinese,f,4,0.4,34.47022209,1.33242051
DJX,5,0,2024-06-13T10:28:56.157Z,english_569.wav,0,1,2644,20,4,Chinese,f,5,0.5,23.79827115,0.68239412
DJX,5,0,2024-06-13T10:28:56.157Z,english_569.wav,0,1,2644,20,4,Chinese,f,6,0.6,-29.60411728,1.41145095
DJX,5,0,2024-06-13T10:28:56.157Z,english_569.wav,0,1,2644,20,4,Chinese,f,7,0.7,-3.34902879,0.70703372
DJX,5,0,2024-06-13T10:28:56.157Z,english_569.wav,0,1,2644,20,4,Chinese,f,8,0.8,-24.14207397,0.57539158
DJX,5,0,2024-06-13T10:28:56.157Z,english_569.wav,0,1,2644,20,4,Chinese,f,9,0.9,49.40170215,1.31553206
DJX,5,0,2024-06-13T10:28:56.157Z,english_569.wav,0,1,2644,20,4,Chinese,f,10,1,34.30113072,0.57675215
DJX,5,0,2024-06-13T10:28:56.157Z,english_569.wav,0,1,2644,20,4,Chinese,f,11,1.09391667,-89.06013863,1.91555697
DJX,6,0,2024-06-13T10:28:56.157Z,english_782.wav,0,0,2184,20,4,Chinese,f,0,0,-78.57843069,1.03549732
DJX,6,0,2024-06-13T10:28:56.157Z,english_782.wav,0,0,2184,20,4,Chinese,f,1,0.1,18.46693427,1.37171195
DJX,6,0,2024-06-13T10:28:56.157Z,english_782.wav,0,0,2184,20,4,Chinese,f,2,0.2,97.99884289,0.49308363
DJX,6,0,2024-06-13T10:28:56.157Z,english_782.wav,0,0,2184,20,4,Chinese,f,3,0.3,62.25752433,1.45239523
DJX,6,0,2024-06-13T10:28:56.157Z,english_782.wav,0,0,2184,20,4,Chinese,f,4,0.4,52.39970151,1.75992902
DJX,6,0,2024-06-13T10:28:56.157Z,english_782.wav,0,0,2184,20,4,Chinese,f,5,0.5,-14.50018957,1.61112401
DJX,6,0,2024-06-13T10:28:56.157Z,english_782.wav,0,0,2184,20,4,Chinese,f,6,0.6,-27.56562213,0.55174203
DJX,6,0,2024-06-13T10:28:56.157Z,english_782.wav,0,0,2184,20,4,Chinese,f,7,0.7,45.71631019,1.83852108
DJX,6,0,2024-06-13T10:28:56.157Z,english_782.wav,0,0,2184,20,4,Chinese,f,8,0.8,-34.89121843,1.53242335
DJX,6,0,2024-06-13T10:28:56.157Z,english_782.wav,0,0,2184,20,4,Chinese,f,9,0.9,23.54778787,0.19128353
DJX,6,0,2024-06-13T10:28:56.157Z,english_782.wav,0,0,2184,20,4,Chinese,f,10,1,-69.46242817,0.08422805
DJX,6,0,2024-06-13T10:28:56.157Z,english_782.wav,0,0,2184,20,4,Chinese,f,11,1.09391667,95.32757353,0.55022533
DJX,7,0,2024-06-13T10:28:56.157Z,english_194.wav,0,1,1226,20,4,Chinese,f,0,0,56.78701541,1.42004802
DJX,7,0,2024-06-13T10:28:56.157Z,english_194.wav,0,1,1226,20,4,Chinese,f,1,0.1,-17.75053988,0.01035796
DJX,7,0,2024-06-13T10:28:56.157Z,english_194.wav,0,1,1226,20,4,Chinese,f,2,0.2,33.25886054,1.01435424
DJX,7,0,2024-06-13T10:28:56.157Z,english_194.wav,0,1,1226,20,4,Chinese,f,3,0.3,-36.30427417,0.10390295
DJX,7,0,2024-06-13T10:28:56.157Z,english_194.wav,0,1,1226,20,4,Chinese,f,4,0.4,87.2538064,0.79219746
DJX,7,0,2024-06-13T10:28:56.157Z,english_194.wav,0,1,1226,20,4,Chinese,f,5,0.5,-35.38798336,0.28919857
DJX,7,0,2024-06-13T10:28:56.157Z,english_194.wav,0,1,1226,20,4,Chinese,f,6,0.6,-16.86822867,1.14065301
DJX,7,0,2024-06-13T10:28:56.157Z,english_194.wav,0,1,1226,20,4,Chinese,f,7,0.7,3.74513195,1.55329947
DJX,7,0,2024-06-13T10:28:56.157Z,english_194.wav,0,1,1226,20,4,Chinese,f,8,0.8,-97.03953589,1.8735666
DJX,7,0,2024-06-13T10:28:56.157Z,english_194.wav,0,1,1226,20,4,Chinese,f,9,0.9,-34.95000954,1.68004219
DJX,7,0,2024-06-13T10:28:56.157Z,english_194.wav,0,1,1226,20,4,Chinese,f,10,1,41.79469937,0.7970796
DJX,7,0,2024-06-13T10:28:56.157Z,english_194.wav,0,1,1226,20,4,Chinese,f,11,1.09391667,-99.09961294,1.89727803
DJX,8,0,2024-06-13T10:28:56.157Z,english_243.wav,0,0,1593,20,4,Chinese,f,0,0,1.09956789,0.70602276
DJX,8,0,2024-06-13T10:28:56.157Z,english_243.wav,0,0,1593,20,4,Chinese,f,1,0.1,-22.83463898,1.70434147
DJX,8,0,2024-06-13T10:28:56.157Z,english_243.wav,0,0,1593,20,4,Chinese,f,2,0.2,13.77208665,0.73580693
DJX,8,0,2024-06-13T10:28:56.157Z,english_243.wav,0,0,1593,20,4,Chinese,f,3,0.3,1.02247931,0.55351417
DJX,8,0,2024-06-13T10:28:56.157Z,english_243.wav,0,0,1593,20,4,Chinese,f,4,0.4,31.9920667,1.46766687
DJX,8,0,2024-06-13T10:28:56.157Z,english_243.wav,0,0,1593,20,4,Chinese,f,5,0.5,9.99181732,0.90352786
DJX,8,0,2024-06-13T10:28:56.157Z,english_243.wav,0,0,1593,20,4,Chinese,f,6,0.6,-33.71646342,1.00907427
DJX,8,0,2024-06-13T10:28:56.157Z,english_243.wav,0,0,1593,20,4,Chinese,f,7,0.7,-6.54057261,1.8747172
DJX,8,0,2024-06-13T10:28:56.157Z,english_243.wav,0,0,1593,20,4,Chinese,f,8,0.8,-2.31664571,0.4015936
DJX,8,0,2024-06-13T10:28:56.157Z,english_243.wav,0,0,1593,20,4,Chinese,f,9,0.9,70.47747211,1.66098364
DJX,8,0,2024-06-13T10:28:56.157Z,english_243.wav,0,0,1593,20,4,Chinese,f,10,1,-48.69389072,0.37128843
DJX,8,0,2024-06-13T10:28:56.157Z,english_243.wav,0,0,1593,20,4,Chinese,f,11,1.09391667,42.51272765,0.54561956
DJX,9,0,2024-06-13T10:28:56.157Z,english_144.wav,0,1,1087,20,4,Chinese,f,0,0,31.57285019,1.02092862
DJX,9,0,2024-06-13T10:28:56.157Z,english_144.wav,0,1,1087,20,4,Chinese,f,1,0.1,-66.82367858,1.21687454
DJX,9,0,2024-06-13T10:28:56.157Z,english_144.wav,0,1,1087,20,4,Chinese,f,2,0.2,25.9026646,0.83451974
DJX,9,0,2024-06-13T10:28:56.157Z,english_144.wav,0,1,1087,20,4,Chinese,f,3,0.3,-73.3005143,1.57454957
DJX,9,0,2024-06-13T10:28:56.157Z,english_144.wav,0,1,1087,20,4,Chinese,f,4,0.4,44.123678,0.07717076
DJX,9,0,2024-06-13T10:28:56.157Z,english_144.wav,0,1,1087,20,4,Chinese,f,5,0.5,49.27770762,0.27181384
DJX,9,0,2024-06-13T10:28:56.157Z,english_144.wav,0,1,1087,20,4,Chinese,f,6,0.6,22.38256085,1.7133157
DJX,9,0,2024-06-13T10:28:56.157Z,english_144.wav,0,1,1087,20,4,Chinese,f,7,0.7,-9.16605426,1.06775729
DJX,9,0,2024-06-13T10:28:56.157Z,english_144.wav,0,1,1087,20,4,Chinese,f,8,0.8,-36.80428778,1.42091993
DJX,9,0,2024-06-13T10:28:56.157Z,english_144.wav,0,1,1087,20,4,Chinese,f,9,0.9,-3.57060361,0.01524657
DJX,9,0,2024-06-13T10:28:56.157Z,english_144.wav,0,1,1087,20,4,Chinese,f,10,1,-56.05458997,0.90246411
DJX,9,0,2024-06-13T10:28:56.157Z,english_144.wav,0,1,1087,20,4,Chinese,f,11,1.09391667,-88.6470882,1.74083532
DJX,10,0,2024-06-13T10:28:56.157Z,english_857.wav,0,1,689,20,4,Chinese,f,0,0,-56.93168928,1.92395656
DJX,10,0,2024-06-13T10:28:56.157Z,english_857.wav,0,1,689,20,4,Chinese,f,1,0.1,-40.57515649,1.41156549
DJX,10,0,2024-06-13T10:28:56.157Z,english_857.wav,0,1,689,20,4,Chinese,f,2,0.2,-26.26283105,0.14185194
DJX,10,0,2024-06-13T10:28:56.157Z,english_857.wav,0,1,689,20,4,Chinese,f,3,0.3,-49.62797955,1.1985334
DJX,10,0,2024-06-13T10:28:56.157Z,english_857.wav,0,1,689,20,4,Chinese,f,4,0.4,47.07146778,0.83326814
DJX,10,0,2024-06-13T10:28:56.157Z,english_857.wav,0,1,689,20,4,Chinese,f,5,0.5,-96.41882062,0.71224123
DJX,10,0,2024-06-13T10:28:56.157Z,english_857.wav,0,1,689,20,4,Chinese,f,6,0.6,63.09662026,1.58040322
DJX,10,0,2024-06-13T10:28:56.157Z,english_857.wav,0,1,689,20,4,Chinese,f,7,0.7,98.67053018,1.02327595
DJX,10,0,2024-06-13T10:28:56.157Z,english_857.wav,0,1,689,20,4,Chinese,f,8,0.8,-56.85749065,1.48703987
DJX,10,0,2024-06-13T10:28:56.157Z,english_857.wav,0,1,689,20,4,Chinese,f,9,0.9,-18.03690135,0.70290333
DJX,10,0,2024-06-13T10:28:56.157Z,english_857.wav,0,1,689,20,4,Chinese,f,10,1,52.13097753,0.53460392
DJX,10,0,2024-06-13T10:28:56.157Z,english_857.wav,0,1,689,20,4,Chinese,f,11,1.09391667,52.54650928,1.10851945
DJX,11,0,2024-06-13T10:28:56.157Z,english_466.wav,0,0,824,20,4,Chinese,f,0,0,29.78122055,0.08614047
DJX,11,0,2024-06-13T10:28:56.157Z,english_466.wav,0,0,824,20,4,Chinese,f,1,0.1,1.00212309,0.60651355
DJX,11,0,2024-06-13T10:28:56.157Z,english_466.wav,0,0,824,20,4,Chinese,f,2,0.2,84.88341441,0.95660543
DJX,11,0,2024-06-13T10:28:56.157Z,english_466.wav,0,0,824,20,4,Chinese,f,3,0.3,18.0671926,0.08485907
DJX,11,0,2024-06-13T10:28:56.157Z,english_466.wav,0,0,824,20,4,Chinese,f,4,0.4,-63.20091068,0.78105645
DJX,11,0,2024-06-13T10:28:56.157Z,english_466.wav,0,0,824,20,4,Chinese,f,5,0.5,-1.15346207,0.10730209
DJX,11,0,2024-06-13T10:28:56.157Z,english_466.wav,0,0,824,20,4,Chinese,f,6,0.6,-1.70645236,1.7980607
DJX,11,0,2024-06-13T10:28:56.157Z,english_466.wav,0,0,824,20,4,Chinese,f,7,0.7,37.24590025,1.48241485
DJX,11,0,2024-06-13T10:28:56.157Z,english_466.wav,0,0,824,20,4,Chinese,f,8,0.8,-40.92862731,0.1626415
DJX,11,0,2024-06-13T10:28:56.157Z,english_466.wav,0,0,824,20,4,Chinese,f,9,0.9,-58.08317272,1.43527927
DJX,11,0,2024-06-13T10:28:56.157Z,english_466.wav,0,0,824,20,4,Chinese,f,10,1,-59.75718078,0.97707475
DJX,11,0,2024-06-13T10:28:56.157Z,english_466.wav,0,0,824,20,4,Chinese,f,11,1.09391667,13.82760032,1.6467926
DJX,12,0,2024-06-13T10:28:56.157Z,english_698.wav,0,1,926,20,4,Chinese,f,0,0,-98.49976842,0.43179997
DJX,12,0,2024-06-13T10:28:56.157Z,english_698.wav,0,1,926,20,4,Chinese,f,1,0.1,97.00885889,1.41337894
DJX,12,0,2024-06-13T10:28:56.157Z,english_698.wav,0,1,926,20,4,Chinese,f,2,0.2,54.87082892,1.17184634
DJX,12,0,2024-06-13T10:28:56.157Z,english_698.wav,0,1,926,20,4,Chinese,f,3,0.3,-24.25113459,0.60534302
DJX,12,0,2024-06-13T10:28:56.157Z,english_698.wav,0,1,926,20,4,Chinese,f,4,0.4,-19.41361559,1.24831976
DJX,12,0,2024-06-13T10:28:56.157Z,english_698.wav,0,1,926,20,4,Chinese,f,5,0.5,38.63477703,1.39113252
DJX,12,0,2024-06-13T10:28:56.157Z,english_698.wav,0,1,926,20,4,Chinese,f,6,0.6,-31.74740997,1.28562889
DJX,12,0,2024-06-13T10:28:56.157Z,english_698.wav,0,1,926,20,4,Chinese,f,7,0.7,75.16156156,1.10433052
DJX,12,0,2024-06-13T10:28:56.157Z,english_698.wav,0,1,926,20,4,Chinese,f,8,0.8,41.06057046,1.08053659
DJX,12,0,2024-06-13T10:28:56.157Z,english_698.wav,0,1,926,20,4,Chinese,f,9,0.9,-30.65402234,1.52582563
DJX,12,0,2024-06-13T10:28:56.157Z,english_698.wav,0,1,926,20,4,Chinese,f,10,1,-13.5987644,0.95244876
DJX,12,0,2024-06-13T10:28:56.157Z,english_698.wav,0,1,926,20,4,Chinese,f,11,1.09391667,-10.25655958,1.39681887
DJX,13,0,2024-06-13T10:28:56.157Z,english_404.wav,0,0,1503,20,4,Chinese,f,0,0,51.0629149,0.92872816
DJX,13,0,2024-06-13T10:28:56.157Z,english_404.wav,0,0,1503,20,4,Chinese,f,1,0.1,-20.11660717,1.09197178
DJX,13,0,2024-06-13T10:28:56.157Z,english_404.wav,0,0,1503,20,4,Chinese,f,2,0.2,-24.08850376,1.28516423
DJX,13,0,2024-06-13T10:28:56.157Z,english_404.wav,0,0,1503,20,4,Chinese,f,3,0.3,-31.42467522,0.67196706
DJX,13,0,2024-06-13T10:28:56.157Z,english_404.wav,0,0,1503,20,4,Chinese,f,4,0.4,53.01415625,0.26298551
DJX,13,0,2024-06-13T10:28:56.157Z,english_404.wav,0,0,1503,20,4,Chinese,f,5,0.5,-45.18749729,0.832552
DJX,13,0,2024-06-13T10:28:56.157Z,english_404.wav,0,0,1503,20,4,Chinese,f,6,0.6,75.22262363,0.94238773
DJX,13,0,2024-06-13T10:28:56.157Z,english_404.wav,0,0,1503,20,4,Chinese,f,7,0.7,53.71694776,0.97166455
DJX,13,0,2024-06-13T10:28:56.157Z,english_404.wav,0,0,1503,20,4,Chinese,f,8,0.8,-31.94049291,0.24504
DJX,13,0,2024-06-13T10:28:56.157Z,english_404.wav,0,0,1503,20,4,Chinese,f,9,0.9,64.49384663,1.54934709
DJX,13,0,2024-06-13T10:28:56.157Z,english_404.wav,0,0,1503,20,4,Chinese,f,10,1,-87.57862232,0.71675997
DJX,13,0,2024-06-13T10:28:56.157Z,english_404.wav,0,0,1503,20,4,Chinese,f,11,1.09391667,-93.26487386,1.21108184
DJX,14,0,2024-06-13T10:28:56.157Z,english_375.wav,0,1,643,20,4,Chinese,f,0,0,-66.54027977,1.30902013
DJX,14,0,2024-06-13T10:28:56.157Z,english_375.wav,0,1,643,20,4,Chinese,f,1,0.1,72.08787066,1.77420651
DJX,14,0,2024-06-13T10:28:56.157Z,english_375.wav,0,1,643,20,4,Chinese,f,2,0.2,-56.77584869,1.24550761
DJX,14,0,2024-06-13T10:28:56.157Z,english_375.wav,0,1,643,20,4,Chinese,f,3,0.3,-36.97947012,0.68148521
DJX,14,0,2024-06-13T10:28:56.157Z,english_375.wav,0,1,643,20,4,Chinese,f,4,0.4,43.73402827,1.5097978
DJX,14,0,2024-06-13T10:28:56.157Z,english_375.wav,0,1,643,20,4,Chinese,f,5,0.5,19.53034116,0.87895003
DJX,14,0,2024-06-13T10:28:56.157Z,english_375.wav,0,1,643,20,4,Chinese,f,6,0.6,-35.65016919,0.57287352
DJX,14,0,2024-06-13T10:28:56.157Z,english_375.wav,0,1,643,20,4,Chinese,f,7,0.7,12.37356045,0.19847139
DJX,14,0,2024-06-13T10:28:56.157Z,english_375.wav,0,1,643,20,4,Chinese,f,8,0.8,-24.97795402,1.57884859
DJX,14,0,2024-06-13T10:28:56.157Z,english_375.wav,0,1,643,20,4,Chinese,f,9,0.9,57.77915604,1.32641243
DJX,14,0,2024-06-13T10:28:56.157Z,english_375.wav,0,1,643,20,4,Chinese,f,10,1,-30.716589,0.36090675
DJX,14,0,2024-06-13T10:28:56.157Z,english_375.wav,0,1,643,20,4,Chinese,f,11,1.09391667,78.48935482,1.90030926
DJX,15,0,2024-06-13T10:28:56.157Z,english_844.wav,0,0,1191,20,4,Chinese,f,0,0,11.393599,0.33558218
DJX,15,0,2024-06-13T10:28:56.157Z,english_844.wav,0,0,1191,20,4,Chinese,f,1,0.1,-25.92763325,1.47085946
DJX,15,0,2024-06-13T10:28:56.157Z,english_844.wav,0,0,1191,20,4,Chinese,f,2,0.2,93.09450751,0.42700658
DJX,15,0,2024-06-13T10:28:56.157Z,english_844.wav,0,0,1191,20,4,Chinese,f,3,0.3,17.50673978,1.63800854
DJX,15,0,2024-06-13T10:28:56.157Z,english_844.wav,0,0,1191,20,4,Chinese,f,4,0.4,-67.065208,1.67053022
DJX,15,0,2024-06-13T10:28:56.157Z,english_844.wav,0,0,1191,20,4,Chinese,f,5,0.5,0.14838244,0.8636525
DJX,15,0,2024-06-13T10:28:56.157Z,english_844.wav,0,0,1191,20,4,Chinese,f,6,0.6,-22.94606211,0.51731901
DJX,15,0,2024-06-13T10:28:56.157Z,english_844.wav,0,0,1191,20,4,Chinese,f,7,0.7,-18.25136922,0.97200789
DJX,15,0,2024-06-13T10:28:56.157Z,english_844.wav,0,0,1191,20,4,Chinese,f,8,0.8,-18.86724281,0.10665745
DJX,15,0,2024-06-13T10:28:56.157Z,english_844.wav,0,0,1191,20,4,Chinese,f,9,0.9,47.3067892,0.48829347
DJX,15,0,2024-06-13T10:28:56.157Z,english_844.wav,0,0,1191,20,4,Chinese,f,10,1,58.80279443,0.96735989
DJX,15,0,2024-06-13T10:28:56.157Z,english_844.wav,0,0,1191,20,4,Chinese,f,11,1.09391667,-1.7109362,0.80931934
DJX,16,0,2024-06-13T10:28:56.157Z,english_789.wav,0,1,655,20,4,Chinese,f,0,0,50.62849976,1.65376855
DJX,16,0,2024-06-13T10:28:56.157Z,english_789.wav,0,1,655,20,4,Chinese,f,1,0.1,46.39641285,0.25516595
DJX,16,0,2024-06-13T10:28:56.157Z,english_789.wav,0,1,655,20,4,Chinese,f,2,0.2,-17.70636983,1.77379995
DJX,16,0,2024-06-13T10:28:56.157Z,english_789.wav,0,1,655,20,4,Chinese,f,3,0.3,-70.54012265,1.01588482
DJX,16,0,2024-06-13T10:28:56.157Z,english_789.wav,0,1,655,20,4,Chinese,f,4,0.4,-41.61831808,0.40942594
DJX,16,0,2024-06-13T10:28:56.157Z,english_789.wav,0,1,655,20,4,Chinese,f,5,0.5,6.76921547,0.77453827
DJX,16,0,2024-06-13T10:28:56.157Z,english_789.wav,0,1,655,20,4,Chinese,f,6,0.6,-23.06076299,0.48985142
DJX,16,0,2024-06-13T10:28:56.157Z,english_789.wav,0,1,655,20,4,Chinese,f,7,0.7,12.0616888,0.23736517
DJX,16,0,2024-06-13T10:28:56.157Z,english_789.wav,0,1,655,20,4,Chinese,f,8,0.8,-0.46236059,1.96173919
DJX,16,0,2024-06-13T10:28:56.157Z,english_789.wav,0,1,655,20,4,Chinese,f,9,0.9,1.32265195,1.17779465
DJX,16,0,2024-06-13T10:28:56.157Z,english_789.wav,0,1,655,20,4,Chinese,f,10,1,-42.41851316,1.11577027
DJX,16,0,2024-06-13T10:28:56.157Z,english_789.wav,0,1,655,20,4,Chinese,f,11,1.09391667,16.23009632,0.26104585
DJX,17,0,2024-06-13T10:28:56.157Z,english_498.wav,0,1,800,20,4,Chinese,f,0,0,43.98055184,1.94722798
DJX,17,0,2024-06-13T10:28:56.157Z,english_498.wav,0,1,800,20,4,Chinese,f,1,0.1,91.3545984,1.93048351
DJX,17,0,2024-06-13T10:28:56.157Z,english_498.wav,0,1,800,20,4,Chinese,f,2,0.2,-25.91563113,0.27240706
DJX,17,0,2024-06-13T10:28:56.157Z,english_498.wav,0,1,800,20,4,Chinese,f,3,0.3,-14.96140851,1.06623965
DJX,17,0,2024-06-13T10:28:56.157Z,english_498.wav,0,1,800,20,4,Chinese,f,4,0.4,-8.05824247,1.41558656
DJX,17,0,2024-06-13T10:28:56.157Z,english_498.wav,0,1,800,20,4,Chinese,f,5,0.5,-61.63888891,0.26700347
DJX,17,0,2024-06-13T10:28:56.157Z,english_498.wav,0,1,800,20,4,Chinese,f,6,0.6,37.86658664,0.54434522
DJX,17,0,2024-06-13T10:28:56.157Z,english_498.wav,0,1,800,20,4,Chinese,f,7,0.7,-97.52325855,0.79258737
DJX,17,0,2024-06-13T10:28:56.157Z,english_498.wav,0,1,800,20,4,Chinese,f,8,0.8,-16.03910224,1.13417158
DJX,17,0,2024-06-13T10:28:56.157Z,english_498.wav,0,1,800,20,4,Chinese,f,9,0.9,83.25609208,0.68565339
DJX,17,0,2024-06-13T10:28:56.157Z,english_498.wav,0,1,800,20,4,Chinese,f,10,1,-65.28300381,0.73020294
DJX,17,0,2024-06-13T10:28:56.157Z,english_498.wav,0,1,800,20,4,Chinese,f,11,1.09391667,38.04109912,1.48505369
DJX,18,0,2024-06-13T10:28:56.157Z,english_744.wav,0,1,607,20,4,Chinese,f,0,0,68.01647572,0.92301697
DJX,18,0,2024-06-13T10:28:56.157Z,english_744.wav,0,1,607,20,4,Chinese,f,1,0.1,-94.84396495,1.7240092
DJX,18,0,2024-06-13T10:28:56.157Z,english_744.wav,0,1,607,20,4,Chinese,f,2,0.2,-7.3752647,0.78395161
DJX,18,0,2024-06-13T10:28:56.157Z,english_744.wav,0,1,607,20,4,Chinese,f,3,0.3,-81.08479212,1.15168853
DJX,18,0,2024-06-13T10:28:56.157Z,english_744.wav,0,1,607,20,4,Chinese,f,4,0.4,-44.66331389,0.98824464
DJX,18,0,2024-06-13T10:28:56.157Z,english_744.wav,0,1,607,20,4,Chinese,f,5,0.5,-77.45989494,1.26560798
DJX,18,0,2024-06-13T10:28:56.157Z,english_744.wav,0,1,607,20,4,Chinese,f,6,0.6,19.1026234,0.20042884
DJX,18,0,2024-06-13T10:28:56.157Z,english_744.wav,0,1,607,20,4,Chinese,f,7,0.7,-0.63798112,1.76365186
DJX,18,0,2024-06-13T10:28:56.157Z,english_744.wav,0,1,607,20,4,Chinese,f,8,0.8,74.86031238,1.68948901
DJX,18,0,2024-06-13T10:28:56.157Z,english_744.wav,0,1,607,20,4,Chinese,f,9,0.9,-35.9107796,0.81659748
DJX,18,0,2024-06-13T10:28:56.157Z,english_744.wav,0,1,607,20,4,Chinese,f,10,1,-6.98299608,1.14393897
DJX,18,0,2024-06-13T10:28:56.157Z,english_744.wav,0,1,607,20,4,Chinese,f,11,1.09391667,-12.26999011,0.86480781
DJX,19,0,2024-06-13T10:28:56.157Z,english_858.wav,0,1,2299,20,4,Chinese,f,0,0,-15.37505572,0.64393049
DJX,19,0,2024-06-13T10:28:56.157Z,english_858.wav,0,1,2299,20,4,Chinese,f,1,0.1,47.09921101,1.19859165
DJX,19,0,2024-06-13T10:28:56.157Z,english_858.wav,0,1,2299,20,4,Chinese,f,2,0.2,-76.0790668,1.93258785
DJX,19,0,2024-06-13T10:28:56.157Z,english_858.wav,0,1,2299,20,4,Chinese,f,3,0.3,-80.27517843,0.51921333
DJX,19,0,2024-06-13T10:28:56.157Z,english_858.wav,0,1,2299,20,4,Chinese,f,4,0.4,-25.73472899,0.72976133
DJX,19,0,2024-06-13T10:28:56.157Z,english_858.wav,0,1,2299,20,4,Chinese,f,5,0.5,-3.51621139,1.3656743
DJX,19,0,2024-06-13T10:28:56.157Z,english_858.wav,0,1,2299,20,4,Chinese,f,6,0.6,-42.58463449,1.33625445
DJX,19,0,2024-06-13T10:28:56.157Z,english_858.wav,0,1,2299,20,4,Chinese,f,7,0.7,-98.39604525,1.13554824
DJX,19,0,2024-06-13T10:28:56.157Z,english_858.wav,0,1,2299,20,4,Chinese,f,8,0.8,89.96106068,1.47590746
DJX,19,0,2024-06-13T10:28:56.157Z,english_858.wav,0,1,2299,20,4,Chinese,f,9,0.9,77.78135143,1.4256977
DJX,19,0,2024-06-13T10:28:56.157Z,english_858.wav,0,1,2299,20,4,Chinese,f,10,1,-48.66962061,0.99815363
DJX,19,0,2024-06-13T10:28:56.157Z,english_858.wav,0,1,2299,20,4,Chinese,f,11,1.09391667,-42.55835381,1.06699265
DJX,20,0,2024-06-13T10:28:56.157Z,english_697.wav,0,0,1914,20,4,Chinese,f,0,0,-28.25272972,0.74562658
DJX,20,0,2024-06-13T10:28:56.157Z,english_697.wav,0,0,1914,20,4,Chinese,f,1,0.1,9.35350144,1.65036421
DJX,20,0,2024-06-13T10:28:56.157Z,english_697.wav,0,0,1914,20,4,Chinese,f,2,0.2,-7.31902563,0.51352458
DJX,20,0,2024-06-13T10:28:56.157Z,english_697.wav,0,0,1914,20,4,Chinese,f,3,0.3,-28.05711443,1.22091514
DJX,20,0,2024-06-13T10:28:56.157Z,english_697.wav,0,0,1914,20,4,Chinese,f,4,0.4,-24.84079268,0.19652908
DJX,20,0,2024-06-13T10:28:56.157Z,english_697.wav,0,0,1914,20,4,Chinese,f,5,0.5,-11.64681016,1.30348786
DJX,20,0,2024-06-13T10:28:56.157Z,english_697.wav,0,0,1914,20,4,Chinese,f,6,0.6,-31.01161183,0.73369273
DJX,20,0,2024-06-13T10:28:56.157Z,english_697.wav,0,0,1914,20,4,Chinese,f,7,0.7,8.33198828,1.45670074
DJX,20,0,2024-06-13T10:28:56.157Z,english_697.wav,0,0,1914,20,4,Chinese,f,8,0.8,2.96881997,0.3217924
DJX,20,0,2024-06-13T10:28:56.157Z,english_697.wav,0,0,1914,20,4,Chinese,f,9,0.9,1.22757185,0.26155094
DJX,20,0,2024-06-13T10:28:56.157Z,english_697.wav,0,0,1914,20,4,Chinese,f,10,1,14.4901502,1.78541804
DJX,20,0,2024-06-13T10:28:56.157Z,english_697.wav,0,0,1914,20,4,Chinese,f,11,1.09391667,-93.23839425,0.76602212
DJX,21,0,2024-06-13T10:28:56.157Z,english_812.wav,0,1,1673,20,4,Chinese,f,0,0,-74.39405292,0.33785156
DJX,21,0,2024-06-13T10:28:56.157Z,english_812.wav,0,1,1673,20,4,Chinese,f,1,0.1,48.51980233,1.22752684
DJX,21,0,2024-06-13T10:28:56.157Z,english_812.wav,0,1,1673,20,4,Chinese,f,2,0.2,30.32531814,1.43694832
DJX,21,0,2024-06-13T10:28:56.157Z,english_812.wav,0,1,1673,20,4,Chinese,f,3,0.3,85.76843882,1.56264474
DJX,21,0,2024-06-13T10:28:56.157Z,english_812.wav,0,1,1673,20,4,Chinese,f,4,0.4,0.84929795,0.39298857
DJX,21,0,2024-06-13T10:28:56.157Z,english_812.wav,0,1,1673,20,4,Chinese,f,5,0.5,-13.37525602,1.28085639
DJX,21,0,2024-06-13T10:28:56.157Z,english_812.wav,0,1,1673,20,4,Chinese,f,6,0.6,54.45247284,1.06153563
DJX,21,0,2024-06-13T10:28:56.157Z,english_812.wav,0,1,1673,20,4,Chinese,f,7,0.7,-16.62398762,1.70174888
DJX,21,0,2024-06-13T10:28:56.157Z,english_812.wav,0,1,1673,20,4,Chinese,f,8,0.8,13.79350344,1.57881104
DJX,21,0,2024-06-13T10:28:56.157Z,english_812.wav,0,1,1673,20,4,Chinese,f,9,0.9,-99.90183813,0.93688007
DJX,21,0,2024-06-13T10:28:56.157Z,english_812.wav,0,1,1673,20,4,Chinese,f,10,1,-21.07031743,0.34388752
DJX,21,0,2024-06-13T10:28:56.157Z,english_812.wav,0,1,1673,20,4,Chinese,f,11,1.09391667,-92.73500895,0.8834258
DJX,22,0,2024-06-13T10:28:56.157Z,english_332.wav,0,0,2227,20,4,Chinese,f,0,0,53.78872747,0.07590352
DJX,22,0,2024-06-13T10:28:56.157Z,english_332.wav,0,0,2227,20,4,Chinese,f,1,0.1,-31.30231847,0.7087577
DJX,22,0,2024-06-13T10:28:56.157Z,english_332.wav,0,0,2227,20,4,Chinese,f,2,0.2,-95.20758858,1.45218303
DJX,22,0,2024-06-13T10:28:56.157Z,english_332.wav,0,0,2227,20,4,Chinese,f,3,0.3,-77.87616394,0.80997209
DJX,22,0,2024-06-13T10:28:56.157Z,english_332.wav,0,0,2227,20,4,Chinese,f,4,0.4,4.48979234,1.75678136
DJX,22,0,2024-06-13T10:28:56.157Z,english_332.wav,0,0,2227,20,4,Chinese,f,5,0.5,-76.42784497,1.99645024
DJX,22,0,2024-06-13T10:28:56.157Z,english_332.wav,0,0,2227,20,4,Chinese,f,6,0.6,6.07718634,1.82588157
DJX,22,0,2024-06-13T10:28:56.157Z,english_332.wav,0,0,2227,20,4,Chinese,f,7,0.7,-41.20247157,0.2120908
DJX,22,0,2024-06-13T10:28:56.157Z,english_332.wav,0,0,2227,20,4,Chinese,f,8,0.8,-17.3481238,0.72760948
DJX,22,0,2024-06-13T10:28:56.157Z,english_332.wav,0,0,2227,20,4,Chinese,f,9,0.9,-17.17913846,0.31892552
DJX,22,0,2024-06-13T10:28:56.157Z,english_332.wav,0,0,2227,20,4,Chinese,f,10,1,18.70166714,0.40752537
DJX,22,0,2024-06-13T10:28:56.157Z,english_332.wav,0,0,2227,20,4,Chinese,f,11,1.09391667,50.68092334,0.76645959
DJX,23,0,2024-06-13T10:28:56.157Z,english_94.wav,0,0,1267,20,4,Chinese,f,0,0,-69.13613192,0.71683615
DJX,23,0,2024-06-13T10:28:56.157Z,english_94.wav,0,0,1267,20,4,Chinese,f,1,0.1,-53.91573564,1.64130178
DJX,23,0,2024-06-13T10:28:56.157Z,english_94.wav,0,0,1267,20,4,Chinese,f,2,0.2,88.54569891,1.41561382
DJX,23,0,2024-06-13T10:28:56.157Z,english_94.wav,0,0,1267,20,4,Chinese,f,3,0.3,47.91558238,0.72478091
DJX,23,0,2024-06-13T10:28:56.157Z,english_94.wav,0,0,1267,20,4,Chinese,f,4,0.4,46.13883045,1.21480875
DJX,23,0,2024-06-13T10:28:56.157Z,english_94.wav,0,0,1267,20,4,Chinese,f,5,0.5,0.71209955,0.13058063
DJX,23,0,2024-06-13T10:28:56.157Z,english_94.wav,0,0,1267,20,4,Chinese,f,6,0.6,53.89774049,1.07607775
DJX,23,0,2024-06-13T10:28:56.157Z,english_94.wav,0,0,1267,20,4,Chinese,f,7,0.7,37.22112319,0.10112022
DJX,23,0,2024-06-13T10:28:56.157Z,english_94.wav,0,0,1267,20,4,Chinese,f,8,0.8,8.13348347,0.91343474
DJX,23,0,2024-06-13T10:28:56.157Z,english_94.wav,0,0,1267,20,4,Chinese,f,9,0.9,-10.35793642,0.77751528
DJX,23,0,2024-06-13T10:28:56.157Z,english_94.wav,0,0,1267,20,4,Chinese,f,10,1,75.25647247,0.57088528
DJX,23,0,2024-06-13T10:28:56.157Z,english_94.wav,0,0,1267,20,4,Chinese,f,11,1.09391667,-70.34686187,0.98841109
DJX,24,0,2024-06-13T10:28:56.157Z,english_1000.wav,0,1,1402,20,4,Chinese,f,0,0,-1.5072561,0.91946401
DJX,24,0,2024-06-13T10:28:56.157Z,english_1000.wav,0,1,1402,20,4,Chinese,f,1,0.1,39.79014661,1.39592101
DJX,24,0,2024-06-13T10:28:56.157Z,english_1000.wav,0,1,1402,20,4,Chinese,f,2,0.2,58.76846959,0.5487596
DJX,24,0,2024-06-13T10:28:56.157Z,english_1000.wav,0,1,1402,20,4,Chinese,f,3,0.3,28.54889901,1.20778852
DJX,24,0,2024-06-13T10:28:56.157Z,english_1000.wav,0,1,1402,20,4,Chinese,f,4,0.4,-74.34288484,0.05870568
DJX,24,0,2024-06-13T10:28:56.157Z,english_1000.wav,0,1,1402,20,4,Chinese,f,5,0.5,7.94862856,1.40576818
DJX,24,0,2024-06-13T10:28:56.157Z,english_1000.wav,0,1,1402,20,4,Chinese,f,6,0.6,75.96899765,0.56511458
DJX,24,0,2024-06-13T10:28:56.157Z,english_1000.wav,0,1,1402,20,4,Chinese,f,7,0.7,20.32286843,0.44257477
DJX,24,0,2024-06-13T10:28:56.157Z,english_1000.wav,0,1,1402,20,4,Chinese,f,8,0.8,6.51139675,0.97037601
DJX,24,0,2024-06-13T10:28:56.157Z,english_1000.wav,0,1,1402,20,4,Chinese,f,9,0.9,95.873103,1.4916368
DJX,24,0,2024-06-13T10:28:56.157Z,english_1000.wav,0,1,1402,20,4,Chinese,f,10,1,76.48547212,1.12595485
DJX,24,0,2024-06-13T10:28:56.157Z,english_1000.wav,0,1,1402,20,4,Chinese,f,11,1.09391667,42.88935731,1.31879984
DJX,25,0,2024-06-13T10:28:56.157Z,english_408.wav,0,0,689,20,4,Chinese,f,0,0,-0.56649463,0.16918067
DJX,25,0,2024-06-13T10:28:56.157Z,english_408.wav,0,0,689,20,4,Chinese,f,1,0.1,13.00923979,0.56010747
DJX,25,0,2024-06-13T10:28:56.157Z,english_408.wav,0,0,689,20,4,Chinese,f,2,0.2,-71.83469139,0.19245092
DJX,25,0,2024-06-13T10:28:56.157Z,english_408.wav,0,0,689,20,4,Chinese,f,3,0.3,-46.43306622,1.1181282
DJX,25,0,2024-06-13T10:28:56.157Z,english_408.wav,0,0,689,20,4,Chinese,f,4,0.4,57.51005943,1.74879815
DJX,25,0,2024-06-13T10:28:56.157Z,english_408.wav,0,0,689,20,4,Chinese,f,5,0.5,-16.94006388,1.22782003
DJX,25,0,2024-06-13T10:28:56.157Z,english_408.wav,0,0,689,20,4,Chinese,f,6,0.6,81.03561566,0.47006698
DJX,25,0,2024-06-13T10:28:56.157Z,english_408.wav,0,0,689,20,4,Chinese,f,7,0.7,-97.26947589,0.46279929
DJX,25,0,2024-06-13T10:28:56.157Z,english_408.wav,0,0,689,20,4,Chinese,f,8,0.8,-59.24275724,1.0844665
DJX,25,0,2024-06-13T10:28:56.157Z,english_408.wav,0,0,689,20,4,Chinese,f,9,0.9,83.02020542,0.29234844
DJX,25,0,2024-06-13T10:28:56.157Z,english_408.wav,0,0,689,20,4,Chinese,f,10,1,-24.61759246,0.88583526
DJX,25,0,2024-06-13T10:28:56.157Z,english_408.wav,0,0,689,20,4,Chinese,f,11,1.09391667,26.07197114,1.9319493
DJX,26,0,2024-06-13T10:28:56.157Z,english_853.wav,0,1,1424,20,4,Chinese,f,0,0,73.80957671,0.26230627
DJX,26,0,2024-06-13T10:28:56.157Z,english_853.wav,0,1,1424,20,4,Chinese,f,1,0.1,37.61319896,1.27859335
DJX,26,0,2024-06-13T10:28:56.157Z,english_853.wav,0,1,1424,20,4,Chinese,f,2,0.2,66.36541624,1.90614201
DJX,26,0,2024-06-13T10:28:56.157Z,english_853.wav,0,1,1424,20,4,Chinese,f,3,0.3,52.83840981,1.77793473
DJX,26,0,2024-06-13T10:28:56.157Z,english_853.wav,0,1,1424,20,4,Chinese,f,4,0.4,-44.13201993,1.82128224
DJX,26,0,2024-06-13T10:28:56.157Z,english_853.wav,0,1,1424,20,4,Chinese,f,5,0.5,78.92983873,0.37682562
DJX,26,0,2024-06-13T10:28:56.157Z,english_853.wav,0,1,1424,20,4,Chinese,f,6,0.6,81.37511439,0.77805764
DJX,26,0,2024-06-13T10:28:56.157Z,english_853.wav,0,1,1424,20,4,Chinese,f,7,0.7,-17.4677503,1.13496325
DJX,26,0,2024-06-13T10:28:56.157Z,english_853.wav,0,1,1424,20,4,Chinese,f,8,0.8,-1.76399053,0.96839897
DJX,26,0,2024-06-13T10:28:56.157Z,english_853.wav,0,1,1424,20,4,Chinese,f,9,0.9,46.72276769,1.53181919
DJX,26,0,2024-06-13T10:28:56.157Z,english_853.wav,0,1,1424,20,4,Chinese,f,10,1,-99.76046779,0.67948754
DJX,26,0,2024-06-13T10:28:56.157Z,english_853.wav,0,1,1424,20,4,Chinese,f,11,1.09391667,-16.24419339,1.26605171
DJX,27,0,2024-06-13T10:28:56.157Z,english_347.wav,0,1,1093,20,4,Chinese,f,0,0,-77.92779138,1.02669822
DJX,27,0,2024-06-13T10:28:56.157Z,english_347.wav,0,1,1093,20,4,Chinese,f,1,0.1,-64.69220677,0.41696548
DJX,27,0,2024-06-13T10:28:56.157Z,english_347.wav,0,1,1093,20,4,Chinese,f,2,0.2,-52.71418659,1.03112891
DJX,27,0,2024-06-13T10:28:56.157Z,english_347.wav,0,1,1093,20,4,Chinese,f,3,0.3,63.39772469,0.20004082
DJX,27,0,2024-06-13T10:28:56.157Z,english_347.wav,0,1,1093,20,4,Chinese,f,4,0.4,28.65691045,0.24296187
DJX,27,0,2024-06-13T10:28:56.157Z,english_347.wav,0,1,1093,20,4,Chinese,f,5,0.5,-54.91733511,0.01939813
DJX,27,0,2024-06-13T10:28:56.157Z,english_347.wav,0,1,1093,20,4,Chinese,f,6,0.6,28.83719113,1.71588951
DJX,27,0,2024-06-13T10:28:56.157Z,english_347.wav,0,1,1093,20,4,Chinese,f,7,0.7,71.325035,0.13307252
DJX,27,0,2024-06-13T10:28:56.157Z,english_347.wav,0,1,1093,20,4,Chinese,f,8,0.8,64.29714523,0.90631223
DJX,27,0,2024-06-13T10:28:56.157Z,english_347.wav,0,1,1093,20,4,Chinese,f,9,0.9,-52.51835147,1.74084271
DJX,27,0,2024-06-13T10:28:56.157Z,english_347.wav,0,1,1093,20,4,Chinese,f,10,1,-41.65784487,0.63465457
DJX,27,0,2024-06-13T10:28:56.157Z,english_347.wav,0,1,1093,20,4,Chinese,f,11,1.09391667,-56.27332848,1.27137416
DJX,28,0,2024-06-13T10:28:56.157Z,english_187.wav,0,1,1138,20,4,Chinese,f,0,0,55.99370729,1.82256068
DJX,28,0,2024-06-13T10:28:56.157Z,english_187.wav,0,1,1138,20,4,Chinese,f,1,0.1,-13.74585555,1.69505517
DJX,28,0,2024-06-13T10:28:56.157Z,english_187.wav,0,1,1138,20,4,Chinese,f,2,0.2,-0.42640895,1.33791079
DJX,28,0,2024-06-13T10:28:56.157Z,english_187.wav,0,1,1138,20,4,Chinese,f,3,0.3,-47.34493384,0.12415078
DJX,28,0,2024-06-13T10:28:56.157Z,english_187.wav,0,1,1138,20,4,Chinese,f,4,0.4,1.27244399,1.40350832
DJX,28,0,2024-06-13T10:28:56.157Z,english_187.wav,0,1,1138,20,4,Chinese,f,5,0.5,-51.74565009,1.6134035
DJX,28,0,2024-06-13T10:28:56.157Z,english_187.wav,0,1,1138,20,4,Chinese,f,6,0.6,-77.25155481,1.12966524
DJX,28,0,2024-06-13T10:28:56.157Z,english_187.wav,0,1,1138,20,4,Chinese,f,7,0.7,69.19112944,0.02740784
DJX,28,0,2024-06-13T10:28:56.157Z,english_187.wav,0,1,1138,20,4,Chinese,f,8,0.8,-97.84143732,1.26777643
DJX,28,0,2024-06-13T10:28:56.157Z,english_187.wav,0,1,1138,20,4,Chinese,f,9,0.9,5.06490506,1.52431862
DJX,28,0,2024-06-13T10:28:56.157Z,english_187.wav,0,1,1138,20,4,Chinese,f,10,1,67.30450542,1.3588447
DJX,28,0,2024-06-13T10:28:56.157Z,english_187.wav,0,1,1138,20,4,Chinese,f,11,1.09391667,44.03847764,1.80453633
DJX,29,0,2024-06-13T10:28:56.157Z,english_164.wav,0,0,894,20,4,Chinese,f,0,0,25.67612046,1.60368468
DJX,29,0,2024-06-13T10:28:56.157Z,english_164.wav,0,0,894,20,4,Chinese,f,1,0.1,-73.22421847,0.71109799
DJX,29,0,2024-06-13T10:28:56.157Z,english_164.wav,0,0,894,20,4,Chinese,f,2,0.2,45.60415064,0.65921899
DJX,29,0,2024-06-13T10:28:56.157Z,english_164.wav,0,0,894,20,4,Chinese,f,3,0.3,93.27879502,1.59053842
DJX,29,0,2024-06-13T10:28:56.157Z,english_164.wav,0,0,894,20,4,Chinese,f,4,0.4,33.1762566,0.71799916
DJX,29,0,2024-06-13T10:28:56.157Z,english_164.wav,0,0,894,20,4,Chinese,f,5,0.5,47.64320434,1.2187377
DJX,29,0,2024-06-13T10:28:56.157Z,english_164.wav,0,0,894,20,4,Chinese,f,6,0.6,-19.19510789,1.25318934
DJX,29,0,2024-06-13T10:28:56.157Z,english_164.wav,0,0,894,20,4,Chinese,f,7,0.7,-33.42680653,0.56903982
DJX,29,0,2024-06-13T10:28:56.157Z,english_164.wav,0,0,894,20,4,Chinese,f,8,0.8,47.71435933,0.44355463
DJX,29,0,2024-06-13T10:28:56.157Z,english_164.wav,0,0,894,20,4,Chinese,f,9,0.9,5.90681892,1.65481096
DJX,29,0,2024-06-13T10:28:56.157Z,english_164.wav,0,0,894,20,4,Chinese,f,10,1,42.52423942,0.56871191
DJX,29,0,2024-06-13T10:28:56.157Z,english_164.wav,0,0,894,20,4,Chinese,f,11,1.09391667,43.22160039,0.29440298
DJX,30,0,2024-06-13T10:28:56.157Z,english_258.wav,0,1,1433,20,4,Chinese,f,0,0,25.58821978,1.29707378
DJX,30,0,2024-06-13T10:28:56.157Z,english_258.wav,0,1,1433,20,4,Chinese,f,1,0.1,7.03087627,0.49566701
DJX,30,0,2024-06-13T10:28:56.157Z,english_258.wav,0,1,1433,20,4,Chinese,f,2,0.2,-15.91116386,0.43385518
DJX,30,0,2024-06-13T10:28:56.157Z,english_258.wav,0,1,1433,20,4,Chinese,f,3,0.3,-10.18288773,0.30166849
DJX,30,0,2024-06-13T10:28:56.157Z,english_258.wav,0,1,1433,20,4,Chinese,f,4,0.4,-1.03622481,0.40418484
DJX,30,0,2024-06-13T10:28:56.157Z,english_258.wav,0,1,1433,20,4,Chinese,f,5,0.5,7.08237834,0.97614875
DJX,30,0,2024-06-13T10:28:56.157Z,english_258.wav,0,1,1433,20,4,Chinese,f,6,0.6,-65.85616389,0.50782257
DJX,30,0,2024-06-13T10:28:56.157Z,english_258.wav,0,1,1433,20,4,Chinese,f,7,0.7,61.11432003,1.26334363
DJX,30,0,2024-06-13T10:28:56.157Z,english_258.wav,0,1,1433,20,4,Chinese,f,8,0.8,62.35570806,1.6928405
DJX,30,0,2024-06-13T10:28:56.157Z,english_258.wav,0,1,1433,20,4,Chinese,f,9,0.9,64.93681849,1.97714506
DJX,30,0,2024-06-13T10:28:56.157Z,english_258.wav,0,1,1433,20,4,Chinese,f,10,1,-37.74920533,1.10059348
DJX,30,0,2024-06-13T10:28:56.157Z,english_258.wav,0,1,1433,20,4,Chinese,f,11,1.09391667,-81.90690998,1.23409369
DJX,31,0,2024-06-13T10:28:56.157Z,english_513.wav,0,1,2214,20,4,Chinese,f,0,0,69.69423026,1.14751405
DJX,31,0,2024-06-13T10:28:56.157Z,english_513.wav,0,1,2214,20,4,Chinese,f,1,0.1,-61.65221054,0.70036193
DJX,31,0,2024-06-13T10:28:56.157Z,english_513.wav,0,1,2214,20,4,Chinese,f,2,0.2,12.06620713,1.7124885
DJX,31,0,2024-06-13T10:28:56.157Z,english_513.wav,0,1,2214,20,4,Chinese,f,3,0.3,68.31024972,0.98016869
DJX,31,0,2024-06-13T10:28:56.157Z,english_513.wav,0,1,2214,20,4,Chinese,f,4,0.4,74.12641094,0.11366006
DJX,31,0,2024-06-13T10:28:56.157Z,english_513.wav,0,1,2214,20,4,Chinese,f,5,0.5,6.77833978,0.43979592
DJX,31,0,2024-06-13T10:28:56.157Z,english_513.wav,0,1,2214,20,4,Chinese,f,6,0.6,-4.07072349,1.91776754
DJX,31,0,2024-06-13T10:28:56.157Z,english_513.wav,0,1,2214,20,4,Chinese,f,7,0.7,-75.18978196,0.49107068
DJX,31,0,2024-06-13T10:28:56.157Z,english_513.wav,0,1,2214,20,4,Chinese,f,8,0.8,-25.44315508,0.92055325
DJX,31,0,2024-06-13T10:28:56.157Z,english_513.wav,0,1,2214,20,4,Chinese,f,9,0.9,1.64473536,0.8410121
DJX,31,0,2024-06-13T10:28:56.157Z,english_513.wav,0,1,2214,20,4,Chinese,f,10,1,-82.34234751,0.34671239
DJX,31,0,2024-06-13T10:28:56.157Z,english_513.wav,0,1,2214,20,4,Chinese,f,11,1.09391667,-17.87879592,1.52659427
DJX,32,0,2024-06-13T10:28:56.157Z,english_541.wav,0,0,637,20,4,Chinese,f,0,0,-82.81265179,1.86592143
DJX,32,0,2024-06-13T10:28:56.157Z,english_541.wav,0,0,637,20,4,Chinese,f,1,0.1,18.23831049,0.0388768
DJX,32,0,2024-06-13T10:28:56.157Z,english_541.wav,0,0,637,20,4,Chinese,f,2,0.2,-76.96396075,1.09878478
DJX,32,0,2024-06-13T10:28:56.157Z,english_541.wav,0,0,637,20,4,Chinese,f,3,0.3,86.02032489,0.28431894
DJX,32,0,2024-06-13T10:28:56.157Z,english_541.wav,0,0,637,20,4,Chinese,f,4,0.4,57.7574695,0.60530487
DJX,32,0,2024-06-13T10:28:56.157Z,english_541.wav,0,0,637,20,4,Chinese,f,5,0.5,-18.45048615,0.68867988
DJX,32,0,2024-06-13T10:28:56.157Z,english_541.wav,0,0,637,20,4,Chinese,f,6,0.6,-3.56295596,0.07188907
DJX,32,0,2024-06-13T10:28:56.157Z,english_541.wav,0,0,637,20,4,Chinese,f,7,0.7,30.63851894,1.28694892
DJX,32,0,2024-06-13T10:28:56.157Z,english_541.wav,0,0,637,20,4,Chinese,f,8,0.8,-39.32138092,0.37107191
DJX,32,0,2024-06-13T10:28:56.157Z,english_541.wav,0,0,637,20,4,Chinese,f,9,0.9,87.82943792,0.0101762
DJX,32,0,2024-06-13T10:28:56.157Z,english_541.wav,0,0,637,20,4,Chinese,f,10,1,-83.54766347,1.03448412
DJX,32,0,2024-06-13T10:28:56.157Z,english_541.wav,0,0,637,20,4,Chinese,f,11,1.09391667,-65.29737413,1.0808851
DJX,33,0,2024-06-13T10:28:56.157Z,english_430.wav,0,1,439,20,4,Chinese,f,0,0,-88.95761908,1.0411215
DJX,33,0,2024-06-13T10:28:56.157Z,english_430.wav,0,1,439,20,4,Chinese,f,1,0.1,39.34804897,1.73577333
DJX,33,0,2024-06-13T10:28:56.157Z,english_430.wav,0,1,439,20,4,Chinese,f,2,0.2,-21.72599187,0.8754531
DJX,33,0,2024-06-13T10:28:56.157Z,english_430.wav,0,1,439,20,4,Chinese,f,3,0.3,-97.97733292,0.18874451
DJX,33,0,2024-06-13T10:28:56.157Z,english_430.wav,0,1,439,20,4,Chinese,f,4,0.4,98.23201219,1.1142071
DJX,33,0,2024-06-13T10:28:56.157Z,english_430.wav,0,1,439,20,4,Chinese,f,5,0.5,92.79611353,0.3830467
DJX,33,0,2024-06-13T10:28:56.157Z,english_430.wav,0,1,439,20,4,Chinese,f,6,0.6,44.81381594,0.5347185
DJX,33,0,2024-06-13T10:28:56.157Z,english_430.wav,0,1,439,20,4,Chinese,f,7,0.7,-96.67681225,0.4014233
DJX,33,0,2024-06-13T10:28:56.157Z,english_430.wav,0,1,439,20,4,Chinese,f,8,0.8,99.24041947,0.50454446
DJX,33,0,2024-06-13T10:28:56.157Z,english_430.wav,0,1,439,20,4,Chinese,f,9,0.9,33.24344921,0.88496249
DJX,33,0,2024-06-13T10:28:56.157Z,english_430.wav,0,1,439,20,4,Chinese,f,10,1,-26.01349309,1.71251412
DJX,33,0,2024-06-13T10:28:56.157Z,english_430.wav,0,1,439,20,4,Chinese,f,11,1.09391667,-84.24925862,1.92006939
DJX,34,0,2024-06-13T10:28:56.157Z,english_687.wav,0,1,392,20,4,Chinese,f,0,0,-35.70290508,1.44721002
DJX,34,0,2024-06-13T10:28:56.157Z,english_687.wav,0,1,392,20,4,Chinese,f,1,0.1,96.19930643,1.66446564
DJX,34,0,2024-06-13T10:28:56.157Z,english_687.wav,0,1,392,20,4,Chinese,f,2,0.2,-16.32623685,0.17388823
DJX,34,0,2024-06-13T10:28:56.157Z,english_687.wav,0,1,392,20,4,Chinese,f,3,0.3,69.01262748,0.9756111
DJX,34,0,2024-06-13T10:28:56.157Z,english_687.wav,0,1,392,20,4,Chinese,f,4,0.4,-86.96335793,0.75788852
DJX,34,0,2024-06-13T10:28:56.157Z,english_687.wav,0,1,392,20,4,Chinese,f,5,0.5,-94.81036094,1.04245625
DJX,34,0,2024-06-13T10:28:56.157Z,english_687.wav,0,1,392,20,4,Chinese,f,6,0.6,24.28115893,0.94679533
DJX,34,0,2024-06-13T10:28:56.157Z,english_687.wav,0,1,392,20,4,Chinese,f,7,0.7,-73.50271946,1.98988769
DJX,34,0,2024-06-13T10:28:56.157Z,english_687.wav,0,1,392,20,4,Chinese,f,8,0.8,-67.86786343,1.9531078
DJX,34,0,2024-06-13T10:28:56.157Z,english_687.wav,0,1,392,20,4,Chinese,f,9,0.9,-59.44479717,1.90267124
DJX,34,0,2024-06-13T10:28:56.157Z,english_687.wav,0,1,392,20,4,Chinese,f,10,1,0.72231801,1.17236586
DJX,34,0,2024-06-13T10:28:56.157Z,english_687.wav,0,1,392,20,4,Chinese,f,11,1.09391667,-0.70049857,1.47850695
DJX,35,0,2024-06-13T10:28:56.157Z,english_148.wav,0,0,933,20,4,Chinese,f,0,0,85.27624152,0.1092145
DJX,35,0,2024-06-13T10:28:56.157Z,english_148.wav,0,0,933,20,4,Chinese,f,1,0.1,58.23579672,0.64980633
DJX,35,0,2024-06-13T10:28:56.157Z,english_148.wav,0,0,933,20,4,Chinese,f,2,0.2,-91.05033604,1.83346208
DJX,35,0,2024-06-13T10:28:56.157Z,english_148.wav,0,0,933,20,4,Chinese,f,3,0.3,20.11396141,1.16314863
DJX,35,0,2024-06-13T10:28:56.157Z,english_148.wav,0,0,933,20,4,Chinese,f,4,0.4,75.44798514,0.3185648
DJX,35,0,2024-06-13T10:28:56.157Z,english_148.wav,0,0,933,20,4,Chinese,f,5,0.5,-38.94488744,0.6593156
DJX,35,0,2024-06-13T10:28:56.157Z,english_148.wav,0,0,933,20,4,Chinese,f,6,0.6,-29.81274231,1.16710518
DJX,35,0,2024-06-13T10:28:56.157Z,english_148.wav,0,0,933,20,4,Chinese,f,7,0.7,75.45743384,1.07936895
DJX,35,0,2024-06-13T10:28:56.157Z,english_148.wav,0,0,933,20,4,Chinese,f,8,0.8,-13.70216327,0.75554181
DJX,35,0,2024-06-13T10:28:56.157Z,english_148.wav,0,0,933,20,4,Chinese,f,9,0.9,-90.12623186,1.33604039
DJX,35,0,2024-06-13T10:28:56.157Z,english_148.wav,0,0,933,20,4,Chinese,f,10,1,-27.22744176,1.61217721
DJX,35,0,2024-06-13T10:28:56.157Z,english_148.wav,0,0,933,20,4,Chinese,f,11,1.09391667,7.28951287,1.20550087
DJX,36,0,2024-06-13T10:28:56.157Z,english_738.wav,0,1,634,20,4,Chinese,f,0,0,40.29848329,1.14824707
DJX,36,0,2024-06-13T10:28:56.157Z,english_738.wav,0,1,634,20,4,Chinese,f,1,0.1,66.12105636,1.60387601
DJX,36,0,2024-06-13T10:28:56.157Z,english_738.wav,0,1,634,20,4,Chinese,f,2,0.2,-12.57692477,1.084542
DJX,36,0,2024-06-13T10:28:56.157Z,english_738.wav,0,1,634,20,4,Chinese,f,3,0.3,-81.4028628,1.81856642
DJX,36,0,2024-06-13T10:28:56.157Z,english_738.wav,0,1,634,20,4,Chinese,f,4,0.4,83.16146046,1.62922567
DJX,36,0,2024-06-13T10:28:56.157Z,english_738.wav,0,1,634,20,4,Chinese,f,5,0.5,59.80662428,0.86427283
DJX,36,0,2024-06-13T10:28:56.157Z,english_738.wav,0,1,634,20,4,Chinese,f,6,0.6,40.28369402,0.1736944
DJX,36,0,2024-06-13T10:28:56.157Z,english_738.wav,0,1,634,20,4,Chinese,f,7,0.7,70.16502192,0.66918612
DJX,36,0,2024-06-13T10:28:56.157Z,english_738.wav,0,1,634,20,4,Chinese,f,8,0.8,33.24952129,1.29313609
DJX,36,0,2024-06-13T10:28:56.157Z,english_738.wav,0,1,634,20,4,Chinese,f,9,0.9,-77.78198323,0.37962966
DJX,36,0,2024-06-13T10:28:56.157Z,english_738.wav,0,1,634,20,4,Chinese,f,10,1,6.29614131,0.80178577
DJX,36,0,2024-06-13T10:28:56.157Z,english_738.wav,0,1,634,20,4,Chinese,f,11,1.09391667,60.18727711,0.93492505
DJX,37,0,2024-06-13T10:28:56.157Z,english_535.wav,0,0,839,20,4,Chinese,f,0,0,-4.00375318,0.74823916
DJX,37,0,2024-06-13T10:28:56.157Z,english_535.wav,0,0,839,20,4,Chinese,f,1,0.1,-37.57387138,0.9109632
DJX,37,0,2024-06-13T10:28:56.157Z,english_535.wav,0,0,839,20,4,Chinese,f,2,0.2,-31.12595353,0.84755902
DJX,37,0,2024-06-13T10:28:56.157Z,english_535.wav,0,0,839,20,4,Chinese,f,3,0.3,2.06341331,1.09662022
DJX,37,0,2024-06-13T10:28:56.157Z,english_535.wav,0,0,839,20,4,Chinese,f,4,0.4,56.11576492,0.26254995
DJX,37,0,2024-06-13T10:28:56.157Z,english_535.wav,0,0,839,20,4,Chinese,f,5,0.5,30.13214978,1.29967994
DJX,37,0,2024-06-13T10:28:56.157Z,english_535.wav,0,0,839,20,4,Chinese,f,6,0.6,14.78197265,1.50452532
DJX,37,0,2024-06-13T10:28:56.157Z,english_535.wav,0,0,839,20,4,Chinese,f,7,0.7,-18.38930177,1.51808924
DJX,37,0,2024-06-13T10:28:56.157Z,english_535.wav,0,0,839,20,4,Chinese,f,8,0.8,-10.54396075,0.34439234
DJX,37,0,2024-06-13T10:28:56.157Z,english_535.wav,0,0,839,20,4,Chinese,f,9,0.9,39.09773013,0.86790386
DJX,37,0,2024-06-13T10:28:56.157Z,english_535.wav,0,0,839,20,4,Chinese,f,10,1,46.13111143,0.86784134
DJX,37,0,2024-06-13T10:28:56.157Z,english_535.wav,0,0,839,20,4,Chinese,f,11,1.09391667,-64.44597459,0.57511998
DJX,38,0,2024-06-13T10:28:56.157Z,english_533.wav,0,1,598,20,4,Chinese,f,0,0,82.3150146,1.74351328
DJX,38,0,2024-06-13T10:28:56.157Z,english_533.wav,0,1,598,20,4,Chinese,f,1,0.1,-62.65263441,1.01143167
DJX,38,0,2024-06-13T10:28:56.157Z,english_533.wav,0,1,598,20,4,Chinese,f,2,0.2,35.24658043,1.89837562
DJX,38,0,2024-06-13T10:28:56.157Z,english_533.wav,0,1,598,20,4,Chinese,f,3,0.3,-92.25963636,0.63714559
DJX,38,0,2024-06-13T10:28:56.157Z,english_533.wav,0,1,598,20,4,Chinese,f,4,0.4,55.18355153,1.6894321
DJX,38,0,2024-06-13T10:28:56.157Z,english_533.wav,0,1,598,20,4,Chinese,f,5,0.5,42.19734794,0.54282928
DJX,38,0,2024-06-13T10:28:56.157Z,english_533.wav,0,1,598,20,4,Chinese,f,6,0.6,26.84517853,1.89183876
DJX,38,0,2024-06-13T10:28:56.157Z,english_533.wav,0,1,598,20,4,Chinese,f,7,0.7,-96.44791366,0.53977312
DJX,38,0,2024-06-13T10:28:56.157Z,english_533.wav,0,1,598,20,4,Chinese,f,8,0.8,-32.52364266,1.51379003
DJX,38,0,2024-06-13T10:28:56.157Z,english_533.wav,0,1,598,20,4,Chinese,f,9,0.9,72.77745032,1.26846018
DJX,38,0,2024-06-13T10:28:56.157Z,english_533.wav,0,1,598,20,4,Chinese,f,10,1,-8.5096212,0.77810192
DJX,38,0,2024-06-13T10:28:56.157Z,english_533.wav,0,1,598,20,4,Chinese,f,11,1.09391667,-5.91345178,1.56024291
DJX,39,0,2024-06-13T10:28:56.157Z,english_366.wav,0,1,709,20,4,Chinese,f,0,0,-51.97670193,0.41387665
DJX,39,0,2024-06-13T10:28:56.157Z,english_366.wav,0,1,709,20,4,Chinese,f,1,0.1,-66.3802986,1.82440093
DJX,39,0,2024-06-13T10:28:56.157Z,english_366.wav,0,1,709,20,4,Chinese,f,2,0.2,-43.44577517,1.51666721
DJX,39,0,2024-06-13T10:28:56.157Z,english_366.wav,0,1,709,20,4,Chinese,f,3,0.3,-27.66745881,0.79221573
DJX,39,0,2024-06-13T10:28:56.157Z,english_366.wav,0,1,709,20,4,Chinese,f,4,0.4,-24.71146446,1.07358208
DJX,39,0,2024-06-13T10:28:56.157Z,english_366.wav,0,1,709,20,4,Chinese,f,5,0.5,7.18823907,0.88629464
DJX,39,0,2024-06-13T10:28:56.157Z,english_366.wav,0,1,709,20,4,Chinese,f,6,0.6,-1.04467208,1.421231
DJX,39,0,2024-06-13T10:28:56.157Z,english_366.wav,0,1,709,20,4,Chinese,f,7,0.7,-90.31563808,0.93675223
DJX,39,0,2024-06-13T10:28:56.157Z,english_366.wav,0,1,709,20,4,Chinese,f,8,0.8,-10.23526275,1.47759882
DJX,39,0,2024-06-13T10:28:56.157Z,english_366.wav,0,1,709,20,4,Chinese,f,9,0.9,47.79218582,1.29623614
DJX,39,0,2024-06-13T10:28:56.157Z,english_366.wav,0,1,709,20,4,Chinese,f,10,1,3.55736556,1.92903866
DJX,39,0,2024-06-13T10:28:56.157Z,english_366.wav,0,1,709,20,4,Chinese,f,11,1.09391667,-83.88061388,1.30968338
DJX,40,0,2024-06-13T10:28:56.157Z,english_160.wav,0,1,732,20,4,Chinese,f,0,0,54.87282188,1.23358014
DJX,40,0,2024-06-13T10:28:56.157Z,english_160.wav,0,1,732,20,4,Chinese,f,1,0.1,38.39559314,0.90117281
DJX,40,0,2024-06-13T10:28:56.157Z,english_160.wav,0,1,732,20,4,Chinese,f,2,0.2,45.94024754,1.29672558
DJX,40,0,2024-06-13T10:28:56.157Z,english_160.wav,0,1,732,20,4,Chinese,f,3,0.3,23.2538411,1.0625388
DJX,40,0,2024-06-13T10:28:56.157Z,english_160.wav,0,1,732,20,4,Chinese,f,4,0.4,-76.36457338,1.82179424
DJX,40,0,2024-06-13T10:28:56.157Z,english_160.wav,0,1,732,20,4,Chinese,f,5,0.5,-7.52503837,0.15771982
DJX,40,0,2024-06-13T10:28:56.157Z,english_160.wav,0,1,732,20,4,Chinese,f,6,0.6,-67.2018033,1.20020733
DJX,40,0,2024-06-13T10:28:56.157Z,english_160.wav,0,1,732,20,4,Chinese,f,7,0.7,40.79859053,1.72655744
DJX,40,0,2024-06-13T10:28:56.157Z,english_160.wav,0,1,732,20,4,Chinese,f,8,0.8,-54.00476677,1.68926394
DJX,40,0,2024-06-13T10:28:56.157Z,english_160.wav,0,1,732,20,4,Chinese,f,9,0.9,-39.47782367,0.81447331
DJX,40,0,2024-06-13T10:28:56.157Z,english_160.wav,0,1,732,20,4,Chinese,f,10,1,13.27455738,0.52461363
DJX,40,0,2024-06-13T10:28:56.157Z,english_160.wav,0,1,732,20,4,Chinese,f,11,1.09391667,82.72582228,1.24111221
DJX,41,0,2024-06-13T10:28:56.157Z,english_208.wav,0,0,592,20,4,Chinese,f,0,0,13.17731857,0.34094022
DJX,41,0,2024-06-13T10:28:56.157Z,english_208.wav,0,0,592,20,4,Chinese,f,1,0.1,13.38844503,0.19016609
DJX,41,0,2024-06-13T10:28:56.157Z,english_208.wav,0,0,592,20,4,Chinese,f,2,0.2,-2.93736893,0.78973148
DJX,41,0,2024-06-13T10:28:56.157Z,english_208.wav,0,0,592,20,4,Chinese,f,3,0.3,65.128601,1.45881618
DJX,41,0,2024-06-13T10:28:56.157Z,english_208.wav,0,0,592,20,4,Chinese,f,4,0.4,53.87360247,1.41599405
DJX,41,0,2024-06-13T10:28:56.157Z,english_208.wav,0,0,592,20,4,Chinese,f,5,0.5,-0.34021564,1.39781882
DJX,41,0,2024-06-13T10:28:56.157Z,english_208.wav,0,0,592,20,4,Chinese,f,6,0.6,-58.53870567,0.32952238
DJX,41,0,2024-06-13T10:28:56.157Z,english_208.wav,0,0,592,20,4,Chinese,f,7,0.7,-81.74346202,0.80753811
DJX,41,0,2024-06-13T10:28:56.157Z,english_208.wav,0,0,592,20,4,Chinese,f,8,0.8,-87.40484801,0.14343543
DJX,41,0,2024-06-13T10:28:56.157Z,english_208.wav,0,0,592,20,4,Chinese,f,9,0.9,-0.74903693,1.78385386
DJX,41,0,2024-06-13T10:28:56.157Z,english_208.wav,0,0,592,20,4,Chinese,f,10,1,44.66507116,1.76017797
DJX,41,0,2024-06-13T10:28:56.157Z,english_208.wav,0,0,592,20,4,Chinese,f,11,1.09391667,86.63877281,0.82405184
DJX,42,0,2024-06-13T10:28:56.157Z,english_458.wav,0,0,1407,20,4,Chinese,f,0,0,-17.35193705,0.22923126
DJX,42,0,2024-06-13T10:28:56.157Z,english_458.wav,0,0,1407,20,4,Chinese,f,1,0.1,76.25272333,1.42441377
DJX,42,0,2024-06-13T10:28:56.157Z,english_458.wav,0,0,1407,20,4,Chinese,f,2,0.2,66.551046,0.60732538
DJX,42,0,2024-06-13T10:28:56.157Z,english_458.wav,0,0,1407,20,4,Chinese,f,3,0.3,-95.41815816,0.4830802
DJX,42,0,2024-06-13T10:28:56.157Z,english_458.wav,0,0,1407,20,4,Chinese,f,4,0.4,-5.20731416,0.7532548
DJX,42,0,2024-06-13T10:28:56.157Z,english_458.wav,0,0,1407,20,4,Chinese,f,5,0.5,-15.31002561,1.81914976
DJX,42,0,2024-06-13T10:28:56.157Z,english_458.wav,0,0,1407,20,4,Chinese,f,6,0.6,63.5103627,1.22838438
DJX,42,0,2024-06-13T10:28:56.157Z,english_458.wav,0,0,1407,20,4,Chinese,f,7,0.7,-32.19044721,0.06067943
DJX,42,0,2024-06-13T10:28:56.157Z,english_458.wav,0,0,1407,20,4,Chinese,f,8,0.8,9.85446701,0.231332
DJX,42,0,2024-06-13T10:28:56.157Z,english_458.wav,0,0,1407,20,4,Chinese,f,9,0.9,-64.97569882,1.40147857
DJX,42,0,2024-06-13T10:28:56.157Z,english_458.wav,0,0,1407,20,4,Chinese,f,10,1,59.10726436,0.29468522
DJX,42,0,2024-06-13T10:28:56.157Z,english_458.wav,0,0,1407,20,4,Chinese,f,11,1.09391667,60.50538111,0.47293516
DJX,43,0,2024-06-13T10:28:56.157Z,english_140.wav,0,0,1314,20,4,Chinese,f,0,0,3.17682923,0.87887046
DJX,43,0,2024-06-13T10:28:56.157Z,english_140.wav,0,0,1314,20,4,Chinese,f,1,0.1,6.35877152,0.507187
DJX,43,0,2024-06-13T10:28:56.157Z,english_140.wav,0,0,1314,20,4,Chinese,f,2,0.2,-9.02165969,0.30654511
DJX,43,0,2024-06-13T10:28:56.157Z,english_140.wav,0,0,1314,20,4,Chinese,f,3,0.3,-36.47269085,0.61695793
DJX,43,0,2024-06-13T10:28:56.157Z,english_140.wav,0,0,1314,20,4,Chinese,f,4,0.4,-72.32699921,1.67577575
DJX,43,0,2024-06-13T10:28:56.157Z,english_140.wav,0,0,1314,20,4,Chinese,f,5,0.5,-28.69942826,0.30689604
DJX,43,0,2024-06-13T10:28:56.157Z,english_140.wav,0,0,1314,20,4,Chinese,f,6,0.6,68.422362,1.73923813
DJX,43,0,2024-06-13T10:28:56.157Z,english_140.wav,0,0,1314,20,4,Chinese,f,7,0.7,-32.97741766,1.33940979
DJX,43,0,2024-06-13T10:28:56.157Z,english_140.wav,0,0,1314,20,4,Chinese,f,8,0.8,-98.50350873,1.86246524
DJX,43,0,2024-06-13T10:28:56.157Z,english_140.wav,0,0,1314,20,4,Chinese,f,9,0.9,4.47546112,0.68629119
DJX,43,0,2024-06-13T10:28:56.157Z,english_140.wav,0,0,1314,20,4,Chinese,f,10,1,-70.93750026,1.82050493
DJX,43,0,2024-06-13T10:28:56.157Z,english_140.wav,0,0,1314,20,4,Chinese,f,11,1.09391667,36.42764636,1.04858085
DJX,44,0,2024-06-13T10:28:56.157Z,english_809.wav,0,0,982,20,4,Chinese,f,0,0,-9.12051171,1.24060405
DJX,44,0,2024-06-13T10:28:56.157Z,english_809.wav,0,0,982,20,4,Chinese,f,1,0.1,56.83840218,0.92544531
DJX,44,0,2024-06-13T10:28:56.157Z,english_809.wav,0,0,982,20,4,Chinese,f,2,0.2,-21.1464042,1.6749497
DJX,44,0,2024-06-13T10:28:56.157Z,english_809.wav,0,0,982,20,4,Chinese,f,3,0.3,57.63617788,0.74168877
DJX,44,0,2024-06-13T10:28:56.157Z,english_809.wav,0,0,982,20,4,Chinese,f,4,0.4,81.73006696,0.96063823
DJX,44,0,2024-06-13T10:28:56.157Z,english_809.wav,0,0,982,20,4,Chinese,f,5,0.5,1.9499243,1.38564295
DJX,44,0,2024-06-13T10:28:56.157Z,english_809.wav,0,0,982,20,4,Chinese,f,6,0.6,94.78967393,0.56911063
DJX,44,0,2024-06-13T10:28:56.157Z,english_809.wav,0,0,982,20,4,Chinese,f,7,0.7,65.64249462,0.51453492
DJX,44,0,2024-06-13T10:28:56.157Z,english_809.wav,0,0,982,20,4,Chinese,f,8,0.8,90.5146219,0.11779349
DJX,44,0,2024-06-13T10:28:56.157Z,english_809.wav,0,0,982,20,4,Chinese,f,9,0.9,37.72992996,0.31036913
DJX,44,0,2024-06-13T10:28:56.157Z,english_809.wav,0,0,982,20,4,Chinese,f,10,1,-3.08128901,0.78583843
DJX,44,0,2024-06-13T10:28:56.157Z,english_809.wav,0,0,982,20,4,Chinese,f,11,1.09391667,81.22811773,1.12131059
DJX,45,0,2024-06-13T10:28:56.157Z,english_411.wav,0,1,1688,20,4,Chinese,f,0,0,-19.70973195,0.11468893
DJX,45,0,2024-06-13T10:28:56.157Z,english_411.wav,0,1,1688,20,4,Chinese,f,1,0.1,35.06337641,1.30305137
DJX,45,0,2024-06-13T10:28:56.157Z,english_411.wav,0,1,1688,20,4,Chinese,f,2,0.2,-47.07660398,1.23342094
DJX,45,0,2024-06-13T10:28:56.157Z,english_411.wav,0,1,1688,20,4,Chinese,f,3,0.3,-98.68669902,0.59067951
DJX,45,0,2024-06-13T10:28:56.157Z,english_411.wav,0,1,1688,20,4,Chinese,f,4,0.4,2.91607837,0.74798004
DJX,45,0,2024-06-13T10:28:56.157Z,english_411.wav,0,1,1688,20,4,Chinese,f,5,0.5,-8.99732851,0.55407034
DJX,45,0,2024-06-13T10:28:56.157Z,english_411.wav,0,1,1688,20,4,Chinese,f,6,0.6,57.60803457,1.68778529
DJX,45,0,2024-06-13T10:28:56.157Z,english_411.wav,0,1,1688,20,4,Chinese,f,7,0.7,1.53142899,0.22674115
DJX,45,0,2024-06-13T10:28:56.157Z,english_411.wav,0,1,1688,20,4,Chinese,f,8,0.8,-32.18919875,0.93004634
DJX,45,0,2024-06-13T10:28:56.157Z,english_411.wav,0,1,1688,20,4,Chinese,f,9,0.9,-92.02235415,1.85827411
DJX,45,0,2024-06-13T10:28:56.157Z,english_411.wav,0,1,1688,20,4,Chinese,f,10,1,33.72578798,0.07029884
DJX,45,0,2024-06-13T10:28:56.157Z,english_411.wav,0,1,1688,20,4,Chinese,f,11,1.09391667,81.16053662,1.14058722
DJX,46,0,2024-06-13T10:28:56.157Z,english_852.wav,0,1,655,20,4,Chinese,f,0,0,-72.43588369,0.36787591
DJX,46,0,2024-06-13T10:28:56.157Z,english_852.wav,0,1,655,20,4,Chinese,f,1,0.1,-98.6251287,1.73505489
DJX,46,0,2024-06-13T10:28:56.157Z,english_852.wav,0,1,655,20,4,Chinese,f,2,0.2,-89.42746768,1.62660713
DJX,46,0,2024-06-13T10:28:56.157Z,english_852.wav,0,1,655,20,4,Chinese,f,3,0.3,-34.62530113,0.43311906
DJX,46,0,2024-06-13T10:28:56.157Z,english_852.wav,0,1,655,20,4,Chinese,f,4,0.4,30.41205687,0.44776213
DJX,46,0,2024-06-13T10:28:56.157Z,english_852.wav,0,1,655,20,4,Chinese,f,5,0.5,2.837509,1.35793831
DJX,46,0,2024-06-13T10:28:56.157Z,english_852.wav,0,1,655,20,4,Chinese,f,6,0.6,-71.5278257,0.32605315
DJX,46,0,2024-06-13T10:28:56.157Z,english_852.wav,0,1,655,20,4,Chinese,f,7,0.7,49.48057975,0.34111515
DJX,46,0,2024-06-13T10:28:56.157Z,english_852.wav,0,1,655,20,4,Chinese,f,8,0.8,88.19174023,1.45336533
DJX,46,0,2024-06-13T10:28:56.157Z,english_852.wav,0,1,655,20,4,Chinese,f,9,0.9,20.52660859,1.82703196
DJX,46,0,2024-06-13T10:28:56.157Z,english_852.wav,0,1,655,20,4,Chinese,f,10,1,-18.49679028,0.13003363
DJX,46,0,2024-06-13T10:28:56.157Z,english_852.wav,0,1,655,20,4,Chinese,f,11,1.09391667,15.64652165,0.89322684
DJX,47,0,2024-06-13T10:28:56.157Z,english_711.wav,0,1,601,20,4,Chinese,f,0,0,5.56697991,1.20296493
DJX,47,0,2024-06-13T10:28:56.157Z,english_711.wav,0,1,601,20,4,Chinese,f,1,0.1,-24.51973587,1.05892315
DJX,47,0,2024-06-13T10:28:56.157Z,english_711.wav,0,1,601,20,4,Chinese,f,2,0.2,14.74252879,0.52339911
DJX,47,0,2024-06-13T10:28:56.157Z,english_711.wav,0,1,601,20,4,Chinese,f,3,0.3,62.90835999,1.255633
DJX,47,0,2024-06-13T10:28:56.157Z,english_711.wav,0,1,601,20,4,Chinese,f,4,0.4,-30.148836,1.66876465
DJX,47,0,2024-06-13T10:28:56.157Z,english_711.wav,0,1,601,20,4,Chinese,f,5,0.5,-90.0367138,0.2337908
DJX,47,0,2024-06-13T10:28:56.157Z,english_711.wav,0,1,601,20,4,Chinese,f,6,0.6,23.29272454,0.4494252
DJX,47,0,2024-06-13T10:28:56.157Z,english_711.wav,0,1,601,20,4,Chinese,f,7,0.7,51.00007107,1.6594433
DJX,47,0,2024-06-13T10:28:56.157Z,english_711.wav,0,1,601,20,4,Chinese,f,8,0.8,-5.61877019,1.49925628
DJX,47,0,2024-06-13T10:28:56.157Z,english_711.wav,0,1,601,20,4,Chinese,f,9,0.9,4.00444287,1.73015634
DJX,47,0,2024-06-13T10:28:56.157Z,english_711.wav,0,1,601,20,4,Chinese,f,10,1,81.75034051,1.46308192
DJX,47,0,2024-06-13T10:28:56.157Z,english_711.wav,0,1,601,20,4,Chinese,f,11,1.09391667,-78.99678836,1.6603821
DJX,48,0,2024-06-13T10:28:56.157Z,english_717.wav,0,0,1114,20,4,Chinese,f,0,0,80.79953087,1.86526645
DJX,48,0,2024-06-13T10:28:56.157Z,english_717.wav,0,0,1114,20,4,Chinese,f,1,0.1,-1.75275742,1.92589165
DJX,48,0,2024-06-13T10:28:56.157Z,english_717.wav,0,0,1114,20,4,Chinese,f,2,0.2,12.73700345,1.47472052
DJX,48,0,2024-06-13T10:28:56.157Z,english_717.wav,0,0,1114,20,4,Chinese,f,3,0.3,-58.06023579,1.92992484
DJX,48,0,2024-06-13T10:28:56.157Z,english_717.wav,0,0,1114,20,4,Chinese,f,4,0.4,-93.68141032,1.20356957
DJX,48,0,2024-06-13T10:28:56.157Z,english_717.wav,0,0,1114,20,4,Chinese,f,5,0.5,-35.69500064,0.92496825
DJX,48,0,2024-06-13T10:28:56.157Z,english_717.wav,0,0,1114,20,4,Chinese,f,6,0.6,23.08040277,1.84550356
DJX,48,0,2024-06-13T10:28:56.157Z,english_717.wav,0,0,1114,20,4,Chinese,f,7,0.7,-73.54652945,0.83429079
DJX,48,0,2024-06-13T10:28:56.157Z,english_717.wav,0,0,1114,20,4,Chinese,f,8,0.8,43.65281286,0.04489088
DJX,48,0,2024-06-13T10:28:56.157Z,english_717.wav,0,0,1114,20,4,Chinese,f,9,0.9,99.54987208,1.24125202
DJX,48,0,2024-06-13T10:28:56.157Z,english_717.wav,0,0,1114,20,4,Chinese,f,10,1,85.80896401,1.39190792
DJX,48,0,2024-06-13T10:28:56.157Z,english_717.wav,0,0,1114,20,4,Chinese,f,11,1.09391667,7.78107645,0.20374713
DJX,49,0,2024-06-13T10:28:56.157Z,english_603.wav,0,1,1274,20,4,Chinese,f,0,0,-92.82127988,0.46202599
DJX,49,0,2024-06-13T10:28:56.157Z,english_603.wav,0,1,1274,20,4,Chinese,f,1,0.1,-10.8879853,0.04069155
DJX,49,0,2024-06-13T10:28:56.157Z,english_603.wav,0,1,1274,20,4,Chinese,f,2,0.2,87.07339117,0.53206278
DJX,49,0,2024-06-13T10:28:56.157Z,english_603.wav,0,1,1274,20,4,Chinese,f,3,0.3,94.16233181,1.44505889
DJX,49,0,2024-06-13T10:28:56.157Z,english_603.wav,0,1,1274,20,4,Chinese,f,4,0.4,41.70993127,1.73804989
DJX,49,0,2024-06-13T10:28:56.157Z,english_603.wav,0,1,1274,20,4,Chinese,f,5,0.5,-9.49662532,0.79060569
DJX,49,0,2024-06-13T10:28:56.157Z,english_603.wav,0,1,1274,20,4,Chinese,f,6,0.6,0.93436069,1.79017292
DJX,49,0,2024-06-13T10:28:56.157Z,english_603.wav,0,1,1274,20,4,Chinese,f,7,0.7,-31.16965002,1.60375186
DJX,49,0,2024-06-13T10:28:56.157Z,english_603.wav,0,1,1274,20,4,Chinese,f,8,0.8,22.515306,1.61763715
DJX,49,0,2024-06-13T10:28:56.157Z,english_603.wav,0,1,1274,20,4,Chinese,f,9,0.9,39.07324,1.44528026
DJX,49,0,2024-06-13T10:28:56.157Z,english_603.wav,0,1,1274,20,4,Chinese,f,10,1,-34.19262646,0.82648617
DJX,49,0,2024-06-13T10:28:56.157Z,english_603.wav,0,1,1274,20,4,Chinese,f,11,1.09391667,7.30050377,1.94101738
DJX,50,1,2024-06-13T10:28:56.157Z,english_836.wav,0,1,1076,20,4,Chinese,f,0,0,-63.35061063,0.08705993
DJX,50,1,2024-06-13T10:28:56.157Z,english_836.wav,0,1,1076,20,4,Chinese,f,1,0.1,-12.99108937,1.16779184
DJX,50,1,2024-06-13T10:28:56.157Z,english_836.wav,0,1,1076,20,4,Chinese,f,2,0.2,82.76327371,1.21817992
DJX,50,1,2024-06-13T10:28:56.157Z,english_836.wav,0,1,1076,20,4,Chinese,f,3,0.3,-37.04296685,1.4013418
DJX,50,1,2024-06-13T10:28:56.157Z,english_836.wav,0,1,1076,20,4,Chinese,f,4,0.4,12.42823269,0.6973531
DJX,50,1,2024-06-13T10:28:56.157Z,english_836.wav,0,1,1076,20,4,Chinese,f,5,0.5,-3.53155132,1.80885829
DJX,50,1,2024-06-13T10:28:56.157Z,english_836.wav,0,1,1076,20,4,Chinese,f,6,0.6,-65.36206882,1.88816728
DJX,50,1,2024-06-13T10:28:56.157Z,english_836.wav,0,1,1076,20,4,Chinese,f,7,0.7,37.4940371,0.0831571
DJX,50,1,2024-06-13T10:28:56.157Z,english_836.wav,0,1,1076,20,4,Chinese,f,8,0.8,82.10669288,1.479167
DJX,50,1,2024-06-13T10:28:56.157Z,english_836.wav,0,1,1076,20,4,Chinese,f,9,0.9,44.64707994,1.19168264
DJX,50,1,2024-06-13T10:28:56.157Z,english_836.wav,0,1,1076,20,4,Chinese,f,10,1,19.81650131,1.28184293
DJX,50,1,2024-06-13T10:28:56.157Z,english_836.wav,0,1,1076,20,4,Chinese,f,11,1.09391667,-37.93998677,1.25532644
DJX,51,1,2024-06-13T10:28:56.157Z,english_204.wav,0,0,1416,20,4,Chinese,f,0,0,-54.18548322,0.4935822
DJX,51,1,2024-06-13T10:28:56.157Z,english_204.wav,0,0,1416,20,4,Chinese,f,1,0.1,-11.27218157,1.37686427
DJX,51,1,2024-06-13T10:28:56.157Z,english_204.wav,0,0,1416,20,4,Chinese,f,2,0.2,57.70913134,1.17627269
DJX,51,1,2024-06-13T10:28:56.157Z,english_204.wav,0,0,1416,20,4,Chinese,f,3,0.3,-85.27797026,1.14645494
DJX,51,1,2024-06-13T10:28:56.157Z,english_204.wav,0,0,1416,20,4,Chinese,f,4,0.4,28.61054009,1.61303053
DJX,51,1,2024-06-13T10:28:56.157Z,english_204.wav,0,0,1416,20,4,Chinese,f,5,0.5,-36.71816677,0.72559221
DJX,51,1,2024-06-13T10:28:56.157Z,english_204.wav,0,0,1416,20,4,Chinese,f,6,0.6,-27.72446487,1.95000364
DJX,51,1,2024-06-13T10:28:56.157Z,english_204.wav,0,0,1416,20,4,Chinese,f,7,0.7,14.69142801,0.06695508
DJX,51,1,2024-06-13T10:28:56.157Z,english_204.wav,0,0,1416,20,4,Chinese,f,8,0.8,9.61746044,1.52094915
DJX,51,1,2024-06-13T10:28:56.157Z,english_204.wav,0,0,1416,20,4,Chinese,f,9,0.9,22.67127582,0.41034945
DJX,51,1,2024-06-13T10:28:56.157Z,english_204.wav,0,0,1416,20,4,Chinese,f,10,1,69.36328148,0.4470276
DJX,51,1,2024-06-13T10:28:56.157Z,english_204.wav,0,0,1416,20,4,Chinese,f,11,1.09391667,-44.4283226,1.93225144
DJX,52,1,2024-06-13T10:28:56.157Z,english_267.wav,0,1,856,20,4,Chinese,f,0,0,-20.34373052,1.22339913
DJX,52,1,2024-06-13T10:28:56.157Z,english_267.wav,0,1,856,20,4,Chinese,f,1,0.1,-8.01422086,0.37157124
DJX,52,1,2024-06-13T10:28:56.157Z,english_267.wav,0,1,856,20,4,Chinese,f,2,0.2,93.04230665,0.88881734
DJX,52,1,2024-06-13T10:28:56.157Z,english_267.wav,0,1,856,20,4,Chinese,f,3,0.3,41.74649662,0.98806935
DJX,52,1,2024-06-13T10:28:56.157Z,english_267.wav,0,1,856,20,4,Chinese,f,4,0.4,-13.67169735,1.63374899
DJX,52,1,2024-06-13T10:28:56.157Z,english_267.wav,0,1,856,20,4,Chinese,f,5,0.5,42.92753135,1.27803897
DJX,52,1,2024-06-13T10:28:56.157Z,english_267.wav,0,1,856,20,4,Chinese,f,6,0.6,-31.66614436,0.65843477
DJX,52,1,2024-06-13T10:28:56.157Z,english_267.wav,0,1,856,20,4,Chinese,f,7,0.7,-46.69110061,1.12503577
DJX,52,1,2024-06-13T10:28:56.157Z,english_267.wav,0,1,856,20,4,Chinese,f,8,0.8,96.69640531,1.26069156
DJX,52,1,2024-06-13T10:28:56.157Z,english_267.wav,0,1,856,20,4,Chinese,f,9,0.9,-51.1349073,0.35873403
DJX,52,1,2024-06-13T10:28:56.157Z,english_267.wav,0,1,856,20,4,Chinese,f,10,1,-31.48458059,1.24202174
DJX,52,1,2024-06-13T10:28:56.157Z,english_267.wav,0,1,856,20,4,Chinese,f,11,1.09391667,82.51520959,1.58881388
DJX,53,1,2024-06-13T10:28:56.157Z,english_504.wav,0,1,975,20,4,Chinese,f,0,0,-66.23189197,1.64024725
DJX,53,1,2024-06-13T10:28:56.157Z,english_504.wav,0,1,975,20,4,Chinese,f,1,0.1,-7.28081394,1.33861833
DJX,53,1,2024-06-13T10:28:56.157Z,english_504.wav,0,1,975,20,4,Chinese,f,2,0.2,-74.05426979,0.21996253
DJX,53,1,2024-06-13T10:28:56.157Z,english_504.wav,0,1,975,20,4,Chinese,f,3,0.3,-2.17834407,0.9295354
DJX,53,1,2024-06-13T10:28:56.157Z,english_504.wav,0,1,975,20,4,Chinese,f,4,0.4,-44.29553612,0.18867482
DJX,53,1,2024-06-13T10:28:56.157Z,english_504.wav,0,1,975,20,4,Chinese,f,5,0.5,-21.93882769,0.17745141
DJX,53,1,2024-06-13T10:28:56.157Z,english_504.wav,0,1,975,20,4,Chinese,f,6,0.6,-6.80381408,1.36415298
DJX,53,1,2024-06-13T10:28:56.157Z,english_504.wav,0,1,975,20,4,Chinese,f,7,0.7,9.00050206,1.08571676
DJX,53,1,2024-06-13T10:28:56.157Z,english_504.wav,0,1,975,20,4,Chinese,f,8,0.8,-19.58321875,1.38544941
DJX,53,1,2024-06-13T10:28:56.157Z,english_504.wav,0,1,975,20,4,Chinese,f,9,0.9,-97.27632106,0.33380342
DJX,53,1,2024-06-13T10:28:56.157Z,english_504.wav,0,1,975,20,4,Chinese,f,10,1,94.36582119,0.16971293
DJX,53,1,2024-06-13T10:28:56.157Z,english_504.wav,0,1,975,20,4,Chinese,f,11,1.09391667,-77.55415354,0.89224977
DJX,54,1,2024-06-13T10:28:56.157Z,english_64.wav,0,1,1820,20,4,Chinese,f,0,0,35.19701481,0.1517014
DJX,54,1,2024-06-13T10:28:56.157Z,english_64.wav,0,1,1820,20,4,Chinese,f,1,0.1,75.83495736,1.3624391
DJX,54,1,2024-06-13T10:28:56.157Z,english_64.wav,0,1,1820,20,4,Chinese,f,2,0.2,-57.84604767,0.35043993
DJX,54,1,2024-06-13T10:28:56.157Z,english_64.wav,0,1,1820,20,4,Chinese,f,3,0.3,18.18328311,1.06032252
DJX,54,1,2024-06-13T10:28:56.157Z,english_64.wav,0,1,1820,20,4,Chinese,f,4,0.4,2.5532884,1.51833669
DJX,54,1,2024-06-13T10:28:56.157Z,english_64.wav,0,1,1820,20,4,Chinese,f,5,0.5,24.93011402,0.65789286
DJX,54,1,2024-06-13T10:28:56.157Z,english_64.wav,0,1,1820,20,4,Chinese,f,6,0.6,-51.99875854,1.38401799
DJX,54,1,2024-06-13T10:28:56.157Z,english_64.wav,0,1,1820,20,4,Chinese,f,7,0.7,52.45873465,1.62873445
DJX,54,1,2024-06-13T10:28:56.157Z,english_64.wav,0,1,1820,20,4,Chinese,f,8,0.8,42.38876358,0.48968984
DJX,54,1,2024-06-13T10:28:56.157Z,english_64.wav,0,1,1820,20,4,Chinese,f,9,0.9,54.33691238,0.64777192
DJX,54,1,2024-06-13T10:28:56.157Z,english_64.wav,0,1,1820,20,4,Chinese,f,10,1,27.02485659,0.8399807
DJX,54,1,2024-06-13T10:28:56.157Z,english_64.wav,0,1,1820,20,4,Chinese,f,11,1.09391667,58.99390703,0.25985176
DJX,55,1,2024-06-13T10:28:56.157Z,english_188.wav,0,0,1592,20,4,Chinese,f,0,0,-44.78438497,0.94710117
DJX,55,1,2024-06-13T10:28:56.157Z,english_188.wav,0,0,1592,20,4,Chinese,f,1,0.1,-59.64362525,0.96413905
DJX,55,1,2024-06-13T10:28:56.157Z,english_188.wav,0,0,1592,20,4,Chinese,f,2,0.2,-64.08533898,0.84840618
DJX,55,1,2024-06-13T10:28:56.157Z,english_188.wav,0,0,1592,20,4,Chinese,f,3,0.3,-29.1378116,0.37627617
DJX,55,1,2024-06-13T10:28:56.157Z,english_188.wav,0,0,1592,20,4,Chinese,f,4,0.4,-4.14868477,1.62621942
DJX,55,1,2024-06-13T10:28:56.157Z,english_188.wav,0,0,1592,20,4,Chinese,f,5,0.5,-61.00737987,0.44747201
DJX,55,1,2024-06-13T10:28:56.157Z,english_188.wav,0,0,1592,20,4,Chinese,f,6,0.6,61.72468412,0.51555254
DJX,55,1,2024-06-13T10:28:56.157Z,english_188.wav,0,0,1592,20,4,Chinese,f,7,0.7,91.61563335,1.97040932
DJX,55,1,2024-06-13T10:28:56.157Z,english_188.wav,0,0,1592,20,4,Chinese,f,8,0.8,-69.21450223,0.35468899
DJX,55,1,2024-06-13T10:28:56.157Z,english_188.wav,0,0,1592,20,4,Chinese,f,9,0.9,55.80681999,1.42342949
DJX,55,1,2024-06-13T10:28:56.157Z,english_188.wav,0,0,1592,20,4,Chinese,f,10,1,-13.47812759,1.23724986
DJX,55,1,2024-06-13T10:28:56.157Z,english_188.wav,0,0,1592,20,4,Chinese,f,11,1.09391667,47.39616925,0.05613364
DJX,56,1,2024-06-13T10:28:56.157Z,english_727.wav,0,1,1774,20,4,Chinese,f,0,0,-18.41371041,1.35764892
DJX,56,1,2024-06-13T10:28:56.157Z,english_727.wav,0,1,1774,20,4,Chinese,f,1,0.1,-63.10285802,1.30171306
DJX,56,1,2024-06-13T10:28:56.157Z,english_727.wav,0,1,1774,20,4,Chinese,f,2,0.2,-11.47868373,1.89832966
DJX,56,1,2024-06-13T10:28:56.157Z,english_727.wav,0,1,1774,20,4,Chinese,f,3,0.3,40.37675275,1.96157356
DJX,56,1,2024-06-13T10:28:56.157Z,english_727.wav,0,1,1774,20,4,Chinese,f,4,0.4,-77.12859483,0.9069281
DJX,56,1,2024-06-13T10:28:56.157Z,english_727.wav,0,1,1774,20,4,Chinese,f,5,0.5,92.73705719,1.12095366
DJX,56,1,2024-06-13T10:28:56.157Z,english_727.wav,0,1,1774,20,4,Chinese,f,6,0.6,-55.99534641,1.00983545
DJX,56,1,2024-06-13T10:28:56.157Z,english_727.wav,0,1,1774,20,4,Chinese,f,7,0.7,-55.52546335,0.3683737
DJX,56,1,2024-06-13T10:28:56.157Z,english_727.wav,0,1,1774,20,4,Chinese,f,8,0.8,6.97078157,1.10707799
DJX,56,1,2024-06-13T10:28:56.157Z,english_727.wav,0,1,1774,20,4,Chinese,f,9,0.9,-23.82740681,1.05563912
DJX,56,1,2024-06-13T10:28:56.157Z,english_727.wav,0,1,1774,20,4,Chinese,f,10,1,16.85010217,1.15538622
DJX,56,1,2024-06-13T10:28:56.157Z,english_727.wav,0,1,1774,20,4,Chinese,f,11,1.09391667,12.17774436,0.52815825
DJX,57,1,2024-06-13T10:28:56.157Z,english_277.wav,0,0,4177,20,4,Chinese,f,0,0,-44.33616139,0.73788807
DJX,57,1,2024-06-13T10:28:56.157Z,english_277.wav,0,0,4177,20,4,Chinese,f,1,0.1,44.35260019,1.74394891
DJX,57,1,2024-06-13T10:28:56.157Z,english_277.wav,0,0,4177,20,4,Chinese,f,2,0.2,-49.49233779,0.42488183
DJX,57,1,2024-06-13T10:28:56.157Z,english_277.wav,0,0,4177,20,4,Chinese,f,3,0.3,-85.34810724,1.67106469
DJX,57,1,2024-06-13T10:28:56.157Z,english_277.wav,0,0,4177,20,4,Chinese,f,4,0.4,28.63854814,1.81238123
DJX,57,1,2024-06-13T10:28:56.157Z,english_277.wav,0,0,4177,20,4,Chinese,f,5,0.5,67.28491477,1.08162705
DJX,57,1,2024-06-13T10:28:56.157Z,english_277.wav,0,0,4177,20,4,Chinese,f,6,0.6,56.85897208,1.34108587
DJX,57,1,2024-06-13T10:28:56.157Z,english_277.wav,0,0,4177,20,4,Chinese,f,7,0.7,-23.80647194,0.83894526
DJX,57,1,2024-06-13T10:28:56.157Z,english_277.wav,0,0,4177,20,4,Chinese,f,8,0.8,-34.73638316,0.08057135
DJX,57,1,2024-06-13T10:28:56.157Z,english_277.wav,0,0,4177,20,4,Chinese,f,9,0.9,-44.12670418,0.78361609
DJX,57,1,2024-06-13T10:28:56.157Z,english_277.wav,0,0,4177,20,4,Chinese,f,10,1,-49.9038669,1.89078492
DJX,57,1,2024-06-13T10:28:56.157Z,english_277.wav,0,0,4177,20,4,Chinese,f,11,1.09391667,-45.21232541,1.1409546
DJX,58,1,2024-06-13T10:28:56.157Z,english_637.wav,0,1,601,20,4,Chinese,f,0,0,-89.57602713,1.01899078
DJX,58,1,2024-06-13T10:28:56.157Z,english_637.wav,0,1,601,20,4,Chinese,f,1,0.1,-12.21163012,0.44650383
DJX,58,1,2024-06-13T10:28:56.157Z,english_637.wav,0,1,601,20,4,Chinese,f,2,0.2,45.69375155,0.86051042
DJX,58,1,2024-06-13T10:28:56.157Z,english_637.wav,0,1,601,20,4,Chinese,f,3,0.3,47.44411802,0.62803932
DJX,58,1,2024-06-13T10:28:56.157Z,english_637.wav,0,1,601,20,4,Chinese,f,4,0.4,-64.39909361,0.05404575
DJX,58,1,2024-06-13T10:28:56.157Z,english_637.wav,0,1,601,20,4,Chinese,f,5,0.5,38.07531124,0.80477493
DJX,58,1,2024-06-13T10:28:56.157Z,english_637.wav,0,1,601,20,4,Chinese,f,6,0.6,-37.11559242,0.4743624
DJX,58,1,2024-06-13T10:28:56.157Z,english_637.wav,0,1,601,20,4,Chinese,f,7,0.7,61.76350432,1.24039456
DJX,58,1,2024-06-13T10:28:56.157Z,english_637.wav,0,1,601,20,4,Chinese,f,8,0.8,87.30183414,0.77622698
DJX,58,1,2024-06-13T10:28:56.157Z,english_637.wav,0,1,601,20,4,Chinese,f,9,0.9,42.92339498,1.15579273
DJX,58,1,2024-06-13T10:28:56.157Z,english_637.wav,0,1,601,20,4,Chinese,f,10,1,99.17764885,1.67569325
DJX,58,1,2024-06-13T10:28:56.157Z,english_637.wav,0,1,601,20,4,Chinese,f,11,1.09391667,27.2352495,0.37956578
DJX,59,1,2024-06-13T10:28:56.157Z,english_179.wav,0,0,2894,20,4,Chinese,f,0,0,-33.4332198,0.62790478
DJX,59,1,2024-06-13T10:28:56.157Z,english_179.wav,0,0,2894,20,4,Chinese,f,1,0.1,-18.78825339,1.4036751
DJX,59,1,2024-06-13T10:28:56.157Z,english_179.wav,0,0,2894,20,4,Chinese,f,2,0.2,20.20417282,0.86896148
DJX,59,1,2024-06-13T10:28:56.157Z,english_179.wav,0,0,2894,20,4,Chinese,f,3,0.3,-7.9077668,1.06787362
DJX,59,1,2024-06-13T10:28:56.157Z,english_179.wav,0,0,2894,20,4,Chinese,f,4,0.4,36.31992416,1.90188001
DJX,59,1,2024-06-13T10:28:56.157Z,english_179.wav,0,0,2894,20,4,Chinese,f,5,0.5,37.81237311,1.25658589
DJX,59,1,2024-06-13T10:28:56.157Z,english_179.wav,0,0,2894,20,4,Chinese,f,6,0.6,32.61553446,1.46381777
DJX,59,1,2024-06-13T10:28:56.157Z,english_179.wav,0,0,2894,20,4,Chinese,f,7,0.7,-19.47769131,1.6099544
DJX,59,1,2024-06-13T10:28:56.157Z,english_179.wav,0,0,2894,20,4,Chinese,f,8,0.8,27.26473458,0.97421346
DJX,59,1,2024-06-13T10:28:56.157Z,english_179.wav,0,0,2894,20,4,Chinese,f,9,0.9,-27.81368084,1.81429346
DJX,59,1,2024-06-13T10:28:56.157Z,english_179.wav,0,0,2894,20,4,Chinese,f,10,1,-84.08642127,0.55055727
DJX,59,1,2024-06-13T10:28:56.157Z,english_179.wav,0,0,2894,20,4,Chinese,f,11,1.09391667,-61.91167259,0.88239537
DJX,60,1,2024-06-13T10:28:56.157Z,english_895.wav,0,1,649,20,4,Chinese,f,0,0,-68.00198949,0.4596857
DJX,60,1,2024-06-13T10:28:56.157Z,english_895.wav,0,1,649,20,4,Chinese,f,1,0.1,-51.96003104,1.9086695
DJX,60,1,2024-06-13T10:28:56.157Z,english_895.wav,0,1,649,20,4,Chinese,f,2,0.2,-27.5678987,1.58013593
DJX,60,1,2024-06-13T10:28:56.157Z,english_895.wav,0,1,649,20,4,Chinese,f,3,0.3,1.37769692,1.02012083
DJX,60,1,2024-06-13T10:28:56.157Z,english_895.wav,0,1,649,20,4,Chinese,f,4,0.4,-19.54713895,0.3764367
DJX,60,1,2024-06-13T10:28:56.157Z,english_895.wav,0,1,649,20,4,Chinese,f,5,0.5,32.4870356,0.56957954
DJX,60,1,2024-06-13T10:28:56.157Z,english_895.wav,0,1,649,20,4,Chinese,f,6,0.6,73.95431589,0.55471434
DJX,60,1,2024-06-13T10:28:56.157Z,english_895.wav,0,1,649,20,4,Chinese,f,7,0.7,-60.0683904,1.19362941
DJX,60,1,2024-06-13T10:28:56.157Z,english_895.wav,0,1,649,20,4,Chinese,f,8,0.8,-32.74215808,1.07008524
DJX,60,1,2024-06-13T10:28:56.157Z,english_895.wav,0,1,649,20,4,Chinese,f,9,0.9,-18.7791301,0.94538114
DJX,60,1,2024-06-13T10:28:56.157Z,english_895.wav,0,1,649,20,4,Chinese,f,10,1,4.0520504,0.21197649
DJX,60,1,2024-06-13T10:28:56.157Z,english_895.wav,0,1,649,20,4,Chinese,f,11,1.09391667,54.70777064,1.70514148
DJX,61,1,2024-06-13T10:28:56.157Z,english_250.wav,0,1,1709,20,4,Chinese,f,0,0,-2.1507045,1.65815165
DJX,61,1,2024-06-13T10:28:56.157Z,english_250.wav,0,1,1709,20,4,Chinese,f,1,0.1,-59.20535761,0.73684424
DJX,61,1,2024-06-13T10:28:56.157Z,english_250.wav,0,1,1709,20,4,Chinese,f,2,0.2,33.81892305,0.78053485
DJX,61,1,2024-06-13T10:28:56.157Z,english_250.wav,0,1,1709,20,4,Chinese,f,3,0.3,43.78107199,1.26996131
DJX,61,1,2024-06-13T10:28:56.157Z,english_250.wav,0,1,1709,20,4,Chinese,f,4,0.4,-58.56253377,1.90489744
DJX,61,1,2024-06-13T10:28:56.157Z,english_250.wav,0,1,1709,20,4,Chinese,f,5,0.5,-73.24110126,0.31125788
DJX,61,1,2024-06-13T10:28:56.157Z,english_250.wav,0,1,1709,20,4,Chinese,f,6,0.6,77.97062328,0.73718841
DJX,61,1,2024-06-13T10:28:56.157Z,english_250.wav,0,1,1709,20,4,Chinese,f,7,0.7,-37.56549364,0.04729413
DJX,61,1,2024-06-13T10:28:56.157Z,english_250.wav,0,1,1709,20,4,Chinese,f,8,0.8,57.43189813,1.70152056
DJX,61,1,2024-06-13T10:28:56.157Z,english_250.wav,0,1,1709,20,4,Chinese,f,9,0.9,46.17345888,0.07204925
DJX,61,1,2024-06-13T10:28:56.157Z,english_250.wav,0,1,1709,20,4,Chinese,f,10,1,59.28871843,1.91615732
DJX,61,1,2024-06-13T10:28:56.157Z,english_250.wav,0,1,1709,20,4,Chinese,f,11,1.09391667,54.90140723,1.08139277
DJX,62,1,2024-06-13T10:28:56.157Z,english_232.wav,0,0,1097,20,4,Chinese,f,0,0,-26.51940276,0.21059611
DJX,62,1,2024-06-13T10:28:56.157Z,english_232.wav,0,0,1097,20,4,Chinese,f,1,0.1,80.97161113,0.68519171
DJX,62,1,2024-06-13T10:28:56.157Z,english_232.wav,0,0,1097,20,4,Chinese,f,2,0.2,-59.14883297,1.41170079
DJX,62,1,2024-06-13T10:28:56.157Z,english_232.wav,0,0,1097,20,4,Chinese,f,3,0.3,25.03200804,1.73443495
DJX,62,1,2024-06-13T10:28:56.157Z,english_232.wav,0,0,1097,20,4,Chinese,f,4,0.4,20.05380764,0.29201417
DJX,62,1,2024-06-13T10:28:56.157Z,english_232.wav,0,0,1097,20,4,Chinese,f,5,0.5,56.28196281,0.54790335
DJX,62,1,2024-06-13T10:28:56.157Z,english_232.wav,0,0,1097,20,4,Chinese,f,6,0.6,50.47197961,1.77444553
DJX,62,1,2024-06-13T10:28:56.157Z,english_232.wav,0,0,1097,20,4,Chinese,f,7,0.7,52.11037309,1.99008741
DJX,62,1,2024-06-13T10:28:56.157Z,english_232.wav,0,0,1097,20,4,Chinese,f,8,0.8,88.23327143,0.74569824
DJX,62,1,2024-06-13T10:28:56.157Z,english_232.wav,0,0,1097,20,4,Chinese,f,9,0.9,37.32869559,0.18993344
DJX,62,1,2024-06-13T10:28:56.157Z,english_232.wav,0,0,1097,20,4,Chinese,f,10,1,-23.53745861,0.72085595
DJX,62,1,2024-06-13T10:28:56.157Z,english_232.wav,0,0,1097,20,4,Chinese,f,11,1.09391667,93.83220457,1.92388819
DJX,63,1,2024-06-13T10:28:56.157Z,english_359.wav,0,1,1844,20,4,Chinese,f,0,0,16.62356483,0.11907426
DJX,63,1,2024-06-13T10:28:56.157Z,english_359.wav,0,1,1844,20,4,Chinese,f,1,0.1,-64.66657599,1.11022803
DJX,63,1,2024-06-13T10:28:56.157Z,english_359.wav,0,1,1844,20,4,Chinese,f,2,0.2,20.81574107,1.93552837
DJX,63,1,2024-06-13T10:28:56.157Z,english_359.wav,0,1,1844,20,4,Chinese,f,3,0.3,62.21324861,0.18628365
DJX,63,1,2024-06-13T10:28:56.157Z,english_359.wav,0,1,1844,20,4,Chinese,f,4,0.4,-96.92379856,1.68045213
DJX,63,1,2024-06-13T10:28:56.157Z,english_359.wav,0,1,1844,20,4,Chinese,f,5,0.5,-63.09314604,0.56124054
DJX,63,1,2024-06-13T10:28:56.157Z,english_359.wav,0,1,1844,20,4,Chinese,f,6,0.6,85.3804948,1.40840471
DJX,63,1,2024-06-13T10:28:56.157Z,english_359.wav,0,1,1844,20,4,Chinese,f,7,0.7,-5.84073458,0.76045624
DJX,63,1,2024-06-13T10:28:56.157Z,english_359.wav,0,1,1844,20,4,Chinese,f,8,0.8,1.07766227,0.79738911
DJX,63,1,2024-06-13T10:28:56.157Z,english_359.wav,0,1,1844,20,4,Chinese,f,9,0.9,-3.48391837,0.78873787
DJX,63,1,2024-06-13T10:28:56.157Z,english_359.wav,0,1,1844,20,4,Chinese,f,10,1,5.39755614,0.96854707
DJX,63,1,2024-06-13T10:28:56.157Z,english_359.wav,0,1,1844,20,4,Chinese,f,11,1.09391667,59.72301587,0.15927381
DJX,64,1,2024-06-13T10:28:56.157Z,english_556.wav,0,1,756,20,4,Chinese,f,0,0,-68.09670747,1.3485974
DJX,64,1,2024-06-13T10:28:56.157Z,english_556.wav,0,1,756,20,4,Chinese,f,1,0.1,8.96692918,0.84698507
DJX,64,1,2024-06-13T10:28:56.157Z,english_556.wav,0,1,756,20,4,Chinese,f,2,0.2,-46.83531772,0.06218337
DJX,64,1,2024-06-13T10:28:56.157Z,english_556.wav,0,1,756,20,4,Chinese,f,3,0.3,-87.32202155,0.66181265
DJX,64,1,2024-06-13T10:28:56.157Z,english_556.wav,0,1,756,20,4,Chinese,f,4,0.4,49.65406328,1.9600464
DJX,64,1,2024-06-13T10:28:56.157Z,english_556.wav,0,1,756,20,4,Chinese,f,5,0.5,92.65716025,0.67849191
DJX,64,1,2024-06-13T10:28:56.157Z,english_556.wav,0,1,756,20,4,Chinese,f,6,0.6,-17.76161657,0.9118753
DJX,64,1,2024-06-13T10:28:56.157Z,english_556.wav,0,1,756,20,4,Chinese,f,7,0.7,-85.77085821,0.73811047
DJX,64,1,2024-06-13T10:28:56.157Z,english_556.wav,0,1,756,20,4,Chinese,f,8,0.8,-31.44799715,0.91861979
DJX,64,1,2024-06-13T10:28:56.157Z,english_556.wav,0,1,756,20,4,Chinese,f,9,0.9,-32.59755967,1.18816365
DJX,64,1,2024-06-13T10:28:56.157Z,english_556.wav,0,1,756,20,4,Chinese,f,10,1,-96.2091504,1.86623217
DJX,64,1,2024-06-13T10:28:56.157Z,english_556.wav,0,1,756,20,4,Chinese,f,11,1.09391667,-0.57982779,0.61760757
DJX,65,1,2024-06-13T10:28:56.157Z,english_779.wav,0,0,2224,20,4,Chinese,f,0,0,2.5732513,1.647041
DJX,65,1,2024-06-13T10:28:56.157Z,english_779.wav,0,0,2224,20,4,Chinese,f,1,0.1,65.46905282,1.84593927
DJX,65,1,2024-06-13T10:28:56.157Z,english_779.wav,0,0,2224,20,4,Chinese,f,2,0.2,71.19594141,0.45510565
DJX,65,1,2024-06-13T10:28:56.157Z,english_779.wav,0,0,2224,20,4,Chinese,f,3,0.3,60.39832791,1.01795959
DJX,65,1,2024-06-13T10:28:56.157Z,english_779.wav,0,0,2224,20,4,Chinese,f,4,0.4,-88.69626856,0.08128748
DJX,65,1,2024-06-13T10:28:56.157Z,english_779.wav,0,0,2224,20,4,Chinese,f,5,0.5,88.13724484,1.92668947
DJX,65,1,2024-06-13T10:28:56.157Z,english_779.wav,0,0,2224,20,4,Chinese,f,6,0.6,-21.3716901,0.83024876
DJX,65,1,2024-06-13T10:28:56.157Z,english_779.wav,0,0,2224,20,4,Chinese,f,7,0.7,50.45377943,1.4170414
DJX,65,1,2024-06-13T10:28:56.157Z,english_779.wav,0,0,2224,20,4,Chinese,f,8,0.8,88.14580375,1.13372324
DJX,65,1,2024-06-13T10:28:56.157Z,english_779.wav,0,0,2224,20,4,Chinese,f,9,0.9,-75.16546804,0.91489346
DJX,65,1,2024-06-13T10:28:56.157Z,english_779.wav,0,0,2224,20,4,Chinese,f,10,1,-15.63730308,0.03287719
DJX,65,1,2024-06-13T10:28:56.157Z,english_779.wav,0,0,2224,20,4,Chinese,f,11,1.09391667,-11.80666885,1.28058258
DJX,66,1,2024-06-13T10:28:56.157Z,english_369.wav,0,0,611,20,4,Chinese,f,0,0,-98.51702781,1.05319591
DJX,66,1,2024-06-13T10:28:56.157Z,english_369.wav,0,0,611,20,4,Chinese,f,1,0.1,-77.74164505,0.35563608
DJX,66,1,2024-06-13T10:28:56.157Z,english_369.wav,0,0,611,20,4,Chinese,f,2,0.2,13.86053007,0.74921535
DJX,66,1,2024-06-13T10:28:56.157Z,english_369.wav,0,0,611,20,4,Chinese,f,3,0.3,94.45294859,1.88151113
DJX,66,1,2024-06-13T10:28:56.157Z,english_369.wav,0,0,611,20,4,Chinese,f,4,0.4,-68.44131684,1.38340448
DJX,66,1,2024-06-13T10:28:56.157Z,english_369.wav,0,0,611,20,4,Chinese,f,5,0.5,-11.02159052,1.0971757
DJX,66,1,2024-06-13T10:28:56.157Z,english_369.wav,0,0,611,20,4,Chinese,f,6,0.6,-93.03562761,0.74102815
DJX,66,1,2024-06-13T10:28:56.157Z,english_369.wav,0,0,611,20,4,Chinese,f,7,0.7,92.19991551,0.86578633
DJX,66,1,2024-06-13T10:28:56.157Z,english_369.wav,0,0,611,20,4,Chinese,f,8,0.8,44.28946949,0.42333119
DJX,66,1,2024-06-13T10:28:56.157Z,english_369.wav,0,0,611,20,4,Chinese,f,9,0.9,-36.54704406,1.30148328
DJX,66,1,2024-06-13T10:28:56.157Z,english_369.wav,0,0,611,20,4,Chinese,f,10,1,75.92915306,0.13274677
DJX,66,1,2024-06-13T10:28:56.157Z,english_369.wav,0,0,611,20,4,Chinese,f,11,1.09391667,43.6375557,0.3552412
DJX,67,1,2024-06-13T10:28:56.157Z,english_270.wav,0,0,801,20,4,Chinese,f,0,0,-55.81256687,1.62867923
DJX,67,1,2024-06-13T10:28:56.157Z,english_270.wav,0,0,801,20,4,Chinese,f,1,0.1,86.32458749,1.84562159
DJX,67,1,2024-06-13T10:28:56.157Z,english_270.wav,0,0,801,20,4,Chinese,f,2,0.2,13.49455739,0.93167879
DJX,67,1,2024-06-13T10:28:56.157Z,english_270.wav,0,0,801,20,4,Chinese,f,3,0.3,-68.69500359,1.73816361
DJX,67,1,2024-06-13T10:28:56.157Z,english_270.wav,0,0,801,20,4,Chinese,f,4,0.4,-97.00280027,0.08320837
DJX,67,1,2024-06-13T10:28:56.157Z,english_270.wav,0,0,801,20,4,Chinese,f,5,0.5,-69.821637,1.0435143
DJX,67,1,2024-06-13T10:28:56.157Z,english_270.wav,0,0,801,20,4,Chinese,f,6,0.6,1.11664619,1.6211018
DJX,67,1,2024-06-13T10:28:56.157Z,english_270.wav,0,0,801,20,4,Chinese,f,7,0.7,14.10763844,1.15083177
DJX,67,1,2024-06-13T10:28:56.157Z,english_270.wav,0,0,801,20,4,Chinese,f,8,0.8,-34.97611605,0.10335889
DJX,67,1,2024-06-13T10:28:56.157Z,english_270.wav,0,0,801,20,4,Chinese,f,9,0.9,64.83030817,1.46234983
DJX,67,1,2024-06-13T10:28:56.157Z,english_270.wav,0,0,801,20,4,Chinese,f,10,1,-92.12802344,1.54267918
DJX,67,1,2024-06-13T10:28:56.157Z,english_270.wav,0,0,801,20,4,Chinese,f,11,1.09391667,70.2696905,1.13836595
DJX,68,1,2024-06-13T10:28:56.157Z,english_129.wav,0,1,654,20,4,Chinese,f,0,0,-44.56015923,0.4294496
DJX,68,1,2024-06-13T10:28:56.157Z,english_129.wav,0,1,654,20,4,Chinese,f,1,0.1,-58.7339049,1.17691203
DJX,68,1,2024-06-13T10:28:56.157Z,english_129.wav,0,1,654,20,4,Chinese,f,2,0.2,4.64427176,0.00792795
DJX,68,1,2024-06-13T10:28:56.157Z,english_129.wav,0,1,654,20,4,Chinese,f,3,0.3,36.13533526,1.62066926
DJX,68,1,2024-06-13T10:28:56.157Z,english_129.wav,0,1,654,20,4,Chinese,f,4,0.4,49.60525777,0.46131477
DJX,68,1,2024-06-13T10:28:56.157Z,english_129.wav,0,1,654,20,4,Chinese,f,5,0.5,66.06381969,0.9562515
DJX,68,1,2024-06-13T10:28:56.157Z,english_129.wav,0,1,654,20,4,Chinese,f,6,0.6,-22.87129592,0.58790942
DJX,68,1,2024-06-13T10:28:56.157Z,english_129.wav,0,1,654,20,4,Chinese,f,7,0.7,88.56170171,0.99020247
DJX,68,1,2024-06-13T10:28:56.157Z,english_129.wav,0,1,654,20,4,Chinese,f,8,0.8,17.84118116,0.9945804
DJX,68,1,2024-06-13T10:28:56.157Z,english_129.wav,0,1,654,20,4,Chinese,f,9,0.9,-28.77319114,1.36695424
DJX,68,1,2024-06-13T10:28:56.157Z,english_129.wav,0,1,654,20,4,Chinese,f,10,1,86.03376827,0.72564016
DJX,68,1,2024-06-13T10:28:56.157Z,english_129.wav,0,1,654,20,4,Chinese,f,11,1.09391667,39.56098905,1.15202696
DJX,69,1,2024-06-13T10:28:56.157Z,english_679.wav,0,1,629,20,4,Chinese,f,0,0,76.35427363,0.61802324
DJX,69,1,2024-06-13T10:28:56.157Z,english_679.wav,0,1,629,20,4,Chinese,f,1,0.1,-50.0846889,0.37453971
DJX,69,1,2024-06-13T10:28:56.157Z,english_679.wav,0,1,629,20,4,Chinese,f,2,0.2,79.70250944,0.85876035
DJX,69,1,2024-06-13T10:28:56.157Z,english_679.wav,0,1,629,20,4,Chinese,f,3,0.3,81.01080403,1.8566793
DJX,69,1,2024-06-13T10:28:56.157Z,english_679.wav,0,1,629,20,4,Chinese,f,4,0.4,83.79560208,1.28706844
DJX,69,1,2024-06-13T10:28:56.157Z,english_679.wav,0,1,629,20,4,Chinese,f,5,0.5,50.36804925,1.04354471
DJX,69,1,2024-06-13T10:28:56.157Z,english_679.wav,0,1,629,20,4,Chinese,f,6,0.6,40.56025904,1.21986253
DJX,69,1,2024-06-13T10:28:56.157Z,english_679.wav,0,1,629,20,4,Chinese,f,7,0.7,61.04999163,0.6187735
DJX,69,1,2024-06-13T10:28:56.157Z,english_679.wav,0,1,629,20,4,Chinese,f,8,0.8,30.26013895,1.74062644
DJX,69,1,2024-06-13T10:28:56.157Z,english_679.wav,0,1,629,20,4,Chinese,f,9,0.9,-2.00132525,0.86694999
DJX,69,1,2024-06-13T10:28:56.157Z,english_679.wav,0,1,629,20,4,Chinese,f,10,1,61.28738914,1.26165824
DJX,69,1,2024-06-13T10:28:56.157Z,english_679.wav,0,1,629,20,4,Chinese,f,11,1.09391667,-32.08611222,0.66731925
DJX,70,1,2024-06-13T10:28:56.157Z,english_218.wav,0,1,1361,20,4,Chinese,f,0,0,-28.20463256,0.06975638
DJX,70,1,2024-06-13T10:28:56.157Z,english_218.wav,0,1,1361,20,4,Chinese,f,1,0.1,-75.86656262,1.24902799
DJX,70,1,2024-06-13T10:28:56.157Z,english_218.wav,0,1,1361,20,4,Chinese,f,2,0.2,78.51568347,0.38757705
DJX,70,1,2024-06-13T10:28:56.157Z,english_218.wav,0,1,1361,20,4,Chinese,f,3,0.3,-67.19866651,1.18680549
DJX,70,1,2024-06-13T10:28:56.157Z,english_218.wav,0,1,1361,20,4,Chinese,f,4,0.4,-11.47483433,1.20454768
DJX,70,1,2024-06-13T10:28:56.157Z,english_218.wav,0,1,1361,20,4,Chinese,f,5,0.5,-96.34493339,0.70131962
DJX,70,1,2024-06-13T10:28:56.157Z,english_218.wav,0,1,1361,20,4,Chinese,f,6,0.6,71.58709959,0.25791663
DJX,70,1,2024-06-13T10:28:56.157Z,english_218.wav,0,1,1361,20,4,Chinese,f,7,0.7,-9.8928997,0.10961417
DJX,70,1,2024-06-13T10:28:56.157Z,english_218.wav,0,1,1361,20,4,Chinese,f,8,0.8,-1.71040265,1.17923692
DJX,70,1,2024-06-13T10:28:56.157Z,english_218.wav,0,1,1361,20,4,Chinese,f,9,0.9,46.05003014,0.25195767
DJX,70,1,2024-06-13T10:28:56.157Z,english_218.wav,0,1,1361,20,4,Chinese,f,10,1,-54.51031069,1.75432787
DJX,70,1,2024-06-13T10:28:56.157Z,english_218.wav,0,1,1361,20,4,Chinese,f,11,1.09391667,-36.41626056,1.27588471
DJX,71,1,2024-06-13T10:28:56.157Z,english_936.wav,0,1,1142,20,4,Chinese,f,0,0,36.31221715,1.2887877
DJX,71,1,2024-06-13T10:28:56.157Z,english_936.wav,0,1,1142,20,4,Chinese,f,1,0.1,-44.47492587,1.4589685
DJX,71,1,2024-06-13T10:28:56.157Z,english_936.wav,0,1,1142,20,4,Chinese,f,2,0.2,-4.14718789,0.18405876
DJX,71,1,2024-06-13T10:28:56.157Z,english_936.wav,0,1,1142,20,4,Chinese,f,3,0.3,-65.70158372,0.27129686
DJX,71,1,2024-06-13T10:28:56.157Z,english_936.wav,0,1,1142,20,4,Chinese,f,4,0.4,76.09968898,0.60039507
DJX,71,1,2024-06-13T10:28:56.157Z,english_936.wav,0,1,1142,20,4,Chinese,f,5,0.5,52.5413509,0.83949142
DJX,71,1,2024-06-13T10:28:56.157Z,english_936.wav,0,1,1142,20,4,Chinese,f,6,0.6,5.38506085,0.92420877
DJX,71,1,2024-06-13T10:28:56.157Z,english_936.wav,0,1,1142,20,4,Chinese,f,7,0.7,-9.33856544,0.31849757
DJX,71,1,2024-06-13T10:28:56.157Z,english_936.wav,0,1,1142,20,4,Chinese,f,8,0.8,-79.6079489,1.55991954
DJX,71,1,2024-06-13T10:28:56.157Z,english_936.wav,0,1,1142,20,4,Chinese,f,9,0.9,-51.30915368,1.32485451
DJX,71,1,2024-06-13T10:28:56.157Z,english_936.wav,0,1,1142,20,4,Chinese,f,10,1,-23.2662762,1.1603689
DJX,71,1,2024-06-13T10:28:56.157Z,english_936.wav,0,1,1142,20,4,Chinese,f,11,1.09391667,10.041916,0.29288231
DJX,72,1,2024-06-13T10:28:56.157Z,english_481.wav,0,0,2131,20,4,Chinese,f,0,0,12.53874901,1.58204947
DJX,72,1,2024-06-13T10:28:56.157Z,english_481.wav,0,0,2131,20,4,Chinese,f,1,0.1,-9.84524601,0.30197463
DJX,72,1,2024-06-13T10:28:56.157Z,english_481.wav,0,0,2131,20,4,Chinese,f,2,0.2,-28.69081604,1.36929082
DJX,72,1,2024-06-13T10:28:56.157Z,english_481.wav,0,0,2131,20,4,Chinese,f,3,0.3,-3.98654711,1.57950224
DJX,72,1,2024-06-13T10:28:56.157Z,english_481.wav,0,0,2131,20,4,Chinese,f,4,0.4,-31.85582808,1.64821008
DJX,72,1,2024-06-13T10:28:56.157Z,english_481.wav,0,0,2131,20,4,Chinese,f,5,0.5,-60.66158974,1.40708
DJX,72,1,2024-06-13T10:28:56.157Z,english_481.wav,0,0,2131,20,4,Chinese,f,6,0.6,37.08553698,0.90705567
DJX,72,1,2024-06-13T10:28:56.157Z,english_481.wav,0,0,2131,20,4,Chinese,f,7,0.7,-55.30747295,0.62618862
DJX,72,1,2024-06-13T10:28:56.157Z,english_481.wav,0,0,2131,20,4,Chinese,f,8,0.8,79.95944373,0.10659235
DJX,72,1,2024-06-13T10:28:56.157Z,english_481.wav,0,0,2131,20,4,Chinese,f,9,0.9,16.93049167,0.31824417
DJX,72,1,2024-06-13T10:28:56.157Z,english_481.wav,0,0,2131,20,4,Chinese,f,10,1,2.57902723,0.18714767
DJX,72,1,2024-06-13T10:28:56.157Z,english_481.wav,0,0,2131,20,4,Chinese,f,11,1.09391667,9.37320396,0.57978015
DJX,73,1,2024-06-13T10:28:56.157Z,english_282.wav,0,1,971,20,4,Chinese,f,0,0,79.51809952,1.2792911
DJX,73,1,2024-06-13T10:28:56.157Z,english_282.wav,0,1,971,20,4,Chinese,f,1,0.1,55.92109115,0.93344042
DJX,73,1,2024-06-13T10:28:56.157Z,english_282.wav,0,1,971,20,4,Chinese,f,2,0.2,36.01060515,1.94968889
DJX,73,1,2024-06-13T10:28:56.157Z,english_282.wav,0,1,971,20,4,Chinese,f,3,0.3,4.60281664,1.12428424
DJX,73,1,2024-06-13T10:28:56.157Z,english_282.wav,0,1,971,20,4,Chinese,f,4,0.4,35.69966579,0.7610034
DJX,73,1,2024-06-13T10:28:56.157Z,english_282.wav,0,1,971,20,4,Chinese,f,5,0.5,-79.87721836,0.66186596
DJX,73,1,2024-06-13T10:28:56.157Z,english_282.wav,0,1,971,20,4,Chinese,f,6,0.6,-3.98252218,0.57211865
DJX,73,1,2024-06-13T10:28:56.157Z,english_282.wav,0,1,971,20,4,Chinese,f,7,0.7,-78.10052274,0.40544896
DJX,73,1,2024-06-13T10:28:56.157Z,english_282.wav,0,1,971,20,4,Chinese,f,8,0.8,69.1474283,0.68156422
DJX,73,1,2024-06-13T10:28:56.157Z,english_282.wav,0,1,971,20,4,Chinese,f,9,0.9,58.09261901,0.87028019
DJX,73,1,2024-06-13T10:28:56.157Z,english_282.wav,0,1,971,20,4,Chinese,f,10,1,94.50826365,1.91563213
DJX,73,1,2024-06-13T10:28:56.157Z,english_282.wav,0,1,971,20,4,Chinese,f,11,1.09391667,71.90418642,1.01931827
DJX,74,1,2024-06-13T10:28:56.157Z,english_326.wav,0,1,1891,20,4,Chinese,f,0,0,-43.10917618,0.92818159
DJX,74,1,2024-06-13T10:28:56.157Z,english_326.wav,0,1,1891,20,4,Chinese,f,1,0.1,51.71010142,0.32622589
DJX,74,1,2024-06-13T10:28:56.157Z,english_326.wav,0,1,1891,20,4,Chinese,f,2,0.2,-51.98898793,0.25183357
DJX,74,1,2024-06-13T10:28:56.157Z,english_326.wav,0,1,1891,20,4,Chinese,f,3,0.3,-88.25420689,0.15547956
DJX,74,1,2024-06-13T10:28:56.157Z,english_326.wav,0,1,1891,20,4,Chinese,f,4,0.4,-29.81917635,0.54551317
DJX,74,1,2024-06-13T10:28:56.157Z,english_326.wav,0,1,1891,20,4,Chinese,f,5,0.5,-40.02564907,0.579881
DJX,74,1,2024-06-13T10:28:56.157Z,english_326.wav,0,1,1891,20,4,Chinese,f,6,0.6,-80.61031076,0.72251342
DJX,74,1,2024-06-13T10:28:56.157Z,english_326.wav,0,1,1891,20,4,Chinese,f,7,0.7,27.73097561,1.44758164
DJX,74,1,2024-06-13T10:28:56.157Z,english_326.wav,0,1,1891,20,4,Chinese,f,8,0.8,86.25406042,1.07961509
DJX,74,1,2024-06-13T10:28:56.157Z,english_326.wav,0,1,1891,20,4,Chinese,f,9,0.9,-98.97965016,1.11677138
DJX,74,1,2024-06-13T10:28:56.157Z,english_326.wav,0,1,1891,20,4,Chinese,f,10,1,-32.16564668,0.90130016
DJX,74,1,2024-06-13T10:28:56.157Z,english_326.wav,0,1,1891,20,4,Chinese,f,11,1.09391667,-99.19861207,0.29135461
DJX,75,1,2024-06-13T10:28:56.157Z,english_174.wav,0,0,894,20,4,Chinese,f,0,0,-1.27352161,1.81219165
DJX,75,1,2024-06-13T10:28:56.157Z,english_174.wav,0,0,894,20,4,Chinese,f,1,0.1,-67.76486912,0.77028854
DJX,75,1,2024-06-13T10:28:56.157Z,english_174.wav,0,0,894,20,4,Chinese,f,2,0.2,38.59821356,0.44136445
DJX,75,1,2024-06-13T10:28:56.157Z,english_174.wav,0,0,894,20,4,Chinese,f,3,0.3,-68.30936474,1.01129338
DJX,75,1,2024-06-13T10:28:56.157Z,english_174.wav,0,0,894,20,4,Chinese,f,4,0.4,-90.24428589,0.76518489
DJX,75,1,2024-06-13T10:28:56.157Z,english_174.wav,0,0,894,20,4,Chinese,f,5,0.5,-78.84758788,1.51905633
DJX,75,1,2024-06-13T10:28:56.157Z,english_174.wav,0,0,894,20,4,Chinese,f,6,0.6,82.67516556,0.9260744
DJX,75,1,2024-06-13T10:28:56.157Z,english_174.wav,0,0,894,20,4,Chinese,f,7,0.7,27.65744762,1.48661059
DJX,75,1,2024-06-13T10:28:56.157Z,english_174.wav,0,0,894,20,4,Chinese,f,8,0.8,82.5621195,0.13101211
DJX,75,1,2024-06-13T10:28:56.157Z,english_174.wav,0,0,894,20,4,Chinese,f,9,0.9,22.03109017,0.66605082
DJX,75,1,2024-06-13T10:28:56.157Z,english_174.wav,0,0,894,20,4,Chinese,f,10,1,97.22651297,0.90549752
DJX,75,1,2024-06-13T10:28:56.157Z,english_174.wav,0,0,894,20,4,Chinese,f,11,1.09391667,6.30116613,1.52579229
DJX,76,1,2024-06-13T10:28:56.157Z,english_331.wav,0,1,1033,20,4,Chinese,f,0,0,-64.72276527,1.69014175
DJX,76,1,2024-06-13T10:28:56.157Z,english_331.wav,0,1,1033,20,4,Chinese,f,1,0.1,-64.60107944,0.93306192
DJX,76,1,2024-06-13T10:28:56.157Z,english_331.wav,0,1,1033,20,4,Chinese,f,2,0.2,43.10237597,1.51219836
DJX,76,1,2024-06-13T10:28:56.157Z,english_331.wav,0,1,1033,20,4,Chinese,f,3,0.3,3.97944271,1.83280239
DJX,76,1,2024-06-13T10:28:56.157Z,english_331.wav,0,1,1033,20,4,Chinese,f,4,0.4,53.93002911,0.32272679
DJX,76,1,2024-06-13T10:28:56.157Z,english_331.wav,0,1,1033,20,4,Chinese,f,5,0.5,-98.69413197,0.14451959
DJX,76,1,2024-06-13T10:28:56.157Z,english_331.wav,0,1,1033,20,4,Chinese,f,6,0.6,76.42202474,0.4727661
DJX,76,1,2024-06-13T10:28:56.157Z,english_331.wav,0,1,1033,20,4,Chinese,f,7,0.7,-50.14036669,0.90462805
DJX,76,1,2024-06-13T10:28:56.157Z,english_331.wav,0,1,1033,20,4,Chinese,f,8,0.8,61.5779926,1.98401372
DJX,76,1,2024-06-13T10:28:56.157Z,english_331.wav,0,1,1033,20,4,Chinese,f,9,0.9,-56.16895328,0.59081959
DJX,76,1,2024-06-13T10:28:56.157Z,english_331.wav,0,1,1033,20,4,Chinese,f,10,1,5.62439148,1.38184498
DJX,76,1,2024-06-13T10:28:56.157Z,english_331.wav,0,1,1033,20,4,Chinese,f,11,1.09391667,-39.06443994,0.44356806
DJX,77,1,2024-06-13T10:28:56.157Z,english_186.wav,0,0,1034,20,4,Chinese,f,0,0,34.67628328,1.75816844
DJX,77,1,2024-06-13T10:28:56.157Z,english_186.wav,0,0,1034,20,4,Chinese,f,1,0.1,-19.53122367,1.94712822
DJX,77,1,2024-06-13T10:28:56.157Z,english_186.wav,0,0,1034,20,4,Chinese,f,2,0.2,31.036007,0.76716396
DJX,77,1,2024-06-13T10:28:56.157Z,english_186.wav,0,0,1034,20,4,Chinese,f,3,0.3,-94.39309916,1.39701873
DJX,77,1,2024-06-13T10:28:56.157Z,english_186.wav,0,0,1034,20,4,Chinese,f,4,0.4,2.96716774,1.30823473
DJX,77,1,2024-06-13T10:28:56.157Z,english_186.wav,0,0,1034,20,4,Chinese,f,5,0.5,44.13973284,0.38912271
DJX,77,1,2024-06-13T10:28:56.157Z,english_186.wav,0,0,1034,20,4,Chinese,f,6,0.6,41.34226894,0.09265328
DJX,77,1,2024-06-13T10:28:56.157Z,english_186.wav,0,0,1034,20,4,Chinese,f,7,0.7,89.79294986,1.13224893
DJX,77,1,2024-06-13T10:28:56.157Z,english_186.wav,0,0,1034,20,4,Chinese,f,8,0.8,5.87570889,0.32682785
DJX,77,1,2024-06-13T10:28:56.157Z,english_186.wav,0,0,1034,20,4,Chinese,f,9,0.9,-94.07260309,0.08299448
DJX,77,1,2024-06-13T10:28:56.157Z,english_186.wav,0,0,1034,20,4,Chinese,f,10,1,56.55218839,0.76365709
DJX,77,1,2024-06-13T10:28:56.157Z,english_186.wav,0,0,1034,20,4,Chinese,f,11,1.09391667,-18.95393722,1.25330528
DJX,78,1,2024-06-13T10:28:56.157Z,english_62.wav,0,1,602,20,4,Chinese,f,0,0,-3.78920548,0.70082268
DJX,78,1,2024-06-13T10:28:56.157Z,english_62.wav,0,1,602,20,4,Chinese,f,1,0.1,-37.0955142,1.73685238
DJX,78,1,2024-06-13T10:28:56.157Z,english_62.wav,0,1,602,20,4,Chinese,f,2,0.2,9.5461355,1.84078554
DJX,78,1,2024-06-13T10:28:56.157Z,english_62.wav,0,1,602,20,4,Chinese,f,3,0.3,-0.00485474303,1.14784738
DJX,78,1,2024-06-13T10:28:56.157Z,english_62.wav,0,1,602,20,4,Chinese,f,4,0.4,-49.0745054,1.31722545
DJX,78,1,2024-06-13T10:28:56.157Z,english_62.wav,0,1,602,20,4,Chinese,f,5,0.5,-72.3722832,1.67134304
DJX,78,1,2024-06-13T10:28:56.157Z,english_62.wav,0,1,602,20,4,Chinese,f,6,0.6,5.00416948,1.47221808
DJX,78,1,2024-06-13T10:28:56.157Z,english_62.wav,0,1,602,20,4,Chinese,f,7,0.7,-4.87629727,1.69888672
DJX,78,1,2024-06-13T10:28:56.157Z,english_62.wav,0,1,602,20,4,Chinese,f,8,0.8,-34.3659295,1.41102286
DJX,78,1,2024-06-13T10:28:56.157Z,english_62.wav,0,1,602,20,4,Chinese,f,9,0.9,-54.6881611,1.6080508
DJX,78,1,2024-06-13T10:28:56.157Z,english_62.wav,0,1,602,20,4,Chinese,f,10,1,-89.9071473,1.84899912
DJX,78,1,2024-06-13T10:28:56.157Z,english_62.wav,0,1,602,20,4,Chinese,f,11,1.09391667,-27.8378106,1.28379088
DJX,79,1,2024-06-13T10:28:56.157Z,english_235.wav,0,0,475,20,4,Chinese,f,0,0,44.65499148,0.45157531
DJX,79,1,2024-06-13T10:28:56.157Z,english_235.wav,0,0,475,20,4,Chinese,f,1,0.1,77.52873905,0.81502167
DJX,79,1,2024-06-13T10:28:56.157Z,english_235.wav,0,0,475,20,4,Chinese,f,2,0.2,7.66193616,0.73184795
DJX,79,1,2024-06-13T10:28:56.157Z,english_235.wav,0,0,475,20,4,Chinese,f,3,0.3,-36.65234069,1.39041991
DJX,79,1,2024-06-13T10:28:56.157Z,english_235.wav,0,0,475,20,4,Chinese,f,4,0.4,-38.57977077,0.8131102
DJX,79,1,2024-06-13T10:28:56.157Z,english_235.wav,0,0,475,20,4,Chinese,f,5,0.5,-69.81992681,0.63770546
DJX,79,1,2024-06-13T10:28:56.157Z,english_235.wav,0,0,475,20,4,Chinese,f,6,0.6,-3.21185942,0.48204551
DJX,79,1,2024-06-13T10:28:56.157Z,english_235.wav,0,0,475,20,4,Chinese,f,7,0.7,-3.7989625,0.64449527
DJX,79,1,2024-06-13T10:28:56.157Z,english_235.wav,0,0,475,20,4,Chinese,f,8,0.8,-60.5356981,0.17411585
DJX,79,1,2024-06-13T10:28:56.157Z,english_235.wav,0,0,475,20,4,Chinese,f,9,0.9,10.60420307,1.43103789
DJX,79,1,2024-06-13T10:28:56.157Z,english_235.wav,0,0,475,20,4,Chinese,f,10,1,73.74029871,1.90034823
DJX,79,1,2024-06-13T10:28:56.157Z,english_235.wav,0,0,475,20,4,Chinese,f,11,1.09391667,-42.3978276,0.79167247
DJX,80,1,2024-06-13T10:28:56.157Z,english_28.wav,0,1,607,20,4,Chinese,f,0,0,46.79443609,1.01055945
DJX,80,1,2024-06-13T10:28:56.157Z,english_28.wav,0,1,607,20,4,Chinese,f,1,0.1,2.26441595,0.40890859
DJX,80,1,2024-06-13T10:28:56.157Z,english_28.wav,0,1,607,20,4,Chinese,f,2,0.2,-92.86356779,1.10134245
DJX,80,1,2024-06-13T10:28:56.157Z,english_28.wav,0,1,607,20,4,Chinese,f,3,0.3,70.49912331,0.66041546
DJX,80,1,2024-06-13T10:28:56.157Z,english_28.wav,0,1,607,20,4,Chinese,f,4,0.4,-44.6918064,1.38812901
DJX,80,1,2024-06-13T10:28:56.157Z,english_28.wav,0,1,607,20,4,Chinese,f,5,0.5,-40.18885973,1.34163595
DJX,80,1,2024-06-13T10:28:56.157Z,english_28.wav,0,1,607,20,4,Chinese,f,6,0.6,22.89431524,1.22801128
DJX,80,1,2024-06-13T10:28:56.157Z,english_28.wav,0,1,607,20,4,Chinese,f,7,0.7,-98.00041762,1.98732106
DJX,80,1,2024-06-13T10:28:56.157Z,english_28.wav,0,1,607,20,4,Chinese,f,8,0.8,-45.25978985,1.24747992
DJX,80,1,2024-06-13T10:28:56.157Z,english_28.wav,0,1,607,20,4,Chinese,f,9,0.9,-73.28359547,1.6043756
