subj,trial,block,date,stim,stim_order,response,rt,age,english,language,sex,param_index,segment,pitch,stretch
ZJY,0,0,2024-06-13T06:31:34.035Z,english_680.wav,0,0,1755,,,,,0,0,34.87100104,0.28324866
ZJY,0,0,2024-06-13T06:31:34.035Z,english_680.wav,0,0,1755,,,,,1,0.1,-42.78152033,0.8126674
ZJY,0,0,2024-06-13T06:31:34.035Z,english_680.wav,0,0,1755,,,,,2,0.2,53.30670494,0.29371905
ZJY,0,0,2024-06-13T06:31:34.035Z,english_680.wav,0,0,1755,,,,,3,0.3,-19.15351041,0.35755618
ZJY,0,0,2024-06-13T06:31:34.035Z,english_680.wav,0,0,1755,,,,,4,0.4,81.43981803,1.51227527
ZJY,0,0,2024-06-13T06:31:34.035Z,english_680.wav,0,0,1755,,,,,5,0.5,-40.3529223,1.96868376
ZJY,0,0,2024-06-13T06:31:34.035Z,english_680.wav,0,0,1755,,,,,6,0.6,-80.08540334,0.83617015
ZJY,0,0,2024-06-13T06:31:34.035Z,english_680.wav,0,0,1755,,,,,7,0.7,-59.88446673,0.96819403
ZJY,0,0,2024-06-13T06:31:34.035Z,english_680.wav,0,0,1755,,,,,8,0.8,14.21531263,0.41039135
ZJY,0,0,2024-06-13T06:31:34.035Z,english_680.wav,0,0,1755,,,,,9,0.9,39.26105915,0.45984498
ZJY,0,0,2024-06-13T06:31:34.035Z,english_680.wav,0,0,1755,,,,,10,1,-43.76684188,0.60924907
ZJY,0,0,2024-06-13T06:31:34.035Z,english_680.wav,0,0,1755,,,,,11,1.09391667,-17.50761484,0.18151502
ZJY,1,0,2024-06-13T06:31:34.035Z,english_585.wav,0,0,939,,,,,0,0,-86.93944466,0.1588986
ZJY,1,0,2024-06-13T06:31:34.035Z,english_585.wav,0,0,939,,,,,1,0.1,-97.95669785,0.38183266
ZJY,1,0,2024-06-13T06:31:34.035Z,english_585.wav,0,0,939,,,,,2,0.2,35.19908461,0.20642212
ZJY,1,0,2024-06-13T06:31:34.035Z,english_585.wav,0,0,939,,,,,3,0.3,66.00378301,1.21146119
ZJY,1,0,2024-06-13T06:31:34.035Z,english_585.wav,0,0,939,,,,,4,0.4,10.9229126,0.35502735
ZJY,1,0,2024-06-13T06:31:34.035Z,english_585.wav,0,0,939,,,,,5,0.5,72.37678619,1.56586524
ZJY,1,0,2024-06-13T06:31:34.035Z,english_585.wav,0,0,939,,,,,6,0.6,-57.08192974,1.83214489
ZJY,1,0,2024-06-13T06:31:34.035Z,english_585.wav,0,0,939,,,,,7,0.7,-77.39915084,0.43697271
ZJY,1,0,2024-06-13T06:31:34.035Z,english_585.wav,0,0,939,,,,,8,0.8,38.55710496,0.35169773
ZJY,1,0,2024-06-13T06:31:34.035Z,english_585.wav,0,0,939,,,,,9,0.9,-27.16276528,1.49983702
ZJY,1,0,2024-06-13T06:31:34.035Z,english_585.wav,0,0,939,,,,,10,1,46.25769813,0.51254386
ZJY,1,0,2024-06-13T06:31:34.035Z,english_585.wav,0,0,939,,,,,11,1.09391667,-14.18587881,0.12379544
ZJY,2,0,2024-06-13T06:31:34.035Z,english_602.wav,0,0,1081,,,,,0,0,68.03651569,0.44361931
ZJY,2,0,2024-06-13T06:31:34.035Z,english_602.wav,0,0,1081,,,,,1,0.1,45.80270737,1.54062364
ZJY,2,0,2024-06-13T06:31:34.035Z,english_602.wav,0,0,1081,,,,,2,0.2,40.05084495,1.57634207
ZJY,2,0,2024-06-13T06:31:34.035Z,english_602.wav,0,0,1081,,,,,3,0.3,48.64089828,0.03645506
ZJY,2,0,2024-06-13T06:31:34.035Z,english_602.wav,0,0,1081,,,,,4,0.4,24.15305268,1.06145672
ZJY,2,0,2024-06-13T06:31:34.035Z,english_602.wav,0,0,1081,,,,,5,0.5,51.63059478,0.59279659
ZJY,2,0,2024-06-13T06:31:34.035Z,english_602.wav,0,0,1081,,,,,6,0.6,84.11339373,1.68063549
ZJY,2,0,2024-06-13T06:31:34.035Z,english_602.wav,0,0,1081,,,,,7,0.7,22.39119116,0.09041329
ZJY,2,0,2024-06-13T06:31:34.035Z,english_602.wav,0,0,1081,,,,,8,0.8,-41.26651668,1.8261536
ZJY,2,0,2024-06-13T06:31:34.035Z,english_602.wav,0,0,1081,,,,,9,0.9,-2.28056387,1.1974799
ZJY,2,0,2024-06-13T06:31:34.035Z,english_602.wav,0,0,1081,,,,,10,1,-50.54956883,1.84366918
ZJY,2,0,2024-06-13T06:31:34.035Z,english_602.wav,0,0,1081,,,,,11,1.09391667,-93.08298628,1.00091384
ZJY,3,0,2024-06-13T06:31:34.035Z,english_274.wav,0,1,2886,,,,,0,0,90.15852298,1.09879686
ZJY,3,0,2024-06-13T06:31:34.035Z,english_274.wav,0,1,2886,,,,,1,0.1,54.46178194,1.93033732
ZJY,3,0,2024-06-13T06:31:34.035Z,english_274.wav,0,1,2886,,,,,2,0.2,92.29787974,1.35119606
ZJY,3,0,2024-06-13T06:31:34.035Z,english_274.wav,0,1,2886,,,,,3,0.3,56.79856413,1.49147937
ZJY,3,0,2024-06-13T06:31:34.035Z,english_274.wav,0,1,2886,,,,,4,0.4,6.80655331,1.75081802
ZJY,3,0,2024-06-13T06:31:34.035Z,english_274.wav,0,1,2886,,,,,5,0.5,85.98039627,0.26277184
ZJY,3,0,2024-06-13T06:31:34.035Z,english_274.wav,0,1,2886,,,,,6,0.6,79.54748497,1.06227003
ZJY,3,0,2024-06-13T06:31:34.035Z,english_274.wav,0,1,2886,,,,,7,0.7,-50.26158779,0.06438964
ZJY,3,0,2024-06-13T06:31:34.035Z,english_274.wav,0,1,2886,,,,,8,0.8,46.33910856,0.88741243
ZJY,3,0,2024-06-13T06:31:34.035Z,english_274.wav,0,1,2886,,,,,9,0.9,-52.2237302,0.12141514
ZJY,3,0,2024-06-13T06:31:34.035Z,english_274.wav,0,1,2886,,,,,10,1,14.53688649,1.07853955
ZJY,3,0,2024-06-13T06:31:34.035Z,english_274.wav,0,1,2886,,,,,11,1.09391667,26.74527789,0.24561082
ZJY,4,0,2024-06-13T06:31:34.035Z,english_753.wav,0,0,488,,,,,0,0,-37.70671017,1.74884561
ZJY,4,0,2024-06-13T06:31:34.035Z,english_753.wav,0,0,488,,,,,1,0.1,-51.92629572,0.91942072
ZJY,4,0,2024-06-13T06:31:34.035Z,english_753.wav,0,0,488,,,,,2,0.2,93.98068105,1.59964549
ZJY,4,0,2024-06-13T06:31:34.035Z,english_753.wav,0,0,488,,,,,3,0.3,-51.39932121,1.12825203
ZJY,4,0,2024-06-13T06:31:34.035Z,english_753.wav,0,0,488,,,,,4,0.4,95.80116655,1.21219761
ZJY,4,0,2024-06-13T06:31:34.035Z,english_753.wav,0,0,488,,,,,5,0.5,54.2507311,1.26026343
ZJY,4,0,2024-06-13T06:31:34.035Z,english_753.wav,0,0,488,,,,,6,0.6,20.30160244,1.5757537
ZJY,4,0,2024-06-13T06:31:34.035Z,english_753.wav,0,0,488,,,,,7,0.7,55.46646904,0.16664365
ZJY,4,0,2024-06-13T06:31:34.035Z,english_753.wav,0,0,488,,,,,8,0.8,-44.46613041,1.11726469
ZJY,4,0,2024-06-13T06:31:34.035Z,english_753.wav,0,0,488,,,,,9,0.9,32.26226525,1.53816652
ZJY,4,0,2024-06-13T06:31:34.035Z,english_753.wav,0,0,488,,,,,10,1,94.05472838,0.62126972
ZJY,4,0,2024-06-13T06:31:34.035Z,english_753.wav,0,0,488,,,,,11,1.09391667,42.98878145,0.46411799
ZJY,5,0,2024-06-13T06:31:34.035Z,english_84.wav,0,0,664,,,,,0,0,-30.2467566,1.10932486
ZJY,5,0,2024-06-13T06:31:34.035Z,english_84.wav,0,0,664,,,,,1,0.1,-18.60045113,1.9206934
ZJY,5,0,2024-06-13T06:31:34.035Z,english_84.wav,0,0,664,,,,,2,0.2,-90.34616495,1.24300923
ZJY,5,0,2024-06-13T06:31:34.035Z,english_84.wav,0,0,664,,,,,3,0.3,65.05422695,0.26827652
ZJY,5,0,2024-06-13T06:31:34.035Z,english_84.wav,0,0,664,,,,,4,0.4,-97.4748037,1.06073
ZJY,5,0,2024-06-13T06:31:34.035Z,english_84.wav,0,0,664,,,,,5,0.5,81.08722465,0.77191048
ZJY,5,0,2024-06-13T06:31:34.035Z,english_84.wav,0,0,664,,,,,6,0.6,-60.33963886,0.47362595
ZJY,5,0,2024-06-13T06:31:34.035Z,english_84.wav,0,0,664,,,,,7,0.7,89.16319597,0.81063727
ZJY,5,0,2024-06-13T06:31:34.035Z,english_84.wav,0,0,664,,,,,8,0.8,-62.96470457,0.77403196
ZJY,5,0,2024-06-13T06:31:34.035Z,english_84.wav,0,0,664,,,,,9,0.9,-1.62845555,1.97344779
ZJY,5,0,2024-06-13T06:31:34.035Z,english_84.wav,0,0,664,,,,,10,1,-78.52699488,1.64085803
ZJY,5,0,2024-06-13T06:31:34.035Z,english_84.wav,0,0,664,,,,,11,1.09391667,30.74269215,1.83432164
ZJY,6,0,2024-06-13T06:31:34.035Z,english_813.wav,0,1,713,,,,,0,0,-21.47810291,0.42494113
ZJY,6,0,2024-06-13T06:31:34.035Z,english_813.wav,0,1,713,,,,,1,0.1,-84.13417806,0.85563352
ZJY,6,0,2024-06-13T06:31:34.035Z,english_813.wav,0,1,713,,,,,2,0.2,-18.57483833,1.62435889
ZJY,6,0,2024-06-13T06:31:34.035Z,english_813.wav,0,1,713,,,,,3,0.3,85.46223106,1.84520067
ZJY,6,0,2024-06-13T06:31:34.035Z,english_813.wav,0,1,713,,,,,4,0.4,-47.12255135,0.16630065
ZJY,6,0,2024-06-13T06:31:34.035Z,english_813.wav,0,1,713,,,,,5,0.5,55.13909294,1.66622477
ZJY,6,0,2024-06-13T06:31:34.035Z,english_813.wav,0,1,713,,,,,6,0.6,-92.27868598,1.29440347
ZJY,6,0,2024-06-13T06:31:34.035Z,english_813.wav,0,1,713,,,,,7,0.7,-98.65237277,1.30366
ZJY,6,0,2024-06-13T06:31:34.035Z,english_813.wav,0,1,713,,,,,8,0.8,-73.59665384,0.95942882
ZJY,6,0,2024-06-13T06:31:34.035Z,english_813.wav,0,1,713,,,,,9,0.9,99.75598896,0.41648042
ZJY,6,0,2024-06-13T06:31:34.035Z,english_813.wav,0,1,713,,,,,10,1,22.46235737,0.55260475
ZJY,6,0,2024-06-13T06:31:34.035Z,english_813.wav,0,1,713,,,,,11,1.09391667,-23.97281603,0.8655965
ZJY,7,0,2024-06-13T06:31:34.035Z,english_723.wav,0,1,918,,,,,0,0,41.38539941,1.7889603
ZJY,7,0,2024-06-13T06:31:34.035Z,english_723.wav,0,1,918,,,,,1,0.1,-10.01095303,0.1038592
ZJY,7,0,2024-06-13T06:31:34.035Z,english_723.wav,0,1,918,,,,,2,0.2,29.27272113,0.53110076
ZJY,7,0,2024-06-13T06:31:34.035Z,english_723.wav,0,1,918,,,,,3,0.3,-49.7176535,0.29760974
ZJY,7,0,2024-06-13T06:31:34.035Z,english_723.wav,0,1,918,,,,,4,0.4,-10.52042461,1.31106604
ZJY,7,0,2024-06-13T06:31:34.035Z,english_723.wav,0,1,918,,,,,5,0.5,-43.11656662,0.93542765
ZJY,7,0,2024-06-13T06:31:34.035Z,english_723.wav,0,1,918,,,,,6,0.6,-24.09481257,1.32967349
ZJY,7,0,2024-06-13T06:31:34.035Z,english_723.wav,0,1,918,,,,,7,0.7,61.11286308,1.11219452
ZJY,7,0,2024-06-13T06:31:34.035Z,english_723.wav,0,1,918,,,,,8,0.8,-37.09128746,0.4392085
ZJY,7,0,2024-06-13T06:31:34.035Z,english_723.wav,0,1,918,,,,,9,0.9,71.58023837,1.93673799
ZJY,7,0,2024-06-13T06:31:34.035Z,english_723.wav,0,1,918,,,,,10,1,30.56657054,0.01664343
ZJY,7,0,2024-06-13T06:31:34.035Z,english_723.wav,0,1,918,,,,,11,1.09391667,-5.36806636,0.22848658
ZJY,8,0,2024-06-13T06:31:34.035Z,english_150.wav,0,1,1420,,,,,0,0,-50.54232549,1.16258998
ZJY,8,0,2024-06-13T06:31:34.035Z,english_150.wav,0,1,1420,,,,,1,0.1,34.32153656,0.79689364
ZJY,8,0,2024-06-13T06:31:34.035Z,english_150.wav,0,1,1420,,,,,2,0.2,-10.92395048,0.16790755
ZJY,8,0,2024-06-13T06:31:34.035Z,english_150.wav,0,1,1420,,,,,3,0.3,53.72738624,0.35039588
ZJY,8,0,2024-06-13T06:31:34.035Z,english_150.wav,0,1,1420,,,,,4,0.4,62.41801081,0.24836215
ZJY,8,0,2024-06-13T06:31:34.035Z,english_150.wav,0,1,1420,,,,,5,0.5,-32.60317387,0.38408886
ZJY,8,0,2024-06-13T06:31:34.035Z,english_150.wav,0,1,1420,,,,,6,0.6,-14.80411838,0.47894499
ZJY,8,0,2024-06-13T06:31:34.035Z,english_150.wav,0,1,1420,,,,,7,0.7,55.20966729,1.81942338
ZJY,8,0,2024-06-13T06:31:34.035Z,english_150.wav,0,1,1420,,,,,8,0.8,-74.0684305,1.36079379
ZJY,8,0,2024-06-13T06:31:34.035Z,english_150.wav,0,1,1420,,,,,9,0.9,-4.87965611,1.63972786
ZJY,8,0,2024-06-13T06:31:34.035Z,english_150.wav,0,1,1420,,,,,10,1,-79.50813125,1.65428446
ZJY,8,0,2024-06-13T06:31:34.035Z,english_150.wav,0,1,1420,,,,,11,1.09391667,24.9492826,1.31063675
ZJY,9,0,2024-06-13T06:31:34.035Z,english_134.wav,0,0,629,,,,,0,0,-24.26834644,1.03045274
ZJY,9,0,2024-06-13T06:31:34.035Z,english_134.wav,0,0,629,,,,,1,0.1,0.87898814,1.86888255
ZJY,9,0,2024-06-13T06:31:34.035Z,english_134.wav,0,0,629,,,,,2,0.2,29.43994061,1.70405425
ZJY,9,0,2024-06-13T06:31:34.035Z,english_134.wav,0,0,629,,,,,3,0.3,21.82945731,1.34767033
ZJY,9,0,2024-06-13T06:31:34.035Z,english_134.wav,0,0,629,,,,,4,0.4,49.09743773,0.8443881
ZJY,9,0,2024-06-13T06:31:34.035Z,english_134.wav,0,0,629,,,,,5,0.5,-15.97258886,1.38979788
ZJY,9,0,2024-06-13T06:31:34.035Z,english_134.wav,0,0,629,,,,,6,0.6,13.73233931,1.1830035
ZJY,9,0,2024-06-13T06:31:34.035Z,english_134.wav,0,0,629,,,,,7,0.7,-18.88709324,1.43950556
ZJY,9,0,2024-06-13T06:31:34.035Z,english_134.wav,0,0,629,,,,,8,0.8,13.58093601,1.18211722
ZJY,9,0,2024-06-13T06:31:34.035Z,english_134.wav,0,0,629,,,,,9,0.9,74.79947006,0.44903969
ZJY,9,0,2024-06-13T06:31:34.035Z,english_134.wav,0,0,629,,,,,10,1,-49.15519577,0.93357228
ZJY,9,0,2024-06-13T06:31:34.035Z,english_134.wav,0,0,629,,,,,11,1.09391667,18.17659257,1.8466086
ZJY,10,0,2024-06-13T06:31:34.035Z,english_163.wav,0,0,284,,,,,0,0,-75.52696483,0.21633828
ZJY,10,0,2024-06-13T06:31:34.035Z,english_163.wav,0,0,284,,,,,1,0.1,-50.94410786,0.31603177
ZJY,10,0,2024-06-13T06:31:34.035Z,english_163.wav,0,0,284,,,,,2,0.2,-38.29944429,1.04333718
ZJY,10,0,2024-06-13T06:31:34.035Z,english_163.wav,0,0,284,,,,,3,0.3,-32.57127411,1.57763682
ZJY,10,0,2024-06-13T06:31:34.035Z,english_163.wav,0,0,284,,,,,4,0.4,-30.55941116,0.14485533
ZJY,10,0,2024-06-13T06:31:34.035Z,english_163.wav,0,0,284,,,,,5,0.5,-14.52407307,1.53043555
ZJY,10,0,2024-06-13T06:31:34.035Z,english_163.wav,0,0,284,,,,,6,0.6,28.48601544,0.0734581
ZJY,10,0,2024-06-13T06:31:34.035Z,english_163.wav,0,0,284,,,,,7,0.7,-14.30599007,1.19104414
ZJY,10,0,2024-06-13T06:31:34.035Z,english_163.wav,0,0,284,,,,,8,0.8,38.98323909,0.4056819
ZJY,10,0,2024-06-13T06:31:34.035Z,english_163.wav,0,0,284,,,,,9,0.9,-70.97720427,1.30823112
ZJY,10,0,2024-06-13T06:31:34.035Z,english_163.wav,0,0,284,,,,,10,1,-31.77991107,1.63835528
ZJY,10,0,2024-06-13T06:31:34.035Z,english_163.wav,0,0,284,,,,,11,1.09391667,-57.22342155,1.03131117
ZJY,11,0,2024-06-13T06:31:34.035Z,english_158.wav,0,0,591,,,,,0,0,41.17268037,0.12012262
ZJY,11,0,2024-06-13T06:31:34.035Z,english_158.wav,0,0,591,,,,,1,0.1,39.43055099,1.02753784
ZJY,11,0,2024-06-13T06:31:34.035Z,english_158.wav,0,0,591,,,,,2,0.2,18.17307199,1.36643436
ZJY,11,0,2024-06-13T06:31:34.035Z,english_158.wav,0,0,591,,,,,3,0.3,2.1288608,1.78617089
ZJY,11,0,2024-06-13T06:31:34.035Z,english_158.wav,0,0,591,,,,,4,0.4,14.16848378,0.39713516
ZJY,11,0,2024-06-13T06:31:34.035Z,english_158.wav,0,0,591,,,,,5,0.5,-31.43837624,1.5313636
ZJY,11,0,2024-06-13T06:31:34.035Z,english_158.wav,0,0,591,,,,,6,0.6,46.37345031,1.20655285
ZJY,11,0,2024-06-13T06:31:34.035Z,english_158.wav,0,0,591,,,,,7,0.7,58.75582509,0.16880901
ZJY,11,0,2024-06-13T06:31:34.035Z,english_158.wav,0,0,591,,,,,8,0.8,23.78862253,0.30409425
ZJY,11,0,2024-06-13T06:31:34.035Z,english_158.wav,0,0,591,,,,,9,0.9,-4.2911947,1.28329421
ZJY,11,0,2024-06-13T06:31:34.035Z,english_158.wav,0,0,591,,,,,10,1,-43.40891041,0.17704904
ZJY,11,0,2024-06-13T06:31:34.035Z,english_158.wav,0,0,591,,,,,11,1.09391667,16.25522825,0.66899263
ZJY,12,0,2024-06-13T06:31:34.035Z,english_891.wav,0,0,475,,,,,0,0,-51.94899703,0.42846165
ZJY,12,0,2024-06-13T06:31:34.035Z,english_891.wav,0,0,475,,,,,1,0.1,-40.85786471,0.93876637
ZJY,12,0,2024-06-13T06:31:34.035Z,english_891.wav,0,0,475,,,,,2,0.2,-13.56091334,1.78643125
ZJY,12,0,2024-06-13T06:31:34.035Z,english_891.wav,0,0,475,,,,,3,0.3,13.09065144,1.47761109
ZJY,12,0,2024-06-13T06:31:34.035Z,english_891.wav,0,0,475,,,,,4,0.4,-0.86453478,1.66653353
ZJY,12,0,2024-06-13T06:31:34.035Z,english_891.wav,0,0,475,,,,,5,0.5,31.90721085,1.63856449
ZJY,12,0,2024-06-13T06:31:34.035Z,english_891.wav,0,0,475,,,,,6,0.6,-27.60460343,1.17540335
ZJY,12,0,2024-06-13T06:31:34.035Z,english_891.wav,0,0,475,,,,,7,0.7,85.79516825,1.60236138
ZJY,12,0,2024-06-13T06:31:34.035Z,english_891.wav,0,0,475,,,,,8,0.8,83.05957198,0.96737739
ZJY,12,0,2024-06-13T06:31:34.035Z,english_891.wav,0,0,475,,,,,9,0.9,-61.83196055,1.42758327
ZJY,12,0,2024-06-13T06:31:34.035Z,english_891.wav,0,0,475,,,,,10,1,-69.67221927,0.19704513
ZJY,12,0,2024-06-13T06:31:34.035Z,english_891.wav,0,0,475,,,,,11,1.09391667,4.62166255,0.91556812
ZJY,13,0,2024-06-13T06:31:34.035Z,english_879.wav,0,0,741,,,,,0,0,-41.71376067,1.10654485
ZJY,13,0,2024-06-13T06:31:34.035Z,english_879.wav,0,0,741,,,,,1,0.1,5.81272632,1.32832236
ZJY,13,0,2024-06-13T06:31:34.035Z,english_879.wav,0,0,741,,,,,2,0.2,-22.32054487,1.5555922
ZJY,13,0,2024-06-13T06:31:34.035Z,english_879.wav,0,0,741,,,,,3,0.3,93.64091385,0.11041486
ZJY,13,0,2024-06-13T06:31:34.035Z,english_879.wav,0,0,741,,,,,4,0.4,-40.92402167,1.31993608
ZJY,13,0,2024-06-13T06:31:34.035Z,english_879.wav,0,0,741,,,,,5,0.5,13.45427288,1.7629303
ZJY,13,0,2024-06-13T06:31:34.035Z,english_879.wav,0,0,741,,,,,6,0.6,-86.15210755,1.83129602
ZJY,13,0,2024-06-13T06:31:34.035Z,english_879.wav,0,0,741,,,,,7,0.7,-20.9667874,1.42589619
ZJY,13,0,2024-06-13T06:31:34.035Z,english_879.wav,0,0,741,,,,,8,0.8,-18.58842444,0.74351112
ZJY,13,0,2024-06-13T06:31:34.035Z,english_879.wav,0,0,741,,,,,9,0.9,-72.1364449,0.32763887
ZJY,13,0,2024-06-13T06:31:34.035Z,english_879.wav,0,0,741,,,,,10,1,-83.06025628,1.7749803
ZJY,13,0,2024-06-13T06:31:34.035Z,english_879.wav,0,0,741,,,,,11,1.09391667,76.41221389,1.6164567
ZJY,14,0,2024-06-13T06:31:34.035Z,english_359.wav,0,0,542,,,,,0,0,16.62356483,0.11907426
ZJY,14,0,2024-06-13T06:31:34.035Z,english_359.wav,0,0,542,,,,,1,0.1,-64.66657599,1.11022803
ZJY,14,0,2024-06-13T06:31:34.035Z,english_359.wav,0,0,542,,,,,2,0.2,20.81574107,1.93552837
ZJY,14,0,2024-06-13T06:31:34.035Z,english_359.wav,0,0,542,,,,,3,0.3,62.21324861,0.18628365
ZJY,14,0,2024-06-13T06:31:34.035Z,english_359.wav,0,0,542,,,,,4,0.4,-96.92379856,1.68045213
ZJY,14,0,2024-06-13T06:31:34.035Z,english_359.wav,0,0,542,,,,,5,0.5,-63.09314604,0.56124054
ZJY,14,0,2024-06-13T06:31:34.035Z,english_359.wav,0,0,542,,,,,6,0.6,85.3804948,1.40840471
ZJY,14,0,2024-06-13T06:31:34.035Z,english_359.wav,0,0,542,,,,,7,0.7,-5.84073458,0.76045624
ZJY,14,0,2024-06-13T06:31:34.035Z,english_359.wav,0,0,542,,,,,8,0.8,1.07766227,0.79738911
ZJY,14,0,2024-06-13T06:31:34.035Z,english_359.wav,0,0,542,,,,,9,0.9,-3.48391837,0.78873787
ZJY,14,0,2024-06-13T06:31:34.035Z,english_359.wav,0,0,542,,,,,10,1,5.39755614,0.96854707
ZJY,14,0,2024-06-13T06:31:34.035Z,english_359.wav,0,0,542,,,,,11,1.09391667,59.72301587,0.15927381
ZJY,15,0,2024-06-13T06:31:34.035Z,english_425.wav,0,0,1776,,,,,0,0,85.86099955,1.60253472
ZJY,15,0,2024-06-13T06:31:34.035Z,english_425.wav,0,0,1776,,,,,1,0.1,-74.24278906,1.17756514
ZJY,15,0,2024-06-13T06:31:34.035Z,english_425.wav,0,0,1776,,,,,2,0.2,66.63239561,1.35741875
ZJY,15,0,2024-06-13T06:31:34.035Z,english_425.wav,0,0,1776,,,,,3,0.3,48.1989772,1.41012003
ZJY,15,0,2024-06-13T06:31:34.035Z,english_425.wav,0,0,1776,,,,,4,0.4,-24.59174715,0.10488559
ZJY,15,0,2024-06-13T06:31:34.035Z,english_425.wav,0,0,1776,,,,,5,0.5,-13.08814226,1.84558303
ZJY,15,0,2024-06-13T06:31:34.035Z,english_425.wav,0,0,1776,,,,,6,0.6,3.3813436,1.65169658
ZJY,15,0,2024-06-13T06:31:34.035Z,english_425.wav,0,0,1776,,,,,7,0.7,-77.57885428,0.99070069
ZJY,15,0,2024-06-13T06:31:34.035Z,english_425.wav,0,0,1776,,,,,8,0.8,64.2992526,1.03905924
ZJY,15,0,2024-06-13T06:31:34.035Z,english_425.wav,0,0,1776,,,,,9,0.9,-69.82436983,1.4199326
ZJY,15,0,2024-06-13T06:31:34.035Z,english_425.wav,0,0,1776,,,,,10,1,-17.74567454,1.83949921
ZJY,15,0,2024-06-13T06:31:34.035Z,english_425.wav,0,0,1776,,,,,11,1.09391667,34.86644748,1.32096962
ZJY,16,0,2024-06-13T06:31:34.035Z,english_568.wav,0,0,532,,,,,0,0,-70.38029014,0.48501983
ZJY,16,0,2024-06-13T06:31:34.035Z,english_568.wav,0,0,532,,,,,1,0.1,-41.38064903,0.42639108
ZJY,16,0,2024-06-13T06:31:34.035Z,english_568.wav,0,0,532,,,,,2,0.2,-76.08214461,0.24911927
ZJY,16,0,2024-06-13T06:31:34.035Z,english_568.wav,0,0,532,,,,,3,0.3,-34.54351618,1.98842758
ZJY,16,0,2024-06-13T06:31:34.035Z,english_568.wav,0,0,532,,,,,4,0.4,-96.70272001,0.68639175
ZJY,16,0,2024-06-13T06:31:34.035Z,english_568.wav,0,0,532,,,,,5,0.5,8.09889664,1.0927512
ZJY,16,0,2024-06-13T06:31:34.035Z,english_568.wav,0,0,532,,,,,6,0.6,-60.6705204,1.75749365
ZJY,16,0,2024-06-13T06:31:34.035Z,english_568.wav,0,0,532,,,,,7,0.7,-98.59663747,0.99189126
ZJY,16,0,2024-06-13T06:31:34.035Z,english_568.wav,0,0,532,,,,,8,0.8,12.62015403,0.650614
ZJY,16,0,2024-06-13T06:31:34.035Z,english_568.wav,0,0,532,,,,,9,0.9,12.77342586,0.59921044
ZJY,16,0,2024-06-13T06:31:34.035Z,english_568.wav,0,0,532,,,,,10,1,27.03767254,1.9050284
ZJY,16,0,2024-06-13T06:31:34.035Z,english_568.wav,0,0,532,,,,,11,1.09391667,13.09180394,1.75175141
ZJY,17,0,2024-06-13T06:31:34.035Z,english_287.wav,0,0,650,,,,,0,0,10.36471628,0.01185683
ZJY,17,0,2024-06-13T06:31:34.035Z,english_287.wav,0,0,650,,,,,1,0.1,-58.57729137,1.45020857
ZJY,17,0,2024-06-13T06:31:34.035Z,english_287.wav,0,0,650,,,,,2,0.2,-27.93575021,0.19382892
ZJY,17,0,2024-06-13T06:31:34.035Z,english_287.wav,0,0,650,,,,,3,0.3,33.78979174,0.71448768
ZJY,17,0,2024-06-13T06:31:34.035Z,english_287.wav,0,0,650,,,,,4,0.4,-33.15491758,0.01801383
ZJY,17,0,2024-06-13T06:31:34.035Z,english_287.wav,0,0,650,,,,,5,0.5,-5.38281254,0.74544811
ZJY,17,0,2024-06-13T06:31:34.035Z,english_287.wav,0,0,650,,,,,6,0.6,-58.09969762,0.45979971
ZJY,17,0,2024-06-13T06:31:34.035Z,english_287.wav,0,0,650,,,,,7,0.7,93.46336641,0.55925931
ZJY,17,0,2024-06-13T06:31:34.035Z,english_287.wav,0,0,650,,,,,8,0.8,27.63578773,1.84211482
ZJY,17,0,2024-06-13T06:31:34.035Z,english_287.wav,0,0,650,,,,,9,0.9,44.41136417,0.07395401
ZJY,17,0,2024-06-13T06:31:34.035Z,english_287.wav,0,0,650,,,,,10,1,-2.08272126,0.05656785
ZJY,17,0,2024-06-13T06:31:34.035Z,english_287.wav,0,0,650,,,,,11,1.09391667,72.82755357,1.60760225
ZJY,18,0,2024-06-13T06:31:34.035Z,english_38.wav,0,0,403,,,,,0,0,84.84297862,0.12127835
ZJY,18,0,2024-06-13T06:31:34.035Z,english_38.wav,0,0,403,,,,,1,0.1,-41.13766339,0.39553601
ZJY,18,0,2024-06-13T06:31:34.035Z,english_38.wav,0,0,403,,,,,2,0.2,31.0243005,1.29400733
ZJY,18,0,2024-06-13T06:31:34.035Z,english_38.wav,0,0,403,,,,,3,0.3,51.71643077,0.38578685
ZJY,18,0,2024-06-13T06:31:34.035Z,english_38.wav,0,0,403,,,,,4,0.4,-15.52187673,0.67216324
ZJY,18,0,2024-06-13T06:31:34.035Z,english_38.wav,0,0,403,,,,,5,0.5,37.47478577,0.61922356
ZJY,18,0,2024-06-13T06:31:34.035Z,english_38.wav,0,0,403,,,,,6,0.6,27.01527087,0.0538602
ZJY,18,0,2024-06-13T06:31:34.035Z,english_38.wav,0,0,403,,,,,7,0.7,44.60136097,0.56901487
ZJY,18,0,2024-06-13T06:31:34.035Z,english_38.wav,0,0,403,,,,,8,0.8,-52.37417606,1.28646438
ZJY,18,0,2024-06-13T06:31:34.035Z,english_38.wav,0,0,403,,,,,9,0.9,-48.58777174,0.80149466
ZJY,18,0,2024-06-13T06:31:34.035Z,english_38.wav,0,0,403,,,,,10,1,7.20305444,1.28981754
ZJY,18,0,2024-06-13T06:31:34.035Z,english_38.wav,0,0,403,,,,,11,1.09391667,-74.66052111,0.46742112
ZJY,19,0,2024-06-13T06:31:34.035Z,english_271.wav,0,0,637,,,,,0,0,83.54860051,1.23852779
ZJY,19,0,2024-06-13T06:31:34.035Z,english_271.wav,0,0,637,,,,,1,0.1,-11.78692869,0.5617939
ZJY,19,0,2024-06-13T06:31:34.035Z,english_271.wav,0,0,637,,,,,2,0.2,-93.59093408,1.03672554
ZJY,19,0,2024-06-13T06:31:34.035Z,english_271.wav,0,0,637,,,,,3,0.3,53.60258666,1.7849895
ZJY,19,0,2024-06-13T06:31:34.035Z,english_271.wav,0,0,637,,,,,4,0.4,-66.08364726,0.3533195
ZJY,19,0,2024-06-13T06:31:34.035Z,english_271.wav,0,0,637,,,,,5,0.5,94.15354622,1.03785323
ZJY,19,0,2024-06-13T06:31:34.035Z,english_271.wav,0,0,637,,,,,6,0.6,24.82086802,0.33969939
ZJY,19,0,2024-06-13T06:31:34.035Z,english_271.wav,0,0,637,,,,,7,0.7,-91.87331613,1.93991394
ZJY,19,0,2024-06-13T06:31:34.035Z,english_271.wav,0,0,637,,,,,8,0.8,94.31312055,1.07242572
ZJY,19,0,2024-06-13T06:31:34.035Z,english_271.wav,0,0,637,,,,,9,0.9,-76.94840956,0.17124333
ZJY,19,0,2024-06-13T06:31:34.035Z,english_271.wav,0,0,637,,,,,10,1,10.84106531,1.85218062
ZJY,19,0,2024-06-13T06:31:34.035Z,english_271.wav,0,0,637,,,,,11,1.09391667,74.33271623,0.80828121
ZJY,20,0,2024-06-13T06:31:34.035Z,english_775.wav,0,0,263,,,,,0,0,-31.43099856,1.38428974
ZJY,20,0,2024-06-13T06:31:34.035Z,english_775.wav,0,0,263,,,,,1,0.1,8.65477654,1.381989
ZJY,20,0,2024-06-13T06:31:34.035Z,english_775.wav,0,0,263,,,,,2,0.2,-52.28282098,0.85842321
ZJY,20,0,2024-06-13T06:31:34.035Z,english_775.wav,0,0,263,,,,,3,0.3,91.1008366,0.86053133
ZJY,20,0,2024-06-13T06:31:34.035Z,english_775.wav,0,0,263,,,,,4,0.4,-9.23078544,0.18720345
ZJY,20,0,2024-06-13T06:31:34.035Z,english_775.wav,0,0,263,,,,,5,0.5,-48.12825779,1.02834673
ZJY,20,0,2024-06-13T06:31:34.035Z,english_775.wav,0,0,263,,,,,6,0.6,31.75901499,0.26507894
ZJY,20,0,2024-06-13T06:31:34.035Z,english_775.wav,0,0,263,,,,,7,0.7,26.51097314,0.89767529
ZJY,20,0,2024-06-13T06:31:34.035Z,english_775.wav,0,0,263,,,,,8,0.8,-0.94893242,1.04721154
ZJY,20,0,2024-06-13T06:31:34.035Z,english_775.wav,0,0,263,,,,,9,0.9,-80.42410318,1.94213174
ZJY,20,0,2024-06-13T06:31:34.035Z,english_775.wav,0,0,263,,,,,10,1,-37.42269733,0.45384942
ZJY,20,0,2024-06-13T06:31:34.035Z,english_775.wav,0,0,263,,,,,11,1.09391667,-30.31023423,1.30082565
ZJY,21,0,2024-06-13T06:31:34.035Z,english_363.wav,0,1,1316,,,,,0,0,-5.66534259,1.60513634
ZJY,21,0,2024-06-13T06:31:34.035Z,english_363.wav,0,1,1316,,,,,1,0.1,96.57780227,0.93762693
ZJY,21,0,2024-06-13T06:31:34.035Z,english_363.wav,0,1,1316,,,,,2,0.2,8.75498082,1.53396088
ZJY,21,0,2024-06-13T06:31:34.035Z,english_363.wav,0,1,1316,,,,,3,0.3,-62.00877197,1.61687943
ZJY,21,0,2024-06-13T06:31:34.035Z,english_363.wav,0,1,1316,,,,,4,0.4,55.64754403,0.81027283
ZJY,21,0,2024-06-13T06:31:34.035Z,english_363.wav,0,1,1316,,,,,5,0.5,60.40753337,0.96421289
ZJY,21,0,2024-06-13T06:31:34.035Z,english_363.wav,0,1,1316,,,,,6,0.6,28.13214645,0.44675755
ZJY,21,0,2024-06-13T06:31:34.035Z,english_363.wav,0,1,1316,,,,,7,0.7,80.12225937,1.7907484
ZJY,21,0,2024-06-13T06:31:34.035Z,english_363.wav,0,1,1316,,,,,8,0.8,96.25782192,1.63025461
ZJY,21,0,2024-06-13T06:31:34.035Z,english_363.wav,0,1,1316,,,,,9,0.9,-69.76671387,1.21594348
ZJY,21,0,2024-06-13T06:31:34.035Z,english_363.wav,0,1,1316,,,,,10,1,60.27804949,1.84929312
ZJY,21,0,2024-06-13T06:31:34.035Z,english_363.wav,0,1,1316,,,,,11,1.09391667,31.6619376,0.74880834
ZJY,22,0,2024-06-13T06:31:34.035Z,english_374.wav,0,0,1353,,,,,0,0,54.43926361,0.54407087
ZJY,22,0,2024-06-13T06:31:34.035Z,english_374.wav,0,0,1353,,,,,1,0.1,5.04553463,1.18746228
ZJY,22,0,2024-06-13T06:31:34.035Z,english_374.wav,0,0,1353,,,,,2,0.2,-29.92324173,0.24457514
ZJY,22,0,2024-06-13T06:31:34.035Z,english_374.wav,0,0,1353,,,,,3,0.3,9.31980191,1.5215713
ZJY,22,0,2024-06-13T06:31:34.035Z,english_374.wav,0,0,1353,,,,,4,0.4,57.19426259,0.23876892
ZJY,22,0,2024-06-13T06:31:34.035Z,english_374.wav,0,0,1353,,,,,5,0.5,-3.3094666,1.20093953
ZJY,22,0,2024-06-13T06:31:34.035Z,english_374.wav,0,0,1353,,,,,6,0.6,-34.99988775,0.71152841
ZJY,22,0,2024-06-13T06:31:34.035Z,english_374.wav,0,0,1353,,,,,7,0.7,-5.52128289,0.54974152
ZJY,22,0,2024-06-13T06:31:34.035Z,english_374.wav,0,0,1353,,,,,8,0.8,-2.72953426,1.54853357
ZJY,22,0,2024-06-13T06:31:34.035Z,english_374.wav,0,0,1353,,,,,9,0.9,44.40653175,1.01082543
ZJY,22,0,2024-06-13T06:31:34.035Z,english_374.wav,0,0,1353,,,,,10,1,-66.39952008,1.62323057
ZJY,22,0,2024-06-13T06:31:34.035Z,english_374.wav,0,0,1353,,,,,11,1.09391667,-68.48294466,0.91500447
ZJY,23,0,2024-06-13T06:31:34.035Z,english_269.wav,0,1,601,,,,,0,0,-83.93501444,0.85151873
ZJY,23,0,2024-06-13T06:31:34.035Z,english_269.wav,0,1,601,,,,,1,0.1,88.09879619,0.93284173
ZJY,23,0,2024-06-13T06:31:34.035Z,english_269.wav,0,1,601,,,,,2,0.2,-88.94573115,0.56585091
ZJY,23,0,2024-06-13T06:31:34.035Z,english_269.wav,0,1,601,,,,,3,0.3,-19.78587184,1.66708848
ZJY,23,0,2024-06-13T06:31:34.035Z,english_269.wav,0,1,601,,,,,4,0.4,69.53650184,0.92160414
ZJY,23,0,2024-06-13T06:31:34.035Z,english_269.wav,0,1,601,,,,,5,0.5,-12.80260332,0.96478354
ZJY,23,0,2024-06-13T06:31:34.035Z,english_269.wav,0,1,601,,,,,6,0.6,37.86483682,0.12392918
ZJY,23,0,2024-06-13T06:31:34.035Z,english_269.wav,0,1,601,,,,,7,0.7,20.748183,0.94784748
ZJY,23,0,2024-06-13T06:31:34.035Z,english_269.wav,0,1,601,,,,,8,0.8,68.31338511,0.83939678
ZJY,23,0,2024-06-13T06:31:34.035Z,english_269.wav,0,1,601,,,,,9,0.9,-95.26136032,1.67634699
ZJY,23,0,2024-06-13T06:31:34.035Z,english_269.wav,0,1,601,,,,,10,1,60.98745535,1.66934281
ZJY,23,0,2024-06-13T06:31:34.035Z,english_269.wav,0,1,601,,,,,11,1.09391667,-4.34526385,1.1076262
ZJY,24,0,2024-06-13T06:31:34.035Z,english_25.wav,0,0,688,,,,,0,0,-3.04072315,0.82619881
ZJY,24,0,2024-06-13T06:31:34.035Z,english_25.wav,0,0,688,,,,,1,0.1,-7.71178933,0.19533878
ZJY,24,0,2024-06-13T06:31:34.035Z,english_25.wav,0,0,688,,,,,2,0.2,-42.18636208,1.08277914
ZJY,24,0,2024-06-13T06:31:34.035Z,english_25.wav,0,0,688,,,,,3,0.3,-34.45077435,1.14412535
ZJY,24,0,2024-06-13T06:31:34.035Z,english_25.wav,0,0,688,,,,,4,0.4,-84.66227969,1.20529311
ZJY,24,0,2024-06-13T06:31:34.035Z,english_25.wav,0,0,688,,,,,5,0.5,-92.64439035,1.74650044
ZJY,24,0,2024-06-13T06:31:34.035Z,english_25.wav,0,0,688,,,,,6,0.6,-61.14666871,0.43899038
ZJY,24,0,2024-06-13T06:31:34.035Z,english_25.wav,0,0,688,,,,,7,0.7,-3.59823801,0.82830315
ZJY,24,0,2024-06-13T06:31:34.035Z,english_25.wav,0,0,688,,,,,8,0.8,-55.86599887,0.29447237
ZJY,24,0,2024-06-13T06:31:34.035Z,english_25.wav,0,0,688,,,,,9,0.9,70.71897097,0.99577412
ZJY,24,0,2024-06-13T06:31:34.035Z,english_25.wav,0,0,688,,,,,10,1,-41.59717756,1.79017757
ZJY,24,0,2024-06-13T06:31:34.035Z,english_25.wav,0,0,688,,,,,11,1.09391667,45.33564492,1.70871786
ZJY,25,0,2024-06-13T06:31:34.035Z,english_521.wav,0,1,580,,,,,0,0,5.37787975,1.11621025
ZJY,25,0,2024-06-13T06:31:34.035Z,english_521.wav,0,1,580,,,,,1,0.1,9.32249591,0.69917502
ZJY,25,0,2024-06-13T06:31:34.035Z,english_521.wav,0,1,580,,,,,2,0.2,4.19745407,0.1199413
ZJY,25,0,2024-06-13T06:31:34.035Z,english_521.wav,0,1,580,,,,,3,0.3,-75.18613478,1.762579
ZJY,25,0,2024-06-13T06:31:34.035Z,english_521.wav,0,1,580,,,,,4,0.4,87.02780947,1.43452798
ZJY,25,0,2024-06-13T06:31:34.035Z,english_521.wav,0,1,580,,,,,5,0.5,-73.26225675,0.23094002
ZJY,25,0,2024-06-13T06:31:34.035Z,english_521.wav,0,1,580,,,,,6,0.6,66.15406762,1.51181612
ZJY,25,0,2024-06-13T06:31:34.035Z,english_521.wav,0,1,580,,,,,7,0.7,-9.80579818,1.4155143
ZJY,25,0,2024-06-13T06:31:34.035Z,english_521.wav,0,1,580,,,,,8,0.8,17.20812603,1.82718341
ZJY,25,0,2024-06-13T06:31:34.035Z,english_521.wav,0,1,580,,,,,9,0.9,21.88979452,1.93759588
ZJY,25,0,2024-06-13T06:31:34.035Z,english_521.wav,0,1,580,,,,,10,1,-69.39969828,1.70606784
ZJY,25,0,2024-06-13T06:31:34.035Z,english_521.wav,0,1,580,,,,,11,1.09391667,-64.03153918,0.09885652
ZJY,26,0,2024-06-13T06:31:34.035Z,english_146.wav,0,0,527,,,,,0,0,56.30698685,0.40218926
ZJY,26,0,2024-06-13T06:31:34.035Z,english_146.wav,0,0,527,,,,,1,0.1,33.76808102,1.30498568
ZJY,26,0,2024-06-13T06:31:34.035Z,english_146.wav,0,0,527,,,,,2,0.2,7.3416935,1.88518083
ZJY,26,0,2024-06-13T06:31:34.035Z,english_146.wav,0,0,527,,,,,3,0.3,54.00115317,0.73939723
ZJY,26,0,2024-06-13T06:31:34.035Z,english_146.wav,0,0,527,,,,,4,0.4,60.50079064,1.18416515
ZJY,26,0,2024-06-13T06:31:34.035Z,english_146.wav,0,0,527,,,,,5,0.5,93.58064811,0.74397262
ZJY,26,0,2024-06-13T06:31:34.035Z,english_146.wav,0,0,527,,,,,6,0.6,16.38414301,1.77833366
ZJY,26,0,2024-06-13T06:31:34.035Z,english_146.wav,0,0,527,,,,,7,0.7,53.45076847,0.98273851
ZJY,26,0,2024-06-13T06:31:34.035Z,english_146.wav,0,0,527,,,,,8,0.8,57.56482396,1.41119053
ZJY,26,0,2024-06-13T06:31:34.035Z,english_146.wav,0,0,527,,,,,9,0.9,-28.26782972,0.90766435
ZJY,26,0,2024-06-13T06:31:34.035Z,english_146.wav,0,0,527,,,,,10,1,79.66793606,0.33691203
ZJY,26,0,2024-06-13T06:31:34.035Z,english_146.wav,0,0,527,,,,,11,1.09391667,23.81863578,1.86488134
ZJY,27,0,2024-06-13T06:31:34.035Z,english_357.wav,0,0,3041,,,,,0,0,-87.96365185,1.52852124
ZJY,27,0,2024-06-13T06:31:34.035Z,english_357.wav,0,0,3041,,,,,1,0.1,-8.5190019,1.93288072
ZJY,27,0,2024-06-13T06:31:34.035Z,english_357.wav,0,0,3041,,,,,2,0.2,34.94660595,1.80201728
ZJY,27,0,2024-06-13T06:31:34.035Z,english_357.wav,0,0,3041,,,,,3,0.3,74.01534503,0.94192251
ZJY,27,0,2024-06-13T06:31:34.035Z,english_357.wav,0,0,3041,,,,,4,0.4,13.59562063,1.02469598
ZJY,27,0,2024-06-13T06:31:34.035Z,english_357.wav,0,0,3041,,,,,5,0.5,-84.64423503,1.61646509
ZJY,27,0,2024-06-13T06:31:34.035Z,english_357.wav,0,0,3041,,,,,6,0.6,-29.1291793,0.27950667
ZJY,27,0,2024-06-13T06:31:34.035Z,english_357.wav,0,0,3041,,,,,7,0.7,-52.42503967,1.30320323
ZJY,27,0,2024-06-13T06:31:34.035Z,english_357.wav,0,0,3041,,,,,8,0.8,21.24796122,1.07824702
ZJY,27,0,2024-06-13T06:31:34.035Z,english_357.wav,0,0,3041,,,,,9,0.9,32.72205185,0.68433039
ZJY,27,0,2024-06-13T06:31:34.035Z,english_357.wav,0,0,3041,,,,,10,1,-96.5222269,1.27621022
ZJY,27,0,2024-06-13T06:31:34.035Z,english_357.wav,0,0,3041,,,,,11,1.09391667,30.40810686,1.23591368
ZJY,28,0,2024-06-13T06:31:34.035Z,english_584.wav,0,0,447,,,,,0,0,50.7358721,1.24615014
ZJY,28,0,2024-06-13T06:31:34.035Z,english_584.wav,0,0,447,,,,,1,0.1,-37.41238679,1.8454839
ZJY,28,0,2024-06-13T06:31:34.035Z,english_584.wav,0,0,447,,,,,2,0.2,-21.91541438,1.76277899
ZJY,28,0,2024-06-13T06:31:34.035Z,english_584.wav,0,0,447,,,,,3,0.3,67.49251718,0.88473448
ZJY,28,0,2024-06-13T06:31:34.035Z,english_584.wav,0,0,447,,,,,4,0.4,36.0609863,0.58271182
ZJY,28,0,2024-06-13T06:31:34.035Z,english_584.wav,0,0,447,,,,,5,0.5,29.68399092,1.46602634
ZJY,28,0,2024-06-13T06:31:34.035Z,english_584.wav,0,0,447,,,,,6,0.6,69.24169566,1.79468998
ZJY,28,0,2024-06-13T06:31:34.035Z,english_584.wav,0,0,447,,,,,7,0.7,2.10305954,1.56143928
ZJY,28,0,2024-06-13T06:31:34.035Z,english_584.wav,0,0,447,,,,,8,0.8,23.93501401,0.46568097
ZJY,28,0,2024-06-13T06:31:34.035Z,english_584.wav,0,0,447,,,,,9,0.9,-17.64282744,0.5808441
ZJY,28,0,2024-06-13T06:31:34.035Z,english_584.wav,0,0,447,,,,,10,1,80.89116082,1.80196263
ZJY,28,0,2024-06-13T06:31:34.035Z,english_584.wav,0,0,447,,,,,11,1.09391667,-10.99932322,1.58954467
ZJY,29,0,2024-06-13T06:31:34.035Z,english_924.wav,0,1,742,,,,,0,0,-34.16359775,0.79366522
ZJY,29,0,2024-06-13T06:31:34.035Z,english_924.wav,0,1,742,,,,,1,0.1,95.89868764,0.73795008
ZJY,29,0,2024-06-13T06:31:34.035Z,english_924.wav,0,1,742,,,,,2,0.2,-7.67474925,0.39139015
ZJY,29,0,2024-06-13T06:31:34.035Z,english_924.wav,0,1,742,,,,,3,0.3,-21.77911834,0.47707552
ZJY,29,0,2024-06-13T06:31:34.035Z,english_924.wav,0,1,742,,,,,4,0.4,31.17946122,0.09637783
ZJY,29,0,2024-06-13T06:31:34.035Z,english_924.wav,0,1,742,,,,,5,0.5,0.48616436,1.58696559
ZJY,29,0,2024-06-13T06:31:34.035Z,english_924.wav,0,1,742,,,,,6,0.6,56.04156449,1.87427133
ZJY,29,0,2024-06-13T06:31:34.035Z,english_924.wav,0,1,742,,,,,7,0.7,79.12331334,0.57578157
ZJY,29,0,2024-06-13T06:31:34.035Z,english_924.wav,0,1,742,,,,,8,0.8,58.34446187,1.11639403
ZJY,29,0,2024-06-13T06:31:34.035Z,english_924.wav,0,1,742,,,,,9,0.9,51.02751352,1.98577552
ZJY,29,0,2024-06-13T06:31:34.035Z,english_924.wav,0,1,742,,,,,10,1,59.10490512,0.22580189
ZJY,29,0,2024-06-13T06:31:34.035Z,english_924.wav,0,1,742,,,,,11,1.09391667,60.06487251,1.66820152
ZJY,30,0,2024-06-13T06:31:34.035Z,english_351.wav,0,1,4666,,,,,0,0,-19.65986015,1.42460204
ZJY,30,0,2024-06-13T06:31:34.035Z,english_351.wav,0,1,4666,,,,,1,0.1,73.58710044,0.00643347
ZJY,30,0,2024-06-13T06:31:34.035Z,english_351.wav,0,1,4666,,,,,2,0.2,74.12275499,0.97495265
ZJY,30,0,2024-06-13T06:31:34.035Z,english_351.wav,0,1,4666,,,,,3,0.3,-24.45683786,0.52137616
ZJY,30,0,2024-06-13T06:31:34.035Z,english_351.wav,0,1,4666,,,,,4,0.4,21.01511918,1.11946487
ZJY,30,0,2024-06-13T06:31:34.035Z,english_351.wav,0,1,4666,,,,,5,0.5,55.7456538,0.33788576
ZJY,30,0,2024-06-13T06:31:34.035Z,english_351.wav,0,1,4666,,,,,6,0.6,54.50583955,1.25361851
ZJY,30,0,2024-06-13T06:31:34.035Z,english_351.wav,0,1,4666,,,,,7,0.7,74.68230433,1.43767459
ZJY,30,0,2024-06-13T06:31:34.035Z,english_351.wav,0,1,4666,,,,,8,0.8,-93.39577551,0.08040705
ZJY,30,0,2024-06-13T06:31:34.035Z,english_351.wav,0,1,4666,,,,,9,0.9,89.8823857,0.01025875
ZJY,30,0,2024-06-13T06:31:34.035Z,english_351.wav,0,1,4666,,,,,10,1,82.37960735,0.65117528
ZJY,30,0,2024-06-13T06:31:34.035Z,english_351.wav,0,1,4666,,,,,11,1.09391667,-9.15420485,0.78690639
ZJY,31,0,2024-06-13T06:31:34.035Z,english_948.wav,0,0,537,,,,,0,0,70.08788288,1.73905021
ZJY,31,0,2024-06-13T06:31:34.035Z,english_948.wav,0,0,537,,,,,1,0.1,9.51278832,0.0665574
ZJY,31,0,2024-06-13T06:31:34.035Z,english_948.wav,0,0,537,,,,,2,0.2,-59.8724706,1.97257093
ZJY,31,0,2024-06-13T06:31:34.035Z,english_948.wav,0,0,537,,,,,3,0.3,-7.8364385,0.54442479
ZJY,31,0,2024-06-13T06:31:34.035Z,english_948.wav,0,0,537,,,,,4,0.4,-78.88155559,0.88565994
ZJY,31,0,2024-06-13T06:31:34.035Z,english_948.wav,0,0,537,,,,,5,0.5,68.60860792,1.07148871
ZJY,31,0,2024-06-13T06:31:34.035Z,english_948.wav,0,0,537,,,,,6,0.6,-33.65925785,0.5392424
ZJY,31,0,2024-06-13T06:31:34.035Z,english_948.wav,0,0,537,,,,,7,0.7,-55.41448182,0.22870417
ZJY,31,0,2024-06-13T06:31:34.035Z,english_948.wav,0,0,537,,,,,8,0.8,50.68602882,0.62800338
ZJY,31,0,2024-06-13T06:31:34.035Z,english_948.wav,0,0,537,,,,,9,0.9,61.97320966,0.19317235
ZJY,31,0,2024-06-13T06:31:34.035Z,english_948.wav,0,0,537,,,,,10,1,-81.646441,0.59223908
ZJY,31,0,2024-06-13T06:31:34.035Z,english_948.wav,0,0,537,,,,,11,1.09391667,-76.82315441,1.64165992
ZJY,32,0,2024-06-13T06:31:34.035Z,english_719.wav,0,1,221,,,,,0,0,-74.07322153,0.85431966
ZJY,32,0,2024-06-13T06:31:34.035Z,english_719.wav,0,1,221,,,,,1,0.1,35.75598847,1.01181763
ZJY,32,0,2024-06-13T06:31:34.035Z,english_719.wav,0,1,221,,,,,2,0.2,82.97271333,0.92312945
ZJY,32,0,2024-06-13T06:31:34.035Z,english_719.wav,0,1,221,,,,,3,0.3,17.0497448,0.56497759
ZJY,32,0,2024-06-13T06:31:34.035Z,english_719.wav,0,1,221,,,,,4,0.4,25.23097934,0.45096397
ZJY,32,0,2024-06-13T06:31:34.035Z,english_719.wav,0,1,221,,,,,5,0.5,4.16668302,1.21193737
ZJY,32,0,2024-06-13T06:31:34.035Z,english_719.wav,0,1,221,,,,,6,0.6,-83.53078486,0.96594203
ZJY,32,0,2024-06-13T06:31:34.035Z,english_719.wav,0,1,221,,,,,7,0.7,-81.53905497,0.58708741
ZJY,32,0,2024-06-13T06:31:34.035Z,english_719.wav,0,1,221,,,,,8,0.8,32.10709268,1.06053437
ZJY,32,0,2024-06-13T06:31:34.035Z,english_719.wav,0,1,221,,,,,9,0.9,9.14404491,1.09641521
ZJY,32,0,2024-06-13T06:31:34.035Z,english_719.wav,0,1,221,,,,,10,1,56.09727313,1.58822768
ZJY,32,0,2024-06-13T06:31:34.035Z,english_719.wav,0,1,221,,,,,11,1.09391667,-90.02311852,0.88380828
ZJY,33,0,2024-06-13T06:31:34.035Z,english_91.wav,0,1,400,,,,,0,0,90.30305792,1.1938068
ZJY,33,0,2024-06-13T06:31:34.035Z,english_91.wav,0,1,400,,,,,1,0.1,56.18894947,1.20808781
ZJY,33,0,2024-06-13T06:31:34.035Z,english_91.wav,0,1,400,,,,,2,0.2,-58.19739478,0.13849828
ZJY,33,0,2024-06-13T06:31:34.035Z,english_91.wav,0,1,400,,,,,3,0.3,79.028897,0.94138732
ZJY,33,0,2024-06-13T06:31:34.035Z,english_91.wav,0,1,400,,,,,4,0.4,7.81343209,0.4665442
ZJY,33,0,2024-06-13T06:31:34.035Z,english_91.wav,0,1,400,,,,,5,0.5,28.60271905,1.77893908
ZJY,33,0,2024-06-13T06:31:34.035Z,english_91.wav,0,1,400,,,,,6,0.6,14.99037293,0.39545287
ZJY,33,0,2024-06-13T06:31:34.035Z,english_91.wav,0,1,400,,,,,7,0.7,-0.25615484,1.77472074
ZJY,33,0,2024-06-13T06:31:34.035Z,english_91.wav,0,1,400,,,,,8,0.8,86.53655438,1.9424725
ZJY,33,0,2024-06-13T06:31:34.035Z,english_91.wav,0,1,400,,,,,9,0.9,-90.65230495,1.79603275
ZJY,33,0,2024-06-13T06:31:34.035Z,english_91.wav,0,1,400,,,,,10,1,95.15657265,1.28685544
ZJY,33,0,2024-06-13T06:31:34.035Z,english_91.wav,0,1,400,,,,,11,1.09391667,-56.87677847,0.36998726
ZJY,34,0,2024-06-13T06:31:34.035Z,english_461.wav,0,0,1231,,,,,0,0,20.40366348,0.56042838
ZJY,34,0,2024-06-13T06:31:34.035Z,english_461.wav,0,0,1231,,,,,1,0.1,-22.31307181,0.54946445
ZJY,34,0,2024-06-13T06:31:34.035Z,english_461.wav,0,0,1231,,,,,2,0.2,-89.37114144,1.64772646
ZJY,34,0,2024-06-13T06:31:34.035Z,english_461.wav,0,0,1231,,,,,3,0.3,-62.56780286,1.49638786
ZJY,34,0,2024-06-13T06:31:34.035Z,english_461.wav,0,0,1231,,,,,4,0.4,98.66430914,1.35717302
ZJY,34,0,2024-06-13T06:31:34.035Z,english_461.wav,0,0,1231,,,,,5,0.5,31.54001237,1.77354921
ZJY,34,0,2024-06-13T06:31:34.035Z,english_461.wav,0,0,1231,,,,,6,0.6,-32.39124998,0.30044417
ZJY,34,0,2024-06-13T06:31:34.035Z,english_461.wav,0,0,1231,,,,,7,0.7,-36.51161339,0.61964528
ZJY,34,0,2024-06-13T06:31:34.035Z,english_461.wav,0,0,1231,,,,,8,0.8,53.57144474,1.90165564
ZJY,34,0,2024-06-13T06:31:34.035Z,english_461.wav,0,0,1231,,,,,9,0.9,-58.15364794,1.196075
ZJY,34,0,2024-06-13T06:31:34.035Z,english_461.wav,0,0,1231,,,,,10,1,49.37662152,1.99169905
ZJY,34,0,2024-06-13T06:31:34.035Z,english_461.wav,0,0,1231,,,,,11,1.09391667,-58.25142674,0.63333461
ZJY,35,0,2024-06-13T06:31:34.035Z,english_390.wav,0,0,789,,,,,0,0,-44.27999606,0.47786392
ZJY,35,0,2024-06-13T06:31:34.035Z,english_390.wav,0,0,789,,,,,1,0.1,87.16388753,0.26367192
ZJY,35,0,2024-06-13T06:31:34.035Z,english_390.wav,0,0,789,,,,,2,0.2,51.76447156,0.808543
ZJY,35,0,2024-06-13T06:31:34.035Z,english_390.wav,0,0,789,,,,,3,0.3,4.72890769,1.08355999
ZJY,35,0,2024-06-13T06:31:34.035Z,english_390.wav,0,0,789,,,,,4,0.4,40.54029915,1.05186068
ZJY,35,0,2024-06-13T06:31:34.035Z,english_390.wav,0,0,789,,,,,5,0.5,-2.52273407,0.0330936
ZJY,35,0,2024-06-13T06:31:34.035Z,english_390.wav,0,0,789,,,,,6,0.6,-16.68397449,0.46793247
ZJY,35,0,2024-06-13T06:31:34.035Z,english_390.wav,0,0,789,,,,,7,0.7,61.52515281,1.47386131
ZJY,35,0,2024-06-13T06:31:34.035Z,english_390.wav,0,0,789,,,,,8,0.8,-9.09589247,0.59216285
ZJY,35,0,2024-06-13T06:31:34.035Z,english_390.wav,0,0,789,,,,,9,0.9,-24.40260524,0.27707759
ZJY,35,0,2024-06-13T06:31:34.035Z,english_390.wav,0,0,789,,,,,10,1,-74.87237933,1.34831193
ZJY,35,0,2024-06-13T06:31:34.035Z,english_390.wav,0,0,789,,,,,11,1.09391667,-82.02950505,1.5447274
ZJY,36,0,2024-06-13T06:31:34.035Z,english_182.wav,0,1,1154,,,,,0,0,-33.72839549,0.64170462
ZJY,36,0,2024-06-13T06:31:34.035Z,english_182.wav,0,1,1154,,,,,1,0.1,71.95583488,0.46910546
ZJY,36,0,2024-06-13T06:31:34.035Z,english_182.wav,0,1,1154,,,,,2,0.2,93.77497833,1.36329359
ZJY,36,0,2024-06-13T06:31:34.035Z,english_182.wav,0,1,1154,,,,,3,0.3,-96.3431589,1.23106937
ZJY,36,0,2024-06-13T06:31:34.035Z,english_182.wav,0,1,1154,,,,,4,0.4,-58.26438495,1.40247691
ZJY,36,0,2024-06-13T06:31:34.035Z,english_182.wav,0,1,1154,,,,,5,0.5,40.50395066,0.60520266
ZJY,36,0,2024-06-13T06:31:34.035Z,english_182.wav,0,1,1154,,,,,6,0.6,-57.53982371,0.0944441
ZJY,36,0,2024-06-13T06:31:34.035Z,english_182.wav,0,1,1154,,,,,7,0.7,19.26336492,0.39825095
ZJY,36,0,2024-06-13T06:31:34.035Z,english_182.wav,0,1,1154,,,,,8,0.8,53.61678759,0.94728121
ZJY,36,0,2024-06-13T06:31:34.035Z,english_182.wav,0,1,1154,,,,,9,0.9,33.80250156,0.19803834
ZJY,36,0,2024-06-13T06:31:34.035Z,english_182.wav,0,1,1154,,,,,10,1,47.27321227,1.21672532
ZJY,36,0,2024-06-13T06:31:34.035Z,english_182.wav,0,1,1154,,,,,11,1.09391667,72.04949346,0.20681806
ZJY,37,0,2024-06-13T06:31:34.035Z,english_103.wav,0,1,478,,,,,0,0,48.6835233,0.31659488
ZJY,37,0,2024-06-13T06:31:34.035Z,english_103.wav,0,1,478,,,,,1,0.1,36.55238137,0.91966706
ZJY,37,0,2024-06-13T06:31:34.035Z,english_103.wav,0,1,478,,,,,2,0.2,48.06121709,0.7088313
ZJY,37,0,2024-06-13T06:31:34.035Z,english_103.wav,0,1,478,,,,,3,0.3,-53.21418968,0.61655079
ZJY,37,0,2024-06-13T06:31:34.035Z,english_103.wav,0,1,478,,,,,4,0.4,-84.49986715,0.3504638
ZJY,37,0,2024-06-13T06:31:34.035Z,english_103.wav,0,1,478,,,,,5,0.5,2.274647,0.15173733
ZJY,37,0,2024-06-13T06:31:34.035Z,english_103.wav,0,1,478,,,,,6,0.6,65.76169241,0.65986716
ZJY,37,0,2024-06-13T06:31:34.035Z,english_103.wav,0,1,478,,,,,7,0.7,-54.56461338,1.01542857
ZJY,37,0,2024-06-13T06:31:34.035Z,english_103.wav,0,1,478,,,,,8,0.8,-9.60778265,0.43719066
ZJY,37,0,2024-06-13T06:31:34.035Z,english_103.wav,0,1,478,,,,,9,0.9,20.85441667,1.38316606
ZJY,37,0,2024-06-13T06:31:34.035Z,english_103.wav,0,1,478,,,,,10,1,-75.91935247,1.2339212
ZJY,37,0,2024-06-13T06:31:34.035Z,english_103.wav,0,1,478,,,,,11,1.09391667,-89.16544197,1.84830476
ZJY,38,0,2024-06-13T06:31:34.035Z,english_453.wav,0,1,894,,,,,0,0,-70.25213601,0.36867593
ZJY,38,0,2024-06-13T06:31:34.035Z,english_453.wav,0,1,894,,,,,1,0.1,89.68329695,1.72886328
ZJY,38,0,2024-06-13T06:31:34.035Z,english_453.wav,0,1,894,,,,,2,0.2,64.82558172,1.62690503
ZJY,38,0,2024-06-13T06:31:34.035Z,english_453.wav,0,1,894,,,,,3,0.3,-29.59079509,0.73552932
ZJY,38,0,2024-06-13T06:31:34.035Z,english_453.wav,0,1,894,,,,,4,0.4,2.86785492,1.15423746
ZJY,38,0,2024-06-13T06:31:34.035Z,english_453.wav,0,1,894,,,,,5,0.5,29.66798779,0.00604153
ZJY,38,0,2024-06-13T06:31:34.035Z,english_453.wav,0,1,894,,,,,6,0.6,83.99800943,0.72573154
ZJY,38,0,2024-06-13T06:31:34.035Z,english_453.wav,0,1,894,,,,,7,0.7,3.87286535,0.64728212
ZJY,38,0,2024-06-13T06:31:34.035Z,english_453.wav,0,1,894,,,,,8,0.8,-49.24820381,1.80766087
ZJY,38,0,2024-06-13T06:31:34.035Z,english_453.wav,0,1,894,,,,,9,0.9,77.90929808,1.21653859
ZJY,38,0,2024-06-13T06:31:34.035Z,english_453.wav,0,1,894,,,,,10,1,93.37572535,0.12484757
ZJY,38,0,2024-06-13T06:31:34.035Z,english_453.wav,0,1,894,,,,,11,1.09391667,1.85400833,0.63167788
ZJY,39,0,2024-06-13T06:31:34.035Z,english_590.wav,0,0,496,,,,,0,0,24.53986414,1.78897409
ZJY,39,0,2024-06-13T06:31:34.035Z,english_590.wav,0,0,496,,,,,1,0.1,62.74729121,1.71743114
ZJY,39,0,2024-06-13T06:31:34.035Z,english_590.wav,0,0,496,,,,,2,0.2,-6.99692864,1.45844579
ZJY,39,0,2024-06-13T06:31:34.035Z,english_590.wav,0,0,496,,,,,3,0.3,32.91070415,0.05079794
ZJY,39,0,2024-06-13T06:31:34.035Z,english_590.wav,0,0,496,,,,,4,0.4,54.80975448,1.44685897
ZJY,39,0,2024-06-13T06:31:34.035Z,english_590.wav,0,0,496,,,,,5,0.5,24.32530029,0.6322235
ZJY,39,0,2024-06-13T06:31:34.035Z,english_590.wav,0,0,496,,,,,6,0.6,16.29432048,1.01805408
ZJY,39,0,2024-06-13T06:31:34.035Z,english_590.wav,0,0,496,,,,,7,0.7,-66.06817006,0.32502854
ZJY,39,0,2024-06-13T06:31:34.035Z,english_590.wav,0,0,496,,,,,8,0.8,-90.96676801,1.20600442
ZJY,39,0,2024-06-13T06:31:34.035Z,english_590.wav,0,0,496,,,,,9,0.9,-4.67977612,0.69143843
ZJY,39,0,2024-06-13T06:31:34.035Z,english_590.wav,0,0,496,,,,,10,1,-25.79105575,0.12523546
ZJY,39,0,2024-06-13T06:31:34.035Z,english_590.wav,0,0,496,,,,,11,1.09391667,-43.70584136,1.95537842
ZJY,40,0,2024-06-13T06:31:34.035Z,english_58.wav,0,1,460,,,,,0,0,-46.52390323,0.35126105
ZJY,40,0,2024-06-13T06:31:34.035Z,english_58.wav,0,1,460,,,,,1,0.1,19.23789521,1.12280932
ZJY,40,0,2024-06-13T06:31:34.035Z,english_58.wav,0,1,460,,,,,2,0.2,69.12106093,0.45102457
ZJY,40,0,2024-06-13T06:31:34.035Z,english_58.wav,0,1,460,,,,,3,0.3,-43.53874687,1.46305127
ZJY,40,0,2024-06-13T06:31:34.035Z,english_58.wav,0,1,460,,,,,4,0.4,-56.35842904,1.909583
ZJY,40,0,2024-06-13T06:31:34.035Z,english_58.wav,0,1,460,,,,,5,0.5,7.35134255,1.54363939
ZJY,40,0,2024-06-13T06:31:34.035Z,english_58.wav,0,1,460,,,,,6,0.6,-28.20207265,0.80451607
ZJY,40,0,2024-06-13T06:31:34.035Z,english_58.wav,0,1,460,,,,,7,0.7,-78.68633359,1.94404618
ZJY,40,0,2024-06-13T06:31:34.035Z,english_58.wav,0,1,460,,,,,8,0.8,27.00073493,0.82845057
ZJY,40,0,2024-06-13T06:31:34.035Z,english_58.wav,0,1,460,,,,,9,0.9,-36.58564369,1.3978679
ZJY,40,0,2024-06-13T06:31:34.035Z,english_58.wav,0,1,460,,,,,10,1,4.57816085,1.7044559
ZJY,40,0,2024-06-13T06:31:34.035Z,english_58.wav,0,1,460,,,,,11,1.09391667,-5.20378192,0.16192575
ZJY,41,0,2024-06-13T06:31:34.035Z,english_542.wav,0,1,443,,,,,0,0,77.25836123,0.87207269
ZJY,41,0,2024-06-13T06:31:34.035Z,english_542.wav,0,1,443,,,,,1,0.1,4.96687677,0.90240888
ZJY,41,0,2024-06-13T06:31:34.035Z,english_542.wav,0,1,443,,,,,2,0.2,-69.63893361,0.25644456
ZJY,41,0,2024-06-13T06:31:34.035Z,english_542.wav,0,1,443,,,,,3,0.3,36.13476154,0.86696527
ZJY,41,0,2024-06-13T06:31:34.035Z,english_542.wav,0,1,443,,,,,4,0.4,29.93419476,1.70387716
ZJY,41,0,2024-06-13T06:31:34.035Z,english_542.wav,0,1,443,,,,,5,0.5,-71.22267205,1.80144796
ZJY,41,0,2024-06-13T06:31:34.035Z,english_542.wav,0,1,443,,,,,6,0.6,-30.36103617,0.29401729
ZJY,41,0,2024-06-13T06:31:34.035Z,english_542.wav,0,1,443,,,,,7,0.7,-14.05066862,1.14442321
ZJY,41,0,2024-06-13T06:31:34.035Z,english_542.wav,0,1,443,,,,,8,0.8,21.39979207,1.80586802
ZJY,41,0,2024-06-13T06:31:34.035Z,english_542.wav,0,1,443,,,,,9,0.9,0.74742826,1.77494895
ZJY,41,0,2024-06-13T06:31:34.035Z,english_542.wav,0,1,443,,,,,10,1,44.77375782,0.36146727
ZJY,41,0,2024-06-13T06:31:34.035Z,english_542.wav,0,1,443,,,,,11,1.09391667,-66.5594785,1.85294654
ZJY,42,0,2024-06-13T06:31:34.035Z,english_960.wav,0,1,251,,,,,0,0,-2.34292173,0.04592369
ZJY,42,0,2024-06-13T06:31:34.035Z,english_960.wav,0,1,251,,,,,1,0.1,-14.33809381,1.93256303
ZJY,42,0,2024-06-13T06:31:34.035Z,english_960.wav,0,1,251,,,,,2,0.2,23.80635185,1.63542615
ZJY,42,0,2024-06-13T06:31:34.035Z,english_960.wav,0,1,251,,,,,3,0.3,-47.8246654,1.38214449
ZJY,42,0,2024-06-13T06:31:34.035Z,english_960.wav,0,1,251,,,,,4,0.4,37.72126587,0.23301782
ZJY,42,0,2024-06-13T06:31:34.035Z,english_960.wav,0,1,251,,,,,5,0.5,52.9199081,0.53692552
ZJY,42,0,2024-06-13T06:31:34.035Z,english_960.wav,0,1,251,,,,,6,0.6,7.44982422,1.02814311
ZJY,42,0,2024-06-13T06:31:34.035Z,english_960.wav,0,1,251,,,,,7,0.7,-7.86948203,0.98154622
ZJY,42,0,2024-06-13T06:31:34.035Z,english_960.wav,0,1,251,,,,,8,0.8,72.23117138,0.31984479
ZJY,42,0,2024-06-13T06:31:34.035Z,english_960.wav,0,1,251,,,,,9,0.9,44.79944131,1.34408856
ZJY,42,0,2024-06-13T06:31:34.035Z,english_960.wav,0,1,251,,,,,10,1,4.95796587,0.65666074
ZJY,42,0,2024-06-13T06:31:34.035Z,english_960.wav,0,1,251,,,,,11,1.09391667,60.45608826,0.78367591
ZJY,43,0,2024-06-13T06:31:34.035Z,english_832.wav,0,1,576,,,,,0,0,-88.58549248,0.22284511
ZJY,43,0,2024-06-13T06:31:34.035Z,english_832.wav,0,1,576,,,,,1,0.1,8.34347478,1.43554353
ZJY,43,0,2024-06-13T06:31:34.035Z,english_832.wav,0,1,576,,,,,2,0.2,-33.69240403,1.25168829
ZJY,43,0,2024-06-13T06:31:34.035Z,english_832.wav,0,1,576,,,,,3,0.3,-38.19874018,1.76549117
ZJY,43,0,2024-06-13T06:31:34.035Z,english_832.wav,0,1,576,,,,,4,0.4,69.91001741,0.48241117
ZJY,43,0,2024-06-13T06:31:34.035Z,english_832.wav,0,1,576,,,,,5,0.5,76.9560892,1.98484056
ZJY,43,0,2024-06-13T06:31:34.035Z,english_832.wav,0,1,576,,,,,6,0.6,32.91071569,0.38621033
ZJY,43,0,2024-06-13T06:31:34.035Z,english_832.wav,0,1,576,,,,,7,0.7,-13.39927827,0.77915885
ZJY,43,0,2024-06-13T06:31:34.035Z,english_832.wav,0,1,576,,,,,8,0.8,44.52631215,0.49939301
ZJY,43,0,2024-06-13T06:31:34.035Z,english_832.wav,0,1,576,,,,,9,0.9,45.29069076,1.70508711
ZJY,43,0,2024-06-13T06:31:34.035Z,english_832.wav,0,1,576,,,,,10,1,-68.4923338,1.07362721
ZJY,43,0,2024-06-13T06:31:34.035Z,english_832.wav,0,1,576,,,,,11,1.09391667,-25.64660407,1.64737721
ZJY,44,0,2024-06-13T06:31:34.035Z,english_978.wav,0,0,673,,,,,0,0,-56.85728998,1.17346596
ZJY,44,0,2024-06-13T06:31:34.035Z,english_978.wav,0,0,673,,,,,1,0.1,16.43364259,0.59297783
ZJY,44,0,2024-06-13T06:31:34.035Z,english_978.wav,0,0,673,,,,,2,0.2,47.77326739,0.67016687
ZJY,44,0,2024-06-13T06:31:34.035Z,english_978.wav,0,0,673,,,,,3,0.3,94.05967356,1.98266891
ZJY,44,0,2024-06-13T06:31:34.035Z,english_978.wav,0,0,673,,,,,4,0.4,-76.48908754,0.86932432
ZJY,44,0,2024-06-13T06:31:34.035Z,english_978.wav,0,0,673,,,,,5,0.5,-47.71848611,0.89103479
ZJY,44,0,2024-06-13T06:31:34.035Z,english_978.wav,0,0,673,,,,,6,0.6,-17.07884838,1.65910536
ZJY,44,0,2024-06-13T06:31:34.035Z,english_978.wav,0,0,673,,,,,7,0.7,50.2599466,1.27682187
ZJY,44,0,2024-06-13T06:31:34.035Z,english_978.wav,0,0,673,,,,,8,0.8,83.04934383,0.051565
ZJY,44,0,2024-06-13T06:31:34.035Z,english_978.wav,0,0,673,,,,,9,0.9,-14.53932226,0.45965995
ZJY,44,0,2024-06-13T06:31:34.035Z,english_978.wav,0,0,673,,,,,10,1,-40.28373024,1.12972823
ZJY,44,0,2024-06-13T06:31:34.035Z,english_978.wav,0,0,673,,,,,11,1.09391667,82.58821892,1.51179451
ZJY,45,0,2024-06-13T06:31:34.035Z,english_9.wav,0,1,578,,,,,0,0,-96.61203468,1.48407489
ZJY,45,0,2024-06-13T06:31:34.035Z,english_9.wav,0,1,578,,,,,1,0.1,27.77418146,0.71089129
ZJY,45,0,2024-06-13T06:31:34.035Z,english_9.wav,0,1,578,,,,,2,0.2,-42.79973111,1.02276586
ZJY,45,0,2024-06-13T06:31:34.035Z,english_9.wav,0,1,578,,,,,3,0.3,52.67007286,0.94605025
ZJY,45,0,2024-06-13T06:31:34.035Z,english_9.wav,0,1,578,,,,,4,0.4,-77.37689486,1.64255066
ZJY,45,0,2024-06-13T06:31:34.035Z,english_9.wav,0,1,578,,,,,5,0.5,22.33265825,1.1767353
ZJY,45,0,2024-06-13T06:31:34.035Z,english_9.wav,0,1,578,,,,,6,0.6,-21.53246611,1.24238606
ZJY,45,0,2024-06-13T06:31:34.035Z,english_9.wav,0,1,578,,,,,7,0.7,11.78226484,0.92864334
ZJY,45,0,2024-06-13T06:31:34.035Z,english_9.wav,0,1,578,,,,,8,0.8,-45.34236124,1.13602565
ZJY,45,0,2024-06-13T06:31:34.035Z,english_9.wav,0,1,578,,,,,9,0.9,55.83053399,1.46898539
ZJY,45,0,2024-06-13T06:31:34.035Z,english_9.wav,0,1,578,,,,,10,1,-0.17077069,1.30855548
ZJY,45,0,2024-06-13T06:31:34.035Z,english_9.wav,0,1,578,,,,,11,1.09391667,-99.58545301,1.24881599
ZJY,46,0,2024-06-13T06:31:34.035Z,english_935.wav,0,0,627,,,,,0,0,-66.017305,0.5568005
ZJY,46,0,2024-06-13T06:31:34.035Z,english_935.wav,0,0,627,,,,,1,0.1,-96.46975552,0.64067821
ZJY,46,0,2024-06-13T06:31:34.035Z,english_935.wav,0,0,627,,,,,2,0.2,41.01490818,1.2239279
ZJY,46,0,2024-06-13T06:31:34.035Z,english_935.wav,0,0,627,,,,,3,0.3,-8.07360152,1.1472743
ZJY,46,0,2024-06-13T06:31:34.035Z,english_935.wav,0,0,627,,,,,4,0.4,43.89693233,0.40023778
ZJY,46,0,2024-06-13T06:31:34.035Z,english_935.wav,0,0,627,,,,,5,0.5,-91.80623652,1.34831364
ZJY,46,0,2024-06-13T06:31:34.035Z,english_935.wav,0,0,627,,,,,6,0.6,20.19515947,1.39566251
ZJY,46,0,2024-06-13T06:31:34.035Z,english_935.wav,0,0,627,,,,,7,0.7,-99.45471076,0.66795844
ZJY,46,0,2024-06-13T06:31:34.035Z,english_935.wav,0,0,627,,,,,8,0.8,15.46433912,1.24993732
ZJY,46,0,2024-06-13T06:31:34.035Z,english_935.wav,0,0,627,,,,,9,0.9,29.18172842,0.82560858
ZJY,46,0,2024-06-13T06:31:34.035Z,english_935.wav,0,0,627,,,,,10,1,64.82314597,1.15031979
ZJY,46,0,2024-06-13T06:31:34.035Z,english_935.wav,0,0,627,,,,,11,1.09391667,43.21629408,1.54604581
ZJY,47,0,2024-06-13T06:31:34.035Z,english_364.wav,0,1,180,,,,,0,0,83.865778,0.64688834
ZJY,47,0,2024-06-13T06:31:34.035Z,english_364.wav,0,1,180,,,,,1,0.1,63.76779424,1.36525912
ZJY,47,0,2024-06-13T06:31:34.035Z,english_364.wav,0,1,180,,,,,2,0.2,76.73494008,0.98445588
ZJY,47,0,2024-06-13T06:31:34.035Z,english_364.wav,0,1,180,,,,,3,0.3,63.04278033,1.58126378
ZJY,47,0,2024-06-13T06:31:34.035Z,english_364.wav,0,1,180,,,,,4,0.4,-55.03833232,1.2558055
ZJY,47,0,2024-06-13T06:31:34.035Z,english_364.wav,0,1,180,,,,,5,0.5,57.11242427,1.01407945
ZJY,47,0,2024-06-13T06:31:34.035Z,english_364.wav,0,1,180,,,,,6,0.6,15.41108418,1.72440997
ZJY,47,0,2024-06-13T06:31:34.035Z,english_364.wav,0,1,180,,,,,7,0.7,3.11298983,1.75247835
ZJY,47,0,2024-06-13T06:31:34.035Z,english_364.wav,0,1,180,,,,,8,0.8,15.49246741,0.306912
ZJY,47,0,2024-06-13T06:31:34.035Z,english_364.wav,0,1,180,,,,,9,0.9,-76.70109977,1.65351594
ZJY,47,0,2024-06-13T06:31:34.035Z,english_364.wav,0,1,180,,,,,10,1,21.21406375,0.67540521
ZJY,47,0,2024-06-13T06:31:34.035Z,english_364.wav,0,1,180,,,,,11,1.09391667,20.91306008,0.2382038
ZJY,48,0,2024-06-13T06:31:34.035Z,english_161.wav,0,0,15,,,,,0,0,0.2450503,0.47001228
ZJY,48,0,2024-06-13T06:31:34.035Z,english_161.wav,0,0,15,,,,,1,0.1,41.86400045,1.24375119
ZJY,48,0,2024-06-13T06:31:34.035Z,english_161.wav,0,0,15,,,,,2,0.2,3.22348346,0.98802588
ZJY,48,0,2024-06-13T06:31:34.035Z,english_161.wav,0,0,15,,,,,3,0.3,-24.29894103,1.92952194
ZJY,48,0,2024-06-13T06:31:34.035Z,english_161.wav,0,0,15,,,,,4,0.4,66.4308336,0.84385332
ZJY,48,0,2024-06-13T06:31:34.035Z,english_161.wav,0,0,15,,,,,5,0.5,-79.52202924,0.34569188
ZJY,48,0,2024-06-13T06:31:34.035Z,english_161.wav,0,0,15,,,,,6,0.6,-4.00284897,1.46988057
ZJY,48,0,2024-06-13T06:31:34.035Z,english_161.wav,0,0,15,,,,,7,0.7,-82.69040612,0.94597317
ZJY,48,0,2024-06-13T06:31:34.035Z,english_161.wav,0,0,15,,,,,8,0.8,32.14289288,0.70955806
ZJY,48,0,2024-06-13T06:31:34.035Z,english_161.wav,0,0,15,,,,,9,0.9,-94.27188699,1.39207721
ZJY,48,0,2024-06-13T06:31:34.035Z,english_161.wav,0,0,15,,,,,10,1,-14.10162234,0.79549611
ZJY,48,0,2024-06-13T06:31:34.035Z,english_161.wav,0,0,15,,,,,11,1.09391667,27.39748728,1.7090018
ZJY,49,0,2024-06-13T06:31:34.035Z,english_256.wav,0,1,1007,,,,,0,0,19.13786367,0.71756401
ZJY,49,0,2024-06-13T06:31:34.035Z,english_256.wav,0,1,1007,,,,,1,0.1,78.7613355,1.21129656
ZJY,49,0,2024-06-13T06:31:34.035Z,english_256.wav,0,1,1007,,,,,2,0.2,-10.99930376,0.86820307
ZJY,49,0,2024-06-13T06:31:34.035Z,english_256.wav,0,1,1007,,,,,3,0.3,-4.24203719,0.23513199
ZJY,49,0,2024-06-13T06:31:34.035Z,english_256.wav,0,1,1007,,,,,4,0.4,-18.22969313,1.96127331
ZJY,49,0,2024-06-13T06:31:34.035Z,english_256.wav,0,1,1007,,,,,5,0.5,-1.97438764,1.02094295
ZJY,49,0,2024-06-13T06:31:34.035Z,english_256.wav,0,1,1007,,,,,6,0.6,58.65018523,0.44586948
ZJY,49,0,2024-06-13T06:31:34.035Z,english_256.wav,0,1,1007,,,,,7,0.7,-44.17944685,0.67070074
ZJY,49,0,2024-06-13T06:31:34.035Z,english_256.wav,0,1,1007,,,,,8,0.8,-19.76307931,0.92528927
ZJY,49,0,2024-06-13T06:31:34.035Z,english_256.wav,0,1,1007,,,,,9,0.9,51.42512852,0.89913532
ZJY,49,0,2024-06-13T06:31:34.035Z,english_256.wav,0,1,1007,,,,,10,1,29.86121545,1.8576014
ZJY,49,0,2024-06-13T06:31:34.035Z,english_256.wav,0,1,1007,,,,,11,1.09391667,94.6134288,1.03800996
ZJY,50,1,2024-06-13T06:38:00.149Z,english_245.wav,0,0,1034,,,,,0,0,-3.94489453,1.87262136
ZJY,50,1,2024-06-13T06:38:00.149Z,english_245.wav,0,0,1034,,,,,1,0.1,93.78845114,1.5911659
ZJY,50,1,2024-06-13T06:38:00.149Z,english_245.wav,0,0,1034,,,,,2,0.2,-15.4175353,0.77224849
ZJY,50,1,2024-06-13T06:38:00.149Z,english_245.wav,0,0,1034,,,,,3,0.3,69.96206512,1.66276975
ZJY,50,1,2024-06-13T06:38:00.149Z,english_245.wav,0,0,1034,,,,,4,0.4,-2.81275051,0.59757366
ZJY,50,1,2024-06-13T06:38:00.149Z,english_245.wav,0,0,1034,,,,,5,0.5,-99.06344561,1.2271396
ZJY,50,1,2024-06-13T06:38:00.149Z,english_245.wav,0,0,1034,,,,,6,0.6,93.3644365,0.27105927
ZJY,50,1,2024-06-13T06:38:00.149Z,english_245.wav,0,0,1034,,,,,7,0.7,38.15823311,1.13207073
ZJY,50,1,2024-06-13T06:38:00.149Z,english_245.wav,0,0,1034,,,,,8,0.8,51.44383365,0.42497597
ZJY,50,1,2024-06-13T06:38:00.149Z,english_245.wav,0,0,1034,,,,,9,0.9,19.95795113,0.54403667
ZJY,50,1,2024-06-13T06:38:00.149Z,english_245.wav,0,0,1034,,,,,10,1,-68.88770698,0.3131135
ZJY,50,1,2024-06-13T06:38:00.149Z,english_245.wav,0,0,1034,,,,,11,1.09391667,99.45926262,1.0229568
ZJY,51,1,2024-06-13T06:38:00.149Z,english_778.wav,0,1,193,,,,,0,0,82.0288253,1.66099758
ZJY,51,1,2024-06-13T06:38:00.149Z,english_778.wav,0,1,193,,,,,1,0.1,-20.3816384,0.6394452
ZJY,51,1,2024-06-13T06:38:00.149Z,english_778.wav,0,1,193,,,,,2,0.2,20.1187508,1.73198521
ZJY,51,1,2024-06-13T06:38:00.149Z,english_778.wav,0,1,193,,,,,3,0.3,-67.3840406,1.63414449
ZJY,51,1,2024-06-13T06:38:00.149Z,english_778.wav,0,1,193,,,,,4,0.4,41.792495,0.91528965
ZJY,51,1,2024-06-13T06:38:00.149Z,english_778.wav,0,1,193,,,,,5,0.5,69.2908492,1.84340145
ZJY,51,1,2024-06-13T06:38:00.149Z,english_778.wav,0,1,193,,,,,6,0.6,-41.9809295,0.70098427
ZJY,51,1,2024-06-13T06:38:00.149Z,english_778.wav,0,1,193,,,,,7,0.7,93.0761369,1.59677801
ZJY,51,1,2024-06-13T06:38:00.149Z,english_778.wav,0,1,193,,,,,8,0.8,4.08814008,0.75626513
ZJY,51,1,2024-06-13T06:38:00.149Z,english_778.wav,0,1,193,,,,,9,0.9,-0.0375531871,1.05104073
ZJY,51,1,2024-06-13T06:38:00.149Z,english_778.wav,0,1,193,,,,,10,1,-79.0647822,0.42401001
ZJY,51,1,2024-06-13T06:38:00.149Z,english_778.wav,0,1,193,,,,,11,1.09391667,-53.0664028,1.42241932
ZJY,52,1,2024-06-13T06:38:00.149Z,english_802.wav,0,1,1337,,,,,0,0,59.91511279,1.85367275
ZJY,52,1,2024-06-13T06:38:00.149Z,english_802.wav,0,1,1337,,,,,1,0.1,12.24886821,1.18024621
ZJY,52,1,2024-06-13T06:38:00.149Z,english_802.wav,0,1,1337,,,,,2,0.2,96.02397802,1.49834519
ZJY,52,1,2024-06-13T06:38:00.149Z,english_802.wav,0,1,1337,,,,,3,0.3,13.76175382,0.18406028
ZJY,52,1,2024-06-13T06:38:00.149Z,english_802.wav,0,1,1337,,,,,4,0.4,61.38770088,0.92630848
ZJY,52,1,2024-06-13T06:38:00.149Z,english_802.wav,0,1,1337,,,,,5,0.5,-27.16563277,0.54382734
ZJY,52,1,2024-06-13T06:38:00.149Z,english_802.wav,0,1,1337,,,,,6,0.6,-56.7121097,1.05559663
ZJY,52,1,2024-06-13T06:38:00.149Z,english_802.wav,0,1,1337,,,,,7,0.7,-6.03893496,0.71322875
ZJY,52,1,2024-06-13T06:38:00.149Z,english_802.wav,0,1,1337,,,,,8,0.8,-52.64183472,0.836902
ZJY,52,1,2024-06-13T06:38:00.149Z,english_802.wav,0,1,1337,,,,,9,0.9,20.48360961,1.2036053
ZJY,52,1,2024-06-13T06:38:00.149Z,english_802.wav,0,1,1337,,,,,10,1,63.06136933,1.08845051
ZJY,52,1,2024-06-13T06:38:00.149Z,english_802.wav,0,1,1337,,,,,11,1.09391667,47.93084829,1.71595045
ZJY,53,1,2024-06-13T06:38:00.149Z,english_296.wav,0,1,844,,,,,0,0,80.48782258,1.56514642
ZJY,53,1,2024-06-13T06:38:00.149Z,english_296.wav,0,1,844,,,,,1,0.1,10.56122862,0.84129395
ZJY,53,1,2024-06-13T06:38:00.149Z,english_296.wav,0,1,844,,,,,2,0.2,-8.93820662,0.06138073
ZJY,53,1,2024-06-13T06:38:00.149Z,english_296.wav,0,1,844,,,,,3,0.3,-54.86681614,0.69727856
ZJY,53,1,2024-06-13T06:38:00.149Z,english_296.wav,0,1,844,,,,,4,0.4,4.93462284,1.5884292
ZJY,53,1,2024-06-13T06:38:00.149Z,english_296.wav,0,1,844,,,,,5,0.5,35.74757504,1.04892583
ZJY,53,1,2024-06-13T06:38:00.149Z,english_296.wav,0,1,844,,,,,6,0.6,68.8469079,1.9689775
ZJY,53,1,2024-06-13T06:38:00.149Z,english_296.wav,0,1,844,,,,,7,0.7,-14.27123589,0.88805601
ZJY,53,1,2024-06-13T06:38:00.149Z,english_296.wav,0,1,844,,,,,8,0.8,-28.29587023,1.96809087
ZJY,53,1,2024-06-13T06:38:00.149Z,english_296.wav,0,1,844,,,,,9,0.9,95.64907093,1.8332122
ZJY,53,1,2024-06-13T06:38:00.149Z,english_296.wav,0,1,844,,,,,10,1,-72.41595419,0.12281215
ZJY,53,1,2024-06-13T06:38:00.149Z,english_296.wav,0,1,844,,,,,11,1.09391667,67.53861485,0.22120187
ZJY,54,1,2024-06-13T06:38:00.149Z,english_955.wav,0,0,464,,,,,0,0,38.31421616,0.40317625
ZJY,54,1,2024-06-13T06:38:00.149Z,english_955.wav,0,0,464,,,,,1,0.1,-0.24395343,1.41770308
ZJY,54,1,2024-06-13T06:38:00.149Z,english_955.wav,0,0,464,,,,,2,0.2,-30.85408012,0.82154239
ZJY,54,1,2024-06-13T06:38:00.149Z,english_955.wav,0,0,464,,,,,3,0.3,73.34311783,1.53285595
ZJY,54,1,2024-06-13T06:38:00.149Z,english_955.wav,0,0,464,,,,,4,0.4,-91.5837752,0.89318017
ZJY,54,1,2024-06-13T06:38:00.149Z,english_955.wav,0,0,464,,,,,5,0.5,57.97712299,1.16313419
ZJY,54,1,2024-06-13T06:38:00.149Z,english_955.wav,0,0,464,,,,,6,0.6,6.73272041,0.62969855
ZJY,54,1,2024-06-13T06:38:00.149Z,english_955.wav,0,0,464,,,,,7,0.7,-3.5280389,1.12563056
ZJY,54,1,2024-06-13T06:38:00.149Z,english_955.wav,0,0,464,,,,,8,0.8,-53.89604604,0.39704544
ZJY,54,1,2024-06-13T06:38:00.149Z,english_955.wav,0,0,464,,,,,9,0.9,42.44442799,0.50354627
ZJY,54,1,2024-06-13T06:38:00.149Z,english_955.wav,0,0,464,,,,,10,1,-51.31943535,0.66246368
ZJY,54,1,2024-06-13T06:38:00.149Z,english_955.wav,0,0,464,,,,,11,1.09391667,-10.15737525,0.25441039
ZJY,55,1,2024-06-13T06:38:00.149Z,english_677.wav,0,1,333,,,,,0,0,35.18766114,1.46418541
ZJY,55,1,2024-06-13T06:38:00.149Z,english_677.wav,0,1,333,,,,,1,0.1,3.82449325,0.62060775
ZJY,55,1,2024-06-13T06:38:00.149Z,english_677.wav,0,1,333,,,,,2,0.2,-81.73229082,1.63148334
ZJY,55,1,2024-06-13T06:38:00.149Z,english_677.wav,0,1,333,,,,,3,0.3,-1.54015563,0.52758496
ZJY,55,1,2024-06-13T06:38:00.149Z,english_677.wav,0,1,333,,,,,4,0.4,-45.59201538,0.80943231
ZJY,55,1,2024-06-13T06:38:00.149Z,english_677.wav,0,1,333,,,,,5,0.5,26.20010581,1.10411223
ZJY,55,1,2024-06-13T06:38:00.149Z,english_677.wav,0,1,333,,,,,6,0.6,-19.9162202,0.62014779
ZJY,55,1,2024-06-13T06:38:00.149Z,english_677.wav,0,1,333,,,,,7,0.7,41.69291663,0.65910672
ZJY,55,1,2024-06-13T06:38:00.149Z,english_677.wav,0,1,333,,,,,8,0.8,-68.08590586,1.69273141
ZJY,55,1,2024-06-13T06:38:00.149Z,english_677.wav,0,1,333,,,,,9,0.9,-52.35020304,1.22000106
ZJY,55,1,2024-06-13T06:38:00.149Z,english_677.wav,0,1,333,,,,,10,1,55.76687311,0.67614262
ZJY,55,1,2024-06-13T06:38:00.149Z,english_677.wav,0,1,333,,,,,11,1.09391667,26.15340501,1.44243981
ZJY,56,1,2024-06-13T06:38:00.149Z,english_842.wav,0,1,851,,,,,0,0,-81.72100022,1.05096469
ZJY,56,1,2024-06-13T06:38:00.149Z,english_842.wav,0,1,851,,,,,1,0.1,18.84637506,0.68369723
ZJY,56,1,2024-06-13T06:38:00.149Z,english_842.wav,0,1,851,,,,,2,0.2,-80.18621681,1.52749806
ZJY,56,1,2024-06-13T06:38:00.149Z,english_842.wav,0,1,851,,,,,3,0.3,38.99509662,0.81526033
ZJY,56,1,2024-06-13T06:38:00.149Z,english_842.wav,0,1,851,,,,,4,0.4,24.76840986,1.70702662
ZJY,56,1,2024-06-13T06:38:00.149Z,english_842.wav,0,1,851,,,,,5,0.5,-19.71585535,1.05576458
ZJY,56,1,2024-06-13T06:38:00.149Z,english_842.wav,0,1,851,,,,,6,0.6,69.03077802,0.15620837
ZJY,56,1,2024-06-13T06:38:00.149Z,english_842.wav,0,1,851,,,,,7,0.7,35.91349986,1.43624924
ZJY,56,1,2024-06-13T06:38:00.149Z,english_842.wav,0,1,851,,,,,8,0.8,-27.17447615,0.34293919
ZJY,56,1,2024-06-13T06:38:00.149Z,english_842.wav,0,1,851,,,,,9,0.9,-26.64790606,1.32305508
ZJY,56,1,2024-06-13T06:38:00.149Z,english_842.wav,0,1,851,,,,,10,1,27.41987323,1.04384127
ZJY,56,1,2024-06-13T06:38:00.149Z,english_842.wav,0,1,851,,,,,11,1.09391667,30.72990316,1.55933633
ZJY,57,1,2024-06-13T06:38:00.149Z,english_458.wav,0,1,477,,,,,0,0,-17.35193705,0.22923126
ZJY,57,1,2024-06-13T06:38:00.149Z,english_458.wav,0,1,477,,,,,1,0.1,76.25272333,1.42441377
ZJY,57,1,2024-06-13T06:38:00.149Z,english_458.wav,0,1,477,,,,,2,0.2,66.551046,0.60732538
ZJY,57,1,2024-06-13T06:38:00.149Z,english_458.wav,0,1,477,,,,,3,0.3,-95.41815816,0.4830802
ZJY,57,1,2024-06-13T06:38:00.149Z,english_458.wav,0,1,477,,,,,4,0.4,-5.20731416,0.7532548
ZJY,57,1,2024-06-13T06:38:00.149Z,english_458.wav,0,1,477,,,,,5,0.5,-15.31002561,1.81914976
ZJY,57,1,2024-06-13T06:38:00.149Z,english_458.wav,0,1,477,,,,,6,0.6,63.5103627,1.22838438
ZJY,57,1,2024-06-13T06:38:00.149Z,english_458.wav,0,1,477,,,,,7,0.7,-32.19044721,0.06067943
ZJY,57,1,2024-06-13T06:38:00.149Z,english_458.wav,0,1,477,,,,,8,0.8,9.85446701,0.231332
ZJY,57,1,2024-06-13T06:38:00.149Z,english_458.wav,0,1,477,,,,,9,0.9,-64.97569882,1.40147857
ZJY,57,1,2024-06-13T06:38:00.149Z,english_458.wav,0,1,477,,,,,10,1,59.10726436,0.29468522
ZJY,57,1,2024-06-13T06:38:00.149Z,english_458.wav,0,1,477,,,,,11,1.09391667,60.50538111,0.47293516
ZJY,58,1,2024-06-13T06:38:00.149Z,english_234.wav,0,0,842,,,,,0,0,71.25344855,1.77024373
ZJY,58,1,2024-06-13T06:38:00.149Z,english_234.wav,0,0,842,,,,,1,0.1,2.51724238,1.93450941
ZJY,58,1,2024-06-13T06:38:00.149Z,english_234.wav,0,0,842,,,,,2,0.2,11.96692617,1.39397551
ZJY,58,1,2024-06-13T06:38:00.149Z,english_234.wav,0,0,842,,,,,3,0.3,64.81737023,1.38496922
ZJY,58,1,2024-06-13T06:38:00.149Z,english_234.wav,0,0,842,,,,,4,0.4,73.84050439,1.81820251
ZJY,58,1,2024-06-13T06:38:00.149Z,english_234.wav,0,0,842,,,,,5,0.5,-23.01072055,1.61085564
ZJY,58,1,2024-06-13T06:38:00.149Z,english_234.wav,0,0,842,,,,,6,0.6,-44.95387086,1.3729139
ZJY,58,1,2024-06-13T06:38:00.149Z,english_234.wav,0,0,842,,,,,7,0.7,-11.63871465,1.59939785
ZJY,58,1,2024-06-13T06:38:00.149Z,english_234.wav,0,0,842,,,,,8,0.8,88.55977512,0.08431317
ZJY,58,1,2024-06-13T06:38:00.149Z,english_234.wav,0,0,842,,,,,9,0.9,51.63791617,1.41302364
ZJY,58,1,2024-06-13T06:38:00.149Z,english_234.wav,0,0,842,,,,,10,1,-71.95139975,1.44509252
ZJY,58,1,2024-06-13T06:38:00.149Z,english_234.wav,0,0,842,,,,,11,1.09391667,-75.67665254,0.88259776
ZJY,59,1,2024-06-13T06:38:00.149Z,english_379.wav,0,1,69,,,,,0,0,49.53215273,0.78528704
ZJY,59,1,2024-06-13T06:38:00.149Z,english_379.wav,0,1,69,,,,,1,0.1,9.27522888,1.81748923
ZJY,59,1,2024-06-13T06:38:00.149Z,english_379.wav,0,1,69,,,,,2,0.2,37.03122757,0.92030015
ZJY,59,1,2024-06-13T06:38:00.149Z,english_379.wav,0,1,69,,,,,3,0.3,99.63155139,1.45290857
ZJY,59,1,2024-06-13T06:38:00.149Z,english_379.wav,0,1,69,,,,,4,0.4,33.35011574,1.06621496
ZJY,59,1,2024-06-13T06:38:00.149Z,english_379.wav,0,1,69,,,,,5,0.5,-7.70874078,1.14308429
ZJY,59,1,2024-06-13T06:38:00.149Z,english_379.wav,0,1,69,,,,,6,0.6,46.33326353,0.43706451
ZJY,59,1,2024-06-13T06:38:00.149Z,english_379.wav,0,1,69,,,,,7,0.7,41.12969148,0.56663738
ZJY,59,1,2024-06-13T06:38:00.149Z,english_379.wav,0,1,69,,,,,8,0.8,-55.78540597,1.37256697
ZJY,59,1,2024-06-13T06:38:00.149Z,english_379.wav,0,1,69,,,,,9,0.9,-84.4527127,0.4510475
ZJY,59,1,2024-06-13T06:38:00.149Z,english_379.wav,0,1,69,,,,,10,1,13.84600332,1.31801048
ZJY,59,1,2024-06-13T06:38:00.149Z,english_379.wav,0,1,69,,,,,11,1.09391667,82.55643163,0.64535043
ZJY,60,1,2024-06-13T06:38:00.149Z,english_15.wav,0,1,160,,,,,0,0,62.7654015,0.64461989
ZJY,60,1,2024-06-13T06:38:00.149Z,english_15.wav,0,1,160,,,,,1,0.1,72.90081021,0.87486851
ZJY,60,1,2024-06-13T06:38:00.149Z,english_15.wav,0,1,160,,,,,2,0.2,-27.13813981,0.76068215
ZJY,60,1,2024-06-13T06:38:00.149Z,english_15.wav,0,1,160,,,,,3,0.3,46.15025154,1.07697628
ZJY,60,1,2024-06-13T06:38:00.149Z,english_15.wav,0,1,160,,,,,4,0.4,82.82691944,1.41242613
ZJY,60,1,2024-06-13T06:38:00.149Z,english_15.wav,0,1,160,,,,,5,0.5,-11.77094526,0.34527471
ZJY,60,1,2024-06-13T06:38:00.149Z,english_15.wav,0,1,160,,,,,6,0.6,7.10565833,1.49976623
ZJY,60,1,2024-06-13T06:38:00.149Z,english_15.wav,0,1,160,,,,,7,0.7,95.94707331,0.60499577
ZJY,60,1,2024-06-13T06:38:00.149Z,english_15.wav,0,1,160,,,,,8,0.8,45.63799677,1.54166411
ZJY,60,1,2024-06-13T06:38:00.149Z,english_15.wav,0,1,160,,,,,9,0.9,-92.00814549,0.43181907
ZJY,60,1,2024-06-13T06:38:00.149Z,english_15.wav,0,1,160,,,,,10,1,63.89035204,1.01946416
ZJY,60,1,2024-06-13T06:38:00.149Z,english_15.wav,0,1,160,,,,,11,1.09391667,2.5390803,1.42183406
ZJY,61,1,2024-06-13T06:38:00.149Z,english_295.wav,0,0,352,,,,,0,0,-21.33588045,0.64007693
ZJY,61,1,2024-06-13T06:38:00.149Z,english_295.wav,0,0,352,,,,,1,0.1,28.18111365,0.36210443
ZJY,61,1,2024-06-13T06:38:00.149Z,english_295.wav,0,0,352,,,,,2,0.2,-11.21795953,0.97510536
ZJY,61,1,2024-06-13T06:38:00.149Z,english_295.wav,0,0,352,,,,,3,0.3,-75.82203472,1.22570619
ZJY,61,1,2024-06-13T06:38:00.149Z,english_295.wav,0,0,352,,,,,4,0.4,36.75980824,1.08813481
ZJY,61,1,2024-06-13T06:38:00.149Z,english_295.wav,0,0,352,,,,,5,0.5,82.52508149,1.82668288
ZJY,61,1,2024-06-13T06:38:00.149Z,english_295.wav,0,0,352,,,,,6,0.6,-2.95672331,0.03453598
ZJY,61,1,2024-06-13T06:38:00.149Z,english_295.wav,0,0,352,,,,,7,0.7,78.98755658,1.07945409
ZJY,61,1,2024-06-13T06:38:00.149Z,english_295.wav,0,0,352,,,,,8,0.8,34.02541903,0.06380248
ZJY,61,1,2024-06-13T06:38:00.149Z,english_295.wav,0,0,352,,,,,9,0.9,40.25185798,0.46673817
ZJY,61,1,2024-06-13T06:38:00.149Z,english_295.wav,0,0,352,,,,,10,1,-23.49198504,0.55804019
ZJY,61,1,2024-06-13T06:38:00.149Z,english_295.wav,0,0,352,,,,,11,1.09391667,43.4619086,0.67911388
ZJY,62,1,2024-06-13T06:38:00.149Z,english_964.wav,0,1,224,,,,,0,0,53.46570898,1.49731262
ZJY,62,1,2024-06-13T06:38:00.149Z,english_964.wav,0,1,224,,,,,1,0.1,-29.34116619,1.91326808
ZJY,62,1,2024-06-13T06:38:00.149Z,english_964.wav,0,1,224,,,,,2,0.2,54.99768825,0.76008105
ZJY,62,1,2024-06-13T06:38:00.149Z,english_964.wav,0,1,224,,,,,3,0.3,-81.76915679,1.84891579
ZJY,62,1,2024-06-13T06:38:00.149Z,english_964.wav,0,1,224,,,,,4,0.4,-62.14603757,0.58371441
ZJY,62,1,2024-06-13T06:38:00.149Z,english_964.wav,0,1,224,,,,,5,0.5,-51.83468115,0.22320605
ZJY,62,1,2024-06-13T06:38:00.149Z,english_964.wav,0,1,224,,,,,6,0.6,22.82176289,0.86228006
ZJY,62,1,2024-06-13T06:38:00.149Z,english_964.wav,0,1,224,,,,,7,0.7,43.03362668,1.2736027
ZJY,62,1,2024-06-13T06:38:00.149Z,english_964.wav,0,1,224,,,,,8,0.8,-91.1613604,0.96508229
ZJY,62,1,2024-06-13T06:38:00.149Z,english_964.wav,0,1,224,,,,,9,0.9,9.75788821,0.5978171
ZJY,62,1,2024-06-13T06:38:00.149Z,english_964.wav,0,1,224,,,,,10,1,-2.87390503,0.802961
ZJY,62,1,2024-06-13T06:38:00.149Z,english_964.wav,0,1,224,,,,,11,1.09391667,-53.09298444,0.69400331
ZJY,63,1,2024-06-13T06:38:00.149Z,english_310.wav,0,1,452,,,,,0,0,-73.0364012,1.20427188
ZJY,63,1,2024-06-13T06:38:00.149Z,english_310.wav,0,1,452,,,,,1,0.1,-22.1461231,0.93293509
ZJY,63,1,2024-06-13T06:38:00.149Z,english_310.wav,0,1,452,,,,,2,0.2,-68.7915777,0.44843766
ZJY,63,1,2024-06-13T06:38:00.149Z,english_310.wav,0,1,452,,,,,3,0.3,15.9567541,1.947333
ZJY,63,1,2024-06-13T06:38:00.149Z,english_310.wav,0,1,452,,,,,4,0.4,0.0690214219,0.80984127
ZJY,63,1,2024-06-13T06:38:00.149Z,english_310.wav,0,1,452,,,,,5,0.5,11.0751916,0.49483553
ZJY,63,1,2024-06-13T06:38:00.149Z,english_310.wav,0,1,452,,,,,6,0.6,-4.73549816,1.63471819
ZJY,63,1,2024-06-13T06:38:00.149Z,english_310.wav,0,1,452,,,,,7,0.7,89.4133264,0.6439244
ZJY,63,1,2024-06-13T06:38:00.149Z,english_310.wav,0,1,452,,,,,8,0.8,8.5991291,1.83711469
ZJY,63,1,2024-06-13T06:38:00.149Z,english_310.wav,0,1,452,,,,,9,0.9,-42.9855425,1.01800117
ZJY,63,1,2024-06-13T06:38:00.149Z,english_310.wav,0,1,452,,,,,10,1,21.7690352,0.59348897
ZJY,63,1,2024-06-13T06:38:00.149Z,english_310.wav,0,1,452,,,,,11,1.09391667,-68.5633248,1.68402605
ZJY,64,1,2024-06-13T06:38:00.149Z,english_285.wav,0,1,1093,,,,,0,0,48.62119612,1.78431697
ZJY,64,1,2024-06-13T06:38:00.149Z,english_285.wav,0,1,1093,,,,,1,0.1,-77.49487419,0.21017115
ZJY,64,1,2024-06-13T06:38:00.149Z,english_285.wav,0,1,1093,,,,,2,0.2,-92.74855632,0.90754364
ZJY,64,1,2024-06-13T06:38:00.149Z,english_285.wav,0,1,1093,,,,,3,0.3,-5.04409868,0.79299305
ZJY,64,1,2024-06-13T06:38:00.149Z,english_285.wav,0,1,1093,,,,,4,0.4,-37.04184738,0.73704045
ZJY,64,1,2024-06-13T06:38:00.149Z,english_285.wav,0,1,1093,,,,,5,0.5,93.82836291,1.49438795
ZJY,64,1,2024-06-13T06:38:00.149Z,english_285.wav,0,1,1093,,,,,6,0.6,46.80360504,1.8666859
ZJY,64,1,2024-06-13T06:38:00.149Z,english_285.wav,0,1,1093,,,,,7,0.7,99.71187558,1.28156013
ZJY,64,1,2024-06-13T06:38:00.149Z,english_285.wav,0,1,1093,,,,,8,0.8,70.29725425,0.27278766
ZJY,64,1,2024-06-13T06:38:00.149Z,english_285.wav,0,1,1093,,,,,9,0.9,2.68384344,1.64624
ZJY,64,1,2024-06-13T06:38:00.149Z,english_285.wav,0,1,1093,,,,,10,1,33.86757162,0.38779205
ZJY,64,1,2024-06-13T06:38:00.149Z,english_285.wav,0,1,1093,,,,,11,1.09391667,28.22402765,0.9971565
ZJY,65,1,2024-06-13T06:38:00.149Z,english_3.wav,0,0,503,,,,,0,0,46.12890401,1.26973721
ZJY,65,1,2024-06-13T06:38:00.149Z,english_3.wav,0,0,503,,,,,1,0.1,-46.79234899,0.81563074
ZJY,65,1,2024-06-13T06:38:00.149Z,english_3.wav,0,0,503,,,,,2,0.2,43.27356125,1.94124466
ZJY,65,1,2024-06-13T06:38:00.149Z,english_3.wav,0,0,503,,,,,3,0.3,-72.16670898,0.70667384
ZJY,65,1,2024-06-13T06:38:00.149Z,english_3.wav,0,0,503,,,,,4,0.4,-20.43688573,1.08403016
ZJY,65,1,2024-06-13T06:38:00.149Z,english_3.wav,0,0,503,,,,,5,0.5,47.47685518,0.3642344
ZJY,65,1,2024-06-13T06:38:00.149Z,english_3.wav,0,0,503,,,,,6,0.6,-99.10404807,0.99174199
ZJY,65,1,2024-06-13T06:38:00.149Z,english_3.wav,0,0,503,,,,,7,0.7,26.000254,0.55041702
ZJY,65,1,2024-06-13T06:38:00.149Z,english_3.wav,0,0,503,,,,,8,0.8,-7.26217139,0.75824974
ZJY,65,1,2024-06-13T06:38:00.149Z,english_3.wav,0,0,503,,,,,9,0.9,-22.74562987,0.866985
ZJY,65,1,2024-06-13T06:38:00.149Z,english_3.wav,0,0,503,,,,,10,1,-68.2177704,1.56473108
ZJY,65,1,2024-06-13T06:38:00.149Z,english_3.wav,0,0,503,,,,,11,1.09391667,25.12417325,0.96011667
ZJY,66,1,2024-06-13T06:38:00.149Z,english_692.wav,0,1,1026,,,,,0,0,17.01173199,0.47550749
ZJY,66,1,2024-06-13T06:38:00.149Z,english_692.wav,0,1,1026,,,,,1,0.1,-83.06969334,1.08739119
ZJY,66,1,2024-06-13T06:38:00.149Z,english_692.wav,0,1,1026,,,,,2,0.2,-58.44100575,1.75941989
ZJY,66,1,2024-06-13T06:38:00.149Z,english_692.wav,0,1,1026,,,,,3,0.3,-91.32119293,0.308091
ZJY,66,1,2024-06-13T06:38:00.149Z,english_692.wav,0,1,1026,,,,,4,0.4,-39.52405727,0.34371229
ZJY,66,1,2024-06-13T06:38:00.149Z,english_692.wav,0,1,1026,,,,,5,0.5,-40.26958375,0.85553053
ZJY,66,1,2024-06-13T06:38:00.149Z,english_692.wav,0,1,1026,,,,,6,0.6,55.4362835,1.67285815
ZJY,66,1,2024-06-13T06:38:00.149Z,english_692.wav,0,1,1026,,,,,7,0.7,20.27621399,1.37569405
ZJY,66,1,2024-06-13T06:38:00.149Z,english_692.wav,0,1,1026,,,,,8,0.8,-86.30023131,1.97676153
ZJY,66,1,2024-06-13T06:38:00.149Z,english_692.wav,0,1,1026,,,,,9,0.9,6.83955759,0.86697186
ZJY,66,1,2024-06-13T06:38:00.149Z,english_692.wav,0,1,1026,,,,,10,1,6.70379303,1.63903464
ZJY,66,1,2024-06-13T06:38:00.149Z,english_692.wav,0,1,1026,,,,,11,1.09391667,92.50690067,0.89498599
ZJY,67,1,2024-06-13T06:38:00.149Z,english_209.wav,0,0,599,,,,,0,0,-69.97643607,1.01752059
ZJY,67,1,2024-06-13T06:38:00.149Z,english_209.wav,0,0,599,,,,,1,0.1,-88.52393114,0.50741315
ZJY,67,1,2024-06-13T06:38:00.149Z,english_209.wav,0,0,599,,,,,2,0.2,-92.64381406,1.61277815
ZJY,67,1,2024-06-13T06:38:00.149Z,english_209.wav,0,0,599,,,,,3,0.3,-12.19607679,1.4872908
ZJY,67,1,2024-06-13T06:38:00.149Z,english_209.wav,0,0,599,,,,,4,0.4,51.51628924,0.5793757
ZJY,67,1,2024-06-13T06:38:00.149Z,english_209.wav,0,0,599,,,,,5,0.5,-0.64468501,0.52779709
ZJY,67,1,2024-06-13T06:38:00.149Z,english_209.wav,0,0,599,,,,,6,0.6,71.59302863,0.0231703
ZJY,67,1,2024-06-13T06:38:00.149Z,english_209.wav,0,0,599,,,,,7,0.7,-9.81029184,1.34840208
ZJY,67,1,2024-06-13T06:38:00.149Z,english_209.wav,0,0,599,,,,,8,0.8,-24.63818078,0.66467052
ZJY,67,1,2024-06-13T06:38:00.149Z,english_209.wav,0,0,599,,,,,9,0.9,-3.20105403,0.39411628
ZJY,67,1,2024-06-13T06:38:00.149Z,english_209.wav,0,0,599,,,,,10,1,34.64482647,0.07463584
ZJY,67,1,2024-06-13T06:38:00.149Z,english_209.wav,0,0,599,,,,,11,1.09391667,-96.73374827,1.52336413
ZJY,68,1,2024-06-13T06:38:00.149Z,english_489.wav,0,1,151,,,,,0,0,34.87513384,0.04879029
ZJY,68,1,2024-06-13T06:38:00.149Z,english_489.wav,0,1,151,,,,,1,0.1,-56.49709653,0.42206675
ZJY,68,1,2024-06-13T06:38:00.149Z,english_489.wav,0,1,151,,,,,2,0.2,-69.32456338,1.77329015
ZJY,68,1,2024-06-13T06:38:00.149Z,english_489.wav,0,1,151,,,,,3,0.3,53.20706346,0.48934341
ZJY,68,1,2024-06-13T06:38:00.149Z,english_489.wav,0,1,151,,,,,4,0.4,66.8977185,1.53841919
ZJY,68,1,2024-06-13T06:38:00.149Z,english_489.wav,0,1,151,,,,,5,0.5,47.95425842,1.90609151
ZJY,68,1,2024-06-13T06:38:00.149Z,english_489.wav,0,1,151,,,,,6,0.6,18.45634507,1.04648426
ZJY,68,1,2024-06-13T06:38:00.149Z,english_489.wav,0,1,151,,,,,7,0.7,-35.00488862,0.7592551
ZJY,68,1,2024-06-13T06:38:00.149Z,english_489.wav,0,1,151,,,,,8,0.8,41.56892466,1.06956744
ZJY,68,1,2024-06-13T06:38:00.149Z,english_489.wav,0,1,151,,,,,9,0.9,-9.61579481,0.57636466
ZJY,68,1,2024-06-13T06:38:00.149Z,english_489.wav,0,1,151,,,,,10,1,-77.26438838,0.72315176
ZJY,68,1,2024-06-13T06:38:00.149Z,english_489.wav,0,1,151,,,,,11,1.09391667,-34.81016687,0.99781533
ZJY,69,1,2024-06-13T06:38:00.149Z,english_905.wav,0,0,277,,,,,0,0,-38.82719082,0.64550094
ZJY,69,1,2024-06-13T06:38:00.149Z,english_905.wav,0,0,277,,,,,1,0.1,91.73556094,1.31053491
ZJY,69,1,2024-06-13T06:38:00.149Z,english_905.wav,0,0,277,,,,,2,0.2,-44.32627421,0.47707545
ZJY,69,1,2024-06-13T06:38:00.149Z,english_905.wav,0,0,277,,,,,3,0.3,-65.11156064,0.49456239
ZJY,69,1,2024-06-13T06:38:00.149Z,english_905.wav,0,0,277,,,,,4,0.4,-48.38956406,0.97248604
ZJY,69,1,2024-06-13T06:38:00.149Z,english_905.wav,0,0,277,,,,,5,0.5,-66.93781594,0.82967407
ZJY,69,1,2024-06-13T06:38:00.149Z,english_905.wav,0,0,277,,,,,6,0.6,-31.37264091,0.41334293
ZJY,69,1,2024-06-13T06:38:00.149Z,english_905.wav,0,0,277,,,,,7,0.7,-76.42119949,0.8386705
ZJY,69,1,2024-06-13T06:38:00.149Z,english_905.wav,0,0,277,,,,,8,0.8,90.55453052,0.29898441
ZJY,69,1,2024-06-13T06:38:00.149Z,english_905.wav,0,0,277,,,,,9,0.9,-13.8538154,0.28325918
ZJY,69,1,2024-06-13T06:38:00.149Z,english_905.wav,0,0,277,,,,,10,1,10.60108282,0.58400342
ZJY,69,1,2024-06-13T06:38:00.149Z,english_905.wav,0,0,277,,,,,11,1.09391667,-16.89815331,0.41677525
ZJY,70,1,2024-06-13T06:38:00.149Z,english_791.wav,0,1,101,,,,,0,0,-46.06630558,1.16002163
ZJY,70,1,2024-06-13T06:38:00.149Z,english_791.wav,0,1,101,,,,,1,0.1,-10.41029295,1.31545425
ZJY,70,1,2024-06-13T06:38:00.149Z,english_791.wav,0,1,101,,,,,2,0.2,46.47346809,0.89173565
ZJY,70,1,2024-06-13T06:38:00.149Z,english_791.wav,0,1,101,,,,,3,0.3,-10.43860287,0.05427007
ZJY,70,1,2024-06-13T06:38:00.149Z,english_791.wav,0,1,101,,,,,4,0.4,-38.16717219,1.4017057
ZJY,70,1,2024-06-13T06:38:00.149Z,english_791.wav,0,1,101,,,,,5,0.5,44.56559314,0.47849772
ZJY,70,1,2024-06-13T06:38:00.149Z,english_791.wav,0,1,101,,,,,6,0.6,43.70696978,1.59729287
ZJY,70,1,2024-06-13T06:38:00.149Z,english_791.wav,0,1,101,,,,,7,0.7,-5.54884815,1.50901191
ZJY,70,1,2024-06-13T06:38:00.149Z,english_791.wav,0,1,101,,,,,8,0.8,89.91059564,0.68083576
ZJY,70,1,2024-06-13T06:38:00.149Z,english_791.wav,0,1,101,,,,,9,0.9,90.72111025,1.62669182
ZJY,70,1,2024-06-13T06:38:00.149Z,english_791.wav,0,1,101,,,,,10,1,4.8020349,1.81653342
ZJY,70,1,2024-06-13T06:38:00.149Z,english_791.wav,0,1,101,,,,,11,1.09391667,7.87463746,1.33572141
ZJY,71,1,2024-06-13T06:38:00.149Z,english_915.wav,0,0,590,,,,,0,0,-21.98271396,1.11106838
ZJY,71,1,2024-06-13T06:38:00.149Z,english_915.wav,0,0,590,,,,,1,0.1,1.0207487,1.44455779
ZJY,71,1,2024-06-13T06:38:00.149Z,english_915.wav,0,0,590,,,,,2,0.2,23.02274493,1.42587556
ZJY,71,1,2024-06-13T06:38:00.149Z,english_915.wav,0,0,590,,,,,3,0.3,85.32608832,1.47521249
ZJY,71,1,2024-06-13T06:38:00.149Z,english_915.wav,0,0,590,,,,,4,0.4,-33.34189035,1.68905856
ZJY,71,1,2024-06-13T06:38:00.149Z,english_915.wav,0,0,590,,,,,5,0.5,29.21421043,1.40181913
ZJY,71,1,2024-06-13T06:38:00.149Z,english_915.wav,0,0,590,,,,,6,0.6,56.26543798,1.46869984
ZJY,71,1,2024-06-13T06:38:00.149Z,english_915.wav,0,0,590,,,,,7,0.7,7.71467122,0.70433786
ZJY,71,1,2024-06-13T06:38:00.149Z,english_915.wav,0,0,590,,,,,8,0.8,88.21567756,1.11015014
ZJY,71,1,2024-06-13T06:38:00.149Z,english_915.wav,0,0,590,,,,,9,0.9,-50.54904275,0.72100932
ZJY,71,1,2024-06-13T06:38:00.149Z,english_915.wav,0,0,590,,,,,10,1,-64.3056321,1.02681764
ZJY,71,1,2024-06-13T06:38:00.149Z,english_915.wav,0,0,590,,,,,11,1.09391667,-64.41259803,0.869897
ZJY,72,1,2024-06-13T06:38:00.149Z,english_387.wav,0,1,1341,,,,,0,0,67.80075556,0.00122772109
ZJY,72,1,2024-06-13T06:38:00.149Z,english_387.wav,0,1,1341,,,,,1,0.1,2.91528807,1.63436641
ZJY,72,1,2024-06-13T06:38:00.149Z,english_387.wav,0,1,1341,,,,,2,0.2,-96.71759945,0.942533102
ZJY,72,1,2024-06-13T06:38:00.149Z,english_387.wav,0,1,1341,,,,,3,0.3,0.93195301,0.658001898
ZJY,72,1,2024-06-13T06:38:00.149Z,english_387.wav,0,1,1341,,,,,4,0.4,64.10102677,1.5746929
ZJY,72,1,2024-06-13T06:38:00.149Z,english_387.wav,0,1,1341,,,,,5,0.5,50.38025389,0.711925794
ZJY,72,1,2024-06-13T06:38:00.149Z,english_387.wav,0,1,1341,,,,,6,0.6,73.00593199,1.61187408
ZJY,72,1,2024-06-13T06:38:00.149Z,english_387.wav,0,1,1341,,,,,7,0.7,18.93402178,1.34608703
ZJY,72,1,2024-06-13T06:38:00.149Z,english_387.wav,0,1,1341,,,,,8,0.8,35.76134207,1.4554979
ZJY,72,1,2024-06-13T06:38:00.149Z,english_387.wav,0,1,1341,,,,,9,0.9,32.66910334,0.118157589
ZJY,72,1,2024-06-13T06:38:00.149Z,english_387.wav,0,1,1341,,,,,10,1,89.60787906,0.929482496
ZJY,72,1,2024-06-13T06:38:00.149Z,english_387.wav,0,1,1341,,,,,11,1.09391667,4.26061553,1.40897442
ZJY,73,1,2024-06-13T06:38:00.149Z,english_479.wav,0,0,774,,,,,0,0,-34.7893931,1.93393565
ZJY,73,1,2024-06-13T06:38:00.149Z,english_479.wav,0,0,774,,,,,1,0.1,-71.34069905,0.26573691
ZJY,73,1,2024-06-13T06:38:00.149Z,english_479.wav,0,0,774,,,,,2,0.2,58.87573247,0.73981952
ZJY,73,1,2024-06-13T06:38:00.149Z,english_479.wav,0,0,774,,,,,3,0.3,-54.09913821,1.46667746
ZJY,73,1,2024-06-13T06:38:00.149Z,english_479.wav,0,0,774,,,,,4,0.4,43.12020224,0.55048015
ZJY,73,1,2024-06-13T06:38:00.149Z,english_479.wav,0,0,774,,,,,5,0.5,-44.41654249,0.62176048
ZJY,73,1,2024-06-13T06:38:00.149Z,english_479.wav,0,0,774,,,,,6,0.6,57.88290142,0.05220831
ZJY,73,1,2024-06-13T06:38:00.149Z,english_479.wav,0,0,774,,,,,7,0.7,-1.44997962,0.21971087
ZJY,73,1,2024-06-13T06:38:00.149Z,english_479.wav,0,0,774,,,,,8,0.8,89.72797502,0.30059048
ZJY,73,1,2024-06-13T06:38:00.149Z,english_479.wav,0,0,774,,,,,9,0.9,97.22467665,0.39403565
ZJY,73,1,2024-06-13T06:38:00.149Z,english_479.wav,0,0,774,,,,,10,1,52.11815336,1.20859565
ZJY,73,1,2024-06-13T06:38:00.149Z,english_479.wav,0,0,774,,,,,11,1.09391667,71.23188895,0.36818185
ZJY,74,1,2024-06-13T06:38:00.149Z,english_857.wav,0,1,350,,,,,0,0,-56.93168928,1.92395656
ZJY,74,1,2024-06-13T06:38:00.149Z,english_857.wav,0,1,350,,,,,1,0.1,-40.57515649,1.41156549
ZJY,74,1,2024-06-13T06:38:00.149Z,english_857.wav,0,1,350,,,,,2,0.2,-26.26283105,0.14185194
ZJY,74,1,2024-06-13T06:38:00.149Z,english_857.wav,0,1,350,,,,,3,0.3,-49.62797955,1.1985334
ZJY,74,1,2024-06-13T06:38:00.149Z,english_857.wav,0,1,350,,,,,4,0.4,47.07146778,0.83326814
ZJY,74,1,2024-06-13T06:38:00.149Z,english_857.wav,0,1,350,,,,,5,0.5,-96.41882062,0.71224123
ZJY,74,1,2024-06-13T06:38:00.149Z,english_857.wav,0,1,350,,,,,6,0.6,63.09662026,1.58040322
ZJY,74,1,2024-06-13T06:38:00.149Z,english_857.wav,0,1,350,,,,,7,0.7,98.67053018,1.02327595
ZJY,74,1,2024-06-13T06:38:00.149Z,english_857.wav,0,1,350,,,,,8,0.8,-56.85749065,1.48703987
ZJY,74,1,2024-06-13T06:38:00.149Z,english_857.wav,0,1,350,,,,,9,0.9,-18.03690135,0.70290333
ZJY,74,1,2024-06-13T06:38:00.149Z,english_857.wav,0,1,350,,,,,10,1,52.13097753,0.53460392
ZJY,74,1,2024-06-13T06:38:00.149Z,english_857.wav,0,1,350,,,,,11,1.09391667,52.54650928,1.10851945
ZJY,75,1,2024-06-13T06:38:00.149Z,english_199.wav,0,1,281,,,,,0,0,11.88199512,1.7718025
ZJY,75,1,2024-06-13T06:38:00.149Z,english_199.wav,0,1,281,,,,,1,0.1,-46.96504702,0.76735149
ZJY,75,1,2024-06-13T06:38:00.149Z,english_199.wav,0,1,281,,,,,2,0.2,91.54002169,1.87614546
ZJY,75,1,2024-06-13T06:38:00.149Z,english_199.wav,0,1,281,,,,,3,0.3,99.89394598,1.34343154
ZJY,75,1,2024-06-13T06:38:00.149Z,english_199.wav,0,1,281,,,,,4,0.4,-50.70673656,1.06602126
ZJY,75,1,2024-06-13T06:38:00.149Z,english_199.wav,0,1,281,,,,,5,0.5,3.76891672,0.62776747
ZJY,75,1,2024-06-13T06:38:00.149Z,english_199.wav,0,1,281,,,,,6,0.6,96.91424304,1.16622983
ZJY,75,1,2024-06-13T06:38:00.149Z,english_199.wav,0,1,281,,,,,7,0.7,-8.03082423,0.99062008
ZJY,75,1,2024-06-13T06:38:00.149Z,english_199.wav,0,1,281,,,,,8,0.8,10.21194857,0.73939337
ZJY,75,1,2024-06-13T06:38:00.149Z,english_199.wav,0,1,281,,,,,9,0.9,73.92851664,0.60539997
ZJY,75,1,2024-06-13T06:38:00.149Z,english_199.wav,0,1,281,,,,,10,1,29.02383929,1.28070052
ZJY,75,1,2024-06-13T06:38:00.149Z,english_199.wav,0,1,281,,,,,11,1.09391667,-91.13840346,0.2785568
ZJY,76,1,2024-06-13T06:38:00.149Z,english_834.wav,0,1,1396,,,,,0,0,-86.16375599,1.62153397
ZJY,76,1,2024-06-13T06:38:00.149Z,english_834.wav,0,1,1396,,,,,1,0.1,-22.09919923,1.42577166
ZJY,76,1,2024-06-13T06:38:00.149Z,english_834.wav,0,1,1396,,,,,2,0.2,63.82090938,1.22840095
ZJY,76,1,2024-06-13T06:38:00.149Z,english_834.wav,0,1,1396,,,,,3,0.3,38.26115817,1.977843
ZJY,76,1,2024-06-13T06:38:00.149Z,english_834.wav,0,1,1396,,,,,4,0.4,15.19654457,0.63466945
ZJY,76,1,2024-06-13T06:38:00.149Z,english_834.wav,0,1,1396,,,,,5,0.5,78.054871,1.94429469
ZJY,76,1,2024-06-13T06:38:00.149Z,english_834.wav,0,1,1396,,,,,6,0.6,63.1081572,0.531594
ZJY,76,1,2024-06-13T06:38:00.149Z,english_834.wav,0,1,1396,,,,,7,0.7,43.43236214,1.34157161
ZJY,76,1,2024-06-13T06:38:00.149Z,english_834.wav,0,1,1396,,,,,8,0.8,-74.3897683,1.32269287
ZJY,76,1,2024-06-13T06:38:00.149Z,english_834.wav,0,1,1396,,,,,9,0.9,40.24285486,1.75386624
ZJY,76,1,2024-06-13T06:38:00.149Z,english_834.wav,0,1,1396,,,,,10,1,-67.71571624,1.01238939
ZJY,76,1,2024-06-13T06:38:00.149Z,english_834.wav,0,1,1396,,,,,11,1.09391667,40.03958616,1.44306133
ZJY,77,1,2024-06-13T06:38:00.149Z,english_556.wav,0,0,152,,,,,0,0,-68.09670747,1.3485974
ZJY,77,1,2024-06-13T06:38:00.149Z,english_556.wav,0,0,152,,,,,1,0.1,8.96692918,0.84698507
ZJY,77,1,2024-06-13T06:38:00.149Z,english_556.wav,0,0,152,,,,,2,0.2,-46.83531772,0.06218337
ZJY,77,1,2024-06-13T06:38:00.149Z,english_556.wav,0,0,152,,,,,3,0.3,-87.32202155,0.66181265
ZJY,77,1,2024-06-13T06:38:00.149Z,english_556.wav,0,0,152,,,,,4,0.4,49.65406328,1.9600464
ZJY,77,1,2024-06-13T06:38:00.149Z,english_556.wav,0,0,152,,,,,5,0.5,92.65716025,0.67849191
ZJY,77,1,2024-06-13T06:38:00.149Z,english_556.wav,0,0,152,,,,,6,0.6,-17.76161657,0.9118753
ZJY,77,1,2024-06-13T06:38:00.149Z,english_556.wav,0,0,152,,,,,7,0.7,-85.77085821,0.73811047
ZJY,77,1,2024-06-13T06:38:00.149Z,english_556.wav,0,0,152,,,,,8,0.8,-31.44799715,0.91861979
ZJY,77,1,2024-06-13T06:38:00.149Z,english_556.wav,0,0,152,,,,,9,0.9,-32.59755967,1.18816365
ZJY,77,1,2024-06-13T06:38:00.149Z,english_556.wav,0,0,152,,,,,10,1,-96.2091504,1.86623217
ZJY,77,1,2024-06-13T06:38:00.149Z,english_556.wav,0,0,152,,,,,11,1.09391667,-0.57982779,0.61760757
ZJY,78,1,2024-06-13T06:38:00.149Z,english_89.wav,0,1,313,,,,,0,0,44.55560521,0.83141016
ZJY,78,1,2024-06-13T06:38:00.149Z,english_89.wav,0,1,313,,,,,1,0.1,-38.12575075,0.73728779
ZJY,78,1,2024-06-13T06:38:00.149Z,english_89.wav,0,1,313,,,,,2,0.2,-85.08741113,0.76468972
ZJY,78,1,2024-06-13T06:38:00.149Z,english_89.wav,0,1,313,,,,,3,0.3,-34.51149373,1.40220205
ZJY,78,1,2024-06-13T06:38:00.149Z,english_89.wav,0,1,313,,,,,4,0.4,91.4200198,1.40801955
ZJY,78,1,2024-06-13T06:38:00.149Z,english_89.wav,0,1,313,,,,,5,0.5,-88.24762839,0.24508348
ZJY,78,1,2024-06-13T06:38:00.149Z,english_89.wav,0,1,313,,,,,6,0.6,-12.15976794,0.73331541
ZJY,78,1,2024-06-13T06:38:00.149Z,english_89.wav,0,1,313,,,,,7,0.7,8.11504905,1.14258486
ZJY,78,1,2024-06-13T06:38:00.149Z,english_89.wav,0,1,313,,,,,8,0.8,48.7516223,0.28719695
ZJY,78,1,2024-06-13T06:38:00.149Z,english_89.wav,0,1,313,,,,,9,0.9,-61.89417078,1.82425172
ZJY,78,1,2024-06-13T06:38:00.149Z,english_89.wav,0,1,313,,,,,10,1,70.08039029,1.66848997
ZJY,78,1,2024-06-13T06:38:00.149Z,english_89.wav,0,1,313,,,,,11,1.09391667,73.1109171,1.25647122
ZJY,79,1,2024-06-13T06:38:00.149Z,english_553.wav,0,1,411,,,,,0,0,-24.88703549,1.59716139
ZJY,79,1,2024-06-13T06:38:00.149Z,english_553.wav,0,1,411,,,,,1,0.1,-32.78735509,1.94339053
ZJY,79,1,2024-06-13T06:38:00.149Z,english_553.wav,0,1,411,,,,,2,0.2,11.78475046,0.07176258
ZJY,79,1,2024-06-13T06:38:00.149Z,english_553.wav,0,1,411,,,,,3,0.3,-49.38675094,1.26590086
ZJY,79,1,2024-06-13T06:38:00.149Z,english_553.wav,0,1,411,,,,,4,0.4,87.03858762,0.74193634
ZJY,79,1,2024-06-13T06:38:00.149Z,english_553.wav,0,1,411,,,,,5,0.5,60.30502824,1.61552542
ZJY,79,1,2024-06-13T06:38:00.149Z,english_553.wav,0,1,411,,,,,6,0.6,10.13311967,0.16579471
ZJY,79,1,2024-06-13T06:38:00.149Z,english_553.wav,0,1,411,,,,,7,0.7,67.86345644,1.42366471
ZJY,79,1,2024-06-13T06:38:00.149Z,english_553.wav,0,1,411,,,,,8,0.8,-60.17677271,1.14167702
ZJY,79,1,2024-06-13T06:38:00.149Z,english_553.wav,0,1,411,,,,,9,0.9,12.98417217,1.59651853
ZJY,79,1,2024-06-13T06:38:00.149Z,english_553.wav,0,1,411,,,,,10,1,49.25042129,1.95090435
ZJY,79,1,2024-06-13T06:38:00.149Z,english_553.wav,0,1,411,,,,,11,1.09391667,-82.97566862,0.60671916
ZJY,80,1,2024-06-13T06:38:00.149Z,english_688.wav,0,0,823,,,,,0,0,-29.94010546,0.64779988
ZJY,80,1,2024-06-13T06:38:00.149Z,english_688.wav,0,0,823,,,,,1,0.1,-41.32005189,0.86768487
ZJY,80,1,2024-06-13T06:38:00.149Z,english_688.wav,0,0,823,,,,,2,0.2,60.5114301,1.84873786
ZJY,80,1,2024-06-13T06:38:00.149Z,english_688.wav,0,0,823,,,,,3,0.3,-11.57251233,1.12374148
ZJY,80,1,2024-06-13T06:38:00.149Z,english_688.wav,0,0,823,,,,,4,0.4,-32.48909096,1.48328397
ZJY,80,1,2024-06-13T06:38:00.149Z,english_688.wav,0,0,823,,,,,5,0.5,70.68045254,0.61802845
ZJY,80,1,2024-06-13T06:38:00.149Z,english_688.wav,0,0,823,,,,,6,0.6,-93.57410751,0.25217431
ZJY,80,1,2024-06-13T06:38:00.149Z,english_688.wav,0,0,823,,,,,7,0.7,-35.20217483,0.64703385
ZJY,80,1,2024-06-13T06:38:00.149Z,english_688.wav,0,0,823,,,,,8,0.8,-56.48380795,0.24929174
ZJY,80,1,2024-06-13T06:38:00.149Z,english_688.wav,0,0,823,,,,,9,0.9,29.31296217,0.36133188
ZJY,80,1,2024-06-13T06:38:00.149Z,english_688.wav,0,0,823,,,,,10,1,-66.64221323,0.49659231
ZJY,80,1,2024-06-13T06:38:00.149Z,english_688.wav,0,0,823,,,,,11,1.09391667,61.92592934,0.74443623
ZJY,81,1,2024-06-13T06:38:00.149Z,english_106.wav,0,1,1059,,,,,0,0,49.34223169,0.13389709
ZJY,81,1,2024-06-13T06:38:00.149Z,english_106.wav,0,1,1059,,,,,1,0.1,-45.57503338,0.25174437
ZJY,81,1,2024-06-13T06:38:00.149Z,english_106.wav,0,1,1059,,,,,2,0.2,-15.08492624,0.82402432
ZJY,81,1,2024-06-13T06:38:00.149Z,english_106.wav,0,1,1059,,,,,3,0.3,-19.8979669,0.82208583
ZJY,81,1,2024-06-13T06:38:00.149Z,english_106.wav,0,1,1059,,,,,4,0.4,-25.53796799,1.38135822
ZJY,81,1,2024-06-13T06:38:00.149Z,english_106.wav,0,1,1059,,,,,5,0.5,88.30993321,0.76093903
ZJY,81,1,2024-06-13T06:38:00.149Z,english_106.wav,0,1,1059,,,,,6,0.6,-64.76962788,0.57981415
ZJY,81,1,2024-06-13T06:38:00.149Z,english_106.wav,0,1,1059,,,,,7,0.7,-39.71315935,1.62636068
ZJY,81,1,2024-06-13T06:38:00.149Z,english_106.wav,0,1,1059,,,,,8,0.8,92.87896843,1.17795772
ZJY,81,1,2024-06-13T06:38:00.149Z,english_106.wav,0,1,1059,,,,,9,0.9,-52.99965121,0.06230935
ZJY,81,1,2024-06-13T06:38:00.149Z,english_106.wav,0,1,1059,,,,,10,1,37.25809924,0.54036795
ZJY,81,1,2024-06-13T06:38:00.149Z,english_106.wav,0,1,1059,,,,,11,1.09391667,83.50306975,1.72343759
ZJY,82,1,2024-06-13T06:38:00.149Z,english_515.wav,0,1,581,,,,,0,0,-58.23176372,1.22843541
ZJY,82,1,2024-06-13T06:38:00.149Z,english_515.wav,0,1,581,,,,,1,0.1,-76.45173976,1.63015901
ZJY,82,1,2024-06-13T06:38:00.149Z,english_515.wav,0,1,581,,,,,2,0.2,25.49902523,1.20813881
ZJY,82,1,2024-06-13T06:38:00.149Z,english_515.wav,0,1,581,,,,,3,0.3,5.27103545,0.47612476
ZJY,82,1,2024-06-13T06:38:00.149Z,english_515.wav,0,1,581,,,,,4,0.4,-41.64983344,0.26545174
ZJY,82,1,2024-06-13T06:38:00.149Z,english_515.wav,0,1,581,,,,,5,0.5,-51.29888172,1.8557412
ZJY,82,1,2024-06-13T06:38:00.149Z,english_515.wav,0,1,581,,,,,6,0.6,65.36966432,0.81547092
ZJY,82,1,2024-06-13T06:38:00.149Z,english_515.wav,0,1,581,,,,,7,0.7,-56.17839976,1.63185656
ZJY,82,1,2024-06-13T06:38:00.149Z,english_515.wav,0,1,581,,,,,8,0.8,-12.23547481,0.09263004
ZJY,82,1,2024-06-13T06:38:00.149Z,english_515.wav,0,1,581,,,,,9,0.9,-89.1418522,1.76127396
ZJY,82,1,2024-06-13T06:38:00.149Z,english_515.wav,0,1,581,,,,,10,1,8.96872742,0.57224671
ZJY,82,1,2024-06-13T06:38:00.149Z,english_515.wav,0,1,581,,,,,11,1.09391667,-18.30503433,1.26155121
ZJY,83,1,2024-06-13T06:38:00.149Z,english_932.wav,0,1,16,,,,,0,0,38.23438928,1.12401337
ZJY,83,1,2024-06-13T06:38:00.149Z,english_932.wav,0,1,16,,,,,1,0.1,-58.10377529,0.61932379
ZJY,83,1,2024-06-13T06:38:00.149Z,english_932.wav,0,1,16,,,,,2,0.2,91.68709635,1.42631679
ZJY,83,1,2024-06-13T06:38:00.149Z,english_932.wav,0,1,16,,,,,3,0.3,43.08352003,1.23008562
ZJY,83,1,2024-06-13T06:38:00.149Z,english_932.wav,0,1,16,,,,,4,0.4,89.28150272,1.74074376
ZJY,83,1,2024-06-13T06:38:00.149Z,english_932.wav,0,1,16,,,,,5,0.5,-32.82905254,0.41912443
ZJY,83,1,2024-06-13T06:38:00.149Z,english_932.wav,0,1,16,,,,,6,0.6,-27.89856156,1.78556309
ZJY,83,1,2024-06-13T06:38:00.149Z,english_932.wav,0,1,16,,,,,7,0.7,-15.6368176,0.72255464
ZJY,83,1,2024-06-13T06:38:00.149Z,english_932.wav,0,1,16,,,,,8,0.8,-47.50450916,1.47985237
ZJY,83,1,2024-06-13T06:38:00.149Z,english_932.wav,0,1,16,,,,,9,0.9,-85.48225369,1.29316662
ZJY,83,1,2024-06-13T06:38:00.149Z,english_932.wav,0,1,16,,,,,10,1,26.29289849,1.31994778
ZJY,83,1,2024-06-13T06:38:00.149Z,english_932.wav,0,1,16,,,,,11,1.09391667,-34.49542083,1.97700851
ZJY,84,1,2024-06-13T06:38:00.149Z,english_294.wav,0,1,320,,,,,0,0,-35.26170476,0.76895084
ZJY,84,1,2024-06-13T06:38:00.149Z,english_294.wav,0,1,320,,,,,1,0.1,-68.79847515,0.42345848
ZJY,84,1,2024-06-13T06:38:00.149Z,english_294.wav,0,1,320,,,,,2,0.2,21.65443345,1.88759315
ZJY,84,1,2024-06-13T06:38:00.149Z,english_294.wav,0,1,320,,,,,3,0.3,18.61336719,0.20743541
ZJY,84,1,2024-06-13T06:38:00.149Z,english_294.wav,0,1,320,,,,,4,0.4,29.14118392,0.10193981
ZJY,84,1,2024-06-13T06:38:00.149Z,english_294.wav,0,1,320,,,,,5,0.5,-0.79474297,0.31438326
ZJY,84,1,2024-06-13T06:38:00.149Z,english_294.wav,0,1,320,,,,,6,0.6,-83.10715175,1.2995954
ZJY,84,1,2024-06-13T06:38:00.149Z,english_294.wav,0,1,320,,,,,7,0.7,-22.63410673,1.94703728
ZJY,84,1,2024-06-13T06:38:00.149Z,english_294.wav,0,1,320,,,,,8,0.8,-21.26415856,0.92366458
ZJY,84,1,2024-06-13T06:38:00.149Z,english_294.wav,0,1,320,,,,,9,0.9,47.90727918,1.04223302
ZJY,84,1,2024-06-13T06:38:00.149Z,english_294.wav,0,1,320,,,,,10,1,-39.88232682,1.01801331
ZJY,84,1,2024-06-13T06:38:00.149Z,english_294.wav,0,1,320,,,,,11,1.09391667,-74.09279353,0.911147
ZJY,85,1,2024-06-13T06:38:00.149Z,english_155.wav,0,0,2330,,,,,0,0,21.6550533,0.01570598
ZJY,85,1,2024-06-13T06:38:00.149Z,english_155.wav,0,0,2330,,,,,1,0.1,-0.0016794128,1.76749017
ZJY,85,1,2024-06-13T06:38:00.149Z,english_155.wav,0,0,2330,,,,,2,0.2,-77.5292073,1.37583653
ZJY,85,1,2024-06-13T06:38:00.149Z,english_155.wav,0,0,2330,,,,,3,0.3,-44.9313065,0.19365623
ZJY,85,1,2024-06-13T06:38:00.149Z,english_155.wav,0,0,2330,,,,,4,0.4,-33.7969309,1.34202306
ZJY,85,1,2024-06-13T06:38:00.149Z,english_155.wav,0,0,2330,,,,,5,0.5,46.2285188,1.87351349
ZJY,85,1,2024-06-13T06:38:00.149Z,english_155.wav,0,0,2330,,,,,6,0.6,93.0191022,1.89118344
ZJY,85,1,2024-06-13T06:38:00.149Z,english_155.wav,0,0,2330,,,,,7,0.7,80.6417886,1.25713993
ZJY,85,1,2024-06-13T06:38:00.149Z,english_155.wav,0,0,2330,,,,,8,0.8,-76.4782648,1.84259347
ZJY,85,1,2024-06-13T06:38:00.149Z,english_155.wav,0,0,2330,,,,,9,0.9,-35.964927,0.04007403
ZJY,85,1,2024-06-13T06:38:00.149Z,english_155.wav,0,0,2330,,,,,10,1,90.375739,1.64837519
ZJY,85,1,2024-06-13T06:38:00.149Z,english_155.wav,0,0,2330,,,,,11,1.09391667,66.476003,1.87071869
ZJY,86,1,2024-06-13T06:38:00.149Z,english_291.wav,0,0,2034,,,,,0,0,-35.42543517,1.79657699
ZJY,86,1,2024-06-13T06:38:00.149Z,english_291.wav,0,0,2034,,,,,1,0.1,-58.51846155,0.45193929
ZJY,86,1,2024-06-13T06:38:00.149Z,english_291.wav,0,0,2034,,,,,2,0.2,-22.76348489,1.43927243
ZJY,86,1,2024-06-13T06:38:00.149Z,english_291.wav,0,0,2034,,,,,3,0.3,19.21250817,0.51811893
ZJY,86,1,2024-06-13T06:38:00.149Z,english_291.wav,0,0,2034,,,,,4,0.4,10.39547897,0.67991537
ZJY,86,1,2024-06-13T06:38:00.149Z,english_291.wav,0,0,2034,,,,,5,0.5,-11.61823126,1.97176362
ZJY,86,1,2024-06-13T06:38:00.149Z,english_291.wav,0,0,2034,,,,,6,0.6,-78.73745365,1.52786701
ZJY,86,1,2024-06-13T06:38:00.149Z,english_291.wav,0,0,2034,,,,,7,0.7,-83.41752971,0.24358096
ZJY,86,1,2024-06-13T06:38:00.149Z,english_291.wav,0,0,2034,,,,,8,0.8,27.65579478,0.76180969
ZJY,86,1,2024-06-13T06:38:00.149Z,english_291.wav,0,0,2034,,,,,9,0.9,-91.79765348,0.40398826
ZJY,86,1,2024-06-13T06:38:00.149Z,english_291.wav,0,0,2034,,,,,10,1,39.55856781,0.49665503
ZJY,86,1,2024-06-13T06:38:00.149Z,english_291.wav,0,0,2034,,,,,11,1.09391667,64.357963,1.15353833
ZJY,87,1,2024-06-13T06:38:00.149Z,english_74.wav,0,1,284,,,,,0,0,24.65162801,0.19950325
ZJY,87,1,2024-06-13T06:38:00.149Z,english_74.wav,0,1,284,,,,,1,0.1,-30.39880554,1.43111439
ZJY,87,1,2024-06-13T06:38:00.149Z,english_74.wav,0,1,284,,,,,2,0.2,-41.38450202,0.7414266
ZJY,87,1,2024-06-13T06:38:00.149Z,english_74.wav,0,1,284,,,,,3,0.3,31.11276598,1.07627737
ZJY,87,1,2024-06-13T06:38:00.149Z,english_74.wav,0,1,284,,,,,4,0.4,-57.65294567,1.92323622
ZJY,87,1,2024-06-13T06:38:00.149Z,english_74.wav,0,1,284,,,,,5,0.5,-51.69576528,1.17854767
ZJY,87,1,2024-06-13T06:38:00.149Z,english_74.wav,0,1,284,,,,,6,0.6,24.90932223,0.17974996
ZJY,87,1,2024-06-13T06:38:00.149Z,english_74.wav,0,1,284,,,,,7,0.7,-33.10450871,0.92482308
ZJY,87,1,2024-06-13T06:38:00.149Z,english_74.wav,0,1,284,,,,,8,0.8,-69.97293112,0.31413891
ZJY,87,1,2024-06-13T06:38:00.149Z,english_74.wav,0,1,284,,,,,9,0.9,88.74386832,1.87630938
ZJY,87,1,2024-06-13T06:38:00.149Z,english_74.wav,0,1,284,,,,,10,1,-68.30431972,1.39265686
ZJY,87,1,2024-06-13T06:38:00.149Z,english_74.wav,0,1,284,,,,,11,1.09391667,-30.20733398,0.32158433
ZJY,88,1,2024-06-13T06:38:00.149Z,english_885.wav,0,0,237,,,,,0,0,54.55471531,1.33761042
ZJY,88,1,2024-06-13T06:38:00.149Z,english_885.wav,0,0,237,,,,,1,0.1,-9.45538995,0.16839263
ZJY,88,1,2024-06-13T06:38:00.149Z,english_885.wav,0,0,237,,,,,2,0.2,51.71669589,0.15282828
ZJY,88,1,2024-06-13T06:38:00.149Z,english_885.wav,0,0,237,,,,,3,0.3,35.30778931,0.93528856
ZJY,88,1,2024-06-13T06:38:00.149Z,english_885.wav,0,0,237,,,,,4,0.4,20.62870104,0.42450529
ZJY,88,1,2024-06-13T06:38:00.149Z,english_885.wav,0,0,237,,,,,5,0.5,45.97492152,1.13086713
ZJY,88,1,2024-06-13T06:38:00.149Z,english_885.wav,0,0,237,,,,,6,0.6,57.72908242,1.16302136
ZJY,88,1,2024-06-13T06:38:00.149Z,english_885.wav,0,0,237,,,,,7,0.7,-7.90762664,1.12991064
ZJY,88,1,2024-06-13T06:38:00.149Z,english_885.wav,0,0,237,,,,,8,0.8,-27.43803549,0.98725245
ZJY,88,1,2024-06-13T06:38:00.149Z,english_885.wav,0,0,237,,,,,9,0.9,-45.75999486,0.61152154
ZJY,88,1,2024-06-13T06:38:00.149Z,english_885.wav,0,0,237,,,,,10,1,65.06809526,0.86912983
ZJY,88,1,2024-06-13T06:38:00.149Z,english_885.wav,0,0,237,,,,,11,1.09391667,85.31433116,0.92468658
ZJY,89,1,2024-06-13T06:38:00.149Z,english_399.wav,0,1,272,,,,,0,0,7.35119233,1.43512774
ZJY,89,1,2024-06-13T06:38:00.149Z,english_399.wav,0,1,272,,,,,1,0.1,7.30105906,1.7056904
ZJY,89,1,2024-06-13T06:38:00.149Z,english_399.wav,0,1,272,,,,,2,0.2,-55.03587691,1.60882656
ZJY,89,1,2024-06-13T06:38:00.149Z,english_399.wav,0,1,272,,,,,3,0.3,63.9361431,1.57397844
ZJY,89,1,2024-06-13T06:38:00.149Z,english_399.wav,0,1,272,,,,,4,0.4,44.6049307,0.93377042
ZJY,89,1,2024-06-13T06:38:00.149Z,english_399.wav,0,1,272,,,,,5,0.5,68.42668929,1.9481779
ZJY,89,1,2024-06-13T06:38:00.149Z,english_399.wav,0,1,272,,,,,6,0.6,54.53895784,1.40688071
ZJY,89,1,2024-06-13T06:38:00.149Z,english_399.wav,0,1,272,,,,,7,0.7,87.63954028,0.69376281
ZJY,89,1,2024-06-13T06:38:00.149Z,english_399.wav,0,1,272,,,,,8,0.8,-0.41432999,1.28838791
ZJY,89,1,2024-06-13T06:38:00.149Z,english_399.wav,0,1,272,,,,,9,0.9,24.60615905,0.52758228
ZJY,89,1,2024-06-13T06:38:00.149Z,english_399.wav,0,1,272,,,,,10,1,-97.67130798,0.96519431
ZJY,89,1,2024-06-13T06:38:00.149Z,english_399.wav,0,1,272,,,,,11,1.09391667,61.44027276,1.05566464
ZJY,90,1,2024-06-13T06:38:00.149Z,english_90.wav,0,0,305,,,,,0,0,63.54924995,1.34228215
ZJY,90,1,2024-06-13T06:38:00.149Z,english_90.wav,0,0,305,,,,,1,0.1,-59.21327506,1.34732724
ZJY,90,1,2024-06-13T06:38:00.149Z,english_90.wav,0,0,305,,,,,2,0.2,34.58495613,1.75147993
ZJY,90,1,2024-06-13T06:38:00.149Z,english_90.wav,0,0,305,,,,,3,0.3,3.2427236,0.03089284
ZJY,90,1,2024-06-13T06:38:00.149Z,english_90.wav,0,0,305,,,,,4,0.4,1.17936493,1.52341973
ZJY,90,1,2024-06-13T06:38:00.149Z,english_90.wav,0,0,305,,,,,5,0.5,50.51297544,0.97925583
ZJY,90,1,2024-06-13T06:38:00.149Z,english_90.wav,0,0,305,,,,,6,0.6,61.04656064,1.17642538
ZJY,90,1,2024-06-13T06:38:00.149Z,english_90.wav,0,0,305,,,,,7,0.7,-96.36424089,1.13367306
ZJY,90,1,2024-06-13T06:38:00.149Z,english_90.wav,0,0,305,,,,,8,0.8,9.94738881,1.45431282
ZJY,90,1,2024-06-13T06:38:00.149Z,english_90.wav,0,0,305,,,,,9,0.9,-95.56108651,0.56738547
ZJY,90,1,2024-06-13T06:38:00.149Z,english_90.wav,0,0,305,,,,,10,1,-78.91453265,1.10123663
ZJY,90,1,2024-06-13T06:38:00.149Z,english_90.wav,0,0,305,,,,,11,1.09391667,57.06664979,0.76686745
