subj,trial,block,date,stim,stim_order,response,rt,age,english,language,sex,param_index,segment,pitch,stretch
YRY,0,0,2024-06-14T12:48:02.904Z,english_682.wav,0,0,1588,23,4,Mandarin,f,0,0,-53.22260556,0.39279529
YRY,0,0,2024-06-14T12:48:02.904Z,english_682.wav,0,0,1588,23,4,Mandarin,f,1,0.1,86.77650228,0.89629602
YRY,0,0,2024-06-14T12:48:02.904Z,english_682.wav,0,0,1588,23,4,Mandarin,f,2,0.2,9.77253821,1.02748966
YRY,0,0,2024-06-14T12:48:02.904Z,english_682.wav,0,0,1588,23,4,Mandarin,f,3,0.3,11.03493207,0.21487606
YRY,0,0,2024-06-14T12:48:02.904Z,english_682.wav,0,0,1588,23,4,Mandarin,f,4,0.4,-49.40991028,0.85817313
YRY,0,0,2024-06-14T12:48:02.904Z,english_682.wav,0,0,1588,23,4,Mandarin,f,5,0.5,40.78961249,0.23854774
YRY,0,0,2024-06-14T12:48:02.904Z,english_682.wav,0,0,1588,23,4,Mandarin,f,6,0.6,0.17613347,1.76515504
YRY,0,0,2024-06-14T12:48:02.904Z,english_682.wav,0,0,1588,23,4,Mandarin,f,7,0.7,-59.60480948,0.66287763
YRY,0,0,2024-06-14T12:48:02.904Z,english_682.wav,0,0,1588,23,4,Mandarin,f,8,0.8,-70.7429322,0.73367901
YRY,0,0,2024-06-14T12:48:02.904Z,english_682.wav,0,0,1588,23,4,Mandarin,f,9,0.9,73.80660993,0.47936557
YRY,0,0,2024-06-14T12:48:02.904Z,english_682.wav,0,0,1588,23,4,Mandarin,f,10,1,20.51556505,1.06722754
YRY,0,0,2024-06-14T12:48:02.904Z,english_682.wav,0,0,1588,23,4,Mandarin,f,11,1.09391667,45.26798103,1.8777792
YRY,1,0,2024-06-14T12:48:02.904Z,english_413.wav,0,1,168,23,4,Mandarin,f,0,0,14.83112151,0.44215223
YRY,1,0,2024-06-14T12:48:02.904Z,english_413.wav,0,1,168,23,4,Mandarin,f,1,0.1,11.76914083,1.16902386
YRY,1,0,2024-06-14T12:48:02.904Z,english_413.wav,0,1,168,23,4,Mandarin,f,2,0.2,56.99835841,1.34778137
YRY,1,0,2024-06-14T12:48:02.904Z,english_413.wav,0,1,168,23,4,Mandarin,f,3,0.3,-91.21705368,1.75286116
YRY,1,0,2024-06-14T12:48:02.904Z,english_413.wav,0,1,168,23,4,Mandarin,f,4,0.4,45.54032704,0.59475232
YRY,1,0,2024-06-14T12:48:02.904Z,english_413.wav,0,1,168,23,4,Mandarin,f,5,0.5,27.79493499,1.56815753
YRY,1,0,2024-06-14T12:48:02.904Z,english_413.wav,0,1,168,23,4,Mandarin,f,6,0.6,-45.92047179,1.45096495
YRY,1,0,2024-06-14T12:48:02.904Z,english_413.wav,0,1,168,23,4,Mandarin,f,7,0.7,30.6901634,1.27145961
YRY,1,0,2024-06-14T12:48:02.904Z,english_413.wav,0,1,168,23,4,Mandarin,f,8,0.8,-6.79166087,1.53710405
YRY,1,0,2024-06-14T12:48:02.904Z,english_413.wav,0,1,168,23,4,Mandarin,f,9,0.9,-73.44231095,1.76487513
YRY,1,0,2024-06-14T12:48:02.904Z,english_413.wav,0,1,168,23,4,Mandarin,f,10,1,72.98773842,1.73986125
YRY,1,0,2024-06-14T12:48:02.904Z,english_413.wav,0,1,168,23,4,Mandarin,f,11,1.09391667,-6.1173613,0.92350985
YRY,2,0,2024-06-14T12:48:02.904Z,english_18.wav,0,0,641,23,4,Mandarin,f,0,0,-34.26622777,1.34360385
YRY,2,0,2024-06-14T12:48:02.904Z,english_18.wav,0,0,641,23,4,Mandarin,f,1,0.1,-75.64955683,1.57489552
YRY,2,0,2024-06-14T12:48:02.904Z,english_18.wav,0,0,641,23,4,Mandarin,f,2,0.2,-27.92679038,0.39363555
YRY,2,0,2024-06-14T12:48:02.904Z,english_18.wav,0,0,641,23,4,Mandarin,f,3,0.3,-19.62027656,0.89611778
YRY,2,0,2024-06-14T12:48:02.904Z,english_18.wav,0,0,641,23,4,Mandarin,f,4,0.4,-20.32459895,1.50747647
YRY,2,0,2024-06-14T12:48:02.904Z,english_18.wav,0,0,641,23,4,Mandarin,f,5,0.5,0.79905947,0.43558214
YRY,2,0,2024-06-14T12:48:02.904Z,english_18.wav,0,0,641,23,4,Mandarin,f,6,0.6,8.10958223,1.91834816
YRY,2,0,2024-06-14T12:48:02.904Z,english_18.wav,0,0,641,23,4,Mandarin,f,7,0.7,-12.88361986,0.90012517
YRY,2,0,2024-06-14T12:48:02.904Z,english_18.wav,0,0,641,23,4,Mandarin,f,8,0.8,74.6796053,0.69419363
YRY,2,0,2024-06-14T12:48:02.904Z,english_18.wav,0,0,641,23,4,Mandarin,f,9,0.9,13.61359807,0.27849068
YRY,2,0,2024-06-14T12:48:02.904Z,english_18.wav,0,0,641,23,4,Mandarin,f,10,1,-21.69070415,0.10490824
YRY,2,0,2024-06-14T12:48:02.904Z,english_18.wav,0,0,641,23,4,Mandarin,f,11,1.09391667,-57.34652915,1.33460981
YRY,3,0,2024-06-14T12:48:02.904Z,english_230.wav,0,1,989,23,4,Mandarin,f,0,0,33.38389537,1.56748289
YRY,3,0,2024-06-14T12:48:02.904Z,english_230.wav,0,1,989,23,4,Mandarin,f,1,0.1,-34.15374901,0.35840318
YRY,3,0,2024-06-14T12:48:02.904Z,english_230.wav,0,1,989,23,4,Mandarin,f,2,0.2,-17.15972141,0.69573927
YRY,3,0,2024-06-14T12:48:02.904Z,english_230.wav,0,1,989,23,4,Mandarin,f,3,0.3,-8.06213265,1.48062695
YRY,3,0,2024-06-14T12:48:02.904Z,english_230.wav,0,1,989,23,4,Mandarin,f,4,0.4,10.20192226,1.80584749
YRY,3,0,2024-06-14T12:48:02.904Z,english_230.wav,0,1,989,23,4,Mandarin,f,5,0.5,-58.60843687,0.27713833
YRY,3,0,2024-06-14T12:48:02.904Z,english_230.wav,0,1,989,23,4,Mandarin,f,6,0.6,79.76687213,0.54911174
YRY,3,0,2024-06-14T12:48:02.904Z,english_230.wav,0,1,989,23,4,Mandarin,f,7,0.7,-68.85443864,0.47648858
YRY,3,0,2024-06-14T12:48:02.904Z,english_230.wav,0,1,989,23,4,Mandarin,f,8,0.8,-14.23970475,1.61704234
YRY,3,0,2024-06-14T12:48:02.904Z,english_230.wav,0,1,989,23,4,Mandarin,f,9,0.9,-88.80466565,1.41921333
YRY,3,0,2024-06-14T12:48:02.904Z,english_230.wav,0,1,989,23,4,Mandarin,f,10,1,-64.76676699,0.47778277
YRY,3,0,2024-06-14T12:48:02.904Z,english_230.wav,0,1,989,23,4,Mandarin,f,11,1.09391667,-85.72124736,0.86213517
YRY,4,0,2024-06-14T12:48:02.904Z,english_236.wav,0,1,423,23,4,Mandarin,f,0,0,-58.47147348,1.25570844
YRY,4,0,2024-06-14T12:48:02.904Z,english_236.wav,0,1,423,23,4,Mandarin,f,1,0.1,25.25879028,1.3068123
YRY,4,0,2024-06-14T12:48:02.904Z,english_236.wav,0,1,423,23,4,Mandarin,f,2,0.2,-78.78616324,1.48831799
YRY,4,0,2024-06-14T12:48:02.904Z,english_236.wav,0,1,423,23,4,Mandarin,f,3,0.3,11.29938963,0.34919936
YRY,4,0,2024-06-14T12:48:02.904Z,english_236.wav,0,1,423,23,4,Mandarin,f,4,0.4,39.53352696,1.00725943
YRY,4,0,2024-06-14T12:48:02.904Z,english_236.wav,0,1,423,23,4,Mandarin,f,5,0.5,91.57483284,1.25472599
YRY,4,0,2024-06-14T12:48:02.904Z,english_236.wav,0,1,423,23,4,Mandarin,f,6,0.6,22.72019707,1.46652556
YRY,4,0,2024-06-14T12:48:02.904Z,english_236.wav,0,1,423,23,4,Mandarin,f,7,0.7,30.21012118,0.98566412
YRY,4,0,2024-06-14T12:48:02.904Z,english_236.wav,0,1,423,23,4,Mandarin,f,8,0.8,-41.20304871,1.93402839
YRY,4,0,2024-06-14T12:48:02.904Z,english_236.wav,0,1,423,23,4,Mandarin,f,9,0.9,28.6164571,1.61503367
YRY,4,0,2024-06-14T12:48:02.904Z,english_236.wav,0,1,423,23,4,Mandarin,f,10,1,36.23029146,0.92571768
YRY,4,0,2024-06-14T12:48:02.904Z,english_236.wav,0,1,423,23,4,Mandarin,f,11,1.09391667,-21.60177346,1.50534637
YRY,5,0,2024-06-14T12:48:02.904Z,english_790.wav,0,0,283,23,4,Mandarin,f,0,0,5.47810166,1.26408321
YRY,5,0,2024-06-14T12:48:02.904Z,english_790.wav,0,0,283,23,4,Mandarin,f,1,0.1,-9.2687044,0.26503637
YRY,5,0,2024-06-14T12:48:02.904Z,english_790.wav,0,0,283,23,4,Mandarin,f,2,0.2,71.91302434,0.46926152
YRY,5,0,2024-06-14T12:48:02.904Z,english_790.wav,0,0,283,23,4,Mandarin,f,3,0.3,-95.14086012,0.64840522
YRY,5,0,2024-06-14T12:48:02.904Z,english_790.wav,0,0,283,23,4,Mandarin,f,4,0.4,81.24819191,0.79568814
YRY,5,0,2024-06-14T12:48:02.904Z,english_790.wav,0,0,283,23,4,Mandarin,f,5,0.5,-43.38316414,0.82256958
YRY,5,0,2024-06-14T12:48:02.904Z,english_790.wav,0,0,283,23,4,Mandarin,f,6,0.6,81.5189634,1.36445651
YRY,5,0,2024-06-14T12:48:02.904Z,english_790.wav,0,0,283,23,4,Mandarin,f,7,0.7,36.28483158,0.42135765
YRY,5,0,2024-06-14T12:48:02.904Z,english_790.wav,0,0,283,23,4,Mandarin,f,8,0.8,68.43717388,0.07801016
YRY,5,0,2024-06-14T12:48:02.904Z,english_790.wav,0,0,283,23,4,Mandarin,f,9,0.9,10.19963637,0.70937824
YRY,5,0,2024-06-14T12:48:02.904Z,english_790.wav,0,0,283,23,4,Mandarin,f,10,1,-15.25841054,1.62056491
YRY,5,0,2024-06-14T12:48:02.904Z,english_790.wav,0,0,283,23,4,Mandarin,f,11,1.09391667,-62.44422803,1.67467407
YRY,6,0,2024-06-14T12:48:02.904Z,english_131.wav,0,0,3272,23,4,Mandarin,f,0,0,0.31363537,1.18724551
YRY,6,0,2024-06-14T12:48:02.904Z,english_131.wav,0,0,3272,23,4,Mandarin,f,1,0.1,36.71486201,1.11707061
YRY,6,0,2024-06-14T12:48:02.904Z,english_131.wav,0,0,3272,23,4,Mandarin,f,2,0.2,-43.77123754,0.00275246
YRY,6,0,2024-06-14T12:48:02.904Z,english_131.wav,0,0,3272,23,4,Mandarin,f,3,0.3,-25.02514695,1.15512468
YRY,6,0,2024-06-14T12:48:02.904Z,english_131.wav,0,0,3272,23,4,Mandarin,f,4,0.4,-57.33579205,1.12677457
YRY,6,0,2024-06-14T12:48:02.904Z,english_131.wav,0,0,3272,23,4,Mandarin,f,5,0.5,-86.86546268,1.05779514
YRY,6,0,2024-06-14T12:48:02.904Z,english_131.wav,0,0,3272,23,4,Mandarin,f,6,0.6,34.68309006,1.76361287
YRY,6,0,2024-06-14T12:48:02.904Z,english_131.wav,0,0,3272,23,4,Mandarin,f,7,0.7,-54.571254,1.49422438
YRY,6,0,2024-06-14T12:48:02.904Z,english_131.wav,0,0,3272,23,4,Mandarin,f,8,0.8,15.2602828,0.77084465
YRY,6,0,2024-06-14T12:48:02.904Z,english_131.wav,0,0,3272,23,4,Mandarin,f,9,0.9,37.40968803,0.77617306
YRY,6,0,2024-06-14T12:48:02.904Z,english_131.wav,0,0,3272,23,4,Mandarin,f,10,1,-75.44923375,0.87602882
YRY,6,0,2024-06-14T12:48:02.904Z,english_131.wav,0,0,3272,23,4,Mandarin,f,11,1.09391667,22.36121129,1.56580011
YRY,7,0,2024-06-14T12:48:02.904Z,english_350.wav,0,0,499,23,4,Mandarin,f,0,0,-49.74850435,0.22554434
YRY,7,0,2024-06-14T12:48:02.904Z,english_350.wav,0,0,499,23,4,Mandarin,f,1,0.1,68.30317627,1.05889666
YRY,7,0,2024-06-14T12:48:02.904Z,english_350.wav,0,0,499,23,4,Mandarin,f,2,0.2,-65.19955472,1.66837242
YRY,7,0,2024-06-14T12:48:02.904Z,english_350.wav,0,0,499,23,4,Mandarin,f,3,0.3,16.55905503,1.26247407
YRY,7,0,2024-06-14T12:48:02.904Z,english_350.wav,0,0,499,23,4,Mandarin,f,4,0.4,-91.2937095,1.50505412
YRY,7,0,2024-06-14T12:48:02.904Z,english_350.wav,0,0,499,23,4,Mandarin,f,5,0.5,15.43319067,1.94963106
YRY,7,0,2024-06-14T12:48:02.904Z,english_350.wav,0,0,499,23,4,Mandarin,f,6,0.6,-45.85963286,1.1132199
YRY,7,0,2024-06-14T12:48:02.904Z,english_350.wav,0,0,499,23,4,Mandarin,f,7,0.7,19.61186346,0.36047723
YRY,7,0,2024-06-14T12:48:02.904Z,english_350.wav,0,0,499,23,4,Mandarin,f,8,0.8,-16.08875957,0.33369352
YRY,7,0,2024-06-14T12:48:02.904Z,english_350.wav,0,0,499,23,4,Mandarin,f,9,0.9,46.96260951,0.35479608
YRY,7,0,2024-06-14T12:48:02.904Z,english_350.wav,0,0,499,23,4,Mandarin,f,10,1,42.75278918,0.24605451
YRY,7,0,2024-06-14T12:48:02.904Z,english_350.wav,0,0,499,23,4,Mandarin,f,11,1.09391667,-15.03240418,1.96587805
YRY,8,0,2024-06-14T12:48:02.904Z,english_691.wav,0,0,841,23,4,Mandarin,f,0,0,53.99142335,1.37901611
YRY,8,0,2024-06-14T12:48:02.904Z,english_691.wav,0,0,841,23,4,Mandarin,f,1,0.1,59.99308562,0.48516991
YRY,8,0,2024-06-14T12:48:02.904Z,english_691.wav,0,0,841,23,4,Mandarin,f,2,0.2,-83.77980644,1.93939228
YRY,8,0,2024-06-14T12:48:02.904Z,english_691.wav,0,0,841,23,4,Mandarin,f,3,0.3,5.55909075,1.80900702
YRY,8,0,2024-06-14T12:48:02.904Z,english_691.wav,0,0,841,23,4,Mandarin,f,4,0.4,23.79459539,0.81475575
YRY,8,0,2024-06-14T12:48:02.904Z,english_691.wav,0,0,841,23,4,Mandarin,f,5,0.5,-52.64546011,0.95195088
YRY,8,0,2024-06-14T12:48:02.904Z,english_691.wav,0,0,841,23,4,Mandarin,f,6,0.6,2.68270455,1.3919478
YRY,8,0,2024-06-14T12:48:02.904Z,english_691.wav,0,0,841,23,4,Mandarin,f,7,0.7,-52.61692888,0.70729183
YRY,8,0,2024-06-14T12:48:02.904Z,english_691.wav,0,0,841,23,4,Mandarin,f,8,0.8,-36.65533837,1.61794077
YRY,8,0,2024-06-14T12:48:02.904Z,english_691.wav,0,0,841,23,4,Mandarin,f,9,0.9,-75.69832194,0.1770134
YRY,8,0,2024-06-14T12:48:02.904Z,english_691.wav,0,0,841,23,4,Mandarin,f,10,1,1.92131533,0.51863844
YRY,8,0,2024-06-14T12:48:02.904Z,english_691.wav,0,0,841,23,4,Mandarin,f,11,1.09391667,-54.35087966,0.34478655
YRY,9,0,2024-06-14T12:48:02.904Z,english_587.wav,0,1,379,23,4,Mandarin,f,0,0,-43.40275294,0.40076924
YRY,9,0,2024-06-14T12:48:02.904Z,english_587.wav,0,1,379,23,4,Mandarin,f,1,0.1,-37.77994111,1.21668484
YRY,9,0,2024-06-14T12:48:02.904Z,english_587.wav,0,1,379,23,4,Mandarin,f,2,0.2,83.99553821,1.2277233
YRY,9,0,2024-06-14T12:48:02.904Z,english_587.wav,0,1,379,23,4,Mandarin,f,3,0.3,-96.01654656,0.71292194
YRY,9,0,2024-06-14T12:48:02.904Z,english_587.wav,0,1,379,23,4,Mandarin,f,4,0.4,-9.71349701,0.26055353
YRY,9,0,2024-06-14T12:48:02.904Z,english_587.wav,0,1,379,23,4,Mandarin,f,5,0.5,-47.87514317,1.66513876
YRY,9,0,2024-06-14T12:48:02.904Z,english_587.wav,0,1,379,23,4,Mandarin,f,6,0.6,12.68053189,0.2591497
YRY,9,0,2024-06-14T12:48:02.904Z,english_587.wav,0,1,379,23,4,Mandarin,f,7,0.7,47.90702589,0.90449777
YRY,9,0,2024-06-14T12:48:02.904Z,english_587.wav,0,1,379,23,4,Mandarin,f,8,0.8,-78.79796743,0.87118045
YRY,9,0,2024-06-14T12:48:02.904Z,english_587.wav,0,1,379,23,4,Mandarin,f,9,0.9,-5.96294959,1.32264247
YRY,9,0,2024-06-14T12:48:02.904Z,english_587.wav,0,1,379,23,4,Mandarin,f,10,1,11.2587131,1.86277567
YRY,9,0,2024-06-14T12:48:02.904Z,english_587.wav,0,1,379,23,4,Mandarin,f,11,1.09391667,-13.10275262,0.24936359
YRY,10,0,2024-06-14T12:48:02.904Z,english_244.wav,0,1,5768,23,4,Mandarin,f,0,0,-16.89000739,1.36645613
YRY,10,0,2024-06-14T12:48:02.904Z,english_244.wav,0,1,5768,23,4,Mandarin,f,1,0.1,13.88621899,0.22689892
YRY,10,0,2024-06-14T12:48:02.904Z,english_244.wav,0,1,5768,23,4,Mandarin,f,2,0.2,19.5320734,0.7498897
YRY,10,0,2024-06-14T12:48:02.904Z,english_244.wav,0,1,5768,23,4,Mandarin,f,3,0.3,77.5555311,0.5439009
YRY,10,0,2024-06-14T12:48:02.904Z,english_244.wav,0,1,5768,23,4,Mandarin,f,4,0.4,-1.54182751,1.43453656
YRY,10,0,2024-06-14T12:48:02.904Z,english_244.wav,0,1,5768,23,4,Mandarin,f,5,0.5,-50.64945855,1.75844179
YRY,10,0,2024-06-14T12:48:02.904Z,english_244.wav,0,1,5768,23,4,Mandarin,f,6,0.6,-35.36321005,1.54599597
YRY,10,0,2024-06-14T12:48:02.904Z,english_244.wav,0,1,5768,23,4,Mandarin,f,7,0.7,-43.62157267,0.6923522
YRY,10,0,2024-06-14T12:48:02.904Z,english_244.wav,0,1,5768,23,4,Mandarin,f,8,0.8,3.96205992,0.7002794
YRY,10,0,2024-06-14T12:48:02.904Z,english_244.wav,0,1,5768,23,4,Mandarin,f,9,0.9,54.24324678,1.06972568
YRY,10,0,2024-06-14T12:48:02.904Z,english_244.wav,0,1,5768,23,4,Mandarin,f,10,1,76.68152807,1.30720641
YRY,10,0,2024-06-14T12:48:02.904Z,english_244.wav,0,1,5768,23,4,Mandarin,f,11,1.09391667,-97.15661366,0.50703606
YRY,11,0,2024-06-14T12:48:02.904Z,english_459.wav,0,1,463,23,4,Mandarin,f,0,0,18.44381796,0.62620118
YRY,11,0,2024-06-14T12:48:02.904Z,english_459.wav,0,1,463,23,4,Mandarin,f,1,0.1,46.92875809,1.02677372
YRY,11,0,2024-06-14T12:48:02.904Z,english_459.wav,0,1,463,23,4,Mandarin,f,2,0.2,-3.83763253,0.887778
YRY,11,0,2024-06-14T12:48:02.904Z,english_459.wav,0,1,463,23,4,Mandarin,f,3,0.3,-48.73372346,0.9749461
YRY,11,0,2024-06-14T12:48:02.904Z,english_459.wav,0,1,463,23,4,Mandarin,f,4,0.4,-14.92000294,0.21389959
YRY,11,0,2024-06-14T12:48:02.904Z,english_459.wav,0,1,463,23,4,Mandarin,f,5,0.5,80.1348202,0.5331643
YRY,11,0,2024-06-14T12:48:02.904Z,english_459.wav,0,1,463,23,4,Mandarin,f,6,0.6,-86.26167397,0.89101651
YRY,11,0,2024-06-14T12:48:02.904Z,english_459.wav,0,1,463,23,4,Mandarin,f,7,0.7,-1.56579515,1.30262719
YRY,11,0,2024-06-14T12:48:02.904Z,english_459.wav,0,1,463,23,4,Mandarin,f,8,0.8,-19.43568929,1.62880583
YRY,11,0,2024-06-14T12:48:02.904Z,english_459.wav,0,1,463,23,4,Mandarin,f,9,0.9,7.94105636,1.73371658
YRY,11,0,2024-06-14T12:48:02.904Z,english_459.wav,0,1,463,23,4,Mandarin,f,10,1,85.15006258,0.16404372
YRY,11,0,2024-06-14T12:48:02.904Z,english_459.wav,0,1,463,23,4,Mandarin,f,11,1.09391667,-33.12026838,1.85143865
YRY,12,0,2024-06-14T12:48:02.904Z,english_500.wav,0,1,321,23,4,Mandarin,f,0,0,66.22088329,0.53820699
YRY,12,0,2024-06-14T12:48:02.904Z,english_500.wav,0,1,321,23,4,Mandarin,f,1,0.1,-5.13412803,0.50417448
YRY,12,0,2024-06-14T12:48:02.904Z,english_500.wav,0,1,321,23,4,Mandarin,f,2,0.2,-6.11874153,1.24224985
YRY,12,0,2024-06-14T12:48:02.904Z,english_500.wav,0,1,321,23,4,Mandarin,f,3,0.3,-90.40360626,1.39300909
YRY,12,0,2024-06-14T12:48:02.904Z,english_500.wav,0,1,321,23,4,Mandarin,f,4,0.4,32.06545372,1.26037646
YRY,12,0,2024-06-14T12:48:02.904Z,english_500.wav,0,1,321,23,4,Mandarin,f,5,0.5,-65.0306572,1.07818355
YRY,12,0,2024-06-14T12:48:02.904Z,english_500.wav,0,1,321,23,4,Mandarin,f,6,0.6,-6.23225895,1.23543803
YRY,12,0,2024-06-14T12:48:02.904Z,english_500.wav,0,1,321,23,4,Mandarin,f,7,0.7,-23.5823243,1.80782898
YRY,12,0,2024-06-14T12:48:02.904Z,english_500.wav,0,1,321,23,4,Mandarin,f,8,0.8,77.81337781,0.94957733
YRY,12,0,2024-06-14T12:48:02.904Z,english_500.wav,0,1,321,23,4,Mandarin,f,9,0.9,-20.41987669,0.60641079
YRY,12,0,2024-06-14T12:48:02.904Z,english_500.wav,0,1,321,23,4,Mandarin,f,10,1,21.49612229,1.83181528
YRY,12,0,2024-06-14T12:48:02.904Z,english_500.wav,0,1,321,23,4,Mandarin,f,11,1.09391667,9.32174873,0.67500242
YRY,13,0,2024-06-14T12:48:02.904Z,english_109.wav,0,0,743,23,4,Mandarin,f,0,0,-85.35755776,0.86429356
YRY,13,0,2024-06-14T12:48:02.904Z,english_109.wav,0,0,743,23,4,Mandarin,f,1,0.1,24.87794389,1.54320329
YRY,13,0,2024-06-14T12:48:02.904Z,english_109.wav,0,0,743,23,4,Mandarin,f,2,0.2,88.66282845,0.73186937
YRY,13,0,2024-06-14T12:48:02.904Z,english_109.wav,0,0,743,23,4,Mandarin,f,3,0.3,53.91159302,0.759779
YRY,13,0,2024-06-14T12:48:02.904Z,english_109.wav,0,0,743,23,4,Mandarin,f,4,0.4,-2.76092074,1.4946261
YRY,13,0,2024-06-14T12:48:02.904Z,english_109.wav,0,0,743,23,4,Mandarin,f,5,0.5,79.99538148,1.48350308
YRY,13,0,2024-06-14T12:48:02.904Z,english_109.wav,0,0,743,23,4,Mandarin,f,6,0.6,-42.31150981,1.90894472
YRY,13,0,2024-06-14T12:48:02.904Z,english_109.wav,0,0,743,23,4,Mandarin,f,7,0.7,-5.15781481,0.02998442
YRY,13,0,2024-06-14T12:48:02.904Z,english_109.wav,0,0,743,23,4,Mandarin,f,8,0.8,31.3978044,0.89047781
YRY,13,0,2024-06-14T12:48:02.904Z,english_109.wav,0,0,743,23,4,Mandarin,f,9,0.9,46.94636463,1.05504638
YRY,13,0,2024-06-14T12:48:02.904Z,english_109.wav,0,0,743,23,4,Mandarin,f,10,1,63.69340257,0.96709735
YRY,13,0,2024-06-14T12:48:02.904Z,english_109.wav,0,0,743,23,4,Mandarin,f,11,1.09391667,10.97812261,0.43676298
YRY,14,0,2024-06-14T12:48:02.904Z,english_658.wav,0,0,575,23,4,Mandarin,f,0,0,28.12480694,0.12118838
YRY,14,0,2024-06-14T12:48:02.904Z,english_658.wav,0,0,575,23,4,Mandarin,f,1,0.1,17.57040955,1.52191588
YRY,14,0,2024-06-14T12:48:02.904Z,english_658.wav,0,0,575,23,4,Mandarin,f,2,0.2,57.56255577,1.14331833
YRY,14,0,2024-06-14T12:48:02.904Z,english_658.wav,0,0,575,23,4,Mandarin,f,3,0.3,-3.0966162,0.60390633
YRY,14,0,2024-06-14T12:48:02.904Z,english_658.wav,0,0,575,23,4,Mandarin,f,4,0.4,6.39522781,0.27160458
YRY,14,0,2024-06-14T12:48:02.904Z,english_658.wav,0,0,575,23,4,Mandarin,f,5,0.5,16.02438064,0.17957329
YRY,14,0,2024-06-14T12:48:02.904Z,english_658.wav,0,0,575,23,4,Mandarin,f,6,0.6,-1.20192687,0.27771517
YRY,14,0,2024-06-14T12:48:02.904Z,english_658.wav,0,0,575,23,4,Mandarin,f,7,0.7,-8.08463242,0.60605354
YRY,14,0,2024-06-14T12:48:02.904Z,english_658.wav,0,0,575,23,4,Mandarin,f,8,0.8,-12.30429445,1.71812783
YRY,14,0,2024-06-14T12:48:02.904Z,english_658.wav,0,0,575,23,4,Mandarin,f,9,0.9,-0.5409395,0.55654772
YRY,14,0,2024-06-14T12:48:02.904Z,english_658.wav,0,0,575,23,4,Mandarin,f,10,1,25.97570406,1.53064605
YRY,14,0,2024-06-14T12:48:02.904Z,english_658.wav,0,0,575,23,4,Mandarin,f,11,1.09391667,75.76475536,1.32831885
YRY,15,0,2024-06-14T12:48:02.904Z,english_862.wav,0,0,554,23,4,Mandarin,f,0,0,21.21965496,0.74332802
YRY,15,0,2024-06-14T12:48:02.904Z,english_862.wav,0,0,554,23,4,Mandarin,f,1,0.1,-28.10028624,0.09938773
YRY,15,0,2024-06-14T12:48:02.904Z,english_862.wav,0,0,554,23,4,Mandarin,f,2,0.2,87.2285398,0.50575358
YRY,15,0,2024-06-14T12:48:02.904Z,english_862.wav,0,0,554,23,4,Mandarin,f,3,0.3,41.56317367,0.643087
YRY,15,0,2024-06-14T12:48:02.904Z,english_862.wav,0,0,554,23,4,Mandarin,f,4,0.4,-7.26177219,0.60738988
YRY,15,0,2024-06-14T12:48:02.904Z,english_862.wav,0,0,554,23,4,Mandarin,f,5,0.5,82.03356609,0.78763104
YRY,15,0,2024-06-14T12:48:02.904Z,english_862.wav,0,0,554,23,4,Mandarin,f,6,0.6,-50.47589124,1.37786949
YRY,15,0,2024-06-14T12:48:02.904Z,english_862.wav,0,0,554,23,4,Mandarin,f,7,0.7,-94.47584418,1.33601808
YRY,15,0,2024-06-14T12:48:02.904Z,english_862.wav,0,0,554,23,4,Mandarin,f,8,0.8,-25.95412099,1.06645132
YRY,15,0,2024-06-14T12:48:02.904Z,english_862.wav,0,0,554,23,4,Mandarin,f,9,0.9,99.30679825,1.13650404
YRY,15,0,2024-06-14T12:48:02.904Z,english_862.wav,0,0,554,23,4,Mandarin,f,10,1,62.70648748,0.36591568
YRY,15,0,2024-06-14T12:48:02.904Z,english_862.wav,0,0,554,23,4,Mandarin,f,11,1.09391667,64.43642371,1.86759313
YRY,16,0,2024-06-14T12:48:02.904Z,english_976.wav,0,1,617,23,4,Mandarin,f,0,0,-7.94823885,1.93996979
YRY,16,0,2024-06-14T12:48:02.904Z,english_976.wav,0,1,617,23,4,Mandarin,f,1,0.1,96.34184584,0.68967214
YRY,16,0,2024-06-14T12:48:02.904Z,english_976.wav,0,1,617,23,4,Mandarin,f,2,0.2,-33.68410723,1.52037239
YRY,16,0,2024-06-14T12:48:02.904Z,english_976.wav,0,1,617,23,4,Mandarin,f,3,0.3,71.00734619,0.92144072
YRY,16,0,2024-06-14T12:48:02.904Z,english_976.wav,0,1,617,23,4,Mandarin,f,4,0.4,-73.42321757,1.16805043
YRY,16,0,2024-06-14T12:48:02.904Z,english_976.wav,0,1,617,23,4,Mandarin,f,5,0.5,68.14494718,0.75881772
YRY,16,0,2024-06-14T12:48:02.904Z,english_976.wav,0,1,617,23,4,Mandarin,f,6,0.6,72.66069131,0.99023479
YRY,16,0,2024-06-14T12:48:02.904Z,english_976.wav,0,1,617,23,4,Mandarin,f,7,0.7,-46.1327141,1.21750342
YRY,16,0,2024-06-14T12:48:02.904Z,english_976.wav,0,1,617,23,4,Mandarin,f,8,0.8,-13.93014286,1.7476055
YRY,16,0,2024-06-14T12:48:02.904Z,english_976.wav,0,1,617,23,4,Mandarin,f,9,0.9,53.41967838,1.87214478
YRY,16,0,2024-06-14T12:48:02.904Z,english_976.wav,0,1,617,23,4,Mandarin,f,10,1,-12.62377888,0.1004517
YRY,16,0,2024-06-14T12:48:02.904Z,english_976.wav,0,1,617,23,4,Mandarin,f,11,1.09391667,-9.46767518,1.64660027
YRY,17,0,2024-06-14T12:48:02.904Z,english_615.wav,0,0,422,23,4,Mandarin,f,0,0,-59.46419525,1.45272118
YRY,17,0,2024-06-14T12:48:02.904Z,english_615.wav,0,0,422,23,4,Mandarin,f,1,0.1,57.8993682,1.05218588
YRY,17,0,2024-06-14T12:48:02.904Z,english_615.wav,0,0,422,23,4,Mandarin,f,2,0.2,96.50473449,0.16877242
YRY,17,0,2024-06-14T12:48:02.904Z,english_615.wav,0,0,422,23,4,Mandarin,f,3,0.3,70.35497861,0.80491698
YRY,17,0,2024-06-14T12:48:02.904Z,english_615.wav,0,0,422,23,4,Mandarin,f,4,0.4,41.87750843,0.90543026
YRY,17,0,2024-06-14T12:48:02.904Z,english_615.wav,0,0,422,23,4,Mandarin,f,5,0.5,-81.49095224,1.05177913
YRY,17,0,2024-06-14T12:48:02.904Z,english_615.wav,0,0,422,23,4,Mandarin,f,6,0.6,57.42750946,0.09637859
YRY,17,0,2024-06-14T12:48:02.904Z,english_615.wav,0,0,422,23,4,Mandarin,f,7,0.7,4.11503666,0.17788962
YRY,17,0,2024-06-14T12:48:02.904Z,english_615.wav,0,0,422,23,4,Mandarin,f,8,0.8,-69.97079252,0.7335246
YRY,17,0,2024-06-14T12:48:02.904Z,english_615.wav,0,0,422,23,4,Mandarin,f,9,0.9,35.15344639,1.1040214
YRY,17,0,2024-06-14T12:48:02.904Z,english_615.wav,0,0,422,23,4,Mandarin,f,10,1,-81.03238812,0.9742901
YRY,17,0,2024-06-14T12:48:02.904Z,english_615.wav,0,0,422,23,4,Mandarin,f,11,1.09391667,-73.59723868,0.84036339
YRY,18,0,2024-06-14T12:48:02.904Z,english_864.wav,0,1,734,23,4,Mandarin,f,0,0,-0.0387960156,1.23414585
YRY,18,0,2024-06-14T12:48:02.904Z,english_864.wav,0,1,734,23,4,Mandarin,f,1,0.1,38.1316994,0.9307675
YRY,18,0,2024-06-14T12:48:02.904Z,english_864.wav,0,1,734,23,4,Mandarin,f,2,0.2,-27.0649645,0.03913176
YRY,18,0,2024-06-14T12:48:02.904Z,english_864.wav,0,1,734,23,4,Mandarin,f,3,0.3,48.6299289,0.1581059
YRY,18,0,2024-06-14T12:48:02.904Z,english_864.wav,0,1,734,23,4,Mandarin,f,4,0.4,-73.1690056,1.26848515
YRY,18,0,2024-06-14T12:48:02.904Z,english_864.wav,0,1,734,23,4,Mandarin,f,5,0.5,-28.1080401,1.70642176
YRY,18,0,2024-06-14T12:48:02.904Z,english_864.wav,0,1,734,23,4,Mandarin,f,6,0.6,47.3805694,1.16045112
YRY,18,0,2024-06-14T12:48:02.904Z,english_864.wav,0,1,734,23,4,Mandarin,f,7,0.7,-91.4211748,1.92718933
YRY,18,0,2024-06-14T12:48:02.904Z,english_864.wav,0,1,734,23,4,Mandarin,f,8,0.8,5.88699375,0.86462582
YRY,18,0,2024-06-14T12:48:02.904Z,english_864.wav,0,1,734,23,4,Mandarin,f,9,0.9,88.3416583,0.91973589
YRY,18,0,2024-06-14T12:48:02.904Z,english_864.wav,0,1,734,23,4,Mandarin,f,10,1,-36.7945697,0.59650291
YRY,18,0,2024-06-14T12:48:02.904Z,english_864.wav,0,1,734,23,4,Mandarin,f,11,1.09391667,-60.7645339,0.61493886
YRY,19,0,2024-06-14T12:48:02.904Z,english_593.wav,0,0,925,23,4,Mandarin,f,0,0,13.70313969,0.31776168
YRY,19,0,2024-06-14T12:48:02.904Z,english_593.wav,0,0,925,23,4,Mandarin,f,1,0.1,-26.02533881,1.39381701
YRY,19,0,2024-06-14T12:48:02.904Z,english_593.wav,0,0,925,23,4,Mandarin,f,2,0.2,50.8702686,0.5191281
YRY,19,0,2024-06-14T12:48:02.904Z,english_593.wav,0,0,925,23,4,Mandarin,f,3,0.3,26.063803,0.69401342
YRY,19,0,2024-06-14T12:48:02.904Z,english_593.wav,0,0,925,23,4,Mandarin,f,4,0.4,-79.95092445,0.71717885
YRY,19,0,2024-06-14T12:48:02.904Z,english_593.wav,0,0,925,23,4,Mandarin,f,5,0.5,-94.01020979,0.74327862
YRY,19,0,2024-06-14T12:48:02.904Z,english_593.wav,0,0,925,23,4,Mandarin,f,6,0.6,-33.71882566,1.75165486
YRY,19,0,2024-06-14T12:48:02.904Z,english_593.wav,0,0,925,23,4,Mandarin,f,7,0.7,-16.71092424,0.78541269
YRY,19,0,2024-06-14T12:48:02.904Z,english_593.wav,0,0,925,23,4,Mandarin,f,8,0.8,-31.84366891,0.5067154
YRY,19,0,2024-06-14T12:48:02.904Z,english_593.wav,0,0,925,23,4,Mandarin,f,9,0.9,-64.24810633,1.19882101
YRY,19,0,2024-06-14T12:48:02.904Z,english_593.wav,0,0,925,23,4,Mandarin,f,10,1,73.5130108,0.30708851
YRY,19,0,2024-06-14T12:48:02.904Z,english_593.wav,0,0,925,23,4,Mandarin,f,11,1.09391667,1.16296444,1.70447125
YRY,20,0,2024-06-14T12:48:02.904Z,english_439.wav,0,1,249,23,4,Mandarin,f,0,0,65.61179343,0.83700943
YRY,20,0,2024-06-14T12:48:02.904Z,english_439.wav,0,1,249,23,4,Mandarin,f,1,0.1,-39.97146472,0.2618818
YRY,20,0,2024-06-14T12:48:02.904Z,english_439.wav,0,1,249,23,4,Mandarin,f,2,0.2,-86.73516171,1.31905662
YRY,20,0,2024-06-14T12:48:02.904Z,english_439.wav,0,1,249,23,4,Mandarin,f,3,0.3,-74.3506223,1.4582753
YRY,20,0,2024-06-14T12:48:02.904Z,english_439.wav,0,1,249,23,4,Mandarin,f,4,0.4,-81.32603757,1.31458936
YRY,20,0,2024-06-14T12:48:02.904Z,english_439.wav,0,1,249,23,4,Mandarin,f,5,0.5,-10.38113119,1.35802682
YRY,20,0,2024-06-14T12:48:02.904Z,english_439.wav,0,1,249,23,4,Mandarin,f,6,0.6,-69.09018152,0.4851906
YRY,20,0,2024-06-14T12:48:02.904Z,english_439.wav,0,1,249,23,4,Mandarin,f,7,0.7,-89.25700292,1.37617677
YRY,20,0,2024-06-14T12:48:02.904Z,english_439.wav,0,1,249,23,4,Mandarin,f,8,0.8,19.63434649,1.69244764
YRY,20,0,2024-06-14T12:48:02.904Z,english_439.wav,0,1,249,23,4,Mandarin,f,9,0.9,-97.86540823,0.50733375
YRY,20,0,2024-06-14T12:48:02.904Z,english_439.wav,0,1,249,23,4,Mandarin,f,10,1,14.21326079,1.77327588
YRY,20,0,2024-06-14T12:48:02.904Z,english_439.wav,0,1,249,23,4,Mandarin,f,11,1.09391667,-79.27637989,0.89651159
YRY,21,0,2024-06-14T12:48:02.904Z,english_163.wav,0,0,2427,23,4,Mandarin,f,0,0,-75.52696483,0.21633828
YRY,21,0,2024-06-14T12:48:02.904Z,english_163.wav,0,0,2427,23,4,Mandarin,f,1,0.1,-50.94410786,0.31603177
YRY,21,0,2024-06-14T12:48:02.904Z,english_163.wav,0,0,2427,23,4,Mandarin,f,2,0.2,-38.29944429,1.04333718
YRY,21,0,2024-06-14T12:48:02.904Z,english_163.wav,0,0,2427,23,4,Mandarin,f,3,0.3,-32.57127411,1.57763682
YRY,21,0,2024-06-14T12:48:02.904Z,english_163.wav,0,0,2427,23,4,Mandarin,f,4,0.4,-30.55941116,0.14485533
YRY,21,0,2024-06-14T12:48:02.904Z,english_163.wav,0,0,2427,23,4,Mandarin,f,5,0.5,-14.52407307,1.53043555
YRY,21,0,2024-06-14T12:48:02.904Z,english_163.wav,0,0,2427,23,4,Mandarin,f,6,0.6,28.48601544,0.0734581
YRY,21,0,2024-06-14T12:48:02.904Z,english_163.wav,0,0,2427,23,4,Mandarin,f,7,0.7,-14.30599007,1.19104414
YRY,21,0,2024-06-14T12:48:02.904Z,english_163.wav,0,0,2427,23,4,Mandarin,f,8,0.8,38.98323909,0.4056819
YRY,21,0,2024-06-14T12:48:02.904Z,english_163.wav,0,0,2427,23,4,Mandarin,f,9,0.9,-70.97720427,1.30823112
YRY,21,0,2024-06-14T12:48:02.904Z,english_163.wav,0,0,2427,23,4,Mandarin,f,10,1,-31.77991107,1.63835528
YRY,21,0,2024-06-14T12:48:02.904Z,english_163.wav,0,0,2427,23,4,Mandarin,f,11,1.09391667,-57.22342155,1.03131117
YRY,22,0,2024-06-14T12:48:02.904Z,english_639.wav,0,0,8835,23,4,Mandarin,f,0,0,5.56347498,1.83509432
YRY,22,0,2024-06-14T12:48:02.904Z,english_639.wav,0,0,8835,23,4,Mandarin,f,1,0.1,75.73661073,0.44211572
YRY,22,0,2024-06-14T12:48:02.904Z,english_639.wav,0,0,8835,23,4,Mandarin,f,2,0.2,-90.85300276,1.03578017
YRY,22,0,2024-06-14T12:48:02.904Z,english_639.wav,0,0,8835,23,4,Mandarin,f,3,0.3,-28.02471483,0.46973677
YRY,22,0,2024-06-14T12:48:02.904Z,english_639.wav,0,0,8835,23,4,Mandarin,f,4,0.4,-62.26468724,0.54820752
YRY,22,0,2024-06-14T12:48:02.904Z,english_639.wav,0,0,8835,23,4,Mandarin,f,5,0.5,17.80250947,0.51964922
YRY,22,0,2024-06-14T12:48:02.904Z,english_639.wav,0,0,8835,23,4,Mandarin,f,6,0.6,29.29879682,0.06117772
YRY,22,0,2024-06-14T12:48:02.904Z,english_639.wav,0,0,8835,23,4,Mandarin,f,7,0.7,-6.14897809,0.67480304
YRY,22,0,2024-06-14T12:48:02.904Z,english_639.wav,0,0,8835,23,4,Mandarin,f,8,0.8,-11.9254819,0.85869346
YRY,22,0,2024-06-14T12:48:02.904Z,english_639.wav,0,0,8835,23,4,Mandarin,f,9,0.9,6.20327944,1.90136883
YRY,22,0,2024-06-14T12:48:02.904Z,english_639.wav,0,0,8835,23,4,Mandarin,f,10,1,-44.51875699,1.31276151
YRY,22,0,2024-06-14T12:48:02.904Z,english_639.wav,0,0,8835,23,4,Mandarin,f,11,1.09391667,52.00361599,1.93524577
YRY,23,0,2024-06-14T12:48:02.904Z,english_352.wav,0,0,620,23,4,Mandarin,f,0,0,84.78119141,1.3229017
YRY,23,0,2024-06-14T12:48:02.904Z,english_352.wav,0,0,620,23,4,Mandarin,f,1,0.1,88.75454048,0.55829323
YRY,23,0,2024-06-14T12:48:02.904Z,english_352.wav,0,0,620,23,4,Mandarin,f,2,0.2,23.94901813,0.0402509
YRY,23,0,2024-06-14T12:48:02.904Z,english_352.wav,0,0,620,23,4,Mandarin,f,3,0.3,-18.90676095,0.61640233
YRY,23,0,2024-06-14T12:48:02.904Z,english_352.wav,0,0,620,23,4,Mandarin,f,4,0.4,60.06070111,0.96654272
YRY,23,0,2024-06-14T12:48:02.904Z,english_352.wav,0,0,620,23,4,Mandarin,f,5,0.5,62.40800149,0.92098566
YRY,23,0,2024-06-14T12:48:02.904Z,english_352.wav,0,0,620,23,4,Mandarin,f,6,0.6,3.12749593,1.84821975
YRY,23,0,2024-06-14T12:48:02.904Z,english_352.wav,0,0,620,23,4,Mandarin,f,7,0.7,56.86714317,0.23838951
YRY,23,0,2024-06-14T12:48:02.904Z,english_352.wav,0,0,620,23,4,Mandarin,f,8,0.8,-52.83270381,0.65493925
YRY,23,0,2024-06-14T12:48:02.904Z,english_352.wav,0,0,620,23,4,Mandarin,f,9,0.9,-40.5099806,1.28053314
YRY,23,0,2024-06-14T12:48:02.904Z,english_352.wav,0,0,620,23,4,Mandarin,f,10,1,-16.36538997,0.87321298
YRY,23,0,2024-06-14T12:48:02.904Z,english_352.wav,0,0,620,23,4,Mandarin,f,11,1.09391667,22.50184759,0.74058038
YRY,24,0,2024-06-14T12:48:02.904Z,english_659.wav,0,1,1666,23,4,Mandarin,f,0,0,-42.73609053,0.70277484
YRY,24,0,2024-06-14T12:48:02.904Z,english_659.wav,0,1,1666,23,4,Mandarin,f,1,0.1,-54.26462218,1.15657561
YRY,24,0,2024-06-14T12:48:02.904Z,english_659.wav,0,1,1666,23,4,Mandarin,f,2,0.2,4.14591437,0.91169634
YRY,24,0,2024-06-14T12:48:02.904Z,english_659.wav,0,1,1666,23,4,Mandarin,f,3,0.3,27.62308209,0.71232504
YRY,24,0,2024-06-14T12:48:02.904Z,english_659.wav,0,1,1666,23,4,Mandarin,f,4,0.4,38.57198708,1.23589102
YRY,24,0,2024-06-14T12:48:02.904Z,english_659.wav,0,1,1666,23,4,Mandarin,f,5,0.5,80.21422515,0.15679007
YRY,24,0,2024-06-14T12:48:02.904Z,english_659.wav,0,1,1666,23,4,Mandarin,f,6,0.6,73.99870372,0.18969614
YRY,24,0,2024-06-14T12:48:02.904Z,english_659.wav,0,1,1666,23,4,Mandarin,f,7,0.7,-75.83334389,0.50055959
YRY,24,0,2024-06-14T12:48:02.904Z,english_659.wav,0,1,1666,23,4,Mandarin,f,8,0.8,62.20160473,1.57461742
YRY,24,0,2024-06-14T12:48:02.904Z,english_659.wav,0,1,1666,23,4,Mandarin,f,9,0.9,4.13787027,1.20431491
YRY,24,0,2024-06-14T12:48:02.904Z,english_659.wav,0,1,1666,23,4,Mandarin,f,10,1,54.01825885,1.24355935
YRY,24,0,2024-06-14T12:48:02.904Z,english_659.wav,0,1,1666,23,4,Mandarin,f,11,1.09391667,93.31828501,1.36043281
YRY,25,0,2024-06-14T12:48:02.904Z,english_298.wav,0,1,3965,23,4,Mandarin,f,0,0,-6.27155647,1.61849335
YRY,25,0,2024-06-14T12:48:02.904Z,english_298.wav,0,1,3965,23,4,Mandarin,f,1,0.1,48.93550058,0.35596491
YRY,25,0,2024-06-14T12:48:02.904Z,english_298.wav,0,1,3965,23,4,Mandarin,f,2,0.2,13.84285521,0.30396033
YRY,25,0,2024-06-14T12:48:02.904Z,english_298.wav,0,1,3965,23,4,Mandarin,f,3,0.3,97.15977737,1.90931563
YRY,25,0,2024-06-14T12:48:02.904Z,english_298.wav,0,1,3965,23,4,Mandarin,f,4,0.4,79.76715629,0.00976952
YRY,25,0,2024-06-14T12:48:02.904Z,english_298.wav,0,1,3965,23,4,Mandarin,f,5,0.5,-41.84976134,1.7369795
YRY,25,0,2024-06-14T12:48:02.904Z,english_298.wav,0,1,3965,23,4,Mandarin,f,6,0.6,11.37121721,1.54006257
YRY,25,0,2024-06-14T12:48:02.904Z,english_298.wav,0,1,3965,23,4,Mandarin,f,7,0.7,1.57706146,0.39135251
YRY,25,0,2024-06-14T12:48:02.904Z,english_298.wav,0,1,3965,23,4,Mandarin,f,8,0.8,14.4430887,1.45560385
YRY,25,0,2024-06-14T12:48:02.904Z,english_298.wav,0,1,3965,23,4,Mandarin,f,9,0.9,22.32733409,1.43660254
YRY,25,0,2024-06-14T12:48:02.904Z,english_298.wav,0,1,3965,23,4,Mandarin,f,10,1,4.8370979,1.96857338
YRY,25,0,2024-06-14T12:48:02.904Z,english_298.wav,0,1,3965,23,4,Mandarin,f,11,1.09391667,33.89493251,1.91654431
YRY,26,0,2024-06-14T12:48:02.904Z,english_313.wav,0,1,259,23,4,Mandarin,f,0,0,-22.0180916,0.52298953
YRY,26,0,2024-06-14T12:48:02.904Z,english_313.wav,0,1,259,23,4,Mandarin,f,1,0.1,96.16831441,0.58043298
YRY,26,0,2024-06-14T12:48:02.904Z,english_313.wav,0,1,259,23,4,Mandarin,f,2,0.2,-45.33444961,0.43861373
YRY,26,0,2024-06-14T12:48:02.904Z,english_313.wav,0,1,259,23,4,Mandarin,f,3,0.3,-30.76295123,0.29063093
YRY,26,0,2024-06-14T12:48:02.904Z,english_313.wav,0,1,259,23,4,Mandarin,f,4,0.4,27.42080434,1.23880448
YRY,26,0,2024-06-14T12:48:02.904Z,english_313.wav,0,1,259,23,4,Mandarin,f,5,0.5,96.50313713,0.08705859
YRY,26,0,2024-06-14T12:48:02.904Z,english_313.wav,0,1,259,23,4,Mandarin,f,6,0.6,-0.94763764,1.32086894
YRY,26,0,2024-06-14T12:48:02.904Z,english_313.wav,0,1,259,23,4,Mandarin,f,7,0.7,67.04457313,1.2914561
YRY,26,0,2024-06-14T12:48:02.904Z,english_313.wav,0,1,259,23,4,Mandarin,f,8,0.8,2.6862445,0.44865702
YRY,26,0,2024-06-14T12:48:02.904Z,english_313.wav,0,1,259,23,4,Mandarin,f,9,0.9,47.07555832,1.89388378
YRY,26,0,2024-06-14T12:48:02.904Z,english_313.wav,0,1,259,23,4,Mandarin,f,10,1,-32.41079138,1.69735018
YRY,26,0,2024-06-14T12:48:02.904Z,english_313.wav,0,1,259,23,4,Mandarin,f,11,1.09391667,11.15794631,1.75721469
YRY,27,0,2024-06-14T12:48:02.904Z,english_536.wav,0,1,540,23,4,Mandarin,f,0,0,12.53985852,0.4318111
YRY,27,0,2024-06-14T12:48:02.904Z,english_536.wav,0,1,540,23,4,Mandarin,f,1,0.1,21.99103782,1.06422616
YRY,27,0,2024-06-14T12:48:02.904Z,english_536.wav,0,1,540,23,4,Mandarin,f,2,0.2,62.33634556,1.97390757
YRY,27,0,2024-06-14T12:48:02.904Z,english_536.wav,0,1,540,23,4,Mandarin,f,3,0.3,-74.90025976,0.26817195
YRY,27,0,2024-06-14T12:48:02.904Z,english_536.wav,0,1,540,23,4,Mandarin,f,4,0.4,32.85398174,0.16804155
YRY,27,0,2024-06-14T12:48:02.904Z,english_536.wav,0,1,540,23,4,Mandarin,f,5,0.5,-33.4537755,0.37593725
YRY,27,0,2024-06-14T12:48:02.904Z,english_536.wav,0,1,540,23,4,Mandarin,f,6,0.6,-42.71623429,1.32070102
YRY,27,0,2024-06-14T12:48:02.904Z,english_536.wav,0,1,540,23,4,Mandarin,f,7,0.7,-1.00699642,0.04715572
YRY,27,0,2024-06-14T12:48:02.904Z,english_536.wav,0,1,540,23,4,Mandarin,f,8,0.8,-25.01596186,1.04948049
YRY,27,0,2024-06-14T12:48:02.904Z,english_536.wav,0,1,540,23,4,Mandarin,f,9,0.9,-49.31989542,0.94782972
YRY,27,0,2024-06-14T12:48:02.904Z,english_536.wav,0,1,540,23,4,Mandarin,f,10,1,38.02707377,1.69951962
YRY,27,0,2024-06-14T12:48:02.904Z,english_536.wav,0,1,540,23,4,Mandarin,f,11,1.09391667,50.96675347,1.16734118
YRY,28,0,2024-06-14T12:48:02.904Z,english_920.wav,0,1,496,23,4,Mandarin,f,0,0,65.81399413,0.41821629
YRY,28,0,2024-06-14T12:48:02.904Z,english_920.wav,0,1,496,23,4,Mandarin,f,1,0.1,-82.84324878,1.28225934
YRY,28,0,2024-06-14T12:48:02.904Z,english_920.wav,0,1,496,23,4,Mandarin,f,2,0.2,3.48400674,0.64893709
YRY,28,0,2024-06-14T12:48:02.904Z,english_920.wav,0,1,496,23,4,Mandarin,f,3,0.3,11.91787155,1.7150145
YRY,28,0,2024-06-14T12:48:02.904Z,english_920.wav,0,1,496,23,4,Mandarin,f,4,0.4,94.18344361,1.26439351
YRY,28,0,2024-06-14T12:48:02.904Z,english_920.wav,0,1,496,23,4,Mandarin,f,5,0.5,-3.20307964,0.72207135
YRY,28,0,2024-06-14T12:48:02.904Z,english_920.wav,0,1,496,23,4,Mandarin,f,6,0.6,-5.45427873,1.12610333
YRY,28,0,2024-06-14T12:48:02.904Z,english_920.wav,0,1,496,23,4,Mandarin,f,7,0.7,-91.33620727,1.28690966
YRY,28,0,2024-06-14T12:48:02.904Z,english_920.wav,0,1,496,23,4,Mandarin,f,8,0.8,-75.27995354,1.277223
YRY,28,0,2024-06-14T12:48:02.904Z,english_920.wav,0,1,496,23,4,Mandarin,f,9,0.9,80.14521989,0.31232678
YRY,28,0,2024-06-14T12:48:02.904Z,english_920.wav,0,1,496,23,4,Mandarin,f,10,1,-98.13362657,1.28835438
YRY,28,0,2024-06-14T12:48:02.904Z,english_920.wav,0,1,496,23,4,Mandarin,f,11,1.09391667,84.6327673,0.1215282
YRY,29,0,2024-06-14T12:48:02.904Z,english_671.wav,0,0,409,23,4,Mandarin,f,0,0,-45.93815434,1.42496889
YRY,29,0,2024-06-14T12:48:02.904Z,english_671.wav,0,0,409,23,4,Mandarin,f,1,0.1,-9.85133236,0.72590703
YRY,29,0,2024-06-14T12:48:02.904Z,english_671.wav,0,0,409,23,4,Mandarin,f,2,0.2,-90.27584827,0.03582408
YRY,29,0,2024-06-14T12:48:02.904Z,english_671.wav,0,0,409,23,4,Mandarin,f,3,0.3,-12.62569024,1.95422408
YRY,29,0,2024-06-14T12:48:02.904Z,english_671.wav,0,0,409,23,4,Mandarin,f,4,0.4,-25.02264323,0.03147383
YRY,29,0,2024-06-14T12:48:02.904Z,english_671.wav,0,0,409,23,4,Mandarin,f,5,0.5,-73.63967284,1.78242159
YRY,29,0,2024-06-14T12:48:02.904Z,english_671.wav,0,0,409,23,4,Mandarin,f,6,0.6,-8.12482987,0.44075536
YRY,29,0,2024-06-14T12:48:02.904Z,english_671.wav,0,0,409,23,4,Mandarin,f,7,0.7,20.3897076,1.76056673
YRY,29,0,2024-06-14T12:48:02.904Z,english_671.wav,0,0,409,23,4,Mandarin,f,8,0.8,-16.71271092,0.82662657
YRY,29,0,2024-06-14T12:48:02.904Z,english_671.wav,0,0,409,23,4,Mandarin,f,9,0.9,60.34106396,0.3638046
YRY,29,0,2024-06-14T12:48:02.904Z,english_671.wav,0,0,409,23,4,Mandarin,f,10,1,-65.87673981,0.96822524
YRY,29,0,2024-06-14T12:48:02.904Z,english_671.wav,0,0,409,23,4,Mandarin,f,11,1.09391667,-90.1963817,0.11003173
YRY,30,0,2024-06-14T12:48:02.904Z,english_887.wav,0,1,805,23,4,Mandarin,f,0,0,-3.44900861,0.51239927
YRY,30,0,2024-06-14T12:48:02.904Z,english_887.wav,0,1,805,23,4,Mandarin,f,1,0.1,-17.8432189,1.03264561
YRY,30,0,2024-06-14T12:48:02.904Z,english_887.wav,0,1,805,23,4,Mandarin,f,2,0.2,-6.85827808,0.34600943
YRY,30,0,2024-06-14T12:48:02.904Z,english_887.wav,0,1,805,23,4,Mandarin,f,3,0.3,45.65439731,0.47649702
YRY,30,0,2024-06-14T12:48:02.904Z,english_887.wav,0,1,805,23,4,Mandarin,f,4,0.4,-45.51901732,1.73458193
YRY,30,0,2024-06-14T12:48:02.904Z,english_887.wav,0,1,805,23,4,Mandarin,f,5,0.5,-48.46749348,0.81561736
YRY,30,0,2024-06-14T12:48:02.904Z,english_887.wav,0,1,805,23,4,Mandarin,f,6,0.6,61.02871352,1.13461249
YRY,30,0,2024-06-14T12:48:02.904Z,english_887.wav,0,1,805,23,4,Mandarin,f,7,0.7,88.88451803,0.39624217
YRY,30,0,2024-06-14T12:48:02.904Z,english_887.wav,0,1,805,23,4,Mandarin,f,8,0.8,-62.50472578,0.97607282
YRY,30,0,2024-06-14T12:48:02.904Z,english_887.wav,0,1,805,23,4,Mandarin,f,9,0.9,-72.54245457,0.43830143
YRY,30,0,2024-06-14T12:48:02.904Z,english_887.wav,0,1,805,23,4,Mandarin,f,10,1,69.58025846,1.14588811
YRY,30,0,2024-06-14T12:48:02.904Z,english_887.wav,0,1,805,23,4,Mandarin,f,11,1.09391667,-27.66978609,0.14331088
YRY,31,0,2024-06-14T12:48:02.904Z,english_59.wav,0,0,2057,23,4,Mandarin,f,0,0,13.6818357,1.39102809
YRY,31,0,2024-06-14T12:48:02.904Z,english_59.wav,0,0,2057,23,4,Mandarin,f,1,0.1,-62.28772111,1.7641323
YRY,31,0,2024-06-14T12:48:02.904Z,english_59.wav,0,0,2057,23,4,Mandarin,f,2,0.2,49.12418905,1.93370096
YRY,31,0,2024-06-14T12:48:02.904Z,english_59.wav,0,0,2057,23,4,Mandarin,f,3,0.3,-11.37021527,1.41546104
YRY,31,0,2024-06-14T12:48:02.904Z,english_59.wav,0,0,2057,23,4,Mandarin,f,4,0.4,-54.18333873,1.8712645
YRY,31,0,2024-06-14T12:48:02.904Z,english_59.wav,0,0,2057,23,4,Mandarin,f,5,0.5,89.00177849,1.58142361
YRY,31,0,2024-06-14T12:48:02.904Z,english_59.wav,0,0,2057,23,4,Mandarin,f,6,0.6,-39.13145847,1.31038649
YRY,31,0,2024-06-14T12:48:02.904Z,english_59.wav,0,0,2057,23,4,Mandarin,f,7,0.7,-8.40184911,1.79881342
YRY,31,0,2024-06-14T12:48:02.904Z,english_59.wav,0,0,2057,23,4,Mandarin,f,8,0.8,-34.91016987,0.00761053
YRY,31,0,2024-06-14T12:48:02.904Z,english_59.wav,0,0,2057,23,4,Mandarin,f,9,0.9,92.47037208,0.77279167
YRY,31,0,2024-06-14T12:48:02.904Z,english_59.wav,0,0,2057,23,4,Mandarin,f,10,1,91.56160698,0.86326769
YRY,31,0,2024-06-14T12:48:02.904Z,english_59.wav,0,0,2057,23,4,Mandarin,f,11,1.09391667,-64.52293265,1.19458968
YRY,32,0,2024-06-14T12:48:02.904Z,english_146.wav,0,0,496,23,4,Mandarin,f,0,0,56.30698685,0.40218926
YRY,32,0,2024-06-14T12:48:02.904Z,english_146.wav,0,0,496,23,4,Mandarin,f,1,0.1,33.76808102,1.30498568
YRY,32,0,2024-06-14T12:48:02.904Z,english_146.wav,0,0,496,23,4,Mandarin,f,2,0.2,7.3416935,1.88518083
YRY,32,0,2024-06-14T12:48:02.904Z,english_146.wav,0,0,496,23,4,Mandarin,f,3,0.3,54.00115317,0.73939723
YRY,32,0,2024-06-14T12:48:02.904Z,english_146.wav,0,0,496,23,4,Mandarin,f,4,0.4,60.50079064,1.18416515
YRY,32,0,2024-06-14T12:48:02.904Z,english_146.wav,0,0,496,23,4,Mandarin,f,5,0.5,93.58064811,0.74397262
YRY,32,0,2024-06-14T12:48:02.904Z,english_146.wav,0,0,496,23,4,Mandarin,f,6,0.6,16.38414301,1.77833366
YRY,32,0,2024-06-14T12:48:02.904Z,english_146.wav,0,0,496,23,4,Mandarin,f,7,0.7,53.45076847,0.98273851
YRY,32,0,2024-06-14T12:48:02.904Z,english_146.wav,0,0,496,23,4,Mandarin,f,8,0.8,57.56482396,1.41119053
YRY,32,0,2024-06-14T12:48:02.904Z,english_146.wav,0,0,496,23,4,Mandarin,f,9,0.9,-28.26782972,0.90766435
YRY,32,0,2024-06-14T12:48:02.904Z,english_146.wav,0,0,496,23,4,Mandarin,f,10,1,79.66793606,0.33691203
YRY,32,0,2024-06-14T12:48:02.904Z,english_146.wav,0,0,496,23,4,Mandarin,f,11,1.09391667,23.81863578,1.86488134
YRY,33,0,2024-06-14T12:48:02.904Z,english_345.wav,0,1,251,23,4,Mandarin,f,0,0,-34.02990991,1.8609144
YRY,33,0,2024-06-14T12:48:02.904Z,english_345.wav,0,1,251,23,4,Mandarin,f,1,0.1,-88.27975281,1.48233205
YRY,33,0,2024-06-14T12:48:02.904Z,english_345.wav,0,1,251,23,4,Mandarin,f,2,0.2,-1.56807316,0.71166641
YRY,33,0,2024-06-14T12:48:02.904Z,english_345.wav,0,1,251,23,4,Mandarin,f,3,0.3,-28.98585365,0.21699581
YRY,33,0,2024-06-14T12:48:02.904Z,english_345.wav,0,1,251,23,4,Mandarin,f,4,0.4,83.28491736,1.65978529
YRY,33,0,2024-06-14T12:48:02.904Z,english_345.wav,0,1,251,23,4,Mandarin,f,5,0.5,-16.11421398,0.84551922
YRY,33,0,2024-06-14T12:48:02.904Z,english_345.wav,0,1,251,23,4,Mandarin,f,6,0.6,-92.22378926,0.60808254
YRY,33,0,2024-06-14T12:48:02.904Z,english_345.wav,0,1,251,23,4,Mandarin,f,7,0.7,50.09737337,1.24136652
YRY,33,0,2024-06-14T12:48:02.904Z,english_345.wav,0,1,251,23,4,Mandarin,f,8,0.8,11.89135809,0.61250032
YRY,33,0,2024-06-14T12:48:02.904Z,english_345.wav,0,1,251,23,4,Mandarin,f,9,0.9,86.57873929,0.42246236
YRY,33,0,2024-06-14T12:48:02.904Z,english_345.wav,0,1,251,23,4,Mandarin,f,10,1,15.84417261,0.8731046
YRY,33,0,2024-06-14T12:48:02.904Z,english_345.wav,0,1,251,23,4,Mandarin,f,11,1.09391667,22.95884771,1.62586913
YRY,34,0,2024-06-14T12:48:02.904Z,english_108.wav,0,1,307,23,4,Mandarin,f,0,0,-72.12984017,0.26945128
YRY,34,0,2024-06-14T12:48:02.904Z,english_108.wav,0,1,307,23,4,Mandarin,f,1,0.1,8.19812644,1.01925784
YRY,34,0,2024-06-14T12:48:02.904Z,english_108.wav,0,1,307,23,4,Mandarin,f,2,0.2,78.6546888,1.32918217
YRY,34,0,2024-06-14T12:48:02.904Z,english_108.wav,0,1,307,23,4,Mandarin,f,3,0.3,-30.04278384,0.63536527
YRY,34,0,2024-06-14T12:48:02.904Z,english_108.wav,0,1,307,23,4,Mandarin,f,4,0.4,-12.36369755,1.19436668
YRY,34,0,2024-06-14T12:48:02.904Z,english_108.wav,0,1,307,23,4,Mandarin,f,5,0.5,70.67382026,0.3289366
YRY,34,0,2024-06-14T12:48:02.904Z,english_108.wav,0,1,307,23,4,Mandarin,f,6,0.6,-56.34929952,1.40732185
YRY,34,0,2024-06-14T12:48:02.904Z,english_108.wav,0,1,307,23,4,Mandarin,f,7,0.7,-58.84895788,0.91014899
YRY,34,0,2024-06-14T12:48:02.904Z,english_108.wav,0,1,307,23,4,Mandarin,f,8,0.8,-57.8473435,0.89824174
YRY,34,0,2024-06-14T12:48:02.904Z,english_108.wav,0,1,307,23,4,Mandarin,f,9,0.9,74.00200547,0.75928312
YRY,34,0,2024-06-14T12:48:02.904Z,english_108.wav,0,1,307,23,4,Mandarin,f,10,1,14.31080133,1.3591553
YRY,34,0,2024-06-14T12:48:02.904Z,english_108.wav,0,1,307,23,4,Mandarin,f,11,1.09391667,52.36561827,1.12113776
YRY,35,0,2024-06-14T12:48:02.904Z,english_934.wav,0,1,269,23,4,Mandarin,f,0,0,-11.34943225,0.24415631
YRY,35,0,2024-06-14T12:48:02.904Z,english_934.wav,0,1,269,23,4,Mandarin,f,1,0.1,65.85322301,1.37961224
YRY,35,0,2024-06-14T12:48:02.904Z,english_934.wav,0,1,269,23,4,Mandarin,f,2,0.2,-85.4605192,1.63298201
YRY,35,0,2024-06-14T12:48:02.904Z,english_934.wav,0,1,269,23,4,Mandarin,f,3,0.3,13.55265206,0.01798396
YRY,35,0,2024-06-14T12:48:02.904Z,english_934.wav,0,1,269,23,4,Mandarin,f,4,0.4,0.50969379,0.66397169
YRY,35,0,2024-06-14T12:48:02.904Z,english_934.wav,0,1,269,23,4,Mandarin,f,5,0.5,69.19486286,0.2241268
YRY,35,0,2024-06-14T12:48:02.904Z,english_934.wav,0,1,269,23,4,Mandarin,f,6,0.6,-98.42209139,1.8505399
YRY,35,0,2024-06-14T12:48:02.904Z,english_934.wav,0,1,269,23,4,Mandarin,f,7,0.7,-96.61496438,1.29472214
YRY,35,0,2024-06-14T12:48:02.904Z,english_934.wav,0,1,269,23,4,Mandarin,f,8,0.8,-65.00160108,0.83065813
YRY,35,0,2024-06-14T12:48:02.904Z,english_934.wav,0,1,269,23,4,Mandarin,f,9,0.9,48.73056023,1.34944931
YRY,35,0,2024-06-14T12:48:02.904Z,english_934.wav,0,1,269,23,4,Mandarin,f,10,1,10.84569579,1.40216081
YRY,35,0,2024-06-14T12:48:02.904Z,english_934.wav,0,1,269,23,4,Mandarin,f,11,1.09391667,97.87119684,1.98377201
YRY,36,0,2024-06-14T12:48:02.904Z,english_641.wav,0,0,816,23,4,Mandarin,f,0,0,-56.87244415,1.15062728
YRY,36,0,2024-06-14T12:48:02.904Z,english_641.wav,0,0,816,23,4,Mandarin,f,1,0.1,-25.32063716,1.3865292
YRY,36,0,2024-06-14T12:48:02.904Z,english_641.wav,0,0,816,23,4,Mandarin,f,2,0.2,-5.88353384,0.86586276
YRY,36,0,2024-06-14T12:48:02.904Z,english_641.wav,0,0,816,23,4,Mandarin,f,3,0.3,35.0793016,0.52496071
YRY,36,0,2024-06-14T12:48:02.904Z,english_641.wav,0,0,816,23,4,Mandarin,f,4,0.4,-54.26160262,1.18035907
YRY,36,0,2024-06-14T12:48:02.904Z,english_641.wav,0,0,816,23,4,Mandarin,f,5,0.5,-96.41482633,0.99701793
YRY,36,0,2024-06-14T12:48:02.904Z,english_641.wav,0,0,816,23,4,Mandarin,f,6,0.6,34.31473412,1.64172116
YRY,36,0,2024-06-14T12:48:02.904Z,english_641.wav,0,0,816,23,4,Mandarin,f,7,0.7,51.96003607,0.67765657
YRY,36,0,2024-06-14T12:48:02.904Z,english_641.wav,0,0,816,23,4,Mandarin,f,8,0.8,-33.45212271,0.80691049
YRY,36,0,2024-06-14T12:48:02.904Z,english_641.wav,0,0,816,23,4,Mandarin,f,9,0.9,-60.40755471,0.17932902
YRY,36,0,2024-06-14T12:48:02.904Z,english_641.wav,0,0,816,23,4,Mandarin,f,10,1,-61.65050267,0.69415745
YRY,36,0,2024-06-14T12:48:02.904Z,english_641.wav,0,0,816,23,4,Mandarin,f,11,1.09391667,-31.34713696,0.80800103
YRY,37,0,2024-06-14T12:48:02.904Z,english_453.wav,0,0,745,23,4,Mandarin,f,0,0,-70.25213601,0.36867593
YRY,37,0,2024-06-14T12:48:02.904Z,english_453.wav,0,0,745,23,4,Mandarin,f,1,0.1,89.68329695,1.72886328
YRY,37,0,2024-06-14T12:48:02.904Z,english_453.wav,0,0,745,23,4,Mandarin,f,2,0.2,64.82558172,1.62690503
YRY,37,0,2024-06-14T12:48:02.904Z,english_453.wav,0,0,745,23,4,Mandarin,f,3,0.3,-29.59079509,0.73552932
YRY,37,0,2024-06-14T12:48:02.904Z,english_453.wav,0,0,745,23,4,Mandarin,f,4,0.4,2.86785492,1.15423746
YRY,37,0,2024-06-14T12:48:02.904Z,english_453.wav,0,0,745,23,4,Mandarin,f,5,0.5,29.66798779,0.00604153
YRY,37,0,2024-06-14T12:48:02.904Z,english_453.wav,0,0,745,23,4,Mandarin,f,6,0.6,83.99800943,0.72573154
YRY,37,0,2024-06-14T12:48:02.904Z,english_453.wav,0,0,745,23,4,Mandarin,f,7,0.7,3.87286535,0.64728212
YRY,37,0,2024-06-14T12:48:02.904Z,english_453.wav,0,0,745,23,4,Mandarin,f,8,0.8,-49.24820381,1.80766087
YRY,37,0,2024-06-14T12:48:02.904Z,english_453.wav,0,0,745,23,4,Mandarin,f,9,0.9,77.90929808,1.21653859
YRY,37,0,2024-06-14T12:48:02.904Z,english_453.wav,0,0,745,23,4,Mandarin,f,10,1,93.37572535,0.12484757
YRY,37,0,2024-06-14T12:48:02.904Z,english_453.wav,0,0,745,23,4,Mandarin,f,11,1.09391667,1.85400833,0.63167788
YRY,38,0,2024-06-14T12:48:02.904Z,english_796.wav,0,1,135,23,4,Mandarin,f,0,0,23.83274793,0.06036971
YRY,38,0,2024-06-14T12:48:02.904Z,english_796.wav,0,1,135,23,4,Mandarin,f,1,0.1,58.93639275,1.88058462
YRY,38,0,2024-06-14T12:48:02.904Z,english_796.wav,0,1,135,23,4,Mandarin,f,2,0.2,38.21414004,0.18227098
YRY,38,0,2024-06-14T12:48:02.904Z,english_796.wav,0,1,135,23,4,Mandarin,f,3,0.3,28.9924604,1.37773272
YRY,38,0,2024-06-14T12:48:02.904Z,english_796.wav,0,1,135,23,4,Mandarin,f,4,0.4,-7.06068982,1.64549947
YRY,38,0,2024-06-14T12:48:02.904Z,english_796.wav,0,1,135,23,4,Mandarin,f,5,0.5,-87.6291124,1.67194705
YRY,38,0,2024-06-14T12:48:02.904Z,english_796.wav,0,1,135,23,4,Mandarin,f,6,0.6,-19.55999428,0.64689213
YRY,38,0,2024-06-14T12:48:02.904Z,english_796.wav,0,1,135,23,4,Mandarin,f,7,0.7,12.86748648,1.59726084
YRY,38,0,2024-06-14T12:48:02.904Z,english_796.wav,0,1,135,23,4,Mandarin,f,8,0.8,60.66600698,0.96069219
YRY,38,0,2024-06-14T12:48:02.904Z,english_796.wav,0,1,135,23,4,Mandarin,f,9,0.9,63.14579763,1.00931817
YRY,38,0,2024-06-14T12:48:02.904Z,english_796.wav,0,1,135,23,4,Mandarin,f,10,1,38.43403738,1.05195825
YRY,38,0,2024-06-14T12:48:02.904Z,english_796.wav,0,1,135,23,4,Mandarin,f,11,1.09391667,-11.41285249,1.96327853
YRY,39,0,2024-06-14T12:48:02.904Z,english_894.wav,0,1,342,23,4,Mandarin,f,0,0,-80.20723644,1.79346893
YRY,39,0,2024-06-14T12:48:02.904Z,english_894.wav,0,1,342,23,4,Mandarin,f,1,0.1,70.63971402,0.36641107
YRY,39,0,2024-06-14T12:48:02.904Z,english_894.wav,0,1,342,23,4,Mandarin,f,2,0.2,-37.49635732,1.22262179
YRY,39,0,2024-06-14T12:48:02.904Z,english_894.wav,0,1,342,23,4,Mandarin,f,3,0.3,-83.65831032,1.81798895
YRY,39,0,2024-06-14T12:48:02.904Z,english_894.wav,0,1,342,23,4,Mandarin,f,4,0.4,-33.74406965,0.98569015
YRY,39,0,2024-06-14T12:48:02.904Z,english_894.wav,0,1,342,23,4,Mandarin,f,5,0.5,51.66171184,1.39342992
YRY,39,0,2024-06-14T12:48:02.904Z,english_894.wav,0,1,342,23,4,Mandarin,f,6,0.6,19.47391611,1.02882877
YRY,39,0,2024-06-14T12:48:02.904Z,english_894.wav,0,1,342,23,4,Mandarin,f,7,0.7,-13.53975377,0.49108551
YRY,39,0,2024-06-14T12:48:02.904Z,english_894.wav,0,1,342,23,4,Mandarin,f,8,0.8,-20.28527638,0.73422482
YRY,39,0,2024-06-14T12:48:02.904Z,english_894.wav,0,1,342,23,4,Mandarin,f,9,0.9,-1.05192851,1.80196554
YRY,39,0,2024-06-14T12:48:02.904Z,english_894.wav,0,1,342,23,4,Mandarin,f,10,1,-21.57661458,0.14842719
YRY,39,0,2024-06-14T12:48:02.904Z,english_894.wav,0,1,342,23,4,Mandarin,f,11,1.09391667,-6.12644826,0.9088618
YRY,40,0,2024-06-14T12:48:02.904Z,english_67.wav,0,1,505,23,4,Mandarin,f,0,0,-84.65948026,1.62658343
YRY,40,0,2024-06-14T12:48:02.904Z,english_67.wav,0,1,505,23,4,Mandarin,f,1,0.1,84.7606233,0.18718182
YRY,40,0,2024-06-14T12:48:02.904Z,english_67.wav,0,1,505,23,4,Mandarin,f,2,0.2,84.84791272,1.32224913
YRY,40,0,2024-06-14T12:48:02.904Z,english_67.wav,0,1,505,23,4,Mandarin,f,3,0.3,-54.63561635,1.26573793
YRY,40,0,2024-06-14T12:48:02.904Z,english_67.wav,0,1,505,23,4,Mandarin,f,4,0.4,-93.28689033,0.84125882
YRY,40,0,2024-06-14T12:48:02.904Z,english_67.wav,0,1,505,23,4,Mandarin,f,5,0.5,15.62357322,0.24401609
YRY,40,0,2024-06-14T12:48:02.904Z,english_67.wav,0,1,505,23,4,Mandarin,f,6,0.6,70.84522179,0.63082719
YRY,40,0,2024-06-14T12:48:02.904Z,english_67.wav,0,1,505,23,4,Mandarin,f,7,0.7,18.01432969,0.80351313
YRY,40,0,2024-06-14T12:48:02.904Z,english_67.wav,0,1,505,23,4,Mandarin,f,8,0.8,-96.46193504,0.91980261
YRY,40,0,2024-06-14T12:48:02.904Z,english_67.wav,0,1,505,23,4,Mandarin,f,9,0.9,-76.01913404,0.79845133
YRY,40,0,2024-06-14T12:48:02.904Z,english_67.wav,0,1,505,23,4,Mandarin,f,10,1,21.66220953,1.38280114
YRY,40,0,2024-06-14T12:48:02.904Z,english_67.wav,0,1,505,23,4,Mandarin,f,11,1.09391667,58.72019725,0.4179158
YRY,41,0,2024-06-14T12:48:02.904Z,english_126.wav,0,1,308,23,4,Mandarin,f,0,0,17.23277349,0.07681875
YRY,41,0,2024-06-14T12:48:02.904Z,english_126.wav,0,1,308,23,4,Mandarin,f,1,0.1,-82.02564831,1.15308157
YRY,41,0,2024-06-14T12:48:02.904Z,english_126.wav,0,1,308,23,4,Mandarin,f,2,0.2,-89.77449202,0.24325653
YRY,41,0,2024-06-14T12:48:02.904Z,english_126.wav,0,1,308,23,4,Mandarin,f,3,0.3,-51.19975639,0.26308615
YRY,41,0,2024-06-14T12:48:02.904Z,english_126.wav,0,1,308,23,4,Mandarin,f,4,0.4,-15.70542785,1.15666053
YRY,41,0,2024-06-14T12:48:02.904Z,english_126.wav,0,1,308,23,4,Mandarin,f,5,0.5,-86.49178279,0.93452427
YRY,41,0,2024-06-14T12:48:02.904Z,english_126.wav,0,1,308,23,4,Mandarin,f,6,0.6,-63.9993416,1.80863716
YRY,41,0,2024-06-14T12:48:02.904Z,english_126.wav,0,1,308,23,4,Mandarin,f,7,0.7,15.94919888,1.09862854
YRY,41,0,2024-06-14T12:48:02.904Z,english_126.wav,0,1,308,23,4,Mandarin,f,8,0.8,14.83212149,1.20748097
YRY,41,0,2024-06-14T12:48:02.904Z,english_126.wav,0,1,308,23,4,Mandarin,f,9,0.9,89.46410037,1.44558157
YRY,41,0,2024-06-14T12:48:02.904Z,english_126.wav,0,1,308,23,4,Mandarin,f,10,1,-9.32479478,0.49090758
YRY,41,0,2024-06-14T12:48:02.904Z,english_126.wav,0,1,308,23,4,Mandarin,f,11,1.09391667,36.75071045,0.88504815
YRY,42,0,2024-06-14T12:48:02.904Z,english_187.wav,0,1,1171,23,4,Mandarin,f,0,0,55.99370729,1.82256068
YRY,42,0,2024-06-14T12:48:02.904Z,english_187.wav,0,1,1171,23,4,Mandarin,f,1,0.1,-13.74585555,1.69505517
YRY,42,0,2024-06-14T12:48:02.904Z,english_187.wav,0,1,1171,23,4,Mandarin,f,2,0.2,-0.42640895,1.33791079
YRY,42,0,2024-06-14T12:48:02.904Z,english_187.wav,0,1,1171,23,4,Mandarin,f,3,0.3,-47.34493384,0.12415078
YRY,42,0,2024-06-14T12:48:02.904Z,english_187.wav,0,1,1171,23,4,Mandarin,f,4,0.4,1.27244399,1.40350832
YRY,42,0,2024-06-14T12:48:02.904Z,english_187.wav,0,1,1171,23,4,Mandarin,f,5,0.5,-51.74565009,1.6134035
YRY,42,0,2024-06-14T12:48:02.904Z,english_187.wav,0,1,1171,23,4,Mandarin,f,6,0.6,-77.25155481,1.12966524
YRY,42,0,2024-06-14T12:48:02.904Z,english_187.wav,0,1,1171,23,4,Mandarin,f,7,0.7,69.19112944,0.02740784
YRY,42,0,2024-06-14T12:48:02.904Z,english_187.wav,0,1,1171,23,4,Mandarin,f,8,0.8,-97.84143732,1.26777643
YRY,42,0,2024-06-14T12:48:02.904Z,english_187.wav,0,1,1171,23,4,Mandarin,f,9,0.9,5.06490506,1.52431862
YRY,42,0,2024-06-14T12:48:02.904Z,english_187.wav,0,1,1171,23,4,Mandarin,f,10,1,67.30450542,1.3588447
YRY,42,0,2024-06-14T12:48:02.904Z,english_187.wav,0,1,1171,23,4,Mandarin,f,11,1.09391667,44.03847764,1.80453633
YRY,43,0,2024-06-14T12:48:02.904Z,english_256.wav,0,1,1816,23,4,Mandarin,f,0,0,19.13786367,0.71756401
YRY,43,0,2024-06-14T12:48:02.904Z,english_256.wav,0,1,1816,23,4,Mandarin,f,1,0.1,78.7613355,1.21129656
YRY,43,0,2024-06-14T12:48:02.904Z,english_256.wav,0,1,1816,23,4,Mandarin,f,2,0.2,-10.99930376,0.86820307
YRY,43,0,2024-06-14T12:48:02.904Z,english_256.wav,0,1,1816,23,4,Mandarin,f,3,0.3,-4.24203719,0.23513199
YRY,43,0,2024-06-14T12:48:02.904Z,english_256.wav,0,1,1816,23,4,Mandarin,f,4,0.4,-18.22969313,1.96127331
YRY,43,0,2024-06-14T12:48:02.904Z,english_256.wav,0,1,1816,23,4,Mandarin,f,5,0.5,-1.97438764,1.02094295
YRY,43,0,2024-06-14T12:48:02.904Z,english_256.wav,0,1,1816,23,4,Mandarin,f,6,0.6,58.65018523,0.44586948
YRY,43,0,2024-06-14T12:48:02.904Z,english_256.wav,0,1,1816,23,4,Mandarin,f,7,0.7,-44.17944685,0.67070074
YRY,43,0,2024-06-14T12:48:02.904Z,english_256.wav,0,1,1816,23,4,Mandarin,f,8,0.8,-19.76307931,0.92528927
YRY,43,0,2024-06-14T12:48:02.904Z,english_256.wav,0,1,1816,23,4,Mandarin,f,9,0.9,51.42512852,0.89913532
YRY,43,0,2024-06-14T12:48:02.904Z,english_256.wav,0,1,1816,23,4,Mandarin,f,10,1,29.86121545,1.8576014
YRY,43,0,2024-06-14T12:48:02.904Z,english_256.wav,0,1,1816,23,4,Mandarin,f,11,1.09391667,94.6134288,1.03800996
YRY,44,0,2024-06-14T12:48:02.904Z,english_552.wav,0,1,586,23,4,Mandarin,f,0,0,24.23901763,1.612105
YRY,44,0,2024-06-14T12:48:02.904Z,english_552.wav,0,1,586,23,4,Mandarin,f,1,0.1,-68.29569332,0.23755281
YRY,44,0,2024-06-14T12:48:02.904Z,english_552.wav,0,1,586,23,4,Mandarin,f,2,0.2,-76.60440788,1.12644766
YRY,44,0,2024-06-14T12:48:02.904Z,english_552.wav,0,1,586,23,4,Mandarin,f,3,0.3,-14.28309722,1.6498911
YRY,44,0,2024-06-14T12:48:02.904Z,english_552.wav,0,1,586,23,4,Mandarin,f,4,0.4,7.45259631,1.62705162
YRY,44,0,2024-06-14T12:48:02.904Z,english_552.wav,0,1,586,23,4,Mandarin,f,5,0.5,-96.79412631,0.02108582
YRY,44,0,2024-06-14T12:48:02.904Z,english_552.wav,0,1,586,23,4,Mandarin,f,6,0.6,19.00121721,0.46250888
YRY,44,0,2024-06-14T12:48:02.904Z,english_552.wav,0,1,586,23,4,Mandarin,f,7,0.7,28.47093687,0.61388361
YRY,44,0,2024-06-14T12:48:02.904Z,english_552.wav,0,1,586,23,4,Mandarin,f,8,0.8,-28.36467118,1.42538322
YRY,44,0,2024-06-14T12:48:02.904Z,english_552.wav,0,1,586,23,4,Mandarin,f,9,0.9,27.37810517,1.50029895
YRY,44,0,2024-06-14T12:48:02.904Z,english_552.wav,0,1,586,23,4,Mandarin,f,10,1,-1.36668835,0.7956711
YRY,44,0,2024-06-14T12:48:02.904Z,english_552.wav,0,1,586,23,4,Mandarin,f,11,1.09391667,-10.50305513,0.62245048
YRY,45,0,2024-06-14T12:48:02.904Z,english_445.wav,0,0,2644,23,4,Mandarin,f,0,0,76.42112213,1.57802926
YRY,45,0,2024-06-14T12:48:02.904Z,english_445.wav,0,0,2644,23,4,Mandarin,f,1,0.1,-97.95203426,1.29835175
YRY,45,0,2024-06-14T12:48:02.904Z,english_445.wav,0,0,2644,23,4,Mandarin,f,2,0.2,-59.82746333,0.53636504
YRY,45,0,2024-06-14T12:48:02.904Z,english_445.wav,0,0,2644,23,4,Mandarin,f,3,0.3,-13.48573522,1.2021667
YRY,45,0,2024-06-14T12:48:02.904Z,english_445.wav,0,0,2644,23,4,Mandarin,f,4,0.4,81.29973607,1.41426839
YRY,45,0,2024-06-14T12:48:02.904Z,english_445.wav,0,0,2644,23,4,Mandarin,f,5,0.5,41.3671656,1.60295296
YRY,45,0,2024-06-14T12:48:02.904Z,english_445.wav,0,0,2644,23,4,Mandarin,f,6,0.6,-85.98514438,0.58159358
YRY,45,0,2024-06-14T12:48:02.904Z,english_445.wav,0,0,2644,23,4,Mandarin,f,7,0.7,57.90232239,0.76199649
YRY,45,0,2024-06-14T12:48:02.904Z,english_445.wav,0,0,2644,23,4,Mandarin,f,8,0.8,-95.60547231,0.54097795
YRY,45,0,2024-06-14T12:48:02.904Z,english_445.wav,0,0,2644,23,4,Mandarin,f,9,0.9,17.13362758,0.00538706
YRY,45,0,2024-06-14T12:48:02.904Z,english_445.wav,0,0,2644,23,4,Mandarin,f,10,1,46.54539843,0.3060589
YRY,45,0,2024-06-14T12:48:02.904Z,english_445.wav,0,0,2644,23,4,Mandarin,f,11,1.09391667,43.78720367,1.39576853
YRY,46,0,2024-06-14T12:48:02.904Z,english_135.wav,0,0,7565,23,4,Mandarin,f,0,0,1.52771956,1.05574256
YRY,46,0,2024-06-14T12:48:02.904Z,english_135.wav,0,0,7565,23,4,Mandarin,f,1,0.1,87.85930758,0.07400982
YRY,46,0,2024-06-14T12:48:02.904Z,english_135.wav,0,0,7565,23,4,Mandarin,f,2,0.2,10.69232429,1.27555025
YRY,46,0,2024-06-14T12:48:02.904Z,english_135.wav,0,0,7565,23,4,Mandarin,f,3,0.3,-30.56293348,1.65548466
YRY,46,0,2024-06-14T12:48:02.904Z,english_135.wav,0,0,7565,23,4,Mandarin,f,4,0.4,18.68768105,0.65488565
YRY,46,0,2024-06-14T12:48:02.904Z,english_135.wav,0,0,7565,23,4,Mandarin,f,5,0.5,83.74749446,1.6850938
YRY,46,0,2024-06-14T12:48:02.904Z,english_135.wav,0,0,7565,23,4,Mandarin,f,6,0.6,2.30267465,0.17916719
YRY,46,0,2024-06-14T12:48:02.904Z,english_135.wav,0,0,7565,23,4,Mandarin,f,7,0.7,10.55624665,0.7091252
YRY,46,0,2024-06-14T12:48:02.904Z,english_135.wav,0,0,7565,23,4,Mandarin,f,8,0.8,-52.17497639,1.14424326
YRY,46,0,2024-06-14T12:48:02.904Z,english_135.wav,0,0,7565,23,4,Mandarin,f,9,0.9,63.1552018,0.08021557
YRY,46,0,2024-06-14T12:48:02.904Z,english_135.wav,0,0,7565,23,4,Mandarin,f,10,1,32.56027872,1.28558373
YRY,46,0,2024-06-14T12:48:02.904Z,english_135.wav,0,0,7565,23,4,Mandarin,f,11,1.09391667,49.01841871,0.80254185
YRY,47,0,2024-06-14T12:48:02.904Z,english_819.wav,0,1,369,23,4,Mandarin,f,0,0,6.72623194,0.10273963
YRY,47,0,2024-06-14T12:48:02.904Z,english_819.wav,0,1,369,23,4,Mandarin,f,1,0.1,-24.07867569,0.80237212
YRY,47,0,2024-06-14T12:48:02.904Z,english_819.wav,0,1,369,23,4,Mandarin,f,2,0.2,-75.26306383,1.8012582
YRY,47,0,2024-06-14T12:48:02.904Z,english_819.wav,0,1,369,23,4,Mandarin,f,3,0.3,85.43148154,0.87923376
YRY,47,0,2024-06-14T12:48:02.904Z,english_819.wav,0,1,369,23,4,Mandarin,f,4,0.4,-22.40483415,1.38500076
YRY,47,0,2024-06-14T12:48:02.904Z,english_819.wav,0,1,369,23,4,Mandarin,f,5,0.5,1.97440144,1.100674
YRY,47,0,2024-06-14T12:48:02.904Z,english_819.wav,0,1,369,23,4,Mandarin,f,6,0.6,75.70782388,0.97376952
YRY,47,0,2024-06-14T12:48:02.904Z,english_819.wav,0,1,369,23,4,Mandarin,f,7,0.7,95.57794207,0.98089121
YRY,47,0,2024-06-14T12:48:02.904Z,english_819.wav,0,1,369,23,4,Mandarin,f,8,0.8,65.41207774,0.54459863
YRY,47,0,2024-06-14T12:48:02.904Z,english_819.wav,0,1,369,23,4,Mandarin,f,9,0.9,20.80814343,0.87801334
YRY,47,0,2024-06-14T12:48:02.904Z,english_819.wav,0,1,369,23,4,Mandarin,f,10,1,82.13081789,1.51334628
YRY,47,0,2024-06-14T12:48:02.904Z,english_819.wav,0,1,369,23,4,Mandarin,f,11,1.09391667,8.11322976,1.26475282
YRY,48,0,2024-06-14T12:48:02.904Z,english_29.wav,0,1,5575,23,4,Mandarin,f,0,0,26.34165935,1.71213773
YRY,48,0,2024-06-14T12:48:02.904Z,english_29.wav,0,1,5575,23,4,Mandarin,f,1,0.1,-56.59594866,1.15120834
YRY,48,0,2024-06-14T12:48:02.904Z,english_29.wav,0,1,5575,23,4,Mandarin,f,2,0.2,55.77264446,0.20532707
YRY,48,0,2024-06-14T12:48:02.904Z,english_29.wav,0,1,5575,23,4,Mandarin,f,3,0.3,59.58576331,1.44609217
YRY,48,0,2024-06-14T12:48:02.904Z,english_29.wav,0,1,5575,23,4,Mandarin,f,4,0.4,50.57214918,1.59031005
YRY,48,0,2024-06-14T12:48:02.904Z,english_29.wav,0,1,5575,23,4,Mandarin,f,5,0.5,-27.64478316,1.08553967
YRY,48,0,2024-06-14T12:48:02.904Z,english_29.wav,0,1,5575,23,4,Mandarin,f,6,0.6,2.0668356,0.33734673
YRY,48,0,2024-06-14T12:48:02.904Z,english_29.wav,0,1,5575,23,4,Mandarin,f,7,0.7,16.42838057,1.73819429
YRY,48,0,2024-06-14T12:48:02.904Z,english_29.wav,0,1,5575,23,4,Mandarin,f,8,0.8,-69.32816756,1.21021958
YRY,48,0,2024-06-14T12:48:02.904Z,english_29.wav,0,1,5575,23,4,Mandarin,f,9,0.9,-50.9336042,0.40648389
YRY,48,0,2024-06-14T12:48:02.904Z,english_29.wav,0,1,5575,23,4,Mandarin,f,10,1,-74.04317483,1.02452254
YRY,48,0,2024-06-14T12:48:02.904Z,english_29.wav,0,1,5575,23,4,Mandarin,f,11,1.09391667,-55.97160762,0.57453433
YRY,49,0,2024-06-14T12:48:02.904Z,english_506.wav,0,1,279,23,4,Mandarin,f,0,0,-13.3952031,0.85990944
YRY,49,0,2024-06-14T12:48:02.904Z,english_506.wav,0,1,279,23,4,Mandarin,f,1,0.1,8.8632007,0.40173642
YRY,49,0,2024-06-14T12:48:02.904Z,english_506.wav,0,1,279,23,4,Mandarin,f,2,0.2,-83.95985859,0.03154553
YRY,49,0,2024-06-14T12:48:02.904Z,english_506.wav,0,1,279,23,4,Mandarin,f,3,0.3,38.02193565,0.39528278
YRY,49,0,2024-06-14T12:48:02.904Z,english_506.wav,0,1,279,23,4,Mandarin,f,4,0.4,29.61638046,0.64999614
YRY,49,0,2024-06-14T12:48:02.904Z,english_506.wav,0,1,279,23,4,Mandarin,f,5,0.5,91.08087873,0.76132632
YRY,49,0,2024-06-14T12:48:02.904Z,english_506.wav,0,1,279,23,4,Mandarin,f,6,0.6,45.85080553,0.84020916
YRY,49,0,2024-06-14T12:48:02.904Z,english_506.wav,0,1,279,23,4,Mandarin,f,7,0.7,15.18618823,1.25961369
YRY,49,0,2024-06-14T12:48:02.904Z,english_506.wav,0,1,279,23,4,Mandarin,f,8,0.8,7.43914734,1.02786985
YRY,49,0,2024-06-14T12:48:02.904Z,english_506.wav,0,1,279,23,4,Mandarin,f,9,0.9,90.87583829,1.37241819
YRY,49,0,2024-06-14T12:48:02.904Z,english_506.wav,0,1,279,23,4,Mandarin,f,10,1,-85.58318538,0.76507647
YRY,49,0,2024-06-14T12:48:02.904Z,english_506.wav,0,1,279,23,4,Mandarin,f,11,1.09391667,-68.83720883,1.93766079
YRY,50,1,2024-06-14T12:48:02.904Z,english_326.wav,0,1,766,23,4,Mandarin,f,0,0,-43.10917618,0.92818159
YRY,50,1,2024-06-14T12:48:02.904Z,english_326.wav,0,1,766,23,4,Mandarin,f,1,0.1,51.71010142,0.32622589
YRY,50,1,2024-06-14T12:48:02.904Z,english_326.wav,0,1,766,23,4,Mandarin,f,2,0.2,-51.98898793,0.25183357
YRY,50,1,2024-06-14T12:48:02.904Z,english_326.wav,0,1,766,23,4,Mandarin,f,3,0.3,-88.25420689,0.15547956
YRY,50,1,2024-06-14T12:48:02.904Z,english_326.wav,0,1,766,23,4,Mandarin,f,4,0.4,-29.81917635,0.54551317
YRY,50,1,2024-06-14T12:48:02.904Z,english_326.wav,0,1,766,23,4,Mandarin,f,5,0.5,-40.02564907,0.579881
YRY,50,1,2024-06-14T12:48:02.904Z,english_326.wav,0,1,766,23,4,Mandarin,f,6,0.6,-80.61031076,0.72251342
YRY,50,1,2024-06-14T12:48:02.904Z,english_326.wav,0,1,766,23,4,Mandarin,f,7,0.7,27.73097561,1.44758164
YRY,50,1,2024-06-14T12:48:02.904Z,english_326.wav,0,1,766,23,4,Mandarin,f,8,0.8,86.25406042,1.07961509
YRY,50,1,2024-06-14T12:48:02.904Z,english_326.wav,0,1,766,23,4,Mandarin,f,9,0.9,-98.97965016,1.11677138
YRY,50,1,2024-06-14T12:48:02.904Z,english_326.wav,0,1,766,23,4,Mandarin,f,10,1,-32.16564668,0.90130016
YRY,50,1,2024-06-14T12:48:02.904Z,english_326.wav,0,1,766,23,4,Mandarin,f,11,1.09391667,-99.19861207,0.29135461
YRY,51,1,2024-06-14T12:48:02.904Z,english_754.wav,0,1,581,23,4,Mandarin,f,0,0,-64.18066608,1.31756219
YRY,51,1,2024-06-14T12:48:02.904Z,english_754.wav,0,1,581,23,4,Mandarin,f,1,0.1,-98.7453181,0.6775935
YRY,51,1,2024-06-14T12:48:02.904Z,english_754.wav,0,1,581,23,4,Mandarin,f,2,0.2,-52.29987626,0.44453287
YRY,51,1,2024-06-14T12:48:02.904Z,english_754.wav,0,1,581,23,4,Mandarin,f,3,0.3,-91.6870734,0.79930959
YRY,51,1,2024-06-14T12:48:02.904Z,english_754.wav,0,1,581,23,4,Mandarin,f,4,0.4,-99.93480519,0.36385227
YRY,51,1,2024-06-14T12:48:02.904Z,english_754.wav,0,1,581,23,4,Mandarin,f,5,0.5,-2.56117899,1.60724529
YRY,51,1,2024-06-14T12:48:02.904Z,english_754.wav,0,1,581,23,4,Mandarin,f,6,0.6,-58.25705586,1.54119087
YRY,51,1,2024-06-14T12:48:02.904Z,english_754.wav,0,1,581,23,4,Mandarin,f,7,0.7,-50.59283721,0.4128908
YRY,51,1,2024-06-14T12:48:02.904Z,english_754.wav,0,1,581,23,4,Mandarin,f,8,0.8,-3.4865488,0.89168042
YRY,51,1,2024-06-14T12:48:02.904Z,english_754.wav,0,1,581,23,4,Mandarin,f,9,0.9,11.81028617,0.16017021
YRY,51,1,2024-06-14T12:48:02.904Z,english_754.wav,0,1,581,23,4,Mandarin,f,10,1,27.46545009,1.03192762
YRY,51,1,2024-06-14T12:48:02.904Z,english_754.wav,0,1,581,23,4,Mandarin,f,11,1.09391667,8.3161915,0.24632806
YRY,52,1,2024-06-14T12:48:02.904Z,english_662.wav,0,1,461,23,4,Mandarin,f,0,0,31.31886637,0.51844492
YRY,52,1,2024-06-14T12:48:02.904Z,english_662.wav,0,1,461,23,4,Mandarin,f,1,0.1,-45.58012984,1.26337535
YRY,52,1,2024-06-14T12:48:02.904Z,english_662.wav,0,1,461,23,4,Mandarin,f,2,0.2,-36.67335117,1.47948125
YRY,52,1,2024-06-14T12:48:02.904Z,english_662.wav,0,1,461,23,4,Mandarin,f,3,0.3,91.68908931,1.54973702
YRY,52,1,2024-06-14T12:48:02.904Z,english_662.wav,0,1,461,23,4,Mandarin,f,4,0.4,99.42890358,1.40573319
YRY,52,1,2024-06-14T12:48:02.904Z,english_662.wav,0,1,461,23,4,Mandarin,f,5,0.5,-75.06867948,0.46765036
YRY,52,1,2024-06-14T12:48:02.904Z,english_662.wav,0,1,461,23,4,Mandarin,f,6,0.6,-53.3060983,1.29577772
YRY,52,1,2024-06-14T12:48:02.904Z,english_662.wav,0,1,461,23,4,Mandarin,f,7,0.7,66.7707286,1.28176027
YRY,52,1,2024-06-14T12:48:02.904Z,english_662.wav,0,1,461,23,4,Mandarin,f,8,0.8,69.18702853,1.79426909
YRY,52,1,2024-06-14T12:48:02.904Z,english_662.wav,0,1,461,23,4,Mandarin,f,9,0.9,-16.72052533,0.76623174
YRY,52,1,2024-06-14T12:48:02.904Z,english_662.wav,0,1,461,23,4,Mandarin,f,10,1,16.50634939,1.90203541
YRY,52,1,2024-06-14T12:48:02.904Z,english_662.wav,0,1,461,23,4,Mandarin,f,11,1.09391667,79.32738685,1.85204165
YRY,53,1,2024-06-14T12:48:02.904Z,english_635.wav,0,1,81,23,4,Mandarin,f,0,0,-41.6388758,1.40170403
YRY,53,1,2024-06-14T12:48:02.904Z,english_635.wav,0,1,81,23,4,Mandarin,f,1,0.1,-11.25355895,0.13720713
YRY,53,1,2024-06-14T12:48:02.904Z,english_635.wav,0,1,81,23,4,Mandarin,f,2,0.2,29.06457521,0.8768091
YRY,53,1,2024-06-14T12:48:02.904Z,english_635.wav,0,1,81,23,4,Mandarin,f,3,0.3,33.43535693,0.4792802
YRY,53,1,2024-06-14T12:48:02.904Z,english_635.wav,0,1,81,23,4,Mandarin,f,4,0.4,-80.91767575,1.34026296
YRY,53,1,2024-06-14T12:48:02.904Z,english_635.wav,0,1,81,23,4,Mandarin,f,5,0.5,27.23293816,0.71042457
YRY,53,1,2024-06-14T12:48:02.904Z,english_635.wav,0,1,81,23,4,Mandarin,f,6,0.6,37.31603404,1.12917353
YRY,53,1,2024-06-14T12:48:02.904Z,english_635.wav,0,1,81,23,4,Mandarin,f,7,0.7,-20.25902841,1.54130177
YRY,53,1,2024-06-14T12:48:02.904Z,english_635.wav,0,1,81,23,4,Mandarin,f,8,0.8,91.76121844,1.57938519
YRY,53,1,2024-06-14T12:48:02.904Z,english_635.wav,0,1,81,23,4,Mandarin,f,9,0.9,18.10072646,1.51480287
YRY,53,1,2024-06-14T12:48:02.904Z,english_635.wav,0,1,81,23,4,Mandarin,f,10,1,-34.91216452,1.85110037
YRY,53,1,2024-06-14T12:48:02.904Z,english_635.wav,0,1,81,23,4,Mandarin,f,11,1.09391667,73.01340773,0.29889363
YRY,54,1,2024-06-14T12:48:02.904Z,english_638.wav,0,1,180,23,4,Mandarin,f,0,0,27.0849984,1.3280689
YRY,54,1,2024-06-14T12:48:02.904Z,english_638.wav,0,1,180,23,4,Mandarin,f,1,0.1,-76.77372335,0.56896387
YRY,54,1,2024-06-14T12:48:02.904Z,english_638.wav,0,1,180,23,4,Mandarin,f,2,0.2,-5.6974772,0.56746927
YRY,54,1,2024-06-14T12:48:02.904Z,english_638.wav,0,1,180,23,4,Mandarin,f,3,0.3,-27.04640621,0.40067671
YRY,54,1,2024-06-14T12:48:02.904Z,english_638.wav,0,1,180,23,4,Mandarin,f,4,0.4,10.67934685,1.88228275
YRY,54,1,2024-06-14T12:48:02.904Z,english_638.wav,0,1,180,23,4,Mandarin,f,5,0.5,-13.18628206,0.52168705
YRY,54,1,2024-06-14T12:48:02.904Z,english_638.wav,0,1,180,23,4,Mandarin,f,6,0.6,11.34372698,0.80905376
YRY,54,1,2024-06-14T12:48:02.904Z,english_638.wav,0,1,180,23,4,Mandarin,f,7,0.7,-64.2430687,1.41810717
YRY,54,1,2024-06-14T12:48:02.904Z,english_638.wav,0,1,180,23,4,Mandarin,f,8,0.8,46.35115049,1.8285697
YRY,54,1,2024-06-14T12:48:02.904Z,english_638.wav,0,1,180,23,4,Mandarin,f,9,0.9,44.69499683,0.3100636
YRY,54,1,2024-06-14T12:48:02.904Z,english_638.wav,0,1,180,23,4,Mandarin,f,10,1,-11.73136011,1.74790386
YRY,54,1,2024-06-14T12:48:02.904Z,english_638.wav,0,1,180,23,4,Mandarin,f,11,1.09391667,-77.04953993,1.8348397
YRY,55,1,2024-06-14T12:48:02.904Z,english_523.wav,0,1,884,23,4,Mandarin,f,0,0,-25.97539799,0.34449626
YRY,55,1,2024-06-14T12:48:02.904Z,english_523.wav,0,1,884,23,4,Mandarin,f,1,0.1,-25.11108095,0.18549089
YRY,55,1,2024-06-14T12:48:02.904Z,english_523.wav,0,1,884,23,4,Mandarin,f,2,0.2,-67.4070828,1.10257375
YRY,55,1,2024-06-14T12:48:02.904Z,english_523.wav,0,1,884,23,4,Mandarin,f,3,0.3,14.34055957,0.39893493
YRY,55,1,2024-06-14T12:48:02.904Z,english_523.wav,0,1,884,23,4,Mandarin,f,4,0.4,10.27536217,1.8821087
YRY,55,1,2024-06-14T12:48:02.904Z,english_523.wav,0,1,884,23,4,Mandarin,f,5,0.5,2.68899624,1.33802983
YRY,55,1,2024-06-14T12:48:02.904Z,english_523.wav,0,1,884,23,4,Mandarin,f,6,0.6,5.43637058,1.93381979
YRY,55,1,2024-06-14T12:48:02.904Z,english_523.wav,0,1,884,23,4,Mandarin,f,7,0.7,84.96836729,1.3963609
YRY,55,1,2024-06-14T12:48:02.904Z,english_523.wav,0,1,884,23,4,Mandarin,f,8,0.8,0.15377924,0.58447079
YRY,55,1,2024-06-14T12:48:02.904Z,english_523.wav,0,1,884,23,4,Mandarin,f,9,0.9,-34.21093103,0.41716989
YRY,55,1,2024-06-14T12:48:02.904Z,english_523.wav,0,1,884,23,4,Mandarin,f,10,1,-94.05275706,1.25827867
YRY,55,1,2024-06-14T12:48:02.904Z,english_523.wav,0,1,884,23,4,Mandarin,f,11,1.09391667,-75.26058007,0.83944497
YRY,56,1,2024-06-14T12:48:02.904Z,english_293.wav,0,1,592,23,4,Mandarin,f,0,0,-41.6717185,1.35571263
YRY,56,1,2024-06-14T12:48:02.904Z,english_293.wav,0,1,592,23,4,Mandarin,f,1,0.1,80.2291893,0.51147984
YRY,56,1,2024-06-14T12:48:02.904Z,english_293.wav,0,1,592,23,4,Mandarin,f,2,0.2,-71.0140068,0.41951934
YRY,56,1,2024-06-14T12:48:02.904Z,english_293.wav,0,1,592,23,4,Mandarin,f,3,0.3,-90.64066123,0.6442562
YRY,56,1,2024-06-14T12:48:02.904Z,english_293.wav,0,1,592,23,4,Mandarin,f,4,0.4,-6.53332233,0.98522539
YRY,56,1,2024-06-14T12:48:02.904Z,english_293.wav,0,1,592,23,4,Mandarin,f,5,0.5,-9.32979117,0.92132945
YRY,56,1,2024-06-14T12:48:02.904Z,english_293.wav,0,1,592,23,4,Mandarin,f,6,0.6,53.89735235,1.4753131
YRY,56,1,2024-06-14T12:48:02.904Z,english_293.wav,0,1,592,23,4,Mandarin,f,7,0.7,-63.4364313,0.11499708
YRY,56,1,2024-06-14T12:48:02.904Z,english_293.wav,0,1,592,23,4,Mandarin,f,8,0.8,-96.19547901,1.03841664
YRY,56,1,2024-06-14T12:48:02.904Z,english_293.wav,0,1,592,23,4,Mandarin,f,9,0.9,-36.41686224,1.94583411
YRY,56,1,2024-06-14T12:48:02.904Z,english_293.wav,0,1,592,23,4,Mandarin,f,10,1,99.46412477,0.65545153
YRY,56,1,2024-06-14T12:48:02.904Z,english_293.wav,0,1,592,23,4,Mandarin,f,11,1.09391667,17.36040502,1.59979165
YRY,57,1,2024-06-14T12:48:02.904Z,english_417.wav,0,1,542,23,4,Mandarin,f,0,0,29.37383655,1.92425936
YRY,57,1,2024-06-14T12:48:02.904Z,english_417.wav,0,1,542,23,4,Mandarin,f,1,0.1,23.19156398,0.6229039
YRY,57,1,2024-06-14T12:48:02.904Z,english_417.wav,0,1,542,23,4,Mandarin,f,2,0.2,85.81337763,1.36154183
YRY,57,1,2024-06-14T12:48:02.904Z,english_417.wav,0,1,542,23,4,Mandarin,f,3,0.3,-29.64908449,0.09031289
YRY,57,1,2024-06-14T12:48:02.904Z,english_417.wav,0,1,542,23,4,Mandarin,f,4,0.4,8.97904128,0.90960709
YRY,57,1,2024-06-14T12:48:02.904Z,english_417.wav,0,1,542,23,4,Mandarin,f,5,0.5,39.22706603,1.25920128
YRY,57,1,2024-06-14T12:48:02.904Z,english_417.wav,0,1,542,23,4,Mandarin,f,6,0.6,61.83715867,1.48525242
YRY,57,1,2024-06-14T12:48:02.904Z,english_417.wav,0,1,542,23,4,Mandarin,f,7,0.7,-85.41027475,0.60232136
YRY,57,1,2024-06-14T12:48:02.904Z,english_417.wav,0,1,542,23,4,Mandarin,f,8,0.8,73.95238576,0.50952592
YRY,57,1,2024-06-14T12:48:02.904Z,english_417.wav,0,1,542,23,4,Mandarin,f,9,0.9,27.80762862,0.22145612
YRY,57,1,2024-06-14T12:48:02.904Z,english_417.wav,0,1,542,23,4,Mandarin,f,10,1,-27.42196196,0.91644458
YRY,57,1,2024-06-14T12:48:02.904Z,english_417.wav,0,1,542,23,4,Mandarin,f,11,1.09391667,-33.44848628,1.07641807
YRY,58,1,2024-06-14T12:48:02.904Z,english_747.wav,0,1,187,23,4,Mandarin,f,0,0,33.9885207,1.47964533
YRY,58,1,2024-06-14T12:48:02.904Z,english_747.wav,0,1,187,23,4,Mandarin,f,1,0.1,-71.14283381,1.57695323
YRY,58,1,2024-06-14T12:48:02.904Z,english_747.wav,0,1,187,23,4,Mandarin,f,2,0.2,-52.52906762,1.13707985
YRY,58,1,2024-06-14T12:48:02.904Z,english_747.wav,0,1,187,23,4,Mandarin,f,3,0.3,79.5756924,1.65073603
YRY,58,1,2024-06-14T12:48:02.904Z,english_747.wav,0,1,187,23,4,Mandarin,f,4,0.4,-13.30932063,0.47172054
YRY,58,1,2024-06-14T12:48:02.904Z,english_747.wav,0,1,187,23,4,Mandarin,f,5,0.5,25.54535415,1.37786003
YRY,58,1,2024-06-14T12:48:02.904Z,english_747.wav,0,1,187,23,4,Mandarin,f,6,0.6,8.02344494,1.58889604
YRY,58,1,2024-06-14T12:48:02.904Z,english_747.wav,0,1,187,23,4,Mandarin,f,7,0.7,-38.13543806,1.29683876
YRY,58,1,2024-06-14T12:48:02.904Z,english_747.wav,0,1,187,23,4,Mandarin,f,8,0.8,22.33599648,1.65514229
YRY,58,1,2024-06-14T12:48:02.904Z,english_747.wav,0,1,187,23,4,Mandarin,f,9,0.9,-26.77712134,1.18735968
YRY,58,1,2024-06-14T12:48:02.904Z,english_747.wav,0,1,187,23,4,Mandarin,f,10,1,-6.09351927,1.37962036
YRY,58,1,2024-06-14T12:48:02.904Z,english_747.wav,0,1,187,23,4,Mandarin,f,11,1.09391667,43.23579595,1.3791581
YRY,59,1,2024-06-14T12:48:02.904Z,english_288.wav,0,0,532,23,4,Mandarin,f,0,0,-10.61246008,0.04412775
YRY,59,1,2024-06-14T12:48:02.904Z,english_288.wav,0,0,532,23,4,Mandarin,f,1,0.1,-77.3112588,0.21847975
YRY,59,1,2024-06-14T12:48:02.904Z,english_288.wav,0,0,532,23,4,Mandarin,f,2,0.2,12.30562344,1.50294944
YRY,59,1,2024-06-14T12:48:02.904Z,english_288.wav,0,0,532,23,4,Mandarin,f,3,0.3,-36.70742639,1.12595953
YRY,59,1,2024-06-14T12:48:02.904Z,english_288.wav,0,0,532,23,4,Mandarin,f,4,0.4,41.04793924,1.62688255
YRY,59,1,2024-06-14T12:48:02.904Z,english_288.wav,0,0,532,23,4,Mandarin,f,5,0.5,-35.19832077,1.25280317
YRY,59,1,2024-06-14T12:48:02.904Z,english_288.wav,0,0,532,23,4,Mandarin,f,6,0.6,-67.76212828,1.61760302
YRY,59,1,2024-06-14T12:48:02.904Z,english_288.wav,0,0,532,23,4,Mandarin,f,7,0.7,-31.76962834,1.08014254
YRY,59,1,2024-06-14T12:48:02.904Z,english_288.wav,0,0,532,23,4,Mandarin,f,8,0.8,52.35478753,0.46218832
YRY,59,1,2024-06-14T12:48:02.904Z,english_288.wav,0,0,532,23,4,Mandarin,f,9,0.9,-75.48042215,1.57844793
YRY,59,1,2024-06-14T12:48:02.904Z,english_288.wav,0,0,532,23,4,Mandarin,f,10,1,62.21198268,0.42631449
YRY,59,1,2024-06-14T12:48:02.904Z,english_288.wav,0,0,532,23,4,Mandarin,f,11,1.09391667,-19.37131538,1.42176412
YRY,60,1,2024-06-14T12:48:02.904Z,english_710.wav,0,0,1037,23,4,Mandarin,f,0,0,-39.30636168,1.80624949
YRY,60,1,2024-06-14T12:48:02.904Z,english_710.wav,0,0,1037,23,4,Mandarin,f,1,0.1,-97.6674904,0.47182227
YRY,60,1,2024-06-14T12:48:02.904Z,english_710.wav,0,0,1037,23,4,Mandarin,f,2,0.2,64.09122161,0.70971527
YRY,60,1,2024-06-14T12:48:02.904Z,english_710.wav,0,0,1037,23,4,Mandarin,f,3,0.3,75.88571101,0.05116828
YRY,60,1,2024-06-14T12:48:02.904Z,english_710.wav,0,0,1037,23,4,Mandarin,f,4,0.4,-88.52762731,1.76085876
YRY,60,1,2024-06-14T12:48:02.904Z,english_710.wav,0,0,1037,23,4,Mandarin,f,5,0.5,82.62720899,0.52858011
YRY,60,1,2024-06-14T12:48:02.904Z,english_710.wav,0,0,1037,23,4,Mandarin,f,6,0.6,-76.34366579,0.11108823
YRY,60,1,2024-06-14T12:48:02.904Z,english_710.wav,0,0,1037,23,4,Mandarin,f,7,0.7,-8.69440278,1.51710045
YRY,60,1,2024-06-14T12:48:02.904Z,english_710.wav,0,0,1037,23,4,Mandarin,f,8,0.8,-70.02409217,1.27546604
YRY,60,1,2024-06-14T12:48:02.904Z,english_710.wav,0,0,1037,23,4,Mandarin,f,9,0.9,57.25294742,0.25600017
YRY,60,1,2024-06-14T12:48:02.904Z,english_710.wav,0,0,1037,23,4,Mandarin,f,10,1,-12.57900879,0.70194387
YRY,60,1,2024-06-14T12:48:02.904Z,english_710.wav,0,0,1037,23,4,Mandarin,f,11,1.09391667,58.69693709,0.08256398
YRY,61,1,2024-06-14T12:48:02.904Z,english_984.wav,0,0,2240,23,4,Mandarin,f,0,0,37.06586667,0.38877409
YRY,61,1,2024-06-14T12:48:02.904Z,english_984.wav,0,0,2240,23,4,Mandarin,f,1,0.1,50.7395804,1.41531624
YRY,61,1,2024-06-14T12:48:02.904Z,english_984.wav,0,0,2240,23,4,Mandarin,f,2,0.2,-33.05935168,1.73475513
YRY,61,1,2024-06-14T12:48:02.904Z,english_984.wav,0,0,2240,23,4,Mandarin,f,3,0.3,-68.36129611,0.46912413
YRY,61,1,2024-06-14T12:48:02.904Z,english_984.wav,0,0,2240,23,4,Mandarin,f,4,0.4,97.30192,0.39793421
YRY,61,1,2024-06-14T12:48:02.904Z,english_984.wav,0,0,2240,23,4,Mandarin,f,5,0.5,69.61380095,0.96500121
YRY,61,1,2024-06-14T12:48:02.904Z,english_984.wav,0,0,2240,23,4,Mandarin,f,6,0.6,69.64301942,1.49151778
YRY,61,1,2024-06-14T12:48:02.904Z,english_984.wav,0,0,2240,23,4,Mandarin,f,7,0.7,38.81811493,0.60244076
YRY,61,1,2024-06-14T12:48:02.904Z,english_984.wav,0,0,2240,23,4,Mandarin,f,8,0.8,9.12823389,0.32922577
YRY,61,1,2024-06-14T12:48:02.904Z,english_984.wav,0,0,2240,23,4,Mandarin,f,9,0.9,-90.77472933,0.54557953
YRY,61,1,2024-06-14T12:48:02.904Z,english_984.wav,0,0,2240,23,4,Mandarin,f,10,1,-60.21880391,0.88296579
YRY,61,1,2024-06-14T12:48:02.904Z,english_984.wav,0,0,2240,23,4,Mandarin,f,11,1.09391667,58.74577388,0.48906192
YRY,62,1,2024-06-14T12:48:02.904Z,english_209.wav,0,0,472,23,4,Mandarin,f,0,0,-69.97643607,1.01752059
YRY,62,1,2024-06-14T12:48:02.904Z,english_209.wav,0,0,472,23,4,Mandarin,f,1,0.1,-88.52393114,0.50741315
YRY,62,1,2024-06-14T12:48:02.904Z,english_209.wav,0,0,472,23,4,Mandarin,f,2,0.2,-92.64381406,1.61277815
YRY,62,1,2024-06-14T12:48:02.904Z,english_209.wav,0,0,472,23,4,Mandarin,f,3,0.3,-12.19607679,1.4872908
YRY,62,1,2024-06-14T12:48:02.904Z,english_209.wav,0,0,472,23,4,Mandarin,f,4,0.4,51.51628924,0.5793757
YRY,62,1,2024-06-14T12:48:02.904Z,english_209.wav,0,0,472,23,4,Mandarin,f,5,0.5,-0.64468501,0.52779709
YRY,62,1,2024-06-14T12:48:02.904Z,english_209.wav,0,0,472,23,4,Mandarin,f,6,0.6,71.59302863,0.0231703
YRY,62,1,2024-06-14T12:48:02.904Z,english_209.wav,0,0,472,23,4,Mandarin,f,7,0.7,-9.81029184,1.34840208
YRY,62,1,2024-06-14T12:48:02.904Z,english_209.wav,0,0,472,23,4,Mandarin,f,8,0.8,-24.63818078,0.66467052
YRY,62,1,2024-06-14T12:48:02.904Z,english_209.wav,0,0,472,23,4,Mandarin,f,9,0.9,-3.20105403,0.39411628
YRY,62,1,2024-06-14T12:48:02.904Z,english_209.wav,0,0,472,23,4,Mandarin,f,10,1,34.64482647,0.07463584
YRY,62,1,2024-06-14T12:48:02.904Z,english_209.wav,0,0,472,23,4,Mandarin,f,11,1.09391667,-96.73374827,1.52336413
YRY,63,1,2024-06-14T12:48:02.904Z,english_744.wav,0,1,1559,23,4,Mandarin,f,0,0,68.01647572,0.92301697
YRY,63,1,2024-06-14T12:48:02.904Z,english_744.wav,0,1,1559,23,4,Mandarin,f,1,0.1,-94.84396495,1.7240092
YRY,63,1,2024-06-14T12:48:02.904Z,english_744.wav,0,1,1559,23,4,Mandarin,f,2,0.2,-7.3752647,0.78395161
YRY,63,1,2024-06-14T12:48:02.904Z,english_744.wav,0,1,1559,23,4,Mandarin,f,3,0.3,-81.08479212,1.15168853
YRY,63,1,2024-06-14T12:48:02.904Z,english_744.wav,0,1,1559,23,4,Mandarin,f,4,0.4,-44.66331389,0.98824464
YRY,63,1,2024-06-14T12:48:02.904Z,english_744.wav,0,1,1559,23,4,Mandarin,f,5,0.5,-77.45989494,1.26560798
YRY,63,1,2024-06-14T12:48:02.904Z,english_744.wav,0,1,1559,23,4,Mandarin,f,6,0.6,19.1026234,0.20042884
YRY,63,1,2024-06-14T12:48:02.904Z,english_744.wav,0,1,1559,23,4,Mandarin,f,7,0.7,-0.63798112,1.76365186
YRY,63,1,2024-06-14T12:48:02.904Z,english_744.wav,0,1,1559,23,4,Mandarin,f,8,0.8,74.86031238,1.68948901
YRY,63,1,2024-06-14T12:48:02.904Z,english_744.wav,0,1,1559,23,4,Mandarin,f,9,0.9,-35.9107796,0.81659748
YRY,63,1,2024-06-14T12:48:02.904Z,english_744.wav,0,1,1559,23,4,Mandarin,f,10,1,-6.98299608,1.14393897
YRY,63,1,2024-06-14T12:48:02.904Z,english_744.wav,0,1,1559,23,4,Mandarin,f,11,1.09391667,-12.26999011,0.86480781
YRY,64,1,2024-06-14T12:48:02.904Z,english_441.wav,0,1,1520,23,4,Mandarin,f,0,0,50.50255474,0.8815455
YRY,64,1,2024-06-14T12:48:02.904Z,english_441.wav,0,1,1520,23,4,Mandarin,f,1,0.1,-64.78300632,1.25615458
YRY,64,1,2024-06-14T12:48:02.904Z,english_441.wav,0,1,1520,23,4,Mandarin,f,2,0.2,-33.84229425,1.89461417
YRY,64,1,2024-06-14T12:48:02.904Z,english_441.wav,0,1,1520,23,4,Mandarin,f,3,0.3,-1.98671345,0.56042506
YRY,64,1,2024-06-14T12:48:02.904Z,english_441.wav,0,1,1520,23,4,Mandarin,f,4,0.4,42.73114644,0.74141977
YRY,64,1,2024-06-14T12:48:02.904Z,english_441.wav,0,1,1520,23,4,Mandarin,f,5,0.5,42.14553529,0.72181114
YRY,64,1,2024-06-14T12:48:02.904Z,english_441.wav,0,1,1520,23,4,Mandarin,f,6,0.6,-44.94303107,0.25334865
YRY,64,1,2024-06-14T12:48:02.904Z,english_441.wav,0,1,1520,23,4,Mandarin,f,7,0.7,13.09989783,1.76130975
YRY,64,1,2024-06-14T12:48:02.904Z,english_441.wav,0,1,1520,23,4,Mandarin,f,8,0.8,-41.80171469,0.91340104
YRY,64,1,2024-06-14T12:48:02.904Z,english_441.wav,0,1,1520,23,4,Mandarin,f,9,0.9,54.31484613,1.37487336
YRY,64,1,2024-06-14T12:48:02.904Z,english_441.wav,0,1,1520,23,4,Mandarin,f,10,1,46.32391657,1.57808342
YRY,64,1,2024-06-14T12:48:02.904Z,english_441.wav,0,1,1520,23,4,Mandarin,f,11,1.09391667,35.46886189,1.31817522
YRY,65,1,2024-06-14T12:48:02.904Z,english_106.wav,0,0,312,23,4,Mandarin,f,0,0,49.34223169,0.13389709
YRY,65,1,2024-06-14T12:48:02.904Z,english_106.wav,0,0,312,23,4,Mandarin,f,1,0.1,-45.57503338,0.25174437
YRY,65,1,2024-06-14T12:48:02.904Z,english_106.wav,0,0,312,23,4,Mandarin,f,2,0.2,-15.08492624,0.82402432
YRY,65,1,2024-06-14T12:48:02.904Z,english_106.wav,0,0,312,23,4,Mandarin,f,3,0.3,-19.8979669,0.82208583
YRY,65,1,2024-06-14T12:48:02.904Z,english_106.wav,0,0,312,23,4,Mandarin,f,4,0.4,-25.53796799,1.38135822
YRY,65,1,2024-06-14T12:48:02.904Z,english_106.wav,0,0,312,23,4,Mandarin,f,5,0.5,88.30993321,0.76093903
YRY,65,1,2024-06-14T12:48:02.904Z,english_106.wav,0,0,312,23,4,Mandarin,f,6,0.6,-64.76962788,0.57981415
YRY,65,1,2024-06-14T12:48:02.904Z,english_106.wav,0,0,312,23,4,Mandarin,f,7,0.7,-39.71315935,1.62636068
YRY,65,1,2024-06-14T12:48:02.904Z,english_106.wav,0,0,312,23,4,Mandarin,f,8,0.8,92.87896843,1.17795772
YRY,65,1,2024-06-14T12:48:02.904Z,english_106.wav,0,0,312,23,4,Mandarin,f,9,0.9,-52.99965121,0.06230935
YRY,65,1,2024-06-14T12:48:02.904Z,english_106.wav,0,0,312,23,4,Mandarin,f,10,1,37.25809924,0.54036795
YRY,65,1,2024-06-14T12:48:02.904Z,english_106.wav,0,0,312,23,4,Mandarin,f,11,1.09391667,83.50306975,1.72343759
YRY,66,1,2024-06-14T12:48:02.904Z,english_896.wav,0,0,923,23,4,Mandarin,f,0,0,15.15197213,1.10343193
YRY,66,1,2024-06-14T12:48:02.904Z,english_896.wav,0,0,923,23,4,Mandarin,f,1,0.1,12.09834356,1.24784569
YRY,66,1,2024-06-14T12:48:02.904Z,english_896.wav,0,0,923,23,4,Mandarin,f,2,0.2,-98.90945178,0.69536812
YRY,66,1,2024-06-14T12:48:02.904Z,english_896.wav,0,0,923,23,4,Mandarin,f,3,0.3,-7.24132806,1.50082123
YRY,66,1,2024-06-14T12:48:02.904Z,english_896.wav,0,0,923,23,4,Mandarin,f,4,0.4,-22.04912785,1.78962455
YRY,66,1,2024-06-14T12:48:02.904Z,english_896.wav,0,0,923,23,4,Mandarin,f,5,0.5,53.27175302,0.59868421
YRY,66,1,2024-06-14T12:48:02.904Z,english_896.wav,0,0,923,23,4,Mandarin,f,6,0.6,18.92228417,1.36027969
YRY,66,1,2024-06-14T12:48:02.904Z,english_896.wav,0,0,923,23,4,Mandarin,f,7,0.7,65.4652164,1.44726147
YRY,66,1,2024-06-14T12:48:02.904Z,english_896.wav,0,0,923,23,4,Mandarin,f,8,0.8,51.91420072,1.08983894
YRY,66,1,2024-06-14T12:48:02.904Z,english_896.wav,0,0,923,23,4,Mandarin,f,9,0.9,20.23549525,0.07451316
YRY,66,1,2024-06-14T12:48:02.904Z,english_896.wav,0,0,923,23,4,Mandarin,f,10,1,-86.64191921,0.79077881
YRY,66,1,2024-06-14T12:48:02.904Z,english_896.wav,0,0,923,23,4,Mandarin,f,11,1.09391667,-62.9037571,1.64262615
YRY,67,1,2024-06-14T12:48:02.904Z,english_70.wav,0,1,862,23,4,Mandarin,f,0,0,84.7445928,1.85159723
YRY,67,1,2024-06-14T12:48:02.904Z,english_70.wav,0,1,862,23,4,Mandarin,f,1,0.1,-17.05936153,0.49913073
YRY,67,1,2024-06-14T12:48:02.904Z,english_70.wav,0,1,862,23,4,Mandarin,f,2,0.2,48.77629579,1.2524697
YRY,67,1,2024-06-14T12:48:02.904Z,english_70.wav,0,1,862,23,4,Mandarin,f,3,0.3,-37.18095977,1.90044367
YRY,67,1,2024-06-14T12:48:02.904Z,english_70.wav,0,1,862,23,4,Mandarin,f,4,0.4,49.63064657,0.54300229
YRY,67,1,2024-06-14T12:48:02.904Z,english_70.wav,0,1,862,23,4,Mandarin,f,5,0.5,-62.82111716,1.34279252
YRY,67,1,2024-06-14T12:48:02.904Z,english_70.wav,0,1,862,23,4,Mandarin,f,6,0.6,35.10101602,1.14641918
YRY,67,1,2024-06-14T12:48:02.904Z,english_70.wav,0,1,862,23,4,Mandarin,f,7,0.7,-40.08264695,0.66805918
YRY,67,1,2024-06-14T12:48:02.904Z,english_70.wav,0,1,862,23,4,Mandarin,f,8,0.8,35.78231672,1.02673009
YRY,67,1,2024-06-14T12:48:02.904Z,english_70.wav,0,1,862,23,4,Mandarin,f,9,0.9,-49.57858266,1.60161004
YRY,67,1,2024-06-14T12:48:02.904Z,english_70.wav,0,1,862,23,4,Mandarin,f,10,1,-49.37995814,1.69848543
YRY,67,1,2024-06-14T12:48:02.904Z,english_70.wav,0,1,862,23,4,Mandarin,f,11,1.09391667,20.96821744,0.40967928
YRY,68,1,2024-06-14T12:48:02.904Z,english_857.wav,0,0,1417,23,4,Mandarin,f,0,0,-56.93168928,1.92395656
YRY,68,1,2024-06-14T12:48:02.904Z,english_857.wav,0,0,1417,23,4,Mandarin,f,1,0.1,-40.57515649,1.41156549
YRY,68,1,2024-06-14T12:48:02.904Z,english_857.wav,0,0,1417,23,4,Mandarin,f,2,0.2,-26.26283105,0.14185194
YRY,68,1,2024-06-14T12:48:02.904Z,english_857.wav,0,0,1417,23,4,Mandarin,f,3,0.3,-49.62797955,1.1985334
YRY,68,1,2024-06-14T12:48:02.904Z,english_857.wav,0,0,1417,23,4,Mandarin,f,4,0.4,47.07146778,0.83326814
YRY,68,1,2024-06-14T12:48:02.904Z,english_857.wav,0,0,1417,23,4,Mandarin,f,5,0.5,-96.41882062,0.71224123
YRY,68,1,2024-06-14T12:48:02.904Z,english_857.wav,0,0,1417,23,4,Mandarin,f,6,0.6,63.09662026,1.58040322
YRY,68,1,2024-06-14T12:48:02.904Z,english_857.wav,0,0,1417,23,4,Mandarin,f,7,0.7,98.67053018,1.02327595
YRY,68,1,2024-06-14T12:48:02.904Z,english_857.wav,0,0,1417,23,4,Mandarin,f,8,0.8,-56.85749065,1.48703987
YRY,68,1,2024-06-14T12:48:02.904Z,english_857.wav,0,0,1417,23,4,Mandarin,f,9,0.9,-18.03690135,0.70290333
YRY,68,1,2024-06-14T12:48:02.904Z,english_857.wav,0,0,1417,23,4,Mandarin,f,10,1,52.13097753,0.53460392
YRY,68,1,2024-06-14T12:48:02.904Z,english_857.wav,0,0,1417,23,4,Mandarin,f,11,1.09391667,52.54650928,1.10851945
YRY,69,1,2024-06-14T12:48:02.904Z,english_488.wav,0,1,797,23,4,Mandarin,f,0,0,55.6354899,0.91537893
YRY,69,1,2024-06-14T12:48:02.904Z,english_488.wav,0,1,797,23,4,Mandarin,f,1,0.1,-10.72836947,1.07736676
YRY,69,1,2024-06-14T12:48:02.904Z,english_488.wav,0,1,797,23,4,Mandarin,f,2,0.2,-46.3197066,1.00419914
YRY,69,1,2024-06-14T12:48:02.904Z,english_488.wav,0,1,797,23,4,Mandarin,f,3,0.3,14.14356253,1.03753512
YRY,69,1,2024-06-14T12:48:02.904Z,english_488.wav,0,1,797,23,4,Mandarin,f,4,0.4,63.48594027,0.37720192
YRY,69,1,2024-06-14T12:48:02.904Z,english_488.wav,0,1,797,23,4,Mandarin,f,5,0.5,-15.52389471,1.44514108
YRY,69,1,2024-06-14T12:48:02.904Z,english_488.wav,0,1,797,23,4,Mandarin,f,6,0.6,1.31987166,1.5314543
YRY,69,1,2024-06-14T12:48:02.904Z,english_488.wav,0,1,797,23,4,Mandarin,f,7,0.7,3.643619,1.0492436
YRY,69,1,2024-06-14T12:48:02.904Z,english_488.wav,0,1,797,23,4,Mandarin,f,8,0.8,1.08608347,0.46166861
YRY,69,1,2024-06-14T12:48:02.904Z,english_488.wav,0,1,797,23,4,Mandarin,f,9,0.9,18.4969296,1.40405736
YRY,69,1,2024-06-14T12:48:02.904Z,english_488.wav,0,1,797,23,4,Mandarin,f,10,1,6.83798229,1.0046827
YRY,69,1,2024-06-14T12:48:02.904Z,english_488.wav,0,1,797,23,4,Mandarin,f,11,1.09391667,65.10535749,0.03299625
YRY,70,1,2024-06-14T12:48:02.904Z,english_941.wav,0,0,688,23,4,Mandarin,f,0,0,20.77635957,0.46109058
YRY,70,1,2024-06-14T12:48:02.904Z,english_941.wav,0,0,688,23,4,Mandarin,f,1,0.1,84.18412802,0.36744314
YRY,70,1,2024-06-14T12:48:02.904Z,english_941.wav,0,0,688,23,4,Mandarin,f,2,0.2,81.7824789,0.41976503
YRY,70,1,2024-06-14T12:48:02.904Z,english_941.wav,0,0,688,23,4,Mandarin,f,3,0.3,-65.01001067,1.53863135
YRY,70,1,2024-06-14T12:48:02.904Z,english_941.wav,0,0,688,23,4,Mandarin,f,4,0.4,-69.73335491,0.40642155
YRY,70,1,2024-06-14T12:48:02.904Z,english_941.wav,0,0,688,23,4,Mandarin,f,5,0.5,-48.20566779,0.50454488
YRY,70,1,2024-06-14T12:48:02.904Z,english_941.wav,0,0,688,23,4,Mandarin,f,6,0.6,-56.64571388,1.75271769
YRY,70,1,2024-06-14T12:48:02.904Z,english_941.wav,0,0,688,23,4,Mandarin,f,7,0.7,87.2772128,1.86297038
YRY,70,1,2024-06-14T12:48:02.904Z,english_941.wav,0,0,688,23,4,Mandarin,f,8,0.8,79.54307519,0.65261885
YRY,70,1,2024-06-14T12:48:02.904Z,english_941.wav,0,0,688,23,4,Mandarin,f,9,0.9,-76.46594653,0.02035456
YRY,70,1,2024-06-14T12:48:02.904Z,english_941.wav,0,0,688,23,4,Mandarin,f,10,1,9.80024824,0.89946845
YRY,70,1,2024-06-14T12:48:02.904Z,english_941.wav,0,0,688,23,4,Mandarin,f,11,1.09391667,72.4068819,0.70615835
YRY,71,1,2024-06-14T12:48:02.904Z,english_737.wav,0,1,647,23,4,Mandarin,f,0,0,56.78568271,0.30173789
YRY,71,1,2024-06-14T12:48:02.904Z,english_737.wav,0,1,647,23,4,Mandarin,f,1,0.1,-38.71611428,1.82600994
YRY,71,1,2024-06-14T12:48:02.904Z,english_737.wav,0,1,647,23,4,Mandarin,f,2,0.2,-64.59845133,0.49162542
YRY,71,1,2024-06-14T12:48:02.904Z,english_737.wav,0,1,647,23,4,Mandarin,f,3,0.3,1.39086409,0.66978122
YRY,71,1,2024-06-14T12:48:02.904Z,english_737.wav,0,1,647,23,4,Mandarin,f,4,0.4,26.86370756,1.86119765
YRY,71,1,2024-06-14T12:48:02.904Z,english_737.wav,0,1,647,23,4,Mandarin,f,5,0.5,-27.73552672,0.4187604
YRY,71,1,2024-06-14T12:48:02.904Z,english_737.wav,0,1,647,23,4,Mandarin,f,6,0.6,-81.13907874,0.96095639
YRY,71,1,2024-06-14T12:48:02.904Z,english_737.wav,0,1,647,23,4,Mandarin,f,7,0.7,43.5553465,0.3936239
YRY,71,1,2024-06-14T12:48:02.904Z,english_737.wav,0,1,647,23,4,Mandarin,f,8,0.8,-20.1583688,0.49545956
YRY,71,1,2024-06-14T12:48:02.904Z,english_737.wav,0,1,647,23,4,Mandarin,f,9,0.9,-25.05937779,1.76958981
YRY,71,1,2024-06-14T12:48:02.904Z,english_737.wav,0,1,647,23,4,Mandarin,f,10,1,27.91315488,1.1243255
YRY,71,1,2024-06-14T12:48:02.904Z,english_737.wav,0,1,647,23,4,Mandarin,f,11,1.09391667,-84.10219284,1.22358717
YRY,72,1,2024-06-14T12:48:02.904Z,english_28.wav,0,1,360,23,4,Mandarin,f,0,0,46.79443609,1.01055945
YRY,72,1,2024-06-14T12:48:02.904Z,english_28.wav,0,1,360,23,4,Mandarin,f,1,0.1,2.26441595,0.40890859
YRY,72,1,2024-06-14T12:48:02.904Z,english_28.wav,0,1,360,23,4,Mandarin,f,2,0.2,-92.86356779,1.10134245
YRY,72,1,2024-06-14T12:48:02.904Z,english_28.wav,0,1,360,23,4,Mandarin,f,3,0.3,70.49912331,0.66041546
YRY,72,1,2024-06-14T12:48:02.904Z,english_28.wav,0,1,360,23,4,Mandarin,f,4,0.4,-44.6918064,1.38812901
YRY,72,1,2024-06-14T12:48:02.904Z,english_28.wav,0,1,360,23,4,Mandarin,f,5,0.5,-40.18885973,1.34163595
YRY,72,1,2024-06-14T12:48:02.904Z,english_28.wav,0,1,360,23,4,Mandarin,f,6,0.6,22.89431524,1.22801128
YRY,72,1,2024-06-14T12:48:02.904Z,english_28.wav,0,1,360,23,4,Mandarin,f,7,0.7,-98.00041762,1.98732106
YRY,72,1,2024-06-14T12:48:02.904Z,english_28.wav,0,1,360,23,4,Mandarin,f,8,0.8,-45.25978985,1.24747992
YRY,72,1,2024-06-14T12:48:02.904Z,english_28.wav,0,1,360,23,4,Mandarin,f,9,0.9,-73.28359547,1.6043756
YRY,72,1,2024-06-14T12:48:02.904Z,english_28.wav,0,1,360,23,4,Mandarin,f,10,1,-75.042578,1.05397351
YRY,72,1,2024-06-14T12:48:02.904Z,english_28.wav,0,1,360,23,4,Mandarin,f,11,1.09391667,-54.18290404,0.28539485
YRY,73,1,2024-06-14T12:48:02.904Z,english_904.wav,0,1,520,23,4,Mandarin,f,0,0,-74.82582528,1.4013029
YRY,73,1,2024-06-14T12:48:02.904Z,english_904.wav,0,1,520,23,4,Mandarin,f,1,0.1,-96.79575006,0.13633554
YRY,73,1,2024-06-14T12:48:02.904Z,english_904.wav,0,1,520,23,4,Mandarin,f,2,0.2,95.14053513,0.85457449
YRY,73,1,2024-06-14T12:48:02.904Z,english_904.wav,0,1,520,23,4,Mandarin,f,3,0.3,-60.85445871,0.52689268
YRY,73,1,2024-06-14T12:48:02.904Z,english_904.wav,0,1,520,23,4,Mandarin,f,4,0.4,-53.61462939,1.15689505
YRY,73,1,2024-06-14T12:48:02.904Z,english_904.wav,0,1,520,23,4,Mandarin,f,5,0.5,36.4108286,1.15306908
YRY,73,1,2024-06-14T12:48:02.904Z,english_904.wav,0,1,520,23,4,Mandarin,f,6,0.6,-81.73904146,0.53780722
YRY,73,1,2024-06-14T12:48:02.904Z,english_904.wav,0,1,520,23,4,Mandarin,f,7,0.7,67.08505199,1.6251065
YRY,73,1,2024-06-14T12:48:02.904Z,english_904.wav,0,1,520,23,4,Mandarin,f,8,0.8,-51.49043615,0.93791245
YRY,73,1,2024-06-14T12:48:02.904Z,english_904.wav,0,1,520,23,4,Mandarin,f,9,0.9,-56.43319174,0.6672811
YRY,73,1,2024-06-14T12:48:02.904Z,english_904.wav,0,1,520,23,4,Mandarin,f,10,1,-26.03996305,0.48044762
YRY,73,1,2024-06-14T12:48:02.904Z,english_904.wav,0,1,520,23,4,Mandarin,f,11,1.09391667,9.12764333,1.83086337
YRY,74,1,2024-06-14T12:48:02.904Z,english_421.wav,0,0,2044,23,4,Mandarin,f,0,0,-77.37875109,0.40906671
YRY,74,1,2024-06-14T12:48:02.904Z,english_421.wav,0,0,2044,23,4,Mandarin,f,1,0.1,21.68470971,0.10764534
YRY,74,1,2024-06-14T12:48:02.904Z,english_421.wav,0,0,2044,23,4,Mandarin,f,2,0.2,25.95594031,0.09890733
YRY,74,1,2024-06-14T12:48:02.904Z,english_421.wav,0,0,2044,23,4,Mandarin,f,3,0.3,-54.56850785,1.06704705
YRY,74,1,2024-06-14T12:48:02.904Z,english_421.wav,0,0,2044,23,4,Mandarin,f,4,0.4,24.0018444,0.2085299
YRY,74,1,2024-06-14T12:48:02.904Z,english_421.wav,0,0,2044,23,4,Mandarin,f,5,0.5,-47.82681182,0.29426066
YRY,74,1,2024-06-14T12:48:02.904Z,english_421.wav,0,0,2044,23,4,Mandarin,f,6,0.6,-46.58707105,1.5200041
YRY,74,1,2024-06-14T12:48:02.904Z,english_421.wav,0,0,2044,23,4,Mandarin,f,7,0.7,77.25272005,0.50765671
YRY,74,1,2024-06-14T12:48:02.904Z,english_421.wav,0,0,2044,23,4,Mandarin,f,8,0.8,77.76425926,0.03381604
YRY,74,1,2024-06-14T12:48:02.904Z,english_421.wav,0,0,2044,23,4,Mandarin,f,9,0.9,25.41801762,1.11402173
YRY,74,1,2024-06-14T12:48:02.904Z,english_421.wav,0,0,2044,23,4,Mandarin,f,10,1,38.43952496,1.16253286
YRY,74,1,2024-06-14T12:48:02.904Z,english_421.wav,0,0,2044,23,4,Mandarin,f,11,1.09391667,67.75811728,1.4554509
YRY,75,1,2024-06-14T12:48:02.904Z,english_923.wav,0,1,105,23,4,Mandarin,f,0,0,93.2289474,1.70020423
YRY,75,1,2024-06-14T12:48:02.904Z,english_923.wav,0,1,105,23,4,Mandarin,f,1,0.1,-90.20705496,1.01222006
YRY,75,1,2024-06-14T12:48:02.904Z,english_923.wav,0,1,105,23,4,Mandarin,f,2,0.2,-39.60180218,0.78975297
YRY,75,1,2024-06-14T12:48:02.904Z,english_923.wav,0,1,105,23,4,Mandarin,f,3,0.3,80.82184167,0.55346402
YRY,75,1,2024-06-14T12:48:02.904Z,english_923.wav,0,1,105,23,4,Mandarin,f,4,0.4,-9.151808,0.82944294
YRY,75,1,2024-06-14T12:48:02.904Z,english_923.wav,0,1,105,23,4,Mandarin,f,5,0.5,26.58775585,1.08031611
YRY,75,1,2024-06-14T12:48:02.904Z,english_923.wav,0,1,105,23,4,Mandarin,f,6,0.6,6.23734234,0.85830077
YRY,75,1,2024-06-14T12:48:02.904Z,english_923.wav,0,1,105,23,4,Mandarin,f,7,0.7,72.65407882,1.16981472
YRY,75,1,2024-06-14T12:48:02.904Z,english_923.wav,0,1,105,23,4,Mandarin,f,8,0.8,-19.39856568,1.72430236
YRY,75,1,2024-06-14T12:48:02.904Z,english_923.wav,0,1,105,23,4,Mandarin,f,9,0.9,-78.04150402,0.87754791
YRY,75,1,2024-06-14T12:48:02.904Z,english_923.wav,0,1,105,23,4,Mandarin,f,10,1,32.81309653,1.2494211
YRY,75,1,2024-06-14T12:48:02.904Z,english_923.wav,0,1,105,23,4,Mandarin,f,11,1.09391667,90.62685446,1.97603122
YRY,76,1,2024-06-14T12:48:02.904Z,english_415.wav,0,0,1030,23,4,Mandarin,f,0,0,84.16048874,1.30136544
YRY,76,1,2024-06-14T12:48:02.904Z,english_415.wav,0,0,1030,23,4,Mandarin,f,1,0.1,56.88803289,0.47786549
YRY,76,1,2024-06-14T12:48:02.904Z,english_415.wav,0,0,1030,23,4,Mandarin,f,2,0.2,-77.93771944,0.87690241
YRY,76,1,2024-06-14T12:48:02.904Z,english_415.wav,0,0,1030,23,4,Mandarin,f,3,0.3,33.37600363,1.56003174
YRY,76,1,2024-06-14T12:48:02.904Z,english_415.wav,0,0,1030,23,4,Mandarin,f,4,0.4,-61.82656021,0.56797275
YRY,76,1,2024-06-14T12:48:02.904Z,english_415.wav,0,0,1030,23,4,Mandarin,f,5,0.5,-67.90016523,1.69402787
YRY,76,1,2024-06-14T12:48:02.904Z,english_415.wav,0,0,1030,23,4,Mandarin,f,6,0.6,96.16166422,0.32249707
YRY,76,1,2024-06-14T12:48:02.904Z,english_415.wav,0,0,1030,23,4,Mandarin,f,7,0.7,-50.86749148,0.03139967
YRY,76,1,2024-06-14T12:48:02.904Z,english_415.wav,0,0,1030,23,4,Mandarin,f,8,0.8,55.29150844,1.30261133
YRY,76,1,2024-06-14T12:48:02.904Z,english_415.wav,0,0,1030,23,4,Mandarin,f,9,0.9,-2.61257825,0.40350463
YRY,76,1,2024-06-14T12:48:02.904Z,english_415.wav,0,0,1030,23,4,Mandarin,f,10,1,-83.3993401,1.74375152
YRY,76,1,2024-06-14T12:48:02.904Z,english_415.wav,0,0,1030,23,4,Mandarin,f,11,1.09391667,24.68732816,0.25871995
YRY,77,1,2024-06-14T12:48:02.904Z,english_579.wav,0,1,581,23,4,Mandarin,f,0,0,-6.35392527,1.17195822
YRY,77,1,2024-06-14T12:48:02.904Z,english_579.wav,0,1,581,23,4,Mandarin,f,1,0.1,5.78092652,1.67817047
YRY,77,1,2024-06-14T12:48:02.904Z,english_579.wav,0,1,581,23,4,Mandarin,f,2,0.2,55.74149698,0.96512057
YRY,77,1,2024-06-14T12:48:02.904Z,english_579.wav,0,1,581,23,4,Mandarin,f,3,0.3,64.66054606,0.73760998
YRY,77,1,2024-06-14T12:48:02.904Z,english_579.wav,0,1,581,23,4,Mandarin,f,4,0.4,-20.37343055,0.24043414
YRY,77,1,2024-06-14T12:48:02.904Z,english_579.wav,0,1,581,23,4,Mandarin,f,5,0.5,97.55604333,0.0297902
YRY,77,1,2024-06-14T12:48:02.904Z,english_579.wav,0,1,581,23,4,Mandarin,f,6,0.6,-7.40313463,0.83835869
YRY,77,1,2024-06-14T12:48:02.904Z,english_579.wav,0,1,581,23,4,Mandarin,f,7,0.7,-9.7199121,0.36547932
YRY,77,1,2024-06-14T12:48:02.904Z,english_579.wav,0,1,581,23,4,Mandarin,f,8,0.8,-43.88557754,1.0786992
YRY,77,1,2024-06-14T12:48:02.904Z,english_579.wav,0,1,581,23,4,Mandarin,f,9,0.9,89.28129007,1.76340712
YRY,77,1,2024-06-14T12:48:02.904Z,english_579.wav,0,1,581,23,4,Mandarin,f,10,1,21.49927336,0.94339598
YRY,77,1,2024-06-14T12:48:02.904Z,english_579.wav,0,1,581,23,4,Mandarin,f,11,1.09391667,85.53999973,1.1220246
YRY,78,1,2024-06-14T12:48:02.904Z,english_31.wav,0,1,330,23,4,Mandarin,f,0,0,27.66535658,1.77982522
YRY,78,1,2024-06-14T12:48:02.904Z,english_31.wav,0,1,330,23,4,Mandarin,f,1,0.1,13.56694794,1.07162792
YRY,78,1,2024-06-14T12:48:02.904Z,english_31.wav,0,1,330,23,4,Mandarin,f,2,0.2,18.47033094,0.18234571
YRY,78,1,2024-06-14T12:48:02.904Z,english_31.wav,0,1,330,23,4,Mandarin,f,3,0.3,59.04276692,1.10955417
YRY,78,1,2024-06-14T12:48:02.904Z,english_31.wav,0,1,330,23,4,Mandarin,f,4,0.4,-91.09157625,1.72425302
YRY,78,1,2024-06-14T12:48:02.904Z,english_31.wav,0,1,330,23,4,Mandarin,f,5,0.5,-18.02658585,0.5579513
YRY,78,1,2024-06-14T12:48:02.904Z,english_31.wav,0,1,330,23,4,Mandarin,f,6,0.6,-35.60184109,1.93053319
YRY,78,1,2024-06-14T12:48:02.904Z,english_31.wav,0,1,330,23,4,Mandarin,f,7,0.7,54.26515106,1.77971636
YRY,78,1,2024-06-14T12:48:02.904Z,english_31.wav,0,1,330,23,4,Mandarin,f,8,0.8,-22.38727861,0.37301738
YRY,78,1,2024-06-14T12:48:02.904Z,english_31.wav,0,1,330,23,4,Mandarin,f,9,0.9,43.77933905,1.40160657
YRY,78,1,2024-06-14T12:48:02.904Z,english_31.wav,0,1,330,23,4,Mandarin,f,10,1,18.37090143,0.31959468
YRY,78,1,2024-06-14T12:48:02.904Z,english_31.wav,0,1,330,23,4,Mandarin,f,11,1.09391667,6.84824494,1.79655945
YRY,79,1,2024-06-14T12:48:02.904Z,english_668.wav,0,1,333,23,4,Mandarin,f,0,0,24.30500843,1.5693483
YRY,79,1,2024-06-14T12:48:02.904Z,english_668.wav,0,1,333,23,4,Mandarin,f,1,0.1,57.57377678,1.68368473
YRY,79,1,2024-06-14T12:48:02.904Z,english_668.wav,0,1,333,23,4,Mandarin,f,2,0.2,-95.42785245,0.73781789
YRY,79,1,2024-06-14T12:48:02.904Z,english_668.wav,0,1,333,23,4,Mandarin,f,3,0.3,-42.97336145,0.35418693
YRY,79,1,2024-06-14T12:48:02.904Z,english_668.wav,0,1,333,23,4,Mandarin,f,4,0.4,-27.66393175,0.0078487
YRY,79,1,2024-06-14T12:48:02.904Z,english_668.wav,0,1,333,23,4,Mandarin,f,5,0.5,77.20765179,1.54548252
YRY,79,1,2024-06-14T12:48:02.904Z,english_668.wav,0,1,333,23,4,Mandarin,f,6,0.6,83.13326456,1.19620748
YRY,79,1,2024-06-14T12:48:02.904Z,english_668.wav,0,1,333,23,4,Mandarin,f,7,0.7,-32.13348901,1.89254879
YRY,79,1,2024-06-14T12:48:02.904Z,english_668.wav,0,1,333,23,4,Mandarin,f,8,0.8,68.31202494,0.72669061
YRY,79,1,2024-06-14T12:48:02.904Z,english_668.wav,0,1,333,23,4,Mandarin,f,9,0.9,19.90764766,1.22099256
YRY,79,1,2024-06-14T12:48:02.904Z,english_668.wav,0,1,333,23,4,Mandarin,f,10,1,67.85742397,1.73789428
YRY,79,1,2024-06-14T12:48:02.904Z,english_668.wav,0,1,333,23,4,Mandarin,f,11,1.09391667,89.08528759,1.66641406
YRY,80,1,2024-06-14T12:48:02.904Z,english_368.wav,0,0,1580,23,4,Mandarin,f,0,0,-21.74410199,1.11444004
YRY,80,1,2024-06-14T12:48:02.904Z,english_368.wav,0,0,1580,23,4,Mandarin,f,1,0.1,-54.46820056,1.02689489
YRY,80,1,2024-06-14T12:48:02.904Z,english_368.wav,0,0,1580,23,4,Mandarin,f,2,0.2,36.37288824,1.84847876
YRY,80,1,2024-06-14T12:48:02.904Z,english_368.wav,0,0,1580,23,4,Mandarin,f,3,0.3,28.79669065,1.32768322
