subj,trial,block,date,stim,stim_order,response,rt,age,english,language,sex,param_index,segment,pitch,stretch
FDQ,0,0,2024-06-13T05:52:13.846Z,english_857.wav,0,0,9411,21,4,Chinese,f,0,0,-56.93168928,1.92395656
FDQ,0,0,2024-06-13T05:52:13.846Z,english_857.wav,0,0,9411,21,4,Chinese,f,1,0.1,-40.57515649,1.41156549
FDQ,0,0,2024-06-13T05:52:13.846Z,english_857.wav,0,0,9411,21,4,Chinese,f,2,0.2,-26.26283105,0.14185194
FDQ,0,0,2024-06-13T05:52:13.846Z,english_857.wav,0,0,9411,21,4,Chinese,f,3,0.3,-49.62797955,1.1985334
FDQ,0,0,2024-06-13T05:52:13.846Z,english_857.wav,0,0,9411,21,4,Chinese,f,4,0.4,47.07146778,0.83326814
FDQ,0,0,2024-06-13T05:52:13.846Z,english_857.wav,0,0,9411,21,4,Chinese,f,5,0.5,-96.41882062,0.71224123
FDQ,0,0,2024-06-13T05:52:13.846Z,english_857.wav,0,0,9411,21,4,Chinese,f,6,0.6,63.09662026,1.58040322
FDQ,0,0,2024-06-13T05:52:13.846Z,english_857.wav,0,0,9411,21,4,Chinese,f,7,0.7,98.67053018,1.02327595
FDQ,0,0,2024-06-13T05:52:13.846Z,english_857.wav,0,0,9411,21,4,Chinese,f,8,0.8,-56.85749065,1.48703987
FDQ,0,0,2024-06-13T05:52:13.846Z,english_857.wav,0,0,9411,21,4,Chinese,f,9,0.9,-18.03690135,0.70290333
FDQ,0,0,2024-06-13T05:52:13.846Z,english_857.wav,0,0,9411,21,4,Chinese,f,10,1,52.13097753,0.53460392
FDQ,0,0,2024-06-13T05:52:13.846Z,english_857.wav,0,0,9411,21,4,Chinese,f,11,1.09391667,52.54650928,1.10851945
FDQ,1,0,2024-06-13T05:52:13.846Z,english_917.wav,0,0,7943,21,4,Chinese,f,0,0,-35.3182661,1.27669121
FDQ,1,0,2024-06-13T05:52:13.846Z,english_917.wav,0,0,7943,21,4,Chinese,f,1,0.1,-21.7738587,1.4602349
FDQ,1,0,2024-06-13T05:52:13.846Z,english_917.wav,0,0,7943,21,4,Chinese,f,2,0.2,82.1428169,0.09750383
FDQ,1,0,2024-06-13T05:52:13.846Z,english_917.wav,0,0,7943,21,4,Chinese,f,3,0.3,-12.2731677,0.51655458
FDQ,1,0,2024-06-13T05:52:13.846Z,english_917.wav,0,0,7943,21,4,Chinese,f,4,0.4,4.83424811,1.15347497
FDQ,1,0,2024-06-13T05:52:13.846Z,english_917.wav,0,0,7943,21,4,Chinese,f,5,0.5,-0.0854945092,1.01469442
FDQ,1,0,2024-06-13T05:52:13.846Z,english_917.wav,0,0,7943,21,4,Chinese,f,6,0.6,-92.693816,0.31102011
FDQ,1,0,2024-06-13T05:52:13.846Z,english_917.wav,0,0,7943,21,4,Chinese,f,7,0.7,-91.5131295,1.44230515
FDQ,1,0,2024-06-13T05:52:13.846Z,english_917.wav,0,0,7943,21,4,Chinese,f,8,0.8,58.0373061,0.03377485
FDQ,1,0,2024-06-13T05:52:13.846Z,english_917.wav,0,0,7943,21,4,Chinese,f,9,0.9,-28.6534312,0.48994194
FDQ,1,0,2024-06-13T05:52:13.846Z,english_917.wav,0,0,7943,21,4,Chinese,f,10,1,45.4510696,0.17679016
FDQ,1,0,2024-06-13T05:52:13.846Z,english_917.wav,0,0,7943,21,4,Chinese,f,11,1.09391667,48.3165221,0.94650881
FDQ,2,0,2024-06-13T05:52:13.846Z,english_633.wav,0,1,2016,21,4,Chinese,f,0,0,-29.53329055,1.81413682
FDQ,2,0,2024-06-13T05:52:13.846Z,english_633.wav,0,1,2016,21,4,Chinese,f,1,0.1,-55.17737052,1.23507598
FDQ,2,0,2024-06-13T05:52:13.846Z,english_633.wav,0,1,2016,21,4,Chinese,f,2,0.2,58.22185342,1.2508175
FDQ,2,0,2024-06-13T05:52:13.846Z,english_633.wav,0,1,2016,21,4,Chinese,f,3,0.3,-43.06637085,0.42299618
FDQ,2,0,2024-06-13T05:52:13.846Z,english_633.wav,0,1,2016,21,4,Chinese,f,4,0.4,76.59680907,0.12183449
FDQ,2,0,2024-06-13T05:52:13.846Z,english_633.wav,0,1,2016,21,4,Chinese,f,5,0.5,52.74440756,0.93446119
FDQ,2,0,2024-06-13T05:52:13.846Z,english_633.wav,0,1,2016,21,4,Chinese,f,6,0.6,-26.52378851,1.44820206
FDQ,2,0,2024-06-13T05:52:13.846Z,english_633.wav,0,1,2016,21,4,Chinese,f,7,0.7,-16.86813106,0.73029459
FDQ,2,0,2024-06-13T05:52:13.846Z,english_633.wav,0,1,2016,21,4,Chinese,f,8,0.8,7.65419617,0.16870505
FDQ,2,0,2024-06-13T05:52:13.846Z,english_633.wav,0,1,2016,21,4,Chinese,f,9,0.9,2.97223231,1.17828847
FDQ,2,0,2024-06-13T05:52:13.846Z,english_633.wav,0,1,2016,21,4,Chinese,f,10,1,-42.35584202,0.62674429
FDQ,2,0,2024-06-13T05:52:13.846Z,english_633.wav,0,1,2016,21,4,Chinese,f,11,1.09391667,-84.52233477,0.94849203
FDQ,3,0,2024-06-13T05:52:13.846Z,english_98.wav,0,1,1464,21,4,Chinese,f,0,0,-38.17071081,1.32171021
FDQ,3,0,2024-06-13T05:52:13.846Z,english_98.wav,0,1,1464,21,4,Chinese,f,1,0.1,3.99117813,0.45941391
FDQ,3,0,2024-06-13T05:52:13.846Z,english_98.wav,0,1,1464,21,4,Chinese,f,2,0.2,76.94779223,1.60836627
FDQ,3,0,2024-06-13T05:52:13.846Z,english_98.wav,0,1,1464,21,4,Chinese,f,3,0.3,-47.40720284,0.02861918
FDQ,3,0,2024-06-13T05:52:13.846Z,english_98.wav,0,1,1464,21,4,Chinese,f,4,0.4,60.49673758,0.62913144
FDQ,3,0,2024-06-13T05:52:13.846Z,english_98.wav,0,1,1464,21,4,Chinese,f,5,0.5,-72.0425771,0.32921161
FDQ,3,0,2024-06-13T05:52:13.846Z,english_98.wav,0,1,1464,21,4,Chinese,f,6,0.6,75.35793907,0.47491973
FDQ,3,0,2024-06-13T05:52:13.846Z,english_98.wav,0,1,1464,21,4,Chinese,f,7,0.7,-37.84878225,1.13024742
FDQ,3,0,2024-06-13T05:52:13.846Z,english_98.wav,0,1,1464,21,4,Chinese,f,8,0.8,-2.2661701,1.3276578
FDQ,3,0,2024-06-13T05:52:13.846Z,english_98.wav,0,1,1464,21,4,Chinese,f,9,0.9,-10.24921113,0.74289268
FDQ,3,0,2024-06-13T05:52:13.846Z,english_98.wav,0,1,1464,21,4,Chinese,f,10,1,2.65052449,0.21343851
FDQ,3,0,2024-06-13T05:52:13.846Z,english_98.wav,0,1,1464,21,4,Chinese,f,11,1.09391667,-59.74440562,0.54238322
FDQ,4,0,2024-06-13T05:52:13.846Z,english_661.wav,0,1,1392,21,4,Chinese,f,0,0,-96.27017097,0.06095717
FDQ,4,0,2024-06-13T05:52:13.846Z,english_661.wav,0,1,1392,21,4,Chinese,f,1,0.1,-8.23164951,1.37830678
FDQ,4,0,2024-06-13T05:52:13.846Z,english_661.wav,0,1,1392,21,4,Chinese,f,2,0.2,-17.16483844,0.60938429
FDQ,4,0,2024-06-13T05:52:13.846Z,english_661.wav,0,1,1392,21,4,Chinese,f,3,0.3,51.38438878,1.50755712
FDQ,4,0,2024-06-13T05:52:13.846Z,english_661.wav,0,1,1392,21,4,Chinese,f,4,0.4,-46.68819378,0.78233896
FDQ,4,0,2024-06-13T05:52:13.846Z,english_661.wav,0,1,1392,21,4,Chinese,f,5,0.5,-48.36150329,1.0485375
FDQ,4,0,2024-06-13T05:52:13.846Z,english_661.wav,0,1,1392,21,4,Chinese,f,6,0.6,39.11171658,1.09444979
FDQ,4,0,2024-06-13T05:52:13.846Z,english_661.wav,0,1,1392,21,4,Chinese,f,7,0.7,61.02242978,0.69142926
FDQ,4,0,2024-06-13T05:52:13.846Z,english_661.wav,0,1,1392,21,4,Chinese,f,8,0.8,-31.59479495,1.58337901
FDQ,4,0,2024-06-13T05:52:13.846Z,english_661.wav,0,1,1392,21,4,Chinese,f,9,0.9,29.78054616,1.62604078
FDQ,4,0,2024-06-13T05:52:13.846Z,english_661.wav,0,1,1392,21,4,Chinese,f,10,1,12.03263948,0.74172624
FDQ,4,0,2024-06-13T05:52:13.846Z,english_661.wav,0,1,1392,21,4,Chinese,f,11,1.09391667,45.41432931,1.92603435
FDQ,5,0,2024-06-13T05:52:13.846Z,english_643.wav,0,0,1462,21,4,Chinese,f,0,0,-28.71923325,0.05998695
FDQ,5,0,2024-06-13T05:52:13.846Z,english_643.wav,0,0,1462,21,4,Chinese,f,1,0.1,-41.33033256,1.69509995
FDQ,5,0,2024-06-13T05:52:13.846Z,english_643.wav,0,0,1462,21,4,Chinese,f,2,0.2,14.60836996,1.2304272
FDQ,5,0,2024-06-13T05:52:13.846Z,english_643.wav,0,0,1462,21,4,Chinese,f,3,0.3,24.53811626,1.46168191
FDQ,5,0,2024-06-13T05:52:13.846Z,english_643.wav,0,0,1462,21,4,Chinese,f,4,0.4,7.82813988,1.6429412
FDQ,5,0,2024-06-13T05:52:13.846Z,english_643.wav,0,0,1462,21,4,Chinese,f,5,0.5,31.13275889,1.01913146
FDQ,5,0,2024-06-13T05:52:13.846Z,english_643.wav,0,0,1462,21,4,Chinese,f,6,0.6,9.00223054,0.81472246
FDQ,5,0,2024-06-13T05:52:13.846Z,english_643.wav,0,0,1462,21,4,Chinese,f,7,0.7,65.97905996,0.51197957
FDQ,5,0,2024-06-13T05:52:13.846Z,english_643.wav,0,0,1462,21,4,Chinese,f,8,0.8,3.77456402,0.97348527
FDQ,5,0,2024-06-13T05:52:13.846Z,english_643.wav,0,0,1462,21,4,Chinese,f,9,0.9,20.70026816,0.6370084
FDQ,5,0,2024-06-13T05:52:13.846Z,english_643.wav,0,0,1462,21,4,Chinese,f,10,1,98.54762674,0.00532383
FDQ,5,0,2024-06-13T05:52:13.846Z,english_643.wav,0,0,1462,21,4,Chinese,f,11,1.09391667,74.26815163,1.21089253
FDQ,6,0,2024-06-13T05:52:13.846Z,english_139.wav,0,0,1649,21,4,Chinese,f,0,0,81.69119698,1.27933894
FDQ,6,0,2024-06-13T05:52:13.846Z,english_139.wav,0,0,1649,21,4,Chinese,f,1,0.1,42.19378668,0.17402895
FDQ,6,0,2024-06-13T05:52:13.846Z,english_139.wav,0,0,1649,21,4,Chinese,f,2,0.2,-40.74285827,0.51201081
FDQ,6,0,2024-06-13T05:52:13.846Z,english_139.wav,0,0,1649,21,4,Chinese,f,3,0.3,49.20247594,0.94873681
FDQ,6,0,2024-06-13T05:52:13.846Z,english_139.wav,0,0,1649,21,4,Chinese,f,4,0.4,-31.78428617,1.19745534
FDQ,6,0,2024-06-13T05:52:13.846Z,english_139.wav,0,0,1649,21,4,Chinese,f,5,0.5,33.76293525,0.67270535
FDQ,6,0,2024-06-13T05:52:13.846Z,english_139.wav,0,0,1649,21,4,Chinese,f,6,0.6,7.11439176,1.44433094
FDQ,6,0,2024-06-13T05:52:13.846Z,english_139.wav,0,0,1649,21,4,Chinese,f,7,0.7,-18.31872173,0.44605891
FDQ,6,0,2024-06-13T05:52:13.846Z,english_139.wav,0,0,1649,21,4,Chinese,f,8,0.8,79.70412409,0.81778602
FDQ,6,0,2024-06-13T05:52:13.846Z,english_139.wav,0,0,1649,21,4,Chinese,f,9,0.9,-88.5628162,1.24773735
FDQ,6,0,2024-06-13T05:52:13.846Z,english_139.wav,0,0,1649,21,4,Chinese,f,10,1,-65.12448171,0.00984113
FDQ,6,0,2024-06-13T05:52:13.846Z,english_139.wav,0,0,1649,21,4,Chinese,f,11,1.09391667,11.63103966,1.43403062
FDQ,7,0,2024-06-13T05:52:13.846Z,english_1.wav,0,0,2229,21,4,Chinese,f,0,0,82.44203382,0.97617089
FDQ,7,0,2024-06-13T05:52:13.846Z,english_1.wav,0,0,2229,21,4,Chinese,f,1,0.1,-30.17618245,0.62833649
FDQ,7,0,2024-06-13T05:52:13.846Z,english_1.wav,0,0,2229,21,4,Chinese,f,2,0.2,29.86670871,1.71628267
FDQ,7,0,2024-06-13T05:52:13.846Z,english_1.wav,0,0,2229,21,4,Chinese,f,3,0.3,-30.59558791,1.57876253
FDQ,7,0,2024-06-13T05:52:13.846Z,english_1.wav,0,0,2229,21,4,Chinese,f,4,0.4,-47.57675763,0.47000387
FDQ,7,0,2024-06-13T05:52:13.846Z,english_1.wav,0,0,2229,21,4,Chinese,f,5,0.5,-17.44773817,0.87334438
FDQ,7,0,2024-06-13T05:52:13.846Z,english_1.wav,0,0,2229,21,4,Chinese,f,6,0.6,-73.86718122,0.40526307
FDQ,7,0,2024-06-13T05:52:13.846Z,english_1.wav,0,0,2229,21,4,Chinese,f,7,0.7,70.17077277,1.31867186
FDQ,7,0,2024-06-13T05:52:13.846Z,english_1.wav,0,0,2229,21,4,Chinese,f,8,0.8,-75.98538301,0.46239136
FDQ,7,0,2024-06-13T05:52:13.846Z,english_1.wav,0,0,2229,21,4,Chinese,f,9,0.9,-57.43154571,0.66642176
FDQ,7,0,2024-06-13T05:52:13.846Z,english_1.wav,0,0,2229,21,4,Chinese,f,10,1,93.54956166,0.4005644
FDQ,7,0,2024-06-13T05:52:13.846Z,english_1.wav,0,0,2229,21,4,Chinese,f,11,1.09391667,-19.42635274,0.62556241
FDQ,8,0,2024-06-13T05:52:13.846Z,english_202.wav,0,1,1468,21,4,Chinese,f,0,0,-55.5835629,1.42115323
FDQ,8,0,2024-06-13T05:52:13.846Z,english_202.wav,0,1,1468,21,4,Chinese,f,1,0.1,-74.17222211,1.11230171
FDQ,8,0,2024-06-13T05:52:13.846Z,english_202.wav,0,1,1468,21,4,Chinese,f,2,0.2,32.91988816,1.2604868
FDQ,8,0,2024-06-13T05:52:13.846Z,english_202.wav,0,1,1468,21,4,Chinese,f,3,0.3,-61.08726633,1.38170621
FDQ,8,0,2024-06-13T05:52:13.846Z,english_202.wav,0,1,1468,21,4,Chinese,f,4,0.4,74.28120307,1.19502306
FDQ,8,0,2024-06-13T05:52:13.846Z,english_202.wav,0,1,1468,21,4,Chinese,f,5,0.5,27.15782783,1.3290301
FDQ,8,0,2024-06-13T05:52:13.846Z,english_202.wav,0,1,1468,21,4,Chinese,f,6,0.6,-31.42828759,1.43273837
FDQ,8,0,2024-06-13T05:52:13.846Z,english_202.wav,0,1,1468,21,4,Chinese,f,7,0.7,-85.57803202,0.23505516
FDQ,8,0,2024-06-13T05:52:13.846Z,english_202.wav,0,1,1468,21,4,Chinese,f,8,0.8,-8.83313062,0.8306151
FDQ,8,0,2024-06-13T05:52:13.846Z,english_202.wav,0,1,1468,21,4,Chinese,f,9,0.9,75.88912897,1.14421979
FDQ,8,0,2024-06-13T05:52:13.846Z,english_202.wav,0,1,1468,21,4,Chinese,f,10,1,-46.89935533,1.72535261
FDQ,8,0,2024-06-13T05:52:13.846Z,english_202.wav,0,1,1468,21,4,Chinese,f,11,1.09391667,1.73094833,1.37481935
FDQ,9,0,2024-06-13T05:52:13.846Z,english_629.wav,0,0,1132,21,4,Chinese,f,0,0,-98.30964243,0.81771725
FDQ,9,0,2024-06-13T05:52:13.846Z,english_629.wav,0,0,1132,21,4,Chinese,f,1,0.1,-5.62970232,0.80248144
FDQ,9,0,2024-06-13T05:52:13.846Z,english_629.wav,0,0,1132,21,4,Chinese,f,2,0.2,20.69990793,1.65272957
FDQ,9,0,2024-06-13T05:52:13.846Z,english_629.wav,0,0,1132,21,4,Chinese,f,3,0.3,-4.68954038,0.79587507
FDQ,9,0,2024-06-13T05:52:13.846Z,english_629.wav,0,0,1132,21,4,Chinese,f,4,0.4,-82.80499964,0.51843323
FDQ,9,0,2024-06-13T05:52:13.846Z,english_629.wav,0,0,1132,21,4,Chinese,f,5,0.5,68.80297029,1.06630495
FDQ,9,0,2024-06-13T05:52:13.846Z,english_629.wav,0,0,1132,21,4,Chinese,f,6,0.6,-24.62615081,0.85921764
FDQ,9,0,2024-06-13T05:52:13.846Z,english_629.wav,0,0,1132,21,4,Chinese,f,7,0.7,-86.27878454,1.30572182
FDQ,9,0,2024-06-13T05:52:13.846Z,english_629.wav,0,0,1132,21,4,Chinese,f,8,0.8,-88.66663155,0.67243508
FDQ,9,0,2024-06-13T05:52:13.846Z,english_629.wav,0,0,1132,21,4,Chinese,f,9,0.9,8.97030431,0.68958588
FDQ,9,0,2024-06-13T05:52:13.846Z,english_629.wav,0,0,1132,21,4,Chinese,f,10,1,-94.86018334,0.23451131
FDQ,9,0,2024-06-13T05:52:13.846Z,english_629.wav,0,0,1132,21,4,Chinese,f,11,1.09391667,10.00961885,1.91010728
FDQ,10,0,2024-06-13T05:52:13.846Z,english_107.wav,0,1,933,21,4,Chinese,f,0,0,14.75106281,1.14538344
FDQ,10,0,2024-06-13T05:52:13.846Z,english_107.wav,0,1,933,21,4,Chinese,f,1,0.1,61.55616618,1.63691709
FDQ,10,0,2024-06-13T05:52:13.846Z,english_107.wav,0,1,933,21,4,Chinese,f,2,0.2,-53.67988365,1.34954163
FDQ,10,0,2024-06-13T05:52:13.846Z,english_107.wav,0,1,933,21,4,Chinese,f,3,0.3,-26.40552644,0.87865188
FDQ,10,0,2024-06-13T05:52:13.846Z,english_107.wav,0,1,933,21,4,Chinese,f,4,0.4,-39.74978172,0.87105183
FDQ,10,0,2024-06-13T05:52:13.846Z,english_107.wav,0,1,933,21,4,Chinese,f,5,0.5,59.30152115,0.97837698
FDQ,10,0,2024-06-13T05:52:13.846Z,english_107.wav,0,1,933,21,4,Chinese,f,6,0.6,47.78500901,0.24331513
FDQ,10,0,2024-06-13T05:52:13.846Z,english_107.wav,0,1,933,21,4,Chinese,f,7,0.7,-56.28829924,1.31332622
FDQ,10,0,2024-06-13T05:52:13.846Z,english_107.wav,0,1,933,21,4,Chinese,f,8,0.8,-27.92998764,1.65018095
FDQ,10,0,2024-06-13T05:52:13.846Z,english_107.wav,0,1,933,21,4,Chinese,f,9,0.9,-79.09348068,0.9374591
FDQ,10,0,2024-06-13T05:52:13.846Z,english_107.wav,0,1,933,21,4,Chinese,f,10,1,-12.41548757,1.20965119
FDQ,10,0,2024-06-13T05:52:13.846Z,english_107.wav,0,1,933,21,4,Chinese,f,11,1.09391667,52.16057728,1.85980397
FDQ,11,0,2024-06-13T05:52:13.846Z,english_824.wav,0,0,1559,21,4,Chinese,f,0,0,68.17789045,1.17767563
FDQ,11,0,2024-06-13T05:52:13.846Z,english_824.wav,0,0,1559,21,4,Chinese,f,1,0.1,-15.68019175,1.73120974
FDQ,11,0,2024-06-13T05:52:13.846Z,english_824.wav,0,0,1559,21,4,Chinese,f,2,0.2,-58.3734313,0.68280186
FDQ,11,0,2024-06-13T05:52:13.846Z,english_824.wav,0,0,1559,21,4,Chinese,f,3,0.3,17.37254381,0.04169824
FDQ,11,0,2024-06-13T05:52:13.846Z,english_824.wav,0,0,1559,21,4,Chinese,f,4,0.4,-42.12881826,1.33393477
FDQ,11,0,2024-06-13T05:52:13.846Z,english_824.wav,0,0,1559,21,4,Chinese,f,5,0.5,-81.23473424,0.50746231
FDQ,11,0,2024-06-13T05:52:13.846Z,english_824.wav,0,0,1559,21,4,Chinese,f,6,0.6,58.88344317,1.51646587
FDQ,11,0,2024-06-13T05:52:13.846Z,english_824.wav,0,0,1559,21,4,Chinese,f,7,0.7,35.29280148,1.66141374
FDQ,11,0,2024-06-13T05:52:13.846Z,english_824.wav,0,0,1559,21,4,Chinese,f,8,0.8,90.96995236,0.44412198
FDQ,11,0,2024-06-13T05:52:13.846Z,english_824.wav,0,0,1559,21,4,Chinese,f,9,0.9,60.0788655,1.20735386
FDQ,11,0,2024-06-13T05:52:13.846Z,english_824.wav,0,0,1559,21,4,Chinese,f,10,1,-44.66291858,0.95955144
FDQ,11,0,2024-06-13T05:52:13.846Z,english_824.wav,0,0,1559,21,4,Chinese,f,11,1.09391667,-39.15723424,1.16419205
FDQ,12,0,2024-06-13T05:52:13.846Z,english_333.wav,0,1,671,21,4,Chinese,f,0,0,-77.09264939,1.23191038
FDQ,12,0,2024-06-13T05:52:13.846Z,english_333.wav,0,1,671,21,4,Chinese,f,1,0.1,-5.78875624,1.45836537
FDQ,12,0,2024-06-13T05:52:13.846Z,english_333.wav,0,1,671,21,4,Chinese,f,2,0.2,-83.87680905,1.0531546
FDQ,12,0,2024-06-13T05:52:13.846Z,english_333.wav,0,1,671,21,4,Chinese,f,3,0.3,28.79088839,0.44111738
FDQ,12,0,2024-06-13T05:52:13.846Z,english_333.wav,0,1,671,21,4,Chinese,f,4,0.4,-8.31834177,1.38984954
FDQ,12,0,2024-06-13T05:52:13.846Z,english_333.wav,0,1,671,21,4,Chinese,f,5,0.5,-89.41834338,0.9205918
FDQ,12,0,2024-06-13T05:52:13.846Z,english_333.wav,0,1,671,21,4,Chinese,f,6,0.6,26.9852541,0.41991315
FDQ,12,0,2024-06-13T05:52:13.846Z,english_333.wav,0,1,671,21,4,Chinese,f,7,0.7,33.61847072,1.33278744
FDQ,12,0,2024-06-13T05:52:13.846Z,english_333.wav,0,1,671,21,4,Chinese,f,8,0.8,46.07239873,1.39586389
FDQ,12,0,2024-06-13T05:52:13.846Z,english_333.wav,0,1,671,21,4,Chinese,f,9,0.9,28.18917884,1.14407521
FDQ,12,0,2024-06-13T05:52:13.846Z,english_333.wav,0,1,671,21,4,Chinese,f,10,1,-44.50200932,1.34818546
FDQ,12,0,2024-06-13T05:52:13.846Z,english_333.wav,0,1,671,21,4,Chinese,f,11,1.09391667,47.37913403,0.31125762
FDQ,13,0,2024-06-13T05:52:13.846Z,english_242.wav,0,1,871,21,4,Chinese,f,0,0,-30.80596233,1.80753385
FDQ,13,0,2024-06-13T05:52:13.846Z,english_242.wav,0,1,871,21,4,Chinese,f,1,0.1,81.43519329,0.97833747
FDQ,13,0,2024-06-13T05:52:13.846Z,english_242.wav,0,1,871,21,4,Chinese,f,2,0.2,0.15400576,1.3926845
FDQ,13,0,2024-06-13T05:52:13.846Z,english_242.wav,0,1,871,21,4,Chinese,f,3,0.3,-28.81783402,1.42545381
FDQ,13,0,2024-06-13T05:52:13.846Z,english_242.wav,0,1,871,21,4,Chinese,f,4,0.4,-61.37671682,0.1849233
FDQ,13,0,2024-06-13T05:52:13.846Z,english_242.wav,0,1,871,21,4,Chinese,f,5,0.5,91.85520167,1.35548931
FDQ,13,0,2024-06-13T05:52:13.846Z,english_242.wav,0,1,871,21,4,Chinese,f,6,0.6,-31.54320731,1.15661389
FDQ,13,0,2024-06-13T05:52:13.846Z,english_242.wav,0,1,871,21,4,Chinese,f,7,0.7,-13.97670537,1.66148537
FDQ,13,0,2024-06-13T05:52:13.846Z,english_242.wav,0,1,871,21,4,Chinese,f,8,0.8,70.42044267,1.4780344
FDQ,13,0,2024-06-13T05:52:13.846Z,english_242.wav,0,1,871,21,4,Chinese,f,9,0.9,-90.04203145,1.37692841
FDQ,13,0,2024-06-13T05:52:13.846Z,english_242.wav,0,1,871,21,4,Chinese,f,10,1,-39.83004077,0.38948234
FDQ,13,0,2024-06-13T05:52:13.846Z,english_242.wav,0,1,871,21,4,Chinese,f,11,1.09391667,-14.25442636,1.25473686
FDQ,14,0,2024-06-13T05:52:13.846Z,english_557.wav,0,0,1070,21,4,Chinese,f,0,0,-36.00437951,0.86268568
FDQ,14,0,2024-06-13T05:52:13.846Z,english_557.wav,0,0,1070,21,4,Chinese,f,1,0.1,-36.18192477,0.78818346
FDQ,14,0,2024-06-13T05:52:13.846Z,english_557.wav,0,0,1070,21,4,Chinese,f,2,0.2,-76.46214854,0.88104775
FDQ,14,0,2024-06-13T05:52:13.846Z,english_557.wav,0,0,1070,21,4,Chinese,f,3,0.3,-9.78546514,0.51957323
FDQ,14,0,2024-06-13T05:52:13.846Z,english_557.wav,0,0,1070,21,4,Chinese,f,4,0.4,-53.27937245,1.84624381
FDQ,14,0,2024-06-13T05:52:13.846Z,english_557.wav,0,0,1070,21,4,Chinese,f,5,0.5,14.69737181,0.53524469
FDQ,14,0,2024-06-13T05:52:13.846Z,english_557.wav,0,0,1070,21,4,Chinese,f,6,0.6,-76.22217722,0.83895898
FDQ,14,0,2024-06-13T05:52:13.846Z,english_557.wav,0,0,1070,21,4,Chinese,f,7,0.7,76.26393568,0.4548877
FDQ,14,0,2024-06-13T05:52:13.846Z,english_557.wav,0,0,1070,21,4,Chinese,f,8,0.8,-62.02007028,1.59917341
FDQ,14,0,2024-06-13T05:52:13.846Z,english_557.wav,0,0,1070,21,4,Chinese,f,9,0.9,73.18804903,0.63690232
FDQ,14,0,2024-06-13T05:52:13.846Z,english_557.wav,0,0,1070,21,4,Chinese,f,10,1,75.91755358,1.04600017
FDQ,14,0,2024-06-13T05:52:13.846Z,english_557.wav,0,0,1070,21,4,Chinese,f,11,1.09391667,-37.39944408,0.42796411
FDQ,15,0,2024-06-13T05:52:13.846Z,english_400.wav,0,0,1581,21,4,Chinese,f,0,0,-25.02230777,0.48486425
FDQ,15,0,2024-06-13T05:52:13.846Z,english_400.wav,0,0,1581,21,4,Chinese,f,1,0.1,49.22110948,0.13954262
FDQ,15,0,2024-06-13T05:52:13.846Z,english_400.wav,0,0,1581,21,4,Chinese,f,2,0.2,-25.24422823,0.30114108
FDQ,15,0,2024-06-13T05:52:13.846Z,english_400.wav,0,0,1581,21,4,Chinese,f,3,0.3,-67.45566663,0.1192849
FDQ,15,0,2024-06-13T05:52:13.846Z,english_400.wav,0,0,1581,21,4,Chinese,f,4,0.4,-45.51948519,1.32093998
FDQ,15,0,2024-06-13T05:52:13.846Z,english_400.wav,0,0,1581,21,4,Chinese,f,5,0.5,-18.6326315,1.53333364
FDQ,15,0,2024-06-13T05:52:13.846Z,english_400.wav,0,0,1581,21,4,Chinese,f,6,0.6,39.79801231,1.63066866
FDQ,15,0,2024-06-13T05:52:13.846Z,english_400.wav,0,0,1581,21,4,Chinese,f,7,0.7,-16.89099315,1.10413319
FDQ,15,0,2024-06-13T05:52:13.846Z,english_400.wav,0,0,1581,21,4,Chinese,f,8,0.8,73.50338814,1.82884713
FDQ,15,0,2024-06-13T05:52:13.846Z,english_400.wav,0,0,1581,21,4,Chinese,f,9,0.9,34.20665044,0.24999453
FDQ,15,0,2024-06-13T05:52:13.846Z,english_400.wav,0,0,1581,21,4,Chinese,f,10,1,43.60884608,0.44753764
FDQ,15,0,2024-06-13T05:52:13.846Z,english_400.wav,0,0,1581,21,4,Chinese,f,11,1.09391667,-63.62307837,1.09142561
FDQ,16,0,2024-06-13T05:52:13.846Z,english_31.wav,0,0,1367,21,4,Chinese,f,0,0,27.66535658,1.77982522
FDQ,16,0,2024-06-13T05:52:13.846Z,english_31.wav,0,0,1367,21,4,Chinese,f,1,0.1,13.56694794,1.07162792
FDQ,16,0,2024-06-13T05:52:13.846Z,english_31.wav,0,0,1367,21,4,Chinese,f,2,0.2,18.47033094,0.18234571
FDQ,16,0,2024-06-13T05:52:13.846Z,english_31.wav,0,0,1367,21,4,Chinese,f,3,0.3,59.04276692,1.10955417
FDQ,16,0,2024-06-13T05:52:13.846Z,english_31.wav,0,0,1367,21,4,Chinese,f,4,0.4,-91.09157625,1.72425302
FDQ,16,0,2024-06-13T05:52:13.846Z,english_31.wav,0,0,1367,21,4,Chinese,f,5,0.5,-18.02658585,0.5579513
FDQ,16,0,2024-06-13T05:52:13.846Z,english_31.wav,0,0,1367,21,4,Chinese,f,6,0.6,-35.60184109,1.93053319
FDQ,16,0,2024-06-13T05:52:13.846Z,english_31.wav,0,0,1367,21,4,Chinese,f,7,0.7,54.26515106,1.77971636
FDQ,16,0,2024-06-13T05:52:13.846Z,english_31.wav,0,0,1367,21,4,Chinese,f,8,0.8,-22.38727861,0.37301738
FDQ,16,0,2024-06-13T05:52:13.846Z,english_31.wav,0,0,1367,21,4,Chinese,f,9,0.9,43.77933905,1.40160657
FDQ,16,0,2024-06-13T05:52:13.846Z,english_31.wav,0,0,1367,21,4,Chinese,f,10,1,18.37090143,0.31959468
FDQ,16,0,2024-06-13T05:52:13.846Z,english_31.wav,0,0,1367,21,4,Chinese,f,11,1.09391667,6.84824494,1.79655945
FDQ,17,0,2024-06-13T05:52:13.846Z,english_336.wav,0,0,1865,21,4,Chinese,f,0,0,81.71607603,0.24645368
FDQ,17,0,2024-06-13T05:52:13.846Z,english_336.wav,0,0,1865,21,4,Chinese,f,1,0.1,-15.78086785,1.53225808
FDQ,17,0,2024-06-13T05:52:13.846Z,english_336.wav,0,0,1865,21,4,Chinese,f,2,0.2,23.7073003,0.72747831
FDQ,17,0,2024-06-13T05:52:13.846Z,english_336.wav,0,0,1865,21,4,Chinese,f,3,0.3,-55.22954441,1.13985004
FDQ,17,0,2024-06-13T05:52:13.846Z,english_336.wav,0,0,1865,21,4,Chinese,f,4,0.4,-82.40927831,1.08390501
FDQ,17,0,2024-06-13T05:52:13.846Z,english_336.wav,0,0,1865,21,4,Chinese,f,5,0.5,18.45613874,1.68458766
FDQ,17,0,2024-06-13T05:52:13.846Z,english_336.wav,0,0,1865,21,4,Chinese,f,6,0.6,-8.80089887,0.21615576
FDQ,17,0,2024-06-13T05:52:13.846Z,english_336.wav,0,0,1865,21,4,Chinese,f,7,0.7,19.65234969,0.20974011
FDQ,17,0,2024-06-13T05:52:13.846Z,english_336.wav,0,0,1865,21,4,Chinese,f,8,0.8,69.92960645,0.419805
FDQ,17,0,2024-06-13T05:52:13.846Z,english_336.wav,0,0,1865,21,4,Chinese,f,9,0.9,-8.61589223,0.51685969
FDQ,17,0,2024-06-13T05:52:13.846Z,english_336.wav,0,0,1865,21,4,Chinese,f,10,1,73.7587051,1.09673706
FDQ,17,0,2024-06-13T05:52:13.846Z,english_336.wav,0,0,1865,21,4,Chinese,f,11,1.09391667,23.54589263,1.85023779
FDQ,18,0,2024-06-13T05:52:13.846Z,english_24.wav,0,0,609,21,4,Chinese,f,0,0,19.80934614,1.72303363
FDQ,18,0,2024-06-13T05:52:13.846Z,english_24.wav,0,0,609,21,4,Chinese,f,1,0.1,18.47296287,1.17223446
FDQ,18,0,2024-06-13T05:52:13.846Z,english_24.wav,0,0,609,21,4,Chinese,f,2,0.2,-87.44087303,0.32252022
FDQ,18,0,2024-06-13T05:52:13.846Z,english_24.wav,0,0,609,21,4,Chinese,f,3,0.3,-24.76838412,1.29113778
FDQ,18,0,2024-06-13T05:52:13.846Z,english_24.wav,0,0,609,21,4,Chinese,f,4,0.4,28.54854922,1.23026356
FDQ,18,0,2024-06-13T05:52:13.846Z,english_24.wav,0,0,609,21,4,Chinese,f,5,0.5,-93.00925389,1.272094
FDQ,18,0,2024-06-13T05:52:13.846Z,english_24.wav,0,0,609,21,4,Chinese,f,6,0.6,43.83851229,1.03857334
FDQ,18,0,2024-06-13T05:52:13.846Z,english_24.wav,0,0,609,21,4,Chinese,f,7,0.7,56.50445967,0.04355902
FDQ,18,0,2024-06-13T05:52:13.846Z,english_24.wav,0,0,609,21,4,Chinese,f,8,0.8,-34.51680679,1.12262583
FDQ,18,0,2024-06-13T05:52:13.846Z,english_24.wav,0,0,609,21,4,Chinese,f,9,0.9,77.91008798,0.83275479
FDQ,18,0,2024-06-13T05:52:13.846Z,english_24.wav,0,0,609,21,4,Chinese,f,10,1,22.21951013,0.49987962
FDQ,18,0,2024-06-13T05:52:13.846Z,english_24.wav,0,0,609,21,4,Chinese,f,11,1.09391667,44.21755505,0.6404637
FDQ,19,0,2024-06-13T05:52:13.846Z,english_338.wav,0,1,806,21,4,Chinese,f,0,0,-28.32882855,1.26446903
FDQ,19,0,2024-06-13T05:52:13.846Z,english_338.wav,0,1,806,21,4,Chinese,f,1,0.1,57.31812169,0.76759877
FDQ,19,0,2024-06-13T05:52:13.846Z,english_338.wav,0,1,806,21,4,Chinese,f,2,0.2,14.45982208,1.52351901
FDQ,19,0,2024-06-13T05:52:13.846Z,english_338.wav,0,1,806,21,4,Chinese,f,3,0.3,77.41090692,1.04471398
FDQ,19,0,2024-06-13T05:52:13.846Z,english_338.wav,0,1,806,21,4,Chinese,f,4,0.4,-1.8867557,0.90426999
FDQ,19,0,2024-06-13T05:52:13.846Z,english_338.wav,0,1,806,21,4,Chinese,f,5,0.5,-35.85874383,1.69664706
FDQ,19,0,2024-06-13T05:52:13.846Z,english_338.wav,0,1,806,21,4,Chinese,f,6,0.6,-55.1613605,0.17582058
FDQ,19,0,2024-06-13T05:52:13.846Z,english_338.wav,0,1,806,21,4,Chinese,f,7,0.7,-70.94430614,0.54140942
FDQ,19,0,2024-06-13T05:52:13.846Z,english_338.wav,0,1,806,21,4,Chinese,f,8,0.8,5.91952673,0.81798021
FDQ,19,0,2024-06-13T05:52:13.846Z,english_338.wav,0,1,806,21,4,Chinese,f,9,0.9,-77.52896216,1.90630538
FDQ,19,0,2024-06-13T05:52:13.846Z,english_338.wav,0,1,806,21,4,Chinese,f,10,1,-12.19112467,0.59557422
FDQ,19,0,2024-06-13T05:52:13.846Z,english_338.wav,0,1,806,21,4,Chinese,f,11,1.09391667,6.6549641,0.42071392
FDQ,20,0,2024-06-13T05:52:13.846Z,english_911.wav,0,1,714,21,4,Chinese,f,0,0,97.74431138,1.45295226
FDQ,20,0,2024-06-13T05:52:13.846Z,english_911.wav,0,1,714,21,4,Chinese,f,1,0.1,63.25353714,0.52934156
FDQ,20,0,2024-06-13T05:52:13.846Z,english_911.wav,0,1,714,21,4,Chinese,f,2,0.2,31.76873058,1.12978313
FDQ,20,0,2024-06-13T05:52:13.846Z,english_911.wav,0,1,714,21,4,Chinese,f,3,0.3,-80.65515271,0.46492479
FDQ,20,0,2024-06-13T05:52:13.846Z,english_911.wav,0,1,714,21,4,Chinese,f,4,0.4,87.72308134,1.65576631
FDQ,20,0,2024-06-13T05:52:13.846Z,english_911.wav,0,1,714,21,4,Chinese,f,5,0.5,-43.90030619,0.95301179
FDQ,20,0,2024-06-13T05:52:13.846Z,english_911.wav,0,1,714,21,4,Chinese,f,6,0.6,-96.43392939,1.98033305
FDQ,20,0,2024-06-13T05:52:13.846Z,english_911.wav,0,1,714,21,4,Chinese,f,7,0.7,-95.09691132,0.56650122
FDQ,20,0,2024-06-13T05:52:13.846Z,english_911.wav,0,1,714,21,4,Chinese,f,8,0.8,7.77484736,1.59543029
FDQ,20,0,2024-06-13T05:52:13.846Z,english_911.wav,0,1,714,21,4,Chinese,f,9,0.9,12.16907111,1.97260423
FDQ,20,0,2024-06-13T05:52:13.846Z,english_911.wav,0,1,714,21,4,Chinese,f,10,1,33.87787458,1.68149339
FDQ,20,0,2024-06-13T05:52:13.846Z,english_911.wav,0,1,714,21,4,Chinese,f,11,1.09391667,10.13841493,1.03055348
FDQ,21,0,2024-06-13T05:52:13.846Z,english_861.wav,0,1,2353,21,4,Chinese,f,0,0,25.4501387,1.11165111
FDQ,21,0,2024-06-13T05:52:13.846Z,english_861.wav,0,1,2353,21,4,Chinese,f,1,0.1,63.77188621,1.38930356
FDQ,21,0,2024-06-13T05:52:13.846Z,english_861.wav,0,1,2353,21,4,Chinese,f,2,0.2,8.16107914,0.85763188
FDQ,21,0,2024-06-13T05:52:13.846Z,english_861.wav,0,1,2353,21,4,Chinese,f,3,0.3,41.89997673,0.26479285
FDQ,21,0,2024-06-13T05:52:13.846Z,english_861.wav,0,1,2353,21,4,Chinese,f,4,0.4,-63.53893236,0.36121213
FDQ,21,0,2024-06-13T05:52:13.846Z,english_861.wav,0,1,2353,21,4,Chinese,f,5,0.5,57.74914229,1.75452306
FDQ,21,0,2024-06-13T05:52:13.846Z,english_861.wav,0,1,2353,21,4,Chinese,f,6,0.6,-60.14311181,1.62162149
FDQ,21,0,2024-06-13T05:52:13.846Z,english_861.wav,0,1,2353,21,4,Chinese,f,7,0.7,3.67795544,0.63165878
FDQ,21,0,2024-06-13T05:52:13.846Z,english_861.wav,0,1,2353,21,4,Chinese,f,8,0.8,-80.01439722,0.85751028
FDQ,21,0,2024-06-13T05:52:13.846Z,english_861.wav,0,1,2353,21,4,Chinese,f,9,0.9,-37.7550596,1.51613867
FDQ,21,0,2024-06-13T05:52:13.846Z,english_861.wav,0,1,2353,21,4,Chinese,f,10,1,-13.58281726,1.37338535
FDQ,21,0,2024-06-13T05:52:13.846Z,english_861.wav,0,1,2353,21,4,Chinese,f,11,1.09391667,59.5288882,0.25913333
FDQ,22,0,2024-06-13T05:52:13.846Z,english_933.wav,0,0,1114,21,4,Chinese,f,0,0,-32.55224072,0.19221515
FDQ,22,0,2024-06-13T05:52:13.846Z,english_933.wav,0,0,1114,21,4,Chinese,f,1,0.1,59.44257797,1.43025401
FDQ,22,0,2024-06-13T05:52:13.846Z,english_933.wav,0,0,1114,21,4,Chinese,f,2,0.2,17.39690353,1.54503316
FDQ,22,0,2024-06-13T05:52:13.846Z,english_933.wav,0,0,1114,21,4,Chinese,f,3,0.3,-22.68529576,0.8626505
FDQ,22,0,2024-06-13T05:52:13.846Z,english_933.wav,0,0,1114,21,4,Chinese,f,4,0.4,-75.07818399,0.16630427
FDQ,22,0,2024-06-13T05:52:13.846Z,english_933.wav,0,0,1114,21,4,Chinese,f,5,0.5,-42.21384225,0.04785165
FDQ,22,0,2024-06-13T05:52:13.846Z,english_933.wav,0,0,1114,21,4,Chinese,f,6,0.6,88.28795698,0.15375828
FDQ,22,0,2024-06-13T05:52:13.846Z,english_933.wav,0,0,1114,21,4,Chinese,f,7,0.7,-93.76467276,0.19154161
FDQ,22,0,2024-06-13T05:52:13.846Z,english_933.wav,0,0,1114,21,4,Chinese,f,8,0.8,-63.09167857,1.95653775
FDQ,22,0,2024-06-13T05:52:13.846Z,english_933.wav,0,0,1114,21,4,Chinese,f,9,0.9,42.2087571,0.40020781
FDQ,22,0,2024-06-13T05:52:13.846Z,english_933.wav,0,0,1114,21,4,Chinese,f,10,1,48.07358396,0.86859993
FDQ,22,0,2024-06-13T05:52:13.846Z,english_933.wav,0,0,1114,21,4,Chinese,f,11,1.09391667,62.42851897,1.49244645
FDQ,23,0,2024-06-13T05:52:13.846Z,english_445.wav,0,0,1657,21,4,Chinese,f,0,0,76.42112213,1.57802926
FDQ,23,0,2024-06-13T05:52:13.846Z,english_445.wav,0,0,1657,21,4,Chinese,f,1,0.1,-97.95203426,1.29835175
FDQ,23,0,2024-06-13T05:52:13.846Z,english_445.wav,0,0,1657,21,4,Chinese,f,2,0.2,-59.82746333,0.53636504
FDQ,23,0,2024-06-13T05:52:13.846Z,english_445.wav,0,0,1657,21,4,Chinese,f,3,0.3,-13.48573522,1.2021667
FDQ,23,0,2024-06-13T05:52:13.846Z,english_445.wav,0,0,1657,21,4,Chinese,f,4,0.4,81.29973607,1.41426839
FDQ,23,0,2024-06-13T05:52:13.846Z,english_445.wav,0,0,1657,21,4,Chinese,f,5,0.5,41.3671656,1.60295296
FDQ,23,0,2024-06-13T05:52:13.846Z,english_445.wav,0,0,1657,21,4,Chinese,f,6,0.6,-85.98514438,0.58159358
FDQ,23,0,2024-06-13T05:52:13.846Z,english_445.wav,0,0,1657,21,4,Chinese,f,7,0.7,57.90232239,0.76199649
FDQ,23,0,2024-06-13T05:52:13.846Z,english_445.wav,0,0,1657,21,4,Chinese,f,8,0.8,-95.60547231,0.54097795
FDQ,23,0,2024-06-13T05:52:13.846Z,english_445.wav,0,0,1657,21,4,Chinese,f,9,0.9,17.13362758,0.00538706
FDQ,23,0,2024-06-13T05:52:13.846Z,english_445.wav,0,0,1657,21,4,Chinese,f,10,1,46.54539843,0.3060589
FDQ,23,0,2024-06-13T05:52:13.846Z,english_445.wav,0,0,1657,21,4,Chinese,f,11,1.09391667,43.78720367,1.39576853
FDQ,24,0,2024-06-13T05:52:13.846Z,english_526.wav,0,0,588,21,4,Chinese,f,0,0,8.34861985,0.818467978
FDQ,24,0,2024-06-13T05:52:13.846Z,english_526.wav,0,0,588,21,4,Chinese,f,1,0.1,4.68771873,1.47842566
FDQ,24,0,2024-06-13T05:52:13.846Z,english_526.wav,0,0,588,21,4,Chinese,f,2,0.2,53.60731048,1.2919312
FDQ,24,0,2024-06-13T05:52:13.846Z,english_526.wav,0,0,588,21,4,Chinese,f,3,0.3,59.31550311,0.0000036729241
FDQ,24,0,2024-06-13T05:52:13.846Z,english_526.wav,0,0,588,21,4,Chinese,f,4,0.4,72.50237706,1.30202935
FDQ,24,0,2024-06-13T05:52:13.846Z,english_526.wav,0,0,588,21,4,Chinese,f,5,0.5,35.8849844,0.436504023
FDQ,24,0,2024-06-13T05:52:13.846Z,english_526.wav,0,0,588,21,4,Chinese,f,6,0.6,74.11215821,1.72509944
FDQ,24,0,2024-06-13T05:52:13.846Z,english_526.wav,0,0,588,21,4,Chinese,f,7,0.7,55.59683057,0.555064149
FDQ,24,0,2024-06-13T05:52:13.846Z,english_526.wav,0,0,588,21,4,Chinese,f,8,0.8,-27.47924079,0.322124551
FDQ,24,0,2024-06-13T05:52:13.846Z,english_526.wav,0,0,588,21,4,Chinese,f,9,0.9,6.32801867,0.203468589
FDQ,24,0,2024-06-13T05:52:13.846Z,english_526.wav,0,0,588,21,4,Chinese,f,10,1,17.73622103,0.814562372
FDQ,24,0,2024-06-13T05:52:13.846Z,english_526.wav,0,0,588,21,4,Chinese,f,11,1.09391667,57.44538819,1.24257204
FDQ,25,0,2024-06-13T05:52:13.846Z,english_927.wav,0,0,679,21,4,Chinese,f,0,0,-59.83926294,0.47046778
FDQ,25,0,2024-06-13T05:52:13.846Z,english_927.wav,0,0,679,21,4,Chinese,f,1,0.1,-55.07345908,0.3359419
FDQ,25,0,2024-06-13T05:52:13.846Z,english_927.wav,0,0,679,21,4,Chinese,f,2,0.2,23.01792414,0.47092449
FDQ,25,0,2024-06-13T05:52:13.846Z,english_927.wav,0,0,679,21,4,Chinese,f,3,0.3,79.95942336,0.24313159
FDQ,25,0,2024-06-13T05:52:13.846Z,english_927.wav,0,0,679,21,4,Chinese,f,4,0.4,-17.18079026,1.33138527
FDQ,25,0,2024-06-13T05:52:13.846Z,english_927.wav,0,0,679,21,4,Chinese,f,5,0.5,-63.61008443,0.70267187
FDQ,25,0,2024-06-13T05:52:13.846Z,english_927.wav,0,0,679,21,4,Chinese,f,6,0.6,89.30642255,1.06517667
FDQ,25,0,2024-06-13T05:52:13.846Z,english_927.wav,0,0,679,21,4,Chinese,f,7,0.7,-30.45736296,1.53858916
FDQ,25,0,2024-06-13T05:52:13.846Z,english_927.wav,0,0,679,21,4,Chinese,f,8,0.8,-34.22678019,0.26895536
FDQ,25,0,2024-06-13T05:52:13.846Z,english_927.wav,0,0,679,21,4,Chinese,f,9,0.9,-97.1214348,1.04309053
FDQ,25,0,2024-06-13T05:52:13.846Z,english_927.wav,0,0,679,21,4,Chinese,f,10,1,-70.92857542,1.24996871
FDQ,25,0,2024-06-13T05:52:13.846Z,english_927.wav,0,0,679,21,4,Chinese,f,11,1.09391667,48.94211635,1.20293368
FDQ,26,0,2024-06-13T05:52:13.846Z,english_796.wav,0,0,1354,21,4,Chinese,f,0,0,23.83274793,0.06036971
FDQ,26,0,2024-06-13T05:52:13.846Z,english_796.wav,0,0,1354,21,4,Chinese,f,1,0.1,58.93639275,1.88058462
FDQ,26,0,2024-06-13T05:52:13.846Z,english_796.wav,0,0,1354,21,4,Chinese,f,2,0.2,38.21414004,0.18227098
FDQ,26,0,2024-06-13T05:52:13.846Z,english_796.wav,0,0,1354,21,4,Chinese,f,3,0.3,28.9924604,1.37773272
FDQ,26,0,2024-06-13T05:52:13.846Z,english_796.wav,0,0,1354,21,4,Chinese,f,4,0.4,-7.06068982,1.64549947
FDQ,26,0,2024-06-13T05:52:13.846Z,english_796.wav,0,0,1354,21,4,Chinese,f,5,0.5,-87.6291124,1.67194705
FDQ,26,0,2024-06-13T05:52:13.846Z,english_796.wav,0,0,1354,21,4,Chinese,f,6,0.6,-19.55999428,0.64689213
FDQ,26,0,2024-06-13T05:52:13.846Z,english_796.wav,0,0,1354,21,4,Chinese,f,7,0.7,12.86748648,1.59726084
FDQ,26,0,2024-06-13T05:52:13.846Z,english_796.wav,0,0,1354,21,4,Chinese,f,8,0.8,60.66600698,0.96069219
FDQ,26,0,2024-06-13T05:52:13.846Z,english_796.wav,0,0,1354,21,4,Chinese,f,9,0.9,63.14579763,1.00931817
FDQ,26,0,2024-06-13T05:52:13.846Z,english_796.wav,0,0,1354,21,4,Chinese,f,10,1,38.43403738,1.05195825
FDQ,26,0,2024-06-13T05:52:13.846Z,english_796.wav,0,0,1354,21,4,Chinese,f,11,1.09391667,-11.41285249,1.96327853
FDQ,27,0,2024-06-13T05:52:13.846Z,english_63.wav,0,0,1195,21,4,Chinese,f,0,0,48.80645604,0.56207448
FDQ,27,0,2024-06-13T05:52:13.846Z,english_63.wav,0,0,1195,21,4,Chinese,f,1,0.1,3.74871088,0.93485315
FDQ,27,0,2024-06-13T05:52:13.846Z,english_63.wav,0,0,1195,21,4,Chinese,f,2,0.2,36.66338235,1.21075073
FDQ,27,0,2024-06-13T05:52:13.846Z,english_63.wav,0,0,1195,21,4,Chinese,f,3,0.3,0.45158548,1.91331277
FDQ,27,0,2024-06-13T05:52:13.846Z,english_63.wav,0,0,1195,21,4,Chinese,f,4,0.4,-34.50897998,0.52750999
FDQ,27,0,2024-06-13T05:52:13.846Z,english_63.wav,0,0,1195,21,4,Chinese,f,5,0.5,21.44979621,1.42707635
FDQ,27,0,2024-06-13T05:52:13.846Z,english_63.wav,0,0,1195,21,4,Chinese,f,6,0.6,-13.42489637,1.96742567
FDQ,27,0,2024-06-13T05:52:13.846Z,english_63.wav,0,0,1195,21,4,Chinese,f,7,0.7,3.18187359,1.57355325
FDQ,27,0,2024-06-13T05:52:13.846Z,english_63.wav,0,0,1195,21,4,Chinese,f,8,0.8,-14.80243304,0.94386171
FDQ,27,0,2024-06-13T05:52:13.846Z,english_63.wav,0,0,1195,21,4,Chinese,f,9,0.9,76.25105629,0.6095205
FDQ,27,0,2024-06-13T05:52:13.846Z,english_63.wav,0,0,1195,21,4,Chinese,f,10,1,-29.02472721,0.97846037
FDQ,27,0,2024-06-13T05:52:13.846Z,english_63.wav,0,0,1195,21,4,Chinese,f,11,1.09391667,-75.42163707,1.94412545
FDQ,28,0,2024-06-13T05:52:13.846Z,english_717.wav,0,1,1043,21,4,Chinese,f,0,0,80.79953087,1.86526645
FDQ,28,0,2024-06-13T05:52:13.846Z,english_717.wav,0,1,1043,21,4,Chinese,f,1,0.1,-1.75275742,1.92589165
FDQ,28,0,2024-06-13T05:52:13.846Z,english_717.wav,0,1,1043,21,4,Chinese,f,2,0.2,12.73700345,1.47472052
FDQ,28,0,2024-06-13T05:52:13.846Z,english_717.wav,0,1,1043,21,4,Chinese,f,3,0.3,-58.06023579,1.92992484
FDQ,28,0,2024-06-13T05:52:13.846Z,english_717.wav,0,1,1043,21,4,Chinese,f,4,0.4,-93.68141032,1.20356957
FDQ,28,0,2024-06-13T05:52:13.846Z,english_717.wav,0,1,1043,21,4,Chinese,f,5,0.5,-35.69500064,0.92496825
FDQ,28,0,2024-06-13T05:52:13.846Z,english_717.wav,0,1,1043,21,4,Chinese,f,6,0.6,23.08040277,1.84550356
FDQ,28,0,2024-06-13T05:52:13.846Z,english_717.wav,0,1,1043,21,4,Chinese,f,7,0.7,-73.54652945,0.83429079
FDQ,28,0,2024-06-13T05:52:13.846Z,english_717.wav,0,1,1043,21,4,Chinese,f,8,0.8,43.65281286,0.04489088
FDQ,28,0,2024-06-13T05:52:13.846Z,english_717.wav,0,1,1043,21,4,Chinese,f,9,0.9,99.54987208,1.24125202
FDQ,28,0,2024-06-13T05:52:13.846Z,english_717.wav,0,1,1043,21,4,Chinese,f,10,1,85.80896401,1.39190792
FDQ,28,0,2024-06-13T05:52:13.846Z,english_717.wav,0,1,1043,21,4,Chinese,f,11,1.09391667,7.78107645,0.20374713
FDQ,29,0,2024-06-13T05:52:13.846Z,english_515.wav,0,0,774,21,4,Chinese,f,0,0,-58.23176372,1.22843541
FDQ,29,0,2024-06-13T05:52:13.846Z,english_515.wav,0,0,774,21,4,Chinese,f,1,0.1,-76.45173976,1.63015901
FDQ,29,0,2024-06-13T05:52:13.846Z,english_515.wav,0,0,774,21,4,Chinese,f,2,0.2,25.49902523,1.20813881
FDQ,29,0,2024-06-13T05:52:13.846Z,english_515.wav,0,0,774,21,4,Chinese,f,3,0.3,5.27103545,0.47612476
FDQ,29,0,2024-06-13T05:52:13.846Z,english_515.wav,0,0,774,21,4,Chinese,f,4,0.4,-41.64983344,0.26545174
FDQ,29,0,2024-06-13T05:52:13.846Z,english_515.wav,0,0,774,21,4,Chinese,f,5,0.5,-51.29888172,1.8557412
FDQ,29,0,2024-06-13T05:52:13.846Z,english_515.wav,0,0,774,21,4,Chinese,f,6,0.6,65.36966432,0.81547092
FDQ,29,0,2024-06-13T05:52:13.846Z,english_515.wav,0,0,774,21,4,Chinese,f,7,0.7,-56.17839976,1.63185656
FDQ,29,0,2024-06-13T05:52:13.846Z,english_515.wav,0,0,774,21,4,Chinese,f,8,0.8,-12.23547481,0.09263004
FDQ,29,0,2024-06-13T05:52:13.846Z,english_515.wav,0,0,774,21,4,Chinese,f,9,0.9,-89.1418522,1.76127396
FDQ,29,0,2024-06-13T05:52:13.846Z,english_515.wav,0,0,774,21,4,Chinese,f,10,1,8.96872742,0.57224671
FDQ,29,0,2024-06-13T05:52:13.846Z,english_515.wav,0,0,774,21,4,Chinese,f,11,1.09391667,-18.30503433,1.26155121
FDQ,30,0,2024-06-13T05:52:13.846Z,english_251.wav,0,0,1818,21,4,Chinese,f,0,0,-93.03805102,1.12342723
FDQ,30,0,2024-06-13T05:52:13.846Z,english_251.wav,0,0,1818,21,4,Chinese,f,1,0.1,51.2655571,1.9149468
FDQ,30,0,2024-06-13T05:52:13.846Z,english_251.wav,0,0,1818,21,4,Chinese,f,2,0.2,37.58283666,1.73876516
FDQ,30,0,2024-06-13T05:52:13.846Z,english_251.wav,0,0,1818,21,4,Chinese,f,3,0.3,-55.53133441,1.01047504
FDQ,30,0,2024-06-13T05:52:13.846Z,english_251.wav,0,0,1818,21,4,Chinese,f,4,0.4,98.21602679,0.87048418
FDQ,30,0,2024-06-13T05:52:13.846Z,english_251.wav,0,0,1818,21,4,Chinese,f,5,0.5,-85.24256095,1.77281536
FDQ,30,0,2024-06-13T05:52:13.846Z,english_251.wav,0,0,1818,21,4,Chinese,f,6,0.6,-76.0460332,1.29741372
FDQ,30,0,2024-06-13T05:52:13.846Z,english_251.wav,0,0,1818,21,4,Chinese,f,7,0.7,26.51950349,0.41684213
FDQ,30,0,2024-06-13T05:52:13.846Z,english_251.wav,0,0,1818,21,4,Chinese,f,8,0.8,-37.24987979,1.13690271
FDQ,30,0,2024-06-13T05:52:13.846Z,english_251.wav,0,0,1818,21,4,Chinese,f,9,0.9,-60.42287441,1.00770315
FDQ,30,0,2024-06-13T05:52:13.846Z,english_251.wav,0,0,1818,21,4,Chinese,f,10,1,31.01216571,0.51077747
FDQ,30,0,2024-06-13T05:52:13.846Z,english_251.wav,0,0,1818,21,4,Chinese,f,11,1.09391667,74.35472995,0.89311028
FDQ,31,0,2024-06-13T05:52:13.846Z,english_459.wav,0,1,1274,21,4,Chinese,f,0,0,18.44381796,0.62620118
FDQ,31,0,2024-06-13T05:52:13.846Z,english_459.wav,0,1,1274,21,4,Chinese,f,1,0.1,46.92875809,1.02677372
FDQ,31,0,2024-06-13T05:52:13.846Z,english_459.wav,0,1,1274,21,4,Chinese,f,2,0.2,-3.83763253,0.887778
FDQ,31,0,2024-06-13T05:52:13.846Z,english_459.wav,0,1,1274,21,4,Chinese,f,3,0.3,-48.73372346,0.9749461
FDQ,31,0,2024-06-13T05:52:13.846Z,english_459.wav,0,1,1274,21,4,Chinese,f,4,0.4,-14.92000294,0.21389959
FDQ,31,0,2024-06-13T05:52:13.846Z,english_459.wav,0,1,1274,21,4,Chinese,f,5,0.5,80.1348202,0.5331643
FDQ,31,0,2024-06-13T05:52:13.846Z,english_459.wav,0,1,1274,21,4,Chinese,f,6,0.6,-86.26167397,0.89101651
FDQ,31,0,2024-06-13T05:52:13.846Z,english_459.wav,0,1,1274,21,4,Chinese,f,7,0.7,-1.56579515,1.30262719
FDQ,31,0,2024-06-13T05:52:13.846Z,english_459.wav,0,1,1274,21,4,Chinese,f,8,0.8,-19.43568929,1.62880583
FDQ,31,0,2024-06-13T05:52:13.846Z,english_459.wav,0,1,1274,21,4,Chinese,f,9,0.9,7.94105636,1.73371658
FDQ,31,0,2024-06-13T05:52:13.846Z,english_459.wav,0,1,1274,21,4,Chinese,f,10,1,85.15006258,0.16404372
FDQ,31,0,2024-06-13T05:52:13.846Z,english_459.wav,0,1,1274,21,4,Chinese,f,11,1.09391667,-33.12026838,1.85143865
FDQ,32,0,2024-06-13T05:52:13.846Z,english_852.wav,0,0,5044,21,4,Chinese,f,0,0,-72.43588369,0.36787591
FDQ,32,0,2024-06-13T05:52:13.846Z,english_852.wav,0,0,5044,21,4,Chinese,f,1,0.1,-98.6251287,1.73505489
FDQ,32,0,2024-06-13T05:52:13.846Z,english_852.wav,0,0,5044,21,4,Chinese,f,2,0.2,-89.42746768,1.62660713
FDQ,32,0,2024-06-13T05:52:13.846Z,english_852.wav,0,0,5044,21,4,Chinese,f,3,0.3,-34.62530113,0.43311906
FDQ,32,0,2024-06-13T05:52:13.846Z,english_852.wav,0,0,5044,21,4,Chinese,f,4,0.4,30.41205687,0.44776213
FDQ,32,0,2024-06-13T05:52:13.846Z,english_852.wav,0,0,5044,21,4,Chinese,f,5,0.5,2.837509,1.35793831
FDQ,32,0,2024-06-13T05:52:13.846Z,english_852.wav,0,0,5044,21,4,Chinese,f,6,0.6,-71.5278257,0.32605315
FDQ,32,0,2024-06-13T05:52:13.846Z,english_852.wav,0,0,5044,21,4,Chinese,f,7,0.7,49.48057975,0.34111515
FDQ,32,0,2024-06-13T05:52:13.846Z,english_852.wav,0,0,5044,21,4,Chinese,f,8,0.8,88.19174023,1.45336533
FDQ,32,0,2024-06-13T05:52:13.846Z,english_852.wav,0,0,5044,21,4,Chinese,f,9,0.9,20.52660859,1.82703196
FDQ,32,0,2024-06-13T05:52:13.846Z,english_852.wav,0,0,5044,21,4,Chinese,f,10,1,-18.49679028,0.13003363
FDQ,32,0,2024-06-13T05:52:13.846Z,english_852.wav,0,0,5044,21,4,Chinese,f,11,1.09391667,15.64652165,0.89322684
FDQ,33,0,2024-06-13T05:52:13.846Z,english_943.wav,0,0,1416,21,4,Chinese,f,0,0,79.5890822,1.20824936
FDQ,33,0,2024-06-13T05:52:13.846Z,english_943.wav,0,0,1416,21,4,Chinese,f,1,0.1,78.55264714,0.88116928
FDQ,33,0,2024-06-13T05:52:13.846Z,english_943.wav,0,0,1416,21,4,Chinese,f,2,0.2,44.19658383,1.0423498
FDQ,33,0,2024-06-13T05:52:13.846Z,english_943.wav,0,0,1416,21,4,Chinese,f,3,0.3,-16.14605168,1.30491636
FDQ,33,0,2024-06-13T05:52:13.846Z,english_943.wav,0,0,1416,21,4,Chinese,f,4,0.4,46.84349784,1.23781924
FDQ,33,0,2024-06-13T05:52:13.846Z,english_943.wav,0,0,1416,21,4,Chinese,f,5,0.5,67.29364224,1.19542323
FDQ,33,0,2024-06-13T05:52:13.846Z,english_943.wav,0,0,1416,21,4,Chinese,f,6,0.6,62.75940247,1.00041218
FDQ,33,0,2024-06-13T05:52:13.846Z,english_943.wav,0,0,1416,21,4,Chinese,f,7,0.7,-42.13911475,1.18889719
FDQ,33,0,2024-06-13T05:52:13.846Z,english_943.wav,0,0,1416,21,4,Chinese,f,8,0.8,-19.02728939,0.17654831
FDQ,33,0,2024-06-13T05:52:13.846Z,english_943.wav,0,0,1416,21,4,Chinese,f,9,0.9,-16.03900615,0.65298118
FDQ,33,0,2024-06-13T05:52:13.846Z,english_943.wav,0,0,1416,21,4,Chinese,f,10,1,15.22888591,0.96725626
FDQ,33,0,2024-06-13T05:52:13.846Z,english_943.wav,0,0,1416,21,4,Chinese,f,11,1.09391667,60.70409514,1.67455333
FDQ,34,0,2024-06-13T05:52:13.846Z,english_710.wav,0,0,520,21,4,Chinese,f,0,0,-39.30636168,1.80624949
FDQ,34,0,2024-06-13T05:52:13.846Z,english_710.wav,0,0,520,21,4,Chinese,f,1,0.1,-97.6674904,0.47182227
FDQ,34,0,2024-06-13T05:52:13.846Z,english_710.wav,0,0,520,21,4,Chinese,f,2,0.2,64.09122161,0.70971527
FDQ,34,0,2024-06-13T05:52:13.846Z,english_710.wav,0,0,520,21,4,Chinese,f,3,0.3,75.88571101,0.05116828
FDQ,34,0,2024-06-13T05:52:13.846Z,english_710.wav,0,0,520,21,4,Chinese,f,4,0.4,-88.52762731,1.76085876
FDQ,34,0,2024-06-13T05:52:13.846Z,english_710.wav,0,0,520,21,4,Chinese,f,5,0.5,82.62720899,0.52858011
FDQ,34,0,2024-06-13T05:52:13.846Z,english_710.wav,0,0,520,21,4,Chinese,f,6,0.6,-76.34366579,0.11108823
FDQ,34,0,2024-06-13T05:52:13.846Z,english_710.wav,0,0,520,21,4,Chinese,f,7,0.7,-8.69440278,1.51710045
FDQ,34,0,2024-06-13T05:52:13.846Z,english_710.wav,0,0,520,21,4,Chinese,f,8,0.8,-70.02409217,1.27546604
FDQ,34,0,2024-06-13T05:52:13.846Z,english_710.wav,0,0,520,21,4,Chinese,f,9,0.9,57.25294742,0.25600017
FDQ,34,0,2024-06-13T05:52:13.846Z,english_710.wav,0,0,520,21,4,Chinese,f,10,1,-12.57900879,0.70194387
FDQ,34,0,2024-06-13T05:52:13.846Z,english_710.wav,0,0,520,21,4,Chinese,f,11,1.09391667,58.69693709,0.08256398
FDQ,35,0,2024-06-13T05:52:13.846Z,english_683.wav,0,1,520,21,4,Chinese,f,0,0,34.23496856,1.52890361
FDQ,35,0,2024-06-13T05:52:13.846Z,english_683.wav,0,1,520,21,4,Chinese,f,1,0.1,81.31064479,1.93705935
FDQ,35,0,2024-06-13T05:52:13.846Z,english_683.wav,0,1,520,21,4,Chinese,f,2,0.2,-60.40458615,0.69433094
FDQ,35,0,2024-06-13T05:52:13.846Z,english_683.wav,0,1,520,21,4,Chinese,f,3,0.3,-62.54980461,1.53772514
FDQ,35,0,2024-06-13T05:52:13.846Z,english_683.wav,0,1,520,21,4,Chinese,f,4,0.4,-12.36553538,1.78596087
FDQ,35,0,2024-06-13T05:52:13.846Z,english_683.wav,0,1,520,21,4,Chinese,f,5,0.5,-34.77582481,1.63079743
FDQ,35,0,2024-06-13T05:52:13.846Z,english_683.wav,0,1,520,21,4,Chinese,f,6,0.6,-96.13838061,0.34418859
FDQ,35,0,2024-06-13T05:52:13.846Z,english_683.wav,0,1,520,21,4,Chinese,f,7,0.7,-24.06724676,0.7060728
FDQ,35,0,2024-06-13T05:52:13.846Z,english_683.wav,0,1,520,21,4,Chinese,f,8,0.8,-21.80988158,1.36877557
FDQ,35,0,2024-06-13T05:52:13.846Z,english_683.wav,0,1,520,21,4,Chinese,f,9,0.9,25.64503309,0.99980175
FDQ,35,0,2024-06-13T05:52:13.846Z,english_683.wav,0,1,520,21,4,Chinese,f,10,1,-38.18547527,1.47729865
FDQ,35,0,2024-06-13T05:52:13.846Z,english_683.wav,0,1,520,21,4,Chinese,f,11,1.09391667,-68.93519132,0.6697003
FDQ,36,0,2024-06-13T05:52:13.846Z,english_744.wav,0,1,919,21,4,Chinese,f,0,0,68.01647572,0.92301697
FDQ,36,0,2024-06-13T05:52:13.846Z,english_744.wav,0,1,919,21,4,Chinese,f,1,0.1,-94.84396495,1.7240092
FDQ,36,0,2024-06-13T05:52:13.846Z,english_744.wav,0,1,919,21,4,Chinese,f,2,0.2,-7.3752647,0.78395161
FDQ,36,0,2024-06-13T05:52:13.846Z,english_744.wav,0,1,919,21,4,Chinese,f,3,0.3,-81.08479212,1.15168853
FDQ,36,0,2024-06-13T05:52:13.846Z,english_744.wav,0,1,919,21,4,Chinese,f,4,0.4,-44.66331389,0.98824464
FDQ,36,0,2024-06-13T05:52:13.846Z,english_744.wav,0,1,919,21,4,Chinese,f,5,0.5,-77.45989494,1.26560798
FDQ,36,0,2024-06-13T05:52:13.846Z,english_744.wav,0,1,919,21,4,Chinese,f,6,0.6,19.1026234,0.20042884
FDQ,36,0,2024-06-13T05:52:13.846Z,english_744.wav,0,1,919,21,4,Chinese,f,7,0.7,-0.63798112,1.76365186
FDQ,36,0,2024-06-13T05:52:13.846Z,english_744.wav,0,1,919,21,4,Chinese,f,8,0.8,74.86031238,1.68948901
FDQ,36,0,2024-06-13T05:52:13.846Z,english_744.wav,0,1,919,21,4,Chinese,f,9,0.9,-35.9107796,0.81659748
FDQ,36,0,2024-06-13T05:52:13.846Z,english_744.wav,0,1,919,21,4,Chinese,f,10,1,-6.98299608,1.14393897
FDQ,36,0,2024-06-13T05:52:13.846Z,english_744.wav,0,1,919,21,4,Chinese,f,11,1.09391667,-12.26999011,0.86480781
FDQ,37,0,2024-06-13T05:52:13.846Z,english_448.wav,0,1,1241,21,4,Chinese,f,0,0,-36.42010561,0.75921607
FDQ,37,0,2024-06-13T05:52:13.846Z,english_448.wav,0,1,1241,21,4,Chinese,f,1,0.1,47.73001377,0.95293974
FDQ,37,0,2024-06-13T05:52:13.846Z,english_448.wav,0,1,1241,21,4,Chinese,f,2,0.2,93.59806646,0.22586708
FDQ,37,0,2024-06-13T05:52:13.846Z,english_448.wav,0,1,1241,21,4,Chinese,f,3,0.3,-71.28004739,1.48750577
FDQ,37,0,2024-06-13T05:52:13.846Z,english_448.wav,0,1,1241,21,4,Chinese,f,4,0.4,-73.37708676,0.17134927
FDQ,37,0,2024-06-13T05:52:13.846Z,english_448.wav,0,1,1241,21,4,Chinese,f,5,0.5,74.57279085,1.2791033
FDQ,37,0,2024-06-13T05:52:13.846Z,english_448.wav,0,1,1241,21,4,Chinese,f,6,0.6,93.06132311,0.73590712
FDQ,37,0,2024-06-13T05:52:13.846Z,english_448.wav,0,1,1241,21,4,Chinese,f,7,0.7,53.53303026,1.42606803
FDQ,37,0,2024-06-13T05:52:13.846Z,english_448.wav,0,1,1241,21,4,Chinese,f,8,0.8,-57.75366267,1.73700286
FDQ,37,0,2024-06-13T05:52:13.846Z,english_448.wav,0,1,1241,21,4,Chinese,f,9,0.9,-26.4449428,1.39235574
FDQ,37,0,2024-06-13T05:52:13.846Z,english_448.wav,0,1,1241,21,4,Chinese,f,10,1,-31.70641096,0.50787566
FDQ,37,0,2024-06-13T05:52:13.846Z,english_448.wav,0,1,1241,21,4,Chinese,f,11,1.09391667,-10.08807531,1.19414628
FDQ,38,0,2024-06-13T05:52:13.846Z,english_315.wav,0,0,1493,21,4,Chinese,f,0,0,20.11963367,1.15782854
FDQ,38,0,2024-06-13T05:52:13.846Z,english_315.wav,0,0,1493,21,4,Chinese,f,1,0.1,-30.87144334,1.37599817
FDQ,38,0,2024-06-13T05:52:13.846Z,english_315.wav,0,0,1493,21,4,Chinese,f,2,0.2,39.10248869,1.4514196
FDQ,38,0,2024-06-13T05:52:13.846Z,english_315.wav,0,0,1493,21,4,Chinese,f,3,0.3,-19.08604714,1.32135016
FDQ,38,0,2024-06-13T05:52:13.846Z,english_315.wav,0,0,1493,21,4,Chinese,f,4,0.4,90.41461318,1.69132556
FDQ,38,0,2024-06-13T05:52:13.846Z,english_315.wav,0,0,1493,21,4,Chinese,f,5,0.5,-82.87118979,0.65296677
FDQ,38,0,2024-06-13T05:52:13.846Z,english_315.wav,0,0,1493,21,4,Chinese,f,6,0.6,-12.30252898,1.40058812
FDQ,38,0,2024-06-13T05:52:13.846Z,english_315.wav,0,0,1493,21,4,Chinese,f,7,0.7,9.37098005,0.87815256
FDQ,38,0,2024-06-13T05:52:13.846Z,english_315.wav,0,0,1493,21,4,Chinese,f,8,0.8,-86.3809894,0.15444706
FDQ,38,0,2024-06-13T05:52:13.846Z,english_315.wav,0,0,1493,21,4,Chinese,f,9,0.9,2.03064205,1.46097728
FDQ,38,0,2024-06-13T05:52:13.846Z,english_315.wav,0,0,1493,21,4,Chinese,f,10,1,99.30710259,0.37640447
FDQ,38,0,2024-06-13T05:52:13.846Z,english_315.wav,0,0,1493,21,4,Chinese,f,11,1.09391667,58.65294367,1.18518174
FDQ,39,0,2024-06-13T05:52:13.846Z,english_756.wav,0,1,116,21,4,Chinese,f,0,0,-32.70542045,0.92316539
FDQ,39,0,2024-06-13T05:52:13.846Z,english_756.wav,0,1,116,21,4,Chinese,f,1,0.1,62.91454888,0.37547917
FDQ,39,0,2024-06-13T05:52:13.846Z,english_756.wav,0,1,116,21,4,Chinese,f,2,0.2,-9.17678833,1.92598223
FDQ,39,0,2024-06-13T05:52:13.846Z,english_756.wav,0,1,116,21,4,Chinese,f,3,0.3,16.28624283,0.89010875
FDQ,39,0,2024-06-13T05:52:13.846Z,english_756.wav,0,1,116,21,4,Chinese,f,4,0.4,-33.51792534,0.38662098
FDQ,39,0,2024-06-13T05:52:13.846Z,english_756.wav,0,1,116,21,4,Chinese,f,5,0.5,88.01648813,1.17672662
FDQ,39,0,2024-06-13T05:52:13.846Z,english_756.wav,0,1,116,21,4,Chinese,f,6,0.6,62.37064714,0.21957896
FDQ,39,0,2024-06-13T05:52:13.846Z,english_756.wav,0,1,116,21,4,Chinese,f,7,0.7,-52.3683359,1.78953747
FDQ,39,0,2024-06-13T05:52:13.846Z,english_756.wav,0,1,116,21,4,Chinese,f,8,0.8,56.37360277,1.89812903
FDQ,39,0,2024-06-13T05:52:13.846Z,english_756.wav,0,1,116,21,4,Chinese,f,9,0.9,-54.86484941,1.43873799
FDQ,39,0,2024-06-13T05:52:13.846Z,english_756.wav,0,1,116,21,4,Chinese,f,10,1,91.23924333,1.51351367
FDQ,39,0,2024-06-13T05:52:13.846Z,english_756.wav,0,1,116,21,4,Chinese,f,11,1.09391667,-26.61223969,1.73327561
FDQ,40,0,2024-06-13T05:52:13.846Z,english_17.wav,0,0,1550,21,4,Chinese,f,0,0,-41.3657541,0.93042496
FDQ,40,0,2024-06-13T05:52:13.846Z,english_17.wav,0,0,1550,21,4,Chinese,f,1,0.1,18.52407521,0.57556252
FDQ,40,0,2024-06-13T05:52:13.846Z,english_17.wav,0,0,1550,21,4,Chinese,f,2,0.2,28.83660917,1.05825244
FDQ,40,0,2024-06-13T05:52:13.846Z,english_17.wav,0,0,1550,21,4,Chinese,f,3,0.3,-68.73925871,1.61296419
FDQ,40,0,2024-06-13T05:52:13.846Z,english_17.wav,0,0,1550,21,4,Chinese,f,4,0.4,16.38358539,1.88532434
FDQ,40,0,2024-06-13T05:52:13.846Z,english_17.wav,0,0,1550,21,4,Chinese,f,5,0.5,10.80665977,0.93003826
FDQ,40,0,2024-06-13T05:52:13.846Z,english_17.wav,0,0,1550,21,4,Chinese,f,6,0.6,-96.31867509,1.71319597
FDQ,40,0,2024-06-13T05:52:13.846Z,english_17.wav,0,0,1550,21,4,Chinese,f,7,0.7,3.37543051,0.84201525
FDQ,40,0,2024-06-13T05:52:13.846Z,english_17.wav,0,0,1550,21,4,Chinese,f,8,0.8,-54.88657906,0.38884428
FDQ,40,0,2024-06-13T05:52:13.846Z,english_17.wav,0,0,1550,21,4,Chinese,f,9,0.9,-8.55837904,0.28018269
FDQ,40,0,2024-06-13T05:52:13.846Z,english_17.wav,0,0,1550,21,4,Chinese,f,10,1,90.97556366,1.36723804
FDQ,40,0,2024-06-13T05:52:13.846Z,english_17.wav,0,0,1550,21,4,Chinese,f,11,1.09391667,-99.26558204,0.42314615
FDQ,41,0,2024-06-13T05:52:13.846Z,english_536.wav,0,0,824,21,4,Chinese,f,0,0,12.53985852,0.4318111
FDQ,41,0,2024-06-13T05:52:13.846Z,english_536.wav,0,0,824,21,4,Chinese,f,1,0.1,21.99103782,1.06422616
FDQ,41,0,2024-06-13T05:52:13.846Z,english_536.wav,0,0,824,21,4,Chinese,f,2,0.2,62.33634556,1.97390757
FDQ,41,0,2024-06-13T05:52:13.846Z,english_536.wav,0,0,824,21,4,Chinese,f,3,0.3,-74.90025976,0.26817195
FDQ,41,0,2024-06-13T05:52:13.846Z,english_536.wav,0,0,824,21,4,Chinese,f,4,0.4,32.85398174,0.16804155
FDQ,41,0,2024-06-13T05:52:13.846Z,english_536.wav,0,0,824,21,4,Chinese,f,5,0.5,-33.4537755,0.37593725
FDQ,41,0,2024-06-13T05:52:13.846Z,english_536.wav,0,0,824,21,4,Chinese,f,6,0.6,-42.71623429,1.32070102
FDQ,41,0,2024-06-13T05:52:13.846Z,english_536.wav,0,0,824,21,4,Chinese,f,7,0.7,-1.00699642,0.04715572
FDQ,41,0,2024-06-13T05:52:13.846Z,english_536.wav,0,0,824,21,4,Chinese,f,8,0.8,-25.01596186,1.04948049
FDQ,41,0,2024-06-13T05:52:13.846Z,english_536.wav,0,0,824,21,4,Chinese,f,9,0.9,-49.31989542,0.94782972
FDQ,41,0,2024-06-13T05:52:13.846Z,english_536.wav,0,0,824,21,4,Chinese,f,10,1,38.02707377,1.69951962
FDQ,41,0,2024-06-13T05:52:13.846Z,english_536.wav,0,0,824,21,4,Chinese,f,11,1.09391667,50.96675347,1.16734118
FDQ,42,0,2024-06-13T05:52:13.846Z,english_353.wav,0,1,536,21,4,Chinese,f,0,0,-70.67724429,1.06843483
FDQ,42,0,2024-06-13T05:52:13.846Z,english_353.wav,0,1,536,21,4,Chinese,f,1,0.1,-71.688049,0.77169117
FDQ,42,0,2024-06-13T05:52:13.846Z,english_353.wav,0,1,536,21,4,Chinese,f,2,0.2,35.51924952,1.46248358
FDQ,42,0,2024-06-13T05:52:13.846Z,english_353.wav,0,1,536,21,4,Chinese,f,3,0.3,-2.11218413,1.49078151
FDQ,42,0,2024-06-13T05:52:13.846Z,english_353.wav,0,1,536,21,4,Chinese,f,4,0.4,-16.43862389,1.12150818
FDQ,42,0,2024-06-13T05:52:13.846Z,english_353.wav,0,1,536,21,4,Chinese,f,5,0.5,42.52341858,1.51009479
FDQ,42,0,2024-06-13T05:52:13.846Z,english_353.wav,0,1,536,21,4,Chinese,f,6,0.6,-45.01562353,1.56291015
FDQ,42,0,2024-06-13T05:52:13.846Z,english_353.wav,0,1,536,21,4,Chinese,f,7,0.7,41.4367476,1.91892948
FDQ,42,0,2024-06-13T05:52:13.846Z,english_353.wav,0,1,536,21,4,Chinese,f,8,0.8,-7.80846777,1.01197455
FDQ,42,0,2024-06-13T05:52:13.846Z,english_353.wav,0,1,536,21,4,Chinese,f,9,0.9,42.15448352,1.4134273
FDQ,42,0,2024-06-13T05:52:13.846Z,english_353.wav,0,1,536,21,4,Chinese,f,10,1,92.0591742,1.42236133
FDQ,42,0,2024-06-13T05:52:13.846Z,english_353.wav,0,1,536,21,4,Chinese,f,11,1.09391667,-12.12221809,0.78816947
FDQ,43,0,2024-06-13T05:52:13.846Z,english_545.wav,0,0,790,21,4,Chinese,f,0,0,-99.01008517,0.51580829
FDQ,43,0,2024-06-13T05:52:13.846Z,english_545.wav,0,0,790,21,4,Chinese,f,1,0.1,65.47335851,0.53489733
FDQ,43,0,2024-06-13T05:52:13.846Z,english_545.wav,0,0,790,21,4,Chinese,f,2,0.2,-84.28840174,1.28091178
FDQ,43,0,2024-06-13T05:52:13.846Z,english_545.wav,0,0,790,21,4,Chinese,f,3,0.3,-53.2257253,1.83272888
FDQ,43,0,2024-06-13T05:52:13.846Z,english_545.wav,0,0,790,21,4,Chinese,f,4,0.4,-67.85056043,0.88291171
FDQ,43,0,2024-06-13T05:52:13.846Z,english_545.wav,0,0,790,21,4,Chinese,f,5,0.5,-22.57245088,0.35382027
FDQ,43,0,2024-06-13T05:52:13.846Z,english_545.wav,0,0,790,21,4,Chinese,f,6,0.6,-0.78864791,1.57508052
FDQ,43,0,2024-06-13T05:52:13.846Z,english_545.wav,0,0,790,21,4,Chinese,f,7,0.7,17.40611159,0.29019895
FDQ,43,0,2024-06-13T05:52:13.846Z,english_545.wav,0,0,790,21,4,Chinese,f,8,0.8,62.9168566,1.37661243
FDQ,43,0,2024-06-13T05:52:13.846Z,english_545.wav,0,0,790,21,4,Chinese,f,9,0.9,32.36790846,0.94083914
FDQ,43,0,2024-06-13T05:52:13.846Z,english_545.wav,0,0,790,21,4,Chinese,f,10,1,-91.70599266,1.54827837
FDQ,43,0,2024-06-13T05:52:13.846Z,english_545.wav,0,0,790,21,4,Chinese,f,11,1.09391667,50.31108328,0.28023548
FDQ,44,0,2024-06-13T05:52:13.846Z,english_471.wav,0,0,785,21,4,Chinese,f,0,0,-44.33438949,1.24178701
FDQ,44,0,2024-06-13T05:52:13.846Z,english_471.wav,0,0,785,21,4,Chinese,f,1,0.1,16.47774329,1.49559335
FDQ,44,0,2024-06-13T05:52:13.846Z,english_471.wav,0,0,785,21,4,Chinese,f,2,0.2,-22.18014429,1.46207388
FDQ,44,0,2024-06-13T05:52:13.846Z,english_471.wav,0,0,785,21,4,Chinese,f,3,0.3,96.62980594,0.79768684
FDQ,44,0,2024-06-13T05:52:13.846Z,english_471.wav,0,0,785,21,4,Chinese,f,4,0.4,0.22905681,0.93952191
FDQ,44,0,2024-06-13T05:52:13.846Z,english_471.wav,0,0,785,21,4,Chinese,f,5,0.5,25.29876176,1.31580264
FDQ,44,0,2024-06-13T05:52:13.846Z,english_471.wav,0,0,785,21,4,Chinese,f,6,0.6,-1.90422532,0.66385174
FDQ,44,0,2024-06-13T05:52:13.846Z,english_471.wav,0,0,785,21,4,Chinese,f,7,0.7,20.77355212,0.36428101
FDQ,44,0,2024-06-13T05:52:13.846Z,english_471.wav,0,0,785,21,4,Chinese,f,8,0.8,26.61706742,1.49472861
FDQ,44,0,2024-06-13T05:52:13.846Z,english_471.wav,0,0,785,21,4,Chinese,f,9,0.9,-76.46197336,1.78460372
FDQ,44,0,2024-06-13T05:52:13.846Z,english_471.wav,0,0,785,21,4,Chinese,f,10,1,74.78681403,1.14119983
FDQ,44,0,2024-06-13T05:52:13.846Z,english_471.wav,0,0,785,21,4,Chinese,f,11,1.09391667,70.35269737,0.45644683
FDQ,45,0,2024-06-13T05:52:13.846Z,english_422.wav,0,0,1258,21,4,Chinese,f,0,0,15.30476558,1.12660373
FDQ,45,0,2024-06-13T05:52:13.846Z,english_422.wav,0,0,1258,21,4,Chinese,f,1,0.1,46.85469973,1.77150152
FDQ,45,0,2024-06-13T05:52:13.846Z,english_422.wav,0,0,1258,21,4,Chinese,f,2,0.2,-55.01275076,0.07610986
FDQ,45,0,2024-06-13T05:52:13.846Z,english_422.wav,0,0,1258,21,4,Chinese,f,3,0.3,-88.68955981,1.87054914
FDQ,45,0,2024-06-13T05:52:13.846Z,english_422.wav,0,0,1258,21,4,Chinese,f,4,0.4,69.37127288,0.4194099
FDQ,45,0,2024-06-13T05:52:13.846Z,english_422.wav,0,0,1258,21,4,Chinese,f,5,0.5,19.59216644,1.01013961
FDQ,45,0,2024-06-13T05:52:13.846Z,english_422.wav,0,0,1258,21,4,Chinese,f,6,0.6,-6.38015959,1.42576712
FDQ,45,0,2024-06-13T05:52:13.846Z,english_422.wav,0,0,1258,21,4,Chinese,f,7,0.7,-75.18241686,0.77140618
FDQ,45,0,2024-06-13T05:52:13.846Z,english_422.wav,0,0,1258,21,4,Chinese,f,8,0.8,53.59227304,0.92977939
FDQ,45,0,2024-06-13T05:52:13.846Z,english_422.wav,0,0,1258,21,4,Chinese,f,9,0.9,-58.58137106,0.22126866
FDQ,45,0,2024-06-13T05:52:13.846Z,english_422.wav,0,0,1258,21,4,Chinese,f,10,1,-12.61550451,1.35947282
FDQ,45,0,2024-06-13T05:52:13.846Z,english_422.wav,0,0,1258,21,4,Chinese,f,11,1.09391667,-47.53760567,0.9860846
FDQ,46,0,2024-06-13T05:52:13.846Z,english_479.wav,0,0,893,21,4,Chinese,f,0,0,-34.7893931,1.93393565
FDQ,46,0,2024-06-13T05:52:13.846Z,english_479.wav,0,0,893,21,4,Chinese,f,1,0.1,-71.34069905,0.26573691
FDQ,46,0,2024-06-13T05:52:13.846Z,english_479.wav,0,0,893,21,4,Chinese,f,2,0.2,58.87573247,0.73981952
FDQ,46,0,2024-06-13T05:52:13.846Z,english_479.wav,0,0,893,21,4,Chinese,f,3,0.3,-54.09913821,1.46667746
FDQ,46,0,2024-06-13T05:52:13.846Z,english_479.wav,0,0,893,21,4,Chinese,f,4,0.4,43.12020224,0.55048015
FDQ,46,0,2024-06-13T05:52:13.846Z,english_479.wav,0,0,893,21,4,Chinese,f,5,0.5,-44.41654249,0.62176048
FDQ,46,0,2024-06-13T05:52:13.846Z,english_479.wav,0,0,893,21,4,Chinese,f,6,0.6,57.88290142,0.05220831
FDQ,46,0,2024-06-13T05:52:13.846Z,english_479.wav,0,0,893,21,4,Chinese,f,7,0.7,-1.44997962,0.21971087
FDQ,46,0,2024-06-13T05:52:13.846Z,english_479.wav,0,0,893,21,4,Chinese,f,8,0.8,89.72797502,0.30059048
FDQ,46,0,2024-06-13T05:52:13.846Z,english_479.wav,0,0,893,21,4,Chinese,f,9,0.9,97.22467665,0.39403565
FDQ,46,0,2024-06-13T05:52:13.846Z,english_479.wav,0,0,893,21,4,Chinese,f,10,1,52.11815336,1.20859565
FDQ,46,0,2024-06-13T05:52:13.846Z,english_479.wav,0,0,893,21,4,Chinese,f,11,1.09391667,71.23188895,0.36818185
FDQ,47,0,2024-06-13T05:52:13.846Z,english_224.wav,0,0,390,21,4,Chinese,f,0,0,-78.61506242,0.96291184
FDQ,47,0,2024-06-13T05:52:13.846Z,english_224.wav,0,0,390,21,4,Chinese,f,1,0.1,50.32903383,1.02849412
FDQ,47,0,2024-06-13T05:52:13.846Z,english_224.wav,0,0,390,21,4,Chinese,f,2,0.2,13.41609495,1.48046057
FDQ,47,0,2024-06-13T05:52:13.846Z,english_224.wav,0,0,390,21,4,Chinese,f,3,0.3,-65.62214638,0.95403391
FDQ,47,0,2024-06-13T05:52:13.846Z,english_224.wav,0,0,390,21,4,Chinese,f,4,0.4,-58.93648778,0.16536285
FDQ,47,0,2024-06-13T05:52:13.846Z,english_224.wav,0,0,390,21,4,Chinese,f,5,0.5,72.28111683,1.42811474
FDQ,47,0,2024-06-13T05:52:13.846Z,english_224.wav,0,0,390,21,4,Chinese,f,6,0.6,-46.77069374,0.74831178
FDQ,47,0,2024-06-13T05:52:13.846Z,english_224.wav,0,0,390,21,4,Chinese,f,7,0.7,-90.37193795,1.44512366
FDQ,47,0,2024-06-13T05:52:13.846Z,english_224.wav,0,0,390,21,4,Chinese,f,8,0.8,-0.43339445,1.0370843
FDQ,47,0,2024-06-13T05:52:13.846Z,english_224.wav,0,0,390,21,4,Chinese,f,9,0.9,-45.45823975,0.73747726
FDQ,47,0,2024-06-13T05:52:13.846Z,english_224.wav,0,0,390,21,4,Chinese,f,10,1,-68.1553756,0.53686902
FDQ,47,0,2024-06-13T05:52:13.846Z,english_224.wav,0,0,390,21,4,Chinese,f,11,1.09391667,-50.27313826,1.24590757
FDQ,48,0,2024-06-13T05:52:13.846Z,english_867.wav,0,1,1181,21,4,Chinese,f,0,0,-24.89816024,0.58295981
FDQ,48,0,2024-06-13T05:52:13.846Z,english_867.wav,0,1,1181,21,4,Chinese,f,1,0.1,-5.46882756,0.29098819
FDQ,48,0,2024-06-13T05:52:13.846Z,english_867.wav,0,1,1181,21,4,Chinese,f,2,0.2,20.19834057,1.14395964
FDQ,48,0,2024-06-13T05:52:13.846Z,english_867.wav,0,1,1181,21,4,Chinese,f,3,0.3,-93.32796435,1.65419487
FDQ,48,0,2024-06-13T05:52:13.846Z,english_867.wav,0,1,1181,21,4,Chinese,f,4,0.4,33.67014856,0.61503003
FDQ,48,0,2024-06-13T05:52:13.846Z,english_867.wav,0,1,1181,21,4,Chinese,f,5,0.5,-35.81311347,0.19208338
FDQ,48,0,2024-06-13T05:52:13.846Z,english_867.wav,0,1,1181,21,4,Chinese,f,6,0.6,3.8400964,1.34794824
FDQ,48,0,2024-06-13T05:52:13.846Z,english_867.wav,0,1,1181,21,4,Chinese,f,7,0.7,36.13382858,0.71921044
FDQ,48,0,2024-06-13T05:52:13.846Z,english_867.wav,0,1,1181,21,4,Chinese,f,8,0.8,70.00228028,1.86066536
FDQ,48,0,2024-06-13T05:52:13.846Z,english_867.wav,0,1,1181,21,4,Chinese,f,9,0.9,81.61272395,0.96263601
FDQ,48,0,2024-06-13T05:52:13.846Z,english_867.wav,0,1,1181,21,4,Chinese,f,10,1,-46.82426053,1.18263142
FDQ,48,0,2024-06-13T05:52:13.846Z,english_867.wav,0,1,1181,21,4,Chinese,f,11,1.09391667,21.97193379,1.25802514
FDQ,49,0,2024-06-13T05:52:13.846Z,english_784.wav,0,0,559,21,4,Chinese,f,0,0,50.65373777,1.66186365
FDQ,49,0,2024-06-13T05:52:13.846Z,english_784.wav,0,0,559,21,4,Chinese,f,1,0.1,90.51346558,0.51528757
FDQ,49,0,2024-06-13T05:52:13.846Z,english_784.wav,0,0,559,21,4,Chinese,f,2,0.2,-3.41025776,1.39494677
FDQ,49,0,2024-06-13T05:52:13.846Z,english_784.wav,0,0,559,21,4,Chinese,f,3,0.3,79.17419675,0.6474703
FDQ,49,0,2024-06-13T05:52:13.846Z,english_784.wav,0,0,559,21,4,Chinese,f,4,0.4,-50.25718644,0.6204281
FDQ,49,0,2024-06-13T05:52:13.846Z,english_784.wav,0,0,559,21,4,Chinese,f,5,0.5,46.55817424,0.42566736
FDQ,49,0,2024-06-13T05:52:13.846Z,english_784.wav,0,0,559,21,4,Chinese,f,6,0.6,-17.22874602,0.08592081
FDQ,49,0,2024-06-13T05:52:13.846Z,english_784.wav,0,0,559,21,4,Chinese,f,7,0.7,33.77400964,0.74713982
FDQ,49,0,2024-06-13T05:52:13.846Z,english_784.wav,0,0,559,21,4,Chinese,f,8,0.8,27.87922438,1.1744845
FDQ,49,0,2024-06-13T05:52:13.846Z,english_784.wav,0,0,559,21,4,Chinese,f,9,0.9,-62.41006325,0.06945236
FDQ,49,0,2024-06-13T05:52:13.846Z,english_784.wav,0,0,559,21,4,Chinese,f,10,1,-38.19594807,1.4856768
FDQ,49,0,2024-06-13T05:52:13.846Z,english_784.wav,0,0,559,21,4,Chinese,f,11,1.09391667,-79.50097589,1.99616285
FDQ,50,1,2024-06-13T05:52:13.846Z,english_714.wav,0,1,1189,21,4,Chinese,f,0,0,79.0390651,0.49033963
FDQ,50,1,2024-06-13T05:52:13.846Z,english_714.wav,0,1,1189,21,4,Chinese,f,1,0.1,36.23720606,1.92693389
FDQ,50,1,2024-06-13T05:52:13.846Z,english_714.wav,0,1,1189,21,4,Chinese,f,2,0.2,59.88505324,0.63464649
FDQ,50,1,2024-06-13T05:52:13.846Z,english_714.wav,0,1,1189,21,4,Chinese,f,3,0.3,35.79437608,0.92002545
FDQ,50,1,2024-06-13T05:52:13.846Z,english_714.wav,0,1,1189,21,4,Chinese,f,4,0.4,1.83402307,0.7042678
FDQ,50,1,2024-06-13T05:52:13.846Z,english_714.wav,0,1,1189,21,4,Chinese,f,5,0.5,73.3370193,0.59965101
FDQ,50,1,2024-06-13T05:52:13.846Z,english_714.wav,0,1,1189,21,4,Chinese,f,6,0.6,-82.63220087,0.57753473
FDQ,50,1,2024-06-13T05:52:13.846Z,english_714.wav,0,1,1189,21,4,Chinese,f,7,0.7,49.23957633,1.31617156
FDQ,50,1,2024-06-13T05:52:13.846Z,english_714.wav,0,1,1189,21,4,Chinese,f,8,0.8,10.5160274,1.11503481
FDQ,50,1,2024-06-13T05:52:13.846Z,english_714.wav,0,1,1189,21,4,Chinese,f,9,0.9,-94.9780405,1.71749538
FDQ,50,1,2024-06-13T05:52:13.846Z,english_714.wav,0,1,1189,21,4,Chinese,f,10,1,20.48401592,0.94991936
FDQ,50,1,2024-06-13T05:52:13.846Z,english_714.wav,0,1,1189,21,4,Chinese,f,11,1.09391667,-2.68158482,0.61904564
FDQ,51,1,2024-06-13T05:52:13.846Z,english_391.wav,0,0,998,21,4,Chinese,f,0,0,48.72029915,1.46381994
FDQ,51,1,2024-06-13T05:52:13.846Z,english_391.wav,0,0,998,21,4,Chinese,f,1,0.1,3.36267099,1.74177862
FDQ,51,1,2024-06-13T05:52:13.846Z,english_391.wav,0,0,998,21,4,Chinese,f,2,0.2,-54.73892797,0.37153285
FDQ,51,1,2024-06-13T05:52:13.846Z,english_391.wav,0,0,998,21,4,Chinese,f,3,0.3,-4.43599027,1.37930547
FDQ,51,1,2024-06-13T05:52:13.846Z,english_391.wav,0,0,998,21,4,Chinese,f,4,0.4,-4.38697431,1.2025528
FDQ,51,1,2024-06-13T05:52:13.846Z,english_391.wav,0,0,998,21,4,Chinese,f,5,0.5,12.32416895,1.41669348
FDQ,51,1,2024-06-13T05:52:13.846Z,english_391.wav,0,0,998,21,4,Chinese,f,6,0.6,-35.16299901,1.90409923
FDQ,51,1,2024-06-13T05:52:13.846Z,english_391.wav,0,0,998,21,4,Chinese,f,7,0.7,-18.71198536,0.35955458
FDQ,51,1,2024-06-13T05:52:13.846Z,english_391.wav,0,0,998,21,4,Chinese,f,8,0.8,50.45333825,0.73524
FDQ,51,1,2024-06-13T05:52:13.846Z,english_391.wav,0,0,998,21,4,Chinese,f,9,0.9,24.10808682,1.22465208
FDQ,51,1,2024-06-13T05:52:13.846Z,english_391.wav,0,0,998,21,4,Chinese,f,10,1,-10.46564493,1.61244098
FDQ,51,1,2024-06-13T05:52:13.846Z,english_391.wav,0,0,998,21,4,Chinese,f,11,1.09391667,6.45782967,1.66867903
FDQ,52,1,2024-06-13T05:52:13.846Z,english_617.wav,0,0,1267,21,4,Chinese,f,0,0,10.93227953,0.72387338
FDQ,52,1,2024-06-13T05:52:13.846Z,english_617.wav,0,0,1267,21,4,Chinese,f,1,0.1,-59.2478864,1.78831672
FDQ,52,1,2024-06-13T05:52:13.846Z,english_617.wav,0,0,1267,21,4,Chinese,f,2,0.2,-60.98157443,0.6179467
FDQ,52,1,2024-06-13T05:52:13.846Z,english_617.wav,0,0,1267,21,4,Chinese,f,3,0.3,-98.20098641,0.63320585
FDQ,52,1,2024-06-13T05:52:13.846Z,english_617.wav,0,0,1267,21,4,Chinese,f,4,0.4,-27.56878422,0.42531965
FDQ,52,1,2024-06-13T05:52:13.846Z,english_617.wav,0,0,1267,21,4,Chinese,f,5,0.5,-16.62879698,1.05036122
FDQ,52,1,2024-06-13T05:52:13.846Z,english_617.wav,0,0,1267,21,4,Chinese,f,6,0.6,-85.18504197,1.22550457
FDQ,52,1,2024-06-13T05:52:13.846Z,english_617.wav,0,0,1267,21,4,Chinese,f,7,0.7,65.935133,0.87185678
FDQ,52,1,2024-06-13T05:52:13.846Z,english_617.wav,0,0,1267,21,4,Chinese,f,8,0.8,-49.35852621,1.19822477
FDQ,52,1,2024-06-13T05:52:13.846Z,english_617.wav,0,0,1267,21,4,Chinese,f,9,0.9,-79.82823856,0.11933649
FDQ,52,1,2024-06-13T05:52:13.846Z,english_617.wav,0,0,1267,21,4,Chinese,f,10,1,-43.72382152,1.37889257
FDQ,52,1,2024-06-13T05:52:13.846Z,english_617.wav,0,0,1267,21,4,Chinese,f,11,1.09391667,-81.76136352,0.25359551
FDQ,53,1,2024-06-13T05:52:13.846Z,english_940.wav,0,0,1115,21,4,Chinese,f,0,0,-74.78707904,1.32849745
FDQ,53,1,2024-06-13T05:52:13.846Z,english_940.wav,0,0,1115,21,4,Chinese,f,1,0.1,-17.41948052,0.12464251
FDQ,53,1,2024-06-13T05:52:13.846Z,english_940.wav,0,0,1115,21,4,Chinese,f,2,0.2,18.32757183,1.60919877
FDQ,53,1,2024-06-13T05:52:13.846Z,english_940.wav,0,0,1115,21,4,Chinese,f,3,0.3,49.59676146,1.26515186
FDQ,53,1,2024-06-13T05:52:13.846Z,english_940.wav,0,0,1115,21,4,Chinese,f,4,0.4,89.11302511,0.36425632
FDQ,53,1,2024-06-13T05:52:13.846Z,english_940.wav,0,0,1115,21,4,Chinese,f,5,0.5,-54.90271493,0.18773625
FDQ,53,1,2024-06-13T05:52:13.846Z,english_940.wav,0,0,1115,21,4,Chinese,f,6,0.6,5.52128104,1.95544511
FDQ,53,1,2024-06-13T05:52:13.846Z,english_940.wav,0,0,1115,21,4,Chinese,f,7,0.7,6.34300122,0.05018426
FDQ,53,1,2024-06-13T05:52:13.846Z,english_940.wav,0,0,1115,21,4,Chinese,f,8,0.8,-52.23900499,0.91238744
FDQ,53,1,2024-06-13T05:52:13.846Z,english_940.wav,0,0,1115,21,4,Chinese,f,9,0.9,-91.70083374,1.89571163
FDQ,53,1,2024-06-13T05:52:13.846Z,english_940.wav,0,0,1115,21,4,Chinese,f,10,1,-59.86037194,1.52579837
FDQ,53,1,2024-06-13T05:52:13.846Z,english_940.wav,0,0,1115,21,4,Chinese,f,11,1.09391667,44.21269836,0.42550386
FDQ,54,1,2024-06-13T05:52:13.846Z,english_185.wav,0,0,1303,21,4,Chinese,f,0,0,-23.80747302,1.70362326
FDQ,54,1,2024-06-13T05:52:13.846Z,english_185.wav,0,0,1303,21,4,Chinese,f,1,0.1,-67.70846726,1.95632733
FDQ,54,1,2024-06-13T05:52:13.846Z,english_185.wav,0,0,1303,21,4,Chinese,f,2,0.2,27.78292916,1.63625516
FDQ,54,1,2024-06-13T05:52:13.846Z,english_185.wav,0,0,1303,21,4,Chinese,f,3,0.3,-22.37709268,0.69364986
FDQ,54,1,2024-06-13T05:52:13.846Z,english_185.wav,0,0,1303,21,4,Chinese,f,4,0.4,15.61755946,0.15498305
FDQ,54,1,2024-06-13T05:52:13.846Z,english_185.wav,0,0,1303,21,4,Chinese,f,5,0.5,-59.82139972,1.72553948
FDQ,54,1,2024-06-13T05:52:13.846Z,english_185.wav,0,0,1303,21,4,Chinese,f,6,0.6,-43.59424473,1.78198359
FDQ,54,1,2024-06-13T05:52:13.846Z,english_185.wav,0,0,1303,21,4,Chinese,f,7,0.7,74.12043651,1.30006103
FDQ,54,1,2024-06-13T05:52:13.846Z,english_185.wav,0,0,1303,21,4,Chinese,f,8,0.8,77.01624641,0.79426106
FDQ,54,1,2024-06-13T05:52:13.846Z,english_185.wav,0,0,1303,21,4,Chinese,f,9,0.9,-47.03527172,0.29849321
FDQ,54,1,2024-06-13T05:52:13.846Z,english_185.wav,0,0,1303,21,4,Chinese,f,10,1,2.38207477,1.71648204
FDQ,54,1,2024-06-13T05:52:13.846Z,english_185.wav,0,0,1303,21,4,Chinese,f,11,1.09391667,-48.42317698,0.84883975
FDQ,55,1,2024-06-13T05:52:13.846Z,english_61.wav,0,0,1190,21,4,Chinese,f,0,0,-76.31366774,1.15675845
FDQ,55,1,2024-06-13T05:52:13.846Z,english_61.wav,0,0,1190,21,4,Chinese,f,1,0.1,-70.32577527,0.79511083
FDQ,55,1,2024-06-13T05:52:13.846Z,english_61.wav,0,0,1190,21,4,Chinese,f,2,0.2,5.13466316,0.40451227
FDQ,55,1,2024-06-13T05:52:13.846Z,english_61.wav,0,0,1190,21,4,Chinese,f,3,0.3,37.00830294,0.79487484
FDQ,55,1,2024-06-13T05:52:13.846Z,english_61.wav,0,0,1190,21,4,Chinese,f,4,0.4,-11.73068973,0.44483697
FDQ,55,1,2024-06-13T05:52:13.846Z,english_61.wav,0,0,1190,21,4,Chinese,f,5,0.5,91.45109603,0.84603206
FDQ,55,1,2024-06-13T05:52:13.846Z,english_61.wav,0,0,1190,21,4,Chinese,f,6,0.6,11.9601718,0.8090615
FDQ,55,1,2024-06-13T05:52:13.846Z,english_61.wav,0,0,1190,21,4,Chinese,f,7,0.7,-66.7573243,1.09438885
FDQ,55,1,2024-06-13T05:52:13.846Z,english_61.wav,0,0,1190,21,4,Chinese,f,8,0.8,78.73702917,1.14041124
FDQ,55,1,2024-06-13T05:52:13.846Z,english_61.wav,0,0,1190,21,4,Chinese,f,9,0.9,61.80688515,0.39248564
FDQ,55,1,2024-06-13T05:52:13.846Z,english_61.wav,0,0,1190,21,4,Chinese,f,10,1,-73.85845523,1.77720472
FDQ,55,1,2024-06-13T05:52:13.846Z,english_61.wav,0,0,1190,21,4,Chinese,f,11,1.09391667,-24.76259921,1.29259789
FDQ,56,1,2024-06-13T05:52:13.846Z,english_383.wav,0,0,541,21,4,Chinese,f,0,0,-63.19284146,0.88359619
FDQ,56,1,2024-06-13T05:52:13.846Z,english_383.wav,0,0,541,21,4,Chinese,f,1,0.1,-11.67623943,0.67885576
FDQ,56,1,2024-06-13T05:52:13.846Z,english_383.wav,0,0,541,21,4,Chinese,f,2,0.2,10.29419774,0.79033279
FDQ,56,1,2024-06-13T05:52:13.846Z,english_383.wav,0,0,541,21,4,Chinese,f,3,0.3,-5.52009964,1.96206588
FDQ,56,1,2024-06-13T05:52:13.846Z,english_383.wav,0,0,541,21,4,Chinese,f,4,0.4,51.48969715,1.53913599
FDQ,56,1,2024-06-13T05:52:13.846Z,english_383.wav,0,0,541,21,4,Chinese,f,5,0.5,36.94617894,0.70890723
FDQ,56,1,2024-06-13T05:52:13.846Z,english_383.wav,0,0,541,21,4,Chinese,f,6,0.6,-43.5176619,1.30448928
FDQ,56,1,2024-06-13T05:52:13.846Z,english_383.wav,0,0,541,21,4,Chinese,f,7,0.7,48.24470616,0.63214347
FDQ,56,1,2024-06-13T05:52:13.846Z,english_383.wav,0,0,541,21,4,Chinese,f,8,0.8,-27.34462671,1.26781992
FDQ,56,1,2024-06-13T05:52:13.846Z,english_383.wav,0,0,541,21,4,Chinese,f,9,0.9,77.23299658,0.08660782
FDQ,56,1,2024-06-13T05:52:13.846Z,english_383.wav,0,0,541,21,4,Chinese,f,10,1,-26.93588993,1.53722143
FDQ,56,1,2024-06-13T05:52:13.846Z,english_383.wav,0,0,541,21,4,Chinese,f,11,1.09391667,-78.64800704,1.42646009
FDQ,57,1,2024-06-13T05:52:13.846Z,english_259.wav,0,0,478,21,4,Chinese,f,0,0,-96.45723027,1.20447661
FDQ,57,1,2024-06-13T05:52:13.846Z,english_259.wav,0,0,478,21,4,Chinese,f,1,0.1,46.81898893,1.98089962
FDQ,57,1,2024-06-13T05:52:13.846Z,english_259.wav,0,0,478,21,4,Chinese,f,2,0.2,-52.24123134,0.13419359
FDQ,57,1,2024-06-13T05:52:13.846Z,english_259.wav,0,0,478,21,4,Chinese,f,3,0.3,-93.20482306,0.77341906
FDQ,57,1,2024-06-13T05:52:13.846Z,english_259.wav,0,0,478,21,4,Chinese,f,4,0.4,-73.17016095,0.41314705
FDQ,57,1,2024-06-13T05:52:13.846Z,english_259.wav,0,0,478,21,4,Chinese,f,5,0.5,65.38390332,1.70927399
FDQ,57,1,2024-06-13T05:52:13.846Z,english_259.wav,0,0,478,21,4,Chinese,f,6,0.6,-74.48910715,0.82975987
FDQ,57,1,2024-06-13T05:52:13.846Z,english_259.wav,0,0,478,21,4,Chinese,f,7,0.7,18.35767077,1.00284167
FDQ,57,1,2024-06-13T05:52:13.846Z,english_259.wav,0,0,478,21,4,Chinese,f,8,0.8,-83.13603565,0.65136174
FDQ,57,1,2024-06-13T05:52:13.846Z,english_259.wav,0,0,478,21,4,Chinese,f,9,0.9,-60.914408,1.08902536
FDQ,57,1,2024-06-13T05:52:13.846Z,english_259.wav,0,0,478,21,4,Chinese,f,10,1,13.76318207,0.29016251
FDQ,57,1,2024-06-13T05:52:13.846Z,english_259.wav,0,0,478,21,4,Chinese,f,11,1.09391667,-74.06068615,0.25284804
FDQ,58,1,2024-06-13T05:52:13.846Z,english_595.wav,0,0,1105,21,4,Chinese,f,0,0,22.66066479,1.33322286
FDQ,58,1,2024-06-13T05:52:13.846Z,english_595.wav,0,0,1105,21,4,Chinese,f,1,0.1,84.39995443,0.79225642
FDQ,58,1,2024-06-13T05:52:13.846Z,english_595.wav,0,0,1105,21,4,Chinese,f,2,0.2,19.72307996,0.78213906
FDQ,58,1,2024-06-13T05:52:13.846Z,english_595.wav,0,0,1105,21,4,Chinese,f,3,0.3,-75.24605749,0.04755157
FDQ,58,1,2024-06-13T05:52:13.846Z,english_595.wav,0,0,1105,21,4,Chinese,f,4,0.4,-67.45783177,1.8774159
FDQ,58,1,2024-06-13T05:52:13.846Z,english_595.wav,0,0,1105,21,4,Chinese,f,5,0.5,-37.47794161,0.68932381
FDQ,58,1,2024-06-13T05:52:13.846Z,english_595.wav,0,0,1105,21,4,Chinese,f,6,0.6,11.08818928,1.24235148
FDQ,58,1,2024-06-13T05:52:13.846Z,english_595.wav,0,0,1105,21,4,Chinese,f,7,0.7,46.85817265,1.6524831
FDQ,58,1,2024-06-13T05:52:13.846Z,english_595.wav,0,0,1105,21,4,Chinese,f,8,0.8,-2.92238114,0.95449466
FDQ,58,1,2024-06-13T05:52:13.846Z,english_595.wav,0,0,1105,21,4,Chinese,f,9,0.9,58.48560552,1.23515898
FDQ,58,1,2024-06-13T05:52:13.846Z,english_595.wav,0,0,1105,21,4,Chinese,f,10,1,-52.60786122,1.92684196
FDQ,58,1,2024-06-13T05:52:13.846Z,english_595.wav,0,0,1105,21,4,Chinese,f,11,1.09391667,16.6492661,0.85611045
FDQ,59,1,2024-06-13T05:52:13.846Z,english_253.wav,0,0,1432,21,4,Chinese,f,0,0,-76.54232622,1.69452202
FDQ,59,1,2024-06-13T05:52:13.846Z,english_253.wav,0,0,1432,21,4,Chinese,f,1,0.1,23.75797542,0.94155674
FDQ,59,1,2024-06-13T05:52:13.846Z,english_253.wav,0,0,1432,21,4,Chinese,f,2,0.2,-82.53055468,0.70353207
FDQ,59,1,2024-06-13T05:52:13.846Z,english_253.wav,0,0,1432,21,4,Chinese,f,3,0.3,19.65476927,1.42331271
FDQ,59,1,2024-06-13T05:52:13.846Z,english_253.wav,0,0,1432,21,4,Chinese,f,4,0.4,-55.81107988,1.11334266
FDQ,59,1,2024-06-13T05:52:13.846Z,english_253.wav,0,0,1432,21,4,Chinese,f,5,0.5,73.24574297,1.34927457
FDQ,59,1,2024-06-13T05:52:13.846Z,english_253.wav,0,0,1432,21,4,Chinese,f,6,0.6,-22.29926161,0.26375751
FDQ,59,1,2024-06-13T05:52:13.846Z,english_253.wav,0,0,1432,21,4,Chinese,f,7,0.7,-11.91242057,0.63100518
FDQ,59,1,2024-06-13T05:52:13.846Z,english_253.wav,0,0,1432,21,4,Chinese,f,8,0.8,-33.99896833,0.22145521
FDQ,59,1,2024-06-13T05:52:13.846Z,english_253.wav,0,0,1432,21,4,Chinese,f,9,0.9,32.30473406,0.69052847
FDQ,59,1,2024-06-13T05:52:13.846Z,english_253.wav,0,0,1432,21,4,Chinese,f,10,1,68.10745133,1.32352728
FDQ,59,1,2024-06-13T05:52:13.846Z,english_253.wav,0,0,1432,21,4,Chinese,f,11,1.09391667,-22.82824608,0.79605757
FDQ,60,1,2024-06-13T05:52:13.846Z,english_244.wav,0,0,647,21,4,Chinese,f,0,0,-16.89000739,1.36645613
FDQ,60,1,2024-06-13T05:52:13.846Z,english_244.wav,0,0,647,21,4,Chinese,f,1,0.1,13.88621899,0.22689892
FDQ,60,1,2024-06-13T05:52:13.846Z,english_244.wav,0,0,647,21,4,Chinese,f,2,0.2,19.5320734,0.7498897
FDQ,60,1,2024-06-13T05:52:13.846Z,english_244.wav,0,0,647,21,4,Chinese,f,3,0.3,77.5555311,0.5439009
FDQ,60,1,2024-06-13T05:52:13.846Z,english_244.wav,0,0,647,21,4,Chinese,f,4,0.4,-1.54182751,1.43453656
FDQ,60,1,2024-06-13T05:52:13.846Z,english_244.wav,0,0,647,21,4,Chinese,f,5,0.5,-50.64945855,1.75844179
FDQ,60,1,2024-06-13T05:52:13.846Z,english_244.wav,0,0,647,21,4,Chinese,f,6,0.6,-35.36321005,1.54599597
FDQ,60,1,2024-06-13T05:52:13.846Z,english_244.wav,0,0,647,21,4,Chinese,f,7,0.7,-43.62157267,0.6923522
FDQ,60,1,2024-06-13T05:52:13.846Z,english_244.wav,0,0,647,21,4,Chinese,f,8,0.8,3.96205992,0.7002794
FDQ,60,1,2024-06-13T05:52:13.846Z,english_244.wav,0,0,647,21,4,Chinese,f,9,0.9,54.24324678,1.06972568
FDQ,60,1,2024-06-13T05:52:13.846Z,english_244.wav,0,0,647,21,4,Chinese,f,10,1,76.68152807,1.30720641
FDQ,60,1,2024-06-13T05:52:13.846Z,english_244.wav,0,0,647,21,4,Chinese,f,11,1.09391667,-97.15661366,0.50703606
FDQ,61,1,2024-06-13T05:52:13.846Z,english_300.wav,0,0,1757,21,4,Chinese,f,0,0,2.79972232,1.53749115
FDQ,61,1,2024-06-13T05:52:13.846Z,english_300.wav,0,0,1757,21,4,Chinese,f,1,0.1,-6.00092765,1.12105385
FDQ,61,1,2024-06-13T05:52:13.846Z,english_300.wav,0,0,1757,21,4,Chinese,f,2,0.2,5.93513414,1.21050577
FDQ,61,1,2024-06-13T05:52:13.846Z,english_300.wav,0,0,1757,21,4,Chinese,f,3,0.3,65.0106623,1.39038364
FDQ,61,1,2024-06-13T05:52:13.846Z,english_300.wav,0,0,1757,21,4,Chinese,f,4,0.4,-35.27715369,0.59533856
FDQ,61,1,2024-06-13T05:52:13.846Z,english_300.wav,0,0,1757,21,4,Chinese,f,5,0.5,-49.20910009,0.92189242
FDQ,61,1,2024-06-13T05:52:13.846Z,english_300.wav,0,0,1757,21,4,Chinese,f,6,0.6,90.62348649,1.12293969
FDQ,61,1,2024-06-13T05:52:13.846Z,english_300.wav,0,0,1757,21,4,Chinese,f,7,0.7,-62.79963136,0.08212217
FDQ,61,1,2024-06-13T05:52:13.846Z,english_300.wav,0,0,1757,21,4,Chinese,f,8,0.8,41.66095929,0.24893909
FDQ,61,1,2024-06-13T05:52:13.846Z,english_300.wav,0,0,1757,21,4,Chinese,f,9,0.9,-9.40303164,0.97640661
FDQ,61,1,2024-06-13T05:52:13.846Z,english_300.wav,0,0,1757,21,4,Chinese,f,10,1,-11.98915311,1.76885677
FDQ,61,1,2024-06-13T05:52:13.846Z,english_300.wav,0,0,1757,21,4,Chinese,f,11,1.09391667,86.33383712,1.97400425
FDQ,62,1,2024-06-13T05:52:13.846Z,english_200.wav,0,0,443,21,4,Chinese,f,0,0,-48.93101302,1.76712635
FDQ,62,1,2024-06-13T05:52:13.846Z,english_200.wav,0,0,443,21,4,Chinese,f,1,0.1,29.34121658,1.41196845
FDQ,62,1,2024-06-13T05:52:13.846Z,english_200.wav,0,0,443,21,4,Chinese,f,2,0.2,23.36197279,0.60842774
FDQ,62,1,2024-06-13T05:52:13.846Z,english_200.wav,0,0,443,21,4,Chinese,f,3,0.3,-1.20403398,1.94277316
FDQ,62,1,2024-06-13T05:52:13.846Z,english_200.wav,0,0,443,21,4,Chinese,f,4,0.4,-47.67478064,1.4476438
FDQ,62,1,2024-06-13T05:52:13.846Z,english_200.wav,0,0,443,21,4,Chinese,f,5,0.5,18.83507041,1.13791246
FDQ,62,1,2024-06-13T05:52:13.846Z,english_200.wav,0,0,443,21,4,Chinese,f,6,0.6,-17.22460439,1.88825133
FDQ,62,1,2024-06-13T05:52:13.846Z,english_200.wav,0,0,443,21,4,Chinese,f,7,0.7,95.20697574,1.08026942
FDQ,62,1,2024-06-13T05:52:13.846Z,english_200.wav,0,0,443,21,4,Chinese,f,8,0.8,-6.20708562,0.16695357
FDQ,62,1,2024-06-13T05:52:13.846Z,english_200.wav,0,0,443,21,4,Chinese,f,9,0.9,-37.25970541,0.7312143
FDQ,62,1,2024-06-13T05:52:13.846Z,english_200.wav,0,0,443,21,4,Chinese,f,10,1,4.5592837,0.56031965
FDQ,62,1,2024-06-13T05:52:13.846Z,english_200.wav,0,0,443,21,4,Chinese,f,11,1.09391667,86.68415923,0.70419729
FDQ,63,1,2024-06-13T05:52:13.846Z,english_155.wav,0,0,1499,21,4,Chinese,f,0,0,21.6550533,0.01570598
FDQ,63,1,2024-06-13T05:52:13.846Z,english_155.wav,0,0,1499,21,4,Chinese,f,1,0.1,-0.0016794128,1.76749017
FDQ,63,1,2024-06-13T05:52:13.846Z,english_155.wav,0,0,1499,21,4,Chinese,f,2,0.2,-77.5292073,1.37583653
FDQ,63,1,2024-06-13T05:52:13.846Z,english_155.wav,0,0,1499,21,4,Chinese,f,3,0.3,-44.9313065,0.19365623
FDQ,63,1,2024-06-13T05:52:13.846Z,english_155.wav,0,0,1499,21,4,Chinese,f,4,0.4,-33.7969309,1.34202306
FDQ,63,1,2024-06-13T05:52:13.846Z,english_155.wav,0,0,1499,21,4,Chinese,f,5,0.5,46.2285188,1.87351349
FDQ,63,1,2024-06-13T05:52:13.846Z,english_155.wav,0,0,1499,21,4,Chinese,f,6,0.6,93.0191022,1.89118344
FDQ,63,1,2024-06-13T05:52:13.846Z,english_155.wav,0,0,1499,21,4,Chinese,f,7,0.7,80.6417886,1.25713993
FDQ,63,1,2024-06-13T05:52:13.846Z,english_155.wav,0,0,1499,21,4,Chinese,f,8,0.8,-76.4782648,1.84259347
FDQ,63,1,2024-06-13T05:52:13.846Z,english_155.wav,0,0,1499,21,4,Chinese,f,9,0.9,-35.964927,0.04007403
FDQ,63,1,2024-06-13T05:52:13.846Z,english_155.wav,0,0,1499,21,4,Chinese,f,10,1,90.375739,1.64837519
FDQ,63,1,2024-06-13T05:52:13.846Z,english_155.wav,0,0,1499,21,4,Chinese,f,11,1.09391667,66.476003,1.87071869
FDQ,64,1,2024-06-13T05:52:13.846Z,english_551.wav,0,0,832,21,4,Chinese,f,0,0,-6.7580407,1.36908338
FDQ,64,1,2024-06-13T05:52:13.846Z,english_551.wav,0,0,832,21,4,Chinese,f,1,0.1,35.07051515,1.9104602
FDQ,64,1,2024-06-13T05:52:13.846Z,english_551.wav,0,0,832,21,4,Chinese,f,2,0.2,-13.38429881,0.46910503
FDQ,64,1,2024-06-13T05:52:13.846Z,english_551.wav,0,0,832,21,4,Chinese,f,3,0.3,37.09878084,1.97066888
FDQ,64,1,2024-06-13T05:52:13.846Z,english_551.wav,0,0,832,21,4,Chinese,f,4,0.4,-63.7004989,1.03915964
FDQ,64,1,2024-06-13T05:52:13.846Z,english_551.wav,0,0,832,21,4,Chinese,f,5,0.5,38.07544061,0.03518646
FDQ,64,1,2024-06-13T05:52:13.846Z,english_551.wav,0,0,832,21,4,Chinese,f,6,0.6,-3.84658335,0.35806175
FDQ,64,1,2024-06-13T05:52:13.846Z,english_551.wav,0,0,832,21,4,Chinese,f,7,0.7,-70.82168474,1.2923355
FDQ,64,1,2024-06-13T05:52:13.846Z,english_551.wav,0,0,832,21,4,Chinese,f,8,0.8,15.89042936,0.94769204
FDQ,64,1,2024-06-13T05:52:13.846Z,english_551.wav,0,0,832,21,4,Chinese,f,9,0.9,11.36542465,1.13768641
FDQ,64,1,2024-06-13T05:52:13.846Z,english_551.wav,0,0,832,21,4,Chinese,f,10,1,48.05239425,1.46377274
FDQ,64,1,2024-06-13T05:52:13.846Z,english_551.wav,0,0,832,21,4,Chinese,f,11,1.09391667,-25.45868434,1.28141809
FDQ,65,1,2024-06-13T05:52:13.846Z,english_829.wav,0,1,1157,21,4,Chinese,f,0,0,-7.89955856,0.852516
FDQ,65,1,2024-06-13T05:52:13.846Z,english_829.wav,0,1,1157,21,4,Chinese,f,1,0.1,-18.01769042,0.97788956
FDQ,65,1,2024-06-13T05:52:13.846Z,english_829.wav,0,1,1157,21,4,Chinese,f,2,0.2,57.48418942,1.32810397
FDQ,65,1,2024-06-13T05:52:13.846Z,english_829.wav,0,1,1157,21,4,Chinese,f,3,0.3,41.9687918,0.18108064
FDQ,65,1,2024-06-13T05:52:13.846Z,english_829.wav,0,1,1157,21,4,Chinese,f,4,0.4,-61.64702177,0.15705118
FDQ,65,1,2024-06-13T05:52:13.846Z,english_829.wav,0,1,1157,21,4,Chinese,f,5,0.5,-20.29007911,0.66571436
FDQ,65,1,2024-06-13T05:52:13.846Z,english_829.wav,0,1,1157,21,4,Chinese,f,6,0.6,93.24496902,0.20869504
FDQ,65,1,2024-06-13T05:52:13.846Z,english_829.wav,0,1,1157,21,4,Chinese,f,7,0.7,-32.99482484,1.27621492
FDQ,65,1,2024-06-13T05:52:13.846Z,english_829.wav,0,1,1157,21,4,Chinese,f,8,0.8,6.59233546,1.10768251
FDQ,65,1,2024-06-13T05:52:13.846Z,english_829.wav,0,1,1157,21,4,Chinese,f,9,0.9,-90.87646181,1.10361444
FDQ,65,1,2024-06-13T05:52:13.846Z,english_829.wav,0,1,1157,21,4,Chinese,f,10,1,9.72736643,0.98320382
FDQ,65,1,2024-06-13T05:52:13.846Z,english_829.wav,0,1,1157,21,4,Chinese,f,11,1.09391667,-11.26207351,1.01672444
FDQ,66,1,2024-06-13T05:52:13.846Z,english_637.wav,0,0,710,21,4,Chinese,f,0,0,-89.57602713,1.01899078
FDQ,66,1,2024-06-13T05:52:13.846Z,english_637.wav,0,0,710,21,4,Chinese,f,1,0.1,-12.21163012,0.44650383
FDQ,66,1,2024-06-13T05:52:13.846Z,english_637.wav,0,0,710,21,4,Chinese,f,2,0.2,45.69375155,0.86051042
FDQ,66,1,2024-06-13T05:52:13.846Z,english_637.wav,0,0,710,21,4,Chinese,f,3,0.3,47.44411802,0.62803932
FDQ,66,1,2024-06-13T05:52:13.846Z,english_637.wav,0,0,710,21,4,Chinese,f,4,0.4,-64.39909361,0.05404575
FDQ,66,1,2024-06-13T05:52:13.846Z,english_637.wav,0,0,710,21,4,Chinese,f,5,0.5,38.07531124,0.80477493
FDQ,66,1,2024-06-13T05:52:13.846Z,english_637.wav,0,0,710,21,4,Chinese,f,6,0.6,-37.11559242,0.4743624
FDQ,66,1,2024-06-13T05:52:13.846Z,english_637.wav,0,0,710,21,4,Chinese,f,7,0.7,61.76350432,1.24039456
FDQ,66,1,2024-06-13T05:52:13.846Z,english_637.wav,0,0,710,21,4,Chinese,f,8,0.8,87.30183414,0.77622698
FDQ,66,1,2024-06-13T05:52:13.846Z,english_637.wav,0,0,710,21,4,Chinese,f,9,0.9,42.92339498,1.15579273
FDQ,66,1,2024-06-13T05:52:13.846Z,english_637.wav,0,0,710,21,4,Chinese,f,10,1,99.17764885,1.67569325
FDQ,66,1,2024-06-13T05:52:13.846Z,english_637.wav,0,0,710,21,4,Chinese,f,11,1.09391667,27.2352495,0.37956578
FDQ,67,1,2024-06-13T05:52:13.846Z,english_723.wav,0,0,1817,21,4,Chinese,f,0,0,41.38539941,1.7889603
FDQ,67,1,2024-06-13T05:52:13.846Z,english_723.wav,0,0,1817,21,4,Chinese,f,1,0.1,-10.01095303,0.1038592
FDQ,67,1,2024-06-13T05:52:13.846Z,english_723.wav,0,0,1817,21,4,Chinese,f,2,0.2,29.27272113,0.53110076
FDQ,67,1,2024-06-13T05:52:13.846Z,english_723.wav,0,0,1817,21,4,Chinese,f,3,0.3,-49.7176535,0.29760974
FDQ,67,1,2024-06-13T05:52:13.846Z,english_723.wav,0,0,1817,21,4,Chinese,f,4,0.4,-10.52042461,1.31106604
FDQ,67,1,2024-06-13T05:52:13.846Z,english_723.wav,0,0,1817,21,4,Chinese,f,5,0.5,-43.11656662,0.93542765
FDQ,67,1,2024-06-13T05:52:13.846Z,english_723.wav,0,0,1817,21,4,Chinese,f,6,0.6,-24.09481257,1.32967349
FDQ,67,1,2024-06-13T05:52:13.846Z,english_723.wav,0,0,1817,21,4,Chinese,f,7,0.7,61.11286308,1.11219452
FDQ,67,1,2024-06-13T05:52:13.846Z,english_723.wav,0,0,1817,21,4,Chinese,f,8,0.8,-37.09128746,0.4392085
FDQ,67,1,2024-06-13T05:52:13.846Z,english_723.wav,0,0,1817,21,4,Chinese,f,9,0.9,71.58023837,1.93673799
FDQ,67,1,2024-06-13T05:52:13.846Z,english_723.wav,0,0,1817,21,4,Chinese,f,10,1,30.56657054,0.01664343
FDQ,67,1,2024-06-13T05:52:13.846Z,english_723.wav,0,0,1817,21,4,Chinese,f,11,1.09391667,-5.36806636,0.22848658
FDQ,68,1,2024-06-13T05:52:13.846Z,english_36.wav,0,1,1159,21,4,Chinese,f,0,0,-9.00477988,0.81327237
FDQ,68,1,2024-06-13T05:52:13.846Z,english_36.wav,0,1,1159,21,4,Chinese,f,1,0.1,-13.45702302,0.45075004
FDQ,68,1,2024-06-13T05:52:13.846Z,english_36.wav,0,1,1159,21,4,Chinese,f,2,0.2,-2.81727849,0.1663237
FDQ,68,1,2024-06-13T05:52:13.846Z,english_36.wav,0,1,1159,21,4,Chinese,f,3,0.3,-29.71164893,1.57862109
FDQ,68,1,2024-06-13T05:52:13.846Z,english_36.wav,0,1,1159,21,4,Chinese,f,4,0.4,95.72220786,1.7254824
FDQ,68,1,2024-06-13T05:52:13.846Z,english_36.wav,0,1,1159,21,4,Chinese,f,5,0.5,-60.23405317,1.10066579
FDQ,68,1,2024-06-13T05:52:13.846Z,english_36.wav,0,1,1159,21,4,Chinese,f,6,0.6,-99.2529621,0.59792659
FDQ,68,1,2024-06-13T05:52:13.846Z,english_36.wav,0,1,1159,21,4,Chinese,f,7,0.7,-7.64791957,1.42084394
FDQ,68,1,2024-06-13T05:52:13.846Z,english_36.wav,0,1,1159,21,4,Chinese,f,8,0.8,-68.45334788,0.87400001
FDQ,68,1,2024-06-13T05:52:13.846Z,english_36.wav,0,1,1159,21,4,Chinese,f,9,0.9,91.90753039,1.522223
FDQ,68,1,2024-06-13T05:52:13.846Z,english_36.wav,0,1,1159,21,4,Chinese,f,10,1,93.40110395,0.56951468
FDQ,68,1,2024-06-13T05:52:13.846Z,english_36.wav,0,1,1159,21,4,Chinese,f,11,1.09391667,-27.95691035,1.01798822
FDQ,69,1,2024-06-13T05:52:13.846Z,english_254.wav,0,0,757,21,4,Chinese,f,0,0,-79.97486314,0.1587751
FDQ,69,1,2024-06-13T05:52:13.846Z,english_254.wav,0,0,757,21,4,Chinese,f,1,0.1,4.97939185,1.19895937
FDQ,69,1,2024-06-13T05:52:13.846Z,english_254.wav,0,0,757,21,4,Chinese,f,2,0.2,-28.78047168,0.42029652
FDQ,69,1,2024-06-13T05:52:13.846Z,english_254.wav,0,0,757,21,4,Chinese,f,3,0.3,54.84679162,0.35684023
FDQ,69,1,2024-06-13T05:52:13.846Z,english_254.wav,0,0,757,21,4,Chinese,f,4,0.4,-29.5092506,0.61489906
FDQ,69,1,2024-06-13T05:52:13.846Z,english_254.wav,0,0,757,21,4,Chinese,f,5,0.5,32.35526616,0.62359164
FDQ,69,1,2024-06-13T05:52:13.846Z,english_254.wav,0,0,757,21,4,Chinese,f,6,0.6,30.73043206,0.73353012
FDQ,69,1,2024-06-13T05:52:13.846Z,english_254.wav,0,0,757,21,4,Chinese,f,7,0.7,-63.39934618,1.26915249
FDQ,69,1,2024-06-13T05:52:13.846Z,english_254.wav,0,0,757,21,4,Chinese,f,8,0.8,41.52768957,1.27281169
FDQ,69,1,2024-06-13T05:52:13.846Z,english_254.wav,0,0,757,21,4,Chinese,f,9,0.9,-68.73480186,1.34629586
FDQ,69,1,2024-06-13T05:52:13.846Z,english_254.wav,0,0,757,21,4,Chinese,f,10,1,39.94615362,0.72701625
FDQ,69,1,2024-06-13T05:52:13.846Z,english_254.wav,0,0,757,21,4,Chinese,f,11,1.09391667,-8.67015509,0.66252937
FDQ,70,1,2024-06-13T05:52:13.846Z,english_963.wav,0,0,1056,21,4,Chinese,f,0,0,12.85572416,1.75469767
FDQ,70,1,2024-06-13T05:52:13.846Z,english_963.wav,0,0,1056,21,4,Chinese,f,1,0.1,-76.17617766,0.88786329
FDQ,70,1,2024-06-13T05:52:13.846Z,english_963.wav,0,0,1056,21,4,Chinese,f,2,0.2,42.35975093,1.03977576
FDQ,70,1,2024-06-13T05:52:13.846Z,english_963.wav,0,0,1056,21,4,Chinese,f,3,0.3,-29.56352697,0.40233076
FDQ,70,1,2024-06-13T05:52:13.846Z,english_963.wav,0,0,1056,21,4,Chinese,f,4,0.4,1.9048802,1.77716713
FDQ,70,1,2024-06-13T05:52:13.846Z,english_963.wav,0,0,1056,21,4,Chinese,f,5,0.5,-59.42176318,1.22252544
FDQ,70,1,2024-06-13T05:52:13.846Z,english_963.wav,0,0,1056,21,4,Chinese,f,6,0.6,-90.23873789,1.36334994
FDQ,70,1,2024-06-13T05:52:13.846Z,english_963.wav,0,0,1056,21,4,Chinese,f,7,0.7,96.0492683,0.19892648
FDQ,70,1,2024-06-13T05:52:13.846Z,english_963.wav,0,0,1056,21,4,Chinese,f,8,0.8,-14.96705396,0.48578079
FDQ,70,1,2024-06-13T05:52:13.846Z,english_963.wav,0,0,1056,21,4,Chinese,f,9,0.9,53.28049668,0.49525144
FDQ,70,1,2024-06-13T05:52:13.846Z,english_963.wav,0,0,1056,21,4,Chinese,f,10,1,-50.64061571,1.97867338
FDQ,70,1,2024-06-13T05:52:13.846Z,english_963.wav,0,0,1056,21,4,Chinese,f,11,1.09391667,33.50411271,0.71277393
FDQ,71,1,2024-06-13T05:52:13.846Z,english_237.wav,0,0,1212,21,4,Chinese,f,0,0,-24.33351242,0.5798894
FDQ,71,1,2024-06-13T05:52:13.846Z,english_237.wav,0,0,1212,21,4,Chinese,f,1,0.1,-30.25700372,1.5217244
FDQ,71,1,2024-06-13T05:52:13.846Z,english_237.wav,0,0,1212,21,4,Chinese,f,2,0.2,-30.13382595,0.83018836
FDQ,71,1,2024-06-13T05:52:13.846Z,english_237.wav,0,0,1212,21,4,Chinese,f,3,0.3,-9.60246818,0.61732459
FDQ,71,1,2024-06-13T05:52:13.846Z,english_237.wav,0,0,1212,21,4,Chinese,f,4,0.4,-40.42162485,0.04187642
FDQ,71,1,2024-06-13T05:52:13.846Z,english_237.wav,0,0,1212,21,4,Chinese,f,5,0.5,57.08355263,1.52741907
FDQ,71,1,2024-06-13T05:52:13.846Z,english_237.wav,0,0,1212,21,4,Chinese,f,6,0.6,90.25216072,0.52793747
FDQ,71,1,2024-06-13T05:52:13.846Z,english_237.wav,0,0,1212,21,4,Chinese,f,7,0.7,85.30493085,1.06419231
FDQ,71,1,2024-06-13T05:52:13.846Z,english_237.wav,0,0,1212,21,4,Chinese,f,8,0.8,-32.5073614,0.3844952
FDQ,71,1,2024-06-13T05:52:13.846Z,english_237.wav,0,0,1212,21,4,Chinese,f,9,0.9,26.39127281,0.20035849
FDQ,71,1,2024-06-13T05:52:13.846Z,english_237.wav,0,0,1212,21,4,Chinese,f,10,1,9.20254691,0.39448392
FDQ,71,1,2024-06-13T05:52:13.846Z,english_237.wav,0,0,1212,21,4,Chinese,f,11,1.09391667,-73.51581894,0.19327596
FDQ,72,1,2024-06-13T05:52:13.846Z,english_332.wav,0,0,1219,21,4,Chinese,f,0,0,53.78872747,0.07590352
FDQ,72,1,2024-06-13T05:52:13.846Z,english_332.wav,0,0,1219,21,4,Chinese,f,1,0.1,-31.30231847,0.7087577
FDQ,72,1,2024-06-13T05:52:13.846Z,english_332.wav,0,0,1219,21,4,Chinese,f,2,0.2,-95.20758858,1.45218303
FDQ,72,1,2024-06-13T05:52:13.846Z,english_332.wav,0,0,1219,21,4,Chinese,f,3,0.3,-77.87616394,0.80997209
FDQ,72,1,2024-06-13T05:52:13.846Z,english_332.wav,0,0,1219,21,4,Chinese,f,4,0.4,4.48979234,1.75678136
FDQ,72,1,2024-06-13T05:52:13.846Z,english_332.wav,0,0,1219,21,4,Chinese,f,5,0.5,-76.42784497,1.99645024
FDQ,72,1,2024-06-13T05:52:13.846Z,english_332.wav,0,0,1219,21,4,Chinese,f,6,0.6,6.07718634,1.82588157
FDQ,72,1,2024-06-13T05:52:13.846Z,english_332.wav,0,0,1219,21,4,Chinese,f,7,0.7,-41.20247157,0.2120908
FDQ,72,1,2024-06-13T05:52:13.846Z,english_332.wav,0,0,1219,21,4,Chinese,f,8,0.8,-17.3481238,0.72760948
FDQ,72,1,2024-06-13T05:52:13.846Z,english_332.wav,0,0,1219,21,4,Chinese,f,9,0.9,-17.17913846,0.31892552
FDQ,72,1,2024-06-13T05:52:13.846Z,english_332.wav,0,0,1219,21,4,Chinese,f,10,1,18.70166714,0.40752537
FDQ,72,1,2024-06-13T05:52:13.846Z,english_332.wav,0,0,1219,21,4,Chinese,f,11,1.09391667,50.68092334,0.76645959
FDQ,73,1,2024-06-13T05:52:13.846Z,english_474.wav,0,0,1249,21,4,Chinese,f,0,0,90.33187361,1.64439586
FDQ,73,1,2024-06-13T05:52:13.846Z,english_474.wav,0,0,1249,21,4,Chinese,f,1,0.1,-6.84069755,1.97409516
FDQ,73,1,2024-06-13T05:52:13.846Z,english_474.wav,0,0,1249,21,4,Chinese,f,2,0.2,-57.72482016,1.83394357
FDQ,73,1,2024-06-13T05:52:13.846Z,english_474.wav,0,0,1249,21,4,Chinese,f,3,0.3,-31.39067157,1.91918891
FDQ,73,1,2024-06-13T05:52:13.846Z,english_474.wav,0,0,1249,21,4,Chinese,f,4,0.4,81.36101502,1.89552465
FDQ,73,1,2024-06-13T05:52:13.846Z,english_474.wav,0,0,1249,21,4,Chinese,f,5,0.5,86.28648359,1.60591709
FDQ,73,1,2024-06-13T05:52:13.846Z,english_474.wav,0,0,1249,21,4,Chinese,f,6,0.6,59.24078698,1.87570248
FDQ,73,1,2024-06-13T05:52:13.846Z,english_474.wav,0,0,1249,21,4,Chinese,f,7,0.7,83.65694144,0.05909507
FDQ,73,1,2024-06-13T05:52:13.846Z,english_474.wav,0,0,1249,21,4,Chinese,f,8,0.8,-5.88526163,0.13266254
FDQ,73,1,2024-06-13T05:52:13.846Z,english_474.wav,0,0,1249,21,4,Chinese,f,9,0.9,-0.83528638,1.2446593
FDQ,73,1,2024-06-13T05:52:13.846Z,english_474.wav,0,0,1249,21,4,Chinese,f,10,1,93.70431835,0.47044402
FDQ,73,1,2024-06-13T05:52:13.846Z,english_474.wav,0,0,1249,21,4,Chinese,f,11,1.09391667,-9.99550439,1.70719202
FDQ,74,1,2024-06-13T05:52:13.846Z,english_761.wav,0,0,671,21,4,Chinese,f,0,0,-80.97330145,0.75841869
FDQ,74,1,2024-06-13T05:52:13.846Z,english_761.wav,0,0,671,21,4,Chinese,f,1,0.1,-87.8498671,0.93275546
FDQ,74,1,2024-06-13T05:52:13.846Z,english_761.wav,0,0,671,21,4,Chinese,f,2,0.2,-46.50669934,1.71329225
FDQ,74,1,2024-06-13T05:52:13.846Z,english_761.wav,0,0,671,21,4,Chinese,f,3,0.3,59.20965722,1.0347089
FDQ,74,1,2024-06-13T05:52:13.846Z,english_761.wav,0,0,671,21,4,Chinese,f,4,0.4,-35.71104214,1.01687932
FDQ,74,1,2024-06-13T05:52:13.846Z,english_761.wav,0,0,671,21,4,Chinese,f,5,0.5,-52.81542402,0.41101951
FDQ,74,1,2024-06-13T05:52:13.846Z,english_761.wav,0,0,671,21,4,Chinese,f,6,0.6,31.64937697,0.68065775
FDQ,74,1,2024-06-13T05:52:13.846Z,english_761.wav,0,0,671,21,4,Chinese,f,7,0.7,29.30310565,1.83101612
FDQ,74,1,2024-06-13T05:52:13.846Z,english_761.wav,0,0,671,21,4,Chinese,f,8,0.8,-83.11546178,0.13402502
FDQ,74,1,2024-06-13T05:52:13.846Z,english_761.wav,0,0,671,21,4,Chinese,f,9,0.9,4.4057425,1.22130523
FDQ,74,1,2024-06-13T05:52:13.846Z,english_761.wav,0,0,671,21,4,Chinese,f,10,1,40.14606476,0.44607754
FDQ,74,1,2024-06-13T05:52:13.846Z,english_761.wav,0,0,671,21,4,Chinese,f,11,1.09391667,-16.15452459,1.73687105
FDQ,75,1,2024-06-13T05:52:13.846Z,english_987.wav,0,0,377,21,4,Chinese,f,0,0,22.80679167,0.70061045
FDQ,75,1,2024-06-13T05:52:13.846Z,english_987.wav,0,0,377,21,4,Chinese,f,1,0.1,17.54007411,1.60053813
FDQ,75,1,2024-06-13T05:52:13.846Z,english_987.wav,0,0,377,21,4,Chinese,f,2,0.2,-52.11811518,0.58462844
FDQ,75,1,2024-06-13T05:52:13.846Z,english_987.wav,0,0,377,21,4,Chinese,f,3,0.3,-23.82315646,0.24368019
FDQ,75,1,2024-06-13T05:52:13.846Z,english_987.wav,0,0,377,21,4,Chinese,f,4,0.4,44.18787645,0.52233595
FDQ,75,1,2024-06-13T05:52:13.846Z,english_987.wav,0,0,377,21,4,Chinese,f,5,0.5,-72.90084178,0.85287542
FDQ,75,1,2024-06-13T05:52:13.846Z,english_987.wav,0,0,377,21,4,Chinese,f,6,0.6,-17.62123308,1.54280419
FDQ,75,1,2024-06-13T05:52:13.846Z,english_987.wav,0,0,377,21,4,Chinese,f,7,0.7,95.73852472,0.69341266
FDQ,75,1,2024-06-13T05:52:13.846Z,english_987.wav,0,0,377,21,4,Chinese,f,8,0.8,10.89860126,0.63948037
FDQ,75,1,2024-06-13T05:52:13.846Z,english_987.wav,0,0,377,21,4,Chinese,f,9,0.9,-72.84217249,0.23195922
FDQ,75,1,2024-06-13T05:52:13.846Z,english_987.wav,0,0,377,21,4,Chinese,f,10,1,-57.31215702,1.27646479
FDQ,75,1,2024-06-13T05:52:13.846Z,english_987.wav,0,0,377,21,4,Chinese,f,11,1.09391667,-16.22203203,1.15579809
FDQ,76,1,2024-06-13T05:52:13.846Z,english_306.wav,0,0,794,21,4,Chinese,f,0,0,-95.03086766,1.30837938
FDQ,76,1,2024-06-13T05:52:13.846Z,english_306.wav,0,0,794,21,4,Chinese,f,1,0.1,-3.19440238,0.41482999
FDQ,76,1,2024-06-13T05:52:13.846Z,english_306.wav,0,0,794,21,4,Chinese,f,2,0.2,-39.72459624,1.62954212
FDQ,76,1,2024-06-13T05:52:13.846Z,english_306.wav,0,0,794,21,4,Chinese,f,3,0.3,15.36352601,1.09402509
FDQ,76,1,2024-06-13T05:52:13.846Z,english_306.wav,0,0,794,21,4,Chinese,f,4,0.4,-38.40390677,0.25113187
FDQ,76,1,2024-06-13T05:52:13.846Z,english_306.wav,0,0,794,21,4,Chinese,f,5,0.5,-49.79740584,0.76399472
FDQ,76,1,2024-06-13T05:52:13.846Z,english_306.wav,0,0,794,21,4,Chinese,f,6,0.6,-48.37651938,1.73274833
FDQ,76,1,2024-06-13T05:52:13.846Z,english_306.wav,0,0,794,21,4,Chinese,f,7,0.7,-33.05516854,0.31535053
FDQ,76,1,2024-06-13T05:52:13.846Z,english_306.wav,0,0,794,21,4,Chinese,f,8,0.8,-95.3817315,0.01885302
FDQ,76,1,2024-06-13T05:52:13.846Z,english_306.wav,0,0,794,21,4,Chinese,f,9,0.9,-37.53428143,0.72130614
FDQ,76,1,2024-06-13T05:52:13.846Z,english_306.wav,0,0,794,21,4,Chinese,f,10,1,13.19585938,0.43232343
FDQ,76,1,2024-06-13T05:52:13.846Z,english_306.wav,0,0,794,21,4,Chinese,f,11,1.09391667,36.11780275,1.20783491
FDQ,77,1,2024-06-13T05:52:13.846Z,english_866.wav,0,0,1368,21,4,Chinese,f,0,0,32.13948388,0.64921597
FDQ,77,1,2024-06-13T05:52:13.846Z,english_866.wav,0,0,1368,21,4,Chinese,f,1,0.1,38.60075831,1.48742897
FDQ,77,1,2024-06-13T05:52:13.846Z,english_866.wav,0,0,1368,21,4,Chinese,f,2,0.2,-79.61982729,0.28495491
FDQ,77,1,2024-06-13T05:52:13.846Z,english_866.wav,0,0,1368,21,4,Chinese,f,3,0.3,-60.72840424,0.9139307
FDQ,77,1,2024-06-13T05:52:13.846Z,english_866.wav,0,0,1368,21,4,Chinese,f,4,0.4,-37.10812529,1.2771469
FDQ,77,1,2024-06-13T05:52:13.846Z,english_866.wav,0,0,1368,21,4,Chinese,f,5,0.5,20.23366157,0.5381413
FDQ,77,1,2024-06-13T05:52:13.846Z,english_866.wav,0,0,1368,21,4,Chinese,f,6,0.6,-58.420194,0.14669297
FDQ,77,1,2024-06-13T05:52:13.846Z,english_866.wav,0,0,1368,21,4,Chinese,f,7,0.7,10.40447232,0.11342134
FDQ,77,1,2024-06-13T05:52:13.846Z,english_866.wav,0,0,1368,21,4,Chinese,f,8,0.8,-52.83849426,1.53208977
FDQ,77,1,2024-06-13T05:52:13.846Z,english_866.wav,0,0,1368,21,4,Chinese,f,9,0.9,32.83340069,0.84107623
FDQ,77,1,2024-06-13T05:52:13.846Z,english_866.wav,0,0,1368,21,4,Chinese,f,10,1,9.31901299,1.05202157
FDQ,77,1,2024-06-13T05:52:13.846Z,english_866.wav,0,0,1368,21,4,Chinese,f,11,1.09391667,-17.41907809,1.86418674
FDQ,78,1,2024-06-13T05:52:13.846Z,english_981.wav,0,1,586,21,4,Chinese,f,0,0,24.3055989,1.29303253
FDQ,78,1,2024-06-13T05:52:13.846Z,english_981.wav,0,1,586,21,4,Chinese,f,1,0.1,28.97891723,1.06779992
FDQ,78,1,2024-06-13T05:52:13.846Z,english_981.wav,0,1,586,21,4,Chinese,f,2,0.2,51.4418758,1.11588817
FDQ,78,1,2024-06-13T05:52:13.846Z,english_981.wav,0,1,586,21,4,Chinese,f,3,0.3,-41.6425055,1.45059858
FDQ,78,1,2024-06-13T05:52:13.846Z,english_981.wav,0,1,586,21,4,Chinese,f,4,0.4,-6.63622722,0.93926956
FDQ,78,1,2024-06-13T05:52:13.846Z,english_981.wav,0,1,586,21,4,Chinese,f,5,0.5,90.98935315,0.09427917
FDQ,78,1,2024-06-13T05:52:13.846Z,english_981.wav,0,1,586,21,4,Chinese,f,6,0.6,-91.30627378,0.99584654
FDQ,78,1,2024-06-13T05:52:13.846Z,english_981.wav,0,1,586,21,4,Chinese,f,7,0.7,-70.54702949,1.20164622
FDQ,78,1,2024-06-13T05:52:13.846Z,english_981.wav,0,1,586,21,4,Chinese,f,8,0.8,37.31249144,1.37323006
FDQ,78,1,2024-06-13T05:52:13.846Z,english_981.wav,0,1,586,21,4,Chinese,f,9,0.9,44.20519134,0.98395355
FDQ,78,1,2024-06-13T05:52:13.846Z,english_981.wav,0,1,586,21,4,Chinese,f,10,1,-85.22636705,0.17020531
FDQ,78,1,2024-06-13T05:52:13.846Z,english_981.wav,0,1,586,21,4,Chinese,f,11,1.09391667,33.48956199,0.83321676
FDQ,79,1,2024-06-13T05:52:13.846Z,english_971.wav,0,0,1718,21,4,Chinese,f,0,0,21.92702064,0.459047
FDQ,79,1,2024-06-13T05:52:13.846Z,english_971.wav,0,0,1718,21,4,Chinese,f,1,0.1,-53.27203396,0.06454192
FDQ,79,1,2024-06-13T05:52:13.846Z,english_971.wav,0,0,1718,21,4,Chinese,f,2,0.2,16.04080675,1.47088252
FDQ,79,1,2024-06-13T05:52:13.846Z,english_971.wav,0,0,1718,21,4,Chinese,f,3,0.3,-93.72897718,0.63214126
FDQ,79,1,2024-06-13T05:52:13.846Z,english_971.wav,0,0,1718,21,4,Chinese,f,4,0.4,76.75922717,0.53041825
FDQ,79,1,2024-06-13T05:52:13.846Z,english_971.wav,0,0,1718,21,4,Chinese,f,5,0.5,2.23154985,0.36671068
FDQ,79,1,2024-06-13T05:52:13.846Z,english_971.wav,0,0,1718,21,4,Chinese,f,6,0.6,57.16774736,0.84112941
FDQ,79,1,2024-06-13T05:52:13.846Z,english_971.wav,0,0,1718,21,4,Chinese,f,7,0.7,-66.3096603,0.93270713
FDQ,79,1,2024-06-13T05:52:13.846Z,english_971.wav,0,0,1718,21,4,Chinese,f,8,0.8,-54.36784686,0.0064824
FDQ,79,1,2024-06-13T05:52:13.846Z,english_971.wav,0,0,1718,21,4,Chinese,f,9,0.9,31.74688825,0.04508119
FDQ,79,1,2024-06-13T05:52:13.846Z,english_971.wav,0,0,1718,21,4,Chinese,f,10,1,-41.88838509,1.17781348
FDQ,79,1,2024-06-13T05:52:13.846Z,english_971.wav,0,0,1718,21,4,Chinese,f,11,1.09391667,-46.11178706,0.19249934
FDQ,80,1,2024-06-13T05:52:13.846Z,english_424.wav,0,1,1175,21,4,Chinese,f,0,0,-17.35907603,1.03823748
FDQ,80,1,2024-06-13T05:52:13.846Z,english_424.wav,0,1,1175,21,4,Chinese,f,1,0.1,18.81369918,0.96868976
FDQ,80,1,2024-06-13T05:52:13.846Z,english_424.wav,0,1,1175,21,4,Chinese,f,2,0.2,55.92500366,1.67797376
FDQ,80,1,2024-06-13T05:52:13.846Z,english_424.wav,0,1,1175,21,4,Chinese,f,3,0.3,45.08785435,1.44469234
FDQ,80,1,2024-06-13T05:52:13.846Z,english_424.wav,0,1,1175,21,4,Chinese,f,4,0.4,3.17174712,0.62957499
FDQ,80,1,2024-06-13T05:52:13.846Z,english_424.wav,0,1,1175,21,4,Chinese,f,5,0.5,-30.69278374,1.7765397
FDQ,80,1,2024-06-13T05:52:13.846Z,english_424.wav,0,1,1175,21,4,Chinese,f,6,0.6,41.43178992,1.27231114
FDQ,80,1,2024-06-13T05:52:13.846Z,english_424.wav,0,1,1175,21,4,Chinese,f,7,0.7,-46.28602692,0.02713593
FDQ,80,1,2024-06-13T05:52:13.846Z,english_424.wav,0,1,1175,21,4,Chinese,f,8,0.8,-38.81280045,0.44344556
