subj,trial,block,date,stim,stim_order,response,rt,age,english,language,sex,param_index,segment,pitch,stretch
LLG,0,0,2024-06-14T14:40:01.680Z,english_770.wav,0,0,968,24,4,Chinese,m,0,0,91.12421142,0.39537222
LLG,0,0,2024-06-14T14:40:01.680Z,english_770.wav,0,0,968,24,4,Chinese,m,1,0.1,-19.58540638,0.64754321
LLG,0,0,2024-06-14T14:40:01.680Z,english_770.wav,0,0,968,24,4,Chinese,m,2,0.2,-79.28932671,1.33811004
LLG,0,0,2024-06-14T14:40:01.680Z,english_770.wav,0,0,968,24,4,Chinese,m,3,0.3,84.41656944,0.79999887
LLG,0,0,2024-06-14T14:40:01.680Z,english_770.wav,0,0,968,24,4,Chinese,m,4,0.4,-7.14437585,0.34341238
LLG,0,0,2024-06-14T14:40:01.680Z,english_770.wav,0,0,968,24,4,Chinese,m,5,0.5,-65.427815,0.89137249
LLG,0,0,2024-06-14T14:40:01.680Z,english_770.wav,0,0,968,24,4,Chinese,m,6,0.6,24.29112002,1.67993341
LLG,0,0,2024-06-14T14:40:01.680Z,english_770.wav,0,0,968,24,4,Chinese,m,7,0.7,-96.64014953,1.65600172
LLG,0,0,2024-06-14T14:40:01.680Z,english_770.wav,0,0,968,24,4,Chinese,m,8,0.8,-19.88619379,0.2664894
LLG,0,0,2024-06-14T14:40:01.680Z,english_770.wav,0,0,968,24,4,Chinese,m,9,0.9,6.75538061,1.80740877
LLG,0,0,2024-06-14T14:40:01.680Z,english_770.wav,0,0,968,24,4,Chinese,m,10,1,-9.4599271,0.27817675
LLG,0,0,2024-06-14T14:40:01.680Z,english_770.wav,0,0,968,24,4,Chinese,m,11,1.09391667,37.64052975,0.07045036
LLG,1,0,2024-06-14T14:40:01.680Z,english_798.wav,0,0,1541,24,4,Chinese,m,0,0,-67.02841194,0.33593724
LLG,1,0,2024-06-14T14:40:01.680Z,english_798.wav,0,0,1541,24,4,Chinese,m,1,0.1,-61.53416047,1.45592665
LLG,1,0,2024-06-14T14:40:01.680Z,english_798.wav,0,0,1541,24,4,Chinese,m,2,0.2,58.59657868,0.89843982
LLG,1,0,2024-06-14T14:40:01.680Z,english_798.wav,0,0,1541,24,4,Chinese,m,3,0.3,29.19204806,0.82315135
LLG,1,0,2024-06-14T14:40:01.680Z,english_798.wav,0,0,1541,24,4,Chinese,m,4,0.4,23.45650743,1.88697526
LLG,1,0,2024-06-14T14:40:01.680Z,english_798.wav,0,0,1541,24,4,Chinese,m,5,0.5,68.99571545,0.96876146
LLG,1,0,2024-06-14T14:40:01.680Z,english_798.wav,0,0,1541,24,4,Chinese,m,6,0.6,-55.06633408,0.51998357
LLG,1,0,2024-06-14T14:40:01.680Z,english_798.wav,0,0,1541,24,4,Chinese,m,7,0.7,-84.88813755,0.83848957
LLG,1,0,2024-06-14T14:40:01.680Z,english_798.wav,0,0,1541,24,4,Chinese,m,8,0.8,-86.25019985,0.75519813
LLG,1,0,2024-06-14T14:40:01.680Z,english_798.wav,0,0,1541,24,4,Chinese,m,9,0.9,32.09324542,0.08799146
LLG,1,0,2024-06-14T14:40:01.680Z,english_798.wav,0,0,1541,24,4,Chinese,m,10,1,-18.86097807,1.1327065
LLG,1,0,2024-06-14T14:40:01.680Z,english_798.wav,0,0,1541,24,4,Chinese,m,11,1.09391667,-0.34975855,0.30601278
LLG,2,0,2024-06-14T14:40:01.680Z,english_632.wav,0,1,465,24,4,Chinese,m,0,0,54.27416022,0.37224575
LLG,2,0,2024-06-14T14:40:01.680Z,english_632.wav,0,1,465,24,4,Chinese,m,1,0.1,37.10784124,1.19176423
LLG,2,0,2024-06-14T14:40:01.680Z,english_632.wav,0,1,465,24,4,Chinese,m,2,0.2,-11.42343802,1.11602641
LLG,2,0,2024-06-14T14:40:01.680Z,english_632.wav,0,1,465,24,4,Chinese,m,3,0.3,83.07683271,0.86319718
LLG,2,0,2024-06-14T14:40:01.680Z,english_632.wav,0,1,465,24,4,Chinese,m,4,0.4,-41.86230003,1.45181299
LLG,2,0,2024-06-14T14:40:01.680Z,english_632.wav,0,1,465,24,4,Chinese,m,5,0.5,-65.18909296,0.00810665
LLG,2,0,2024-06-14T14:40:01.680Z,english_632.wav,0,1,465,24,4,Chinese,m,6,0.6,73.88921211,1.82551729
LLG,2,0,2024-06-14T14:40:01.680Z,english_632.wav,0,1,465,24,4,Chinese,m,7,0.7,-78.27421644,0.97441054
LLG,2,0,2024-06-14T14:40:01.680Z,english_632.wav,0,1,465,24,4,Chinese,m,8,0.8,-55.91875918,1.38456518
LLG,2,0,2024-06-14T14:40:01.680Z,english_632.wav,0,1,465,24,4,Chinese,m,9,0.9,38.52779866,1.39025004
LLG,2,0,2024-06-14T14:40:01.680Z,english_632.wav,0,1,465,24,4,Chinese,m,10,1,-63.00995407,0.73323837
LLG,2,0,2024-06-14T14:40:01.680Z,english_632.wav,0,1,465,24,4,Chinese,m,11,1.09391667,-47.01105768,1.12337895
LLG,3,0,2024-06-14T14:40:01.680Z,english_947.wav,0,0,1279,24,4,Chinese,m,0,0,30.31601864,1.90953585
LLG,3,0,2024-06-14T14:40:01.680Z,english_947.wav,0,0,1279,24,4,Chinese,m,1,0.1,-75.95641423,1.97785982
LLG,3,0,2024-06-14T14:40:01.680Z,english_947.wav,0,0,1279,24,4,Chinese,m,2,0.2,54.94521645,0.82379025
LLG,3,0,2024-06-14T14:40:01.680Z,english_947.wav,0,0,1279,24,4,Chinese,m,3,0.3,26.24562162,0.15379293
LLG,3,0,2024-06-14T14:40:01.680Z,english_947.wav,0,0,1279,24,4,Chinese,m,4,0.4,54.40237068,1.01827888
LLG,3,0,2024-06-14T14:40:01.680Z,english_947.wav,0,0,1279,24,4,Chinese,m,5,0.5,40.82679184,1.47839937
LLG,3,0,2024-06-14T14:40:01.680Z,english_947.wav,0,0,1279,24,4,Chinese,m,6,0.6,77.31299723,1.20847868
LLG,3,0,2024-06-14T14:40:01.680Z,english_947.wav,0,0,1279,24,4,Chinese,m,7,0.7,1.15315344,0.14564675
LLG,3,0,2024-06-14T14:40:01.680Z,english_947.wav,0,0,1279,24,4,Chinese,m,8,0.8,73.19645095,0.87070751
LLG,3,0,2024-06-14T14:40:01.680Z,english_947.wav,0,0,1279,24,4,Chinese,m,9,0.9,6.20643858,0.13653501
LLG,3,0,2024-06-14T14:40:01.680Z,english_947.wav,0,0,1279,24,4,Chinese,m,10,1,28.66234598,0.34449422
LLG,3,0,2024-06-14T14:40:01.680Z,english_947.wav,0,0,1279,24,4,Chinese,m,11,1.09391667,7.34981137,1.34190112
LLG,4,0,2024-06-14T14:40:01.680Z,english_297.wav,0,1,577,24,4,Chinese,m,0,0,11.20692079,0.86492625
LLG,4,0,2024-06-14T14:40:01.680Z,english_297.wav,0,1,577,24,4,Chinese,m,1,0.1,55.75431015,0.88416452
LLG,4,0,2024-06-14T14:40:01.680Z,english_297.wav,0,1,577,24,4,Chinese,m,2,0.2,-86.64282083,0.82005931
LLG,4,0,2024-06-14T14:40:01.680Z,english_297.wav,0,1,577,24,4,Chinese,m,3,0.3,3.92544498,1.68274586
LLG,4,0,2024-06-14T14:40:01.680Z,english_297.wav,0,1,577,24,4,Chinese,m,4,0.4,74.84193622,0.6310151
LLG,4,0,2024-06-14T14:40:01.680Z,english_297.wav,0,1,577,24,4,Chinese,m,5,0.5,98.87033291,1.10285094
LLG,4,0,2024-06-14T14:40:01.680Z,english_297.wav,0,1,577,24,4,Chinese,m,6,0.6,-27.05853929,1.62243403
LLG,4,0,2024-06-14T14:40:01.680Z,english_297.wav,0,1,577,24,4,Chinese,m,7,0.7,28.57762927,0.88003843
LLG,4,0,2024-06-14T14:40:01.680Z,english_297.wav,0,1,577,24,4,Chinese,m,8,0.8,43.21204816,0.80969405
LLG,4,0,2024-06-14T14:40:01.680Z,english_297.wav,0,1,577,24,4,Chinese,m,9,0.9,-15.31404034,1.74854736
LLG,4,0,2024-06-14T14:40:01.680Z,english_297.wav,0,1,577,24,4,Chinese,m,10,1,27.27632772,0.34135996
LLG,4,0,2024-06-14T14:40:01.680Z,english_297.wav,0,1,577,24,4,Chinese,m,11,1.09391667,22.16706661,0.77981114
LLG,5,0,2024-06-14T14:40:01.680Z,english_313.wav,0,0,620,24,4,Chinese,m,0,0,-22.0180916,0.52298953
LLG,5,0,2024-06-14T14:40:01.680Z,english_313.wav,0,0,620,24,4,Chinese,m,1,0.1,96.16831441,0.58043298
LLG,5,0,2024-06-14T14:40:01.680Z,english_313.wav,0,0,620,24,4,Chinese,m,2,0.2,-45.33444961,0.43861373
LLG,5,0,2024-06-14T14:40:01.680Z,english_313.wav,0,0,620,24,4,Chinese,m,3,0.3,-30.76295123,0.29063093
LLG,5,0,2024-06-14T14:40:01.680Z,english_313.wav,0,0,620,24,4,Chinese,m,4,0.4,27.42080434,1.23880448
LLG,5,0,2024-06-14T14:40:01.680Z,english_313.wav,0,0,620,24,4,Chinese,m,5,0.5,96.50313713,0.08705859
LLG,5,0,2024-06-14T14:40:01.680Z,english_313.wav,0,0,620,24,4,Chinese,m,6,0.6,-0.94763764,1.32086894
LLG,5,0,2024-06-14T14:40:01.680Z,english_313.wav,0,0,620,24,4,Chinese,m,7,0.7,67.04457313,1.2914561
LLG,5,0,2024-06-14T14:40:01.680Z,english_313.wav,0,0,620,24,4,Chinese,m,8,0.8,2.6862445,0.44865702
LLG,5,0,2024-06-14T14:40:01.680Z,english_313.wav,0,0,620,24,4,Chinese,m,9,0.9,47.07555832,1.89388378
LLG,5,0,2024-06-14T14:40:01.680Z,english_313.wav,0,0,620,24,4,Chinese,m,10,1,-32.41079138,1.69735018
LLG,5,0,2024-06-14T14:40:01.680Z,english_313.wav,0,0,620,24,4,Chinese,m,11,1.09391667,11.15794631,1.75721469
LLG,6,0,2024-06-14T14:40:01.680Z,english_339.wav,0,1,550,24,4,Chinese,m,0,0,60.63219511,0.54338949
LLG,6,0,2024-06-14T14:40:01.680Z,english_339.wav,0,1,550,24,4,Chinese,m,1,0.1,-12.18568345,0.21495144
LLG,6,0,2024-06-14T14:40:01.680Z,english_339.wav,0,1,550,24,4,Chinese,m,2,0.2,23.58983997,0.44775719
LLG,6,0,2024-06-14T14:40:01.680Z,english_339.wav,0,1,550,24,4,Chinese,m,3,0.3,-59.19633042,1.56952392
LLG,6,0,2024-06-14T14:40:01.680Z,english_339.wav,0,1,550,24,4,Chinese,m,4,0.4,-43.20945626,0.76217709
LLG,6,0,2024-06-14T14:40:01.680Z,english_339.wav,0,1,550,24,4,Chinese,m,5,0.5,-32.55639825,1.99954478
LLG,6,0,2024-06-14T14:40:01.680Z,english_339.wav,0,1,550,24,4,Chinese,m,6,0.6,-3.49407884,0.09545273
LLG,6,0,2024-06-14T14:40:01.680Z,english_339.wav,0,1,550,24,4,Chinese,m,7,0.7,91.66463762,1.65140919
LLG,6,0,2024-06-14T14:40:01.680Z,english_339.wav,0,1,550,24,4,Chinese,m,8,0.8,-80.14131412,1.37862303
LLG,6,0,2024-06-14T14:40:01.680Z,english_339.wav,0,1,550,24,4,Chinese,m,9,0.9,86.26968254,1.5118574
LLG,6,0,2024-06-14T14:40:01.680Z,english_339.wav,0,1,550,24,4,Chinese,m,10,1,-20.69851377,0.21342111
LLG,6,0,2024-06-14T14:40:01.680Z,english_339.wav,0,1,550,24,4,Chinese,m,11,1.09391667,-11.06601383,1.19470184
LLG,7,0,2024-06-14T14:40:01.680Z,english_389.wav,0,0,590,24,4,Chinese,m,0,0,-27.92030451,1.81186154
LLG,7,0,2024-06-14T14:40:01.680Z,english_389.wav,0,0,590,24,4,Chinese,m,1,0.1,-46.10796153,1.54804085
LLG,7,0,2024-06-14T14:40:01.680Z,english_389.wav,0,0,590,24,4,Chinese,m,2,0.2,29.27243325,0.55488288
LLG,7,0,2024-06-14T14:40:01.680Z,english_389.wav,0,0,590,24,4,Chinese,m,3,0.3,-81.13766006,1.00824624
LLG,7,0,2024-06-14T14:40:01.680Z,english_389.wav,0,0,590,24,4,Chinese,m,4,0.4,-25.00115648,1.07224035
LLG,7,0,2024-06-14T14:40:01.680Z,english_389.wav,0,0,590,24,4,Chinese,m,5,0.5,-17.10951233,0.42212287
LLG,7,0,2024-06-14T14:40:01.680Z,english_389.wav,0,0,590,24,4,Chinese,m,6,0.6,15.83507298,1.0440142
LLG,7,0,2024-06-14T14:40:01.680Z,english_389.wav,0,0,590,24,4,Chinese,m,7,0.7,79.29241289,1.00958508
LLG,7,0,2024-06-14T14:40:01.680Z,english_389.wav,0,0,590,24,4,Chinese,m,8,0.8,27.96570621,0.92707182
LLG,7,0,2024-06-14T14:40:01.680Z,english_389.wav,0,0,590,24,4,Chinese,m,9,0.9,-91.92786914,1.30621654
LLG,7,0,2024-06-14T14:40:01.680Z,english_389.wav,0,0,590,24,4,Chinese,m,10,1,39.38033895,1.4968603
LLG,7,0,2024-06-14T14:40:01.680Z,english_389.wav,0,0,590,24,4,Chinese,m,11,1.09391667,-32.92969944,0.53867672
LLG,8,0,2024-06-14T14:40:01.680Z,english_373.wav,0,0,763,24,4,Chinese,m,0,0,-9.94709743,0.51311979
LLG,8,0,2024-06-14T14:40:01.680Z,english_373.wav,0,0,763,24,4,Chinese,m,1,0.1,-83.40421168,1.13344135
LLG,8,0,2024-06-14T14:40:01.680Z,english_373.wav,0,0,763,24,4,Chinese,m,2,0.2,-22.83191441,0.32488715
LLG,8,0,2024-06-14T14:40:01.680Z,english_373.wav,0,0,763,24,4,Chinese,m,3,0.3,-83.42374119,1.83619002
LLG,8,0,2024-06-14T14:40:01.680Z,english_373.wav,0,0,763,24,4,Chinese,m,4,0.4,-39.99792882,1.43136972
LLG,8,0,2024-06-14T14:40:01.680Z,english_373.wav,0,0,763,24,4,Chinese,m,5,0.5,86.85199712,0.69456756
LLG,8,0,2024-06-14T14:40:01.680Z,english_373.wav,0,0,763,24,4,Chinese,m,6,0.6,-4.78975396,1.06607271
LLG,8,0,2024-06-14T14:40:01.680Z,english_373.wav,0,0,763,24,4,Chinese,m,7,0.7,-15.74997845,1.30605627
LLG,8,0,2024-06-14T14:40:01.680Z,english_373.wav,0,0,763,24,4,Chinese,m,8,0.8,29.79511399,0.03221072
LLG,8,0,2024-06-14T14:40:01.680Z,english_373.wav,0,0,763,24,4,Chinese,m,9,0.9,-25.05254908,1.44985225
LLG,8,0,2024-06-14T14:40:01.680Z,english_373.wav,0,0,763,24,4,Chinese,m,10,1,-99.62886639,0.95503788
LLG,8,0,2024-06-14T14:40:01.680Z,english_373.wav,0,0,763,24,4,Chinese,m,11,1.09391667,18.73159207,0.95128528
LLG,9,0,2024-06-14T14:40:01.680Z,english_111.wav,0,0,425,24,4,Chinese,m,0,0,-7.89423459,1.73172447
LLG,9,0,2024-06-14T14:40:01.680Z,english_111.wav,0,0,425,24,4,Chinese,m,1,0.1,-50.39853442,1.30536321
LLG,9,0,2024-06-14T14:40:01.680Z,english_111.wav,0,0,425,24,4,Chinese,m,2,0.2,85.22773015,0.28962065
LLG,9,0,2024-06-14T14:40:01.680Z,english_111.wav,0,0,425,24,4,Chinese,m,3,0.3,-7.88513069,1.6166787
LLG,9,0,2024-06-14T14:40:01.680Z,english_111.wav,0,0,425,24,4,Chinese,m,4,0.4,-36.68324303,0.55677008
LLG,9,0,2024-06-14T14:40:01.680Z,english_111.wav,0,0,425,24,4,Chinese,m,5,0.5,-4.8649615,1.31756148
LLG,9,0,2024-06-14T14:40:01.680Z,english_111.wav,0,0,425,24,4,Chinese,m,6,0.6,-92.19494919,1.4789538
LLG,9,0,2024-06-14T14:40:01.680Z,english_111.wav,0,0,425,24,4,Chinese,m,7,0.7,-6.11032283,0.53950686
LLG,9,0,2024-06-14T14:40:01.680Z,english_111.wav,0,0,425,24,4,Chinese,m,8,0.8,41.34470973,0.89868821
LLG,9,0,2024-06-14T14:40:01.680Z,english_111.wav,0,0,425,24,4,Chinese,m,9,0.9,-73.07088632,0.90401257
LLG,9,0,2024-06-14T14:40:01.680Z,english_111.wav,0,0,425,24,4,Chinese,m,10,1,50.36502587,0.61580764
LLG,9,0,2024-06-14T14:40:01.680Z,english_111.wav,0,0,425,24,4,Chinese,m,11,1.09391667,-49.90215361,1.87610476
LLG,10,0,2024-06-14T14:40:01.680Z,english_287.wav,0,1,640,24,4,Chinese,m,0,0,10.36471628,0.01185683
LLG,10,0,2024-06-14T14:40:01.680Z,english_287.wav,0,1,640,24,4,Chinese,m,1,0.1,-58.57729137,1.45020857
LLG,10,0,2024-06-14T14:40:01.680Z,english_287.wav,0,1,640,24,4,Chinese,m,2,0.2,-27.93575021,0.19382892
LLG,10,0,2024-06-14T14:40:01.680Z,english_287.wav,0,1,640,24,4,Chinese,m,3,0.3,33.78979174,0.71448768
LLG,10,0,2024-06-14T14:40:01.680Z,english_287.wav,0,1,640,24,4,Chinese,m,4,0.4,-33.15491758,0.01801383
LLG,10,0,2024-06-14T14:40:01.680Z,english_287.wav,0,1,640,24,4,Chinese,m,5,0.5,-5.38281254,0.74544811
LLG,10,0,2024-06-14T14:40:01.680Z,english_287.wav,0,1,640,24,4,Chinese,m,6,0.6,-58.09969762,0.45979971
LLG,10,0,2024-06-14T14:40:01.680Z,english_287.wav,0,1,640,24,4,Chinese,m,7,0.7,93.46336641,0.55925931
LLG,10,0,2024-06-14T14:40:01.680Z,english_287.wav,0,1,640,24,4,Chinese,m,8,0.8,27.63578773,1.84211482
LLG,10,0,2024-06-14T14:40:01.680Z,english_287.wav,0,1,640,24,4,Chinese,m,9,0.9,44.41136417,0.07395401
LLG,10,0,2024-06-14T14:40:01.680Z,english_287.wav,0,1,640,24,4,Chinese,m,10,1,-2.08272126,0.05656785
LLG,10,0,2024-06-14T14:40:01.680Z,english_287.wav,0,1,640,24,4,Chinese,m,11,1.09391667,72.82755357,1.60760225
LLG,11,0,2024-06-14T14:40:01.680Z,english_233.wav,0,1,961,24,4,Chinese,m,0,0,-12.45233214,1.31283544
LLG,11,0,2024-06-14T14:40:01.680Z,english_233.wav,0,1,961,24,4,Chinese,m,1,0.1,-33.20786902,0.09471032
LLG,11,0,2024-06-14T14:40:01.680Z,english_233.wav,0,1,961,24,4,Chinese,m,2,0.2,-3.84628349,1.88233627
LLG,11,0,2024-06-14T14:40:01.680Z,english_233.wav,0,1,961,24,4,Chinese,m,3,0.3,52.58812425,1.21028248
LLG,11,0,2024-06-14T14:40:01.680Z,english_233.wav,0,1,961,24,4,Chinese,m,4,0.4,-82.78729146,0.9101705
LLG,11,0,2024-06-14T14:40:01.680Z,english_233.wav,0,1,961,24,4,Chinese,m,5,0.5,-90.93928836,1.74264946
LLG,11,0,2024-06-14T14:40:01.680Z,english_233.wav,0,1,961,24,4,Chinese,m,6,0.6,91.49342166,1.34024886
LLG,11,0,2024-06-14T14:40:01.680Z,english_233.wav,0,1,961,24,4,Chinese,m,7,0.7,39.27925393,0.33883292
LLG,11,0,2024-06-14T14:40:01.680Z,english_233.wav,0,1,961,24,4,Chinese,m,8,0.8,-0.66571259,1.35075989
LLG,11,0,2024-06-14T14:40:01.680Z,english_233.wav,0,1,961,24,4,Chinese,m,9,0.9,50.1456693,1.4470152
LLG,11,0,2024-06-14T14:40:01.680Z,english_233.wav,0,1,961,24,4,Chinese,m,10,1,-6.64277825,1.15231478
LLG,11,0,2024-06-14T14:40:01.680Z,english_233.wav,0,1,961,24,4,Chinese,m,11,1.09391667,8.91074874,1.87164883
LLG,12,0,2024-06-14T14:40:01.680Z,english_749.wav,0,0,903,24,4,Chinese,m,0,0,-98.755033,1.96334233
LLG,12,0,2024-06-14T14:40:01.680Z,english_749.wav,0,0,903,24,4,Chinese,m,1,0.1,42.65363822,1.48975569
LLG,12,0,2024-06-14T14:40:01.680Z,english_749.wav,0,0,903,24,4,Chinese,m,2,0.2,26.16294791,0.57355189
LLG,12,0,2024-06-14T14:40:01.680Z,english_749.wav,0,0,903,24,4,Chinese,m,3,0.3,-49.82375857,1.77057057
LLG,12,0,2024-06-14T14:40:01.680Z,english_749.wav,0,0,903,24,4,Chinese,m,4,0.4,-23.36229669,0.88660826
LLG,12,0,2024-06-14T14:40:01.680Z,english_749.wav,0,0,903,24,4,Chinese,m,5,0.5,35.77035363,1.64369118
LLG,12,0,2024-06-14T14:40:01.680Z,english_749.wav,0,0,903,24,4,Chinese,m,6,0.6,7.03000202,1.42265123
LLG,12,0,2024-06-14T14:40:01.680Z,english_749.wav,0,0,903,24,4,Chinese,m,7,0.7,35.98122364,1.36887772
LLG,12,0,2024-06-14T14:40:01.680Z,english_749.wav,0,0,903,24,4,Chinese,m,8,0.8,28.50180833,0.73095149
LLG,12,0,2024-06-14T14:40:01.680Z,english_749.wav,0,0,903,24,4,Chinese,m,9,0.9,7.93583133,1.72699402
LLG,12,0,2024-06-14T14:40:01.680Z,english_749.wav,0,0,903,24,4,Chinese,m,10,1,35.65640922,1.24379364
LLG,12,0,2024-06-14T14:40:01.680Z,english_749.wav,0,0,903,24,4,Chinese,m,11,1.09391667,51.80769378,0.86036236
LLG,13,0,2024-06-14T14:40:01.680Z,english_572.wav,0,0,1151,24,4,Chinese,m,0,0,74.87847498,0.12348508
LLG,13,0,2024-06-14T14:40:01.680Z,english_572.wav,0,0,1151,24,4,Chinese,m,1,0.1,-39.37509685,1.01129589
LLG,13,0,2024-06-14T14:40:01.680Z,english_572.wav,0,0,1151,24,4,Chinese,m,2,0.2,46.07522777,0.14453867
LLG,13,0,2024-06-14T14:40:01.680Z,english_572.wav,0,0,1151,24,4,Chinese,m,3,0.3,-26.59086479,0.66439835
LLG,13,0,2024-06-14T14:40:01.680Z,english_572.wav,0,0,1151,24,4,Chinese,m,4,0.4,-83.61712333,0.40930176
LLG,13,0,2024-06-14T14:40:01.680Z,english_572.wav,0,0,1151,24,4,Chinese,m,5,0.5,51.69873735,1.64421854
LLG,13,0,2024-06-14T14:40:01.680Z,english_572.wav,0,0,1151,24,4,Chinese,m,6,0.6,-66.29925424,1.67109861
LLG,13,0,2024-06-14T14:40:01.680Z,english_572.wav,0,0,1151,24,4,Chinese,m,7,0.7,-30.03465624,1.00053383
LLG,13,0,2024-06-14T14:40:01.680Z,english_572.wav,0,0,1151,24,4,Chinese,m,8,0.8,22.82757365,0.68839219
LLG,13,0,2024-06-14T14:40:01.680Z,english_572.wav,0,0,1151,24,4,Chinese,m,9,0.9,-30.60936999,0.08113885
LLG,13,0,2024-06-14T14:40:01.680Z,english_572.wav,0,0,1151,24,4,Chinese,m,10,1,-46.60182678,0.16383696
LLG,13,0,2024-06-14T14:40:01.680Z,english_572.wav,0,0,1151,24,4,Chinese,m,11,1.09391667,37.1532128,0.71948729
LLG,14,0,2024-06-14T14:40:01.680Z,english_234.wav,0,0,914,24,4,Chinese,m,0,0,71.25344855,1.77024373
LLG,14,0,2024-06-14T14:40:01.680Z,english_234.wav,0,0,914,24,4,Chinese,m,1,0.1,2.51724238,1.93450941
LLG,14,0,2024-06-14T14:40:01.680Z,english_234.wav,0,0,914,24,4,Chinese,m,2,0.2,11.96692617,1.39397551
LLG,14,0,2024-06-14T14:40:01.680Z,english_234.wav,0,0,914,24,4,Chinese,m,3,0.3,64.81737023,1.38496922
LLG,14,0,2024-06-14T14:40:01.680Z,english_234.wav,0,0,914,24,4,Chinese,m,4,0.4,73.84050439,1.81820251
LLG,14,0,2024-06-14T14:40:01.680Z,english_234.wav,0,0,914,24,4,Chinese,m,5,0.5,-23.01072055,1.61085564
LLG,14,0,2024-06-14T14:40:01.680Z,english_234.wav,0,0,914,24,4,Chinese,m,6,0.6,-44.95387086,1.3729139
LLG,14,0,2024-06-14T14:40:01.680Z,english_234.wav,0,0,914,24,4,Chinese,m,7,0.7,-11.63871465,1.59939785
LLG,14,0,2024-06-14T14:40:01.680Z,english_234.wav,0,0,914,24,4,Chinese,m,8,0.8,88.55977512,0.08431317
LLG,14,0,2024-06-14T14:40:01.680Z,english_234.wav,0,0,914,24,4,Chinese,m,9,0.9,51.63791617,1.41302364
LLG,14,0,2024-06-14T14:40:01.680Z,english_234.wav,0,0,914,24,4,Chinese,m,10,1,-71.95139975,1.44509252
LLG,14,0,2024-06-14T14:40:01.680Z,english_234.wav,0,0,914,24,4,Chinese,m,11,1.09391667,-75.67665254,0.88259776
LLG,15,0,2024-06-14T14:40:01.680Z,english_322.wav,0,0,835,24,4,Chinese,m,0,0,76.12419843,0.67214084
LLG,15,0,2024-06-14T14:40:01.680Z,english_322.wav,0,0,835,24,4,Chinese,m,1,0.1,11.00659204,0.20805548
LLG,15,0,2024-06-14T14:40:01.680Z,english_322.wav,0,0,835,24,4,Chinese,m,2,0.2,-52.15522205,1.24717772
LLG,15,0,2024-06-14T14:40:01.680Z,english_322.wav,0,0,835,24,4,Chinese,m,3,0.3,-51.3643268,1.85689227
LLG,15,0,2024-06-14T14:40:01.680Z,english_322.wav,0,0,835,24,4,Chinese,m,4,0.4,24.49300534,0.2839927
LLG,15,0,2024-06-14T14:40:01.680Z,english_322.wav,0,0,835,24,4,Chinese,m,5,0.5,-64.27724172,0.06592342
LLG,15,0,2024-06-14T14:40:01.680Z,english_322.wav,0,0,835,24,4,Chinese,m,6,0.6,83.88593275,0.50660315
LLG,15,0,2024-06-14T14:40:01.680Z,english_322.wav,0,0,835,24,4,Chinese,m,7,0.7,17.09124032,0.19977586
LLG,15,0,2024-06-14T14:40:01.680Z,english_322.wav,0,0,835,24,4,Chinese,m,8,0.8,-4.85917502,0.57396738
LLG,15,0,2024-06-14T14:40:01.680Z,english_322.wav,0,0,835,24,4,Chinese,m,9,0.9,26.21900036,1.25518721
LLG,15,0,2024-06-14T14:40:01.680Z,english_322.wav,0,0,835,24,4,Chinese,m,10,1,17.81638138,1.74789318
LLG,15,0,2024-06-14T14:40:01.680Z,english_322.wav,0,0,835,24,4,Chinese,m,11,1.09391667,-21.79933582,1.24760572
LLG,16,0,2024-06-14T14:40:01.680Z,english_525.wav,0,1,951,24,4,Chinese,m,0,0,-85.30144906,1.21891661
LLG,16,0,2024-06-14T14:40:01.680Z,english_525.wav,0,1,951,24,4,Chinese,m,1,0.1,40.69478692,0.63566771
LLG,16,0,2024-06-14T14:40:01.680Z,english_525.wav,0,1,951,24,4,Chinese,m,2,0.2,27.58167259,1.09185932
LLG,16,0,2024-06-14T14:40:01.680Z,english_525.wav,0,1,951,24,4,Chinese,m,3,0.3,-9.65414258,1.3630453
LLG,16,0,2024-06-14T14:40:01.680Z,english_525.wav,0,1,951,24,4,Chinese,m,4,0.4,-92.26214691,0.47547332
LLG,16,0,2024-06-14T14:40:01.680Z,english_525.wav,0,1,951,24,4,Chinese,m,5,0.5,1.87368715,0.98334241
LLG,16,0,2024-06-14T14:40:01.680Z,english_525.wav,0,1,951,24,4,Chinese,m,6,0.6,84.67723439,1.24273573
LLG,16,0,2024-06-14T14:40:01.680Z,english_525.wav,0,1,951,24,4,Chinese,m,7,0.7,-37.99334031,1.29787156
LLG,16,0,2024-06-14T14:40:01.680Z,english_525.wav,0,1,951,24,4,Chinese,m,8,0.8,91.90351479,1.39013402
LLG,16,0,2024-06-14T14:40:01.680Z,english_525.wav,0,1,951,24,4,Chinese,m,9,0.9,51.5107545,0.19016555
LLG,16,0,2024-06-14T14:40:01.680Z,english_525.wav,0,1,951,24,4,Chinese,m,10,1,-23.16743883,0.57102757
LLG,16,0,2024-06-14T14:40:01.680Z,english_525.wav,0,1,951,24,4,Chinese,m,11,1.09391667,-40.96893152,0.41777753
LLG,17,0,2024-06-14T14:40:01.680Z,english_861.wav,0,0,708,24,4,Chinese,m,0,0,25.4501387,1.11165111
LLG,17,0,2024-06-14T14:40:01.680Z,english_861.wav,0,0,708,24,4,Chinese,m,1,0.1,63.77188621,1.38930356
LLG,17,0,2024-06-14T14:40:01.680Z,english_861.wav,0,0,708,24,4,Chinese,m,2,0.2,8.16107914,0.85763188
LLG,17,0,2024-06-14T14:40:01.680Z,english_861.wav,0,0,708,24,4,Chinese,m,3,0.3,41.89997673,0.26479285
LLG,17,0,2024-06-14T14:40:01.680Z,english_861.wav,0,0,708,24,4,Chinese,m,4,0.4,-63.53893236,0.36121213
LLG,17,0,2024-06-14T14:40:01.680Z,english_861.wav,0,0,708,24,4,Chinese,m,5,0.5,57.74914229,1.75452306
LLG,17,0,2024-06-14T14:40:01.680Z,english_861.wav,0,0,708,24,4,Chinese,m,6,0.6,-60.14311181,1.62162149
LLG,17,0,2024-06-14T14:40:01.680Z,english_861.wav,0,0,708,24,4,Chinese,m,7,0.7,3.67795544,0.63165878
LLG,17,0,2024-06-14T14:40:01.680Z,english_861.wav,0,0,708,24,4,Chinese,m,8,0.8,-80.01439722,0.85751028
LLG,17,0,2024-06-14T14:40:01.680Z,english_861.wav,0,0,708,24,4,Chinese,m,9,0.9,-37.7550596,1.51613867
LLG,17,0,2024-06-14T14:40:01.680Z,english_861.wav,0,0,708,24,4,Chinese,m,10,1,-13.58281726,1.37338535
LLG,17,0,2024-06-14T14:40:01.680Z,english_861.wav,0,0,708,24,4,Chinese,m,11,1.09391667,59.5288882,0.25913333
LLG,18,0,2024-06-14T14:40:01.680Z,english_594.wav,0,0,963,24,4,Chinese,m,0,0,-6.10063938,0.03940385
LLG,18,0,2024-06-14T14:40:01.680Z,english_594.wav,0,0,963,24,4,Chinese,m,1,0.1,-56.51028651,0.67979763
LLG,18,0,2024-06-14T14:40:01.680Z,english_594.wav,0,0,963,24,4,Chinese,m,2,0.2,-40.09571675,0.90921071
LLG,18,0,2024-06-14T14:40:01.680Z,english_594.wav,0,0,963,24,4,Chinese,m,3,0.3,61.97563687,0.53210088
LLG,18,0,2024-06-14T14:40:01.680Z,english_594.wav,0,0,963,24,4,Chinese,m,4,0.4,-85.53288451,0.284195
LLG,18,0,2024-06-14T14:40:01.680Z,english_594.wav,0,0,963,24,4,Chinese,m,5,0.5,6.67279942,0.75512393
LLG,18,0,2024-06-14T14:40:01.680Z,english_594.wav,0,0,963,24,4,Chinese,m,6,0.6,48.92783255,0.67826493
LLG,18,0,2024-06-14T14:40:01.680Z,english_594.wav,0,0,963,24,4,Chinese,m,7,0.7,-71.33031091,0.91947698
LLG,18,0,2024-06-14T14:40:01.680Z,english_594.wav,0,0,963,24,4,Chinese,m,8,0.8,8.29148897,0.21678931
LLG,18,0,2024-06-14T14:40:01.680Z,english_594.wav,0,0,963,24,4,Chinese,m,9,0.9,42.69425852,1.1378317
LLG,18,0,2024-06-14T14:40:01.680Z,english_594.wav,0,0,963,24,4,Chinese,m,10,1,-32.82046223,1.58275183
LLG,18,0,2024-06-14T14:40:01.680Z,english_594.wav,0,0,963,24,4,Chinese,m,11,1.09391667,-55.40353935,1.87399103
LLG,19,0,2024-06-14T14:40:01.680Z,english_246.wav,0,0,1058,24,4,Chinese,m,0,0,65.19555702,1.04626937
LLG,19,0,2024-06-14T14:40:01.680Z,english_246.wav,0,0,1058,24,4,Chinese,m,1,0.1,-88.31116696,1.63597079
LLG,19,0,2024-06-14T14:40:01.680Z,english_246.wav,0,0,1058,24,4,Chinese,m,2,0.2,-87.15645837,1.95419498
LLG,19,0,2024-06-14T14:40:01.680Z,english_246.wav,0,0,1058,24,4,Chinese,m,3,0.3,57.84934166,0.56872665
LLG,19,0,2024-06-14T14:40:01.680Z,english_246.wav,0,0,1058,24,4,Chinese,m,4,0.4,-76.45557784,0.40309221
LLG,19,0,2024-06-14T14:40:01.680Z,english_246.wav,0,0,1058,24,4,Chinese,m,5,0.5,66.32688278,1.93282921
LLG,19,0,2024-06-14T14:40:01.680Z,english_246.wav,0,0,1058,24,4,Chinese,m,6,0.6,93.44738027,1.28213971
LLG,19,0,2024-06-14T14:40:01.680Z,english_246.wav,0,0,1058,24,4,Chinese,m,7,0.7,54.7923908,1.70127241
LLG,19,0,2024-06-14T14:40:01.680Z,english_246.wav,0,0,1058,24,4,Chinese,m,8,0.8,-1.38437059,0.15014799
LLG,19,0,2024-06-14T14:40:01.680Z,english_246.wav,0,0,1058,24,4,Chinese,m,9,0.9,5.22264847,1.21649106
LLG,19,0,2024-06-14T14:40:01.680Z,english_246.wav,0,0,1058,24,4,Chinese,m,10,1,-11.85909484,1.48942771
LLG,19,0,2024-06-14T14:40:01.680Z,english_246.wav,0,0,1058,24,4,Chinese,m,11,1.09391667,65.00290812,0.35768018
LLG,20,0,2024-06-14T14:40:01.680Z,english_281.wav,0,1,377,24,4,Chinese,m,0,0,-6.91929945,1.49696204
LLG,20,0,2024-06-14T14:40:01.680Z,english_281.wav,0,1,377,24,4,Chinese,m,1,0.1,-25.44932046,1.38956204
LLG,20,0,2024-06-14T14:40:01.680Z,english_281.wav,0,1,377,24,4,Chinese,m,2,0.2,-43.70872046,0.8964952
LLG,20,0,2024-06-14T14:40:01.680Z,english_281.wav,0,1,377,24,4,Chinese,m,3,0.3,-18.3101874,0.52852326
LLG,20,0,2024-06-14T14:40:01.680Z,english_281.wav,0,1,377,24,4,Chinese,m,4,0.4,86.16338552,0.8625919
LLG,20,0,2024-06-14T14:40:01.680Z,english_281.wav,0,1,377,24,4,Chinese,m,5,0.5,49.26346324,1.51743083
LLG,20,0,2024-06-14T14:40:01.680Z,english_281.wav,0,1,377,24,4,Chinese,m,6,0.6,79.40576686,0.79009251
LLG,20,0,2024-06-14T14:40:01.680Z,english_281.wav,0,1,377,24,4,Chinese,m,7,0.7,85.96397413,0.18987002
LLG,20,0,2024-06-14T14:40:01.680Z,english_281.wav,0,1,377,24,4,Chinese,m,8,0.8,-82.16790218,1.11136212
LLG,20,0,2024-06-14T14:40:01.680Z,english_281.wav,0,1,377,24,4,Chinese,m,9,0.9,53.88469083,1.69337287
LLG,20,0,2024-06-14T14:40:01.680Z,english_281.wav,0,1,377,24,4,Chinese,m,10,1,30.1327539,0.62990301
LLG,20,0,2024-06-14T14:40:01.680Z,english_281.wav,0,1,377,24,4,Chinese,m,11,1.09391667,-24.86364002,1.33770256
LLG,21,0,2024-06-14T14:40:01.680Z,english_905.wav,0,0,965,24,4,Chinese,m,0,0,-38.82719082,0.64550094
LLG,21,0,2024-06-14T14:40:01.680Z,english_905.wav,0,0,965,24,4,Chinese,m,1,0.1,91.73556094,1.31053491
LLG,21,0,2024-06-14T14:40:01.680Z,english_905.wav,0,0,965,24,4,Chinese,m,2,0.2,-44.32627421,0.47707545
LLG,21,0,2024-06-14T14:40:01.680Z,english_905.wav,0,0,965,24,4,Chinese,m,3,0.3,-65.11156064,0.49456239
LLG,21,0,2024-06-14T14:40:01.680Z,english_905.wav,0,0,965,24,4,Chinese,m,4,0.4,-48.38956406,0.97248604
LLG,21,0,2024-06-14T14:40:01.680Z,english_905.wav,0,0,965,24,4,Chinese,m,5,0.5,-66.93781594,0.82967407
LLG,21,0,2024-06-14T14:40:01.680Z,english_905.wav,0,0,965,24,4,Chinese,m,6,0.6,-31.37264091,0.41334293
LLG,21,0,2024-06-14T14:40:01.680Z,english_905.wav,0,0,965,24,4,Chinese,m,7,0.7,-76.42119949,0.8386705
LLG,21,0,2024-06-14T14:40:01.680Z,english_905.wav,0,0,965,24,4,Chinese,m,8,0.8,90.55453052,0.29898441
LLG,21,0,2024-06-14T14:40:01.680Z,english_905.wav,0,0,965,24,4,Chinese,m,9,0.9,-13.8538154,0.28325918
LLG,21,0,2024-06-14T14:40:01.680Z,english_905.wav,0,0,965,24,4,Chinese,m,10,1,10.60108282,0.58400342
LLG,21,0,2024-06-14T14:40:01.680Z,english_905.wav,0,0,965,24,4,Chinese,m,11,1.09391667,-16.89815331,0.41677525
LLG,22,0,2024-06-14T14:40:01.680Z,english_780.wav,0,1,762,24,4,Chinese,m,0,0,-87.5022813,1.98466869
LLG,22,0,2024-06-14T14:40:01.680Z,english_780.wav,0,1,762,24,4,Chinese,m,1,0.1,48.02010378,1.54311759
LLG,22,0,2024-06-14T14:40:01.680Z,english_780.wav,0,1,762,24,4,Chinese,m,2,0.2,83.84572734,0.61016867
LLG,22,0,2024-06-14T14:40:01.680Z,english_780.wav,0,1,762,24,4,Chinese,m,3,0.3,9.25847543,1.29361746
LLG,22,0,2024-06-14T14:40:01.680Z,english_780.wav,0,1,762,24,4,Chinese,m,4,0.4,49.97347861,0.77747475
LLG,22,0,2024-06-14T14:40:01.680Z,english_780.wav,0,1,762,24,4,Chinese,m,5,0.5,-60.69242488,1.18422754
LLG,22,0,2024-06-14T14:40:01.680Z,english_780.wav,0,1,762,24,4,Chinese,m,6,0.6,-21.82497806,0.82850866
LLG,22,0,2024-06-14T14:40:01.680Z,english_780.wav,0,1,762,24,4,Chinese,m,7,0.7,13.87798501,0.60760734
LLG,22,0,2024-06-14T14:40:01.680Z,english_780.wav,0,1,762,24,4,Chinese,m,8,0.8,32.41479889,0.87727466
LLG,22,0,2024-06-14T14:40:01.680Z,english_780.wav,0,1,762,24,4,Chinese,m,9,0.9,54.1006632,1.39371886
LLG,22,0,2024-06-14T14:40:01.680Z,english_780.wav,0,1,762,24,4,Chinese,m,10,1,-56.48325956,1.23252422
LLG,22,0,2024-06-14T14:40:01.680Z,english_780.wav,0,1,762,24,4,Chinese,m,11,1.09391667,96.27244158,0.39725777
LLG,23,0,2024-06-14T14:40:01.680Z,english_161.wav,0,1,573,24,4,Chinese,m,0,0,0.2450503,0.47001228
LLG,23,0,2024-06-14T14:40:01.680Z,english_161.wav,0,1,573,24,4,Chinese,m,1,0.1,41.86400045,1.24375119
LLG,23,0,2024-06-14T14:40:01.680Z,english_161.wav,0,1,573,24,4,Chinese,m,2,0.2,3.22348346,0.98802588
LLG,23,0,2024-06-14T14:40:01.680Z,english_161.wav,0,1,573,24,4,Chinese,m,3,0.3,-24.29894103,1.92952194
LLG,23,0,2024-06-14T14:40:01.680Z,english_161.wav,0,1,573,24,4,Chinese,m,4,0.4,66.4308336,0.84385332
LLG,23,0,2024-06-14T14:40:01.680Z,english_161.wav,0,1,573,24,4,Chinese,m,5,0.5,-79.52202924,0.34569188
LLG,23,0,2024-06-14T14:40:01.680Z,english_161.wav,0,1,573,24,4,Chinese,m,6,0.6,-4.00284897,1.46988057
LLG,23,0,2024-06-14T14:40:01.680Z,english_161.wav,0,1,573,24,4,Chinese,m,7,0.7,-82.69040612,0.94597317
LLG,23,0,2024-06-14T14:40:01.680Z,english_161.wav,0,1,573,24,4,Chinese,m,8,0.8,32.14289288,0.70955806
LLG,23,0,2024-06-14T14:40:01.680Z,english_161.wav,0,1,573,24,4,Chinese,m,9,0.9,-94.27188699,1.39207721
LLG,23,0,2024-06-14T14:40:01.680Z,english_161.wav,0,1,573,24,4,Chinese,m,10,1,-14.10162234,0.79549611
LLG,23,0,2024-06-14T14:40:01.680Z,english_161.wav,0,1,573,24,4,Chinese,m,11,1.09391667,27.39748728,1.7090018
LLG,24,0,2024-06-14T14:40:01.680Z,english_276.wav,0,0,686,24,4,Chinese,m,0,0,21.98586045,0.30932428
LLG,24,0,2024-06-14T14:40:01.680Z,english_276.wav,0,0,686,24,4,Chinese,m,1,0.1,-67.99860163,0.09597304
LLG,24,0,2024-06-14T14:40:01.680Z,english_276.wav,0,0,686,24,4,Chinese,m,2,0.2,25.17256123,1.83076822
LLG,24,0,2024-06-14T14:40:01.680Z,english_276.wav,0,0,686,24,4,Chinese,m,3,0.3,21.36527348,0.0831707
LLG,24,0,2024-06-14T14:40:01.680Z,english_276.wav,0,0,686,24,4,Chinese,m,4,0.4,35.76600766,1.62200671
LLG,24,0,2024-06-14T14:40:01.680Z,english_276.wav,0,0,686,24,4,Chinese,m,5,0.5,-7.15376156,1.09615837
LLG,24,0,2024-06-14T14:40:01.680Z,english_276.wav,0,0,686,24,4,Chinese,m,6,0.6,6.29513946,1.21666569
LLG,24,0,2024-06-14T14:40:01.680Z,english_276.wav,0,0,686,24,4,Chinese,m,7,0.7,-54.12906392,0.44734549
LLG,24,0,2024-06-14T14:40:01.680Z,english_276.wav,0,0,686,24,4,Chinese,m,8,0.8,17.42972017,0.42974841
LLG,24,0,2024-06-14T14:40:01.680Z,english_276.wav,0,0,686,24,4,Chinese,m,9,0.9,4.25119531,0.69082029
LLG,24,0,2024-06-14T14:40:01.680Z,english_276.wav,0,0,686,24,4,Chinese,m,10,1,-8.01806671,1.55074446
LLG,24,0,2024-06-14T14:40:01.680Z,english_276.wav,0,0,686,24,4,Chinese,m,11,1.09391667,17.7867456,1.15912049
LLG,25,0,2024-06-14T14:40:01.680Z,english_504.wav,0,0,610,24,4,Chinese,m,0,0,-66.23189197,1.64024725
LLG,25,0,2024-06-14T14:40:01.680Z,english_504.wav,0,0,610,24,4,Chinese,m,1,0.1,-7.28081394,1.33861833
LLG,25,0,2024-06-14T14:40:01.680Z,english_504.wav,0,0,610,24,4,Chinese,m,2,0.2,-74.05426979,0.21996253
LLG,25,0,2024-06-14T14:40:01.680Z,english_504.wav,0,0,610,24,4,Chinese,m,3,0.3,-2.17834407,0.9295354
LLG,25,0,2024-06-14T14:40:01.680Z,english_504.wav,0,0,610,24,4,Chinese,m,4,0.4,-44.29553612,0.18867482
LLG,25,0,2024-06-14T14:40:01.680Z,english_504.wav,0,0,610,24,4,Chinese,m,5,0.5,-21.93882769,0.17745141
LLG,25,0,2024-06-14T14:40:01.680Z,english_504.wav,0,0,610,24,4,Chinese,m,6,0.6,-6.80381408,1.36415298
LLG,25,0,2024-06-14T14:40:01.680Z,english_504.wav,0,0,610,24,4,Chinese,m,7,0.7,9.00050206,1.08571676
LLG,25,0,2024-06-14T14:40:01.680Z,english_504.wav,0,0,610,24,4,Chinese,m,8,0.8,-19.58321875,1.38544941
LLG,25,0,2024-06-14T14:40:01.680Z,english_504.wav,0,0,610,24,4,Chinese,m,9,0.9,-97.27632106,0.33380342
LLG,25,0,2024-06-14T14:40:01.680Z,english_504.wav,0,0,610,24,4,Chinese,m,10,1,94.36582119,0.16971293
LLG,25,0,2024-06-14T14:40:01.680Z,english_504.wav,0,0,610,24,4,Chinese,m,11,1.09391667,-77.55415354,0.89224977
LLG,26,0,2024-06-14T14:40:01.680Z,english_848.wav,0,0,606,24,4,Chinese,m,0,0,16.27018666,0.42429773
LLG,26,0,2024-06-14T14:40:01.680Z,english_848.wav,0,0,606,24,4,Chinese,m,1,0.1,-74.75395213,0.55671169
LLG,26,0,2024-06-14T14:40:01.680Z,english_848.wav,0,0,606,24,4,Chinese,m,2,0.2,55.44859949,0.96508228
LLG,26,0,2024-06-14T14:40:01.680Z,english_848.wav,0,0,606,24,4,Chinese,m,3,0.3,-32.83945411,0.7665276
LLG,26,0,2024-06-14T14:40:01.680Z,english_848.wav,0,0,606,24,4,Chinese,m,4,0.4,30.01434436,0.96341741
LLG,26,0,2024-06-14T14:40:01.680Z,english_848.wav,0,0,606,24,4,Chinese,m,5,0.5,48.58281319,0.06275252
LLG,26,0,2024-06-14T14:40:01.680Z,english_848.wav,0,0,606,24,4,Chinese,m,6,0.6,-85.68192699,0.89297301
LLG,26,0,2024-06-14T14:40:01.680Z,english_848.wav,0,0,606,24,4,Chinese,m,7,0.7,27.03943406,0.16213779
LLG,26,0,2024-06-14T14:40:01.680Z,english_848.wav,0,0,606,24,4,Chinese,m,8,0.8,14.64264022,1.88232235
LLG,26,0,2024-06-14T14:40:01.680Z,english_848.wav,0,0,606,24,4,Chinese,m,9,0.9,-60.92798451,1.9298227
LLG,26,0,2024-06-14T14:40:01.680Z,english_848.wav,0,0,606,24,4,Chinese,m,10,1,-13.82637474,0.08076178
LLG,26,0,2024-06-14T14:40:01.680Z,english_848.wav,0,0,606,24,4,Chinese,m,11,1.09391667,-65.39894946,1.11155621
LLG,27,0,2024-06-14T14:40:01.680Z,english_746.wav,0,0,607,24,4,Chinese,m,0,0,-17.85129661,0.72236584
LLG,27,0,2024-06-14T14:40:01.680Z,english_746.wav,0,0,607,24,4,Chinese,m,1,0.1,44.49284576,1.69903141
LLG,27,0,2024-06-14T14:40:01.680Z,english_746.wav,0,0,607,24,4,Chinese,m,2,0.2,-28.07602373,1.83658278
LLG,27,0,2024-06-14T14:40:01.680Z,english_746.wav,0,0,607,24,4,Chinese,m,3,0.3,80.79649727,0.38437005
LLG,27,0,2024-06-14T14:40:01.680Z,english_746.wav,0,0,607,24,4,Chinese,m,4,0.4,-35.87476706,0.19777168
LLG,27,0,2024-06-14T14:40:01.680Z,english_746.wav,0,0,607,24,4,Chinese,m,5,0.5,-13.61927607,0.81094496
LLG,27,0,2024-06-14T14:40:01.680Z,english_746.wav,0,0,607,24,4,Chinese,m,6,0.6,-13.45090469,0.04159101
LLG,27,0,2024-06-14T14:40:01.680Z,english_746.wav,0,0,607,24,4,Chinese,m,7,0.7,74.7415388,0.34194607
LLG,27,0,2024-06-14T14:40:01.680Z,english_746.wav,0,0,607,24,4,Chinese,m,8,0.8,-73.80839868,1.34456722
LLG,27,0,2024-06-14T14:40:01.680Z,english_746.wav,0,0,607,24,4,Chinese,m,9,0.9,16.67710805,0.32922526
LLG,27,0,2024-06-14T14:40:01.680Z,english_746.wav,0,0,607,24,4,Chinese,m,10,1,90.26780737,0.60956501
LLG,27,0,2024-06-14T14:40:01.680Z,english_746.wav,0,0,607,24,4,Chinese,m,11,1.09391667,-18.98803571,1.98648295
LLG,28,0,2024-06-14T14:40:01.680Z,english_267.wav,0,0,447,24,4,Chinese,m,0,0,-20.34373052,1.22339913
LLG,28,0,2024-06-14T14:40:01.680Z,english_267.wav,0,0,447,24,4,Chinese,m,1,0.1,-8.01422086,0.37157124
LLG,28,0,2024-06-14T14:40:01.680Z,english_267.wav,0,0,447,24,4,Chinese,m,2,0.2,93.04230665,0.88881734
LLG,28,0,2024-06-14T14:40:01.680Z,english_267.wav,0,0,447,24,4,Chinese,m,3,0.3,41.74649662,0.98806935
LLG,28,0,2024-06-14T14:40:01.680Z,english_267.wav,0,0,447,24,4,Chinese,m,4,0.4,-13.67169735,1.63374899
LLG,28,0,2024-06-14T14:40:01.680Z,english_267.wav,0,0,447,24,4,Chinese,m,5,0.5,42.92753135,1.27803897
LLG,28,0,2024-06-14T14:40:01.680Z,english_267.wav,0,0,447,24,4,Chinese,m,6,0.6,-31.66614436,0.65843477
LLG,28,0,2024-06-14T14:40:01.680Z,english_267.wav,0,0,447,24,4,Chinese,m,7,0.7,-46.69110061,1.12503577
LLG,28,0,2024-06-14T14:40:01.680Z,english_267.wav,0,0,447,24,4,Chinese,m,8,0.8,96.69640531,1.26069156
LLG,28,0,2024-06-14T14:40:01.680Z,english_267.wav,0,0,447,24,4,Chinese,m,9,0.9,-51.1349073,0.35873403
LLG,28,0,2024-06-14T14:40:01.680Z,english_267.wav,0,0,447,24,4,Chinese,m,10,1,-31.48458059,1.24202174
LLG,28,0,2024-06-14T14:40:01.680Z,english_267.wav,0,0,447,24,4,Chinese,m,11,1.09391667,82.51520959,1.58881388
LLG,29,0,2024-06-14T14:40:01.680Z,english_304.wav,0,0,1118,24,4,Chinese,m,0,0,96.43315713,1.4273089
LLG,29,0,2024-06-14T14:40:01.680Z,english_304.wav,0,0,1118,24,4,Chinese,m,1,0.1,95.93138412,1.40169358
LLG,29,0,2024-06-14T14:40:01.680Z,english_304.wav,0,0,1118,24,4,Chinese,m,2,0.2,65.83383482,1.37134036
LLG,29,0,2024-06-14T14:40:01.680Z,english_304.wav,0,0,1118,24,4,Chinese,m,3,0.3,84.09537744,0.09577365
LLG,29,0,2024-06-14T14:40:01.680Z,english_304.wav,0,0,1118,24,4,Chinese,m,4,0.4,-66.2474925,1.82897854
LLG,29,0,2024-06-14T14:40:01.680Z,english_304.wav,0,0,1118,24,4,Chinese,m,5,0.5,93.4095627,0.08231512
LLG,29,0,2024-06-14T14:40:01.680Z,english_304.wav,0,0,1118,24,4,Chinese,m,6,0.6,-1.11643,0.16260787
LLG,29,0,2024-06-14T14:40:01.680Z,english_304.wav,0,0,1118,24,4,Chinese,m,7,0.7,-9.86041812,1.3997004
LLG,29,0,2024-06-14T14:40:01.680Z,english_304.wav,0,0,1118,24,4,Chinese,m,8,0.8,-26.38054207,0.11489059
LLG,29,0,2024-06-14T14:40:01.680Z,english_304.wav,0,0,1118,24,4,Chinese,m,9,0.9,9.25483922,1.90722294
LLG,29,0,2024-06-14T14:40:01.680Z,english_304.wav,0,0,1118,24,4,Chinese,m,10,1,-76.37569973,1.30374267
LLG,29,0,2024-06-14T14:40:01.680Z,english_304.wav,0,0,1118,24,4,Chinese,m,11,1.09391667,-10.54226117,1.55839178
LLG,30,0,2024-06-14T14:40:01.680Z,english_180.wav,0,0,569,24,4,Chinese,m,0,0,42.85478744,0.49645543
LLG,30,0,2024-06-14T14:40:01.680Z,english_180.wav,0,0,569,24,4,Chinese,m,1,0.1,11.60642133,1.40377655
LLG,30,0,2024-06-14T14:40:01.680Z,english_180.wav,0,0,569,24,4,Chinese,m,2,0.2,-27.38772625,0.70453688
LLG,30,0,2024-06-14T14:40:01.680Z,english_180.wav,0,0,569,24,4,Chinese,m,3,0.3,80.41560742,1.01697082
LLG,30,0,2024-06-14T14:40:01.680Z,english_180.wav,0,0,569,24,4,Chinese,m,4,0.4,-67.11843031,0.59692665
LLG,30,0,2024-06-14T14:40:01.680Z,english_180.wav,0,0,569,24,4,Chinese,m,5,0.5,25.47679572,0.43242047
LLG,30,0,2024-06-14T14:40:01.680Z,english_180.wav,0,0,569,24,4,Chinese,m,6,0.6,29.48556379,0.65503898
LLG,30,0,2024-06-14T14:40:01.680Z,english_180.wav,0,0,569,24,4,Chinese,m,7,0.7,-62.53851543,1.14916488
LLG,30,0,2024-06-14T14:40:01.680Z,english_180.wav,0,0,569,24,4,Chinese,m,8,0.8,-49.48041885,0.12826618
LLG,30,0,2024-06-14T14:40:01.680Z,english_180.wav,0,0,569,24,4,Chinese,m,9,0.9,29.80835172,1.82068044
LLG,30,0,2024-06-14T14:40:01.680Z,english_180.wav,0,0,569,24,4,Chinese,m,10,1,83.85336689,1.93281092
LLG,30,0,2024-06-14T14:40:01.680Z,english_180.wav,0,0,569,24,4,Chinese,m,11,1.09391667,-22.17498974,1.38105191
LLG,31,0,2024-06-14T14:40:01.680Z,english_712.wav,0,1,737,24,4,Chinese,m,0,0,-23.1463857,0.37379236
LLG,31,0,2024-06-14T14:40:01.680Z,english_712.wav,0,1,737,24,4,Chinese,m,1,0.1,24.6800968,1.67699004
LLG,31,0,2024-06-14T14:40:01.680Z,english_712.wav,0,1,737,24,4,Chinese,m,2,0.2,0.0161964332,1.79701075
LLG,31,0,2024-06-14T14:40:01.680Z,english_712.wav,0,1,737,24,4,Chinese,m,3,0.3,-17.6606804,0.97598087
LLG,31,0,2024-06-14T14:40:01.680Z,english_712.wav,0,1,737,24,4,Chinese,m,4,0.4,0.366433398,0.364202
LLG,31,0,2024-06-14T14:40:01.680Z,english_712.wav,0,1,737,24,4,Chinese,m,5,0.5,92.1731967,1.74943947
LLG,31,0,2024-06-14T14:40:01.680Z,english_712.wav,0,1,737,24,4,Chinese,m,6,0.6,37.7445609,0.51022449
LLG,31,0,2024-06-14T14:40:01.680Z,english_712.wav,0,1,737,24,4,Chinese,m,7,0.7,36.1997785,1.89888437
LLG,31,0,2024-06-14T14:40:01.680Z,english_712.wav,0,1,737,24,4,Chinese,m,8,0.8,68.1982864,1.17858578
LLG,31,0,2024-06-14T14:40:01.680Z,english_712.wav,0,1,737,24,4,Chinese,m,9,0.9,89.0317309,0.87832213
LLG,31,0,2024-06-14T14:40:01.680Z,english_712.wav,0,1,737,24,4,Chinese,m,10,1,-18.2298461,1.72214889
LLG,31,0,2024-06-14T14:40:01.680Z,english_712.wav,0,1,737,24,4,Chinese,m,11,1.09391667,4.18738238,0.60066774
LLG,32,0,2024-06-14T14:40:01.680Z,english_335.wav,0,0,1046,24,4,Chinese,m,0,0,41.80743468,1.01381682
LLG,32,0,2024-06-14T14:40:01.680Z,english_335.wav,0,0,1046,24,4,Chinese,m,1,0.1,-95.17376615,1.5620604
LLG,32,0,2024-06-14T14:40:01.680Z,english_335.wav,0,0,1046,24,4,Chinese,m,2,0.2,39.98208272,0.19265383
LLG,32,0,2024-06-14T14:40:01.680Z,english_335.wav,0,0,1046,24,4,Chinese,m,3,0.3,-46.35703256,1.42247653
LLG,32,0,2024-06-14T14:40:01.680Z,english_335.wav,0,0,1046,24,4,Chinese,m,4,0.4,24.82145544,0.70328136
LLG,32,0,2024-06-14T14:40:01.680Z,english_335.wav,0,0,1046,24,4,Chinese,m,5,0.5,-31.00133873,1.01966488
LLG,32,0,2024-06-14T14:40:01.680Z,english_335.wav,0,0,1046,24,4,Chinese,m,6,0.6,-26.38344945,1.23451824
LLG,32,0,2024-06-14T14:40:01.680Z,english_335.wav,0,0,1046,24,4,Chinese,m,7,0.7,86.60347,0.55082158
LLG,32,0,2024-06-14T14:40:01.680Z,english_335.wav,0,0,1046,24,4,Chinese,m,8,0.8,-70.37080157,0.451758
LLG,32,0,2024-06-14T14:40:01.680Z,english_335.wav,0,0,1046,24,4,Chinese,m,9,0.9,61.18063824,0.68398752
LLG,32,0,2024-06-14T14:40:01.680Z,english_335.wav,0,0,1046,24,4,Chinese,m,10,1,-30.21404124,0.79476381
LLG,32,0,2024-06-14T14:40:01.680Z,english_335.wav,0,0,1046,24,4,Chinese,m,11,1.09391667,-36.90555067,1.69556673
LLG,33,0,2024-06-14T14:40:01.680Z,english_526.wav,0,0,742,24,4,Chinese,m,0,0,8.34861985,0.818467978
LLG,33,0,2024-06-14T14:40:01.680Z,english_526.wav,0,0,742,24,4,Chinese,m,1,0.1,4.68771873,1.47842566
LLG,33,0,2024-06-14T14:40:01.680Z,english_526.wav,0,0,742,24,4,Chinese,m,2,0.2,53.60731048,1.2919312
LLG,33,0,2024-06-14T14:40:01.680Z,english_526.wav,0,0,742,24,4,Chinese,m,3,0.3,59.31550311,0.0000036729241
LLG,33,0,2024-06-14T14:40:01.680Z,english_526.wav,0,0,742,24,4,Chinese,m,4,0.4,72.50237706,1.30202935
LLG,33,0,2024-06-14T14:40:01.680Z,english_526.wav,0,0,742,24,4,Chinese,m,5,0.5,35.8849844,0.436504023
LLG,33,0,2024-06-14T14:40:01.680Z,english_526.wav,0,0,742,24,4,Chinese,m,6,0.6,74.11215821,1.72509944
LLG,33,0,2024-06-14T14:40:01.680Z,english_526.wav,0,0,742,24,4,Chinese,m,7,0.7,55.59683057,0.555064149
LLG,33,0,2024-06-14T14:40:01.680Z,english_526.wav,0,0,742,24,4,Chinese,m,8,0.8,-27.47924079,0.322124551
LLG,33,0,2024-06-14T14:40:01.680Z,english_526.wav,0,0,742,24,4,Chinese,m,9,0.9,6.32801867,0.203468589
LLG,33,0,2024-06-14T14:40:01.680Z,english_526.wav,0,0,742,24,4,Chinese,m,10,1,17.73622103,0.814562372
LLG,33,0,2024-06-14T14:40:01.680Z,english_526.wav,0,0,742,24,4,Chinese,m,11,1.09391667,57.44538819,1.24257204
LLG,34,0,2024-06-14T14:40:01.680Z,english_958.wav,0,0,546,24,4,Chinese,m,0,0,82.24324258,1.82058144
LLG,34,0,2024-06-14T14:40:01.680Z,english_958.wav,0,0,546,24,4,Chinese,m,1,0.1,80.86962612,1.23603782
LLG,34,0,2024-06-14T14:40:01.680Z,english_958.wav,0,0,546,24,4,Chinese,m,2,0.2,-72.80020936,0.454026
LLG,34,0,2024-06-14T14:40:01.680Z,english_958.wav,0,0,546,24,4,Chinese,m,3,0.3,76.49424807,0.0052754
LLG,34,0,2024-06-14T14:40:01.680Z,english_958.wav,0,0,546,24,4,Chinese,m,4,0.4,-64.96103848,1.08282214
LLG,34,0,2024-06-14T14:40:01.680Z,english_958.wav,0,0,546,24,4,Chinese,m,5,0.5,-28.48200693,1.85144542
LLG,34,0,2024-06-14T14:40:01.680Z,english_958.wav,0,0,546,24,4,Chinese,m,6,0.6,36.24392724,1.26196062
LLG,34,0,2024-06-14T14:40:01.680Z,english_958.wav,0,0,546,24,4,Chinese,m,7,0.7,61.50604074,1.03215922
LLG,34,0,2024-06-14T14:40:01.680Z,english_958.wav,0,0,546,24,4,Chinese,m,8,0.8,-15.49344292,0.62598284
LLG,34,0,2024-06-14T14:40:01.680Z,english_958.wav,0,0,546,24,4,Chinese,m,9,0.9,94.8143858,0.44294081
LLG,34,0,2024-06-14T14:40:01.680Z,english_958.wav,0,0,546,24,4,Chinese,m,10,1,-29.01167878,0.91164636
LLG,34,0,2024-06-14T14:40:01.680Z,english_958.wav,0,0,546,24,4,Chinese,m,11,1.09391667,29.83149857,0.09783427
LLG,35,0,2024-06-14T14:40:01.680Z,english_263.wav,0,0,770,24,4,Chinese,m,0,0,60.54836266,0.88286661
LLG,35,0,2024-06-14T14:40:01.680Z,english_263.wav,0,0,770,24,4,Chinese,m,1,0.1,-7.25947701,0.15523443
LLG,35,0,2024-06-14T14:40:01.680Z,english_263.wav,0,0,770,24,4,Chinese,m,2,0.2,57.3147166,0.89947763
LLG,35,0,2024-06-14T14:40:01.680Z,english_263.wav,0,0,770,24,4,Chinese,m,3,0.3,-54.27216299,1.94594407
LLG,35,0,2024-06-14T14:40:01.680Z,english_263.wav,0,0,770,24,4,Chinese,m,4,0.4,-55.29215067,0.36252841
LLG,35,0,2024-06-14T14:40:01.680Z,english_263.wav,0,0,770,24,4,Chinese,m,5,0.5,-35.67260064,0.43064253
LLG,35,0,2024-06-14T14:40:01.680Z,english_263.wav,0,0,770,24,4,Chinese,m,6,0.6,64.27930659,0.12649613
LLG,35,0,2024-06-14T14:40:01.680Z,english_263.wav,0,0,770,24,4,Chinese,m,7,0.7,39.11312223,0.99935682
LLG,35,0,2024-06-14T14:40:01.680Z,english_263.wav,0,0,770,24,4,Chinese,m,8,0.8,-36.26628423,0.98138808
LLG,35,0,2024-06-14T14:40:01.680Z,english_263.wav,0,0,770,24,4,Chinese,m,9,0.9,24.26738527,1.68351405
LLG,35,0,2024-06-14T14:40:01.680Z,english_263.wav,0,0,770,24,4,Chinese,m,10,1,43.73514677,0.97417267
LLG,35,0,2024-06-14T14:40:01.680Z,english_263.wav,0,0,770,24,4,Chinese,m,11,1.09391667,-15.47335433,0.42659576
LLG,36,0,2024-06-14T14:40:01.680Z,english_829.wav,0,0,420,24,4,Chinese,m,0,0,-7.89955856,0.852516
LLG,36,0,2024-06-14T14:40:01.680Z,english_829.wav,0,0,420,24,4,Chinese,m,1,0.1,-18.01769042,0.97788956
LLG,36,0,2024-06-14T14:40:01.680Z,english_829.wav,0,0,420,24,4,Chinese,m,2,0.2,57.48418942,1.32810397
LLG,36,0,2024-06-14T14:40:01.680Z,english_829.wav,0,0,420,24,4,Chinese,m,3,0.3,41.9687918,0.18108064
LLG,36,0,2024-06-14T14:40:01.680Z,english_829.wav,0,0,420,24,4,Chinese,m,4,0.4,-61.64702177,0.15705118
LLG,36,0,2024-06-14T14:40:01.680Z,english_829.wav,0,0,420,24,4,Chinese,m,5,0.5,-20.29007911,0.66571436
LLG,36,0,2024-06-14T14:40:01.680Z,english_829.wav,0,0,420,24,4,Chinese,m,6,0.6,93.24496902,0.20869504
LLG,36,0,2024-06-14T14:40:01.680Z,english_829.wav,0,0,420,24,4,Chinese,m,7,0.7,-32.99482484,1.27621492
LLG,36,0,2024-06-14T14:40:01.680Z,english_829.wav,0,0,420,24,4,Chinese,m,8,0.8,6.59233546,1.10768251
LLG,36,0,2024-06-14T14:40:01.680Z,english_829.wav,0,0,420,24,4,Chinese,m,9,0.9,-90.87646181,1.10361444
LLG,36,0,2024-06-14T14:40:01.680Z,english_829.wav,0,0,420,24,4,Chinese,m,10,1,9.72736643,0.98320382
LLG,36,0,2024-06-14T14:40:01.680Z,english_829.wav,0,0,420,24,4,Chinese,m,11,1.09391667,-11.26207351,1.01672444
LLG,37,0,2024-06-14T14:40:01.680Z,english_227.wav,0,1,837,24,4,Chinese,m,0,0,87.02540196,1.45120071
LLG,37,0,2024-06-14T14:40:01.680Z,english_227.wav,0,1,837,24,4,Chinese,m,1,0.1,-87.16855408,1.99718195
LLG,37,0,2024-06-14T14:40:01.680Z,english_227.wav,0,1,837,24,4,Chinese,m,2,0.2,13.6128173,0.6126104
LLG,37,0,2024-06-14T14:40:01.680Z,english_227.wav,0,1,837,24,4,Chinese,m,3,0.3,25.59592298,0.97530447
LLG,37,0,2024-06-14T14:40:01.680Z,english_227.wav,0,1,837,24,4,Chinese,m,4,0.4,3.06661623,1.74861281
LLG,37,0,2024-06-14T14:40:01.680Z,english_227.wav,0,1,837,24,4,Chinese,m,5,0.5,-6.41872275,1.95931784
LLG,37,0,2024-06-14T14:40:01.680Z,english_227.wav,0,1,837,24,4,Chinese,m,6,0.6,-40.97922684,1.44262054
LLG,37,0,2024-06-14T14:40:01.680Z,english_227.wav,0,1,837,24,4,Chinese,m,7,0.7,-51.74632522,0.76385193
LLG,37,0,2024-06-14T14:40:01.680Z,english_227.wav,0,1,837,24,4,Chinese,m,8,0.8,-35.50720635,0.83123806
LLG,37,0,2024-06-14T14:40:01.680Z,english_227.wav,0,1,837,24,4,Chinese,m,9,0.9,-52.46041148,1.0121191
LLG,37,0,2024-06-14T14:40:01.680Z,english_227.wav,0,1,837,24,4,Chinese,m,10,1,-5.55255579,1.39124165
LLG,37,0,2024-06-14T14:40:01.680Z,english_227.wav,0,1,837,24,4,Chinese,m,11,1.09391667,92.65490635,1.37791309
LLG,38,0,2024-06-14T14:40:01.680Z,english_992.wav,0,1,825,24,4,Chinese,m,0,0,-5.15788791,0.02044401
LLG,38,0,2024-06-14T14:40:01.680Z,english_992.wav,0,1,825,24,4,Chinese,m,1,0.1,87.86739991,0.14748193
LLG,38,0,2024-06-14T14:40:01.680Z,english_992.wav,0,1,825,24,4,Chinese,m,2,0.2,-74.96538965,1.08794539
LLG,38,0,2024-06-14T14:40:01.680Z,english_992.wav,0,1,825,24,4,Chinese,m,3,0.3,51.5508712,1.90839795
LLG,38,0,2024-06-14T14:40:01.680Z,english_992.wav,0,1,825,24,4,Chinese,m,4,0.4,55.84577921,0.11098659
LLG,38,0,2024-06-14T14:40:01.680Z,english_992.wav,0,1,825,24,4,Chinese,m,5,0.5,-73.81356171,1.14044774
LLG,38,0,2024-06-14T14:40:01.680Z,english_992.wav,0,1,825,24,4,Chinese,m,6,0.6,-70.33946252,0.24836029
LLG,38,0,2024-06-14T14:40:01.680Z,english_992.wav,0,1,825,24,4,Chinese,m,7,0.7,-76.12910815,1.64559676
LLG,38,0,2024-06-14T14:40:01.680Z,english_992.wav,0,1,825,24,4,Chinese,m,8,0.8,-38.0545779,1.57501427
LLG,38,0,2024-06-14T14:40:01.680Z,english_992.wav,0,1,825,24,4,Chinese,m,9,0.9,-5.26509044,0.82338834
LLG,38,0,2024-06-14T14:40:01.680Z,english_992.wav,0,1,825,24,4,Chinese,m,10,1,33.43231637,0.44386037
LLG,38,0,2024-06-14T14:40:01.680Z,english_992.wav,0,1,825,24,4,Chinese,m,11,1.09391667,-37.46452433,0.70783957
LLG,39,0,2024-06-14T14:40:01.680Z,english_171.wav,0,0,1809,24,4,Chinese,m,0,0,57.16640714,0.48953769
LLG,39,0,2024-06-14T14:40:01.680Z,english_171.wav,0,0,1809,24,4,Chinese,m,1,0.1,74.54839728,1.15474794
LLG,39,0,2024-06-14T14:40:01.680Z,english_171.wav,0,0,1809,24,4,Chinese,m,2,0.2,95.75678202,1.06369724
LLG,39,0,2024-06-14T14:40:01.680Z,english_171.wav,0,0,1809,24,4,Chinese,m,3,0.3,39.99051632,0.94070076
LLG,39,0,2024-06-14T14:40:01.680Z,english_171.wav,0,0,1809,24,4,Chinese,m,4,0.4,-6.66803256,0.05995963
LLG,39,0,2024-06-14T14:40:01.680Z,english_171.wav,0,0,1809,24,4,Chinese,m,5,0.5,-11.42556478,0.94038212
LLG,39,0,2024-06-14T14:40:01.680Z,english_171.wav,0,0,1809,24,4,Chinese,m,6,0.6,-61.08204703,1.30766084
LLG,39,0,2024-06-14T14:40:01.680Z,english_171.wav,0,0,1809,24,4,Chinese,m,7,0.7,-47.00718825,1.96472455
LLG,39,0,2024-06-14T14:40:01.680Z,english_171.wav,0,0,1809,24,4,Chinese,m,8,0.8,-62.88052724,0.35350446
LLG,39,0,2024-06-14T14:40:01.680Z,english_171.wav,0,0,1809,24,4,Chinese,m,9,0.9,-55.43761186,0.65278216
LLG,39,0,2024-06-14T14:40:01.680Z,english_171.wav,0,0,1809,24,4,Chinese,m,10,1,-25.22707532,1.06452254
LLG,39,0,2024-06-14T14:40:01.680Z,english_171.wav,0,0,1809,24,4,Chinese,m,11,1.09391667,72.94956576,0.49293676
LLG,40,0,2024-06-14T14:40:01.680Z,english_375.wav,0,0,462,24,4,Chinese,m,0,0,-66.54027977,1.30902013
LLG,40,0,2024-06-14T14:40:01.680Z,english_375.wav,0,0,462,24,4,Chinese,m,1,0.1,72.08787066,1.77420651
LLG,40,0,2024-06-14T14:40:01.680Z,english_375.wav,0,0,462,24,4,Chinese,m,2,0.2,-56.77584869,1.24550761
LLG,40,0,2024-06-14T14:40:01.680Z,english_375.wav,0,0,462,24,4,Chinese,m,3,0.3,-36.97947012,0.68148521
LLG,40,0,2024-06-14T14:40:01.680Z,english_375.wav,0,0,462,24,4,Chinese,m,4,0.4,43.73402827,1.5097978
LLG,40,0,2024-06-14T14:40:01.680Z,english_375.wav,0,0,462,24,4,Chinese,m,5,0.5,19.53034116,0.87895003
LLG,40,0,2024-06-14T14:40:01.680Z,english_375.wav,0,0,462,24,4,Chinese,m,6,0.6,-35.65016919,0.57287352
LLG,40,0,2024-06-14T14:40:01.680Z,english_375.wav,0,0,462,24,4,Chinese,m,7,0.7,12.37356045,0.19847139
LLG,40,0,2024-06-14T14:40:01.680Z,english_375.wav,0,0,462,24,4,Chinese,m,8,0.8,-24.97795402,1.57884859
LLG,40,0,2024-06-14T14:40:01.680Z,english_375.wav,0,0,462,24,4,Chinese,m,9,0.9,57.77915604,1.32641243
LLG,40,0,2024-06-14T14:40:01.680Z,english_375.wav,0,0,462,24,4,Chinese,m,10,1,-30.716589,0.36090675
LLG,40,0,2024-06-14T14:40:01.680Z,english_375.wav,0,0,462,24,4,Chinese,m,11,1.09391667,78.48935482,1.90030926
LLG,41,0,2024-06-14T14:40:01.680Z,english_649.wav,0,0,713,24,4,Chinese,m,0,0,54.13337143,0.90685718
LLG,41,0,2024-06-14T14:40:01.680Z,english_649.wav,0,0,713,24,4,Chinese,m,1,0.1,51.13672213,0.97028986
LLG,41,0,2024-06-14T14:40:01.680Z,english_649.wav,0,0,713,24,4,Chinese,m,2,0.2,-46.53747516,0.5338014
LLG,41,0,2024-06-14T14:40:01.680Z,english_649.wav,0,0,713,24,4,Chinese,m,3,0.3,-5.04561857,1.37151822
LLG,41,0,2024-06-14T14:40:01.680Z,english_649.wav,0,0,713,24,4,Chinese,m,4,0.4,-96.10296837,1.19898074
LLG,41,0,2024-06-14T14:40:01.680Z,english_649.wav,0,0,713,24,4,Chinese,m,5,0.5,91.1633791,0.83288569
LLG,41,0,2024-06-14T14:40:01.680Z,english_649.wav,0,0,713,24,4,Chinese,m,6,0.6,40.43734858,1.46195871
LLG,41,0,2024-06-14T14:40:01.680Z,english_649.wav,0,0,713,24,4,Chinese,m,7,0.7,-6.34456649,0.52535218
LLG,41,0,2024-06-14T14:40:01.680Z,english_649.wav,0,0,713,24,4,Chinese,m,8,0.8,-47.75781838,0.56197414
LLG,41,0,2024-06-14T14:40:01.680Z,english_649.wav,0,0,713,24,4,Chinese,m,9,0.9,-30.94847666,1.41697717
LLG,41,0,2024-06-14T14:40:01.680Z,english_649.wav,0,0,713,24,4,Chinese,m,10,1,-10.84084503,1.24330897
LLG,41,0,2024-06-14T14:40:01.680Z,english_649.wav,0,0,713,24,4,Chinese,m,11,1.09391667,16.60657514,0.55891177
LLG,42,0,2024-06-14T14:40:01.680Z,english_1000.wav,0,1,660,24,4,Chinese,m,0,0,-1.5072561,0.91946401
LLG,42,0,2024-06-14T14:40:01.680Z,english_1000.wav,0,1,660,24,4,Chinese,m,1,0.1,39.79014661,1.39592101
LLG,42,0,2024-06-14T14:40:01.680Z,english_1000.wav,0,1,660,24,4,Chinese,m,2,0.2,58.76846959,0.5487596
LLG,42,0,2024-06-14T14:40:01.680Z,english_1000.wav,0,1,660,24,4,Chinese,m,3,0.3,28.54889901,1.20778852
LLG,42,0,2024-06-14T14:40:01.680Z,english_1000.wav,0,1,660,24,4,Chinese,m,4,0.4,-74.34288484,0.05870568
LLG,42,0,2024-06-14T14:40:01.680Z,english_1000.wav,0,1,660,24,4,Chinese,m,5,0.5,7.94862856,1.40576818
LLG,42,0,2024-06-14T14:40:01.680Z,english_1000.wav,0,1,660,24,4,Chinese,m,6,0.6,75.96899765,0.56511458
LLG,42,0,2024-06-14T14:40:01.680Z,english_1000.wav,0,1,660,24,4,Chinese,m,7,0.7,20.32286843,0.44257477
LLG,42,0,2024-06-14T14:40:01.680Z,english_1000.wav,0,1,660,24,4,Chinese,m,8,0.8,6.51139675,0.97037601
LLG,42,0,2024-06-14T14:40:01.680Z,english_1000.wav,0,1,660,24,4,Chinese,m,9,0.9,95.873103,1.4916368
LLG,42,0,2024-06-14T14:40:01.680Z,english_1000.wav,0,1,660,24,4,Chinese,m,10,1,76.48547212,1.12595485
LLG,42,0,2024-06-14T14:40:01.680Z,english_1000.wav,0,1,660,24,4,Chinese,m,11,1.09391667,42.88935731,1.31879984
LLG,43,0,2024-06-14T14:40:01.680Z,english_619.wav,0,1,680,24,4,Chinese,m,0,0,-41.0924044,1.71942116
LLG,43,0,2024-06-14T14:40:01.680Z,english_619.wav,0,1,680,24,4,Chinese,m,1,0.1,-7.96280913,1.03534148
LLG,43,0,2024-06-14T14:40:01.680Z,english_619.wav,0,1,680,24,4,Chinese,m,2,0.2,-87.23866402,1.90474628
LLG,43,0,2024-06-14T14:40:01.680Z,english_619.wav,0,1,680,24,4,Chinese,m,3,0.3,-49.33627733,1.25465254
LLG,43,0,2024-06-14T14:40:01.680Z,english_619.wav,0,1,680,24,4,Chinese,m,4,0.4,-9.049641,0.872658
LLG,43,0,2024-06-14T14:40:01.680Z,english_619.wav,0,1,680,24,4,Chinese,m,5,0.5,-44.96771142,0.88442624
LLG,43,0,2024-06-14T14:40:01.680Z,english_619.wav,0,1,680,24,4,Chinese,m,6,0.6,-40.79885207,0.90889779
LLG,43,0,2024-06-14T14:40:01.680Z,english_619.wav,0,1,680,24,4,Chinese,m,7,0.7,40.82825876,0.65121567
LLG,43,0,2024-06-14T14:40:01.680Z,english_619.wav,0,1,680,24,4,Chinese,m,8,0.8,-20.59710474,0.05436153
LLG,43,0,2024-06-14T14:40:01.680Z,english_619.wav,0,1,680,24,4,Chinese,m,9,0.9,39.88878166,1.54961319
LLG,43,0,2024-06-14T14:40:01.680Z,english_619.wav,0,1,680,24,4,Chinese,m,10,1,26.7856421,0.36194851
LLG,43,0,2024-06-14T14:40:01.680Z,english_619.wav,0,1,680,24,4,Chinese,m,11,1.09391667,40.93095409,0.79464548
LLG,44,0,2024-06-14T14:40:01.680Z,english_471.wav,0,1,283,24,4,Chinese,m,0,0,-44.33438949,1.24178701
LLG,44,0,2024-06-14T14:40:01.680Z,english_471.wav,0,1,283,24,4,Chinese,m,1,0.1,16.47774329,1.49559335
LLG,44,0,2024-06-14T14:40:01.680Z,english_471.wav,0,1,283,24,4,Chinese,m,2,0.2,-22.18014429,1.46207388
LLG,44,0,2024-06-14T14:40:01.680Z,english_471.wav,0,1,283,24,4,Chinese,m,3,0.3,96.62980594,0.79768684
LLG,44,0,2024-06-14T14:40:01.680Z,english_471.wav,0,1,283,24,4,Chinese,m,4,0.4,0.22905681,0.93952191
LLG,44,0,2024-06-14T14:40:01.680Z,english_471.wav,0,1,283,24,4,Chinese,m,5,0.5,25.29876176,1.31580264
LLG,44,0,2024-06-14T14:40:01.680Z,english_471.wav,0,1,283,24,4,Chinese,m,6,0.6,-1.90422532,0.66385174
LLG,44,0,2024-06-14T14:40:01.680Z,english_471.wav,0,1,283,24,4,Chinese,m,7,0.7,20.77355212,0.36428101
LLG,44,0,2024-06-14T14:40:01.680Z,english_471.wav,0,1,283,24,4,Chinese,m,8,0.8,26.61706742,1.49472861
LLG,44,0,2024-06-14T14:40:01.680Z,english_471.wav,0,1,283,24,4,Chinese,m,9,0.9,-76.46197336,1.78460372
LLG,44,0,2024-06-14T14:40:01.680Z,english_471.wav,0,1,283,24,4,Chinese,m,10,1,74.78681403,1.14119983
LLG,44,0,2024-06-14T14:40:01.680Z,english_471.wav,0,1,283,24,4,Chinese,m,11,1.09391667,70.35269737,0.45644683
LLG,45,0,2024-06-14T14:40:01.680Z,english_918.wav,0,0,891,24,4,Chinese,m,0,0,7.81141633,1.24491342
LLG,45,0,2024-06-14T14:40:01.680Z,english_918.wav,0,0,891,24,4,Chinese,m,1,0.1,82.72316881,0.03757961
LLG,45,0,2024-06-14T14:40:01.680Z,english_918.wav,0,0,891,24,4,Chinese,m,2,0.2,30.05807571,1.14238595
LLG,45,0,2024-06-14T14:40:01.680Z,english_918.wav,0,0,891,24,4,Chinese,m,3,0.3,-70.58941721,0.04886902
LLG,45,0,2024-06-14T14:40:01.680Z,english_918.wav,0,0,891,24,4,Chinese,m,4,0.4,-65.52419577,0.89349405
LLG,45,0,2024-06-14T14:40:01.680Z,english_918.wav,0,0,891,24,4,Chinese,m,5,0.5,-8.01629029,0.46427507
LLG,45,0,2024-06-14T14:40:01.680Z,english_918.wav,0,0,891,24,4,Chinese,m,6,0.6,16.78163005,1.22953669
LLG,45,0,2024-06-14T14:40:01.680Z,english_918.wav,0,0,891,24,4,Chinese,m,7,0.7,72.93916831,1.878364
LLG,45,0,2024-06-14T14:40:01.680Z,english_918.wav,0,0,891,24,4,Chinese,m,8,0.8,-2.28760557,0.42759123
LLG,45,0,2024-06-14T14:40:01.680Z,english_918.wav,0,0,891,24,4,Chinese,m,9,0.9,-18.70975913,0.20519841
LLG,45,0,2024-06-14T14:40:01.680Z,english_918.wav,0,0,891,24,4,Chinese,m,10,1,1.09551631,1.09007735
LLG,45,0,2024-06-14T14:40:01.680Z,english_918.wav,0,0,891,24,4,Chinese,m,11,1.09391667,-2.64797824,0.32770208
LLG,46,0,2024-06-14T14:40:01.680Z,english_811.wav,0,1,847,24,4,Chinese,m,0,0,-74.87697924,0.45507787
LLG,46,0,2024-06-14T14:40:01.680Z,english_811.wav,0,1,847,24,4,Chinese,m,1,0.1,96.86117413,1.76793824
LLG,46,0,2024-06-14T14:40:01.680Z,english_811.wav,0,1,847,24,4,Chinese,m,2,0.2,10.72305858,0.84862028
LLG,46,0,2024-06-14T14:40:01.680Z,english_811.wav,0,1,847,24,4,Chinese,m,3,0.3,48.56085209,0.62727309
LLG,46,0,2024-06-14T14:40:01.680Z,english_811.wav,0,1,847,24,4,Chinese,m,4,0.4,-99.82729779,1.03490246
LLG,46,0,2024-06-14T14:40:01.680Z,english_811.wav,0,1,847,24,4,Chinese,m,5,0.5,79.99074979,1.90507478
LLG,46,0,2024-06-14T14:40:01.680Z,english_811.wav,0,1,847,24,4,Chinese,m,6,0.6,-9.67190631,0.06135305
LLG,46,0,2024-06-14T14:40:01.680Z,english_811.wav,0,1,847,24,4,Chinese,m,7,0.7,-89.53034614,0.24955368
LLG,46,0,2024-06-14T14:40:01.680Z,english_811.wav,0,1,847,24,4,Chinese,m,8,0.8,84.53947336,0.72917007
LLG,46,0,2024-06-14T14:40:01.680Z,english_811.wav,0,1,847,24,4,Chinese,m,9,0.9,-76.82386536,1.5042388
LLG,46,0,2024-06-14T14:40:01.680Z,english_811.wav,0,1,847,24,4,Chinese,m,10,1,-19.04963958,1.60193394
LLG,46,0,2024-06-14T14:40:01.680Z,english_811.wav,0,1,847,24,4,Chinese,m,11,1.09391667,78.79317252,0.72084905
LLG,47,0,2024-06-14T14:40:01.680Z,english_596.wav,0,0,867,24,4,Chinese,m,0,0,-42.68859768,1.28071693
LLG,47,0,2024-06-14T14:40:01.680Z,english_596.wav,0,0,867,24,4,Chinese,m,1,0.1,67.29414518,0.77411838
LLG,47,0,2024-06-14T14:40:01.680Z,english_596.wav,0,0,867,24,4,Chinese,m,2,0.2,-56.57562289,1.32627092
LLG,47,0,2024-06-14T14:40:01.680Z,english_596.wav,0,0,867,24,4,Chinese,m,3,0.3,71.30769152,0.49089119
LLG,47,0,2024-06-14T14:40:01.680Z,english_596.wav,0,0,867,24,4,Chinese,m,4,0.4,95.1886681,0.72473062
LLG,47,0,2024-06-14T14:40:01.680Z,english_596.wav,0,0,867,24,4,Chinese,m,5,0.5,72.69751936,1.52798236
LLG,47,0,2024-06-14T14:40:01.680Z,english_596.wav,0,0,867,24,4,Chinese,m,6,0.6,62.43561612,1.79088814
LLG,47,0,2024-06-14T14:40:01.680Z,english_596.wav,0,0,867,24,4,Chinese,m,7,0.7,-87.58634469,1.96984618
LLG,47,0,2024-06-14T14:40:01.680Z,english_596.wav,0,0,867,24,4,Chinese,m,8,0.8,-28.77393345,1.38508216
LLG,47,0,2024-06-14T14:40:01.680Z,english_596.wav,0,0,867,24,4,Chinese,m,9,0.9,-89.27970112,1.05217053
LLG,47,0,2024-06-14T14:40:01.680Z,english_596.wav,0,0,867,24,4,Chinese,m,10,1,-11.13754725,1.15113027
LLG,47,0,2024-06-14T14:40:01.680Z,english_596.wav,0,0,867,24,4,Chinese,m,11,1.09391667,-71.54799937,0.49767302
LLG,48,0,2024-06-14T14:40:01.680Z,english_843.wav,0,1,461,24,4,Chinese,m,0,0,13.87584617,1.27519345
LLG,48,0,2024-06-14T14:40:01.680Z,english_843.wav,0,1,461,24,4,Chinese,m,1,0.1,17.53714881,0.4999323
LLG,48,0,2024-06-14T14:40:01.680Z,english_843.wav,0,1,461,24,4,Chinese,m,2,0.2,70.72069662,1.20187255
LLG,48,0,2024-06-14T14:40:01.680Z,english_843.wav,0,1,461,24,4,Chinese,m,3,0.3,14.49652428,0.99598265
LLG,48,0,2024-06-14T14:40:01.680Z,english_843.wav,0,1,461,24,4,Chinese,m,4,0.4,-65.08259112,1.86186318
LLG,48,0,2024-06-14T14:40:01.680Z,english_843.wav,0,1,461,24,4,Chinese,m,5,0.5,26.6308795,0.44944471
LLG,48,0,2024-06-14T14:40:01.680Z,english_843.wav,0,1,461,24,4,Chinese,m,6,0.6,-80.57084842,0.60839379
LLG,48,0,2024-06-14T14:40:01.680Z,english_843.wav,0,1,461,24,4,Chinese,m,7,0.7,-48.22210442,1.68983896
LLG,48,0,2024-06-14T14:40:01.680Z,english_843.wav,0,1,461,24,4,Chinese,m,8,0.8,-90.5256354,1.90866012
LLG,48,0,2024-06-14T14:40:01.680Z,english_843.wav,0,1,461,24,4,Chinese,m,9,0.9,39.07951266,0.50710565
LLG,48,0,2024-06-14T14:40:01.680Z,english_843.wav,0,1,461,24,4,Chinese,m,10,1,-12.6282176,1.80732727
LLG,48,0,2024-06-14T14:40:01.680Z,english_843.wav,0,1,461,24,4,Chinese,m,11,1.09391667,-11.67818775,0.54311362
LLG,49,0,2024-06-14T14:40:01.680Z,english_345.wav,0,0,489,24,4,Chinese,m,0,0,-34.02990991,1.8609144
LLG,49,0,2024-06-14T14:40:01.680Z,english_345.wav,0,0,489,24,4,Chinese,m,1,0.1,-88.27975281,1.48233205
LLG,49,0,2024-06-14T14:40:01.680Z,english_345.wav,0,0,489,24,4,Chinese,m,2,0.2,-1.56807316,0.71166641
LLG,49,0,2024-06-14T14:40:01.680Z,english_345.wav,0,0,489,24,4,Chinese,m,3,0.3,-28.98585365,0.21699581
LLG,49,0,2024-06-14T14:40:01.680Z,english_345.wav,0,0,489,24,4,Chinese,m,4,0.4,83.28491736,1.65978529
LLG,49,0,2024-06-14T14:40:01.680Z,english_345.wav,0,0,489,24,4,Chinese,m,5,0.5,-16.11421398,0.84551922
LLG,49,0,2024-06-14T14:40:01.680Z,english_345.wav,0,0,489,24,4,Chinese,m,6,0.6,-92.22378926,0.60808254
LLG,49,0,2024-06-14T14:40:01.680Z,english_345.wav,0,0,489,24,4,Chinese,m,7,0.7,50.09737337,1.24136652
LLG,49,0,2024-06-14T14:40:01.680Z,english_345.wav,0,0,489,24,4,Chinese,m,8,0.8,11.89135809,0.61250032
LLG,49,0,2024-06-14T14:40:01.680Z,english_345.wav,0,0,489,24,4,Chinese,m,9,0.9,86.57873929,0.42246236
LLG,49,0,2024-06-14T14:40:01.680Z,english_345.wav,0,0,489,24,4,Chinese,m,10,1,15.84417261,0.8731046
LLG,49,0,2024-06-14T14:40:01.680Z,english_345.wav,0,0,489,24,4,Chinese,m,11,1.09391667,22.95884771,1.62586913
LLG,50,1,2024-06-14T14:40:01.680Z,english_114.wav,0,0,522,24,4,Chinese,m,0,0,-38.33361484,0.25479749
LLG,50,1,2024-06-14T14:40:01.680Z,english_114.wav,0,0,522,24,4,Chinese,m,1,0.1,-12.76602364,1.23857364
LLG,50,1,2024-06-14T14:40:01.680Z,english_114.wav,0,0,522,24,4,Chinese,m,2,0.2,0.32729235,0.44881648
LLG,50,1,2024-06-14T14:40:01.680Z,english_114.wav,0,0,522,24,4,Chinese,m,3,0.3,-29.2958396,1.47628631
LLG,50,1,2024-06-14T14:40:01.680Z,english_114.wav,0,0,522,24,4,Chinese,m,4,0.4,-44.05321795,1.29960212
LLG,50,1,2024-06-14T14:40:01.680Z,english_114.wav,0,0,522,24,4,Chinese,m,5,0.5,77.26891482,0.86625142
LLG,50,1,2024-06-14T14:40:01.680Z,english_114.wav,0,0,522,24,4,Chinese,m,6,0.6,-80.80990528,1.18678323
LLG,50,1,2024-06-14T14:40:01.680Z,english_114.wav,0,0,522,24,4,Chinese,m,7,0.7,-78.02585179,0.40341658
LLG,50,1,2024-06-14T14:40:01.680Z,english_114.wav,0,0,522,24,4,Chinese,m,8,0.8,14.37560873,0.69236485
LLG,50,1,2024-06-14T14:40:01.680Z,english_114.wav,0,0,522,24,4,Chinese,m,9,0.9,-41.68954869,0.99173078
LLG,50,1,2024-06-14T14:40:01.680Z,english_114.wav,0,0,522,24,4,Chinese,m,10,1,-51.42719285,0.71091923
LLG,50,1,2024-06-14T14:40:01.680Z,english_114.wav,0,0,522,24,4,Chinese,m,11,1.09391667,29.02505558,1.73837671
LLG,51,1,2024-06-14T14:40:01.680Z,english_208.wav,0,0,538,24,4,Chinese,m,0,0,13.17731857,0.34094022
LLG,51,1,2024-06-14T14:40:01.680Z,english_208.wav,0,0,538,24,4,Chinese,m,1,0.1,13.38844503,0.19016609
LLG,51,1,2024-06-14T14:40:01.680Z,english_208.wav,0,0,538,24,4,Chinese,m,2,0.2,-2.93736893,0.78973148
LLG,51,1,2024-06-14T14:40:01.680Z,english_208.wav,0,0,538,24,4,Chinese,m,3,0.3,65.128601,1.45881618
LLG,51,1,2024-06-14T14:40:01.680Z,english_208.wav,0,0,538,24,4,Chinese,m,4,0.4,53.87360247,1.41599405
LLG,51,1,2024-06-14T14:40:01.680Z,english_208.wav,0,0,538,24,4,Chinese,m,5,0.5,-0.34021564,1.39781882
LLG,51,1,2024-06-14T14:40:01.680Z,english_208.wav,0,0,538,24,4,Chinese,m,6,0.6,-58.53870567,0.32952238
LLG,51,1,2024-06-14T14:40:01.680Z,english_208.wav,0,0,538,24,4,Chinese,m,7,0.7,-81.74346202,0.80753811
LLG,51,1,2024-06-14T14:40:01.680Z,english_208.wav,0,0,538,24,4,Chinese,m,8,0.8,-87.40484801,0.14343543
LLG,51,1,2024-06-14T14:40:01.680Z,english_208.wav,0,0,538,24,4,Chinese,m,9,0.9,-0.74903693,1.78385386
LLG,51,1,2024-06-14T14:40:01.680Z,english_208.wav,0,0,538,24,4,Chinese,m,10,1,44.66507116,1.76017797
LLG,51,1,2024-06-14T14:40:01.680Z,english_208.wav,0,0,538,24,4,Chinese,m,11,1.09391667,86.63877281,0.82405184
LLG,52,1,2024-06-14T14:40:01.680Z,english_23.wav,0,1,3727,24,4,Chinese,m,0,0,-81.37820874,0.766267
LLG,52,1,2024-06-14T14:40:01.680Z,english_23.wav,0,1,3727,24,4,Chinese,m,1,0.1,78.5335862,0.99963617
LLG,52,1,2024-06-14T14:40:01.680Z,english_23.wav,0,1,3727,24,4,Chinese,m,2,0.2,2.49490295,0.86356333
LLG,52,1,2024-06-14T14:40:01.680Z,english_23.wav,0,1,3727,24,4,Chinese,m,3,0.3,-86.79579175,1.2935249
LLG,52,1,2024-06-14T14:40:01.680Z,english_23.wav,0,1,3727,24,4,Chinese,m,4,0.4,67.70163639,1.06200742
LLG,52,1,2024-06-14T14:40:01.680Z,english_23.wav,0,1,3727,24,4,Chinese,m,5,0.5,15.95354821,0.35652914
LLG,52,1,2024-06-14T14:40:01.680Z,english_23.wav,0,1,3727,24,4,Chinese,m,6,0.6,39.96363373,0.94623028
LLG,52,1,2024-06-14T14:40:01.680Z,english_23.wav,0,1,3727,24,4,Chinese,m,7,0.7,26.12658962,1.75391992
LLG,52,1,2024-06-14T14:40:01.680Z,english_23.wav,0,1,3727,24,4,Chinese,m,8,0.8,-97.91039736,0.51382587
LLG,52,1,2024-06-14T14:40:01.680Z,english_23.wav,0,1,3727,24,4,Chinese,m,9,0.9,-31.02807756,0.42089134
LLG,52,1,2024-06-14T14:40:01.680Z,english_23.wav,0,1,3727,24,4,Chinese,m,10,1,-20.21947661,0.35251111
LLG,52,1,2024-06-14T14:40:01.680Z,english_23.wav,0,1,3727,24,4,Chinese,m,11,1.09391667,-62.16065677,0.28724109
LLG,53,1,2024-06-14T14:40:01.680Z,english_726.wav,0,0,1071,24,4,Chinese,m,0,0,23.35137092,0.15397845
LLG,53,1,2024-06-14T14:40:01.680Z,english_726.wav,0,0,1071,24,4,Chinese,m,1,0.1,76.34325819,1.80908671
LLG,53,1,2024-06-14T14:40:01.680Z,english_726.wav,0,0,1071,24,4,Chinese,m,2,0.2,77.87153215,0.91237222
LLG,53,1,2024-06-14T14:40:01.680Z,english_726.wav,0,0,1071,24,4,Chinese,m,3,0.3,45.89033074,0.3916486
LLG,53,1,2024-06-14T14:40:01.680Z,english_726.wav,0,0,1071,24,4,Chinese,m,4,0.4,-92.46008591,1.60354114
LLG,53,1,2024-06-14T14:40:01.680Z,english_726.wav,0,0,1071,24,4,Chinese,m,5,0.5,-89.27810563,0.90173572
LLG,53,1,2024-06-14T14:40:01.680Z,english_726.wav,0,0,1071,24,4,Chinese,m,6,0.6,61.30206765,1.86939155
LLG,53,1,2024-06-14T14:40:01.680Z,english_726.wav,0,0,1071,24,4,Chinese,m,7,0.7,68.07705407,0.57523975
LLG,53,1,2024-06-14T14:40:01.680Z,english_726.wav,0,0,1071,24,4,Chinese,m,8,0.8,47.81218941,0.88835081
LLG,53,1,2024-06-14T14:40:01.680Z,english_726.wav,0,0,1071,24,4,Chinese,m,9,0.9,85.67647673,0.33175344
LLG,53,1,2024-06-14T14:40:01.680Z,english_726.wav,0,0,1071,24,4,Chinese,m,10,1,69.08166842,0.8335266
LLG,53,1,2024-06-14T14:40:01.680Z,english_726.wav,0,0,1071,24,4,Chinese,m,11,1.09391667,71.61978118,0.36613886
LLG,54,1,2024-06-14T14:40:01.680Z,english_53.wav,0,1,549,24,4,Chinese,m,0,0,-9.98510741,0.74460472
LLG,54,1,2024-06-14T14:40:01.680Z,english_53.wav,0,1,549,24,4,Chinese,m,1,0.1,90.79697624,1.15408397
LLG,54,1,2024-06-14T14:40:01.680Z,english_53.wav,0,1,549,24,4,Chinese,m,2,0.2,-13.66139315,1.79328536
LLG,54,1,2024-06-14T14:40:01.680Z,english_53.wav,0,1,549,24,4,Chinese,m,3,0.3,-58.03832427,1.05093724
LLG,54,1,2024-06-14T14:40:01.680Z,english_53.wav,0,1,549,24,4,Chinese,m,4,0.4,-14.2879771,0.44247057
LLG,54,1,2024-06-14T14:40:01.680Z,english_53.wav,0,1,549,24,4,Chinese,m,5,0.5,-9.92334291,0.88826362
LLG,54,1,2024-06-14T14:40:01.680Z,english_53.wav,0,1,549,24,4,Chinese,m,6,0.6,48.00852586,1.51515328
LLG,54,1,2024-06-14T14:40:01.680Z,english_53.wav,0,1,549,24,4,Chinese,m,7,0.7,-7.96828411,1.78598668
LLG,54,1,2024-06-14T14:40:01.680Z,english_53.wav,0,1,549,24,4,Chinese,m,8,0.8,3.91211897,0.80456615
LLG,54,1,2024-06-14T14:40:01.680Z,english_53.wav,0,1,549,24,4,Chinese,m,9,0.9,9.32007469,0.44108586
LLG,54,1,2024-06-14T14:40:01.680Z,english_53.wav,0,1,549,24,4,Chinese,m,10,1,-65.1483507,1.43639609
LLG,54,1,2024-06-14T14:40:01.680Z,english_53.wav,0,1,549,24,4,Chinese,m,11,1.09391667,-31.85609608,1.915162
LLG,55,1,2024-06-14T14:40:01.680Z,english_759.wav,0,0,1185,24,4,Chinese,m,0,0,-17.33169853,1.81535326
LLG,55,1,2024-06-14T14:40:01.680Z,english_759.wav,0,0,1185,24,4,Chinese,m,1,0.1,46.34111356,1.35139774
LLG,55,1,2024-06-14T14:40:01.680Z,english_759.wav,0,0,1185,24,4,Chinese,m,2,0.2,-71.7209183,0.5699054
LLG,55,1,2024-06-14T14:40:01.680Z,english_759.wav,0,0,1185,24,4,Chinese,m,3,0.3,-52.63168455,1.64756314
LLG,55,1,2024-06-14T14:40:01.680Z,english_759.wav,0,0,1185,24,4,Chinese,m,4,0.4,-68.41292565,0.90731091
LLG,55,1,2024-06-14T14:40:01.680Z,english_759.wav,0,0,1185,24,4,Chinese,m,5,0.5,0.91746702,0.92295566
LLG,55,1,2024-06-14T14:40:01.680Z,english_759.wav,0,0,1185,24,4,Chinese,m,6,0.6,12.19475856,0.56476821
LLG,55,1,2024-06-14T14:40:01.680Z,english_759.wav,0,0,1185,24,4,Chinese,m,7,0.7,76.90509926,1.11964502
LLG,55,1,2024-06-14T14:40:01.680Z,english_759.wav,0,0,1185,24,4,Chinese,m,8,0.8,46.23586418,0.03868528
LLG,55,1,2024-06-14T14:40:01.680Z,english_759.wav,0,0,1185,24,4,Chinese,m,9,0.9,20.85455152,0.66706937
LLG,55,1,2024-06-14T14:40:01.680Z,english_759.wav,0,0,1185,24,4,Chinese,m,10,1,-48.8693925,1.91928995
LLG,55,1,2024-06-14T14:40:01.680Z,english_759.wav,0,0,1185,24,4,Chinese,m,11,1.09391667,-3.22971396,0.4347557
LLG,56,1,2024-06-14T14:40:01.680Z,english_428.wav,0,0,733,24,4,Chinese,m,0,0,81.83092524,1.65195738
LLG,56,1,2024-06-14T14:40:01.680Z,english_428.wav,0,0,733,24,4,Chinese,m,1,0.1,-80.13069751,1.50342219
LLG,56,1,2024-06-14T14:40:01.680Z,english_428.wav,0,0,733,24,4,Chinese,m,2,0.2,-11.65632902,1.06152039
LLG,56,1,2024-06-14T14:40:01.680Z,english_428.wav,0,0,733,24,4,Chinese,m,3,0.3,-46.08084266,0.87273268
LLG,56,1,2024-06-14T14:40:01.680Z,english_428.wav,0,0,733,24,4,Chinese,m,4,0.4,3.29741478,1.30041173
LLG,56,1,2024-06-14T14:40:01.680Z,english_428.wav,0,0,733,24,4,Chinese,m,5,0.5,38.2144639,1.27181021
LLG,56,1,2024-06-14T14:40:01.680Z,english_428.wav,0,0,733,24,4,Chinese,m,6,0.6,-36.34649143,1.2829939
LLG,56,1,2024-06-14T14:40:01.680Z,english_428.wav,0,0,733,24,4,Chinese,m,7,0.7,-64.94911042,0.80379216
LLG,56,1,2024-06-14T14:40:01.680Z,english_428.wav,0,0,733,24,4,Chinese,m,8,0.8,55.28808141,0.54976242
LLG,56,1,2024-06-14T14:40:01.680Z,english_428.wav,0,0,733,24,4,Chinese,m,9,0.9,-85.65631623,1.4846347
LLG,56,1,2024-06-14T14:40:01.680Z,english_428.wav,0,0,733,24,4,Chinese,m,10,1,45.03584187,0.86531381
LLG,56,1,2024-06-14T14:40:01.680Z,english_428.wav,0,0,733,24,4,Chinese,m,11,1.09391667,-22.28745039,0.63375774
LLG,57,1,2024-06-14T14:40:01.680Z,english_321.wav,0,1,1136,24,4,Chinese,m,0,0,-77.41334575,1.30726178
LLG,57,1,2024-06-14T14:40:01.680Z,english_321.wav,0,1,1136,24,4,Chinese,m,1,0.1,-61.98635838,0.09021545
LLG,57,1,2024-06-14T14:40:01.680Z,english_321.wav,0,1,1136,24,4,Chinese,m,2,0.2,63.85195092,1.50183321
LLG,57,1,2024-06-14T14:40:01.680Z,english_321.wav,0,1,1136,24,4,Chinese,m,3,0.3,29.6904451,0.65065228
LLG,57,1,2024-06-14T14:40:01.680Z,english_321.wav,0,1,1136,24,4,Chinese,m,4,0.4,-43.5045078,1.45081069
LLG,57,1,2024-06-14T14:40:01.680Z,english_321.wav,0,1,1136,24,4,Chinese,m,5,0.5,62.57170592,1.7661601
LLG,57,1,2024-06-14T14:40:01.680Z,english_321.wav,0,1,1136,24,4,Chinese,m,6,0.6,28.41559033,0.98052074
LLG,57,1,2024-06-14T14:40:01.680Z,english_321.wav,0,1,1136,24,4,Chinese,m,7,0.7,57.20206106,1.50508218
LLG,57,1,2024-06-14T14:40:01.680Z,english_321.wav,0,1,1136,24,4,Chinese,m,8,0.8,21.76754783,1.92892589
LLG,57,1,2024-06-14T14:40:01.680Z,english_321.wav,0,1,1136,24,4,Chinese,m,9,0.9,-93.37290208,0.5132303
LLG,57,1,2024-06-14T14:40:01.680Z,english_321.wav,0,1,1136,24,4,Chinese,m,10,1,-66.78585721,1.33865757
LLG,57,1,2024-06-14T14:40:01.680Z,english_321.wav,0,1,1136,24,4,Chinese,m,11,1.09391667,79.62121497,0.23870746
LLG,58,1,2024-06-14T14:40:01.680Z,english_662.wav,0,1,447,24,4,Chinese,m,0,0,31.31886637,0.51844492
LLG,58,1,2024-06-14T14:40:01.680Z,english_662.wav,0,1,447,24,4,Chinese,m,1,0.1,-45.58012984,1.26337535
LLG,58,1,2024-06-14T14:40:01.680Z,english_662.wav,0,1,447,24,4,Chinese,m,2,0.2,-36.67335117,1.47948125
LLG,58,1,2024-06-14T14:40:01.680Z,english_662.wav,0,1,447,24,4,Chinese,m,3,0.3,91.68908931,1.54973702
LLG,58,1,2024-06-14T14:40:01.680Z,english_662.wav,0,1,447,24,4,Chinese,m,4,0.4,99.42890358,1.40573319
LLG,58,1,2024-06-14T14:40:01.680Z,english_662.wav,0,1,447,24,4,Chinese,m,5,0.5,-75.06867948,0.46765036
LLG,58,1,2024-06-14T14:40:01.680Z,english_662.wav,0,1,447,24,4,Chinese,m,6,0.6,-53.3060983,1.29577772
LLG,58,1,2024-06-14T14:40:01.680Z,english_662.wav,0,1,447,24,4,Chinese,m,7,0.7,66.7707286,1.28176027
LLG,58,1,2024-06-14T14:40:01.680Z,english_662.wav,0,1,447,24,4,Chinese,m,8,0.8,69.18702853,1.79426909
LLG,58,1,2024-06-14T14:40:01.680Z,english_662.wav,0,1,447,24,4,Chinese,m,9,0.9,-16.72052533,0.76623174
LLG,58,1,2024-06-14T14:40:01.680Z,english_662.wav,0,1,447,24,4,Chinese,m,10,1,16.50634939,1.90203541
LLG,58,1,2024-06-14T14:40:01.680Z,english_662.wav,0,1,447,24,4,Chinese,m,11,1.09391667,79.32738685,1.85204165
LLG,59,1,2024-06-14T14:40:01.680Z,english_860.wav,0,1,516,24,4,Chinese,m,0,0,-75.11512177,0.5802678
LLG,59,1,2024-06-14T14:40:01.680Z,english_860.wav,0,1,516,24,4,Chinese,m,1,0.1,-76.73255409,0.63510207
LLG,59,1,2024-06-14T14:40:01.680Z,english_860.wav,0,1,516,24,4,Chinese,m,2,0.2,-22.8093588,1.68265606
LLG,59,1,2024-06-14T14:40:01.680Z,english_860.wav,0,1,516,24,4,Chinese,m,3,0.3,52.97738113,1.3480606
LLG,59,1,2024-06-14T14:40:01.680Z,english_860.wav,0,1,516,24,4,Chinese,m,4,0.4,-48.45234216,1.82238625
LLG,59,1,2024-06-14T14:40:01.680Z,english_860.wav,0,1,516,24,4,Chinese,m,5,0.5,-73.13735188,1.51063726
LLG,59,1,2024-06-14T14:40:01.680Z,english_860.wav,0,1,516,24,4,Chinese,m,6,0.6,-46.97684059,1.0243353
LLG,59,1,2024-06-14T14:40:01.680Z,english_860.wav,0,1,516,24,4,Chinese,m,7,0.7,-71.08749695,1.81300466
LLG,59,1,2024-06-14T14:40:01.680Z,english_860.wav,0,1,516,24,4,Chinese,m,8,0.8,63.11648415,1.10665048
LLG,59,1,2024-06-14T14:40:01.680Z,english_860.wav,0,1,516,24,4,Chinese,m,9,0.9,33.70639775,0.26575263
LLG,59,1,2024-06-14T14:40:01.680Z,english_860.wav,0,1,516,24,4,Chinese,m,10,1,39.70734852,1.65404894
LLG,59,1,2024-06-14T14:40:01.680Z,english_860.wav,0,1,516,24,4,Chinese,m,11,1.09391667,-93.86026271,1.66618104
LLG,60,1,2024-06-14T14:40:01.680Z,english_805.wav,0,0,1611,24,4,Chinese,m,0,0,19.24000096,0.52175854
LLG,60,1,2024-06-14T14:40:01.680Z,english_805.wav,0,0,1611,24,4,Chinese,m,1,0.1,-57.56428934,1.45107426
LLG,60,1,2024-06-14T14:40:01.680Z,english_805.wav,0,0,1611,24,4,Chinese,m,2,0.2,-17.74165003,1.66296684
LLG,60,1,2024-06-14T14:40:01.680Z,english_805.wav,0,0,1611,24,4,Chinese,m,3,0.3,94.45114709,1.339528
LLG,60,1,2024-06-14T14:40:01.680Z,english_805.wav,0,0,1611,24,4,Chinese,m,4,0.4,58.80414928,1.45905309
LLG,60,1,2024-06-14T14:40:01.680Z,english_805.wav,0,0,1611,24,4,Chinese,m,5,0.5,15.95265091,0.95701688
LLG,60,1,2024-06-14T14:40:01.680Z,english_805.wav,0,0,1611,24,4,Chinese,m,6,0.6,-64.01744173,0.10004415
LLG,60,1,2024-06-14T14:40:01.680Z,english_805.wav,0,0,1611,24,4,Chinese,m,7,0.7,-39.81720589,1.33408917
LLG,60,1,2024-06-14T14:40:01.680Z,english_805.wav,0,0,1611,24,4,Chinese,m,8,0.8,48.58222908,0.26158276
LLG,60,1,2024-06-14T14:40:01.680Z,english_805.wav,0,0,1611,24,4,Chinese,m,9,0.9,79.1348353,0.78316965
LLG,60,1,2024-06-14T14:40:01.680Z,english_805.wav,0,0,1611,24,4,Chinese,m,10,1,66.03274921,0.77046412
LLG,60,1,2024-06-14T14:40:01.680Z,english_805.wav,0,0,1611,24,4,Chinese,m,11,1.09391667,-37.34721406,0.38567889
LLG,61,1,2024-06-14T14:40:01.680Z,english_560.wav,0,0,546,24,4,Chinese,m,0,0,-58.05020857,1.72720005
LLG,61,1,2024-06-14T14:40:01.680Z,english_560.wav,0,0,546,24,4,Chinese,m,1,0.1,0.75359215,0.87170151
LLG,61,1,2024-06-14T14:40:01.680Z,english_560.wav,0,0,546,24,4,Chinese,m,2,0.2,-63.0427696,1.11137899
LLG,61,1,2024-06-14T14:40:01.680Z,english_560.wav,0,0,546,24,4,Chinese,m,3,0.3,-80.65695741,1.61210877
LLG,61,1,2024-06-14T14:40:01.680Z,english_560.wav,0,0,546,24,4,Chinese,m,4,0.4,30.22073259,0.77402776
LLG,61,1,2024-06-14T14:40:01.680Z,english_560.wav,0,0,546,24,4,Chinese,m,5,0.5,78.65082856,1.41240522
LLG,61,1,2024-06-14T14:40:01.680Z,english_560.wav,0,0,546,24,4,Chinese,m,6,0.6,-21.87019315,1.5310865
LLG,61,1,2024-06-14T14:40:01.680Z,english_560.wav,0,0,546,24,4,Chinese,m,7,0.7,-81.08775569,0.91259008
LLG,61,1,2024-06-14T14:40:01.680Z,english_560.wav,0,0,546,24,4,Chinese,m,8,0.8,-85.95097006,0.61355253
LLG,61,1,2024-06-14T14:40:01.680Z,english_560.wav,0,0,546,24,4,Chinese,m,9,0.9,55.61706947,0.53974683
LLG,61,1,2024-06-14T14:40:01.680Z,english_560.wav,0,0,546,24,4,Chinese,m,10,1,78.8186599,1.30815579
LLG,61,1,2024-06-14T14:40:01.680Z,english_560.wav,0,0,546,24,4,Chinese,m,11,1.09391667,-38.99290187,1.62027104
LLG,62,1,2024-06-14T14:40:01.680Z,english_239.wav,0,0,481,24,4,Chinese,m,0,0,-30.5267656,1.39175326
LLG,62,1,2024-06-14T14:40:01.680Z,english_239.wav,0,0,481,24,4,Chinese,m,1,0.1,86.9253709,0.20187761
LLG,62,1,2024-06-14T14:40:01.680Z,english_239.wav,0,0,481,24,4,Chinese,m,2,0.2,98.1444663,0.94285365
LLG,62,1,2024-06-14T14:40:01.680Z,english_239.wav,0,0,481,24,4,Chinese,m,3,0.3,3.73344739,0.80472341
LLG,62,1,2024-06-14T14:40:01.680Z,english_239.wav,0,0,481,24,4,Chinese,m,4,0.4,93.7963197,1.04208815
LLG,62,1,2024-06-14T14:40:01.680Z,english_239.wav,0,0,481,24,4,Chinese,m,5,0.5,3.55240778,1.26812124
LLG,62,1,2024-06-14T14:40:01.680Z,english_239.wav,0,0,481,24,4,Chinese,m,6,0.6,68.0566249,0.21560502
LLG,62,1,2024-06-14T14:40:01.680Z,english_239.wav,0,0,481,24,4,Chinese,m,7,0.7,-0.0862323076,1.00669433
LLG,62,1,2024-06-14T14:40:01.680Z,english_239.wav,0,0,481,24,4,Chinese,m,8,0.8,-20.3909635,0.33435282
LLG,62,1,2024-06-14T14:40:01.680Z,english_239.wav,0,0,481,24,4,Chinese,m,9,0.9,14.0711591,1.80648064
LLG,62,1,2024-06-14T14:40:01.680Z,english_239.wav,0,0,481,24,4,Chinese,m,10,1,-8.12414996,0.53666305
LLG,62,1,2024-06-14T14:40:01.680Z,english_239.wav,0,0,481,24,4,Chinese,m,11,1.09391667,57.1088195,0.81763806
LLG,63,1,2024-06-14T14:40:01.680Z,english_479.wav,0,0,613,24,4,Chinese,m,0,0,-34.7893931,1.93393565
LLG,63,1,2024-06-14T14:40:01.680Z,english_479.wav,0,0,613,24,4,Chinese,m,1,0.1,-71.34069905,0.26573691
LLG,63,1,2024-06-14T14:40:01.680Z,english_479.wav,0,0,613,24,4,Chinese,m,2,0.2,58.87573247,0.73981952
LLG,63,1,2024-06-14T14:40:01.680Z,english_479.wav,0,0,613,24,4,Chinese,m,3,0.3,-54.09913821,1.46667746
LLG,63,1,2024-06-14T14:40:01.680Z,english_479.wav,0,0,613,24,4,Chinese,m,4,0.4,43.12020224,0.55048015
LLG,63,1,2024-06-14T14:40:01.680Z,english_479.wav,0,0,613,24,4,Chinese,m,5,0.5,-44.41654249,0.62176048
LLG,63,1,2024-06-14T14:40:01.680Z,english_479.wav,0,0,613,24,4,Chinese,m,6,0.6,57.88290142,0.05220831
LLG,63,1,2024-06-14T14:40:01.680Z,english_479.wav,0,0,613,24,4,Chinese,m,7,0.7,-1.44997962,0.21971087
LLG,63,1,2024-06-14T14:40:01.680Z,english_479.wav,0,0,613,24,4,Chinese,m,8,0.8,89.72797502,0.30059048
LLG,63,1,2024-06-14T14:40:01.680Z,english_479.wav,0,0,613,24,4,Chinese,m,9,0.9,97.22467665,0.39403565
LLG,63,1,2024-06-14T14:40:01.680Z,english_479.wav,0,0,613,24,4,Chinese,m,10,1,52.11815336,1.20859565
LLG,63,1,2024-06-14T14:40:01.680Z,english_479.wav,0,0,613,24,4,Chinese,m,11,1.09391667,71.23188895,0.36818185
LLG,64,1,2024-06-14T14:40:01.680Z,english_426.wav,0,1,329,24,4,Chinese,m,0,0,-67.17987083,1.61589393
LLG,64,1,2024-06-14T14:40:01.680Z,english_426.wav,0,1,329,24,4,Chinese,m,1,0.1,70.02176421,1.03467422
LLG,64,1,2024-06-14T14:40:01.680Z,english_426.wav,0,1,329,24,4,Chinese,m,2,0.2,82.2704811,1.69488483
LLG,64,1,2024-06-14T14:40:01.680Z,english_426.wav,0,1,329,24,4,Chinese,m,3,0.3,-4.42560713,0.26984678
LLG,64,1,2024-06-14T14:40:01.680Z,english_426.wav,0,1,329,24,4,Chinese,m,4,0.4,-22.03224373,1.53427209
LLG,64,1,2024-06-14T14:40:01.680Z,english_426.wav,0,1,329,24,4,Chinese,m,5,0.5,-71.21536039,1.44135847
LLG,64,1,2024-06-14T14:40:01.680Z,english_426.wav,0,1,329,24,4,Chinese,m,6,0.6,23.47193627,0.91698709
LLG,64,1,2024-06-14T14:40:01.680Z,english_426.wav,0,1,329,24,4,Chinese,m,7,0.7,-95.21485964,0.33548871
LLG,64,1,2024-06-14T14:40:01.680Z,english_426.wav,0,1,329,24,4,Chinese,m,8,0.8,76.54647,1.77334308
LLG,64,1,2024-06-14T14:40:01.680Z,english_426.wav,0,1,329,24,4,Chinese,m,9,0.9,67.43828429,1.62177199
LLG,64,1,2024-06-14T14:40:01.680Z,english_426.wav,0,1,329,24,4,Chinese,m,10,1,-41.3478141,0.29474728
LLG,64,1,2024-06-14T14:40:01.680Z,english_426.wav,0,1,329,24,4,Chinese,m,11,1.09391667,-8.81391429,0.79627592
LLG,65,1,2024-06-14T14:40:01.680Z,english_846.wav,0,1,928,24,4,Chinese,m,0,0,47.64315726,0.95758586
LLG,65,1,2024-06-14T14:40:01.680Z,english_846.wav,0,1,928,24,4,Chinese,m,1,0.1,43.78617601,0.16218947
LLG,65,1,2024-06-14T14:40:01.680Z,english_846.wav,0,1,928,24,4,Chinese,m,2,0.2,-67.59598015,0.72860603
LLG,65,1,2024-06-14T14:40:01.680Z,english_846.wav,0,1,928,24,4,Chinese,m,3,0.3,75.82681519,0.60627127
LLG,65,1,2024-06-14T14:40:01.680Z,english_846.wav,0,1,928,24,4,Chinese,m,4,0.4,74.28596976,0.41876793
LLG,65,1,2024-06-14T14:40:01.680Z,english_846.wav,0,1,928,24,4,Chinese,m,5,0.5,40.48744531,1.23414848
LLG,65,1,2024-06-14T14:40:01.680Z,english_846.wav,0,1,928,24,4,Chinese,m,6,0.6,-65.90904049,1.54330327
LLG,65,1,2024-06-14T14:40:01.680Z,english_846.wav,0,1,928,24,4,Chinese,m,7,0.7,90.52035497,1.06483437
LLG,65,1,2024-06-14T14:40:01.680Z,english_846.wav,0,1,928,24,4,Chinese,m,8,0.8,-68.67205107,0.84380864
LLG,65,1,2024-06-14T14:40:01.680Z,english_846.wav,0,1,928,24,4,Chinese,m,9,0.9,8.67982792,0.84626324
LLG,65,1,2024-06-14T14:40:01.680Z,english_846.wav,0,1,928,24,4,Chinese,m,10,1,-64.09193989,1.29492524
LLG,65,1,2024-06-14T14:40:01.680Z,english_846.wav,0,1,928,24,4,Chinese,m,11,1.09391667,11.5113113,0.37776928
LLG,66,1,2024-06-14T14:40:01.680Z,english_865.wav,0,0,798,24,4,Chinese,m,0,0,86.1163895,0.19420048
LLG,66,1,2024-06-14T14:40:01.680Z,english_865.wav,0,0,798,24,4,Chinese,m,1,0.1,69.95513589,1.46581666
LLG,66,1,2024-06-14T14:40:01.680Z,english_865.wav,0,0,798,24,4,Chinese,m,2,0.2,-13.94671811,1.09876795
LLG,66,1,2024-06-14T14:40:01.680Z,english_865.wav,0,0,798,24,4,Chinese,m,3,0.3,-33.10342907,0.83580859
LLG,66,1,2024-06-14T14:40:01.680Z,english_865.wav,0,0,798,24,4,Chinese,m,4,0.4,-76.59504937,0.7375784
LLG,66,1,2024-06-14T14:40:01.680Z,english_865.wav,0,0,798,24,4,Chinese,m,5,0.5,-3.51899048,1.73720254
LLG,66,1,2024-06-14T14:40:01.680Z,english_865.wav,0,0,798,24,4,Chinese,m,6,0.6,30.42015795,0.47612768
LLG,66,1,2024-06-14T14:40:01.680Z,english_865.wav,0,0,798,24,4,Chinese,m,7,0.7,-55.73707392,0.34287239
LLG,66,1,2024-06-14T14:40:01.680Z,english_865.wav,0,0,798,24,4,Chinese,m,8,0.8,54.32986928,1.39046848
LLG,66,1,2024-06-14T14:40:01.680Z,english_865.wav,0,0,798,24,4,Chinese,m,9,0.9,-94.25719672,0.32361365
LLG,66,1,2024-06-14T14:40:01.680Z,english_865.wav,0,0,798,24,4,Chinese,m,10,1,52.44088275,0.4960331
LLG,66,1,2024-06-14T14:40:01.680Z,english_865.wav,0,0,798,24,4,Chinese,m,11,1.09391667,-37.34958779,0.90913699
LLG,67,1,2024-06-14T14:40:01.680Z,english_850.wav,0,0,1636,24,4,Chinese,m,0,0,88.4841053,1.0516167
LLG,67,1,2024-06-14T14:40:01.680Z,english_850.wav,0,0,1636,24,4,Chinese,m,1,0.1,44.0356076,0.93870726
LLG,67,1,2024-06-14T14:40:01.680Z,english_850.wav,0,0,1636,24,4,Chinese,m,2,0.2,36.7211438,0.35713104
LLG,67,1,2024-06-14T14:40:01.680Z,english_850.wav,0,0,1636,24,4,Chinese,m,3,0.3,0.0712842206,0.75335241
LLG,67,1,2024-06-14T14:40:01.680Z,english_850.wav,0,0,1636,24,4,Chinese,m,4,0.4,-60.510913,0.4836317
LLG,67,1,2024-06-14T14:40:01.680Z,english_850.wav,0,0,1636,24,4,Chinese,m,5,0.5,18.6261702,1.19329581
LLG,67,1,2024-06-14T14:40:01.680Z,english_850.wav,0,0,1636,24,4,Chinese,m,6,0.6,28.0848248,0.49505096
LLG,67,1,2024-06-14T14:40:01.680Z,english_850.wav,0,0,1636,24,4,Chinese,m,7,0.7,77.0757469,0.01443344
LLG,67,1,2024-06-14T14:40:01.680Z,english_850.wav,0,0,1636,24,4,Chinese,m,8,0.8,4.44763904,1.44754501
LLG,67,1,2024-06-14T14:40:01.680Z,english_850.wav,0,0,1636,24,4,Chinese,m,9,0.9,-78.5523864,1.7444195
LLG,67,1,2024-06-14T14:40:01.680Z,english_850.wav,0,0,1636,24,4,Chinese,m,10,1,-47.0846658,1.61305952
LLG,67,1,2024-06-14T14:40:01.680Z,english_850.wav,0,0,1636,24,4,Chinese,m,11,1.09391667,98.0288694,0.78368458
LLG,68,1,2024-06-14T14:40:01.680Z,english_716.wav,0,1,1046,24,4,Chinese,m,0,0,43.74330497,0.97173824
LLG,68,1,2024-06-14T14:40:01.680Z,english_716.wav,0,1,1046,24,4,Chinese,m,1,0.1,1.01157467,1.13719013
LLG,68,1,2024-06-14T14:40:01.680Z,english_716.wav,0,1,1046,24,4,Chinese,m,2,0.2,43.31214435,0.97088095
LLG,68,1,2024-06-14T14:40:01.680Z,english_716.wav,0,1,1046,24,4,Chinese,m,3,0.3,-64.99824003,1.35537493
LLG,68,1,2024-06-14T14:40:01.680Z,english_716.wav,0,1,1046,24,4,Chinese,m,4,0.4,66.22849696,1.16227483
LLG,68,1,2024-06-14T14:40:01.680Z,english_716.wav,0,1,1046,24,4,Chinese,m,5,0.5,15.92034767,1.14260693
LLG,68,1,2024-06-14T14:40:01.680Z,english_716.wav,0,1,1046,24,4,Chinese,m,6,0.6,-84.49981369,1.21216761
LLG,68,1,2024-06-14T14:40:01.680Z,english_716.wav,0,1,1046,24,4,Chinese,m,7,0.7,-36.42045257,1.78190595
LLG,68,1,2024-06-14T14:40:01.680Z,english_716.wav,0,1,1046,24,4,Chinese,m,8,0.8,0.56154779,1.16672006
LLG,68,1,2024-06-14T14:40:01.680Z,english_716.wav,0,1,1046,24,4,Chinese,m,9,0.9,-55.57576832,1.41993199
LLG,68,1,2024-06-14T14:40:01.680Z,english_716.wav,0,1,1046,24,4,Chinese,m,10,1,55.0789401,0.32201877
LLG,68,1,2024-06-14T14:40:01.680Z,english_716.wav,0,1,1046,24,4,Chinese,m,11,1.09391667,15.84660207,1.26556623
LLG,69,1,2024-06-14T14:40:01.680Z,english_399.wav,0,0,835,24,4,Chinese,m,0,0,7.35119233,1.43512774
LLG,69,1,2024-06-14T14:40:01.680Z,english_399.wav,0,0,835,24,4,Chinese,m,1,0.1,7.30105906,1.7056904
LLG,69,1,2024-06-14T14:40:01.680Z,english_399.wav,0,0,835,24,4,Chinese,m,2,0.2,-55.03587691,1.60882656
LLG,69,1,2024-06-14T14:40:01.680Z,english_399.wav,0,0,835,24,4,Chinese,m,3,0.3,63.9361431,1.57397844
LLG,69,1,2024-06-14T14:40:01.680Z,english_399.wav,0,0,835,24,4,Chinese,m,4,0.4,44.6049307,0.93377042
LLG,69,1,2024-06-14T14:40:01.680Z,english_399.wav,0,0,835,24,4,Chinese,m,5,0.5,68.42668929,1.9481779
LLG,69,1,2024-06-14T14:40:01.680Z,english_399.wav,0,0,835,24,4,Chinese,m,6,0.6,54.53895784,1.40688071
LLG,69,1,2024-06-14T14:40:01.680Z,english_399.wav,0,0,835,24,4,Chinese,m,7,0.7,87.63954028,0.69376281
LLG,69,1,2024-06-14T14:40:01.680Z,english_399.wav,0,0,835,24,4,Chinese,m,8,0.8,-0.41432999,1.28838791
LLG,69,1,2024-06-14T14:40:01.680Z,english_399.wav,0,0,835,24,4,Chinese,m,9,0.9,24.60615905,0.52758228
LLG,69,1,2024-06-14T14:40:01.680Z,english_399.wav,0,0,835,24,4,Chinese,m,10,1,-97.67130798,0.96519431
LLG,69,1,2024-06-14T14:40:01.680Z,english_399.wav,0,0,835,24,4,Chinese,m,11,1.09391667,61.44027276,1.05566464
LLG,70,1,2024-06-14T14:40:01.680Z,english_127.wav,0,0,776,24,4,Chinese,m,0,0,-97.90087244,0.58111051
LLG,70,1,2024-06-14T14:40:01.680Z,english_127.wav,0,0,776,24,4,Chinese,m,1,0.1,-36.95796642,1.98466344
LLG,70,1,2024-06-14T14:40:01.680Z,english_127.wav,0,0,776,24,4,Chinese,m,2,0.2,33.65056974,0.66246338
LLG,70,1,2024-06-14T14:40:01.680Z,english_127.wav,0,0,776,24,4,Chinese,m,3,0.3,-19.85406453,0.15661461
LLG,70,1,2024-06-14T14:40:01.680Z,english_127.wav,0,0,776,24,4,Chinese,m,4,0.4,-42.6348027,1.74661521
LLG,70,1,2024-06-14T14:40:01.680Z,english_127.wav,0,0,776,24,4,Chinese,m,5,0.5,-56.79071689,1.58365522
LLG,70,1,2024-06-14T14:40:01.680Z,english_127.wav,0,0,776,24,4,Chinese,m,6,0.6,-5.36842737,0.14537305
LLG,70,1,2024-06-14T14:40:01.680Z,english_127.wav,0,0,776,24,4,Chinese,m,7,0.7,-65.17730662,1.46904529
LLG,70,1,2024-06-14T14:40:01.680Z,english_127.wav,0,0,776,24,4,Chinese,m,8,0.8,55.11157095,1.23944377
LLG,70,1,2024-06-14T14:40:01.680Z,english_127.wav,0,0,776,24,4,Chinese,m,9,0.9,-6.91901103,1.93001672
LLG,70,1,2024-06-14T14:40:01.680Z,english_127.wav,0,0,776,24,4,Chinese,m,10,1,32.26051644,0.93435528
LLG,70,1,2024-06-14T14:40:01.680Z,english_127.wav,0,0,776,24,4,Chinese,m,11,1.09391667,51.54181068,1.6531459
LLG,71,1,2024-06-14T14:40:01.680Z,english_152.wav,0,1,674,24,4,Chinese,m,0,0,-10.34550429,1.84986994
LLG,71,1,2024-06-14T14:40:01.680Z,english_152.wav,0,1,674,24,4,Chinese,m,1,0.1,-43.66558153,0.90615496
LLG,71,1,2024-06-14T14:40:01.680Z,english_152.wav,0,1,674,24,4,Chinese,m,2,0.2,56.2217474,0.59286193
LLG,71,1,2024-06-14T14:40:01.680Z,english_152.wav,0,1,674,24,4,Chinese,m,3,0.3,-27.44048298,0.85505555
LLG,71,1,2024-06-14T14:40:01.680Z,english_152.wav,0,1,674,24,4,Chinese,m,4,0.4,17.92439762,0.56649727
LLG,71,1,2024-06-14T14:40:01.680Z,english_152.wav,0,1,674,24,4,Chinese,m,5,0.5,82.51468432,0.6043893
LLG,71,1,2024-06-14T14:40:01.680Z,english_152.wav,0,1,674,24,4,Chinese,m,6,0.6,8.54715681,1.72413787
LLG,71,1,2024-06-14T14:40:01.680Z,english_152.wav,0,1,674,24,4,Chinese,m,7,0.7,-94.9804546,0.10144569
LLG,71,1,2024-06-14T14:40:01.680Z,english_152.wav,0,1,674,24,4,Chinese,m,8,0.8,43.42849193,1.50321153
LLG,71,1,2024-06-14T14:40:01.680Z,english_152.wav,0,1,674,24,4,Chinese,m,9,0.9,1.5194414,0.78421076
LLG,71,1,2024-06-14T14:40:01.680Z,english_152.wav,0,1,674,24,4,Chinese,m,10,1,20.77451489,1.65129885
LLG,71,1,2024-06-14T14:40:01.680Z,english_152.wav,0,1,674,24,4,Chinese,m,11,1.09391667,95.7342738,1.8248214
LLG,72,1,2024-06-14T14:40:01.680Z,english_236.wav,0,1,1033,24,4,Chinese,m,0,0,-58.47147348,1.25570844
LLG,72,1,2024-06-14T14:40:01.680Z,english_236.wav,0,1,1033,24,4,Chinese,m,1,0.1,25.25879028,1.3068123
LLG,72,1,2024-06-14T14:40:01.680Z,english_236.wav,0,1,1033,24,4,Chinese,m,2,0.2,-78.78616324,1.48831799
LLG,72,1,2024-06-14T14:40:01.680Z,english_236.wav,0,1,1033,24,4,Chinese,m,3,0.3,11.29938963,0.34919936
LLG,72,1,2024-06-14T14:40:01.680Z,english_236.wav,0,1,1033,24,4,Chinese,m,4,0.4,39.53352696,1.00725943
LLG,72,1,2024-06-14T14:40:01.680Z,english_236.wav,0,1,1033,24,4,Chinese,m,5,0.5,91.57483284,1.25472599
LLG,72,1,2024-06-14T14:40:01.680Z,english_236.wav,0,1,1033,24,4,Chinese,m,6,0.6,22.72019707,1.46652556
LLG,72,1,2024-06-14T14:40:01.680Z,english_236.wav,0,1,1033,24,4,Chinese,m,7,0.7,30.21012118,0.98566412
LLG,72,1,2024-06-14T14:40:01.680Z,english_236.wav,0,1,1033,24,4,Chinese,m,8,0.8,-41.20304871,1.93402839
LLG,72,1,2024-06-14T14:40:01.680Z,english_236.wav,0,1,1033,24,4,Chinese,m,9,0.9,28.6164571,1.61503367
LLG,72,1,2024-06-14T14:40:01.680Z,english_236.wav,0,1,1033,24,4,Chinese,m,10,1,36.23029146,0.92571768
LLG,72,1,2024-06-14T14:40:01.680Z,english_236.wav,0,1,1033,24,4,Chinese,m,11,1.09391667,-21.60177346,1.50534637
LLG,73,1,2024-06-14T14:40:01.680Z,english_638.wav,0,1,471,24,4,Chinese,m,0,0,27.0849984,1.3280689
LLG,73,1,2024-06-14T14:40:01.680Z,english_638.wav,0,1,471,24,4,Chinese,m,1,0.1,-76.77372335,0.56896387
LLG,73,1,2024-06-14T14:40:01.680Z,english_638.wav,0,1,471,24,4,Chinese,m,2,0.2,-5.6974772,0.56746927
LLG,73,1,2024-06-14T14:40:01.680Z,english_638.wav,0,1,471,24,4,Chinese,m,3,0.3,-27.04640621,0.40067671
LLG,73,1,2024-06-14T14:40:01.680Z,english_638.wav,0,1,471,24,4,Chinese,m,4,0.4,10.67934685,1.88228275
LLG,73,1,2024-06-14T14:40:01.680Z,english_638.wav,0,1,471,24,4,Chinese,m,5,0.5,-13.18628206,0.52168705
LLG,73,1,2024-06-14T14:40:01.680Z,english_638.wav,0,1,471,24,4,Chinese,m,6,0.6,11.34372698,0.80905376
LLG,73,1,2024-06-14T14:40:01.680Z,english_638.wav,0,1,471,24,4,Chinese,m,7,0.7,-64.2430687,1.41810717
LLG,73,1,2024-06-14T14:40:01.680Z,english_638.wav,0,1,471,24,4,Chinese,m,8,0.8,46.35115049,1.8285697
LLG,73,1,2024-06-14T14:40:01.680Z,english_638.wav,0,1,471,24,4,Chinese,m,9,0.9,44.69499683,0.3100636
LLG,73,1,2024-06-14T14:40:01.680Z,english_638.wav,0,1,471,24,4,Chinese,m,10,1,-11.73136011,1.74790386
LLG,73,1,2024-06-14T14:40:01.680Z,english_638.wav,0,1,471,24,4,Chinese,m,11,1.09391667,-77.04953993,1.8348397
LLG,74,1,2024-06-14T14:40:01.680Z,english_134.wav,0,1,492,24,4,Chinese,m,0,0,-24.26834644,1.03045274
LLG,74,1,2024-06-14T14:40:01.680Z,english_134.wav,0,1,492,24,4,Chinese,m,1,0.1,0.87898814,1.86888255
LLG,74,1,2024-06-14T14:40:01.680Z,english_134.wav,0,1,492,24,4,Chinese,m,2,0.2,29.43994061,1.70405425
LLG,74,1,2024-06-14T14:40:01.680Z,english_134.wav,0,1,492,24,4,Chinese,m,3,0.3,21.82945731,1.34767033
LLG,74,1,2024-06-14T14:40:01.680Z,english_134.wav,0,1,492,24,4,Chinese,m,4,0.4,49.09743773,0.8443881
LLG,74,1,2024-06-14T14:40:01.680Z,english_134.wav,0,1,492,24,4,Chinese,m,5,0.5,-15.97258886,1.38979788
LLG,74,1,2024-06-14T14:40:01.680Z,english_134.wav,0,1,492,24,4,Chinese,m,6,0.6,13.73233931,1.1830035
LLG,74,1,2024-06-14T14:40:01.680Z,english_134.wav,0,1,492,24,4,Chinese,m,7,0.7,-18.88709324,1.43950556
LLG,74,1,2024-06-14T14:40:01.680Z,english_134.wav,0,1,492,24,4,Chinese,m,8,0.8,13.58093601,1.18211722
LLG,74,1,2024-06-14T14:40:01.680Z,english_134.wav,0,1,492,24,4,Chinese,m,9,0.9,74.79947006,0.44903969
LLG,74,1,2024-06-14T14:40:01.680Z,english_134.wav,0,1,492,24,4,Chinese,m,10,1,-49.15519577,0.93357228
LLG,74,1,2024-06-14T14:40:01.680Z,english_134.wav,0,1,492,24,4,Chinese,m,11,1.09391667,18.17659257,1.8466086
LLG,75,1,2024-06-14T14:40:01.680Z,english_355.wav,0,0,283,24,4,Chinese,m,0,0,-17.98441337,0.63443376
LLG,75,1,2024-06-14T14:40:01.680Z,english_355.wav,0,0,283,24,4,Chinese,m,1,0.1,-3.7927165,0.81098104
LLG,75,1,2024-06-14T14:40:01.680Z,english_355.wav,0,0,283,24,4,Chinese,m,2,0.2,49.96307457,0.15990124
LLG,75,1,2024-06-14T14:40:01.680Z,english_355.wav,0,0,283,24,4,Chinese,m,3,0.3,-15.53125152,1.19729275
LLG,75,1,2024-06-14T14:40:01.680Z,english_355.wav,0,0,283,24,4,Chinese,m,4,0.4,-84.8102411,1.78081856
LLG,75,1,2024-06-14T14:40:01.680Z,english_355.wav,0,0,283,24,4,Chinese,m,5,0.5,-28.25718679,0.04344096
LLG,75,1,2024-06-14T14:40:01.680Z,english_355.wav,0,0,283,24,4,Chinese,m,6,0.6,-58.3999431,1.99949459
LLG,75,1,2024-06-14T14:40:01.680Z,english_355.wav,0,0,283,24,4,Chinese,m,7,0.7,-22.66304052,0.79420627
LLG,75,1,2024-06-14T14:40:01.680Z,english_355.wav,0,0,283,24,4,Chinese,m,8,0.8,-95.1511219,0.51429102
LLG,75,1,2024-06-14T14:40:01.680Z,english_355.wav,0,0,283,24,4,Chinese,m,9,0.9,82.90101198,0.31900629
LLG,75,1,2024-06-14T14:40:01.680Z,english_355.wav,0,0,283,24,4,Chinese,m,10,1,11.18923061,1.55539218
LLG,75,1,2024-06-14T14:40:01.680Z,english_355.wav,0,0,283,24,4,Chinese,m,11,1.09391667,39.40210676,0.94266916
LLG,76,1,2024-06-14T14:40:01.680Z,english_673.wav,0,0,1262,24,4,Chinese,m,0,0,90.76839252,1.23453875
LLG,76,1,2024-06-14T14:40:01.680Z,english_673.wav,0,0,1262,24,4,Chinese,m,1,0.1,6.046272,1.03311149
LLG,76,1,2024-06-14T14:40:01.680Z,english_673.wav,0,0,1262,24,4,Chinese,m,2,0.2,-87.83071151,1.26397394
LLG,76,1,2024-06-14T14:40:01.680Z,english_673.wav,0,0,1262,24,4,Chinese,m,3,0.3,36.6509823,1.9126635
LLG,76,1,2024-06-14T14:40:01.680Z,english_673.wav,0,0,1262,24,4,Chinese,m,4,0.4,-32.18158433,1.72280276
LLG,76,1,2024-06-14T14:40:01.680Z,english_673.wav,0,0,1262,24,4,Chinese,m,5,0.5,-19.24802142,0.25348074
LLG,76,1,2024-06-14T14:40:01.680Z,english_673.wav,0,0,1262,24,4,Chinese,m,6,0.6,48.91730907,1.44743683
LLG,76,1,2024-06-14T14:40:01.680Z,english_673.wav,0,0,1262,24,4,Chinese,m,7,0.7,69.64943754,1.155997
LLG,76,1,2024-06-14T14:40:01.680Z,english_673.wav,0,0,1262,24,4,Chinese,m,8,0.8,-5.12989182,0.33674768
LLG,76,1,2024-06-14T14:40:01.680Z,english_673.wav,0,0,1262,24,4,Chinese,m,9,0.9,-9.26659316,0.68600318
LLG,76,1,2024-06-14T14:40:01.680Z,english_673.wav,0,0,1262,24,4,Chinese,m,10,1,-16.89337836,1.11619923
LLG,76,1,2024-06-14T14:40:01.680Z,english_673.wav,0,0,1262,24,4,Chinese,m,11,1.09391667,-23.27882447,0.1262035
LLG,77,1,2024-06-14T14:40:01.680Z,english_593.wav,0,0,924,24,4,Chinese,m,0,0,13.70313969,0.31776168
LLG,77,1,2024-06-14T14:40:01.680Z,english_593.wav,0,0,924,24,4,Chinese,m,1,0.1,-26.02533881,1.39381701
LLG,77,1,2024-06-14T14:40:01.680Z,english_593.wav,0,0,924,24,4,Chinese,m,2,0.2,50.8702686,0.5191281
LLG,77,1,2024-06-14T14:40:01.680Z,english_593.wav,0,0,924,24,4,Chinese,m,3,0.3,26.063803,0.69401342
LLG,77,1,2024-06-14T14:40:01.680Z,english_593.wav,0,0,924,24,4,Chinese,m,4,0.4,-79.95092445,0.71717885
LLG,77,1,2024-06-14T14:40:01.680Z,english_593.wav,0,0,924,24,4,Chinese,m,5,0.5,-94.01020979,0.74327862
LLG,77,1,2024-06-14T14:40:01.680Z,english_593.wav,0,0,924,24,4,Chinese,m,6,0.6,-33.71882566,1.75165486
LLG,77,1,2024-06-14T14:40:01.680Z,english_593.wav,0,0,924,24,4,Chinese,m,7,0.7,-16.71092424,0.78541269
LLG,77,1,2024-06-14T14:40:01.680Z,english_593.wav,0,0,924,24,4,Chinese,m,8,0.8,-31.84366891,0.5067154
LLG,77,1,2024-06-14T14:40:01.680Z,english_593.wav,0,0,924,24,4,Chinese,m,9,0.9,-64.24810633,1.19882101
LLG,77,1,2024-06-14T14:40:01.680Z,english_593.wav,0,0,924,24,4,Chinese,m,10,1,73.5130108,0.30708851
LLG,77,1,2024-06-14T14:40:01.680Z,english_593.wav,0,0,924,24,4,Chinese,m,11,1.09391667,1.16296444,1.70447125
LLG,78,1,2024-06-14T14:40:01.680Z,english_599.wav,0,1,1117,24,4,Chinese,m,0,0,68.55754102,0.43315889
LLG,78,1,2024-06-14T14:40:01.680Z,english_599.wav,0,1,1117,24,4,Chinese,m,1,0.1,-7.26037981,0.25693118
LLG,78,1,2024-06-14T14:40:01.680Z,english_599.wav,0,1,1117,24,4,Chinese,m,2,0.2,92.88050494,0.63718224
LLG,78,1,2024-06-14T14:40:01.680Z,english_599.wav,0,1,1117,24,4,Chinese,m,3,0.3,-30.01198602,0.72589136
LLG,78,1,2024-06-14T14:40:01.680Z,english_599.wav,0,1,1117,24,4,Chinese,m,4,0.4,-12.83448782,1.41268703
LLG,78,1,2024-06-14T14:40:01.680Z,english_599.wav,0,1,1117,24,4,Chinese,m,5,0.5,95.18827309,1.68026213
LLG,78,1,2024-06-14T14:40:01.680Z,english_599.wav,0,1,1117,24,4,Chinese,m,6,0.6,76.69886181,1.35988865
LLG,78,1,2024-06-14T14:40:01.680Z,english_599.wav,0,1,1117,24,4,Chinese,m,7,0.7,-88.96581396,1.48925284
LLG,78,1,2024-06-14T14:40:01.680Z,english_599.wav,0,1,1117,24,4,Chinese,m,8,0.8,6.31748227,0.8159251
LLG,78,1,2024-06-14T14:40:01.680Z,english_599.wav,0,1,1117,24,4,Chinese,m,9,0.9,-93.23103284,0.71703188
LLG,78,1,2024-06-14T14:40:01.680Z,english_599.wav,0,1,1117,24,4,Chinese,m,10,1,52.23538248,0.37366583
LLG,78,1,2024-06-14T14:40:01.680Z,english_599.wav,0,1,1117,24,4,Chinese,m,11,1.09391667,80.6723105,0.06283904
LLG,79,1,2024-06-14T14:40:01.680Z,english_514.wav,0,0,845,24,4,Chinese,m,0,0,-59.82766829,1.35471226
LLG,79,1,2024-06-14T14:40:01.680Z,english_514.wav,0,0,845,24,4,Chinese,m,1,0.1,-4.54284015,0.81191054
LLG,79,1,2024-06-14T14:40:01.680Z,english_514.wav,0,0,845,24,4,Chinese,m,2,0.2,75.12688257,1.30120799
LLG,79,1,2024-06-14T14:40:01.680Z,english_514.wav,0,0,845,24,4,Chinese,m,3,0.3,52.77263543,1.91982738
LLG,79,1,2024-06-14T14:40:01.680Z,english_514.wav,0,0,845,24,4,Chinese,m,4,0.4,-86.38859223,1.85775535
LLG,79,1,2024-06-14T14:40:01.680Z,english_514.wav,0,0,845,24,4,Chinese,m,5,0.5,22.0573972,0.92799532
LLG,79,1,2024-06-14T14:40:01.680Z,english_514.wav,0,0,845,24,4,Chinese,m,6,0.6,-81.94223644,0.39882237
LLG,79,1,2024-06-14T14:40:01.680Z,english_514.wav,0,0,845,24,4,Chinese,m,7,0.7,33.46090425,1.85696096
LLG,79,1,2024-06-14T14:40:01.680Z,english_514.wav,0,0,845,24,4,Chinese,m,8,0.8,10.59703074,0.26578536
LLG,79,1,2024-06-14T14:40:01.680Z,english_514.wav,0,0,845,24,4,Chinese,m,9,0.9,74.40481447,1.80594265
LLG,79,1,2024-06-14T14:40:01.680Z,english_514.wav,0,0,845,24,4,Chinese,m,10,1,35.18551728,0.66929464
LLG,79,1,2024-06-14T14:40:01.680Z,english_514.wav,0,0,845,24,4,Chinese,m,11,1.09391667,-52.88743611,1.62933111
LLG,80,1,2024-06-14T14:40:01.680Z,english_472.wav,0,0,655,24,4,Chinese,m,0,0,-23.72821767,0.96911452
LLG,80,1,2024-06-14T14:40:01.680Z,english_472.wav,0,0,655,24,4,Chinese,m,1,0.1,7.29471696,0.40121138
LLG,80,1,2024-06-14T14:40:01.680Z,english_472.wav,0,0,655,24,4,Chinese,m,2,0.2,-58.55005371,1.15410482
LLG,80,1,2024-06-14T14:40:01.680Z,english_472.wav,0,0,655,24,4,Chinese,m,3,0.3,77.0504256,1.91400861
LLG,80,1,2024-06-14T14:40:01.680Z,english_472.wav,0,0,655,24,4,Chinese,m,4,0.4,87.29275565,0.05830067
LLG,80,1,2024-06-14T14:40:01.680Z,english_472.wav,0,0,655,24,4,Chinese,m,5,0.5,-70.9646192,0.87176087
LLG,80,1,2024-06-14T14:40:01.680Z,english_472.wav,0,0,655,24,4,Chinese,m,6,0.6,72.82743185,0.23371631
LLG,80,1,2024-06-14T14:40:01.680Z,english_472.wav,0,0,655,24,4,Chinese,m,7,0.7,-40.27439915,1.66198616
LLG,80,1,2024-06-14T14:40:01.680Z,english_472.wav,0,0,655,24,4,Chinese,m,8,0.8,-15.91396931,0.22492459
LLG,80,1,2024-06-14T14:40:01.680Z,english_472.wav,0,0,655,24,4,Chinese,m,9,0.9,27.40014094,0.55757982
LLG,80,1,2024-06-14T14:40:01.680Z,english_472.wav,0,0,655,24,4,Chinese,m,10,1,-13.69917785,1.15387827
LLG,80,1,2024-06-14T14:40:01.680Z,english_472.wav,0,0,655,24,4,Chinese,m,11,1.09391667,26.78237701,1.85526867
LLG,81,1,2024-06-14T14:40:01.680Z,english_229.wav,0,0,685,24,4,Chinese,m,0,0,-79.04304689,0.75524208
