subj,trial,block,date,stim,stim_order,response,rt,age,english,language,sex,param_index,segment,pitch,stretch
XUJIAJIE,0,0,2024-06-14T12:55:50.979Z,english_30.wav,0,1,5635,21,3,Chinese,f,0,0,7.20305011,0.62248381
XUJIAJIE,0,0,2024-06-14T12:55:50.979Z,english_30.wav,0,1,5635,21,3,Chinese,f,1,0.1,40.54252217,1.3534175
XUJIAJIE,0,0,2024-06-14T12:55:50.979Z,english_30.wav,0,1,5635,21,3,Chinese,f,2,0.2,-27.16756142,1.93672018
XUJIAJIE,0,0,2024-06-14T12:55:50.979Z,english_30.wav,0,1,5635,21,3,Chinese,f,3,0.3,-47.4542684,1.80613869
XUJIAJIE,0,0,2024-06-14T12:55:50.979Z,english_30.wav,0,1,5635,21,3,Chinese,f,4,0.4,16.89492576,1.17778721
XUJIAJIE,0,0,2024-06-14T12:55:50.979Z,english_30.wav,0,1,5635,21,3,Chinese,f,5,0.5,-3.45231142,1.26050698
XUJIAJIE,0,0,2024-06-14T12:55:50.979Z,english_30.wav,0,1,5635,21,3,Chinese,f,6,0.6,-55.37795964,0.40567716
XUJIAJIE,0,0,2024-06-14T12:55:50.979Z,english_30.wav,0,1,5635,21,3,Chinese,f,7,0.7,94.81526788,1.85712714
XUJIAJIE,0,0,2024-06-14T12:55:50.979Z,english_30.wav,0,1,5635,21,3,Chinese,f,8,0.8,4.42136383,0.11089582
XUJIAJIE,0,0,2024-06-14T12:55:50.979Z,english_30.wav,0,1,5635,21,3,Chinese,f,9,0.9,-28.73125868,1.52275562
XUJIAJIE,0,0,2024-06-14T12:55:50.979Z,english_30.wav,0,1,5635,21,3,Chinese,f,10,1,-43.27093622,0.4081166
XUJIAJIE,0,0,2024-06-14T12:55:50.979Z,english_30.wav,0,1,5635,21,3,Chinese,f,11,1.09391667,0.63608962,1.00698649
XUJIAJIE,1,0,2024-06-14T12:55:50.979Z,english_477.wav,0,0,309,21,3,Chinese,f,0,0,44.11369928,1.39445147
XUJIAJIE,1,0,2024-06-14T12:55:50.979Z,english_477.wav,0,0,309,21,3,Chinese,f,1,0.1,-49.72421876,1.98393148
XUJIAJIE,1,0,2024-06-14T12:55:50.979Z,english_477.wav,0,0,309,21,3,Chinese,f,2,0.2,37.81687243,1.85807547
XUJIAJIE,1,0,2024-06-14T12:55:50.979Z,english_477.wav,0,0,309,21,3,Chinese,f,3,0.3,-52.5290051,0.71490172
XUJIAJIE,1,0,2024-06-14T12:55:50.979Z,english_477.wav,0,0,309,21,3,Chinese,f,4,0.4,42.12087864,0.37809407
XUJIAJIE,1,0,2024-06-14T12:55:50.979Z,english_477.wav,0,0,309,21,3,Chinese,f,5,0.5,-3.66730799,0.12826759
XUJIAJIE,1,0,2024-06-14T12:55:50.979Z,english_477.wav,0,0,309,21,3,Chinese,f,6,0.6,34.46605835,0.32776618
XUJIAJIE,1,0,2024-06-14T12:55:50.979Z,english_477.wav,0,0,309,21,3,Chinese,f,7,0.7,92.87725089,0.64947081
XUJIAJIE,1,0,2024-06-14T12:55:50.979Z,english_477.wav,0,0,309,21,3,Chinese,f,8,0.8,-80.85076749,1.06355304
XUJIAJIE,1,0,2024-06-14T12:55:50.979Z,english_477.wav,0,0,309,21,3,Chinese,f,9,0.9,-9.36766275,1.32938803
XUJIAJIE,1,0,2024-06-14T12:55:50.979Z,english_477.wav,0,0,309,21,3,Chinese,f,10,1,76.24737873,1.22597552
XUJIAJIE,1,0,2024-06-14T12:55:50.979Z,english_477.wav,0,0,309,21,3,Chinese,f,11,1.09391667,-13.80306297,1.00606008
XUJIAJIE,2,0,2024-06-14T12:55:50.979Z,english_66.wav,0,1,505,21,3,Chinese,f,0,0,73.54239792,1.39962355
XUJIAJIE,2,0,2024-06-14T12:55:50.979Z,english_66.wav,0,1,505,21,3,Chinese,f,1,0.1,-24.02007983,0.40719393
XUJIAJIE,2,0,2024-06-14T12:55:50.979Z,english_66.wav,0,1,505,21,3,Chinese,f,2,0.2,49.15082977,0.56009301
XUJIAJIE,2,0,2024-06-14T12:55:50.979Z,english_66.wav,0,1,505,21,3,Chinese,f,3,0.3,59.25187184,0.88526938
XUJIAJIE,2,0,2024-06-14T12:55:50.979Z,english_66.wav,0,1,505,21,3,Chinese,f,4,0.4,-38.45178026,0.20167751
XUJIAJIE,2,0,2024-06-14T12:55:50.979Z,english_66.wav,0,1,505,21,3,Chinese,f,5,0.5,4.75457438,0.49978963
XUJIAJIE,2,0,2024-06-14T12:55:50.979Z,english_66.wav,0,1,505,21,3,Chinese,f,6,0.6,46.25569394,1.58181975
XUJIAJIE,2,0,2024-06-14T12:55:50.979Z,english_66.wav,0,1,505,21,3,Chinese,f,7,0.7,-60.4256139,0.73201225
XUJIAJIE,2,0,2024-06-14T12:55:50.979Z,english_66.wav,0,1,505,21,3,Chinese,f,8,0.8,67.09047121,0.26938408
XUJIAJIE,2,0,2024-06-14T12:55:50.979Z,english_66.wav,0,1,505,21,3,Chinese,f,9,0.9,88.85676661,1.15195977
XUJIAJIE,2,0,2024-06-14T12:55:50.979Z,english_66.wav,0,1,505,21,3,Chinese,f,10,1,69.83029982,1.10937983
XUJIAJIE,2,0,2024-06-14T12:55:50.979Z,english_66.wav,0,1,505,21,3,Chinese,f,11,1.09391667,35.36852194,1.70850229
XUJIAJIE,3,0,2024-06-14T12:55:50.979Z,english_977.wav,0,0,510,21,3,Chinese,f,0,0,45.32437977,1.51258306
XUJIAJIE,3,0,2024-06-14T12:55:50.979Z,english_977.wav,0,0,510,21,3,Chinese,f,1,0.1,31.46444726,1.62107879
XUJIAJIE,3,0,2024-06-14T12:55:50.979Z,english_977.wav,0,0,510,21,3,Chinese,f,2,0.2,7.78815071,0.80620837
XUJIAJIE,3,0,2024-06-14T12:55:50.979Z,english_977.wav,0,0,510,21,3,Chinese,f,3,0.3,-38.46709342,1.66578012
XUJIAJIE,3,0,2024-06-14T12:55:50.979Z,english_977.wav,0,0,510,21,3,Chinese,f,4,0.4,-43.12628929,0.5028638
XUJIAJIE,3,0,2024-06-14T12:55:50.979Z,english_977.wav,0,0,510,21,3,Chinese,f,5,0.5,-60.3999411,1.57064844
XUJIAJIE,3,0,2024-06-14T12:55:50.979Z,english_977.wav,0,0,510,21,3,Chinese,f,6,0.6,38.30873417,1.43046029
XUJIAJIE,3,0,2024-06-14T12:55:50.979Z,english_977.wav,0,0,510,21,3,Chinese,f,7,0.7,-32.30937365,0.97320454
XUJIAJIE,3,0,2024-06-14T12:55:50.979Z,english_977.wav,0,0,510,21,3,Chinese,f,8,0.8,-13.91730907,0.87874216
XUJIAJIE,3,0,2024-06-14T12:55:50.979Z,english_977.wav,0,0,510,21,3,Chinese,f,9,0.9,-81.54845422,1.41826341
XUJIAJIE,3,0,2024-06-14T12:55:50.979Z,english_977.wav,0,0,510,21,3,Chinese,f,10,1,29.31026278,0.04715706
XUJIAJIE,3,0,2024-06-14T12:55:50.979Z,english_977.wav,0,0,510,21,3,Chinese,f,11,1.09391667,34.6707146,1.45727151
XUJIAJIE,4,0,2024-06-14T12:55:50.979Z,english_139.wav,0,0,472,21,3,Chinese,f,0,0,81.69119698,1.27933894
XUJIAJIE,4,0,2024-06-14T12:55:50.979Z,english_139.wav,0,0,472,21,3,Chinese,f,1,0.1,42.19378668,0.17402895
XUJIAJIE,4,0,2024-06-14T12:55:50.979Z,english_139.wav,0,0,472,21,3,Chinese,f,2,0.2,-40.74285827,0.51201081
XUJIAJIE,4,0,2024-06-14T12:55:50.979Z,english_139.wav,0,0,472,21,3,Chinese,f,3,0.3,49.20247594,0.94873681
XUJIAJIE,4,0,2024-06-14T12:55:50.979Z,english_139.wav,0,0,472,21,3,Chinese,f,4,0.4,-31.78428617,1.19745534
XUJIAJIE,4,0,2024-06-14T12:55:50.979Z,english_139.wav,0,0,472,21,3,Chinese,f,5,0.5,33.76293525,0.67270535
XUJIAJIE,4,0,2024-06-14T12:55:50.979Z,english_139.wav,0,0,472,21,3,Chinese,f,6,0.6,7.11439176,1.44433094
XUJIAJIE,4,0,2024-06-14T12:55:50.979Z,english_139.wav,0,0,472,21,3,Chinese,f,7,0.7,-18.31872173,0.44605891
XUJIAJIE,4,0,2024-06-14T12:55:50.979Z,english_139.wav,0,0,472,21,3,Chinese,f,8,0.8,79.70412409,0.81778602
XUJIAJIE,4,0,2024-06-14T12:55:50.979Z,english_139.wav,0,0,472,21,3,Chinese,f,9,0.9,-88.5628162,1.24773735
XUJIAJIE,4,0,2024-06-14T12:55:50.979Z,english_139.wav,0,0,472,21,3,Chinese,f,10,1,-65.12448171,0.00984113
XUJIAJIE,4,0,2024-06-14T12:55:50.979Z,english_139.wav,0,0,472,21,3,Chinese,f,11,1.09391667,11.63103966,1.43403062
XUJIAJIE,5,0,2024-06-14T12:55:50.979Z,english_69.wav,0,0,1106,21,3,Chinese,f,0,0,-8.22406931,0.7296211
XUJIAJIE,5,0,2024-06-14T12:55:50.979Z,english_69.wav,0,0,1106,21,3,Chinese,f,1,0.1,-46.19784604,1.54205881
XUJIAJIE,5,0,2024-06-14T12:55:50.979Z,english_69.wav,0,0,1106,21,3,Chinese,f,2,0.2,-49.45533056,0.56573239
XUJIAJIE,5,0,2024-06-14T12:55:50.979Z,english_69.wav,0,0,1106,21,3,Chinese,f,3,0.3,69.56374807,1.53704253
XUJIAJIE,5,0,2024-06-14T12:55:50.979Z,english_69.wav,0,0,1106,21,3,Chinese,f,4,0.4,-92.74652317,0.47977854
XUJIAJIE,5,0,2024-06-14T12:55:50.979Z,english_69.wav,0,0,1106,21,3,Chinese,f,5,0.5,52.31402986,0.1278397
XUJIAJIE,5,0,2024-06-14T12:55:50.979Z,english_69.wav,0,0,1106,21,3,Chinese,f,6,0.6,35.98181846,1.442132
XUJIAJIE,5,0,2024-06-14T12:55:50.979Z,english_69.wav,0,0,1106,21,3,Chinese,f,7,0.7,29.79563749,0.12498308
XUJIAJIE,5,0,2024-06-14T12:55:50.979Z,english_69.wav,0,0,1106,21,3,Chinese,f,8,0.8,49.53175238,0.29427441
XUJIAJIE,5,0,2024-06-14T12:55:50.979Z,english_69.wav,0,0,1106,21,3,Chinese,f,9,0.9,-69.91203253,1.27290514
XUJIAJIE,5,0,2024-06-14T12:55:50.979Z,english_69.wav,0,0,1106,21,3,Chinese,f,10,1,-91.34062215,0.87034484
XUJIAJIE,5,0,2024-06-14T12:55:50.979Z,english_69.wav,0,0,1106,21,3,Chinese,f,11,1.09391667,39.19432379,1.40202541
XUJIAJIE,6,0,2024-06-14T12:55:50.979Z,english_306.wav,0,0,1690,21,3,Chinese,f,0,0,-95.03086766,1.30837938
XUJIAJIE,6,0,2024-06-14T12:55:50.979Z,english_306.wav,0,0,1690,21,3,Chinese,f,1,0.1,-3.19440238,0.41482999
XUJIAJIE,6,0,2024-06-14T12:55:50.979Z,english_306.wav,0,0,1690,21,3,Chinese,f,2,0.2,-39.72459624,1.62954212
XUJIAJIE,6,0,2024-06-14T12:55:50.979Z,english_306.wav,0,0,1690,21,3,Chinese,f,3,0.3,15.36352601,1.09402509
XUJIAJIE,6,0,2024-06-14T12:55:50.979Z,english_306.wav,0,0,1690,21,3,Chinese,f,4,0.4,-38.40390677,0.25113187
XUJIAJIE,6,0,2024-06-14T12:55:50.979Z,english_306.wav,0,0,1690,21,3,Chinese,f,5,0.5,-49.79740584,0.76399472
XUJIAJIE,6,0,2024-06-14T12:55:50.979Z,english_306.wav,0,0,1690,21,3,Chinese,f,6,0.6,-48.37651938,1.73274833
XUJIAJIE,6,0,2024-06-14T12:55:50.979Z,english_306.wav,0,0,1690,21,3,Chinese,f,7,0.7,-33.05516854,0.31535053
XUJIAJIE,6,0,2024-06-14T12:55:50.979Z,english_306.wav,0,0,1690,21,3,Chinese,f,8,0.8,-95.3817315,0.01885302
XUJIAJIE,6,0,2024-06-14T12:55:50.979Z,english_306.wav,0,0,1690,21,3,Chinese,f,9,0.9,-37.53428143,0.72130614
XUJIAJIE,6,0,2024-06-14T12:55:50.979Z,english_306.wav,0,0,1690,21,3,Chinese,f,10,1,13.19585938,0.43232343
XUJIAJIE,6,0,2024-06-14T12:55:50.979Z,english_306.wav,0,0,1690,21,3,Chinese,f,11,1.09391667,36.11780275,1.20783491
XUJIAJIE,7,0,2024-06-14T12:55:50.979Z,english_97.wav,0,0,950,21,3,Chinese,f,0,0,76.37857638,1.79294701
XUJIAJIE,7,0,2024-06-14T12:55:50.979Z,english_97.wav,0,0,950,21,3,Chinese,f,1,0.1,-4.28991847,0.18306204
XUJIAJIE,7,0,2024-06-14T12:55:50.979Z,english_97.wav,0,0,950,21,3,Chinese,f,2,0.2,47.01039737,1.8440549
XUJIAJIE,7,0,2024-06-14T12:55:50.979Z,english_97.wav,0,0,950,21,3,Chinese,f,3,0.3,78.99599817,1.28830428
XUJIAJIE,7,0,2024-06-14T12:55:50.979Z,english_97.wav,0,0,950,21,3,Chinese,f,4,0.4,-74.44800797,0.92549922
XUJIAJIE,7,0,2024-06-14T12:55:50.979Z,english_97.wav,0,0,950,21,3,Chinese,f,5,0.5,-0.92525099,1.98803443
XUJIAJIE,7,0,2024-06-14T12:55:50.979Z,english_97.wav,0,0,950,21,3,Chinese,f,6,0.6,49.24834696,1.73109288
XUJIAJIE,7,0,2024-06-14T12:55:50.979Z,english_97.wav,0,0,950,21,3,Chinese,f,7,0.7,54.51821925,0.57923617
XUJIAJIE,7,0,2024-06-14T12:55:50.979Z,english_97.wav,0,0,950,21,3,Chinese,f,8,0.8,21.55646095,1.43675725
XUJIAJIE,7,0,2024-06-14T12:55:50.979Z,english_97.wav,0,0,950,21,3,Chinese,f,9,0.9,38.61141557,0.35677857
XUJIAJIE,7,0,2024-06-14T12:55:50.979Z,english_97.wav,0,0,950,21,3,Chinese,f,10,1,-51.21992239,0.21609993
XUJIAJIE,7,0,2024-06-14T12:55:50.979Z,english_97.wav,0,0,950,21,3,Chinese,f,11,1.09391667,-54.62741944,0.92594918
XUJIAJIE,8,0,2024-06-14T12:55:50.979Z,english_968.wav,0,0,870,21,3,Chinese,f,0,0,-60.17022597,0.06507059
XUJIAJIE,8,0,2024-06-14T12:55:50.979Z,english_968.wav,0,0,870,21,3,Chinese,f,1,0.1,2.97803036,0.31588679
XUJIAJIE,8,0,2024-06-14T12:55:50.979Z,english_968.wav,0,0,870,21,3,Chinese,f,2,0.2,-20.37779246,1.0629249
XUJIAJIE,8,0,2024-06-14T12:55:50.979Z,english_968.wav,0,0,870,21,3,Chinese,f,3,0.3,82.14777176,1.23312584
XUJIAJIE,8,0,2024-06-14T12:55:50.979Z,english_968.wav,0,0,870,21,3,Chinese,f,4,0.4,-5.56087833,1.08782287
XUJIAJIE,8,0,2024-06-14T12:55:50.979Z,english_968.wav,0,0,870,21,3,Chinese,f,5,0.5,-35.42121974,1.76874616
XUJIAJIE,8,0,2024-06-14T12:55:50.979Z,english_968.wav,0,0,870,21,3,Chinese,f,6,0.6,6.34490383,1.63852156
XUJIAJIE,8,0,2024-06-14T12:55:50.979Z,english_968.wav,0,0,870,21,3,Chinese,f,7,0.7,37.90454217,0.46920885
XUJIAJIE,8,0,2024-06-14T12:55:50.979Z,english_968.wav,0,0,870,21,3,Chinese,f,8,0.8,-12.88660641,0.63401231
XUJIAJIE,8,0,2024-06-14T12:55:50.979Z,english_968.wav,0,0,870,21,3,Chinese,f,9,0.9,27.25418082,0.6661749
XUJIAJIE,8,0,2024-06-14T12:55:50.979Z,english_968.wav,0,0,870,21,3,Chinese,f,10,1,-65.60721299,0.97214272
XUJIAJIE,8,0,2024-06-14T12:55:50.979Z,english_968.wav,0,0,870,21,3,Chinese,f,11,1.09391667,-45.14164788,1.26320592
XUJIAJIE,9,0,2024-06-14T12:55:50.979Z,english_483.wav,0,0,800,21,3,Chinese,f,0,0,81.48477159,0.74240463
XUJIAJIE,9,0,2024-06-14T12:55:50.979Z,english_483.wav,0,0,800,21,3,Chinese,f,1,0.1,-89.60480044,0.55858717
XUJIAJIE,9,0,2024-06-14T12:55:50.979Z,english_483.wav,0,0,800,21,3,Chinese,f,2,0.2,34.01203533,0.25858635
XUJIAJIE,9,0,2024-06-14T12:55:50.979Z,english_483.wav,0,0,800,21,3,Chinese,f,3,0.3,-53.73578063,0.09361457
XUJIAJIE,9,0,2024-06-14T12:55:50.979Z,english_483.wav,0,0,800,21,3,Chinese,f,4,0.4,84.54249603,1.33981299
XUJIAJIE,9,0,2024-06-14T12:55:50.979Z,english_483.wav,0,0,800,21,3,Chinese,f,5,0.5,-37.49389681,0.4736205
XUJIAJIE,9,0,2024-06-14T12:55:50.979Z,english_483.wav,0,0,800,21,3,Chinese,f,6,0.6,15.30386948,0.19064795
XUJIAJIE,9,0,2024-06-14T12:55:50.979Z,english_483.wav,0,0,800,21,3,Chinese,f,7,0.7,-61.92265371,0.85022642
XUJIAJIE,9,0,2024-06-14T12:55:50.979Z,english_483.wav,0,0,800,21,3,Chinese,f,8,0.8,-8.76713856,0.89668703
XUJIAJIE,9,0,2024-06-14T12:55:50.979Z,english_483.wav,0,0,800,21,3,Chinese,f,9,0.9,-10.35003035,0.92354333
XUJIAJIE,9,0,2024-06-14T12:55:50.979Z,english_483.wav,0,0,800,21,3,Chinese,f,10,1,30.44811047,0.32093747
XUJIAJIE,9,0,2024-06-14T12:55:50.979Z,english_483.wav,0,0,800,21,3,Chinese,f,11,1.09391667,58.404663,0.85640019
XUJIAJIE,10,0,2024-06-14T12:55:50.979Z,english_161.wav,0,0,218,21,3,Chinese,f,0,0,0.2450503,0.47001228
XUJIAJIE,10,0,2024-06-14T12:55:50.979Z,english_161.wav,0,0,218,21,3,Chinese,f,1,0.1,41.86400045,1.24375119
XUJIAJIE,10,0,2024-06-14T12:55:50.979Z,english_161.wav,0,0,218,21,3,Chinese,f,2,0.2,3.22348346,0.98802588
XUJIAJIE,10,0,2024-06-14T12:55:50.979Z,english_161.wav,0,0,218,21,3,Chinese,f,3,0.3,-24.29894103,1.92952194
XUJIAJIE,10,0,2024-06-14T12:55:50.979Z,english_161.wav,0,0,218,21,3,Chinese,f,4,0.4,66.4308336,0.84385332
XUJIAJIE,10,0,2024-06-14T12:55:50.979Z,english_161.wav,0,0,218,21,3,Chinese,f,5,0.5,-79.52202924,0.34569188
XUJIAJIE,10,0,2024-06-14T12:55:50.979Z,english_161.wav,0,0,218,21,3,Chinese,f,6,0.6,-4.00284897,1.46988057
XUJIAJIE,10,0,2024-06-14T12:55:50.979Z,english_161.wav,0,0,218,21,3,Chinese,f,7,0.7,-82.69040612,0.94597317
XUJIAJIE,10,0,2024-06-14T12:55:50.979Z,english_161.wav,0,0,218,21,3,Chinese,f,8,0.8,32.14289288,0.70955806
XUJIAJIE,10,0,2024-06-14T12:55:50.979Z,english_161.wav,0,0,218,21,3,Chinese,f,9,0.9,-94.27188699,1.39207721
XUJIAJIE,10,0,2024-06-14T12:55:50.979Z,english_161.wav,0,0,218,21,3,Chinese,f,10,1,-14.10162234,0.79549611
XUJIAJIE,10,0,2024-06-14T12:55:50.979Z,english_161.wav,0,0,218,21,3,Chinese,f,11,1.09391667,27.39748728,1.7090018
XUJIAJIE,11,0,2024-06-14T12:55:50.979Z,english_437.wav,0,0,661,21,3,Chinese,f,0,0,33.55993848,1.07053388
XUJIAJIE,11,0,2024-06-14T12:55:50.979Z,english_437.wav,0,0,661,21,3,Chinese,f,1,0.1,99.2710896,1.13266277
XUJIAJIE,11,0,2024-06-14T12:55:50.979Z,english_437.wav,0,0,661,21,3,Chinese,f,2,0.2,-32.57477065,1.9895336
XUJIAJIE,11,0,2024-06-14T12:55:50.979Z,english_437.wav,0,0,661,21,3,Chinese,f,3,0.3,-17.79752124,1.49721118
XUJIAJIE,11,0,2024-06-14T12:55:50.979Z,english_437.wav,0,0,661,21,3,Chinese,f,4,0.4,7.76381485,1.18690415
XUJIAJIE,11,0,2024-06-14T12:55:50.979Z,english_437.wav,0,0,661,21,3,Chinese,f,5,0.5,-50.05370097,1.89119188
XUJIAJIE,11,0,2024-06-14T12:55:50.979Z,english_437.wav,0,0,661,21,3,Chinese,f,6,0.6,5.06874502,0.49511118
XUJIAJIE,11,0,2024-06-14T12:55:50.979Z,english_437.wav,0,0,661,21,3,Chinese,f,7,0.7,1.99558214,1.27007291
XUJIAJIE,11,0,2024-06-14T12:55:50.979Z,english_437.wav,0,0,661,21,3,Chinese,f,8,0.8,43.8272749,1.66092274
XUJIAJIE,11,0,2024-06-14T12:55:50.979Z,english_437.wav,0,0,661,21,3,Chinese,f,9,0.9,98.27063476,0.51492766
XUJIAJIE,11,0,2024-06-14T12:55:50.979Z,english_437.wav,0,0,661,21,3,Chinese,f,10,1,18.74881687,0.04140418
XUJIAJIE,11,0,2024-06-14T12:55:50.979Z,english_437.wav,0,0,661,21,3,Chinese,f,11,1.09391667,-57.70401561,0.6117047
XUJIAJIE,12,0,2024-06-14T12:55:50.979Z,english_989.wav,0,0,223,21,3,Chinese,f,0,0,82.98869891,0.1174877
XUJIAJIE,12,0,2024-06-14T12:55:50.979Z,english_989.wav,0,0,223,21,3,Chinese,f,1,0.1,24.01311559,0.45178594
XUJIAJIE,12,0,2024-06-14T12:55:50.979Z,english_989.wav,0,0,223,21,3,Chinese,f,2,0.2,71.48528654,1.23946025
XUJIAJIE,12,0,2024-06-14T12:55:50.979Z,english_989.wav,0,0,223,21,3,Chinese,f,3,0.3,82.44483013,1.76656678
XUJIAJIE,12,0,2024-06-14T12:55:50.979Z,english_989.wav,0,0,223,21,3,Chinese,f,4,0.4,98.48869079,0.06101367
XUJIAJIE,12,0,2024-06-14T12:55:50.979Z,english_989.wav,0,0,223,21,3,Chinese,f,5,0.5,52.58496553,0.35631173
XUJIAJIE,12,0,2024-06-14T12:55:50.979Z,english_989.wav,0,0,223,21,3,Chinese,f,6,0.6,-12.54848129,0.41315994
XUJIAJIE,12,0,2024-06-14T12:55:50.979Z,english_989.wav,0,0,223,21,3,Chinese,f,7,0.7,-85.91000404,1.50303793
XUJIAJIE,12,0,2024-06-14T12:55:50.979Z,english_989.wav,0,0,223,21,3,Chinese,f,8,0.8,-71.42298859,0.56943281
XUJIAJIE,12,0,2024-06-14T12:55:50.979Z,english_989.wav,0,0,223,21,3,Chinese,f,9,0.9,25.94025435,1.73902477
XUJIAJIE,12,0,2024-06-14T12:55:50.979Z,english_989.wav,0,0,223,21,3,Chinese,f,10,1,87.85887099,1.10677421
XUJIAJIE,12,0,2024-06-14T12:55:50.979Z,english_989.wav,0,0,223,21,3,Chinese,f,11,1.09391667,-0.32541585,1.65366883
XUJIAJIE,13,0,2024-06-14T12:55:50.979Z,english_846.wav,0,0,278,21,3,Chinese,f,0,0,47.64315726,0.95758586
XUJIAJIE,13,0,2024-06-14T12:55:50.979Z,english_846.wav,0,0,278,21,3,Chinese,f,1,0.1,43.78617601,0.16218947
XUJIAJIE,13,0,2024-06-14T12:55:50.979Z,english_846.wav,0,0,278,21,3,Chinese,f,2,0.2,-67.59598015,0.72860603
XUJIAJIE,13,0,2024-06-14T12:55:50.979Z,english_846.wav,0,0,278,21,3,Chinese,f,3,0.3,75.82681519,0.60627127
XUJIAJIE,13,0,2024-06-14T12:55:50.979Z,english_846.wav,0,0,278,21,3,Chinese,f,4,0.4,74.28596976,0.41876793
XUJIAJIE,13,0,2024-06-14T12:55:50.979Z,english_846.wav,0,0,278,21,3,Chinese,f,5,0.5,40.48744531,1.23414848
XUJIAJIE,13,0,2024-06-14T12:55:50.979Z,english_846.wav,0,0,278,21,3,Chinese,f,6,0.6,-65.90904049,1.54330327
XUJIAJIE,13,0,2024-06-14T12:55:50.979Z,english_846.wav,0,0,278,21,3,Chinese,f,7,0.7,90.52035497,1.06483437
XUJIAJIE,13,0,2024-06-14T12:55:50.979Z,english_846.wav,0,0,278,21,3,Chinese,f,8,0.8,-68.67205107,0.84380864
XUJIAJIE,13,0,2024-06-14T12:55:50.979Z,english_846.wav,0,0,278,21,3,Chinese,f,9,0.9,8.67982792,0.84626324
XUJIAJIE,13,0,2024-06-14T12:55:50.979Z,english_846.wav,0,0,278,21,3,Chinese,f,10,1,-64.09193989,1.29492524
XUJIAJIE,13,0,2024-06-14T12:55:50.979Z,english_846.wav,0,0,278,21,3,Chinese,f,11,1.09391667,11.5113113,0.37776928
XUJIAJIE,14,0,2024-06-14T12:55:50.979Z,english_137.wav,0,0,73,21,3,Chinese,f,0,0,-3.02796188,0.22157338
XUJIAJIE,14,0,2024-06-14T12:55:50.979Z,english_137.wav,0,0,73,21,3,Chinese,f,1,0.1,-18.39329507,1.5970131
XUJIAJIE,14,0,2024-06-14T12:55:50.979Z,english_137.wav,0,0,73,21,3,Chinese,f,2,0.2,27.99408469,0.93366249
XUJIAJIE,14,0,2024-06-14T12:55:50.979Z,english_137.wav,0,0,73,21,3,Chinese,f,3,0.3,61.38529345,1.16388988
XUJIAJIE,14,0,2024-06-14T12:55:50.979Z,english_137.wav,0,0,73,21,3,Chinese,f,4,0.4,72.06706498,1.82522819
XUJIAJIE,14,0,2024-06-14T12:55:50.979Z,english_137.wav,0,0,73,21,3,Chinese,f,5,0.5,-49.20369567,0.19075337
XUJIAJIE,14,0,2024-06-14T12:55:50.979Z,english_137.wav,0,0,73,21,3,Chinese,f,6,0.6,-60.60556526,1.29752633
XUJIAJIE,14,0,2024-06-14T12:55:50.979Z,english_137.wav,0,0,73,21,3,Chinese,f,7,0.7,4.80843339,0.8825569
XUJIAJIE,14,0,2024-06-14T12:55:50.979Z,english_137.wav,0,0,73,21,3,Chinese,f,8,0.8,-95.20794281,0.57273421
XUJIAJIE,14,0,2024-06-14T12:55:50.979Z,english_137.wav,0,0,73,21,3,Chinese,f,9,0.9,-29.95436641,1.14765765
XUJIAJIE,14,0,2024-06-14T12:55:50.979Z,english_137.wav,0,0,73,21,3,Chinese,f,10,1,-33.21264223,0.82478891
XUJIAJIE,14,0,2024-06-14T12:55:50.979Z,english_137.wav,0,0,73,21,3,Chinese,f,11,1.09391667,-31.67625375,1.98926818
XUJIAJIE,15,0,2024-06-14T12:55:50.979Z,english_708.wav,0,0,119,21,3,Chinese,f,0,0,51.90512372,0.68267885
XUJIAJIE,15,0,2024-06-14T12:55:50.979Z,english_708.wav,0,0,119,21,3,Chinese,f,1,0.1,26.85875961,1.28009677
XUJIAJIE,15,0,2024-06-14T12:55:50.979Z,english_708.wav,0,0,119,21,3,Chinese,f,2,0.2,69.50769052,0.67214969
XUJIAJIE,15,0,2024-06-14T12:55:50.979Z,english_708.wav,0,0,119,21,3,Chinese,f,3,0.3,2.73798265,1.87173266
XUJIAJIE,15,0,2024-06-14T12:55:50.979Z,english_708.wav,0,0,119,21,3,Chinese,f,4,0.4,19.91752894,1.28139012
XUJIAJIE,15,0,2024-06-14T12:55:50.979Z,english_708.wav,0,0,119,21,3,Chinese,f,5,0.5,84.74462974,1.50975007
XUJIAJIE,15,0,2024-06-14T12:55:50.979Z,english_708.wav,0,0,119,21,3,Chinese,f,6,0.6,48.1433783,0.29459019
XUJIAJIE,15,0,2024-06-14T12:55:50.979Z,english_708.wav,0,0,119,21,3,Chinese,f,7,0.7,62.38973842,0.69646694
XUJIAJIE,15,0,2024-06-14T12:55:50.979Z,english_708.wav,0,0,119,21,3,Chinese,f,8,0.8,-28.25964696,0.8036912
XUJIAJIE,15,0,2024-06-14T12:55:50.979Z,english_708.wav,0,0,119,21,3,Chinese,f,9,0.9,1.39285788,0.28906304
XUJIAJIE,15,0,2024-06-14T12:55:50.979Z,english_708.wav,0,0,119,21,3,Chinese,f,10,1,-27.01293378,1.49505706
XUJIAJIE,15,0,2024-06-14T12:55:50.979Z,english_708.wav,0,0,119,21,3,Chinese,f,11,1.09391667,-26.97031791,1.88331259
XUJIAJIE,16,0,2024-06-14T12:55:50.979Z,english_128.wav,0,0,49,21,3,Chinese,f,0,0,-22.61942611,1.66721471
XUJIAJIE,16,0,2024-06-14T12:55:50.979Z,english_128.wav,0,0,49,21,3,Chinese,f,1,0.1,68.41227715,1.06525369
XUJIAJIE,16,0,2024-06-14T12:55:50.979Z,english_128.wav,0,0,49,21,3,Chinese,f,2,0.2,-54.10958419,1.55278382
XUJIAJIE,16,0,2024-06-14T12:55:50.979Z,english_128.wav,0,0,49,21,3,Chinese,f,3,0.3,-34.3976761,1.27447121
XUJIAJIE,16,0,2024-06-14T12:55:50.979Z,english_128.wav,0,0,49,21,3,Chinese,f,4,0.4,-80.35189368,1.24533025
XUJIAJIE,16,0,2024-06-14T12:55:50.979Z,english_128.wav,0,0,49,21,3,Chinese,f,5,0.5,-23.21922247,0.40128709
XUJIAJIE,16,0,2024-06-14T12:55:50.979Z,english_128.wav,0,0,49,21,3,Chinese,f,6,0.6,75.93285278,1.08908342
XUJIAJIE,16,0,2024-06-14T12:55:50.979Z,english_128.wav,0,0,49,21,3,Chinese,f,7,0.7,-25.01230628,1.52248699
XUJIAJIE,16,0,2024-06-14T12:55:50.979Z,english_128.wav,0,0,49,21,3,Chinese,f,8,0.8,23.78207095,1.64911831
XUJIAJIE,16,0,2024-06-14T12:55:50.979Z,english_128.wav,0,0,49,21,3,Chinese,f,9,0.9,-74.87827882,0.03473392
XUJIAJIE,16,0,2024-06-14T12:55:50.979Z,english_128.wav,0,0,49,21,3,Chinese,f,10,1,74.39346852,1.99892406
XUJIAJIE,16,0,2024-06-14T12:55:50.979Z,english_128.wav,0,0,49,21,3,Chinese,f,11,1.09391667,30.71976897,1.56565298
XUJIAJIE,17,0,2024-06-14T12:55:50.979Z,english_562.wav,0,0,212,21,3,Chinese,f,0,0,-66.46118552,0.76561111
XUJIAJIE,17,0,2024-06-14T12:55:50.979Z,english_562.wav,0,0,212,21,3,Chinese,f,1,0.1,50.11424094,1.84010469
XUJIAJIE,17,0,2024-06-14T12:55:50.979Z,english_562.wav,0,0,212,21,3,Chinese,f,2,0.2,38.4118161,1.52246451
XUJIAJIE,17,0,2024-06-14T12:55:50.979Z,english_562.wav,0,0,212,21,3,Chinese,f,3,0.3,55.44168462,0.37876531
XUJIAJIE,17,0,2024-06-14T12:55:50.979Z,english_562.wav,0,0,212,21,3,Chinese,f,4,0.4,19.14590229,1.46315217
XUJIAJIE,17,0,2024-06-14T12:55:50.979Z,english_562.wav,0,0,212,21,3,Chinese,f,5,0.5,-3.26381008,0.03585566
XUJIAJIE,17,0,2024-06-14T12:55:50.979Z,english_562.wav,0,0,212,21,3,Chinese,f,6,0.6,91.90960542,0.70876992
XUJIAJIE,17,0,2024-06-14T12:55:50.979Z,english_562.wav,0,0,212,21,3,Chinese,f,7,0.7,62.21453642,1.53596627
XUJIAJIE,17,0,2024-06-14T12:55:50.979Z,english_562.wav,0,0,212,21,3,Chinese,f,8,0.8,83.94650253,1.29387044
XUJIAJIE,17,0,2024-06-14T12:55:50.979Z,english_562.wav,0,0,212,21,3,Chinese,f,9,0.9,-69.18732996,0.65619247
XUJIAJIE,17,0,2024-06-14T12:55:50.979Z,english_562.wav,0,0,212,21,3,Chinese,f,10,1,-21.18203071,0.14449541
XUJIAJIE,17,0,2024-06-14T12:55:50.979Z,english_562.wav,0,0,212,21,3,Chinese,f,11,1.09391667,12.05175974,1.12518845
XUJIAJIE,18,0,2024-06-14T12:55:50.979Z,english_388.wav,0,0,229,21,3,Chinese,f,0,0,-41.72152619,1.04150919
XUJIAJIE,18,0,2024-06-14T12:55:50.979Z,english_388.wav,0,0,229,21,3,Chinese,f,1,0.1,16.10845718,1.44420011
XUJIAJIE,18,0,2024-06-14T12:55:50.979Z,english_388.wav,0,0,229,21,3,Chinese,f,2,0.2,56.96293644,1.65872581
XUJIAJIE,18,0,2024-06-14T12:55:50.979Z,english_388.wav,0,0,229,21,3,Chinese,f,3,0.3,-95.24889342,1.66380946
XUJIAJIE,18,0,2024-06-14T12:55:50.979Z,english_388.wav,0,0,229,21,3,Chinese,f,4,0.4,-92.06058204,1.25967223
XUJIAJIE,18,0,2024-06-14T12:55:50.979Z,english_388.wav,0,0,229,21,3,Chinese,f,5,0.5,-66.79451415,1.01005139
XUJIAJIE,18,0,2024-06-14T12:55:50.979Z,english_388.wav,0,0,229,21,3,Chinese,f,6,0.6,31.29945158,0.59386887
XUJIAJIE,18,0,2024-06-14T12:55:50.979Z,english_388.wav,0,0,229,21,3,Chinese,f,7,0.7,52.76870029,1.783647
XUJIAJIE,18,0,2024-06-14T12:55:50.979Z,english_388.wav,0,0,229,21,3,Chinese,f,8,0.8,-83.90415266,0.30560863
XUJIAJIE,18,0,2024-06-14T12:55:50.979Z,english_388.wav,0,0,229,21,3,Chinese,f,9,0.9,16.41554992,0.09885056
XUJIAJIE,18,0,2024-06-14T12:55:50.979Z,english_388.wav,0,0,229,21,3,Chinese,f,10,1,44.20651848,0.45485887
XUJIAJIE,18,0,2024-06-14T12:55:50.979Z,english_388.wav,0,0,229,21,3,Chinese,f,11,1.09391667,-53.31309565,1.06517725
XUJIAJIE,19,0,2024-06-14T12:55:50.979Z,english_340.wav,0,0,6081,21,3,Chinese,f,0,0,19.74255444,0.3319767
XUJIAJIE,19,0,2024-06-14T12:55:50.979Z,english_340.wav,0,0,6081,21,3,Chinese,f,1,0.1,25.16855735,0.61048523
XUJIAJIE,19,0,2024-06-14T12:55:50.979Z,english_340.wav,0,0,6081,21,3,Chinese,f,2,0.2,-45.10982673,0.21275179
XUJIAJIE,19,0,2024-06-14T12:55:50.979Z,english_340.wav,0,0,6081,21,3,Chinese,f,3,0.3,-94.4237425,0.29825912
XUJIAJIE,19,0,2024-06-14T12:55:50.979Z,english_340.wav,0,0,6081,21,3,Chinese,f,4,0.4,33.61318105,0.68673966
XUJIAJIE,19,0,2024-06-14T12:55:50.979Z,english_340.wav,0,0,6081,21,3,Chinese,f,5,0.5,-32.11968845,0.56528685
XUJIAJIE,19,0,2024-06-14T12:55:50.979Z,english_340.wav,0,0,6081,21,3,Chinese,f,6,0.6,-73.96198045,1.1523669
XUJIAJIE,19,0,2024-06-14T12:55:50.979Z,english_340.wav,0,0,6081,21,3,Chinese,f,7,0.7,-70.65108678,1.56179354
XUJIAJIE,19,0,2024-06-14T12:55:50.979Z,english_340.wav,0,0,6081,21,3,Chinese,f,8,0.8,-16.68054018,0.7478511
XUJIAJIE,19,0,2024-06-14T12:55:50.979Z,english_340.wav,0,0,6081,21,3,Chinese,f,9,0.9,17.74464594,1.06303665
XUJIAJIE,19,0,2024-06-14T12:55:50.979Z,english_340.wav,0,0,6081,21,3,Chinese,f,10,1,-17.13563894,1.69470448
XUJIAJIE,19,0,2024-06-14T12:55:50.979Z,english_340.wav,0,0,6081,21,3,Chinese,f,11,1.09391667,85.44426077,1.53904315
XUJIAJIE,20,0,2024-06-14T12:55:50.979Z,english_536.wav,0,0,272,21,3,Chinese,f,0,0,12.53985852,0.4318111
XUJIAJIE,20,0,2024-06-14T12:55:50.979Z,english_536.wav,0,0,272,21,3,Chinese,f,1,0.1,21.99103782,1.06422616
XUJIAJIE,20,0,2024-06-14T12:55:50.979Z,english_536.wav,0,0,272,21,3,Chinese,f,2,0.2,62.33634556,1.97390757
XUJIAJIE,20,0,2024-06-14T12:55:50.979Z,english_536.wav,0,0,272,21,3,Chinese,f,3,0.3,-74.90025976,0.26817195
XUJIAJIE,20,0,2024-06-14T12:55:50.979Z,english_536.wav,0,0,272,21,3,Chinese,f,4,0.4,32.85398174,0.16804155
XUJIAJIE,20,0,2024-06-14T12:55:50.979Z,english_536.wav,0,0,272,21,3,Chinese,f,5,0.5,-33.4537755,0.37593725
XUJIAJIE,20,0,2024-06-14T12:55:50.979Z,english_536.wav,0,0,272,21,3,Chinese,f,6,0.6,-42.71623429,1.32070102
XUJIAJIE,20,0,2024-06-14T12:55:50.979Z,english_536.wav,0,0,272,21,3,Chinese,f,7,0.7,-1.00699642,0.04715572
XUJIAJIE,20,0,2024-06-14T12:55:50.979Z,english_536.wav,0,0,272,21,3,Chinese,f,8,0.8,-25.01596186,1.04948049
XUJIAJIE,20,0,2024-06-14T12:55:50.979Z,english_536.wav,0,0,272,21,3,Chinese,f,9,0.9,-49.31989542,0.94782972
XUJIAJIE,20,0,2024-06-14T12:55:50.979Z,english_536.wav,0,0,272,21,3,Chinese,f,10,1,38.02707377,1.69951962
XUJIAJIE,20,0,2024-06-14T12:55:50.979Z,english_536.wav,0,0,272,21,3,Chinese,f,11,1.09391667,50.96675347,1.16734118
XUJIAJIE,21,0,2024-06-14T12:55:50.979Z,english_993.wav,0,0,67,21,3,Chinese,f,0,0,-8.65746923,1.97743958
XUJIAJIE,21,0,2024-06-14T12:55:50.979Z,english_993.wav,0,0,67,21,3,Chinese,f,1,0.1,-27.87522694,0.36006803
XUJIAJIE,21,0,2024-06-14T12:55:50.979Z,english_993.wav,0,0,67,21,3,Chinese,f,2,0.2,41.79329436,0.06856355
XUJIAJIE,21,0,2024-06-14T12:55:50.979Z,english_993.wav,0,0,67,21,3,Chinese,f,3,0.3,-23.16935708,0.38955927
XUJIAJIE,21,0,2024-06-14T12:55:50.979Z,english_993.wav,0,0,67,21,3,Chinese,f,4,0.4,18.8592239,1.25297016
XUJIAJIE,21,0,2024-06-14T12:55:50.979Z,english_993.wav,0,0,67,21,3,Chinese,f,5,0.5,40.29392848,0.33975417
XUJIAJIE,21,0,2024-06-14T12:55:50.979Z,english_993.wav,0,0,67,21,3,Chinese,f,6,0.6,77.6038757,1.12200744
XUJIAJIE,21,0,2024-06-14T12:55:50.979Z,english_993.wav,0,0,67,21,3,Chinese,f,7,0.7,33.5103026,1.75189261
XUJIAJIE,21,0,2024-06-14T12:55:50.979Z,english_993.wav,0,0,67,21,3,Chinese,f,8,0.8,71.9206852,0.43539509
XUJIAJIE,21,0,2024-06-14T12:55:50.979Z,english_993.wav,0,0,67,21,3,Chinese,f,9,0.9,-28.91081602,1.78200425
XUJIAJIE,21,0,2024-06-14T12:55:50.979Z,english_993.wav,0,0,67,21,3,Chinese,f,10,1,-66.92854856,0.58801976
XUJIAJIE,21,0,2024-06-14T12:55:50.979Z,english_993.wav,0,0,67,21,3,Chinese,f,11,1.09391667,-70.4693707,0.997712
XUJIAJIE,22,0,2024-06-14T12:55:50.979Z,english_829.wav,0,0,146,21,3,Chinese,f,0,0,-7.89955856,0.852516
XUJIAJIE,22,0,2024-06-14T12:55:50.979Z,english_829.wav,0,0,146,21,3,Chinese,f,1,0.1,-18.01769042,0.97788956
XUJIAJIE,22,0,2024-06-14T12:55:50.979Z,english_829.wav,0,0,146,21,3,Chinese,f,2,0.2,57.48418942,1.32810397
XUJIAJIE,22,0,2024-06-14T12:55:50.979Z,english_829.wav,0,0,146,21,3,Chinese,f,3,0.3,41.9687918,0.18108064
XUJIAJIE,22,0,2024-06-14T12:55:50.979Z,english_829.wav,0,0,146,21,3,Chinese,f,4,0.4,-61.64702177,0.15705118
XUJIAJIE,22,0,2024-06-14T12:55:50.979Z,english_829.wav,0,0,146,21,3,Chinese,f,5,0.5,-20.29007911,0.66571436
XUJIAJIE,22,0,2024-06-14T12:55:50.979Z,english_829.wav,0,0,146,21,3,Chinese,f,6,0.6,93.24496902,0.20869504
XUJIAJIE,22,0,2024-06-14T12:55:50.979Z,english_829.wav,0,0,146,21,3,Chinese,f,7,0.7,-32.99482484,1.27621492
XUJIAJIE,22,0,2024-06-14T12:55:50.979Z,english_829.wav,0,0,146,21,3,Chinese,f,8,0.8,6.59233546,1.10768251
XUJIAJIE,22,0,2024-06-14T12:55:50.979Z,english_829.wav,0,0,146,21,3,Chinese,f,9,0.9,-90.87646181,1.10361444
XUJIAJIE,22,0,2024-06-14T12:55:50.979Z,english_829.wav,0,0,146,21,3,Chinese,f,10,1,9.72736643,0.98320382
XUJIAJIE,22,0,2024-06-14T12:55:50.979Z,english_829.wav,0,0,146,21,3,Chinese,f,11,1.09391667,-11.26207351,1.01672444
XUJIAJIE,23,0,2024-06-14T12:55:50.979Z,english_151.wav,0,0,111,21,3,Chinese,f,0,0,-96.58356516,1.19663116
XUJIAJIE,23,0,2024-06-14T12:55:50.979Z,english_151.wav,0,0,111,21,3,Chinese,f,1,0.1,53.33507439,0.02049529
XUJIAJIE,23,0,2024-06-14T12:55:50.979Z,english_151.wav,0,0,111,21,3,Chinese,f,2,0.2,23.26881474,0.86701839
XUJIAJIE,23,0,2024-06-14T12:55:50.979Z,english_151.wav,0,0,111,21,3,Chinese,f,3,0.3,89.03249778,0.68926078
XUJIAJIE,23,0,2024-06-14T12:55:50.979Z,english_151.wav,0,0,111,21,3,Chinese,f,4,0.4,-38.82793041,0.60287098
XUJIAJIE,23,0,2024-06-14T12:55:50.979Z,english_151.wav,0,0,111,21,3,Chinese,f,5,0.5,-36.66004779,1.21623164
XUJIAJIE,23,0,2024-06-14T12:55:50.979Z,english_151.wav,0,0,111,21,3,Chinese,f,6,0.6,67.28889671,0.80619928
XUJIAJIE,23,0,2024-06-14T12:55:50.979Z,english_151.wav,0,0,111,21,3,Chinese,f,7,0.7,-0.40239481,0.32656555
XUJIAJIE,23,0,2024-06-14T12:55:50.979Z,english_151.wav,0,0,111,21,3,Chinese,f,8,0.8,-91.46427785,1.24233336
XUJIAJIE,23,0,2024-06-14T12:55:50.979Z,english_151.wav,0,0,111,21,3,Chinese,f,9,0.9,42.06624713,0.88095947
XUJIAJIE,23,0,2024-06-14T12:55:50.979Z,english_151.wav,0,0,111,21,3,Chinese,f,10,1,-44.58654352,1.51580141
XUJIAJIE,23,0,2024-06-14T12:55:50.979Z,english_151.wav,0,0,111,21,3,Chinese,f,11,1.09391667,65.09222406,0.37134413
XUJIAJIE,24,0,2024-06-14T12:55:50.979Z,english_357.wav,0,0,201,21,3,Chinese,f,0,0,-87.96365185,1.52852124
XUJIAJIE,24,0,2024-06-14T12:55:50.979Z,english_357.wav,0,0,201,21,3,Chinese,f,1,0.1,-8.5190019,1.93288072
XUJIAJIE,24,0,2024-06-14T12:55:50.979Z,english_357.wav,0,0,201,21,3,Chinese,f,2,0.2,34.94660595,1.80201728
XUJIAJIE,24,0,2024-06-14T12:55:50.979Z,english_357.wav,0,0,201,21,3,Chinese,f,3,0.3,74.01534503,0.94192251
XUJIAJIE,24,0,2024-06-14T12:55:50.979Z,english_357.wav,0,0,201,21,3,Chinese,f,4,0.4,13.59562063,1.02469598
XUJIAJIE,24,0,2024-06-14T12:55:50.979Z,english_357.wav,0,0,201,21,3,Chinese,f,5,0.5,-84.64423503,1.61646509
XUJIAJIE,24,0,2024-06-14T12:55:50.979Z,english_357.wav,0,0,201,21,3,Chinese,f,6,0.6,-29.1291793,0.27950667
XUJIAJIE,24,0,2024-06-14T12:55:50.979Z,english_357.wav,0,0,201,21,3,Chinese,f,7,0.7,-52.42503967,1.30320323
XUJIAJIE,24,0,2024-06-14T12:55:50.979Z,english_357.wav,0,0,201,21,3,Chinese,f,8,0.8,21.24796122,1.07824702
XUJIAJIE,24,0,2024-06-14T12:55:50.979Z,english_357.wav,0,0,201,21,3,Chinese,f,9,0.9,32.72205185,0.68433039
XUJIAJIE,24,0,2024-06-14T12:55:50.979Z,english_357.wav,0,0,201,21,3,Chinese,f,10,1,-96.5222269,1.27621022
XUJIAJIE,24,0,2024-06-14T12:55:50.979Z,english_357.wav,0,0,201,21,3,Chinese,f,11,1.09391667,30.40810686,1.23591368
XUJIAJIE,25,0,2024-06-14T12:55:50.979Z,english_430.wav,0,0,198,21,3,Chinese,f,0,0,-88.95761908,1.0411215
XUJIAJIE,25,0,2024-06-14T12:55:50.979Z,english_430.wav,0,0,198,21,3,Chinese,f,1,0.1,39.34804897,1.73577333
XUJIAJIE,25,0,2024-06-14T12:55:50.979Z,english_430.wav,0,0,198,21,3,Chinese,f,2,0.2,-21.72599187,0.8754531
XUJIAJIE,25,0,2024-06-14T12:55:50.979Z,english_430.wav,0,0,198,21,3,Chinese,f,3,0.3,-97.97733292,0.18874451
XUJIAJIE,25,0,2024-06-14T12:55:50.979Z,english_430.wav,0,0,198,21,3,Chinese,f,4,0.4,98.23201219,1.1142071
XUJIAJIE,25,0,2024-06-14T12:55:50.979Z,english_430.wav,0,0,198,21,3,Chinese,f,5,0.5,92.79611353,0.3830467
XUJIAJIE,25,0,2024-06-14T12:55:50.979Z,english_430.wav,0,0,198,21,3,Chinese,f,6,0.6,44.81381594,0.5347185
XUJIAJIE,25,0,2024-06-14T12:55:50.979Z,english_430.wav,0,0,198,21,3,Chinese,f,7,0.7,-96.67681225,0.4014233
XUJIAJIE,25,0,2024-06-14T12:55:50.979Z,english_430.wav,0,0,198,21,3,Chinese,f,8,0.8,99.24041947,0.50454446
XUJIAJIE,25,0,2024-06-14T12:55:50.979Z,english_430.wav,0,0,198,21,3,Chinese,f,9,0.9,33.24344921,0.88496249
XUJIAJIE,25,0,2024-06-14T12:55:50.979Z,english_430.wav,0,0,198,21,3,Chinese,f,10,1,-26.01349309,1.71251412
XUJIAJIE,25,0,2024-06-14T12:55:50.979Z,english_430.wav,0,0,198,21,3,Chinese,f,11,1.09391667,-84.24925862,1.92006939
XUJIAJIE,26,0,2024-06-14T12:55:50.979Z,english_945.wav,0,0,177,21,3,Chinese,f,0,0,-8.90413291,0.85973831
XUJIAJIE,26,0,2024-06-14T12:55:50.979Z,english_945.wav,0,0,177,21,3,Chinese,f,1,0.1,14.69079878,1.50793383
XUJIAJIE,26,0,2024-06-14T12:55:50.979Z,english_945.wav,0,0,177,21,3,Chinese,f,2,0.2,16.86515392,1.6389584
XUJIAJIE,26,0,2024-06-14T12:55:50.979Z,english_945.wav,0,0,177,21,3,Chinese,f,3,0.3,-0.90328453,1.35118399
XUJIAJIE,26,0,2024-06-14T12:55:50.979Z,english_945.wav,0,0,177,21,3,Chinese,f,4,0.4,-81.95044393,0.67347382
XUJIAJIE,26,0,2024-06-14T12:55:50.979Z,english_945.wav,0,0,177,21,3,Chinese,f,5,0.5,39.38574307,0.90170453
XUJIAJIE,26,0,2024-06-14T12:55:50.979Z,english_945.wav,0,0,177,21,3,Chinese,f,6,0.6,48.97516123,1.48284903
XUJIAJIE,26,0,2024-06-14T12:55:50.979Z,english_945.wav,0,0,177,21,3,Chinese,f,7,0.7,22.02745292,0.52532692
XUJIAJIE,26,0,2024-06-14T12:55:50.979Z,english_945.wav,0,0,177,21,3,Chinese,f,8,0.8,-62.58672275,0.42512417
XUJIAJIE,26,0,2024-06-14T12:55:50.979Z,english_945.wav,0,0,177,21,3,Chinese,f,9,0.9,40.96128128,0.61558677
XUJIAJIE,26,0,2024-06-14T12:55:50.979Z,english_945.wav,0,0,177,21,3,Chinese,f,10,1,-87.24049134,1.20691188
XUJIAJIE,26,0,2024-06-14T12:55:50.979Z,english_945.wav,0,0,177,21,3,Chinese,f,11,1.09391667,-36.18929768,1.76719884
XUJIAJIE,27,0,2024-06-14T12:55:50.979Z,english_131.wav,0,0,712,21,3,Chinese,f,0,0,0.31363537,1.18724551
XUJIAJIE,27,0,2024-06-14T12:55:50.979Z,english_131.wav,0,0,712,21,3,Chinese,f,1,0.1,36.71486201,1.11707061
XUJIAJIE,27,0,2024-06-14T12:55:50.979Z,english_131.wav,0,0,712,21,3,Chinese,f,2,0.2,-43.77123754,0.00275246
XUJIAJIE,27,0,2024-06-14T12:55:50.979Z,english_131.wav,0,0,712,21,3,Chinese,f,3,0.3,-25.02514695,1.15512468
XUJIAJIE,27,0,2024-06-14T12:55:50.979Z,english_131.wav,0,0,712,21,3,Chinese,f,4,0.4,-57.33579205,1.12677457
XUJIAJIE,27,0,2024-06-14T12:55:50.979Z,english_131.wav,0,0,712,21,3,Chinese,f,5,0.5,-86.86546268,1.05779514
XUJIAJIE,27,0,2024-06-14T12:55:50.979Z,english_131.wav,0,0,712,21,3,Chinese,f,6,0.6,34.68309006,1.76361287
XUJIAJIE,27,0,2024-06-14T12:55:50.979Z,english_131.wav,0,0,712,21,3,Chinese,f,7,0.7,-54.571254,1.49422438
XUJIAJIE,27,0,2024-06-14T12:55:50.979Z,english_131.wav,0,0,712,21,3,Chinese,f,8,0.8,15.2602828,0.77084465
XUJIAJIE,27,0,2024-06-14T12:55:50.979Z,english_131.wav,0,0,712,21,3,Chinese,f,9,0.9,37.40968803,0.77617306
XUJIAJIE,27,0,2024-06-14T12:55:50.979Z,english_131.wav,0,0,712,21,3,Chinese,f,10,1,-75.44923375,0.87602882
XUJIAJIE,27,0,2024-06-14T12:55:50.979Z,english_131.wav,0,0,712,21,3,Chinese,f,11,1.09391667,22.36121129,1.56580011
XUJIAJIE,28,0,2024-06-14T12:55:50.979Z,english_629.wav,0,0,150,21,3,Chinese,f,0,0,-98.30964243,0.81771725
XUJIAJIE,28,0,2024-06-14T12:55:50.979Z,english_629.wav,0,0,150,21,3,Chinese,f,1,0.1,-5.62970232,0.80248144
XUJIAJIE,28,0,2024-06-14T12:55:50.979Z,english_629.wav,0,0,150,21,3,Chinese,f,2,0.2,20.69990793,1.65272957
XUJIAJIE,28,0,2024-06-14T12:55:50.979Z,english_629.wav,0,0,150,21,3,Chinese,f,3,0.3,-4.68954038,0.79587507
XUJIAJIE,28,0,2024-06-14T12:55:50.979Z,english_629.wav,0,0,150,21,3,Chinese,f,4,0.4,-82.80499964,0.51843323
XUJIAJIE,28,0,2024-06-14T12:55:50.979Z,english_629.wav,0,0,150,21,3,Chinese,f,5,0.5,68.80297029,1.06630495
XUJIAJIE,28,0,2024-06-14T12:55:50.979Z,english_629.wav,0,0,150,21,3,Chinese,f,6,0.6,-24.62615081,0.85921764
XUJIAJIE,28,0,2024-06-14T12:55:50.979Z,english_629.wav,0,0,150,21,3,Chinese,f,7,0.7,-86.27878454,1.30572182
XUJIAJIE,28,0,2024-06-14T12:55:50.979Z,english_629.wav,0,0,150,21,3,Chinese,f,8,0.8,-88.66663155,0.67243508
XUJIAJIE,28,0,2024-06-14T12:55:50.979Z,english_629.wav,0,0,150,21,3,Chinese,f,9,0.9,8.97030431,0.68958588
XUJIAJIE,28,0,2024-06-14T12:55:50.979Z,english_629.wav,0,0,150,21,3,Chinese,f,10,1,-94.86018334,0.23451131
XUJIAJIE,28,0,2024-06-14T12:55:50.979Z,english_629.wav,0,0,150,21,3,Chinese,f,11,1.09391667,10.00961885,1.91010728
XUJIAJIE,29,0,2024-06-14T12:55:50.979Z,english_979.wav,0,0,205,21,3,Chinese,f,0,0,37.48457567,1.4207367
XUJIAJIE,29,0,2024-06-14T12:55:50.979Z,english_979.wav,0,0,205,21,3,Chinese,f,1,0.1,-37.02244062,1.31079647
XUJIAJIE,29,0,2024-06-14T12:55:50.979Z,english_979.wav,0,0,205,21,3,Chinese,f,2,0.2,-24.69283161,0.99381913
XUJIAJIE,29,0,2024-06-14T12:55:50.979Z,english_979.wav,0,0,205,21,3,Chinese,f,3,0.3,-46.06023598,1.92885953
XUJIAJIE,29,0,2024-06-14T12:55:50.979Z,english_979.wav,0,0,205,21,3,Chinese,f,4,0.4,-42.84074597,1.90853779
XUJIAJIE,29,0,2024-06-14T12:55:50.979Z,english_979.wav,0,0,205,21,3,Chinese,f,5,0.5,74.27862476,0.2569717
XUJIAJIE,29,0,2024-06-14T12:55:50.979Z,english_979.wav,0,0,205,21,3,Chinese,f,6,0.6,-8.30998961,0.19374483
XUJIAJIE,29,0,2024-06-14T12:55:50.979Z,english_979.wav,0,0,205,21,3,Chinese,f,7,0.7,58.9564601,1.09057025
XUJIAJIE,29,0,2024-06-14T12:55:50.979Z,english_979.wav,0,0,205,21,3,Chinese,f,8,0.8,-5.32034309,1.33389295
XUJIAJIE,29,0,2024-06-14T12:55:50.979Z,english_979.wav,0,0,205,21,3,Chinese,f,9,0.9,26.74044499,0.56327367
XUJIAJIE,29,0,2024-06-14T12:55:50.979Z,english_979.wav,0,0,205,21,3,Chinese,f,10,1,-18.64517926,0.75332902
XUJIAJIE,29,0,2024-06-14T12:55:50.979Z,english_979.wav,0,0,205,21,3,Chinese,f,11,1.09391667,58.46936922,0.45071064
XUJIAJIE,30,0,2024-06-14T12:55:50.979Z,english_671.wav,0,0,413,21,3,Chinese,f,0,0,-45.93815434,1.42496889
XUJIAJIE,30,0,2024-06-14T12:55:50.979Z,english_671.wav,0,0,413,21,3,Chinese,f,1,0.1,-9.85133236,0.72590703
XUJIAJIE,30,0,2024-06-14T12:55:50.979Z,english_671.wav,0,0,413,21,3,Chinese,f,2,0.2,-90.27584827,0.03582408
XUJIAJIE,30,0,2024-06-14T12:55:50.979Z,english_671.wav,0,0,413,21,3,Chinese,f,3,0.3,-12.62569024,1.95422408
XUJIAJIE,30,0,2024-06-14T12:55:50.979Z,english_671.wav,0,0,413,21,3,Chinese,f,4,0.4,-25.02264323,0.03147383
XUJIAJIE,30,0,2024-06-14T12:55:50.979Z,english_671.wav,0,0,413,21,3,Chinese,f,5,0.5,-73.63967284,1.78242159
XUJIAJIE,30,0,2024-06-14T12:55:50.979Z,english_671.wav,0,0,413,21,3,Chinese,f,6,0.6,-8.12482987,0.44075536
XUJIAJIE,30,0,2024-06-14T12:55:50.979Z,english_671.wav,0,0,413,21,3,Chinese,f,7,0.7,20.3897076,1.76056673
XUJIAJIE,30,0,2024-06-14T12:55:50.979Z,english_671.wav,0,0,413,21,3,Chinese,f,8,0.8,-16.71271092,0.82662657
XUJIAJIE,30,0,2024-06-14T12:55:50.979Z,english_671.wav,0,0,413,21,3,Chinese,f,9,0.9,60.34106396,0.3638046
XUJIAJIE,30,0,2024-06-14T12:55:50.979Z,english_671.wav,0,0,413,21,3,Chinese,f,10,1,-65.87673981,0.96822524
XUJIAJIE,30,0,2024-06-14T12:55:50.979Z,english_671.wav,0,0,413,21,3,Chinese,f,11,1.09391667,-90.1963817,0.11003173
XUJIAJIE,31,0,2024-06-14T12:55:50.979Z,english_586.wav,0,0,436,21,3,Chinese,f,0,0,19.9692207,1.34383916
XUJIAJIE,31,0,2024-06-14T12:55:50.979Z,english_586.wav,0,0,436,21,3,Chinese,f,1,0.1,22.22606315,0.0196847498
XUJIAJIE,31,0,2024-06-14T12:55:50.979Z,english_586.wav,0,0,436,21,3,Chinese,f,2,0.2,44.76083147,1.32604329
XUJIAJIE,31,0,2024-06-14T12:55:50.979Z,english_586.wav,0,0,436,21,3,Chinese,f,3,0.3,30.56518658,0.457164903
XUJIAJIE,31,0,2024-06-14T12:55:50.979Z,english_586.wav,0,0,436,21,3,Chinese,f,4,0.4,70.50807044,0.862218031
XUJIAJIE,31,0,2024-06-14T12:55:50.979Z,english_586.wav,0,0,436,21,3,Chinese,f,5,0.5,-99.40073456,1.19900353
XUJIAJIE,31,0,2024-06-14T12:55:50.979Z,english_586.wav,0,0,436,21,3,Chinese,f,6,0.6,-34.76596453,1.85917609
XUJIAJIE,31,0,2024-06-14T12:55:50.979Z,english_586.wav,0,0,436,21,3,Chinese,f,7,0.7,-7.2574162,0.599282433
XUJIAJIE,31,0,2024-06-14T12:55:50.979Z,english_586.wav,0,0,436,21,3,Chinese,f,8,0.8,-34.51491792,0.420457526
XUJIAJIE,31,0,2024-06-14T12:55:50.979Z,english_586.wav,0,0,436,21,3,Chinese,f,9,0.9,40.55984504,1.44903206
XUJIAJIE,31,0,2024-06-14T12:55:50.979Z,english_586.wav,0,0,436,21,3,Chinese,f,10,1,43.92860722,0.00056977348
XUJIAJIE,31,0,2024-06-14T12:55:50.979Z,english_586.wav,0,0,436,21,3,Chinese,f,11,1.09391667,97.81958787,1.67148022
XUJIAJIE,32,0,2024-06-14T12:55:50.979Z,english_851.wav,0,0,4483,21,3,Chinese,f,0,0,-45.21125718,1.95103615
XUJIAJIE,32,0,2024-06-14T12:55:50.979Z,english_851.wav,0,0,4483,21,3,Chinese,f,1,0.1,-85.75475475,0.03053554
XUJIAJIE,32,0,2024-06-14T12:55:50.979Z,english_851.wav,0,0,4483,21,3,Chinese,f,2,0.2,-73.09455341,0.63850244
XUJIAJIE,32,0,2024-06-14T12:55:50.979Z,english_851.wav,0,0,4483,21,3,Chinese,f,3,0.3,1.17370607,0.96719068
XUJIAJIE,32,0,2024-06-14T12:55:50.979Z,english_851.wav,0,0,4483,21,3,Chinese,f,4,0.4,-11.35992748,0.02484013
XUJIAJIE,32,0,2024-06-14T12:55:50.979Z,english_851.wav,0,0,4483,21,3,Chinese,f,5,0.5,42.80073602,0.41750072
XUJIAJIE,32,0,2024-06-14T12:55:50.979Z,english_851.wav,0,0,4483,21,3,Chinese,f,6,0.6,45.07360169,1.17324743
XUJIAJIE,32,0,2024-06-14T12:55:50.979Z,english_851.wav,0,0,4483,21,3,Chinese,f,7,0.7,-42.16100478,0.99186788
XUJIAJIE,32,0,2024-06-14T12:55:50.979Z,english_851.wav,0,0,4483,21,3,Chinese,f,8,0.8,-19.59764742,1.3258141
XUJIAJIE,32,0,2024-06-14T12:55:50.979Z,english_851.wav,0,0,4483,21,3,Chinese,f,9,0.9,-56.7450747,1.2279363
XUJIAJIE,32,0,2024-06-14T12:55:50.979Z,english_851.wav,0,0,4483,21,3,Chinese,f,10,1,78.71604463,1.72539035
XUJIAJIE,32,0,2024-06-14T12:55:50.979Z,english_851.wav,0,0,4483,21,3,Chinese,f,11,1.09391667,96.78573361,1.236894
XUJIAJIE,33,0,2024-06-14T12:55:50.979Z,english_535.wav,0,0,901,21,3,Chinese,f,0,0,-4.00375318,0.74823916
XUJIAJIE,33,0,2024-06-14T12:55:50.979Z,english_535.wav,0,0,901,21,3,Chinese,f,1,0.1,-37.57387138,0.9109632
XUJIAJIE,33,0,2024-06-14T12:55:50.979Z,english_535.wav,0,0,901,21,3,Chinese,f,2,0.2,-31.12595353,0.84755902
XUJIAJIE,33,0,2024-06-14T12:55:50.979Z,english_535.wav,0,0,901,21,3,Chinese,f,3,0.3,2.06341331,1.09662022
XUJIAJIE,33,0,2024-06-14T12:55:50.979Z,english_535.wav,0,0,901,21,3,Chinese,f,4,0.4,56.11576492,0.26254995
XUJIAJIE,33,0,2024-06-14T12:55:50.979Z,english_535.wav,0,0,901,21,3,Chinese,f,5,0.5,30.13214978,1.29967994
XUJIAJIE,33,0,2024-06-14T12:55:50.979Z,english_535.wav,0,0,901,21,3,Chinese,f,6,0.6,14.78197265,1.50452532
XUJIAJIE,33,0,2024-06-14T12:55:50.979Z,english_535.wav,0,0,901,21,3,Chinese,f,7,0.7,-18.38930177,1.51808924
XUJIAJIE,33,0,2024-06-14T12:55:50.979Z,english_535.wav,0,0,901,21,3,Chinese,f,8,0.8,-10.54396075,0.34439234
XUJIAJIE,33,0,2024-06-14T12:55:50.979Z,english_535.wav,0,0,901,21,3,Chinese,f,9,0.9,39.09773013,0.86790386
XUJIAJIE,33,0,2024-06-14T12:55:50.979Z,english_535.wav,0,0,901,21,3,Chinese,f,10,1,46.13111143,0.86784134
XUJIAJIE,33,0,2024-06-14T12:55:50.979Z,english_535.wav,0,0,901,21,3,Chinese,f,11,1.09391667,-64.44597459,0.57511998
XUJIAJIE,34,0,2024-06-14T12:55:50.979Z,english_523.wav,0,0,801,21,3,Chinese,f,0,0,-25.97539799,0.34449626
XUJIAJIE,34,0,2024-06-14T12:55:50.979Z,english_523.wav,0,0,801,21,3,Chinese,f,1,0.1,-25.11108095,0.18549089
XUJIAJIE,34,0,2024-06-14T12:55:50.979Z,english_523.wav,0,0,801,21,3,Chinese,f,2,0.2,-67.4070828,1.10257375
XUJIAJIE,34,0,2024-06-14T12:55:50.979Z,english_523.wav,0,0,801,21,3,Chinese,f,3,0.3,14.34055957,0.39893493
XUJIAJIE,34,0,2024-06-14T12:55:50.979Z,english_523.wav,0,0,801,21,3,Chinese,f,4,0.4,10.27536217,1.8821087
XUJIAJIE,34,0,2024-06-14T12:55:50.979Z,english_523.wav,0,0,801,21,3,Chinese,f,5,0.5,2.68899624,1.33802983
XUJIAJIE,34,0,2024-06-14T12:55:50.979Z,english_523.wav,0,0,801,21,3,Chinese,f,6,0.6,5.43637058,1.93381979
XUJIAJIE,34,0,2024-06-14T12:55:50.979Z,english_523.wav,0,0,801,21,3,Chinese,f,7,0.7,84.96836729,1.3963609
XUJIAJIE,34,0,2024-06-14T12:55:50.979Z,english_523.wav,0,0,801,21,3,Chinese,f,8,0.8,0.15377924,0.58447079
XUJIAJIE,34,0,2024-06-14T12:55:50.979Z,english_523.wav,0,0,801,21,3,Chinese,f,9,0.9,-34.21093103,0.41716989
XUJIAJIE,34,0,2024-06-14T12:55:50.979Z,english_523.wav,0,0,801,21,3,Chinese,f,10,1,-94.05275706,1.25827867
XUJIAJIE,34,0,2024-06-14T12:55:50.979Z,english_523.wav,0,0,801,21,3,Chinese,f,11,1.09391667,-75.26058007,0.83944497
XUJIAJIE,35,0,2024-06-14T13:03:49.675Z,english_180.wav,0,0,331,21,3,Chinese,f,0,0,42.85478744,0.49645543
XUJIAJIE,35,0,2024-06-14T13:03:49.675Z,english_180.wav,0,0,331,21,3,Chinese,f,1,0.1,11.60642133,1.40377655
XUJIAJIE,35,0,2024-06-14T13:03:49.675Z,english_180.wav,0,0,331,21,3,Chinese,f,2,0.2,-27.38772625,0.70453688
XUJIAJIE,35,0,2024-06-14T13:03:49.675Z,english_180.wav,0,0,331,21,3,Chinese,f,3,0.3,80.41560742,1.01697082
XUJIAJIE,35,0,2024-06-14T13:03:49.675Z,english_180.wav,0,0,331,21,3,Chinese,f,4,0.4,-67.11843031,0.59692665
XUJIAJIE,35,0,2024-06-14T13:03:49.675Z,english_180.wav,0,0,331,21,3,Chinese,f,5,0.5,25.47679572,0.43242047
XUJIAJIE,35,0,2024-06-14T13:03:49.675Z,english_180.wav,0,0,331,21,3,Chinese,f,6,0.6,29.48556379,0.65503898
XUJIAJIE,35,0,2024-06-14T13:03:49.675Z,english_180.wav,0,0,331,21,3,Chinese,f,7,0.7,-62.53851543,1.14916488
XUJIAJIE,35,0,2024-06-14T13:03:49.675Z,english_180.wav,0,0,331,21,3,Chinese,f,8,0.8,-49.48041885,0.12826618
XUJIAJIE,35,0,2024-06-14T13:03:49.675Z,english_180.wav,0,0,331,21,3,Chinese,f,9,0.9,29.80835172,1.82068044
XUJIAJIE,35,0,2024-06-14T13:03:49.675Z,english_180.wav,0,0,331,21,3,Chinese,f,10,1,83.85336689,1.93281092
XUJIAJIE,35,0,2024-06-14T13:03:49.675Z,english_180.wav,0,0,331,21,3,Chinese,f,11,1.09391667,-22.17498974,1.38105191
XUJIAJIE,36,0,2024-06-14T13:03:49.675Z,english_412.wav,0,0,255,21,3,Chinese,f,0,0,26.80121406,1.83350646
XUJIAJIE,36,0,2024-06-14T13:03:49.675Z,english_412.wav,0,0,255,21,3,Chinese,f,1,0.1,42.5524274,0.85761925
XUJIAJIE,36,0,2024-06-14T13:03:49.675Z,english_412.wav,0,0,255,21,3,Chinese,f,2,0.2,38.73121894,0.81318793
XUJIAJIE,36,0,2024-06-14T13:03:49.675Z,english_412.wav,0,0,255,21,3,Chinese,f,3,0.3,55.35824973,1.83972978
XUJIAJIE,36,0,2024-06-14T13:03:49.675Z,english_412.wav,0,0,255,21,3,Chinese,f,4,0.4,-87.34208499,0.56193469
XUJIAJIE,36,0,2024-06-14T13:03:49.675Z,english_412.wav,0,0,255,21,3,Chinese,f,5,0.5,91.77879658,1.27086462
XUJIAJIE,36,0,2024-06-14T13:03:49.675Z,english_412.wav,0,0,255,21,3,Chinese,f,6,0.6,-99.58264321,1.22553346
XUJIAJIE,36,0,2024-06-14T13:03:49.675Z,english_412.wav,0,0,255,21,3,Chinese,f,7,0.7,89.55239913,0.34439159
XUJIAJIE,36,0,2024-06-14T13:03:49.675Z,english_412.wav,0,0,255,21,3,Chinese,f,8,0.8,-28.13161571,1.78223109
XUJIAJIE,36,0,2024-06-14T13:03:49.675Z,english_412.wav,0,0,255,21,3,Chinese,f,9,0.9,19.27007549,1.75477532
XUJIAJIE,36,0,2024-06-14T13:03:49.675Z,english_412.wav,0,0,255,21,3,Chinese,f,10,1,60.0301485,0.33667923
XUJIAJIE,36,0,2024-06-14T13:03:49.675Z,english_412.wav,0,0,255,21,3,Chinese,f,11,1.09391667,67.95145907,1.7966079
XUJIAJIE,37,0,2024-06-14T13:03:49.675Z,english_158.wav,0,0,365,21,3,Chinese,f,0,0,41.17268037,0.12012262
XUJIAJIE,37,0,2024-06-14T13:03:49.675Z,english_158.wav,0,0,365,21,3,Chinese,f,1,0.1,39.43055099,1.02753784
XUJIAJIE,37,0,2024-06-14T13:03:49.675Z,english_158.wav,0,0,365,21,3,Chinese,f,2,0.2,18.17307199,1.36643436
XUJIAJIE,37,0,2024-06-14T13:03:49.675Z,english_158.wav,0,0,365,21,3,Chinese,f,3,0.3,2.1288608,1.78617089
XUJIAJIE,37,0,2024-06-14T13:03:49.675Z,english_158.wav,0,0,365,21,3,Chinese,f,4,0.4,14.16848378,0.39713516
XUJIAJIE,37,0,2024-06-14T13:03:49.675Z,english_158.wav,0,0,365,21,3,Chinese,f,5,0.5,-31.43837624,1.5313636
XUJIAJIE,37,0,2024-06-14T13:03:49.675Z,english_158.wav,0,0,365,21,3,Chinese,f,6,0.6,46.37345031,1.20655285
XUJIAJIE,37,0,2024-06-14T13:03:49.675Z,english_158.wav,0,0,365,21,3,Chinese,f,7,0.7,58.75582509,0.16880901
XUJIAJIE,37,0,2024-06-14T13:03:49.675Z,english_158.wav,0,0,365,21,3,Chinese,f,8,0.8,23.78862253,0.30409425
XUJIAJIE,37,0,2024-06-14T13:03:49.675Z,english_158.wav,0,0,365,21,3,Chinese,f,9,0.9,-4.2911947,1.28329421
XUJIAJIE,37,0,2024-06-14T13:03:49.675Z,english_158.wav,0,0,365,21,3,Chinese,f,10,1,-43.40891041,0.17704904
XUJIAJIE,37,0,2024-06-14T13:03:49.675Z,english_158.wav,0,0,365,21,3,Chinese,f,11,1.09391667,16.25522825,0.66899263
XUJIAJIE,38,0,2024-06-14T13:03:49.675Z,english_154.wav,0,0,113,21,3,Chinese,f,0,0,50.07590523,1.91490825
XUJIAJIE,38,0,2024-06-14T13:03:49.675Z,english_154.wav,0,0,113,21,3,Chinese,f,1,0.1,54.36539589,1.49511577
XUJIAJIE,38,0,2024-06-14T13:03:49.675Z,english_154.wav,0,0,113,21,3,Chinese,f,2,0.2,-33.00647988,0.88521845
XUJIAJIE,38,0,2024-06-14T13:03:49.675Z,english_154.wav,0,0,113,21,3,Chinese,f,3,0.3,-21.71222975,1.92896632
XUJIAJIE,38,0,2024-06-14T13:03:49.675Z,english_154.wav,0,0,113,21,3,Chinese,f,4,0.4,-59.72627018,1.65018162
XUJIAJIE,38,0,2024-06-14T13:03:49.675Z,english_154.wav,0,0,113,21,3,Chinese,f,5,0.5,-65.27928089,0.16844772
XUJIAJIE,38,0,2024-06-14T13:03:49.675Z,english_154.wav,0,0,113,21,3,Chinese,f,6,0.6,25.37742378,1.26574184
XUJIAJIE,38,0,2024-06-14T13:03:49.675Z,english_154.wav,0,0,113,21,3,Chinese,f,7,0.7,7.20174616,1.59894503
XUJIAJIE,38,0,2024-06-14T13:03:49.675Z,english_154.wav,0,0,113,21,3,Chinese,f,8,0.8,-20.24283456,1.83170987
XUJIAJIE,38,0,2024-06-14T13:03:49.675Z,english_154.wav,0,0,113,21,3,Chinese,f,9,0.9,-23.90559996,1.31030459
XUJIAJIE,38,0,2024-06-14T13:03:49.675Z,english_154.wav,0,0,113,21,3,Chinese,f,10,1,71.61106984,0.51427228
XUJIAJIE,38,0,2024-06-14T13:03:49.675Z,english_154.wav,0,0,113,21,3,Chinese,f,11,1.09391667,25.6022542,1.19971073
XUJIAJIE,39,0,2024-06-14T13:03:49.675Z,english_940.wav,0,0,193,21,3,Chinese,f,0,0,-74.78707904,1.32849745
XUJIAJIE,39,0,2024-06-14T13:03:49.675Z,english_940.wav,0,0,193,21,3,Chinese,f,1,0.1,-17.41948052,0.12464251
XUJIAJIE,39,0,2024-06-14T13:03:49.675Z,english_940.wav,0,0,193,21,3,Chinese,f,2,0.2,18.32757183,1.60919877
XUJIAJIE,39,0,2024-06-14T13:03:49.675Z,english_940.wav,0,0,193,21,3,Chinese,f,3,0.3,49.59676146,1.26515186
XUJIAJIE,39,0,2024-06-14T13:03:49.675Z,english_940.wav,0,0,193,21,3,Chinese,f,4,0.4,89.11302511,0.36425632
XUJIAJIE,39,0,2024-06-14T13:03:49.675Z,english_940.wav,0,0,193,21,3,Chinese,f,5,0.5,-54.90271493,0.18773625
XUJIAJIE,39,0,2024-06-14T13:03:49.675Z,english_940.wav,0,0,193,21,3,Chinese,f,6,0.6,5.52128104,1.95544511
XUJIAJIE,39,0,2024-06-14T13:03:49.675Z,english_940.wav,0,0,193,21,3,Chinese,f,7,0.7,6.34300122,0.05018426
XUJIAJIE,39,0,2024-06-14T13:03:49.675Z,english_940.wav,0,0,193,21,3,Chinese,f,8,0.8,-52.23900499,0.91238744
XUJIAJIE,39,0,2024-06-14T13:03:49.675Z,english_940.wav,0,0,193,21,3,Chinese,f,9,0.9,-91.70083374,1.89571163
XUJIAJIE,39,0,2024-06-14T13:03:49.675Z,english_940.wav,0,0,193,21,3,Chinese,f,10,1,-59.86037194,1.52579837
XUJIAJIE,39,0,2024-06-14T13:03:49.675Z,english_940.wav,0,0,193,21,3,Chinese,f,11,1.09391667,44.21269836,0.42550386
XUJIAJIE,40,0,2024-06-14T13:03:49.675Z,english_695.wav,0,0,1116,21,3,Chinese,f,0,0,-0.40611107,1.26493678
XUJIAJIE,40,0,2024-06-14T13:03:49.675Z,english_695.wav,0,0,1116,21,3,Chinese,f,1,0.1,-51.44580043,0.30645506
XUJIAJIE,40,0,2024-06-14T13:03:49.675Z,english_695.wav,0,0,1116,21,3,Chinese,f,2,0.2,99.94982399,0.22891404
XUJIAJIE,40,0,2024-06-14T13:03:49.675Z,english_695.wav,0,0,1116,21,3,Chinese,f,3,0.3,-89.26755039,0.36431767
XUJIAJIE,40,0,2024-06-14T13:03:49.675Z,english_695.wav,0,0,1116,21,3,Chinese,f,4,0.4,-5.79922916,1.58087712
XUJIAJIE,40,0,2024-06-14T13:03:49.675Z,english_695.wav,0,0,1116,21,3,Chinese,f,5,0.5,32.87645526,1.0219227
XUJIAJIE,40,0,2024-06-14T13:03:49.675Z,english_695.wav,0,0,1116,21,3,Chinese,f,6,0.6,45.01226994,0.87256138
XUJIAJIE,40,0,2024-06-14T13:03:49.675Z,english_695.wav,0,0,1116,21,3,Chinese,f,7,0.7,-12.9046985,0.08723999
XUJIAJIE,40,0,2024-06-14T13:03:49.675Z,english_695.wav,0,0,1116,21,3,Chinese,f,8,0.8,-4.01812723,0.25614853
XUJIAJIE,40,0,2024-06-14T13:03:49.675Z,english_695.wav,0,0,1116,21,3,Chinese,f,9,0.9,-88.04470656,0.82634086
XUJIAJIE,40,0,2024-06-14T13:03:49.675Z,english_695.wav,0,0,1116,21,3,Chinese,f,10,1,-55.25497398,1.44930742
XUJIAJIE,40,0,2024-06-14T13:03:49.675Z,english_695.wav,0,0,1116,21,3,Chinese,f,11,1.09391667,-57.74686665,1.25560424
XUJIAJIE,41,0,2024-06-14T13:03:49.675Z,english_788.wav,0,0,5316,21,3,Chinese,f,0,0,17.89309058,1.04861509
XUJIAJIE,41,0,2024-06-14T13:03:49.675Z,english_788.wav,0,0,5316,21,3,Chinese,f,1,0.1,71.29743237,1.67595733
XUJIAJIE,41,0,2024-06-14T13:03:49.675Z,english_788.wav,0,0,5316,21,3,Chinese,f,2,0.2,-58.86773575,0.86315506
XUJIAJIE,41,0,2024-06-14T13:03:49.675Z,english_788.wav,0,0,5316,21,3,Chinese,f,3,0.3,-79.26718247,0.41984481
XUJIAJIE,41,0,2024-06-14T13:03:49.675Z,english_788.wav,0,0,5316,21,3,Chinese,f,4,0.4,35.72874859,0.95404094
XUJIAJIE,41,0,2024-06-14T13:03:49.675Z,english_788.wav,0,0,5316,21,3,Chinese,f,5,0.5,-14.77309026,0.45544588
XUJIAJIE,41,0,2024-06-14T13:03:49.675Z,english_788.wav,0,0,5316,21,3,Chinese,f,6,0.6,-78.45807111,0.07788433
XUJIAJIE,41,0,2024-06-14T13:03:49.675Z,english_788.wav,0,0,5316,21,3,Chinese,f,7,0.7,40.66379457,0.7267532
XUJIAJIE,41,0,2024-06-14T13:03:49.675Z,english_788.wav,0,0,5316,21,3,Chinese,f,8,0.8,51.99524397,1.61048189
XUJIAJIE,41,0,2024-06-14T13:03:49.675Z,english_788.wav,0,0,5316,21,3,Chinese,f,9,0.9,23.30304068,1.83471325
XUJIAJIE,41,0,2024-06-14T13:03:49.675Z,english_788.wav,0,0,5316,21,3,Chinese,f,10,1,87.05916465,1.60214946
XUJIAJIE,41,0,2024-06-14T13:03:49.675Z,english_788.wav,0,0,5316,21,3,Chinese,f,11,1.09391667,-42.18000877,1.51632908
XUJIAJIE,42,0,2024-06-14T13:03:49.675Z,english_76.wav,0,0,2877,21,3,Chinese,f,0,0,24.53692124,0.00919351
XUJIAJIE,42,0,2024-06-14T13:03:49.675Z,english_76.wav,0,0,2877,21,3,Chinese,f,1,0.1,4.74525032,1.89780668
XUJIAJIE,42,0,2024-06-14T13:03:49.675Z,english_76.wav,0,0,2877,21,3,Chinese,f,2,0.2,-11.73085706,1.28424019
XUJIAJIE,42,0,2024-06-14T13:03:49.675Z,english_76.wav,0,0,2877,21,3,Chinese,f,3,0.3,-67.51409973,0.97330389
XUJIAJIE,42,0,2024-06-14T13:03:49.675Z,english_76.wav,0,0,2877,21,3,Chinese,f,4,0.4,18.72894419,1.57704982
XUJIAJIE,42,0,2024-06-14T13:03:49.675Z,english_76.wav,0,0,2877,21,3,Chinese,f,5,0.5,-87.08655703,0.6100989
XUJIAJIE,42,0,2024-06-14T13:03:49.675Z,english_76.wav,0,0,2877,21,3,Chinese,f,6,0.6,8.86378377,0.1303689
XUJIAJIE,42,0,2024-06-14T13:03:49.675Z,english_76.wav,0,0,2877,21,3,Chinese,f,7,0.7,-88.70159666,1.07980698
XUJIAJIE,42,0,2024-06-14T13:03:49.675Z,english_76.wav,0,0,2877,21,3,Chinese,f,8,0.8,-19.63742154,0.36042094
XUJIAJIE,42,0,2024-06-14T13:03:49.675Z,english_76.wav,0,0,2877,21,3,Chinese,f,9,0.9,-28.01043875,1.46264173
XUJIAJIE,42,0,2024-06-14T13:03:49.675Z,english_76.wav,0,0,2877,21,3,Chinese,f,10,1,-30.77636244,0.93716424
XUJIAJIE,42,0,2024-06-14T13:03:49.675Z,english_76.wav,0,0,2877,21,3,Chinese,f,11,1.09391667,-23.02477644,0.27656628
XUJIAJIE,43,0,2024-06-14T13:03:49.675Z,english_370.wav,0,0,498,21,3,Chinese,f,0,0,91.45146765,1.23282005
XUJIAJIE,43,0,2024-06-14T13:03:49.675Z,english_370.wav,0,0,498,21,3,Chinese,f,1,0.1,-35.10409157,0.25999131
XUJIAJIE,43,0,2024-06-14T13:03:49.675Z,english_370.wav,0,0,498,21,3,Chinese,f,2,0.2,94.76486666,1.34886846
XUJIAJIE,43,0,2024-06-14T13:03:49.675Z,english_370.wav,0,0,498,21,3,Chinese,f,3,0.3,-53.94210215,0.83234793
XUJIAJIE,43,0,2024-06-14T13:03:49.675Z,english_370.wav,0,0,498,21,3,Chinese,f,4,0.4,84.25045535,0.3574364
XUJIAJIE,43,0,2024-06-14T13:03:49.675Z,english_370.wav,0,0,498,21,3,Chinese,f,5,0.5,23.38990659,1.13678853
XUJIAJIE,43,0,2024-06-14T13:03:49.675Z,english_370.wav,0,0,498,21,3,Chinese,f,6,0.6,-19.20564455,1.71477151
XUJIAJIE,43,0,2024-06-14T13:03:49.675Z,english_370.wav,0,0,498,21,3,Chinese,f,7,0.7,79.34721748,0.6734852
XUJIAJIE,43,0,2024-06-14T13:03:49.675Z,english_370.wav,0,0,498,21,3,Chinese,f,8,0.8,-19.93049437,1.07446176
XUJIAJIE,43,0,2024-06-14T13:03:49.675Z,english_370.wav,0,0,498,21,3,Chinese,f,9,0.9,-60.8441274,1.23242025
XUJIAJIE,43,0,2024-06-14T13:03:49.675Z,english_370.wav,0,0,498,21,3,Chinese,f,10,1,-1.38990897,1.52786138
XUJIAJIE,43,0,2024-06-14T13:03:49.675Z,english_370.wav,0,0,498,21,3,Chinese,f,11,1.09391667,24.56704264,1.4714842
XUJIAJIE,44,0,2024-06-14T13:03:49.675Z,english_447.wav,0,0,220,21,3,Chinese,f,0,0,-49.70124271,1.81391456
XUJIAJIE,44,0,2024-06-14T13:03:49.675Z,english_447.wav,0,0,220,21,3,Chinese,f,1,0.1,6.80747638,1.91818371
XUJIAJIE,44,0,2024-06-14T13:03:49.675Z,english_447.wav,0,0,220,21,3,Chinese,f,2,0.2,78.85711307,1.77045116
XUJIAJIE,44,0,2024-06-14T13:03:49.675Z,english_447.wav,0,0,220,21,3,Chinese,f,3,0.3,58.81086859,1.59965973
XUJIAJIE,44,0,2024-06-14T13:03:49.675Z,english_447.wav,0,0,220,21,3,Chinese,f,4,0.4,-4.36201374,1.21262432
XUJIAJIE,44,0,2024-06-14T13:03:49.675Z,english_447.wav,0,0,220,21,3,Chinese,f,5,0.5,-19.70745175,1.80283693
XUJIAJIE,44,0,2024-06-14T13:03:49.675Z,english_447.wav,0,0,220,21,3,Chinese,f,6,0.6,5.54500097,0.57888703
XUJIAJIE,44,0,2024-06-14T13:03:49.675Z,english_447.wav,0,0,220,21,3,Chinese,f,7,0.7,-73.03933833,0.47461482
XUJIAJIE,44,0,2024-06-14T13:03:49.675Z,english_447.wav,0,0,220,21,3,Chinese,f,8,0.8,-20.453142,0.56581151
XUJIAJIE,44,0,2024-06-14T13:03:49.675Z,english_447.wav,0,0,220,21,3,Chinese,f,9,0.9,9.14360097,0.85442376
XUJIAJIE,44,0,2024-06-14T13:03:49.675Z,english_447.wav,0,0,220,21,3,Chinese,f,10,1,-42.46591072,0.56057863
XUJIAJIE,44,0,2024-06-14T13:03:49.675Z,english_447.wav,0,0,220,21,3,Chinese,f,11,1.09391667,3.646082,1.46752368
XUJIAJIE,45,0,2024-06-14T13:03:49.675Z,english_632.wav,0,0,5327,21,3,Chinese,f,0,0,54.27416022,0.37224575
XUJIAJIE,45,0,2024-06-14T13:03:49.675Z,english_632.wav,0,0,5327,21,3,Chinese,f,1,0.1,37.10784124,1.19176423
XUJIAJIE,45,0,2024-06-14T13:03:49.675Z,english_632.wav,0,0,5327,21,3,Chinese,f,2,0.2,-11.42343802,1.11602641
XUJIAJIE,45,0,2024-06-14T13:03:49.675Z,english_632.wav,0,0,5327,21,3,Chinese,f,3,0.3,83.07683271,0.86319718
XUJIAJIE,45,0,2024-06-14T13:03:49.675Z,english_632.wav,0,0,5327,21,3,Chinese,f,4,0.4,-41.86230003,1.45181299
XUJIAJIE,45,0,2024-06-14T13:03:49.675Z,english_632.wav,0,0,5327,21,3,Chinese,f,5,0.5,-65.18909296,0.00810665
XUJIAJIE,45,0,2024-06-14T13:03:49.675Z,english_632.wav,0,0,5327,21,3,Chinese,f,6,0.6,73.88921211,1.82551729
XUJIAJIE,45,0,2024-06-14T13:03:49.675Z,english_632.wav,0,0,5327,21,3,Chinese,f,7,0.7,-78.27421644,0.97441054
XUJIAJIE,45,0,2024-06-14T13:03:49.675Z,english_632.wav,0,0,5327,21,3,Chinese,f,8,0.8,-55.91875918,1.38456518
XUJIAJIE,45,0,2024-06-14T13:03:49.675Z,english_632.wav,0,0,5327,21,3,Chinese,f,9,0.9,38.52779866,1.39025004
XUJIAJIE,45,0,2024-06-14T13:03:49.675Z,english_632.wav,0,0,5327,21,3,Chinese,f,10,1,-63.00995407,0.73323837
XUJIAJIE,45,0,2024-06-14T13:03:49.675Z,english_632.wav,0,0,5327,21,3,Chinese,f,11,1.09391667,-47.01105768,1.12337895
XUJIAJIE,46,0,2024-06-14T13:03:49.675Z,english_10.wav,0,0,1311,21,3,Chinese,f,0,0,-15.04153425,1.52083452
XUJIAJIE,46,0,2024-06-14T13:03:49.675Z,english_10.wav,0,0,1311,21,3,Chinese,f,1,0.1,-57.22263716,1.29896522
XUJIAJIE,46,0,2024-06-14T13:03:49.675Z,english_10.wav,0,0,1311,21,3,Chinese,f,2,0.2,27.92618044,0.38561389
XUJIAJIE,46,0,2024-06-14T13:03:49.675Z,english_10.wav,0,0,1311,21,3,Chinese,f,3,0.3,25.5799778,0.99686674
XUJIAJIE,46,0,2024-06-14T13:03:49.675Z,english_10.wav,0,0,1311,21,3,Chinese,f,4,0.4,30.11064479,0.6118482
XUJIAJIE,46,0,2024-06-14T13:03:49.675Z,english_10.wav,0,0,1311,21,3,Chinese,f,5,0.5,-7.71764525,1.86037541
XUJIAJIE,46,0,2024-06-14T13:03:49.675Z,english_10.wav,0,0,1311,21,3,Chinese,f,6,0.6,27.65902171,0.71941397
XUJIAJIE,46,0,2024-06-14T13:03:49.675Z,english_10.wav,0,0,1311,21,3,Chinese,f,7,0.7,-47.57621095,1.21671158
XUJIAJIE,46,0,2024-06-14T13:03:49.675Z,english_10.wav,0,0,1311,21,3,Chinese,f,8,0.8,43.99977355,1.36149686
XUJIAJIE,46,0,2024-06-14T13:03:49.675Z,english_10.wav,0,0,1311,21,3,Chinese,f,9,0.9,-15.79441044,0.57839438
XUJIAJIE,46,0,2024-06-14T13:03:49.675Z,english_10.wav,0,0,1311,21,3,Chinese,f,10,1,-34.81966507,0.86495111
XUJIAJIE,46,0,2024-06-14T13:03:49.675Z,english_10.wav,0,0,1311,21,3,Chinese,f,11,1.09391667,60.77971601,0.19592518
XUJIAJIE,47,0,2024-06-14T13:03:49.675Z,english_888.wav,0,0,1211,21,3,Chinese,f,0,0,-39.7925546,0.13458958
XUJIAJIE,47,0,2024-06-14T13:03:49.675Z,english_888.wav,0,0,1211,21,3,Chinese,f,1,0.1,-49.30113257,1.48324952
XUJIAJIE,47,0,2024-06-14T13:03:49.675Z,english_888.wav,0,0,1211,21,3,Chinese,f,2,0.2,5.97243806,0.77423602
XUJIAJIE,47,0,2024-06-14T13:03:49.675Z,english_888.wav,0,0,1211,21,3,Chinese,f,3,0.3,16.41276851,0.11110742
XUJIAJIE,47,0,2024-06-14T13:03:49.675Z,english_888.wav,0,0,1211,21,3,Chinese,f,4,0.4,72.72751695,0.50050507
XUJIAJIE,47,0,2024-06-14T13:03:49.675Z,english_888.wav,0,0,1211,21,3,Chinese,f,5,0.5,30.43059144,1.62800327
XUJIAJIE,47,0,2024-06-14T13:03:49.675Z,english_888.wav,0,0,1211,21,3,Chinese,f,6,0.6,-50.61460993,0.52150538
XUJIAJIE,47,0,2024-06-14T13:03:49.675Z,english_888.wav,0,0,1211,21,3,Chinese,f,7,0.7,27.35581245,1.33185555
XUJIAJIE,47,0,2024-06-14T13:03:49.675Z,english_888.wav,0,0,1211,21,3,Chinese,f,8,0.8,-42.43293374,1.57744059
XUJIAJIE,47,0,2024-06-14T13:03:49.675Z,english_888.wav,0,0,1211,21,3,Chinese,f,9,0.9,65.78948432,0.93033448
XUJIAJIE,47,0,2024-06-14T13:03:49.675Z,english_888.wav,0,0,1211,21,3,Chinese,f,10,1,10.78660964,1.1520653
XUJIAJIE,47,0,2024-06-14T13:03:49.675Z,english_888.wav,0,0,1211,21,3,Chinese,f,11,1.09391667,-21.51817703,1.84815249
XUJIAJIE,48,0,2024-06-14T13:03:49.675Z,english_768.wav,0,0,376,21,3,Chinese,f,0,0,-36.48023157,0.55176247
XUJIAJIE,48,0,2024-06-14T13:03:49.675Z,english_768.wav,0,0,376,21,3,Chinese,f,1,0.1,-17.61338817,1.65861302
XUJIAJIE,48,0,2024-06-14T13:03:49.675Z,english_768.wav,0,0,376,21,3,Chinese,f,2,0.2,-51.57524938,0.62782429
XUJIAJIE,48,0,2024-06-14T13:03:49.675Z,english_768.wav,0,0,376,21,3,Chinese,f,3,0.3,-57.67169634,1.15733197
XUJIAJIE,48,0,2024-06-14T13:03:49.675Z,english_768.wav,0,0,376,21,3,Chinese,f,4,0.4,-45.04246972,0.58074534
XUJIAJIE,48,0,2024-06-14T13:03:49.675Z,english_768.wav,0,0,376,21,3,Chinese,f,5,0.5,86.8588591,1.30969463
XUJIAJIE,48,0,2024-06-14T13:03:49.675Z,english_768.wav,0,0,376,21,3,Chinese,f,6,0.6,-19.62051646,1.74894393
XUJIAJIE,48,0,2024-06-14T13:03:49.675Z,english_768.wav,0,0,376,21,3,Chinese,f,7,0.7,60.7133964,1.23441546
XUJIAJIE,48,0,2024-06-14T13:03:49.675Z,english_768.wav,0,0,376,21,3,Chinese,f,8,0.8,52.81660848,1.13072786
XUJIAJIE,48,0,2024-06-14T13:03:49.675Z,english_768.wav,0,0,376,21,3,Chinese,f,9,0.9,-71.2236391,0.61655986
XUJIAJIE,48,0,2024-06-14T13:03:49.675Z,english_768.wav,0,0,376,21,3,Chinese,f,10,1,-61.78017138,0.77540725
XUJIAJIE,48,0,2024-06-14T13:03:49.675Z,english_768.wav,0,0,376,21,3,Chinese,f,11,1.09391667,-60.86782653,0.19180019
XUJIAJIE,49,0,2024-06-14T13:03:49.675Z,english_119.wav,0,0,2500,21,3,Chinese,f,0,0,98.57605275,0.1031314
XUJIAJIE,49,0,2024-06-14T13:03:49.675Z,english_119.wav,0,0,2500,21,3,Chinese,f,1,0.1,48.19569196,0.53372727
XUJIAJIE,49,0,2024-06-14T13:03:49.675Z,english_119.wav,0,0,2500,21,3,Chinese,f,2,0.2,96.20670949,1.31286157
XUJIAJIE,49,0,2024-06-14T13:03:49.675Z,english_119.wav,0,0,2500,21,3,Chinese,f,3,0.3,-19.19200662,0.99072858
XUJIAJIE,49,0,2024-06-14T13:03:49.675Z,english_119.wav,0,0,2500,21,3,Chinese,f,4,0.4,52.83768905,0.59990508
XUJIAJIE,49,0,2024-06-14T13:03:49.675Z,english_119.wav,0,0,2500,21,3,Chinese,f,5,0.5,1.85412636,1.80726182
XUJIAJIE,49,0,2024-06-14T13:03:49.675Z,english_119.wav,0,0,2500,21,3,Chinese,f,6,0.6,37.01820811,1.09281433
XUJIAJIE,49,0,2024-06-14T13:03:49.675Z,english_119.wav,0,0,2500,21,3,Chinese,f,7,0.7,29.79521621,0.09331625
XUJIAJIE,49,0,2024-06-14T13:03:49.675Z,english_119.wav,0,0,2500,21,3,Chinese,f,8,0.8,-57.64713834,0.67056306
XUJIAJIE,49,0,2024-06-14T13:03:49.675Z,english_119.wav,0,0,2500,21,3,Chinese,f,9,0.9,35.78201522,1.21362775
XUJIAJIE,49,0,2024-06-14T13:03:49.675Z,english_119.wav,0,0,2500,21,3,Chinese,f,10,1,49.99655896,0.49048318
XUJIAJIE,49,0,2024-06-14T13:03:49.675Z,english_119.wav,0,0,2500,21,3,Chinese,f,11,1.09391667,7.1972062,0.07431613
XUJIAJIE,50,1,2024-06-14T13:03:49.675Z,english_283.wav,0,0,38,21,3,Chinese,f,0,0,-12.90091121,0.5789399
XUJIAJIE,50,1,2024-06-14T13:03:49.675Z,english_283.wav,0,0,38,21,3,Chinese,f,1,0.1,42.27249946,1.95381107
XUJIAJIE,50,1,2024-06-14T13:03:49.675Z,english_283.wav,0,0,38,21,3,Chinese,f,2,0.2,5.12381798,1.0168321
XUJIAJIE,50,1,2024-06-14T13:03:49.675Z,english_283.wav,0,0,38,21,3,Chinese,f,3,0.3,1.7675065,0.61202955
XUJIAJIE,50,1,2024-06-14T13:03:49.675Z,english_283.wav,0,0,38,21,3,Chinese,f,4,0.4,-21.55461961,0.89680875
XUJIAJIE,50,1,2024-06-14T13:03:49.675Z,english_283.wav,0,0,38,21,3,Chinese,f,5,0.5,-31.65586282,1.15056599
XUJIAJIE,50,1,2024-06-14T13:03:49.675Z,english_283.wav,0,0,38,21,3,Chinese,f,6,0.6,20.15160145,0.34242076
XUJIAJIE,50,1,2024-06-14T13:03:49.675Z,english_283.wav,0,0,38,21,3,Chinese,f,7,0.7,82.41987013,1.76180701
XUJIAJIE,50,1,2024-06-14T13:03:49.675Z,english_283.wav,0,0,38,21,3,Chinese,f,8,0.8,59.09454669,0.95604839
XUJIAJIE,50,1,2024-06-14T13:03:49.675Z,english_283.wav,0,0,38,21,3,Chinese,f,9,0.9,36.30583869,1.86733505
XUJIAJIE,50,1,2024-06-14T13:03:49.675Z,english_283.wav,0,0,38,21,3,Chinese,f,10,1,-40.78038553,1.17388738
XUJIAJIE,50,1,2024-06-14T13:03:49.675Z,english_283.wav,0,0,38,21,3,Chinese,f,11,1.09391667,39.65520312,1.73016304
XUJIAJIE,51,1,2024-06-14T13:03:49.675Z,english_987.wav,0,0,370,21,3,Chinese,f,0,0,22.80679167,0.70061045
XUJIAJIE,51,1,2024-06-14T13:03:49.675Z,english_987.wav,0,0,370,21,3,Chinese,f,1,0.1,17.54007411,1.60053813
XUJIAJIE,51,1,2024-06-14T13:03:49.675Z,english_987.wav,0,0,370,21,3,Chinese,f,2,0.2,-52.11811518,0.58462844
XUJIAJIE,51,1,2024-06-14T13:03:49.675Z,english_987.wav,0,0,370,21,3,Chinese,f,3,0.3,-23.82315646,0.24368019
XUJIAJIE,51,1,2024-06-14T13:03:49.675Z,english_987.wav,0,0,370,21,3,Chinese,f,4,0.4,44.18787645,0.52233595
XUJIAJIE,51,1,2024-06-14T13:03:49.675Z,english_987.wav,0,0,370,21,3,Chinese,f,5,0.5,-72.90084178,0.85287542
XUJIAJIE,51,1,2024-06-14T13:03:49.675Z,english_987.wav,0,0,370,21,3,Chinese,f,6,0.6,-17.62123308,1.54280419
XUJIAJIE,51,1,2024-06-14T13:03:49.675Z,english_987.wav,0,0,370,21,3,Chinese,f,7,0.7,95.73852472,0.69341266
XUJIAJIE,51,1,2024-06-14T13:03:49.675Z,english_987.wav,0,0,370,21,3,Chinese,f,8,0.8,10.89860126,0.63948037
XUJIAJIE,51,1,2024-06-14T13:03:49.675Z,english_987.wav,0,0,370,21,3,Chinese,f,9,0.9,-72.84217249,0.23195922
XUJIAJIE,51,1,2024-06-14T13:03:49.675Z,english_987.wav,0,0,370,21,3,Chinese,f,10,1,-57.31215702,1.27646479
XUJIAJIE,51,1,2024-06-14T13:03:49.675Z,english_987.wav,0,0,370,21,3,Chinese,f,11,1.09391667,-16.22203203,1.15579809
XUJIAJIE,52,1,2024-06-14T13:03:49.675Z,english_716.wav,0,0,154,21,3,Chinese,f,0,0,43.74330497,0.97173824
XUJIAJIE,52,1,2024-06-14T13:03:49.675Z,english_716.wav,0,0,154,21,3,Chinese,f,1,0.1,1.01157467,1.13719013
XUJIAJIE,52,1,2024-06-14T13:03:49.675Z,english_716.wav,0,0,154,21,3,Chinese,f,2,0.2,43.31214435,0.97088095
XUJIAJIE,52,1,2024-06-14T13:03:49.675Z,english_716.wav,0,0,154,21,3,Chinese,f,3,0.3,-64.99824003,1.35537493
XUJIAJIE,52,1,2024-06-14T13:03:49.675Z,english_716.wav,0,0,154,21,3,Chinese,f,4,0.4,66.22849696,1.16227483
XUJIAJIE,52,1,2024-06-14T13:03:49.675Z,english_716.wav,0,0,154,21,3,Chinese,f,5,0.5,15.92034767,1.14260693
XUJIAJIE,52,1,2024-06-14T13:03:49.675Z,english_716.wav,0,0,154,21,3,Chinese,f,6,0.6,-84.49981369,1.21216761
XUJIAJIE,52,1,2024-06-14T13:03:49.675Z,english_716.wav,0,0,154,21,3,Chinese,f,7,0.7,-36.42045257,1.78190595
XUJIAJIE,52,1,2024-06-14T13:03:49.675Z,english_716.wav,0,0,154,21,3,Chinese,f,8,0.8,0.56154779,1.16672006
XUJIAJIE,52,1,2024-06-14T13:03:49.675Z,english_716.wav,0,0,154,21,3,Chinese,f,9,0.9,-55.57576832,1.41993199
XUJIAJIE,52,1,2024-06-14T13:03:49.675Z,english_716.wav,0,0,154,21,3,Chinese,f,10,1,55.0789401,0.32201877
XUJIAJIE,52,1,2024-06-14T13:03:49.675Z,english_716.wav,0,0,154,21,3,Chinese,f,11,1.09391667,15.84660207,1.26556623
XUJIAJIE,53,1,2024-06-14T13:03:49.675Z,english_660.wav,0,0,2907,21,3,Chinese,f,0,0,-6.98483794,0.74998418
XUJIAJIE,53,1,2024-06-14T13:03:49.675Z,english_660.wav,0,0,2907,21,3,Chinese,f,1,0.1,-19.91361353,1.44180771
XUJIAJIE,53,1,2024-06-14T13:03:49.675Z,english_660.wav,0,0,2907,21,3,Chinese,f,2,0.2,78.11411012,1.86148363
XUJIAJIE,53,1,2024-06-14T13:03:49.675Z,english_660.wav,0,0,2907,21,3,Chinese,f,3,0.3,31.9686312,0.29878934
XUJIAJIE,53,1,2024-06-14T13:03:49.675Z,english_660.wav,0,0,2907,21,3,Chinese,f,4,0.4,59.3000475,0.70934132
XUJIAJIE,53,1,2024-06-14T13:03:49.675Z,english_660.wav,0,0,2907,21,3,Chinese,f,5,0.5,-70.43888588,1.90119169
XUJIAJIE,53,1,2024-06-14T13:03:49.675Z,english_660.wav,0,0,2907,21,3,Chinese,f,6,0.6,-20.07366552,0.76680768
XUJIAJIE,53,1,2024-06-14T13:03:49.675Z,english_660.wav,0,0,2907,21,3,Chinese,f,7,0.7,-55.63699673,0.42211173
XUJIAJIE,53,1,2024-06-14T13:03:49.675Z,english_660.wav,0,0,2907,21,3,Chinese,f,8,0.8,-98.18697012,0.44483448
XUJIAJIE,53,1,2024-06-14T13:03:49.675Z,english_660.wav,0,0,2907,21,3,Chinese,f,9,0.9,13.89215317,1.66618929
XUJIAJIE,53,1,2024-06-14T13:03:49.675Z,english_660.wav,0,0,2907,21,3,Chinese,f,10,1,-7.40212614,0.443528
XUJIAJIE,53,1,2024-06-14T13:03:49.675Z,english_660.wav,0,0,2907,21,3,Chinese,f,11,1.09391667,28.56237553,1.27514236
XUJIAJIE,54,1,2024-06-14T13:03:49.675Z,english_242.wav,0,0,256,21,3,Chinese,f,0,0,-30.80596233,1.80753385
XUJIAJIE,54,1,2024-06-14T13:03:49.675Z,english_242.wav,0,0,256,21,3,Chinese,f,1,0.1,81.43519329,0.97833747
XUJIAJIE,54,1,2024-06-14T13:03:49.675Z,english_242.wav,0,0,256,21,3,Chinese,f,2,0.2,0.15400576,1.3926845
XUJIAJIE,54,1,2024-06-14T13:03:49.675Z,english_242.wav,0,0,256,21,3,Chinese,f,3,0.3,-28.81783402,1.42545381
XUJIAJIE,54,1,2024-06-14T13:03:49.675Z,english_242.wav,0,0,256,21,3,Chinese,f,4,0.4,-61.37671682,0.1849233
XUJIAJIE,54,1,2024-06-14T13:03:49.675Z,english_242.wav,0,0,256,21,3,Chinese,f,5,0.5,91.85520167,1.35548931
XUJIAJIE,54,1,2024-06-14T13:03:49.675Z,english_242.wav,0,0,256,21,3,Chinese,f,6,0.6,-31.54320731,1.15661389
XUJIAJIE,54,1,2024-06-14T13:03:49.675Z,english_242.wav,0,0,256,21,3,Chinese,f,7,0.7,-13.97670537,1.66148537
XUJIAJIE,54,1,2024-06-14T13:03:49.675Z,english_242.wav,0,0,256,21,3,Chinese,f,8,0.8,70.42044267,1.4780344
XUJIAJIE,54,1,2024-06-14T13:03:49.675Z,english_242.wav,0,0,256,21,3,Chinese,f,9,0.9,-90.04203145,1.37692841
XUJIAJIE,54,1,2024-06-14T13:03:49.675Z,english_242.wav,0,0,256,21,3,Chinese,f,10,1,-39.83004077,0.38948234
XUJIAJIE,54,1,2024-06-14T13:03:49.675Z,english_242.wav,0,0,256,21,3,Chinese,f,11,1.09391667,-14.25442636,1.25473686
XUJIAJIE,55,1,2024-06-14T13:03:49.675Z,english_317.wav,0,0,360,21,3,Chinese,f,0,0,35.80517537,1.51358533
XUJIAJIE,55,1,2024-06-14T13:03:49.675Z,english_317.wav,0,0,360,21,3,Chinese,f,1,0.1,-47.20528256,0.29972078
XUJIAJIE,55,1,2024-06-14T13:03:49.675Z,english_317.wav,0,0,360,21,3,Chinese,f,2,0.2,10.16864163,1.18281069
XUJIAJIE,55,1,2024-06-14T13:03:49.675Z,english_317.wav,0,0,360,21,3,Chinese,f,3,0.3,32.59206289,1.39231518
XUJIAJIE,55,1,2024-06-14T13:03:49.675Z,english_317.wav,0,0,360,21,3,Chinese,f,4,0.4,20.53754814,1.77974686
XUJIAJIE,55,1,2024-06-14T13:03:49.675Z,english_317.wav,0,0,360,21,3,Chinese,f,5,0.5,-78.8593211,1.1695001
XUJIAJIE,55,1,2024-06-14T13:03:49.675Z,english_317.wav,0,0,360,21,3,Chinese,f,6,0.6,-97.96541086,1.77666203
XUJIAJIE,55,1,2024-06-14T13:03:49.675Z,english_317.wav,0,0,360,21,3,Chinese,f,7,0.7,49.60543729,0.8164879
XUJIAJIE,55,1,2024-06-14T13:03:49.675Z,english_317.wav,0,0,360,21,3,Chinese,f,8,0.8,-69.92457952,0.08502592
XUJIAJIE,55,1,2024-06-14T13:03:49.675Z,english_317.wav,0,0,360,21,3,Chinese,f,9,0.9,-3.69767957,1.29069951
XUJIAJIE,55,1,2024-06-14T13:03:49.675Z,english_317.wav,0,0,360,21,3,Chinese,f,10,1,-3.35302539,0.64002495
XUJIAJIE,55,1,2024-06-14T13:03:49.675Z,english_317.wav,0,0,360,21,3,Chinese,f,11,1.09391667,29.32411719,1.74584587
XUJIAJIE,56,1,2024-06-14T13:03:49.675Z,english_64.wav,0,0,385,21,3,Chinese,f,0,0,35.19701481,0.1517014
XUJIAJIE,56,1,2024-06-14T13:03:49.675Z,english_64.wav,0,0,385,21,3,Chinese,f,1,0.1,75.83495736,1.3624391
XUJIAJIE,56,1,2024-06-14T13:03:49.675Z,english_64.wav,0,0,385,21,3,Chinese,f,2,0.2,-57.84604767,0.35043993
XUJIAJIE,56,1,2024-06-14T13:03:49.675Z,english_64.wav,0,0,385,21,3,Chinese,f,3,0.3,18.18328311,1.06032252
XUJIAJIE,56,1,2024-06-14T13:03:49.675Z,english_64.wav,0,0,385,21,3,Chinese,f,4,0.4,2.5532884,1.51833669
XUJIAJIE,56,1,2024-06-14T13:03:49.675Z,english_64.wav,0,0,385,21,3,Chinese,f,5,0.5,24.93011402,0.65789286
XUJIAJIE,56,1,2024-06-14T13:03:49.675Z,english_64.wav,0,0,385,21,3,Chinese,f,6,0.6,-51.99875854,1.38401799
XUJIAJIE,56,1,2024-06-14T13:03:49.675Z,english_64.wav,0,0,385,21,3,Chinese,f,7,0.7,52.45873465,1.62873445
XUJIAJIE,56,1,2024-06-14T13:03:49.675Z,english_64.wav,0,0,385,21,3,Chinese,f,8,0.8,42.38876358,0.48968984
XUJIAJIE,56,1,2024-06-14T13:03:49.675Z,english_64.wav,0,0,385,21,3,Chinese,f,9,0.9,54.33691238,0.64777192
XUJIAJIE,56,1,2024-06-14T13:03:49.675Z,english_64.wav,0,0,385,21,3,Chinese,f,10,1,27.02485659,0.8399807
XUJIAJIE,56,1,2024-06-14T13:03:49.675Z,english_64.wav,0,0,385,21,3,Chinese,f,11,1.09391667,58.99390703,0.25985176
XUJIAJIE,57,1,2024-06-14T13:03:49.675Z,english_499.wav,0,0,3570,21,3,Chinese,f,0,0,-7.75302897,0.29368166
XUJIAJIE,57,1,2024-06-14T13:03:49.675Z,english_499.wav,0,0,3570,21,3,Chinese,f,1,0.1,23.88086762,1.58141682
XUJIAJIE,57,1,2024-06-14T13:03:49.675Z,english_499.wav,0,0,3570,21,3,Chinese,f,2,0.2,-0.54854112,0.68322719
XUJIAJIE,57,1,2024-06-14T13:03:49.675Z,english_499.wav,0,0,3570,21,3,Chinese,f,3,0.3,11.38417001,1.0607803
XUJIAJIE,57,1,2024-06-14T13:03:49.675Z,english_499.wav,0,0,3570,21,3,Chinese,f,4,0.4,76.48373601,0.5459371
XUJIAJIE,57,1,2024-06-14T13:03:49.675Z,english_499.wav,0,0,3570,21,3,Chinese,f,5,0.5,34.68075028,1.82829661
XUJIAJIE,57,1,2024-06-14T13:03:49.675Z,english_499.wav,0,0,3570,21,3,Chinese,f,6,0.6,-14.34298834,1.23009433
XUJIAJIE,57,1,2024-06-14T13:03:49.675Z,english_499.wav,0,0,3570,21,3,Chinese,f,7,0.7,26.82043511,1.38131853
XUJIAJIE,57,1,2024-06-14T13:03:49.675Z,english_499.wav,0,0,3570,21,3,Chinese,f,8,0.8,60.32593039,0.45099226
XUJIAJIE,57,1,2024-06-14T13:03:49.675Z,english_499.wav,0,0,3570,21,3,Chinese,f,9,0.9,-38.40765739,1.79672484
XUJIAJIE,57,1,2024-06-14T13:03:49.675Z,english_499.wav,0,0,3570,21,3,Chinese,f,10,1,7.55243951,0.11050545
XUJIAJIE,57,1,2024-06-14T13:03:49.675Z,english_499.wav,0,0,3570,21,3,Chinese,f,11,1.09391667,-96.29085545,0.98124995
XUJIAJIE,58,1,2024-06-14T13:03:49.675Z,english_646.wav,0,0,2411,21,3,Chinese,f,0,0,-72.16367523,1.23252036
XUJIAJIE,58,1,2024-06-14T13:03:49.675Z,english_646.wav,0,0,2411,21,3,Chinese,f,1,0.1,89.23048569,0.41153547
XUJIAJIE,58,1,2024-06-14T13:03:49.675Z,english_646.wav,0,0,2411,21,3,Chinese,f,2,0.2,3.93643173,1.30500866
XUJIAJIE,58,1,2024-06-14T13:03:49.675Z,english_646.wav,0,0,2411,21,3,Chinese,f,3,0.3,32.33211102,0.16779894
XUJIAJIE,58,1,2024-06-14T13:03:49.675Z,english_646.wav,0,0,2411,21,3,Chinese,f,4,0.4,57.94131679,1.44956343
XUJIAJIE,58,1,2024-06-14T13:03:49.675Z,english_646.wav,0,0,2411,21,3,Chinese,f,5,0.5,3.36702109,0.43462
XUJIAJIE,58,1,2024-06-14T13:03:49.675Z,english_646.wav,0,0,2411,21,3,Chinese,f,6,0.6,61.97454592,1.17161273
XUJIAJIE,58,1,2024-06-14T13:03:49.675Z,english_646.wav,0,0,2411,21,3,Chinese,f,7,0.7,-38.94515992,1.33009112
XUJIAJIE,58,1,2024-06-14T13:03:49.675Z,english_646.wav,0,0,2411,21,3,Chinese,f,8,0.8,18.02819855,1.9601355
XUJIAJIE,58,1,2024-06-14T13:03:49.675Z,english_646.wav,0,0,2411,21,3,Chinese,f,9,0.9,-7.01403953,1.16018484
XUJIAJIE,58,1,2024-06-14T13:03:49.675Z,english_646.wav,0,0,2411,21,3,Chinese,f,10,1,22.99913436,0.4872476
XUJIAJIE,58,1,2024-06-14T13:03:49.675Z,english_646.wav,0,0,2411,21,3,Chinese,f,11,1.09391667,-15.24744046,0.4931797
XUJIAJIE,59,1,2024-06-14T13:03:49.675Z,english_166.wav,0,0,54,21,3,Chinese,f,0,0,-22.47224396,0.79935629
XUJIAJIE,59,1,2024-06-14T13:03:49.675Z,english_166.wav,0,0,54,21,3,Chinese,f,1,0.1,8.34418228,1.08766258
XUJIAJIE,59,1,2024-06-14T13:03:49.675Z,english_166.wav,0,0,54,21,3,Chinese,f,2,0.2,-26.80375044,0.88793969
XUJIAJIE,59,1,2024-06-14T13:03:49.675Z,english_166.wav,0,0,54,21,3,Chinese,f,3,0.3,-25.22426401,1.85581966
XUJIAJIE,59,1,2024-06-14T13:03:49.675Z,english_166.wav,0,0,54,21,3,Chinese,f,4,0.4,-44.17860095,1.74261815
XUJIAJIE,59,1,2024-06-14T13:03:49.675Z,english_166.wav,0,0,54,21,3,Chinese,f,5,0.5,-7.8395137,0.67828824
XUJIAJIE,59,1,2024-06-14T13:03:49.675Z,english_166.wav,0,0,54,21,3,Chinese,f,6,0.6,42.03338864,0.30993225
XUJIAJIE,59,1,2024-06-14T13:03:49.675Z,english_166.wav,0,0,54,21,3,Chinese,f,7,0.7,50.48936268,1.83209491
XUJIAJIE,59,1,2024-06-14T13:03:49.675Z,english_166.wav,0,0,54,21,3,Chinese,f,8,0.8,-79.33283531,1.96795539
XUJIAJIE,59,1,2024-06-14T13:03:49.675Z,english_166.wav,0,0,54,21,3,Chinese,f,9,0.9,57.67304972,0.73278394
XUJIAJIE,59,1,2024-06-14T13:03:49.675Z,english_166.wav,0,0,54,21,3,Chinese,f,10,1,75.92662412,1.69577801
XUJIAJIE,59,1,2024-06-14T13:03:49.675Z,english_166.wav,0,0,54,21,3,Chinese,f,11,1.09391667,-5.06556073,0.31756742
XUJIAJIE,60,1,2024-06-14T13:03:49.675Z,english_778.wav,0,0,136,21,3,Chinese,f,0,0,82.0288253,1.66099758
XUJIAJIE,60,1,2024-06-14T13:03:49.675Z,english_778.wav,0,0,136,21,3,Chinese,f,1,0.1,-20.3816384,0.6394452
XUJIAJIE,60,1,2024-06-14T13:03:49.675Z,english_778.wav,0,0,136,21,3,Chinese,f,2,0.2,20.1187508,1.73198521
XUJIAJIE,60,1,2024-06-14T13:03:49.675Z,english_778.wav,0,0,136,21,3,Chinese,f,3,0.3,-67.3840406,1.63414449
XUJIAJIE,60,1,2024-06-14T13:03:49.675Z,english_778.wav,0,0,136,21,3,Chinese,f,4,0.4,41.792495,0.91528965
XUJIAJIE,60,1,2024-06-14T13:03:49.675Z,english_778.wav,0,0,136,21,3,Chinese,f,5,0.5,69.2908492,1.84340145
XUJIAJIE,60,1,2024-06-14T13:03:49.675Z,english_778.wav,0,0,136,21,3,Chinese,f,6,0.6,-41.9809295,0.70098427
XUJIAJIE,60,1,2024-06-14T13:03:49.675Z,english_778.wav,0,0,136,21,3,Chinese,f,7,0.7,93.0761369,1.59677801
XUJIAJIE,60,1,2024-06-14T13:03:49.675Z,english_778.wav,0,0,136,21,3,Chinese,f,8,0.8,4.08814008,0.75626513
XUJIAJIE,60,1,2024-06-14T13:03:49.675Z,english_778.wav,0,0,136,21,3,Chinese,f,9,0.9,-0.0375531871,1.05104073
XUJIAJIE,60,1,2024-06-14T13:03:49.675Z,english_778.wav,0,0,136,21,3,Chinese,f,10,1,-79.0647822,0.42401001
XUJIAJIE,60,1,2024-06-14T13:03:49.675Z,english_778.wav,0,0,136,21,3,Chinese,f,11,1.09391667,-53.0664028,1.42241932
XUJIAJIE,61,1,2024-06-14T13:03:49.675Z,english_223.wav,0,0,217,21,3,Chinese,f,0,0,3.75482412,0.48204307
XUJIAJIE,61,1,2024-06-14T13:03:49.675Z,english_223.wav,0,0,217,21,3,Chinese,f,1,0.1,-10.12746206,1.57422829
XUJIAJIE,61,1,2024-06-14T13:03:49.675Z,english_223.wav,0,0,217,21,3,Chinese,f,2,0.2,-71.88310124,1.46180987
XUJIAJIE,61,1,2024-06-14T13:03:49.675Z,english_223.wav,0,0,217,21,3,Chinese,f,3,0.3,57.69353131,0.36455809
XUJIAJIE,61,1,2024-06-14T13:03:49.675Z,english_223.wav,0,0,217,21,3,Chinese,f,4,0.4,-7.46282971,1.50137994
XUJIAJIE,61,1,2024-06-14T13:03:49.675Z,english_223.wav,0,0,217,21,3,Chinese,f,5,0.5,-4.62449416,0.81971787
XUJIAJIE,61,1,2024-06-14T13:03:49.675Z,english_223.wav,0,0,217,21,3,Chinese,f,6,0.6,37.75223181,0.40602656
XUJIAJIE,61,1,2024-06-14T13:03:49.675Z,english_223.wav,0,0,217,21,3,Chinese,f,7,0.7,14.07580733,1.29724475
XUJIAJIE,61,1,2024-06-14T13:03:49.675Z,english_223.wav,0,0,217,21,3,Chinese,f,8,0.8,7.873186,0.55564049
XUJIAJIE,61,1,2024-06-14T13:03:49.675Z,english_223.wav,0,0,217,21,3,Chinese,f,9,0.9,-15.37742922,1.88260367
XUJIAJIE,61,1,2024-06-14T13:03:49.675Z,english_223.wav,0,0,217,21,3,Chinese,f,10,1,25.72603899,0.5343602
XUJIAJIE,61,1,2024-06-14T13:03:49.675Z,english_223.wav,0,0,217,21,3,Chinese,f,11,1.09391667,58.91699651,1.60309461
XUJIAJIE,62,1,2024-06-14T13:03:49.675Z,english_405.wav,0,0,34,21,3,Chinese,f,0,0,-78.42073653,1.26555168
XUJIAJIE,62,1,2024-06-14T13:03:49.675Z,english_405.wav,0,0,34,21,3,Chinese,f,1,0.1,-24.61205512,0.89640123
XUJIAJIE,62,1,2024-06-14T13:03:49.675Z,english_405.wav,0,0,34,21,3,Chinese,f,2,0.2,-11.84314917,0.55951574
XUJIAJIE,62,1,2024-06-14T13:03:49.675Z,english_405.wav,0,0,34,21,3,Chinese,f,3,0.3,-70.6403769,0.41074213
XUJIAJIE,62,1,2024-06-14T13:03:49.675Z,english_405.wav,0,0,34,21,3,Chinese,f,4,0.4,-46.85191634,0.16739124
XUJIAJIE,62,1,2024-06-14T13:03:49.675Z,english_405.wav,0,0,34,21,3,Chinese,f,5,0.5,-71.06093943,0.840879
XUJIAJIE,62,1,2024-06-14T13:03:49.675Z,english_405.wav,0,0,34,21,3,Chinese,f,6,0.6,30.63391912,1.64487685
XUJIAJIE,62,1,2024-06-14T13:03:49.675Z,english_405.wav,0,0,34,21,3,Chinese,f,7,0.7,-74.22566174,0.4477739
XUJIAJIE,62,1,2024-06-14T13:03:49.675Z,english_405.wav,0,0,34,21,3,Chinese,f,8,0.8,7.48787405,0.39629761
XUJIAJIE,62,1,2024-06-14T13:03:49.675Z,english_405.wav,0,0,34,21,3,Chinese,f,9,0.9,-46.20513682,1.07902243
XUJIAJIE,62,1,2024-06-14T13:03:49.675Z,english_405.wav,0,0,34,21,3,Chinese,f,10,1,49.04599402,1.30068101
XUJIAJIE,62,1,2024-06-14T13:03:49.675Z,english_405.wav,0,0,34,21,3,Chinese,f,11,1.09391667,-4.00470975,1.72481408
XUJIAJIE,63,1,2024-06-14T13:03:49.675Z,english_295.wav,0,0,365,21,3,Chinese,f,0,0,-21.33588045,0.64007693
XUJIAJIE,63,1,2024-06-14T13:03:49.675Z,english_295.wav,0,0,365,21,3,Chinese,f,1,0.1,28.18111365,0.36210443
XUJIAJIE,63,1,2024-06-14T13:03:49.675Z,english_295.wav,0,0,365,21,3,Chinese,f,2,0.2,-11.21795953,0.97510536
XUJIAJIE,63,1,2024-06-14T13:03:49.675Z,english_295.wav,0,0,365,21,3,Chinese,f,3,0.3,-75.82203472,1.22570619
XUJIAJIE,63,1,2024-06-14T13:03:49.675Z,english_295.wav,0,0,365,21,3,Chinese,f,4,0.4,36.75980824,1.08813481
XUJIAJIE,63,1,2024-06-14T13:03:49.675Z,english_295.wav,0,0,365,21,3,Chinese,f,5,0.5,82.52508149,1.82668288
XUJIAJIE,63,1,2024-06-14T13:03:49.675Z,english_295.wav,0,0,365,21,3,Chinese,f,6,0.6,-2.95672331,0.03453598
XUJIAJIE,63,1,2024-06-14T13:03:49.675Z,english_295.wav,0,0,365,21,3,Chinese,f,7,0.7,78.98755658,1.07945409
XUJIAJIE,63,1,2024-06-14T13:03:49.675Z,english_295.wav,0,0,365,21,3,Chinese,f,8,0.8,34.02541903,0.06380248
XUJIAJIE,63,1,2024-06-14T13:03:49.675Z,english_295.wav,0,0,365,21,3,Chinese,f,9,0.9,40.25185798,0.46673817
XUJIAJIE,63,1,2024-06-14T13:03:49.675Z,english_295.wav,0,0,365,21,3,Chinese,f,10,1,-23.49198504,0.55804019
XUJIAJIE,63,1,2024-06-14T13:03:49.675Z,english_295.wav,0,0,365,21,3,Chinese,f,11,1.09391667,43.4619086,0.67911388
XUJIAJIE,64,1,2024-06-14T13:03:49.675Z,english_253.wav,0,0,99,21,3,Chinese,f,0,0,-76.54232622,1.69452202
XUJIAJIE,64,1,2024-06-14T13:03:49.675Z,english_253.wav,0,0,99,21,3,Chinese,f,1,0.1,23.75797542,0.94155674
XUJIAJIE,64,1,2024-06-14T13:03:49.675Z,english_253.wav,0,0,99,21,3,Chinese,f,2,0.2,-82.53055468,0.70353207
XUJIAJIE,64,1,2024-06-14T13:03:49.675Z,english_253.wav,0,0,99,21,3,Chinese,f,3,0.3,19.65476927,1.42331271
XUJIAJIE,64,1,2024-06-14T13:03:49.675Z,english_253.wav,0,0,99,21,3,Chinese,f,4,0.4,-55.81107988,1.11334266
XUJIAJIE,64,1,2024-06-14T13:03:49.675Z,english_253.wav,0,0,99,21,3,Chinese,f,5,0.5,73.24574297,1.34927457
XUJIAJIE,64,1,2024-06-14T13:03:49.675Z,english_253.wav,0,0,99,21,3,Chinese,f,6,0.6,-22.29926161,0.26375751
XUJIAJIE,64,1,2024-06-14T13:03:49.675Z,english_253.wav,0,0,99,21,3,Chinese,f,7,0.7,-11.91242057,0.63100518
XUJIAJIE,64,1,2024-06-14T13:03:49.675Z,english_253.wav,0,0,99,21,3,Chinese,f,8,0.8,-33.99896833,0.22145521
XUJIAJIE,64,1,2024-06-14T13:03:49.675Z,english_253.wav,0,0,99,21,3,Chinese,f,9,0.9,32.30473406,0.69052847
XUJIAJIE,64,1,2024-06-14T13:03:49.675Z,english_253.wav,0,0,99,21,3,Chinese,f,10,1,68.10745133,1.32352728
XUJIAJIE,64,1,2024-06-14T13:03:49.675Z,english_253.wav,0,0,99,21,3,Chinese,f,11,1.09391667,-22.82824608,0.79605757
XUJIAJIE,65,1,2024-06-14T13:03:49.675Z,english_217.wav,0,0,519,21,3,Chinese,f,0,0,49.03427647,0.32664973
XUJIAJIE,65,1,2024-06-14T13:03:49.675Z,english_217.wav,0,0,519,21,3,Chinese,f,1,0.1,55.51339481,1.39032489
XUJIAJIE,65,1,2024-06-14T13:03:49.675Z,english_217.wav,0,0,519,21,3,Chinese,f,2,0.2,8.85342812,0.17335256
XUJIAJIE,65,1,2024-06-14T13:03:49.675Z,english_217.wav,0,0,519,21,3,Chinese,f,3,0.3,38.54994366,0.12434027
XUJIAJIE,65,1,2024-06-14T13:03:49.675Z,english_217.wav,0,0,519,21,3,Chinese,f,4,0.4,-2.70833959,1.97912601
XUJIAJIE,65,1,2024-06-14T13:03:49.675Z,english_217.wav,0,0,519,21,3,Chinese,f,5,0.5,70.3938548,0.49508024
XUJIAJIE,65,1,2024-06-14T13:03:49.675Z,english_217.wav,0,0,519,21,3,Chinese,f,6,0.6,5.12480722,1.41080808
XUJIAJIE,65,1,2024-06-14T13:03:49.675Z,english_217.wav,0,0,519,21,3,Chinese,f,7,0.7,-74.03796069,0.59237566
XUJIAJIE,65,1,2024-06-14T13:03:49.675Z,english_217.wav,0,0,519,21,3,Chinese,f,8,0.8,-33.3486243,0.51007366
XUJIAJIE,65,1,2024-06-14T13:03:49.675Z,english_217.wav,0,0,519,21,3,Chinese,f,9,0.9,-40.28599149,0.60232464
XUJIAJIE,65,1,2024-06-14T13:03:49.675Z,english_217.wav,0,0,519,21,3,Chinese,f,10,1,19.2288181,0.62471618
XUJIAJIE,65,1,2024-06-14T13:03:49.675Z,english_217.wav,0,0,519,21,3,Chinese,f,11,1.09391667,28.27107092,0.07651966
XUJIAJIE,66,1,2024-06-14T13:03:49.675Z,english_749.wav,0,0,5377,21,3,Chinese,f,0,0,-98.755033,1.96334233
XUJIAJIE,66,1,2024-06-14T13:03:49.675Z,english_749.wav,0,0,5377,21,3,Chinese,f,1,0.1,42.65363822,1.48975569
XUJIAJIE,66,1,2024-06-14T13:03:49.675Z,english_749.wav,0,0,5377,21,3,Chinese,f,2,0.2,26.16294791,0.57355189
XUJIAJIE,66,1,2024-06-14T13:03:49.675Z,english_749.wav,0,0,5377,21,3,Chinese,f,3,0.3,-49.82375857,1.77057057
XUJIAJIE,66,1,2024-06-14T13:03:49.675Z,english_749.wav,0,0,5377,21,3,Chinese,f,4,0.4,-23.36229669,0.88660826
XUJIAJIE,66,1,2024-06-14T13:03:49.675Z,english_749.wav,0,0,5377,21,3,Chinese,f,5,0.5,35.77035363,1.64369118
XUJIAJIE,66,1,2024-06-14T13:03:49.675Z,english_749.wav,0,0,5377,21,3,Chinese,f,6,0.6,7.03000202,1.42265123
XUJIAJIE,66,1,2024-06-14T13:03:49.675Z,english_749.wav,0,0,5377,21,3,Chinese,f,7,0.7,35.98122364,1.36887772
XUJIAJIE,66,1,2024-06-14T13:03:49.675Z,english_749.wav,0,0,5377,21,3,Chinese,f,8,0.8,28.50180833,0.73095149
XUJIAJIE,66,1,2024-06-14T13:03:49.675Z,english_749.wav,0,0,5377,21,3,Chinese,f,9,0.9,7.93583133,1.72699402
XUJIAJIE,66,1,2024-06-14T13:03:49.675Z,english_749.wav,0,0,5377,21,3,Chinese,f,10,1,35.65640922,1.24379364
XUJIAJIE,66,1,2024-06-14T13:03:49.675Z,english_749.wav,0,0,5377,21,3,Chinese,f,11,1.09391667,51.80769378,0.86036236
XUJIAJIE,67,1,2024-06-14T13:03:49.675Z,english_555.wav,0,0,196,21,3,Chinese,f,0,0,-34.01174322,1.1718484
XUJIAJIE,67,1,2024-06-14T13:03:49.675Z,english_555.wav,0,0,196,21,3,Chinese,f,1,0.1,-25.89446117,1.62544238
XUJIAJIE,67,1,2024-06-14T13:03:49.675Z,english_555.wav,0,0,196,21,3,Chinese,f,2,0.2,75.37641555,1.85861965
XUJIAJIE,67,1,2024-06-14T13:03:49.675Z,english_555.wav,0,0,196,21,3,Chinese,f,3,0.3,3.6750175,1.93143492
XUJIAJIE,67,1,2024-06-14T13:03:49.675Z,english_555.wav,0,0,196,21,3,Chinese,f,4,0.4,-77.72739176,0.30173375
XUJIAJIE,67,1,2024-06-14T13:03:49.675Z,english_555.wav,0,0,196,21,3,Chinese,f,5,0.5,-17.06538868,1.28363733
XUJIAJIE,67,1,2024-06-14T13:03:49.675Z,english_555.wav,0,0,196,21,3,Chinese,f,6,0.6,-37.567139,0.51060309
XUJIAJIE,67,1,2024-06-14T13:03:49.675Z,english_555.wav,0,0,196,21,3,Chinese,f,7,0.7,-79.94552452,0.80092252
XUJIAJIE,67,1,2024-06-14T13:03:49.675Z,english_555.wav,0,0,196,21,3,Chinese,f,8,0.8,29.48505151,1.44732027
XUJIAJIE,67,1,2024-06-14T13:03:49.675Z,english_555.wav,0,0,196,21,3,Chinese,f,9,0.9,-58.857953,0.65157835
XUJIAJIE,67,1,2024-06-14T13:03:49.675Z,english_555.wav,0,0,196,21,3,Chinese,f,10,1,-46.0054019,1.65986599
XUJIAJIE,67,1,2024-06-14T13:03:49.675Z,english_555.wav,0,0,196,21,3,Chinese,f,11,1.09391667,-89.97133458,1.34311871
XUJIAJIE,68,1,2024-06-14T13:03:49.675Z,english_869.wav,0,0,131,21,3,Chinese,f,0,0,-20.7946379,1.94834657
XUJIAJIE,68,1,2024-06-14T13:03:49.675Z,english_869.wav,0,0,131,21,3,Chinese,f,1,0.1,-22.88594334,1.67021182
XUJIAJIE,68,1,2024-06-14T13:03:49.675Z,english_869.wav,0,0,131,21,3,Chinese,f,2,0.2,-44.01188064,1.50520546
XUJIAJIE,68,1,2024-06-14T13:03:49.675Z,english_869.wav,0,0,131,21,3,Chinese,f,3,0.3,58.96228493,0.98955103
XUJIAJIE,68,1,2024-06-14T13:03:49.675Z,english_869.wav,0,0,131,21,3,Chinese,f,4,0.4,0.25554563,0.43254465
XUJIAJIE,68,1,2024-06-14T13:03:49.675Z,english_869.wav,0,0,131,21,3,Chinese,f,5,0.5,-14.29276016,1.32326318
XUJIAJIE,68,1,2024-06-14T13:03:49.675Z,english_869.wav,0,0,131,21,3,Chinese,f,6,0.6,40.28852475,0.34817039
XUJIAJIE,68,1,2024-06-14T13:03:49.675Z,english_869.wav,0,0,131,21,3,Chinese,f,7,0.7,83.9110951,0.4259349
XUJIAJIE,68,1,2024-06-14T13:03:49.675Z,english_869.wav,0,0,131,21,3,Chinese,f,8,0.8,-58.08971542,0.20780663
XUJIAJIE,68,1,2024-06-14T13:03:49.675Z,english_869.wav,0,0,131,21,3,Chinese,f,9,0.9,-47.84735546,0.9384124
XUJIAJIE,68,1,2024-06-14T13:03:49.675Z,english_869.wav,0,0,131,21,3,Chinese,f,10,1,18.70420486,1.5529846
XUJIAJIE,68,1,2024-06-14T13:03:49.675Z,english_869.wav,0,0,131,21,3,Chinese,f,11,1.09391667,33.02688521,1.23929613
XUJIAJIE,69,1,2024-06-14T13:03:49.675Z,english_339.wav,0,0,918,21,3,Chinese,f,0,0,60.63219511,0.54338949
XUJIAJIE,69,1,2024-06-14T13:03:49.675Z,english_339.wav,0,0,918,21,3,Chinese,f,1,0.1,-12.18568345,0.21495144
XUJIAJIE,69,1,2024-06-14T13:03:49.675Z,english_339.wav,0,0,918,21,3,Chinese,f,2,0.2,23.58983997,0.44775719
XUJIAJIE,69,1,2024-06-14T13:03:49.675Z,english_339.wav,0,0,918,21,3,Chinese,f,3,0.3,-59.19633042,1.56952392
XUJIAJIE,69,1,2024-06-14T13:03:49.675Z,english_339.wav,0,0,918,21,3,Chinese,f,4,0.4,-43.20945626,0.76217709
XUJIAJIE,69,1,2024-06-14T13:03:49.675Z,english_339.wav,0,0,918,21,3,Chinese,f,5,0.5,-32.55639825,1.99954478
XUJIAJIE,69,1,2024-06-14T13:03:49.675Z,english_339.wav,0,0,918,21,3,Chinese,f,6,0.6,-3.49407884,0.09545273
XUJIAJIE,69,1,2024-06-14T13:03:49.675Z,english_339.wav,0,0,918,21,3,Chinese,f,7,0.7,91.66463762,1.65140919
XUJIAJIE,69,1,2024-06-14T13:03:49.675Z,english_339.wav,0,0,918,21,3,Chinese,f,8,0.8,-80.14131412,1.37862303
XUJIAJIE,69,1,2024-06-14T13:03:49.675Z,english_339.wav,0,0,918,21,3,Chinese,f,9,0.9,86.26968254,1.5118574
XUJIAJIE,69,1,2024-06-14T13:03:49.675Z,english_339.wav,0,0,918,21,3,Chinese,f,10,1,-20.69851377,0.21342111
XUJIAJIE,69,1,2024-06-14T13:03:49.675Z,english_339.wav,0,0,918,21,3,Chinese,f,11,1.09391667,-11.06601383,1.19470184
XUJIAJIE,70,1,2024-06-14T13:03:49.675Z,english_262.wav,0,0,1664,21,3,Chinese,f,0,0,40.3969452,0.57919627
XUJIAJIE,70,1,2024-06-14T13:03:49.675Z,english_262.wav,0,0,1664,21,3,Chinese,f,1,0.1,24.92470984,1.22854993
XUJIAJIE,70,1,2024-06-14T13:03:49.675Z,english_262.wav,0,0,1664,21,3,Chinese,f,2,0.2,-23.52143828,1.84489284
XUJIAJIE,70,1,2024-06-14T13:03:49.675Z,english_262.wav,0,0,1664,21,3,Chinese,f,3,0.3,3.42411393,1.27929622
XUJIAJIE,70,1,2024-06-14T13:03:49.675Z,english_262.wav,0,0,1664,21,3,Chinese,f,4,0.4,-47.82145477,1.21414946
XUJIAJIE,70,1,2024-06-14T13:03:49.675Z,english_262.wav,0,0,1664,21,3,Chinese,f,5,0.5,70.56302105,1.94766948
XUJIAJIE,70,1,2024-06-14T13:03:49.675Z,english_262.wav,0,0,1664,21,3,Chinese,f,6,0.6,-9.7222436,1.55288945
XUJIAJIE,70,1,2024-06-14T13:03:49.675Z,english_262.wav,0,0,1664,21,3,Chinese,f,7,0.7,20.72301517,0.57688166
XUJIAJIE,70,1,2024-06-14T13:03:49.675Z,english_262.wav,0,0,1664,21,3,Chinese,f,8,0.8,-49.74845029,1.86265407
XUJIAJIE,70,1,2024-06-14T13:03:49.675Z,english_262.wav,0,0,1664,21,3,Chinese,f,9,0.9,21.4766741,1.3850481
XUJIAJIE,70,1,2024-06-14T13:03:49.675Z,english_262.wav,0,0,1664,21,3,Chinese,f,10,1,-48.95430403,1.65814683
XUJIAJIE,70,1,2024-06-14T13:03:49.675Z,english_262.wav,0,0,1664,21,3,Chinese,f,11,1.09391667,46.16285525,0.28622245
XUJIAJIE,71,1,2024-06-14T13:03:49.675Z,english_37.wav,0,0,494,21,3,Chinese,f,0,0,68.40782596,0.52957209
XUJIAJIE,71,1,2024-06-14T13:03:49.675Z,english_37.wav,0,0,494,21,3,Chinese,f,1,0.1,41.58379148,1.67320718
XUJIAJIE,71,1,2024-06-14T13:03:49.675Z,english_37.wav,0,0,494,21,3,Chinese,f,2,0.2,63.04378759,1.31144487
XUJIAJIE,71,1,2024-06-14T13:03:49.675Z,english_37.wav,0,0,494,21,3,Chinese,f,3,0.3,12.39470235,1.11254506
XUJIAJIE,71,1,2024-06-14T13:03:49.675Z,english_37.wav,0,0,494,21,3,Chinese,f,4,0.4,-38.69600303,0.57972705
XUJIAJIE,71,1,2024-06-14T13:03:49.675Z,english_37.wav,0,0,494,21,3,Chinese,f,5,0.5,-51.98957982,0.30651039
XUJIAJIE,71,1,2024-06-14T13:03:49.675Z,english_37.wav,0,0,494,21,3,Chinese,f,6,0.6,90.7945682,0.45858619
XUJIAJIE,71,1,2024-06-14T13:03:49.675Z,english_37.wav,0,0,494,21,3,Chinese,f,7,0.7,40.67115675,1.55641423
XUJIAJIE,71,1,2024-06-14T13:03:49.675Z,english_37.wav,0,0,494,21,3,Chinese,f,8,0.8,34.01498334,1.01642962
XUJIAJIE,71,1,2024-06-14T13:03:49.675Z,english_37.wav,0,0,494,21,3,Chinese,f,9,0.9,-88.26662934,0.95850402
XUJIAJIE,71,1,2024-06-14T13:03:49.675Z,english_37.wav,0,0,494,21,3,Chinese,f,10,1,-41.35685221,0.70833558
XUJIAJIE,71,1,2024-06-14T13:03:49.675Z,english_37.wav,0,0,494,21,3,Chinese,f,11,1.09391667,-27.43470179,0.55678167
XUJIAJIE,72,1,2024-06-14T13:03:49.675Z,english_780.wav,0,0,61,21,3,Chinese,f,0,0,-87.5022813,1.98466869
XUJIAJIE,72,1,2024-06-14T13:03:49.675Z,english_780.wav,0,0,61,21,3,Chinese,f,1,0.1,48.02010378,1.54311759
XUJIAJIE,72,1,2024-06-14T13:03:49.675Z,english_780.wav,0,0,61,21,3,Chinese,f,2,0.2,83.84572734,0.61016867
XUJIAJIE,72,1,2024-06-14T13:03:49.675Z,english_780.wav,0,0,61,21,3,Chinese,f,3,0.3,9.25847543,1.29361746
XUJIAJIE,72,1,2024-06-14T13:03:49.675Z,english_780.wav,0,0,61,21,3,Chinese,f,4,0.4,49.97347861,0.77747475
XUJIAJIE,72,1,2024-06-14T13:03:49.675Z,english_780.wav,0,0,61,21,3,Chinese,f,5,0.5,-60.69242488,1.18422754
XUJIAJIE,72,1,2024-06-14T13:03:49.675Z,english_780.wav,0,0,61,21,3,Chinese,f,6,0.6,-21.82497806,0.82850866
XUJIAJIE,72,1,2024-06-14T13:03:49.675Z,english_780.wav,0,0,61,21,3,Chinese,f,7,0.7,13.87798501,0.60760734
XUJIAJIE,72,1,2024-06-14T13:03:49.675Z,english_780.wav,0,0,61,21,3,Chinese,f,8,0.8,32.41479889,0.87727466
XUJIAJIE,72,1,2024-06-14T13:03:49.675Z,english_780.wav,0,0,61,21,3,Chinese,f,9,0.9,54.1006632,1.39371886
XUJIAJIE,72,1,2024-06-14T13:03:49.675Z,english_780.wav,0,0,61,21,3,Chinese,f,10,1,-56.48325956,1.23252422
XUJIAJIE,72,1,2024-06-14T13:03:49.675Z,english_780.wav,0,0,61,21,3,Chinese,f,11,1.09391667,96.27244158,0.39725777
XUJIAJIE,73,1,2024-06-14T13:03:49.675Z,english_464.wav,0,0,276,21,3,Chinese,f,0,0,-23.34522256,1.83574023
XUJIAJIE,73,1,2024-06-14T13:03:49.675Z,english_464.wav,0,0,276,21,3,Chinese,f,1,0.1,-19.55225305,1.45464116
XUJIAJIE,73,1,2024-06-14T13:03:49.675Z,english_464.wav,0,0,276,21,3,Chinese,f,2,0.2,-17.46601835,0.96557802
XUJIAJIE,73,1,2024-06-14T13:03:49.675Z,english_464.wav,0,0,276,21,3,Chinese,f,3,0.3,-18.06083259,0.862048
XUJIAJIE,73,1,2024-06-14T13:03:49.675Z,english_464.wav,0,0,276,21,3,Chinese,f,4,0.4,39.93999663,1.49154181
XUJIAJIE,73,1,2024-06-14T13:03:49.675Z,english_464.wav,0,0,276,21,3,Chinese,f,5,0.5,18.26379158,0.8466408
XUJIAJIE,73,1,2024-06-14T13:03:49.675Z,english_464.wav,0,0,276,21,3,Chinese,f,6,0.6,29.05119834,1.01287791
XUJIAJIE,73,1,2024-06-14T13:03:49.675Z,english_464.wav,0,0,276,21,3,Chinese,f,7,0.7,-59.7360239,0.24671588
XUJIAJIE,73,1,2024-06-14T13:03:49.675Z,english_464.wav,0,0,276,21,3,Chinese,f,8,0.8,88.20887552,1.40889965
XUJIAJIE,73,1,2024-06-14T13:03:49.675Z,english_464.wav,0,0,276,21,3,Chinese,f,9,0.9,-3.73411856,0.91232797
XUJIAJIE,73,1,2024-06-14T13:03:49.675Z,english_464.wav,0,0,276,21,3,Chinese,f,10,1,-94.561572,0.94183149
XUJIAJIE,73,1,2024-06-14T13:03:49.675Z,english_464.wav,0,0,276,21,3,Chinese,f,11,1.09391667,-28.03048225,1.23465261
XUJIAJIE,74,1,2024-06-14T13:03:49.675Z,english_359.wav,0,0,182,21,3,Chinese,f,0,0,16.62356483,0.11907426
XUJIAJIE,74,1,2024-06-14T13:03:49.675Z,english_359.wav,0,0,182,21,3,Chinese,f,1,0.1,-64.66657599,1.11022803
XUJIAJIE,74,1,2024-06-14T13:03:49.675Z,english_359.wav,0,0,182,21,3,Chinese,f,2,0.2,20.81574107,1.93552837
XUJIAJIE,74,1,2024-06-14T13:03:49.675Z,english_359.wav,0,0,182,21,3,Chinese,f,3,0.3,62.21324861,0.18628365
XUJIAJIE,74,1,2024-06-14T13:03:49.675Z,english_359.wav,0,0,182,21,3,Chinese,f,4,0.4,-96.92379856,1.68045213
XUJIAJIE,74,1,2024-06-14T13:03:49.675Z,english_359.wav,0,0,182,21,3,Chinese,f,5,0.5,-63.09314604,0.56124054
XUJIAJIE,74,1,2024-06-14T13:03:49.675Z,english_359.wav,0,0,182,21,3,Chinese,f,6,0.6,85.3804948,1.40840471
XUJIAJIE,74,1,2024-06-14T13:03:49.675Z,english_359.wav,0,0,182,21,3,Chinese,f,7,0.7,-5.84073458,0.76045624
XUJIAJIE,74,1,2024-06-14T13:03:49.675Z,english_359.wav,0,0,182,21,3,Chinese,f,8,0.8,1.07766227,0.79738911
XUJIAJIE,74,1,2024-06-14T13:03:49.675Z,english_359.wav,0,0,182,21,3,Chinese,f,9,0.9,-3.48391837,0.78873787
XUJIAJIE,74,1,2024-06-14T13:03:49.675Z,english_359.wav,0,0,182,21,3,Chinese,f,10,1,5.39755614,0.96854707
XUJIAJIE,74,1,2024-06-14T13:03:49.675Z,english_359.wav,0,0,182,21,3,Chinese,f,11,1.09391667,59.72301587,0.15927381
XUJIAJIE,75,1,2024-06-14T13:03:49.675Z,english_33.wav,0,0,267,21,3,Chinese,f,0,0,-39.58082457,0.53160826
XUJIAJIE,75,1,2024-06-14T13:03:49.675Z,english_33.wav,0,0,267,21,3,Chinese,f,1,0.1,30.52342894,0.02130102
XUJIAJIE,75,1,2024-06-14T13:03:49.675Z,english_33.wav,0,0,267,21,3,Chinese,f,2,0.2,23.47265499,1.79968549
XUJIAJIE,75,1,2024-06-14T13:03:49.675Z,english_33.wav,0,0,267,21,3,Chinese,f,3,0.3,35.06724548,1.77904441
XUJIAJIE,75,1,2024-06-14T13:03:49.675Z,english_33.wav,0,0,267,21,3,Chinese,f,4,0.4,68.41384456,0.50678762
XUJIAJIE,75,1,2024-06-14T13:03:49.675Z,english_33.wav,0,0,267,21,3,Chinese,f,5,0.5,91.35527089,1.72631603
XUJIAJIE,75,1,2024-06-14T13:03:49.675Z,english_33.wav,0,0,267,21,3,Chinese,f,6,0.6,45.24436298,0.90579128
XUJIAJIE,75,1,2024-06-14T13:03:49.675Z,english_33.wav,0,0,267,21,3,Chinese,f,7,0.7,-95.9941639,1.42335886
XUJIAJIE,75,1,2024-06-14T13:03:49.675Z,english_33.wav,0,0,267,21,3,Chinese,f,8,0.8,52.18884155,1.10708789
XUJIAJIE,75,1,2024-06-14T13:03:49.675Z,english_33.wav,0,0,267,21,3,Chinese,f,9,0.9,-59.5821221,1.04407415
XUJIAJIE,75,1,2024-06-14T13:03:49.675Z,english_33.wav,0,0,267,21,3,Chinese,f,10,1,-35.64274737,1.58844638
XUJIAJIE,75,1,2024-06-14T13:03:49.675Z,english_33.wav,0,0,267,21,3,Chinese,f,11,1.09391667,-73.32122587,0.94640907
XUJIAJIE,76,1,2024-06-14T13:03:49.675Z,english_212.wav,0,0,6,21,3,Chinese,f,0,0,7.28178662,1.69718484
XUJIAJIE,76,1,2024-06-14T13:03:49.675Z,english_212.wav,0,0,6,21,3,Chinese,f,1,0.1,53.30309055,0.86840916
XUJIAJIE,76,1,2024-06-14T13:03:49.675Z,english_212.wav,0,0,6,21,3,Chinese,f,2,0.2,9.81131056,0.62741544
XUJIAJIE,76,1,2024-06-14T13:03:49.675Z,english_212.wav,0,0,6,21,3,Chinese,f,3,0.3,-90.32961485,1.93796864
XUJIAJIE,76,1,2024-06-14T13:03:49.675Z,english_212.wav,0,0,6,21,3,Chinese,f,4,0.4,16.20847807,1.96151684
XUJIAJIE,76,1,2024-06-14T13:03:49.675Z,english_212.wav,0,0,6,21,3,Chinese,f,5,0.5,-12.76815096,0.98998478
XUJIAJIE,76,1,2024-06-14T13:03:49.675Z,english_212.wav,0,0,6,21,3,Chinese,f,6,0.6,93.86097069,1.74396039
XUJIAJIE,76,1,2024-06-14T13:03:49.675Z,english_212.wav,0,0,6,21,3,Chinese,f,7,0.7,39.57297318,1.59359998
XUJIAJIE,76,1,2024-06-14T13:03:49.675Z,english_212.wav,0,0,6,21,3,Chinese,f,8,0.8,-19.22688735,1.3284153
XUJIAJIE,76,1,2024-06-14T13:03:49.675Z,english_212.wav,0,0,6,21,3,Chinese,f,9,0.9,-71.99383643,1.90824048
XUJIAJIE,76,1,2024-06-14T13:03:49.675Z,english_212.wav,0,0,6,21,3,Chinese,f,10,1,5.42324024,1.38687745
XUJIAJIE,76,1,2024-06-14T13:03:49.675Z,english_212.wav,0,0,6,21,3,Chinese,f,11,1.09391667,-66.1565739,0.48487656
XUJIAJIE,77,1,2024-06-14T13:03:49.675Z,english_418.wav,0,0,449,21,3,Chinese,f,0,0,17.48179392,1.16767435
XUJIAJIE,77,1,2024-06-14T13:03:49.675Z,english_418.wav,0,0,449,21,3,Chinese,f,1,0.1,-20.93259057,1.12895723
XUJIAJIE,77,1,2024-06-14T13:03:49.675Z,english_418.wav,0,0,449,21,3,Chinese,f,2,0.2,38.48191575,0.3034601
XUJIAJIE,77,1,2024-06-14T13:03:49.675Z,english_418.wav,0,0,449,21,3,Chinese,f,3,0.3,-43.04758346,1.48058882
XUJIAJIE,77,1,2024-06-14T13:03:49.675Z,english_418.wav,0,0,449,21,3,Chinese,f,4,0.4,-27.49631219,0.85133692
