subj,trial,block,date,stim,stim_order,response,rt,age,english,language,sex,param_index,segment,pitch,stretch
CW,0,0,2024-06-15T08:33:59.292Z,english_775.wav,0,0,21422,27,4,chinese,male,0,0,-31.43099856,1.38428974
CW,0,0,2024-06-15T08:33:59.292Z,english_775.wav,0,0,21422,27,4,chinese,male,1,0.1,8.65477654,1.381989
CW,0,0,2024-06-15T08:33:59.292Z,english_775.wav,0,0,21422,27,4,chinese,male,2,0.2,-52.28282098,0.85842321
CW,0,0,2024-06-15T08:33:59.292Z,english_775.wav,0,0,21422,27,4,chinese,male,3,0.3,91.1008366,0.86053133
CW,0,0,2024-06-15T08:33:59.292Z,english_775.wav,0,0,21422,27,4,chinese,male,4,0.4,-9.23078544,0.18720345
CW,0,0,2024-06-15T08:33:59.292Z,english_775.wav,0,0,21422,27,4,chinese,male,5,0.5,-48.12825779,1.02834673
CW,0,0,2024-06-15T08:33:59.292Z,english_775.wav,0,0,21422,27,4,chinese,male,6,0.6,31.75901499,0.26507894
CW,0,0,2024-06-15T08:33:59.292Z,english_775.wav,0,0,21422,27,4,chinese,male,7,0.7,26.51097314,0.89767529
CW,0,0,2024-06-15T08:33:59.292Z,english_775.wav,0,0,21422,27,4,chinese,male,8,0.8,-0.94893242,1.04721154
CW,0,0,2024-06-15T08:33:59.292Z,english_775.wav,0,0,21422,27,4,chinese,male,9,0.9,-80.42410318,1.94213174
CW,0,0,2024-06-15T08:33:59.292Z,english_775.wav,0,0,21422,27,4,chinese,male,10,1,-37.42269733,0.45384942
CW,0,0,2024-06-15T08:33:59.292Z,english_775.wav,0,0,21422,27,4,chinese,male,11,1.09391667,-30.31023423,1.30082565
CW,1,0,2024-06-15T08:33:59.292Z,english_896.wav,0,0,5169,27,4,chinese,male,0,0,15.15197213,1.10343193
CW,1,0,2024-06-15T08:33:59.292Z,english_896.wav,0,0,5169,27,4,chinese,male,1,0.1,12.09834356,1.24784569
CW,1,0,2024-06-15T08:33:59.292Z,english_896.wav,0,0,5169,27,4,chinese,male,2,0.2,-98.90945178,0.69536812
CW,1,0,2024-06-15T08:33:59.292Z,english_896.wav,0,0,5169,27,4,chinese,male,3,0.3,-7.24132806,1.50082123
CW,1,0,2024-06-15T08:33:59.292Z,english_896.wav,0,0,5169,27,4,chinese,male,4,0.4,-22.04912785,1.78962455
CW,1,0,2024-06-15T08:33:59.292Z,english_896.wav,0,0,5169,27,4,chinese,male,5,0.5,53.27175302,0.59868421
CW,1,0,2024-06-15T08:33:59.292Z,english_896.wav,0,0,5169,27,4,chinese,male,6,0.6,18.92228417,1.36027969
CW,1,0,2024-06-15T08:33:59.292Z,english_896.wav,0,0,5169,27,4,chinese,male,7,0.7,65.4652164,1.44726147
CW,1,0,2024-06-15T08:33:59.292Z,english_896.wav,0,0,5169,27,4,chinese,male,8,0.8,51.91420072,1.08983894
CW,1,0,2024-06-15T08:33:59.292Z,english_896.wav,0,0,5169,27,4,chinese,male,9,0.9,20.23549525,0.07451316
CW,1,0,2024-06-15T08:33:59.292Z,english_896.wav,0,0,5169,27,4,chinese,male,10,1,-86.64191921,0.79077881
CW,1,0,2024-06-15T08:33:59.292Z,english_896.wav,0,0,5169,27,4,chinese,male,11,1.09391667,-62.9037571,1.64262615
CW,2,0,2024-06-15T08:33:59.292Z,english_67.wav,0,1,4638,27,4,chinese,male,0,0,-84.65948026,1.62658343
CW,2,0,2024-06-15T08:33:59.292Z,english_67.wav,0,1,4638,27,4,chinese,male,1,0.1,84.7606233,0.18718182
CW,2,0,2024-06-15T08:33:59.292Z,english_67.wav,0,1,4638,27,4,chinese,male,2,0.2,84.84791272,1.32224913
CW,2,0,2024-06-15T08:33:59.292Z,english_67.wav,0,1,4638,27,4,chinese,male,3,0.3,-54.63561635,1.26573793
CW,2,0,2024-06-15T08:33:59.292Z,english_67.wav,0,1,4638,27,4,chinese,male,4,0.4,-93.28689033,0.84125882
CW,2,0,2024-06-15T08:33:59.292Z,english_67.wav,0,1,4638,27,4,chinese,male,5,0.5,15.62357322,0.24401609
CW,2,0,2024-06-15T08:33:59.292Z,english_67.wav,0,1,4638,27,4,chinese,male,6,0.6,70.84522179,0.63082719
CW,2,0,2024-06-15T08:33:59.292Z,english_67.wav,0,1,4638,27,4,chinese,male,7,0.7,18.01432969,0.80351313
CW,2,0,2024-06-15T08:33:59.292Z,english_67.wav,0,1,4638,27,4,chinese,male,8,0.8,-96.46193504,0.91980261
CW,2,0,2024-06-15T08:33:59.292Z,english_67.wav,0,1,4638,27,4,chinese,male,9,0.9,-76.01913404,0.79845133
CW,2,0,2024-06-15T08:33:59.292Z,english_67.wav,0,1,4638,27,4,chinese,male,10,1,21.66220953,1.38280114
CW,2,0,2024-06-15T08:33:59.292Z,english_67.wav,0,1,4638,27,4,chinese,male,11,1.09391667,58.72019725,0.4179158
CW,3,0,2024-06-15T08:33:59.292Z,english_482.wav,0,1,5391,27,4,chinese,male,0,0,20.07417146,1.35721439
CW,3,0,2024-06-15T08:33:59.292Z,english_482.wav,0,1,5391,27,4,chinese,male,1,0.1,-12.82737333,1.71306389
CW,3,0,2024-06-15T08:33:59.292Z,english_482.wav,0,1,5391,27,4,chinese,male,2,0.2,46.60771192,0.15096255
CW,3,0,2024-06-15T08:33:59.292Z,english_482.wav,0,1,5391,27,4,chinese,male,3,0.3,92.39920005,1.17077369
CW,3,0,2024-06-15T08:33:59.292Z,english_482.wav,0,1,5391,27,4,chinese,male,4,0.4,96.99690807,0.74035243
CW,3,0,2024-06-15T08:33:59.292Z,english_482.wav,0,1,5391,27,4,chinese,male,5,0.5,12.60829295,1.34523093
CW,3,0,2024-06-15T08:33:59.292Z,english_482.wav,0,1,5391,27,4,chinese,male,6,0.6,-23.92845314,0.96774723
CW,3,0,2024-06-15T08:33:59.292Z,english_482.wav,0,1,5391,27,4,chinese,male,7,0.7,-47.3765233,1.67491069
CW,3,0,2024-06-15T08:33:59.292Z,english_482.wav,0,1,5391,27,4,chinese,male,8,0.8,55.97987906,1.90247302
CW,3,0,2024-06-15T08:33:59.292Z,english_482.wav,0,1,5391,27,4,chinese,male,9,0.9,22.28704579,1.31919575
CW,3,0,2024-06-15T08:33:59.292Z,english_482.wav,0,1,5391,27,4,chinese,male,10,1,67.15676761,1.48251796
CW,3,0,2024-06-15T08:33:59.292Z,english_482.wav,0,1,5391,27,4,chinese,male,11,1.09391667,46.69344931,0.85176568
CW,4,0,2024-06-15T08:33:59.292Z,english_617.wav,0,1,2295,27,4,chinese,male,0,0,10.93227953,0.72387338
CW,4,0,2024-06-15T08:33:59.292Z,english_617.wav,0,1,2295,27,4,chinese,male,1,0.1,-59.2478864,1.78831672
CW,4,0,2024-06-15T08:33:59.292Z,english_617.wav,0,1,2295,27,4,chinese,male,2,0.2,-60.98157443,0.6179467
CW,4,0,2024-06-15T08:33:59.292Z,english_617.wav,0,1,2295,27,4,chinese,male,3,0.3,-98.20098641,0.63320585
CW,4,0,2024-06-15T08:33:59.292Z,english_617.wav,0,1,2295,27,4,chinese,male,4,0.4,-27.56878422,0.42531965
CW,4,0,2024-06-15T08:33:59.292Z,english_617.wav,0,1,2295,27,4,chinese,male,5,0.5,-16.62879698,1.05036122
CW,4,0,2024-06-15T08:33:59.292Z,english_617.wav,0,1,2295,27,4,chinese,male,6,0.6,-85.18504197,1.22550457
CW,4,0,2024-06-15T08:33:59.292Z,english_617.wav,0,1,2295,27,4,chinese,male,7,0.7,65.935133,0.87185678
CW,4,0,2024-06-15T08:33:59.292Z,english_617.wav,0,1,2295,27,4,chinese,male,8,0.8,-49.35852621,1.19822477
CW,4,0,2024-06-15T08:33:59.292Z,english_617.wav,0,1,2295,27,4,chinese,male,9,0.9,-79.82823856,0.11933649
CW,4,0,2024-06-15T08:33:59.292Z,english_617.wav,0,1,2295,27,4,chinese,male,10,1,-43.72382152,1.37889257
CW,4,0,2024-06-15T08:33:59.292Z,english_617.wav,0,1,2295,27,4,chinese,male,11,1.09391667,-81.76136352,0.25359551
CW,5,0,2024-06-15T08:33:59.292Z,english_982.wav,0,0,4202,27,4,chinese,male,0,0,69.76944056,0.99276477
CW,5,0,2024-06-15T08:33:59.292Z,english_982.wav,0,0,4202,27,4,chinese,male,1,0.1,-42.93548761,1.13394656
CW,5,0,2024-06-15T08:33:59.292Z,english_982.wav,0,0,4202,27,4,chinese,male,2,0.2,36.82283162,0.8882043
CW,5,0,2024-06-15T08:33:59.292Z,english_982.wav,0,0,4202,27,4,chinese,male,3,0.3,32.72805269,0.48588646
CW,5,0,2024-06-15T08:33:59.292Z,english_982.wav,0,0,4202,27,4,chinese,male,4,0.4,59.91100813,0.19309887
CW,5,0,2024-06-15T08:33:59.292Z,english_982.wav,0,0,4202,27,4,chinese,male,5,0.5,-67.75715394,0.28513591
CW,5,0,2024-06-15T08:33:59.292Z,english_982.wav,0,0,4202,27,4,chinese,male,6,0.6,-89.50145132,0.07898736
CW,5,0,2024-06-15T08:33:59.292Z,english_982.wav,0,0,4202,27,4,chinese,male,7,0.7,-26.70280059,0.13233941
CW,5,0,2024-06-15T08:33:59.292Z,english_982.wav,0,0,4202,27,4,chinese,male,8,0.8,64.77389449,0.72291483
CW,5,0,2024-06-15T08:33:59.292Z,english_982.wav,0,0,4202,27,4,chinese,male,9,0.9,-30.11635891,0.45053492
CW,5,0,2024-06-15T08:33:59.292Z,english_982.wav,0,0,4202,27,4,chinese,male,10,1,-16.70024332,0.51435491
CW,5,0,2024-06-15T08:33:59.292Z,english_982.wav,0,0,4202,27,4,chinese,male,11,1.09391667,69.17887886,0.97661721
CW,6,0,2024-06-15T08:33:59.292Z,english_663.wav,0,1,556,27,4,chinese,male,0,0,25.59053478,1.78737857
CW,6,0,2024-06-15T08:33:59.292Z,english_663.wav,0,1,556,27,4,chinese,male,1,0.1,-58.99857374,1.42240818
CW,6,0,2024-06-15T08:33:59.292Z,english_663.wav,0,1,556,27,4,chinese,male,2,0.2,-5.24989333,1.3064588
CW,6,0,2024-06-15T08:33:59.292Z,english_663.wav,0,1,556,27,4,chinese,male,3,0.3,-69.09303088,0.70237579
CW,6,0,2024-06-15T08:33:59.292Z,english_663.wav,0,1,556,27,4,chinese,male,4,0.4,-45.4002244,1.46111329
CW,6,0,2024-06-15T08:33:59.292Z,english_663.wav,0,1,556,27,4,chinese,male,5,0.5,-34.03427643,0.83880831
CW,6,0,2024-06-15T08:33:59.292Z,english_663.wav,0,1,556,27,4,chinese,male,6,0.6,-19.18804463,1.08172691
CW,6,0,2024-06-15T08:33:59.292Z,english_663.wav,0,1,556,27,4,chinese,male,7,0.7,-64.51254164,1.55901958
CW,6,0,2024-06-15T08:33:59.292Z,english_663.wav,0,1,556,27,4,chinese,male,8,0.8,54.38008437,0.76271714
CW,6,0,2024-06-15T08:33:59.292Z,english_663.wav,0,1,556,27,4,chinese,male,9,0.9,-75.85045717,1.07438518
CW,6,0,2024-06-15T08:33:59.292Z,english_663.wav,0,1,556,27,4,chinese,male,10,1,38.1526186,1.50748802
CW,6,0,2024-06-15T08:33:59.292Z,english_663.wav,0,1,556,27,4,chinese,male,11,1.09391667,60.1980267,1.3123631
CW,7,0,2024-06-15T08:33:59.292Z,english_406.wav,0,0,606,27,4,chinese,male,0,0,16.41054839,1.82011871
CW,7,0,2024-06-15T08:33:59.292Z,english_406.wav,0,0,606,27,4,chinese,male,1,0.1,-23.44264217,1.5788444
CW,7,0,2024-06-15T08:33:59.292Z,english_406.wav,0,0,606,27,4,chinese,male,2,0.2,67.00437835,0.98241909
CW,7,0,2024-06-15T08:33:59.292Z,english_406.wav,0,0,606,27,4,chinese,male,3,0.3,32.24147439,1.73565394
CW,7,0,2024-06-15T08:33:59.292Z,english_406.wav,0,0,606,27,4,chinese,male,4,0.4,-69.94095423,0.23880913
CW,7,0,2024-06-15T08:33:59.292Z,english_406.wav,0,0,606,27,4,chinese,male,5,0.5,-75.95608649,1.64825439
CW,7,0,2024-06-15T08:33:59.292Z,english_406.wav,0,0,606,27,4,chinese,male,6,0.6,26.64856795,1.51416343
CW,7,0,2024-06-15T08:33:59.292Z,english_406.wav,0,0,606,27,4,chinese,male,7,0.7,28.46707033,0.23765412
CW,7,0,2024-06-15T08:33:59.292Z,english_406.wav,0,0,606,27,4,chinese,male,8,0.8,8.57252797,0.78664096
CW,7,0,2024-06-15T08:33:59.292Z,english_406.wav,0,0,606,27,4,chinese,male,9,0.9,-43.42045484,1.03412093
CW,7,0,2024-06-15T08:33:59.292Z,english_406.wav,0,0,606,27,4,chinese,male,10,1,-38.23728815,1.06202892
CW,7,0,2024-06-15T08:33:59.292Z,english_406.wav,0,0,606,27,4,chinese,male,11,1.09391667,-48.66780803,0.40663901
CW,8,0,2024-06-15T08:33:59.292Z,english_161.wav,0,0,1757,27,4,chinese,male,0,0,0.2450503,0.47001228
CW,8,0,2024-06-15T08:33:59.292Z,english_161.wav,0,0,1757,27,4,chinese,male,1,0.1,41.86400045,1.24375119
CW,8,0,2024-06-15T08:33:59.292Z,english_161.wav,0,0,1757,27,4,chinese,male,2,0.2,3.22348346,0.98802588
CW,8,0,2024-06-15T08:33:59.292Z,english_161.wav,0,0,1757,27,4,chinese,male,3,0.3,-24.29894103,1.92952194
CW,8,0,2024-06-15T08:33:59.292Z,english_161.wav,0,0,1757,27,4,chinese,male,4,0.4,66.4308336,0.84385332
CW,8,0,2024-06-15T08:33:59.292Z,english_161.wav,0,0,1757,27,4,chinese,male,5,0.5,-79.52202924,0.34569188
CW,8,0,2024-06-15T08:33:59.292Z,english_161.wav,0,0,1757,27,4,chinese,male,6,0.6,-4.00284897,1.46988057
CW,8,0,2024-06-15T08:33:59.292Z,english_161.wav,0,0,1757,27,4,chinese,male,7,0.7,-82.69040612,0.94597317
CW,8,0,2024-06-15T08:33:59.292Z,english_161.wav,0,0,1757,27,4,chinese,male,8,0.8,32.14289288,0.70955806
CW,8,0,2024-06-15T08:33:59.292Z,english_161.wav,0,0,1757,27,4,chinese,male,9,0.9,-94.27188699,1.39207721
CW,8,0,2024-06-15T08:33:59.292Z,english_161.wav,0,0,1757,27,4,chinese,male,10,1,-14.10162234,0.79549611
CW,8,0,2024-06-15T08:33:59.292Z,english_161.wav,0,0,1757,27,4,chinese,male,11,1.09391667,27.39748728,1.7090018
CW,9,0,2024-06-15T08:33:59.292Z,english_393.wav,0,1,470,27,4,chinese,male,0,0,-58.74313134,0.16237212
CW,9,0,2024-06-15T08:33:59.292Z,english_393.wav,0,1,470,27,4,chinese,male,1,0.1,46.38152714,1.56085016
CW,9,0,2024-06-15T08:33:59.292Z,english_393.wav,0,1,470,27,4,chinese,male,2,0.2,-5.44961594,0.52643067
CW,9,0,2024-06-15T08:33:59.292Z,english_393.wav,0,1,470,27,4,chinese,male,3,0.3,51.05560406,0.88104135
CW,9,0,2024-06-15T08:33:59.292Z,english_393.wav,0,1,470,27,4,chinese,male,4,0.4,48.86629046,0.28565075
CW,9,0,2024-06-15T08:33:59.292Z,english_393.wav,0,1,470,27,4,chinese,male,5,0.5,-0.66798529,1.31813369
CW,9,0,2024-06-15T08:33:59.292Z,english_393.wav,0,1,470,27,4,chinese,male,6,0.6,8.72000336,1.65879699
CW,9,0,2024-06-15T08:33:59.292Z,english_393.wav,0,1,470,27,4,chinese,male,7,0.7,67.13946978,1.88209371
CW,9,0,2024-06-15T08:33:59.292Z,english_393.wav,0,1,470,27,4,chinese,male,8,0.8,18.17496414,0.89524583
CW,9,0,2024-06-15T08:33:59.292Z,english_393.wav,0,1,470,27,4,chinese,male,9,0.9,-78.16206847,0.64742398
CW,9,0,2024-06-15T08:33:59.292Z,english_393.wav,0,1,470,27,4,chinese,male,10,1,26.35406132,0.57671432
CW,9,0,2024-06-15T08:33:59.292Z,english_393.wav,0,1,470,27,4,chinese,male,11,1.09391667,94.49751902,1.24089852
CW,10,0,2024-06-15T08:33:59.292Z,english_117.wav,0,0,549,27,4,chinese,male,0,0,-28.38275439,0.21519039
CW,10,0,2024-06-15T08:33:59.292Z,english_117.wav,0,0,549,27,4,chinese,male,1,0.1,98.42008379,0.51040987
CW,10,0,2024-06-15T08:33:59.292Z,english_117.wav,0,0,549,27,4,chinese,male,2,0.2,41.31206558,0.4102792
CW,10,0,2024-06-15T08:33:59.292Z,english_117.wav,0,0,549,27,4,chinese,male,3,0.3,-83.83183678,1.46073806
CW,10,0,2024-06-15T08:33:59.292Z,english_117.wav,0,0,549,27,4,chinese,male,4,0.4,98.21463791,0.64884847
CW,10,0,2024-06-15T08:33:59.292Z,english_117.wav,0,0,549,27,4,chinese,male,5,0.5,-2.48578352,0.03709947
CW,10,0,2024-06-15T08:33:59.292Z,english_117.wav,0,0,549,27,4,chinese,male,6,0.6,-4.17640124,1.54490713
CW,10,0,2024-06-15T08:33:59.292Z,english_117.wav,0,0,549,27,4,chinese,male,7,0.7,96.23712421,1.91280324
CW,10,0,2024-06-15T08:33:59.292Z,english_117.wav,0,0,549,27,4,chinese,male,8,0.8,58.96351824,1.06675457
CW,10,0,2024-06-15T08:33:59.292Z,english_117.wav,0,0,549,27,4,chinese,male,9,0.9,45.91477825,1.30412923
CW,10,0,2024-06-15T08:33:59.292Z,english_117.wav,0,0,549,27,4,chinese,male,10,1,-11.19499605,1.45368514
CW,10,0,2024-06-15T08:33:59.292Z,english_117.wav,0,0,549,27,4,chinese,male,11,1.09391667,-21.37390064,0.12058037
CW,11,0,2024-06-15T08:33:59.292Z,english_652.wav,0,1,3164,27,4,chinese,male,0,0,-6.47134423,1.78340321
CW,11,0,2024-06-15T08:33:59.292Z,english_652.wav,0,1,3164,27,4,chinese,male,1,0.1,15.08810971,1.37348527
CW,11,0,2024-06-15T08:33:59.292Z,english_652.wav,0,1,3164,27,4,chinese,male,2,0.2,98.29631383,0.90438715
CW,11,0,2024-06-15T08:33:59.292Z,english_652.wav,0,1,3164,27,4,chinese,male,3,0.3,30.58339985,0.90448146
CW,11,0,2024-06-15T08:33:59.292Z,english_652.wav,0,1,3164,27,4,chinese,male,4,0.4,-6.30529528,0.6194213
CW,11,0,2024-06-15T08:33:59.292Z,english_652.wav,0,1,3164,27,4,chinese,male,5,0.5,-44.5601624,1.03986034
CW,11,0,2024-06-15T08:33:59.292Z,english_652.wav,0,1,3164,27,4,chinese,male,6,0.6,4.47931007,0.52762796
CW,11,0,2024-06-15T08:33:59.292Z,english_652.wav,0,1,3164,27,4,chinese,male,7,0.7,-52.28319513,0.92865907
CW,11,0,2024-06-15T08:33:59.292Z,english_652.wav,0,1,3164,27,4,chinese,male,8,0.8,17.6405793,1.28477406
CW,11,0,2024-06-15T08:33:59.292Z,english_652.wav,0,1,3164,27,4,chinese,male,9,0.9,2.7192508,1.34724363
CW,11,0,2024-06-15T08:33:59.292Z,english_652.wav,0,1,3164,27,4,chinese,male,10,1,-8.76412426,1.76490877
CW,11,0,2024-06-15T08:33:59.292Z,english_652.wav,0,1,3164,27,4,chinese,male,11,1.09391667,53.37366327,1.20575877
CW,12,0,2024-06-15T08:33:59.292Z,english_413.wav,0,0,1016,27,4,chinese,male,0,0,14.83112151,0.44215223
CW,12,0,2024-06-15T08:33:59.292Z,english_413.wav,0,0,1016,27,4,chinese,male,1,0.1,11.76914083,1.16902386
CW,12,0,2024-06-15T08:33:59.292Z,english_413.wav,0,0,1016,27,4,chinese,male,2,0.2,56.99835841,1.34778137
CW,12,0,2024-06-15T08:33:59.292Z,english_413.wav,0,0,1016,27,4,chinese,male,3,0.3,-91.21705368,1.75286116
CW,12,0,2024-06-15T08:33:59.292Z,english_413.wav,0,0,1016,27,4,chinese,male,4,0.4,45.54032704,0.59475232
CW,12,0,2024-06-15T08:33:59.292Z,english_413.wav,0,0,1016,27,4,chinese,male,5,0.5,27.79493499,1.56815753
CW,12,0,2024-06-15T08:33:59.292Z,english_413.wav,0,0,1016,27,4,chinese,male,6,0.6,-45.92047179,1.45096495
CW,12,0,2024-06-15T08:33:59.292Z,english_413.wav,0,0,1016,27,4,chinese,male,7,0.7,30.6901634,1.27145961
CW,12,0,2024-06-15T08:33:59.292Z,english_413.wav,0,0,1016,27,4,chinese,male,8,0.8,-6.79166087,1.53710405
CW,12,0,2024-06-15T08:33:59.292Z,english_413.wav,0,0,1016,27,4,chinese,male,9,0.9,-73.44231095,1.76487513
CW,12,0,2024-06-15T08:33:59.292Z,english_413.wav,0,0,1016,27,4,chinese,male,10,1,72.98773842,1.73986125
CW,12,0,2024-06-15T08:33:59.292Z,english_413.wav,0,0,1016,27,4,chinese,male,11,1.09391667,-6.1173613,0.92350985
CW,13,0,2024-06-15T08:33:59.292Z,english_331.wav,0,1,256,27,4,chinese,male,0,0,-64.72276527,1.69014175
CW,13,0,2024-06-15T08:33:59.292Z,english_331.wav,0,1,256,27,4,chinese,male,1,0.1,-64.60107944,0.93306192
CW,13,0,2024-06-15T08:33:59.292Z,english_331.wav,0,1,256,27,4,chinese,male,2,0.2,43.10237597,1.51219836
CW,13,0,2024-06-15T08:33:59.292Z,english_331.wav,0,1,256,27,4,chinese,male,3,0.3,3.97944271,1.83280239
CW,13,0,2024-06-15T08:33:59.292Z,english_331.wav,0,1,256,27,4,chinese,male,4,0.4,53.93002911,0.32272679
CW,13,0,2024-06-15T08:33:59.292Z,english_331.wav,0,1,256,27,4,chinese,male,5,0.5,-98.69413197,0.14451959
CW,13,0,2024-06-15T08:33:59.292Z,english_331.wav,0,1,256,27,4,chinese,male,6,0.6,76.42202474,0.4727661
CW,13,0,2024-06-15T08:33:59.292Z,english_331.wav,0,1,256,27,4,chinese,male,7,0.7,-50.14036669,0.90462805
CW,13,0,2024-06-15T08:33:59.292Z,english_331.wav,0,1,256,27,4,chinese,male,8,0.8,61.5779926,1.98401372
CW,13,0,2024-06-15T08:33:59.292Z,english_331.wav,0,1,256,27,4,chinese,male,9,0.9,-56.16895328,0.59081959
CW,13,0,2024-06-15T08:33:59.292Z,english_331.wav,0,1,256,27,4,chinese,male,10,1,5.62439148,1.38184498
CW,13,0,2024-06-15T08:33:59.292Z,english_331.wav,0,1,256,27,4,chinese,male,11,1.09391667,-39.06443994,0.44356806
CW,14,0,2024-06-15T08:33:59.292Z,english_627.wav,0,0,144,27,4,chinese,male,0,0,61.61292799,1.38806705
CW,14,0,2024-06-15T08:33:59.292Z,english_627.wav,0,0,144,27,4,chinese,male,1,0.1,56.33641902,0.72797241
CW,14,0,2024-06-15T08:33:59.292Z,english_627.wav,0,0,144,27,4,chinese,male,2,0.2,-89.79026277,1.31326188
CW,14,0,2024-06-15T08:33:59.292Z,english_627.wav,0,0,144,27,4,chinese,male,3,0.3,-79.74264658,1.97676424
CW,14,0,2024-06-15T08:33:59.292Z,english_627.wav,0,0,144,27,4,chinese,male,4,0.4,23.07538857,1.13729178
CW,14,0,2024-06-15T08:33:59.292Z,english_627.wav,0,0,144,27,4,chinese,male,5,0.5,-10.76343706,0.13245486
CW,14,0,2024-06-15T08:33:59.292Z,english_627.wav,0,0,144,27,4,chinese,male,6,0.6,-5.69473489,0.69323738
CW,14,0,2024-06-15T08:33:59.292Z,english_627.wav,0,0,144,27,4,chinese,male,7,0.7,-7.26950502,1.4848786
CW,14,0,2024-06-15T08:33:59.292Z,english_627.wav,0,0,144,27,4,chinese,male,8,0.8,15.57475433,1.9356485
CW,14,0,2024-06-15T08:33:59.292Z,english_627.wav,0,0,144,27,4,chinese,male,9,0.9,3.14852465,1.60625319
CW,14,0,2024-06-15T08:33:59.292Z,english_627.wav,0,0,144,27,4,chinese,male,10,1,33.23262787,0.88492326
CW,14,0,2024-06-15T08:33:59.292Z,english_627.wav,0,0,144,27,4,chinese,male,11,1.09391667,-88.39615435,1.31394344
CW,15,0,2024-06-15T08:33:59.292Z,english_275.wav,0,1,300,27,4,chinese,male,0,0,-31.53954932,1.11178535
CW,15,0,2024-06-15T08:33:59.292Z,english_275.wav,0,1,300,27,4,chinese,male,1,0.1,67.55550323,1.43872854
CW,15,0,2024-06-15T08:33:59.292Z,english_275.wav,0,1,300,27,4,chinese,male,2,0.2,55.26204535,1.00652784
CW,15,0,2024-06-15T08:33:59.292Z,english_275.wav,0,1,300,27,4,chinese,male,3,0.3,-80.01639585,1.88859993
CW,15,0,2024-06-15T08:33:59.292Z,english_275.wav,0,1,300,27,4,chinese,male,4,0.4,94.9520187,1.11098418
CW,15,0,2024-06-15T08:33:59.292Z,english_275.wav,0,1,300,27,4,chinese,male,5,0.5,14.34639333,0.053376
CW,15,0,2024-06-15T08:33:59.292Z,english_275.wav,0,1,300,27,4,chinese,male,6,0.6,86.55683539,0.64698711
CW,15,0,2024-06-15T08:33:59.292Z,english_275.wav,0,1,300,27,4,chinese,male,7,0.7,-89.78552737,0.30486873
CW,15,0,2024-06-15T08:33:59.292Z,english_275.wav,0,1,300,27,4,chinese,male,8,0.8,-1.72373159,1.76121679
CW,15,0,2024-06-15T08:33:59.292Z,english_275.wav,0,1,300,27,4,chinese,male,9,0.9,-17.62384296,1.26518318
CW,15,0,2024-06-15T08:33:59.292Z,english_275.wav,0,1,300,27,4,chinese,male,10,1,-77.59342149,0.9746017
CW,15,0,2024-06-15T08:33:59.292Z,english_275.wav,0,1,300,27,4,chinese,male,11,1.09391667,-62.03983535,0.80300486
CW,16,0,2024-06-15T08:33:59.292Z,english_756.wav,0,0,475,27,4,chinese,male,0,0,-32.70542045,0.92316539
CW,16,0,2024-06-15T08:33:59.292Z,english_756.wav,0,0,475,27,4,chinese,male,1,0.1,62.91454888,0.37547917
CW,16,0,2024-06-15T08:33:59.292Z,english_756.wav,0,0,475,27,4,chinese,male,2,0.2,-9.17678833,1.92598223
CW,16,0,2024-06-15T08:33:59.292Z,english_756.wav,0,0,475,27,4,chinese,male,3,0.3,16.28624283,0.89010875
CW,16,0,2024-06-15T08:33:59.292Z,english_756.wav,0,0,475,27,4,chinese,male,4,0.4,-33.51792534,0.38662098
CW,16,0,2024-06-15T08:33:59.292Z,english_756.wav,0,0,475,27,4,chinese,male,5,0.5,88.01648813,1.17672662
CW,16,0,2024-06-15T08:33:59.292Z,english_756.wav,0,0,475,27,4,chinese,male,6,0.6,62.37064714,0.21957896
CW,16,0,2024-06-15T08:33:59.292Z,english_756.wav,0,0,475,27,4,chinese,male,7,0.7,-52.3683359,1.78953747
CW,16,0,2024-06-15T08:33:59.292Z,english_756.wav,0,0,475,27,4,chinese,male,8,0.8,56.37360277,1.89812903
CW,16,0,2024-06-15T08:33:59.292Z,english_756.wav,0,0,475,27,4,chinese,male,9,0.9,-54.86484941,1.43873799
CW,16,0,2024-06-15T08:33:59.292Z,english_756.wav,0,0,475,27,4,chinese,male,10,1,91.23924333,1.51351367
CW,16,0,2024-06-15T08:33:59.292Z,english_756.wav,0,0,475,27,4,chinese,male,11,1.09391667,-26.61223969,1.73327561
CW,17,0,2024-06-15T08:33:59.292Z,english_561.wav,0,0,262,27,4,chinese,male,0,0,-40.74145274,1.68424793
CW,17,0,2024-06-15T08:33:59.292Z,english_561.wav,0,0,262,27,4,chinese,male,1,0.1,73.1709151,1.15723577
CW,17,0,2024-06-15T08:33:59.292Z,english_561.wav,0,0,262,27,4,chinese,male,2,0.2,-76.97322172,0.16061562
CW,17,0,2024-06-15T08:33:59.292Z,english_561.wav,0,0,262,27,4,chinese,male,3,0.3,-33.73958817,0.71161921
CW,17,0,2024-06-15T08:33:59.292Z,english_561.wav,0,0,262,27,4,chinese,male,4,0.4,-60.0926115,0.40520901
CW,17,0,2024-06-15T08:33:59.292Z,english_561.wav,0,0,262,27,4,chinese,male,5,0.5,17.46588089,1.58164625
CW,17,0,2024-06-15T08:33:59.292Z,english_561.wav,0,0,262,27,4,chinese,male,6,0.6,74.1182297,0.61549977
CW,17,0,2024-06-15T08:33:59.292Z,english_561.wav,0,0,262,27,4,chinese,male,7,0.7,96.50181715,1.28562209
CW,17,0,2024-06-15T08:33:59.292Z,english_561.wav,0,0,262,27,4,chinese,male,8,0.8,72.92112675,0.3725745
CW,17,0,2024-06-15T08:33:59.292Z,english_561.wav,0,0,262,27,4,chinese,male,9,0.9,-4.13482892,0.83114042
CW,17,0,2024-06-15T08:33:59.292Z,english_561.wav,0,0,262,27,4,chinese,male,10,1,68.85388576,1.94100595
CW,17,0,2024-06-15T08:33:59.292Z,english_561.wav,0,0,262,27,4,chinese,male,11,1.09391667,-59.51051487,0.22020615
CW,18,0,2024-06-15T08:33:59.292Z,english_994.wav,0,1,453,27,4,chinese,male,0,0,36.98660599,0.81226984
CW,18,0,2024-06-15T08:33:59.292Z,english_994.wav,0,1,453,27,4,chinese,male,1,0.1,-60.95311815,1.65591745
CW,18,0,2024-06-15T08:33:59.292Z,english_994.wav,0,1,453,27,4,chinese,male,2,0.2,71.26510733,0.7009818
CW,18,0,2024-06-15T08:33:59.292Z,english_994.wav,0,1,453,27,4,chinese,male,3,0.3,11.062559,1.67859876
CW,18,0,2024-06-15T08:33:59.292Z,english_994.wav,0,1,453,27,4,chinese,male,4,0.4,70.6179669,1.05248669
CW,18,0,2024-06-15T08:33:59.292Z,english_994.wav,0,1,453,27,4,chinese,male,5,0.5,-52.90665563,0.39767772
CW,18,0,2024-06-15T08:33:59.292Z,english_994.wav,0,1,453,27,4,chinese,male,6,0.6,78.12480734,1.01059837
CW,18,0,2024-06-15T08:33:59.292Z,english_994.wav,0,1,453,27,4,chinese,male,7,0.7,46.03409877,0.20028443
CW,18,0,2024-06-15T08:33:59.292Z,english_994.wav,0,1,453,27,4,chinese,male,8,0.8,-66.74754668,0.75506808
CW,18,0,2024-06-15T08:33:59.292Z,english_994.wav,0,1,453,27,4,chinese,male,9,0.9,56.18548234,1.57615428
CW,18,0,2024-06-15T08:33:59.292Z,english_994.wav,0,1,453,27,4,chinese,male,10,1,-83.86573512,0.51140578
CW,18,0,2024-06-15T08:33:59.292Z,english_994.wav,0,1,453,27,4,chinese,male,11,1.09391667,32.71445858,1.06238543
CW,19,0,2024-06-15T08:33:59.292Z,english_32.wav,0,0,362,27,4,chinese,male,0,0,-30.37103026,1.56358407
CW,19,0,2024-06-15T08:33:59.292Z,english_32.wav,0,0,362,27,4,chinese,male,1,0.1,48.19693032,0.66938937
CW,19,0,2024-06-15T08:33:59.292Z,english_32.wav,0,0,362,27,4,chinese,male,2,0.2,60.21879648,0.62318935
CW,19,0,2024-06-15T08:33:59.292Z,english_32.wav,0,0,362,27,4,chinese,male,3,0.3,-12.9108181,0.13798643
CW,19,0,2024-06-15T08:33:59.292Z,english_32.wav,0,0,362,27,4,chinese,male,4,0.4,61.17128835,1.67432231
CW,19,0,2024-06-15T08:33:59.292Z,english_32.wav,0,0,362,27,4,chinese,male,5,0.5,19.24517735,1.91695281
CW,19,0,2024-06-15T08:33:59.292Z,english_32.wav,0,0,362,27,4,chinese,male,6,0.6,41.79476445,1.90714452
CW,19,0,2024-06-15T08:33:59.292Z,english_32.wav,0,0,362,27,4,chinese,male,7,0.7,96.88218939,0.54460332
CW,19,0,2024-06-15T08:33:59.292Z,english_32.wav,0,0,362,27,4,chinese,male,8,0.8,-23.72521723,0.86040489
CW,19,0,2024-06-15T08:33:59.292Z,english_32.wav,0,0,362,27,4,chinese,male,9,0.9,33.3965621,1.76371179
CW,19,0,2024-06-15T08:33:59.292Z,english_32.wav,0,0,362,27,4,chinese,male,10,1,9.85905215,1.54546749
CW,19,0,2024-06-15T08:33:59.292Z,english_32.wav,0,0,362,27,4,chinese,male,11,1.09391667,-87.41832761,0.75722411
CW,20,0,2024-06-15T08:33:59.292Z,english_77.wav,0,0,421,27,4,chinese,male,0,0,14.85901356,0.93801636
CW,20,0,2024-06-15T08:33:59.292Z,english_77.wav,0,0,421,27,4,chinese,male,1,0.1,-14.38598058,1.78480039
CW,20,0,2024-06-15T08:33:59.292Z,english_77.wav,0,0,421,27,4,chinese,male,2,0.2,-43.69728494,1.59819809
CW,20,0,2024-06-15T08:33:59.292Z,english_77.wav,0,0,421,27,4,chinese,male,3,0.3,-19.24854373,0.89560743
CW,20,0,2024-06-15T08:33:59.292Z,english_77.wav,0,0,421,27,4,chinese,male,4,0.4,4.73942442,0.68128783
CW,20,0,2024-06-15T08:33:59.292Z,english_77.wav,0,0,421,27,4,chinese,male,5,0.5,6.08734895,1.19225119
CW,20,0,2024-06-15T08:33:59.292Z,english_77.wav,0,0,421,27,4,chinese,male,6,0.6,2.07981921,1.49267812
CW,20,0,2024-06-15T08:33:59.292Z,english_77.wav,0,0,421,27,4,chinese,male,7,0.7,-3.22152689,1.83354621
CW,20,0,2024-06-15T08:33:59.292Z,english_77.wav,0,0,421,27,4,chinese,male,8,0.8,-81.97912938,0.65715704
CW,20,0,2024-06-15T08:33:59.292Z,english_77.wav,0,0,421,27,4,chinese,male,9,0.9,9.14807536,1.29592629
CW,20,0,2024-06-15T08:33:59.292Z,english_77.wav,0,0,421,27,4,chinese,male,10,1,-30.52937586,1.03409297
CW,20,0,2024-06-15T08:33:59.292Z,english_77.wav,0,0,421,27,4,chinese,male,11,1.09391667,17.14336326,1.45456337
CW,21,0,2024-06-15T08:33:59.292Z,english_398.wav,0,1,562,27,4,chinese,male,0,0,58.43536872,0.19891774
CW,21,0,2024-06-15T08:33:59.292Z,english_398.wav,0,1,562,27,4,chinese,male,1,0.1,-82.57908231,0.03529734
CW,21,0,2024-06-15T08:33:59.292Z,english_398.wav,0,1,562,27,4,chinese,male,2,0.2,-3.40439415,1.69592316
CW,21,0,2024-06-15T08:33:59.292Z,english_398.wav,0,1,562,27,4,chinese,male,3,0.3,-83.74176257,0.07086845
CW,21,0,2024-06-15T08:33:59.292Z,english_398.wav,0,1,562,27,4,chinese,male,4,0.4,38.89596711,0.77458748
CW,21,0,2024-06-15T08:33:59.292Z,english_398.wav,0,1,562,27,4,chinese,male,5,0.5,63.49142751,1.25980126
CW,21,0,2024-06-15T08:33:59.292Z,english_398.wav,0,1,562,27,4,chinese,male,6,0.6,64.24765223,1.54445807
CW,21,0,2024-06-15T08:33:59.292Z,english_398.wav,0,1,562,27,4,chinese,male,7,0.7,24.37031282,0.23015685
CW,21,0,2024-06-15T08:33:59.292Z,english_398.wav,0,1,562,27,4,chinese,male,8,0.8,18.2651004,0.80693823
CW,21,0,2024-06-15T08:33:59.292Z,english_398.wav,0,1,562,27,4,chinese,male,9,0.9,-3.768449,0.61010049
CW,21,0,2024-06-15T08:33:59.292Z,english_398.wav,0,1,562,27,4,chinese,male,10,1,55.48069175,0.09811637
CW,21,0,2024-06-15T08:33:59.292Z,english_398.wav,0,1,562,27,4,chinese,male,11,1.09391667,-2.34176887,1.22967895
CW,22,0,2024-06-15T08:33:59.292Z,english_624.wav,0,1,235,27,4,chinese,male,0,0,34.76400378,1.78994994
CW,22,0,2024-06-15T08:33:59.292Z,english_624.wav,0,1,235,27,4,chinese,male,1,0.1,-36.42076645,1.4795907
CW,22,0,2024-06-15T08:33:59.292Z,english_624.wav,0,1,235,27,4,chinese,male,2,0.2,-52.38985079,1.80721514
CW,22,0,2024-06-15T08:33:59.292Z,english_624.wav,0,1,235,27,4,chinese,male,3,0.3,98.14853718,1.70059719
CW,22,0,2024-06-15T08:33:59.292Z,english_624.wav,0,1,235,27,4,chinese,male,4,0.4,97.5674754,0.69719837
CW,22,0,2024-06-15T08:33:59.292Z,english_624.wav,0,1,235,27,4,chinese,male,5,0.5,-80.04687885,1.37290399
CW,22,0,2024-06-15T08:33:59.292Z,english_624.wav,0,1,235,27,4,chinese,male,6,0.6,-8.81047571,1.53741575
CW,22,0,2024-06-15T08:33:59.292Z,english_624.wav,0,1,235,27,4,chinese,male,7,0.7,-78.45129318,1.54350611
CW,22,0,2024-06-15T08:33:59.292Z,english_624.wav,0,1,235,27,4,chinese,male,8,0.8,39.54454361,0.49170725
CW,22,0,2024-06-15T08:33:59.292Z,english_624.wav,0,1,235,27,4,chinese,male,9,0.9,32.62160332,1.04663897
CW,22,0,2024-06-15T08:33:59.292Z,english_624.wav,0,1,235,27,4,chinese,male,10,1,-98.98158135,0.63020253
CW,22,0,2024-06-15T08:33:59.292Z,english_624.wav,0,1,235,27,4,chinese,male,11,1.09391667,19.08613563,0.96318783
CW,23,0,2024-06-15T08:33:59.292Z,english_724.wav,0,0,201,27,4,chinese,male,0,0,-56.76875747,1.98134375
CW,23,0,2024-06-15T08:33:59.292Z,english_724.wav,0,0,201,27,4,chinese,male,1,0.1,-86.21406354,1.3755847
CW,23,0,2024-06-15T08:33:59.292Z,english_724.wav,0,0,201,27,4,chinese,male,2,0.2,60.18994207,0.59510503
CW,23,0,2024-06-15T08:33:59.292Z,english_724.wav,0,0,201,27,4,chinese,male,3,0.3,-73.18576328,0.94085573
CW,23,0,2024-06-15T08:33:59.292Z,english_724.wav,0,0,201,27,4,chinese,male,4,0.4,9.02898682,1.58537713
CW,23,0,2024-06-15T08:33:59.292Z,english_724.wav,0,0,201,27,4,chinese,male,5,0.5,0.09152752,0.37644638
CW,23,0,2024-06-15T08:33:59.292Z,english_724.wav,0,0,201,27,4,chinese,male,6,0.6,-45.20734969,0.99166811
CW,23,0,2024-06-15T08:33:59.292Z,english_724.wav,0,0,201,27,4,chinese,male,7,0.7,41.14572905,0.69217337
CW,23,0,2024-06-15T08:33:59.292Z,english_724.wav,0,0,201,27,4,chinese,male,8,0.8,-8.90641818,0.6776497
CW,23,0,2024-06-15T08:33:59.292Z,english_724.wav,0,0,201,27,4,chinese,male,9,0.9,16.12067161,0.10142147
CW,23,0,2024-06-15T08:33:59.292Z,english_724.wav,0,0,201,27,4,chinese,male,10,1,72.53679682,1.80502318
CW,23,0,2024-06-15T08:33:59.292Z,english_724.wav,0,0,201,27,4,chinese,male,11,1.09391667,17.69672556,1.15790189
CW,24,0,2024-06-15T08:33:59.292Z,english_391.wav,0,1,397,27,4,chinese,male,0,0,48.72029915,1.46381994
CW,24,0,2024-06-15T08:33:59.292Z,english_391.wav,0,1,397,27,4,chinese,male,1,0.1,3.36267099,1.74177862
CW,24,0,2024-06-15T08:33:59.292Z,english_391.wav,0,1,397,27,4,chinese,male,2,0.2,-54.73892797,0.37153285
CW,24,0,2024-06-15T08:33:59.292Z,english_391.wav,0,1,397,27,4,chinese,male,3,0.3,-4.43599027,1.37930547
CW,24,0,2024-06-15T08:33:59.292Z,english_391.wav,0,1,397,27,4,chinese,male,4,0.4,-4.38697431,1.2025528
CW,24,0,2024-06-15T08:33:59.292Z,english_391.wav,0,1,397,27,4,chinese,male,5,0.5,12.32416895,1.41669348
CW,24,0,2024-06-15T08:33:59.292Z,english_391.wav,0,1,397,27,4,chinese,male,6,0.6,-35.16299901,1.90409923
CW,24,0,2024-06-15T08:33:59.292Z,english_391.wav,0,1,397,27,4,chinese,male,7,0.7,-18.71198536,0.35955458
CW,24,0,2024-06-15T08:33:59.292Z,english_391.wav,0,1,397,27,4,chinese,male,8,0.8,50.45333825,0.73524
CW,24,0,2024-06-15T08:33:59.292Z,english_391.wav,0,1,397,27,4,chinese,male,9,0.9,24.10808682,1.22465208
CW,24,0,2024-06-15T08:33:59.292Z,english_391.wav,0,1,397,27,4,chinese,male,10,1,-10.46564493,1.61244098
CW,24,0,2024-06-15T08:33:59.292Z,english_391.wav,0,1,397,27,4,chinese,male,11,1.09391667,6.45782967,1.66867903
CW,25,0,2024-06-15T08:33:59.292Z,english_993.wav,0,0,437,27,4,chinese,male,0,0,-8.65746923,1.97743958
CW,25,0,2024-06-15T08:33:59.292Z,english_993.wav,0,0,437,27,4,chinese,male,1,0.1,-27.87522694,0.36006803
CW,25,0,2024-06-15T08:33:59.292Z,english_993.wav,0,0,437,27,4,chinese,male,2,0.2,41.79329436,0.06856355
CW,25,0,2024-06-15T08:33:59.292Z,english_993.wav,0,0,437,27,4,chinese,male,3,0.3,-23.16935708,0.38955927
CW,25,0,2024-06-15T08:33:59.292Z,english_993.wav,0,0,437,27,4,chinese,male,4,0.4,18.8592239,1.25297016
CW,25,0,2024-06-15T08:33:59.292Z,english_993.wav,0,0,437,27,4,chinese,male,5,0.5,40.29392848,0.33975417
CW,25,0,2024-06-15T08:33:59.292Z,english_993.wav,0,0,437,27,4,chinese,male,6,0.6,77.6038757,1.12200744
CW,25,0,2024-06-15T08:33:59.292Z,english_993.wav,0,0,437,27,4,chinese,male,7,0.7,33.5103026,1.75189261
CW,25,0,2024-06-15T08:33:59.292Z,english_993.wav,0,0,437,27,4,chinese,male,8,0.8,71.9206852,0.43539509
CW,25,0,2024-06-15T08:33:59.292Z,english_993.wav,0,0,437,27,4,chinese,male,9,0.9,-28.91081602,1.78200425
CW,25,0,2024-06-15T08:33:59.292Z,english_993.wav,0,0,437,27,4,chinese,male,10,1,-66.92854856,0.58801976
CW,25,0,2024-06-15T08:33:59.292Z,english_993.wav,0,0,437,27,4,chinese,male,11,1.09391667,-70.4693707,0.997712
CW,26,0,2024-06-15T08:33:59.292Z,english_59.wav,0,1,124,27,4,chinese,male,0,0,13.6818357,1.39102809
CW,26,0,2024-06-15T08:33:59.292Z,english_59.wav,0,1,124,27,4,chinese,male,1,0.1,-62.28772111,1.7641323
CW,26,0,2024-06-15T08:33:59.292Z,english_59.wav,0,1,124,27,4,chinese,male,2,0.2,49.12418905,1.93370096
CW,26,0,2024-06-15T08:33:59.292Z,english_59.wav,0,1,124,27,4,chinese,male,3,0.3,-11.37021527,1.41546104
CW,26,0,2024-06-15T08:33:59.292Z,english_59.wav,0,1,124,27,4,chinese,male,4,0.4,-54.18333873,1.8712645
CW,26,0,2024-06-15T08:33:59.292Z,english_59.wav,0,1,124,27,4,chinese,male,5,0.5,89.00177849,1.58142361
CW,26,0,2024-06-15T08:33:59.292Z,english_59.wav,0,1,124,27,4,chinese,male,6,0.6,-39.13145847,1.31038649
CW,26,0,2024-06-15T08:33:59.292Z,english_59.wav,0,1,124,27,4,chinese,male,7,0.7,-8.40184911,1.79881342
CW,26,0,2024-06-15T08:33:59.292Z,english_59.wav,0,1,124,27,4,chinese,male,8,0.8,-34.91016987,0.00761053
CW,26,0,2024-06-15T08:33:59.292Z,english_59.wav,0,1,124,27,4,chinese,male,9,0.9,92.47037208,0.77279167
CW,26,0,2024-06-15T08:33:59.292Z,english_59.wav,0,1,124,27,4,chinese,male,10,1,91.56160698,0.86326769
CW,26,0,2024-06-15T08:33:59.292Z,english_59.wav,0,1,124,27,4,chinese,male,11,1.09391667,-64.52293265,1.19458968
CW,27,0,2024-06-15T08:33:59.292Z,english_128.wav,0,0,1324,27,4,chinese,male,0,0,-22.61942611,1.66721471
CW,27,0,2024-06-15T08:33:59.292Z,english_128.wav,0,0,1324,27,4,chinese,male,1,0.1,68.41227715,1.06525369
CW,27,0,2024-06-15T08:33:59.292Z,english_128.wav,0,0,1324,27,4,chinese,male,2,0.2,-54.10958419,1.55278382
CW,27,0,2024-06-15T08:33:59.292Z,english_128.wav,0,0,1324,27,4,chinese,male,3,0.3,-34.3976761,1.27447121
CW,27,0,2024-06-15T08:33:59.292Z,english_128.wav,0,0,1324,27,4,chinese,male,4,0.4,-80.35189368,1.24533025
CW,27,0,2024-06-15T08:33:59.292Z,english_128.wav,0,0,1324,27,4,chinese,male,5,0.5,-23.21922247,0.40128709
CW,27,0,2024-06-15T08:33:59.292Z,english_128.wav,0,0,1324,27,4,chinese,male,6,0.6,75.93285278,1.08908342
CW,27,0,2024-06-15T08:33:59.292Z,english_128.wav,0,0,1324,27,4,chinese,male,7,0.7,-25.01230628,1.52248699
CW,27,0,2024-06-15T08:33:59.292Z,english_128.wav,0,0,1324,27,4,chinese,male,8,0.8,23.78207095,1.64911831
CW,27,0,2024-06-15T08:33:59.292Z,english_128.wav,0,0,1324,27,4,chinese,male,9,0.9,-74.87827882,0.03473392
CW,27,0,2024-06-15T08:33:59.292Z,english_128.wav,0,0,1324,27,4,chinese,male,10,1,74.39346852,1.99892406
CW,27,0,2024-06-15T08:33:59.292Z,english_128.wav,0,0,1324,27,4,chinese,male,11,1.09391667,30.71976897,1.56565298
CW,28,0,2024-06-15T08:33:59.292Z,english_824.wav,0,1,965,27,4,chinese,male,0,0,68.17789045,1.17767563
CW,28,0,2024-06-15T08:33:59.292Z,english_824.wav,0,1,965,27,4,chinese,male,1,0.1,-15.68019175,1.73120974
CW,28,0,2024-06-15T08:33:59.292Z,english_824.wav,0,1,965,27,4,chinese,male,2,0.2,-58.3734313,0.68280186
CW,28,0,2024-06-15T08:33:59.292Z,english_824.wav,0,1,965,27,4,chinese,male,3,0.3,17.37254381,0.04169824
CW,28,0,2024-06-15T08:33:59.292Z,english_824.wav,0,1,965,27,4,chinese,male,4,0.4,-42.12881826,1.33393477
CW,28,0,2024-06-15T08:33:59.292Z,english_824.wav,0,1,965,27,4,chinese,male,5,0.5,-81.23473424,0.50746231
CW,28,0,2024-06-15T08:33:59.292Z,english_824.wav,0,1,965,27,4,chinese,male,6,0.6,58.88344317,1.51646587
CW,28,0,2024-06-15T08:33:59.292Z,english_824.wav,0,1,965,27,4,chinese,male,7,0.7,35.29280148,1.66141374
CW,28,0,2024-06-15T08:33:59.292Z,english_824.wav,0,1,965,27,4,chinese,male,8,0.8,90.96995236,0.44412198
CW,28,0,2024-06-15T08:33:59.292Z,english_824.wav,0,1,965,27,4,chinese,male,9,0.9,60.0788655,1.20735386
CW,28,0,2024-06-15T08:33:59.292Z,english_824.wav,0,1,965,27,4,chinese,male,10,1,-44.66291858,0.95955144
CW,28,0,2024-06-15T08:33:59.292Z,english_824.wav,0,1,965,27,4,chinese,male,11,1.09391667,-39.15723424,1.16419205
CW,29,0,2024-06-15T08:33:59.292Z,english_675.wav,0,1,1234,27,4,chinese,male,0,0,-55.70103266,0.31166963
CW,29,0,2024-06-15T08:33:59.292Z,english_675.wav,0,1,1234,27,4,chinese,male,1,0.1,-28.01284425,0.86348118
CW,29,0,2024-06-15T08:33:59.292Z,english_675.wav,0,1,1234,27,4,chinese,male,2,0.2,7.20629908,0.70830416
CW,29,0,2024-06-15T08:33:59.292Z,english_675.wav,0,1,1234,27,4,chinese,male,3,0.3,-88.65707162,1.06551889
CW,29,0,2024-06-15T08:33:59.292Z,english_675.wav,0,1,1234,27,4,chinese,male,4,0.4,-27.84357002,1.20889774
CW,29,0,2024-06-15T08:33:59.292Z,english_675.wav,0,1,1234,27,4,chinese,male,5,0.5,-20.24546059,1.96243663
CW,29,0,2024-06-15T08:33:59.292Z,english_675.wav,0,1,1234,27,4,chinese,male,6,0.6,20.54719109,0.99424305
CW,29,0,2024-06-15T08:33:59.292Z,english_675.wav,0,1,1234,27,4,chinese,male,7,0.7,-91.70059837,1.67190932
CW,29,0,2024-06-15T08:33:59.292Z,english_675.wav,0,1,1234,27,4,chinese,male,8,0.8,-73.21008585,0.91833311
CW,29,0,2024-06-15T08:33:59.292Z,english_675.wav,0,1,1234,27,4,chinese,male,9,0.9,41.37635308,1.02826617
CW,29,0,2024-06-15T08:33:59.292Z,english_675.wav,0,1,1234,27,4,chinese,male,10,1,8.96435743,1.43882248
CW,29,0,2024-06-15T08:33:59.292Z,english_675.wav,0,1,1234,27,4,chinese,male,11,1.09391667,-83.64569899,1.75988721
CW,30,0,2024-06-15T08:33:59.292Z,english_708.wav,0,0,6499,27,4,chinese,male,0,0,51.90512372,0.68267885
CW,30,0,2024-06-15T08:33:59.292Z,english_708.wav,0,0,6499,27,4,chinese,male,1,0.1,26.85875961,1.28009677
CW,30,0,2024-06-15T08:33:59.292Z,english_708.wav,0,0,6499,27,4,chinese,male,2,0.2,69.50769052,0.67214969
CW,30,0,2024-06-15T08:33:59.292Z,english_708.wav,0,0,6499,27,4,chinese,male,3,0.3,2.73798265,1.87173266
CW,30,0,2024-06-15T08:33:59.292Z,english_708.wav,0,0,6499,27,4,chinese,male,4,0.4,19.91752894,1.28139012
CW,30,0,2024-06-15T08:33:59.292Z,english_708.wav,0,0,6499,27,4,chinese,male,5,0.5,84.74462974,1.50975007
CW,30,0,2024-06-15T08:33:59.292Z,english_708.wav,0,0,6499,27,4,chinese,male,6,0.6,48.1433783,0.29459019
CW,30,0,2024-06-15T08:33:59.292Z,english_708.wav,0,0,6499,27,4,chinese,male,7,0.7,62.38973842,0.69646694
CW,30,0,2024-06-15T08:33:59.292Z,english_708.wav,0,0,6499,27,4,chinese,male,8,0.8,-28.25964696,0.8036912
CW,30,0,2024-06-15T08:33:59.292Z,english_708.wav,0,0,6499,27,4,chinese,male,9,0.9,1.39285788,0.28906304
CW,30,0,2024-06-15T08:33:59.292Z,english_708.wav,0,0,6499,27,4,chinese,male,10,1,-27.01293378,1.49505706
CW,30,0,2024-06-15T08:33:59.292Z,english_708.wav,0,0,6499,27,4,chinese,male,11,1.09391667,-26.97031791,1.88331259
CW,31,0,2024-06-15T08:33:59.292Z,english_798.wav,0,1,357,27,4,chinese,male,0,0,-67.02841194,0.33593724
CW,31,0,2024-06-15T08:33:59.292Z,english_798.wav,0,1,357,27,4,chinese,male,1,0.1,-61.53416047,1.45592665
CW,31,0,2024-06-15T08:33:59.292Z,english_798.wav,0,1,357,27,4,chinese,male,2,0.2,58.59657868,0.89843982
CW,31,0,2024-06-15T08:33:59.292Z,english_798.wav,0,1,357,27,4,chinese,male,3,0.3,29.19204806,0.82315135
CW,31,0,2024-06-15T08:33:59.292Z,english_798.wav,0,1,357,27,4,chinese,male,4,0.4,23.45650743,1.88697526
CW,31,0,2024-06-15T08:33:59.292Z,english_798.wav,0,1,357,27,4,chinese,male,5,0.5,68.99571545,0.96876146
CW,31,0,2024-06-15T08:33:59.292Z,english_798.wav,0,1,357,27,4,chinese,male,6,0.6,-55.06633408,0.51998357
CW,31,0,2024-06-15T08:33:59.292Z,english_798.wav,0,1,357,27,4,chinese,male,7,0.7,-84.88813755,0.83848957
CW,31,0,2024-06-15T08:33:59.292Z,english_798.wav,0,1,357,27,4,chinese,male,8,0.8,-86.25019985,0.75519813
CW,31,0,2024-06-15T08:33:59.292Z,english_798.wav,0,1,357,27,4,chinese,male,9,0.9,32.09324542,0.08799146
CW,31,0,2024-06-15T08:33:59.292Z,english_798.wav,0,1,357,27,4,chinese,male,10,1,-18.86097807,1.1327065
CW,31,0,2024-06-15T08:33:59.292Z,english_798.wav,0,1,357,27,4,chinese,male,11,1.09391667,-0.34975855,0.30601278
CW,32,0,2024-06-15T08:33:59.292Z,english_680.wav,0,0,562,27,4,chinese,male,0,0,34.87100104,0.28324866
CW,32,0,2024-06-15T08:33:59.292Z,english_680.wav,0,0,562,27,4,chinese,male,1,0.1,-42.78152033,0.8126674
CW,32,0,2024-06-15T08:33:59.292Z,english_680.wav,0,0,562,27,4,chinese,male,2,0.2,53.30670494,0.29371905
CW,32,0,2024-06-15T08:33:59.292Z,english_680.wav,0,0,562,27,4,chinese,male,3,0.3,-19.15351041,0.35755618
CW,32,0,2024-06-15T08:33:59.292Z,english_680.wav,0,0,562,27,4,chinese,male,4,0.4,81.43981803,1.51227527
CW,32,0,2024-06-15T08:33:59.292Z,english_680.wav,0,0,562,27,4,chinese,male,5,0.5,-40.3529223,1.96868376
CW,32,0,2024-06-15T08:33:59.292Z,english_680.wav,0,0,562,27,4,chinese,male,6,0.6,-80.08540334,0.83617015
CW,32,0,2024-06-15T08:33:59.292Z,english_680.wav,0,0,562,27,4,chinese,male,7,0.7,-59.88446673,0.96819403
CW,32,0,2024-06-15T08:33:59.292Z,english_680.wav,0,0,562,27,4,chinese,male,8,0.8,14.21531263,0.41039135
CW,32,0,2024-06-15T08:33:59.292Z,english_680.wav,0,0,562,27,4,chinese,male,9,0.9,39.26105915,0.45984498
CW,32,0,2024-06-15T08:33:59.292Z,english_680.wav,0,0,562,27,4,chinese,male,10,1,-43.76684188,0.60924907
CW,32,0,2024-06-15T08:33:59.292Z,english_680.wav,0,0,562,27,4,chinese,male,11,1.09391667,-17.50761484,0.18151502
CW,33,0,2024-06-15T08:33:59.292Z,english_515.wav,0,1,723,27,4,chinese,male,0,0,-58.23176372,1.22843541
CW,33,0,2024-06-15T08:33:59.292Z,english_515.wav,0,1,723,27,4,chinese,male,1,0.1,-76.45173976,1.63015901
CW,33,0,2024-06-15T08:33:59.292Z,english_515.wav,0,1,723,27,4,chinese,male,2,0.2,25.49902523,1.20813881
CW,33,0,2024-06-15T08:33:59.292Z,english_515.wav,0,1,723,27,4,chinese,male,3,0.3,5.27103545,0.47612476
CW,33,0,2024-06-15T08:33:59.292Z,english_515.wav,0,1,723,27,4,chinese,male,4,0.4,-41.64983344,0.26545174
CW,33,0,2024-06-15T08:33:59.292Z,english_515.wav,0,1,723,27,4,chinese,male,5,0.5,-51.29888172,1.8557412
CW,33,0,2024-06-15T08:33:59.292Z,english_515.wav,0,1,723,27,4,chinese,male,6,0.6,65.36966432,0.81547092
CW,33,0,2024-06-15T08:33:59.292Z,english_515.wav,0,1,723,27,4,chinese,male,7,0.7,-56.17839976,1.63185656
CW,33,0,2024-06-15T08:33:59.292Z,english_515.wav,0,1,723,27,4,chinese,male,8,0.8,-12.23547481,0.09263004
CW,33,0,2024-06-15T08:33:59.292Z,english_515.wav,0,1,723,27,4,chinese,male,9,0.9,-89.1418522,1.76127396
CW,33,0,2024-06-15T08:33:59.292Z,english_515.wav,0,1,723,27,4,chinese,male,10,1,8.96872742,0.57224671
CW,33,0,2024-06-15T08:33:59.292Z,english_515.wav,0,1,723,27,4,chinese,male,11,1.09391667,-18.30503433,1.26155121
CW,34,0,2024-06-15T08:33:59.292Z,english_507.wav,0,0,807,27,4,chinese,male,0,0,-12.02429693,0.63959218
CW,34,0,2024-06-15T08:33:59.292Z,english_507.wav,0,0,807,27,4,chinese,male,1,0.1,23.48023528,0.78683895
CW,34,0,2024-06-15T08:33:59.292Z,english_507.wav,0,0,807,27,4,chinese,male,2,0.2,75.86591316,1.2814873
CW,34,0,2024-06-15T08:33:59.292Z,english_507.wav,0,0,807,27,4,chinese,male,3,0.3,-83.47756384,0.67977555
CW,34,0,2024-06-15T08:33:59.292Z,english_507.wav,0,0,807,27,4,chinese,male,4,0.4,81.92852434,0.92992814
CW,34,0,2024-06-15T08:33:59.292Z,english_507.wav,0,0,807,27,4,chinese,male,5,0.5,87.67744716,1.13175549
CW,34,0,2024-06-15T08:33:59.292Z,english_507.wav,0,0,807,27,4,chinese,male,6,0.6,-16.33781488,0.10459473
CW,34,0,2024-06-15T08:33:59.292Z,english_507.wav,0,0,807,27,4,chinese,male,7,0.7,-17.50205237,1.89307031
CW,34,0,2024-06-15T08:33:59.292Z,english_507.wav,0,0,807,27,4,chinese,male,8,0.8,45.24056119,1.08894135
CW,34,0,2024-06-15T08:33:59.292Z,english_507.wav,0,0,807,27,4,chinese,male,9,0.9,-41.17324019,1.66565612
CW,34,0,2024-06-15T08:33:59.292Z,english_507.wav,0,0,807,27,4,chinese,male,10,1,-35.51150679,1.23960277
CW,34,0,2024-06-15T08:33:59.292Z,english_507.wav,0,0,807,27,4,chinese,male,11,1.09391667,-42.23976402,0.80282923
CW,35,0,2024-06-15T08:33:59.292Z,english_764.wav,0,1,944,27,4,chinese,male,0,0,-83.00734362,1.43154352
CW,35,0,2024-06-15T08:33:59.292Z,english_764.wav,0,1,944,27,4,chinese,male,1,0.1,84.10171544,1.56325347
CW,35,0,2024-06-15T08:33:59.292Z,english_764.wav,0,1,944,27,4,chinese,male,2,0.2,49.2008901,1.26543708
CW,35,0,2024-06-15T08:33:59.292Z,english_764.wav,0,1,944,27,4,chinese,male,3,0.3,-10.6841825,0.423798415
CW,35,0,2024-06-15T08:33:59.292Z,english_764.wav,0,1,944,27,4,chinese,male,4,0.4,-4.51825693,1.27376863
CW,35,0,2024-06-15T08:33:59.292Z,english_764.wav,0,1,944,27,4,chinese,male,5,0.5,13.05855171,0.758380694
CW,35,0,2024-06-15T08:33:59.292Z,english_764.wav,0,1,944,27,4,chinese,male,6,0.6,-89.35484482,0.001003512
CW,35,0,2024-06-15T08:33:59.292Z,english_764.wav,0,1,944,27,4,chinese,male,7,0.7,31.98534685,0.899071383
CW,35,0,2024-06-15T08:33:59.292Z,english_764.wav,0,1,944,27,4,chinese,male,8,0.8,-75.69390241,1.10287579
CW,35,0,2024-06-15T08:33:59.292Z,english_764.wav,0,1,944,27,4,chinese,male,9,0.9,27.20832849,1.25133293
CW,35,0,2024-06-15T08:33:59.292Z,english_764.wav,0,1,944,27,4,chinese,male,10,1,56.31930051,1.83305733
CW,35,0,2024-06-15T08:33:59.292Z,english_764.wav,0,1,944,27,4,chinese,male,11,1.09391667,-35.91935055,1.51505239
CW,36,0,2024-06-15T08:33:59.292Z,english_92.wav,0,1,735,27,4,chinese,male,0,0,11.31108637,1.92205207
CW,36,0,2024-06-15T08:33:59.292Z,english_92.wav,0,1,735,27,4,chinese,male,1,0.1,68.41269988,0.65302474
CW,36,0,2024-06-15T08:33:59.292Z,english_92.wav,0,1,735,27,4,chinese,male,2,0.2,-5.85446567,1.94520229
CW,36,0,2024-06-15T08:33:59.292Z,english_92.wav,0,1,735,27,4,chinese,male,3,0.3,-56.17314857,1.28044043
CW,36,0,2024-06-15T08:33:59.292Z,english_92.wav,0,1,735,27,4,chinese,male,4,0.4,-61.8847044,0.6978833
CW,36,0,2024-06-15T08:33:59.292Z,english_92.wav,0,1,735,27,4,chinese,male,5,0.5,11.37598658,1.39245958
CW,36,0,2024-06-15T08:33:59.292Z,english_92.wav,0,1,735,27,4,chinese,male,6,0.6,19.4709674,1.41686082
CW,36,0,2024-06-15T08:33:59.292Z,english_92.wav,0,1,735,27,4,chinese,male,7,0.7,-11.82404326,0.26269969
CW,36,0,2024-06-15T08:33:59.292Z,english_92.wav,0,1,735,27,4,chinese,male,8,0.8,-12.10341162,0.56613425
CW,36,0,2024-06-15T08:33:59.292Z,english_92.wav,0,1,735,27,4,chinese,male,9,0.9,2.74595363,0.73944091
CW,36,0,2024-06-15T08:33:59.292Z,english_92.wav,0,1,735,27,4,chinese,male,10,1,41.36202449,1.55048139
CW,36,0,2024-06-15T08:33:59.292Z,english_92.wav,0,1,735,27,4,chinese,male,11,1.09391667,-69.11430068,1.16346143
CW,37,0,2024-06-15T08:33:59.292Z,english_218.wav,0,0,299,27,4,chinese,male,0,0,-28.20463256,0.06975638
CW,37,0,2024-06-15T08:33:59.292Z,english_218.wav,0,0,299,27,4,chinese,male,1,0.1,-75.86656262,1.24902799
CW,37,0,2024-06-15T08:33:59.292Z,english_218.wav,0,0,299,27,4,chinese,male,2,0.2,78.51568347,0.38757705
CW,37,0,2024-06-15T08:33:59.292Z,english_218.wav,0,0,299,27,4,chinese,male,3,0.3,-67.19866651,1.18680549
CW,37,0,2024-06-15T08:33:59.292Z,english_218.wav,0,0,299,27,4,chinese,male,4,0.4,-11.47483433,1.20454768
CW,37,0,2024-06-15T08:33:59.292Z,english_218.wav,0,0,299,27,4,chinese,male,5,0.5,-96.34493339,0.70131962
CW,37,0,2024-06-15T08:33:59.292Z,english_218.wav,0,0,299,27,4,chinese,male,6,0.6,71.58709959,0.25791663
CW,37,0,2024-06-15T08:33:59.292Z,english_218.wav,0,0,299,27,4,chinese,male,7,0.7,-9.8928997,0.10961417
CW,37,0,2024-06-15T08:33:59.292Z,english_218.wav,0,0,299,27,4,chinese,male,8,0.8,-1.71040265,1.17923692
CW,37,0,2024-06-15T08:33:59.292Z,english_218.wav,0,0,299,27,4,chinese,male,9,0.9,46.05003014,0.25195767
CW,37,0,2024-06-15T08:33:59.292Z,english_218.wav,0,0,299,27,4,chinese,male,10,1,-54.51031069,1.75432787
CW,37,0,2024-06-15T08:33:59.292Z,english_218.wav,0,0,299,27,4,chinese,male,11,1.09391667,-36.41626056,1.27588471
CW,38,0,2024-06-15T08:33:59.292Z,english_476.wav,0,1,153,27,4,chinese,male,0,0,44.69659717,1.41297837
CW,38,0,2024-06-15T08:33:59.292Z,english_476.wav,0,1,153,27,4,chinese,male,1,0.1,-34.716814,1.05145195
CW,38,0,2024-06-15T08:33:59.292Z,english_476.wav,0,1,153,27,4,chinese,male,2,0.2,-37.83043351,0.94681533
CW,38,0,2024-06-15T08:33:59.292Z,english_476.wav,0,1,153,27,4,chinese,male,3,0.3,-62.93772859,1.38886049
CW,38,0,2024-06-15T08:33:59.292Z,english_476.wav,0,1,153,27,4,chinese,male,4,0.4,29.80105548,0.50983073
CW,38,0,2024-06-15T08:33:59.292Z,english_476.wav,0,1,153,27,4,chinese,male,5,0.5,-19.93397346,0.87963627
CW,38,0,2024-06-15T08:33:59.292Z,english_476.wav,0,1,153,27,4,chinese,male,6,0.6,-81.51838574,0.37083783
CW,38,0,2024-06-15T08:33:59.292Z,english_476.wav,0,1,153,27,4,chinese,male,7,0.7,-13.12417842,1.60201274
CW,38,0,2024-06-15T08:33:59.292Z,english_476.wav,0,1,153,27,4,chinese,male,8,0.8,-49.11622946,0.02246419
CW,38,0,2024-06-15T08:33:59.292Z,english_476.wav,0,1,153,27,4,chinese,male,9,0.9,-40.62215118,1.35146298
CW,38,0,2024-06-15T08:33:59.292Z,english_476.wav,0,1,153,27,4,chinese,male,10,1,-29.85989769,1.39707139
CW,38,0,2024-06-15T08:33:59.292Z,english_476.wav,0,1,153,27,4,chinese,male,11,1.09391667,-46.8973955,0.19828042
CW,39,0,2024-06-15T08:33:59.292Z,english_639.wav,0,0,218,27,4,chinese,male,0,0,5.56347498,1.83509432
CW,39,0,2024-06-15T08:33:59.292Z,english_639.wav,0,0,218,27,4,chinese,male,1,0.1,75.73661073,0.44211572
CW,39,0,2024-06-15T08:33:59.292Z,english_639.wav,0,0,218,27,4,chinese,male,2,0.2,-90.85300276,1.03578017
CW,39,0,2024-06-15T08:33:59.292Z,english_639.wav,0,0,218,27,4,chinese,male,3,0.3,-28.02471483,0.46973677
CW,39,0,2024-06-15T08:33:59.292Z,english_639.wav,0,0,218,27,4,chinese,male,4,0.4,-62.26468724,0.54820752
CW,39,0,2024-06-15T08:33:59.292Z,english_639.wav,0,0,218,27,4,chinese,male,5,0.5,17.80250947,0.51964922
CW,39,0,2024-06-15T08:33:59.292Z,english_639.wav,0,0,218,27,4,chinese,male,6,0.6,29.29879682,0.06117772
CW,39,0,2024-06-15T08:33:59.292Z,english_639.wav,0,0,218,27,4,chinese,male,7,0.7,-6.14897809,0.67480304
CW,39,0,2024-06-15T08:33:59.292Z,english_639.wav,0,0,218,27,4,chinese,male,8,0.8,-11.9254819,0.85869346
CW,39,0,2024-06-15T08:33:59.292Z,english_639.wav,0,0,218,27,4,chinese,male,9,0.9,6.20327944,1.90136883
CW,39,0,2024-06-15T08:33:59.292Z,english_639.wav,0,0,218,27,4,chinese,male,10,1,-44.51875699,1.31276151
CW,39,0,2024-06-15T08:33:59.292Z,english_639.wav,0,0,218,27,4,chinese,male,11,1.09391667,52.00361599,1.93524577
CW,40,0,2024-06-15T08:33:59.292Z,english_233.wav,0,1,24,27,4,chinese,male,0,0,-12.45233214,1.31283544
CW,40,0,2024-06-15T08:33:59.292Z,english_233.wav,0,1,24,27,4,chinese,male,1,0.1,-33.20786902,0.09471032
CW,40,0,2024-06-15T08:33:59.292Z,english_233.wav,0,1,24,27,4,chinese,male,2,0.2,-3.84628349,1.88233627
CW,40,0,2024-06-15T08:33:59.292Z,english_233.wav,0,1,24,27,4,chinese,male,3,0.3,52.58812425,1.21028248
CW,40,0,2024-06-15T08:33:59.292Z,english_233.wav,0,1,24,27,4,chinese,male,4,0.4,-82.78729146,0.9101705
CW,40,0,2024-06-15T08:33:59.292Z,english_233.wav,0,1,24,27,4,chinese,male,5,0.5,-90.93928836,1.74264946
CW,40,0,2024-06-15T08:33:59.292Z,english_233.wav,0,1,24,27,4,chinese,male,6,0.6,91.49342166,1.34024886
CW,40,0,2024-06-15T08:33:59.292Z,english_233.wav,0,1,24,27,4,chinese,male,7,0.7,39.27925393,0.33883292
CW,40,0,2024-06-15T08:33:59.292Z,english_233.wav,0,1,24,27,4,chinese,male,8,0.8,-0.66571259,1.35075989
CW,40,0,2024-06-15T08:33:59.292Z,english_233.wav,0,1,24,27,4,chinese,male,9,0.9,50.1456693,1.4470152
CW,40,0,2024-06-15T08:33:59.292Z,english_233.wav,0,1,24,27,4,chinese,male,10,1,-6.64277825,1.15231478
CW,40,0,2024-06-15T08:33:59.292Z,english_233.wav,0,1,24,27,4,chinese,male,11,1.09391667,8.91074874,1.87164883
CW,41,0,2024-06-15T08:33:59.292Z,english_45.wav,0,1,2739,27,4,chinese,male,0,0,-55.14721801,0.29299266
CW,41,0,2024-06-15T08:33:59.292Z,english_45.wav,0,1,2739,27,4,chinese,male,1,0.1,57.09452307,0.9247964
CW,41,0,2024-06-15T08:33:59.292Z,english_45.wav,0,1,2739,27,4,chinese,male,2,0.2,-1.62499195,1.0494158
CW,41,0,2024-06-15T08:33:59.292Z,english_45.wav,0,1,2739,27,4,chinese,male,3,0.3,-13.00347301,1.81345336
CW,41,0,2024-06-15T08:33:59.292Z,english_45.wav,0,1,2739,27,4,chinese,male,4,0.4,13.64765964,1.7292362
CW,41,0,2024-06-15T08:33:59.292Z,english_45.wav,0,1,2739,27,4,chinese,male,5,0.5,-16.23645369,0.3059786
CW,41,0,2024-06-15T08:33:59.292Z,english_45.wav,0,1,2739,27,4,chinese,male,6,0.6,12.80202188,1.60566624
CW,41,0,2024-06-15T08:33:59.292Z,english_45.wav,0,1,2739,27,4,chinese,male,7,0.7,18.490615,1.60640041
CW,41,0,2024-06-15T08:33:59.292Z,english_45.wav,0,1,2739,27,4,chinese,male,8,0.8,-32.73911513,0.6923723
CW,41,0,2024-06-15T08:33:59.292Z,english_45.wav,0,1,2739,27,4,chinese,male,9,0.9,72.91810524,1.31031073
CW,41,0,2024-06-15T08:33:59.292Z,english_45.wav,0,1,2739,27,4,chinese,male,10,1,-39.54069726,0.9624361
CW,41,0,2024-06-15T08:33:59.292Z,english_45.wav,0,1,2739,27,4,chinese,male,11,1.09391667,1.32954538,1.523717
CW,42,0,2024-06-15T08:33:59.292Z,english_242.wav,0,0,402,27,4,chinese,male,0,0,-30.80596233,1.80753385
CW,42,0,2024-06-15T08:33:59.292Z,english_242.wav,0,0,402,27,4,chinese,male,1,0.1,81.43519329,0.97833747
CW,42,0,2024-06-15T08:33:59.292Z,english_242.wav,0,0,402,27,4,chinese,male,2,0.2,0.15400576,1.3926845
CW,42,0,2024-06-15T08:33:59.292Z,english_242.wav,0,0,402,27,4,chinese,male,3,0.3,-28.81783402,1.42545381
CW,42,0,2024-06-15T08:33:59.292Z,english_242.wav,0,0,402,27,4,chinese,male,4,0.4,-61.37671682,0.1849233
CW,42,0,2024-06-15T08:33:59.292Z,english_242.wav,0,0,402,27,4,chinese,male,5,0.5,91.85520167,1.35548931
CW,42,0,2024-06-15T08:33:59.292Z,english_242.wav,0,0,402,27,4,chinese,male,6,0.6,-31.54320731,1.15661389
CW,42,0,2024-06-15T08:33:59.292Z,english_242.wav,0,0,402,27,4,chinese,male,7,0.7,-13.97670537,1.66148537
CW,42,0,2024-06-15T08:33:59.292Z,english_242.wav,0,0,402,27,4,chinese,male,8,0.8,70.42044267,1.4780344
CW,42,0,2024-06-15T08:33:59.292Z,english_242.wav,0,0,402,27,4,chinese,male,9,0.9,-90.04203145,1.37692841
CW,42,0,2024-06-15T08:33:59.292Z,english_242.wav,0,0,402,27,4,chinese,male,10,1,-39.83004077,0.38948234
CW,42,0,2024-06-15T08:33:59.292Z,english_242.wav,0,0,402,27,4,chinese,male,11,1.09391667,-14.25442636,1.25473686
CW,43,0,2024-06-15T08:33:59.292Z,english_731.wav,0,1,365,27,4,chinese,male,0,0,-7.36185514,1.393769
CW,43,0,2024-06-15T08:33:59.292Z,english_731.wav,0,1,365,27,4,chinese,male,1,0.1,90.53877185,0.98238467
CW,43,0,2024-06-15T08:33:59.292Z,english_731.wav,0,1,365,27,4,chinese,male,2,0.2,-41.94407757,1.23695651
CW,43,0,2024-06-15T08:33:59.292Z,english_731.wav,0,1,365,27,4,chinese,male,3,0.3,25.1521842,1.19631379
CW,43,0,2024-06-15T08:33:59.292Z,english_731.wav,0,1,365,27,4,chinese,male,4,0.4,68.57946125,0.88911396
CW,43,0,2024-06-15T08:33:59.292Z,english_731.wav,0,1,365,27,4,chinese,male,5,0.5,65.86891495,1.98349596
CW,43,0,2024-06-15T08:33:59.292Z,english_731.wav,0,1,365,27,4,chinese,male,6,0.6,-52.28114947,0.8296111
CW,43,0,2024-06-15T08:33:59.292Z,english_731.wav,0,1,365,27,4,chinese,male,7,0.7,15.16550818,0.44150217
CW,43,0,2024-06-15T08:33:59.292Z,english_731.wav,0,1,365,27,4,chinese,male,8,0.8,25.27999627,1.48173114
CW,43,0,2024-06-15T08:33:59.292Z,english_731.wav,0,1,365,27,4,chinese,male,9,0.9,11.70162838,1.09419359
CW,43,0,2024-06-15T08:33:59.292Z,english_731.wav,0,1,365,27,4,chinese,male,10,1,-94.01759602,0.20829797
CW,43,0,2024-06-15T08:33:59.292Z,english_731.wav,0,1,365,27,4,chinese,male,11,1.09391667,-3.24792735,1.32232845
CW,44,0,2024-06-15T08:33:59.292Z,english_187.wav,0,0,325,27,4,chinese,male,0,0,55.99370729,1.82256068
CW,44,0,2024-06-15T08:33:59.292Z,english_187.wav,0,0,325,27,4,chinese,male,1,0.1,-13.74585555,1.69505517
CW,44,0,2024-06-15T08:33:59.292Z,english_187.wav,0,0,325,27,4,chinese,male,2,0.2,-0.42640895,1.33791079
CW,44,0,2024-06-15T08:33:59.292Z,english_187.wav,0,0,325,27,4,chinese,male,3,0.3,-47.34493384,0.12415078
CW,44,0,2024-06-15T08:33:59.292Z,english_187.wav,0,0,325,27,4,chinese,male,4,0.4,1.27244399,1.40350832
CW,44,0,2024-06-15T08:33:59.292Z,english_187.wav,0,0,325,27,4,chinese,male,5,0.5,-51.74565009,1.6134035
CW,44,0,2024-06-15T08:33:59.292Z,english_187.wav,0,0,325,27,4,chinese,male,6,0.6,-77.25155481,1.12966524
CW,44,0,2024-06-15T08:33:59.292Z,english_187.wav,0,0,325,27,4,chinese,male,7,0.7,69.19112944,0.02740784
CW,44,0,2024-06-15T08:33:59.292Z,english_187.wav,0,0,325,27,4,chinese,male,8,0.8,-97.84143732,1.26777643
CW,44,0,2024-06-15T08:33:59.292Z,english_187.wav,0,0,325,27,4,chinese,male,9,0.9,5.06490506,1.52431862
CW,44,0,2024-06-15T08:33:59.292Z,english_187.wav,0,0,325,27,4,chinese,male,10,1,67.30450542,1.3588447
CW,44,0,2024-06-15T08:33:59.292Z,english_187.wav,0,0,325,27,4,chinese,male,11,1.09391667,44.03847764,1.80453633
CW,45,0,2024-06-15T08:33:59.292Z,english_711.wav,0,1,74,27,4,chinese,male,0,0,5.56697991,1.20296493
CW,45,0,2024-06-15T08:33:59.292Z,english_711.wav,0,1,74,27,4,chinese,male,1,0.1,-24.51973587,1.05892315
CW,45,0,2024-06-15T08:33:59.292Z,english_711.wav,0,1,74,27,4,chinese,male,2,0.2,14.74252879,0.52339911
CW,45,0,2024-06-15T08:33:59.292Z,english_711.wav,0,1,74,27,4,chinese,male,3,0.3,62.90835999,1.255633
CW,45,0,2024-06-15T08:33:59.292Z,english_711.wav,0,1,74,27,4,chinese,male,4,0.4,-30.148836,1.66876465
CW,45,0,2024-06-15T08:33:59.292Z,english_711.wav,0,1,74,27,4,chinese,male,5,0.5,-90.0367138,0.2337908
CW,45,0,2024-06-15T08:33:59.292Z,english_711.wav,0,1,74,27,4,chinese,male,6,0.6,23.29272454,0.4494252
CW,45,0,2024-06-15T08:33:59.292Z,english_711.wav,0,1,74,27,4,chinese,male,7,0.7,51.00007107,1.6594433
CW,45,0,2024-06-15T08:33:59.292Z,english_711.wav,0,1,74,27,4,chinese,male,8,0.8,-5.61877019,1.49925628
CW,45,0,2024-06-15T08:33:59.292Z,english_711.wav,0,1,74,27,4,chinese,male,9,0.9,4.00444287,1.73015634
CW,45,0,2024-06-15T08:33:59.292Z,english_711.wav,0,1,74,27,4,chinese,male,10,1,81.75034051,1.46308192
CW,45,0,2024-06-15T08:33:59.292Z,english_711.wav,0,1,74,27,4,chinese,male,11,1.09391667,-78.99678836,1.6603821
CW,46,0,2024-06-15T08:33:59.292Z,english_87.wav,0,0,215,27,4,chinese,male,0,0,-7.69614497,1.36395538
CW,46,0,2024-06-15T08:33:59.292Z,english_87.wav,0,0,215,27,4,chinese,male,1,0.1,-50.79583923,0.55370317
CW,46,0,2024-06-15T08:33:59.292Z,english_87.wav,0,0,215,27,4,chinese,male,2,0.2,-21.62085435,0.68433779
CW,46,0,2024-06-15T08:33:59.292Z,english_87.wav,0,0,215,27,4,chinese,male,3,0.3,23.33346841,1.42277988
CW,46,0,2024-06-15T08:33:59.292Z,english_87.wav,0,0,215,27,4,chinese,male,4,0.4,84.82731916,1.16991809
CW,46,0,2024-06-15T08:33:59.292Z,english_87.wav,0,0,215,27,4,chinese,male,5,0.5,74.54936251,0.13065421
CW,46,0,2024-06-15T08:33:59.292Z,english_87.wav,0,0,215,27,4,chinese,male,6,0.6,-86.24882643,1.74622352
CW,46,0,2024-06-15T08:33:59.292Z,english_87.wav,0,0,215,27,4,chinese,male,7,0.7,18.19590059,0.87122315
CW,46,0,2024-06-15T08:33:59.292Z,english_87.wav,0,0,215,27,4,chinese,male,8,0.8,86.70789686,1.52981879
CW,46,0,2024-06-15T08:33:59.292Z,english_87.wav,0,0,215,27,4,chinese,male,9,0.9,67.00424782,1.42292715
CW,46,0,2024-06-15T08:33:59.292Z,english_87.wav,0,0,215,27,4,chinese,male,10,1,91.10231962,0.07145037
CW,46,0,2024-06-15T08:33:59.292Z,english_87.wav,0,0,215,27,4,chinese,male,11,1.09391667,23.49318924,0.54757178
CW,47,0,2024-06-15T08:33:59.292Z,english_165.wav,0,1,522,27,4,chinese,male,0,0,-2.19989306,1.80366268
CW,47,0,2024-06-15T08:33:59.292Z,english_165.wav,0,1,522,27,4,chinese,male,1,0.1,-17.54385673,0.63199927
CW,47,0,2024-06-15T08:33:59.292Z,english_165.wav,0,1,522,27,4,chinese,male,2,0.2,-35.4480887,1.72021084
CW,47,0,2024-06-15T08:33:59.292Z,english_165.wav,0,1,522,27,4,chinese,male,3,0.3,38.42421814,1.85097281
CW,47,0,2024-06-15T08:33:59.292Z,english_165.wav,0,1,522,27,4,chinese,male,4,0.4,19.51422171,0.29605958
CW,47,0,2024-06-15T08:33:59.292Z,english_165.wav,0,1,522,27,4,chinese,male,5,0.5,-2.86344702,1.04155763
CW,47,0,2024-06-15T08:33:59.292Z,english_165.wav,0,1,522,27,4,chinese,male,6,0.6,24.21245357,0.33290829
CW,47,0,2024-06-15T08:33:59.292Z,english_165.wav,0,1,522,27,4,chinese,male,7,0.7,-20.07763652,0.77719776
CW,47,0,2024-06-15T08:33:59.292Z,english_165.wav,0,1,522,27,4,chinese,male,8,0.8,-4.69526924,1.6690738
CW,47,0,2024-06-15T08:33:59.292Z,english_165.wav,0,1,522,27,4,chinese,male,9,0.9,46.92767694,0.76251785
CW,47,0,2024-06-15T08:33:59.292Z,english_165.wav,0,1,522,27,4,chinese,male,10,1,-4.88253914,1.74728665
CW,47,0,2024-06-15T08:33:59.292Z,english_165.wav,0,1,522,27,4,chinese,male,11,1.09391667,23.85195976,0.67244999
CW,48,0,2024-06-15T08:33:59.292Z,english_248.wav,0,0,48,27,4,chinese,male,0,0,-77.65935665,1.91143756
CW,48,0,2024-06-15T08:33:59.292Z,english_248.wav,0,0,48,27,4,chinese,male,1,0.1,13.01307899,0.95656899
CW,48,0,2024-06-15T08:33:59.292Z,english_248.wav,0,0,48,27,4,chinese,male,2,0.2,-6.27197977,0.05318577
CW,48,0,2024-06-15T08:33:59.292Z,english_248.wav,0,0,48,27,4,chinese,male,3,0.3,99.77801709,1.67121165
CW,48,0,2024-06-15T08:33:59.292Z,english_248.wav,0,0,48,27,4,chinese,male,4,0.4,-3.73096601,0.67240869
CW,48,0,2024-06-15T08:33:59.292Z,english_248.wav,0,0,48,27,4,chinese,male,5,0.5,48.17717711,1.00234822
CW,48,0,2024-06-15T08:33:59.292Z,english_248.wav,0,0,48,27,4,chinese,male,6,0.6,-36.84313939,0.30376957
CW,48,0,2024-06-15T08:33:59.292Z,english_248.wav,0,0,48,27,4,chinese,male,7,0.7,-61.99766544,1.01064126
CW,48,0,2024-06-15T08:33:59.292Z,english_248.wav,0,0,48,27,4,chinese,male,8,0.8,-76.82864618,1.57737707
CW,48,0,2024-06-15T08:33:59.292Z,english_248.wav,0,0,48,27,4,chinese,male,9,0.9,-38.01252631,0.84763517
CW,48,0,2024-06-15T08:33:59.292Z,english_248.wav,0,0,48,27,4,chinese,male,10,1,85.29761704,1.67346182
CW,48,0,2024-06-15T08:33:59.292Z,english_248.wav,0,0,48,27,4,chinese,male,11,1.09391667,46.87388229,0.28083573
CW,49,0,2024-06-15T08:33:59.292Z,english_9.wav,0,1,365,27,4,chinese,male,0,0,-96.61203468,1.48407489
CW,49,0,2024-06-15T08:33:59.292Z,english_9.wav,0,1,365,27,4,chinese,male,1,0.1,27.77418146,0.71089129
CW,49,0,2024-06-15T08:33:59.292Z,english_9.wav,0,1,365,27,4,chinese,male,2,0.2,-42.79973111,1.02276586
CW,49,0,2024-06-15T08:33:59.292Z,english_9.wav,0,1,365,27,4,chinese,male,3,0.3,52.67007286,0.94605025
CW,49,0,2024-06-15T08:33:59.292Z,english_9.wav,0,1,365,27,4,chinese,male,4,0.4,-77.37689486,1.64255066
CW,49,0,2024-06-15T08:33:59.292Z,english_9.wav,0,1,365,27,4,chinese,male,5,0.5,22.33265825,1.1767353
CW,49,0,2024-06-15T08:33:59.292Z,english_9.wav,0,1,365,27,4,chinese,male,6,0.6,-21.53246611,1.24238606
CW,49,0,2024-06-15T08:33:59.292Z,english_9.wav,0,1,365,27,4,chinese,male,7,0.7,11.78226484,0.92864334
CW,49,0,2024-06-15T08:33:59.292Z,english_9.wav,0,1,365,27,4,chinese,male,8,0.8,-45.34236124,1.13602565
CW,49,0,2024-06-15T08:33:59.292Z,english_9.wav,0,1,365,27,4,chinese,male,9,0.9,55.83053399,1.46898539
CW,49,0,2024-06-15T08:33:59.292Z,english_9.wav,0,1,365,27,4,chinese,male,10,1,-0.17077069,1.30855548
CW,49,0,2024-06-15T08:33:59.292Z,english_9.wav,0,1,365,27,4,chinese,male,11,1.09391667,-99.58545301,1.24881599
CW,50,1,2024-06-15T08:33:59.292Z,english_908.wav,0,0,1572,27,4,chinese,male,0,0,79.90322555,1.59871196
CW,50,1,2024-06-15T08:33:59.292Z,english_908.wav,0,0,1572,27,4,chinese,male,1,0.1,-35.21263137,0.28479508
CW,50,1,2024-06-15T08:33:59.292Z,english_908.wav,0,0,1572,27,4,chinese,male,2,0.2,-45.3814443,1.09874794
CW,50,1,2024-06-15T08:33:59.292Z,english_908.wav,0,0,1572,27,4,chinese,male,3,0.3,27.76250809,0.00174433
CW,50,1,2024-06-15T08:33:59.292Z,english_908.wav,0,0,1572,27,4,chinese,male,4,0.4,88.9030614,0.67512833
CW,50,1,2024-06-15T08:33:59.292Z,english_908.wav,0,0,1572,27,4,chinese,male,5,0.5,-61.85553308,0.00194264
CW,50,1,2024-06-15T08:33:59.292Z,english_908.wav,0,0,1572,27,4,chinese,male,6,0.6,-81.1964681,0.8304753
CW,50,1,2024-06-15T08:33:59.292Z,english_908.wav,0,0,1572,27,4,chinese,male,7,0.7,5.34087676,1.28348369
CW,50,1,2024-06-15T08:33:59.292Z,english_908.wav,0,0,1572,27,4,chinese,male,8,0.8,54.78811936,0.55017108
CW,50,1,2024-06-15T08:33:59.292Z,english_908.wav,0,0,1572,27,4,chinese,male,9,0.9,-31.27071111,1.59638521
CW,50,1,2024-06-15T08:33:59.292Z,english_908.wav,0,0,1572,27,4,chinese,male,10,1,-53.95963771,1.63592826
CW,50,1,2024-06-15T08:33:59.292Z,english_908.wav,0,0,1572,27,4,chinese,male,11,1.09391667,80.48331988,1.14767612
CW,51,1,2024-06-15T08:33:59.292Z,english_226.wav,0,1,2466,27,4,chinese,male,0,0,98.43255035,0.1861089
CW,51,1,2024-06-15T08:33:59.292Z,english_226.wav,0,1,2466,27,4,chinese,male,1,0.1,23.16871923,1.79682409
CW,51,1,2024-06-15T08:33:59.292Z,english_226.wav,0,1,2466,27,4,chinese,male,2,0.2,-3.17590314,0.62264246
CW,51,1,2024-06-15T08:33:59.292Z,english_226.wav,0,1,2466,27,4,chinese,male,3,0.3,99.80077362,0.77697044
CW,51,1,2024-06-15T08:33:59.292Z,english_226.wav,0,1,2466,27,4,chinese,male,4,0.4,-24.84472991,0.40647993
CW,51,1,2024-06-15T08:33:59.292Z,english_226.wav,0,1,2466,27,4,chinese,male,5,0.5,-71.24957961,0.2976559
CW,51,1,2024-06-15T08:33:59.292Z,english_226.wav,0,1,2466,27,4,chinese,male,6,0.6,65.30269432,1.34176321
CW,51,1,2024-06-15T08:33:59.292Z,english_226.wav,0,1,2466,27,4,chinese,male,7,0.7,72.52720516,1.5087957
CW,51,1,2024-06-15T08:33:59.292Z,english_226.wav,0,1,2466,27,4,chinese,male,8,0.8,-90.19894531,1.69033096
CW,51,1,2024-06-15T08:33:59.292Z,english_226.wav,0,1,2466,27,4,chinese,male,9,0.9,11.74226894,0.35382167
CW,51,1,2024-06-15T08:33:59.292Z,english_226.wav,0,1,2466,27,4,chinese,male,10,1,-32.60755552,1.3177586
CW,51,1,2024-06-15T08:33:59.292Z,english_226.wav,0,1,2466,27,4,chinese,male,11,1.09391667,10.41380533,0.38575288
CW,52,1,2024-06-15T08:33:59.292Z,english_170.wav,0,0,3411,27,4,chinese,male,0,0,-16.05998387,1.41692406
CW,52,1,2024-06-15T08:33:59.292Z,english_170.wav,0,0,3411,27,4,chinese,male,1,0.1,-6.21136003,0.91307354
CW,52,1,2024-06-15T08:33:59.292Z,english_170.wav,0,0,3411,27,4,chinese,male,2,0.2,15.42568052,0.23372117
CW,52,1,2024-06-15T08:33:59.292Z,english_170.wav,0,0,3411,27,4,chinese,male,3,0.3,-56.10367399,1.97756992
CW,52,1,2024-06-15T08:33:59.292Z,english_170.wav,0,0,3411,27,4,chinese,male,4,0.4,33.39228695,1.31491234
CW,52,1,2024-06-15T08:33:59.292Z,english_170.wav,0,0,3411,27,4,chinese,male,5,0.5,34.4075698,1.31849018
CW,52,1,2024-06-15T08:33:59.292Z,english_170.wav,0,0,3411,27,4,chinese,male,6,0.6,-77.75225733,0.47935442
CW,52,1,2024-06-15T08:33:59.292Z,english_170.wav,0,0,3411,27,4,chinese,male,7,0.7,-35.86968862,1.36758715
CW,52,1,2024-06-15T08:33:59.292Z,english_170.wav,0,0,3411,27,4,chinese,male,8,0.8,-61.24335468,0.01597757
CW,52,1,2024-06-15T08:33:59.292Z,english_170.wav,0,0,3411,27,4,chinese,male,9,0.9,-7.24177995,0.93040558
CW,52,1,2024-06-15T08:33:59.292Z,english_170.wav,0,0,3411,27,4,chinese,male,10,1,-1.64660066,1.42845797
CW,52,1,2024-06-15T08:33:59.292Z,english_170.wav,0,0,3411,27,4,chinese,male,11,1.09391667,30.95625256,0.18013663
CW,53,1,2024-06-15T08:33:59.292Z,english_513.wav,0,1,1105,27,4,chinese,male,0,0,69.69423026,1.14751405
CW,53,1,2024-06-15T08:33:59.292Z,english_513.wav,0,1,1105,27,4,chinese,male,1,0.1,-61.65221054,0.70036193
CW,53,1,2024-06-15T08:33:59.292Z,english_513.wav,0,1,1105,27,4,chinese,male,2,0.2,12.06620713,1.7124885
CW,53,1,2024-06-15T08:33:59.292Z,english_513.wav,0,1,1105,27,4,chinese,male,3,0.3,68.31024972,0.98016869
CW,53,1,2024-06-15T08:33:59.292Z,english_513.wav,0,1,1105,27,4,chinese,male,4,0.4,74.12641094,0.11366006
CW,53,1,2024-06-15T08:33:59.292Z,english_513.wav,0,1,1105,27,4,chinese,male,5,0.5,6.77833978,0.43979592
CW,53,1,2024-06-15T08:33:59.292Z,english_513.wav,0,1,1105,27,4,chinese,male,6,0.6,-4.07072349,1.91776754
CW,53,1,2024-06-15T08:33:59.292Z,english_513.wav,0,1,1105,27,4,chinese,male,7,0.7,-75.18978196,0.49107068
CW,53,1,2024-06-15T08:33:59.292Z,english_513.wav,0,1,1105,27,4,chinese,male,8,0.8,-25.44315508,0.92055325
CW,53,1,2024-06-15T08:33:59.292Z,english_513.wav,0,1,1105,27,4,chinese,male,9,0.9,1.64473536,0.8410121
CW,53,1,2024-06-15T08:33:59.292Z,english_513.wav,0,1,1105,27,4,chinese,male,10,1,-82.34234751,0.34671239
CW,53,1,2024-06-15T08:33:59.292Z,english_513.wav,0,1,1105,27,4,chinese,male,11,1.09391667,-17.87879592,1.52659427
CW,54,1,2024-06-15T08:33:59.292Z,english_996.wav,0,0,1368,27,4,chinese,male,0,0,-68.49547406,1.15101027
CW,54,1,2024-06-15T08:33:59.292Z,english_996.wav,0,0,1368,27,4,chinese,male,1,0.1,-2.33531362,1.76891933
CW,54,1,2024-06-15T08:33:59.292Z,english_996.wav,0,0,1368,27,4,chinese,male,2,0.2,59.75126116,1.50263503
CW,54,1,2024-06-15T08:33:59.292Z,english_996.wav,0,0,1368,27,4,chinese,male,3,0.3,91.41529036,0.3014492
CW,54,1,2024-06-15T08:33:59.292Z,english_996.wav,0,0,1368,27,4,chinese,male,4,0.4,-12.51622254,1.52458018
CW,54,1,2024-06-15T08:33:59.292Z,english_996.wav,0,0,1368,27,4,chinese,male,5,0.5,5.44058313,1.68949091
CW,54,1,2024-06-15T08:33:59.292Z,english_996.wav,0,0,1368,27,4,chinese,male,6,0.6,-53.42325035,1.14777942
CW,54,1,2024-06-15T08:33:59.292Z,english_996.wav,0,0,1368,27,4,chinese,male,7,0.7,9.17325138,1.71935076
CW,54,1,2024-06-15T08:33:59.292Z,english_996.wav,0,0,1368,27,4,chinese,male,8,0.8,53.92705363,1.57982041
CW,54,1,2024-06-15T08:33:59.292Z,english_996.wav,0,0,1368,27,4,chinese,male,9,0.9,-51.59047854,0.73704806
CW,54,1,2024-06-15T08:33:59.292Z,english_996.wav,0,0,1368,27,4,chinese,male,10,1,-72.60614794,0.5335164
CW,54,1,2024-06-15T08:33:59.292Z,english_996.wav,0,0,1368,27,4,chinese,male,11,1.09391667,82.93009071,0.99688365
CW,55,1,2024-06-15T08:33:59.292Z,english_132.wav,0,1,2930,27,4,chinese,male,0,0,0.80878803,1.8484575
CW,55,1,2024-06-15T08:33:59.292Z,english_132.wav,0,1,2930,27,4,chinese,male,1,0.1,-89.46369243,0.19659267
CW,55,1,2024-06-15T08:33:59.292Z,english_132.wav,0,1,2930,27,4,chinese,male,2,0.2,-42.02740452,0.98704764
CW,55,1,2024-06-15T08:33:59.292Z,english_132.wav,0,1,2930,27,4,chinese,male,3,0.3,-31.54071999,0.90975168
CW,55,1,2024-06-15T08:33:59.292Z,english_132.wav,0,1,2930,27,4,chinese,male,4,0.4,0.25010778,1.48690857
CW,55,1,2024-06-15T08:33:59.292Z,english_132.wav,0,1,2930,27,4,chinese,male,5,0.5,58.11815913,1.16973021
CW,55,1,2024-06-15T08:33:59.292Z,english_132.wav,0,1,2930,27,4,chinese,male,6,0.6,81.96461668,0.00206468
CW,55,1,2024-06-15T08:33:59.292Z,english_132.wav,0,1,2930,27,4,chinese,male,7,0.7,-44.50191201,0.61136538
CW,55,1,2024-06-15T08:33:59.292Z,english_132.wav,0,1,2930,27,4,chinese,male,8,0.8,-95.34081409,0.53595083
CW,55,1,2024-06-15T08:33:59.292Z,english_132.wav,0,1,2930,27,4,chinese,male,9,0.9,-97.06518429,0.1294964
CW,55,1,2024-06-15T08:33:59.292Z,english_132.wav,0,1,2930,27,4,chinese,male,10,1,9.04827132,0.71465456
CW,55,1,2024-06-15T08:33:59.292Z,english_132.wav,0,1,2930,27,4,chinese,male,11,1.09391667,76.3058936,0.51987053
CW,56,1,2024-06-15T08:33:59.292Z,english_800.wav,0,0,938,27,4,chinese,male,0,0,35.31456444,1.69516606
CW,56,1,2024-06-15T08:33:59.292Z,english_800.wav,0,0,938,27,4,chinese,male,1,0.1,32.41521545,0.23308544
CW,56,1,2024-06-15T08:33:59.292Z,english_800.wav,0,0,938,27,4,chinese,male,2,0.2,-54.21409297,0.95659058
CW,56,1,2024-06-15T08:33:59.292Z,english_800.wav,0,0,938,27,4,chinese,male,3,0.3,-42.78782363,1.51885901
CW,56,1,2024-06-15T08:33:59.292Z,english_800.wav,0,0,938,27,4,chinese,male,4,0.4,54.56880631,1.37866605
CW,56,1,2024-06-15T08:33:59.292Z,english_800.wav,0,0,938,27,4,chinese,male,5,0.5,-47.76201321,0.13843314
CW,56,1,2024-06-15T08:33:59.292Z,english_800.wav,0,0,938,27,4,chinese,male,6,0.6,21.101395,0.69869138
CW,56,1,2024-06-15T08:33:59.292Z,english_800.wav,0,0,938,27,4,chinese,male,7,0.7,-85.00905452,1.55469424
CW,56,1,2024-06-15T08:33:59.292Z,english_800.wav,0,0,938,27,4,chinese,male,8,0.8,89.73188045,1.19022687
CW,56,1,2024-06-15T08:33:59.292Z,english_800.wav,0,0,938,27,4,chinese,male,9,0.9,58.36158131,1.40913395
CW,56,1,2024-06-15T08:33:59.292Z,english_800.wav,0,0,938,27,4,chinese,male,10,1,82.86297317,1.54823015
CW,56,1,2024-06-15T08:33:59.292Z,english_800.wav,0,0,938,27,4,chinese,male,11,1.09391667,50.19485525,1.45235784
CW,57,1,2024-06-15T08:33:59.292Z,english_451.wav,0,1,1530,27,4,chinese,male,0,0,-86.97928696,0.12091055
CW,57,1,2024-06-15T08:33:59.292Z,english_451.wav,0,1,1530,27,4,chinese,male,1,0.1,35.46303065,0.11109609
CW,57,1,2024-06-15T08:33:59.292Z,english_451.wav,0,1,1530,27,4,chinese,male,2,0.2,-6.55574904,0.96762463
CW,57,1,2024-06-15T08:33:59.292Z,english_451.wav,0,1,1530,27,4,chinese,male,3,0.3,-70.24481901,0.33361345
CW,57,1,2024-06-15T08:33:59.292Z,english_451.wav,0,1,1530,27,4,chinese,male,4,0.4,-15.3143791,1.63079661
CW,57,1,2024-06-15T08:33:59.292Z,english_451.wav,0,1,1530,27,4,chinese,male,5,0.5,-46.78683141,1.71822711
CW,57,1,2024-06-15T08:33:59.292Z,english_451.wav,0,1,1530,27,4,chinese,male,6,0.6,30.57428638,1.99896141
CW,57,1,2024-06-15T08:33:59.292Z,english_451.wav,0,1,1530,27,4,chinese,male,7,0.7,-51.27590564,1.31564503
CW,57,1,2024-06-15T08:33:59.292Z,english_451.wav,0,1,1530,27,4,chinese,male,8,0.8,-57.45214614,0.39748904
CW,57,1,2024-06-15T08:33:59.292Z,english_451.wav,0,1,1530,27,4,chinese,male,9,0.9,43.47837492,0.70409186
CW,57,1,2024-06-15T08:33:59.292Z,english_451.wav,0,1,1530,27,4,chinese,male,10,1,45.12702561,0.48590378
CW,57,1,2024-06-15T08:33:59.292Z,english_451.wav,0,1,1530,27,4,chinese,male,11,1.09391667,-26.34948453,1.98999714
CW,58,1,2024-06-15T08:33:59.292Z,english_892.wav,0,1,984,27,4,chinese,male,0,0,-38.86767844,1.06552273
CW,58,1,2024-06-15T08:33:59.292Z,english_892.wav,0,1,984,27,4,chinese,male,1,0.1,29.31331075,1.21891825
CW,58,1,2024-06-15T08:33:59.292Z,english_892.wav,0,1,984,27,4,chinese,male,2,0.2,37.64120423,0.29574975
CW,58,1,2024-06-15T08:33:59.292Z,english_892.wav,0,1,984,27,4,chinese,male,3,0.3,25.96997634,0.59708479
CW,58,1,2024-06-15T08:33:59.292Z,english_892.wav,0,1,984,27,4,chinese,male,4,0.4,25.06772021,1.90102073
CW,58,1,2024-06-15T08:33:59.292Z,english_892.wav,0,1,984,27,4,chinese,male,5,0.5,19.15395825,0.08656429
CW,58,1,2024-06-15T08:33:59.292Z,english_892.wav,0,1,984,27,4,chinese,male,6,0.6,96.7473058,1.91022134
CW,58,1,2024-06-15T08:33:59.292Z,english_892.wav,0,1,984,27,4,chinese,male,7,0.7,-43.25342834,0.18523015
CW,58,1,2024-06-15T08:33:59.292Z,english_892.wav,0,1,984,27,4,chinese,male,8,0.8,-30.92807771,0.17424813
CW,58,1,2024-06-15T08:33:59.292Z,english_892.wav,0,1,984,27,4,chinese,male,9,0.9,-18.81814059,1.10584125
CW,58,1,2024-06-15T08:33:59.292Z,english_892.wav,0,1,984,27,4,chinese,male,10,1,21.2135068,1.16786025
CW,58,1,2024-06-15T08:33:59.292Z,english_892.wav,0,1,984,27,4,chinese,male,11,1.09391667,36.95597597,1.53062308
CW,59,1,2024-06-15T08:33:59.292Z,english_792.wav,0,0,361,27,4,chinese,male,0,0,-53.21610879,1.55385175
CW,59,1,2024-06-15T08:33:59.292Z,english_792.wav,0,0,361,27,4,chinese,male,1,0.1,32.15976894,0.65373426
CW,59,1,2024-06-15T08:33:59.292Z,english_792.wav,0,0,361,27,4,chinese,male,2,0.2,11.67164647,0.07623644
CW,59,1,2024-06-15T08:33:59.292Z,english_792.wav,0,0,361,27,4,chinese,male,3,0.3,78.41102069,0.81063335
CW,59,1,2024-06-15T08:33:59.292Z,english_792.wav,0,0,361,27,4,chinese,male,4,0.4,57.86075133,1.61919716
CW,59,1,2024-06-15T08:33:59.292Z,english_792.wav,0,0,361,27,4,chinese,male,5,0.5,26.57758322,1.49931194
CW,59,1,2024-06-15T08:33:59.292Z,english_792.wav,0,0,361,27,4,chinese,male,6,0.6,-19.90648144,0.76960145
CW,59,1,2024-06-15T08:33:59.292Z,english_792.wav,0,0,361,27,4,chinese,male,7,0.7,-5.80202054,0.41164506
CW,59,1,2024-06-15T08:33:59.292Z,english_792.wav,0,0,361,27,4,chinese,male,8,0.8,-79.72401374,1.42613076
CW,59,1,2024-06-15T08:33:59.292Z,english_792.wav,0,0,361,27,4,chinese,male,9,0.9,-39.61261559,0.70792196
CW,59,1,2024-06-15T08:33:59.292Z,english_792.wav,0,0,361,27,4,chinese,male,10,1,87.31929903,1.13611226
CW,59,1,2024-06-15T08:33:59.292Z,english_792.wav,0,0,361,27,4,chinese,male,11,1.09391667,10.49178802,0.18326108
CW,60,1,2024-06-15T08:33:59.292Z,english_250.wav,0,1,851,27,4,chinese,male,0,0,-2.1507045,1.65815165
CW,60,1,2024-06-15T08:33:59.292Z,english_250.wav,0,1,851,27,4,chinese,male,1,0.1,-59.20535761,0.73684424
CW,60,1,2024-06-15T08:33:59.292Z,english_250.wav,0,1,851,27,4,chinese,male,2,0.2,33.81892305,0.78053485
CW,60,1,2024-06-15T08:33:59.292Z,english_250.wav,0,1,851,27,4,chinese,male,3,0.3,43.78107199,1.26996131
CW,60,1,2024-06-15T08:33:59.292Z,english_250.wav,0,1,851,27,4,chinese,male,4,0.4,-58.56253377,1.90489744
CW,60,1,2024-06-15T08:33:59.292Z,english_250.wav,0,1,851,27,4,chinese,male,5,0.5,-73.24110126,0.31125788
CW,60,1,2024-06-15T08:33:59.292Z,english_250.wav,0,1,851,27,4,chinese,male,6,0.6,77.97062328,0.73718841
CW,60,1,2024-06-15T08:33:59.292Z,english_250.wav,0,1,851,27,4,chinese,male,7,0.7,-37.56549364,0.04729413
CW,60,1,2024-06-15T08:33:59.292Z,english_250.wav,0,1,851,27,4,chinese,male,8,0.8,57.43189813,1.70152056
CW,60,1,2024-06-15T08:33:59.292Z,english_250.wav,0,1,851,27,4,chinese,male,9,0.9,46.17345888,0.07204925
CW,60,1,2024-06-15T08:33:59.292Z,english_250.wav,0,1,851,27,4,chinese,male,10,1,59.28871843,1.91615732
CW,60,1,2024-06-15T08:33:59.292Z,english_250.wav,0,1,851,27,4,chinese,male,11,1.09391667,54.90140723,1.08139277
CW,61,1,2024-06-15T08:33:59.292Z,english_114.wav,0,0,354,27,4,chinese,male,0,0,-38.33361484,0.25479749
CW,61,1,2024-06-15T08:33:59.292Z,english_114.wav,0,0,354,27,4,chinese,male,1,0.1,-12.76602364,1.23857364
CW,61,1,2024-06-15T08:33:59.292Z,english_114.wav,0,0,354,27,4,chinese,male,2,0.2,0.32729235,0.44881648
CW,61,1,2024-06-15T08:33:59.292Z,english_114.wav,0,0,354,27,4,chinese,male,3,0.3,-29.2958396,1.47628631
CW,61,1,2024-06-15T08:33:59.292Z,english_114.wav,0,0,354,27,4,chinese,male,4,0.4,-44.05321795,1.29960212
CW,61,1,2024-06-15T08:33:59.292Z,english_114.wav,0,0,354,27,4,chinese,male,5,0.5,77.26891482,0.86625142
CW,61,1,2024-06-15T08:33:59.292Z,english_114.wav,0,0,354,27,4,chinese,male,6,0.6,-80.80990528,1.18678323
CW,61,1,2024-06-15T08:33:59.292Z,english_114.wav,0,0,354,27,4,chinese,male,7,0.7,-78.02585179,0.40341658
CW,61,1,2024-06-15T08:33:59.292Z,english_114.wav,0,0,354,27,4,chinese,male,8,0.8,14.37560873,0.69236485
CW,61,1,2024-06-15T08:33:59.292Z,english_114.wav,0,0,354,27,4,chinese,male,9,0.9,-41.68954869,0.99173078
CW,61,1,2024-06-15T08:33:59.292Z,english_114.wav,0,0,354,27,4,chinese,male,10,1,-51.42719285,0.71091923
CW,61,1,2024-06-15T08:33:59.292Z,english_114.wav,0,0,354,27,4,chinese,male,11,1.09391667,29.02505558,1.73837671
CW,62,1,2024-06-15T08:33:59.292Z,english_353.wav,0,0,1992,27,4,chinese,male,0,0,-70.67724429,1.06843483
CW,62,1,2024-06-15T08:33:59.292Z,english_353.wav,0,0,1992,27,4,chinese,male,1,0.1,-71.688049,0.77169117
CW,62,1,2024-06-15T08:33:59.292Z,english_353.wav,0,0,1992,27,4,chinese,male,2,0.2,35.51924952,1.46248358
CW,62,1,2024-06-15T08:33:59.292Z,english_353.wav,0,0,1992,27,4,chinese,male,3,0.3,-2.11218413,1.49078151
CW,62,1,2024-06-15T08:33:59.292Z,english_353.wav,0,0,1992,27,4,chinese,male,4,0.4,-16.43862389,1.12150818
CW,62,1,2024-06-15T08:33:59.292Z,english_353.wav,0,0,1992,27,4,chinese,male,5,0.5,42.52341858,1.51009479
CW,62,1,2024-06-15T08:33:59.292Z,english_353.wav,0,0,1992,27,4,chinese,male,6,0.6,-45.01562353,1.56291015
CW,62,1,2024-06-15T08:33:59.292Z,english_353.wav,0,0,1992,27,4,chinese,male,7,0.7,41.4367476,1.91892948
CW,62,1,2024-06-15T08:33:59.292Z,english_353.wav,0,0,1992,27,4,chinese,male,8,0.8,-7.80846777,1.01197455
CW,62,1,2024-06-15T08:33:59.292Z,english_353.wav,0,0,1992,27,4,chinese,male,9,0.9,42.15448352,1.4134273
CW,62,1,2024-06-15T08:33:59.292Z,english_353.wav,0,0,1992,27,4,chinese,male,10,1,92.0591742,1.42236133
CW,62,1,2024-06-15T08:33:59.292Z,english_353.wav,0,0,1992,27,4,chinese,male,11,1.09391667,-12.12221809,0.78816947
CW,63,1,2024-06-15T08:33:59.292Z,english_660.wav,0,1,1330,27,4,chinese,male,0,0,-6.98483794,0.74998418
CW,63,1,2024-06-15T08:33:59.292Z,english_660.wav,0,1,1330,27,4,chinese,male,1,0.1,-19.91361353,1.44180771
CW,63,1,2024-06-15T08:33:59.292Z,english_660.wav,0,1,1330,27,4,chinese,male,2,0.2,78.11411012,1.86148363
CW,63,1,2024-06-15T08:33:59.292Z,english_660.wav,0,1,1330,27,4,chinese,male,3,0.3,31.9686312,0.29878934
CW,63,1,2024-06-15T08:33:59.292Z,english_660.wav,0,1,1330,27,4,chinese,male,4,0.4,59.3000475,0.70934132
CW,63,1,2024-06-15T08:33:59.292Z,english_660.wav,0,1,1330,27,4,chinese,male,5,0.5,-70.43888588,1.90119169
CW,63,1,2024-06-15T08:33:59.292Z,english_660.wav,0,1,1330,27,4,chinese,male,6,0.6,-20.07366552,0.76680768
CW,63,1,2024-06-15T08:33:59.292Z,english_660.wav,0,1,1330,27,4,chinese,male,7,0.7,-55.63699673,0.42211173
CW,63,1,2024-06-15T08:33:59.292Z,english_660.wav,0,1,1330,27,4,chinese,male,8,0.8,-98.18697012,0.44483448
CW,63,1,2024-06-15T08:33:59.292Z,english_660.wav,0,1,1330,27,4,chinese,male,9,0.9,13.89215317,1.66618929
CW,63,1,2024-06-15T08:33:59.292Z,english_660.wav,0,1,1330,27,4,chinese,male,10,1,-7.40212614,0.443528
CW,63,1,2024-06-15T08:33:59.292Z,english_660.wav,0,1,1330,27,4,chinese,male,11,1.09391667,28.56237553,1.27514236
CW,64,1,2024-06-15T08:33:59.292Z,english_30.wav,0,1,1906,27,4,chinese,male,0,0,7.20305011,0.62248381
CW,64,1,2024-06-15T08:33:59.292Z,english_30.wav,0,1,1906,27,4,chinese,male,1,0.1,40.54252217,1.3534175
CW,64,1,2024-06-15T08:33:59.292Z,english_30.wav,0,1,1906,27,4,chinese,male,2,0.2,-27.16756142,1.93672018
CW,64,1,2024-06-15T08:33:59.292Z,english_30.wav,0,1,1906,27,4,chinese,male,3,0.3,-47.4542684,1.80613869
CW,64,1,2024-06-15T08:33:59.292Z,english_30.wav,0,1,1906,27,4,chinese,male,4,0.4,16.89492576,1.17778721
CW,64,1,2024-06-15T08:33:59.292Z,english_30.wav,0,1,1906,27,4,chinese,male,5,0.5,-3.45231142,1.26050698
CW,64,1,2024-06-15T08:33:59.292Z,english_30.wav,0,1,1906,27,4,chinese,male,6,0.6,-55.37795964,0.40567716
CW,64,1,2024-06-15T08:33:59.292Z,english_30.wav,0,1,1906,27,4,chinese,male,7,0.7,94.81526788,1.85712714
CW,64,1,2024-06-15T08:33:59.292Z,english_30.wav,0,1,1906,27,4,chinese,male,8,0.8,4.42136383,0.11089582
CW,64,1,2024-06-15T08:33:59.292Z,english_30.wav,0,1,1906,27,4,chinese,male,9,0.9,-28.73125868,1.52275562
CW,64,1,2024-06-15T08:33:59.292Z,english_30.wav,0,1,1906,27,4,chinese,male,10,1,-43.27093622,0.4081166
CW,64,1,2024-06-15T08:33:59.292Z,english_30.wav,0,1,1906,27,4,chinese,male,11,1.09391667,0.63608962,1.00698649
CW,65,1,2024-06-15T08:33:59.292Z,english_321.wav,0,0,357,27,4,chinese,male,0,0,-77.41334575,1.30726178
CW,65,1,2024-06-15T08:33:59.292Z,english_321.wav,0,0,357,27,4,chinese,male,1,0.1,-61.98635838,0.09021545
CW,65,1,2024-06-15T08:33:59.292Z,english_321.wav,0,0,357,27,4,chinese,male,2,0.2,63.85195092,1.50183321
CW,65,1,2024-06-15T08:33:59.292Z,english_321.wav,0,0,357,27,4,chinese,male,3,0.3,29.6904451,0.65065228
CW,65,1,2024-06-15T08:33:59.292Z,english_321.wav,0,0,357,27,4,chinese,male,4,0.4,-43.5045078,1.45081069
CW,65,1,2024-06-15T08:33:59.292Z,english_321.wav,0,0,357,27,4,chinese,male,5,0.5,62.57170592,1.7661601
CW,65,1,2024-06-15T08:33:59.292Z,english_321.wav,0,0,357,27,4,chinese,male,6,0.6,28.41559033,0.98052074
CW,65,1,2024-06-15T08:33:59.292Z,english_321.wav,0,0,357,27,4,chinese,male,7,0.7,57.20206106,1.50508218
CW,65,1,2024-06-15T08:33:59.292Z,english_321.wav,0,0,357,27,4,chinese,male,8,0.8,21.76754783,1.92892589
CW,65,1,2024-06-15T08:33:59.292Z,english_321.wav,0,0,357,27,4,chinese,male,9,0.9,-93.37290208,0.5132303
CW,65,1,2024-06-15T08:33:59.292Z,english_321.wav,0,0,357,27,4,chinese,male,10,1,-66.78585721,1.33865757
CW,65,1,2024-06-15T08:33:59.292Z,english_321.wav,0,0,357,27,4,chinese,male,11,1.09391667,79.62121497,0.23870746
CW,66,1,2024-06-15T08:33:59.292Z,english_64.wav,0,0,48,27,4,chinese,male,0,0,35.19701481,0.1517014
CW,66,1,2024-06-15T08:33:59.292Z,english_64.wav,0,0,48,27,4,chinese,male,1,0.1,75.83495736,1.3624391
CW,66,1,2024-06-15T08:33:59.292Z,english_64.wav,0,0,48,27,4,chinese,male,2,0.2,-57.84604767,0.35043993
CW,66,1,2024-06-15T08:33:59.292Z,english_64.wav,0,0,48,27,4,chinese,male,3,0.3,18.18328311,1.06032252
CW,66,1,2024-06-15T08:33:59.292Z,english_64.wav,0,0,48,27,4,chinese,male,4,0.4,2.5532884,1.51833669
CW,66,1,2024-06-15T08:33:59.292Z,english_64.wav,0,0,48,27,4,chinese,male,5,0.5,24.93011402,0.65789286
CW,66,1,2024-06-15T08:33:59.292Z,english_64.wav,0,0,48,27,4,chinese,male,6,0.6,-51.99875854,1.38401799
CW,66,1,2024-06-15T08:33:59.292Z,english_64.wav,0,0,48,27,4,chinese,male,7,0.7,52.45873465,1.62873445
CW,66,1,2024-06-15T08:33:59.292Z,english_64.wav,0,0,48,27,4,chinese,male,8,0.8,42.38876358,0.48968984
CW,66,1,2024-06-15T08:33:59.292Z,english_64.wav,0,0,48,27,4,chinese,male,9,0.9,54.33691238,0.64777192
CW,66,1,2024-06-15T08:33:59.292Z,english_64.wav,0,0,48,27,4,chinese,male,10,1,27.02485659,0.8399807
CW,66,1,2024-06-15T08:33:59.292Z,english_64.wav,0,0,48,27,4,chinese,male,11,1.09391667,58.99390703,0.25985176
CW,67,1,2024-06-15T08:33:59.292Z,english_926.wav,0,1,9928,27,4,chinese,male,0,0,53.49151787,0.226364497
CW,67,1,2024-06-15T08:33:59.292Z,english_926.wav,0,1,9928,27,4,chinese,male,1,0.1,10.58129761,0.000721176289
CW,67,1,2024-06-15T08:33:59.292Z,english_926.wav,0,1,9928,27,4,chinese,male,2,0.2,10.53773661,0.875811779
CW,67,1,2024-06-15T08:33:59.292Z,english_926.wav,0,1,9928,27,4,chinese,male,3,0.3,41.27195991,1.25055456
CW,67,1,2024-06-15T08:33:59.292Z,english_926.wav,0,1,9928,27,4,chinese,male,4,0.4,-17.37234578,0.546896354
CW,67,1,2024-06-15T08:33:59.292Z,english_926.wav,0,1,9928,27,4,chinese,male,5,0.5,66.8871695,1.08222942
CW,67,1,2024-06-15T08:33:59.292Z,english_926.wav,0,1,9928,27,4,chinese,male,6,0.6,69.01436048,0.838599058
CW,67,1,2024-06-15T08:33:59.292Z,english_926.wav,0,1,9928,27,4,chinese,male,7,0.7,89.40824761,0.626338416
CW,67,1,2024-06-15T08:33:59.292Z,english_926.wav,0,1,9928,27,4,chinese,male,8,0.8,-98.42632437,1.27601453
CW,67,1,2024-06-15T08:33:59.292Z,english_926.wav,0,1,9928,27,4,chinese,male,9,0.9,27.58055205,1.32538862
CW,67,1,2024-06-15T08:33:59.292Z,english_926.wav,0,1,9928,27,4,chinese,male,10,1,-11.99004947,1.73191108
CW,67,1,2024-06-15T08:33:59.292Z,english_926.wav,0,1,9928,27,4,chinese,male,11,1.09391667,15.35572308,0.629016927
CW,68,1,2024-06-15T08:33:59.292Z,english_19.wav,0,0,972,27,4,chinese,male,0,0,34.83932387,0.39991481
CW,68,1,2024-06-15T08:33:59.292Z,english_19.wav,0,0,972,27,4,chinese,male,1,0.1,-48.03564672,0.42708011
CW,68,1,2024-06-15T08:33:59.292Z,english_19.wav,0,0,972,27,4,chinese,male,2,0.2,-39.79994301,1.66102439
CW,68,1,2024-06-15T08:33:59.292Z,english_19.wav,0,0,972,27,4,chinese,male,3,0.3,55.51204031,0.51091135
CW,68,1,2024-06-15T08:33:59.292Z,english_19.wav,0,0,972,27,4,chinese,male,4,0.4,-31.38608709,1.29385953
CW,68,1,2024-06-15T08:33:59.292Z,english_19.wav,0,0,972,27,4,chinese,male,5,0.5,14.87165635,0.69347698
CW,68,1,2024-06-15T08:33:59.292Z,english_19.wav,0,0,972,27,4,chinese,male,6,0.6,17.74253656,0.8818624
CW,68,1,2024-06-15T08:33:59.292Z,english_19.wav,0,0,972,27,4,chinese,male,7,0.7,73.83891975,1.31039877
CW,68,1,2024-06-15T08:33:59.292Z,english_19.wav,0,0,972,27,4,chinese,male,8,0.8,17.68085004,0.1856431
CW,68,1,2024-06-15T08:33:59.292Z,english_19.wav,0,0,972,27,4,chinese,male,9,0.9,-24.1862435,0.16878638
CW,68,1,2024-06-15T08:33:59.292Z,english_19.wav,0,0,972,27,4,chinese,male,10,1,-54.03404818,0.18582405
CW,68,1,2024-06-15T08:33:59.292Z,english_19.wav,0,0,972,27,4,chinese,male,11,1.09391667,28.67386017,0.29170194
CW,69,1,2024-06-15T08:33:59.292Z,english_525.wav,0,1,227,27,4,chinese,male,0,0,-85.30144906,1.21891661
CW,69,1,2024-06-15T08:33:59.292Z,english_525.wav,0,1,227,27,4,chinese,male,1,0.1,40.69478692,0.63566771
CW,69,1,2024-06-15T08:33:59.292Z,english_525.wav,0,1,227,27,4,chinese,male,2,0.2,27.58167259,1.09185932
CW,69,1,2024-06-15T08:33:59.292Z,english_525.wav,0,1,227,27,4,chinese,male,3,0.3,-9.65414258,1.3630453
CW,69,1,2024-06-15T08:33:59.292Z,english_525.wav,0,1,227,27,4,chinese,male,4,0.4,-92.26214691,0.47547332
CW,69,1,2024-06-15T08:33:59.292Z,english_525.wav,0,1,227,27,4,chinese,male,5,0.5,1.87368715,0.98334241
CW,69,1,2024-06-15T08:33:59.292Z,english_525.wav,0,1,227,27,4,chinese,male,6,0.6,84.67723439,1.24273573
CW,69,1,2024-06-15T08:33:59.292Z,english_525.wav,0,1,227,27,4,chinese,male,7,0.7,-37.99334031,1.29787156
CW,69,1,2024-06-15T08:33:59.292Z,english_525.wav,0,1,227,27,4,chinese,male,8,0.8,91.90351479,1.39013402
CW,69,1,2024-06-15T08:33:59.292Z,english_525.wav,0,1,227,27,4,chinese,male,9,0.9,51.5107545,0.19016555
CW,69,1,2024-06-15T08:33:59.292Z,english_525.wav,0,1,227,27,4,chinese,male,10,1,-23.16743883,0.57102757
CW,69,1,2024-06-15T08:33:59.292Z,english_525.wav,0,1,227,27,4,chinese,male,11,1.09391667,-40.96893152,0.41777753
CW,70,1,2024-06-15T08:33:59.292Z,english_748.wav,0,1,1225,27,4,chinese,male,0,0,-33.83596368,1.91287282
CW,70,1,2024-06-15T08:33:59.292Z,english_748.wav,0,1,1225,27,4,chinese,male,1,0.1,-59.15381013,1.28041444
CW,70,1,2024-06-15T08:33:59.292Z,english_748.wav,0,1,1225,27,4,chinese,male,2,0.2,-64.86299243,0.04095899
CW,70,1,2024-06-15T08:33:59.292Z,english_748.wav,0,1,1225,27,4,chinese,male,3,0.3,-73.6430977,0.41914446
CW,70,1,2024-06-15T08:33:59.292Z,english_748.wav,0,1,1225,27,4,chinese,male,4,0.4,-91.05214173,1.08223978
CW,70,1,2024-06-15T08:33:59.292Z,english_748.wav,0,1,1225,27,4,chinese,male,5,0.5,-45.40797518,0.2529754
CW,70,1,2024-06-15T08:33:59.292Z,english_748.wav,0,1,1225,27,4,chinese,male,6,0.6,13.66964743,1.11197698
CW,70,1,2024-06-15T08:33:59.292Z,english_748.wav,0,1,1225,27,4,chinese,male,7,0.7,95.37065991,0.98751557
CW,70,1,2024-06-15T08:33:59.292Z,english_748.wav,0,1,1225,27,4,chinese,male,8,0.8,26.41264332,0.20616642
CW,70,1,2024-06-15T08:33:59.292Z,english_748.wav,0,1,1225,27,4,chinese,male,9,0.9,48.24832417,0.07234113
CW,70,1,2024-06-15T08:33:59.292Z,english_748.wav,0,1,1225,27,4,chinese,male,10,1,52.4867675,0.75683712
CW,70,1,2024-06-15T08:33:59.292Z,english_748.wav,0,1,1225,27,4,chinese,male,11,1.09391667,-11.31996214,0.73246581
CW,71,1,2024-06-15T08:33:59.292Z,english_418.wav,0,1,1060,27,4,chinese,male,0,0,17.48179392,1.16767435
CW,71,1,2024-06-15T08:33:59.292Z,english_418.wav,0,1,1060,27,4,chinese,male,1,0.1,-20.93259057,1.12895723
CW,71,1,2024-06-15T08:33:59.292Z,english_418.wav,0,1,1060,27,4,chinese,male,2,0.2,38.48191575,0.3034601
CW,71,1,2024-06-15T08:33:59.292Z,english_418.wav,0,1,1060,27,4,chinese,male,3,0.3,-43.04758346,1.48058882
CW,71,1,2024-06-15T08:33:59.292Z,english_418.wav,0,1,1060,27,4,chinese,male,4,0.4,-27.49631219,0.85133692
CW,71,1,2024-06-15T08:33:59.292Z,english_418.wav,0,1,1060,27,4,chinese,male,5,0.5,-43.30662093,1.76317004
CW,71,1,2024-06-15T08:33:59.292Z,english_418.wav,0,1,1060,27,4,chinese,male,6,0.6,-11.80067145,0.40561242
CW,71,1,2024-06-15T08:33:59.292Z,english_418.wav,0,1,1060,27,4,chinese,male,7,0.7,-65.69750473,0.69119528
CW,71,1,2024-06-15T08:33:59.292Z,english_418.wav,0,1,1060,27,4,chinese,male,8,0.8,36.09713106,0.70403422
CW,71,1,2024-06-15T08:33:59.292Z,english_418.wav,0,1,1060,27,4,chinese,male,9,0.9,-89.16917769,0.50785509
CW,71,1,2024-06-15T08:33:59.292Z,english_418.wav,0,1,1060,27,4,chinese,male,10,1,-11.53730863,0.15277714
CW,71,1,2024-06-15T08:33:59.292Z,english_418.wav,0,1,1060,27,4,chinese,male,11,1.09391667,91.60971419,0.42464397
CW,72,1,2024-06-15T08:33:59.292Z,english_747.wav,0,0,626,27,4,chinese,male,0,0,33.9885207,1.47964533
CW,72,1,2024-06-15T08:33:59.292Z,english_747.wav,0,0,626,27,4,chinese,male,1,0.1,-71.14283381,1.57695323
CW,72,1,2024-06-15T08:33:59.292Z,english_747.wav,0,0,626,27,4,chinese,male,2,0.2,-52.52906762,1.13707985
CW,72,1,2024-06-15T08:33:59.292Z,english_747.wav,0,0,626,27,4,chinese,male,3,0.3,79.5756924,1.65073603
CW,72,1,2024-06-15T08:33:59.292Z,english_747.wav,0,0,626,27,4,chinese,male,4,0.4,-13.30932063,0.47172054
CW,72,1,2024-06-15T08:33:59.292Z,english_747.wav,0,0,626,27,4,chinese,male,5,0.5,25.54535415,1.37786003
CW,72,1,2024-06-15T08:33:59.292Z,english_747.wav,0,0,626,27,4,chinese,male,6,0.6,8.02344494,1.58889604
CW,72,1,2024-06-15T08:33:59.292Z,english_747.wav,0,0,626,27,4,chinese,male,7,0.7,-38.13543806,1.29683876
CW,72,1,2024-06-15T08:33:59.292Z,english_747.wav,0,0,626,27,4,chinese,male,8,0.8,22.33599648,1.65514229
CW,72,1,2024-06-15T08:33:59.292Z,english_747.wav,0,0,626,27,4,chinese,male,9,0.9,-26.77712134,1.18735968
CW,72,1,2024-06-15T08:33:59.292Z,english_747.wav,0,0,626,27,4,chinese,male,10,1,-6.09351927,1.37962036
CW,72,1,2024-06-15T08:33:59.292Z,english_747.wav,0,0,626,27,4,chinese,male,11,1.09391667,43.23579595,1.3791581
CW,73,1,2024-06-15T08:33:59.292Z,english_343.wav,0,1,804,27,4,chinese,male,0,0,-88.20355026,1.73516804
CW,73,1,2024-06-15T08:33:59.292Z,english_343.wav,0,1,804,27,4,chinese,male,1,0.1,-17.76703198,0.86951139
CW,73,1,2024-06-15T08:33:59.292Z,english_343.wav,0,1,804,27,4,chinese,male,2,0.2,-76.85759336,1.76251065
CW,73,1,2024-06-15T08:33:59.292Z,english_343.wav,0,1,804,27,4,chinese,male,3,0.3,13.74829966,1.08707394
CW,73,1,2024-06-15T08:33:59.292Z,english_343.wav,0,1,804,27,4,chinese,male,4,0.4,76.10347036,0.09783198
CW,73,1,2024-06-15T08:33:59.292Z,english_343.wav,0,1,804,27,4,chinese,male,5,0.5,44.00038612,1.79124537
CW,73,1,2024-06-15T08:33:59.292Z,english_343.wav,0,1,804,27,4,chinese,male,6,0.6,-40.48158133,0.32245203
CW,73,1,2024-06-15T08:33:59.292Z,english_343.wav,0,1,804,27,4,chinese,male,7,0.7,-81.80076471,1.83894705
CW,73,1,2024-06-15T08:33:59.292Z,english_343.wav,0,1,804,27,4,chinese,male,8,0.8,16.92874563,0.75545382
CW,73,1,2024-06-15T08:33:59.292Z,english_343.wav,0,1,804,27,4,chinese,male,9,0.9,-39.14191482,0.41918914
CW,73,1,2024-06-15T08:33:59.292Z,english_343.wav,0,1,804,27,4,chinese,male,10,1,58.30879913,1.12444687
CW,73,1,2024-06-15T08:33:59.292Z,english_343.wav,0,1,804,27,4,chinese,male,11,1.09391667,14.49118286,1.87351865
CW,74,1,2024-06-15T08:33:59.292Z,english_876.wav,0,0,909,27,4,chinese,male,0,0,-22.28605272,0.86114571
CW,74,1,2024-06-15T08:33:59.292Z,english_876.wav,0,0,909,27,4,chinese,male,1,0.1,88.07210504,1.97575965
CW,74,1,2024-06-15T08:33:59.292Z,english_876.wav,0,0,909,27,4,chinese,male,2,0.2,-49.70957844,0.63948783
CW,74,1,2024-06-15T08:33:59.292Z,english_876.wav,0,0,909,27,4,chinese,male,3,0.3,-15.12998944,0.79524936
CW,74,1,2024-06-15T08:33:59.292Z,english_876.wav,0,0,909,27,4,chinese,male,4,0.4,-15.93875253,1.19082012
CW,74,1,2024-06-15T08:33:59.292Z,english_876.wav,0,0,909,27,4,chinese,male,5,0.5,-25.52637737,0.64746998
CW,74,1,2024-06-15T08:33:59.292Z,english_876.wav,0,0,909,27,4,chinese,male,6,0.6,-20.7469083,0.40627419
CW,74,1,2024-06-15T08:33:59.292Z,english_876.wav,0,0,909,27,4,chinese,male,7,0.7,38.24982305,0.95615642
CW,74,1,2024-06-15T08:33:59.292Z,english_876.wav,0,0,909,27,4,chinese,male,8,0.8,85.21823118,1.23938009
CW,74,1,2024-06-15T08:33:59.292Z,english_876.wav,0,0,909,27,4,chinese,male,9,0.9,2.48963564,0.97530307
CW,74,1,2024-06-15T08:33:59.292Z,english_876.wav,0,0,909,27,4,chinese,male,10,1,33.93764026,0.65277391
CW,74,1,2024-06-15T08:33:59.292Z,english_876.wav,0,0,909,27,4,chinese,male,11,1.09391667,1.12823357,0.77957787
CW,75,1,2024-06-15T08:33:59.292Z,english_759.wav,0,1,935,27,4,chinese,male,0,0,-17.33169853,1.81535326
CW,75,1,2024-06-15T08:33:59.292Z,english_759.wav,0,1,935,27,4,chinese,male,1,0.1,46.34111356,1.35139774
CW,75,1,2024-06-15T08:33:59.292Z,english_759.wav,0,1,935,27,4,chinese,male,2,0.2,-71.7209183,0.5699054
CW,75,1,2024-06-15T08:33:59.292Z,english_759.wav,0,1,935,27,4,chinese,male,3,0.3,-52.63168455,1.64756314
CW,75,1,2024-06-15T08:33:59.292Z,english_759.wav,0,1,935,27,4,chinese,male,4,0.4,-68.41292565,0.90731091
CW,75,1,2024-06-15T08:33:59.292Z,english_759.wav,0,1,935,27,4,chinese,male,5,0.5,0.91746702,0.92295566
CW,75,1,2024-06-15T08:33:59.292Z,english_759.wav,0,1,935,27,4,chinese,male,6,0.6,12.19475856,0.56476821
CW,75,1,2024-06-15T08:33:59.292Z,english_759.wav,0,1,935,27,4,chinese,male,7,0.7,76.90509926,1.11964502
CW,75,1,2024-06-15T08:33:59.292Z,english_759.wav,0,1,935,27,4,chinese,male,8,0.8,46.23586418,0.03868528
CW,75,1,2024-06-15T08:33:59.292Z,english_759.wav,0,1,935,27,4,chinese,male,9,0.9,20.85455152,0.66706937
CW,75,1,2024-06-15T08:33:59.292Z,english_759.wav,0,1,935,27,4,chinese,male,10,1,-48.8693925,1.91928995
CW,75,1,2024-06-15T08:33:59.292Z,english_759.wav,0,1,935,27,4,chinese,male,11,1.09391667,-3.22971396,0.4347557
CW,76,1,2024-06-15T08:33:59.292Z,english_121.wav,0,0,935,27,4,chinese,male,0,0,-45.47404613,1.1666534
CW,76,1,2024-06-15T08:33:59.292Z,english_121.wav,0,0,935,27,4,chinese,male,1,0.1,-36.49769978,1.03435239
CW,76,1,2024-06-15T08:33:59.292Z,english_121.wav,0,0,935,27,4,chinese,male,2,0.2,-66.69646717,1.07224248
CW,76,1,2024-06-15T08:33:59.292Z,english_121.wav,0,0,935,27,4,chinese,male,3,0.3,56.76733216,1.62337858
CW,76,1,2024-06-15T08:33:59.292Z,english_121.wav,0,0,935,27,4,chinese,male,4,0.4,-69.2204817,1.13623118
CW,76,1,2024-06-15T08:33:59.292Z,english_121.wav,0,0,935,27,4,chinese,male,5,0.5,67.71926704,0.1634934
CW,76,1,2024-06-15T08:33:59.292Z,english_121.wav,0,0,935,27,4,chinese,male,6,0.6,-20.18031628,1.38272259
CW,76,1,2024-06-15T08:33:59.292Z,english_121.wav,0,0,935,27,4,chinese,male,7,0.7,-46.80295657,1.3454344
CW,76,1,2024-06-15T08:33:59.292Z,english_121.wav,0,0,935,27,4,chinese,male,8,0.8,-30.65691434,1.73628045
CW,76,1,2024-06-15T08:33:59.292Z,english_121.wav,0,0,935,27,4,chinese,male,9,0.9,-30.96173959,0.71303122
CW,76,1,2024-06-15T08:33:59.292Z,english_121.wav,0,0,935,27,4,chinese,male,10,1,69.71514833,1.56011323
CW,76,1,2024-06-15T08:33:59.292Z,english_121.wav,0,0,935,27,4,chinese,male,11,1.09391667,14.56946925,0.62204911
CW,77,1,2024-06-15T08:33:59.292Z,english_943.wav,0,1,1610,27,4,chinese,male,0,0,79.5890822,1.20824936
CW,77,1,2024-06-15T08:33:59.292Z,english_943.wav,0,1,1610,27,4,chinese,male,1,0.1,78.55264714,0.88116928
CW,77,1,2024-06-15T08:33:59.292Z,english_943.wav,0,1,1610,27,4,chinese,male,2,0.2,44.19658383,1.0423498
CW,77,1,2024-06-15T08:33:59.292Z,english_943.wav,0,1,1610,27,4,chinese,male,3,0.3,-16.14605168,1.30491636
CW,77,1,2024-06-15T08:33:59.292Z,english_943.wav,0,1,1610,27,4,chinese,male,4,0.4,46.84349784,1.23781924
CW,77,1,2024-06-15T08:33:59.292Z,english_943.wav,0,1,1610,27,4,chinese,male,5,0.5,67.29364224,1.19542323
CW,77,1,2024-06-15T08:33:59.292Z,english_943.wav,0,1,1610,27,4,chinese,male,6,0.6,62.75940247,1.00041218
CW,77,1,2024-06-15T08:33:59.292Z,english_943.wav,0,1,1610,27,4,chinese,male,7,0.7,-42.13911475,1.18889719
CW,77,1,2024-06-15T08:33:59.292Z,english_943.wav,0,1,1610,27,4,chinese,male,8,0.8,-19.02728939,0.17654831
CW,77,1,2024-06-15T08:33:59.292Z,english_943.wav,0,1,1610,27,4,chinese,male,9,0.9,-16.03900615,0.65298118
CW,77,1,2024-06-15T08:33:59.292Z,english_943.wav,0,1,1610,27,4,chinese,male,10,1,15.22888591,0.96725626
CW,77,1,2024-06-15T08:33:59.292Z,english_943.wav,0,1,1610,27,4,chinese,male,11,1.09391667,60.70409514,1.67455333
CW,78,1,2024-06-15T08:33:59.292Z,english_79.wav,0,0,569,27,4,chinese,male,0,0,27.97817784,0.84571494
CW,78,1,2024-06-15T08:33:59.292Z,english_79.wav,0,0,569,27,4,chinese,male,1,0.1,71.46944993,1.27709221
CW,78,1,2024-06-15T08:33:59.292Z,english_79.wav,0,0,569,27,4,chinese,male,2,0.2,89.05489336,1.27075812
CW,78,1,2024-06-15T08:33:59.292Z,english_79.wav,0,0,569,27,4,chinese,male,3,0.3,-19.05433113,1.99746898
CW,78,1,2024-06-15T08:33:59.292Z,english_79.wav,0,0,569,27,4,chinese,male,4,0.4,-69.45960299,0.86632135
CW,78,1,2024-06-15T08:33:59.292Z,english_79.wav,0,0,569,27,4,chinese,male,5,0.5,73.78187689,1.18439274
CW,78,1,2024-06-15T08:33:59.292Z,english_79.wav,0,0,569,27,4,chinese,male,6,0.6,45.30424973,0.05743494
CW,78,1,2024-06-15T08:33:59.292Z,english_79.wav,0,0,569,27,4,chinese,male,7,0.7,-12.3964906,1.88609771
CW,78,1,2024-06-15T08:33:59.292Z,english_79.wav,0,0,569,27,4,chinese,male,8,0.8,-6.65615849,1.07546111
CW,78,1,2024-06-15T08:33:59.292Z,english_79.wav,0,0,569,27,4,chinese,male,9,0.9,20.78943027,0.97034818
CW,78,1,2024-06-15T08:33:59.292Z,english_79.wav,0,0,569,27,4,chinese,male,10,1,-67.05166292,0.94663039
CW,78,1,2024-06-15T08:33:59.292Z,english_79.wav,0,0,569,27,4,chinese,male,11,1.09391667,-53.62396235,0.1925317
CW,79,1,2024-06-15T08:33:59.292Z,english_746.wav,0,1,1085,27,4,chinese,male,0,0,-17.85129661,0.72236584
CW,79,1,2024-06-15T08:33:59.292Z,english_746.wav,0,1,1085,27,4,chinese,male,1,0.1,44.49284576,1.69903141
CW,79,1,2024-06-15T08:33:59.292Z,english_746.wav,0,1,1085,27,4,chinese,male,2,0.2,-28.07602373,1.83658278
CW,79,1,2024-06-15T08:33:59.292Z,english_746.wav,0,1,1085,27,4,chinese,male,3,0.3,80.79649727,0.38437005
CW,79,1,2024-06-15T08:33:59.292Z,english_746.wav,0,1,1085,27,4,chinese,male,4,0.4,-35.87476706,0.19777168
CW,79,1,2024-06-15T08:33:59.292Z,english_746.wav,0,1,1085,27,4,chinese,male,5,0.5,-13.61927607,0.81094496
