subj,trial,block,date,stim,stim_order,response,rt,age,english,language,sex,param_index,segment,pitch,stretch
WWH,0,0,2024-06-13T06:55:29.282Z,english_864.wav,0,1,9113,21,2,Chinese,f,0,0,-0.0387960156,1.23414585
WWH,0,0,2024-06-13T06:55:29.282Z,english_864.wav,0,1,9113,21,2,Chinese,f,1,0.1,38.1316994,0.9307675
WWH,0,0,2024-06-13T06:55:29.282Z,english_864.wav,0,1,9113,21,2,Chinese,f,2,0.2,-27.0649645,0.03913176
WWH,0,0,2024-06-13T06:55:29.282Z,english_864.wav,0,1,9113,21,2,Chinese,f,3,0.3,48.6299289,0.1581059
WWH,0,0,2024-06-13T06:55:29.282Z,english_864.wav,0,1,9113,21,2,Chinese,f,4,0.4,-73.1690056,1.26848515
WWH,0,0,2024-06-13T06:55:29.282Z,english_864.wav,0,1,9113,21,2,Chinese,f,5,0.5,-28.1080401,1.70642176
WWH,0,0,2024-06-13T06:55:29.282Z,english_864.wav,0,1,9113,21,2,Chinese,f,6,0.6,47.3805694,1.16045112
WWH,0,0,2024-06-13T06:55:29.282Z,english_864.wav,0,1,9113,21,2,Chinese,f,7,0.7,-91.4211748,1.92718933
WWH,0,0,2024-06-13T06:55:29.282Z,english_864.wav,0,1,9113,21,2,Chinese,f,8,0.8,5.88699375,0.86462582
WWH,0,0,2024-06-13T06:55:29.282Z,english_864.wav,0,1,9113,21,2,Chinese,f,9,0.9,88.3416583,0.91973589
WWH,0,0,2024-06-13T06:55:29.282Z,english_864.wav,0,1,9113,21,2,Chinese,f,10,1,-36.7945697,0.59650291
WWH,0,0,2024-06-13T06:55:29.282Z,english_864.wav,0,1,9113,21,2,Chinese,f,11,1.09391667,-60.7645339,0.61493886
WWH,1,0,2024-06-13T06:55:29.282Z,english_611.wav,0,1,1979,21,2,Chinese,f,0,0,-44.03154286,0.78645575
WWH,1,0,2024-06-13T06:55:29.282Z,english_611.wav,0,1,1979,21,2,Chinese,f,1,0.1,43.53292368,1.64980838
WWH,1,0,2024-06-13T06:55:29.282Z,english_611.wav,0,1,1979,21,2,Chinese,f,2,0.2,-39.32029451,0.9179457
WWH,1,0,2024-06-13T06:55:29.282Z,english_611.wav,0,1,1979,21,2,Chinese,f,3,0.3,56.48937501,1.56943765
WWH,1,0,2024-06-13T06:55:29.282Z,english_611.wav,0,1,1979,21,2,Chinese,f,4,0.4,79.97019062,0.89618619
WWH,1,0,2024-06-13T06:55:29.282Z,english_611.wav,0,1,1979,21,2,Chinese,f,5,0.5,-25.23129683,1.22477339
WWH,1,0,2024-06-13T06:55:29.282Z,english_611.wav,0,1,1979,21,2,Chinese,f,6,0.6,14.98640169,1.05903803
WWH,1,0,2024-06-13T06:55:29.282Z,english_611.wav,0,1,1979,21,2,Chinese,f,7,0.7,23.2049895,0.37835505
WWH,1,0,2024-06-13T06:55:29.282Z,english_611.wav,0,1,1979,21,2,Chinese,f,8,0.8,-71.91072082,1.6139649
WWH,1,0,2024-06-13T06:55:29.282Z,english_611.wav,0,1,1979,21,2,Chinese,f,9,0.9,-47.29216682,1.9176564
WWH,1,0,2024-06-13T06:55:29.282Z,english_611.wav,0,1,1979,21,2,Chinese,f,10,1,71.77208334,1.62142696
WWH,1,0,2024-06-13T06:55:29.282Z,english_611.wav,0,1,1979,21,2,Chinese,f,11,1.09391667,-64.89664383,1.10334919
WWH,2,0,2024-06-13T06:55:29.282Z,english_763.wav,0,0,2538,21,2,Chinese,f,0,0,-3.64613535,1.37294904
WWH,2,0,2024-06-13T06:55:29.282Z,english_763.wav,0,0,2538,21,2,Chinese,f,1,0.1,86.84394447,1.4753173
WWH,2,0,2024-06-13T06:55:29.282Z,english_763.wav,0,0,2538,21,2,Chinese,f,2,0.2,48.90447279,1.11933896
WWH,2,0,2024-06-13T06:55:29.282Z,english_763.wav,0,0,2538,21,2,Chinese,f,3,0.3,81.52724945,0.74342717
WWH,2,0,2024-06-13T06:55:29.282Z,english_763.wav,0,0,2538,21,2,Chinese,f,4,0.4,38.37028175,1.29789975
WWH,2,0,2024-06-13T06:55:29.282Z,english_763.wav,0,0,2538,21,2,Chinese,f,5,0.5,-1.05640966,0.71005602
WWH,2,0,2024-06-13T06:55:29.282Z,english_763.wav,0,0,2538,21,2,Chinese,f,6,0.6,92.75218552,1.1127111
WWH,2,0,2024-06-13T06:55:29.282Z,english_763.wav,0,0,2538,21,2,Chinese,f,7,0.7,25.6384544,0.88036435
WWH,2,0,2024-06-13T06:55:29.282Z,english_763.wav,0,0,2538,21,2,Chinese,f,8,0.8,39.31857394,0.01207507
WWH,2,0,2024-06-13T06:55:29.282Z,english_763.wav,0,0,2538,21,2,Chinese,f,9,0.9,-39.8545052,1.55647861
WWH,2,0,2024-06-13T06:55:29.282Z,english_763.wav,0,0,2538,21,2,Chinese,f,10,1,-46.14237673,1.32252767
WWH,2,0,2024-06-13T06:55:29.282Z,english_763.wav,0,0,2538,21,2,Chinese,f,11,1.09391667,4.92972848,1.12126405
WWH,3,0,2024-06-13T06:55:29.282Z,english_758.wav,0,1,1715,21,2,Chinese,f,0,0,44.67997232,1.19309781
WWH,3,0,2024-06-13T06:55:29.282Z,english_758.wav,0,1,1715,21,2,Chinese,f,1,0.1,27.10099403,0.27221696
WWH,3,0,2024-06-13T06:55:29.282Z,english_758.wav,0,1,1715,21,2,Chinese,f,2,0.2,-48.30493583,0.58591156
WWH,3,0,2024-06-13T06:55:29.282Z,english_758.wav,0,1,1715,21,2,Chinese,f,3,0.3,-73.5260898,1.06118241
WWH,3,0,2024-06-13T06:55:29.282Z,english_758.wav,0,1,1715,21,2,Chinese,f,4,0.4,19.32057449,1.53382291
WWH,3,0,2024-06-13T06:55:29.282Z,english_758.wav,0,1,1715,21,2,Chinese,f,5,0.5,-32.65273306,1.10934516
WWH,3,0,2024-06-13T06:55:29.282Z,english_758.wav,0,1,1715,21,2,Chinese,f,6,0.6,-67.58997162,1.53621874
WWH,3,0,2024-06-13T06:55:29.282Z,english_758.wav,0,1,1715,21,2,Chinese,f,7,0.7,-76.10184919,0.32907917
WWH,3,0,2024-06-13T06:55:29.282Z,english_758.wav,0,1,1715,21,2,Chinese,f,8,0.8,55.20632284,0.47500698
WWH,3,0,2024-06-13T06:55:29.282Z,english_758.wav,0,1,1715,21,2,Chinese,f,9,0.9,3.61347388,1.81944253
WWH,3,0,2024-06-13T06:55:29.282Z,english_758.wav,0,1,1715,21,2,Chinese,f,10,1,-39.33689268,1.02148435
WWH,3,0,2024-06-13T06:55:29.282Z,english_758.wav,0,1,1715,21,2,Chinese,f,11,1.09391667,44.43004874,0.12347796
WWH,4,0,2024-06-13T06:55:29.282Z,english_626.wav,0,0,948,21,2,Chinese,f,0,0,-0.56370029,1.601019
WWH,4,0,2024-06-13T06:55:29.282Z,english_626.wav,0,0,948,21,2,Chinese,f,1,0.1,-99.91896683,1.02479774
WWH,4,0,2024-06-13T06:55:29.282Z,english_626.wav,0,0,948,21,2,Chinese,f,2,0.2,71.91666298,1.56428022
WWH,4,0,2024-06-13T06:55:29.282Z,english_626.wav,0,0,948,21,2,Chinese,f,3,0.3,5.93440056,1.41456241
WWH,4,0,2024-06-13T06:55:29.282Z,english_626.wav,0,0,948,21,2,Chinese,f,4,0.4,30.6659702,1.90457562
WWH,4,0,2024-06-13T06:55:29.282Z,english_626.wav,0,0,948,21,2,Chinese,f,5,0.5,50.2345252,1.04545234
WWH,4,0,2024-06-13T06:55:29.282Z,english_626.wav,0,0,948,21,2,Chinese,f,6,0.6,26.80081253,1.05575336
WWH,4,0,2024-06-13T06:55:29.282Z,english_626.wav,0,0,948,21,2,Chinese,f,7,0.7,57.01154581,1.40636518
WWH,4,0,2024-06-13T06:55:29.282Z,english_626.wav,0,0,948,21,2,Chinese,f,8,0.8,-79.56021694,1.56161819
WWH,4,0,2024-06-13T06:55:29.282Z,english_626.wav,0,0,948,21,2,Chinese,f,9,0.9,19.7734095,0.61190755
WWH,4,0,2024-06-13T06:55:29.282Z,english_626.wav,0,0,948,21,2,Chinese,f,10,1,24.01737707,0.77515613
WWH,4,0,2024-06-13T06:55:29.282Z,english_626.wav,0,0,948,21,2,Chinese,f,11,1.09391667,-71.48633622,1.93548934
WWH,5,0,2024-06-13T06:55:29.282Z,english_214.wav,0,1,1364,21,2,Chinese,f,0,0,77.66249847,1.66443393
WWH,5,0,2024-06-13T06:55:29.282Z,english_214.wav,0,1,1364,21,2,Chinese,f,1,0.1,-66.26077856,1.37654428
WWH,5,0,2024-06-13T06:55:29.282Z,english_214.wav,0,1,1364,21,2,Chinese,f,2,0.2,-51.4922282,1.40712663
WWH,5,0,2024-06-13T06:55:29.282Z,english_214.wav,0,1,1364,21,2,Chinese,f,3,0.3,14.18659261,0.14412451
WWH,5,0,2024-06-13T06:55:29.282Z,english_214.wav,0,1,1364,21,2,Chinese,f,4,0.4,-48.84743407,0.91551293
WWH,5,0,2024-06-13T06:55:29.282Z,english_214.wav,0,1,1364,21,2,Chinese,f,5,0.5,19.47798934,0.32690142
WWH,5,0,2024-06-13T06:55:29.282Z,english_214.wav,0,1,1364,21,2,Chinese,f,6,0.6,30.92446632,1.55465622
WWH,5,0,2024-06-13T06:55:29.282Z,english_214.wav,0,1,1364,21,2,Chinese,f,7,0.7,-20.72955743,0.81533764
WWH,5,0,2024-06-13T06:55:29.282Z,english_214.wav,0,1,1364,21,2,Chinese,f,8,0.8,-84.03788896,1.36872512
WWH,5,0,2024-06-13T06:55:29.282Z,english_214.wav,0,1,1364,21,2,Chinese,f,9,0.9,1.19993411,0.61257248
WWH,5,0,2024-06-13T06:55:29.282Z,english_214.wav,0,1,1364,21,2,Chinese,f,10,1,-10.67189742,1.2492197
WWH,5,0,2024-06-13T06:55:29.282Z,english_214.wav,0,1,1364,21,2,Chinese,f,11,1.09391667,76.51495677,1.13872638
WWH,6,0,2024-06-13T06:55:29.282Z,english_270.wav,0,0,803,21,2,Chinese,f,0,0,-55.81256687,1.62867923
WWH,6,0,2024-06-13T06:55:29.282Z,english_270.wav,0,0,803,21,2,Chinese,f,1,0.1,86.32458749,1.84562159
WWH,6,0,2024-06-13T06:55:29.282Z,english_270.wav,0,0,803,21,2,Chinese,f,2,0.2,13.49455739,0.93167879
WWH,6,0,2024-06-13T06:55:29.282Z,english_270.wav,0,0,803,21,2,Chinese,f,3,0.3,-68.69500359,1.73816361
WWH,6,0,2024-06-13T06:55:29.282Z,english_270.wav,0,0,803,21,2,Chinese,f,4,0.4,-97.00280027,0.08320837
WWH,6,0,2024-06-13T06:55:29.282Z,english_270.wav,0,0,803,21,2,Chinese,f,5,0.5,-69.821637,1.0435143
WWH,6,0,2024-06-13T06:55:29.282Z,english_270.wav,0,0,803,21,2,Chinese,f,6,0.6,1.11664619,1.6211018
WWH,6,0,2024-06-13T06:55:29.282Z,english_270.wav,0,0,803,21,2,Chinese,f,7,0.7,14.10763844,1.15083177
WWH,6,0,2024-06-13T06:55:29.282Z,english_270.wav,0,0,803,21,2,Chinese,f,8,0.8,-34.97611605,0.10335889
WWH,6,0,2024-06-13T06:55:29.282Z,english_270.wav,0,0,803,21,2,Chinese,f,9,0.9,64.83030817,1.46234983
WWH,6,0,2024-06-13T06:55:29.282Z,english_270.wav,0,0,803,21,2,Chinese,f,10,1,-92.12802344,1.54267918
WWH,6,0,2024-06-13T06:55:29.282Z,english_270.wav,0,0,803,21,2,Chinese,f,11,1.09391667,70.2696905,1.13836595
WWH,7,0,2024-06-13T06:55:29.282Z,english_670.wav,0,1,1304,21,2,Chinese,f,0,0,61.47755319,1.45530198
WWH,7,0,2024-06-13T06:55:29.282Z,english_670.wav,0,1,1304,21,2,Chinese,f,1,0.1,79.47502579,1.32139426
WWH,7,0,2024-06-13T06:55:29.282Z,english_670.wav,0,1,1304,21,2,Chinese,f,2,0.2,73.60091474,0.78813228
WWH,7,0,2024-06-13T06:55:29.282Z,english_670.wav,0,1,1304,21,2,Chinese,f,3,0.3,58.1460863,0.55211546
WWH,7,0,2024-06-13T06:55:29.282Z,english_670.wav,0,1,1304,21,2,Chinese,f,4,0.4,97.58712211,0.66504483
WWH,7,0,2024-06-13T06:55:29.282Z,english_670.wav,0,1,1304,21,2,Chinese,f,5,0.5,-25.3557345,0.1283282
WWH,7,0,2024-06-13T06:55:29.282Z,english_670.wav,0,1,1304,21,2,Chinese,f,6,0.6,-0.56542957,1.41482601
WWH,7,0,2024-06-13T06:55:29.282Z,english_670.wav,0,1,1304,21,2,Chinese,f,7,0.7,31.42903677,1.61871195
WWH,7,0,2024-06-13T06:55:29.282Z,english_670.wav,0,1,1304,21,2,Chinese,f,8,0.8,42.53271581,1.01398737
WWH,7,0,2024-06-13T06:55:29.282Z,english_670.wav,0,1,1304,21,2,Chinese,f,9,0.9,77.28375596,0.52342725
WWH,7,0,2024-06-13T06:55:29.282Z,english_670.wav,0,1,1304,21,2,Chinese,f,10,1,-30.44711444,1.03483045
WWH,7,0,2024-06-13T06:55:29.282Z,english_670.wav,0,1,1304,21,2,Chinese,f,11,1.09391667,19.3107075,0.15284579
WWH,8,0,2024-06-13T06:55:29.282Z,english_94.wav,0,0,724,21,2,Chinese,f,0,0,-69.13613192,0.71683615
WWH,8,0,2024-06-13T06:55:29.282Z,english_94.wav,0,0,724,21,2,Chinese,f,1,0.1,-53.91573564,1.64130178
WWH,8,0,2024-06-13T06:55:29.282Z,english_94.wav,0,0,724,21,2,Chinese,f,2,0.2,88.54569891,1.41561382
WWH,8,0,2024-06-13T06:55:29.282Z,english_94.wav,0,0,724,21,2,Chinese,f,3,0.3,47.91558238,0.72478091
WWH,8,0,2024-06-13T06:55:29.282Z,english_94.wav,0,0,724,21,2,Chinese,f,4,0.4,46.13883045,1.21480875
WWH,8,0,2024-06-13T06:55:29.282Z,english_94.wav,0,0,724,21,2,Chinese,f,5,0.5,0.71209955,0.13058063
WWH,8,0,2024-06-13T06:55:29.282Z,english_94.wav,0,0,724,21,2,Chinese,f,6,0.6,53.89774049,1.07607775
WWH,8,0,2024-06-13T06:55:29.282Z,english_94.wav,0,0,724,21,2,Chinese,f,7,0.7,37.22112319,0.10112022
WWH,8,0,2024-06-13T06:55:29.282Z,english_94.wav,0,0,724,21,2,Chinese,f,8,0.8,8.13348347,0.91343474
WWH,8,0,2024-06-13T06:55:29.282Z,english_94.wav,0,0,724,21,2,Chinese,f,9,0.9,-10.35793642,0.77751528
WWH,8,0,2024-06-13T06:55:29.282Z,english_94.wav,0,0,724,21,2,Chinese,f,10,1,75.25647247,0.57088528
WWH,8,0,2024-06-13T06:55:29.282Z,english_94.wav,0,0,724,21,2,Chinese,f,11,1.09391667,-70.34686187,0.98841109
WWH,9,0,2024-06-13T06:55:29.282Z,english_802.wav,0,1,686,21,2,Chinese,f,0,0,59.91511279,1.85367275
WWH,9,0,2024-06-13T06:55:29.282Z,english_802.wav,0,1,686,21,2,Chinese,f,1,0.1,12.24886821,1.18024621
WWH,9,0,2024-06-13T06:55:29.282Z,english_802.wav,0,1,686,21,2,Chinese,f,2,0.2,96.02397802,1.49834519
WWH,9,0,2024-06-13T06:55:29.282Z,english_802.wav,0,1,686,21,2,Chinese,f,3,0.3,13.76175382,0.18406028
WWH,9,0,2024-06-13T06:55:29.282Z,english_802.wav,0,1,686,21,2,Chinese,f,4,0.4,61.38770088,0.92630848
WWH,9,0,2024-06-13T06:55:29.282Z,english_802.wav,0,1,686,21,2,Chinese,f,5,0.5,-27.16563277,0.54382734
WWH,9,0,2024-06-13T06:55:29.282Z,english_802.wav,0,1,686,21,2,Chinese,f,6,0.6,-56.7121097,1.05559663
WWH,9,0,2024-06-13T06:55:29.282Z,english_802.wav,0,1,686,21,2,Chinese,f,7,0.7,-6.03893496,0.71322875
WWH,9,0,2024-06-13T06:55:29.282Z,english_802.wav,0,1,686,21,2,Chinese,f,8,0.8,-52.64183472,0.836902
WWH,9,0,2024-06-13T06:55:29.282Z,english_802.wav,0,1,686,21,2,Chinese,f,9,0.9,20.48360961,1.2036053
WWH,9,0,2024-06-13T06:55:29.282Z,english_802.wav,0,1,686,21,2,Chinese,f,10,1,63.06136933,1.08845051
WWH,9,0,2024-06-13T06:55:29.282Z,english_802.wav,0,1,686,21,2,Chinese,f,11,1.09391667,47.93084829,1.71595045
WWH,10,0,2024-06-13T06:55:29.282Z,english_258.wav,0,1,984,21,2,Chinese,f,0,0,25.58821978,1.29707378
WWH,10,0,2024-06-13T06:55:29.282Z,english_258.wav,0,1,984,21,2,Chinese,f,1,0.1,7.03087627,0.49566701
WWH,10,0,2024-06-13T06:55:29.282Z,english_258.wav,0,1,984,21,2,Chinese,f,2,0.2,-15.91116386,0.43385518
WWH,10,0,2024-06-13T06:55:29.282Z,english_258.wav,0,1,984,21,2,Chinese,f,3,0.3,-10.18288773,0.30166849
WWH,10,0,2024-06-13T06:55:29.282Z,english_258.wav,0,1,984,21,2,Chinese,f,4,0.4,-1.03622481,0.40418484
WWH,10,0,2024-06-13T06:55:29.282Z,english_258.wav,0,1,984,21,2,Chinese,f,5,0.5,7.08237834,0.97614875
WWH,10,0,2024-06-13T06:55:29.282Z,english_258.wav,0,1,984,21,2,Chinese,f,6,0.6,-65.85616389,0.50782257
WWH,10,0,2024-06-13T06:55:29.282Z,english_258.wav,0,1,984,21,2,Chinese,f,7,0.7,61.11432003,1.26334363
WWH,10,0,2024-06-13T06:55:29.282Z,english_258.wav,0,1,984,21,2,Chinese,f,8,0.8,62.35570806,1.6928405
WWH,10,0,2024-06-13T06:55:29.282Z,english_258.wav,0,1,984,21,2,Chinese,f,9,0.9,64.93681849,1.97714506
WWH,10,0,2024-06-13T06:55:29.282Z,english_258.wav,0,1,984,21,2,Chinese,f,10,1,-37.74920533,1.10059348
WWH,10,0,2024-06-13T06:55:29.282Z,english_258.wav,0,1,984,21,2,Chinese,f,11,1.09391667,-81.90690998,1.23409369
WWH,11,0,2024-06-13T06:55:29.282Z,english_529.wav,0,0,1213,21,2,Chinese,f,0,0,-75.44052411,0.27425441
WWH,11,0,2024-06-13T06:55:29.282Z,english_529.wav,0,0,1213,21,2,Chinese,f,1,0.1,73.68823703,1.79894556
WWH,11,0,2024-06-13T06:55:29.282Z,english_529.wav,0,0,1213,21,2,Chinese,f,2,0.2,35.88983091,1.38498362
WWH,11,0,2024-06-13T06:55:29.282Z,english_529.wav,0,0,1213,21,2,Chinese,f,3,0.3,74.9860534,1.12136542
WWH,11,0,2024-06-13T06:55:29.282Z,english_529.wav,0,0,1213,21,2,Chinese,f,4,0.4,39.79761308,0.69021564
WWH,11,0,2024-06-13T06:55:29.282Z,english_529.wav,0,0,1213,21,2,Chinese,f,5,0.5,87.56894365,1.32432139
WWH,11,0,2024-06-13T06:55:29.282Z,english_529.wav,0,0,1213,21,2,Chinese,f,6,0.6,-70.18354505,0.62496123
WWH,11,0,2024-06-13T06:55:29.282Z,english_529.wav,0,0,1213,21,2,Chinese,f,7,0.7,30.14757838,0.16694554
WWH,11,0,2024-06-13T06:55:29.282Z,english_529.wav,0,0,1213,21,2,Chinese,f,8,0.8,-85.67720686,1.72485798
WWH,11,0,2024-06-13T06:55:29.282Z,english_529.wav,0,0,1213,21,2,Chinese,f,9,0.9,-5.22909547,0.11317639
WWH,11,0,2024-06-13T06:55:29.282Z,english_529.wav,0,0,1213,21,2,Chinese,f,10,1,-29.17041088,1.97903266
WWH,11,0,2024-06-13T06:55:29.282Z,english_529.wav,0,0,1213,21,2,Chinese,f,11,1.09391667,91.40497623,0.92289832
WWH,12,0,2024-06-13T06:55:29.282Z,english_703.wav,0,0,709,21,2,Chinese,f,0,0,78.46017663,1.67482732
WWH,12,0,2024-06-13T06:55:29.282Z,english_703.wav,0,0,709,21,2,Chinese,f,1,0.1,78.89990628,0.94697422
WWH,12,0,2024-06-13T06:55:29.282Z,english_703.wav,0,0,709,21,2,Chinese,f,2,0.2,1.22121352,1.07367108
WWH,12,0,2024-06-13T06:55:29.282Z,english_703.wav,0,0,709,21,2,Chinese,f,3,0.3,-13.66512032,0.83871506
WWH,12,0,2024-06-13T06:55:29.282Z,english_703.wav,0,0,709,21,2,Chinese,f,4,0.4,59.78772349,1.95413199
WWH,12,0,2024-06-13T06:55:29.282Z,english_703.wav,0,0,709,21,2,Chinese,f,5,0.5,33.72988184,1.09413462
WWH,12,0,2024-06-13T06:55:29.282Z,english_703.wav,0,0,709,21,2,Chinese,f,6,0.6,-23.35963014,0.42330202
WWH,12,0,2024-06-13T06:55:29.282Z,english_703.wav,0,0,709,21,2,Chinese,f,7,0.7,8.84013909,1.69590524
WWH,12,0,2024-06-13T06:55:29.282Z,english_703.wav,0,0,709,21,2,Chinese,f,8,0.8,-91.65457131,0.02701352
WWH,12,0,2024-06-13T06:55:29.282Z,english_703.wav,0,0,709,21,2,Chinese,f,9,0.9,-19.77683044,1.37794046
WWH,12,0,2024-06-13T06:55:29.282Z,english_703.wav,0,0,709,21,2,Chinese,f,10,1,93.0408658,1.99856472
WWH,12,0,2024-06-13T06:55:29.282Z,english_703.wav,0,0,709,21,2,Chinese,f,11,1.09391667,-46.92339825,0.84923666
WWH,13,0,2024-06-13T06:55:29.282Z,english_296.wav,0,1,1030,21,2,Chinese,f,0,0,80.48782258,1.56514642
WWH,13,0,2024-06-13T06:55:29.282Z,english_296.wav,0,1,1030,21,2,Chinese,f,1,0.1,10.56122862,0.84129395
WWH,13,0,2024-06-13T06:55:29.282Z,english_296.wav,0,1,1030,21,2,Chinese,f,2,0.2,-8.93820662,0.06138073
WWH,13,0,2024-06-13T06:55:29.282Z,english_296.wav,0,1,1030,21,2,Chinese,f,3,0.3,-54.86681614,0.69727856
WWH,13,0,2024-06-13T06:55:29.282Z,english_296.wav,0,1,1030,21,2,Chinese,f,4,0.4,4.93462284,1.5884292
WWH,13,0,2024-06-13T06:55:29.282Z,english_296.wav,0,1,1030,21,2,Chinese,f,5,0.5,35.74757504,1.04892583
WWH,13,0,2024-06-13T06:55:29.282Z,english_296.wav,0,1,1030,21,2,Chinese,f,6,0.6,68.8469079,1.9689775
WWH,13,0,2024-06-13T06:55:29.282Z,english_296.wav,0,1,1030,21,2,Chinese,f,7,0.7,-14.27123589,0.88805601
WWH,13,0,2024-06-13T06:55:29.282Z,english_296.wav,0,1,1030,21,2,Chinese,f,8,0.8,-28.29587023,1.96809087
WWH,13,0,2024-06-13T06:55:29.282Z,english_296.wav,0,1,1030,21,2,Chinese,f,9,0.9,95.64907093,1.8332122
WWH,13,0,2024-06-13T06:55:29.282Z,english_296.wav,0,1,1030,21,2,Chinese,f,10,1,-72.41595419,0.12281215
WWH,13,0,2024-06-13T06:55:29.282Z,english_296.wav,0,1,1030,21,2,Chinese,f,11,1.09391667,67.53861485,0.22120187
WWH,14,0,2024-06-13T06:55:29.282Z,english_425.wav,0,1,1144,21,2,Chinese,f,0,0,85.86099955,1.60253472
WWH,14,0,2024-06-13T06:55:29.282Z,english_425.wav,0,1,1144,21,2,Chinese,f,1,0.1,-74.24278906,1.17756514
WWH,14,0,2024-06-13T06:55:29.282Z,english_425.wav,0,1,1144,21,2,Chinese,f,2,0.2,66.63239561,1.35741875
WWH,14,0,2024-06-13T06:55:29.282Z,english_425.wav,0,1,1144,21,2,Chinese,f,3,0.3,48.1989772,1.41012003
WWH,14,0,2024-06-13T06:55:29.282Z,english_425.wav,0,1,1144,21,2,Chinese,f,4,0.4,-24.59174715,0.10488559
WWH,14,0,2024-06-13T06:55:29.282Z,english_425.wav,0,1,1144,21,2,Chinese,f,5,0.5,-13.08814226,1.84558303
WWH,14,0,2024-06-13T06:55:29.282Z,english_425.wav,0,1,1144,21,2,Chinese,f,6,0.6,3.3813436,1.65169658
WWH,14,0,2024-06-13T06:55:29.282Z,english_425.wav,0,1,1144,21,2,Chinese,f,7,0.7,-77.57885428,0.99070069
WWH,14,0,2024-06-13T06:55:29.282Z,english_425.wav,0,1,1144,21,2,Chinese,f,8,0.8,64.2992526,1.03905924
WWH,14,0,2024-06-13T06:55:29.282Z,english_425.wav,0,1,1144,21,2,Chinese,f,9,0.9,-69.82436983,1.4199326
WWH,14,0,2024-06-13T06:55:29.282Z,english_425.wav,0,1,1144,21,2,Chinese,f,10,1,-17.74567454,1.83949921
WWH,14,0,2024-06-13T06:55:29.282Z,english_425.wav,0,1,1144,21,2,Chinese,f,11,1.09391667,34.86644748,1.32096962
WWH,15,0,2024-06-13T06:55:29.282Z,english_398.wav,0,0,844,21,2,Chinese,f,0,0,58.43536872,0.19891774
WWH,15,0,2024-06-13T06:55:29.282Z,english_398.wav,0,0,844,21,2,Chinese,f,1,0.1,-82.57908231,0.03529734
WWH,15,0,2024-06-13T06:55:29.282Z,english_398.wav,0,0,844,21,2,Chinese,f,2,0.2,-3.40439415,1.69592316
WWH,15,0,2024-06-13T06:55:29.282Z,english_398.wav,0,0,844,21,2,Chinese,f,3,0.3,-83.74176257,0.07086845
WWH,15,0,2024-06-13T06:55:29.282Z,english_398.wav,0,0,844,21,2,Chinese,f,4,0.4,38.89596711,0.77458748
WWH,15,0,2024-06-13T06:55:29.282Z,english_398.wav,0,0,844,21,2,Chinese,f,5,0.5,63.49142751,1.25980126
WWH,15,0,2024-06-13T06:55:29.282Z,english_398.wav,0,0,844,21,2,Chinese,f,6,0.6,64.24765223,1.54445807
WWH,15,0,2024-06-13T06:55:29.282Z,english_398.wav,0,0,844,21,2,Chinese,f,7,0.7,24.37031282,0.23015685
WWH,15,0,2024-06-13T06:55:29.282Z,english_398.wav,0,0,844,21,2,Chinese,f,8,0.8,18.2651004,0.80693823
WWH,15,0,2024-06-13T06:55:29.282Z,english_398.wav,0,0,844,21,2,Chinese,f,9,0.9,-3.768449,0.61010049
WWH,15,0,2024-06-13T06:55:29.282Z,english_398.wav,0,0,844,21,2,Chinese,f,10,1,55.48069175,0.09811637
WWH,15,0,2024-06-13T06:55:29.282Z,english_398.wav,0,0,844,21,2,Chinese,f,11,1.09391667,-2.34176887,1.22967895
WWH,16,0,2024-06-13T06:55:29.282Z,english_57.wav,0,0,833,21,2,Chinese,f,0,0,69.92924321,1.37399784
WWH,16,0,2024-06-13T06:55:29.282Z,english_57.wav,0,0,833,21,2,Chinese,f,1,0.1,50.83595835,1.30125162
WWH,16,0,2024-06-13T06:55:29.282Z,english_57.wav,0,0,833,21,2,Chinese,f,2,0.2,72.89041726,0.76532722
WWH,16,0,2024-06-13T06:55:29.282Z,english_57.wav,0,0,833,21,2,Chinese,f,3,0.3,-25.50577281,0.08256356
WWH,16,0,2024-06-13T06:55:29.282Z,english_57.wav,0,0,833,21,2,Chinese,f,4,0.4,-12.89341009,1.10396563
WWH,16,0,2024-06-13T06:55:29.282Z,english_57.wav,0,0,833,21,2,Chinese,f,5,0.5,-24.95937253,1.0000289
WWH,16,0,2024-06-13T06:55:29.282Z,english_57.wav,0,0,833,21,2,Chinese,f,6,0.6,64.68704807,0.6504756
WWH,16,0,2024-06-13T06:55:29.282Z,english_57.wav,0,0,833,21,2,Chinese,f,7,0.7,26.76917617,1.09615913
WWH,16,0,2024-06-13T06:55:29.282Z,english_57.wav,0,0,833,21,2,Chinese,f,8,0.8,-85.40894658,0.70411597
WWH,16,0,2024-06-13T06:55:29.282Z,english_57.wav,0,0,833,21,2,Chinese,f,9,0.9,-86.04927125,0.54802277
WWH,16,0,2024-06-13T06:55:29.282Z,english_57.wav,0,0,833,21,2,Chinese,f,10,1,86.88641586,1.43991022
WWH,16,0,2024-06-13T06:55:29.282Z,english_57.wav,0,0,833,21,2,Chinese,f,11,1.09391667,-99.07725694,1.41890007
WWH,17,0,2024-06-13T06:55:29.282Z,english_483.wav,0,0,1464,21,2,Chinese,f,0,0,81.48477159,0.74240463
WWH,17,0,2024-06-13T06:55:29.282Z,english_483.wav,0,0,1464,21,2,Chinese,f,1,0.1,-89.60480044,0.55858717
WWH,17,0,2024-06-13T06:55:29.282Z,english_483.wav,0,0,1464,21,2,Chinese,f,2,0.2,34.01203533,0.25858635
WWH,17,0,2024-06-13T06:55:29.282Z,english_483.wav,0,0,1464,21,2,Chinese,f,3,0.3,-53.73578063,0.09361457
WWH,17,0,2024-06-13T06:55:29.282Z,english_483.wav,0,0,1464,21,2,Chinese,f,4,0.4,84.54249603,1.33981299
WWH,17,0,2024-06-13T06:55:29.282Z,english_483.wav,0,0,1464,21,2,Chinese,f,5,0.5,-37.49389681,0.4736205
WWH,17,0,2024-06-13T06:55:29.282Z,english_483.wav,0,0,1464,21,2,Chinese,f,6,0.6,15.30386948,0.19064795
WWH,17,0,2024-06-13T06:55:29.282Z,english_483.wav,0,0,1464,21,2,Chinese,f,7,0.7,-61.92265371,0.85022642
WWH,17,0,2024-06-13T06:55:29.282Z,english_483.wav,0,0,1464,21,2,Chinese,f,8,0.8,-8.76713856,0.89668703
WWH,17,0,2024-06-13T06:55:29.282Z,english_483.wav,0,0,1464,21,2,Chinese,f,9,0.9,-10.35003035,0.92354333
WWH,17,0,2024-06-13T06:55:29.282Z,english_483.wav,0,0,1464,21,2,Chinese,f,10,1,30.44811047,0.32093747
WWH,17,0,2024-06-13T06:55:29.282Z,english_483.wav,0,0,1464,21,2,Chinese,f,11,1.09391667,58.404663,0.85640019
WWH,18,0,2024-06-13T06:55:29.282Z,english_22.wav,0,0,1647,21,2,Chinese,f,0,0,70.18292814,0.28551441
WWH,18,0,2024-06-13T06:55:29.282Z,english_22.wav,0,0,1647,21,2,Chinese,f,1,0.1,-80.96999494,0.4027703
WWH,18,0,2024-06-13T06:55:29.282Z,english_22.wav,0,0,1647,21,2,Chinese,f,2,0.2,-35.97807487,0.92085021
WWH,18,0,2024-06-13T06:55:29.282Z,english_22.wav,0,0,1647,21,2,Chinese,f,3,0.3,-50.77912628,0.28132548
WWH,18,0,2024-06-13T06:55:29.282Z,english_22.wav,0,0,1647,21,2,Chinese,f,4,0.4,45.67027718,1.60569992
WWH,18,0,2024-06-13T06:55:29.282Z,english_22.wav,0,0,1647,21,2,Chinese,f,5,0.5,93.75980346,1.16285663
WWH,18,0,2024-06-13T06:55:29.282Z,english_22.wav,0,0,1647,21,2,Chinese,f,6,0.6,-60.5710335,1.00744398
WWH,18,0,2024-06-13T06:55:29.282Z,english_22.wav,0,0,1647,21,2,Chinese,f,7,0.7,-35.42669747,0.58521518
WWH,18,0,2024-06-13T06:55:29.282Z,english_22.wav,0,0,1647,21,2,Chinese,f,8,0.8,84.37918603,0.90086295
WWH,18,0,2024-06-13T06:55:29.282Z,english_22.wav,0,0,1647,21,2,Chinese,f,9,0.9,-3.38291766,0.69217241
WWH,18,0,2024-06-13T06:55:29.282Z,english_22.wav,0,0,1647,21,2,Chinese,f,10,1,-36.07509244,1.456266
WWH,18,0,2024-06-13T06:55:29.282Z,english_22.wav,0,0,1647,21,2,Chinese,f,11,1.09391667,-43.05429972,0.26376925
WWH,19,0,2024-06-13T06:55:29.282Z,english_685.wav,0,1,492,21,2,Chinese,f,0,0,62.22235335,0.91642602
WWH,19,0,2024-06-13T06:55:29.282Z,english_685.wav,0,1,492,21,2,Chinese,f,1,0.1,-97.11025465,1.72329218
WWH,19,0,2024-06-13T06:55:29.282Z,english_685.wav,0,1,492,21,2,Chinese,f,2,0.2,72.03160739,1.99088782
WWH,19,0,2024-06-13T06:55:29.282Z,english_685.wav,0,1,492,21,2,Chinese,f,3,0.3,40.47895004,0.00501952
WWH,19,0,2024-06-13T06:55:29.282Z,english_685.wav,0,1,492,21,2,Chinese,f,4,0.4,-75.64985874,1.41330373
WWH,19,0,2024-06-13T06:55:29.282Z,english_685.wav,0,1,492,21,2,Chinese,f,5,0.5,-62.21115329,0.58310659
WWH,19,0,2024-06-13T06:55:29.282Z,english_685.wav,0,1,492,21,2,Chinese,f,6,0.6,34.38722215,1.5248844
WWH,19,0,2024-06-13T06:55:29.282Z,english_685.wav,0,1,492,21,2,Chinese,f,7,0.7,96.86141958,0.15841589
WWH,19,0,2024-06-13T06:55:29.282Z,english_685.wav,0,1,492,21,2,Chinese,f,8,0.8,52.32592552,1.39576372
WWH,19,0,2024-06-13T06:55:29.282Z,english_685.wav,0,1,492,21,2,Chinese,f,9,0.9,47.74773781,1.97205737
WWH,19,0,2024-06-13T06:55:29.282Z,english_685.wav,0,1,492,21,2,Chinese,f,10,1,37.75239805,1.24408728
WWH,19,0,2024-06-13T06:55:29.282Z,english_685.wav,0,1,492,21,2,Chinese,f,11,1.09391667,-10.16077912,1.54258522
WWH,20,0,2024-06-13T06:55:29.282Z,english_162.wav,0,0,1037,21,2,Chinese,f,0,0,26.55716136,1.5554451
WWH,20,0,2024-06-13T06:55:29.282Z,english_162.wav,0,0,1037,21,2,Chinese,f,1,0.1,11.82804586,0.73276272
WWH,20,0,2024-06-13T06:55:29.282Z,english_162.wav,0,0,1037,21,2,Chinese,f,2,0.2,-23.9414726,1.80328422
WWH,20,0,2024-06-13T06:55:29.282Z,english_162.wav,0,0,1037,21,2,Chinese,f,3,0.3,-1.71566049,0.92347316
WWH,20,0,2024-06-13T06:55:29.282Z,english_162.wav,0,0,1037,21,2,Chinese,f,4,0.4,-19.44382046,0.80698984
WWH,20,0,2024-06-13T06:55:29.282Z,english_162.wav,0,0,1037,21,2,Chinese,f,5,0.5,-4.89650776,1.82055232
WWH,20,0,2024-06-13T06:55:29.282Z,english_162.wav,0,0,1037,21,2,Chinese,f,6,0.6,-86.90887997,1.9917578
WWH,20,0,2024-06-13T06:55:29.282Z,english_162.wav,0,0,1037,21,2,Chinese,f,7,0.7,-2.56378327,0.80582965
WWH,20,0,2024-06-13T06:55:29.282Z,english_162.wav,0,0,1037,21,2,Chinese,f,8,0.8,6.4232906,1.51404022
WWH,20,0,2024-06-13T06:55:29.282Z,english_162.wav,0,0,1037,21,2,Chinese,f,9,0.9,85.15737342,0.66169756
WWH,20,0,2024-06-13T06:55:29.282Z,english_162.wav,0,0,1037,21,2,Chinese,f,10,1,86.70536365,0.35533471
WWH,20,0,2024-06-13T06:55:29.282Z,english_162.wav,0,0,1037,21,2,Chinese,f,11,1.09391667,85.58259912,1.22719758
WWH,21,0,2024-06-13T06:55:29.282Z,english_118.wav,0,0,968,21,2,Chinese,f,0,0,37.82351895,1.3762948
WWH,21,0,2024-06-13T06:55:29.282Z,english_118.wav,0,0,968,21,2,Chinese,f,1,0.1,-67.70818615,0.33841533
WWH,21,0,2024-06-13T06:55:29.282Z,english_118.wav,0,0,968,21,2,Chinese,f,2,0.2,68.69944334,0.45852716
WWH,21,0,2024-06-13T06:55:29.282Z,english_118.wav,0,0,968,21,2,Chinese,f,3,0.3,52.36371426,1.7289391
WWH,21,0,2024-06-13T06:55:29.282Z,english_118.wav,0,0,968,21,2,Chinese,f,4,0.4,75.26535893,1.37893215
WWH,21,0,2024-06-13T06:55:29.282Z,english_118.wav,0,0,968,21,2,Chinese,f,5,0.5,-76.41094454,1.61108602
WWH,21,0,2024-06-13T06:55:29.282Z,english_118.wav,0,0,968,21,2,Chinese,f,6,0.6,0.45465547,0.84685901
WWH,21,0,2024-06-13T06:55:29.282Z,english_118.wav,0,0,968,21,2,Chinese,f,7,0.7,55.44753482,1.08403972
WWH,21,0,2024-06-13T06:55:29.282Z,english_118.wav,0,0,968,21,2,Chinese,f,8,0.8,-53.17394643,0.42004792
WWH,21,0,2024-06-13T06:55:29.282Z,english_118.wav,0,0,968,21,2,Chinese,f,9,0.9,-98.70911392,0.56823128
WWH,21,0,2024-06-13T06:55:29.282Z,english_118.wav,0,0,968,21,2,Chinese,f,10,1,-4.73000909,1.43622179
WWH,21,0,2024-06-13T06:55:29.282Z,english_118.wav,0,0,968,21,2,Chinese,f,11,1.09391667,-39.29610214,1.0044269
WWH,22,0,2024-06-13T06:55:29.282Z,english_435.wav,0,0,863,21,2,Chinese,f,0,0,-31.13269848,0.87360856
WWH,22,0,2024-06-13T06:55:29.282Z,english_435.wav,0,0,863,21,2,Chinese,f,1,0.1,92.06970246,0.90374027
WWH,22,0,2024-06-13T06:55:29.282Z,english_435.wav,0,0,863,21,2,Chinese,f,2,0.2,-23.49616722,0.13869042
WWH,22,0,2024-06-13T06:55:29.282Z,english_435.wav,0,0,863,21,2,Chinese,f,3,0.3,28.69293566,0.36148201
WWH,22,0,2024-06-13T06:55:29.282Z,english_435.wav,0,0,863,21,2,Chinese,f,4,0.4,91.13017666,1.64954246
WWH,22,0,2024-06-13T06:55:29.282Z,english_435.wav,0,0,863,21,2,Chinese,f,5,0.5,73.01983282,0.8333488
WWH,22,0,2024-06-13T06:55:29.282Z,english_435.wav,0,0,863,21,2,Chinese,f,6,0.6,26.94870672,0.92769237
WWH,22,0,2024-06-13T06:55:29.282Z,english_435.wav,0,0,863,21,2,Chinese,f,7,0.7,-17.86331575,0.23890126
WWH,22,0,2024-06-13T06:55:29.282Z,english_435.wav,0,0,863,21,2,Chinese,f,8,0.8,-12.47586644,0.53709856
WWH,22,0,2024-06-13T06:55:29.282Z,english_435.wav,0,0,863,21,2,Chinese,f,9,0.9,-45.803678,1.33606874
WWH,22,0,2024-06-13T06:55:29.282Z,english_435.wav,0,0,863,21,2,Chinese,f,10,1,12.54092013,1.23901183
WWH,22,0,2024-06-13T06:55:29.282Z,english_435.wav,0,0,863,21,2,Chinese,f,11,1.09391667,96.00954818,0.13308527
WWH,23,0,2024-06-13T06:55:29.282Z,english_938.wav,0,1,656,21,2,Chinese,f,0,0,-53.63878643,0.25625638
WWH,23,0,2024-06-13T06:55:29.282Z,english_938.wav,0,1,656,21,2,Chinese,f,1,0.1,-38.8400944,1.23524187
WWH,23,0,2024-06-13T06:55:29.282Z,english_938.wav,0,1,656,21,2,Chinese,f,2,0.2,-9.87265498,0.81990957
WWH,23,0,2024-06-13T06:55:29.282Z,english_938.wav,0,1,656,21,2,Chinese,f,3,0.3,16.2059687,1.45712995
WWH,23,0,2024-06-13T06:55:29.282Z,english_938.wav,0,1,656,21,2,Chinese,f,4,0.4,-90.53563301,0.4819737
WWH,23,0,2024-06-13T06:55:29.282Z,english_938.wav,0,1,656,21,2,Chinese,f,5,0.5,64.72350929,0.32505179
WWH,23,0,2024-06-13T06:55:29.282Z,english_938.wav,0,1,656,21,2,Chinese,f,6,0.6,-52.05654387,1.44150274
WWH,23,0,2024-06-13T06:55:29.282Z,english_938.wav,0,1,656,21,2,Chinese,f,7,0.7,-42.35049902,1.58605202
WWH,23,0,2024-06-13T06:55:29.282Z,english_938.wav,0,1,656,21,2,Chinese,f,8,0.8,32.88204039,0.48300943
WWH,23,0,2024-06-13T06:55:29.282Z,english_938.wav,0,1,656,21,2,Chinese,f,9,0.9,-86.42075109,1.19049872
WWH,23,0,2024-06-13T06:55:29.282Z,english_938.wav,0,1,656,21,2,Chinese,f,10,1,31.2389269,1.85243238
WWH,23,0,2024-06-13T06:55:29.282Z,english_938.wav,0,1,656,21,2,Chinese,f,11,1.09391667,-10.13697021,0.92208217
WWH,24,0,2024-06-13T06:55:29.282Z,english_303.wav,0,0,727,21,2,Chinese,f,0,0,0.14016308,1.85835187
WWH,24,0,2024-06-13T06:55:29.282Z,english_303.wav,0,0,727,21,2,Chinese,f,1,0.1,-44.5758284,0.39450132
WWH,24,0,2024-06-13T06:55:29.282Z,english_303.wav,0,0,727,21,2,Chinese,f,2,0.2,40.18240402,0.24238742
WWH,24,0,2024-06-13T06:55:29.282Z,english_303.wav,0,0,727,21,2,Chinese,f,3,0.3,-39.07989996,0.56764068
WWH,24,0,2024-06-13T06:55:29.282Z,english_303.wav,0,0,727,21,2,Chinese,f,4,0.4,67.80800806,1.20233096
WWH,24,0,2024-06-13T06:55:29.282Z,english_303.wav,0,0,727,21,2,Chinese,f,5,0.5,17.65490848,0.74682504
WWH,24,0,2024-06-13T06:55:29.282Z,english_303.wav,0,0,727,21,2,Chinese,f,6,0.6,58.57137806,1.26635068
WWH,24,0,2024-06-13T06:55:29.282Z,english_303.wav,0,0,727,21,2,Chinese,f,7,0.7,-9.36157139,0.78955625
WWH,24,0,2024-06-13T06:55:29.282Z,english_303.wav,0,0,727,21,2,Chinese,f,8,0.8,-59.59223338,0.64317534
WWH,24,0,2024-06-13T06:55:29.282Z,english_303.wav,0,0,727,21,2,Chinese,f,9,0.9,-85.34182112,0.64803316
WWH,24,0,2024-06-13T06:55:29.282Z,english_303.wav,0,0,727,21,2,Chinese,f,10,1,98.58496987,0.59787494
WWH,24,0,2024-06-13T06:55:29.282Z,english_303.wav,0,0,727,21,2,Chinese,f,11,1.09391667,0.30898467,1.47452335
WWH,25,0,2024-06-13T06:55:29.282Z,english_834.wav,0,1,381,21,2,Chinese,f,0,0,-86.16375599,1.62153397
WWH,25,0,2024-06-13T06:55:29.282Z,english_834.wav,0,1,381,21,2,Chinese,f,1,0.1,-22.09919923,1.42577166
WWH,25,0,2024-06-13T06:55:29.282Z,english_834.wav,0,1,381,21,2,Chinese,f,2,0.2,63.82090938,1.22840095
WWH,25,0,2024-06-13T06:55:29.282Z,english_834.wav,0,1,381,21,2,Chinese,f,3,0.3,38.26115817,1.977843
WWH,25,0,2024-06-13T06:55:29.282Z,english_834.wav,0,1,381,21,2,Chinese,f,4,0.4,15.19654457,0.63466945
WWH,25,0,2024-06-13T06:55:29.282Z,english_834.wav,0,1,381,21,2,Chinese,f,5,0.5,78.054871,1.94429469
WWH,25,0,2024-06-13T06:55:29.282Z,english_834.wav,0,1,381,21,2,Chinese,f,6,0.6,63.1081572,0.531594
WWH,25,0,2024-06-13T06:55:29.282Z,english_834.wav,0,1,381,21,2,Chinese,f,7,0.7,43.43236214,1.34157161
WWH,25,0,2024-06-13T06:55:29.282Z,english_834.wav,0,1,381,21,2,Chinese,f,8,0.8,-74.3897683,1.32269287
WWH,25,0,2024-06-13T06:55:29.282Z,english_834.wav,0,1,381,21,2,Chinese,f,9,0.9,40.24285486,1.75386624
WWH,25,0,2024-06-13T06:55:29.282Z,english_834.wav,0,1,381,21,2,Chinese,f,10,1,-67.71571624,1.01238939
WWH,25,0,2024-06-13T06:55:29.282Z,english_834.wav,0,1,381,21,2,Chinese,f,11,1.09391667,40.03958616,1.44306133
WWH,26,0,2024-06-13T06:55:29.282Z,english_590.wav,0,0,400,21,2,Chinese,f,0,0,24.53986414,1.78897409
WWH,26,0,2024-06-13T06:55:29.282Z,english_590.wav,0,0,400,21,2,Chinese,f,1,0.1,62.74729121,1.71743114
WWH,26,0,2024-06-13T06:55:29.282Z,english_590.wav,0,0,400,21,2,Chinese,f,2,0.2,-6.99692864,1.45844579
WWH,26,0,2024-06-13T06:55:29.282Z,english_590.wav,0,0,400,21,2,Chinese,f,3,0.3,32.91070415,0.05079794
WWH,26,0,2024-06-13T06:55:29.282Z,english_590.wav,0,0,400,21,2,Chinese,f,4,0.4,54.80975448,1.44685897
WWH,26,0,2024-06-13T06:55:29.282Z,english_590.wav,0,0,400,21,2,Chinese,f,5,0.5,24.32530029,0.6322235
WWH,26,0,2024-06-13T06:55:29.282Z,english_590.wav,0,0,400,21,2,Chinese,f,6,0.6,16.29432048,1.01805408
WWH,26,0,2024-06-13T06:55:29.282Z,english_590.wav,0,0,400,21,2,Chinese,f,7,0.7,-66.06817006,0.32502854
WWH,26,0,2024-06-13T06:55:29.282Z,english_590.wav,0,0,400,21,2,Chinese,f,8,0.8,-90.96676801,1.20600442
WWH,26,0,2024-06-13T06:55:29.282Z,english_590.wav,0,0,400,21,2,Chinese,f,9,0.9,-4.67977612,0.69143843
WWH,26,0,2024-06-13T06:55:29.282Z,english_590.wav,0,0,400,21,2,Chinese,f,10,1,-25.79105575,0.12523546
WWH,26,0,2024-06-13T06:55:29.282Z,english_590.wav,0,0,400,21,2,Chinese,f,11,1.09391667,-43.70584136,1.95537842
WWH,27,0,2024-06-13T06:55:29.282Z,english_704.wav,0,0,860,21,2,Chinese,f,0,0,-66.86347245,1.10852805
WWH,27,0,2024-06-13T06:55:29.282Z,english_704.wav,0,0,860,21,2,Chinese,f,1,0.1,-33.45070856,1.50534643
WWH,27,0,2024-06-13T06:55:29.282Z,english_704.wav,0,0,860,21,2,Chinese,f,2,0.2,98.95748792,1.36402955
WWH,27,0,2024-06-13T06:55:29.282Z,english_704.wav,0,0,860,21,2,Chinese,f,3,0.3,40.39124026,1.09402875
WWH,27,0,2024-06-13T06:55:29.282Z,english_704.wav,0,0,860,21,2,Chinese,f,4,0.4,76.62361043,0.97410313
WWH,27,0,2024-06-13T06:55:29.282Z,english_704.wav,0,0,860,21,2,Chinese,f,5,0.5,61.00109246,1.19276443
WWH,27,0,2024-06-13T06:55:29.282Z,english_704.wav,0,0,860,21,2,Chinese,f,6,0.6,24.61875858,0.71178311
WWH,27,0,2024-06-13T06:55:29.282Z,english_704.wav,0,0,860,21,2,Chinese,f,7,0.7,32.51289689,1.62027576
WWH,27,0,2024-06-13T06:55:29.282Z,english_704.wav,0,0,860,21,2,Chinese,f,8,0.8,93.51972076,1.01576623
WWH,27,0,2024-06-13T06:55:29.282Z,english_704.wav,0,0,860,21,2,Chinese,f,9,0.9,43.30633586,0.07371268
WWH,27,0,2024-06-13T06:55:29.282Z,english_704.wav,0,0,860,21,2,Chinese,f,10,1,5.62352462,0.93560494
WWH,27,0,2024-06-13T06:55:29.282Z,english_704.wav,0,0,860,21,2,Chinese,f,11,1.09391667,87.81172513,0.13780059
WWH,28,0,2024-06-13T06:55:29.282Z,english_492.wav,0,1,773,21,2,Chinese,f,0,0,-29.9472328,1.28534899
WWH,28,0,2024-06-13T06:55:29.282Z,english_492.wav,0,1,773,21,2,Chinese,f,1,0.1,35.33010824,1.03908978
WWH,28,0,2024-06-13T06:55:29.282Z,english_492.wav,0,1,773,21,2,Chinese,f,2,0.2,-3.45968041,1.26033893
WWH,28,0,2024-06-13T06:55:29.282Z,english_492.wav,0,1,773,21,2,Chinese,f,3,0.3,59.06456756,0.39463808
WWH,28,0,2024-06-13T06:55:29.282Z,english_492.wav,0,1,773,21,2,Chinese,f,4,0.4,98.23949624,0.21276087
WWH,28,0,2024-06-13T06:55:29.282Z,english_492.wav,0,1,773,21,2,Chinese,f,5,0.5,-1.48270349,0.25205409
WWH,28,0,2024-06-13T06:55:29.282Z,english_492.wav,0,1,773,21,2,Chinese,f,6,0.6,-1.72219507,0.58596557
WWH,28,0,2024-06-13T06:55:29.282Z,english_492.wav,0,1,773,21,2,Chinese,f,7,0.7,12.69106909,1.49088879
WWH,28,0,2024-06-13T06:55:29.282Z,english_492.wav,0,1,773,21,2,Chinese,f,8,0.8,-21.74180351,1.5225112
WWH,28,0,2024-06-13T06:55:29.282Z,english_492.wav,0,1,773,21,2,Chinese,f,9,0.9,-33.92370757,0.13189423
WWH,28,0,2024-06-13T06:55:29.282Z,english_492.wav,0,1,773,21,2,Chinese,f,10,1,37.93162517,0.89918189
WWH,28,0,2024-06-13T06:55:29.282Z,english_492.wav,0,1,773,21,2,Chinese,f,11,1.09391667,-90.75179354,1.07142866
WWH,29,0,2024-06-13T06:55:29.282Z,english_620.wav,0,1,1155,21,2,Chinese,f,0,0,70.25249287,1.60927754
WWH,29,0,2024-06-13T06:55:29.282Z,english_620.wav,0,1,1155,21,2,Chinese,f,1,0.1,-54.17403538,0.35556605
WWH,29,0,2024-06-13T06:55:29.282Z,english_620.wav,0,1,1155,21,2,Chinese,f,2,0.2,-24.27909239,1.04145572
WWH,29,0,2024-06-13T06:55:29.282Z,english_620.wav,0,1,1155,21,2,Chinese,f,3,0.3,-72.34505274,1.98653049
WWH,29,0,2024-06-13T06:55:29.282Z,english_620.wav,0,1,1155,21,2,Chinese,f,4,0.4,-84.16228676,0.35027861
WWH,29,0,2024-06-13T06:55:29.282Z,english_620.wav,0,1,1155,21,2,Chinese,f,5,0.5,-50.29822256,1.43135392
WWH,29,0,2024-06-13T06:55:29.282Z,english_620.wav,0,1,1155,21,2,Chinese,f,6,0.6,87.34344189,1.2880573
WWH,29,0,2024-06-13T06:55:29.282Z,english_620.wav,0,1,1155,21,2,Chinese,f,7,0.7,-51.38543443,1.68116405
WWH,29,0,2024-06-13T06:55:29.282Z,english_620.wav,0,1,1155,21,2,Chinese,f,8,0.8,40.7028666,1.8236964
WWH,29,0,2024-06-13T06:55:29.282Z,english_620.wav,0,1,1155,21,2,Chinese,f,9,0.9,-95.70979416,0.04712506
WWH,29,0,2024-06-13T06:55:29.282Z,english_620.wav,0,1,1155,21,2,Chinese,f,10,1,95.25950338,1.86928379
WWH,29,0,2024-06-13T06:55:29.282Z,english_620.wav,0,1,1155,21,2,Chinese,f,11,1.09391667,-68.50782959,0.75081121
WWH,30,0,2024-06-13T06:55:29.282Z,english_652.wav,0,1,764,21,2,Chinese,f,0,0,-6.47134423,1.78340321
WWH,30,0,2024-06-13T06:55:29.282Z,english_652.wav,0,1,764,21,2,Chinese,f,1,0.1,15.08810971,1.37348527
WWH,30,0,2024-06-13T06:55:29.282Z,english_652.wav,0,1,764,21,2,Chinese,f,2,0.2,98.29631383,0.90438715
WWH,30,0,2024-06-13T06:55:29.282Z,english_652.wav,0,1,764,21,2,Chinese,f,3,0.3,30.58339985,0.90448146
WWH,30,0,2024-06-13T06:55:29.282Z,english_652.wav,0,1,764,21,2,Chinese,f,4,0.4,-6.30529528,0.6194213
WWH,30,0,2024-06-13T06:55:29.282Z,english_652.wav,0,1,764,21,2,Chinese,f,5,0.5,-44.5601624,1.03986034
WWH,30,0,2024-06-13T06:55:29.282Z,english_652.wav,0,1,764,21,2,Chinese,f,6,0.6,4.47931007,0.52762796
WWH,30,0,2024-06-13T06:55:29.282Z,english_652.wav,0,1,764,21,2,Chinese,f,7,0.7,-52.28319513,0.92865907
WWH,30,0,2024-06-13T06:55:29.282Z,english_652.wav,0,1,764,21,2,Chinese,f,8,0.8,17.6405793,1.28477406
WWH,30,0,2024-06-13T06:55:29.282Z,english_652.wav,0,1,764,21,2,Chinese,f,9,0.9,2.7192508,1.34724363
WWH,30,0,2024-06-13T06:55:29.282Z,english_652.wav,0,1,764,21,2,Chinese,f,10,1,-8.76412426,1.76490877
WWH,30,0,2024-06-13T06:55:29.282Z,english_652.wav,0,1,764,21,2,Chinese,f,11,1.09391667,53.37366327,1.20575877
WWH,31,0,2024-06-13T06:55:29.282Z,english_977.wav,0,1,1299,21,2,Chinese,f,0,0,45.32437977,1.51258306
WWH,31,0,2024-06-13T06:55:29.282Z,english_977.wav,0,1,1299,21,2,Chinese,f,1,0.1,31.46444726,1.62107879
WWH,31,0,2024-06-13T06:55:29.282Z,english_977.wav,0,1,1299,21,2,Chinese,f,2,0.2,7.78815071,0.80620837
WWH,31,0,2024-06-13T06:55:29.282Z,english_977.wav,0,1,1299,21,2,Chinese,f,3,0.3,-38.46709342,1.66578012
WWH,31,0,2024-06-13T06:55:29.282Z,english_977.wav,0,1,1299,21,2,Chinese,f,4,0.4,-43.12628929,0.5028638
WWH,31,0,2024-06-13T06:55:29.282Z,english_977.wav,0,1,1299,21,2,Chinese,f,5,0.5,-60.3999411,1.57064844
WWH,31,0,2024-06-13T06:55:29.282Z,english_977.wav,0,1,1299,21,2,Chinese,f,6,0.6,38.30873417,1.43046029
WWH,31,0,2024-06-13T06:55:29.282Z,english_977.wav,0,1,1299,21,2,Chinese,f,7,0.7,-32.30937365,0.97320454
WWH,31,0,2024-06-13T06:55:29.282Z,english_977.wav,0,1,1299,21,2,Chinese,f,8,0.8,-13.91730907,0.87874216
WWH,31,0,2024-06-13T06:55:29.282Z,english_977.wav,0,1,1299,21,2,Chinese,f,9,0.9,-81.54845422,1.41826341
WWH,31,0,2024-06-13T06:55:29.282Z,english_977.wav,0,1,1299,21,2,Chinese,f,10,1,29.31026278,0.04715706
WWH,31,0,2024-06-13T06:55:29.282Z,english_977.wav,0,1,1299,21,2,Chinese,f,11,1.09391667,34.6707146,1.45727151
WWH,32,0,2024-06-13T06:55:29.282Z,english_639.wav,0,1,1396,21,2,Chinese,f,0,0,5.56347498,1.83509432
WWH,32,0,2024-06-13T06:55:29.282Z,english_639.wav,0,1,1396,21,2,Chinese,f,1,0.1,75.73661073,0.44211572
WWH,32,0,2024-06-13T06:55:29.282Z,english_639.wav,0,1,1396,21,2,Chinese,f,2,0.2,-90.85300276,1.03578017
WWH,32,0,2024-06-13T06:55:29.282Z,english_639.wav,0,1,1396,21,2,Chinese,f,3,0.3,-28.02471483,0.46973677
WWH,32,0,2024-06-13T06:55:29.282Z,english_639.wav,0,1,1396,21,2,Chinese,f,4,0.4,-62.26468724,0.54820752
WWH,32,0,2024-06-13T06:55:29.282Z,english_639.wav,0,1,1396,21,2,Chinese,f,5,0.5,17.80250947,0.51964922
WWH,32,0,2024-06-13T06:55:29.282Z,english_639.wav,0,1,1396,21,2,Chinese,f,6,0.6,29.29879682,0.06117772
WWH,32,0,2024-06-13T06:55:29.282Z,english_639.wav,0,1,1396,21,2,Chinese,f,7,0.7,-6.14897809,0.67480304
WWH,32,0,2024-06-13T06:55:29.282Z,english_639.wav,0,1,1396,21,2,Chinese,f,8,0.8,-11.9254819,0.85869346
WWH,32,0,2024-06-13T06:55:29.282Z,english_639.wav,0,1,1396,21,2,Chinese,f,9,0.9,6.20327944,1.90136883
WWH,32,0,2024-06-13T06:55:29.282Z,english_639.wav,0,1,1396,21,2,Chinese,f,10,1,-44.51875699,1.31276151
WWH,32,0,2024-06-13T06:55:29.282Z,english_639.wav,0,1,1396,21,2,Chinese,f,11,1.09391667,52.00361599,1.93524577
WWH,33,0,2024-06-13T06:55:29.282Z,english_389.wav,0,0,799,21,2,Chinese,f,0,0,-27.92030451,1.81186154
WWH,33,0,2024-06-13T06:55:29.282Z,english_389.wav,0,0,799,21,2,Chinese,f,1,0.1,-46.10796153,1.54804085
WWH,33,0,2024-06-13T06:55:29.282Z,english_389.wav,0,0,799,21,2,Chinese,f,2,0.2,29.27243325,0.55488288
WWH,33,0,2024-06-13T06:55:29.282Z,english_389.wav,0,0,799,21,2,Chinese,f,3,0.3,-81.13766006,1.00824624
WWH,33,0,2024-06-13T06:55:29.282Z,english_389.wav,0,0,799,21,2,Chinese,f,4,0.4,-25.00115648,1.07224035
WWH,33,0,2024-06-13T06:55:29.282Z,english_389.wav,0,0,799,21,2,Chinese,f,5,0.5,-17.10951233,0.42212287
WWH,33,0,2024-06-13T06:55:29.282Z,english_389.wav,0,0,799,21,2,Chinese,f,6,0.6,15.83507298,1.0440142
WWH,33,0,2024-06-13T06:55:29.282Z,english_389.wav,0,0,799,21,2,Chinese,f,7,0.7,79.29241289,1.00958508
WWH,33,0,2024-06-13T06:55:29.282Z,english_389.wav,0,0,799,21,2,Chinese,f,8,0.8,27.96570621,0.92707182
WWH,33,0,2024-06-13T06:55:29.282Z,english_389.wav,0,0,799,21,2,Chinese,f,9,0.9,-91.92786914,1.30621654
WWH,33,0,2024-06-13T06:55:29.282Z,english_389.wav,0,0,799,21,2,Chinese,f,10,1,39.38033895,1.4968603
WWH,33,0,2024-06-13T06:55:29.282Z,english_389.wav,0,0,799,21,2,Chinese,f,11,1.09391667,-32.92969944,0.53867672
WWH,34,0,2024-06-13T06:55:29.282Z,english_299.wav,0,0,757,21,2,Chinese,f,0,0,-74.4174694,1.88606728
WWH,34,0,2024-06-13T06:55:29.282Z,english_299.wav,0,0,757,21,2,Chinese,f,1,0.1,67.95279973,1.33791825
WWH,34,0,2024-06-13T06:55:29.282Z,english_299.wav,0,0,757,21,2,Chinese,f,2,0.2,-39.20846612,1.49728268
WWH,34,0,2024-06-13T06:55:29.282Z,english_299.wav,0,0,757,21,2,Chinese,f,3,0.3,75.10442899,0.10286405
WWH,34,0,2024-06-13T06:55:29.282Z,english_299.wav,0,0,757,21,2,Chinese,f,4,0.4,64.17156696,0.88852199
WWH,34,0,2024-06-13T06:55:29.282Z,english_299.wav,0,0,757,21,2,Chinese,f,5,0.5,-42.38450544,0.77437708
WWH,34,0,2024-06-13T06:55:29.282Z,english_299.wav,0,0,757,21,2,Chinese,f,6,0.6,-86.29317574,1.38211023
WWH,34,0,2024-06-13T06:55:29.282Z,english_299.wav,0,0,757,21,2,Chinese,f,7,0.7,11.40905892,1.00427558
WWH,34,0,2024-06-13T06:55:29.282Z,english_299.wav,0,0,757,21,2,Chinese,f,8,0.8,13.2984643,1.53256025
WWH,34,0,2024-06-13T06:55:29.282Z,english_299.wav,0,0,757,21,2,Chinese,f,9,0.9,-36.56440039,1.00789046
WWH,34,0,2024-06-13T06:55:29.282Z,english_299.wav,0,0,757,21,2,Chinese,f,10,1,-93.57212319,0.84413966
WWH,34,0,2024-06-13T06:55:29.282Z,english_299.wav,0,0,757,21,2,Chinese,f,11,1.09391667,13.37429031,1.54480909
WWH,35,0,2024-06-13T06:55:29.282Z,english_743.wav,0,0,1676,21,2,Chinese,f,0,0,97.77122609,0.40936323
WWH,35,0,2024-06-13T06:55:29.282Z,english_743.wav,0,0,1676,21,2,Chinese,f,1,0.1,75.39760322,0.83333714
WWH,35,0,2024-06-13T06:55:29.282Z,english_743.wav,0,0,1676,21,2,Chinese,f,2,0.2,-92.56300928,1.9299588
WWH,35,0,2024-06-13T06:55:29.282Z,english_743.wav,0,0,1676,21,2,Chinese,f,3,0.3,73.60734954,0.31044819
WWH,35,0,2024-06-13T06:55:29.282Z,english_743.wav,0,0,1676,21,2,Chinese,f,4,0.4,84.82420222,1.11112706
WWH,35,0,2024-06-13T06:55:29.282Z,english_743.wav,0,0,1676,21,2,Chinese,f,5,0.5,-57.35733587,0.30641345
WWH,35,0,2024-06-13T06:55:29.282Z,english_743.wav,0,0,1676,21,2,Chinese,f,6,0.6,36.05799571,1.79191215
WWH,35,0,2024-06-13T06:55:29.282Z,english_743.wav,0,0,1676,21,2,Chinese,f,7,0.7,-80.10781894,1.43353199
WWH,35,0,2024-06-13T06:55:29.282Z,english_743.wav,0,0,1676,21,2,Chinese,f,8,0.8,79.81818761,0.61341243
WWH,35,0,2024-06-13T06:55:29.282Z,english_743.wav,0,0,1676,21,2,Chinese,f,9,0.9,71.53815245,1.6920607
WWH,35,0,2024-06-13T06:55:29.282Z,english_743.wav,0,0,1676,21,2,Chinese,f,10,1,39.3075371,0.85862509
WWH,35,0,2024-06-13T06:55:29.282Z,english_743.wav,0,0,1676,21,2,Chinese,f,11,1.09391667,85.61049635,0.78833379
WWH,36,0,2024-06-13T06:55:29.282Z,english_460.wav,0,1,806,21,2,Chinese,f,0,0,93.59161919,1.32448893
WWH,36,0,2024-06-13T06:55:29.282Z,english_460.wav,0,1,806,21,2,Chinese,f,1,0.1,-36.24487207,0.9079638
WWH,36,0,2024-06-13T06:55:29.282Z,english_460.wav,0,1,806,21,2,Chinese,f,2,0.2,34.29182357,1.36589638
WWH,36,0,2024-06-13T06:55:29.282Z,english_460.wav,0,1,806,21,2,Chinese,f,3,0.3,-43.77936624,1.17890341
WWH,36,0,2024-06-13T06:55:29.282Z,english_460.wav,0,1,806,21,2,Chinese,f,4,0.4,69.60343368,0.38929886
WWH,36,0,2024-06-13T06:55:29.282Z,english_460.wav,0,1,806,21,2,Chinese,f,5,0.5,56.68710737,0.99526671
WWH,36,0,2024-06-13T06:55:29.282Z,english_460.wav,0,1,806,21,2,Chinese,f,6,0.6,-24.24220062,0.46581759
WWH,36,0,2024-06-13T06:55:29.282Z,english_460.wav,0,1,806,21,2,Chinese,f,7,0.7,-78.58314977,0.29943683
WWH,36,0,2024-06-13T06:55:29.282Z,english_460.wav,0,1,806,21,2,Chinese,f,8,0.8,-13.26257127,1.99375882
WWH,36,0,2024-06-13T06:55:29.282Z,english_460.wav,0,1,806,21,2,Chinese,f,9,0.9,33.19824363,1.82666883
WWH,36,0,2024-06-13T06:55:29.282Z,english_460.wav,0,1,806,21,2,Chinese,f,10,1,-40.08512875,1.5352094
WWH,36,0,2024-06-13T06:55:29.282Z,english_460.wav,0,1,806,21,2,Chinese,f,11,1.09391667,22.89045037,1.53552889
WWH,37,0,2024-06-13T06:55:29.282Z,english_925.wav,0,1,888,21,2,Chinese,f,0,0,-84.57233467,1.00848694
WWH,37,0,2024-06-13T06:55:29.282Z,english_925.wav,0,1,888,21,2,Chinese,f,1,0.1,-44.7314948,0.79986677
WWH,37,0,2024-06-13T06:55:29.282Z,english_925.wav,0,1,888,21,2,Chinese,f,2,0.2,-21.76001852,1.01395723
WWH,37,0,2024-06-13T06:55:29.282Z,english_925.wav,0,1,888,21,2,Chinese,f,3,0.3,58.94026315,0.40578686
WWH,37,0,2024-06-13T06:55:29.282Z,english_925.wav,0,1,888,21,2,Chinese,f,4,0.4,68.109547,1.18343794
WWH,37,0,2024-06-13T06:55:29.282Z,english_925.wav,0,1,888,21,2,Chinese,f,5,0.5,49.84786379,0.73791716
WWH,37,0,2024-06-13T06:55:29.282Z,english_925.wav,0,1,888,21,2,Chinese,f,6,0.6,60.87486089,0.58895249
WWH,37,0,2024-06-13T06:55:29.282Z,english_925.wav,0,1,888,21,2,Chinese,f,7,0.7,50.05197286,0.92214068
WWH,37,0,2024-06-13T06:55:29.282Z,english_925.wav,0,1,888,21,2,Chinese,f,8,0.8,83.62089831,1.8971644
WWH,37,0,2024-06-13T06:55:29.282Z,english_925.wav,0,1,888,21,2,Chinese,f,9,0.9,-6.54901241,1.57717007
WWH,37,0,2024-06-13T06:55:29.282Z,english_925.wav,0,1,888,21,2,Chinese,f,10,1,59.32339342,1.06930768
WWH,37,0,2024-06-13T06:55:29.282Z,english_925.wav,0,1,888,21,2,Chinese,f,11,1.09391667,-66.08603468,1.74149988
WWH,38,0,2024-06-13T06:55:29.282Z,english_211.wav,0,0,952,21,2,Chinese,f,0,0,-80.71487731,0.76887991
WWH,38,0,2024-06-13T06:55:29.282Z,english_211.wav,0,0,952,21,2,Chinese,f,1,0.1,-84.93103541,0.20306802
WWH,38,0,2024-06-13T06:55:29.282Z,english_211.wav,0,0,952,21,2,Chinese,f,2,0.2,44.45354712,0.68006184
WWH,38,0,2024-06-13T06:55:29.282Z,english_211.wav,0,0,952,21,2,Chinese,f,3,0.3,93.3584913,1.00051335
WWH,38,0,2024-06-13T06:55:29.282Z,english_211.wav,0,0,952,21,2,Chinese,f,4,0.4,-88.5655354,1.99828121
WWH,38,0,2024-06-13T06:55:29.282Z,english_211.wav,0,0,952,21,2,Chinese,f,5,0.5,58.50265478,0.71004269
WWH,38,0,2024-06-13T06:55:29.282Z,english_211.wav,0,0,952,21,2,Chinese,f,6,0.6,42.72435837,1.91299509
WWH,38,0,2024-06-13T06:55:29.282Z,english_211.wav,0,0,952,21,2,Chinese,f,7,0.7,15.71938112,1.01891246
WWH,38,0,2024-06-13T06:55:29.282Z,english_211.wav,0,0,952,21,2,Chinese,f,8,0.8,7.70597987,1.53959141
WWH,38,0,2024-06-13T06:55:29.282Z,english_211.wav,0,0,952,21,2,Chinese,f,9,0.9,-16.73581283,1.64058726
WWH,38,0,2024-06-13T06:55:29.282Z,english_211.wav,0,0,952,21,2,Chinese,f,10,1,-59.877834,1.4823545
WWH,38,0,2024-06-13T06:55:29.282Z,english_211.wav,0,0,952,21,2,Chinese,f,11,1.09391667,39.92997673,1.39164399
WWH,39,0,2024-06-13T06:55:29.282Z,english_643.wav,0,0,764,21,2,Chinese,f,0,0,-28.71923325,0.05998695
WWH,39,0,2024-06-13T06:55:29.282Z,english_643.wav,0,0,764,21,2,Chinese,f,1,0.1,-41.33033256,1.69509995
WWH,39,0,2024-06-13T06:55:29.282Z,english_643.wav,0,0,764,21,2,Chinese,f,2,0.2,14.60836996,1.2304272
WWH,39,0,2024-06-13T06:55:29.282Z,english_643.wav,0,0,764,21,2,Chinese,f,3,0.3,24.53811626,1.46168191
WWH,39,0,2024-06-13T06:55:29.282Z,english_643.wav,0,0,764,21,2,Chinese,f,4,0.4,7.82813988,1.6429412
WWH,39,0,2024-06-13T06:55:29.282Z,english_643.wav,0,0,764,21,2,Chinese,f,5,0.5,31.13275889,1.01913146
WWH,39,0,2024-06-13T06:55:29.282Z,english_643.wav,0,0,764,21,2,Chinese,f,6,0.6,9.00223054,0.81472246
WWH,39,0,2024-06-13T06:55:29.282Z,english_643.wav,0,0,764,21,2,Chinese,f,7,0.7,65.97905996,0.51197957
WWH,39,0,2024-06-13T06:55:29.282Z,english_643.wav,0,0,764,21,2,Chinese,f,8,0.8,3.77456402,0.97348527
WWH,39,0,2024-06-13T06:55:29.282Z,english_643.wav,0,0,764,21,2,Chinese,f,9,0.9,20.70026816,0.6370084
WWH,39,0,2024-06-13T06:55:29.282Z,english_643.wav,0,0,764,21,2,Chinese,f,10,1,98.54762674,0.00532383
WWH,39,0,2024-06-13T06:55:29.282Z,english_643.wav,0,0,764,21,2,Chinese,f,11,1.09391667,74.26815163,1.21089253
WWH,40,0,2024-06-13T06:55:29.282Z,english_515.wav,0,0,1070,21,2,Chinese,f,0,0,-58.23176372,1.22843541
WWH,40,0,2024-06-13T06:55:29.282Z,english_515.wav,0,0,1070,21,2,Chinese,f,1,0.1,-76.45173976,1.63015901
WWH,40,0,2024-06-13T06:55:29.282Z,english_515.wav,0,0,1070,21,2,Chinese,f,2,0.2,25.49902523,1.20813881
WWH,40,0,2024-06-13T06:55:29.282Z,english_515.wav,0,0,1070,21,2,Chinese,f,3,0.3,5.27103545,0.47612476
WWH,40,0,2024-06-13T06:55:29.282Z,english_515.wav,0,0,1070,21,2,Chinese,f,4,0.4,-41.64983344,0.26545174
WWH,40,0,2024-06-13T06:55:29.282Z,english_515.wav,0,0,1070,21,2,Chinese,f,5,0.5,-51.29888172,1.8557412
WWH,40,0,2024-06-13T06:55:29.282Z,english_515.wav,0,0,1070,21,2,Chinese,f,6,0.6,65.36966432,0.81547092
WWH,40,0,2024-06-13T06:55:29.282Z,english_515.wav,0,0,1070,21,2,Chinese,f,7,0.7,-56.17839976,1.63185656
WWH,40,0,2024-06-13T06:55:29.282Z,english_515.wav,0,0,1070,21,2,Chinese,f,8,0.8,-12.23547481,0.09263004
WWH,40,0,2024-06-13T06:55:29.282Z,english_515.wav,0,0,1070,21,2,Chinese,f,9,0.9,-89.1418522,1.76127396
WWH,40,0,2024-06-13T06:55:29.282Z,english_515.wav,0,0,1070,21,2,Chinese,f,10,1,8.96872742,0.57224671
WWH,40,0,2024-06-13T06:55:29.282Z,english_515.wav,0,0,1070,21,2,Chinese,f,11,1.09391667,-18.30503433,1.26155121
WWH,41,0,2024-06-13T06:55:29.282Z,english_651.wav,0,0,801,21,2,Chinese,f,0,0,-91.34539462,1.93962683
WWH,41,0,2024-06-13T06:55:29.282Z,english_651.wav,0,0,801,21,2,Chinese,f,1,0.1,-1.38504973,0.25281252
WWH,41,0,2024-06-13T06:55:29.282Z,english_651.wav,0,0,801,21,2,Chinese,f,2,0.2,2.05125073,0.90917451
WWH,41,0,2024-06-13T06:55:29.282Z,english_651.wav,0,0,801,21,2,Chinese,f,3,0.3,-5.20837211,0.6157456
WWH,41,0,2024-06-13T06:55:29.282Z,english_651.wav,0,0,801,21,2,Chinese,f,4,0.4,30.89438942,0.48487698
WWH,41,0,2024-06-13T06:55:29.282Z,english_651.wav,0,0,801,21,2,Chinese,f,5,0.5,-28.36589971,1.14423933
WWH,41,0,2024-06-13T06:55:29.282Z,english_651.wav,0,0,801,21,2,Chinese,f,6,0.6,-42.97374851,0.91557091
WWH,41,0,2024-06-13T06:55:29.282Z,english_651.wav,0,0,801,21,2,Chinese,f,7,0.7,-56.55365324,1.50856564
WWH,41,0,2024-06-13T06:55:29.282Z,english_651.wav,0,0,801,21,2,Chinese,f,8,0.8,3.73861638,0.47177544
WWH,41,0,2024-06-13T06:55:29.282Z,english_651.wav,0,0,801,21,2,Chinese,f,9,0.9,-2.43332653,0.09479279
WWH,41,0,2024-06-13T06:55:29.282Z,english_651.wav,0,0,801,21,2,Chinese,f,10,1,-73.16332477,0.24018528
WWH,41,0,2024-06-13T06:55:29.282Z,english_651.wav,0,0,801,21,2,Chinese,f,11,1.09391667,61.30377091,0.24667973
WWH,42,0,2024-06-13T06:55:29.282Z,english_307.wav,0,1,444,21,2,Chinese,f,0,0,4.09277184,1.54634017
WWH,42,0,2024-06-13T06:55:29.282Z,english_307.wav,0,1,444,21,2,Chinese,f,1,0.1,-55.10651609,1.62042314
WWH,42,0,2024-06-13T06:55:29.282Z,english_307.wav,0,1,444,21,2,Chinese,f,2,0.2,40.66104674,0.53651735
WWH,42,0,2024-06-13T06:55:29.282Z,english_307.wav,0,1,444,21,2,Chinese,f,3,0.3,25.01631041,1.3289867
WWH,42,0,2024-06-13T06:55:29.282Z,english_307.wav,0,1,444,21,2,Chinese,f,4,0.4,-83.19534886,1.20481488
WWH,42,0,2024-06-13T06:55:29.282Z,english_307.wav,0,1,444,21,2,Chinese,f,5,0.5,50.47121196,0.91135424
WWH,42,0,2024-06-13T06:55:29.282Z,english_307.wav,0,1,444,21,2,Chinese,f,6,0.6,-23.06520129,0.34154344
WWH,42,0,2024-06-13T06:55:29.282Z,english_307.wav,0,1,444,21,2,Chinese,f,7,0.7,6.60696351,0.77838965
WWH,42,0,2024-06-13T06:55:29.282Z,english_307.wav,0,1,444,21,2,Chinese,f,8,0.8,32.78812168,1.52188148
WWH,42,0,2024-06-13T06:55:29.282Z,english_307.wav,0,1,444,21,2,Chinese,f,9,0.9,-29.8510749,1.3469183
WWH,42,0,2024-06-13T06:55:29.282Z,english_307.wav,0,1,444,21,2,Chinese,f,10,1,-51.20036712,0.11286505
WWH,42,0,2024-06-13T06:55:29.282Z,english_307.wav,0,1,444,21,2,Chinese,f,11,1.09391667,-34.31103599,1.9894596
WWH,43,0,2024-06-13T06:55:29.282Z,english_267.wav,0,0,913,21,2,Chinese,f,0,0,-20.34373052,1.22339913
WWH,43,0,2024-06-13T06:55:29.282Z,english_267.wav,0,0,913,21,2,Chinese,f,1,0.1,-8.01422086,0.37157124
WWH,43,0,2024-06-13T06:55:29.282Z,english_267.wav,0,0,913,21,2,Chinese,f,2,0.2,93.04230665,0.88881734
WWH,43,0,2024-06-13T06:55:29.282Z,english_267.wav,0,0,913,21,2,Chinese,f,3,0.3,41.74649662,0.98806935
WWH,43,0,2024-06-13T06:55:29.282Z,english_267.wav,0,0,913,21,2,Chinese,f,4,0.4,-13.67169735,1.63374899
WWH,43,0,2024-06-13T06:55:29.282Z,english_267.wav,0,0,913,21,2,Chinese,f,5,0.5,42.92753135,1.27803897
WWH,43,0,2024-06-13T06:55:29.282Z,english_267.wav,0,0,913,21,2,Chinese,f,6,0.6,-31.66614436,0.65843477
WWH,43,0,2024-06-13T06:55:29.282Z,english_267.wav,0,0,913,21,2,Chinese,f,7,0.7,-46.69110061,1.12503577
WWH,43,0,2024-06-13T06:55:29.282Z,english_267.wav,0,0,913,21,2,Chinese,f,8,0.8,96.69640531,1.26069156
WWH,43,0,2024-06-13T06:55:29.282Z,english_267.wav,0,0,913,21,2,Chinese,f,9,0.9,-51.1349073,0.35873403
WWH,43,0,2024-06-13T06:55:29.282Z,english_267.wav,0,0,913,21,2,Chinese,f,10,1,-31.48458059,1.24202174
WWH,43,0,2024-06-13T06:55:29.282Z,english_267.wav,0,0,913,21,2,Chinese,f,11,1.09391667,82.51520959,1.58881388
WWH,44,0,2024-06-13T06:55:29.282Z,english_914.wav,0,0,590,21,2,Chinese,f,0,0,38.978205,0.35912604
WWH,44,0,2024-06-13T06:55:29.282Z,english_914.wav,0,0,590,21,2,Chinese,f,1,0.1,87.18341185,1.3669236
WWH,44,0,2024-06-13T06:55:29.282Z,english_914.wav,0,0,590,21,2,Chinese,f,2,0.2,15.47005822,0.84210071
WWH,44,0,2024-06-13T06:55:29.282Z,english_914.wav,0,0,590,21,2,Chinese,f,3,0.3,29.25641776,0.05134094
WWH,44,0,2024-06-13T06:55:29.282Z,english_914.wav,0,0,590,21,2,Chinese,f,4,0.4,-96.55134364,1.13395744
WWH,44,0,2024-06-13T06:55:29.282Z,english_914.wav,0,0,590,21,2,Chinese,f,5,0.5,-89.29155074,0.79197201
WWH,44,0,2024-06-13T06:55:29.282Z,english_914.wav,0,0,590,21,2,Chinese,f,6,0.6,-61.94858481,0.91379793
WWH,44,0,2024-06-13T06:55:29.282Z,english_914.wav,0,0,590,21,2,Chinese,f,7,0.7,-73.41037345,1.19795288
WWH,44,0,2024-06-13T06:55:29.282Z,english_914.wav,0,0,590,21,2,Chinese,f,8,0.8,-99.30720203,1.39899474
WWH,44,0,2024-06-13T06:55:29.282Z,english_914.wav,0,0,590,21,2,Chinese,f,9,0.9,81.02685233,0.56128817
WWH,44,0,2024-06-13T06:55:29.282Z,english_914.wav,0,0,590,21,2,Chinese,f,10,1,-61.71265148,1.38071697
WWH,44,0,2024-06-13T06:55:29.282Z,english_914.wav,0,0,590,21,2,Chinese,f,11,1.09391667,-35.17076378,1.53641314
WWH,45,0,2024-06-13T06:55:29.282Z,english_43.wav,0,0,748,21,2,Chinese,f,0,0,35.0853305,0.26027887
WWH,45,0,2024-06-13T06:55:29.282Z,english_43.wav,0,0,748,21,2,Chinese,f,1,0.1,-82.31052455,0.68956967
WWH,45,0,2024-06-13T06:55:29.282Z,english_43.wav,0,0,748,21,2,Chinese,f,2,0.2,-87.01844832,1.59168544
WWH,45,0,2024-06-13T06:55:29.282Z,english_43.wav,0,0,748,21,2,Chinese,f,3,0.3,35.19386066,0.50064201
WWH,45,0,2024-06-13T06:55:29.282Z,english_43.wav,0,0,748,21,2,Chinese,f,4,0.4,-6.50663416,1.69386915
WWH,45,0,2024-06-13T06:55:29.282Z,english_43.wav,0,0,748,21,2,Chinese,f,5,0.5,-43.93611532,1.13933047
WWH,45,0,2024-06-13T06:55:29.282Z,english_43.wav,0,0,748,21,2,Chinese,f,6,0.6,-73.49805581,1.51065435
WWH,45,0,2024-06-13T06:55:29.282Z,english_43.wav,0,0,748,21,2,Chinese,f,7,0.7,65.62731204,0.46562499
WWH,45,0,2024-06-13T06:55:29.282Z,english_43.wav,0,0,748,21,2,Chinese,f,8,0.8,-40.13292878,1.37756628
WWH,45,0,2024-06-13T06:55:29.282Z,english_43.wav,0,0,748,21,2,Chinese,f,9,0.9,-82.04161205,0.8121578
WWH,45,0,2024-06-13T06:55:29.282Z,english_43.wav,0,0,748,21,2,Chinese,f,10,1,51.94207196,0.36046396
WWH,45,0,2024-06-13T06:55:29.282Z,english_43.wav,0,0,748,21,2,Chinese,f,11,1.09391667,-30.06023569,0.31346917
WWH,46,0,2024-06-13T06:55:29.282Z,english_555.wav,0,0,413,21,2,Chinese,f,0,0,-34.01174322,1.1718484
WWH,46,0,2024-06-13T06:55:29.282Z,english_555.wav,0,0,413,21,2,Chinese,f,1,0.1,-25.89446117,1.62544238
WWH,46,0,2024-06-13T06:55:29.282Z,english_555.wav,0,0,413,21,2,Chinese,f,2,0.2,75.37641555,1.85861965
WWH,46,0,2024-06-13T06:55:29.282Z,english_555.wav,0,0,413,21,2,Chinese,f,3,0.3,3.6750175,1.93143492
WWH,46,0,2024-06-13T06:55:29.282Z,english_555.wav,0,0,413,21,2,Chinese,f,4,0.4,-77.72739176,0.30173375
WWH,46,0,2024-06-13T06:55:29.282Z,english_555.wav,0,0,413,21,2,Chinese,f,5,0.5,-17.06538868,1.28363733
WWH,46,0,2024-06-13T06:55:29.282Z,english_555.wav,0,0,413,21,2,Chinese,f,6,0.6,-37.567139,0.51060309
WWH,46,0,2024-06-13T06:55:29.282Z,english_555.wav,0,0,413,21,2,Chinese,f,7,0.7,-79.94552452,0.80092252
WWH,46,0,2024-06-13T06:55:29.282Z,english_555.wav,0,0,413,21,2,Chinese,f,8,0.8,29.48505151,1.44732027
WWH,46,0,2024-06-13T06:55:29.282Z,english_555.wav,0,0,413,21,2,Chinese,f,9,0.9,-58.857953,0.65157835
WWH,46,0,2024-06-13T06:55:29.282Z,english_555.wav,0,0,413,21,2,Chinese,f,10,1,-46.0054019,1.65986599
WWH,46,0,2024-06-13T06:55:29.282Z,english_555.wav,0,0,413,21,2,Chinese,f,11,1.09391667,-89.97133458,1.34311871
WWH,47,0,2024-06-13T06:55:29.282Z,english_265.wav,0,0,697,21,2,Chinese,f,0,0,37.99619851,0.51044294
WWH,47,0,2024-06-13T06:55:29.282Z,english_265.wav,0,0,697,21,2,Chinese,f,1,0.1,92.08310578,1.10850201
WWH,47,0,2024-06-13T06:55:29.282Z,english_265.wav,0,0,697,21,2,Chinese,f,2,0.2,-93.31608335,1.81697716
WWH,47,0,2024-06-13T06:55:29.282Z,english_265.wav,0,0,697,21,2,Chinese,f,3,0.3,-28.1732534,0.4401458
WWH,47,0,2024-06-13T06:55:29.282Z,english_265.wav,0,0,697,21,2,Chinese,f,4,0.4,91.25662543,1.00027347
WWH,47,0,2024-06-13T06:55:29.282Z,english_265.wav,0,0,697,21,2,Chinese,f,5,0.5,-3.3980371,0.61680146
WWH,47,0,2024-06-13T06:55:29.282Z,english_265.wav,0,0,697,21,2,Chinese,f,6,0.6,95.45543469,0.45035358
WWH,47,0,2024-06-13T06:55:29.282Z,english_265.wav,0,0,697,21,2,Chinese,f,7,0.7,61.34311925,0.66686517
WWH,47,0,2024-06-13T06:55:29.282Z,english_265.wav,0,0,697,21,2,Chinese,f,8,0.8,9.18146154,0.25031529
WWH,47,0,2024-06-13T06:55:29.282Z,english_265.wav,0,0,697,21,2,Chinese,f,9,0.9,-39.71464373,1.2364051
WWH,47,0,2024-06-13T06:55:29.282Z,english_265.wav,0,0,697,21,2,Chinese,f,10,1,67.37466109,0.23430361
WWH,47,0,2024-06-13T06:55:29.282Z,english_265.wav,0,0,697,21,2,Chinese,f,11,1.09391667,-37.66383284,1.07797595
WWH,48,0,2024-06-13T06:55:29.282Z,english_166.wav,0,1,2024,21,2,Chinese,f,0,0,-22.47224396,0.79935629
WWH,48,0,2024-06-13T06:55:29.282Z,english_166.wav,0,1,2024,21,2,Chinese,f,1,0.1,8.34418228,1.08766258
WWH,48,0,2024-06-13T06:55:29.282Z,english_166.wav,0,1,2024,21,2,Chinese,f,2,0.2,-26.80375044,0.88793969
WWH,48,0,2024-06-13T06:55:29.282Z,english_166.wav,0,1,2024,21,2,Chinese,f,3,0.3,-25.22426401,1.85581966
WWH,48,0,2024-06-13T06:55:29.282Z,english_166.wav,0,1,2024,21,2,Chinese,f,4,0.4,-44.17860095,1.74261815
WWH,48,0,2024-06-13T06:55:29.282Z,english_166.wav,0,1,2024,21,2,Chinese,f,5,0.5,-7.8395137,0.67828824
WWH,48,0,2024-06-13T06:55:29.282Z,english_166.wav,0,1,2024,21,2,Chinese,f,6,0.6,42.03338864,0.30993225
WWH,48,0,2024-06-13T06:55:29.282Z,english_166.wav,0,1,2024,21,2,Chinese,f,7,0.7,50.48936268,1.83209491
WWH,48,0,2024-06-13T06:55:29.282Z,english_166.wav,0,1,2024,21,2,Chinese,f,8,0.8,-79.33283531,1.96795539
WWH,48,0,2024-06-13T06:55:29.282Z,english_166.wav,0,1,2024,21,2,Chinese,f,9,0.9,57.67304972,0.73278394
WWH,48,0,2024-06-13T06:55:29.282Z,english_166.wav,0,1,2024,21,2,Chinese,f,10,1,75.92662412,1.69577801
WWH,48,0,2024-06-13T06:55:29.282Z,english_166.wav,0,1,2024,21,2,Chinese,f,11,1.09391667,-5.06556073,0.31756742
WWH,49,0,2024-06-13T06:55:29.282Z,english_608.wav,0,0,599,21,2,Chinese,f,0,0,51.7664081,1.51537713
WWH,49,0,2024-06-13T06:55:29.282Z,english_608.wav,0,0,599,21,2,Chinese,f,1,0.1,-80.54246428,0.15028224
WWH,49,0,2024-06-13T06:55:29.282Z,english_608.wav,0,0,599,21,2,Chinese,f,2,0.2,-77.98130797,1.81254149
WWH,49,0,2024-06-13T06:55:29.282Z,english_608.wav,0,0,599,21,2,Chinese,f,3,0.3,25.40612748,1.88904665
WWH,49,0,2024-06-13T06:55:29.282Z,english_608.wav,0,0,599,21,2,Chinese,f,4,0.4,-25.13261416,0.02307613
WWH,49,0,2024-06-13T06:55:29.282Z,english_608.wav,0,0,599,21,2,Chinese,f,5,0.5,-47.23330204,1.59293411
WWH,49,0,2024-06-13T06:55:29.282Z,english_608.wav,0,0,599,21,2,Chinese,f,6,0.6,80.77508225,1.34709582
WWH,49,0,2024-06-13T06:55:29.282Z,english_608.wav,0,0,599,21,2,Chinese,f,7,0.7,-91.19719701,0.43937258
WWH,49,0,2024-06-13T06:55:29.282Z,english_608.wav,0,0,599,21,2,Chinese,f,8,0.8,-56.07696763,1.30698023
WWH,49,0,2024-06-13T06:55:29.282Z,english_608.wav,0,0,599,21,2,Chinese,f,9,0.9,-57.98593589,1.72852212
WWH,49,0,2024-06-13T06:55:29.282Z,english_608.wav,0,0,599,21,2,Chinese,f,10,1,87.03595353,1.13440146
WWH,49,0,2024-06-13T06:55:29.282Z,english_608.wav,0,0,599,21,2,Chinese,f,11,1.09391667,-36.96026424,1.09789882
WWH,50,1,2024-06-13T06:55:29.282Z,english_774.wav,0,1,558,21,2,Chinese,f,0,0,38.7876064,0.43642058
WWH,50,1,2024-06-13T06:55:29.282Z,english_774.wav,0,1,558,21,2,Chinese,f,1,0.1,-21.79427352,1.59194207
WWH,50,1,2024-06-13T06:55:29.282Z,english_774.wav,0,1,558,21,2,Chinese,f,2,0.2,-78.67296896,1.92489987
WWH,50,1,2024-06-13T06:55:29.282Z,english_774.wav,0,1,558,21,2,Chinese,f,3,0.3,-75.97471041,1.73224365
WWH,50,1,2024-06-13T06:55:29.282Z,english_774.wav,0,1,558,21,2,Chinese,f,4,0.4,-9.72862999,0.83130124
WWH,50,1,2024-06-13T06:55:29.282Z,english_774.wav,0,1,558,21,2,Chinese,f,5,0.5,-62.72542351,0.05776376
WWH,50,1,2024-06-13T06:55:29.282Z,english_774.wav,0,1,558,21,2,Chinese,f,6,0.6,-92.46329741,0.22257067
WWH,50,1,2024-06-13T06:55:29.282Z,english_774.wav,0,1,558,21,2,Chinese,f,7,0.7,9.68208163,0.82578939
WWH,50,1,2024-06-13T06:55:29.282Z,english_774.wav,0,1,558,21,2,Chinese,f,8,0.8,-31.34266524,1.91233014
WWH,50,1,2024-06-13T06:55:29.282Z,english_774.wav,0,1,558,21,2,Chinese,f,9,0.9,-62.50555476,1.41810173
WWH,50,1,2024-06-13T06:55:29.282Z,english_774.wav,0,1,558,21,2,Chinese,f,10,1,-53.48833614,1.61286395
WWH,50,1,2024-06-13T06:55:29.282Z,english_774.wav,0,1,558,21,2,Chinese,f,11,1.09391667,21.65178302,1.48005452
WWH,51,1,2024-06-13T06:55:29.282Z,english_89.wav,0,0,528,21,2,Chinese,f,0,0,44.55560521,0.83141016
WWH,51,1,2024-06-13T06:55:29.282Z,english_89.wav,0,0,528,21,2,Chinese,f,1,0.1,-38.12575075,0.73728779
WWH,51,1,2024-06-13T06:55:29.282Z,english_89.wav,0,0,528,21,2,Chinese,f,2,0.2,-85.08741113,0.76468972
WWH,51,1,2024-06-13T06:55:29.282Z,english_89.wav,0,0,528,21,2,Chinese,f,3,0.3,-34.51149373,1.40220205
WWH,51,1,2024-06-13T06:55:29.282Z,english_89.wav,0,0,528,21,2,Chinese,f,4,0.4,91.4200198,1.40801955
WWH,51,1,2024-06-13T06:55:29.282Z,english_89.wav,0,0,528,21,2,Chinese,f,5,0.5,-88.24762839,0.24508348
WWH,51,1,2024-06-13T06:55:29.282Z,english_89.wav,0,0,528,21,2,Chinese,f,6,0.6,-12.15976794,0.73331541
WWH,51,1,2024-06-13T06:55:29.282Z,english_89.wav,0,0,528,21,2,Chinese,f,7,0.7,8.11504905,1.14258486
WWH,51,1,2024-06-13T06:55:29.282Z,english_89.wav,0,0,528,21,2,Chinese,f,8,0.8,48.7516223,0.28719695
WWH,51,1,2024-06-13T06:55:29.282Z,english_89.wav,0,0,528,21,2,Chinese,f,9,0.9,-61.89417078,1.82425172
WWH,51,1,2024-06-13T06:55:29.282Z,english_89.wav,0,0,528,21,2,Chinese,f,10,1,70.08039029,1.66848997
WWH,51,1,2024-06-13T06:55:29.282Z,english_89.wav,0,0,528,21,2,Chinese,f,11,1.09391667,73.1109171,1.25647122
WWH,52,1,2024-06-13T06:55:29.282Z,english_160.wav,0,1,496,21,2,Chinese,f,0,0,54.87282188,1.23358014
WWH,52,1,2024-06-13T06:55:29.282Z,english_160.wav,0,1,496,21,2,Chinese,f,1,0.1,38.39559314,0.90117281
WWH,52,1,2024-06-13T06:55:29.282Z,english_160.wav,0,1,496,21,2,Chinese,f,2,0.2,45.94024754,1.29672558
WWH,52,1,2024-06-13T06:55:29.282Z,english_160.wav,0,1,496,21,2,Chinese,f,3,0.3,23.2538411,1.0625388
WWH,52,1,2024-06-13T06:55:29.282Z,english_160.wav,0,1,496,21,2,Chinese,f,4,0.4,-76.36457338,1.82179424
WWH,52,1,2024-06-13T06:55:29.282Z,english_160.wav,0,1,496,21,2,Chinese,f,5,0.5,-7.52503837,0.15771982
WWH,52,1,2024-06-13T06:55:29.282Z,english_160.wav,0,1,496,21,2,Chinese,f,6,0.6,-67.2018033,1.20020733
WWH,52,1,2024-06-13T06:55:29.282Z,english_160.wav,0,1,496,21,2,Chinese,f,7,0.7,40.79859053,1.72655744
WWH,52,1,2024-06-13T06:55:29.282Z,english_160.wav,0,1,496,21,2,Chinese,f,8,0.8,-54.00476677,1.68926394
WWH,52,1,2024-06-13T06:55:29.282Z,english_160.wav,0,1,496,21,2,Chinese,f,9,0.9,-39.47782367,0.81447331
WWH,52,1,2024-06-13T06:55:29.282Z,english_160.wav,0,1,496,21,2,Chinese,f,10,1,13.27455738,0.52461363
WWH,52,1,2024-06-13T06:55:29.282Z,english_160.wav,0,1,496,21,2,Chinese,f,11,1.09391667,82.72582228,1.24111221
WWH,53,1,2024-06-13T06:55:29.282Z,english_588.wav,0,0,739,21,2,Chinese,f,0,0,29.91091742,1.28287681
WWH,53,1,2024-06-13T06:55:29.282Z,english_588.wav,0,0,739,21,2,Chinese,f,1,0.1,29.9060619,1.09118729
WWH,53,1,2024-06-13T06:55:29.282Z,english_588.wav,0,0,739,21,2,Chinese,f,2,0.2,-35.2299782,0.95294685
WWH,53,1,2024-06-13T06:55:29.282Z,english_588.wav,0,0,739,21,2,Chinese,f,3,0.3,33.93454747,1.46022219
WWH,53,1,2024-06-13T06:55:29.282Z,english_588.wav,0,0,739,21,2,Chinese,f,4,0.4,16.01664829,1.6252916
WWH,53,1,2024-06-13T06:55:29.282Z,english_588.wav,0,0,739,21,2,Chinese,f,5,0.5,-18.70778189,1.19035327
WWH,53,1,2024-06-13T06:55:29.282Z,english_588.wav,0,0,739,21,2,Chinese,f,6,0.6,-97.06291502,0.90275631
WWH,53,1,2024-06-13T06:55:29.282Z,english_588.wav,0,0,739,21,2,Chinese,f,7,0.7,13.076942,0.534144
WWH,53,1,2024-06-13T06:55:29.282Z,english_588.wav,0,0,739,21,2,Chinese,f,8,0.8,50.92498955,0.26255875
WWH,53,1,2024-06-13T06:55:29.282Z,english_588.wav,0,0,739,21,2,Chinese,f,9,0.9,53.17318001,0.29008288
WWH,53,1,2024-06-13T06:55:29.282Z,english_588.wav,0,0,739,21,2,Chinese,f,10,1,52.34619788,0.99016986
WWH,53,1,2024-06-13T06:55:29.282Z,english_588.wav,0,0,739,21,2,Chinese,f,11,1.09391667,1.61294986,0.96989244
WWH,54,1,2024-06-13T06:55:29.282Z,english_391.wav,0,0,561,21,2,Chinese,f,0,0,48.72029915,1.46381994
WWH,54,1,2024-06-13T06:55:29.282Z,english_391.wav,0,0,561,21,2,Chinese,f,1,0.1,3.36267099,1.74177862
WWH,54,1,2024-06-13T06:55:29.282Z,english_391.wav,0,0,561,21,2,Chinese,f,2,0.2,-54.73892797,0.37153285
WWH,54,1,2024-06-13T06:55:29.282Z,english_391.wav,0,0,561,21,2,Chinese,f,3,0.3,-4.43599027,1.37930547
WWH,54,1,2024-06-13T06:55:29.282Z,english_391.wav,0,0,561,21,2,Chinese,f,4,0.4,-4.38697431,1.2025528
WWH,54,1,2024-06-13T06:55:29.282Z,english_391.wav,0,0,561,21,2,Chinese,f,5,0.5,12.32416895,1.41669348
WWH,54,1,2024-06-13T06:55:29.282Z,english_391.wav,0,0,561,21,2,Chinese,f,6,0.6,-35.16299901,1.90409923
WWH,54,1,2024-06-13T06:55:29.282Z,english_391.wav,0,0,561,21,2,Chinese,f,7,0.7,-18.71198536,0.35955458
WWH,54,1,2024-06-13T06:55:29.282Z,english_391.wav,0,0,561,21,2,Chinese,f,8,0.8,50.45333825,0.73524
WWH,54,1,2024-06-13T06:55:29.282Z,english_391.wav,0,0,561,21,2,Chinese,f,9,0.9,24.10808682,1.22465208
WWH,54,1,2024-06-13T06:55:29.282Z,english_391.wav,0,0,561,21,2,Chinese,f,10,1,-10.46564493,1.61244098
WWH,54,1,2024-06-13T06:55:29.282Z,english_391.wav,0,0,561,21,2,Chinese,f,11,1.09391667,6.45782967,1.66867903
WWH,55,1,2024-06-13T06:55:29.282Z,english_804.wav,0,0,650,21,2,Chinese,f,0,0,12.60054447,1.79447267
WWH,55,1,2024-06-13T06:55:29.282Z,english_804.wav,0,0,650,21,2,Chinese,f,1,0.1,-24.04730937,0.19342468
WWH,55,1,2024-06-13T06:55:29.282Z,english_804.wav,0,0,650,21,2,Chinese,f,2,0.2,-96.55390316,1.90657737
WWH,55,1,2024-06-13T06:55:29.282Z,english_804.wav,0,0,650,21,2,Chinese,f,3,0.3,-0.0991441,0.96962123
WWH,55,1,2024-06-13T06:55:29.282Z,english_804.wav,0,0,650,21,2,Chinese,f,4,0.4,-4.22567636,1.3580225
WWH,55,1,2024-06-13T06:55:29.282Z,english_804.wav,0,0,650,21,2,Chinese,f,5,0.5,70.60990728,1.75244202
WWH,55,1,2024-06-13T06:55:29.282Z,english_804.wav,0,0,650,21,2,Chinese,f,6,0.6,-70.63369163,1.0415074
WWH,55,1,2024-06-13T06:55:29.282Z,english_804.wav,0,0,650,21,2,Chinese,f,7,0.7,9.74055236,0.51929492
WWH,55,1,2024-06-13T06:55:29.282Z,english_804.wav,0,0,650,21,2,Chinese,f,8,0.8,30.38077192,0.12110661
WWH,55,1,2024-06-13T06:55:29.282Z,english_804.wav,0,0,650,21,2,Chinese,f,9,0.9,-59.11296325,0.62938559
WWH,55,1,2024-06-13T06:55:29.282Z,english_804.wav,0,0,650,21,2,Chinese,f,10,1,43.99527933,1.09820629
WWH,55,1,2024-06-13T06:55:29.282Z,english_804.wav,0,0,650,21,2,Chinese,f,11,1.09391667,50.55732952,0.96550638
WWH,56,1,2024-06-13T06:55:29.282Z,english_552.wav,0,1,938,21,2,Chinese,f,0,0,24.23901763,1.612105
WWH,56,1,2024-06-13T06:55:29.282Z,english_552.wav,0,1,938,21,2,Chinese,f,1,0.1,-68.29569332,0.23755281
WWH,56,1,2024-06-13T06:55:29.282Z,english_552.wav,0,1,938,21,2,Chinese,f,2,0.2,-76.60440788,1.12644766
WWH,56,1,2024-06-13T06:55:29.282Z,english_552.wav,0,1,938,21,2,Chinese,f,3,0.3,-14.28309722,1.6498911
WWH,56,1,2024-06-13T06:55:29.282Z,english_552.wav,0,1,938,21,2,Chinese,f,4,0.4,7.45259631,1.62705162
WWH,56,1,2024-06-13T06:55:29.282Z,english_552.wav,0,1,938,21,2,Chinese,f,5,0.5,-96.79412631,0.02108582
WWH,56,1,2024-06-13T06:55:29.282Z,english_552.wav,0,1,938,21,2,Chinese,f,6,0.6,19.00121721,0.46250888
WWH,56,1,2024-06-13T06:55:29.282Z,english_552.wav,0,1,938,21,2,Chinese,f,7,0.7,28.47093687,0.61388361
WWH,56,1,2024-06-13T06:55:29.282Z,english_552.wav,0,1,938,21,2,Chinese,f,8,0.8,-28.36467118,1.42538322
WWH,56,1,2024-06-13T06:55:29.282Z,english_552.wav,0,1,938,21,2,Chinese,f,9,0.9,27.37810517,1.50029895
WWH,56,1,2024-06-13T06:55:29.282Z,english_552.wav,0,1,938,21,2,Chinese,f,10,1,-1.36668835,0.7956711
WWH,56,1,2024-06-13T06:55:29.282Z,english_552.wav,0,1,938,21,2,Chinese,f,11,1.09391667,-10.50305513,0.62245048
WWH,57,1,2024-06-13T06:55:29.282Z,english_143.wav,0,0,556,21,2,Chinese,f,0,0,49.57787404,1.32411669
WWH,57,1,2024-06-13T06:55:29.282Z,english_143.wav,0,0,556,21,2,Chinese,f,1,0.1,18.07857637,1.28938823
WWH,57,1,2024-06-13T06:55:29.282Z,english_143.wav,0,0,556,21,2,Chinese,f,2,0.2,-4.95603362,1.776944
WWH,57,1,2024-06-13T06:55:29.282Z,english_143.wav,0,0,556,21,2,Chinese,f,3,0.3,-9.7553448,0.84910797
WWH,57,1,2024-06-13T06:55:29.282Z,english_143.wav,0,0,556,21,2,Chinese,f,4,0.4,61.69368854,1.3085087
WWH,57,1,2024-06-13T06:55:29.282Z,english_143.wav,0,0,556,21,2,Chinese,f,5,0.5,50.12830069,1.88982163
WWH,57,1,2024-06-13T06:55:29.282Z,english_143.wav,0,0,556,21,2,Chinese,f,6,0.6,61.18653055,1.48457271
WWH,57,1,2024-06-13T06:55:29.282Z,english_143.wav,0,0,556,21,2,Chinese,f,7,0.7,14.45494157,1.24491043
WWH,57,1,2024-06-13T06:55:29.282Z,english_143.wav,0,0,556,21,2,Chinese,f,8,0.8,-10.6333814,0.24786477
WWH,57,1,2024-06-13T06:55:29.282Z,english_143.wav,0,0,556,21,2,Chinese,f,9,0.9,-91.12009128,0.10794868
WWH,57,1,2024-06-13T06:55:29.282Z,english_143.wav,0,0,556,21,2,Chinese,f,10,1,-92.0599703,0.66722176
WWH,57,1,2024-06-13T06:55:29.282Z,english_143.wav,0,0,556,21,2,Chinese,f,11,1.09391667,65.42121395,1.367479
WWH,58,1,2024-06-13T06:55:29.282Z,english_452.wav,0,1,764,21,2,Chinese,f,0,0,-16.61864147,1.17401117
WWH,58,1,2024-06-13T06:55:29.282Z,english_452.wav,0,1,764,21,2,Chinese,f,1,0.1,-22.13078498,0.56539659
WWH,58,1,2024-06-13T06:55:29.282Z,english_452.wav,0,1,764,21,2,Chinese,f,2,0.2,-16.24569285,0.39679082
WWH,58,1,2024-06-13T06:55:29.282Z,english_452.wav,0,1,764,21,2,Chinese,f,3,0.3,2.20276296,1.32249954
WWH,58,1,2024-06-13T06:55:29.282Z,english_452.wav,0,1,764,21,2,Chinese,f,4,0.4,38.28427002,1.17645405
WWH,58,1,2024-06-13T06:55:29.282Z,english_452.wav,0,1,764,21,2,Chinese,f,5,0.5,-18.79047659,1.63330715
WWH,58,1,2024-06-13T06:55:29.282Z,english_452.wav,0,1,764,21,2,Chinese,f,6,0.6,78.89075327,1.91411401
WWH,58,1,2024-06-13T06:55:29.282Z,english_452.wav,0,1,764,21,2,Chinese,f,7,0.7,92.92821396,1.71360753
WWH,58,1,2024-06-13T06:55:29.282Z,english_452.wav,0,1,764,21,2,Chinese,f,8,0.8,97.94945302,1.56668356
WWH,58,1,2024-06-13T06:55:29.282Z,english_452.wav,0,1,764,21,2,Chinese,f,9,0.9,87.69669084,1.33916848
WWH,58,1,2024-06-13T06:55:29.282Z,english_452.wav,0,1,764,21,2,Chinese,f,10,1,59.46975303,0.94959461
WWH,58,1,2024-06-13T06:55:29.282Z,english_452.wav,0,1,764,21,2,Chinese,f,11,1.09391667,33.32060313,0.70317006
WWH,59,1,2024-06-13T06:55:29.282Z,english_575.wav,0,0,681,21,2,Chinese,f,0,0,-28.55246959,0.34827421
WWH,59,1,2024-06-13T06:55:29.282Z,english_575.wav,0,0,681,21,2,Chinese,f,1,0.1,-59.77879939,1.97158185
WWH,59,1,2024-06-13T06:55:29.282Z,english_575.wav,0,0,681,21,2,Chinese,f,2,0.2,2.26003832,1.72673863
WWH,59,1,2024-06-13T06:55:29.282Z,english_575.wav,0,0,681,21,2,Chinese,f,3,0.3,-92.4918711,1.89863573
WWH,59,1,2024-06-13T06:55:29.282Z,english_575.wav,0,0,681,21,2,Chinese,f,4,0.4,9.61640334,0.88005593
WWH,59,1,2024-06-13T06:55:29.282Z,english_575.wav,0,0,681,21,2,Chinese,f,5,0.5,41.99109137,0.43110597
WWH,59,1,2024-06-13T06:55:29.282Z,english_575.wav,0,0,681,21,2,Chinese,f,6,0.6,-61.89931175,0.53238875
WWH,59,1,2024-06-13T06:55:29.282Z,english_575.wav,0,0,681,21,2,Chinese,f,7,0.7,-44.26761436,1.80705755
WWH,59,1,2024-06-13T06:55:29.282Z,english_575.wav,0,0,681,21,2,Chinese,f,8,0.8,64.04805114,0.17311477
WWH,59,1,2024-06-13T06:55:29.282Z,english_575.wav,0,0,681,21,2,Chinese,f,9,0.9,-1.378942,0.39040882
WWH,59,1,2024-06-13T06:55:29.282Z,english_575.wav,0,0,681,21,2,Chinese,f,10,1,15.99079472,1.45544499
WWH,59,1,2024-06-13T06:55:29.282Z,english_575.wav,0,0,681,21,2,Chinese,f,11,1.09391667,-36.72459502,0.54722728
WWH,60,1,2024-06-13T06:55:29.282Z,english_793.wav,0,1,621,21,2,Chinese,f,0,0,-39.70617561,0.49970472
WWH,60,1,2024-06-13T06:55:29.282Z,english_793.wav,0,1,621,21,2,Chinese,f,1,0.1,-29.28823244,0.64262829
WWH,60,1,2024-06-13T06:55:29.282Z,english_793.wav,0,1,621,21,2,Chinese,f,2,0.2,-89.65836103,1.52317209
WWH,60,1,2024-06-13T06:55:29.282Z,english_793.wav,0,1,621,21,2,Chinese,f,3,0.3,9.66432805,0.03732268
WWH,60,1,2024-06-13T06:55:29.282Z,english_793.wav,0,1,621,21,2,Chinese,f,4,0.4,46.78400104,0.76197013
WWH,60,1,2024-06-13T06:55:29.282Z,english_793.wav,0,1,621,21,2,Chinese,f,5,0.5,77.17847788,1.20681543
WWH,60,1,2024-06-13T06:55:29.282Z,english_793.wav,0,1,621,21,2,Chinese,f,6,0.6,65.90216738,0.39643945
WWH,60,1,2024-06-13T06:55:29.282Z,english_793.wav,0,1,621,21,2,Chinese,f,7,0.7,19.02180402,0.55038392
WWH,60,1,2024-06-13T06:55:29.282Z,english_793.wav,0,1,621,21,2,Chinese,f,8,0.8,4.99424524,0.97724905
WWH,60,1,2024-06-13T06:55:29.282Z,english_793.wav,0,1,621,21,2,Chinese,f,9,0.9,95.94113908,1.29198989
WWH,60,1,2024-06-13T06:55:29.282Z,english_793.wav,0,1,621,21,2,Chinese,f,10,1,5.28849012,1.94187371
WWH,60,1,2024-06-13T06:55:29.282Z,english_793.wav,0,1,621,21,2,Chinese,f,11,1.09391667,-28.1855206,0.04726533
WWH,61,1,2024-06-13T06:55:29.282Z,english_766.wav,0,1,626,21,2,Chinese,f,0,0,42.94713727,0.47626881
WWH,61,1,2024-06-13T06:55:29.282Z,english_766.wav,0,1,626,21,2,Chinese,f,1,0.1,28.30886199,1.1713526
WWH,61,1,2024-06-13T06:55:29.282Z,english_766.wav,0,1,626,21,2,Chinese,f,2,0.2,1.2264226,1.74074018
WWH,61,1,2024-06-13T06:55:29.282Z,english_766.wav,0,1,626,21,2,Chinese,f,3,0.3,-18.98827785,1.46451689
WWH,61,1,2024-06-13T06:55:29.282Z,english_766.wav,0,1,626,21,2,Chinese,f,4,0.4,56.2842172,1.82010581
WWH,61,1,2024-06-13T06:55:29.282Z,english_766.wav,0,1,626,21,2,Chinese,f,5,0.5,-36.10050509,0.06402892
WWH,61,1,2024-06-13T06:55:29.282Z,english_766.wav,0,1,626,21,2,Chinese,f,6,0.6,-35.32176748,1.19039401
WWH,61,1,2024-06-13T06:55:29.282Z,english_766.wav,0,1,626,21,2,Chinese,f,7,0.7,-60.08162155,1.08978002
WWH,61,1,2024-06-13T06:55:29.282Z,english_766.wav,0,1,626,21,2,Chinese,f,8,0.8,89.09432849,1.1905248
WWH,61,1,2024-06-13T06:55:29.282Z,english_766.wav,0,1,626,21,2,Chinese,f,9,0.9,19.08224966,1.93919958
WWH,61,1,2024-06-13T06:55:29.282Z,english_766.wav,0,1,626,21,2,Chinese,f,10,1,-35.22352631,1.038365
WWH,61,1,2024-06-13T06:55:29.282Z,english_766.wav,0,1,626,21,2,Chinese,f,11,1.09391667,-47.26773358,0.66318898
WWH,62,1,2024-06-13T06:55:29.282Z,english_710.wav,0,0,668,21,2,Chinese,f,0,0,-39.30636168,1.80624949
WWH,62,1,2024-06-13T06:55:29.282Z,english_710.wav,0,0,668,21,2,Chinese,f,1,0.1,-97.6674904,0.47182227
WWH,62,1,2024-06-13T06:55:29.282Z,english_710.wav,0,0,668,21,2,Chinese,f,2,0.2,64.09122161,0.70971527
WWH,62,1,2024-06-13T06:55:29.282Z,english_710.wav,0,0,668,21,2,Chinese,f,3,0.3,75.88571101,0.05116828
WWH,62,1,2024-06-13T06:55:29.282Z,english_710.wav,0,0,668,21,2,Chinese,f,4,0.4,-88.52762731,1.76085876
WWH,62,1,2024-06-13T06:55:29.282Z,english_710.wav,0,0,668,21,2,Chinese,f,5,0.5,82.62720899,0.52858011
WWH,62,1,2024-06-13T06:55:29.282Z,english_710.wav,0,0,668,21,2,Chinese,f,6,0.6,-76.34366579,0.11108823
WWH,62,1,2024-06-13T06:55:29.282Z,english_710.wav,0,0,668,21,2,Chinese,f,7,0.7,-8.69440278,1.51710045
WWH,62,1,2024-06-13T06:55:29.282Z,english_710.wav,0,0,668,21,2,Chinese,f,8,0.8,-70.02409217,1.27546604
WWH,62,1,2024-06-13T06:55:29.282Z,english_710.wav,0,0,668,21,2,Chinese,f,9,0.9,57.25294742,0.25600017
WWH,62,1,2024-06-13T06:55:29.282Z,english_710.wav,0,0,668,21,2,Chinese,f,10,1,-12.57900879,0.70194387
WWH,62,1,2024-06-13T06:55:29.282Z,english_710.wav,0,0,668,21,2,Chinese,f,11,1.09391667,58.69693709,0.08256398
WWH,63,1,2024-06-13T06:55:29.282Z,english_112.wav,0,0,1097,21,2,Chinese,f,0,0,49.45259009,1.41914206
WWH,63,1,2024-06-13T06:55:29.282Z,english_112.wav,0,0,1097,21,2,Chinese,f,1,0.1,26.00670844,1.08420532
WWH,63,1,2024-06-13T06:55:29.282Z,english_112.wav,0,0,1097,21,2,Chinese,f,2,0.2,-62.78053013,1.90864959
WWH,63,1,2024-06-13T06:55:29.282Z,english_112.wav,0,0,1097,21,2,Chinese,f,3,0.3,13.64858628,0.00296714
WWH,63,1,2024-06-13T06:55:29.282Z,english_112.wav,0,0,1097,21,2,Chinese,f,4,0.4,-46.53502922,0.2257171
WWH,63,1,2024-06-13T06:55:29.282Z,english_112.wav,0,0,1097,21,2,Chinese,f,5,0.5,55.2952107,1.98382605
WWH,63,1,2024-06-13T06:55:29.282Z,english_112.wav,0,0,1097,21,2,Chinese,f,6,0.6,-37.49134954,0.39764394
WWH,63,1,2024-06-13T06:55:29.282Z,english_112.wav,0,0,1097,21,2,Chinese,f,7,0.7,9.25181319,1.10443659
WWH,63,1,2024-06-13T06:55:29.282Z,english_112.wav,0,0,1097,21,2,Chinese,f,8,0.8,52.76907871,0.52917173
WWH,63,1,2024-06-13T06:55:29.282Z,english_112.wav,0,0,1097,21,2,Chinese,f,9,0.9,40.19984459,0.39475588
WWH,63,1,2024-06-13T06:55:29.282Z,english_112.wav,0,0,1097,21,2,Chinese,f,10,1,72.4009261,0.72882938
WWH,63,1,2024-06-13T06:55:29.282Z,english_112.wav,0,0,1097,21,2,Chinese,f,11,1.09391667,-65.62688247,0.87807842
WWH,64,1,2024-06-13T06:55:29.282Z,english_159.wav,0,1,695,21,2,Chinese,f,0,0,-27.71132793,0.45552689
WWH,64,1,2024-06-13T06:55:29.282Z,english_159.wav,0,1,695,21,2,Chinese,f,1,0.1,5.67043956,1.85865221
WWH,64,1,2024-06-13T06:55:29.282Z,english_159.wav,0,1,695,21,2,Chinese,f,2,0.2,-56.04116861,1.36292014
WWH,64,1,2024-06-13T06:55:29.282Z,english_159.wav,0,1,695,21,2,Chinese,f,3,0.3,-60.647669,0.8196748
WWH,64,1,2024-06-13T06:55:29.282Z,english_159.wav,0,1,695,21,2,Chinese,f,4,0.4,-31.28235293,1.14454104
WWH,64,1,2024-06-13T06:55:29.282Z,english_159.wav,0,1,695,21,2,Chinese,f,5,0.5,-41.95968639,0.2708192
WWH,64,1,2024-06-13T06:55:29.282Z,english_159.wav,0,1,695,21,2,Chinese,f,6,0.6,-46.83352467,0.67466027
WWH,64,1,2024-06-13T06:55:29.282Z,english_159.wav,0,1,695,21,2,Chinese,f,7,0.7,-6.87168688,0.75914602
WWH,64,1,2024-06-13T06:55:29.282Z,english_159.wav,0,1,695,21,2,Chinese,f,8,0.8,-38.22542966,0.8772758
WWH,64,1,2024-06-13T06:55:29.282Z,english_159.wav,0,1,695,21,2,Chinese,f,9,0.9,29.71030145,1.24753926
WWH,64,1,2024-06-13T06:55:29.282Z,english_159.wav,0,1,695,21,2,Chinese,f,10,1,-44.77576274,1.52106538
WWH,64,1,2024-06-13T06:55:29.282Z,english_159.wav,0,1,695,21,2,Chinese,f,11,1.09391667,46.77490147,1.15996843
WWH,65,1,2024-06-13T06:55:29.282Z,english_68.wav,0,1,521,21,2,Chinese,f,0,0,26.58837816,1.41652886
WWH,65,1,2024-06-13T06:55:29.282Z,english_68.wav,0,1,521,21,2,Chinese,f,1,0.1,-30.26201774,1.6821225
WWH,65,1,2024-06-13T06:55:29.282Z,english_68.wav,0,1,521,21,2,Chinese,f,2,0.2,-90.31994669,0.24298021
WWH,65,1,2024-06-13T06:55:29.282Z,english_68.wav,0,1,521,21,2,Chinese,f,3,0.3,-80.73820175,0.67959509
WWH,65,1,2024-06-13T06:55:29.282Z,english_68.wav,0,1,521,21,2,Chinese,f,4,0.4,-81.40390329,1.6191627
WWH,65,1,2024-06-13T06:55:29.282Z,english_68.wav,0,1,521,21,2,Chinese,f,5,0.5,-53.94630637,0.53489657
WWH,65,1,2024-06-13T06:55:29.282Z,english_68.wav,0,1,521,21,2,Chinese,f,6,0.6,54.33124478,1.08896417
WWH,65,1,2024-06-13T06:55:29.282Z,english_68.wav,0,1,521,21,2,Chinese,f,7,0.7,-19.04235486,1.94234514
WWH,65,1,2024-06-13T06:55:29.282Z,english_68.wav,0,1,521,21,2,Chinese,f,8,0.8,-60.29150312,1.53460069
WWH,65,1,2024-06-13T06:55:29.282Z,english_68.wav,0,1,521,21,2,Chinese,f,9,0.9,-10.04711988,1.76859618
WWH,65,1,2024-06-13T06:55:29.282Z,english_68.wav,0,1,521,21,2,Chinese,f,10,1,14.48015304,0.93905077
WWH,65,1,2024-06-13T06:55:29.282Z,english_68.wav,0,1,521,21,2,Chinese,f,11,1.09391667,-61.29871008,1.70593474
WWH,66,1,2024-06-13T06:55:29.282Z,english_122.wav,0,1,479,21,2,Chinese,f,0,0,77.3413932,0.58709567
WWH,66,1,2024-06-13T06:55:29.282Z,english_122.wav,0,1,479,21,2,Chinese,f,1,0.1,-67.39185751,0.0796985
WWH,66,1,2024-06-13T06:55:29.282Z,english_122.wav,0,1,479,21,2,Chinese,f,2,0.2,89.18550357,1.00639024
WWH,66,1,2024-06-13T06:55:29.282Z,english_122.wav,0,1,479,21,2,Chinese,f,3,0.3,12.33038367,0.81094575
WWH,66,1,2024-06-13T06:55:29.282Z,english_122.wav,0,1,479,21,2,Chinese,f,4,0.4,70.68402371,0.57598842
WWH,66,1,2024-06-13T06:55:29.282Z,english_122.wav,0,1,479,21,2,Chinese,f,5,0.5,25.06803156,0.93423984
WWH,66,1,2024-06-13T06:55:29.282Z,english_122.wav,0,1,479,21,2,Chinese,f,6,0.6,56.81750659,1.53113092
WWH,66,1,2024-06-13T06:55:29.282Z,english_122.wav,0,1,479,21,2,Chinese,f,7,0.7,-43.57912499,1.09738921
WWH,66,1,2024-06-13T06:55:29.282Z,english_122.wav,0,1,479,21,2,Chinese,f,8,0.8,-51.88401647,1.34315846
WWH,66,1,2024-06-13T06:55:29.282Z,english_122.wav,0,1,479,21,2,Chinese,f,9,0.9,-2.10023036,0.94720038
WWH,66,1,2024-06-13T06:55:29.282Z,english_122.wav,0,1,479,21,2,Chinese,f,10,1,-47.35507429,1.69772014
WWH,66,1,2024-06-13T06:55:29.282Z,english_122.wav,0,1,479,21,2,Chinese,f,11,1.09391667,20.07877732,1.14244601
WWH,67,1,2024-06-13T06:55:29.282Z,english_420.wav,0,0,533,21,2,Chinese,f,0,0,66.35781632,1.51060149
WWH,67,1,2024-06-13T06:55:29.282Z,english_420.wav,0,0,533,21,2,Chinese,f,1,0.1,-12.06831675,0.86092396
WWH,67,1,2024-06-13T06:55:29.282Z,english_420.wav,0,0,533,21,2,Chinese,f,2,0.2,71.12167329,1.98213421
WWH,67,1,2024-06-13T06:55:29.282Z,english_420.wav,0,0,533,21,2,Chinese,f,3,0.3,-65.08320496,0.15165496
WWH,67,1,2024-06-13T06:55:29.282Z,english_420.wav,0,0,533,21,2,Chinese,f,4,0.4,-82.82301749,1.26926091
WWH,67,1,2024-06-13T06:55:29.282Z,english_420.wav,0,0,533,21,2,Chinese,f,5,0.5,32.31625944,1.00523376
WWH,67,1,2024-06-13T06:55:29.282Z,english_420.wav,0,0,533,21,2,Chinese,f,6,0.6,68.14197427,1.33555594
WWH,67,1,2024-06-13T06:55:29.282Z,english_420.wav,0,0,533,21,2,Chinese,f,7,0.7,69.60296215,1.16834727
WWH,67,1,2024-06-13T06:55:29.282Z,english_420.wav,0,0,533,21,2,Chinese,f,8,0.8,38.87135773,0.07961385
WWH,67,1,2024-06-13T06:55:29.282Z,english_420.wav,0,0,533,21,2,Chinese,f,9,0.9,55.81325805,0.13061417
WWH,67,1,2024-06-13T06:55:29.282Z,english_420.wav,0,0,533,21,2,Chinese,f,10,1,91.56317805,1.16603809
WWH,67,1,2024-06-13T06:55:29.282Z,english_420.wav,0,0,533,21,2,Chinese,f,11,1.09391667,58.32530745,1.93332186
WWH,68,1,2024-06-13T06:55:29.282Z,english_624.wav,0,0,712,21,2,Chinese,f,0,0,34.76400378,1.78994994
WWH,68,1,2024-06-13T06:55:29.282Z,english_624.wav,0,0,712,21,2,Chinese,f,1,0.1,-36.42076645,1.4795907
WWH,68,1,2024-06-13T06:55:29.282Z,english_624.wav,0,0,712,21,2,Chinese,f,2,0.2,-52.38985079,1.80721514
WWH,68,1,2024-06-13T06:55:29.282Z,english_624.wav,0,0,712,21,2,Chinese,f,3,0.3,98.14853718,1.70059719
WWH,68,1,2024-06-13T06:55:29.282Z,english_624.wav,0,0,712,21,2,Chinese,f,4,0.4,97.5674754,0.69719837
WWH,68,1,2024-06-13T06:55:29.282Z,english_624.wav,0,0,712,21,2,Chinese,f,5,0.5,-80.04687885,1.37290399
WWH,68,1,2024-06-13T06:55:29.282Z,english_624.wav,0,0,712,21,2,Chinese,f,6,0.6,-8.81047571,1.53741575
WWH,68,1,2024-06-13T06:55:29.282Z,english_624.wav,0,0,712,21,2,Chinese,f,7,0.7,-78.45129318,1.54350611
WWH,68,1,2024-06-13T06:55:29.282Z,english_624.wav,0,0,712,21,2,Chinese,f,8,0.8,39.54454361,0.49170725
WWH,68,1,2024-06-13T06:55:29.282Z,english_624.wav,0,0,712,21,2,Chinese,f,9,0.9,32.62160332,1.04663897
WWH,68,1,2024-06-13T06:55:29.282Z,english_624.wav,0,0,712,21,2,Chinese,f,10,1,-98.98158135,0.63020253
WWH,68,1,2024-06-13T06:55:29.282Z,english_624.wav,0,0,712,21,2,Chinese,f,11,1.09391667,19.08613563,0.96318783
WWH,69,1,2024-06-13T06:55:29.282Z,english_728.wav,0,0,701,21,2,Chinese,f,0,0,86.97428458,1.28134459
WWH,69,1,2024-06-13T06:55:29.282Z,english_728.wav,0,0,701,21,2,Chinese,f,1,0.1,68.85214371,0.92040862
WWH,69,1,2024-06-13T06:55:29.282Z,english_728.wav,0,0,701,21,2,Chinese,f,2,0.2,-97.98565906,0.75536346
WWH,69,1,2024-06-13T06:55:29.282Z,english_728.wav,0,0,701,21,2,Chinese,f,3,0.3,35.07930547,1.26670058
WWH,69,1,2024-06-13T06:55:29.282Z,english_728.wav,0,0,701,21,2,Chinese,f,4,0.4,-30.18374109,0.22005976
WWH,69,1,2024-06-13T06:55:29.282Z,english_728.wav,0,0,701,21,2,Chinese,f,5,0.5,-82.66469876,1.42168107
WWH,69,1,2024-06-13T06:55:29.282Z,english_728.wav,0,0,701,21,2,Chinese,f,6,0.6,23.39578652,1.49957944
WWH,69,1,2024-06-13T06:55:29.282Z,english_728.wav,0,0,701,21,2,Chinese,f,7,0.7,26.21600665,0.84685957
WWH,69,1,2024-06-13T06:55:29.282Z,english_728.wav,0,0,701,21,2,Chinese,f,8,0.8,40.56146868,0.54890831
WWH,69,1,2024-06-13T06:55:29.282Z,english_728.wav,0,0,701,21,2,Chinese,f,9,0.9,8.84190716,1.06754414
WWH,69,1,2024-06-13T06:55:29.282Z,english_728.wav,0,0,701,21,2,Chinese,f,10,1,42.34962336,0.96376908
WWH,69,1,2024-06-13T06:55:29.282Z,english_728.wav,0,0,701,21,2,Chinese,f,11,1.09391667,-32.07226286,0.10029528
WWH,70,1,2024-06-13T06:55:29.282Z,english_826.wav,0,1,589,21,2,Chinese,f,0,0,-48.66820204,0.50881221
WWH,70,1,2024-06-13T06:55:29.282Z,english_826.wav,0,1,589,21,2,Chinese,f,1,0.1,15.87758798,1.7988984
WWH,70,1,2024-06-13T06:55:29.282Z,english_826.wav,0,1,589,21,2,Chinese,f,2,0.2,-81.06156605,0.35571274
WWH,70,1,2024-06-13T06:55:29.282Z,english_826.wav,0,1,589,21,2,Chinese,f,3,0.3,-38.67543271,0.88871824
WWH,70,1,2024-06-13T06:55:29.282Z,english_826.wav,0,1,589,21,2,Chinese,f,4,0.4,8.70050458,0.81611388
WWH,70,1,2024-06-13T06:55:29.282Z,english_826.wav,0,1,589,21,2,Chinese,f,5,0.5,-12.50279128,1.15396637
WWH,70,1,2024-06-13T06:55:29.282Z,english_826.wav,0,1,589,21,2,Chinese,f,6,0.6,53.18940921,0.06242761
WWH,70,1,2024-06-13T06:55:29.282Z,english_826.wav,0,1,589,21,2,Chinese,f,7,0.7,25.51770895,0.35293371
WWH,70,1,2024-06-13T06:55:29.282Z,english_826.wav,0,1,589,21,2,Chinese,f,8,0.8,-2.14290614,1.13493967
WWH,70,1,2024-06-13T06:55:29.282Z,english_826.wav,0,1,589,21,2,Chinese,f,9,0.9,59.43969754,1.56070885
WWH,70,1,2024-06-13T06:55:29.282Z,english_826.wav,0,1,589,21,2,Chinese,f,10,1,36.73554264,1.2686095
WWH,70,1,2024-06-13T06:55:29.282Z,english_826.wav,0,1,589,21,2,Chinese,f,11,1.09391667,99.18694211,1.14436626
WWH,71,1,2024-06-13T06:55:29.282Z,english_561.wav,0,0,326,21,2,Chinese,f,0,0,-40.74145274,1.68424793
WWH,71,1,2024-06-13T06:55:29.282Z,english_561.wav,0,0,326,21,2,Chinese,f,1,0.1,73.1709151,1.15723577
WWH,71,1,2024-06-13T06:55:29.282Z,english_561.wav,0,0,326,21,2,Chinese,f,2,0.2,-76.97322172,0.16061562
WWH,71,1,2024-06-13T06:55:29.282Z,english_561.wav,0,0,326,21,2,Chinese,f,3,0.3,-33.73958817,0.71161921
WWH,71,1,2024-06-13T06:55:29.282Z,english_561.wav,0,0,326,21,2,Chinese,f,4,0.4,-60.0926115,0.40520901
WWH,71,1,2024-06-13T06:55:29.282Z,english_561.wav,0,0,326,21,2,Chinese,f,5,0.5,17.46588089,1.58164625
WWH,71,1,2024-06-13T06:55:29.282Z,english_561.wav,0,0,326,21,2,Chinese,f,6,0.6,74.1182297,0.61549977
WWH,71,1,2024-06-13T06:55:29.282Z,english_561.wav,0,0,326,21,2,Chinese,f,7,0.7,96.50181715,1.28562209
WWH,71,1,2024-06-13T06:55:29.282Z,english_561.wav,0,0,326,21,2,Chinese,f,8,0.8,72.92112675,0.3725745
WWH,71,1,2024-06-13T06:55:29.282Z,english_561.wav,0,0,326,21,2,Chinese,f,9,0.9,-4.13482892,0.83114042
WWH,71,1,2024-06-13T06:55:29.282Z,english_561.wav,0,0,326,21,2,Chinese,f,10,1,68.85388576,1.94100595
WWH,71,1,2024-06-13T06:55:29.282Z,english_561.wav,0,0,326,21,2,Chinese,f,11,1.09391667,-59.51051487,0.22020615
WWH,72,1,2024-06-13T06:55:29.282Z,english_594.wav,0,0,1239,21,2,Chinese,f,0,0,-6.10063938,0.03940385
WWH,72,1,2024-06-13T06:55:29.282Z,english_594.wav,0,0,1239,21,2,Chinese,f,1,0.1,-56.51028651,0.67979763
WWH,72,1,2024-06-13T06:55:29.282Z,english_594.wav,0,0,1239,21,2,Chinese,f,2,0.2,-40.09571675,0.90921071
WWH,72,1,2024-06-13T06:55:29.282Z,english_594.wav,0,0,1239,21,2,Chinese,f,3,0.3,61.97563687,0.53210088
WWH,72,1,2024-06-13T06:55:29.282Z,english_594.wav,0,0,1239,21,2,Chinese,f,4,0.4,-85.53288451,0.284195
WWH,72,1,2024-06-13T06:55:29.282Z,english_594.wav,0,0,1239,21,2,Chinese,f,5,0.5,6.67279942,0.75512393
WWH,72,1,2024-06-13T06:55:29.282Z,english_594.wav,0,0,1239,21,2,Chinese,f,6,0.6,48.92783255,0.67826493
WWH,72,1,2024-06-13T06:55:29.282Z,english_594.wav,0,0,1239,21,2,Chinese,f,7,0.7,-71.33031091,0.91947698
WWH,72,1,2024-06-13T06:55:29.282Z,english_594.wav,0,0,1239,21,2,Chinese,f,8,0.8,8.29148897,0.21678931
WWH,72,1,2024-06-13T06:55:29.282Z,english_594.wav,0,0,1239,21,2,Chinese,f,9,0.9,42.69425852,1.1378317
WWH,72,1,2024-06-13T06:55:29.282Z,english_594.wav,0,0,1239,21,2,Chinese,f,10,1,-32.82046223,1.58275183
WWH,72,1,2024-06-13T06:55:29.282Z,english_594.wav,0,0,1239,21,2,Chinese,f,11,1.09391667,-55.40353935,1.87399103
WWH,73,1,2024-06-13T06:55:29.282Z,english_540.wav,0,1,1053,21,2,Chinese,f,0,0,56.3389614,0.35919702
WWH,73,1,2024-06-13T06:55:29.282Z,english_540.wav,0,1,1053,21,2,Chinese,f,1,0.1,15.5810044,0.12290397
WWH,73,1,2024-06-13T06:55:29.282Z,english_540.wav,0,1,1053,21,2,Chinese,f,2,0.2,-57.00882779,0.4388906
WWH,73,1,2024-06-13T06:55:29.282Z,english_540.wav,0,1,1053,21,2,Chinese,f,3,0.3,-38.51831774,1.4101729
WWH,73,1,2024-06-13T06:55:29.282Z,english_540.wav,0,1,1053,21,2,Chinese,f,4,0.4,-2.48649571,1.50441402
WWH,73,1,2024-06-13T06:55:29.282Z,english_540.wav,0,1,1053,21,2,Chinese,f,5,0.5,47.94489788,0.12973549
WWH,73,1,2024-06-13T06:55:29.282Z,english_540.wav,0,1,1053,21,2,Chinese,f,6,0.6,-25.26992134,1.5432215
WWH,73,1,2024-06-13T06:55:29.282Z,english_540.wav,0,1,1053,21,2,Chinese,f,7,0.7,71.13867004,0.81755123
WWH,73,1,2024-06-13T06:55:29.282Z,english_540.wav,0,1,1053,21,2,Chinese,f,8,0.8,-84.74018584,1.08085579
WWH,73,1,2024-06-13T06:55:29.282Z,english_540.wav,0,1,1053,21,2,Chinese,f,9,0.9,36.45045372,1.434422
WWH,73,1,2024-06-13T06:55:29.282Z,english_540.wav,0,1,1053,21,2,Chinese,f,10,1,21.99011702,0.97494001
WWH,73,1,2024-06-13T06:55:29.282Z,english_540.wav,0,1,1053,21,2,Chinese,f,11,1.09391667,81.39151634,0.80759169
WWH,74,1,2024-06-13T06:55:29.282Z,english_909.wav,0,0,529,21,2,Chinese,f,0,0,10.71027544,0.31194576
WWH,74,1,2024-06-13T06:55:29.282Z,english_909.wav,0,0,529,21,2,Chinese,f,1,0.1,-48.99679887,0.75562572
WWH,74,1,2024-06-13T06:55:29.282Z,english_909.wav,0,0,529,21,2,Chinese,f,2,0.2,0.10936675,1.15361909
WWH,74,1,2024-06-13T06:55:29.282Z,english_909.wav,0,0,529,21,2,Chinese,f,3,0.3,-9.5972352,1.70848665
WWH,74,1,2024-06-13T06:55:29.282Z,english_909.wav,0,0,529,21,2,Chinese,f,4,0.4,41.63700809,1.17263968
WWH,74,1,2024-06-13T06:55:29.282Z,english_909.wav,0,0,529,21,2,Chinese,f,5,0.5,-54.98653808,1.91472761
WWH,74,1,2024-06-13T06:55:29.282Z,english_909.wav,0,0,529,21,2,Chinese,f,6,0.6,-79.93461055,0.74389201
WWH,74,1,2024-06-13T06:55:29.282Z,english_909.wav,0,0,529,21,2,Chinese,f,7,0.7,-18.97053935,0.87039019
WWH,74,1,2024-06-13T06:55:29.282Z,english_909.wav,0,0,529,21,2,Chinese,f,8,0.8,-79.95487678,0.69566776
WWH,74,1,2024-06-13T06:55:29.282Z,english_909.wav,0,0,529,21,2,Chinese,f,9,0.9,48.57972969,0.96721203
WWH,74,1,2024-06-13T06:55:29.282Z,english_909.wav,0,0,529,21,2,Chinese,f,10,1,81.75147214,1.53411622
WWH,74,1,2024-06-13T06:55:29.282Z,english_909.wav,0,0,529,21,2,Chinese,f,11,1.09391667,-81.8755088,1.74360808
WWH,75,1,2024-06-13T06:55:29.282Z,english_530.wav,0,0,702,21,2,Chinese,f,0,0,-28.7119875,1.05000618
WWH,75,1,2024-06-13T06:55:29.282Z,english_530.wav,0,0,702,21,2,Chinese,f,1,0.1,81.63061579,1.8823678
WWH,75,1,2024-06-13T06:55:29.282Z,english_530.wav,0,0,702,21,2,Chinese,f,2,0.2,-13.39591128,0.84340221
WWH,75,1,2024-06-13T06:55:29.282Z,english_530.wav,0,0,702,21,2,Chinese,f,3,0.3,13.92143377,0.28078116
WWH,75,1,2024-06-13T06:55:29.282Z,english_530.wav,0,0,702,21,2,Chinese,f,4,0.4,40.01462212,0.79575784
WWH,75,1,2024-06-13T06:55:29.282Z,english_530.wav,0,0,702,21,2,Chinese,f,5,0.5,23.69444491,1.14952556
WWH,75,1,2024-06-13T06:55:29.282Z,english_530.wav,0,0,702,21,2,Chinese,f,6,0.6,46.64828823,1.01103968
WWH,75,1,2024-06-13T06:55:29.282Z,english_530.wav,0,0,702,21,2,Chinese,f,7,0.7,26.92480587,1.41983577
WWH,75,1,2024-06-13T06:55:29.282Z,english_530.wav,0,0,702,21,2,Chinese,f,8,0.8,14.68160338,0.81631883
WWH,75,1,2024-06-13T06:55:29.282Z,english_530.wav,0,0,702,21,2,Chinese,f,9,0.9,49.42082928,0.77345056
WWH,75,1,2024-06-13T06:55:29.282Z,english_530.wav,0,0,702,21,2,Chinese,f,10,1,-24.27885184,1.60646934
WWH,75,1,2024-06-13T06:55:29.282Z,english_530.wav,0,0,702,21,2,Chinese,f,11,1.09391667,68.97066726,0.9871725
WWH,76,1,2024-06-13T06:55:29.282Z,english_335.wav,0,0,676,21,2,Chinese,f,0,0,41.80743468,1.01381682
WWH,76,1,2024-06-13T06:55:29.282Z,english_335.wav,0,0,676,21,2,Chinese,f,1,0.1,-95.17376615,1.5620604
WWH,76,1,2024-06-13T06:55:29.282Z,english_335.wav,0,0,676,21,2,Chinese,f,2,0.2,39.98208272,0.19265383
WWH,76,1,2024-06-13T06:55:29.282Z,english_335.wav,0,0,676,21,2,Chinese,f,3,0.3,-46.35703256,1.42247653
WWH,76,1,2024-06-13T06:55:29.282Z,english_335.wav,0,0,676,21,2,Chinese,f,4,0.4,24.82145544,0.70328136
WWH,76,1,2024-06-13T06:55:29.282Z,english_335.wav,0,0,676,21,2,Chinese,f,5,0.5,-31.00133873,1.01966488
WWH,76,1,2024-06-13T06:55:29.282Z,english_335.wav,0,0,676,21,2,Chinese,f,6,0.6,-26.38344945,1.23451824
WWH,76,1,2024-06-13T06:55:29.282Z,english_335.wav,0,0,676,21,2,Chinese,f,7,0.7,86.60347,0.55082158
WWH,76,1,2024-06-13T06:55:29.282Z,english_335.wav,0,0,676,21,2,Chinese,f,8,0.8,-70.37080157,0.451758
WWH,76,1,2024-06-13T06:55:29.282Z,english_335.wav,0,0,676,21,2,Chinese,f,9,0.9,61.18063824,0.68398752
WWH,76,1,2024-06-13T06:55:29.282Z,english_335.wav,0,0,676,21,2,Chinese,f,10,1,-30.21404124,0.79476381
WWH,76,1,2024-06-13T06:55:29.282Z,english_335.wav,0,0,676,21,2,Chinese,f,11,1.09391667,-36.90555067,1.69556673
WWH,77,1,2024-06-13T06:55:29.282Z,english_880.wav,0,1,794,21,2,Chinese,f,0,0,-41.47628357,0.55394603
WWH,77,1,2024-06-13T06:55:29.282Z,english_880.wav,0,1,794,21,2,Chinese,f,1,0.1,65.54296858,0.9616183
WWH,77,1,2024-06-13T06:55:29.282Z,english_880.wav,0,1,794,21,2,Chinese,f,2,0.2,-39.31347774,0.19888821
WWH,77,1,2024-06-13T06:55:29.282Z,english_880.wav,0,1,794,21,2,Chinese,f,3,0.3,61.98950127,0.57394663
WWH,77,1,2024-06-13T06:55:29.282Z,english_880.wav,0,1,794,21,2,Chinese,f,4,0.4,-3.60095554,0.13686424
WWH,77,1,2024-06-13T06:55:29.282Z,english_880.wav,0,1,794,21,2,Chinese,f,5,0.5,-14.51452604,1.28705149
WWH,77,1,2024-06-13T06:55:29.282Z,english_880.wav,0,1,794,21,2,Chinese,f,6,0.6,37.32728479,1.1695459
WWH,77,1,2024-06-13T06:55:29.282Z,english_880.wav,0,1,794,21,2,Chinese,f,7,0.7,-80.65072298,0.87953448
WWH,77,1,2024-06-13T06:55:29.282Z,english_880.wav,0,1,794,21,2,Chinese,f,8,0.8,-45.95652934,1.16448852
WWH,77,1,2024-06-13T06:55:29.282Z,english_880.wav,0,1,794,21,2,Chinese,f,9,0.9,58.7720162,1.15057409
WWH,77,1,2024-06-13T06:55:29.282Z,english_880.wav,0,1,794,21,2,Chinese,f,10,1,-45.80137343,0.15999969
WWH,77,1,2024-06-13T06:55:29.282Z,english_880.wav,0,1,794,21,2,Chinese,f,11,1.09391667,-30.61117418,1.26319269
WWH,78,1,2024-06-13T06:55:29.282Z,english_820.wav,0,1,526,21,2,Chinese,f,0,0,-90.13612519,0.91151007
WWH,78,1,2024-06-13T06:55:29.282Z,english_820.wav,0,1,526,21,2,Chinese,f,1,0.1,-50.72556256,1.30362027
WWH,78,1,2024-06-13T06:55:29.282Z,english_820.wav,0,1,526,21,2,Chinese,f,2,0.2,-79.00829797,0.25855126
WWH,78,1,2024-06-13T06:55:29.282Z,english_820.wav,0,1,526,21,2,Chinese,f,3,0.3,-14.44339945,1.8078566
WWH,78,1,2024-06-13T06:55:29.282Z,english_820.wav,0,1,526,21,2,Chinese,f,4,0.4,25.9456349,1.15063196
WWH,78,1,2024-06-13T06:55:29.282Z,english_820.wav,0,1,526,21,2,Chinese,f,5,0.5,-28.76259068,1.03640346
WWH,78,1,2024-06-13T06:55:29.282Z,english_820.wav,0,1,526,21,2,Chinese,f,6,0.6,-20.65873648,1.10712464
WWH,78,1,2024-06-13T06:55:29.282Z,english_820.wav,0,1,526,21,2,Chinese,f,7,0.7,19.30633091,1.58948272
WWH,78,1,2024-06-13T06:55:29.282Z,english_820.wav,0,1,526,21,2,Chinese,f,8,0.8,6.01129625,1.36569453
WWH,78,1,2024-06-13T06:55:29.282Z,english_820.wav,0,1,526,21,2,Chinese,f,9,0.9,-10.90113074,0.84663536
WWH,78,1,2024-06-13T06:55:29.282Z,english_820.wav,0,1,526,21,2,Chinese,f,10,1,-2.19154449,1.67108309
WWH,78,1,2024-06-13T06:55:29.282Z,english_820.wav,0,1,526,21,2,Chinese,f,11,1.09391667,-66.85311594,1.79051546
WWH,79,1,2024-06-13T06:55:29.282Z,english_520.wav,0,1,555,21,2,Chinese,f,0,0,81.60451099,1.42215493
WWH,79,1,2024-06-13T06:55:29.282Z,english_520.wav,0,1,555,21,2,Chinese,f,1,0.1,69.46138455,0.98392103
WWH,79,1,2024-06-13T06:55:29.282Z,english_520.wav,0,1,555,21,2,Chinese,f,2,0.2,-58.94741441,0.41352977
WWH,79,1,2024-06-13T06:55:29.282Z,english_520.wav,0,1,555,21,2,Chinese,f,3,0.3,47.06127128,1.65086881
WWH,79,1,2024-06-13T06:55:29.282Z,english_520.wav,0,1,555,21,2,Chinese,f,4,0.4,65.59970746,1.1422101
WWH,79,1,2024-06-13T06:55:29.282Z,english_520.wav,0,1,555,21,2,Chinese,f,5,0.5,-54.81254387,0.90438236
WWH,79,1,2024-06-13T06:55:29.282Z,english_520.wav,0,1,555,21,2,Chinese,f,6,0.6,-23.99846478,1.18287515
WWH,79,1,2024-06-13T06:55:29.282Z,english_520.wav,0,1,555,21,2,Chinese,f,7,0.7,58.62113859,1.34589403
WWH,79,1,2024-06-13T06:55:29.282Z,english_520.wav,0,1,555,21,2,Chinese,f,8,0.8,-30.26167425,1.10757311
WWH,79,1,2024-06-13T06:55:29.282Z,english_520.wav,0,1,555,21,2,Chinese,f,9,0.9,-80.60582802,1.70569805
WWH,79,1,2024-06-13T06:55:29.282Z,english_520.wav,0,1,555,21,2,Chinese,f,10,1,81.56591992,0.16869321
WWH,79,1,2024-06-13T06:55:29.282Z,english_520.wav,0,1,555,21,2,Chinese,f,11,1.09391667,1.5485392,0.32839145
WWH,80,1,2024-06-13T06:55:29.282Z,english_377.wav,0,0,723,21,2,Chinese,f,0,0,73.04653382,1.47836601
WWH,80,1,2024-06-13T06:55:29.282Z,english_377.wav,0,0,723,21,2,Chinese,f,1,0.1,61.01214683,1.01623989
WWH,80,1,2024-06-13T06:55:29.282Z,english_377.wav,0,0,723,21,2,Chinese,f,2,0.2,-82.4479578,1.48528015
WWH,80,1,2024-06-13T06:55:29.282Z,english_377.wav,0,0,723,21,2,Chinese,f,3,0.3,-6.35059144,0.37422398
WWH,80,1,2024-06-13T06:55:29.282Z,english_377.wav,0,0,723,21,2,Chinese,f,4,0.4,58.86113959,0.85864758
WWH,80,1,2024-06-13T06:55:29.282Z,english_377.wav,0,0,723,21,2,Chinese,f,5,0.5,19.19354738,0.94448051
WWH,80,1,2024-06-13T06:55:29.282Z,english_377.wav,0,0,723,21,2,Chinese,f,6,0.6,-31.09076765,1.48225941
WWH,80,1,2024-06-13T06:55:29.282Z,english_377.wav,0,0,723,21,2,Chinese,f,7,0.7,-78.80759367,0.12460905
WWH,80,1,2024-06-13T06:55:29.282Z,english_377.wav,0,0,723,21,2,Chinese,f,8,0.8,40.88540154,0.28155513
WWH,80,1,2024-06-13T06:55:29.282Z,english_377.wav,0,0,723,21,2,Chinese,f,9,0.9,2.78755214,0.51707897
WWH,80,1,2024-06-13T06:55:29.282Z,english_377.wav,0,0,723,21,2,Chinese,f,10,1,-65.38807899,0.25575056
WWH,80,1,2024-06-13T06:55:29.282Z,english_377.wav,0,0,723,21,2,Chinese,f,11,1.09391667,58.80108337,0.70835394
WWH,81,1,2024-06-13T06:55:29.282Z,english_582.wav,0,1,412,21,2,Chinese,f,0,0,-92.78340469,1.00518837
