subj,trial,block,date,stim,stim_order,response,rt,age,english,language,sex,param_index,segment,pitch,stretch
ZYX,0,0,2024-06-14T02:57:55.302Z,english_207.wav,0,0,2243,22,4,Chinese,f,0,0,-47.42878523,1.11335627
ZYX,0,0,2024-06-14T02:57:55.302Z,english_207.wav,0,0,2243,22,4,Chinese,f,1,0.1,-30.16645038,1.13740889
ZYX,0,0,2024-06-14T02:57:55.302Z,english_207.wav,0,0,2243,22,4,Chinese,f,2,0.2,-86.67371718,0.31622189
ZYX,0,0,2024-06-14T02:57:55.302Z,english_207.wav,0,0,2243,22,4,Chinese,f,3,0.3,8.55547349,1.41776127
ZYX,0,0,2024-06-14T02:57:55.302Z,english_207.wav,0,0,2243,22,4,Chinese,f,4,0.4,-15.66190927,0.46326981
ZYX,0,0,2024-06-14T02:57:55.302Z,english_207.wav,0,0,2243,22,4,Chinese,f,5,0.5,-49.49878386,1.61561224
ZYX,0,0,2024-06-14T02:57:55.302Z,english_207.wav,0,0,2243,22,4,Chinese,f,6,0.6,45.53550585,1.82492297
ZYX,0,0,2024-06-14T02:57:55.302Z,english_207.wav,0,0,2243,22,4,Chinese,f,7,0.7,40.09709087,1.16604802
ZYX,0,0,2024-06-14T02:57:55.302Z,english_207.wav,0,0,2243,22,4,Chinese,f,8,0.8,68.69768753,1.08414078
ZYX,0,0,2024-06-14T02:57:55.302Z,english_207.wav,0,0,2243,22,4,Chinese,f,9,0.9,-80.58352636,0.66393703
ZYX,0,0,2024-06-14T02:57:55.302Z,english_207.wav,0,0,2243,22,4,Chinese,f,10,1,11.66542456,0.81001911
ZYX,0,0,2024-06-14T02:57:55.302Z,english_207.wav,0,0,2243,22,4,Chinese,f,11,1.09391667,21.41487197,1.28611979
ZYX,1,0,2024-06-14T02:57:55.302Z,english_140.wav,0,1,374,22,4,Chinese,f,0,0,3.17682923,0.87887046
ZYX,1,0,2024-06-14T02:57:55.302Z,english_140.wav,0,1,374,22,4,Chinese,f,1,0.1,6.35877152,0.507187
ZYX,1,0,2024-06-14T02:57:55.302Z,english_140.wav,0,1,374,22,4,Chinese,f,2,0.2,-9.02165969,0.30654511
ZYX,1,0,2024-06-14T02:57:55.302Z,english_140.wav,0,1,374,22,4,Chinese,f,3,0.3,-36.47269085,0.61695793
ZYX,1,0,2024-06-14T02:57:55.302Z,english_140.wav,0,1,374,22,4,Chinese,f,4,0.4,-72.32699921,1.67577575
ZYX,1,0,2024-06-14T02:57:55.302Z,english_140.wav,0,1,374,22,4,Chinese,f,5,0.5,-28.69942826,0.30689604
ZYX,1,0,2024-06-14T02:57:55.302Z,english_140.wav,0,1,374,22,4,Chinese,f,6,0.6,68.422362,1.73923813
ZYX,1,0,2024-06-14T02:57:55.302Z,english_140.wav,0,1,374,22,4,Chinese,f,7,0.7,-32.97741766,1.33940979
ZYX,1,0,2024-06-14T02:57:55.302Z,english_140.wav,0,1,374,22,4,Chinese,f,8,0.8,-98.50350873,1.86246524
ZYX,1,0,2024-06-14T02:57:55.302Z,english_140.wav,0,1,374,22,4,Chinese,f,9,0.9,4.47546112,0.68629119
ZYX,1,0,2024-06-14T02:57:55.302Z,english_140.wav,0,1,374,22,4,Chinese,f,10,1,-70.93750026,1.82050493
ZYX,1,0,2024-06-14T02:57:55.302Z,english_140.wav,0,1,374,22,4,Chinese,f,11,1.09391667,36.42764636,1.04858085
ZYX,2,0,2024-06-14T02:57:55.302Z,english_289.wav,0,0,386,22,4,Chinese,f,0,0,-74.78655,1.54308435
ZYX,2,0,2024-06-14T02:57:55.302Z,english_289.wav,0,0,386,22,4,Chinese,f,1,0.1,-90.25985406,1.23232394
ZYX,2,0,2024-06-14T02:57:55.302Z,english_289.wav,0,0,386,22,4,Chinese,f,2,0.2,-27.93675794,0.21652241
ZYX,2,0,2024-06-14T02:57:55.302Z,english_289.wav,0,0,386,22,4,Chinese,f,3,0.3,-69.8278995,1.88715195
ZYX,2,0,2024-06-14T02:57:55.302Z,english_289.wav,0,0,386,22,4,Chinese,f,4,0.4,80.83899325,0.72261078
ZYX,2,0,2024-06-14T02:57:55.302Z,english_289.wav,0,0,386,22,4,Chinese,f,5,0.5,59.60907912,1.3658372
ZYX,2,0,2024-06-14T02:57:55.302Z,english_289.wav,0,0,386,22,4,Chinese,f,6,0.6,-7.23667322,0.39334931
ZYX,2,0,2024-06-14T02:57:55.302Z,english_289.wav,0,0,386,22,4,Chinese,f,7,0.7,40.65599914,0.15923439
ZYX,2,0,2024-06-14T02:57:55.302Z,english_289.wav,0,0,386,22,4,Chinese,f,8,0.8,70.76112858,0.96106175
ZYX,2,0,2024-06-14T02:57:55.302Z,english_289.wav,0,0,386,22,4,Chinese,f,9,0.9,55.20165463,1.02832529
ZYX,2,0,2024-06-14T02:57:55.302Z,english_289.wav,0,0,386,22,4,Chinese,f,10,1,12.92586279,1.79645227
ZYX,2,0,2024-06-14T02:57:55.302Z,english_289.wav,0,0,386,22,4,Chinese,f,11,1.09391667,79.89951156,0.36571396
ZYX,3,0,2024-06-14T02:57:55.302Z,english_924.wav,0,1,369,22,4,Chinese,f,0,0,-34.16359775,0.79366522
ZYX,3,0,2024-06-14T02:57:55.302Z,english_924.wav,0,1,369,22,4,Chinese,f,1,0.1,95.89868764,0.73795008
ZYX,3,0,2024-06-14T02:57:55.302Z,english_924.wav,0,1,369,22,4,Chinese,f,2,0.2,-7.67474925,0.39139015
ZYX,3,0,2024-06-14T02:57:55.302Z,english_924.wav,0,1,369,22,4,Chinese,f,3,0.3,-21.77911834,0.47707552
ZYX,3,0,2024-06-14T02:57:55.302Z,english_924.wav,0,1,369,22,4,Chinese,f,4,0.4,31.17946122,0.09637783
ZYX,3,0,2024-06-14T02:57:55.302Z,english_924.wav,0,1,369,22,4,Chinese,f,5,0.5,0.48616436,1.58696559
ZYX,3,0,2024-06-14T02:57:55.302Z,english_924.wav,0,1,369,22,4,Chinese,f,6,0.6,56.04156449,1.87427133
ZYX,3,0,2024-06-14T02:57:55.302Z,english_924.wav,0,1,369,22,4,Chinese,f,7,0.7,79.12331334,0.57578157
ZYX,3,0,2024-06-14T02:57:55.302Z,english_924.wav,0,1,369,22,4,Chinese,f,8,0.8,58.34446187,1.11639403
ZYX,3,0,2024-06-14T02:57:55.302Z,english_924.wav,0,1,369,22,4,Chinese,f,9,0.9,51.02751352,1.98577552
ZYX,3,0,2024-06-14T02:57:55.302Z,english_924.wav,0,1,369,22,4,Chinese,f,10,1,59.10490512,0.22580189
ZYX,3,0,2024-06-14T02:57:55.302Z,english_924.wav,0,1,369,22,4,Chinese,f,11,1.09391667,60.06487251,1.66820152
ZYX,4,0,2024-06-14T02:57:55.302Z,english_241.wav,0,1,1101,22,4,Chinese,f,0,0,-97.22432216,1.35478851
ZYX,4,0,2024-06-14T02:57:55.302Z,english_241.wav,0,1,1101,22,4,Chinese,f,1,0.1,-28.14905208,0.42795765
ZYX,4,0,2024-06-14T02:57:55.302Z,english_241.wav,0,1,1101,22,4,Chinese,f,2,0.2,47.39910383,0.77593108
ZYX,4,0,2024-06-14T02:57:55.302Z,english_241.wav,0,1,1101,22,4,Chinese,f,3,0.3,62.74698337,1.52084491
ZYX,4,0,2024-06-14T02:57:55.302Z,english_241.wav,0,1,1101,22,4,Chinese,f,4,0.4,42.69629452,1.0423858
ZYX,4,0,2024-06-14T02:57:55.302Z,english_241.wav,0,1,1101,22,4,Chinese,f,5,0.5,-28.86057988,0.26192027
ZYX,4,0,2024-06-14T02:57:55.302Z,english_241.wav,0,1,1101,22,4,Chinese,f,6,0.6,47.37469517,1.65360196
ZYX,4,0,2024-06-14T02:57:55.302Z,english_241.wav,0,1,1101,22,4,Chinese,f,7,0.7,19.60148675,1.3989631
ZYX,4,0,2024-06-14T02:57:55.302Z,english_241.wav,0,1,1101,22,4,Chinese,f,8,0.8,25.28127543,0.94780347
ZYX,4,0,2024-06-14T02:57:55.302Z,english_241.wav,0,1,1101,22,4,Chinese,f,9,0.9,-90.65530928,1.1797356
ZYX,4,0,2024-06-14T02:57:55.302Z,english_241.wav,0,1,1101,22,4,Chinese,f,10,1,58.14244463,1.19530939
ZYX,4,0,2024-06-14T02:57:55.302Z,english_241.wav,0,1,1101,22,4,Chinese,f,11,1.09391667,33.70088271,0.5415955
ZYX,5,0,2024-06-14T02:57:55.302Z,english_152.wav,0,1,403,22,4,Chinese,f,0,0,-10.34550429,1.84986994
ZYX,5,0,2024-06-14T02:57:55.302Z,english_152.wav,0,1,403,22,4,Chinese,f,1,0.1,-43.66558153,0.90615496
ZYX,5,0,2024-06-14T02:57:55.302Z,english_152.wav,0,1,403,22,4,Chinese,f,2,0.2,56.2217474,0.59286193
ZYX,5,0,2024-06-14T02:57:55.302Z,english_152.wav,0,1,403,22,4,Chinese,f,3,0.3,-27.44048298,0.85505555
ZYX,5,0,2024-06-14T02:57:55.302Z,english_152.wav,0,1,403,22,4,Chinese,f,4,0.4,17.92439762,0.56649727
ZYX,5,0,2024-06-14T02:57:55.302Z,english_152.wav,0,1,403,22,4,Chinese,f,5,0.5,82.51468432,0.6043893
ZYX,5,0,2024-06-14T02:57:55.302Z,english_152.wav,0,1,403,22,4,Chinese,f,6,0.6,8.54715681,1.72413787
ZYX,5,0,2024-06-14T02:57:55.302Z,english_152.wav,0,1,403,22,4,Chinese,f,7,0.7,-94.9804546,0.10144569
ZYX,5,0,2024-06-14T02:57:55.302Z,english_152.wav,0,1,403,22,4,Chinese,f,8,0.8,43.42849193,1.50321153
ZYX,5,0,2024-06-14T02:57:55.302Z,english_152.wav,0,1,403,22,4,Chinese,f,9,0.9,1.5194414,0.78421076
ZYX,5,0,2024-06-14T02:57:55.302Z,english_152.wav,0,1,403,22,4,Chinese,f,10,1,20.77451489,1.65129885
ZYX,5,0,2024-06-14T02:57:55.302Z,english_152.wav,0,1,403,22,4,Chinese,f,11,1.09391667,95.7342738,1.8248214
ZYX,6,0,2024-06-14T02:57:55.302Z,english_836.wav,0,0,432,22,4,Chinese,f,0,0,-63.35061063,0.08705993
ZYX,6,0,2024-06-14T02:57:55.302Z,english_836.wav,0,0,432,22,4,Chinese,f,1,0.1,-12.99108937,1.16779184
ZYX,6,0,2024-06-14T02:57:55.302Z,english_836.wav,0,0,432,22,4,Chinese,f,2,0.2,82.76327371,1.21817992
ZYX,6,0,2024-06-14T02:57:55.302Z,english_836.wav,0,0,432,22,4,Chinese,f,3,0.3,-37.04296685,1.4013418
ZYX,6,0,2024-06-14T02:57:55.302Z,english_836.wav,0,0,432,22,4,Chinese,f,4,0.4,12.42823269,0.6973531
ZYX,6,0,2024-06-14T02:57:55.302Z,english_836.wav,0,0,432,22,4,Chinese,f,5,0.5,-3.53155132,1.80885829
ZYX,6,0,2024-06-14T02:57:55.302Z,english_836.wav,0,0,432,22,4,Chinese,f,6,0.6,-65.36206882,1.88816728
ZYX,6,0,2024-06-14T02:57:55.302Z,english_836.wav,0,0,432,22,4,Chinese,f,7,0.7,37.4940371,0.0831571
ZYX,6,0,2024-06-14T02:57:55.302Z,english_836.wav,0,0,432,22,4,Chinese,f,8,0.8,82.10669288,1.479167
ZYX,6,0,2024-06-14T02:57:55.302Z,english_836.wav,0,0,432,22,4,Chinese,f,9,0.9,44.64707994,1.19168264
ZYX,6,0,2024-06-14T02:57:55.302Z,english_836.wav,0,0,432,22,4,Chinese,f,10,1,19.81650131,1.28184293
ZYX,6,0,2024-06-14T02:57:55.302Z,english_836.wav,0,0,432,22,4,Chinese,f,11,1.09391667,-37.93998677,1.25532644
ZYX,7,0,2024-06-14T02:57:55.302Z,english_649.wav,0,0,497,22,4,Chinese,f,0,0,54.13337143,0.90685718
ZYX,7,0,2024-06-14T02:57:55.302Z,english_649.wav,0,0,497,22,4,Chinese,f,1,0.1,51.13672213,0.97028986
ZYX,7,0,2024-06-14T02:57:55.302Z,english_649.wav,0,0,497,22,4,Chinese,f,2,0.2,-46.53747516,0.5338014
ZYX,7,0,2024-06-14T02:57:55.302Z,english_649.wav,0,0,497,22,4,Chinese,f,3,0.3,-5.04561857,1.37151822
ZYX,7,0,2024-06-14T02:57:55.302Z,english_649.wav,0,0,497,22,4,Chinese,f,4,0.4,-96.10296837,1.19898074
ZYX,7,0,2024-06-14T02:57:55.302Z,english_649.wav,0,0,497,22,4,Chinese,f,5,0.5,91.1633791,0.83288569
ZYX,7,0,2024-06-14T02:57:55.302Z,english_649.wav,0,0,497,22,4,Chinese,f,6,0.6,40.43734858,1.46195871
ZYX,7,0,2024-06-14T02:57:55.302Z,english_649.wav,0,0,497,22,4,Chinese,f,7,0.7,-6.34456649,0.52535218
ZYX,7,0,2024-06-14T02:57:55.302Z,english_649.wav,0,0,497,22,4,Chinese,f,8,0.8,-47.75781838,0.56197414
ZYX,7,0,2024-06-14T02:57:55.302Z,english_649.wav,0,0,497,22,4,Chinese,f,9,0.9,-30.94847666,1.41697717
ZYX,7,0,2024-06-14T02:57:55.302Z,english_649.wav,0,0,497,22,4,Chinese,f,10,1,-10.84084503,1.24330897
ZYX,7,0,2024-06-14T02:57:55.302Z,english_649.wav,0,0,497,22,4,Chinese,f,11,1.09391667,16.60657514,0.55891177
ZYX,8,0,2024-06-14T02:57:55.302Z,english_146.wav,0,0,1078,22,4,Chinese,f,0,0,56.30698685,0.40218926
ZYX,8,0,2024-06-14T02:57:55.302Z,english_146.wav,0,0,1078,22,4,Chinese,f,1,0.1,33.76808102,1.30498568
ZYX,8,0,2024-06-14T02:57:55.302Z,english_146.wav,0,0,1078,22,4,Chinese,f,2,0.2,7.3416935,1.88518083
ZYX,8,0,2024-06-14T02:57:55.302Z,english_146.wav,0,0,1078,22,4,Chinese,f,3,0.3,54.00115317,0.73939723
ZYX,8,0,2024-06-14T02:57:55.302Z,english_146.wav,0,0,1078,22,4,Chinese,f,4,0.4,60.50079064,1.18416515
ZYX,8,0,2024-06-14T02:57:55.302Z,english_146.wav,0,0,1078,22,4,Chinese,f,5,0.5,93.58064811,0.74397262
ZYX,8,0,2024-06-14T02:57:55.302Z,english_146.wav,0,0,1078,22,4,Chinese,f,6,0.6,16.38414301,1.77833366
ZYX,8,0,2024-06-14T02:57:55.302Z,english_146.wav,0,0,1078,22,4,Chinese,f,7,0.7,53.45076847,0.98273851
ZYX,8,0,2024-06-14T02:57:55.302Z,english_146.wav,0,0,1078,22,4,Chinese,f,8,0.8,57.56482396,1.41119053
ZYX,8,0,2024-06-14T02:57:55.302Z,english_146.wav,0,0,1078,22,4,Chinese,f,9,0.9,-28.26782972,0.90766435
ZYX,8,0,2024-06-14T02:57:55.302Z,english_146.wav,0,0,1078,22,4,Chinese,f,10,1,79.66793606,0.33691203
ZYX,8,0,2024-06-14T02:57:55.302Z,english_146.wav,0,0,1078,22,4,Chinese,f,11,1.09391667,23.81863578,1.86488134
ZYX,9,0,2024-06-14T02:57:55.302Z,english_14.wav,0,1,355,22,4,Chinese,f,0,0,-5.69961552,1.552338
ZYX,9,0,2024-06-14T02:57:55.302Z,english_14.wav,0,1,355,22,4,Chinese,f,1,0.1,-17.69328861,0.71654176
ZYX,9,0,2024-06-14T02:57:55.302Z,english_14.wav,0,1,355,22,4,Chinese,f,2,0.2,-45.6905252,1.07785173
ZYX,9,0,2024-06-14T02:57:55.302Z,english_14.wav,0,1,355,22,4,Chinese,f,3,0.3,-40.89378138,1.31161341
ZYX,9,0,2024-06-14T02:57:55.302Z,english_14.wav,0,1,355,22,4,Chinese,f,4,0.4,-36.19831956,0.28947894
ZYX,9,0,2024-06-14T02:57:55.302Z,english_14.wav,0,1,355,22,4,Chinese,f,5,0.5,13.76556606,0.6738955
ZYX,9,0,2024-06-14T02:57:55.302Z,english_14.wav,0,1,355,22,4,Chinese,f,6,0.6,51.91139139,1.18134596
ZYX,9,0,2024-06-14T02:57:55.302Z,english_14.wav,0,1,355,22,4,Chinese,f,7,0.7,22.36023261,0.36193456
ZYX,9,0,2024-06-14T02:57:55.302Z,english_14.wav,0,1,355,22,4,Chinese,f,8,0.8,-6.30606285,1.01055915
ZYX,9,0,2024-06-14T02:57:55.302Z,english_14.wav,0,1,355,22,4,Chinese,f,9,0.9,44.07295662,1.51598154
ZYX,9,0,2024-06-14T02:57:55.302Z,english_14.wav,0,1,355,22,4,Chinese,f,10,1,49.08865221,1.55420583
ZYX,9,0,2024-06-14T02:57:55.302Z,english_14.wav,0,1,355,22,4,Chinese,f,11,1.09391667,-15.23758706,0.88497418
ZYX,10,0,2024-06-14T02:59:52.451Z,english_245.wav,0,1,1816,22,4,Chinese,f,0,0,-3.94489453,1.87262136
ZYX,10,0,2024-06-14T02:59:52.451Z,english_245.wav,0,1,1816,22,4,Chinese,f,1,0.1,93.78845114,1.5911659
ZYX,10,0,2024-06-14T02:59:52.451Z,english_245.wav,0,1,1816,22,4,Chinese,f,2,0.2,-15.4175353,0.77224849
ZYX,10,0,2024-06-14T02:59:52.451Z,english_245.wav,0,1,1816,22,4,Chinese,f,3,0.3,69.96206512,1.66276975
ZYX,10,0,2024-06-14T02:59:52.451Z,english_245.wav,0,1,1816,22,4,Chinese,f,4,0.4,-2.81275051,0.59757366
ZYX,10,0,2024-06-14T02:59:52.451Z,english_245.wav,0,1,1816,22,4,Chinese,f,5,0.5,-99.06344561,1.2271396
ZYX,10,0,2024-06-14T02:59:52.451Z,english_245.wav,0,1,1816,22,4,Chinese,f,6,0.6,93.3644365,0.27105927
ZYX,10,0,2024-06-14T02:59:52.451Z,english_245.wav,0,1,1816,22,4,Chinese,f,7,0.7,38.15823311,1.13207073
ZYX,10,0,2024-06-14T02:59:52.451Z,english_245.wav,0,1,1816,22,4,Chinese,f,8,0.8,51.44383365,0.42497597
ZYX,10,0,2024-06-14T02:59:52.451Z,english_245.wav,0,1,1816,22,4,Chinese,f,9,0.9,19.95795113,0.54403667
ZYX,10,0,2024-06-14T02:59:52.451Z,english_245.wav,0,1,1816,22,4,Chinese,f,10,1,-68.88770698,0.3131135
ZYX,10,0,2024-06-14T02:59:52.451Z,english_245.wav,0,1,1816,22,4,Chinese,f,11,1.09391667,99.45926262,1.0229568
ZYX,11,0,2024-06-14T02:59:52.451Z,english_840.wav,0,0,3324,22,4,Chinese,f,0,0,26.56026625,0.58802825
ZYX,11,0,2024-06-14T02:59:52.451Z,english_840.wav,0,0,3324,22,4,Chinese,f,1,0.1,-45.76742425,0.34012551
ZYX,11,0,2024-06-14T02:59:52.451Z,english_840.wav,0,0,3324,22,4,Chinese,f,2,0.2,58.26038182,1.59409568
ZYX,11,0,2024-06-14T02:59:52.451Z,english_840.wav,0,0,3324,22,4,Chinese,f,3,0.3,-41.91368618,1.45145116
ZYX,11,0,2024-06-14T02:59:52.451Z,english_840.wav,0,0,3324,22,4,Chinese,f,4,0.4,51.82879955,1.12346348
ZYX,11,0,2024-06-14T02:59:52.451Z,english_840.wav,0,0,3324,22,4,Chinese,f,5,0.5,-58.1814991,0.72614378
ZYX,11,0,2024-06-14T02:59:52.451Z,english_840.wav,0,0,3324,22,4,Chinese,f,6,0.6,-6.21480863,0.0561304
ZYX,11,0,2024-06-14T02:59:52.451Z,english_840.wav,0,0,3324,22,4,Chinese,f,7,0.7,-38.35463557,1.05027211
ZYX,11,0,2024-06-14T02:59:52.451Z,english_840.wav,0,0,3324,22,4,Chinese,f,8,0.8,62.53471627,0.63772174
ZYX,11,0,2024-06-14T02:59:52.451Z,english_840.wav,0,0,3324,22,4,Chinese,f,9,0.9,-5.88618506,0.79180252
ZYX,11,0,2024-06-14T02:59:52.451Z,english_840.wav,0,0,3324,22,4,Chinese,f,10,1,-22.96620486,0.08952915
ZYX,11,0,2024-06-14T02:59:52.451Z,english_840.wav,0,0,3324,22,4,Chinese,f,11,1.09391667,38.90401131,0.46969462
ZYX,12,0,2024-06-14T02:59:52.451Z,english_88.wav,0,1,840,22,4,Chinese,f,0,0,-71.9844785,0.53660294
ZYX,12,0,2024-06-14T02:59:52.451Z,english_88.wav,0,1,840,22,4,Chinese,f,1,0.1,-49.01939905,1.47642874
ZYX,12,0,2024-06-14T02:59:52.451Z,english_88.wav,0,1,840,22,4,Chinese,f,2,0.2,50.12381506,0.52511459
ZYX,12,0,2024-06-14T02:59:52.451Z,english_88.wav,0,1,840,22,4,Chinese,f,3,0.3,-84.58055822,1.50109779
ZYX,12,0,2024-06-14T02:59:52.451Z,english_88.wav,0,1,840,22,4,Chinese,f,4,0.4,-75.77840035,0.97976024
ZYX,12,0,2024-06-14T02:59:52.451Z,english_88.wav,0,1,840,22,4,Chinese,f,5,0.5,-24.7911267,0.85239994
ZYX,12,0,2024-06-14T02:59:52.451Z,english_88.wav,0,1,840,22,4,Chinese,f,6,0.6,-23.67428976,1.05191942
ZYX,12,0,2024-06-14T02:59:52.451Z,english_88.wav,0,1,840,22,4,Chinese,f,7,0.7,-54.46174988,0.4066024
ZYX,12,0,2024-06-14T02:59:52.451Z,english_88.wav,0,1,840,22,4,Chinese,f,8,0.8,17.41292988,0.004424
ZYX,12,0,2024-06-14T02:59:52.451Z,english_88.wav,0,1,840,22,4,Chinese,f,9,0.9,-76.44908604,1.90836134
ZYX,12,0,2024-06-14T02:59:52.451Z,english_88.wav,0,1,840,22,4,Chinese,f,10,1,-2.36913576,1.74184755
ZYX,12,0,2024-06-14T02:59:52.451Z,english_88.wav,0,1,840,22,4,Chinese,f,11,1.09391667,-39.62259758,0.66301055
ZYX,13,0,2024-06-14T02:59:52.451Z,english_517.wav,0,1,235,22,4,Chinese,f,0,0,66.65099922,0.14059347
ZYX,13,0,2024-06-14T02:59:52.451Z,english_517.wav,0,1,235,22,4,Chinese,f,1,0.1,-25.70388075,0.04284068
ZYX,13,0,2024-06-14T02:59:52.451Z,english_517.wav,0,1,235,22,4,Chinese,f,2,0.2,-22.37896652,0.61477249
ZYX,13,0,2024-06-14T02:59:52.451Z,english_517.wav,0,1,235,22,4,Chinese,f,3,0.3,-6.57908025,0.586151
ZYX,13,0,2024-06-14T02:59:52.451Z,english_517.wav,0,1,235,22,4,Chinese,f,4,0.4,14.90197081,0.82467301
ZYX,13,0,2024-06-14T02:59:52.451Z,english_517.wav,0,1,235,22,4,Chinese,f,5,0.5,28.13310888,1.4846696
ZYX,13,0,2024-06-14T02:59:52.451Z,english_517.wav,0,1,235,22,4,Chinese,f,6,0.6,67.72161666,1.87560286
ZYX,13,0,2024-06-14T02:59:52.451Z,english_517.wav,0,1,235,22,4,Chinese,f,7,0.7,-79.77738636,0.86888635
ZYX,13,0,2024-06-14T02:59:52.451Z,english_517.wav,0,1,235,22,4,Chinese,f,8,0.8,-9.62789869,0.65753642
ZYX,13,0,2024-06-14T02:59:52.451Z,english_517.wav,0,1,235,22,4,Chinese,f,9,0.9,-43.36595112,1.72637139
ZYX,13,0,2024-06-14T02:59:52.451Z,english_517.wav,0,1,235,22,4,Chinese,f,10,1,-65.22090713,0.00479054
ZYX,13,0,2024-06-14T02:59:52.451Z,english_517.wav,0,1,235,22,4,Chinese,f,11,1.09391667,93.99451349,1.63350936
ZYX,14,0,2024-06-14T02:59:52.451Z,english_412.wav,0,1,174,22,4,Chinese,f,0,0,26.80121406,1.83350646
ZYX,14,0,2024-06-14T02:59:52.451Z,english_412.wav,0,1,174,22,4,Chinese,f,1,0.1,42.5524274,0.85761925
ZYX,14,0,2024-06-14T02:59:52.451Z,english_412.wav,0,1,174,22,4,Chinese,f,2,0.2,38.73121894,0.81318793
ZYX,14,0,2024-06-14T02:59:52.451Z,english_412.wav,0,1,174,22,4,Chinese,f,3,0.3,55.35824973,1.83972978
ZYX,14,0,2024-06-14T02:59:52.451Z,english_412.wav,0,1,174,22,4,Chinese,f,4,0.4,-87.34208499,0.56193469
ZYX,14,0,2024-06-14T02:59:52.451Z,english_412.wav,0,1,174,22,4,Chinese,f,5,0.5,91.77879658,1.27086462
ZYX,14,0,2024-06-14T02:59:52.451Z,english_412.wav,0,1,174,22,4,Chinese,f,6,0.6,-99.58264321,1.22553346
ZYX,14,0,2024-06-14T02:59:52.451Z,english_412.wav,0,1,174,22,4,Chinese,f,7,0.7,89.55239913,0.34439159
ZYX,14,0,2024-06-14T02:59:52.451Z,english_412.wav,0,1,174,22,4,Chinese,f,8,0.8,-28.13161571,1.78223109
ZYX,14,0,2024-06-14T02:59:52.451Z,english_412.wav,0,1,174,22,4,Chinese,f,9,0.9,19.27007549,1.75477532
ZYX,14,0,2024-06-14T02:59:52.451Z,english_412.wav,0,1,174,22,4,Chinese,f,10,1,60.0301485,0.33667923
ZYX,14,0,2024-06-14T02:59:52.451Z,english_412.wav,0,1,174,22,4,Chinese,f,11,1.09391667,67.95145907,1.7966079
ZYX,15,0,2024-06-14T02:59:52.451Z,english_807.wav,0,0,462,22,4,Chinese,f,0,0,-34.7601745,1.20965337
ZYX,15,0,2024-06-14T02:59:52.451Z,english_807.wav,0,0,462,22,4,Chinese,f,1,0.1,33.36048689,1.65563234
ZYX,15,0,2024-06-14T02:59:52.451Z,english_807.wav,0,0,462,22,4,Chinese,f,2,0.2,-67.67370502,1.59964516
ZYX,15,0,2024-06-14T02:59:52.451Z,english_807.wav,0,0,462,22,4,Chinese,f,3,0.3,-75.303265,0.1616649
ZYX,15,0,2024-06-14T02:59:52.451Z,english_807.wav,0,0,462,22,4,Chinese,f,4,0.4,50.02795893,0.65690397
ZYX,15,0,2024-06-14T02:59:52.451Z,english_807.wav,0,0,462,22,4,Chinese,f,5,0.5,-86.15237501,1.06047173
ZYX,15,0,2024-06-14T02:59:52.451Z,english_807.wav,0,0,462,22,4,Chinese,f,6,0.6,75.95576156,1.33167503
ZYX,15,0,2024-06-14T02:59:52.451Z,english_807.wav,0,0,462,22,4,Chinese,f,7,0.7,90.49040763,0.49356808
ZYX,15,0,2024-06-14T02:59:52.451Z,english_807.wav,0,0,462,22,4,Chinese,f,8,0.8,-21.66303016,0.55567292
ZYX,15,0,2024-06-14T02:59:52.451Z,english_807.wav,0,0,462,22,4,Chinese,f,9,0.9,-29.03621191,1.52247069
ZYX,15,0,2024-06-14T02:59:52.451Z,english_807.wav,0,0,462,22,4,Chinese,f,10,1,-43.10401298,1.04125391
ZYX,15,0,2024-06-14T02:59:52.451Z,english_807.wav,0,0,462,22,4,Chinese,f,11,1.09391667,15.25709301,0.73437953
ZYX,16,0,2024-06-14T02:59:52.451Z,english_746.wav,0,0,86,22,4,Chinese,f,0,0,-17.85129661,0.72236584
ZYX,16,0,2024-06-14T02:59:52.451Z,english_746.wav,0,0,86,22,4,Chinese,f,1,0.1,44.49284576,1.69903141
ZYX,16,0,2024-06-14T02:59:52.451Z,english_746.wav,0,0,86,22,4,Chinese,f,2,0.2,-28.07602373,1.83658278
ZYX,16,0,2024-06-14T02:59:52.451Z,english_746.wav,0,0,86,22,4,Chinese,f,3,0.3,80.79649727,0.38437005
ZYX,16,0,2024-06-14T02:59:52.451Z,english_746.wav,0,0,86,22,4,Chinese,f,4,0.4,-35.87476706,0.19777168
ZYX,16,0,2024-06-14T02:59:52.451Z,english_746.wav,0,0,86,22,4,Chinese,f,5,0.5,-13.61927607,0.81094496
ZYX,16,0,2024-06-14T02:59:52.451Z,english_746.wav,0,0,86,22,4,Chinese,f,6,0.6,-13.45090469,0.04159101
ZYX,16,0,2024-06-14T02:59:52.451Z,english_746.wav,0,0,86,22,4,Chinese,f,7,0.7,74.7415388,0.34194607
ZYX,16,0,2024-06-14T02:59:52.451Z,english_746.wav,0,0,86,22,4,Chinese,f,8,0.8,-73.80839868,1.34456722
ZYX,16,0,2024-06-14T02:59:52.451Z,english_746.wav,0,0,86,22,4,Chinese,f,9,0.9,16.67710805,0.32922526
ZYX,16,0,2024-06-14T02:59:52.451Z,english_746.wav,0,0,86,22,4,Chinese,f,10,1,90.26780737,0.60956501
ZYX,16,0,2024-06-14T02:59:52.451Z,english_746.wav,0,0,86,22,4,Chinese,f,11,1.09391667,-18.98803571,1.98648295
ZYX,10,0,2024-06-14T02:57:55.302Z,english_245.wav,0,0,960,22,4,Chinese,f,0,0,-3.94489453,1.87262136
ZYX,10,0,2024-06-14T02:57:55.302Z,english_245.wav,0,0,960,22,4,Chinese,f,1,0.1,93.78845114,1.5911659
ZYX,10,0,2024-06-14T02:57:55.302Z,english_245.wav,0,0,960,22,4,Chinese,f,2,0.2,-15.4175353,0.77224849
ZYX,10,0,2024-06-14T02:57:55.302Z,english_245.wav,0,0,960,22,4,Chinese,f,3,0.3,69.96206512,1.66276975
ZYX,10,0,2024-06-14T02:57:55.302Z,english_245.wav,0,0,960,22,4,Chinese,f,4,0.4,-2.81275051,0.59757366
ZYX,10,0,2024-06-14T02:57:55.302Z,english_245.wav,0,0,960,22,4,Chinese,f,5,0.5,-99.06344561,1.2271396
ZYX,10,0,2024-06-14T02:57:55.302Z,english_245.wav,0,0,960,22,4,Chinese,f,6,0.6,93.3644365,0.27105927
ZYX,10,0,2024-06-14T02:57:55.302Z,english_245.wav,0,0,960,22,4,Chinese,f,7,0.7,38.15823311,1.13207073
ZYX,10,0,2024-06-14T02:57:55.302Z,english_245.wav,0,0,960,22,4,Chinese,f,8,0.8,51.44383365,0.42497597
ZYX,10,0,2024-06-14T02:57:55.302Z,english_245.wav,0,0,960,22,4,Chinese,f,9,0.9,19.95795113,0.54403667
ZYX,10,0,2024-06-14T02:57:55.302Z,english_245.wav,0,0,960,22,4,Chinese,f,10,1,-68.88770698,0.3131135
ZYX,10,0,2024-06-14T02:57:55.302Z,english_245.wav,0,0,960,22,4,Chinese,f,11,1.09391667,99.45926262,1.0229568
ZYX,11,0,2024-06-14T02:57:55.302Z,english_840.wav,0,0,168,22,4,Chinese,f,0,0,26.56026625,0.58802825
ZYX,11,0,2024-06-14T02:57:55.302Z,english_840.wav,0,0,168,22,4,Chinese,f,1,0.1,-45.76742425,0.34012551
ZYX,11,0,2024-06-14T02:57:55.302Z,english_840.wav,0,0,168,22,4,Chinese,f,2,0.2,58.26038182,1.59409568
ZYX,11,0,2024-06-14T02:57:55.302Z,english_840.wav,0,0,168,22,4,Chinese,f,3,0.3,-41.91368618,1.45145116
ZYX,11,0,2024-06-14T02:57:55.302Z,english_840.wav,0,0,168,22,4,Chinese,f,4,0.4,51.82879955,1.12346348
ZYX,11,0,2024-06-14T02:57:55.302Z,english_840.wav,0,0,168,22,4,Chinese,f,5,0.5,-58.1814991,0.72614378
ZYX,11,0,2024-06-14T02:57:55.302Z,english_840.wav,0,0,168,22,4,Chinese,f,6,0.6,-6.21480863,0.0561304
ZYX,11,0,2024-06-14T02:57:55.302Z,english_840.wav,0,0,168,22,4,Chinese,f,7,0.7,-38.35463557,1.05027211
ZYX,11,0,2024-06-14T02:57:55.302Z,english_840.wav,0,0,168,22,4,Chinese,f,8,0.8,62.53471627,0.63772174
ZYX,11,0,2024-06-14T02:57:55.302Z,english_840.wav,0,0,168,22,4,Chinese,f,9,0.9,-5.88618506,0.79180252
ZYX,11,0,2024-06-14T02:57:55.302Z,english_840.wav,0,0,168,22,4,Chinese,f,10,1,-22.96620486,0.08952915
ZYX,11,0,2024-06-14T02:57:55.302Z,english_840.wav,0,0,168,22,4,Chinese,f,11,1.09391667,38.90401131,0.46969462
ZYX,12,0,2024-06-14T02:57:55.302Z,english_88.wav,0,1,580,22,4,Chinese,f,0,0,-71.9844785,0.53660294
ZYX,12,0,2024-06-14T02:57:55.302Z,english_88.wav,0,1,580,22,4,Chinese,f,1,0.1,-49.01939905,1.47642874
ZYX,12,0,2024-06-14T02:57:55.302Z,english_88.wav,0,1,580,22,4,Chinese,f,2,0.2,50.12381506,0.52511459
ZYX,12,0,2024-06-14T02:57:55.302Z,english_88.wav,0,1,580,22,4,Chinese,f,3,0.3,-84.58055822,1.50109779
ZYX,12,0,2024-06-14T02:57:55.302Z,english_88.wav,0,1,580,22,4,Chinese,f,4,0.4,-75.77840035,0.97976024
ZYX,12,0,2024-06-14T02:57:55.302Z,english_88.wav,0,1,580,22,4,Chinese,f,5,0.5,-24.7911267,0.85239994
ZYX,12,0,2024-06-14T02:57:55.302Z,english_88.wav,0,1,580,22,4,Chinese,f,6,0.6,-23.67428976,1.05191942
ZYX,12,0,2024-06-14T02:57:55.302Z,english_88.wav,0,1,580,22,4,Chinese,f,7,0.7,-54.46174988,0.4066024
ZYX,12,0,2024-06-14T02:57:55.302Z,english_88.wav,0,1,580,22,4,Chinese,f,8,0.8,17.41292988,0.004424
ZYX,12,0,2024-06-14T02:57:55.302Z,english_88.wav,0,1,580,22,4,Chinese,f,9,0.9,-76.44908604,1.90836134
ZYX,12,0,2024-06-14T02:57:55.302Z,english_88.wav,0,1,580,22,4,Chinese,f,10,1,-2.36913576,1.74184755
ZYX,12,0,2024-06-14T02:57:55.302Z,english_88.wav,0,1,580,22,4,Chinese,f,11,1.09391667,-39.62259758,0.66301055
ZYX,13,0,2024-06-14T02:57:55.302Z,english_517.wav,0,1,423,22,4,Chinese,f,0,0,66.65099922,0.14059347
ZYX,13,0,2024-06-14T02:57:55.302Z,english_517.wav,0,1,423,22,4,Chinese,f,1,0.1,-25.70388075,0.04284068
ZYX,13,0,2024-06-14T02:57:55.302Z,english_517.wav,0,1,423,22,4,Chinese,f,2,0.2,-22.37896652,0.61477249
ZYX,13,0,2024-06-14T02:57:55.302Z,english_517.wav,0,1,423,22,4,Chinese,f,3,0.3,-6.57908025,0.586151
ZYX,13,0,2024-06-14T02:57:55.302Z,english_517.wav,0,1,423,22,4,Chinese,f,4,0.4,14.90197081,0.82467301
ZYX,13,0,2024-06-14T02:57:55.302Z,english_517.wav,0,1,423,22,4,Chinese,f,5,0.5,28.13310888,1.4846696
ZYX,13,0,2024-06-14T02:57:55.302Z,english_517.wav,0,1,423,22,4,Chinese,f,6,0.6,67.72161666,1.87560286
ZYX,13,0,2024-06-14T02:57:55.302Z,english_517.wav,0,1,423,22,4,Chinese,f,7,0.7,-79.77738636,0.86888635
ZYX,13,0,2024-06-14T02:57:55.302Z,english_517.wav,0,1,423,22,4,Chinese,f,8,0.8,-9.62789869,0.65753642
ZYX,13,0,2024-06-14T02:57:55.302Z,english_517.wav,0,1,423,22,4,Chinese,f,9,0.9,-43.36595112,1.72637139
ZYX,13,0,2024-06-14T02:57:55.302Z,english_517.wav,0,1,423,22,4,Chinese,f,10,1,-65.22090713,0.00479054
ZYX,13,0,2024-06-14T02:57:55.302Z,english_517.wav,0,1,423,22,4,Chinese,f,11,1.09391667,93.99451349,1.63350936
ZYX,14,0,2024-06-14T02:57:55.302Z,english_412.wav,0,1,815,22,4,Chinese,f,0,0,26.80121406,1.83350646
ZYX,14,0,2024-06-14T02:57:55.302Z,english_412.wav,0,1,815,22,4,Chinese,f,1,0.1,42.5524274,0.85761925
ZYX,14,0,2024-06-14T02:57:55.302Z,english_412.wav,0,1,815,22,4,Chinese,f,2,0.2,38.73121894,0.81318793
ZYX,14,0,2024-06-14T02:57:55.302Z,english_412.wav,0,1,815,22,4,Chinese,f,3,0.3,55.35824973,1.83972978
ZYX,14,0,2024-06-14T02:57:55.302Z,english_412.wav,0,1,815,22,4,Chinese,f,4,0.4,-87.34208499,0.56193469
ZYX,14,0,2024-06-14T02:57:55.302Z,english_412.wav,0,1,815,22,4,Chinese,f,5,0.5,91.77879658,1.27086462
ZYX,14,0,2024-06-14T02:57:55.302Z,english_412.wav,0,1,815,22,4,Chinese,f,6,0.6,-99.58264321,1.22553346
ZYX,14,0,2024-06-14T02:57:55.302Z,english_412.wav,0,1,815,22,4,Chinese,f,7,0.7,89.55239913,0.34439159
ZYX,14,0,2024-06-14T02:57:55.302Z,english_412.wav,0,1,815,22,4,Chinese,f,8,0.8,-28.13161571,1.78223109
ZYX,14,0,2024-06-14T02:57:55.302Z,english_412.wav,0,1,815,22,4,Chinese,f,9,0.9,19.27007549,1.75477532
ZYX,14,0,2024-06-14T02:57:55.302Z,english_412.wav,0,1,815,22,4,Chinese,f,10,1,60.0301485,0.33667923
ZYX,14,0,2024-06-14T02:57:55.302Z,english_412.wav,0,1,815,22,4,Chinese,f,11,1.09391667,67.95145907,1.7966079
ZYX,15,0,2024-06-14T02:57:55.302Z,english_807.wav,0,1,9762,22,4,Chinese,f,0,0,-34.7601745,1.20965337
ZYX,15,0,2024-06-14T02:57:55.302Z,english_807.wav,0,1,9762,22,4,Chinese,f,1,0.1,33.36048689,1.65563234
ZYX,15,0,2024-06-14T02:57:55.302Z,english_807.wav,0,1,9762,22,4,Chinese,f,2,0.2,-67.67370502,1.59964516
ZYX,15,0,2024-06-14T02:57:55.302Z,english_807.wav,0,1,9762,22,4,Chinese,f,3,0.3,-75.303265,0.1616649
ZYX,15,0,2024-06-14T02:57:55.302Z,english_807.wav,0,1,9762,22,4,Chinese,f,4,0.4,50.02795893,0.65690397
ZYX,15,0,2024-06-14T02:57:55.302Z,english_807.wav,0,1,9762,22,4,Chinese,f,5,0.5,-86.15237501,1.06047173
ZYX,15,0,2024-06-14T02:57:55.302Z,english_807.wav,0,1,9762,22,4,Chinese,f,6,0.6,75.95576156,1.33167503
ZYX,15,0,2024-06-14T02:57:55.302Z,english_807.wav,0,1,9762,22,4,Chinese,f,7,0.7,90.49040763,0.49356808
ZYX,15,0,2024-06-14T02:57:55.302Z,english_807.wav,0,1,9762,22,4,Chinese,f,8,0.8,-21.66303016,0.55567292
ZYX,15,0,2024-06-14T02:57:55.302Z,english_807.wav,0,1,9762,22,4,Chinese,f,9,0.9,-29.03621191,1.52247069
ZYX,15,0,2024-06-14T02:57:55.302Z,english_807.wav,0,1,9762,22,4,Chinese,f,10,1,-43.10401298,1.04125391
ZYX,15,0,2024-06-14T02:57:55.302Z,english_807.wav,0,1,9762,22,4,Chinese,f,11,1.09391667,15.25709301,0.73437953
ZYX,16,0,2024-06-14T02:57:55.302Z,english_746.wav,0,0,450,22,4,Chinese,f,0,0,-17.85129661,0.72236584
ZYX,16,0,2024-06-14T02:57:55.302Z,english_746.wav,0,0,450,22,4,Chinese,f,1,0.1,44.49284576,1.69903141
ZYX,16,0,2024-06-14T02:57:55.302Z,english_746.wav,0,0,450,22,4,Chinese,f,2,0.2,-28.07602373,1.83658278
ZYX,16,0,2024-06-14T02:57:55.302Z,english_746.wav,0,0,450,22,4,Chinese,f,3,0.3,80.79649727,0.38437005
ZYX,16,0,2024-06-14T02:57:55.302Z,english_746.wav,0,0,450,22,4,Chinese,f,4,0.4,-35.87476706,0.19777168
ZYX,16,0,2024-06-14T02:57:55.302Z,english_746.wav,0,0,450,22,4,Chinese,f,5,0.5,-13.61927607,0.81094496
ZYX,16,0,2024-06-14T02:57:55.302Z,english_746.wav,0,0,450,22,4,Chinese,f,6,0.6,-13.45090469,0.04159101
ZYX,16,0,2024-06-14T02:57:55.302Z,english_746.wav,0,0,450,22,4,Chinese,f,7,0.7,74.7415388,0.34194607
ZYX,16,0,2024-06-14T02:57:55.302Z,english_746.wav,0,0,450,22,4,Chinese,f,8,0.8,-73.80839868,1.34456722
ZYX,16,0,2024-06-14T02:57:55.302Z,english_746.wav,0,0,450,22,4,Chinese,f,9,0.9,16.67710805,0.32922526
ZYX,16,0,2024-06-14T02:57:55.302Z,english_746.wav,0,0,450,22,4,Chinese,f,10,1,90.26780737,0.60956501
ZYX,16,0,2024-06-14T02:57:55.302Z,english_746.wav,0,0,450,22,4,Chinese,f,11,1.09391667,-18.98803571,1.98648295
ZYX,17,0,2024-06-14T02:57:55.302Z,english_400.wav,0,1,283,22,4,Chinese,f,0,0,-25.02230777,0.48486425
ZYX,17,0,2024-06-14T02:57:55.302Z,english_400.wav,0,1,283,22,4,Chinese,f,1,0.1,49.22110948,0.13954262
ZYX,17,0,2024-06-14T02:57:55.302Z,english_400.wav,0,1,283,22,4,Chinese,f,2,0.2,-25.24422823,0.30114108
ZYX,17,0,2024-06-14T02:57:55.302Z,english_400.wav,0,1,283,22,4,Chinese,f,3,0.3,-67.45566663,0.1192849
ZYX,17,0,2024-06-14T02:57:55.302Z,english_400.wav,0,1,283,22,4,Chinese,f,4,0.4,-45.51948519,1.32093998
ZYX,17,0,2024-06-14T02:57:55.302Z,english_400.wav,0,1,283,22,4,Chinese,f,5,0.5,-18.6326315,1.53333364
ZYX,17,0,2024-06-14T02:57:55.302Z,english_400.wav,0,1,283,22,4,Chinese,f,6,0.6,39.79801231,1.63066866
ZYX,17,0,2024-06-14T02:57:55.302Z,english_400.wav,0,1,283,22,4,Chinese,f,7,0.7,-16.89099315,1.10413319
ZYX,17,0,2024-06-14T02:57:55.302Z,english_400.wav,0,1,283,22,4,Chinese,f,8,0.8,73.50338814,1.82884713
ZYX,17,0,2024-06-14T02:57:55.302Z,english_400.wav,0,1,283,22,4,Chinese,f,9,0.9,34.20665044,0.24999453
ZYX,17,0,2024-06-14T02:57:55.302Z,english_400.wav,0,1,283,22,4,Chinese,f,10,1,43.60884608,0.44753764
ZYX,17,0,2024-06-14T02:57:55.302Z,english_400.wav,0,1,283,22,4,Chinese,f,11,1.09391667,-63.62307837,1.09142561
ZYX,18,0,2024-06-14T02:57:55.302Z,english_910.wav,0,1,296,22,4,Chinese,f,0,0,93.46024718,0.69074333
ZYX,18,0,2024-06-14T02:57:55.302Z,english_910.wav,0,1,296,22,4,Chinese,f,1,0.1,-38.0106705,0.32933862
ZYX,18,0,2024-06-14T02:57:55.302Z,english_910.wav,0,1,296,22,4,Chinese,f,2,0.2,-30.70791106,1.76708997
ZYX,18,0,2024-06-14T02:57:55.302Z,english_910.wav,0,1,296,22,4,Chinese,f,3,0.3,-49.1070975,0.49648564
ZYX,18,0,2024-06-14T02:57:55.302Z,english_910.wav,0,1,296,22,4,Chinese,f,4,0.4,91.46247689,1.45285745
ZYX,18,0,2024-06-14T02:57:55.302Z,english_910.wav,0,1,296,22,4,Chinese,f,5,0.5,78.82386136,1.00544929
ZYX,18,0,2024-06-14T02:57:55.302Z,english_910.wav,0,1,296,22,4,Chinese,f,6,0.6,-6.45155929,1.307348
ZYX,18,0,2024-06-14T02:57:55.302Z,english_910.wav,0,1,296,22,4,Chinese,f,7,0.7,-83.2103546,0.52979989
ZYX,18,0,2024-06-14T02:57:55.302Z,english_910.wav,0,1,296,22,4,Chinese,f,8,0.8,-83.88050829,1.11439341
ZYX,18,0,2024-06-14T02:57:55.302Z,english_910.wav,0,1,296,22,4,Chinese,f,9,0.9,-99.45548406,1.95169189
ZYX,18,0,2024-06-14T02:57:55.302Z,english_910.wav,0,1,296,22,4,Chinese,f,10,1,66.97768693,1.74620984
ZYX,18,0,2024-06-14T02:57:55.302Z,english_910.wav,0,1,296,22,4,Chinese,f,11,1.09391667,38.56846955,0.09671244
ZYX,19,0,2024-06-14T02:57:55.302Z,english_917.wav,0,0,497,22,4,Chinese,f,0,0,-35.3182661,1.27669121
ZYX,19,0,2024-06-14T02:57:55.302Z,english_917.wav,0,0,497,22,4,Chinese,f,1,0.1,-21.7738587,1.4602349
ZYX,19,0,2024-06-14T02:57:55.302Z,english_917.wav,0,0,497,22,4,Chinese,f,2,0.2,82.1428169,0.09750383
ZYX,19,0,2024-06-14T02:57:55.302Z,english_917.wav,0,0,497,22,4,Chinese,f,3,0.3,-12.2731677,0.51655458
ZYX,19,0,2024-06-14T02:57:55.302Z,english_917.wav,0,0,497,22,4,Chinese,f,4,0.4,4.83424811,1.15347497
ZYX,19,0,2024-06-14T02:57:55.302Z,english_917.wav,0,0,497,22,4,Chinese,f,5,0.5,-0.0854945092,1.01469442
ZYX,19,0,2024-06-14T02:57:55.302Z,english_917.wav,0,0,497,22,4,Chinese,f,6,0.6,-92.693816,0.31102011
ZYX,19,0,2024-06-14T02:57:55.302Z,english_917.wav,0,0,497,22,4,Chinese,f,7,0.7,-91.5131295,1.44230515
ZYX,19,0,2024-06-14T02:57:55.302Z,english_917.wav,0,0,497,22,4,Chinese,f,8,0.8,58.0373061,0.03377485
ZYX,19,0,2024-06-14T02:57:55.302Z,english_917.wav,0,0,497,22,4,Chinese,f,9,0.9,-28.6534312,0.48994194
ZYX,19,0,2024-06-14T02:57:55.302Z,english_917.wav,0,0,497,22,4,Chinese,f,10,1,45.4510696,0.17679016
ZYX,19,0,2024-06-14T02:57:55.302Z,english_917.wav,0,0,497,22,4,Chinese,f,11,1.09391667,48.3165221,0.94650881
ZYX,20,0,2024-06-14T02:57:55.302Z,english_282.wav,0,0,429,22,4,Chinese,f,0,0,79.51809952,1.2792911
ZYX,20,0,2024-06-14T02:57:55.302Z,english_282.wav,0,0,429,22,4,Chinese,f,1,0.1,55.92109115,0.93344042
ZYX,20,0,2024-06-14T02:57:55.302Z,english_282.wav,0,0,429,22,4,Chinese,f,2,0.2,36.01060515,1.94968889
ZYX,20,0,2024-06-14T02:57:55.302Z,english_282.wav,0,0,429,22,4,Chinese,f,3,0.3,4.60281664,1.12428424
ZYX,20,0,2024-06-14T02:57:55.302Z,english_282.wav,0,0,429,22,4,Chinese,f,4,0.4,35.69966579,0.7610034
ZYX,20,0,2024-06-14T02:57:55.302Z,english_282.wav,0,0,429,22,4,Chinese,f,5,0.5,-79.87721836,0.66186596
ZYX,20,0,2024-06-14T02:57:55.302Z,english_282.wav,0,0,429,22,4,Chinese,f,6,0.6,-3.98252218,0.57211865
ZYX,20,0,2024-06-14T02:57:55.302Z,english_282.wav,0,0,429,22,4,Chinese,f,7,0.7,-78.10052274,0.40544896
ZYX,20,0,2024-06-14T02:57:55.302Z,english_282.wav,0,0,429,22,4,Chinese,f,8,0.8,69.1474283,0.68156422
ZYX,20,0,2024-06-14T02:57:55.302Z,english_282.wav,0,0,429,22,4,Chinese,f,9,0.9,58.09261901,0.87028019
ZYX,20,0,2024-06-14T02:57:55.302Z,english_282.wav,0,0,429,22,4,Chinese,f,10,1,94.50826365,1.91563213
ZYX,20,0,2024-06-14T02:57:55.302Z,english_282.wav,0,0,429,22,4,Chinese,f,11,1.09391667,71.90418642,1.01931827
ZYX,21,0,2024-06-14T02:57:55.302Z,english_580.wav,0,0,210,22,4,Chinese,f,0,0,13.25816798,1.08575691
ZYX,21,0,2024-06-14T02:57:55.302Z,english_580.wav,0,0,210,22,4,Chinese,f,1,0.1,5.77647533,0.54086757
ZYX,21,0,2024-06-14T02:57:55.302Z,english_580.wav,0,0,210,22,4,Chinese,f,2,0.2,72.78999168,0.73021835
ZYX,21,0,2024-06-14T02:57:55.302Z,english_580.wav,0,0,210,22,4,Chinese,f,3,0.3,-47.92422824,1.37147127
ZYX,21,0,2024-06-14T02:57:55.302Z,english_580.wav,0,0,210,22,4,Chinese,f,4,0.4,-43.47633617,0.74349833
ZYX,21,0,2024-06-14T02:57:55.302Z,english_580.wav,0,0,210,22,4,Chinese,f,5,0.5,77.25010358,1.2598917
ZYX,21,0,2024-06-14T02:57:55.302Z,english_580.wav,0,0,210,22,4,Chinese,f,6,0.6,3.91161984,0.03492262
ZYX,21,0,2024-06-14T02:57:55.302Z,english_580.wav,0,0,210,22,4,Chinese,f,7,0.7,81.00627676,1.8293003
ZYX,21,0,2024-06-14T02:57:55.302Z,english_580.wav,0,0,210,22,4,Chinese,f,8,0.8,-33.28825485,0.6502698
ZYX,21,0,2024-06-14T02:57:55.302Z,english_580.wav,0,0,210,22,4,Chinese,f,9,0.9,-0.84600443,1.16525453
ZYX,21,0,2024-06-14T02:57:55.302Z,english_580.wav,0,0,210,22,4,Chinese,f,10,1,-76.41274274,1.3130508
ZYX,21,0,2024-06-14T02:57:55.302Z,english_580.wav,0,0,210,22,4,Chinese,f,11,1.09391667,-41.12581414,1.44461782
ZYX,22,0,2024-06-14T02:57:55.302Z,english_689.wav,0,0,1116,22,4,Chinese,f,0,0,83.12133252,1.04214093
ZYX,22,0,2024-06-14T02:57:55.302Z,english_689.wav,0,0,1116,22,4,Chinese,f,1,0.1,-80.97372196,0.40468985
ZYX,22,0,2024-06-14T02:57:55.302Z,english_689.wav,0,0,1116,22,4,Chinese,f,2,0.2,-28.26528551,1.50877389
ZYX,22,0,2024-06-14T02:57:55.302Z,english_689.wav,0,0,1116,22,4,Chinese,f,3,0.3,42.6688421,1.67206734
ZYX,22,0,2024-06-14T02:57:55.302Z,english_689.wav,0,0,1116,22,4,Chinese,f,4,0.4,6.31951717,1.24892229
ZYX,22,0,2024-06-14T02:57:55.302Z,english_689.wav,0,0,1116,22,4,Chinese,f,5,0.5,65.13167849,0.38767445
ZYX,22,0,2024-06-14T02:57:55.302Z,english_689.wav,0,0,1116,22,4,Chinese,f,6,0.6,-21.58547915,1.45702475
ZYX,22,0,2024-06-14T02:57:55.302Z,english_689.wav,0,0,1116,22,4,Chinese,f,7,0.7,-38.42350837,0.16690889
ZYX,22,0,2024-06-14T02:57:55.302Z,english_689.wav,0,0,1116,22,4,Chinese,f,8,0.8,72.27336224,1.13554192
ZYX,22,0,2024-06-14T02:57:55.302Z,english_689.wav,0,0,1116,22,4,Chinese,f,9,0.9,-22.08116071,0.21927817
ZYX,22,0,2024-06-14T02:57:55.302Z,english_689.wav,0,0,1116,22,4,Chinese,f,10,1,-2.34337227,0.41094591
ZYX,22,0,2024-06-14T02:57:55.302Z,english_689.wav,0,0,1116,22,4,Chinese,f,11,1.09391667,32.05995553,0.34398042
ZYX,23,0,2024-06-14T02:57:55.302Z,english_883.wav,0,0,3570,22,4,Chinese,f,0,0,-84.46412598,0.36586486
ZYX,23,0,2024-06-14T02:57:55.302Z,english_883.wav,0,0,3570,22,4,Chinese,f,1,0.1,-48.29800463,1.2838589
ZYX,23,0,2024-06-14T02:57:55.302Z,english_883.wav,0,0,3570,22,4,Chinese,f,2,0.2,-81.14674871,0.35124497
ZYX,23,0,2024-06-14T02:57:55.302Z,english_883.wav,0,0,3570,22,4,Chinese,f,3,0.3,-14.72052063,0.55313004
ZYX,23,0,2024-06-14T02:57:55.302Z,english_883.wav,0,0,3570,22,4,Chinese,f,4,0.4,84.15645486,1.38696071
ZYX,23,0,2024-06-14T02:57:55.302Z,english_883.wav,0,0,3570,22,4,Chinese,f,5,0.5,-46.7306994,0.05285084
ZYX,23,0,2024-06-14T02:57:55.302Z,english_883.wav,0,0,3570,22,4,Chinese,f,6,0.6,-55.92753429,0.33437309
ZYX,23,0,2024-06-14T02:57:55.302Z,english_883.wav,0,0,3570,22,4,Chinese,f,7,0.7,69.20414462,0.05014106
ZYX,23,0,2024-06-14T02:57:55.302Z,english_883.wav,0,0,3570,22,4,Chinese,f,8,0.8,42.35113705,1.1093355
ZYX,23,0,2024-06-14T02:57:55.302Z,english_883.wav,0,0,3570,22,4,Chinese,f,9,0.9,68.93741473,1.05755937
ZYX,23,0,2024-06-14T02:57:55.302Z,english_883.wav,0,0,3570,22,4,Chinese,f,10,1,5.16727893,0.06749628
ZYX,23,0,2024-06-14T02:57:55.302Z,english_883.wav,0,0,3570,22,4,Chinese,f,11,1.09391667,-87.05225408,1.22701865
ZYX,24,0,2024-06-14T02:57:55.302Z,english_744.wav,0,1,2605,22,4,Chinese,f,0,0,68.01647572,0.92301697
ZYX,24,0,2024-06-14T02:57:55.302Z,english_744.wav,0,1,2605,22,4,Chinese,f,1,0.1,-94.84396495,1.7240092
ZYX,24,0,2024-06-14T02:57:55.302Z,english_744.wav,0,1,2605,22,4,Chinese,f,2,0.2,-7.3752647,0.78395161
ZYX,24,0,2024-06-14T02:57:55.302Z,english_744.wav,0,1,2605,22,4,Chinese,f,3,0.3,-81.08479212,1.15168853
ZYX,24,0,2024-06-14T02:57:55.302Z,english_744.wav,0,1,2605,22,4,Chinese,f,4,0.4,-44.66331389,0.98824464
ZYX,24,0,2024-06-14T02:57:55.302Z,english_744.wav,0,1,2605,22,4,Chinese,f,5,0.5,-77.45989494,1.26560798
ZYX,24,0,2024-06-14T02:57:55.302Z,english_744.wav,0,1,2605,22,4,Chinese,f,6,0.6,19.1026234,0.20042884
ZYX,24,0,2024-06-14T02:57:55.302Z,english_744.wav,0,1,2605,22,4,Chinese,f,7,0.7,-0.63798112,1.76365186
ZYX,24,0,2024-06-14T02:57:55.302Z,english_744.wav,0,1,2605,22,4,Chinese,f,8,0.8,74.86031238,1.68948901
ZYX,24,0,2024-06-14T02:57:55.302Z,english_744.wav,0,1,2605,22,4,Chinese,f,9,0.9,-35.9107796,0.81659748
ZYX,24,0,2024-06-14T02:57:55.302Z,english_744.wav,0,1,2605,22,4,Chinese,f,10,1,-6.98299608,1.14393897
ZYX,24,0,2024-06-14T02:57:55.302Z,english_744.wav,0,1,2605,22,4,Chinese,f,11,1.09391667,-12.26999011,0.86480781
ZYX,25,0,2024-06-14T02:57:55.302Z,english_305.wav,0,0,299,22,4,Chinese,f,0,0,17.49267602,0.00977258
ZYX,25,0,2024-06-14T02:57:55.302Z,english_305.wav,0,0,299,22,4,Chinese,f,1,0.1,17.59035292,1.17585195
ZYX,25,0,2024-06-14T02:57:55.302Z,english_305.wav,0,0,299,22,4,Chinese,f,2,0.2,83.12376417,1.66932103
ZYX,25,0,2024-06-14T02:57:55.302Z,english_305.wav,0,0,299,22,4,Chinese,f,3,0.3,-81.59474703,0.83160233
ZYX,25,0,2024-06-14T02:57:55.302Z,english_305.wav,0,0,299,22,4,Chinese,f,4,0.4,-99.63264863,1.05024367
ZYX,25,0,2024-06-14T02:57:55.302Z,english_305.wav,0,0,299,22,4,Chinese,f,5,0.5,42.69289025,1.13369845
ZYX,25,0,2024-06-14T02:57:55.302Z,english_305.wav,0,0,299,22,4,Chinese,f,6,0.6,82.55548118,0.21867151
ZYX,25,0,2024-06-14T02:57:55.302Z,english_305.wav,0,0,299,22,4,Chinese,f,7,0.7,15.87479687,0.32447169
ZYX,25,0,2024-06-14T02:57:55.302Z,english_305.wav,0,0,299,22,4,Chinese,f,8,0.8,-15.6323718,1.86350195
ZYX,25,0,2024-06-14T02:57:55.302Z,english_305.wav,0,0,299,22,4,Chinese,f,9,0.9,98.18396958,0.82463705
ZYX,25,0,2024-06-14T02:57:55.302Z,english_305.wav,0,0,299,22,4,Chinese,f,10,1,52.83112054,0.94709308
ZYX,25,0,2024-06-14T02:57:55.302Z,english_305.wav,0,0,299,22,4,Chinese,f,11,1.09391667,33.63343534,0.36254065
ZYX,26,0,2024-06-14T02:57:55.302Z,english_652.wav,0,0,1781,22,4,Chinese,f,0,0,-6.47134423,1.78340321
ZYX,26,0,2024-06-14T02:57:55.302Z,english_652.wav,0,0,1781,22,4,Chinese,f,1,0.1,15.08810971,1.37348527
ZYX,26,0,2024-06-14T02:57:55.302Z,english_652.wav,0,0,1781,22,4,Chinese,f,2,0.2,98.29631383,0.90438715
ZYX,26,0,2024-06-14T02:57:55.302Z,english_652.wav,0,0,1781,22,4,Chinese,f,3,0.3,30.58339985,0.90448146
ZYX,26,0,2024-06-14T02:57:55.302Z,english_652.wav,0,0,1781,22,4,Chinese,f,4,0.4,-6.30529528,0.6194213
ZYX,26,0,2024-06-14T02:57:55.302Z,english_652.wav,0,0,1781,22,4,Chinese,f,5,0.5,-44.5601624,1.03986034
ZYX,26,0,2024-06-14T02:57:55.302Z,english_652.wav,0,0,1781,22,4,Chinese,f,6,0.6,4.47931007,0.52762796
ZYX,26,0,2024-06-14T02:57:55.302Z,english_652.wav,0,0,1781,22,4,Chinese,f,7,0.7,-52.28319513,0.92865907
ZYX,26,0,2024-06-14T02:57:55.302Z,english_652.wav,0,0,1781,22,4,Chinese,f,8,0.8,17.6405793,1.28477406
ZYX,26,0,2024-06-14T02:57:55.302Z,english_652.wav,0,0,1781,22,4,Chinese,f,9,0.9,2.7192508,1.34724363
ZYX,26,0,2024-06-14T02:57:55.302Z,english_652.wav,0,0,1781,22,4,Chinese,f,10,1,-8.76412426,1.76490877
ZYX,26,0,2024-06-14T02:57:55.302Z,english_652.wav,0,0,1781,22,4,Chinese,f,11,1.09391667,53.37366327,1.20575877
ZYX,27,0,2024-06-14T02:57:55.302Z,english_56.wav,0,0,806,22,4,Chinese,f,0,0,94.56130546,1.78248544
ZYX,27,0,2024-06-14T02:57:55.302Z,english_56.wav,0,0,806,22,4,Chinese,f,1,0.1,98.82920217,0.32774506
ZYX,27,0,2024-06-14T02:57:55.302Z,english_56.wav,0,0,806,22,4,Chinese,f,2,0.2,-30.68243792,0.4010142
ZYX,27,0,2024-06-14T02:57:55.302Z,english_56.wav,0,0,806,22,4,Chinese,f,3,0.3,-48.75978293,0.84475133
ZYX,27,0,2024-06-14T02:57:55.302Z,english_56.wav,0,0,806,22,4,Chinese,f,4,0.4,-79.08505246,1.07558594
ZYX,27,0,2024-06-14T02:57:55.302Z,english_56.wav,0,0,806,22,4,Chinese,f,5,0.5,18.07000914,1.2644329
ZYX,27,0,2024-06-14T02:57:55.302Z,english_56.wav,0,0,806,22,4,Chinese,f,6,0.6,57.19590548,1.63811398
ZYX,27,0,2024-06-14T02:57:55.302Z,english_56.wav,0,0,806,22,4,Chinese,f,7,0.7,6.7178476,1.3488209
ZYX,27,0,2024-06-14T02:57:55.302Z,english_56.wav,0,0,806,22,4,Chinese,f,8,0.8,-59.05070955,0.73862335
ZYX,27,0,2024-06-14T02:57:55.302Z,english_56.wav,0,0,806,22,4,Chinese,f,9,0.9,-76.10802368,0.85331353
ZYX,27,0,2024-06-14T02:57:55.302Z,english_56.wav,0,0,806,22,4,Chinese,f,10,1,-28.87948521,1.24951522
ZYX,27,0,2024-06-14T02:57:55.302Z,english_56.wav,0,0,806,22,4,Chinese,f,11,1.09391667,8.04938486,0.68295905
ZYX,28,0,2024-06-14T02:57:55.302Z,english_270.wav,0,1,680,22,4,Chinese,f,0,0,-55.81256687,1.62867923
ZYX,28,0,2024-06-14T02:57:55.302Z,english_270.wav,0,1,680,22,4,Chinese,f,1,0.1,86.32458749,1.84562159
ZYX,28,0,2024-06-14T02:57:55.302Z,english_270.wav,0,1,680,22,4,Chinese,f,2,0.2,13.49455739,0.93167879
ZYX,28,0,2024-06-14T02:57:55.302Z,english_270.wav,0,1,680,22,4,Chinese,f,3,0.3,-68.69500359,1.73816361
ZYX,28,0,2024-06-14T02:57:55.302Z,english_270.wav,0,1,680,22,4,Chinese,f,4,0.4,-97.00280027,0.08320837
ZYX,28,0,2024-06-14T02:57:55.302Z,english_270.wav,0,1,680,22,4,Chinese,f,5,0.5,-69.821637,1.0435143
ZYX,28,0,2024-06-14T02:57:55.302Z,english_270.wav,0,1,680,22,4,Chinese,f,6,0.6,1.11664619,1.6211018
ZYX,28,0,2024-06-14T02:57:55.302Z,english_270.wav,0,1,680,22,4,Chinese,f,7,0.7,14.10763844,1.15083177
ZYX,28,0,2024-06-14T02:57:55.302Z,english_270.wav,0,1,680,22,4,Chinese,f,8,0.8,-34.97611605,0.10335889
ZYX,28,0,2024-06-14T02:57:55.302Z,english_270.wav,0,1,680,22,4,Chinese,f,9,0.9,64.83030817,1.46234983
ZYX,28,0,2024-06-14T02:57:55.302Z,english_270.wav,0,1,680,22,4,Chinese,f,10,1,-92.12802344,1.54267918
ZYX,28,0,2024-06-14T02:57:55.302Z,english_270.wav,0,1,680,22,4,Chinese,f,11,1.09391667,70.2696905,1.13836595
ZYX,29,0,2024-06-14T02:57:55.302Z,english_342.wav,0,0,334,22,4,Chinese,f,0,0,41.55644967,0.78446862
ZYX,29,0,2024-06-14T02:57:55.302Z,english_342.wav,0,0,334,22,4,Chinese,f,1,0.1,67.8619368,0.85565407
ZYX,29,0,2024-06-14T02:57:55.302Z,english_342.wav,0,0,334,22,4,Chinese,f,2,0.2,-84.54944787,1.8318275
ZYX,29,0,2024-06-14T02:57:55.302Z,english_342.wav,0,0,334,22,4,Chinese,f,3,0.3,-13.40526133,1.61118522
ZYX,29,0,2024-06-14T02:57:55.302Z,english_342.wav,0,0,334,22,4,Chinese,f,4,0.4,84.55980061,0.75274568
ZYX,29,0,2024-06-14T02:57:55.302Z,english_342.wav,0,0,334,22,4,Chinese,f,5,0.5,-73.66695786,0.63423277
ZYX,29,0,2024-06-14T02:57:55.302Z,english_342.wav,0,0,334,22,4,Chinese,f,6,0.6,32.1068808,1.74871382
ZYX,29,0,2024-06-14T02:57:55.302Z,english_342.wav,0,0,334,22,4,Chinese,f,7,0.7,96.14629479,0.40859241
ZYX,29,0,2024-06-14T02:57:55.302Z,english_342.wav,0,0,334,22,4,Chinese,f,8,0.8,55.28291813,1.57798181
ZYX,29,0,2024-06-14T02:57:55.302Z,english_342.wav,0,0,334,22,4,Chinese,f,9,0.9,35.51210396,1.87430569
ZYX,29,0,2024-06-14T02:57:55.302Z,english_342.wav,0,0,334,22,4,Chinese,f,10,1,29.41468439,1.15438502
ZYX,29,0,2024-06-14T02:57:55.302Z,english_342.wav,0,0,334,22,4,Chinese,f,11,1.09391667,39.84982535,1.30694685
ZYX,30,0,2024-06-14T02:57:55.302Z,english_648.wav,0,0,621,22,4,Chinese,f,0,0,33.66524903,1.53800397
ZYX,30,0,2024-06-14T02:57:55.302Z,english_648.wav,0,0,621,22,4,Chinese,f,1,0.1,97.98351088,1.15872761
ZYX,30,0,2024-06-14T02:57:55.302Z,english_648.wav,0,0,621,22,4,Chinese,f,2,0.2,11.9794117,0.81425559
ZYX,30,0,2024-06-14T02:57:55.302Z,english_648.wav,0,0,621,22,4,Chinese,f,3,0.3,29.55885348,0.88028101
ZYX,30,0,2024-06-14T02:57:55.302Z,english_648.wav,0,0,621,22,4,Chinese,f,4,0.4,24.59728939,1.88326834
ZYX,30,0,2024-06-14T02:57:55.302Z,english_648.wav,0,0,621,22,4,Chinese,f,5,0.5,59.2279724,1.09723956
ZYX,30,0,2024-06-14T02:57:55.302Z,english_648.wav,0,0,621,22,4,Chinese,f,6,0.6,3.25949038,0.83602582
ZYX,30,0,2024-06-14T02:57:55.302Z,english_648.wav,0,0,621,22,4,Chinese,f,7,0.7,-26.79620766,0.3704665
ZYX,30,0,2024-06-14T02:57:55.302Z,english_648.wav,0,0,621,22,4,Chinese,f,8,0.8,98.3282455,0.87153578
ZYX,30,0,2024-06-14T02:57:55.302Z,english_648.wav,0,0,621,22,4,Chinese,f,9,0.9,-78.7239126,1.50300547
ZYX,30,0,2024-06-14T02:57:55.302Z,english_648.wav,0,0,621,22,4,Chinese,f,10,1,20.12137035,0.75356499
ZYX,30,0,2024-06-14T02:57:55.302Z,english_648.wav,0,0,621,22,4,Chinese,f,11,1.09391667,-43.42156432,1.92538482
ZYX,31,0,2024-06-14T02:57:55.302Z,english_857.wav,0,0,733,22,4,Chinese,f,0,0,-56.93168928,1.92395656
ZYX,31,0,2024-06-14T02:57:55.302Z,english_857.wav,0,0,733,22,4,Chinese,f,1,0.1,-40.57515649,1.41156549
ZYX,31,0,2024-06-14T02:57:55.302Z,english_857.wav,0,0,733,22,4,Chinese,f,2,0.2,-26.26283105,0.14185194
ZYX,31,0,2024-06-14T02:57:55.302Z,english_857.wav,0,0,733,22,4,Chinese,f,3,0.3,-49.62797955,1.1985334
ZYX,31,0,2024-06-14T02:57:55.302Z,english_857.wav,0,0,733,22,4,Chinese,f,4,0.4,47.07146778,0.83326814
ZYX,31,0,2024-06-14T02:57:55.302Z,english_857.wav,0,0,733,22,4,Chinese,f,5,0.5,-96.41882062,0.71224123
ZYX,31,0,2024-06-14T02:57:55.302Z,english_857.wav,0,0,733,22,4,Chinese,f,6,0.6,63.09662026,1.58040322
ZYX,31,0,2024-06-14T02:57:55.302Z,english_857.wav,0,0,733,22,4,Chinese,f,7,0.7,98.67053018,1.02327595
ZYX,31,0,2024-06-14T02:57:55.302Z,english_857.wav,0,0,733,22,4,Chinese,f,8,0.8,-56.85749065,1.48703987
ZYX,31,0,2024-06-14T02:57:55.302Z,english_857.wav,0,0,733,22,4,Chinese,f,9,0.9,-18.03690135,0.70290333
ZYX,31,0,2024-06-14T02:57:55.302Z,english_857.wav,0,0,733,22,4,Chinese,f,10,1,52.13097753,0.53460392
ZYX,31,0,2024-06-14T02:57:55.302Z,english_857.wav,0,0,733,22,4,Chinese,f,11,1.09391667,52.54650928,1.10851945
ZYX,32,0,2024-06-14T02:57:55.302Z,english_426.wav,0,1,621,22,4,Chinese,f,0,0,-67.17987083,1.61589393
ZYX,32,0,2024-06-14T02:57:55.302Z,english_426.wav,0,1,621,22,4,Chinese,f,1,0.1,70.02176421,1.03467422
ZYX,32,0,2024-06-14T02:57:55.302Z,english_426.wav,0,1,621,22,4,Chinese,f,2,0.2,82.2704811,1.69488483
ZYX,32,0,2024-06-14T02:57:55.302Z,english_426.wav,0,1,621,22,4,Chinese,f,3,0.3,-4.42560713,0.26984678
ZYX,32,0,2024-06-14T02:57:55.302Z,english_426.wav,0,1,621,22,4,Chinese,f,4,0.4,-22.03224373,1.53427209
ZYX,32,0,2024-06-14T02:57:55.302Z,english_426.wav,0,1,621,22,4,Chinese,f,5,0.5,-71.21536039,1.44135847
ZYX,32,0,2024-06-14T02:57:55.302Z,english_426.wav,0,1,621,22,4,Chinese,f,6,0.6,23.47193627,0.91698709
ZYX,32,0,2024-06-14T02:57:55.302Z,english_426.wav,0,1,621,22,4,Chinese,f,7,0.7,-95.21485964,0.33548871
ZYX,32,0,2024-06-14T02:57:55.302Z,english_426.wav,0,1,621,22,4,Chinese,f,8,0.8,76.54647,1.77334308
ZYX,32,0,2024-06-14T02:57:55.302Z,english_426.wav,0,1,621,22,4,Chinese,f,9,0.9,67.43828429,1.62177199
ZYX,32,0,2024-06-14T02:57:55.302Z,english_426.wav,0,1,621,22,4,Chinese,f,10,1,-41.3478141,0.29474728
ZYX,32,0,2024-06-14T02:57:55.302Z,english_426.wav,0,1,621,22,4,Chinese,f,11,1.09391667,-8.81391429,0.79627592
ZYX,33,0,2024-06-14T02:57:55.302Z,english_185.wav,0,0,98,22,4,Chinese,f,0,0,-23.80747302,1.70362326
ZYX,33,0,2024-06-14T02:57:55.302Z,english_185.wav,0,0,98,22,4,Chinese,f,1,0.1,-67.70846726,1.95632733
ZYX,33,0,2024-06-14T02:57:55.302Z,english_185.wav,0,0,98,22,4,Chinese,f,2,0.2,27.78292916,1.63625516
ZYX,33,0,2024-06-14T02:57:55.302Z,english_185.wav,0,0,98,22,4,Chinese,f,3,0.3,-22.37709268,0.69364986
ZYX,33,0,2024-06-14T02:57:55.302Z,english_185.wav,0,0,98,22,4,Chinese,f,4,0.4,15.61755946,0.15498305
ZYX,33,0,2024-06-14T02:57:55.302Z,english_185.wav,0,0,98,22,4,Chinese,f,5,0.5,-59.82139972,1.72553948
ZYX,33,0,2024-06-14T02:57:55.302Z,english_185.wav,0,0,98,22,4,Chinese,f,6,0.6,-43.59424473,1.78198359
ZYX,33,0,2024-06-14T02:57:55.302Z,english_185.wav,0,0,98,22,4,Chinese,f,7,0.7,74.12043651,1.30006103
ZYX,33,0,2024-06-14T02:57:55.302Z,english_185.wav,0,0,98,22,4,Chinese,f,8,0.8,77.01624641,0.79426106
ZYX,33,0,2024-06-14T02:57:55.302Z,english_185.wav,0,0,98,22,4,Chinese,f,9,0.9,-47.03527172,0.29849321
ZYX,33,0,2024-06-14T02:57:55.302Z,english_185.wav,0,0,98,22,4,Chinese,f,10,1,2.38207477,1.71648204
ZYX,33,0,2024-06-14T02:57:55.302Z,english_185.wav,0,0,98,22,4,Chinese,f,11,1.09391667,-48.42317698,0.84883975
ZYX,34,0,2024-06-14T02:57:55.302Z,english_810.wav,0,1,631,22,4,Chinese,f,0,0,-83.9281143,1.69146892
ZYX,34,0,2024-06-14T02:57:55.302Z,english_810.wav,0,1,631,22,4,Chinese,f,1,0.1,27.49266296,0.58552036
ZYX,34,0,2024-06-14T02:57:55.302Z,english_810.wav,0,1,631,22,4,Chinese,f,2,0.2,-79.7114404,0.8081372
ZYX,34,0,2024-06-14T02:57:55.302Z,english_810.wav,0,1,631,22,4,Chinese,f,3,0.3,88.86514055,1.52853197
ZYX,34,0,2024-06-14T02:57:55.302Z,english_810.wav,0,1,631,22,4,Chinese,f,4,0.4,-83.57104811,1.32903065
ZYX,34,0,2024-06-14T02:57:55.302Z,english_810.wav,0,1,631,22,4,Chinese,f,5,0.5,64.75337821,0.44686923
ZYX,34,0,2024-06-14T02:57:55.302Z,english_810.wav,0,1,631,22,4,Chinese,f,6,0.6,-39.25229813,0.97314752
ZYX,34,0,2024-06-14T02:57:55.302Z,english_810.wav,0,1,631,22,4,Chinese,f,7,0.7,-20.80683656,1.28969147
ZYX,34,0,2024-06-14T02:57:55.302Z,english_810.wav,0,1,631,22,4,Chinese,f,8,0.8,-8.25263634,1.65843454
ZYX,34,0,2024-06-14T02:57:55.302Z,english_810.wav,0,1,631,22,4,Chinese,f,9,0.9,-69.80984132,1.6089276
ZYX,34,0,2024-06-14T02:57:55.302Z,english_810.wav,0,1,631,22,4,Chinese,f,10,1,12.24901577,1.8611166
ZYX,34,0,2024-06-14T02:57:55.302Z,english_810.wav,0,1,631,22,4,Chinese,f,11,1.09391667,84.4149929,1.61125361
ZYX,35,0,2024-06-14T02:57:55.302Z,english_600.wav,0,0,1207,22,4,Chinese,f,0,0,54.02401202,1.74963926
ZYX,35,0,2024-06-14T02:57:55.302Z,english_600.wav,0,0,1207,22,4,Chinese,f,1,0.1,52.55241108,1.86361288
ZYX,35,0,2024-06-14T02:57:55.302Z,english_600.wav,0,0,1207,22,4,Chinese,f,2,0.2,-17.52140944,1.08718427
ZYX,35,0,2024-06-14T02:57:55.302Z,english_600.wav,0,0,1207,22,4,Chinese,f,3,0.3,-39.51158997,1.33817406
ZYX,35,0,2024-06-14T02:57:55.302Z,english_600.wav,0,0,1207,22,4,Chinese,f,4,0.4,-76.99480414,0.48398336
ZYX,35,0,2024-06-14T02:57:55.302Z,english_600.wav,0,0,1207,22,4,Chinese,f,5,0.5,-69.00053843,0.58536734
ZYX,35,0,2024-06-14T02:57:55.302Z,english_600.wav,0,0,1207,22,4,Chinese,f,6,0.6,69.67412094,1.17578893
ZYX,35,0,2024-06-14T02:57:55.302Z,english_600.wav,0,0,1207,22,4,Chinese,f,7,0.7,42.48437255,1.61345559
ZYX,35,0,2024-06-14T02:57:55.302Z,english_600.wav,0,0,1207,22,4,Chinese,f,8,0.8,-15.33622164,1.78194792
ZYX,35,0,2024-06-14T02:57:55.302Z,english_600.wav,0,0,1207,22,4,Chinese,f,9,0.9,-55.53099045,0.88901516
ZYX,35,0,2024-06-14T02:57:55.302Z,english_600.wav,0,0,1207,22,4,Chinese,f,10,1,-56.79297969,1.65574545
ZYX,35,0,2024-06-14T02:57:55.302Z,english_600.wav,0,0,1207,22,4,Chinese,f,11,1.09391667,25.01258484,1.81372246
ZYX,36,0,2024-06-14T02:57:55.302Z,english_261.wav,0,0,481,22,4,Chinese,f,0,0,-27.52136512,0.59079915
ZYX,36,0,2024-06-14T02:57:55.302Z,english_261.wav,0,0,481,22,4,Chinese,f,1,0.1,0.61437998,0.59811004
ZYX,36,0,2024-06-14T02:57:55.302Z,english_261.wav,0,0,481,22,4,Chinese,f,2,0.2,-46.52235109,1.4163773
ZYX,36,0,2024-06-14T02:57:55.302Z,english_261.wav,0,0,481,22,4,Chinese,f,3,0.3,56.30661769,0.56713827
ZYX,36,0,2024-06-14T02:57:55.302Z,english_261.wav,0,0,481,22,4,Chinese,f,4,0.4,-49.73275242,0.30837561
ZYX,36,0,2024-06-14T02:57:55.302Z,english_261.wav,0,0,481,22,4,Chinese,f,5,0.5,-64.77410303,1.11419611
ZYX,36,0,2024-06-14T02:57:55.302Z,english_261.wav,0,0,481,22,4,Chinese,f,6,0.6,39.3074822,1.56193748
ZYX,36,0,2024-06-14T02:57:55.302Z,english_261.wav,0,0,481,22,4,Chinese,f,7,0.7,4.26725729,1.05262718
ZYX,36,0,2024-06-14T02:57:55.302Z,english_261.wav,0,0,481,22,4,Chinese,f,8,0.8,-30.51931044,1.54107674
ZYX,36,0,2024-06-14T02:57:55.302Z,english_261.wav,0,0,481,22,4,Chinese,f,9,0.9,-97.5081801,0.13935509
ZYX,36,0,2024-06-14T02:57:55.302Z,english_261.wav,0,0,481,22,4,Chinese,f,10,1,-12.98833839,1.48308864
ZYX,36,0,2024-06-14T02:57:55.302Z,english_261.wav,0,0,481,22,4,Chinese,f,11,1.09391667,84.00538191,0.68332207
ZYX,37,0,2024-06-14T02:57:55.302Z,english_816.wav,0,1,567,22,4,Chinese,f,0,0,-17.35587933,1.80713615
ZYX,37,0,2024-06-14T02:57:55.302Z,english_816.wav,0,1,567,22,4,Chinese,f,1,0.1,0.95768859,0.65818518
ZYX,37,0,2024-06-14T02:57:55.302Z,english_816.wav,0,1,567,22,4,Chinese,f,2,0.2,47.37608494,0.13743933
ZYX,37,0,2024-06-14T02:57:55.302Z,english_816.wav,0,1,567,22,4,Chinese,f,3,0.3,-29.30928245,0.63156649
ZYX,37,0,2024-06-14T02:57:55.302Z,english_816.wav,0,1,567,22,4,Chinese,f,4,0.4,0.3886714,0.74841843
ZYX,37,0,2024-06-14T02:57:55.302Z,english_816.wav,0,1,567,22,4,Chinese,f,5,0.5,11.78751261,1.47868634
ZYX,37,0,2024-06-14T02:57:55.302Z,english_816.wav,0,1,567,22,4,Chinese,f,6,0.6,-3.17696206,1.19861887
ZYX,37,0,2024-06-14T02:57:55.302Z,english_816.wav,0,1,567,22,4,Chinese,f,7,0.7,-19.53944189,0.27488431
ZYX,37,0,2024-06-14T02:57:55.302Z,english_816.wav,0,1,567,22,4,Chinese,f,8,0.8,-7.70582249,0.84423799
ZYX,37,0,2024-06-14T02:57:55.302Z,english_816.wav,0,1,567,22,4,Chinese,f,9,0.9,-20.54964166,0.77450003
ZYX,37,0,2024-06-14T02:57:55.302Z,english_816.wav,0,1,567,22,4,Chinese,f,10,1,-60.75740285,1.95248665
ZYX,37,0,2024-06-14T02:57:55.302Z,english_816.wav,0,1,567,22,4,Chinese,f,11,1.09391667,-12.71558958,0.720403
ZYX,38,0,2024-06-14T02:57:55.302Z,english_463.wav,0,0,4043,22,4,Chinese,f,0,0,10.50801154,1.17811947
ZYX,38,0,2024-06-14T02:57:55.302Z,english_463.wav,0,0,4043,22,4,Chinese,f,1,0.1,53.01075337,0.17767022
ZYX,38,0,2024-06-14T02:57:55.302Z,english_463.wav,0,0,4043,22,4,Chinese,f,2,0.2,-45.92576003,0.48691175
ZYX,38,0,2024-06-14T02:57:55.302Z,english_463.wav,0,0,4043,22,4,Chinese,f,3,0.3,19.52430908,0.61421231
ZYX,38,0,2024-06-14T02:57:55.302Z,english_463.wav,0,0,4043,22,4,Chinese,f,4,0.4,-49.30728031,1.08242916
ZYX,38,0,2024-06-14T02:57:55.302Z,english_463.wav,0,0,4043,22,4,Chinese,f,5,0.5,14.12996474,0.36464212
ZYX,38,0,2024-06-14T02:57:55.302Z,english_463.wav,0,0,4043,22,4,Chinese,f,6,0.6,-38.56124135,1.11640778
ZYX,38,0,2024-06-14T02:57:55.302Z,english_463.wav,0,0,4043,22,4,Chinese,f,7,0.7,60.51994471,0.46617429
ZYX,38,0,2024-06-14T02:57:55.302Z,english_463.wav,0,0,4043,22,4,Chinese,f,8,0.8,-80.92150268,1.24207175
ZYX,38,0,2024-06-14T02:57:55.302Z,english_463.wav,0,0,4043,22,4,Chinese,f,9,0.9,77.91302957,1.740718
ZYX,38,0,2024-06-14T02:57:55.302Z,english_463.wav,0,0,4043,22,4,Chinese,f,10,1,-17.96219129,0.97634615
ZYX,38,0,2024-06-14T02:57:55.302Z,english_463.wav,0,0,4043,22,4,Chinese,f,11,1.09391667,-4.0549477,0.84642764
ZYX,39,0,2024-06-14T02:57:55.302Z,english_287.wav,0,0,1595,22,4,Chinese,f,0,0,10.36471628,0.01185683
ZYX,39,0,2024-06-14T02:57:55.302Z,english_287.wav,0,0,1595,22,4,Chinese,f,1,0.1,-58.57729137,1.45020857
ZYX,39,0,2024-06-14T02:57:55.302Z,english_287.wav,0,0,1595,22,4,Chinese,f,2,0.2,-27.93575021,0.19382892
ZYX,39,0,2024-06-14T02:57:55.302Z,english_287.wav,0,0,1595,22,4,Chinese,f,3,0.3,33.78979174,0.71448768
ZYX,39,0,2024-06-14T02:57:55.302Z,english_287.wav,0,0,1595,22,4,Chinese,f,4,0.4,-33.15491758,0.01801383
ZYX,39,0,2024-06-14T02:57:55.302Z,english_287.wav,0,0,1595,22,4,Chinese,f,5,0.5,-5.38281254,0.74544811
ZYX,39,0,2024-06-14T02:57:55.302Z,english_287.wav,0,0,1595,22,4,Chinese,f,6,0.6,-58.09969762,0.45979971
ZYX,39,0,2024-06-14T02:57:55.302Z,english_287.wav,0,0,1595,22,4,Chinese,f,7,0.7,93.46336641,0.55925931
ZYX,39,0,2024-06-14T02:57:55.302Z,english_287.wav,0,0,1595,22,4,Chinese,f,8,0.8,27.63578773,1.84211482
ZYX,39,0,2024-06-14T02:57:55.302Z,english_287.wav,0,0,1595,22,4,Chinese,f,9,0.9,44.41136417,0.07395401
ZYX,39,0,2024-06-14T02:57:55.302Z,english_287.wav,0,0,1595,22,4,Chinese,f,10,1,-2.08272126,0.05656785
ZYX,39,0,2024-06-14T02:57:55.302Z,english_287.wav,0,0,1595,22,4,Chinese,f,11,1.09391667,72.82755357,1.60760225
ZYX,40,0,2024-06-14T02:57:55.302Z,english_37.wav,0,0,4236,22,4,Chinese,f,0,0,68.40782596,0.52957209
ZYX,40,0,2024-06-14T02:57:55.302Z,english_37.wav,0,0,4236,22,4,Chinese,f,1,0.1,41.58379148,1.67320718
ZYX,40,0,2024-06-14T02:57:55.302Z,english_37.wav,0,0,4236,22,4,Chinese,f,2,0.2,63.04378759,1.31144487
ZYX,40,0,2024-06-14T02:57:55.302Z,english_37.wav,0,0,4236,22,4,Chinese,f,3,0.3,12.39470235,1.11254506
ZYX,40,0,2024-06-14T02:57:55.302Z,english_37.wav,0,0,4236,22,4,Chinese,f,4,0.4,-38.69600303,0.57972705
ZYX,40,0,2024-06-14T02:57:55.302Z,english_37.wav,0,0,4236,22,4,Chinese,f,5,0.5,-51.98957982,0.30651039
ZYX,40,0,2024-06-14T02:57:55.302Z,english_37.wav,0,0,4236,22,4,Chinese,f,6,0.6,90.7945682,0.45858619
ZYX,40,0,2024-06-14T02:57:55.302Z,english_37.wav,0,0,4236,22,4,Chinese,f,7,0.7,40.67115675,1.55641423
ZYX,40,0,2024-06-14T02:57:55.302Z,english_37.wav,0,0,4236,22,4,Chinese,f,8,0.8,34.01498334,1.01642962
ZYX,40,0,2024-06-14T02:57:55.302Z,english_37.wav,0,0,4236,22,4,Chinese,f,9,0.9,-88.26662934,0.95850402
ZYX,40,0,2024-06-14T02:57:55.302Z,english_37.wav,0,0,4236,22,4,Chinese,f,10,1,-41.35685221,0.70833558
ZYX,40,0,2024-06-14T02:57:55.302Z,english_37.wav,0,0,4236,22,4,Chinese,f,11,1.09391667,-27.43470179,0.55678167
ZYX,41,0,2024-06-14T02:57:55.302Z,english_484.wav,0,0,174,22,4,Chinese,f,0,0,2.0569585,0.34651955
ZYX,41,0,2024-06-14T02:57:55.302Z,english_484.wav,0,0,174,22,4,Chinese,f,1,0.1,-79.1484241,1.84776357
ZYX,41,0,2024-06-14T02:57:55.302Z,english_484.wav,0,0,174,22,4,Chinese,f,2,0.2,30.9033229,1.82203066
ZYX,41,0,2024-06-14T02:57:55.302Z,english_484.wav,0,0,174,22,4,Chinese,f,3,0.3,12.05929197,1.56778111
ZYX,41,0,2024-06-14T02:57:55.302Z,english_484.wav,0,0,174,22,4,Chinese,f,4,0.4,-72.8204973,1.22252397
ZYX,41,0,2024-06-14T02:57:55.302Z,english_484.wav,0,0,174,22,4,Chinese,f,5,0.5,-89.96387514,1.78789861
ZYX,41,0,2024-06-14T02:57:55.302Z,english_484.wav,0,0,174,22,4,Chinese,f,6,0.6,-22.94210609,0.02218534
ZYX,41,0,2024-06-14T02:57:55.302Z,english_484.wav,0,0,174,22,4,Chinese,f,7,0.7,17.91925192,1.7744569
ZYX,41,0,2024-06-14T02:57:55.302Z,english_484.wav,0,0,174,22,4,Chinese,f,8,0.8,-62.01555508,1.27917124
ZYX,41,0,2024-06-14T02:57:55.302Z,english_484.wav,0,0,174,22,4,Chinese,f,9,0.9,-43.27412131,1.76665807
ZYX,41,0,2024-06-14T02:57:55.302Z,english_484.wav,0,0,174,22,4,Chinese,f,10,1,0.91553281,1.1189794
ZYX,41,0,2024-06-14T02:57:55.302Z,english_484.wav,0,0,174,22,4,Chinese,f,11,1.09391667,-32.68645572,0.68984214
ZYX,42,0,2024-06-14T02:57:55.302Z,english_553.wav,0,0,132,22,4,Chinese,f,0,0,-24.88703549,1.59716139
ZYX,42,0,2024-06-14T02:57:55.302Z,english_553.wav,0,0,132,22,4,Chinese,f,1,0.1,-32.78735509,1.94339053
ZYX,42,0,2024-06-14T02:57:55.302Z,english_553.wav,0,0,132,22,4,Chinese,f,2,0.2,11.78475046,0.07176258
ZYX,42,0,2024-06-14T02:57:55.302Z,english_553.wav,0,0,132,22,4,Chinese,f,3,0.3,-49.38675094,1.26590086
ZYX,42,0,2024-06-14T02:57:55.302Z,english_553.wav,0,0,132,22,4,Chinese,f,4,0.4,87.03858762,0.74193634
ZYX,42,0,2024-06-14T02:57:55.302Z,english_553.wav,0,0,132,22,4,Chinese,f,5,0.5,60.30502824,1.61552542
ZYX,42,0,2024-06-14T02:57:55.302Z,english_553.wav,0,0,132,22,4,Chinese,f,6,0.6,10.13311967,0.16579471
ZYX,42,0,2024-06-14T02:57:55.302Z,english_553.wav,0,0,132,22,4,Chinese,f,7,0.7,67.86345644,1.42366471
ZYX,42,0,2024-06-14T02:57:55.302Z,english_553.wav,0,0,132,22,4,Chinese,f,8,0.8,-60.17677271,1.14167702
ZYX,42,0,2024-06-14T02:57:55.302Z,english_553.wav,0,0,132,22,4,Chinese,f,9,0.9,12.98417217,1.59651853
ZYX,42,0,2024-06-14T02:57:55.302Z,english_553.wav,0,0,132,22,4,Chinese,f,10,1,49.25042129,1.95090435
ZYX,42,0,2024-06-14T02:57:55.302Z,english_553.wav,0,0,132,22,4,Chinese,f,11,1.09391667,-82.97566862,0.60671916
ZYX,43,0,2024-06-14T02:57:55.302Z,english_349.wav,0,1,262,22,4,Chinese,f,0,0,78.21791369,0.37053366
ZYX,43,0,2024-06-14T02:57:55.302Z,english_349.wav,0,1,262,22,4,Chinese,f,1,0.1,9.4630269,0.06190409
ZYX,43,0,2024-06-14T02:57:55.302Z,english_349.wav,0,1,262,22,4,Chinese,f,2,0.2,-3.29994587,0.20284396
ZYX,43,0,2024-06-14T02:57:55.302Z,english_349.wav,0,1,262,22,4,Chinese,f,3,0.3,13.5324371,0.23510746
ZYX,43,0,2024-06-14T02:57:55.302Z,english_349.wav,0,1,262,22,4,Chinese,f,4,0.4,88.19527441,1.05287262
ZYX,43,0,2024-06-14T02:57:55.302Z,english_349.wav,0,1,262,22,4,Chinese,f,5,0.5,1.7504357,1.51424362
ZYX,43,0,2024-06-14T02:57:55.302Z,english_349.wav,0,1,262,22,4,Chinese,f,6,0.6,-42.50120826,0.74446718
ZYX,43,0,2024-06-14T02:57:55.302Z,english_349.wav,0,1,262,22,4,Chinese,f,7,0.7,-43.9320192,1.35303028
ZYX,43,0,2024-06-14T02:57:55.302Z,english_349.wav,0,1,262,22,4,Chinese,f,8,0.8,-72.26393539,1.8690989
ZYX,43,0,2024-06-14T02:57:55.302Z,english_349.wav,0,1,262,22,4,Chinese,f,9,0.9,-37.61612777,1.42604643
ZYX,43,0,2024-06-14T02:57:55.302Z,english_349.wav,0,1,262,22,4,Chinese,f,10,1,9.822435,1.6879771
ZYX,43,0,2024-06-14T02:57:55.302Z,english_349.wav,0,1,262,22,4,Chinese,f,11,1.09391667,-46.39218801,0.80624402
ZYX,44,0,2024-06-14T02:57:55.302Z,english_598.wav,0,0,1790,22,4,Chinese,f,0,0,66.59254232,1.11503085
ZYX,44,0,2024-06-14T02:57:55.302Z,english_598.wav,0,0,1790,22,4,Chinese,f,1,0.1,-0.16294116,1.29891619
ZYX,44,0,2024-06-14T02:57:55.302Z,english_598.wav,0,0,1790,22,4,Chinese,f,2,0.2,87.91623233,0.04302605
ZYX,44,0,2024-06-14T02:57:55.302Z,english_598.wav,0,0,1790,22,4,Chinese,f,3,0.3,4.78179149,1.90355783
ZYX,44,0,2024-06-14T02:57:55.302Z,english_598.wav,0,0,1790,22,4,Chinese,f,4,0.4,87.27330533,0.66957129
ZYX,44,0,2024-06-14T02:57:55.302Z,english_598.wav,0,0,1790,22,4,Chinese,f,5,0.5,15.94205468,1.28062406
ZYX,44,0,2024-06-14T02:57:55.302Z,english_598.wav,0,0,1790,22,4,Chinese,f,6,0.6,-57.72302194,0.15067731
ZYX,44,0,2024-06-14T02:57:55.302Z,english_598.wav,0,0,1790,22,4,Chinese,f,7,0.7,-11.53545195,0.37044447
ZYX,44,0,2024-06-14T02:57:55.302Z,english_598.wav,0,0,1790,22,4,Chinese,f,8,0.8,-97.23766847,0.00668091
ZYX,44,0,2024-06-14T02:57:55.302Z,english_598.wav,0,0,1790,22,4,Chinese,f,9,0.9,-89.11050407,1.24076678
ZYX,44,0,2024-06-14T02:57:55.302Z,english_598.wav,0,0,1790,22,4,Chinese,f,10,1,-7.65193873,0.4751477
ZYX,44,0,2024-06-14T02:57:55.302Z,english_598.wav,0,0,1790,22,4,Chinese,f,11,1.09391667,-0.117565,1.3589293
ZYX,45,0,2024-06-14T02:57:55.302Z,english_150.wav,0,0,279,22,4,Chinese,f,0,0,-50.54232549,1.16258998
ZYX,45,0,2024-06-14T02:57:55.302Z,english_150.wav,0,0,279,22,4,Chinese,f,1,0.1,34.32153656,0.79689364
ZYX,45,0,2024-06-14T02:57:55.302Z,english_150.wav,0,0,279,22,4,Chinese,f,2,0.2,-10.92395048,0.16790755
ZYX,45,0,2024-06-14T02:57:55.302Z,english_150.wav,0,0,279,22,4,Chinese,f,3,0.3,53.72738624,0.35039588
ZYX,45,0,2024-06-14T02:57:55.302Z,english_150.wav,0,0,279,22,4,Chinese,f,4,0.4,62.41801081,0.24836215
ZYX,45,0,2024-06-14T02:57:55.302Z,english_150.wav,0,0,279,22,4,Chinese,f,5,0.5,-32.60317387,0.38408886
ZYX,45,0,2024-06-14T02:57:55.302Z,english_150.wav,0,0,279,22,4,Chinese,f,6,0.6,-14.80411838,0.47894499
ZYX,45,0,2024-06-14T02:57:55.302Z,english_150.wav,0,0,279,22,4,Chinese,f,7,0.7,55.20966729,1.81942338
ZYX,45,0,2024-06-14T02:57:55.302Z,english_150.wav,0,0,279,22,4,Chinese,f,8,0.8,-74.0684305,1.36079379
ZYX,45,0,2024-06-14T02:57:55.302Z,english_150.wav,0,0,279,22,4,Chinese,f,9,0.9,-4.87965611,1.63972786
ZYX,45,0,2024-06-14T02:57:55.302Z,english_150.wav,0,0,279,22,4,Chinese,f,10,1,-79.50813125,1.65428446
ZYX,45,0,2024-06-14T02:57:55.302Z,english_150.wav,0,0,279,22,4,Chinese,f,11,1.09391667,24.9492826,1.31063675
ZYX,46,0,2024-06-14T02:57:55.302Z,english_563.wav,0,0,294,22,4,Chinese,f,0,0,97.71228094,1.26204961
ZYX,46,0,2024-06-14T02:57:55.302Z,english_563.wav,0,0,294,22,4,Chinese,f,1,0.1,-46.61979444,1.17265915
ZYX,46,0,2024-06-14T02:57:55.302Z,english_563.wav,0,0,294,22,4,Chinese,f,2,0.2,2.79591849,0.73553811
ZYX,46,0,2024-06-14T02:57:55.302Z,english_563.wav,0,0,294,22,4,Chinese,f,3,0.3,-24.69974698,1.75222103
ZYX,46,0,2024-06-14T02:57:55.302Z,english_563.wav,0,0,294,22,4,Chinese,f,4,0.4,-33.21670204,1.16360082
ZYX,46,0,2024-06-14T02:57:55.302Z,english_563.wav,0,0,294,22,4,Chinese,f,5,0.5,-22.29161776,0.78496451
ZYX,46,0,2024-06-14T02:57:55.302Z,english_563.wav,0,0,294,22,4,Chinese,f,6,0.6,-9.78409371,0.25812971
ZYX,46,0,2024-06-14T02:57:55.302Z,english_563.wav,0,0,294,22,4,Chinese,f,7,0.7,22.41186375,1.68001513
ZYX,46,0,2024-06-14T02:57:55.302Z,english_563.wav,0,0,294,22,4,Chinese,f,8,0.8,-16.19600926,1.88614824
ZYX,46,0,2024-06-14T02:57:55.302Z,english_563.wav,0,0,294,22,4,Chinese,f,9,0.9,96.89254029,0.22022692
ZYX,46,0,2024-06-14T02:57:55.302Z,english_563.wav,0,0,294,22,4,Chinese,f,10,1,-8.68448167,0.44747932
ZYX,46,0,2024-06-14T02:57:55.302Z,english_563.wav,0,0,294,22,4,Chinese,f,11,1.09391667,22.23097911,1.70220981
ZYX,47,0,2024-06-14T02:57:55.302Z,english_355.wav,0,0,933,22,4,Chinese,f,0,0,-17.98441337,0.63443376
ZYX,47,0,2024-06-14T02:57:55.302Z,english_355.wav,0,0,933,22,4,Chinese,f,1,0.1,-3.7927165,0.81098104
ZYX,47,0,2024-06-14T02:57:55.302Z,english_355.wav,0,0,933,22,4,Chinese,f,2,0.2,49.96307457,0.15990124
ZYX,47,0,2024-06-14T02:57:55.302Z,english_355.wav,0,0,933,22,4,Chinese,f,3,0.3,-15.53125152,1.19729275
ZYX,47,0,2024-06-14T02:57:55.302Z,english_355.wav,0,0,933,22,4,Chinese,f,4,0.4,-84.8102411,1.78081856
ZYX,47,0,2024-06-14T02:57:55.302Z,english_355.wav,0,0,933,22,4,Chinese,f,5,0.5,-28.25718679,0.04344096
ZYX,47,0,2024-06-14T02:57:55.302Z,english_355.wav,0,0,933,22,4,Chinese,f,6,0.6,-58.3999431,1.99949459
ZYX,47,0,2024-06-14T02:57:55.302Z,english_355.wav,0,0,933,22,4,Chinese,f,7,0.7,-22.66304052,0.79420627
ZYX,47,0,2024-06-14T02:57:55.302Z,english_355.wav,0,0,933,22,4,Chinese,f,8,0.8,-95.1511219,0.51429102
ZYX,47,0,2024-06-14T02:57:55.302Z,english_355.wav,0,0,933,22,4,Chinese,f,9,0.9,82.90101198,0.31900629
ZYX,47,0,2024-06-14T02:57:55.302Z,english_355.wav,0,0,933,22,4,Chinese,f,10,1,11.18923061,1.55539218
ZYX,47,0,2024-06-14T02:57:55.302Z,english_355.wav,0,0,933,22,4,Chinese,f,11,1.09391667,39.40210676,0.94266916
ZYX,48,0,2024-06-14T02:57:55.302Z,english_307.wav,0,0,187,22,4,Chinese,f,0,0,4.09277184,1.54634017
ZYX,48,0,2024-06-14T02:57:55.302Z,english_307.wav,0,0,187,22,4,Chinese,f,1,0.1,-55.10651609,1.62042314
ZYX,48,0,2024-06-14T02:57:55.302Z,english_307.wav,0,0,187,22,4,Chinese,f,2,0.2,40.66104674,0.53651735
ZYX,48,0,2024-06-14T02:57:55.302Z,english_307.wav,0,0,187,22,4,Chinese,f,3,0.3,25.01631041,1.3289867
ZYX,48,0,2024-06-14T02:57:55.302Z,english_307.wav,0,0,187,22,4,Chinese,f,4,0.4,-83.19534886,1.20481488
ZYX,48,0,2024-06-14T02:57:55.302Z,english_307.wav,0,0,187,22,4,Chinese,f,5,0.5,50.47121196,0.91135424
ZYX,48,0,2024-06-14T02:57:55.302Z,english_307.wav,0,0,187,22,4,Chinese,f,6,0.6,-23.06520129,0.34154344
ZYX,48,0,2024-06-14T02:57:55.302Z,english_307.wav,0,0,187,22,4,Chinese,f,7,0.7,6.60696351,0.77838965
ZYX,48,0,2024-06-14T02:57:55.302Z,english_307.wav,0,0,187,22,4,Chinese,f,8,0.8,32.78812168,1.52188148
ZYX,48,0,2024-06-14T02:57:55.302Z,english_307.wav,0,0,187,22,4,Chinese,f,9,0.9,-29.8510749,1.3469183
ZYX,48,0,2024-06-14T02:57:55.302Z,english_307.wav,0,0,187,22,4,Chinese,f,10,1,-51.20036712,0.11286505
ZYX,48,0,2024-06-14T02:57:55.302Z,english_307.wav,0,0,187,22,4,Chinese,f,11,1.09391667,-34.31103599,1.9894596
ZYX,49,0,2024-06-14T02:57:55.302Z,english_215.wav,0,0,3267,22,4,Chinese,f,0,0,-99.5332925,0.28465119
ZYX,49,0,2024-06-14T02:57:55.302Z,english_215.wav,0,0,3267,22,4,Chinese,f,1,0.1,1.45242975,1.8088146
ZYX,49,0,2024-06-14T02:57:55.302Z,english_215.wav,0,0,3267,22,4,Chinese,f,2,0.2,-64.33425221,1.50664885
ZYX,49,0,2024-06-14T02:57:55.302Z,english_215.wav,0,0,3267,22,4,Chinese,f,3,0.3,94.32501829,1.24738647
ZYX,49,0,2024-06-14T02:57:55.302Z,english_215.wav,0,0,3267,22,4,Chinese,f,4,0.4,-24.96285319,1.99674836
ZYX,49,0,2024-06-14T02:57:55.302Z,english_215.wav,0,0,3267,22,4,Chinese,f,5,0.5,24.44115024,1.0963611
ZYX,49,0,2024-06-14T02:57:55.302Z,english_215.wav,0,0,3267,22,4,Chinese,f,6,0.6,88.75353775,1.91027181
ZYX,49,0,2024-06-14T02:57:55.302Z,english_215.wav,0,0,3267,22,4,Chinese,f,7,0.7,84.15272448,1.87676127
ZYX,49,0,2024-06-14T02:57:55.302Z,english_215.wav,0,0,3267,22,4,Chinese,f,8,0.8,64.6545326,1.65561874
ZYX,49,0,2024-06-14T02:57:55.302Z,english_215.wav,0,0,3267,22,4,Chinese,f,9,0.9,-74.06978327,1.63896442
ZYX,49,0,2024-06-14T02:57:55.302Z,english_215.wav,0,0,3267,22,4,Chinese,f,10,1,-77.05086555,0.85126523
ZYX,49,0,2024-06-14T02:57:55.302Z,english_215.wav,0,0,3267,22,4,Chinese,f,11,1.09391667,82.12012488,1.4630733
ZYX,50,1,2024-06-14T02:57:55.302Z,english_75.wav,0,0,2219,22,4,Chinese,f,0,0,65.41838677,1.57781759
ZYX,50,1,2024-06-14T02:57:55.302Z,english_75.wav,0,0,2219,22,4,Chinese,f,1,0.1,-26.14209168,0.77148349
ZYX,50,1,2024-06-14T02:57:55.302Z,english_75.wav,0,0,2219,22,4,Chinese,f,2,0.2,-26.49286349,1.21755239
ZYX,50,1,2024-06-14T02:57:55.302Z,english_75.wav,0,0,2219,22,4,Chinese,f,3,0.3,24.3393517,1.81969944
ZYX,50,1,2024-06-14T02:57:55.302Z,english_75.wav,0,0,2219,22,4,Chinese,f,4,0.4,41.72589255,1.02092036
ZYX,50,1,2024-06-14T02:57:55.302Z,english_75.wav,0,0,2219,22,4,Chinese,f,5,0.5,5.99778054,0.99503371
ZYX,50,1,2024-06-14T02:57:55.302Z,english_75.wav,0,0,2219,22,4,Chinese,f,6,0.6,-80.58181045,0.23100369
ZYX,50,1,2024-06-14T02:57:55.302Z,english_75.wav,0,0,2219,22,4,Chinese,f,7,0.7,-99.66211708,0.28893428
ZYX,50,1,2024-06-14T02:57:55.302Z,english_75.wav,0,0,2219,22,4,Chinese,f,8,0.8,55.65408757,1.5775207
ZYX,50,1,2024-06-14T02:57:55.302Z,english_75.wav,0,0,2219,22,4,Chinese,f,9,0.9,95.67727499,1.18557327
ZYX,50,1,2024-06-14T02:57:55.302Z,english_75.wav,0,0,2219,22,4,Chinese,f,10,1,-83.58076108,0.49264005
ZYX,50,1,2024-06-14T02:57:55.302Z,english_75.wav,0,0,2219,22,4,Chinese,f,11,1.09391667,-10.73672479,0.18205409
ZYX,51,1,2024-06-14T02:57:55.302Z,english_905.wav,0,0,486,22,4,Chinese,f,0,0,-38.82719082,0.64550094
ZYX,51,1,2024-06-14T02:57:55.302Z,english_905.wav,0,0,486,22,4,Chinese,f,1,0.1,91.73556094,1.31053491
ZYX,51,1,2024-06-14T02:57:55.302Z,english_905.wav,0,0,486,22,4,Chinese,f,2,0.2,-44.32627421,0.47707545
ZYX,51,1,2024-06-14T02:57:55.302Z,english_905.wav,0,0,486,22,4,Chinese,f,3,0.3,-65.11156064,0.49456239
ZYX,51,1,2024-06-14T02:57:55.302Z,english_905.wav,0,0,486,22,4,Chinese,f,4,0.4,-48.38956406,0.97248604
ZYX,51,1,2024-06-14T02:57:55.302Z,english_905.wav,0,0,486,22,4,Chinese,f,5,0.5,-66.93781594,0.82967407
ZYX,51,1,2024-06-14T02:57:55.302Z,english_905.wav,0,0,486,22,4,Chinese,f,6,0.6,-31.37264091,0.41334293
ZYX,51,1,2024-06-14T02:57:55.302Z,english_905.wav,0,0,486,22,4,Chinese,f,7,0.7,-76.42119949,0.8386705
ZYX,51,1,2024-06-14T02:57:55.302Z,english_905.wav,0,0,486,22,4,Chinese,f,8,0.8,90.55453052,0.29898441
ZYX,51,1,2024-06-14T02:57:55.302Z,english_905.wav,0,0,486,22,4,Chinese,f,9,0.9,-13.8538154,0.28325918
ZYX,51,1,2024-06-14T02:57:55.302Z,english_905.wav,0,0,486,22,4,Chinese,f,10,1,10.60108282,0.58400342
ZYX,51,1,2024-06-14T02:57:55.302Z,english_905.wav,0,0,486,22,4,Chinese,f,11,1.09391667,-16.89815331,0.41677525
ZYX,52,1,2024-06-14T02:57:55.302Z,english_700.wav,0,0,616,22,4,Chinese,f,0,0,68.07429642,0.65814928
ZYX,52,1,2024-06-14T02:57:55.302Z,english_700.wav,0,0,616,22,4,Chinese,f,1,0.1,-37.49377634,0.17735138
ZYX,52,1,2024-06-14T02:57:55.302Z,english_700.wav,0,0,616,22,4,Chinese,f,2,0.2,-23.04099004,0.86512997
ZYX,52,1,2024-06-14T02:57:55.302Z,english_700.wav,0,0,616,22,4,Chinese,f,3,0.3,29.04143541,1.58435568
ZYX,52,1,2024-06-14T02:57:55.302Z,english_700.wav,0,0,616,22,4,Chinese,f,4,0.4,20.45754453,1.51654074
ZYX,52,1,2024-06-14T02:57:55.302Z,english_700.wav,0,0,616,22,4,Chinese,f,5,0.5,37.24109952,1.28756254
ZYX,52,1,2024-06-14T02:57:55.302Z,english_700.wav,0,0,616,22,4,Chinese,f,6,0.6,39.64018777,0.60860264
ZYX,52,1,2024-06-14T02:57:55.302Z,english_700.wav,0,0,616,22,4,Chinese,f,7,0.7,51.86520487,1.44468929
ZYX,52,1,2024-06-14T02:57:55.302Z,english_700.wav,0,0,616,22,4,Chinese,f,8,0.8,48.29334393,1.11255223
ZYX,52,1,2024-06-14T02:57:55.302Z,english_700.wav,0,0,616,22,4,Chinese,f,9,0.9,69.44263224,0.2005319
ZYX,52,1,2024-06-14T02:57:55.302Z,english_700.wav,0,0,616,22,4,Chinese,f,10,1,-89.62778161,1.42301772
ZYX,52,1,2024-06-14T02:57:55.302Z,english_700.wav,0,0,616,22,4,Chinese,f,11,1.09391667,-27.88856176,1.42118254
ZYX,53,1,2024-06-14T02:57:55.302Z,english_45.wav,0,0,572,22,4,Chinese,f,0,0,-55.14721801,0.29299266
ZYX,53,1,2024-06-14T02:57:55.302Z,english_45.wav,0,0,572,22,4,Chinese,f,1,0.1,57.09452307,0.9247964
ZYX,53,1,2024-06-14T02:57:55.302Z,english_45.wav,0,0,572,22,4,Chinese,f,2,0.2,-1.62499195,1.0494158
ZYX,53,1,2024-06-14T02:57:55.302Z,english_45.wav,0,0,572,22,4,Chinese,f,3,0.3,-13.00347301,1.81345336
ZYX,53,1,2024-06-14T02:57:55.302Z,english_45.wav,0,0,572,22,4,Chinese,f,4,0.4,13.64765964,1.7292362
ZYX,53,1,2024-06-14T02:57:55.302Z,english_45.wav,0,0,572,22,4,Chinese,f,5,0.5,-16.23645369,0.3059786
ZYX,53,1,2024-06-14T02:57:55.302Z,english_45.wav,0,0,572,22,4,Chinese,f,6,0.6,12.80202188,1.60566624
ZYX,53,1,2024-06-14T02:57:55.302Z,english_45.wav,0,0,572,22,4,Chinese,f,7,0.7,18.490615,1.60640041
ZYX,53,1,2024-06-14T02:57:55.302Z,english_45.wav,0,0,572,22,4,Chinese,f,8,0.8,-32.73911513,0.6923723
ZYX,53,1,2024-06-14T02:57:55.302Z,english_45.wav,0,0,572,22,4,Chinese,f,9,0.9,72.91810524,1.31031073
ZYX,53,1,2024-06-14T02:57:55.302Z,english_45.wav,0,0,572,22,4,Chinese,f,10,1,-39.54069726,0.9624361
ZYX,53,1,2024-06-14T02:57:55.302Z,english_45.wav,0,0,572,22,4,Chinese,f,11,1.09391667,1.32954538,1.523717
ZYX,54,1,2024-06-14T02:57:55.302Z,english_331.wav,0,0,324,22,4,Chinese,f,0,0,-64.72276527,1.69014175
ZYX,54,1,2024-06-14T02:57:55.302Z,english_331.wav,0,0,324,22,4,Chinese,f,1,0.1,-64.60107944,0.93306192
ZYX,54,1,2024-06-14T02:57:55.302Z,english_331.wav,0,0,324,22,4,Chinese,f,2,0.2,43.10237597,1.51219836
ZYX,54,1,2024-06-14T02:57:55.302Z,english_331.wav,0,0,324,22,4,Chinese,f,3,0.3,3.97944271,1.83280239
ZYX,54,1,2024-06-14T02:57:55.302Z,english_331.wav,0,0,324,22,4,Chinese,f,4,0.4,53.93002911,0.32272679
ZYX,54,1,2024-06-14T02:57:55.302Z,english_331.wav,0,0,324,22,4,Chinese,f,5,0.5,-98.69413197,0.14451959
ZYX,54,1,2024-06-14T02:57:55.302Z,english_331.wav,0,0,324,22,4,Chinese,f,6,0.6,76.42202474,0.4727661
ZYX,54,1,2024-06-14T02:57:55.302Z,english_331.wav,0,0,324,22,4,Chinese,f,7,0.7,-50.14036669,0.90462805
ZYX,54,1,2024-06-14T02:57:55.302Z,english_331.wav,0,0,324,22,4,Chinese,f,8,0.8,61.5779926,1.98401372
ZYX,54,1,2024-06-14T02:57:55.302Z,english_331.wav,0,0,324,22,4,Chinese,f,9,0.9,-56.16895328,0.59081959
ZYX,54,1,2024-06-14T02:57:55.302Z,english_331.wav,0,0,324,22,4,Chinese,f,10,1,5.62439148,1.38184498
ZYX,54,1,2024-06-14T02:57:55.302Z,english_331.wav,0,0,324,22,4,Chinese,f,11,1.09391667,-39.06443994,0.44356806
ZYX,55,1,2024-06-14T02:57:55.302Z,english_314.wav,0,0,387,22,4,Chinese,f,0,0,-72.77248659,0.8900907
ZYX,55,1,2024-06-14T02:57:55.302Z,english_314.wav,0,0,387,22,4,Chinese,f,1,0.1,-16.3777023,0.59416925
ZYX,55,1,2024-06-14T02:57:55.302Z,english_314.wav,0,0,387,22,4,Chinese,f,2,0.2,-54.89367252,1.27689755
ZYX,55,1,2024-06-14T02:57:55.302Z,english_314.wav,0,0,387,22,4,Chinese,f,3,0.3,-94.61910998,0.70275331
ZYX,55,1,2024-06-14T02:57:55.302Z,english_314.wav,0,0,387,22,4,Chinese,f,4,0.4,-16.43986335,1.42732001
ZYX,55,1,2024-06-14T02:57:55.302Z,english_314.wav,0,0,387,22,4,Chinese,f,5,0.5,22.95549902,0.51357734
ZYX,55,1,2024-06-14T02:57:55.302Z,english_314.wav,0,0,387,22,4,Chinese,f,6,0.6,-38.50046808,1.78706659
ZYX,55,1,2024-06-14T02:57:55.302Z,english_314.wav,0,0,387,22,4,Chinese,f,7,0.7,94.4546569,0.51196802
ZYX,55,1,2024-06-14T02:57:55.302Z,english_314.wav,0,0,387,22,4,Chinese,f,8,0.8,-37.64043119,0.29950004
ZYX,55,1,2024-06-14T02:57:55.302Z,english_314.wav,0,0,387,22,4,Chinese,f,9,0.9,48.39030237,0.69158189
ZYX,55,1,2024-06-14T02:57:55.302Z,english_314.wav,0,0,387,22,4,Chinese,f,10,1,-45.26638295,0.28421865
ZYX,55,1,2024-06-14T02:57:55.302Z,english_314.wav,0,0,387,22,4,Chinese,f,11,1.09391667,-45.55554074,1.42591163
ZYX,56,1,2024-06-14T02:57:55.302Z,english_662.wav,0,0,697,22,4,Chinese,f,0,0,31.31886637,0.51844492
ZYX,56,1,2024-06-14T02:57:55.302Z,english_662.wav,0,0,697,22,4,Chinese,f,1,0.1,-45.58012984,1.26337535
ZYX,56,1,2024-06-14T02:57:55.302Z,english_662.wav,0,0,697,22,4,Chinese,f,2,0.2,-36.67335117,1.47948125
ZYX,56,1,2024-06-14T02:57:55.302Z,english_662.wav,0,0,697,22,4,Chinese,f,3,0.3,91.68908931,1.54973702
ZYX,56,1,2024-06-14T02:57:55.302Z,english_662.wav,0,0,697,22,4,Chinese,f,4,0.4,99.42890358,1.40573319
ZYX,56,1,2024-06-14T02:57:55.302Z,english_662.wav,0,0,697,22,4,Chinese,f,5,0.5,-75.06867948,0.46765036
ZYX,56,1,2024-06-14T02:57:55.302Z,english_662.wav,0,0,697,22,4,Chinese,f,6,0.6,-53.3060983,1.29577772
ZYX,56,1,2024-06-14T02:57:55.302Z,english_662.wav,0,0,697,22,4,Chinese,f,7,0.7,66.7707286,1.28176027
ZYX,56,1,2024-06-14T02:57:55.302Z,english_662.wav,0,0,697,22,4,Chinese,f,8,0.8,69.18702853,1.79426909
ZYX,56,1,2024-06-14T02:57:55.302Z,english_662.wav,0,0,697,22,4,Chinese,f,9,0.9,-16.72052533,0.76623174
ZYX,56,1,2024-06-14T02:57:55.302Z,english_662.wav,0,0,697,22,4,Chinese,f,10,1,16.50634939,1.90203541
ZYX,56,1,2024-06-14T02:57:55.302Z,english_662.wav,0,0,697,22,4,Chinese,f,11,1.09391667,79.32738685,1.85204165
ZYX,57,1,2024-06-14T02:57:55.302Z,english_239.wav,0,0,2091,22,4,Chinese,f,0,0,-30.5267656,1.39175326
ZYX,57,1,2024-06-14T02:57:55.302Z,english_239.wav,0,0,2091,22,4,Chinese,f,1,0.1,86.9253709,0.20187761
ZYX,57,1,2024-06-14T02:57:55.302Z,english_239.wav,0,0,2091,22,4,Chinese,f,2,0.2,98.1444663,0.94285365
ZYX,57,1,2024-06-14T02:57:55.302Z,english_239.wav,0,0,2091,22,4,Chinese,f,3,0.3,3.73344739,0.80472341
ZYX,57,1,2024-06-14T02:57:55.302Z,english_239.wav,0,0,2091,22,4,Chinese,f,4,0.4,93.7963197,1.04208815
ZYX,57,1,2024-06-14T02:57:55.302Z,english_239.wav,0,0,2091,22,4,Chinese,f,5,0.5,3.55240778,1.26812124
ZYX,57,1,2024-06-14T02:57:55.302Z,english_239.wav,0,0,2091,22,4,Chinese,f,6,0.6,68.0566249,0.21560502
ZYX,57,1,2024-06-14T02:57:55.302Z,english_239.wav,0,0,2091,22,4,Chinese,f,7,0.7,-0.0862323076,1.00669433
ZYX,57,1,2024-06-14T02:57:55.302Z,english_239.wav,0,0,2091,22,4,Chinese,f,8,0.8,-20.3909635,0.33435282
ZYX,57,1,2024-06-14T02:57:55.302Z,english_239.wav,0,0,2091,22,4,Chinese,f,9,0.9,14.0711591,1.80648064
ZYX,57,1,2024-06-14T02:57:55.302Z,english_239.wav,0,0,2091,22,4,Chinese,f,10,1,-8.12414996,0.53666305
ZYX,57,1,2024-06-14T02:57:55.302Z,english_239.wav,0,0,2091,22,4,Chinese,f,11,1.09391667,57.1088195,0.81763806
ZYX,58,1,2024-06-14T02:57:55.302Z,english_384.wav,0,0,4091,22,4,Chinese,f,0,0,25.59746769,0.31530466
ZYX,58,1,2024-06-14T02:57:55.302Z,english_384.wav,0,0,4091,22,4,Chinese,f,1,0.1,77.10112132,1.4723663
ZYX,58,1,2024-06-14T02:57:55.302Z,english_384.wav,0,0,4091,22,4,Chinese,f,2,0.2,-44.89854527,0.76042634
ZYX,58,1,2024-06-14T02:57:55.302Z,english_384.wav,0,0,4091,22,4,Chinese,f,3,0.3,-92.39491606,1.26765442
ZYX,58,1,2024-06-14T02:57:55.302Z,english_384.wav,0,0,4091,22,4,Chinese,f,4,0.4,-7.21963548,0.4561299
ZYX,58,1,2024-06-14T02:57:55.302Z,english_384.wav,0,0,4091,22,4,Chinese,f,5,0.5,-12.57418593,0.66006902
ZYX,58,1,2024-06-14T02:57:55.302Z,english_384.wav,0,0,4091,22,4,Chinese,f,6,0.6,-91.58210139,0.52858229
ZYX,58,1,2024-06-14T02:57:55.302Z,english_384.wav,0,0,4091,22,4,Chinese,f,7,0.7,-83.16364251,0.95307861
ZYX,58,1,2024-06-14T02:57:55.302Z,english_384.wav,0,0,4091,22,4,Chinese,f,8,0.8,-99.35642135,1.25910316
ZYX,58,1,2024-06-14T02:57:55.302Z,english_384.wav,0,0,4091,22,4,Chinese,f,9,0.9,39.42669245,1.31614459
ZYX,58,1,2024-06-14T02:57:55.302Z,english_384.wav,0,0,4091,22,4,Chinese,f,10,1,2.14731946,0.23757066
ZYX,58,1,2024-06-14T02:57:55.302Z,english_384.wav,0,0,4091,22,4,Chinese,f,11,1.09391667,-81.26968126,1.34705459
ZYX,59,1,2024-06-14T02:57:55.302Z,english_675.wav,0,0,150,22,4,Chinese,f,0,0,-55.70103266,0.31166963
ZYX,59,1,2024-06-14T02:57:55.302Z,english_675.wav,0,0,150,22,4,Chinese,f,1,0.1,-28.01284425,0.86348118
ZYX,59,1,2024-06-14T02:57:55.302Z,english_675.wav,0,0,150,22,4,Chinese,f,2,0.2,7.20629908,0.70830416
ZYX,59,1,2024-06-14T02:57:55.302Z,english_675.wav,0,0,150,22,4,Chinese,f,3,0.3,-88.65707162,1.06551889
ZYX,59,1,2024-06-14T02:57:55.302Z,english_675.wav,0,0,150,22,4,Chinese,f,4,0.4,-27.84357002,1.20889774
ZYX,59,1,2024-06-14T02:57:55.302Z,english_675.wav,0,0,150,22,4,Chinese,f,5,0.5,-20.24546059,1.96243663
ZYX,59,1,2024-06-14T02:57:55.302Z,english_675.wav,0,0,150,22,4,Chinese,f,6,0.6,20.54719109,0.99424305
ZYX,59,1,2024-06-14T02:57:55.302Z,english_675.wav,0,0,150,22,4,Chinese,f,7,0.7,-91.70059837,1.67190932
ZYX,59,1,2024-06-14T02:57:55.302Z,english_675.wav,0,0,150,22,4,Chinese,f,8,0.8,-73.21008585,0.91833311
ZYX,59,1,2024-06-14T02:57:55.302Z,english_675.wav,0,0,150,22,4,Chinese,f,9,0.9,41.37635308,1.02826617
ZYX,59,1,2024-06-14T02:57:55.302Z,english_675.wav,0,0,150,22,4,Chinese,f,10,1,8.96435743,1.43882248
ZYX,59,1,2024-06-14T02:57:55.302Z,english_675.wav,0,0,150,22,4,Chinese,f,11,1.09391667,-83.64569899,1.75988721
ZYX,60,1,2024-06-14T02:57:55.302Z,english_967.wav,0,0,567,22,4,Chinese,f,0,0,-95.01579597,1.84793029
ZYX,60,1,2024-06-14T02:57:55.302Z,english_967.wav,0,0,567,22,4,Chinese,f,1,0.1,-83.85694312,0.58680999
ZYX,60,1,2024-06-14T02:57:55.302Z,english_967.wav,0,0,567,22,4,Chinese,f,2,0.2,-85.29120752,1.7718572
ZYX,60,1,2024-06-14T02:57:55.302Z,english_967.wav,0,0,567,22,4,Chinese,f,3,0.3,39.64714204,1.16952376
ZYX,60,1,2024-06-14T02:57:55.302Z,english_967.wav,0,0,567,22,4,Chinese,f,4,0.4,57.5109199,0.26483397
ZYX,60,1,2024-06-14T02:57:55.302Z,english_967.wav,0,0,567,22,4,Chinese,f,5,0.5,17.84726357,0.70174807
ZYX,60,1,2024-06-14T02:57:55.302Z,english_967.wav,0,0,567,22,4,Chinese,f,6,0.6,72.49898727,1.00653378
ZYX,60,1,2024-06-14T02:57:55.302Z,english_967.wav,0,0,567,22,4,Chinese,f,7,0.7,-49.28489837,0.37312662
ZYX,60,1,2024-06-14T02:57:55.302Z,english_967.wav,0,0,567,22,4,Chinese,f,8,0.8,27.76319329,0.21661179
ZYX,60,1,2024-06-14T02:57:55.302Z,english_967.wav,0,0,567,22,4,Chinese,f,9,0.9,40.88732144,1.37557681
ZYX,60,1,2024-06-14T02:57:55.302Z,english_967.wav,0,0,567,22,4,Chinese,f,10,1,25.08094833,0.83851773
ZYX,60,1,2024-06-14T02:57:55.302Z,english_967.wav,0,0,567,22,4,Chinese,f,11,1.09391667,-11.2848797,1.10196179
ZYX,61,1,2024-06-14T02:57:55.302Z,english_629.wav,0,1,3689,22,4,Chinese,f,0,0,-98.30964243,0.81771725
ZYX,61,1,2024-06-14T02:57:55.302Z,english_629.wav,0,1,3689,22,4,Chinese,f,1,0.1,-5.62970232,0.80248144
ZYX,61,1,2024-06-14T02:57:55.302Z,english_629.wav,0,1,3689,22,4,Chinese,f,2,0.2,20.69990793,1.65272957
ZYX,61,1,2024-06-14T02:57:55.302Z,english_629.wav,0,1,3689,22,4,Chinese,f,3,0.3,-4.68954038,0.79587507
ZYX,61,1,2024-06-14T02:57:55.302Z,english_629.wav,0,1,3689,22,4,Chinese,f,4,0.4,-82.80499964,0.51843323
ZYX,61,1,2024-06-14T02:57:55.302Z,english_629.wav,0,1,3689,22,4,Chinese,f,5,0.5,68.80297029,1.06630495
ZYX,61,1,2024-06-14T02:57:55.302Z,english_629.wav,0,1,3689,22,4,Chinese,f,6,0.6,-24.62615081,0.85921764
ZYX,61,1,2024-06-14T02:57:55.302Z,english_629.wav,0,1,3689,22,4,Chinese,f,7,0.7,-86.27878454,1.30572182
ZYX,61,1,2024-06-14T02:57:55.302Z,english_629.wav,0,1,3689,22,4,Chinese,f,8,0.8,-88.66663155,0.67243508
ZYX,61,1,2024-06-14T02:57:55.302Z,english_629.wav,0,1,3689,22,4,Chinese,f,9,0.9,8.97030431,0.68958588
ZYX,61,1,2024-06-14T02:57:55.302Z,english_629.wav,0,1,3689,22,4,Chinese,f,10,1,-94.86018334,0.23451131
ZYX,61,1,2024-06-14T02:57:55.302Z,english_629.wav,0,1,3689,22,4,Chinese,f,11,1.09391667,10.00961885,1.91010728
ZYX,62,1,2024-06-14T02:57:55.302Z,english_472.wav,0,1,47,22,4,Chinese,f,0,0,-23.72821767,0.96911452
ZYX,62,1,2024-06-14T02:57:55.302Z,english_472.wav,0,1,47,22,4,Chinese,f,1,0.1,7.29471696,0.40121138
ZYX,62,1,2024-06-14T02:57:55.302Z,english_472.wav,0,1,47,22,4,Chinese,f,2,0.2,-58.55005371,1.15410482
ZYX,62,1,2024-06-14T02:57:55.302Z,english_472.wav,0,1,47,22,4,Chinese,f,3,0.3,77.0504256,1.91400861
ZYX,62,1,2024-06-14T02:57:55.302Z,english_472.wav,0,1,47,22,4,Chinese,f,4,0.4,87.29275565,0.05830067
ZYX,62,1,2024-06-14T02:57:55.302Z,english_472.wav,0,1,47,22,4,Chinese,f,5,0.5,-70.9646192,0.87176087
ZYX,62,1,2024-06-14T02:57:55.302Z,english_472.wav,0,1,47,22,4,Chinese,f,6,0.6,72.82743185,0.23371631
ZYX,62,1,2024-06-14T02:57:55.302Z,english_472.wav,0,1,47,22,4,Chinese,f,7,0.7,-40.27439915,1.66198616
ZYX,62,1,2024-06-14T02:57:55.302Z,english_472.wav,0,1,47,22,4,Chinese,f,8,0.8,-15.91396931,0.22492459
ZYX,62,1,2024-06-14T02:57:55.302Z,english_472.wav,0,1,47,22,4,Chinese,f,9,0.9,27.40014094,0.55757982
ZYX,62,1,2024-06-14T02:57:55.302Z,english_472.wav,0,1,47,22,4,Chinese,f,10,1,-13.69917785,1.15387827
ZYX,62,1,2024-06-14T02:57:55.302Z,english_472.wav,0,1,47,22,4,Chinese,f,11,1.09391667,26.78237701,1.85526867
ZYX,63,1,2024-06-14T02:57:55.302Z,english_339.wav,0,1,260,22,4,Chinese,f,0,0,60.63219511,0.54338949
ZYX,63,1,2024-06-14T02:57:55.302Z,english_339.wav,0,1,260,22,4,Chinese,f,1,0.1,-12.18568345,0.21495144
ZYX,63,1,2024-06-14T02:57:55.302Z,english_339.wav,0,1,260,22,4,Chinese,f,2,0.2,23.58983997,0.44775719
ZYX,63,1,2024-06-14T02:57:55.302Z,english_339.wav,0,1,260,22,4,Chinese,f,3,0.3,-59.19633042,1.56952392
ZYX,63,1,2024-06-14T02:57:55.302Z,english_339.wav,0,1,260,22,4,Chinese,f,4,0.4,-43.20945626,0.76217709
ZYX,63,1,2024-06-14T02:57:55.302Z,english_339.wav,0,1,260,22,4,Chinese,f,5,0.5,-32.55639825,1.99954478
ZYX,63,1,2024-06-14T02:57:55.302Z,english_339.wav,0,1,260,22,4,Chinese,f,6,0.6,-3.49407884,0.09545273
ZYX,63,1,2024-06-14T02:57:55.302Z,english_339.wav,0,1,260,22,4,Chinese,f,7,0.7,91.66463762,1.65140919
ZYX,63,1,2024-06-14T02:57:55.302Z,english_339.wav,0,1,260,22,4,Chinese,f,8,0.8,-80.14131412,1.37862303
ZYX,63,1,2024-06-14T02:57:55.302Z,english_339.wav,0,1,260,22,4,Chinese,f,9,0.9,86.26968254,1.5118574
ZYX,63,1,2024-06-14T02:57:55.302Z,english_339.wav,0,1,260,22,4,Chinese,f,10,1,-20.69851377,0.21342111
ZYX,63,1,2024-06-14T02:57:55.302Z,english_339.wav,0,1,260,22,4,Chinese,f,11,1.09391667,-11.06601383,1.19470184
ZYX,64,1,2024-06-14T02:57:55.302Z,english_151.wav,0,1,450,22,4,Chinese,f,0,0,-96.58356516,1.19663116
ZYX,64,1,2024-06-14T02:57:55.302Z,english_151.wav,0,1,450,22,4,Chinese,f,1,0.1,53.33507439,0.02049529
ZYX,64,1,2024-06-14T02:57:55.302Z,english_151.wav,0,1,450,22,4,Chinese,f,2,0.2,23.26881474,0.86701839
ZYX,64,1,2024-06-14T02:57:55.302Z,english_151.wav,0,1,450,22,4,Chinese,f,3,0.3,89.03249778,0.68926078
ZYX,64,1,2024-06-14T02:57:55.302Z,english_151.wav,0,1,450,22,4,Chinese,f,4,0.4,-38.82793041,0.60287098
ZYX,64,1,2024-06-14T02:57:55.302Z,english_151.wav,0,1,450,22,4,Chinese,f,5,0.5,-36.66004779,1.21623164
ZYX,64,1,2024-06-14T02:57:55.302Z,english_151.wav,0,1,450,22,4,Chinese,f,6,0.6,67.28889671,0.80619928
ZYX,64,1,2024-06-14T02:57:55.302Z,english_151.wav,0,1,450,22,4,Chinese,f,7,0.7,-0.40239481,0.32656555
ZYX,64,1,2024-06-14T02:57:55.302Z,english_151.wav,0,1,450,22,4,Chinese,f,8,0.8,-91.46427785,1.24233336
ZYX,64,1,2024-06-14T02:57:55.302Z,english_151.wav,0,1,450,22,4,Chinese,f,9,0.9,42.06624713,0.88095947
ZYX,64,1,2024-06-14T02:57:55.302Z,english_151.wav,0,1,450,22,4,Chinese,f,10,1,-44.58654352,1.51580141
ZYX,64,1,2024-06-14T02:57:55.302Z,english_151.wav,0,1,450,22,4,Chinese,f,11,1.09391667,65.09222406,0.37134413
ZYX,65,1,2024-06-14T02:57:55.302Z,english_796.wav,0,0,283,22,4,Chinese,f,0,0,23.83274793,0.06036971
ZYX,65,1,2024-06-14T02:57:55.302Z,english_796.wav,0,0,283,22,4,Chinese,f,1,0.1,58.93639275,1.88058462
ZYX,65,1,2024-06-14T02:57:55.302Z,english_796.wav,0,0,283,22,4,Chinese,f,2,0.2,38.21414004,0.18227098
ZYX,65,1,2024-06-14T02:57:55.302Z,english_796.wav,0,0,283,22,4,Chinese,f,3,0.3,28.9924604,1.37773272
ZYX,65,1,2024-06-14T02:57:55.302Z,english_796.wav,0,0,283,22,4,Chinese,f,4,0.4,-7.06068982,1.64549947
ZYX,65,1,2024-06-14T02:57:55.302Z,english_796.wav,0,0,283,22,4,Chinese,f,5,0.5,-87.6291124,1.67194705
ZYX,65,1,2024-06-14T02:57:55.302Z,english_796.wav,0,0,283,22,4,Chinese,f,6,0.6,-19.55999428,0.64689213
ZYX,65,1,2024-06-14T02:57:55.302Z,english_796.wav,0,0,283,22,4,Chinese,f,7,0.7,12.86748648,1.59726084
ZYX,65,1,2024-06-14T02:57:55.302Z,english_796.wav,0,0,283,22,4,Chinese,f,8,0.8,60.66600698,0.96069219
ZYX,65,1,2024-06-14T02:57:55.302Z,english_796.wav,0,0,283,22,4,Chinese,f,9,0.9,63.14579763,1.00931817
ZYX,65,1,2024-06-14T02:57:55.302Z,english_796.wav,0,0,283,22,4,Chinese,f,10,1,38.43403738,1.05195825
ZYX,65,1,2024-06-14T02:57:55.302Z,english_796.wav,0,0,283,22,4,Chinese,f,11,1.09391667,-11.41285249,1.96327853
ZYX,66,1,2024-06-14T02:57:55.302Z,english_899.wav,0,0,425,22,4,Chinese,f,0,0,36.05043058,0.90588284
ZYX,66,1,2024-06-14T02:57:55.302Z,english_899.wav,0,0,425,22,4,Chinese,f,1,0.1,33.3197066,1.60760833
ZYX,66,1,2024-06-14T02:57:55.302Z,english_899.wav,0,0,425,22,4,Chinese,f,2,0.2,-89.01295916,1.45467369
ZYX,66,1,2024-06-14T02:57:55.302Z,english_899.wav,0,0,425,22,4,Chinese,f,3,0.3,98.52221139,0.4019209
ZYX,66,1,2024-06-14T02:57:55.302Z,english_899.wav,0,0,425,22,4,Chinese,f,4,0.4,-46.63657868,1.10920818
ZYX,66,1,2024-06-14T02:57:55.302Z,english_899.wav,0,0,425,22,4,Chinese,f,5,0.5,-65.65669191,1.04007942
ZYX,66,1,2024-06-14T02:57:55.302Z,english_899.wav,0,0,425,22,4,Chinese,f,6,0.6,76.90163594,0.20562094
ZYX,66,1,2024-06-14T02:57:55.302Z,english_899.wav,0,0,425,22,4,Chinese,f,7,0.7,36.98286823,0.26673383
ZYX,66,1,2024-06-14T02:57:55.302Z,english_899.wav,0,0,425,22,4,Chinese,f,8,0.8,58.54417199,0.17186704
ZYX,66,1,2024-06-14T02:57:55.302Z,english_899.wav,0,0,425,22,4,Chinese,f,9,0.9,37.91895182,1.28815156
ZYX,66,1,2024-06-14T02:57:55.302Z,english_899.wav,0,0,425,22,4,Chinese,f,10,1,-84.2401269,0.03412997
ZYX,66,1,2024-06-14T02:57:55.302Z,english_899.wav,0,0,425,22,4,Chinese,f,11,1.09391667,-3.10665722,1.51688145
ZYX,67,1,2024-06-14T02:57:55.302Z,english_890.wav,0,0,52,22,4,Chinese,f,0,0,31.44625075,1.15032127
ZYX,67,1,2024-06-14T02:57:55.302Z,english_890.wav,0,0,52,22,4,Chinese,f,1,0.1,-90.32825643,0.20043056
ZYX,67,1,2024-06-14T02:57:55.302Z,english_890.wav,0,0,52,22,4,Chinese,f,2,0.2,-64.7017166,0.4631213
ZYX,67,1,2024-06-14T02:57:55.302Z,english_890.wav,0,0,52,22,4,Chinese,f,3,0.3,15.62340259,1.29891642
ZYX,67,1,2024-06-14T02:57:55.302Z,english_890.wav,0,0,52,22,4,Chinese,f,4,0.4,-79.4752192,0.6480645
ZYX,67,1,2024-06-14T02:57:55.302Z,english_890.wav,0,0,52,22,4,Chinese,f,5,0.5,74.79009283,0.81505597
ZYX,67,1,2024-06-14T02:57:55.302Z,english_890.wav,0,0,52,22,4,Chinese,f,6,0.6,-57.91380652,1.23579114
ZYX,67,1,2024-06-14T02:57:55.302Z,english_890.wav,0,0,52,22,4,Chinese,f,7,0.7,92.43048613,0.16251602
ZYX,67,1,2024-06-14T02:57:55.302Z,english_890.wav,0,0,52,22,4,Chinese,f,8,0.8,-1.35432996,0.74439657
ZYX,67,1,2024-06-14T02:57:55.302Z,english_890.wav,0,0,52,22,4,Chinese,f,9,0.9,-1.4007117,1.69626999
ZYX,67,1,2024-06-14T02:57:55.302Z,english_890.wav,0,0,52,22,4,Chinese,f,10,1,-22.8275935,0.07593713
ZYX,67,1,2024-06-14T02:57:55.302Z,english_890.wav,0,0,52,22,4,Chinese,f,11,1.09391667,-34.82288483,0.22950927
ZYX,68,1,2024-06-14T02:57:55.302Z,english_873.wav,0,0,1880,22,4,Chinese,f,0,0,-5.34184308,0.18534223
ZYX,68,1,2024-06-14T02:57:55.302Z,english_873.wav,0,0,1880,22,4,Chinese,f,1,0.1,29.86705528,1.00948066
ZYX,68,1,2024-06-14T02:57:55.302Z,english_873.wav,0,0,1880,22,4,Chinese,f,2,0.2,-53.62087934,0.93104213
ZYX,68,1,2024-06-14T02:57:55.302Z,english_873.wav,0,0,1880,22,4,Chinese,f,3,0.3,-59.16709203,1.19025309
ZYX,68,1,2024-06-14T02:57:55.302Z,english_873.wav,0,0,1880,22,4,Chinese,f,4,0.4,69.60141357,1.48608178
ZYX,68,1,2024-06-14T02:57:55.302Z,english_873.wav,0,0,1880,22,4,Chinese,f,5,0.5,-44.07046907,0.89447273
ZYX,68,1,2024-06-14T02:57:55.302Z,english_873.wav,0,0,1880,22,4,Chinese,f,6,0.6,55.781826,0.18822797
ZYX,68,1,2024-06-14T02:57:55.302Z,english_873.wav,0,0,1880,22,4,Chinese,f,7,0.7,-40.21183655,0.79732375
ZYX,68,1,2024-06-14T02:57:55.302Z,english_873.wav,0,0,1880,22,4,Chinese,f,8,0.8,9.01550121,0.51650354
ZYX,68,1,2024-06-14T02:57:55.302Z,english_873.wav,0,0,1880,22,4,Chinese,f,9,0.9,-15.28098321,0.06272522
ZYX,68,1,2024-06-14T02:57:55.302Z,english_873.wav,0,0,1880,22,4,Chinese,f,10,1,-64.77079799,1.63736384
ZYX,68,1,2024-06-14T02:57:55.302Z,english_873.wav,0,0,1880,22,4,Chinese,f,11,1.09391667,80.68199225,1.95600343
ZYX,69,1,2024-06-14T02:57:55.302Z,english_927.wav,0,1,622,22,4,Chinese,f,0,0,-59.83926294,0.47046778
ZYX,69,1,2024-06-14T02:57:55.302Z,english_927.wav,0,1,622,22,4,Chinese,f,1,0.1,-55.07345908,0.3359419
ZYX,69,1,2024-06-14T02:57:55.302Z,english_927.wav,0,1,622,22,4,Chinese,f,2,0.2,23.01792414,0.47092449
ZYX,69,1,2024-06-14T02:57:55.302Z,english_927.wav,0,1,622,22,4,Chinese,f,3,0.3,79.95942336,0.24313159
ZYX,69,1,2024-06-14T02:57:55.302Z,english_927.wav,0,1,622,22,4,Chinese,f,4,0.4,-17.18079026,1.33138527
ZYX,69,1,2024-06-14T02:57:55.302Z,english_927.wav,0,1,622,22,4,Chinese,f,5,0.5,-63.61008443,0.70267187
ZYX,69,1,2024-06-14T02:57:55.302Z,english_927.wav,0,1,622,22,4,Chinese,f,6,0.6,89.30642255,1.06517667
ZYX,69,1,2024-06-14T02:57:55.302Z,english_927.wav,0,1,622,22,4,Chinese,f,7,0.7,-30.45736296,1.53858916
ZYX,69,1,2024-06-14T02:57:55.302Z,english_927.wav,0,1,622,22,4,Chinese,f,8,0.8,-34.22678019,0.26895536
ZYX,69,1,2024-06-14T02:57:55.302Z,english_927.wav,0,1,622,22,4,Chinese,f,9,0.9,-97.1214348,1.04309053
ZYX,69,1,2024-06-14T02:57:55.302Z,english_927.wav,0,1,622,22,4,Chinese,f,10,1,-70.92857542,1.24996871
ZYX,69,1,2024-06-14T02:57:55.302Z,english_927.wav,0,1,622,22,4,Chinese,f,11,1.09391667,48.94211635,1.20293368
ZYX,70,1,2024-06-14T02:57:55.302Z,english_449.wav,0,0,200,22,4,Chinese,f,0,0,-44.55388373,1.29710548
ZYX,70,1,2024-06-14T02:57:55.302Z,english_449.wav,0,0,200,22,4,Chinese,f,1,0.1,-6.72313799,1.06558485
ZYX,70,1,2024-06-14T02:57:55.302Z,english_449.wav,0,0,200,22,4,Chinese,f,2,0.2,79.06263513,1.64594706
ZYX,70,1,2024-06-14T02:57:55.302Z,english_449.wav,0,0,200,22,4,Chinese,f,3,0.3,-55.67409496,0.52101608
ZYX,70,1,2024-06-14T02:57:55.302Z,english_449.wav,0,0,200,22,4,Chinese,f,4,0.4,-98.00845055,1.47445199
ZYX,70,1,2024-06-14T02:57:55.302Z,english_449.wav,0,0,200,22,4,Chinese,f,5,0.5,11.95490186,0.94544277
ZYX,70,1,2024-06-14T02:57:55.302Z,english_449.wav,0,0,200,22,4,Chinese,f,6,0.6,61.24554038,1.90306494
ZYX,70,1,2024-06-14T02:57:55.302Z,english_449.wav,0,0,200,22,4,Chinese,f,7,0.7,22.84997393,1.15810732
ZYX,70,1,2024-06-14T02:57:55.302Z,english_449.wav,0,0,200,22,4,Chinese,f,8,0.8,-43.41021729,0.26889852
ZYX,70,1,2024-06-14T02:57:55.302Z,english_449.wav,0,0,200,22,4,Chinese,f,9,0.9,-0.66438627,1.02983536
ZYX,70,1,2024-06-14T02:57:55.302Z,english_449.wav,0,0,200,22,4,Chinese,f,10,1,97.92538247,1.13790703
ZYX,70,1,2024-06-14T02:57:55.302Z,english_449.wav,0,0,200,22,4,Chinese,f,11,1.09391667,-73.561514,0.97073961
ZYX,71,1,2024-06-14T02:57:55.302Z,english_745.wav,0,0,599,22,4,Chinese,f,0,0,-47.9537983,1.262874
ZYX,71,1,2024-06-14T02:57:55.302Z,english_745.wav,0,0,599,22,4,Chinese,f,1,0.1,10.59664377,0.45595153
ZYX,71,1,2024-06-14T02:57:55.302Z,english_745.wav,0,0,599,22,4,Chinese,f,2,0.2,3.22121318,1.90154411
ZYX,71,1,2024-06-14T02:57:55.302Z,english_745.wav,0,0,599,22,4,Chinese,f,3,0.3,66.38489409,1.18935698
ZYX,71,1,2024-06-14T02:57:55.302Z,english_745.wav,0,0,599,22,4,Chinese,f,4,0.4,-85.62638025,0.53454894
ZYX,71,1,2024-06-14T02:57:55.302Z,english_745.wav,0,0,599,22,4,Chinese,f,5,0.5,53.0870989,0.07115633
ZYX,71,1,2024-06-14T02:57:55.302Z,english_745.wav,0,0,599,22,4,Chinese,f,6,0.6,37.88737288,0.91558947
ZYX,71,1,2024-06-14T02:57:55.302Z,english_745.wav,0,0,599,22,4,Chinese,f,7,0.7,-50.87104403,0.71993263
ZYX,71,1,2024-06-14T02:57:55.302Z,english_745.wav,0,0,599,22,4,Chinese,f,8,0.8,-30.17524051,0.93591694
ZYX,71,1,2024-06-14T02:57:55.302Z,english_745.wav,0,0,599,22,4,Chinese,f,9,0.9,42.29036925,0.99723137
ZYX,71,1,2024-06-14T02:57:55.302Z,english_745.wav,0,0,599,22,4,Chinese,f,10,1,6.95263715,0.85978939
ZYX,71,1,2024-06-14T02:57:55.302Z,english_745.wav,0,0,599,22,4,Chinese,f,11,1.09391667,-3.81320325,0.69941736
ZYX,72,1,2024-06-14T02:57:55.302Z,english_76.wav,0,0,1019,22,4,Chinese,f,0,0,24.53692124,0.00919351
ZYX,72,1,2024-06-14T02:57:55.302Z,english_76.wav,0,0,1019,22,4,Chinese,f,1,0.1,4.74525032,1.89780668
ZYX,72,1,2024-06-14T02:57:55.302Z,english_76.wav,0,0,1019,22,4,Chinese,f,2,0.2,-11.73085706,1.28424019
ZYX,72,1,2024-06-14T02:57:55.302Z,english_76.wav,0,0,1019,22,4,Chinese,f,3,0.3,-67.51409973,0.97330389
ZYX,72,1,2024-06-14T02:57:55.302Z,english_76.wav,0,0,1019,22,4,Chinese,f,4,0.4,18.72894419,1.57704982
ZYX,72,1,2024-06-14T02:57:55.302Z,english_76.wav,0,0,1019,22,4,Chinese,f,5,0.5,-87.08655703,0.6100989
ZYX,72,1,2024-06-14T02:57:55.302Z,english_76.wav,0,0,1019,22,4,Chinese,f,6,0.6,8.86378377,0.1303689
ZYX,72,1,2024-06-14T02:57:55.302Z,english_76.wav,0,0,1019,22,4,Chinese,f,7,0.7,-88.70159666,1.07980698
ZYX,72,1,2024-06-14T02:57:55.302Z,english_76.wav,0,0,1019,22,4,Chinese,f,8,0.8,-19.63742154,0.36042094
ZYX,72,1,2024-06-14T02:57:55.302Z,english_76.wav,0,0,1019,22,4,Chinese,f,9,0.9,-28.01043875,1.46264173
ZYX,72,1,2024-06-14T02:57:55.302Z,english_76.wav,0,0,1019,22,4,Chinese,f,10,1,-30.77636244,0.93716424
ZYX,72,1,2024-06-14T02:57:55.302Z,english_76.wav,0,0,1019,22,4,Chinese,f,11,1.09391667,-23.02477644,0.27656628
ZYX,73,1,2024-06-14T02:57:55.302Z,english_576.wav,0,0,470,22,4,Chinese,f,0,0,-58.66306645,1.71561025
ZYX,73,1,2024-06-14T02:57:55.302Z,english_576.wav,0,0,470,22,4,Chinese,f,1,0.1,-48.85456955,1.69080607
ZYX,73,1,2024-06-14T02:57:55.302Z,english_576.wav,0,0,470,22,4,Chinese,f,2,0.2,29.24978703,1.36521175
ZYX,73,1,2024-06-14T02:57:55.302Z,english_576.wav,0,0,470,22,4,Chinese,f,3,0.3,-4.57987844,0.87715483
ZYX,73,1,2024-06-14T02:57:55.302Z,english_576.wav,0,0,470,22,4,Chinese,f,4,0.4,17.09511918,0.38991217
ZYX,73,1,2024-06-14T02:57:55.302Z,english_576.wav,0,0,470,22,4,Chinese,f,5,0.5,-36.28101864,0.94074697
ZYX,73,1,2024-06-14T02:57:55.302Z,english_576.wav,0,0,470,22,4,Chinese,f,6,0.6,16.68992844,0.21735662
ZYX,73,1,2024-06-14T02:57:55.302Z,english_576.wav,0,0,470,22,4,Chinese,f,7,0.7,41.08024696,0.2928344
ZYX,73,1,2024-06-14T02:57:55.302Z,english_576.wav,0,0,470,22,4,Chinese,f,8,0.8,84.11774755,1.75349185
ZYX,73,1,2024-06-14T02:57:55.302Z,english_576.wav,0,0,470,22,4,Chinese,f,9,0.9,37.20407844,0.5790335
ZYX,73,1,2024-06-14T02:57:55.302Z,english_576.wav,0,0,470,22,4,Chinese,f,10,1,-6.74453613,0.77029309
ZYX,73,1,2024-06-14T02:57:55.302Z,english_576.wav,0,0,470,22,4,Chinese,f,11,1.09391667,8.90716527,0.55391499
ZYX,74,1,2024-06-14T02:57:55.302Z,english_361.wav,0,0,617,22,4,Chinese,f,0,0,20.84328773,1.90680099
ZYX,74,1,2024-06-14T02:57:55.302Z,english_361.wav,0,0,617,22,4,Chinese,f,1,0.1,31.97314279,0.60095823
