subj,trial,block,date,stim,stim_order,response,rt,age,english,language,sex,param_index,segment,pitch,stretch
ZZX,0,0,2024-06-13T15:31:54.867Z,english_283.wav,0,0,9231,21,5,Chinese,m,0,0,-12.90091121,0.5789399
ZZX,0,0,2024-06-13T15:31:54.867Z,english_283.wav,0,0,9231,21,5,Chinese,m,1,0.1,42.27249946,1.95381107
ZZX,0,0,2024-06-13T15:31:54.867Z,english_283.wav,0,0,9231,21,5,Chinese,m,2,0.2,5.12381798,1.0168321
ZZX,0,0,2024-06-13T15:31:54.867Z,english_283.wav,0,0,9231,21,5,Chinese,m,3,0.3,1.7675065,0.61202955
ZZX,0,0,2024-06-13T15:31:54.867Z,english_283.wav,0,0,9231,21,5,Chinese,m,4,0.4,-21.55461961,0.89680875
ZZX,0,0,2024-06-13T15:31:54.867Z,english_283.wav,0,0,9231,21,5,Chinese,m,5,0.5,-31.65586282,1.15056599
ZZX,0,0,2024-06-13T15:31:54.867Z,english_283.wav,0,0,9231,21,5,Chinese,m,6,0.6,20.15160145,0.34242076
ZZX,0,0,2024-06-13T15:31:54.867Z,english_283.wav,0,0,9231,21,5,Chinese,m,7,0.7,82.41987013,1.76180701
ZZX,0,0,2024-06-13T15:31:54.867Z,english_283.wav,0,0,9231,21,5,Chinese,m,8,0.8,59.09454669,0.95604839
ZZX,0,0,2024-06-13T15:31:54.867Z,english_283.wav,0,0,9231,21,5,Chinese,m,9,0.9,36.30583869,1.86733505
ZZX,0,0,2024-06-13T15:31:54.867Z,english_283.wav,0,0,9231,21,5,Chinese,m,10,1,-40.78038553,1.17388738
ZZX,0,0,2024-06-13T15:31:54.867Z,english_283.wav,0,0,9231,21,5,Chinese,m,11,1.09391667,39.65520312,1.73016304
ZZX,1,0,2024-06-13T15:31:54.867Z,english_859.wav,0,0,5227,21,5,Chinese,m,0,0,31.07114651,1.62014662
ZZX,1,0,2024-06-13T15:31:54.867Z,english_859.wav,0,0,5227,21,5,Chinese,m,1,0.1,-28.29036268,0.23536516
ZZX,1,0,2024-06-13T15:31:54.867Z,english_859.wav,0,0,5227,21,5,Chinese,m,2,0.2,-99.32977332,1.20919843
ZZX,1,0,2024-06-13T15:31:54.867Z,english_859.wav,0,0,5227,21,5,Chinese,m,3,0.3,24.56403326,1.87022771
ZZX,1,0,2024-06-13T15:31:54.867Z,english_859.wav,0,0,5227,21,5,Chinese,m,4,0.4,13.96924155,1.25340901
ZZX,1,0,2024-06-13T15:31:54.867Z,english_859.wav,0,0,5227,21,5,Chinese,m,5,0.5,-7.10648456,1.24145487
ZZX,1,0,2024-06-13T15:31:54.867Z,english_859.wav,0,0,5227,21,5,Chinese,m,6,0.6,16.2139947,0.16688969
ZZX,1,0,2024-06-13T15:31:54.867Z,english_859.wav,0,0,5227,21,5,Chinese,m,7,0.7,-63.09488954,1.9877967
ZZX,1,0,2024-06-13T15:31:54.867Z,english_859.wav,0,0,5227,21,5,Chinese,m,8,0.8,32.97149002,1.05528454
ZZX,1,0,2024-06-13T15:31:54.867Z,english_859.wav,0,0,5227,21,5,Chinese,m,9,0.9,73.86440675,1.04254929
ZZX,1,0,2024-06-13T15:31:54.867Z,english_859.wav,0,0,5227,21,5,Chinese,m,10,1,18.08685772,0.40355025
ZZX,1,0,2024-06-13T15:31:54.867Z,english_859.wav,0,0,5227,21,5,Chinese,m,11,1.09391667,63.56526174,1.52495745
ZZX,2,0,2024-06-13T15:31:54.867Z,english_913.wav,0,1,2547,21,5,Chinese,m,0,0,-12.70990623,1.14486928
ZZX,2,0,2024-06-13T15:31:54.867Z,english_913.wav,0,1,2547,21,5,Chinese,m,1,0.1,-17.89686071,0.94187729
ZZX,2,0,2024-06-13T15:31:54.867Z,english_913.wav,0,1,2547,21,5,Chinese,m,2,0.2,58.24027697,0.43978781
ZZX,2,0,2024-06-13T15:31:54.867Z,english_913.wav,0,1,2547,21,5,Chinese,m,3,0.3,71.96751717,0.86816184
ZZX,2,0,2024-06-13T15:31:54.867Z,english_913.wav,0,1,2547,21,5,Chinese,m,4,0.4,22.83880081,0.47286583
ZZX,2,0,2024-06-13T15:31:54.867Z,english_913.wav,0,1,2547,21,5,Chinese,m,5,0.5,74.23310268,0.4719667
ZZX,2,0,2024-06-13T15:31:54.867Z,english_913.wav,0,1,2547,21,5,Chinese,m,6,0.6,23.98451607,1.54190919
ZZX,2,0,2024-06-13T15:31:54.867Z,english_913.wav,0,1,2547,21,5,Chinese,m,7,0.7,-29.568704,1.67539159
ZZX,2,0,2024-06-13T15:31:54.867Z,english_913.wav,0,1,2547,21,5,Chinese,m,8,0.8,19.11592867,1.16448364
ZZX,2,0,2024-06-13T15:31:54.867Z,english_913.wav,0,1,2547,21,5,Chinese,m,9,0.9,54.77477233,1.68418537
ZZX,2,0,2024-06-13T15:31:54.867Z,english_913.wav,0,1,2547,21,5,Chinese,m,10,1,9.76021826,1.91621277
ZZX,2,0,2024-06-13T15:31:54.867Z,english_913.wav,0,1,2547,21,5,Chinese,m,11,1.09391667,-30.35128441,1.40243908
ZZX,3,0,2024-06-13T15:31:54.867Z,english_577.wav,0,0,635,21,5,Chinese,m,0,0,-76.85094523,0.20458554
ZZX,3,0,2024-06-13T15:31:54.867Z,english_577.wav,0,0,635,21,5,Chinese,m,1,0.1,94.91365435,0.06228827
ZZX,3,0,2024-06-13T15:31:54.867Z,english_577.wav,0,0,635,21,5,Chinese,m,2,0.2,32.9651173,1.08516977
ZZX,3,0,2024-06-13T15:31:54.867Z,english_577.wav,0,0,635,21,5,Chinese,m,3,0.3,97.44139815,1.03608724
ZZX,3,0,2024-06-13T15:31:54.867Z,english_577.wav,0,0,635,21,5,Chinese,m,4,0.4,-92.85161712,1.39749402
ZZX,3,0,2024-06-13T15:31:54.867Z,english_577.wav,0,0,635,21,5,Chinese,m,5,0.5,-28.41231643,0.64758682
ZZX,3,0,2024-06-13T15:31:54.867Z,english_577.wav,0,0,635,21,5,Chinese,m,6,0.6,19.38479245,0.95032341
ZZX,3,0,2024-06-13T15:31:54.867Z,english_577.wav,0,0,635,21,5,Chinese,m,7,0.7,49.58285772,1.2742538
ZZX,3,0,2024-06-13T15:31:54.867Z,english_577.wav,0,0,635,21,5,Chinese,m,8,0.8,92.79445105,1.48392176
ZZX,3,0,2024-06-13T15:31:54.867Z,english_577.wav,0,0,635,21,5,Chinese,m,9,0.9,-51.23747257,0.56445321
ZZX,3,0,2024-06-13T15:31:54.867Z,english_577.wav,0,0,635,21,5,Chinese,m,10,1,-16.84554087,1.53283339
ZZX,3,0,2024-06-13T15:31:54.867Z,english_577.wav,0,0,635,21,5,Chinese,m,11,1.09391667,-72.32540524,1.57768455
ZZX,4,0,2024-06-13T15:31:54.867Z,english_610.wav,0,0,47193,21,5,Chinese,m,0,0,-92.84300711,0.87509592
ZZX,4,0,2024-06-13T15:31:54.867Z,english_610.wav,0,0,47193,21,5,Chinese,m,1,0.1,84.93303095,1.15799642
ZZX,4,0,2024-06-13T15:31:54.867Z,english_610.wav,0,0,47193,21,5,Chinese,m,2,0.2,80.17137486,0.35067597
ZZX,4,0,2024-06-13T15:31:54.867Z,english_610.wav,0,0,47193,21,5,Chinese,m,3,0.3,-20.18134966,0.73569606
ZZX,4,0,2024-06-13T15:31:54.867Z,english_610.wav,0,0,47193,21,5,Chinese,m,4,0.4,-20.20363531,1.23116766
ZZX,4,0,2024-06-13T15:31:54.867Z,english_610.wav,0,0,47193,21,5,Chinese,m,5,0.5,-69.79247274,0.29684789
ZZX,4,0,2024-06-13T15:31:54.867Z,english_610.wav,0,0,47193,21,5,Chinese,m,6,0.6,33.10957698,0.98948574
ZZX,4,0,2024-06-13T15:31:54.867Z,english_610.wav,0,0,47193,21,5,Chinese,m,7,0.7,-20.50322303,0.76787478
ZZX,4,0,2024-06-13T15:31:54.867Z,english_610.wav,0,0,47193,21,5,Chinese,m,8,0.8,-72.05825618,0.48117832
ZZX,4,0,2024-06-13T15:31:54.867Z,english_610.wav,0,0,47193,21,5,Chinese,m,9,0.9,1.26743028,0.47321928
ZZX,4,0,2024-06-13T15:31:54.867Z,english_610.wav,0,0,47193,21,5,Chinese,m,10,1,17.12915034,0.17126553
ZZX,4,0,2024-06-13T15:31:54.867Z,english_610.wav,0,0,47193,21,5,Chinese,m,11,1.09391667,64.76618694,1.04318183
ZZX,5,0,2024-06-13T15:31:54.867Z,english_327.wav,0,0,15464,21,5,Chinese,m,0,0,68.47046609,1.54763433
ZZX,5,0,2024-06-13T15:31:54.867Z,english_327.wav,0,0,15464,21,5,Chinese,m,1,0.1,85.76832326,1.83635771
ZZX,5,0,2024-06-13T15:31:54.867Z,english_327.wav,0,0,15464,21,5,Chinese,m,2,0.2,-75.98339762,0.3050113
ZZX,5,0,2024-06-13T15:31:54.867Z,english_327.wav,0,0,15464,21,5,Chinese,m,3,0.3,74.12796235,0.70474203
ZZX,5,0,2024-06-13T15:31:54.867Z,english_327.wav,0,0,15464,21,5,Chinese,m,4,0.4,11.46376172,0.8224078
ZZX,5,0,2024-06-13T15:31:54.867Z,english_327.wav,0,0,15464,21,5,Chinese,m,5,0.5,-5.50560149,0.00526041
ZZX,5,0,2024-06-13T15:31:54.867Z,english_327.wav,0,0,15464,21,5,Chinese,m,6,0.6,27.1504605,0.35213553
ZZX,5,0,2024-06-13T15:31:54.867Z,english_327.wav,0,0,15464,21,5,Chinese,m,7,0.7,27.2911911,1.7713752
ZZX,5,0,2024-06-13T15:31:54.867Z,english_327.wav,0,0,15464,21,5,Chinese,m,8,0.8,-20.36547399,1.08380037
ZZX,5,0,2024-06-13T15:31:54.867Z,english_327.wav,0,0,15464,21,5,Chinese,m,9,0.9,-51.25849452,0.55113913
ZZX,5,0,2024-06-13T15:31:54.867Z,english_327.wav,0,0,15464,21,5,Chinese,m,10,1,79.11844333,0.59854608
ZZX,5,0,2024-06-13T15:31:54.867Z,english_327.wav,0,0,15464,21,5,Chinese,m,11,1.09391667,-53.98607147,1.65860026
ZZX,6,0,2024-06-13T15:31:54.867Z,english_313.wav,0,0,3203,21,5,Chinese,m,0,0,-22.0180916,0.52298953
ZZX,6,0,2024-06-13T15:31:54.867Z,english_313.wav,0,0,3203,21,5,Chinese,m,1,0.1,96.16831441,0.58043298
ZZX,6,0,2024-06-13T15:31:54.867Z,english_313.wav,0,0,3203,21,5,Chinese,m,2,0.2,-45.33444961,0.43861373
ZZX,6,0,2024-06-13T15:31:54.867Z,english_313.wav,0,0,3203,21,5,Chinese,m,3,0.3,-30.76295123,0.29063093
ZZX,6,0,2024-06-13T15:31:54.867Z,english_313.wav,0,0,3203,21,5,Chinese,m,4,0.4,27.42080434,1.23880448
ZZX,6,0,2024-06-13T15:31:54.867Z,english_313.wav,0,0,3203,21,5,Chinese,m,5,0.5,96.50313713,0.08705859
ZZX,6,0,2024-06-13T15:31:54.867Z,english_313.wav,0,0,3203,21,5,Chinese,m,6,0.6,-0.94763764,1.32086894
ZZX,6,0,2024-06-13T15:31:54.867Z,english_313.wav,0,0,3203,21,5,Chinese,m,7,0.7,67.04457313,1.2914561
ZZX,6,0,2024-06-13T15:31:54.867Z,english_313.wav,0,0,3203,21,5,Chinese,m,8,0.8,2.6862445,0.44865702
ZZX,6,0,2024-06-13T15:31:54.867Z,english_313.wav,0,0,3203,21,5,Chinese,m,9,0.9,47.07555832,1.89388378
ZZX,6,0,2024-06-13T15:31:54.867Z,english_313.wav,0,0,3203,21,5,Chinese,m,10,1,-32.41079138,1.69735018
ZZX,6,0,2024-06-13T15:31:54.867Z,english_313.wav,0,0,3203,21,5,Chinese,m,11,1.09391667,11.15794631,1.75721469
ZZX,7,0,2024-06-13T15:31:54.867Z,english_924.wav,0,0,438,21,5,Chinese,m,0,0,-34.16359775,0.79366522
ZZX,7,0,2024-06-13T15:31:54.867Z,english_924.wav,0,0,438,21,5,Chinese,m,1,0.1,95.89868764,0.73795008
ZZX,7,0,2024-06-13T15:31:54.867Z,english_924.wav,0,0,438,21,5,Chinese,m,2,0.2,-7.67474925,0.39139015
ZZX,7,0,2024-06-13T15:31:54.867Z,english_924.wav,0,0,438,21,5,Chinese,m,3,0.3,-21.77911834,0.47707552
ZZX,7,0,2024-06-13T15:31:54.867Z,english_924.wav,0,0,438,21,5,Chinese,m,4,0.4,31.17946122,0.09637783
ZZX,7,0,2024-06-13T15:31:54.867Z,english_924.wav,0,0,438,21,5,Chinese,m,5,0.5,0.48616436,1.58696559
ZZX,7,0,2024-06-13T15:31:54.867Z,english_924.wav,0,0,438,21,5,Chinese,m,6,0.6,56.04156449,1.87427133
ZZX,7,0,2024-06-13T15:31:54.867Z,english_924.wav,0,0,438,21,5,Chinese,m,7,0.7,79.12331334,0.57578157
ZZX,7,0,2024-06-13T15:31:54.867Z,english_924.wav,0,0,438,21,5,Chinese,m,8,0.8,58.34446187,1.11639403
ZZX,7,0,2024-06-13T15:31:54.867Z,english_924.wav,0,0,438,21,5,Chinese,m,9,0.9,51.02751352,1.98577552
ZZX,7,0,2024-06-13T15:31:54.867Z,english_924.wav,0,0,438,21,5,Chinese,m,10,1,59.10490512,0.22580189
ZZX,7,0,2024-06-13T15:31:54.867Z,english_924.wav,0,0,438,21,5,Chinese,m,11,1.09391667,60.06487251,1.66820152
ZZX,8,0,2024-06-13T15:31:54.867Z,english_963.wav,0,0,1351,21,5,Chinese,m,0,0,12.85572416,1.75469767
ZZX,8,0,2024-06-13T15:31:54.867Z,english_963.wav,0,0,1351,21,5,Chinese,m,1,0.1,-76.17617766,0.88786329
ZZX,8,0,2024-06-13T15:31:54.867Z,english_963.wav,0,0,1351,21,5,Chinese,m,2,0.2,42.35975093,1.03977576
ZZX,8,0,2024-06-13T15:31:54.867Z,english_963.wav,0,0,1351,21,5,Chinese,m,3,0.3,-29.56352697,0.40233076
ZZX,8,0,2024-06-13T15:31:54.867Z,english_963.wav,0,0,1351,21,5,Chinese,m,4,0.4,1.9048802,1.77716713
ZZX,8,0,2024-06-13T15:31:54.867Z,english_963.wav,0,0,1351,21,5,Chinese,m,5,0.5,-59.42176318,1.22252544
ZZX,8,0,2024-06-13T15:31:54.867Z,english_963.wav,0,0,1351,21,5,Chinese,m,6,0.6,-90.23873789,1.36334994
ZZX,8,0,2024-06-13T15:31:54.867Z,english_963.wav,0,0,1351,21,5,Chinese,m,7,0.7,96.0492683,0.19892648
ZZX,8,0,2024-06-13T15:31:54.867Z,english_963.wav,0,0,1351,21,5,Chinese,m,8,0.8,-14.96705396,0.48578079
ZZX,8,0,2024-06-13T15:31:54.867Z,english_963.wav,0,0,1351,21,5,Chinese,m,9,0.9,53.28049668,0.49525144
ZZX,8,0,2024-06-13T15:31:54.867Z,english_963.wav,0,0,1351,21,5,Chinese,m,10,1,-50.64061571,1.97867338
ZZX,8,0,2024-06-13T15:31:54.867Z,english_963.wav,0,0,1351,21,5,Chinese,m,11,1.09391667,33.50411271,0.71277393
ZZX,9,0,2024-06-13T15:31:54.867Z,english_587.wav,0,0,1519,21,5,Chinese,m,0,0,-43.40275294,0.40076924
ZZX,9,0,2024-06-13T15:31:54.867Z,english_587.wav,0,0,1519,21,5,Chinese,m,1,0.1,-37.77994111,1.21668484
ZZX,9,0,2024-06-13T15:31:54.867Z,english_587.wav,0,0,1519,21,5,Chinese,m,2,0.2,83.99553821,1.2277233
ZZX,9,0,2024-06-13T15:31:54.867Z,english_587.wav,0,0,1519,21,5,Chinese,m,3,0.3,-96.01654656,0.71292194
ZZX,9,0,2024-06-13T15:31:54.867Z,english_587.wav,0,0,1519,21,5,Chinese,m,4,0.4,-9.71349701,0.26055353
ZZX,9,0,2024-06-13T15:31:54.867Z,english_587.wav,0,0,1519,21,5,Chinese,m,5,0.5,-47.87514317,1.66513876
ZZX,9,0,2024-06-13T15:31:54.867Z,english_587.wav,0,0,1519,21,5,Chinese,m,6,0.6,12.68053189,0.2591497
ZZX,9,0,2024-06-13T15:31:54.867Z,english_587.wav,0,0,1519,21,5,Chinese,m,7,0.7,47.90702589,0.90449777
ZZX,9,0,2024-06-13T15:31:54.867Z,english_587.wav,0,0,1519,21,5,Chinese,m,8,0.8,-78.79796743,0.87118045
ZZX,9,0,2024-06-13T15:31:54.867Z,english_587.wav,0,0,1519,21,5,Chinese,m,9,0.9,-5.96294959,1.32264247
ZZX,9,0,2024-06-13T15:31:54.867Z,english_587.wav,0,0,1519,21,5,Chinese,m,10,1,11.2587131,1.86277567
ZZX,9,0,2024-06-13T15:31:54.867Z,english_587.wav,0,0,1519,21,5,Chinese,m,11,1.09391667,-13.10275262,0.24936359
ZZX,10,0,2024-06-13T15:31:54.867Z,english_691.wav,0,1,1137,21,5,Chinese,m,0,0,53.99142335,1.37901611
ZZX,10,0,2024-06-13T15:31:54.867Z,english_691.wav,0,1,1137,21,5,Chinese,m,1,0.1,59.99308562,0.48516991
ZZX,10,0,2024-06-13T15:31:54.867Z,english_691.wav,0,1,1137,21,5,Chinese,m,2,0.2,-83.77980644,1.93939228
ZZX,10,0,2024-06-13T15:31:54.867Z,english_691.wav,0,1,1137,21,5,Chinese,m,3,0.3,5.55909075,1.80900702
ZZX,10,0,2024-06-13T15:31:54.867Z,english_691.wav,0,1,1137,21,5,Chinese,m,4,0.4,23.79459539,0.81475575
ZZX,10,0,2024-06-13T15:31:54.867Z,english_691.wav,0,1,1137,21,5,Chinese,m,5,0.5,-52.64546011,0.95195088
ZZX,10,0,2024-06-13T15:31:54.867Z,english_691.wav,0,1,1137,21,5,Chinese,m,6,0.6,2.68270455,1.3919478
ZZX,10,0,2024-06-13T15:31:54.867Z,english_691.wav,0,1,1137,21,5,Chinese,m,7,0.7,-52.61692888,0.70729183
ZZX,10,0,2024-06-13T15:31:54.867Z,english_691.wav,0,1,1137,21,5,Chinese,m,8,0.8,-36.65533837,1.61794077
ZZX,10,0,2024-06-13T15:31:54.867Z,english_691.wav,0,1,1137,21,5,Chinese,m,9,0.9,-75.69832194,0.1770134
ZZX,10,0,2024-06-13T15:31:54.867Z,english_691.wav,0,1,1137,21,5,Chinese,m,10,1,1.92131533,0.51863844
ZZX,10,0,2024-06-13T15:31:54.867Z,english_691.wav,0,1,1137,21,5,Chinese,m,11,1.09391667,-54.35087966,0.34478655
ZZX,11,0,2024-06-13T15:31:54.867Z,english_713.wav,0,1,428,21,5,Chinese,m,0,0,-93.47933458,1.62613831
ZZX,11,0,2024-06-13T15:31:54.867Z,english_713.wav,0,1,428,21,5,Chinese,m,1,0.1,17.56811932,0.15624323
ZZX,11,0,2024-06-13T15:31:54.867Z,english_713.wav,0,1,428,21,5,Chinese,m,2,0.2,35.67998285,1.16642221
ZZX,11,0,2024-06-13T15:31:54.867Z,english_713.wav,0,1,428,21,5,Chinese,m,3,0.3,22.32245501,1.85687669
ZZX,11,0,2024-06-13T15:31:54.867Z,english_713.wav,0,1,428,21,5,Chinese,m,4,0.4,-55.00810372,0.77296433
ZZX,11,0,2024-06-13T15:31:54.867Z,english_713.wav,0,1,428,21,5,Chinese,m,5,0.5,-25.94753581,0.17905086
ZZX,11,0,2024-06-13T15:31:54.867Z,english_713.wav,0,1,428,21,5,Chinese,m,6,0.6,12.36521929,0.48201302
ZZX,11,0,2024-06-13T15:31:54.867Z,english_713.wav,0,1,428,21,5,Chinese,m,7,0.7,42.68303221,0.74996995
ZZX,11,0,2024-06-13T15:31:54.867Z,english_713.wav,0,1,428,21,5,Chinese,m,8,0.8,68.77442649,1.90885108
ZZX,11,0,2024-06-13T15:31:54.867Z,english_713.wav,0,1,428,21,5,Chinese,m,9,0.9,-39.13144034,0.17419233
ZZX,11,0,2024-06-13T15:31:54.867Z,english_713.wav,0,1,428,21,5,Chinese,m,10,1,48.51746803,1.84801942
ZZX,11,0,2024-06-13T15:31:54.867Z,english_713.wav,0,1,428,21,5,Chinese,m,11,1.09391667,-19.71329918,0.87144157
ZZX,12,0,2024-06-13T15:31:54.867Z,english_197.wav,0,0,1058,21,5,Chinese,m,0,0,-0.52164664,0.76048058
ZZX,12,0,2024-06-13T15:31:54.867Z,english_197.wav,0,0,1058,21,5,Chinese,m,1,0.1,-87.40194418,1.46601293
ZZX,12,0,2024-06-13T15:31:54.867Z,english_197.wav,0,0,1058,21,5,Chinese,m,2,0.2,-52.79027246,1.17311431
ZZX,12,0,2024-06-13T15:31:54.867Z,english_197.wav,0,0,1058,21,5,Chinese,m,3,0.3,-48.86802506,0.52190861
ZZX,12,0,2024-06-13T15:31:54.867Z,english_197.wav,0,0,1058,21,5,Chinese,m,4,0.4,81.82701326,0.75360033
ZZX,12,0,2024-06-13T15:31:54.867Z,english_197.wav,0,0,1058,21,5,Chinese,m,5,0.5,-49.36038243,0.57280926
ZZX,12,0,2024-06-13T15:31:54.867Z,english_197.wav,0,0,1058,21,5,Chinese,m,6,0.6,60.40718162,1.08660509
ZZX,12,0,2024-06-13T15:31:54.867Z,english_197.wav,0,0,1058,21,5,Chinese,m,7,0.7,23.14241749,1.00122778
ZZX,12,0,2024-06-13T15:31:54.867Z,english_197.wav,0,0,1058,21,5,Chinese,m,8,0.8,6.00272562,0.93136252
ZZX,12,0,2024-06-13T15:31:54.867Z,english_197.wav,0,0,1058,21,5,Chinese,m,9,0.9,-33.15203134,1.24898943
ZZX,12,0,2024-06-13T15:31:54.867Z,english_197.wav,0,0,1058,21,5,Chinese,m,10,1,87.44378179,1.94648397
ZZX,12,0,2024-06-13T15:31:54.867Z,english_197.wav,0,0,1058,21,5,Chinese,m,11,1.09391667,-36.11997575,0.88926449
ZZX,13,0,2024-06-13T15:31:54.867Z,english_148.wav,0,0,916,21,5,Chinese,m,0,0,85.27624152,0.1092145
ZZX,13,0,2024-06-13T15:31:54.867Z,english_148.wav,0,0,916,21,5,Chinese,m,1,0.1,58.23579672,0.64980633
ZZX,13,0,2024-06-13T15:31:54.867Z,english_148.wav,0,0,916,21,5,Chinese,m,2,0.2,-91.05033604,1.83346208
ZZX,13,0,2024-06-13T15:31:54.867Z,english_148.wav,0,0,916,21,5,Chinese,m,3,0.3,20.11396141,1.16314863
ZZX,13,0,2024-06-13T15:31:54.867Z,english_148.wav,0,0,916,21,5,Chinese,m,4,0.4,75.44798514,0.3185648
ZZX,13,0,2024-06-13T15:31:54.867Z,english_148.wav,0,0,916,21,5,Chinese,m,5,0.5,-38.94488744,0.6593156
ZZX,13,0,2024-06-13T15:31:54.867Z,english_148.wav,0,0,916,21,5,Chinese,m,6,0.6,-29.81274231,1.16710518
ZZX,13,0,2024-06-13T15:31:54.867Z,english_148.wav,0,0,916,21,5,Chinese,m,7,0.7,75.45743384,1.07936895
ZZX,13,0,2024-06-13T15:31:54.867Z,english_148.wav,0,0,916,21,5,Chinese,m,8,0.8,-13.70216327,0.75554181
ZZX,13,0,2024-06-13T15:31:54.867Z,english_148.wav,0,0,916,21,5,Chinese,m,9,0.9,-90.12623186,1.33604039
ZZX,13,0,2024-06-13T15:31:54.867Z,english_148.wav,0,0,916,21,5,Chinese,m,10,1,-27.22744176,1.61217721
ZZX,13,0,2024-06-13T15:31:54.867Z,english_148.wav,0,0,916,21,5,Chinese,m,11,1.09391667,7.28951287,1.20550087
ZZX,14,0,2024-06-13T15:31:54.867Z,english_736.wav,0,0,226,21,5,Chinese,m,0,0,-40.28778627,1.23426282
ZZX,14,0,2024-06-13T15:31:54.867Z,english_736.wav,0,0,226,21,5,Chinese,m,1,0.1,-59.09726207,0.97807774
ZZX,14,0,2024-06-13T15:31:54.867Z,english_736.wav,0,0,226,21,5,Chinese,m,2,0.2,98.49969238,0.54049946
ZZX,14,0,2024-06-13T15:31:54.867Z,english_736.wav,0,0,226,21,5,Chinese,m,3,0.3,46.0778128,1.1691641
ZZX,14,0,2024-06-13T15:31:54.867Z,english_736.wav,0,0,226,21,5,Chinese,m,4,0.4,-55.04304699,1.22843398
ZZX,14,0,2024-06-13T15:31:54.867Z,english_736.wav,0,0,226,21,5,Chinese,m,5,0.5,34.12740936,0.9861662
ZZX,14,0,2024-06-13T15:31:54.867Z,english_736.wav,0,0,226,21,5,Chinese,m,6,0.6,54.26275803,0.17445904
ZZX,14,0,2024-06-13T15:31:54.867Z,english_736.wav,0,0,226,21,5,Chinese,m,7,0.7,-55.98308326,1.1578723
ZZX,14,0,2024-06-13T15:31:54.867Z,english_736.wav,0,0,226,21,5,Chinese,m,8,0.8,59.79863481,1.37075184
ZZX,14,0,2024-06-13T15:31:54.867Z,english_736.wav,0,0,226,21,5,Chinese,m,9,0.9,88.14503005,1.47849055
ZZX,14,0,2024-06-13T15:31:54.867Z,english_736.wav,0,0,226,21,5,Chinese,m,10,1,91.37007784,0.08571689
ZZX,14,0,2024-06-13T15:31:54.867Z,english_736.wav,0,0,226,21,5,Chinese,m,11,1.09391667,76.63160817,1.4768314
ZZX,15,0,2024-06-13T15:31:54.867Z,english_276.wav,0,0,1442,21,5,Chinese,m,0,0,21.98586045,0.30932428
ZZX,15,0,2024-06-13T15:31:54.867Z,english_276.wav,0,0,1442,21,5,Chinese,m,1,0.1,-67.99860163,0.09597304
ZZX,15,0,2024-06-13T15:31:54.867Z,english_276.wav,0,0,1442,21,5,Chinese,m,2,0.2,25.17256123,1.83076822
ZZX,15,0,2024-06-13T15:31:54.867Z,english_276.wav,0,0,1442,21,5,Chinese,m,3,0.3,21.36527348,0.0831707
ZZX,15,0,2024-06-13T15:31:54.867Z,english_276.wav,0,0,1442,21,5,Chinese,m,4,0.4,35.76600766,1.62200671
ZZX,15,0,2024-06-13T15:31:54.867Z,english_276.wav,0,0,1442,21,5,Chinese,m,5,0.5,-7.15376156,1.09615837
ZZX,15,0,2024-06-13T15:31:54.867Z,english_276.wav,0,0,1442,21,5,Chinese,m,6,0.6,6.29513946,1.21666569
ZZX,15,0,2024-06-13T15:31:54.867Z,english_276.wav,0,0,1442,21,5,Chinese,m,7,0.7,-54.12906392,0.44734549
ZZX,15,0,2024-06-13T15:31:54.867Z,english_276.wav,0,0,1442,21,5,Chinese,m,8,0.8,17.42972017,0.42974841
ZZX,15,0,2024-06-13T15:31:54.867Z,english_276.wav,0,0,1442,21,5,Chinese,m,9,0.9,4.25119531,0.69082029
ZZX,15,0,2024-06-13T15:31:54.867Z,english_276.wav,0,0,1442,21,5,Chinese,m,10,1,-8.01806671,1.55074446
ZZX,15,0,2024-06-13T15:31:54.867Z,english_276.wav,0,0,1442,21,5,Chinese,m,11,1.09391667,17.7867456,1.15912049
ZZX,16,0,2024-06-13T15:31:54.867Z,english_733.wav,0,0,234,21,5,Chinese,m,0,0,60.12911829,1.17715688
ZZX,16,0,2024-06-13T15:31:54.867Z,english_733.wav,0,0,234,21,5,Chinese,m,1,0.1,-6.07350544,0.73101999
ZZX,16,0,2024-06-13T15:31:54.867Z,english_733.wav,0,0,234,21,5,Chinese,m,2,0.2,-97.34447637,0.23762906
ZZX,16,0,2024-06-13T15:31:54.867Z,english_733.wav,0,0,234,21,5,Chinese,m,3,0.3,13.91289177,0.47801532
ZZX,16,0,2024-06-13T15:31:54.867Z,english_733.wav,0,0,234,21,5,Chinese,m,4,0.4,24.58615212,1.00660929
ZZX,16,0,2024-06-13T15:31:54.867Z,english_733.wav,0,0,234,21,5,Chinese,m,5,0.5,-0.46947401,0.69954151
ZZX,16,0,2024-06-13T15:31:54.867Z,english_733.wav,0,0,234,21,5,Chinese,m,6,0.6,-95.42432467,0.66296436
ZZX,16,0,2024-06-13T15:31:54.867Z,english_733.wav,0,0,234,21,5,Chinese,m,7,0.7,-12.42368325,0.8353001
ZZX,16,0,2024-06-13T15:31:54.867Z,english_733.wav,0,0,234,21,5,Chinese,m,8,0.8,-68.21201108,0.93210743
ZZX,16,0,2024-06-13T15:31:54.867Z,english_733.wav,0,0,234,21,5,Chinese,m,9,0.9,80.23434779,0.7426454
ZZX,16,0,2024-06-13T15:31:54.867Z,english_733.wav,0,0,234,21,5,Chinese,m,10,1,37.72859174,1.31979312
ZZX,16,0,2024-06-13T15:31:54.867Z,english_733.wav,0,0,234,21,5,Chinese,m,11,1.09391667,99.34819771,0.72211033
ZZX,17,0,2024-06-13T15:31:54.867Z,english_385.wav,0,0,605,21,5,Chinese,m,0,0,0.33828369,0.38016584
ZZX,17,0,2024-06-13T15:31:54.867Z,english_385.wav,0,0,605,21,5,Chinese,m,1,0.1,2.41058867,1.8714009
ZZX,17,0,2024-06-13T15:31:54.867Z,english_385.wav,0,0,605,21,5,Chinese,m,2,0.2,-12.54892467,0.45382881
ZZX,17,0,2024-06-13T15:31:54.867Z,english_385.wav,0,0,605,21,5,Chinese,m,3,0.3,-41.7912056,1.31398474
ZZX,17,0,2024-06-13T15:31:54.867Z,english_385.wav,0,0,605,21,5,Chinese,m,4,0.4,-44.49264688,1.04402362
ZZX,17,0,2024-06-13T15:31:54.867Z,english_385.wav,0,0,605,21,5,Chinese,m,5,0.5,0.14407831,0.57870544
ZZX,17,0,2024-06-13T15:31:54.867Z,english_385.wav,0,0,605,21,5,Chinese,m,6,0.6,-25.57843431,1.74841786
ZZX,17,0,2024-06-13T15:31:54.867Z,english_385.wav,0,0,605,21,5,Chinese,m,7,0.7,-39.2816597,1.62984391
ZZX,17,0,2024-06-13T15:31:54.867Z,english_385.wav,0,0,605,21,5,Chinese,m,8,0.8,-88.59516391,0.16451748
ZZX,17,0,2024-06-13T15:31:54.867Z,english_385.wav,0,0,605,21,5,Chinese,m,9,0.9,-28.05531573,0.80459877
ZZX,17,0,2024-06-13T15:31:54.867Z,english_385.wav,0,0,605,21,5,Chinese,m,10,1,-37.07272381,0.03974207
ZZX,17,0,2024-06-13T15:31:54.867Z,english_385.wav,0,0,605,21,5,Chinese,m,11,1.09391667,-61.44238802,1.20121467
ZZX,18,0,2024-06-13T15:31:54.867Z,english_411.wav,0,1,12778,21,5,Chinese,m,0,0,-19.70973195,0.11468893
ZZX,18,0,2024-06-13T15:31:54.867Z,english_411.wav,0,1,12778,21,5,Chinese,m,1,0.1,35.06337641,1.30305137
ZZX,18,0,2024-06-13T15:31:54.867Z,english_411.wav,0,1,12778,21,5,Chinese,m,2,0.2,-47.07660398,1.23342094
ZZX,18,0,2024-06-13T15:31:54.867Z,english_411.wav,0,1,12778,21,5,Chinese,m,3,0.3,-98.68669902,0.59067951
ZZX,18,0,2024-06-13T15:31:54.867Z,english_411.wav,0,1,12778,21,5,Chinese,m,4,0.4,2.91607837,0.74798004
ZZX,18,0,2024-06-13T15:31:54.867Z,english_411.wav,0,1,12778,21,5,Chinese,m,5,0.5,-8.99732851,0.55407034
ZZX,18,0,2024-06-13T15:31:54.867Z,english_411.wav,0,1,12778,21,5,Chinese,m,6,0.6,57.60803457,1.68778529
ZZX,18,0,2024-06-13T15:31:54.867Z,english_411.wav,0,1,12778,21,5,Chinese,m,7,0.7,1.53142899,0.22674115
ZZX,18,0,2024-06-13T15:31:54.867Z,english_411.wav,0,1,12778,21,5,Chinese,m,8,0.8,-32.18919875,0.93004634
ZZX,18,0,2024-06-13T15:31:54.867Z,english_411.wav,0,1,12778,21,5,Chinese,m,9,0.9,-92.02235415,1.85827411
ZZX,18,0,2024-06-13T15:31:54.867Z,english_411.wav,0,1,12778,21,5,Chinese,m,10,1,33.72578798,0.07029884
ZZX,18,0,2024-06-13T15:31:54.867Z,english_411.wav,0,1,12778,21,5,Chinese,m,11,1.09391667,81.16053662,1.14058722
ZZX,19,0,2024-06-13T15:31:54.867Z,english_471.wav,0,0,2761,21,5,Chinese,m,0,0,-44.33438949,1.24178701
ZZX,19,0,2024-06-13T15:31:54.867Z,english_471.wav,0,0,2761,21,5,Chinese,m,1,0.1,16.47774329,1.49559335
ZZX,19,0,2024-06-13T15:31:54.867Z,english_471.wav,0,0,2761,21,5,Chinese,m,2,0.2,-22.18014429,1.46207388
ZZX,19,0,2024-06-13T15:31:54.867Z,english_471.wav,0,0,2761,21,5,Chinese,m,3,0.3,96.62980594,0.79768684
ZZX,19,0,2024-06-13T15:31:54.867Z,english_471.wav,0,0,2761,21,5,Chinese,m,4,0.4,0.22905681,0.93952191
ZZX,19,0,2024-06-13T15:31:54.867Z,english_471.wav,0,0,2761,21,5,Chinese,m,5,0.5,25.29876176,1.31580264
ZZX,19,0,2024-06-13T15:31:54.867Z,english_471.wav,0,0,2761,21,5,Chinese,m,6,0.6,-1.90422532,0.66385174
ZZX,19,0,2024-06-13T15:31:54.867Z,english_471.wav,0,0,2761,21,5,Chinese,m,7,0.7,20.77355212,0.36428101
ZZX,19,0,2024-06-13T15:31:54.867Z,english_471.wav,0,0,2761,21,5,Chinese,m,8,0.8,26.61706742,1.49472861
ZZX,19,0,2024-06-13T15:31:54.867Z,english_471.wav,0,0,2761,21,5,Chinese,m,9,0.9,-76.46197336,1.78460372
ZZX,19,0,2024-06-13T15:31:54.867Z,english_471.wav,0,0,2761,21,5,Chinese,m,10,1,74.78681403,1.14119983
ZZX,19,0,2024-06-13T15:31:54.867Z,english_471.wav,0,0,2761,21,5,Chinese,m,11,1.09391667,70.35269737,0.45644683
ZZX,20,0,2024-06-13T15:31:54.867Z,english_679.wav,0,0,328,21,5,Chinese,m,0,0,76.35427363,0.61802324
ZZX,20,0,2024-06-13T15:31:54.867Z,english_679.wav,0,0,328,21,5,Chinese,m,1,0.1,-50.0846889,0.37453971
ZZX,20,0,2024-06-13T15:31:54.867Z,english_679.wav,0,0,328,21,5,Chinese,m,2,0.2,79.70250944,0.85876035
ZZX,20,0,2024-06-13T15:31:54.867Z,english_679.wav,0,0,328,21,5,Chinese,m,3,0.3,81.01080403,1.8566793
ZZX,20,0,2024-06-13T15:31:54.867Z,english_679.wav,0,0,328,21,5,Chinese,m,4,0.4,83.79560208,1.28706844
ZZX,20,0,2024-06-13T15:31:54.867Z,english_679.wav,0,0,328,21,5,Chinese,m,5,0.5,50.36804925,1.04354471
ZZX,20,0,2024-06-13T15:31:54.867Z,english_679.wav,0,0,328,21,5,Chinese,m,6,0.6,40.56025904,1.21986253
ZZX,20,0,2024-06-13T15:31:54.867Z,english_679.wav,0,0,328,21,5,Chinese,m,7,0.7,61.04999163,0.6187735
ZZX,20,0,2024-06-13T15:31:54.867Z,english_679.wav,0,0,328,21,5,Chinese,m,8,0.8,30.26013895,1.74062644
ZZX,20,0,2024-06-13T15:31:54.867Z,english_679.wav,0,0,328,21,5,Chinese,m,9,0.9,-2.00132525,0.86694999
ZZX,20,0,2024-06-13T15:31:54.867Z,english_679.wav,0,0,328,21,5,Chinese,m,10,1,61.28738914,1.26165824
ZZX,20,0,2024-06-13T15:31:54.867Z,english_679.wav,0,0,328,21,5,Chinese,m,11,1.09391667,-32.08611222,0.66731925
ZZX,21,0,2024-06-13T15:31:54.867Z,english_367.wav,0,0,2531,21,5,Chinese,m,0,0,40.69288354,1.09000391
ZZX,21,0,2024-06-13T15:31:54.867Z,english_367.wav,0,0,2531,21,5,Chinese,m,1,0.1,-87.28554983,0.74880644
ZZX,21,0,2024-06-13T15:31:54.867Z,english_367.wav,0,0,2531,21,5,Chinese,m,2,0.2,-64.50130746,0.58255578
ZZX,21,0,2024-06-13T15:31:54.867Z,english_367.wav,0,0,2531,21,5,Chinese,m,3,0.3,65.0554957,0.66468618
ZZX,21,0,2024-06-13T15:31:54.867Z,english_367.wav,0,0,2531,21,5,Chinese,m,4,0.4,-34.90387066,1.54627645
ZZX,21,0,2024-06-13T15:31:54.867Z,english_367.wav,0,0,2531,21,5,Chinese,m,5,0.5,29.56597753,0.56660027
ZZX,21,0,2024-06-13T15:31:54.867Z,english_367.wav,0,0,2531,21,5,Chinese,m,6,0.6,36.50215848,0.69792946
ZZX,21,0,2024-06-13T15:31:54.867Z,english_367.wav,0,0,2531,21,5,Chinese,m,7,0.7,-55.69798386,1.00541299
ZZX,21,0,2024-06-13T15:31:54.867Z,english_367.wav,0,0,2531,21,5,Chinese,m,8,0.8,12.84757482,0.65534854
ZZX,21,0,2024-06-13T15:31:54.867Z,english_367.wav,0,0,2531,21,5,Chinese,m,9,0.9,-23.54866279,1.89531092
ZZX,21,0,2024-06-13T15:31:54.867Z,english_367.wav,0,0,2531,21,5,Chinese,m,10,1,-55.73647309,0.87598705
ZZX,21,0,2024-06-13T15:31:54.867Z,english_367.wav,0,0,2531,21,5,Chinese,m,11,1.09391667,79.84600893,1.75535151
ZZX,22,0,2024-06-13T15:31:54.867Z,english_25.wav,0,0,1040,21,5,Chinese,m,0,0,-3.04072315,0.82619881
ZZX,22,0,2024-06-13T15:31:54.867Z,english_25.wav,0,0,1040,21,5,Chinese,m,1,0.1,-7.71178933,0.19533878
ZZX,22,0,2024-06-13T15:31:54.867Z,english_25.wav,0,0,1040,21,5,Chinese,m,2,0.2,-42.18636208,1.08277914
ZZX,22,0,2024-06-13T15:31:54.867Z,english_25.wav,0,0,1040,21,5,Chinese,m,3,0.3,-34.45077435,1.14412535
ZZX,22,0,2024-06-13T15:31:54.867Z,english_25.wav,0,0,1040,21,5,Chinese,m,4,0.4,-84.66227969,1.20529311
ZZX,22,0,2024-06-13T15:31:54.867Z,english_25.wav,0,0,1040,21,5,Chinese,m,5,0.5,-92.64439035,1.74650044
ZZX,22,0,2024-06-13T15:31:54.867Z,english_25.wav,0,0,1040,21,5,Chinese,m,6,0.6,-61.14666871,0.43899038
ZZX,22,0,2024-06-13T15:31:54.867Z,english_25.wav,0,0,1040,21,5,Chinese,m,7,0.7,-3.59823801,0.82830315
ZZX,22,0,2024-06-13T15:31:54.867Z,english_25.wav,0,0,1040,21,5,Chinese,m,8,0.8,-55.86599887,0.29447237
ZZX,22,0,2024-06-13T15:31:54.867Z,english_25.wav,0,0,1040,21,5,Chinese,m,9,0.9,70.71897097,0.99577412
ZZX,22,0,2024-06-13T15:31:54.867Z,english_25.wav,0,0,1040,21,5,Chinese,m,10,1,-41.59717756,1.79017757
ZZX,22,0,2024-06-13T15:31:54.867Z,english_25.wav,0,0,1040,21,5,Chinese,m,11,1.09391667,45.33564492,1.70871786
ZZX,23,0,2024-06-13T15:31:54.867Z,english_39.wav,0,0,621,21,5,Chinese,m,0,0,34.55093166,1.34796705
ZZX,23,0,2024-06-13T15:31:54.867Z,english_39.wav,0,0,621,21,5,Chinese,m,1,0.1,-1.41260387,0.08491471
ZZX,23,0,2024-06-13T15:31:54.867Z,english_39.wav,0,0,621,21,5,Chinese,m,2,0.2,91.9059208,1.67265438
ZZX,23,0,2024-06-13T15:31:54.867Z,english_39.wav,0,0,621,21,5,Chinese,m,3,0.3,67.91256725,0.89650698
ZZX,23,0,2024-06-13T15:31:54.867Z,english_39.wav,0,0,621,21,5,Chinese,m,4,0.4,-65.38565065,0.64014049
ZZX,23,0,2024-06-13T15:31:54.867Z,english_39.wav,0,0,621,21,5,Chinese,m,5,0.5,-78.2257863,1.50034896
ZZX,23,0,2024-06-13T15:31:54.867Z,english_39.wav,0,0,621,21,5,Chinese,m,6,0.6,-21.37966567,0.90896714
ZZX,23,0,2024-06-13T15:31:54.867Z,english_39.wav,0,0,621,21,5,Chinese,m,7,0.7,29.85741907,1.5349886
ZZX,23,0,2024-06-13T15:31:54.867Z,english_39.wav,0,0,621,21,5,Chinese,m,8,0.8,-64.93181205,0.91983464
ZZX,23,0,2024-06-13T15:31:54.867Z,english_39.wav,0,0,621,21,5,Chinese,m,9,0.9,27.95057541,1.17583732
ZZX,23,0,2024-06-13T15:31:54.867Z,english_39.wav,0,0,621,21,5,Chinese,m,10,1,5.43341778,1.89111311
ZZX,23,0,2024-06-13T15:31:54.867Z,english_39.wav,0,0,621,21,5,Chinese,m,11,1.09391667,-89.64672073,1.19651243
ZZX,24,0,2024-06-13T15:31:54.867Z,english_467.wav,0,0,800,21,5,Chinese,m,0,0,84.73520447,0.80775308
ZZX,24,0,2024-06-13T15:31:54.867Z,english_467.wav,0,0,800,21,5,Chinese,m,1,0.1,88.96200227,0.60891261
ZZX,24,0,2024-06-13T15:31:54.867Z,english_467.wav,0,0,800,21,5,Chinese,m,2,0.2,72.63675829,1.71596765
ZZX,24,0,2024-06-13T15:31:54.867Z,english_467.wav,0,0,800,21,5,Chinese,m,3,0.3,-11.47164633,0.15084523
ZZX,24,0,2024-06-13T15:31:54.867Z,english_467.wav,0,0,800,21,5,Chinese,m,4,0.4,-15.99279105,1.25287304
ZZX,24,0,2024-06-13T15:31:54.867Z,english_467.wav,0,0,800,21,5,Chinese,m,5,0.5,-43.82437563,1.40086837
ZZX,24,0,2024-06-13T15:31:54.867Z,english_467.wav,0,0,800,21,5,Chinese,m,6,0.6,43.03099958,0.418933
ZZX,24,0,2024-06-13T15:31:54.867Z,english_467.wav,0,0,800,21,5,Chinese,m,7,0.7,-45.22330674,1.80339492
ZZX,24,0,2024-06-13T15:31:54.867Z,english_467.wav,0,0,800,21,5,Chinese,m,8,0.8,76.52363546,0.77008525
ZZX,24,0,2024-06-13T15:31:54.867Z,english_467.wav,0,0,800,21,5,Chinese,m,9,0.9,-64.57143565,1.13088524
ZZX,24,0,2024-06-13T15:31:54.867Z,english_467.wav,0,0,800,21,5,Chinese,m,10,1,-23.20829111,0.17124527
ZZX,24,0,2024-06-13T15:31:54.867Z,english_467.wav,0,0,800,21,5,Chinese,m,11,1.09391667,90.56201043,1.41524886
ZZX,25,0,2024-06-13T15:31:54.867Z,english_789.wav,0,1,995,21,5,Chinese,m,0,0,50.62849976,1.65376855
ZZX,25,0,2024-06-13T15:31:54.867Z,english_789.wav,0,1,995,21,5,Chinese,m,1,0.1,46.39641285,0.25516595
ZZX,25,0,2024-06-13T15:31:54.867Z,english_789.wav,0,1,995,21,5,Chinese,m,2,0.2,-17.70636983,1.77379995
ZZX,25,0,2024-06-13T15:31:54.867Z,english_789.wav,0,1,995,21,5,Chinese,m,3,0.3,-70.54012265,1.01588482
ZZX,25,0,2024-06-13T15:31:54.867Z,english_789.wav,0,1,995,21,5,Chinese,m,4,0.4,-41.61831808,0.40942594
ZZX,25,0,2024-06-13T15:31:54.867Z,english_789.wav,0,1,995,21,5,Chinese,m,5,0.5,6.76921547,0.77453827
ZZX,25,0,2024-06-13T15:31:54.867Z,english_789.wav,0,1,995,21,5,Chinese,m,6,0.6,-23.06076299,0.48985142
ZZX,25,0,2024-06-13T15:31:54.867Z,english_789.wav,0,1,995,21,5,Chinese,m,7,0.7,12.0616888,0.23736517
ZZX,25,0,2024-06-13T15:31:54.867Z,english_789.wav,0,1,995,21,5,Chinese,m,8,0.8,-0.46236059,1.96173919
ZZX,25,0,2024-06-13T15:31:54.867Z,english_789.wav,0,1,995,21,5,Chinese,m,9,0.9,1.32265195,1.17779465
ZZX,25,0,2024-06-13T15:31:54.867Z,english_789.wav,0,1,995,21,5,Chinese,m,10,1,-42.41851316,1.11577027
ZZX,25,0,2024-06-13T15:31:54.867Z,english_789.wav,0,1,995,21,5,Chinese,m,11,1.09391667,16.23009632,0.26104585
ZZX,26,0,2024-06-13T15:31:54.867Z,english_138.wav,0,0,522,21,5,Chinese,m,0,0,84.66208912,1.51830246
ZZX,26,0,2024-06-13T15:31:54.867Z,english_138.wav,0,0,522,21,5,Chinese,m,1,0.1,-96.9061077,0.02156416
ZZX,26,0,2024-06-13T15:31:54.867Z,english_138.wav,0,0,522,21,5,Chinese,m,2,0.2,56.17770157,1.9703834
ZZX,26,0,2024-06-13T15:31:54.867Z,english_138.wav,0,0,522,21,5,Chinese,m,3,0.3,-78.07946429,1.25545273
ZZX,26,0,2024-06-13T15:31:54.867Z,english_138.wav,0,0,522,21,5,Chinese,m,4,0.4,91.20181194,0.91568969
ZZX,26,0,2024-06-13T15:31:54.867Z,english_138.wav,0,0,522,21,5,Chinese,m,5,0.5,-30.87660198,1.83228794
ZZX,26,0,2024-06-13T15:31:54.867Z,english_138.wav,0,0,522,21,5,Chinese,m,6,0.6,27.3117693,1.04000857
ZZX,26,0,2024-06-13T15:31:54.867Z,english_138.wav,0,0,522,21,5,Chinese,m,7,0.7,-99.12692265,1.75318047
ZZX,26,0,2024-06-13T15:31:54.867Z,english_138.wav,0,0,522,21,5,Chinese,m,8,0.8,-51.46520236,0.69204702
ZZX,26,0,2024-06-13T15:31:54.867Z,english_138.wav,0,0,522,21,5,Chinese,m,9,0.9,-3.34321361,0.65368484
ZZX,26,0,2024-06-13T15:31:54.867Z,english_138.wav,0,0,522,21,5,Chinese,m,10,1,-7.25861447,0.00684889
ZZX,26,0,2024-06-13T15:31:54.867Z,english_138.wav,0,0,522,21,5,Chinese,m,11,1.09391667,-2.49487658,0.43470638
ZZX,27,0,2024-06-13T15:31:54.867Z,english_890.wav,0,0,1398,21,5,Chinese,m,0,0,31.44625075,1.15032127
ZZX,27,0,2024-06-13T15:31:54.867Z,english_890.wav,0,0,1398,21,5,Chinese,m,1,0.1,-90.32825643,0.20043056
ZZX,27,0,2024-06-13T15:31:54.867Z,english_890.wav,0,0,1398,21,5,Chinese,m,2,0.2,-64.7017166,0.4631213
ZZX,27,0,2024-06-13T15:31:54.867Z,english_890.wav,0,0,1398,21,5,Chinese,m,3,0.3,15.62340259,1.29891642
ZZX,27,0,2024-06-13T15:31:54.867Z,english_890.wav,0,0,1398,21,5,Chinese,m,4,0.4,-79.4752192,0.6480645
ZZX,27,0,2024-06-13T15:31:54.867Z,english_890.wav,0,0,1398,21,5,Chinese,m,5,0.5,74.79009283,0.81505597
ZZX,27,0,2024-06-13T15:31:54.867Z,english_890.wav,0,0,1398,21,5,Chinese,m,6,0.6,-57.91380652,1.23579114
ZZX,27,0,2024-06-13T15:31:54.867Z,english_890.wav,0,0,1398,21,5,Chinese,m,7,0.7,92.43048613,0.16251602
ZZX,27,0,2024-06-13T15:31:54.867Z,english_890.wav,0,0,1398,21,5,Chinese,m,8,0.8,-1.35432996,0.74439657
ZZX,27,0,2024-06-13T15:31:54.867Z,english_890.wav,0,0,1398,21,5,Chinese,m,9,0.9,-1.4007117,1.69626999
ZZX,27,0,2024-06-13T15:31:54.867Z,english_890.wav,0,0,1398,21,5,Chinese,m,10,1,-22.8275935,0.07593713
ZZX,27,0,2024-06-13T15:31:54.867Z,english_890.wav,0,0,1398,21,5,Chinese,m,11,1.09391667,-34.82288483,0.22950927
ZZX,28,0,2024-06-13T15:31:54.867Z,english_832.wav,0,0,2892,21,5,Chinese,m,0,0,-88.58549248,0.22284511
ZZX,28,0,2024-06-13T15:31:54.867Z,english_832.wav,0,0,2892,21,5,Chinese,m,1,0.1,8.34347478,1.43554353
ZZX,28,0,2024-06-13T15:31:54.867Z,english_832.wav,0,0,2892,21,5,Chinese,m,2,0.2,-33.69240403,1.25168829
ZZX,28,0,2024-06-13T15:31:54.867Z,english_832.wav,0,0,2892,21,5,Chinese,m,3,0.3,-38.19874018,1.76549117
ZZX,28,0,2024-06-13T15:31:54.867Z,english_832.wav,0,0,2892,21,5,Chinese,m,4,0.4,69.91001741,0.48241117
ZZX,28,0,2024-06-13T15:31:54.867Z,english_832.wav,0,0,2892,21,5,Chinese,m,5,0.5,76.9560892,1.98484056
ZZX,28,0,2024-06-13T15:31:54.867Z,english_832.wav,0,0,2892,21,5,Chinese,m,6,0.6,32.91071569,0.38621033
ZZX,28,0,2024-06-13T15:31:54.867Z,english_832.wav,0,0,2892,21,5,Chinese,m,7,0.7,-13.39927827,0.77915885
ZZX,28,0,2024-06-13T15:31:54.867Z,english_832.wav,0,0,2892,21,5,Chinese,m,8,0.8,44.52631215,0.49939301
ZZX,28,0,2024-06-13T15:31:54.867Z,english_832.wav,0,0,2892,21,5,Chinese,m,9,0.9,45.29069076,1.70508711
ZZX,28,0,2024-06-13T15:31:54.867Z,english_832.wav,0,0,2892,21,5,Chinese,m,10,1,-68.4923338,1.07362721
ZZX,28,0,2024-06-13T15:31:54.867Z,english_832.wav,0,0,2892,21,5,Chinese,m,11,1.09391667,-25.64660407,1.64737721
ZZX,29,0,2024-06-13T15:31:54.867Z,english_382.wav,0,1,1137,21,5,Chinese,m,0,0,51.10840748,1.50482446
ZZX,29,0,2024-06-13T15:31:54.867Z,english_382.wav,0,1,1137,21,5,Chinese,m,1,0.1,-91.92289356,1.64118974
ZZX,29,0,2024-06-13T15:31:54.867Z,english_382.wav,0,1,1137,21,5,Chinese,m,2,0.2,-79.84820622,1.27294553
ZZX,29,0,2024-06-13T15:31:54.867Z,english_382.wav,0,1,1137,21,5,Chinese,m,3,0.3,77.1343998,1.68382972
ZZX,29,0,2024-06-13T15:31:54.867Z,english_382.wav,0,1,1137,21,5,Chinese,m,4,0.4,-28.37542717,0.77725399
ZZX,29,0,2024-06-13T15:31:54.867Z,english_382.wav,0,1,1137,21,5,Chinese,m,5,0.5,-45.23452982,0.19931522
ZZX,29,0,2024-06-13T15:31:54.867Z,english_382.wav,0,1,1137,21,5,Chinese,m,6,0.6,-99.13090952,1.54066958
ZZX,29,0,2024-06-13T15:31:54.867Z,english_382.wav,0,1,1137,21,5,Chinese,m,7,0.7,78.74968094,1.92796372
ZZX,29,0,2024-06-13T15:31:54.867Z,english_382.wav,0,1,1137,21,5,Chinese,m,8,0.8,-29.18128543,1.53197117
ZZX,29,0,2024-06-13T15:31:54.867Z,english_382.wav,0,1,1137,21,5,Chinese,m,9,0.9,2.6821327,0.33786537
ZZX,29,0,2024-06-13T15:31:54.867Z,english_382.wav,0,1,1137,21,5,Chinese,m,10,1,72.60334223,0.41937099
ZZX,29,0,2024-06-13T15:31:54.867Z,english_382.wav,0,1,1137,21,5,Chinese,m,11,1.09391667,-39.78930979,0.9246019
ZZX,30,0,2024-06-13T15:31:54.867Z,english_67.wav,0,0,1629,21,5,Chinese,m,0,0,-84.65948026,1.62658343
ZZX,30,0,2024-06-13T15:31:54.867Z,english_67.wav,0,0,1629,21,5,Chinese,m,1,0.1,84.7606233,0.18718182
ZZX,30,0,2024-06-13T15:31:54.867Z,english_67.wav,0,0,1629,21,5,Chinese,m,2,0.2,84.84791272,1.32224913
ZZX,30,0,2024-06-13T15:31:54.867Z,english_67.wav,0,0,1629,21,5,Chinese,m,3,0.3,-54.63561635,1.26573793
ZZX,30,0,2024-06-13T15:31:54.867Z,english_67.wav,0,0,1629,21,5,Chinese,m,4,0.4,-93.28689033,0.84125882
ZZX,30,0,2024-06-13T15:31:54.867Z,english_67.wav,0,0,1629,21,5,Chinese,m,5,0.5,15.62357322,0.24401609
ZZX,30,0,2024-06-13T15:31:54.867Z,english_67.wav,0,0,1629,21,5,Chinese,m,6,0.6,70.84522179,0.63082719
ZZX,30,0,2024-06-13T15:31:54.867Z,english_67.wav,0,0,1629,21,5,Chinese,m,7,0.7,18.01432969,0.80351313
ZZX,30,0,2024-06-13T15:31:54.867Z,english_67.wav,0,0,1629,21,5,Chinese,m,8,0.8,-96.46193504,0.91980261
ZZX,30,0,2024-06-13T15:31:54.867Z,english_67.wav,0,0,1629,21,5,Chinese,m,9,0.9,-76.01913404,0.79845133
ZZX,30,0,2024-06-13T15:31:54.867Z,english_67.wav,0,0,1629,21,5,Chinese,m,10,1,21.66220953,1.38280114
ZZX,30,0,2024-06-13T15:31:54.867Z,english_67.wav,0,0,1629,21,5,Chinese,m,11,1.09391667,58.72019725,0.4179158
ZZX,31,0,2024-06-13T15:31:54.867Z,english_315.wav,0,0,627,21,5,Chinese,m,0,0,20.11963367,1.15782854
ZZX,31,0,2024-06-13T15:31:54.867Z,english_315.wav,0,0,627,21,5,Chinese,m,1,0.1,-30.87144334,1.37599817
ZZX,31,0,2024-06-13T15:31:54.867Z,english_315.wav,0,0,627,21,5,Chinese,m,2,0.2,39.10248869,1.4514196
ZZX,31,0,2024-06-13T15:31:54.867Z,english_315.wav,0,0,627,21,5,Chinese,m,3,0.3,-19.08604714,1.32135016
ZZX,31,0,2024-06-13T15:31:54.867Z,english_315.wav,0,0,627,21,5,Chinese,m,4,0.4,90.41461318,1.69132556
ZZX,31,0,2024-06-13T15:31:54.867Z,english_315.wav,0,0,627,21,5,Chinese,m,5,0.5,-82.87118979,0.65296677
ZZX,31,0,2024-06-13T15:31:54.867Z,english_315.wav,0,0,627,21,5,Chinese,m,6,0.6,-12.30252898,1.40058812
ZZX,31,0,2024-06-13T15:31:54.867Z,english_315.wav,0,0,627,21,5,Chinese,m,7,0.7,9.37098005,0.87815256
ZZX,31,0,2024-06-13T15:31:54.867Z,english_315.wav,0,0,627,21,5,Chinese,m,8,0.8,-86.3809894,0.15444706
ZZX,31,0,2024-06-13T15:31:54.867Z,english_315.wav,0,0,627,21,5,Chinese,m,9,0.9,2.03064205,1.46097728
ZZX,31,0,2024-06-13T15:31:54.867Z,english_315.wav,0,0,627,21,5,Chinese,m,10,1,99.30710259,0.37640447
ZZX,31,0,2024-06-13T15:31:54.867Z,english_315.wav,0,0,627,21,5,Chinese,m,11,1.09391667,58.65294367,1.18518174
ZZX,32,0,2024-06-13T15:31:54.867Z,english_128.wav,0,0,2784,21,5,Chinese,m,0,0,-22.61942611,1.66721471
ZZX,32,0,2024-06-13T15:31:54.867Z,english_128.wav,0,0,2784,21,5,Chinese,m,1,0.1,68.41227715,1.06525369
ZZX,32,0,2024-06-13T15:31:54.867Z,english_128.wav,0,0,2784,21,5,Chinese,m,2,0.2,-54.10958419,1.55278382
ZZX,32,0,2024-06-13T15:31:54.867Z,english_128.wav,0,0,2784,21,5,Chinese,m,3,0.3,-34.3976761,1.27447121
ZZX,32,0,2024-06-13T15:31:54.867Z,english_128.wav,0,0,2784,21,5,Chinese,m,4,0.4,-80.35189368,1.24533025
ZZX,32,0,2024-06-13T15:31:54.867Z,english_128.wav,0,0,2784,21,5,Chinese,m,5,0.5,-23.21922247,0.40128709
ZZX,32,0,2024-06-13T15:31:54.867Z,english_128.wav,0,0,2784,21,5,Chinese,m,6,0.6,75.93285278,1.08908342
ZZX,32,0,2024-06-13T15:31:54.867Z,english_128.wav,0,0,2784,21,5,Chinese,m,7,0.7,-25.01230628,1.52248699
ZZX,32,0,2024-06-13T15:31:54.867Z,english_128.wav,0,0,2784,21,5,Chinese,m,8,0.8,23.78207095,1.64911831
ZZX,32,0,2024-06-13T15:31:54.867Z,english_128.wav,0,0,2784,21,5,Chinese,m,9,0.9,-74.87827882,0.03473392
ZZX,32,0,2024-06-13T15:31:54.867Z,english_128.wav,0,0,2784,21,5,Chinese,m,10,1,74.39346852,1.99892406
ZZX,32,0,2024-06-13T15:31:54.867Z,english_128.wav,0,0,2784,21,5,Chinese,m,11,1.09391667,30.71976897,1.56565298
ZZX,33,0,2024-06-13T15:31:54.867Z,english_853.wav,0,0,988,21,5,Chinese,m,0,0,73.80957671,0.26230627
ZZX,33,0,2024-06-13T15:31:54.867Z,english_853.wav,0,0,988,21,5,Chinese,m,1,0.1,37.61319896,1.27859335
ZZX,33,0,2024-06-13T15:31:54.867Z,english_853.wav,0,0,988,21,5,Chinese,m,2,0.2,66.36541624,1.90614201
ZZX,33,0,2024-06-13T15:31:54.867Z,english_853.wav,0,0,988,21,5,Chinese,m,3,0.3,52.83840981,1.77793473
ZZX,33,0,2024-06-13T15:31:54.867Z,english_853.wav,0,0,988,21,5,Chinese,m,4,0.4,-44.13201993,1.82128224
ZZX,33,0,2024-06-13T15:31:54.867Z,english_853.wav,0,0,988,21,5,Chinese,m,5,0.5,78.92983873,0.37682562
ZZX,33,0,2024-06-13T15:31:54.867Z,english_853.wav,0,0,988,21,5,Chinese,m,6,0.6,81.37511439,0.77805764
ZZX,33,0,2024-06-13T15:31:54.867Z,english_853.wav,0,0,988,21,5,Chinese,m,7,0.7,-17.4677503,1.13496325
ZZX,33,0,2024-06-13T15:31:54.867Z,english_853.wav,0,0,988,21,5,Chinese,m,8,0.8,-1.76399053,0.96839897
ZZX,33,0,2024-06-13T15:31:54.867Z,english_853.wav,0,0,988,21,5,Chinese,m,9,0.9,46.72276769,1.53181919
ZZX,33,0,2024-06-13T15:31:54.867Z,english_853.wav,0,0,988,21,5,Chinese,m,10,1,-99.76046779,0.67948754
ZZX,33,0,2024-06-13T15:31:54.867Z,english_853.wav,0,0,988,21,5,Chinese,m,11,1.09391667,-16.24419339,1.26605171
ZZX,34,0,2024-06-13T15:31:54.867Z,english_479.wav,0,0,1176,21,5,Chinese,m,0,0,-34.7893931,1.93393565
ZZX,34,0,2024-06-13T15:31:54.867Z,english_479.wav,0,0,1176,21,5,Chinese,m,1,0.1,-71.34069905,0.26573691
ZZX,34,0,2024-06-13T15:31:54.867Z,english_479.wav,0,0,1176,21,5,Chinese,m,2,0.2,58.87573247,0.73981952
ZZX,34,0,2024-06-13T15:31:54.867Z,english_479.wav,0,0,1176,21,5,Chinese,m,3,0.3,-54.09913821,1.46667746
ZZX,34,0,2024-06-13T15:31:54.867Z,english_479.wav,0,0,1176,21,5,Chinese,m,4,0.4,43.12020224,0.55048015
ZZX,34,0,2024-06-13T15:31:54.867Z,english_479.wav,0,0,1176,21,5,Chinese,m,5,0.5,-44.41654249,0.62176048
ZZX,34,0,2024-06-13T15:31:54.867Z,english_479.wav,0,0,1176,21,5,Chinese,m,6,0.6,57.88290142,0.05220831
ZZX,34,0,2024-06-13T15:31:54.867Z,english_479.wav,0,0,1176,21,5,Chinese,m,7,0.7,-1.44997962,0.21971087
ZZX,34,0,2024-06-13T15:31:54.867Z,english_479.wav,0,0,1176,21,5,Chinese,m,8,0.8,89.72797502,0.30059048
ZZX,34,0,2024-06-13T15:31:54.867Z,english_479.wav,0,0,1176,21,5,Chinese,m,9,0.9,97.22467665,0.39403565
ZZX,34,0,2024-06-13T15:31:54.867Z,english_479.wav,0,0,1176,21,5,Chinese,m,10,1,52.11815336,1.20859565
ZZX,34,0,2024-06-13T15:31:54.867Z,english_479.wav,0,0,1176,21,5,Chinese,m,11,1.09391667,71.23188895,0.36818185
ZZX,35,0,2024-06-13T15:31:54.867Z,english_252.wav,0,0,12728,21,5,Chinese,m,0,0,67.33906462,1.2911066
ZZX,35,0,2024-06-13T15:31:54.867Z,english_252.wav,0,0,12728,21,5,Chinese,m,1,0.1,74.66193016,0.58650347
ZZX,35,0,2024-06-13T15:31:54.867Z,english_252.wav,0,0,12728,21,5,Chinese,m,2,0.2,-41.19192014,1.71513386
ZZX,35,0,2024-06-13T15:31:54.867Z,english_252.wav,0,0,12728,21,5,Chinese,m,3,0.3,-28.8859862,1.65328823
ZZX,35,0,2024-06-13T15:31:54.867Z,english_252.wav,0,0,12728,21,5,Chinese,m,4,0.4,-8.27761938,1.612987
ZZX,35,0,2024-06-13T15:31:54.867Z,english_252.wav,0,0,12728,21,5,Chinese,m,5,0.5,-36.63463382,1.39627769
ZZX,35,0,2024-06-13T15:31:54.867Z,english_252.wav,0,0,12728,21,5,Chinese,m,6,0.6,13.77329217,1.48703396
ZZX,35,0,2024-06-13T15:31:54.867Z,english_252.wav,0,0,12728,21,5,Chinese,m,7,0.7,63.53825883,1.42982838
ZZX,35,0,2024-06-13T15:31:54.867Z,english_252.wav,0,0,12728,21,5,Chinese,m,8,0.8,81.11175046,1.7469417
ZZX,35,0,2024-06-13T15:31:54.867Z,english_252.wav,0,0,12728,21,5,Chinese,m,9,0.9,34.9157937,0.10855202
ZZX,35,0,2024-06-13T15:31:54.867Z,english_252.wav,0,0,12728,21,5,Chinese,m,10,1,-21.50687119,1.96484687
ZZX,35,0,2024-06-13T15:31:54.867Z,english_252.wav,0,0,12728,21,5,Chinese,m,11,1.09391667,-11.3870342,0.37279503
ZZX,36,0,2024-06-13T15:31:54.867Z,english_210.wav,0,0,11859,21,5,Chinese,m,0,0,-22.3598959,0.75499894
ZZX,36,0,2024-06-13T15:31:54.867Z,english_210.wav,0,0,11859,21,5,Chinese,m,1,0.1,82.81767229,1.61294131
ZZX,36,0,2024-06-13T15:31:54.867Z,english_210.wav,0,0,11859,21,5,Chinese,m,2,0.2,64.75592146,0.96857287
ZZX,36,0,2024-06-13T15:31:54.867Z,english_210.wav,0,0,11859,21,5,Chinese,m,3,0.3,38.64105246,1.31710082
ZZX,36,0,2024-06-13T15:31:54.867Z,english_210.wav,0,0,11859,21,5,Chinese,m,4,0.4,-56.81269148,0.48607374
ZZX,36,0,2024-06-13T15:31:54.867Z,english_210.wav,0,0,11859,21,5,Chinese,m,5,0.5,55.50536216,0.56849668
ZZX,36,0,2024-06-13T15:31:54.867Z,english_210.wav,0,0,11859,21,5,Chinese,m,6,0.6,-90.16901587,0.68954785
ZZX,36,0,2024-06-13T15:31:54.867Z,english_210.wav,0,0,11859,21,5,Chinese,m,7,0.7,-5.65019453,1.61518036
ZZX,36,0,2024-06-13T15:31:54.867Z,english_210.wav,0,0,11859,21,5,Chinese,m,8,0.8,-52.20950635,0.58148747
ZZX,36,0,2024-06-13T15:31:54.867Z,english_210.wav,0,0,11859,21,5,Chinese,m,9,0.9,2.11037441,1.45053329
ZZX,36,0,2024-06-13T15:31:54.867Z,english_210.wav,0,0,11859,21,5,Chinese,m,10,1,-72.63173863,1.53157276
ZZX,36,0,2024-06-13T15:31:54.867Z,english_210.wav,0,0,11859,21,5,Chinese,m,11,1.09391667,-28.48995406,1.31948045
ZZX,37,0,2024-06-13T15:31:54.867Z,english_887.wav,0,0,615,21,5,Chinese,m,0,0,-3.44900861,0.51239927
ZZX,37,0,2024-06-13T15:31:54.867Z,english_887.wav,0,0,615,21,5,Chinese,m,1,0.1,-17.8432189,1.03264561
ZZX,37,0,2024-06-13T15:31:54.867Z,english_887.wav,0,0,615,21,5,Chinese,m,2,0.2,-6.85827808,0.34600943
ZZX,37,0,2024-06-13T15:31:54.867Z,english_887.wav,0,0,615,21,5,Chinese,m,3,0.3,45.65439731,0.47649702
ZZX,37,0,2024-06-13T15:31:54.867Z,english_887.wav,0,0,615,21,5,Chinese,m,4,0.4,-45.51901732,1.73458193
ZZX,37,0,2024-06-13T15:31:54.867Z,english_887.wav,0,0,615,21,5,Chinese,m,5,0.5,-48.46749348,0.81561736
ZZX,37,0,2024-06-13T15:31:54.867Z,english_887.wav,0,0,615,21,5,Chinese,m,6,0.6,61.02871352,1.13461249
ZZX,37,0,2024-06-13T15:31:54.867Z,english_887.wav,0,0,615,21,5,Chinese,m,7,0.7,88.88451803,0.39624217
ZZX,37,0,2024-06-13T15:31:54.867Z,english_887.wav,0,0,615,21,5,Chinese,m,8,0.8,-62.50472578,0.97607282
ZZX,37,0,2024-06-13T15:31:54.867Z,english_887.wav,0,0,615,21,5,Chinese,m,9,0.9,-72.54245457,0.43830143
ZZX,37,0,2024-06-13T15:31:54.867Z,english_887.wav,0,0,615,21,5,Chinese,m,10,1,69.58025846,1.14588811
ZZX,37,0,2024-06-13T15:31:54.867Z,english_887.wav,0,0,615,21,5,Chinese,m,11,1.09391667,-27.66978609,0.14331088
ZZX,38,0,2024-06-13T15:31:54.867Z,english_751.wav,0,0,8903,21,5,Chinese,m,0,0,-66.06272789,0.8938032
ZZX,38,0,2024-06-13T15:31:54.867Z,english_751.wav,0,0,8903,21,5,Chinese,m,1,0.1,-35.39424596,0.85096145
ZZX,38,0,2024-06-13T15:31:54.867Z,english_751.wav,0,0,8903,21,5,Chinese,m,2,0.2,-5.06217065,0.63682042
ZZX,38,0,2024-06-13T15:31:54.867Z,english_751.wav,0,0,8903,21,5,Chinese,m,3,0.3,34.9656481,0.66546542
ZZX,38,0,2024-06-13T15:31:54.867Z,english_751.wav,0,0,8903,21,5,Chinese,m,4,0.4,21.23436914,1.36528552
ZZX,38,0,2024-06-13T15:31:54.867Z,english_751.wav,0,0,8903,21,5,Chinese,m,5,0.5,82.13600136,1.24494727
ZZX,38,0,2024-06-13T15:31:54.867Z,english_751.wav,0,0,8903,21,5,Chinese,m,6,0.6,31.75524198,1.91319775
ZZX,38,0,2024-06-13T15:31:54.867Z,english_751.wav,0,0,8903,21,5,Chinese,m,7,0.7,25.74157906,1.46839197
ZZX,38,0,2024-06-13T15:31:54.867Z,english_751.wav,0,0,8903,21,5,Chinese,m,8,0.8,0.71739343,1.22847184
ZZX,38,0,2024-06-13T15:31:54.867Z,english_751.wav,0,0,8903,21,5,Chinese,m,9,0.9,-48.73723386,1.68139256
ZZX,38,0,2024-06-13T15:31:54.867Z,english_751.wav,0,0,8903,21,5,Chinese,m,10,1,-45.00388336,0.62568337
ZZX,38,0,2024-06-13T15:31:54.867Z,english_751.wav,0,0,8903,21,5,Chinese,m,11,1.09391667,-22.7557427,0.09425642
ZZX,39,0,2024-06-13T15:31:54.867Z,english_242.wav,0,0,1119,21,5,Chinese,m,0,0,-30.80596233,1.80753385
ZZX,39,0,2024-06-13T15:31:54.867Z,english_242.wav,0,0,1119,21,5,Chinese,m,1,0.1,81.43519329,0.97833747
ZZX,39,0,2024-06-13T15:31:54.867Z,english_242.wav,0,0,1119,21,5,Chinese,m,2,0.2,0.15400576,1.3926845
ZZX,39,0,2024-06-13T15:31:54.867Z,english_242.wav,0,0,1119,21,5,Chinese,m,3,0.3,-28.81783402,1.42545381
ZZX,39,0,2024-06-13T15:31:54.867Z,english_242.wav,0,0,1119,21,5,Chinese,m,4,0.4,-61.37671682,0.1849233
ZZX,39,0,2024-06-13T15:31:54.867Z,english_242.wav,0,0,1119,21,5,Chinese,m,5,0.5,91.85520167,1.35548931
ZZX,39,0,2024-06-13T15:31:54.867Z,english_242.wav,0,0,1119,21,5,Chinese,m,6,0.6,-31.54320731,1.15661389
ZZX,39,0,2024-06-13T15:31:54.867Z,english_242.wav,0,0,1119,21,5,Chinese,m,7,0.7,-13.97670537,1.66148537
ZZX,39,0,2024-06-13T15:31:54.867Z,english_242.wav,0,0,1119,21,5,Chinese,m,8,0.8,70.42044267,1.4780344
ZZX,39,0,2024-06-13T15:31:54.867Z,english_242.wav,0,0,1119,21,5,Chinese,m,9,0.9,-90.04203145,1.37692841
ZZX,39,0,2024-06-13T15:31:54.867Z,english_242.wav,0,0,1119,21,5,Chinese,m,10,1,-39.83004077,0.38948234
ZZX,39,0,2024-06-13T15:31:54.867Z,english_242.wav,0,0,1119,21,5,Chinese,m,11,1.09391667,-14.25442636,1.25473686
ZZX,40,0,2024-06-13T15:31:54.867Z,english_665.wav,0,0,4526,21,5,Chinese,m,0,0,-16.81613766,1.57148085
ZZX,40,0,2024-06-13T15:31:54.867Z,english_665.wav,0,0,4526,21,5,Chinese,m,1,0.1,6.45802089,1.67314542
ZZX,40,0,2024-06-13T15:31:54.867Z,english_665.wav,0,0,4526,21,5,Chinese,m,2,0.2,-39.14767358,1.64833963
ZZX,40,0,2024-06-13T15:31:54.867Z,english_665.wav,0,0,4526,21,5,Chinese,m,3,0.3,-59.56196692,0.04709433
ZZX,40,0,2024-06-13T15:31:54.867Z,english_665.wav,0,0,4526,21,5,Chinese,m,4,0.4,-22.80702259,1.1795503
ZZX,40,0,2024-06-13T15:31:54.867Z,english_665.wav,0,0,4526,21,5,Chinese,m,5,0.5,48.84600095,1.10369045
ZZX,40,0,2024-06-13T15:31:54.867Z,english_665.wav,0,0,4526,21,5,Chinese,m,6,0.6,-22.22311015,1.02368727
ZZX,40,0,2024-06-13T15:31:54.867Z,english_665.wav,0,0,4526,21,5,Chinese,m,7,0.7,-21.08263431,1.75922585
ZZX,40,0,2024-06-13T15:31:54.867Z,english_665.wav,0,0,4526,21,5,Chinese,m,8,0.8,-18.22407764,1.40227071
ZZX,40,0,2024-06-13T15:31:54.867Z,english_665.wav,0,0,4526,21,5,Chinese,m,9,0.9,-61.53900162,1.50722495
ZZX,40,0,2024-06-13T15:31:54.867Z,english_665.wav,0,0,4526,21,5,Chinese,m,10,1,-19.08536635,0.46597225
ZZX,40,0,2024-06-13T15:31:54.867Z,english_665.wav,0,0,4526,21,5,Chinese,m,11,1.09391667,-43.46705032,0.63106716
ZZX,41,0,2024-06-13T15:31:54.867Z,english_823.wav,0,1,852,21,5,Chinese,m,0,0,-70.10603849,1.91255795
ZZX,41,0,2024-06-13T15:31:54.867Z,english_823.wav,0,1,852,21,5,Chinese,m,1,0.1,-45.04517839,0.74599838
ZZX,41,0,2024-06-13T15:31:54.867Z,english_823.wav,0,1,852,21,5,Chinese,m,2,0.2,-42.2492944,1.31380905
ZZX,41,0,2024-06-13T15:31:54.867Z,english_823.wav,0,1,852,21,5,Chinese,m,3,0.3,-45.84544369,1.72599054
ZZX,41,0,2024-06-13T15:31:54.867Z,english_823.wav,0,1,852,21,5,Chinese,m,4,0.4,-4.98008302,1.26451187
ZZX,41,0,2024-06-13T15:31:54.867Z,english_823.wav,0,1,852,21,5,Chinese,m,5,0.5,20.34475247,1.72804797
ZZX,41,0,2024-06-13T15:31:54.867Z,english_823.wav,0,1,852,21,5,Chinese,m,6,0.6,84.8573305,0.52348254
ZZX,41,0,2024-06-13T15:31:54.867Z,english_823.wav,0,1,852,21,5,Chinese,m,7,0.7,-53.89632844,1.631088
ZZX,41,0,2024-06-13T15:31:54.867Z,english_823.wav,0,1,852,21,5,Chinese,m,8,0.8,-37.28575357,0.82823054
ZZX,41,0,2024-06-13T15:31:54.867Z,english_823.wav,0,1,852,21,5,Chinese,m,9,0.9,13.94407457,0.05356388
ZZX,41,0,2024-06-13T15:31:54.867Z,english_823.wav,0,1,852,21,5,Chinese,m,10,1,24.32776485,1.39749703
ZZX,41,0,2024-06-13T15:31:54.867Z,english_823.wav,0,1,852,21,5,Chinese,m,11,1.09391667,93.11083292,0.95992964
ZZX,42,0,2024-06-13T15:31:54.867Z,english_521.wav,0,1,332,21,5,Chinese,m,0,0,5.37787975,1.11621025
ZZX,42,0,2024-06-13T15:31:54.867Z,english_521.wav,0,1,332,21,5,Chinese,m,1,0.1,9.32249591,0.69917502
ZZX,42,0,2024-06-13T15:31:54.867Z,english_521.wav,0,1,332,21,5,Chinese,m,2,0.2,4.19745407,0.1199413
ZZX,42,0,2024-06-13T15:31:54.867Z,english_521.wav,0,1,332,21,5,Chinese,m,3,0.3,-75.18613478,1.762579
ZZX,42,0,2024-06-13T15:31:54.867Z,english_521.wav,0,1,332,21,5,Chinese,m,4,0.4,87.02780947,1.43452798
ZZX,42,0,2024-06-13T15:31:54.867Z,english_521.wav,0,1,332,21,5,Chinese,m,5,0.5,-73.26225675,0.23094002
ZZX,42,0,2024-06-13T15:31:54.867Z,english_521.wav,0,1,332,21,5,Chinese,m,6,0.6,66.15406762,1.51181612
ZZX,42,0,2024-06-13T15:31:54.867Z,english_521.wav,0,1,332,21,5,Chinese,m,7,0.7,-9.80579818,1.4155143
ZZX,42,0,2024-06-13T15:31:54.867Z,english_521.wav,0,1,332,21,5,Chinese,m,8,0.8,17.20812603,1.82718341
ZZX,42,0,2024-06-13T15:31:54.867Z,english_521.wav,0,1,332,21,5,Chinese,m,9,0.9,21.88979452,1.93759588
ZZX,42,0,2024-06-13T15:31:54.867Z,english_521.wav,0,1,332,21,5,Chinese,m,10,1,-69.39969828,1.70606784
ZZX,42,0,2024-06-13T15:31:54.867Z,english_521.wav,0,1,332,21,5,Chinese,m,11,1.09391667,-64.03153918,0.09885652
ZZX,43,0,2024-06-13T15:31:54.867Z,english_648.wav,0,0,344,21,5,Chinese,m,0,0,33.66524903,1.53800397
ZZX,43,0,2024-06-13T15:31:54.867Z,english_648.wav,0,0,344,21,5,Chinese,m,1,0.1,97.98351088,1.15872761
ZZX,43,0,2024-06-13T15:31:54.867Z,english_648.wav,0,0,344,21,5,Chinese,m,2,0.2,11.9794117,0.81425559
ZZX,43,0,2024-06-13T15:31:54.867Z,english_648.wav,0,0,344,21,5,Chinese,m,3,0.3,29.55885348,0.88028101
ZZX,43,0,2024-06-13T15:31:54.867Z,english_648.wav,0,0,344,21,5,Chinese,m,4,0.4,24.59728939,1.88326834
ZZX,43,0,2024-06-13T15:31:54.867Z,english_648.wav,0,0,344,21,5,Chinese,m,5,0.5,59.2279724,1.09723956
ZZX,43,0,2024-06-13T15:31:54.867Z,english_648.wav,0,0,344,21,5,Chinese,m,6,0.6,3.25949038,0.83602582
ZZX,43,0,2024-06-13T15:31:54.867Z,english_648.wav,0,0,344,21,5,Chinese,m,7,0.7,-26.79620766,0.3704665
ZZX,43,0,2024-06-13T15:31:54.867Z,english_648.wav,0,0,344,21,5,Chinese,m,8,0.8,98.3282455,0.87153578
ZZX,43,0,2024-06-13T15:31:54.867Z,english_648.wav,0,0,344,21,5,Chinese,m,9,0.9,-78.7239126,1.50300547
ZZX,43,0,2024-06-13T15:31:54.867Z,english_648.wav,0,0,344,21,5,Chinese,m,10,1,20.12137035,0.75356499
ZZX,43,0,2024-06-13T15:31:54.867Z,english_648.wav,0,0,344,21,5,Chinese,m,11,1.09391667,-43.42156432,1.92538482
ZZX,44,0,2024-06-13T15:31:54.867Z,english_817.wav,0,0,485,21,5,Chinese,m,0,0,39.93653704,0.59804512
ZZX,44,0,2024-06-13T15:31:54.867Z,english_817.wav,0,0,485,21,5,Chinese,m,1,0.1,-44.37889142,1.22051814
ZZX,44,0,2024-06-13T15:31:54.867Z,english_817.wav,0,0,485,21,5,Chinese,m,2,0.2,-71.95009912,1.02272202
ZZX,44,0,2024-06-13T15:31:54.867Z,english_817.wav,0,0,485,21,5,Chinese,m,3,0.3,0.10723305,0.82768739
ZZX,44,0,2024-06-13T15:31:54.867Z,english_817.wav,0,0,485,21,5,Chinese,m,4,0.4,32.85070006,0.75023907
ZZX,44,0,2024-06-13T15:31:54.867Z,english_817.wav,0,0,485,21,5,Chinese,m,5,0.5,84.39314217,1.45571946
ZZX,44,0,2024-06-13T15:31:54.867Z,english_817.wav,0,0,485,21,5,Chinese,m,6,0.6,-27.64718927,1.19333558
ZZX,44,0,2024-06-13T15:31:54.867Z,english_817.wav,0,0,485,21,5,Chinese,m,7,0.7,-96.89614882,0.88124366
ZZX,44,0,2024-06-13T15:31:54.867Z,english_817.wav,0,0,485,21,5,Chinese,m,8,0.8,78.14592137,1.40555944
ZZX,44,0,2024-06-13T15:31:54.867Z,english_817.wav,0,0,485,21,5,Chinese,m,9,0.9,-23.71803159,0.40947716
ZZX,44,0,2024-06-13T15:31:54.867Z,english_817.wav,0,0,485,21,5,Chinese,m,10,1,-89.09326047,0.89036455
ZZX,44,0,2024-06-13T15:31:54.867Z,english_817.wav,0,0,485,21,5,Chinese,m,11,1.09391667,-7.75099391,1.8115698
ZZX,45,0,2024-06-13T15:31:54.867Z,english_613.wav,0,0,1418,21,5,Chinese,m,0,0,56.02417359,1.45969094
ZZX,45,0,2024-06-13T15:31:54.867Z,english_613.wav,0,0,1418,21,5,Chinese,m,1,0.1,-15.12096295,0.70307333
ZZX,45,0,2024-06-13T15:31:54.867Z,english_613.wav,0,0,1418,21,5,Chinese,m,2,0.2,24.11599025,1.55595157
ZZX,45,0,2024-06-13T15:31:54.867Z,english_613.wav,0,0,1418,21,5,Chinese,m,3,0.3,-98.52161237,0.89820675
ZZX,45,0,2024-06-13T15:31:54.867Z,english_613.wav,0,0,1418,21,5,Chinese,m,4,0.4,-83.03822249,1.36107021
ZZX,45,0,2024-06-13T15:31:54.867Z,english_613.wav,0,0,1418,21,5,Chinese,m,5,0.5,21.43017138,0.16432707
ZZX,45,0,2024-06-13T15:31:54.867Z,english_613.wav,0,0,1418,21,5,Chinese,m,6,0.6,63.83169659,0.04833877
ZZX,45,0,2024-06-13T15:31:54.867Z,english_613.wav,0,0,1418,21,5,Chinese,m,7,0.7,20.52778074,0.40598637
ZZX,45,0,2024-06-13T15:31:54.867Z,english_613.wav,0,0,1418,21,5,Chinese,m,8,0.8,94.54806404,1.56556559
ZZX,45,0,2024-06-13T15:31:54.867Z,english_613.wav,0,0,1418,21,5,Chinese,m,9,0.9,22.39216261,0.73835637
ZZX,45,0,2024-06-13T15:31:54.867Z,english_613.wav,0,0,1418,21,5,Chinese,m,10,1,-21.9484098,1.13631796
ZZX,45,0,2024-06-13T15:31:54.867Z,english_613.wav,0,0,1418,21,5,Chinese,m,11,1.09391667,-64.50590256,0.17382409
ZZX,46,0,2024-06-13T15:31:54.867Z,english_690.wav,0,1,293,21,5,Chinese,m,0,0,17.55747423,0.76835561
ZZX,46,0,2024-06-13T15:31:54.867Z,english_690.wav,0,1,293,21,5,Chinese,m,1,0.1,23.93305712,0.92260391
ZZX,46,0,2024-06-13T15:31:54.867Z,english_690.wav,0,1,293,21,5,Chinese,m,2,0.2,64.00076059,1.35078007
ZZX,46,0,2024-06-13T15:31:54.867Z,english_690.wav,0,1,293,21,5,Chinese,m,3,0.3,-94.30848537,0.66724341
ZZX,46,0,2024-06-13T15:31:54.867Z,english_690.wav,0,1,293,21,5,Chinese,m,4,0.4,6.99210774,0.90703794
ZZX,46,0,2024-06-13T15:31:54.867Z,english_690.wav,0,1,293,21,5,Chinese,m,5,0.5,85.90585052,0.64408178
ZZX,46,0,2024-06-13T15:31:54.867Z,english_690.wav,0,1,293,21,5,Chinese,m,6,0.6,87.05779363,0.93697695
ZZX,46,0,2024-06-13T15:31:54.867Z,english_690.wav,0,1,293,21,5,Chinese,m,7,0.7,-33.56142867,1.7663892
ZZX,46,0,2024-06-13T15:31:54.867Z,english_690.wav,0,1,293,21,5,Chinese,m,8,0.8,3.23139144,0.87547527
ZZX,46,0,2024-06-13T15:31:54.867Z,english_690.wav,0,1,293,21,5,Chinese,m,9,0.9,-81.40386669,1.67132801
ZZX,46,0,2024-06-13T15:31:54.867Z,english_690.wav,0,1,293,21,5,Chinese,m,10,1,-73.94182177,1.67691306
ZZX,46,0,2024-06-13T15:31:54.867Z,english_690.wav,0,1,293,21,5,Chinese,m,11,1.09391667,93.27821127,1.90511297
ZZX,47,0,2024-06-13T15:31:54.867Z,english_675.wav,0,1,659,21,5,Chinese,m,0,0,-55.70103266,0.31166963
ZZX,47,0,2024-06-13T15:31:54.867Z,english_675.wav,0,1,659,21,5,Chinese,m,1,0.1,-28.01284425,0.86348118
ZZX,47,0,2024-06-13T15:31:54.867Z,english_675.wav,0,1,659,21,5,Chinese,m,2,0.2,7.20629908,0.70830416
ZZX,47,0,2024-06-13T15:31:54.867Z,english_675.wav,0,1,659,21,5,Chinese,m,3,0.3,-88.65707162,1.06551889
ZZX,47,0,2024-06-13T15:31:54.867Z,english_675.wav,0,1,659,21,5,Chinese,m,4,0.4,-27.84357002,1.20889774
ZZX,47,0,2024-06-13T15:31:54.867Z,english_675.wav,0,1,659,21,5,Chinese,m,5,0.5,-20.24546059,1.96243663
ZZX,47,0,2024-06-13T15:31:54.867Z,english_675.wav,0,1,659,21,5,Chinese,m,6,0.6,20.54719109,0.99424305
ZZX,47,0,2024-06-13T15:31:54.867Z,english_675.wav,0,1,659,21,5,Chinese,m,7,0.7,-91.70059837,1.67190932
ZZX,47,0,2024-06-13T15:31:54.867Z,english_675.wav,0,1,659,21,5,Chinese,m,8,0.8,-73.21008585,0.91833311
ZZX,47,0,2024-06-13T15:31:54.867Z,english_675.wav,0,1,659,21,5,Chinese,m,9,0.9,41.37635308,1.02826617
ZZX,47,0,2024-06-13T15:31:54.867Z,english_675.wav,0,1,659,21,5,Chinese,m,10,1,8.96435743,1.43882248
ZZX,47,0,2024-06-13T15:31:54.867Z,english_675.wav,0,1,659,21,5,Chinese,m,11,1.09391667,-83.64569899,1.75988721
ZZX,48,0,2024-06-13T15:31:54.867Z,english_5.wav,0,0,768,21,5,Chinese,m,0,0,-71.05887053,0.69305634
ZZX,48,0,2024-06-13T15:31:54.867Z,english_5.wav,0,0,768,21,5,Chinese,m,1,0.1,-36.04846502,1.95331705
ZZX,48,0,2024-06-13T15:31:54.867Z,english_5.wav,0,0,768,21,5,Chinese,m,2,0.2,68.09307416,0.24939242
ZZX,48,0,2024-06-13T15:31:54.867Z,english_5.wav,0,0,768,21,5,Chinese,m,3,0.3,-71.61609357,1.30786136
ZZX,48,0,2024-06-13T15:31:54.867Z,english_5.wav,0,0,768,21,5,Chinese,m,4,0.4,-14.92970524,0.35721873
ZZX,48,0,2024-06-13T15:31:54.867Z,english_5.wav,0,0,768,21,5,Chinese,m,5,0.5,36.04461977,1.66367269
ZZX,48,0,2024-06-13T15:31:54.867Z,english_5.wav,0,0,768,21,5,Chinese,m,6,0.6,61.01603353,1.49043319
ZZX,48,0,2024-06-13T15:31:54.867Z,english_5.wav,0,0,768,21,5,Chinese,m,7,0.7,22.04787058,1.08702194
ZZX,48,0,2024-06-13T15:31:54.867Z,english_5.wav,0,0,768,21,5,Chinese,m,8,0.8,-76.70141108,0.32363826
ZZX,48,0,2024-06-13T15:31:54.867Z,english_5.wav,0,0,768,21,5,Chinese,m,9,0.9,72.36411847,0.22271442
ZZX,48,0,2024-06-13T15:31:54.867Z,english_5.wav,0,0,768,21,5,Chinese,m,10,1,-2.42248121,1.0907403
ZZX,48,0,2024-06-13T15:31:54.867Z,english_5.wav,0,0,768,21,5,Chinese,m,11,1.09391667,-45.78406478,0.00462457
ZZX,49,0,2024-06-13T15:31:54.867Z,english_972.wav,0,0,8337,21,5,Chinese,m,0,0,-23.39425143,1.25085973
ZZX,49,0,2024-06-13T15:31:54.867Z,english_972.wav,0,0,8337,21,5,Chinese,m,1,0.1,35.85055319,1.0698884
ZZX,49,0,2024-06-13T15:31:54.867Z,english_972.wav,0,0,8337,21,5,Chinese,m,2,0.2,67.19735569,1.90990051
ZZX,49,0,2024-06-13T15:31:54.867Z,english_972.wav,0,0,8337,21,5,Chinese,m,3,0.3,-48.3142237,1.50553478
ZZX,49,0,2024-06-13T15:31:54.867Z,english_972.wav,0,0,8337,21,5,Chinese,m,4,0.4,98.37530376,1.59397111
ZZX,49,0,2024-06-13T15:31:54.867Z,english_972.wav,0,0,8337,21,5,Chinese,m,5,0.5,49.57162288,0.74863955
ZZX,49,0,2024-06-13T15:31:54.867Z,english_972.wav,0,0,8337,21,5,Chinese,m,6,0.6,57.60699349,0.82823128
ZZX,49,0,2024-06-13T15:31:54.867Z,english_972.wav,0,0,8337,21,5,Chinese,m,7,0.7,-63.06687642,0.17780137
ZZX,49,0,2024-06-13T15:31:54.867Z,english_972.wav,0,0,8337,21,5,Chinese,m,8,0.8,66.62148397,0.09555814
ZZX,49,0,2024-06-13T15:31:54.867Z,english_972.wav,0,0,8337,21,5,Chinese,m,9,0.9,25.13322135,1.59117444
ZZX,49,0,2024-06-13T15:31:54.867Z,english_972.wav,0,0,8337,21,5,Chinese,m,10,1,-29.0922144,1.44799229
ZZX,49,0,2024-06-13T15:31:54.867Z,english_972.wav,0,0,8337,21,5,Chinese,m,11,1.09391667,-22.18125143,1.21058423
ZZX,50,1,2024-06-13T15:31:54.867Z,english_529.wav,0,0,1385,21,5,Chinese,m,0,0,-75.44052411,0.27425441
ZZX,50,1,2024-06-13T15:31:54.867Z,english_529.wav,0,0,1385,21,5,Chinese,m,1,0.1,73.68823703,1.79894556
ZZX,50,1,2024-06-13T15:31:54.867Z,english_529.wav,0,0,1385,21,5,Chinese,m,2,0.2,35.88983091,1.38498362
ZZX,50,1,2024-06-13T15:31:54.867Z,english_529.wav,0,0,1385,21,5,Chinese,m,3,0.3,74.9860534,1.12136542
ZZX,50,1,2024-06-13T15:31:54.867Z,english_529.wav,0,0,1385,21,5,Chinese,m,4,0.4,39.79761308,0.69021564
ZZX,50,1,2024-06-13T15:31:54.867Z,english_529.wav,0,0,1385,21,5,Chinese,m,5,0.5,87.56894365,1.32432139
ZZX,50,1,2024-06-13T15:31:54.867Z,english_529.wav,0,0,1385,21,5,Chinese,m,6,0.6,-70.18354505,0.62496123
ZZX,50,1,2024-06-13T15:31:54.867Z,english_529.wav,0,0,1385,21,5,Chinese,m,7,0.7,30.14757838,0.16694554
ZZX,50,1,2024-06-13T15:31:54.867Z,english_529.wav,0,0,1385,21,5,Chinese,m,8,0.8,-85.67720686,1.72485798
ZZX,50,1,2024-06-13T15:31:54.867Z,english_529.wav,0,0,1385,21,5,Chinese,m,9,0.9,-5.22909547,0.11317639
ZZX,50,1,2024-06-13T15:31:54.867Z,english_529.wav,0,0,1385,21,5,Chinese,m,10,1,-29.17041088,1.97903266
ZZX,50,1,2024-06-13T15:31:54.867Z,english_529.wav,0,0,1385,21,5,Chinese,m,11,1.09391667,91.40497623,0.92289832
ZZX,51,1,2024-06-13T15:31:54.867Z,english_808.wav,0,0,1189,21,5,Chinese,m,0,0,-54.51930087,0.8777304
ZZX,51,1,2024-06-13T15:31:54.867Z,english_808.wav,0,0,1189,21,5,Chinese,m,1,0.1,-81.0495762,1.15782472
ZZX,51,1,2024-06-13T15:31:54.867Z,english_808.wav,0,0,1189,21,5,Chinese,m,2,0.2,4.70470679,1.67617188
ZZX,51,1,2024-06-13T15:31:54.867Z,english_808.wav,0,0,1189,21,5,Chinese,m,3,0.3,56.77475896,0.46785173
ZZX,51,1,2024-06-13T15:31:54.867Z,english_808.wav,0,0,1189,21,5,Chinese,m,4,0.4,-45.19313698,1.34598798
ZZX,51,1,2024-06-13T15:31:54.867Z,english_808.wav,0,0,1189,21,5,Chinese,m,5,0.5,-12.85220206,1.21107636
ZZX,51,1,2024-06-13T15:31:54.867Z,english_808.wav,0,0,1189,21,5,Chinese,m,6,0.6,-3.64494866,0.33957231
ZZX,51,1,2024-06-13T15:31:54.867Z,english_808.wav,0,0,1189,21,5,Chinese,m,7,0.7,-54.59560116,1.78675234
ZZX,51,1,2024-06-13T15:31:54.867Z,english_808.wav,0,0,1189,21,5,Chinese,m,8,0.8,62.80587621,0.41874976
ZZX,51,1,2024-06-13T15:31:54.867Z,english_808.wav,0,0,1189,21,5,Chinese,m,9,0.9,41.76195467,0.58154764
ZZX,51,1,2024-06-13T15:31:54.867Z,english_808.wav,0,0,1189,21,5,Chinese,m,10,1,59.57414533,1.87307122
ZZX,51,1,2024-06-13T15:31:54.867Z,english_808.wav,0,0,1189,21,5,Chinese,m,11,1.09391667,-81.82049826,0.91565949
ZZX,52,1,2024-06-13T15:31:54.867Z,english_711.wav,0,0,639,21,5,Chinese,m,0,0,5.56697991,1.20296493
ZZX,52,1,2024-06-13T15:31:54.867Z,english_711.wav,0,0,639,21,5,Chinese,m,1,0.1,-24.51973587,1.05892315
ZZX,52,1,2024-06-13T15:31:54.867Z,english_711.wav,0,0,639,21,5,Chinese,m,2,0.2,14.74252879,0.52339911
ZZX,52,1,2024-06-13T15:31:54.867Z,english_711.wav,0,0,639,21,5,Chinese,m,3,0.3,62.90835999,1.255633
ZZX,52,1,2024-06-13T15:31:54.867Z,english_711.wav,0,0,639,21,5,Chinese,m,4,0.4,-30.148836,1.66876465
ZZX,52,1,2024-06-13T15:31:54.867Z,english_711.wav,0,0,639,21,5,Chinese,m,5,0.5,-90.0367138,0.2337908
ZZX,52,1,2024-06-13T15:31:54.867Z,english_711.wav,0,0,639,21,5,Chinese,m,6,0.6,23.29272454,0.4494252
ZZX,52,1,2024-06-13T15:31:54.867Z,english_711.wav,0,0,639,21,5,Chinese,m,7,0.7,51.00007107,1.6594433
ZZX,52,1,2024-06-13T15:31:54.867Z,english_711.wav,0,0,639,21,5,Chinese,m,8,0.8,-5.61877019,1.49925628
ZZX,52,1,2024-06-13T15:31:54.867Z,english_711.wav,0,0,639,21,5,Chinese,m,9,0.9,4.00444287,1.73015634
ZZX,52,1,2024-06-13T15:31:54.867Z,english_711.wav,0,0,639,21,5,Chinese,m,10,1,81.75034051,1.46308192
ZZX,52,1,2024-06-13T15:31:54.867Z,english_711.wav,0,0,639,21,5,Chinese,m,11,1.09391667,-78.99678836,1.6603821
ZZX,53,1,2024-06-13T15:31:54.867Z,english_397.wav,0,0,418,21,5,Chinese,m,0,0,-93.66149261,1.64508674
ZZX,53,1,2024-06-13T15:31:54.867Z,english_397.wav,0,0,418,21,5,Chinese,m,1,0.1,10.02332444,1.71116478
ZZX,53,1,2024-06-13T15:31:54.867Z,english_397.wav,0,0,418,21,5,Chinese,m,2,0.2,11.25111848,0.61520949
ZZX,53,1,2024-06-13T15:31:54.867Z,english_397.wav,0,0,418,21,5,Chinese,m,3,0.3,-37.6827397,1.11182829
ZZX,53,1,2024-06-13T15:31:54.867Z,english_397.wav,0,0,418,21,5,Chinese,m,4,0.4,25.48122538,1.39361431
ZZX,53,1,2024-06-13T15:31:54.867Z,english_397.wav,0,0,418,21,5,Chinese,m,5,0.5,26.75513861,1.84991074
ZZX,53,1,2024-06-13T15:31:54.867Z,english_397.wav,0,0,418,21,5,Chinese,m,6,0.6,-43.88017582,0.85920693
ZZX,53,1,2024-06-13T15:31:54.867Z,english_397.wav,0,0,418,21,5,Chinese,m,7,0.7,-42.20538159,1.85774447
ZZX,53,1,2024-06-13T15:31:54.867Z,english_397.wav,0,0,418,21,5,Chinese,m,8,0.8,82.41630332,1.4570352
ZZX,53,1,2024-06-13T15:31:54.867Z,english_397.wav,0,0,418,21,5,Chinese,m,9,0.9,57.33831385,0.98799717
ZZX,53,1,2024-06-13T15:31:54.867Z,english_397.wav,0,0,418,21,5,Chinese,m,10,1,-42.56353988,0.5544136
ZZX,53,1,2024-06-13T15:31:54.867Z,english_397.wav,0,0,418,21,5,Chinese,m,11,1.09391667,68.91357319,0.776674
ZZX,54,1,2024-06-13T15:31:54.867Z,english_805.wav,0,0,450,21,5,Chinese,m,0,0,19.24000096,0.52175854
ZZX,54,1,2024-06-13T15:31:54.867Z,english_805.wav,0,0,450,21,5,Chinese,m,1,0.1,-57.56428934,1.45107426
ZZX,54,1,2024-06-13T15:31:54.867Z,english_805.wav,0,0,450,21,5,Chinese,m,2,0.2,-17.74165003,1.66296684
ZZX,54,1,2024-06-13T15:31:54.867Z,english_805.wav,0,0,450,21,5,Chinese,m,3,0.3,94.45114709,1.339528
ZZX,54,1,2024-06-13T15:31:54.867Z,english_805.wav,0,0,450,21,5,Chinese,m,4,0.4,58.80414928,1.45905309
ZZX,54,1,2024-06-13T15:31:54.867Z,english_805.wav,0,0,450,21,5,Chinese,m,5,0.5,15.95265091,0.95701688
ZZX,54,1,2024-06-13T15:31:54.867Z,english_805.wav,0,0,450,21,5,Chinese,m,6,0.6,-64.01744173,0.10004415
ZZX,54,1,2024-06-13T15:31:54.867Z,english_805.wav,0,0,450,21,5,Chinese,m,7,0.7,-39.81720589,1.33408917
ZZX,54,1,2024-06-13T15:31:54.867Z,english_805.wav,0,0,450,21,5,Chinese,m,8,0.8,48.58222908,0.26158276
ZZX,54,1,2024-06-13T15:31:54.867Z,english_805.wav,0,0,450,21,5,Chinese,m,9,0.9,79.1348353,0.78316965
ZZX,54,1,2024-06-13T15:31:54.867Z,english_805.wav,0,0,450,21,5,Chinese,m,10,1,66.03274921,0.77046412
ZZX,54,1,2024-06-13T15:31:54.867Z,english_805.wav,0,0,450,21,5,Chinese,m,11,1.09391667,-37.34721406,0.38567889
ZZX,55,1,2024-06-13T15:31:54.867Z,english_594.wav,0,0,233,21,5,Chinese,m,0,0,-6.10063938,0.03940385
ZZX,55,1,2024-06-13T15:31:54.867Z,english_594.wav,0,0,233,21,5,Chinese,m,1,0.1,-56.51028651,0.67979763
ZZX,55,1,2024-06-13T15:31:54.867Z,english_594.wav,0,0,233,21,5,Chinese,m,2,0.2,-40.09571675,0.90921071
ZZX,55,1,2024-06-13T15:31:54.867Z,english_594.wav,0,0,233,21,5,Chinese,m,3,0.3,61.97563687,0.53210088
ZZX,55,1,2024-06-13T15:31:54.867Z,english_594.wav,0,0,233,21,5,Chinese,m,4,0.4,-85.53288451,0.284195
ZZX,55,1,2024-06-13T15:31:54.867Z,english_594.wav,0,0,233,21,5,Chinese,m,5,0.5,6.67279942,0.75512393
ZZX,55,1,2024-06-13T15:31:54.867Z,english_594.wav,0,0,233,21,5,Chinese,m,6,0.6,48.92783255,0.67826493
ZZX,55,1,2024-06-13T15:31:54.867Z,english_594.wav,0,0,233,21,5,Chinese,m,7,0.7,-71.33031091,0.91947698
ZZX,55,1,2024-06-13T15:31:54.867Z,english_594.wav,0,0,233,21,5,Chinese,m,8,0.8,8.29148897,0.21678931
ZZX,55,1,2024-06-13T15:31:54.867Z,english_594.wav,0,0,233,21,5,Chinese,m,9,0.9,42.69425852,1.1378317
ZZX,55,1,2024-06-13T15:31:54.867Z,english_594.wav,0,0,233,21,5,Chinese,m,10,1,-32.82046223,1.58275183
ZZX,55,1,2024-06-13T15:31:54.867Z,english_594.wav,0,0,233,21,5,Chinese,m,11,1.09391667,-55.40353935,1.87399103
ZZX,56,1,2024-06-13T15:31:54.867Z,english_204.wav,0,1,2940,21,5,Chinese,m,0,0,-54.18548322,0.4935822
ZZX,56,1,2024-06-13T15:31:54.867Z,english_204.wav,0,1,2940,21,5,Chinese,m,1,0.1,-11.27218157,1.37686427
ZZX,56,1,2024-06-13T15:31:54.867Z,english_204.wav,0,1,2940,21,5,Chinese,m,2,0.2,57.70913134,1.17627269
ZZX,56,1,2024-06-13T15:31:54.867Z,english_204.wav,0,1,2940,21,5,Chinese,m,3,0.3,-85.27797026,1.14645494
ZZX,56,1,2024-06-13T15:31:54.867Z,english_204.wav,0,1,2940,21,5,Chinese,m,4,0.4,28.61054009,1.61303053
ZZX,56,1,2024-06-13T15:31:54.867Z,english_204.wav,0,1,2940,21,5,Chinese,m,5,0.5,-36.71816677,0.72559221
ZZX,56,1,2024-06-13T15:31:54.867Z,english_204.wav,0,1,2940,21,5,Chinese,m,6,0.6,-27.72446487,1.95000364
ZZX,56,1,2024-06-13T15:31:54.867Z,english_204.wav,0,1,2940,21,5,Chinese,m,7,0.7,14.69142801,0.06695508
ZZX,56,1,2024-06-13T15:31:54.867Z,english_204.wav,0,1,2940,21,5,Chinese,m,8,0.8,9.61746044,1.52094915
ZZX,56,1,2024-06-13T15:31:54.867Z,english_204.wav,0,1,2940,21,5,Chinese,m,9,0.9,22.67127582,0.41034945
ZZX,56,1,2024-06-13T15:31:54.867Z,english_204.wav,0,1,2940,21,5,Chinese,m,10,1,69.36328148,0.4470276
ZZX,56,1,2024-06-13T15:31:54.867Z,english_204.wav,0,1,2940,21,5,Chinese,m,11,1.09391667,-44.4283226,1.93225144
ZZX,57,1,2024-06-13T15:31:54.867Z,english_14.wav,0,0,1107,21,5,Chinese,m,0,0,-5.69961552,1.552338
ZZX,57,1,2024-06-13T15:31:54.867Z,english_14.wav,0,0,1107,21,5,Chinese,m,1,0.1,-17.69328861,0.71654176
ZZX,57,1,2024-06-13T15:31:54.867Z,english_14.wav,0,0,1107,21,5,Chinese,m,2,0.2,-45.6905252,1.07785173
ZZX,57,1,2024-06-13T15:31:54.867Z,english_14.wav,0,0,1107,21,5,Chinese,m,3,0.3,-40.89378138,1.31161341
ZZX,57,1,2024-06-13T15:31:54.867Z,english_14.wav,0,0,1107,21,5,Chinese,m,4,0.4,-36.19831956,0.28947894
ZZX,57,1,2024-06-13T15:31:54.867Z,english_14.wav,0,0,1107,21,5,Chinese,m,5,0.5,13.76556606,0.6738955
ZZX,57,1,2024-06-13T15:31:54.867Z,english_14.wav,0,0,1107,21,5,Chinese,m,6,0.6,51.91139139,1.18134596
ZZX,57,1,2024-06-13T15:31:54.867Z,english_14.wav,0,0,1107,21,5,Chinese,m,7,0.7,22.36023261,0.36193456
ZZX,57,1,2024-06-13T15:31:54.867Z,english_14.wav,0,0,1107,21,5,Chinese,m,8,0.8,-6.30606285,1.01055915
ZZX,57,1,2024-06-13T15:31:54.867Z,english_14.wav,0,0,1107,21,5,Chinese,m,9,0.9,44.07295662,1.51598154
ZZX,57,1,2024-06-13T15:31:54.867Z,english_14.wav,0,0,1107,21,5,Chinese,m,10,1,49.08865221,1.55420583
ZZX,57,1,2024-06-13T15:31:54.867Z,english_14.wav,0,0,1107,21,5,Chinese,m,11,1.09391667,-15.23758706,0.88497418
ZZX,58,1,2024-06-13T15:31:54.867Z,english_376.wav,0,0,397,21,5,Chinese,m,0,0,-22.52600132,1.13600224
ZZX,58,1,2024-06-13T15:31:54.867Z,english_376.wav,0,0,397,21,5,Chinese,m,1,0.1,29.36992487,0.82385101
ZZX,58,1,2024-06-13T15:31:54.867Z,english_376.wav,0,0,397,21,5,Chinese,m,2,0.2,26.35975313,0.21812262
ZZX,58,1,2024-06-13T15:31:54.867Z,english_376.wav,0,0,397,21,5,Chinese,m,3,0.3,22.46882007,1.22545345
ZZX,58,1,2024-06-13T15:31:54.867Z,english_376.wav,0,0,397,21,5,Chinese,m,4,0.4,-26.33536786,0.68217052
ZZX,58,1,2024-06-13T15:31:54.867Z,english_376.wav,0,0,397,21,5,Chinese,m,5,0.5,-27.32741376,1.80813558
ZZX,58,1,2024-06-13T15:31:54.867Z,english_376.wav,0,0,397,21,5,Chinese,m,6,0.6,4.49813396,0.4048305
ZZX,58,1,2024-06-13T15:31:54.867Z,english_376.wav,0,0,397,21,5,Chinese,m,7,0.7,-47.02321994,1.72982043
ZZX,58,1,2024-06-13T15:31:54.867Z,english_376.wav,0,0,397,21,5,Chinese,m,8,0.8,-61.17584125,0.03977306
ZZX,58,1,2024-06-13T15:31:54.867Z,english_376.wav,0,0,397,21,5,Chinese,m,9,0.9,-52.37587082,0.16832119
ZZX,58,1,2024-06-13T15:31:54.867Z,english_376.wav,0,0,397,21,5,Chinese,m,10,1,53.16500273,1.81503166
ZZX,58,1,2024-06-13T15:31:54.867Z,english_376.wav,0,0,397,21,5,Chinese,m,11,1.09391667,31.59148057,0.61812074
ZZX,59,1,2024-06-13T15:31:54.867Z,english_542.wav,0,1,866,21,5,Chinese,m,0,0,77.25836123,0.87207269
ZZX,59,1,2024-06-13T15:31:54.867Z,english_542.wav,0,1,866,21,5,Chinese,m,1,0.1,4.96687677,0.90240888
ZZX,59,1,2024-06-13T15:31:54.867Z,english_542.wav,0,1,866,21,5,Chinese,m,2,0.2,-69.63893361,0.25644456
ZZX,59,1,2024-06-13T15:31:54.867Z,english_542.wav,0,1,866,21,5,Chinese,m,3,0.3,36.13476154,0.86696527
ZZX,59,1,2024-06-13T15:31:54.867Z,english_542.wav,0,1,866,21,5,Chinese,m,4,0.4,29.93419476,1.70387716
ZZX,59,1,2024-06-13T15:31:54.867Z,english_542.wav,0,1,866,21,5,Chinese,m,5,0.5,-71.22267205,1.80144796
ZZX,59,1,2024-06-13T15:31:54.867Z,english_542.wav,0,1,866,21,5,Chinese,m,6,0.6,-30.36103617,0.29401729
ZZX,59,1,2024-06-13T15:31:54.867Z,english_542.wav,0,1,866,21,5,Chinese,m,7,0.7,-14.05066862,1.14442321
ZZX,59,1,2024-06-13T15:31:54.867Z,english_542.wav,0,1,866,21,5,Chinese,m,8,0.8,21.39979207,1.80586802
ZZX,59,1,2024-06-13T15:31:54.867Z,english_542.wav,0,1,866,21,5,Chinese,m,9,0.9,0.74742826,1.77494895
ZZX,59,1,2024-06-13T15:31:54.867Z,english_542.wav,0,1,866,21,5,Chinese,m,10,1,44.77375782,0.36146727
ZZX,59,1,2024-06-13T15:31:54.867Z,english_542.wav,0,1,866,21,5,Chinese,m,11,1.09391667,-66.5594785,1.85294654
ZZX,60,1,2024-06-13T15:31:54.867Z,english_503.wav,0,0,527,21,5,Chinese,m,0,0,82.81450313,0.83149822
ZZX,60,1,2024-06-13T15:31:54.867Z,english_503.wav,0,0,527,21,5,Chinese,m,1,0.1,87.05662754,1.91463783
ZZX,60,1,2024-06-13T15:31:54.867Z,english_503.wav,0,0,527,21,5,Chinese,m,2,0.2,42.99051807,0.15190796
ZZX,60,1,2024-06-13T15:31:54.867Z,english_503.wav,0,0,527,21,5,Chinese,m,3,0.3,23.32883613,1.60754129
ZZX,60,1,2024-06-13T15:31:54.867Z,english_503.wav,0,0,527,21,5,Chinese,m,4,0.4,48.50951883,0.81229928
ZZX,60,1,2024-06-13T15:31:54.867Z,english_503.wav,0,0,527,21,5,Chinese,m,5,0.5,-47.47339199,1.3748652
ZZX,60,1,2024-06-13T15:31:54.867Z,english_503.wav,0,0,527,21,5,Chinese,m,6,0.6,-9.99119765,1.71927888
ZZX,60,1,2024-06-13T15:31:54.867Z,english_503.wav,0,0,527,21,5,Chinese,m,7,0.7,68.86997334,0.8455295
ZZX,60,1,2024-06-13T15:31:54.867Z,english_503.wav,0,0,527,21,5,Chinese,m,8,0.8,-44.22385081,0.49975448
ZZX,60,1,2024-06-13T15:31:54.867Z,english_503.wav,0,0,527,21,5,Chinese,m,9,0.9,14.75546466,0.2402037
ZZX,60,1,2024-06-13T15:31:54.867Z,english_503.wav,0,0,527,21,5,Chinese,m,10,1,-47.31135976,1.02101903
ZZX,60,1,2024-06-13T15:31:54.867Z,english_503.wav,0,0,527,21,5,Chinese,m,11,1.09391667,-18.86254353,1.59376689
ZZX,61,1,2024-06-13T15:31:54.867Z,english_599.wav,0,0,1320,21,5,Chinese,m,0,0,68.55754102,0.43315889
ZZX,61,1,2024-06-13T15:31:54.867Z,english_599.wav,0,0,1320,21,5,Chinese,m,1,0.1,-7.26037981,0.25693118
ZZX,61,1,2024-06-13T15:31:54.867Z,english_599.wav,0,0,1320,21,5,Chinese,m,2,0.2,92.88050494,0.63718224
ZZX,61,1,2024-06-13T15:31:54.867Z,english_599.wav,0,0,1320,21,5,Chinese,m,3,0.3,-30.01198602,0.72589136
ZZX,61,1,2024-06-13T15:31:54.867Z,english_599.wav,0,0,1320,21,5,Chinese,m,4,0.4,-12.83448782,1.41268703
ZZX,61,1,2024-06-13T15:31:54.867Z,english_599.wav,0,0,1320,21,5,Chinese,m,5,0.5,95.18827309,1.68026213
ZZX,61,1,2024-06-13T15:31:54.867Z,english_599.wav,0,0,1320,21,5,Chinese,m,6,0.6,76.69886181,1.35988865
ZZX,61,1,2024-06-13T15:31:54.867Z,english_599.wav,0,0,1320,21,5,Chinese,m,7,0.7,-88.96581396,1.48925284
ZZX,61,1,2024-06-13T15:31:54.867Z,english_599.wav,0,0,1320,21,5,Chinese,m,8,0.8,6.31748227,0.8159251
ZZX,61,1,2024-06-13T15:31:54.867Z,english_599.wav,0,0,1320,21,5,Chinese,m,9,0.9,-93.23103284,0.71703188
ZZX,61,1,2024-06-13T15:31:54.867Z,english_599.wav,0,0,1320,21,5,Chinese,m,10,1,52.23538248,0.37366583
ZZX,61,1,2024-06-13T15:31:54.867Z,english_599.wav,0,0,1320,21,5,Chinese,m,11,1.09391667,80.6723105,0.06283904
ZZX,62,1,2024-06-13T15:31:54.867Z,english_4.wav,0,0,1047,21,5,Chinese,m,0,0,-33.3305161,1.1805291
ZZX,62,1,2024-06-13T15:31:54.867Z,english_4.wav,0,0,1047,21,5,Chinese,m,1,0.1,-23.37326796,0.77631495
ZZX,62,1,2024-06-13T15:31:54.867Z,english_4.wav,0,0,1047,21,5,Chinese,m,2,0.2,-42.80660343,1.23796573
ZZX,62,1,2024-06-13T15:31:54.867Z,english_4.wav,0,0,1047,21,5,Chinese,m,3,0.3,-85.97409915,0.59874379
ZZX,62,1,2024-06-13T15:31:54.867Z,english_4.wav,0,0,1047,21,5,Chinese,m,4,0.4,51.28251826,0.69643725
ZZX,62,1,2024-06-13T15:31:54.867Z,english_4.wav,0,0,1047,21,5,Chinese,m,5,0.5,20.44685701,0.26804311
ZZX,62,1,2024-06-13T15:31:54.867Z,english_4.wav,0,0,1047,21,5,Chinese,m,6,0.6,23.55063394,0.13974856
ZZX,62,1,2024-06-13T15:31:54.867Z,english_4.wav,0,0,1047,21,5,Chinese,m,7,0.7,-22.02944006,0.25652729
ZZX,62,1,2024-06-13T15:31:54.867Z,english_4.wav,0,0,1047,21,5,Chinese,m,8,0.8,55.64002673,0.69877455
ZZX,62,1,2024-06-13T15:31:54.867Z,english_4.wav,0,0,1047,21,5,Chinese,m,9,0.9,43.82412807,0.73036563
ZZX,62,1,2024-06-13T15:31:54.867Z,english_4.wav,0,0,1047,21,5,Chinese,m,10,1,96.09742447,1.13065304
ZZX,62,1,2024-06-13T15:31:54.867Z,english_4.wav,0,0,1047,21,5,Chinese,m,11,1.09391667,94.89276626,0.42036746
ZZX,63,1,2024-06-13T15:31:54.867Z,english_314.wav,0,0,362,21,5,Chinese,m,0,0,-72.77248659,0.8900907
ZZX,63,1,2024-06-13T15:31:54.867Z,english_314.wav,0,0,362,21,5,Chinese,m,1,0.1,-16.3777023,0.59416925
ZZX,63,1,2024-06-13T15:31:54.867Z,english_314.wav,0,0,362,21,5,Chinese,m,2,0.2,-54.89367252,1.27689755
ZZX,63,1,2024-06-13T15:31:54.867Z,english_314.wav,0,0,362,21,5,Chinese,m,3,0.3,-94.61910998,0.70275331
ZZX,63,1,2024-06-13T15:31:54.867Z,english_314.wav,0,0,362,21,5,Chinese,m,4,0.4,-16.43986335,1.42732001
ZZX,63,1,2024-06-13T15:31:54.867Z,english_314.wav,0,0,362,21,5,Chinese,m,5,0.5,22.95549902,0.51357734
ZZX,63,1,2024-06-13T15:31:54.867Z,english_314.wav,0,0,362,21,5,Chinese,m,6,0.6,-38.50046808,1.78706659
ZZX,63,1,2024-06-13T15:31:54.867Z,english_314.wav,0,0,362,21,5,Chinese,m,7,0.7,94.4546569,0.51196802
ZZX,63,1,2024-06-13T15:31:54.867Z,english_314.wav,0,0,362,21,5,Chinese,m,8,0.8,-37.64043119,0.29950004
ZZX,63,1,2024-06-13T15:31:54.867Z,english_314.wav,0,0,362,21,5,Chinese,m,9,0.9,48.39030237,0.69158189
ZZX,63,1,2024-06-13T15:31:54.867Z,english_314.wav,0,0,362,21,5,Chinese,m,10,1,-45.26638295,0.28421865
ZZX,63,1,2024-06-13T15:31:54.867Z,english_314.wav,0,0,362,21,5,Chinese,m,11,1.09391667,-45.55554074,1.42591163
ZZX,64,1,2024-06-13T15:31:54.867Z,english_732.wav,0,0,380,21,5,Chinese,m,0,0,-6.1655518,1.83743041
ZZX,64,1,2024-06-13T15:31:54.867Z,english_732.wav,0,0,380,21,5,Chinese,m,1,0.1,-21.68268247,0.45034165
ZZX,64,1,2024-06-13T15:31:54.867Z,english_732.wav,0,0,380,21,5,Chinese,m,2,0.2,-44.18505393,1.43977044
ZZX,64,1,2024-06-13T15:31:54.867Z,english_732.wav,0,0,380,21,5,Chinese,m,3,0.3,-99.08787178,1.63276402
ZZX,64,1,2024-06-13T15:31:54.867Z,english_732.wav,0,0,380,21,5,Chinese,m,4,0.4,52.69419041,1.14410498
ZZX,64,1,2024-06-13T15:31:54.867Z,english_732.wav,0,0,380,21,5,Chinese,m,5,0.5,-22.76801282,0.80499942
ZZX,64,1,2024-06-13T15:31:54.867Z,english_732.wav,0,0,380,21,5,Chinese,m,6,0.6,-68.37024344,0.00488355
ZZX,64,1,2024-06-13T15:31:54.867Z,english_732.wav,0,0,380,21,5,Chinese,m,7,0.7,99.79862575,1.08087267
ZZX,64,1,2024-06-13T15:31:54.867Z,english_732.wav,0,0,380,21,5,Chinese,m,8,0.8,-45.96985204,0.60546967
ZZX,64,1,2024-06-13T15:31:54.867Z,english_732.wav,0,0,380,21,5,Chinese,m,9,0.9,34.4904792,1.53964006
ZZX,64,1,2024-06-13T15:31:54.867Z,english_732.wav,0,0,380,21,5,Chinese,m,10,1,-81.20928849,0.59388625
ZZX,64,1,2024-06-13T15:31:54.867Z,english_732.wav,0,0,380,21,5,Chinese,m,11,1.09391667,-1.26617119,1.72169188
ZZX,65,1,2024-06-13T15:31:54.867Z,english_228.wav,0,0,423,21,5,Chinese,m,0,0,-38.62058952,0.59116431
ZZX,65,1,2024-06-13T15:31:54.867Z,english_228.wav,0,0,423,21,5,Chinese,m,1,0.1,-18.01789453,0.00203405
ZZX,65,1,2024-06-13T15:31:54.867Z,english_228.wav,0,0,423,21,5,Chinese,m,2,0.2,-19.29810377,1.35615651
ZZX,65,1,2024-06-13T15:31:54.867Z,english_228.wav,0,0,423,21,5,Chinese,m,3,0.3,49.99042802,0.81421447
ZZX,65,1,2024-06-13T15:31:54.867Z,english_228.wav,0,0,423,21,5,Chinese,m,4,0.4,-38.68486719,0.65993526
ZZX,65,1,2024-06-13T15:31:54.867Z,english_228.wav,0,0,423,21,5,Chinese,m,5,0.5,47.61187018,1.77351482
ZZX,65,1,2024-06-13T15:31:54.867Z,english_228.wav,0,0,423,21,5,Chinese,m,6,0.6,-2.33725159,0.42798731
ZZX,65,1,2024-06-13T15:31:54.867Z,english_228.wav,0,0,423,21,5,Chinese,m,7,0.7,-44.85879225,1.42146574
ZZX,65,1,2024-06-13T15:31:54.867Z,english_228.wav,0,0,423,21,5,Chinese,m,8,0.8,-68.19671619,0.06445784
ZZX,65,1,2024-06-13T15:31:54.867Z,english_228.wav,0,0,423,21,5,Chinese,m,9,0.9,-17.76633123,0.43648336
ZZX,65,1,2024-06-13T15:31:54.867Z,english_228.wav,0,0,423,21,5,Chinese,m,10,1,14.76745117,0.26323344
ZZX,65,1,2024-06-13T15:31:54.867Z,english_228.wav,0,0,423,21,5,Chinese,m,11,1.09391667,22.84836671,0.30524069
ZZX,66,1,2024-06-13T15:46:17.794Z,english_928.wav,0,0,949,21,5,Chinese,m,0,0,10.59611368,0.70098124
ZZX,66,1,2024-06-13T15:46:17.794Z,english_928.wav,0,0,949,21,5,Chinese,m,1,0.1,-58.33970814,0.81482125
ZZX,66,1,2024-06-13T15:46:17.794Z,english_928.wav,0,0,949,21,5,Chinese,m,2,0.2,48.21332553,0.85809581
ZZX,66,1,2024-06-13T15:46:17.794Z,english_928.wav,0,0,949,21,5,Chinese,m,3,0.3,8.01473442,1.28695487
ZZX,66,1,2024-06-13T15:46:17.794Z,english_928.wav,0,0,949,21,5,Chinese,m,4,0.4,1.23446692,0.84694823
ZZX,66,1,2024-06-13T15:46:17.794Z,english_928.wav,0,0,949,21,5,Chinese,m,5,0.5,75.4888235,0.86088631
ZZX,66,1,2024-06-13T15:46:17.794Z,english_928.wav,0,0,949,21,5,Chinese,m,6,0.6,-71.96113636,0.91068844
ZZX,66,1,2024-06-13T15:46:17.794Z,english_928.wav,0,0,949,21,5,Chinese,m,7,0.7,-73.39552856,1.800813
ZZX,66,1,2024-06-13T15:46:17.794Z,english_928.wav,0,0,949,21,5,Chinese,m,8,0.8,-33.53378549,0.14082097
ZZX,66,1,2024-06-13T15:46:17.794Z,english_928.wav,0,0,949,21,5,Chinese,m,9,0.9,1.07873632,0.95279098
ZZX,66,1,2024-06-13T15:46:17.794Z,english_928.wav,0,0,949,21,5,Chinese,m,10,1,58.06405964,0.96841151
ZZX,66,1,2024-06-13T15:46:17.794Z,english_928.wav,0,0,949,21,5,Chinese,m,11,1.09391667,15.92112733,0.90966091
ZZX,67,1,2024-06-13T15:46:17.794Z,english_71.wav,0,0,506,21,5,Chinese,m,0,0,30.10636139,0.62946654
ZZX,67,1,2024-06-13T15:46:17.794Z,english_71.wav,0,0,506,21,5,Chinese,m,1,0.1,3.0816021,1.50453007
ZZX,67,1,2024-06-13T15:46:17.794Z,english_71.wav,0,0,506,21,5,Chinese,m,2,0.2,66.18138618,0.98046708
ZZX,67,1,2024-06-13T15:46:17.794Z,english_71.wav,0,0,506,21,5,Chinese,m,3,0.3,48.30744502,0.69034505
ZZX,67,1,2024-06-13T15:46:17.794Z,english_71.wav,0,0,506,21,5,Chinese,m,4,0.4,76.92572471,0.92028911
ZZX,67,1,2024-06-13T15:46:17.794Z,english_71.wav,0,0,506,21,5,Chinese,m,5,0.5,-25.53426936,0.29314993
ZZX,67,1,2024-06-13T15:46:17.794Z,english_71.wav,0,0,506,21,5,Chinese,m,6,0.6,50.68511548,0.30848008
ZZX,67,1,2024-06-13T15:46:17.794Z,english_71.wav,0,0,506,21,5,Chinese,m,7,0.7,-55.42199264,0.91569305
ZZX,67,1,2024-06-13T15:46:17.794Z,english_71.wav,0,0,506,21,5,Chinese,m,8,0.8,-37.57822881,1.44666992
ZZX,67,1,2024-06-13T15:46:17.794Z,english_71.wav,0,0,506,21,5,Chinese,m,9,0.9,93.39435099,1.1812526
ZZX,67,1,2024-06-13T15:46:17.794Z,english_71.wav,0,0,506,21,5,Chinese,m,10,1,84.87822391,0.81790169
ZZX,67,1,2024-06-13T15:46:17.794Z,english_71.wav,0,0,506,21,5,Chinese,m,11,1.09391667,-75.5815668,1.06314532
ZZX,68,1,2024-06-13T15:46:17.794Z,english_768.wav,0,0,423,21,5,Chinese,m,0,0,-36.48023157,0.55176247
ZZX,68,1,2024-06-13T15:46:17.794Z,english_768.wav,0,0,423,21,5,Chinese,m,1,0.1,-17.61338817,1.65861302
ZZX,68,1,2024-06-13T15:46:17.794Z,english_768.wav,0,0,423,21,5,Chinese,m,2,0.2,-51.57524938,0.62782429
ZZX,68,1,2024-06-13T15:46:17.794Z,english_768.wav,0,0,423,21,5,Chinese,m,3,0.3,-57.67169634,1.15733197
ZZX,68,1,2024-06-13T15:46:17.794Z,english_768.wav,0,0,423,21,5,Chinese,m,4,0.4,-45.04246972,0.58074534
ZZX,68,1,2024-06-13T15:46:17.794Z,english_768.wav,0,0,423,21,5,Chinese,m,5,0.5,86.8588591,1.30969463
ZZX,68,1,2024-06-13T15:46:17.794Z,english_768.wav,0,0,423,21,5,Chinese,m,6,0.6,-19.62051646,1.74894393
ZZX,68,1,2024-06-13T15:46:17.794Z,english_768.wav,0,0,423,21,5,Chinese,m,7,0.7,60.7133964,1.23441546
ZZX,68,1,2024-06-13T15:46:17.794Z,english_768.wav,0,0,423,21,5,Chinese,m,8,0.8,52.81660848,1.13072786
ZZX,68,1,2024-06-13T15:46:17.794Z,english_768.wav,0,0,423,21,5,Chinese,m,9,0.9,-71.2236391,0.61655986
ZZX,68,1,2024-06-13T15:46:17.794Z,english_768.wav,0,0,423,21,5,Chinese,m,10,1,-61.78017138,0.77540725
ZZX,68,1,2024-06-13T15:46:17.794Z,english_768.wav,0,0,423,21,5,Chinese,m,11,1.09391667,-60.86782653,0.19180019
ZZX,69,1,2024-06-13T15:46:17.794Z,english_61.wav,0,0,525,21,5,Chinese,m,0,0,-76.31366774,1.15675845
ZZX,69,1,2024-06-13T15:46:17.794Z,english_61.wav,0,0,525,21,5,Chinese,m,1,0.1,-70.32577527,0.79511083
ZZX,69,1,2024-06-13T15:46:17.794Z,english_61.wav,0,0,525,21,5,Chinese,m,2,0.2,5.13466316,0.40451227
ZZX,69,1,2024-06-13T15:46:17.794Z,english_61.wav,0,0,525,21,5,Chinese,m,3,0.3,37.00830294,0.79487484
ZZX,69,1,2024-06-13T15:46:17.794Z,english_61.wav,0,0,525,21,5,Chinese,m,4,0.4,-11.73068973,0.44483697
ZZX,69,1,2024-06-13T15:46:17.794Z,english_61.wav,0,0,525,21,5,Chinese,m,5,0.5,91.45109603,0.84603206
ZZX,69,1,2024-06-13T15:46:17.794Z,english_61.wav,0,0,525,21,5,Chinese,m,6,0.6,11.9601718,0.8090615
ZZX,69,1,2024-06-13T15:46:17.794Z,english_61.wav,0,0,525,21,5,Chinese,m,7,0.7,-66.7573243,1.09438885
ZZX,69,1,2024-06-13T15:46:17.794Z,english_61.wav,0,0,525,21,5,Chinese,m,8,0.8,78.73702917,1.14041124
ZZX,69,1,2024-06-13T15:46:17.794Z,english_61.wav,0,0,525,21,5,Chinese,m,9,0.9,61.80688515,0.39248564
ZZX,69,1,2024-06-13T15:46:17.794Z,english_61.wav,0,0,525,21,5,Chinese,m,10,1,-73.85845523,1.77720472
ZZX,69,1,2024-06-13T15:46:17.794Z,english_61.wav,0,0,525,21,5,Chinese,m,11,1.09391667,-24.76259921,1.29259789
ZZX,70,1,2024-06-13T15:46:17.794Z,english_255.wav,0,0,270,21,5,Chinese,m,0,0,94.72265592,1.19967406
ZZX,70,1,2024-06-13T15:46:17.794Z,english_255.wav,0,0,270,21,5,Chinese,m,1,0.1,1.10845293,1.25035485
ZZX,70,1,2024-06-13T15:46:17.794Z,english_255.wav,0,0,270,21,5,Chinese,m,2,0.2,-1.90413972,1.85398204
ZZX,70,1,2024-06-13T15:46:17.794Z,english_255.wav,0,0,270,21,5,Chinese,m,3,0.3,-45.9655603,0.56259094
ZZX,70,1,2024-06-13T15:46:17.794Z,english_255.wav,0,0,270,21,5,Chinese,m,4,0.4,-6.89013944,1.07948955
ZZX,70,1,2024-06-13T15:46:17.794Z,english_255.wav,0,0,270,21,5,Chinese,m,5,0.5,3.45085104,0.7328114
ZZX,70,1,2024-06-13T15:46:17.794Z,english_255.wav,0,0,270,21,5,Chinese,m,6,0.6,-68.66949423,0.49197221
ZZX,70,1,2024-06-13T15:46:17.794Z,english_255.wav,0,0,270,21,5,Chinese,m,7,0.7,-22.56077648,1.14850602
ZZX,70,1,2024-06-13T15:46:17.794Z,english_255.wav,0,0,270,21,5,Chinese,m,8,0.8,-32.1394332,1.46654584
ZZX,70,1,2024-06-13T15:46:17.794Z,english_255.wav,0,0,270,21,5,Chinese,m,9,0.9,56.48595448,0.34163334
ZZX,70,1,2024-06-13T15:46:17.794Z,english_255.wav,0,0,270,21,5,Chinese,m,10,1,-33.08950479,0.52219351
ZZX,70,1,2024-06-13T15:46:17.794Z,english_255.wav,0,0,270,21,5,Chinese,m,11,1.09391667,55.58931482,1.18693331
ZZX,71,1,2024-06-13T15:46:17.794Z,english_225.wav,0,1,735,21,5,Chinese,m,0,0,-44.18539546,0.94661558
ZZX,71,1,2024-06-13T15:46:17.794Z,english_225.wav,0,1,735,21,5,Chinese,m,1,0.1,98.45836914,0.50305164
ZZX,71,1,2024-06-13T15:46:17.794Z,english_225.wav,0,1,735,21,5,Chinese,m,2,0.2,-29.25134998,0.27788422
ZZX,71,1,2024-06-13T15:46:17.794Z,english_225.wav,0,1,735,21,5,Chinese,m,3,0.3,3.09020259,0.91972932
ZZX,71,1,2024-06-13T15:46:17.794Z,english_225.wav,0,1,735,21,5,Chinese,m,4,0.4,-47.25747067,1.19561164
ZZX,71,1,2024-06-13T15:46:17.794Z,english_225.wav,0,1,735,21,5,Chinese,m,5,0.5,-56.49635783,1.34544194
ZZX,71,1,2024-06-13T15:46:17.794Z,english_225.wav,0,1,735,21,5,Chinese,m,6,0.6,-4.90331194,0.16377231
ZZX,71,1,2024-06-13T15:46:17.794Z,english_225.wav,0,1,735,21,5,Chinese,m,7,0.7,46.68398305,1.35188114
ZZX,71,1,2024-06-13T15:46:17.794Z,english_225.wav,0,1,735,21,5,Chinese,m,8,0.8,6.9824473,1.88786979
ZZX,71,1,2024-06-13T15:46:17.794Z,english_225.wav,0,1,735,21,5,Chinese,m,9,0.9,66.07062576,1.27635088
ZZX,71,1,2024-06-13T15:46:17.794Z,english_225.wav,0,1,735,21,5,Chinese,m,10,1,-46.91429175,1.3192813
ZZX,71,1,2024-06-13T15:46:17.794Z,english_225.wav,0,1,735,21,5,Chinese,m,11,1.09391667,-70.62927251,0.77732241
ZZX,72,1,2024-06-13T15:46:17.794Z,english_311.wav,0,1,973,21,5,Chinese,m,0,0,64.66080996,0.82460416
ZZX,72,1,2024-06-13T15:46:17.794Z,english_311.wav,0,1,973,21,5,Chinese,m,1,0.1,-69.02575999,0.36483522
ZZX,72,1,2024-06-13T15:46:17.794Z,english_311.wav,0,1,973,21,5,Chinese,m,2,0.2,-67.68739859,0.7494254
ZZX,72,1,2024-06-13T15:46:17.794Z,english_311.wav,0,1,973,21,5,Chinese,m,3,0.3,44.13725608,0.5130867
ZZX,72,1,2024-06-13T15:46:17.794Z,english_311.wav,0,1,973,21,5,Chinese,m,4,0.4,93.17105676,0.37208425
ZZX,72,1,2024-06-13T15:46:17.794Z,english_311.wav,0,1,973,21,5,Chinese,m,5,0.5,84.82973528,1.19695655
ZZX,72,1,2024-06-13T15:46:17.794Z,english_311.wav,0,1,973,21,5,Chinese,m,6,0.6,-34.91706274,0.97358849
ZZX,72,1,2024-06-13T15:46:17.794Z,english_311.wav,0,1,973,21,5,Chinese,m,7,0.7,-93.26420788,1.42777336
ZZX,72,1,2024-06-13T15:46:17.794Z,english_311.wav,0,1,973,21,5,Chinese,m,8,0.8,78.86658017,1.14684196
ZZX,72,1,2024-06-13T15:46:17.794Z,english_311.wav,0,1,973,21,5,Chinese,m,9,0.9,-56.88823021,0.88829321
ZZX,72,1,2024-06-13T15:46:17.794Z,english_311.wav,0,1,973,21,5,Chinese,m,10,1,16.33779759,0.74783525
ZZX,72,1,2024-06-13T15:46:17.794Z,english_311.wav,0,1,973,21,5,Chinese,m,11,1.09391667,54.14062415,1.42501308
ZZX,73,1,2024-06-13T15:46:17.794Z,english_572.wav,0,0,269,21,5,Chinese,m,0,0,74.87847498,0.12348508
ZZX,73,1,2024-06-13T15:46:17.794Z,english_572.wav,0,0,269,21,5,Chinese,m,1,0.1,-39.37509685,1.01129589
ZZX,73,1,2024-06-13T15:46:17.794Z,english_572.wav,0,0,269,21,5,Chinese,m,2,0.2,46.07522777,0.14453867
ZZX,73,1,2024-06-13T15:46:17.794Z,english_572.wav,0,0,269,21,5,Chinese,m,3,0.3,-26.59086479,0.66439835
ZZX,73,1,2024-06-13T15:46:17.794Z,english_572.wav,0,0,269,21,5,Chinese,m,4,0.4,-83.61712333,0.40930176
ZZX,73,1,2024-06-13T15:46:17.794Z,english_572.wav,0,0,269,21,5,Chinese,m,5,0.5,51.69873735,1.64421854
ZZX,73,1,2024-06-13T15:46:17.794Z,english_572.wav,0,0,269,21,5,Chinese,m,6,0.6,-66.29925424,1.67109861
ZZX,73,1,2024-06-13T15:46:17.794Z,english_572.wav,0,0,269,21,5,Chinese,m,7,0.7,-30.03465624,1.00053383
ZZX,73,1,2024-06-13T15:46:17.794Z,english_572.wav,0,0,269,21,5,Chinese,m,8,0.8,22.82757365,0.68839219
ZZX,73,1,2024-06-13T15:46:17.794Z,english_572.wav,0,0,269,21,5,Chinese,m,9,0.9,-30.60936999,0.08113885
ZZX,73,1,2024-06-13T15:46:17.794Z,english_572.wav,0,0,269,21,5,Chinese,m,10,1,-46.60182678,0.16383696
ZZX,73,1,2024-06-13T15:46:17.794Z,english_572.wav,0,0,269,21,5,Chinese,m,11,1.09391667,37.1532128,0.71948729
ZZX,74,1,2024-06-13T15:46:17.794Z,english_892.wav,0,0,699,21,5,Chinese,m,0,0,-38.86767844,1.06552273
ZZX,74,1,2024-06-13T15:46:17.794Z,english_892.wav,0,0,699,21,5,Chinese,m,1,0.1,29.31331075,1.21891825
ZZX,74,1,2024-06-13T15:46:17.794Z,english_892.wav,0,0,699,21,5,Chinese,m,2,0.2,37.64120423,0.29574975
ZZX,74,1,2024-06-13T15:46:17.794Z,english_892.wav,0,0,699,21,5,Chinese,m,3,0.3,25.96997634,0.59708479
ZZX,74,1,2024-06-13T15:46:17.794Z,english_892.wav,0,0,699,21,5,Chinese,m,4,0.4,25.06772021,1.90102073
ZZX,74,1,2024-06-13T15:46:17.794Z,english_892.wav,0,0,699,21,5,Chinese,m,5,0.5,19.15395825,0.08656429
ZZX,74,1,2024-06-13T15:46:17.794Z,english_892.wav,0,0,699,21,5,Chinese,m,6,0.6,96.7473058,1.91022134
ZZX,74,1,2024-06-13T15:46:17.794Z,english_892.wav,0,0,699,21,5,Chinese,m,7,0.7,-43.25342834,0.18523015
ZZX,74,1,2024-06-13T15:46:17.794Z,english_892.wav,0,0,699,21,5,Chinese,m,8,0.8,-30.92807771,0.17424813
ZZX,74,1,2024-06-13T15:46:17.794Z,english_892.wav,0,0,699,21,5,Chinese,m,9,0.9,-18.81814059,1.10584125
ZZX,74,1,2024-06-13T15:46:17.794Z,english_892.wav,0,0,699,21,5,Chinese,m,10,1,21.2135068,1.16786025
ZZX,74,1,2024-06-13T15:46:17.794Z,english_892.wav,0,0,699,21,5,Chinese,m,11,1.09391667,36.95597597,1.53062308
ZZX,75,1,2024-06-13T15:46:17.794Z,english_581.wav,0,0,270,21,5,Chinese,m,0,0,73.66932606,1.55016183
ZZX,75,1,2024-06-13T15:46:17.794Z,english_581.wav,0,0,270,21,5,Chinese,m,1,0.1,-66.94779644,0.89838662
ZZX,75,1,2024-06-13T15:46:17.794Z,english_581.wav,0,0,270,21,5,Chinese,m,2,0.2,17.54153331,0.42808685
ZZX,75,1,2024-06-13T15:46:17.794Z,english_581.wav,0,0,270,21,5,Chinese,m,3,0.3,-33.4804178,0.92207517
ZZX,75,1,2024-06-13T15:46:17.794Z,english_581.wav,0,0,270,21,5,Chinese,m,4,0.4,-75.87348007,0.40201435
ZZX,75,1,2024-06-13T15:46:17.794Z,english_581.wav,0,0,270,21,5,Chinese,m,5,0.5,-19.3699166,0.78725452
ZZX,75,1,2024-06-13T15:46:17.794Z,english_581.wav,0,0,270,21,5,Chinese,m,6,0.6,44.64649322,0.99552959
ZZX,75,1,2024-06-13T15:46:17.794Z,english_581.wav,0,0,270,21,5,Chinese,m,7,0.7,49.72085551,1.64481575
ZZX,75,1,2024-06-13T15:46:17.794Z,english_581.wav,0,0,270,21,5,Chinese,m,8,0.8,-60.52101801,1.59282789
ZZX,75,1,2024-06-13T15:46:17.794Z,english_581.wav,0,0,270,21,5,Chinese,m,9,0.9,-63.98249467,0.98679066
ZZX,75,1,2024-06-13T15:46:17.794Z,english_581.wav,0,0,270,21,5,Chinese,m,10,1,-38.32664081,1.29384626
ZZX,75,1,2024-06-13T15:46:17.794Z,english_581.wav,0,0,270,21,5,Chinese,m,11,1.09391667,93.53202253,1.70769846
ZZX,76,1,2024-06-13T15:46:17.794Z,english_37.wav,0,0,398,21,5,Chinese,m,0,0,68.40782596,0.52957209
ZZX,76,1,2024-06-13T15:46:17.794Z,english_37.wav,0,0,398,21,5,Chinese,m,1,0.1,41.58379148,1.67320718
ZZX,76,1,2024-06-13T15:46:17.794Z,english_37.wav,0,0,398,21,5,Chinese,m,2,0.2,63.04378759,1.31144487
ZZX,76,1,2024-06-13T15:46:17.794Z,english_37.wav,0,0,398,21,5,Chinese,m,3,0.3,12.39470235,1.11254506
ZZX,76,1,2024-06-13T15:46:17.794Z,english_37.wav,0,0,398,21,5,Chinese,m,4,0.4,-38.69600303,0.57972705
ZZX,76,1,2024-06-13T15:46:17.794Z,english_37.wav,0,0,398,21,5,Chinese,m,5,0.5,-51.98957982,0.30651039
ZZX,76,1,2024-06-13T15:46:17.794Z,english_37.wav,0,0,398,21,5,Chinese,m,6,0.6,90.7945682,0.45858619
ZZX,76,1,2024-06-13T15:46:17.794Z,english_37.wav,0,0,398,21,5,Chinese,m,7,0.7,40.67115675,1.55641423
ZZX,76,1,2024-06-13T15:46:17.794Z,english_37.wav,0,0,398,21,5,Chinese,m,8,0.8,34.01498334,1.01642962
ZZX,76,1,2024-06-13T15:46:17.794Z,english_37.wav,0,0,398,21,5,Chinese,m,9,0.9,-88.26662934,0.95850402
ZZX,76,1,2024-06-13T15:46:17.794Z,english_37.wav,0,0,398,21,5,Chinese,m,10,1,-41.35685221,0.70833558
ZZX,76,1,2024-06-13T15:46:17.794Z,english_37.wav,0,0,398,21,5,Chinese,m,11,1.09391667,-27.43470179,0.55678167
ZZX,77,1,2024-06-13T15:49:38.730Z,english_676.wav,0,1,839,21,5,Chinese,m,0,0,77.23951032,1.33259474
ZZX,77,1,2024-06-13T15:49:38.730Z,english_676.wav,0,1,839,21,5,Chinese,m,1,0.1,27.47427545,0.90028372
ZZX,77,1,2024-06-13T15:49:38.730Z,english_676.wav,0,1,839,21,5,Chinese,m,2,0.2,92.07370265,1.66717955
ZZX,77,1,2024-06-13T15:49:38.730Z,english_676.wav,0,1,839,21,5,Chinese,m,3,0.3,-39.62602007,0.42158585
ZZX,77,1,2024-06-13T15:49:38.730Z,english_676.wav,0,1,839,21,5,Chinese,m,4,0.4,-81.22107243,1.7878255
ZZX,77,1,2024-06-13T15:49:38.730Z,english_676.wav,0,1,839,21,5,Chinese,m,5,0.5,-99.04707649,1.33780608
ZZX,77,1,2024-06-13T15:49:38.730Z,english_676.wav,0,1,839,21,5,Chinese,m,6,0.6,-64.5180536,0.94548991
ZZX,77,1,2024-06-13T15:49:38.730Z,english_676.wav,0,1,839,21,5,Chinese,m,7,0.7,91.29392748,1.43207041
ZZX,77,1,2024-06-13T15:49:38.730Z,english_676.wav,0,1,839,21,5,Chinese,m,8,0.8,97.8635705,1.03085722
ZZX,77,1,2024-06-13T15:49:38.730Z,english_676.wav,0,1,839,21,5,Chinese,m,9,0.9,-84.2423741,0.34895699
ZZX,77,1,2024-06-13T15:49:38.730Z,english_676.wav,0,1,839,21,5,Chinese,m,10,1,-76.68596269,0.83720355
ZZX,77,1,2024-06-13T15:49:38.730Z,english_676.wav,0,1,839,21,5,Chinese,m,11,1.09391667,65.10857552,1.31764415
ZZX,78,1,2024-06-13T15:50:36.047Z,english_590.wav,0,0,252,21,5,Chinese,m,0,0,24.53986414,1.78897409
ZZX,78,1,2024-06-13T15:50:36.047Z,english_590.wav,0,0,252,21,5,Chinese,m,1,0.1,62.74729121,1.71743114
ZZX,78,1,2024-06-13T15:50:36.047Z,english_590.wav,0,0,252,21,5,Chinese,m,2,0.2,-6.99692864,1.45844579
ZZX,78,1,2024-06-13T15:50:36.047Z,english_590.wav,0,0,252,21,5,Chinese,m,3,0.3,32.91070415,0.05079794
ZZX,78,1,2024-06-13T15:50:36.047Z,english_590.wav,0,0,252,21,5,Chinese,m,4,0.4,54.80975448,1.44685897
ZZX,78,1,2024-06-13T15:50:36.047Z,english_590.wav,0,0,252,21,5,Chinese,m,5,0.5,24.32530029,0.6322235
ZZX,78,1,2024-06-13T15:50:36.047Z,english_590.wav,0,0,252,21,5,Chinese,m,6,0.6,16.29432048,1.01805408
ZZX,78,1,2024-06-13T15:50:36.047Z,english_590.wav,0,0,252,21,5,Chinese,m,7,0.7,-66.06817006,0.32502854
ZZX,78,1,2024-06-13T15:50:36.047Z,english_590.wav,0,0,252,21,5,Chinese,m,8,0.8,-90.96676801,1.20600442
ZZX,78,1,2024-06-13T15:50:36.047Z,english_590.wav,0,0,252,21,5,Chinese,m,9,0.9,-4.67977612,0.69143843
ZZX,78,1,2024-06-13T15:50:36.047Z,english_590.wav,0,0,252,21,5,Chinese,m,10,1,-25.79105575,0.12523546
ZZX,78,1,2024-06-13T15:50:36.047Z,english_590.wav,0,0,252,21,5,Chinese,m,11,1.09391667,-43.70584136,1.95537842
ZZX,79,1,2024-06-13T15:50:36.047Z,english_557.wav,0,0,464,21,5,Chinese,m,0,0,-36.00437951,0.86268568
ZZX,79,1,2024-06-13T15:50:36.047Z,english_557.wav,0,0,464,21,5,Chinese,m,1,0.1,-36.18192477,0.78818346
ZZX,79,1,2024-06-13T15:50:36.047Z,english_557.wav,0,0,464,21,5,Chinese,m,2,0.2,-76.46214854,0.88104775
ZZX,79,1,2024-06-13T15:50:36.047Z,english_557.wav,0,0,464,21,5,Chinese,m,3,0.3,-9.78546514,0.51957323
ZZX,79,1,2024-06-13T15:50:36.047Z,english_557.wav,0,0,464,21,5,Chinese,m,4,0.4,-53.27937245,1.84624381
ZZX,79,1,2024-06-13T15:50:36.047Z,english_557.wav,0,0,464,21,5,Chinese,m,5,0.5,14.69737181,0.53524469
ZZX,79,1,2024-06-13T15:50:36.047Z,english_557.wav,0,0,464,21,5,Chinese,m,6,0.6,-76.22217722,0.83895898
ZZX,79,1,2024-06-13T15:50:36.047Z,english_557.wav,0,0,464,21,5,Chinese,m,7,0.7,76.26393568,0.4548877
ZZX,79,1,2024-06-13T15:50:36.047Z,english_557.wav,0,0,464,21,5,Chinese,m,8,0.8,-62.02007028,1.59917341
ZZX,79,1,2024-06-13T15:50:36.047Z,english_557.wav,0,0,464,21,5,Chinese,m,9,0.9,73.18804903,0.63690232
ZZX,79,1,2024-06-13T15:50:36.047Z,english_557.wav,0,0,464,21,5,Chinese,m,10,1,75.91755358,1.04600017
ZZX,79,1,2024-06-13T15:50:36.047Z,english_557.wav,0,0,464,21,5,Chinese,m,11,1.09391667,-37.39944408,0.42796411
ZZX,80,1,2024-06-13T15:50:36.047Z,english_923.wav,0,0,316,21,5,Chinese,m,0,0,93.2289474,1.70020423
ZZX,80,1,2024-06-13T15:50:36.047Z,english_923.wav,0,0,316,21,5,Chinese,m,1,0.1,-90.20705496,1.01222006
ZZX,80,1,2024-06-13T15:50:36.047Z,english_923.wav,0,0,316,21,5,Chinese,m,2,0.2,-39.60180218,0.78975297
ZZX,80,1,2024-06-13T15:50:36.047Z,english_923.wav,0,0,316,21,5,Chinese,m,3,0.3,80.82184167,0.55346402
ZZX,80,1,2024-06-13T15:50:36.047Z,english_923.wav,0,0,316,21,5,Chinese,m,4,0.4,-9.151808,0.82944294
ZZX,80,1,2024-06-13T15:50:36.047Z,english_923.wav,0,0,316,21,5,Chinese,m,5,0.5,26.58775585,1.08031611
ZZX,80,1,2024-06-13T15:50:36.047Z,english_923.wav,0,0,316,21,5,Chinese,m,6,0.6,6.23734234,0.85830077
ZZX,80,1,2024-06-13T15:50:36.047Z,english_923.wav,0,0,316,21,5,Chinese,m,7,0.7,72.65407882,1.16981472
ZZX,80,1,2024-06-13T15:50:36.047Z,english_923.wav,0,0,316,21,5,Chinese,m,8,0.8,-19.39856568,1.72430236
ZZX,80,1,2024-06-13T15:50:36.047Z,english_923.wav,0,0,316,21,5,Chinese,m,9,0.9,-78.04150402,0.87754791
ZZX,80,1,2024-06-13T15:50:36.047Z,english_923.wav,0,0,316,21,5,Chinese,m,10,1,32.81309653,1.2494211
