subj,trial,block,date,stim,stim_order,response,rt,age,english,language,sex,param_index,segment,pitch,stretch
Shay,0,0,2024-04-17T07:14:01.088Z,english_849.wav,0,0,8591,30,4,mandarin,f,0,0,3.14918828,0.91646938
Shay,0,0,2024-04-17T07:14:01.088Z,english_849.wav,0,0,8591,30,4,mandarin,f,1,0.1,-23.77765777,0.05935653
Shay,0,0,2024-04-17T07:14:01.088Z,english_849.wav,0,0,8591,30,4,mandarin,f,2,0.2,33.06216364,1.47739407
Shay,0,0,2024-04-17T07:14:01.088Z,english_849.wav,0,0,8591,30,4,mandarin,f,3,0.3,-62.11705981,0.33072981
Shay,0,0,2024-04-17T07:14:01.088Z,english_849.wav,0,0,8591,30,4,mandarin,f,4,0.4,7.17201603,0.11578877
Shay,0,0,2024-04-17T07:14:01.088Z,english_849.wav,0,0,8591,30,4,mandarin,f,5,0.5,-75.75571993,1.27391033
Shay,0,0,2024-04-17T07:14:01.088Z,english_849.wav,0,0,8591,30,4,mandarin,f,6,0.6,-11.73418988,0.32212457
Shay,0,0,2024-04-17T07:14:01.088Z,english_849.wav,0,0,8591,30,4,mandarin,f,7,0.7,-67.42384643,1.51956894
Shay,0,0,2024-04-17T07:14:01.088Z,english_849.wav,0,0,8591,30,4,mandarin,f,8,0.8,50.24136352,0.3318501
Shay,0,0,2024-04-17T07:14:01.088Z,english_849.wav,0,0,8591,30,4,mandarin,f,9,0.9,-60.42241677,0.78089197
Shay,0,0,2024-04-17T07:14:01.088Z,english_849.wav,0,0,8591,30,4,mandarin,f,10,1,70.30658547,0.6122717
Shay,0,0,2024-04-17T07:14:01.088Z,english_849.wav,0,0,8591,30,4,mandarin,f,11,1.09391667,-8.44903954,1.08036793
Shay,1,0,2024-04-17T07:14:01.088Z,english_817.wav,0,1,4952,30,4,mandarin,f,0,0,39.93653704,0.59804512
Shay,1,0,2024-04-17T07:14:01.088Z,english_817.wav,0,1,4952,30,4,mandarin,f,1,0.1,-44.37889142,1.22051814
Shay,1,0,2024-04-17T07:14:01.088Z,english_817.wav,0,1,4952,30,4,mandarin,f,2,0.2,-71.95009912,1.02272202
Shay,1,0,2024-04-17T07:14:01.088Z,english_817.wav,0,1,4952,30,4,mandarin,f,3,0.3,0.10723305,0.82768739
Shay,1,0,2024-04-17T07:14:01.088Z,english_817.wav,0,1,4952,30,4,mandarin,f,4,0.4,32.85070006,0.75023907
Shay,1,0,2024-04-17T07:14:01.088Z,english_817.wav,0,1,4952,30,4,mandarin,f,5,0.5,84.39314217,1.45571946
Shay,1,0,2024-04-17T07:14:01.088Z,english_817.wav,0,1,4952,30,4,mandarin,f,6,0.6,-27.64718927,1.19333558
Shay,1,0,2024-04-17T07:14:01.088Z,english_817.wav,0,1,4952,30,4,mandarin,f,7,0.7,-96.89614882,0.88124366
Shay,1,0,2024-04-17T07:14:01.088Z,english_817.wav,0,1,4952,30,4,mandarin,f,8,0.8,78.14592137,1.40555944
Shay,1,0,2024-04-17T07:14:01.088Z,english_817.wav,0,1,4952,30,4,mandarin,f,9,0.9,-23.71803159,0.40947716
Shay,1,0,2024-04-17T07:14:01.088Z,english_817.wav,0,1,4952,30,4,mandarin,f,10,1,-89.09326047,0.89036455
Shay,1,0,2024-04-17T07:14:01.088Z,english_817.wav,0,1,4952,30,4,mandarin,f,11,1.09391667,-7.75099391,1.8115698
Shay,2,0,2024-04-17T07:14:01.088Z,english_269.wav,0,0,2427,30,4,mandarin,f,0,0,-83.93501444,0.85151873
Shay,2,0,2024-04-17T07:14:01.088Z,english_269.wav,0,0,2427,30,4,mandarin,f,1,0.1,88.09879619,0.93284173
Shay,2,0,2024-04-17T07:14:01.088Z,english_269.wav,0,0,2427,30,4,mandarin,f,2,0.2,-88.94573115,0.56585091
Shay,2,0,2024-04-17T07:14:01.088Z,english_269.wav,0,0,2427,30,4,mandarin,f,3,0.3,-19.78587184,1.66708848
Shay,2,0,2024-04-17T07:14:01.088Z,english_269.wav,0,0,2427,30,4,mandarin,f,4,0.4,69.53650184,0.92160414
Shay,2,0,2024-04-17T07:14:01.088Z,english_269.wav,0,0,2427,30,4,mandarin,f,5,0.5,-12.80260332,0.96478354
Shay,2,0,2024-04-17T07:14:01.088Z,english_269.wav,0,0,2427,30,4,mandarin,f,6,0.6,37.86483682,0.12392918
Shay,2,0,2024-04-17T07:14:01.088Z,english_269.wav,0,0,2427,30,4,mandarin,f,7,0.7,20.748183,0.94784748
Shay,2,0,2024-04-17T07:14:01.088Z,english_269.wav,0,0,2427,30,4,mandarin,f,8,0.8,68.31338511,0.83939678
Shay,2,0,2024-04-17T07:14:01.088Z,english_269.wav,0,0,2427,30,4,mandarin,f,9,0.9,-95.26136032,1.67634699
Shay,2,0,2024-04-17T07:14:01.088Z,english_269.wav,0,0,2427,30,4,mandarin,f,10,1,60.98745535,1.66934281
Shay,2,0,2024-04-17T07:14:01.088Z,english_269.wav,0,0,2427,30,4,mandarin,f,11,1.09391667,-4.34526385,1.1076262
Shay,3,0,2024-04-17T07:14:01.088Z,english_563.wav,0,1,1282,30,4,mandarin,f,0,0,97.71228094,1.26204961
Shay,3,0,2024-04-17T07:14:01.088Z,english_563.wav,0,1,1282,30,4,mandarin,f,1,0.1,-46.61979444,1.17265915
Shay,3,0,2024-04-17T07:14:01.088Z,english_563.wav,0,1,1282,30,4,mandarin,f,2,0.2,2.79591849,0.73553811
Shay,3,0,2024-04-17T07:14:01.088Z,english_563.wav,0,1,1282,30,4,mandarin,f,3,0.3,-24.69974698,1.75222103
Shay,3,0,2024-04-17T07:14:01.088Z,english_563.wav,0,1,1282,30,4,mandarin,f,4,0.4,-33.21670204,1.16360082
Shay,3,0,2024-04-17T07:14:01.088Z,english_563.wav,0,1,1282,30,4,mandarin,f,5,0.5,-22.29161776,0.78496451
Shay,3,0,2024-04-17T07:14:01.088Z,english_563.wav,0,1,1282,30,4,mandarin,f,6,0.6,-9.78409371,0.25812971
Shay,3,0,2024-04-17T07:14:01.088Z,english_563.wav,0,1,1282,30,4,mandarin,f,7,0.7,22.41186375,1.68001513
Shay,3,0,2024-04-17T07:14:01.088Z,english_563.wav,0,1,1282,30,4,mandarin,f,8,0.8,-16.19600926,1.88614824
Shay,3,0,2024-04-17T07:14:01.088Z,english_563.wav,0,1,1282,30,4,mandarin,f,9,0.9,96.89254029,0.22022692
Shay,3,0,2024-04-17T07:14:01.088Z,english_563.wav,0,1,1282,30,4,mandarin,f,10,1,-8.68448167,0.44747932
Shay,3,0,2024-04-17T07:14:01.088Z,english_563.wav,0,1,1282,30,4,mandarin,f,11,1.09391667,22.23097911,1.70220981
Shay,4,0,2024-04-17T07:14:01.088Z,english_908.wav,0,0,16869,30,4,mandarin,f,0,0,79.90322555,1.59871196
Shay,4,0,2024-04-17T07:14:01.088Z,english_908.wav,0,0,16869,30,4,mandarin,f,1,0.1,-35.21263137,0.28479508
Shay,4,0,2024-04-17T07:14:01.088Z,english_908.wav,0,0,16869,30,4,mandarin,f,2,0.2,-45.3814443,1.09874794
Shay,4,0,2024-04-17T07:14:01.088Z,english_908.wav,0,0,16869,30,4,mandarin,f,3,0.3,27.76250809,0.00174433
Shay,4,0,2024-04-17T07:14:01.088Z,english_908.wav,0,0,16869,30,4,mandarin,f,4,0.4,88.9030614,0.67512833
Shay,4,0,2024-04-17T07:14:01.088Z,english_908.wav,0,0,16869,30,4,mandarin,f,5,0.5,-61.85553308,0.00194264
Shay,4,0,2024-04-17T07:14:01.088Z,english_908.wav,0,0,16869,30,4,mandarin,f,6,0.6,-81.1964681,0.8304753
Shay,4,0,2024-04-17T07:14:01.088Z,english_908.wav,0,0,16869,30,4,mandarin,f,7,0.7,5.34087676,1.28348369
Shay,4,0,2024-04-17T07:14:01.088Z,english_908.wav,0,0,16869,30,4,mandarin,f,8,0.8,54.78811936,0.55017108
Shay,4,0,2024-04-17T07:14:01.088Z,english_908.wav,0,0,16869,30,4,mandarin,f,9,0.9,-31.27071111,1.59638521
Shay,4,0,2024-04-17T07:14:01.088Z,english_908.wav,0,0,16869,30,4,mandarin,f,10,1,-53.95963771,1.63592826
Shay,4,0,2024-04-17T07:14:01.088Z,english_908.wav,0,0,16869,30,4,mandarin,f,11,1.09391667,80.48331988,1.14767612
Shay,5,0,2024-04-17T07:14:01.088Z,english_153.wav,0,1,2534,30,4,mandarin,f,0,0,-22.0137653,0.27160884
Shay,5,0,2024-04-17T07:14:01.088Z,english_153.wav,0,1,2534,30,4,mandarin,f,1,0.1,21.87420495,0.44150389
Shay,5,0,2024-04-17T07:14:01.088Z,english_153.wav,0,1,2534,30,4,mandarin,f,2,0.2,78.88032694,1.08191418
Shay,5,0,2024-04-17T07:14:01.088Z,english_153.wav,0,1,2534,30,4,mandarin,f,3,0.3,68.02596654,0.18142841
Shay,5,0,2024-04-17T07:14:01.088Z,english_153.wav,0,1,2534,30,4,mandarin,f,4,0.4,52.06150723,0.17455202
Shay,5,0,2024-04-17T07:14:01.088Z,english_153.wav,0,1,2534,30,4,mandarin,f,5,0.5,-15.64198183,1.88425449
Shay,5,0,2024-04-17T07:14:01.088Z,english_153.wav,0,1,2534,30,4,mandarin,f,6,0.6,-55.92218577,1.64687285
Shay,5,0,2024-04-17T07:14:01.088Z,english_153.wav,0,1,2534,30,4,mandarin,f,7,0.7,45.74926524,1.52678411
Shay,5,0,2024-04-17T07:14:01.088Z,english_153.wav,0,1,2534,30,4,mandarin,f,8,0.8,13.43145428,1.81629534
Shay,5,0,2024-04-17T07:14:01.088Z,english_153.wav,0,1,2534,30,4,mandarin,f,9,0.9,-40.59369693,0.8186826
Shay,5,0,2024-04-17T07:14:01.088Z,english_153.wav,0,1,2534,30,4,mandarin,f,10,1,14.2660924,0.36511419
Shay,5,0,2024-04-17T07:14:01.088Z,english_153.wav,0,1,2534,30,4,mandarin,f,11,1.09391667,62.05558257,1.38161287
Shay,6,0,2024-04-17T07:14:01.088Z,english_2.wav,0,0,1911,30,4,mandarin,f,0,0,41.22215969,0.59226954
Shay,6,0,2024-04-17T07:14:01.088Z,english_2.wav,0,0,1911,30,4,mandarin,f,1,0.1,63.4325041,1.70689004
Shay,6,0,2024-04-17T07:14:01.088Z,english_2.wav,0,0,1911,30,4,mandarin,f,2,0.2,30.26698033,1.70278764
Shay,6,0,2024-04-17T07:14:01.088Z,english_2.wav,0,0,1911,30,4,mandarin,f,3,0.3,-42.97414703,0.93211278
Shay,6,0,2024-04-17T07:14:01.088Z,english_2.wav,0,0,1911,30,4,mandarin,f,4,0.4,78.73420301,0.75985414
Shay,6,0,2024-04-17T07:14:01.088Z,english_2.wav,0,0,1911,30,4,mandarin,f,5,0.5,98.07294335,1.00279357
Shay,6,0,2024-04-17T07:14:01.088Z,english_2.wav,0,0,1911,30,4,mandarin,f,6,0.6,-11.43066233,1.68044469
Shay,6,0,2024-04-17T07:14:01.088Z,english_2.wav,0,0,1911,30,4,mandarin,f,7,0.7,98.59484661,1.4408376
Shay,6,0,2024-04-17T07:14:01.088Z,english_2.wav,0,0,1911,30,4,mandarin,f,8,0.8,5.98934189,0.34467269
Shay,6,0,2024-04-17T07:14:01.088Z,english_2.wav,0,0,1911,30,4,mandarin,f,9,0.9,12.71998757,0.3933307
Shay,6,0,2024-04-17T07:14:01.088Z,english_2.wav,0,0,1911,30,4,mandarin,f,10,1,80.81444137,0.30092676
Shay,6,0,2024-04-17T07:14:01.088Z,english_2.wav,0,0,1911,30,4,mandarin,f,11,1.09391667,-65.72418196,0.87599386
Shay,7,0,2024-04-17T07:14:01.088Z,english_228.wav,0,0,1792,30,4,mandarin,f,0,0,-38.62058952,0.59116431
Shay,7,0,2024-04-17T07:14:01.088Z,english_228.wav,0,0,1792,30,4,mandarin,f,1,0.1,-18.01789453,0.00203405
Shay,7,0,2024-04-17T07:14:01.088Z,english_228.wav,0,0,1792,30,4,mandarin,f,2,0.2,-19.29810377,1.35615651
Shay,7,0,2024-04-17T07:14:01.088Z,english_228.wav,0,0,1792,30,4,mandarin,f,3,0.3,49.99042802,0.81421447
Shay,7,0,2024-04-17T07:14:01.088Z,english_228.wav,0,0,1792,30,4,mandarin,f,4,0.4,-38.68486719,0.65993526
Shay,7,0,2024-04-17T07:14:01.088Z,english_228.wav,0,0,1792,30,4,mandarin,f,5,0.5,47.61187018,1.77351482
Shay,7,0,2024-04-17T07:14:01.088Z,english_228.wav,0,0,1792,30,4,mandarin,f,6,0.6,-2.33725159,0.42798731
Shay,7,0,2024-04-17T07:14:01.088Z,english_228.wav,0,0,1792,30,4,mandarin,f,7,0.7,-44.85879225,1.42146574
Shay,7,0,2024-04-17T07:14:01.088Z,english_228.wav,0,0,1792,30,4,mandarin,f,8,0.8,-68.19671619,0.06445784
Shay,7,0,2024-04-17T07:14:01.088Z,english_228.wav,0,0,1792,30,4,mandarin,f,9,0.9,-17.76633123,0.43648336
Shay,7,0,2024-04-17T07:14:01.088Z,english_228.wav,0,0,1792,30,4,mandarin,f,10,1,14.76745117,0.26323344
Shay,7,0,2024-04-17T07:14:01.088Z,english_228.wav,0,0,1792,30,4,mandarin,f,11,1.09391667,22.84836671,0.30524069
Shay,8,0,2024-04-17T07:14:01.088Z,english_35.wav,0,1,2852,30,4,mandarin,f,0,0,-33.2471352,0.63198815
Shay,8,0,2024-04-17T07:14:01.088Z,english_35.wav,0,1,2852,30,4,mandarin,f,1,0.1,-56.9991421,0.43394686
Shay,8,0,2024-04-17T07:14:01.088Z,english_35.wav,0,1,2852,30,4,mandarin,f,2,0.2,-53.141025,1.61809769
Shay,8,0,2024-04-17T07:14:01.088Z,english_35.wav,0,1,2852,30,4,mandarin,f,3,0.3,-97.470792,0.75167401
Shay,8,0,2024-04-17T07:14:01.088Z,english_35.wav,0,1,2852,30,4,mandarin,f,4,0.4,25.2422215,0.72143441
Shay,8,0,2024-04-17T07:14:01.088Z,english_35.wav,0,1,2852,30,4,mandarin,f,5,0.5,-39.0524292,1.49847169
Shay,8,0,2024-04-17T07:14:01.088Z,english_35.wav,0,1,2852,30,4,mandarin,f,6,0.6,-99.0462998,0.81761607
Shay,8,0,2024-04-17T07:14:01.088Z,english_35.wav,0,1,2852,30,4,mandarin,f,7,0.7,48.0059539,1.11392086
Shay,8,0,2024-04-17T07:14:01.088Z,english_35.wav,0,1,2852,30,4,mandarin,f,8,0.8,73.4220257,1.25690952
Shay,8,0,2024-04-17T07:14:01.088Z,english_35.wav,0,1,2852,30,4,mandarin,f,9,0.9,-41.814313,1.7324837
Shay,8,0,2024-04-17T07:14:01.088Z,english_35.wav,0,1,2852,30,4,mandarin,f,10,1,0.040670218,0.64426718
Shay,8,0,2024-04-17T07:14:01.088Z,english_35.wav,0,1,2852,30,4,mandarin,f,11,1.09391667,34.2858519,1.0286628
Shay,9,0,2024-04-17T07:14:01.088Z,english_896.wav,0,0,2766,30,4,mandarin,f,0,0,15.15197213,1.10343193
Shay,9,0,2024-04-17T07:14:01.088Z,english_896.wav,0,0,2766,30,4,mandarin,f,1,0.1,12.09834356,1.24784569
Shay,9,0,2024-04-17T07:14:01.088Z,english_896.wav,0,0,2766,30,4,mandarin,f,2,0.2,-98.90945178,0.69536812
Shay,9,0,2024-04-17T07:14:01.088Z,english_896.wav,0,0,2766,30,4,mandarin,f,3,0.3,-7.24132806,1.50082123
Shay,9,0,2024-04-17T07:14:01.088Z,english_896.wav,0,0,2766,30,4,mandarin,f,4,0.4,-22.04912785,1.78962455
Shay,9,0,2024-04-17T07:14:01.088Z,english_896.wav,0,0,2766,30,4,mandarin,f,5,0.5,53.27175302,0.59868421
Shay,9,0,2024-04-17T07:14:01.088Z,english_896.wav,0,0,2766,30,4,mandarin,f,6,0.6,18.92228417,1.36027969
Shay,9,0,2024-04-17T07:14:01.088Z,english_896.wav,0,0,2766,30,4,mandarin,f,7,0.7,65.4652164,1.44726147
Shay,9,0,2024-04-17T07:14:01.088Z,english_896.wav,0,0,2766,30,4,mandarin,f,8,0.8,51.91420072,1.08983894
Shay,9,0,2024-04-17T07:14:01.088Z,english_896.wav,0,0,2766,30,4,mandarin,f,9,0.9,20.23549525,0.07451316
Shay,9,0,2024-04-17T07:14:01.088Z,english_896.wav,0,0,2766,30,4,mandarin,f,10,1,-86.64191921,0.79077881
Shay,9,0,2024-04-17T07:14:01.088Z,english_896.wav,0,0,2766,30,4,mandarin,f,11,1.09391667,-62.9037571,1.64262615
Shay,10,0,2024-04-17T07:14:01.088Z,english_424.wav,0,0,2016,30,4,mandarin,f,0,0,-17.35907603,1.03823748
Shay,10,0,2024-04-17T07:14:01.088Z,english_424.wav,0,0,2016,30,4,mandarin,f,1,0.1,18.81369918,0.96868976
Shay,10,0,2024-04-17T07:14:01.088Z,english_424.wav,0,0,2016,30,4,mandarin,f,2,0.2,55.92500366,1.67797376
Shay,10,0,2024-04-17T07:14:01.088Z,english_424.wav,0,0,2016,30,4,mandarin,f,3,0.3,45.08785435,1.44469234
Shay,10,0,2024-04-17T07:14:01.088Z,english_424.wav,0,0,2016,30,4,mandarin,f,4,0.4,3.17174712,0.62957499
Shay,10,0,2024-04-17T07:14:01.088Z,english_424.wav,0,0,2016,30,4,mandarin,f,5,0.5,-30.69278374,1.7765397
Shay,10,0,2024-04-17T07:14:01.088Z,english_424.wav,0,0,2016,30,4,mandarin,f,6,0.6,41.43178992,1.27231114
Shay,10,0,2024-04-17T07:14:01.088Z,english_424.wav,0,0,2016,30,4,mandarin,f,7,0.7,-46.28602692,0.02713593
Shay,10,0,2024-04-17T07:14:01.088Z,english_424.wav,0,0,2016,30,4,mandarin,f,8,0.8,-38.81280045,0.44344556
Shay,10,0,2024-04-17T07:14:01.088Z,english_424.wav,0,0,2016,30,4,mandarin,f,9,0.9,-42.19882472,0.86812909
Shay,10,0,2024-04-17T07:14:01.088Z,english_424.wav,0,0,2016,30,4,mandarin,f,10,1,-88.98684391,1.07480581
Shay,10,0,2024-04-17T07:14:01.088Z,english_424.wav,0,0,2016,30,4,mandarin,f,11,1.09391667,-92.81820885,0.17756303
Shay,11,0,2024-04-17T07:14:01.088Z,english_428.wav,0,0,1108,30,4,mandarin,f,0,0,81.83092524,1.65195738
Shay,11,0,2024-04-17T07:14:01.088Z,english_428.wav,0,0,1108,30,4,mandarin,f,1,0.1,-80.13069751,1.50342219
Shay,11,0,2024-04-17T07:14:01.088Z,english_428.wav,0,0,1108,30,4,mandarin,f,2,0.2,-11.65632902,1.06152039
Shay,11,0,2024-04-17T07:14:01.088Z,english_428.wav,0,0,1108,30,4,mandarin,f,3,0.3,-46.08084266,0.87273268
Shay,11,0,2024-04-17T07:14:01.088Z,english_428.wav,0,0,1108,30,4,mandarin,f,4,0.4,3.29741478,1.30041173
Shay,11,0,2024-04-17T07:14:01.088Z,english_428.wav,0,0,1108,30,4,mandarin,f,5,0.5,38.2144639,1.27181021
Shay,11,0,2024-04-17T07:14:01.088Z,english_428.wav,0,0,1108,30,4,mandarin,f,6,0.6,-36.34649143,1.2829939
Shay,11,0,2024-04-17T07:14:01.088Z,english_428.wav,0,0,1108,30,4,mandarin,f,7,0.7,-64.94911042,0.80379216
Shay,11,0,2024-04-17T07:14:01.088Z,english_428.wav,0,0,1108,30,4,mandarin,f,8,0.8,55.28808141,0.54976242
Shay,11,0,2024-04-17T07:14:01.088Z,english_428.wav,0,0,1108,30,4,mandarin,f,9,0.9,-85.65631623,1.4846347
Shay,11,0,2024-04-17T07:14:01.088Z,english_428.wav,0,0,1108,30,4,mandarin,f,10,1,45.03584187,0.86531381
Shay,11,0,2024-04-17T07:14:01.088Z,english_428.wav,0,0,1108,30,4,mandarin,f,11,1.09391667,-22.28745039,0.63375774
Shay,12,0,2024-04-17T07:14:01.088Z,english_902.wav,0,1,1417,30,4,mandarin,f,0,0,14.8305777,0.38500358
Shay,12,0,2024-04-17T07:14:01.088Z,english_902.wav,0,1,1417,30,4,mandarin,f,1,0.1,-47.11140389,1.2332903
Shay,12,0,2024-04-17T07:14:01.088Z,english_902.wav,0,1,1417,30,4,mandarin,f,2,0.2,-96.35329483,1.76615422
Shay,12,0,2024-04-17T07:14:01.088Z,english_902.wav,0,1,1417,30,4,mandarin,f,3,0.3,-31.00015801,0.59488462
Shay,12,0,2024-04-17T07:14:01.088Z,english_902.wav,0,1,1417,30,4,mandarin,f,4,0.4,46.42403561,0.56384869
Shay,12,0,2024-04-17T07:14:01.088Z,english_902.wav,0,1,1417,30,4,mandarin,f,5,0.5,-64.13766191,0.91132343
Shay,12,0,2024-04-17T07:14:01.088Z,english_902.wav,0,1,1417,30,4,mandarin,f,6,0.6,31.93254177,0.03211524
Shay,12,0,2024-04-17T07:14:01.088Z,english_902.wav,0,1,1417,30,4,mandarin,f,7,0.7,-48.59706945,0.95267988
Shay,12,0,2024-04-17T07:14:01.088Z,english_902.wav,0,1,1417,30,4,mandarin,f,8,0.8,22.33610028,1.25460011
Shay,12,0,2024-04-17T07:14:01.088Z,english_902.wav,0,1,1417,30,4,mandarin,f,9,0.9,-29.48809445,1.32807075
Shay,12,0,2024-04-17T07:14:01.088Z,english_902.wav,0,1,1417,30,4,mandarin,f,10,1,-64.83953347,0.21654555
Shay,12,0,2024-04-17T07:14:01.088Z,english_902.wav,0,1,1417,30,4,mandarin,f,11,1.09391667,88.52973545,1.72349975
Shay,13,0,2024-04-17T07:14:01.088Z,english_25.wav,0,0,2646,30,4,mandarin,f,0,0,-3.04072315,0.82619881
Shay,13,0,2024-04-17T07:14:01.088Z,english_25.wav,0,0,2646,30,4,mandarin,f,1,0.1,-7.71178933,0.19533878
Shay,13,0,2024-04-17T07:14:01.088Z,english_25.wav,0,0,2646,30,4,mandarin,f,2,0.2,-42.18636208,1.08277914
Shay,13,0,2024-04-17T07:14:01.088Z,english_25.wav,0,0,2646,30,4,mandarin,f,3,0.3,-34.45077435,1.14412535
Shay,13,0,2024-04-17T07:14:01.088Z,english_25.wav,0,0,2646,30,4,mandarin,f,4,0.4,-84.66227969,1.20529311
Shay,13,0,2024-04-17T07:14:01.088Z,english_25.wav,0,0,2646,30,4,mandarin,f,5,0.5,-92.64439035,1.74650044
Shay,13,0,2024-04-17T07:14:01.088Z,english_25.wav,0,0,2646,30,4,mandarin,f,6,0.6,-61.14666871,0.43899038
Shay,13,0,2024-04-17T07:14:01.088Z,english_25.wav,0,0,2646,30,4,mandarin,f,7,0.7,-3.59823801,0.82830315
Shay,13,0,2024-04-17T07:14:01.088Z,english_25.wav,0,0,2646,30,4,mandarin,f,8,0.8,-55.86599887,0.29447237
Shay,13,0,2024-04-17T07:14:01.088Z,english_25.wav,0,0,2646,30,4,mandarin,f,9,0.9,70.71897097,0.99577412
Shay,13,0,2024-04-17T07:14:01.088Z,english_25.wav,0,0,2646,30,4,mandarin,f,10,1,-41.59717756,1.79017757
Shay,13,0,2024-04-17T07:14:01.088Z,english_25.wav,0,0,2646,30,4,mandarin,f,11,1.09391667,45.33564492,1.70871786
Shay,14,0,2024-04-17T07:14:01.088Z,english_68.wav,0,1,1474,30,4,mandarin,f,0,0,26.58837816,1.41652886
Shay,14,0,2024-04-17T07:14:01.088Z,english_68.wav,0,1,1474,30,4,mandarin,f,1,0.1,-30.26201774,1.6821225
Shay,14,0,2024-04-17T07:14:01.088Z,english_68.wav,0,1,1474,30,4,mandarin,f,2,0.2,-90.31994669,0.24298021
Shay,14,0,2024-04-17T07:14:01.088Z,english_68.wav,0,1,1474,30,4,mandarin,f,3,0.3,-80.73820175,0.67959509
Shay,14,0,2024-04-17T07:14:01.088Z,english_68.wav,0,1,1474,30,4,mandarin,f,4,0.4,-81.40390329,1.6191627
Shay,14,0,2024-04-17T07:14:01.088Z,english_68.wav,0,1,1474,30,4,mandarin,f,5,0.5,-53.94630637,0.53489657
Shay,14,0,2024-04-17T07:14:01.088Z,english_68.wav,0,1,1474,30,4,mandarin,f,6,0.6,54.33124478,1.08896417
Shay,14,0,2024-04-17T07:14:01.088Z,english_68.wav,0,1,1474,30,4,mandarin,f,7,0.7,-19.04235486,1.94234514
Shay,14,0,2024-04-17T07:14:01.088Z,english_68.wav,0,1,1474,30,4,mandarin,f,8,0.8,-60.29150312,1.53460069
Shay,14,0,2024-04-17T07:14:01.088Z,english_68.wav,0,1,1474,30,4,mandarin,f,9,0.9,-10.04711988,1.76859618
Shay,14,0,2024-04-17T07:14:01.088Z,english_68.wav,0,1,1474,30,4,mandarin,f,10,1,14.48015304,0.93905077
Shay,14,0,2024-04-17T07:14:01.088Z,english_68.wav,0,1,1474,30,4,mandarin,f,11,1.09391667,-61.29871008,1.70593474
Shay,15,0,2024-04-17T07:14:01.088Z,english_442.wav,0,1,1595,30,4,mandarin,f,0,0,-82.79812385,1.11396114
Shay,15,0,2024-04-17T07:14:01.088Z,english_442.wav,0,1,1595,30,4,mandarin,f,1,0.1,13.26533661,1.75736632
Shay,15,0,2024-04-17T07:14:01.088Z,english_442.wav,0,1,1595,30,4,mandarin,f,2,0.2,-27.77858548,0.50029201
Shay,15,0,2024-04-17T07:14:01.088Z,english_442.wav,0,1,1595,30,4,mandarin,f,3,0.3,-8.21179447,0.94281284
Shay,15,0,2024-04-17T07:14:01.088Z,english_442.wav,0,1,1595,30,4,mandarin,f,4,0.4,42.22985327,0.51943545
Shay,15,0,2024-04-17T07:14:01.088Z,english_442.wav,0,1,1595,30,4,mandarin,f,5,0.5,28.42887923,1.6869371
Shay,15,0,2024-04-17T07:14:01.088Z,english_442.wav,0,1,1595,30,4,mandarin,f,6,0.6,80.44970592,0.17301415
Shay,15,0,2024-04-17T07:14:01.088Z,english_442.wav,0,1,1595,30,4,mandarin,f,7,0.7,21.26225147,1.48852219
Shay,15,0,2024-04-17T07:14:01.088Z,english_442.wav,0,1,1595,30,4,mandarin,f,8,0.8,-37.93625661,1.01404105
Shay,15,0,2024-04-17T07:14:01.088Z,english_442.wav,0,1,1595,30,4,mandarin,f,9,0.9,-26.7095537,1.17770211
Shay,15,0,2024-04-17T07:14:01.088Z,english_442.wav,0,1,1595,30,4,mandarin,f,10,1,-21.16506099,1.73105649
Shay,15,0,2024-04-17T07:14:01.088Z,english_442.wav,0,1,1595,30,4,mandarin,f,11,1.09391667,7.34933703,1.8720967
Shay,16,0,2024-04-17T07:14:01.088Z,english_793.wav,0,1,1538,30,4,mandarin,f,0,0,-39.70617561,0.49970472
Shay,16,0,2024-04-17T07:14:01.088Z,english_793.wav,0,1,1538,30,4,mandarin,f,1,0.1,-29.28823244,0.64262829
Shay,16,0,2024-04-17T07:14:01.088Z,english_793.wav,0,1,1538,30,4,mandarin,f,2,0.2,-89.65836103,1.52317209
Shay,16,0,2024-04-17T07:14:01.088Z,english_793.wav,0,1,1538,30,4,mandarin,f,3,0.3,9.66432805,0.03732268
Shay,16,0,2024-04-17T07:14:01.088Z,english_793.wav,0,1,1538,30,4,mandarin,f,4,0.4,46.78400104,0.76197013
Shay,16,0,2024-04-17T07:14:01.088Z,english_793.wav,0,1,1538,30,4,mandarin,f,5,0.5,77.17847788,1.20681543
Shay,16,0,2024-04-17T07:14:01.088Z,english_793.wav,0,1,1538,30,4,mandarin,f,6,0.6,65.90216738,0.39643945
Shay,16,0,2024-04-17T07:14:01.088Z,english_793.wav,0,1,1538,30,4,mandarin,f,7,0.7,19.02180402,0.55038392
Shay,16,0,2024-04-17T07:14:01.088Z,english_793.wav,0,1,1538,30,4,mandarin,f,8,0.8,4.99424524,0.97724905
Shay,16,0,2024-04-17T07:14:01.088Z,english_793.wav,0,1,1538,30,4,mandarin,f,9,0.9,95.94113908,1.29198989
Shay,16,0,2024-04-17T07:14:01.088Z,english_793.wav,0,1,1538,30,4,mandarin,f,10,1,5.28849012,1.94187371
Shay,16,0,2024-04-17T07:14:01.088Z,english_793.wav,0,1,1538,30,4,mandarin,f,11,1.09391667,-28.1855206,0.04726533
Shay,17,0,2024-04-17T07:14:01.088Z,english_250.wav,0,0,1552,30,4,mandarin,f,0,0,-2.1507045,1.65815165
Shay,17,0,2024-04-17T07:14:01.088Z,english_250.wav,0,0,1552,30,4,mandarin,f,1,0.1,-59.20535761,0.73684424
Shay,17,0,2024-04-17T07:14:01.088Z,english_250.wav,0,0,1552,30,4,mandarin,f,2,0.2,33.81892305,0.78053485
Shay,17,0,2024-04-17T07:14:01.088Z,english_250.wav,0,0,1552,30,4,mandarin,f,3,0.3,43.78107199,1.26996131
Shay,17,0,2024-04-17T07:14:01.088Z,english_250.wav,0,0,1552,30,4,mandarin,f,4,0.4,-58.56253377,1.90489744
Shay,17,0,2024-04-17T07:14:01.088Z,english_250.wav,0,0,1552,30,4,mandarin,f,5,0.5,-73.24110126,0.31125788
Shay,17,0,2024-04-17T07:14:01.088Z,english_250.wav,0,0,1552,30,4,mandarin,f,6,0.6,77.97062328,0.73718841
Shay,17,0,2024-04-17T07:14:01.088Z,english_250.wav,0,0,1552,30,4,mandarin,f,7,0.7,-37.56549364,0.04729413
Shay,17,0,2024-04-17T07:14:01.088Z,english_250.wav,0,0,1552,30,4,mandarin,f,8,0.8,57.43189813,1.70152056
Shay,17,0,2024-04-17T07:14:01.088Z,english_250.wav,0,0,1552,30,4,mandarin,f,9,0.9,46.17345888,0.07204925
Shay,17,0,2024-04-17T07:14:01.088Z,english_250.wav,0,0,1552,30,4,mandarin,f,10,1,59.28871843,1.91615732
Shay,17,0,2024-04-17T07:14:01.088Z,english_250.wav,0,0,1552,30,4,mandarin,f,11,1.09391667,54.90140723,1.08139277
Shay,18,0,2024-04-17T07:14:01.088Z,english_449.wav,0,0,2455,30,4,mandarin,f,0,0,-44.55388373,1.29710548
Shay,18,0,2024-04-17T07:14:01.088Z,english_449.wav,0,0,2455,30,4,mandarin,f,1,0.1,-6.72313799,1.06558485
Shay,18,0,2024-04-17T07:14:01.088Z,english_449.wav,0,0,2455,30,4,mandarin,f,2,0.2,79.06263513,1.64594706
Shay,18,0,2024-04-17T07:14:01.088Z,english_449.wav,0,0,2455,30,4,mandarin,f,3,0.3,-55.67409496,0.52101608
Shay,18,0,2024-04-17T07:14:01.088Z,english_449.wav,0,0,2455,30,4,mandarin,f,4,0.4,-98.00845055,1.47445199
Shay,18,0,2024-04-17T07:14:01.088Z,english_449.wav,0,0,2455,30,4,mandarin,f,5,0.5,11.95490186,0.94544277
Shay,18,0,2024-04-17T07:14:01.088Z,english_449.wav,0,0,2455,30,4,mandarin,f,6,0.6,61.24554038,1.90306494
Shay,18,0,2024-04-17T07:14:01.088Z,english_449.wav,0,0,2455,30,4,mandarin,f,7,0.7,22.84997393,1.15810732
Shay,18,0,2024-04-17T07:14:01.088Z,english_449.wav,0,0,2455,30,4,mandarin,f,8,0.8,-43.41021729,0.26889852
Shay,18,0,2024-04-17T07:14:01.088Z,english_449.wav,0,0,2455,30,4,mandarin,f,9,0.9,-0.66438627,1.02983536
Shay,18,0,2024-04-17T07:14:01.088Z,english_449.wav,0,0,2455,30,4,mandarin,f,10,1,97.92538247,1.13790703
Shay,18,0,2024-04-17T07:14:01.088Z,english_449.wav,0,0,2455,30,4,mandarin,f,11,1.09391667,-73.561514,0.97073961
Shay,19,0,2024-04-17T07:14:01.088Z,english_323.wav,0,0,1080,30,4,mandarin,f,0,0,40.39415448,1.89273291
Shay,19,0,2024-04-17T07:14:01.088Z,english_323.wav,0,0,1080,30,4,mandarin,f,1,0.1,-3.9805302,1.81857991
Shay,19,0,2024-04-17T07:14:01.088Z,english_323.wav,0,0,1080,30,4,mandarin,f,2,0.2,-8.81191145,0.58180431
Shay,19,0,2024-04-17T07:14:01.088Z,english_323.wav,0,0,1080,30,4,mandarin,f,3,0.3,-8.61923754,0.82209232
Shay,19,0,2024-04-17T07:14:01.088Z,english_323.wav,0,0,1080,30,4,mandarin,f,4,0.4,25.51817053,1.26116311
Shay,19,0,2024-04-17T07:14:01.088Z,english_323.wav,0,0,1080,30,4,mandarin,f,5,0.5,37.95982404,1.9312982
Shay,19,0,2024-04-17T07:14:01.088Z,english_323.wav,0,0,1080,30,4,mandarin,f,6,0.6,-53.30444221,0.90792138
Shay,19,0,2024-04-17T07:14:01.088Z,english_323.wav,0,0,1080,30,4,mandarin,f,7,0.7,54.85383866,0.90655742
Shay,19,0,2024-04-17T07:14:01.088Z,english_323.wav,0,0,1080,30,4,mandarin,f,8,0.8,-9.4086646,0.85964648
Shay,19,0,2024-04-17T07:14:01.088Z,english_323.wav,0,0,1080,30,4,mandarin,f,9,0.9,8.91034325,0.3422022
Shay,19,0,2024-04-17T07:14:01.088Z,english_323.wav,0,0,1080,30,4,mandarin,f,10,1,-45.44598831,1.16277549
Shay,19,0,2024-04-17T07:14:01.088Z,english_323.wav,0,0,1080,30,4,mandarin,f,11,1.09391667,-71.60554132,1.39313179
Shay,20,0,2024-04-17T07:14:01.088Z,english_475.wav,0,0,2502,30,4,mandarin,f,0,0,29.80961577,0.43821818
Shay,20,0,2024-04-17T07:14:01.088Z,english_475.wav,0,0,2502,30,4,mandarin,f,1,0.1,48.86857013,0.91916023
Shay,20,0,2024-04-17T07:14:01.088Z,english_475.wav,0,0,2502,30,4,mandarin,f,2,0.2,-75.87963709,1.43870603
Shay,20,0,2024-04-17T07:14:01.088Z,english_475.wav,0,0,2502,30,4,mandarin,f,3,0.3,30.73642142,0.67232978
Shay,20,0,2024-04-17T07:14:01.088Z,english_475.wav,0,0,2502,30,4,mandarin,f,4,0.4,-47.77384215,0.927705
Shay,20,0,2024-04-17T07:14:01.088Z,english_475.wav,0,0,2502,30,4,mandarin,f,5,0.5,95.74069733,0.04190462
Shay,20,0,2024-04-17T07:14:01.088Z,english_475.wav,0,0,2502,30,4,mandarin,f,6,0.6,49.89153758,1.51758055
Shay,20,0,2024-04-17T07:14:01.088Z,english_475.wav,0,0,2502,30,4,mandarin,f,7,0.7,-93.96412935,1.81908107
Shay,20,0,2024-04-17T07:14:01.088Z,english_475.wav,0,0,2502,30,4,mandarin,f,8,0.8,-13.00332235,1.60949708
Shay,20,0,2024-04-17T07:14:01.088Z,english_475.wav,0,0,2502,30,4,mandarin,f,9,0.9,80.99885276,1.9985333
Shay,20,0,2024-04-17T07:14:01.088Z,english_475.wav,0,0,2502,30,4,mandarin,f,10,1,-12.77273084,1.07792874
Shay,20,0,2024-04-17T07:14:01.088Z,english_475.wav,0,0,2502,30,4,mandarin,f,11,1.09391667,-3.9803657,1.55358956
Shay,21,0,2024-04-17T07:14:01.088Z,english_649.wav,0,0,2666,30,4,mandarin,f,0,0,54.13337143,0.90685718
Shay,21,0,2024-04-17T07:14:01.088Z,english_649.wav,0,0,2666,30,4,mandarin,f,1,0.1,51.13672213,0.97028986
Shay,21,0,2024-04-17T07:14:01.088Z,english_649.wav,0,0,2666,30,4,mandarin,f,2,0.2,-46.53747516,0.5338014
Shay,21,0,2024-04-17T07:14:01.088Z,english_649.wav,0,0,2666,30,4,mandarin,f,3,0.3,-5.04561857,1.37151822
Shay,21,0,2024-04-17T07:14:01.088Z,english_649.wav,0,0,2666,30,4,mandarin,f,4,0.4,-96.10296837,1.19898074
Shay,21,0,2024-04-17T07:14:01.088Z,english_649.wav,0,0,2666,30,4,mandarin,f,5,0.5,91.1633791,0.83288569
Shay,21,0,2024-04-17T07:14:01.088Z,english_649.wav,0,0,2666,30,4,mandarin,f,6,0.6,40.43734858,1.46195871
Shay,21,0,2024-04-17T07:14:01.088Z,english_649.wav,0,0,2666,30,4,mandarin,f,7,0.7,-6.34456649,0.52535218
Shay,21,0,2024-04-17T07:14:01.088Z,english_649.wav,0,0,2666,30,4,mandarin,f,8,0.8,-47.75781838,0.56197414
Shay,21,0,2024-04-17T07:14:01.088Z,english_649.wav,0,0,2666,30,4,mandarin,f,9,0.9,-30.94847666,1.41697717
Shay,21,0,2024-04-17T07:14:01.088Z,english_649.wav,0,0,2666,30,4,mandarin,f,10,1,-10.84084503,1.24330897
Shay,21,0,2024-04-17T07:14:01.088Z,english_649.wav,0,0,2666,30,4,mandarin,f,11,1.09391667,16.60657514,0.55891177
Shay,22,0,2024-04-17T07:14:01.088Z,english_977.wav,0,0,1516,30,4,mandarin,f,0,0,45.32437977,1.51258306
Shay,22,0,2024-04-17T07:14:01.088Z,english_977.wav,0,0,1516,30,4,mandarin,f,1,0.1,31.46444726,1.62107879
Shay,22,0,2024-04-17T07:14:01.088Z,english_977.wav,0,0,1516,30,4,mandarin,f,2,0.2,7.78815071,0.80620837
Shay,22,0,2024-04-17T07:14:01.088Z,english_977.wav,0,0,1516,30,4,mandarin,f,3,0.3,-38.46709342,1.66578012
Shay,22,0,2024-04-17T07:14:01.088Z,english_977.wav,0,0,1516,30,4,mandarin,f,4,0.4,-43.12628929,0.5028638
Shay,22,0,2024-04-17T07:14:01.088Z,english_977.wav,0,0,1516,30,4,mandarin,f,5,0.5,-60.3999411,1.57064844
Shay,22,0,2024-04-17T07:14:01.088Z,english_977.wav,0,0,1516,30,4,mandarin,f,6,0.6,38.30873417,1.43046029
Shay,22,0,2024-04-17T07:14:01.088Z,english_977.wav,0,0,1516,30,4,mandarin,f,7,0.7,-32.30937365,0.97320454
Shay,22,0,2024-04-17T07:14:01.088Z,english_977.wav,0,0,1516,30,4,mandarin,f,8,0.8,-13.91730907,0.87874216
Shay,22,0,2024-04-17T07:14:01.088Z,english_977.wav,0,0,1516,30,4,mandarin,f,9,0.9,-81.54845422,1.41826341
Shay,22,0,2024-04-17T07:14:01.088Z,english_977.wav,0,0,1516,30,4,mandarin,f,10,1,29.31026278,0.04715706
Shay,22,0,2024-04-17T07:14:01.088Z,english_977.wav,0,0,1516,30,4,mandarin,f,11,1.09391667,34.6707146,1.45727151
Shay,23,0,2024-04-17T07:14:01.088Z,english_965.wav,0,0,832,30,4,mandarin,f,0,0,71.26903742,0.78069471
Shay,23,0,2024-04-17T07:14:01.088Z,english_965.wav,0,0,832,30,4,mandarin,f,1,0.1,-85.67215002,0.96385913
Shay,23,0,2024-04-17T07:14:01.088Z,english_965.wav,0,0,832,30,4,mandarin,f,2,0.2,62.40796955,1.23622138
Shay,23,0,2024-04-17T07:14:01.088Z,english_965.wav,0,0,832,30,4,mandarin,f,3,0.3,-42.43885851,0.08139119
Shay,23,0,2024-04-17T07:14:01.088Z,english_965.wav,0,0,832,30,4,mandarin,f,4,0.4,-43.47145803,1.30827212
Shay,23,0,2024-04-17T07:14:01.088Z,english_965.wav,0,0,832,30,4,mandarin,f,5,0.5,0.87364752,0.40087686
Shay,23,0,2024-04-17T07:14:01.088Z,english_965.wav,0,0,832,30,4,mandarin,f,6,0.6,11.44276141,0.69003786
Shay,23,0,2024-04-17T07:14:01.088Z,english_965.wav,0,0,832,30,4,mandarin,f,7,0.7,13.05816489,0.53329387
Shay,23,0,2024-04-17T07:14:01.088Z,english_965.wav,0,0,832,30,4,mandarin,f,8,0.8,36.18570215,0.06218309
Shay,23,0,2024-04-17T07:14:01.088Z,english_965.wav,0,0,832,30,4,mandarin,f,9,0.9,-15.51832256,1.41722428
Shay,23,0,2024-04-17T07:14:01.088Z,english_965.wav,0,0,832,30,4,mandarin,f,10,1,-23.27462527,1.1054453
Shay,23,0,2024-04-17T07:14:01.088Z,english_965.wav,0,0,832,30,4,mandarin,f,11,1.09391667,27.24750983,1.42098641
Shay,24,0,2024-04-17T07:14:01.088Z,english_337.wav,0,1,1151,30,4,mandarin,f,0,0,63.30955307,1.05146316
Shay,24,0,2024-04-17T07:14:01.088Z,english_337.wav,0,1,1151,30,4,mandarin,f,1,0.1,-16.2405627,1.82422784
Shay,24,0,2024-04-17T07:14:01.088Z,english_337.wav,0,1,1151,30,4,mandarin,f,2,0.2,-94.40154866,0.58494816
Shay,24,0,2024-04-17T07:14:01.088Z,english_337.wav,0,1,1151,30,4,mandarin,f,3,0.3,75.21778114,1.0983984
Shay,24,0,2024-04-17T07:14:01.088Z,english_337.wav,0,1,1151,30,4,mandarin,f,4,0.4,25.54945434,0.15013246
Shay,24,0,2024-04-17T07:14:01.088Z,english_337.wav,0,1,1151,30,4,mandarin,f,5,0.5,-24.8991059,0.80312612
Shay,24,0,2024-04-17T07:14:01.088Z,english_337.wav,0,1,1151,30,4,mandarin,f,6,0.6,41.94064473,0.26635056
Shay,24,0,2024-04-17T07:14:01.088Z,english_337.wav,0,1,1151,30,4,mandarin,f,7,0.7,-52.88941207,1.56094221
Shay,24,0,2024-04-17T07:14:01.088Z,english_337.wav,0,1,1151,30,4,mandarin,f,8,0.8,34.33759816,1.1585981
Shay,24,0,2024-04-17T07:14:01.088Z,english_337.wav,0,1,1151,30,4,mandarin,f,9,0.9,11.89714474,1.8876465
Shay,24,0,2024-04-17T07:14:01.088Z,english_337.wav,0,1,1151,30,4,mandarin,f,10,1,-68.13632942,1.89794163
Shay,24,0,2024-04-17T07:14:01.088Z,english_337.wav,0,1,1151,30,4,mandarin,f,11,1.09391667,47.32266625,0.59037239
Shay,25,0,2024-04-17T07:14:01.088Z,english_370.wav,0,1,1495,30,4,mandarin,f,0,0,91.45146765,1.23282005
Shay,25,0,2024-04-17T07:14:01.088Z,english_370.wav,0,1,1495,30,4,mandarin,f,1,0.1,-35.10409157,0.25999131
Shay,25,0,2024-04-17T07:14:01.088Z,english_370.wav,0,1,1495,30,4,mandarin,f,2,0.2,94.76486666,1.34886846
Shay,25,0,2024-04-17T07:14:01.088Z,english_370.wav,0,1,1495,30,4,mandarin,f,3,0.3,-53.94210215,0.83234793
Shay,25,0,2024-04-17T07:14:01.088Z,english_370.wav,0,1,1495,30,4,mandarin,f,4,0.4,84.25045535,0.3574364
Shay,25,0,2024-04-17T07:14:01.088Z,english_370.wav,0,1,1495,30,4,mandarin,f,5,0.5,23.38990659,1.13678853
Shay,25,0,2024-04-17T07:14:01.088Z,english_370.wav,0,1,1495,30,4,mandarin,f,6,0.6,-19.20564455,1.71477151
Shay,25,0,2024-04-17T07:14:01.088Z,english_370.wav,0,1,1495,30,4,mandarin,f,7,0.7,79.34721748,0.6734852
Shay,25,0,2024-04-17T07:14:01.088Z,english_370.wav,0,1,1495,30,4,mandarin,f,8,0.8,-19.93049437,1.07446176
Shay,25,0,2024-04-17T07:14:01.088Z,english_370.wav,0,1,1495,30,4,mandarin,f,9,0.9,-60.8441274,1.23242025
Shay,25,0,2024-04-17T07:14:01.088Z,english_370.wav,0,1,1495,30,4,mandarin,f,10,1,-1.38990897,1.52786138
Shay,25,0,2024-04-17T07:14:01.088Z,english_370.wav,0,1,1495,30,4,mandarin,f,11,1.09391667,24.56704264,1.4714842
Shay,26,0,2024-04-17T07:14:01.088Z,english_645.wav,0,1,703,30,4,mandarin,f,0,0,74.20759592,0.3722502
Shay,26,0,2024-04-17T07:14:01.088Z,english_645.wav,0,1,703,30,4,mandarin,f,1,0.1,-91.348614,0.72135633
Shay,26,0,2024-04-17T07:14:01.088Z,english_645.wav,0,1,703,30,4,mandarin,f,2,0.2,-47.07053841,1.09022513
Shay,26,0,2024-04-17T07:14:01.088Z,english_645.wav,0,1,703,30,4,mandarin,f,3,0.3,14.8093439,0.23360297
Shay,26,0,2024-04-17T07:14:01.088Z,english_645.wav,0,1,703,30,4,mandarin,f,4,0.4,46.9338314,1.81978529
Shay,26,0,2024-04-17T07:14:01.088Z,english_645.wav,0,1,703,30,4,mandarin,f,5,0.5,39.7428535,0.50068107
Shay,26,0,2024-04-17T07:14:01.088Z,english_645.wav,0,1,703,30,4,mandarin,f,6,0.6,-23.36569069,1.21791048
Shay,26,0,2024-04-17T07:14:01.088Z,english_645.wav,0,1,703,30,4,mandarin,f,7,0.7,45.91971916,0.53153165
Shay,26,0,2024-04-17T07:14:01.088Z,english_645.wav,0,1,703,30,4,mandarin,f,8,0.8,32.42791759,1.47100285
Shay,26,0,2024-04-17T07:14:01.088Z,english_645.wav,0,1,703,30,4,mandarin,f,9,0.9,1.19876254,1.64053241
Shay,26,0,2024-04-17T07:14:01.088Z,english_645.wav,0,1,703,30,4,mandarin,f,10,1,-40.71182661,1.74926312
Shay,26,0,2024-04-17T07:14:01.088Z,english_645.wav,0,1,703,30,4,mandarin,f,11,1.09391667,-1.61863293,1.77861775
Shay,27,0,2024-04-17T07:14:01.088Z,english_504.wav,0,0,2008,30,4,mandarin,f,0,0,-66.23189197,1.64024725
Shay,27,0,2024-04-17T07:14:01.088Z,english_504.wav,0,0,2008,30,4,mandarin,f,1,0.1,-7.28081394,1.33861833
Shay,27,0,2024-04-17T07:14:01.088Z,english_504.wav,0,0,2008,30,4,mandarin,f,2,0.2,-74.05426979,0.21996253
Shay,27,0,2024-04-17T07:14:01.088Z,english_504.wav,0,0,2008,30,4,mandarin,f,3,0.3,-2.17834407,0.9295354
Shay,27,0,2024-04-17T07:14:01.088Z,english_504.wav,0,0,2008,30,4,mandarin,f,4,0.4,-44.29553612,0.18867482
Shay,27,0,2024-04-17T07:14:01.088Z,english_504.wav,0,0,2008,30,4,mandarin,f,5,0.5,-21.93882769,0.17745141
Shay,27,0,2024-04-17T07:14:01.088Z,english_504.wav,0,0,2008,30,4,mandarin,f,6,0.6,-6.80381408,1.36415298
Shay,27,0,2024-04-17T07:14:01.088Z,english_504.wav,0,0,2008,30,4,mandarin,f,7,0.7,9.00050206,1.08571676
Shay,27,0,2024-04-17T07:14:01.088Z,english_504.wav,0,0,2008,30,4,mandarin,f,8,0.8,-19.58321875,1.38544941
Shay,27,0,2024-04-17T07:14:01.088Z,english_504.wav,0,0,2008,30,4,mandarin,f,9,0.9,-97.27632106,0.33380342
Shay,27,0,2024-04-17T07:14:01.088Z,english_504.wav,0,0,2008,30,4,mandarin,f,10,1,94.36582119,0.16971293
Shay,27,0,2024-04-17T07:14:01.088Z,english_504.wav,0,0,2008,30,4,mandarin,f,11,1.09391667,-77.55415354,0.89224977
Shay,28,0,2024-04-17T07:14:01.088Z,english_786.wav,0,0,1773,30,4,mandarin,f,0,0,52.51003342,0.51789452
Shay,28,0,2024-04-17T07:14:01.088Z,english_786.wav,0,0,1773,30,4,mandarin,f,1,0.1,-29.81330981,1.63069417
Shay,28,0,2024-04-17T07:14:01.088Z,english_786.wav,0,0,1773,30,4,mandarin,f,2,0.2,36.37880502,1.03017261
Shay,28,0,2024-04-17T07:14:01.088Z,english_786.wav,0,0,1773,30,4,mandarin,f,3,0.3,-16.44076744,1.50298323
Shay,28,0,2024-04-17T07:14:01.088Z,english_786.wav,0,0,1773,30,4,mandarin,f,4,0.4,88.68796251,1.46107862
Shay,28,0,2024-04-17T07:14:01.088Z,english_786.wav,0,0,1773,30,4,mandarin,f,5,0.5,-14.03385959,0.40535011
Shay,28,0,2024-04-17T07:14:01.088Z,english_786.wav,0,0,1773,30,4,mandarin,f,6,0.6,-91.10946789,0.38567086
Shay,28,0,2024-04-17T07:14:01.088Z,english_786.wav,0,0,1773,30,4,mandarin,f,7,0.7,41.17265494,1.29740328
Shay,28,0,2024-04-17T07:14:01.088Z,english_786.wav,0,0,1773,30,4,mandarin,f,8,0.8,52.01009792,1.80566199
Shay,28,0,2024-04-17T07:14:01.088Z,english_786.wav,0,0,1773,30,4,mandarin,f,9,0.9,51.89297689,0.75401712
Shay,28,0,2024-04-17T07:14:01.088Z,english_786.wav,0,0,1773,30,4,mandarin,f,10,1,66.02628762,0.59504851
Shay,28,0,2024-04-17T07:14:01.088Z,english_786.wav,0,0,1773,30,4,mandarin,f,11,1.09391667,-81.25732307,0.27926431
Shay,29,0,2024-04-17T07:14:01.088Z,english_819.wav,0,1,1932,30,4,mandarin,f,0,0,6.72623194,0.10273963
Shay,29,0,2024-04-17T07:14:01.088Z,english_819.wav,0,1,1932,30,4,mandarin,f,1,0.1,-24.07867569,0.80237212
Shay,29,0,2024-04-17T07:14:01.088Z,english_819.wav,0,1,1932,30,4,mandarin,f,2,0.2,-75.26306383,1.8012582
Shay,29,0,2024-04-17T07:14:01.088Z,english_819.wav,0,1,1932,30,4,mandarin,f,3,0.3,85.43148154,0.87923376
Shay,29,0,2024-04-17T07:14:01.088Z,english_819.wav,0,1,1932,30,4,mandarin,f,4,0.4,-22.40483415,1.38500076
Shay,29,0,2024-04-17T07:14:01.088Z,english_819.wav,0,1,1932,30,4,mandarin,f,5,0.5,1.97440144,1.100674
Shay,29,0,2024-04-17T07:14:01.088Z,english_819.wav,0,1,1932,30,4,mandarin,f,6,0.6,75.70782388,0.97376952
Shay,29,0,2024-04-17T07:14:01.088Z,english_819.wav,0,1,1932,30,4,mandarin,f,7,0.7,95.57794207,0.98089121
Shay,29,0,2024-04-17T07:14:01.088Z,english_819.wav,0,1,1932,30,4,mandarin,f,8,0.8,65.41207774,0.54459863
Shay,29,0,2024-04-17T07:14:01.088Z,english_819.wav,0,1,1932,30,4,mandarin,f,9,0.9,20.80814343,0.87801334
Shay,29,0,2024-04-17T07:14:01.088Z,english_819.wav,0,1,1932,30,4,mandarin,f,10,1,82.13081789,1.51334628
Shay,29,0,2024-04-17T07:14:01.088Z,english_819.wav,0,1,1932,30,4,mandarin,f,11,1.09391667,8.11322976,1.26475282
Shay,30,0,2024-04-17T07:14:01.088Z,english_194.wav,0,1,1028,30,4,mandarin,f,0,0,56.78701541,1.42004802
Shay,30,0,2024-04-17T07:14:01.088Z,english_194.wav,0,1,1028,30,4,mandarin,f,1,0.1,-17.75053988,0.01035796
Shay,30,0,2024-04-17T07:14:01.088Z,english_194.wav,0,1,1028,30,4,mandarin,f,2,0.2,33.25886054,1.01435424
Shay,30,0,2024-04-17T07:14:01.088Z,english_194.wav,0,1,1028,30,4,mandarin,f,3,0.3,-36.30427417,0.10390295
Shay,30,0,2024-04-17T07:14:01.088Z,english_194.wav,0,1,1028,30,4,mandarin,f,4,0.4,87.2538064,0.79219746
Shay,30,0,2024-04-17T07:14:01.088Z,english_194.wav,0,1,1028,30,4,mandarin,f,5,0.5,-35.38798336,0.28919857
Shay,30,0,2024-04-17T07:14:01.088Z,english_194.wav,0,1,1028,30,4,mandarin,f,6,0.6,-16.86822867,1.14065301
Shay,30,0,2024-04-17T07:14:01.088Z,english_194.wav,0,1,1028,30,4,mandarin,f,7,0.7,3.74513195,1.55329947
Shay,30,0,2024-04-17T07:14:01.088Z,english_194.wav,0,1,1028,30,4,mandarin,f,8,0.8,-97.03953589,1.8735666
Shay,30,0,2024-04-17T07:14:01.088Z,english_194.wav,0,1,1028,30,4,mandarin,f,9,0.9,-34.95000954,1.68004219
Shay,30,0,2024-04-17T07:14:01.088Z,english_194.wav,0,1,1028,30,4,mandarin,f,10,1,41.79469937,0.7970796
Shay,30,0,2024-04-17T07:14:01.088Z,english_194.wav,0,1,1028,30,4,mandarin,f,11,1.09391667,-99.09961294,1.89727803
Shay,31,0,2024-04-17T07:14:01.088Z,english_614.wav,0,0,997,30,4,mandarin,f,0,0,-82.48035623,0.71590115
Shay,31,0,2024-04-17T07:14:01.088Z,english_614.wav,0,0,997,30,4,mandarin,f,1,0.1,79.46307131,0.88553055
Shay,31,0,2024-04-17T07:14:01.088Z,english_614.wav,0,0,997,30,4,mandarin,f,2,0.2,-34.63501936,0.6127243
Shay,31,0,2024-04-17T07:14:01.088Z,english_614.wav,0,0,997,30,4,mandarin,f,3,0.3,-36.11573217,1.30048752
Shay,31,0,2024-04-17T07:14:01.088Z,english_614.wav,0,0,997,30,4,mandarin,f,4,0.4,28.60715933,0.96267967
Shay,31,0,2024-04-17T07:14:01.088Z,english_614.wav,0,0,997,30,4,mandarin,f,5,0.5,-48.6136036,0.63406811
Shay,31,0,2024-04-17T07:14:01.088Z,english_614.wav,0,0,997,30,4,mandarin,f,6,0.6,-7.2226969,1.30483529
Shay,31,0,2024-04-17T07:14:01.088Z,english_614.wav,0,0,997,30,4,mandarin,f,7,0.7,-29.94263831,0.38784821
Shay,31,0,2024-04-17T07:14:01.088Z,english_614.wav,0,0,997,30,4,mandarin,f,8,0.8,-84.37614436,0.63559187
Shay,31,0,2024-04-17T07:14:01.088Z,english_614.wav,0,0,997,30,4,mandarin,f,9,0.9,6.08502503,0.26922563
Shay,31,0,2024-04-17T07:14:01.088Z,english_614.wav,0,0,997,30,4,mandarin,f,10,1,89.45930015,0.19525475
Shay,31,0,2024-04-17T07:14:01.088Z,english_614.wav,0,0,997,30,4,mandarin,f,11,1.09391667,-99.05808014,1.74947328
Shay,32,0,2024-04-17T07:14:01.088Z,english_555.wav,0,0,2295,30,4,mandarin,f,0,0,-34.01174322,1.1718484
Shay,32,0,2024-04-17T07:14:01.088Z,english_555.wav,0,0,2295,30,4,mandarin,f,1,0.1,-25.89446117,1.62544238
Shay,32,0,2024-04-17T07:14:01.088Z,english_555.wav,0,0,2295,30,4,mandarin,f,2,0.2,75.37641555,1.85861965
Shay,32,0,2024-04-17T07:14:01.088Z,english_555.wav,0,0,2295,30,4,mandarin,f,3,0.3,3.6750175,1.93143492
Shay,32,0,2024-04-17T07:14:01.088Z,english_555.wav,0,0,2295,30,4,mandarin,f,4,0.4,-77.72739176,0.30173375
Shay,32,0,2024-04-17T07:14:01.088Z,english_555.wav,0,0,2295,30,4,mandarin,f,5,0.5,-17.06538868,1.28363733
Shay,32,0,2024-04-17T07:14:01.088Z,english_555.wav,0,0,2295,30,4,mandarin,f,6,0.6,-37.567139,0.51060309
Shay,32,0,2024-04-17T07:14:01.088Z,english_555.wav,0,0,2295,30,4,mandarin,f,7,0.7,-79.94552452,0.80092252
Shay,32,0,2024-04-17T07:14:01.088Z,english_555.wav,0,0,2295,30,4,mandarin,f,8,0.8,29.48505151,1.44732027
Shay,32,0,2024-04-17T07:14:01.088Z,english_555.wav,0,0,2295,30,4,mandarin,f,9,0.9,-58.857953,0.65157835
Shay,32,0,2024-04-17T07:14:01.088Z,english_555.wav,0,0,2295,30,4,mandarin,f,10,1,-46.0054019,1.65986599
Shay,32,0,2024-04-17T07:14:01.088Z,english_555.wav,0,0,2295,30,4,mandarin,f,11,1.09391667,-89.97133458,1.34311871
Shay,33,0,2024-04-17T07:14:01.088Z,english_519.wav,0,1,1758,30,4,mandarin,f,0,0,-89.70690317,1.70012146
Shay,33,0,2024-04-17T07:14:01.088Z,english_519.wav,0,1,1758,30,4,mandarin,f,1,0.1,12.73288581,0.30558637
Shay,33,0,2024-04-17T07:14:01.088Z,english_519.wav,0,1,1758,30,4,mandarin,f,2,0.2,-28.85796661,1.20634899
Shay,33,0,2024-04-17T07:14:01.088Z,english_519.wav,0,1,1758,30,4,mandarin,f,3,0.3,26.94929279,0.03671801
Shay,33,0,2024-04-17T07:14:01.088Z,english_519.wav,0,1,1758,30,4,mandarin,f,4,0.4,88.17509723,1.89470366
Shay,33,0,2024-04-17T07:14:01.088Z,english_519.wav,0,1,1758,30,4,mandarin,f,5,0.5,-36.4551596,1.56676756
Shay,33,0,2024-04-17T07:14:01.088Z,english_519.wav,0,1,1758,30,4,mandarin,f,6,0.6,24.45140187,0.94993833
Shay,33,0,2024-04-17T07:14:01.088Z,english_519.wav,0,1,1758,30,4,mandarin,f,7,0.7,7.63765931,1.07658622
Shay,33,0,2024-04-17T07:14:01.088Z,english_519.wav,0,1,1758,30,4,mandarin,f,8,0.8,1.30228681,1.81741966
Shay,33,0,2024-04-17T07:14:01.088Z,english_519.wav,0,1,1758,30,4,mandarin,f,9,0.9,72.18985419,0.56710914
Shay,33,0,2024-04-17T07:14:01.088Z,english_519.wav,0,1,1758,30,4,mandarin,f,10,1,-56.35512761,0.45384515
Shay,33,0,2024-04-17T07:14:01.088Z,english_519.wav,0,1,1758,30,4,mandarin,f,11,1.09391667,-27.12026306,1.11287687
Shay,34,0,2024-04-17T07:14:01.088Z,english_66.wav,0,0,1226,30,4,mandarin,f,0,0,73.54239792,1.39962355
Shay,34,0,2024-04-17T07:14:01.088Z,english_66.wav,0,0,1226,30,4,mandarin,f,1,0.1,-24.02007983,0.40719393
Shay,34,0,2024-04-17T07:14:01.088Z,english_66.wav,0,0,1226,30,4,mandarin,f,2,0.2,49.15082977,0.56009301
Shay,34,0,2024-04-17T07:14:01.088Z,english_66.wav,0,0,1226,30,4,mandarin,f,3,0.3,59.25187184,0.88526938
Shay,34,0,2024-04-17T07:14:01.088Z,english_66.wav,0,0,1226,30,4,mandarin,f,4,0.4,-38.45178026,0.20167751
Shay,34,0,2024-04-17T07:14:01.088Z,english_66.wav,0,0,1226,30,4,mandarin,f,5,0.5,4.75457438,0.49978963
Shay,34,0,2024-04-17T07:14:01.088Z,english_66.wav,0,0,1226,30,4,mandarin,f,6,0.6,46.25569394,1.58181975
Shay,34,0,2024-04-17T07:14:01.088Z,english_66.wav,0,0,1226,30,4,mandarin,f,7,0.7,-60.4256139,0.73201225
Shay,34,0,2024-04-17T07:14:01.088Z,english_66.wav,0,0,1226,30,4,mandarin,f,8,0.8,67.09047121,0.26938408
Shay,34,0,2024-04-17T07:14:01.088Z,english_66.wav,0,0,1226,30,4,mandarin,f,9,0.9,88.85676661,1.15195977
Shay,34,0,2024-04-17T07:14:01.088Z,english_66.wav,0,0,1226,30,4,mandarin,f,10,1,69.83029982,1.10937983
Shay,34,0,2024-04-17T07:14:01.088Z,english_66.wav,0,0,1226,30,4,mandarin,f,11,1.09391667,35.36852194,1.70850229
Shay,35,0,2024-04-17T07:14:01.088Z,english_568.wav,0,0,974,30,4,mandarin,f,0,0,-70.38029014,0.48501983
Shay,35,0,2024-04-17T07:14:01.088Z,english_568.wav,0,0,974,30,4,mandarin,f,1,0.1,-41.38064903,0.42639108
Shay,35,0,2024-04-17T07:14:01.088Z,english_568.wav,0,0,974,30,4,mandarin,f,2,0.2,-76.08214461,0.24911927
Shay,35,0,2024-04-17T07:14:01.088Z,english_568.wav,0,0,974,30,4,mandarin,f,3,0.3,-34.54351618,1.98842758
Shay,35,0,2024-04-17T07:14:01.088Z,english_568.wav,0,0,974,30,4,mandarin,f,4,0.4,-96.70272001,0.68639175
Shay,35,0,2024-04-17T07:14:01.088Z,english_568.wav,0,0,974,30,4,mandarin,f,5,0.5,8.09889664,1.0927512
Shay,35,0,2024-04-17T07:14:01.088Z,english_568.wav,0,0,974,30,4,mandarin,f,6,0.6,-60.6705204,1.75749365
Shay,35,0,2024-04-17T07:14:01.088Z,english_568.wav,0,0,974,30,4,mandarin,f,7,0.7,-98.59663747,0.99189126
Shay,35,0,2024-04-17T07:14:01.088Z,english_568.wav,0,0,974,30,4,mandarin,f,8,0.8,12.62015403,0.650614
Shay,35,0,2024-04-17T07:14:01.088Z,english_568.wav,0,0,974,30,4,mandarin,f,9,0.9,12.77342586,0.59921044
Shay,35,0,2024-04-17T07:14:01.088Z,english_568.wav,0,0,974,30,4,mandarin,f,10,1,27.03767254,1.9050284
Shay,35,0,2024-04-17T07:14:01.088Z,english_568.wav,0,0,974,30,4,mandarin,f,11,1.09391667,13.09180394,1.75175141
Shay,36,0,2024-04-17T07:14:01.088Z,english_577.wav,0,1,1228,30,4,mandarin,f,0,0,-76.85094523,0.20458554
Shay,36,0,2024-04-17T07:14:01.088Z,english_577.wav,0,1,1228,30,4,mandarin,f,1,0.1,94.91365435,0.06228827
Shay,36,0,2024-04-17T07:14:01.088Z,english_577.wav,0,1,1228,30,4,mandarin,f,2,0.2,32.9651173,1.08516977
Shay,36,0,2024-04-17T07:14:01.088Z,english_577.wav,0,1,1228,30,4,mandarin,f,3,0.3,97.44139815,1.03608724
Shay,36,0,2024-04-17T07:14:01.088Z,english_577.wav,0,1,1228,30,4,mandarin,f,4,0.4,-92.85161712,1.39749402
Shay,36,0,2024-04-17T07:14:01.088Z,english_577.wav,0,1,1228,30,4,mandarin,f,5,0.5,-28.41231643,0.64758682
Shay,36,0,2024-04-17T07:14:01.088Z,english_577.wav,0,1,1228,30,4,mandarin,f,6,0.6,19.38479245,0.95032341
Shay,36,0,2024-04-17T07:14:01.088Z,english_577.wav,0,1,1228,30,4,mandarin,f,7,0.7,49.58285772,1.2742538
Shay,36,0,2024-04-17T07:14:01.088Z,english_577.wav,0,1,1228,30,4,mandarin,f,8,0.8,92.79445105,1.48392176
Shay,36,0,2024-04-17T07:14:01.088Z,english_577.wav,0,1,1228,30,4,mandarin,f,9,0.9,-51.23747257,0.56445321
Shay,36,0,2024-04-17T07:14:01.088Z,english_577.wav,0,1,1228,30,4,mandarin,f,10,1,-16.84554087,1.53283339
Shay,36,0,2024-04-17T07:14:01.088Z,english_577.wav,0,1,1228,30,4,mandarin,f,11,1.09391667,-72.32540524,1.57768455
Shay,37,0,2024-04-17T07:14:01.088Z,english_624.wav,0,0,934,30,4,mandarin,f,0,0,34.76400378,1.78994994
Shay,37,0,2024-04-17T07:14:01.088Z,english_624.wav,0,0,934,30,4,mandarin,f,1,0.1,-36.42076645,1.4795907
Shay,37,0,2024-04-17T07:14:01.088Z,english_624.wav,0,0,934,30,4,mandarin,f,2,0.2,-52.38985079,1.80721514
Shay,37,0,2024-04-17T07:14:01.088Z,english_624.wav,0,0,934,30,4,mandarin,f,3,0.3,98.14853718,1.70059719
Shay,37,0,2024-04-17T07:14:01.088Z,english_624.wav,0,0,934,30,4,mandarin,f,4,0.4,97.5674754,0.69719837
Shay,37,0,2024-04-17T07:14:01.088Z,english_624.wav,0,0,934,30,4,mandarin,f,5,0.5,-80.04687885,1.37290399
Shay,37,0,2024-04-17T07:14:01.088Z,english_624.wav,0,0,934,30,4,mandarin,f,6,0.6,-8.81047571,1.53741575
Shay,37,0,2024-04-17T07:14:01.088Z,english_624.wav,0,0,934,30,4,mandarin,f,7,0.7,-78.45129318,1.54350611
Shay,37,0,2024-04-17T07:14:01.088Z,english_624.wav,0,0,934,30,4,mandarin,f,8,0.8,39.54454361,0.49170725
Shay,37,0,2024-04-17T07:14:01.088Z,english_624.wav,0,0,934,30,4,mandarin,f,9,0.9,32.62160332,1.04663897
Shay,37,0,2024-04-17T07:14:01.088Z,english_624.wav,0,0,934,30,4,mandarin,f,10,1,-98.98158135,0.63020253
Shay,37,0,2024-04-17T07:14:01.088Z,english_624.wav,0,0,934,30,4,mandarin,f,11,1.09391667,19.08613563,0.96318783
Shay,38,0,2024-04-17T07:14:01.088Z,english_722.wav,0,0,3589,30,4,mandarin,f,0,0,-57.56576196,0.04722973
Shay,38,0,2024-04-17T07:14:01.088Z,english_722.wav,0,0,3589,30,4,mandarin,f,1,0.1,-19.70677764,1.09555253
Shay,38,0,2024-04-17T07:14:01.088Z,english_722.wav,0,0,3589,30,4,mandarin,f,2,0.2,83.71549809,0.8122888
Shay,38,0,2024-04-17T07:14:01.088Z,english_722.wav,0,0,3589,30,4,mandarin,f,3,0.3,0.72860566,0.82350502
Shay,38,0,2024-04-17T07:14:01.088Z,english_722.wav,0,0,3589,30,4,mandarin,f,4,0.4,23.57010212,0.7141467
Shay,38,0,2024-04-17T07:14:01.088Z,english_722.wav,0,0,3589,30,4,mandarin,f,5,0.5,-90.6432868,0.19918411
Shay,38,0,2024-04-17T07:14:01.088Z,english_722.wav,0,0,3589,30,4,mandarin,f,6,0.6,3.97952781,0.04680372
Shay,38,0,2024-04-17T07:14:01.088Z,english_722.wav,0,0,3589,30,4,mandarin,f,7,0.7,47.87385022,0.22857445
Shay,38,0,2024-04-17T07:14:01.088Z,english_722.wav,0,0,3589,30,4,mandarin,f,8,0.8,-10.29099789,1.06043027
Shay,38,0,2024-04-17T07:14:01.088Z,english_722.wav,0,0,3589,30,4,mandarin,f,9,0.9,-55.37554035,1.28411096
Shay,38,0,2024-04-17T07:14:01.088Z,english_722.wav,0,0,3589,30,4,mandarin,f,10,1,-74.87108339,1.38807885
Shay,38,0,2024-04-17T07:14:01.088Z,english_722.wav,0,0,3589,30,4,mandarin,f,11,1.09391667,32.13407254,0.54998416
Shay,39,0,2024-04-17T07:14:01.088Z,english_540.wav,0,1,986,30,4,mandarin,f,0,0,56.3389614,0.35919702
Shay,39,0,2024-04-17T07:14:01.088Z,english_540.wav,0,1,986,30,4,mandarin,f,1,0.1,15.5810044,0.12290397
Shay,39,0,2024-04-17T07:14:01.088Z,english_540.wav,0,1,986,30,4,mandarin,f,2,0.2,-57.00882779,0.4388906
Shay,39,0,2024-04-17T07:14:01.088Z,english_540.wav,0,1,986,30,4,mandarin,f,3,0.3,-38.51831774,1.4101729
Shay,39,0,2024-04-17T07:14:01.088Z,english_540.wav,0,1,986,30,4,mandarin,f,4,0.4,-2.48649571,1.50441402
Shay,39,0,2024-04-17T07:14:01.088Z,english_540.wav,0,1,986,30,4,mandarin,f,5,0.5,47.94489788,0.12973549
Shay,39,0,2024-04-17T07:14:01.088Z,english_540.wav,0,1,986,30,4,mandarin,f,6,0.6,-25.26992134,1.5432215
Shay,39,0,2024-04-17T07:14:01.088Z,english_540.wav,0,1,986,30,4,mandarin,f,7,0.7,71.13867004,0.81755123
Shay,39,0,2024-04-17T07:14:01.088Z,english_540.wav,0,1,986,30,4,mandarin,f,8,0.8,-84.74018584,1.08085579
Shay,39,0,2024-04-17T07:14:01.088Z,english_540.wav,0,1,986,30,4,mandarin,f,9,0.9,36.45045372,1.434422
Shay,39,0,2024-04-17T07:14:01.088Z,english_540.wav,0,1,986,30,4,mandarin,f,10,1,21.99011702,0.97494001
Shay,39,0,2024-04-17T07:14:01.088Z,english_540.wav,0,1,986,30,4,mandarin,f,11,1.09391667,81.39151634,0.80759169
Shay,40,0,2024-04-17T07:14:01.088Z,english_461.wav,0,0,1415,30,4,mandarin,f,0,0,20.40366348,0.56042838
Shay,40,0,2024-04-17T07:14:01.088Z,english_461.wav,0,0,1415,30,4,mandarin,f,1,0.1,-22.31307181,0.54946445
Shay,40,0,2024-04-17T07:14:01.088Z,english_461.wav,0,0,1415,30,4,mandarin,f,2,0.2,-89.37114144,1.64772646
Shay,40,0,2024-04-17T07:14:01.088Z,english_461.wav,0,0,1415,30,4,mandarin,f,3,0.3,-62.56780286,1.49638786
Shay,40,0,2024-04-17T07:14:01.088Z,english_461.wav,0,0,1415,30,4,mandarin,f,4,0.4,98.66430914,1.35717302
Shay,40,0,2024-04-17T07:14:01.088Z,english_461.wav,0,0,1415,30,4,mandarin,f,5,0.5,31.54001237,1.77354921
Shay,40,0,2024-04-17T07:14:01.088Z,english_461.wav,0,0,1415,30,4,mandarin,f,6,0.6,-32.39124998,0.30044417
Shay,40,0,2024-04-17T07:14:01.088Z,english_461.wav,0,0,1415,30,4,mandarin,f,7,0.7,-36.51161339,0.61964528
Shay,40,0,2024-04-17T07:14:01.088Z,english_461.wav,0,0,1415,30,4,mandarin,f,8,0.8,53.57144474,1.90165564
Shay,40,0,2024-04-17T07:14:01.088Z,english_461.wav,0,0,1415,30,4,mandarin,f,9,0.9,-58.15364794,1.196075
Shay,40,0,2024-04-17T07:14:01.088Z,english_461.wav,0,0,1415,30,4,mandarin,f,10,1,49.37662152,1.99169905
Shay,40,0,2024-04-17T07:14:01.088Z,english_461.wav,0,0,1415,30,4,mandarin,f,11,1.09391667,-58.25142674,0.63333461
Shay,41,0,2024-04-17T07:14:01.088Z,english_499.wav,0,0,1422,30,4,mandarin,f,0,0,-7.75302897,0.29368166
Shay,41,0,2024-04-17T07:14:01.088Z,english_499.wav,0,0,1422,30,4,mandarin,f,1,0.1,23.88086762,1.58141682
Shay,41,0,2024-04-17T07:14:01.088Z,english_499.wav,0,0,1422,30,4,mandarin,f,2,0.2,-0.54854112,0.68322719
Shay,41,0,2024-04-17T07:14:01.088Z,english_499.wav,0,0,1422,30,4,mandarin,f,3,0.3,11.38417001,1.0607803
Shay,41,0,2024-04-17T07:14:01.088Z,english_499.wav,0,0,1422,30,4,mandarin,f,4,0.4,76.48373601,0.5459371
Shay,41,0,2024-04-17T07:14:01.088Z,english_499.wav,0,0,1422,30,4,mandarin,f,5,0.5,34.68075028,1.82829661
Shay,41,0,2024-04-17T07:14:01.088Z,english_499.wav,0,0,1422,30,4,mandarin,f,6,0.6,-14.34298834,1.23009433
Shay,41,0,2024-04-17T07:14:01.088Z,english_499.wav,0,0,1422,30,4,mandarin,f,7,0.7,26.82043511,1.38131853
Shay,41,0,2024-04-17T07:14:01.088Z,english_499.wav,0,0,1422,30,4,mandarin,f,8,0.8,60.32593039,0.45099226
Shay,41,0,2024-04-17T07:14:01.088Z,english_499.wav,0,0,1422,30,4,mandarin,f,9,0.9,-38.40765739,1.79672484
Shay,41,0,2024-04-17T07:14:01.088Z,english_499.wav,0,0,1422,30,4,mandarin,f,10,1,7.55243951,0.11050545
Shay,41,0,2024-04-17T07:14:01.088Z,english_499.wav,0,0,1422,30,4,mandarin,f,11,1.09391667,-96.29085545,0.98124995
Shay,42,0,2024-04-17T07:14:01.088Z,english_872.wav,0,1,1314,30,4,mandarin,f,0,0,-4.42672904,1.38946162
Shay,42,0,2024-04-17T07:14:01.088Z,english_872.wav,0,1,1314,30,4,mandarin,f,1,0.1,-45.54953548,1.85362479
Shay,42,0,2024-04-17T07:14:01.088Z,english_872.wav,0,1,1314,30,4,mandarin,f,2,0.2,61.94236328,1.40120351
Shay,42,0,2024-04-17T07:14:01.088Z,english_872.wav,0,1,1314,30,4,mandarin,f,3,0.3,-6.76881519,0.73681545
Shay,42,0,2024-04-17T07:14:01.088Z,english_872.wav,0,1,1314,30,4,mandarin,f,4,0.4,70.60925321,1.34579028
Shay,42,0,2024-04-17T07:14:01.088Z,english_872.wav,0,1,1314,30,4,mandarin,f,5,0.5,61.83462206,0.03433947
Shay,42,0,2024-04-17T07:14:01.088Z,english_872.wav,0,1,1314,30,4,mandarin,f,6,0.6,80.97898291,0.00901878
Shay,42,0,2024-04-17T07:14:01.088Z,english_872.wav,0,1,1314,30,4,mandarin,f,7,0.7,85.22540412,0.90232531
Shay,42,0,2024-04-17T07:14:01.088Z,english_872.wav,0,1,1314,30,4,mandarin,f,8,0.8,0.99054443,1.1650967
Shay,42,0,2024-04-17T07:14:01.088Z,english_872.wav,0,1,1314,30,4,mandarin,f,9,0.9,4.65362218,1.94757047
Shay,42,0,2024-04-17T07:14:01.088Z,english_872.wav,0,1,1314,30,4,mandarin,f,10,1,-50.74375514,1.11012852
Shay,42,0,2024-04-17T07:14:01.088Z,english_872.wav,0,1,1314,30,4,mandarin,f,11,1.09391667,-72.71002663,1.91238116
Shay,43,0,2024-04-17T07:14:01.088Z,english_60.wav,0,0,1723,30,4,mandarin,f,0,0,10.59186776,1.18276714
Shay,43,0,2024-04-17T07:14:01.088Z,english_60.wav,0,0,1723,30,4,mandarin,f,1,0.1,40.50364305,1.35618457
Shay,43,0,2024-04-17T07:14:01.088Z,english_60.wav,0,0,1723,30,4,mandarin,f,2,0.2,-14.0687602,0.82779989
Shay,43,0,2024-04-17T07:14:01.088Z,english_60.wav,0,0,1723,30,4,mandarin,f,3,0.3,-65.99656217,0.57077879
Shay,43,0,2024-04-17T07:14:01.088Z,english_60.wav,0,0,1723,30,4,mandarin,f,4,0.4,15.70320652,0.07108592
Shay,43,0,2024-04-17T07:14:01.088Z,english_60.wav,0,0,1723,30,4,mandarin,f,5,0.5,-30.42091681,0.69784791
Shay,43,0,2024-04-17T07:14:01.088Z,english_60.wav,0,0,1723,30,4,mandarin,f,6,0.6,-42.76109802,1.83211062
Shay,43,0,2024-04-17T07:14:01.088Z,english_60.wav,0,0,1723,30,4,mandarin,f,7,0.7,79.72211157,1.14011333
Shay,43,0,2024-04-17T07:14:01.088Z,english_60.wav,0,0,1723,30,4,mandarin,f,8,0.8,-76.06160398,1.5550445
Shay,43,0,2024-04-17T07:14:01.088Z,english_60.wav,0,0,1723,30,4,mandarin,f,9,0.9,-29.21518782,0.72383993
Shay,43,0,2024-04-17T07:14:01.088Z,english_60.wav,0,0,1723,30,4,mandarin,f,10,1,-57.95886313,1.31578319
Shay,43,0,2024-04-17T07:14:01.088Z,english_60.wav,0,0,1723,30,4,mandarin,f,11,1.09391667,-5.07129897,0.46327009
Shay,44,0,2024-04-17T07:14:01.088Z,english_6.wav,0,0,1070,30,4,mandarin,f,0,0,44.864421,1.86077693
Shay,44,0,2024-04-17T07:14:01.088Z,english_6.wav,0,0,1070,30,4,mandarin,f,1,0.1,-39.26462371,1.12524403
Shay,44,0,2024-04-17T07:14:01.088Z,english_6.wav,0,0,1070,30,4,mandarin,f,2,0.2,28.2122741,1.12796265
Shay,44,0,2024-04-17T07:14:01.088Z,english_6.wav,0,0,1070,30,4,mandarin,f,3,0.3,-41.98853637,1.49970504
Shay,44,0,2024-04-17T07:14:01.088Z,english_6.wav,0,0,1070,30,4,mandarin,f,4,0.4,60.80708212,1.13312462
Shay,44,0,2024-04-17T07:14:01.088Z,english_6.wav,0,0,1070,30,4,mandarin,f,5,0.5,-87.67731195,1.89229122
Shay,44,0,2024-04-17T07:14:01.088Z,english_6.wav,0,0,1070,30,4,mandarin,f,6,0.6,16.44282049,1.4551088
Shay,44,0,2024-04-17T07:14:01.088Z,english_6.wav,0,0,1070,30,4,mandarin,f,7,0.7,-17.08970644,0.20295498
Shay,44,0,2024-04-17T07:14:01.088Z,english_6.wav,0,0,1070,30,4,mandarin,f,8,0.8,-27.18118405,0.3241588
Shay,44,0,2024-04-17T07:14:01.088Z,english_6.wav,0,0,1070,30,4,mandarin,f,9,0.9,-79.6171435,1.16747207
Shay,44,0,2024-04-17T07:14:01.088Z,english_6.wav,0,0,1070,30,4,mandarin,f,10,1,-16.26211535,1.56894598
Shay,44,0,2024-04-17T07:14:01.088Z,english_6.wav,0,0,1070,30,4,mandarin,f,11,1.09391667,89.36610691,0.99768517
Shay,45,0,2024-04-17T07:14:01.088Z,english_565.wav,0,1,878,30,4,mandarin,f,0,0,90.76087004,0.64245812
Shay,45,0,2024-04-17T07:14:01.088Z,english_565.wav,0,1,878,30,4,mandarin,f,1,0.1,90.93114699,0.32525734
Shay,45,0,2024-04-17T07:14:01.088Z,english_565.wav,0,1,878,30,4,mandarin,f,2,0.2,-32.37019607,1.091812
Shay,45,0,2024-04-17T07:14:01.088Z,english_565.wav,0,1,878,30,4,mandarin,f,3,0.3,77.30434891,0.92230791
Shay,45,0,2024-04-17T07:14:01.088Z,english_565.wav,0,1,878,30,4,mandarin,f,4,0.4,-9.73234267,0.30031599
Shay,45,0,2024-04-17T07:14:01.088Z,english_565.wav,0,1,878,30,4,mandarin,f,5,0.5,-83.24650182,0.39093775
Shay,45,0,2024-04-17T07:14:01.088Z,english_565.wav,0,1,878,30,4,mandarin,f,6,0.6,21.51683352,0.75549465
Shay,45,0,2024-04-17T07:14:01.088Z,english_565.wav,0,1,878,30,4,mandarin,f,7,0.7,88.66647516,1.68865449
Shay,45,0,2024-04-17T07:14:01.088Z,english_565.wav,0,1,878,30,4,mandarin,f,8,0.8,21.52943084,0.98033477
Shay,45,0,2024-04-17T07:14:01.088Z,english_565.wav,0,1,878,30,4,mandarin,f,9,0.9,0.60796245,1.75979764
Shay,45,0,2024-04-17T07:14:01.088Z,english_565.wav,0,1,878,30,4,mandarin,f,10,1,9.87605239,1.41337712
Shay,45,0,2024-04-17T07:14:01.088Z,english_565.wav,0,1,878,30,4,mandarin,f,11,1.09391667,92.11409348,0.97633592
Shay,46,0,2024-04-17T07:14:01.088Z,english_589.wav,0,0,1051,30,4,mandarin,f,0,0,69.60358053,1.2976065
Shay,46,0,2024-04-17T07:14:01.088Z,english_589.wav,0,0,1051,30,4,mandarin,f,1,0.1,-65.76586915,1.47951187
Shay,46,0,2024-04-17T07:14:01.088Z,english_589.wav,0,0,1051,30,4,mandarin,f,2,0.2,50.74096111,1.3485394
Shay,46,0,2024-04-17T07:14:01.088Z,english_589.wav,0,0,1051,30,4,mandarin,f,3,0.3,-96.7673569,0.54528982
Shay,46,0,2024-04-17T07:14:01.088Z,english_589.wav,0,0,1051,30,4,mandarin,f,4,0.4,-26.86757353,1.27804734
Shay,46,0,2024-04-17T07:14:01.088Z,english_589.wav,0,0,1051,30,4,mandarin,f,5,0.5,-10.06885571,1.28037388
Shay,46,0,2024-04-17T07:14:01.088Z,english_589.wav,0,0,1051,30,4,mandarin,f,6,0.6,63.05343757,0.75540581
Shay,46,0,2024-04-17T07:14:01.088Z,english_589.wav,0,0,1051,30,4,mandarin,f,7,0.7,-63.30132259,0.89000931
Shay,46,0,2024-04-17T07:14:01.088Z,english_589.wav,0,0,1051,30,4,mandarin,f,8,0.8,-47.99442538,0.42595149
Shay,46,0,2024-04-17T07:14:01.088Z,english_589.wav,0,0,1051,30,4,mandarin,f,9,0.9,57.19971628,1.49547586
Shay,46,0,2024-04-17T07:14:01.088Z,english_589.wav,0,0,1051,30,4,mandarin,f,10,1,-48.99247717,0.17298639
Shay,46,0,2024-04-17T07:14:01.088Z,english_589.wav,0,0,1051,30,4,mandarin,f,11,1.09391667,-67.69648975,0.58048161
Shay,47,0,2024-04-17T07:14:01.088Z,english_46.wav,0,1,2012,30,4,mandarin,f,0,0,-14.7704521,0.66460672
Shay,47,0,2024-04-17T07:14:01.088Z,english_46.wav,0,1,2012,30,4,mandarin,f,1,0.1,44.71982886,0.16115308
Shay,47,0,2024-04-17T07:14:01.088Z,english_46.wav,0,1,2012,30,4,mandarin,f,2,0.2,54.31186901,0.69883722
Shay,47,0,2024-04-17T07:14:01.088Z,english_46.wav,0,1,2012,30,4,mandarin,f,3,0.3,49.55617509,0.91276183
Shay,47,0,2024-04-17T07:14:01.088Z,english_46.wav,0,1,2012,30,4,mandarin,f,4,0.4,13.89468732,1.97897865
Shay,47,0,2024-04-17T07:14:01.088Z,english_46.wav,0,1,2012,30,4,mandarin,f,5,0.5,-5.62181735,1.5047395
Shay,47,0,2024-04-17T07:14:01.088Z,english_46.wav,0,1,2012,30,4,mandarin,f,6,0.6,46.1003591,1.97786281
Shay,47,0,2024-04-17T07:14:01.088Z,english_46.wav,0,1,2012,30,4,mandarin,f,7,0.7,44.70422333,1.91807099
Shay,47,0,2024-04-17T07:14:01.088Z,english_46.wav,0,1,2012,30,4,mandarin,f,8,0.8,-14.85596588,0.25212674
Shay,47,0,2024-04-17T07:14:01.088Z,english_46.wav,0,1,2012,30,4,mandarin,f,9,0.9,-30.71855866,1.85861414
Shay,47,0,2024-04-17T07:14:01.088Z,english_46.wav,0,1,2012,30,4,mandarin,f,10,1,-75.55345039,0.72903252
Shay,47,0,2024-04-17T07:14:01.088Z,english_46.wav,0,1,2012,30,4,mandarin,f,11,1.09391667,6.43312975,1.80431148
Shay,48,0,2024-04-17T07:14:01.088Z,english_636.wav,0,0,1032,30,4,mandarin,f,0,0,67.71914356,0.71351394
Shay,48,0,2024-04-17T07:14:01.088Z,english_636.wav,0,0,1032,30,4,mandarin,f,1,0.1,73.23750135,0.58810626
Shay,48,0,2024-04-17T07:14:01.088Z,english_636.wav,0,0,1032,30,4,mandarin,f,2,0.2,-94.77637622,0.12310704
Shay,48,0,2024-04-17T07:14:01.088Z,english_636.wav,0,0,1032,30,4,mandarin,f,3,0.3,41.8095849,0.24518537
Shay,48,0,2024-04-17T07:14:01.088Z,english_636.wav,0,0,1032,30,4,mandarin,f,4,0.4,44.54848263,1.96939905
Shay,48,0,2024-04-17T07:14:01.088Z,english_636.wav,0,0,1032,30,4,mandarin,f,5,0.5,-87.10854597,1.82615159
Shay,48,0,2024-04-17T07:14:01.088Z,english_636.wav,0,0,1032,30,4,mandarin,f,6,0.6,12.76932042,0.20211228
Shay,48,0,2024-04-17T07:14:01.088Z,english_636.wav,0,0,1032,30,4,mandarin,f,7,0.7,-15.47844842,0.69598299
Shay,48,0,2024-04-17T07:14:01.088Z,english_636.wav,0,0,1032,30,4,mandarin,f,8,0.8,-27.08826091,0.43499073
Shay,48,0,2024-04-17T07:14:01.088Z,english_636.wav,0,0,1032,30,4,mandarin,f,9,0.9,-8.55837042,1.83264506
Shay,48,0,2024-04-17T07:14:01.088Z,english_636.wav,0,0,1032,30,4,mandarin,f,10,1,62.11399846,0.36387194
Shay,48,0,2024-04-17T07:14:01.088Z,english_636.wav,0,0,1032,30,4,mandarin,f,11,1.09391667,1.57014334,0.65195864
Shay,49,0,2024-04-17T07:14:01.088Z,english_511.wav,0,1,916,30,4,mandarin,f,0,0,-85.91778387,1.81402398
Shay,49,0,2024-04-17T07:14:01.088Z,english_511.wav,0,1,916,30,4,mandarin,f,1,0.1,45.98194985,0.85637973
Shay,49,0,2024-04-17T07:14:01.088Z,english_511.wav,0,1,916,30,4,mandarin,f,2,0.2,-52.53895344,1.26858723
Shay,49,0,2024-04-17T07:14:01.088Z,english_511.wav,0,1,916,30,4,mandarin,f,3,0.3,98.13831198,1.07634076
Shay,49,0,2024-04-17T07:14:01.088Z,english_511.wav,0,1,916,30,4,mandarin,f,4,0.4,49.65682047,1.31800961
Shay,49,0,2024-04-17T07:14:01.088Z,english_511.wav,0,1,916,30,4,mandarin,f,5,0.5,-29.41075208,1.42436558
Shay,49,0,2024-04-17T07:14:01.088Z,english_511.wav,0,1,916,30,4,mandarin,f,6,0.6,-30.04012094,1.22174941
Shay,49,0,2024-04-17T07:14:01.088Z,english_511.wav,0,1,916,30,4,mandarin,f,7,0.7,37.41853206,1.40902868
Shay,49,0,2024-04-17T07:14:01.088Z,english_511.wav,0,1,916,30,4,mandarin,f,8,0.8,23.33118627,1.14954472
Shay,49,0,2024-04-17T07:14:01.088Z,english_511.wav,0,1,916,30,4,mandarin,f,9,0.9,-72.81592551,0.62932842
Shay,49,0,2024-04-17T07:14:01.088Z,english_511.wav,0,1,916,30,4,mandarin,f,10,1,22.84370031,1.0343403
Shay,49,0,2024-04-17T07:14:01.088Z,english_511.wav,0,1,916,30,4,mandarin,f,11,1.09391667,31.18033436,1.81184982
Shay,50,1,2024-04-17T07:19:49.899Z,english_345.wav,0,0,1365,30,4,mandarin,f,0,0,-34.02990991,1.8609144
Shay,50,1,2024-04-17T07:19:49.899Z,english_345.wav,0,0,1365,30,4,mandarin,f,1,0.1,-88.27975281,1.48233205
Shay,50,1,2024-04-17T07:19:49.899Z,english_345.wav,0,0,1365,30,4,mandarin,f,2,0.2,-1.56807316,0.71166641
Shay,50,1,2024-04-17T07:19:49.899Z,english_345.wav,0,0,1365,30,4,mandarin,f,3,0.3,-28.98585365,0.21699581
Shay,50,1,2024-04-17T07:19:49.899Z,english_345.wav,0,0,1365,30,4,mandarin,f,4,0.4,83.28491736,1.65978529
Shay,50,1,2024-04-17T07:19:49.899Z,english_345.wav,0,0,1365,30,4,mandarin,f,5,0.5,-16.11421398,0.84551922
Shay,50,1,2024-04-17T07:19:49.899Z,english_345.wav,0,0,1365,30,4,mandarin,f,6,0.6,-92.22378926,0.60808254
Shay,50,1,2024-04-17T07:19:49.899Z,english_345.wav,0,0,1365,30,4,mandarin,f,7,0.7,50.09737337,1.24136652
Shay,50,1,2024-04-17T07:19:49.899Z,english_345.wav,0,0,1365,30,4,mandarin,f,8,0.8,11.89135809,0.61250032
Shay,50,1,2024-04-17T07:19:49.899Z,english_345.wav,0,0,1365,30,4,mandarin,f,9,0.9,86.57873929,0.42246236
Shay,50,1,2024-04-17T07:19:49.899Z,english_345.wav,0,0,1365,30,4,mandarin,f,10,1,15.84417261,0.8731046
Shay,50,1,2024-04-17T07:19:49.899Z,english_345.wav,0,0,1365,30,4,mandarin,f,11,1.09391667,22.95884771,1.62586913
Shay,51,1,2024-04-17T07:19:49.899Z,english_724.wav,0,1,1463,30,4,mandarin,f,0,0,-56.76875747,1.98134375
Shay,51,1,2024-04-17T07:19:49.899Z,english_724.wav,0,1,1463,30,4,mandarin,f,1,0.1,-86.21406354,1.3755847
Shay,51,1,2024-04-17T07:19:49.899Z,english_724.wav,0,1,1463,30,4,mandarin,f,2,0.2,60.18994207,0.59510503
Shay,51,1,2024-04-17T07:19:49.899Z,english_724.wav,0,1,1463,30,4,mandarin,f,3,0.3,-73.18576328,0.94085573
Shay,51,1,2024-04-17T07:19:49.899Z,english_724.wav,0,1,1463,30,4,mandarin,f,4,0.4,9.02898682,1.58537713
Shay,51,1,2024-04-17T07:19:49.899Z,english_724.wav,0,1,1463,30,4,mandarin,f,5,0.5,0.09152752,0.37644638
Shay,51,1,2024-04-17T07:19:49.899Z,english_724.wav,0,1,1463,30,4,mandarin,f,6,0.6,-45.20734969,0.99166811
Shay,51,1,2024-04-17T07:19:49.899Z,english_724.wav,0,1,1463,30,4,mandarin,f,7,0.7,41.14572905,0.69217337
Shay,51,1,2024-04-17T07:19:49.899Z,english_724.wav,0,1,1463,30,4,mandarin,f,8,0.8,-8.90641818,0.6776497
Shay,51,1,2024-04-17T07:19:49.899Z,english_724.wav,0,1,1463,30,4,mandarin,f,9,0.9,16.12067161,0.10142147
Shay,51,1,2024-04-17T07:19:49.899Z,english_724.wav,0,1,1463,30,4,mandarin,f,10,1,72.53679682,1.80502318
Shay,51,1,2024-04-17T07:19:49.899Z,english_724.wav,0,1,1463,30,4,mandarin,f,11,1.09391667,17.69672556,1.15790189
Shay,52,1,2024-04-17T07:19:49.899Z,english_122.wav,0,1,1450,30,4,mandarin,f,0,0,77.3413932,0.58709567
Shay,52,1,2024-04-17T07:19:49.899Z,english_122.wav,0,1,1450,30,4,mandarin,f,1,0.1,-67.39185751,0.0796985
Shay,52,1,2024-04-17T07:19:49.899Z,english_122.wav,0,1,1450,30,4,mandarin,f,2,0.2,89.18550357,1.00639024
Shay,52,1,2024-04-17T07:19:49.899Z,english_122.wav,0,1,1450,30,4,mandarin,f,3,0.3,12.33038367,0.81094575
Shay,52,1,2024-04-17T07:19:49.899Z,english_122.wav,0,1,1450,30,4,mandarin,f,4,0.4,70.68402371,0.57598842
Shay,52,1,2024-04-17T07:19:49.899Z,english_122.wav,0,1,1450,30,4,mandarin,f,5,0.5,25.06803156,0.93423984
Shay,52,1,2024-04-17T07:19:49.899Z,english_122.wav,0,1,1450,30,4,mandarin,f,6,0.6,56.81750659,1.53113092
Shay,52,1,2024-04-17T07:19:49.899Z,english_122.wav,0,1,1450,30,4,mandarin,f,7,0.7,-43.57912499,1.09738921
Shay,52,1,2024-04-17T07:19:49.899Z,english_122.wav,0,1,1450,30,4,mandarin,f,8,0.8,-51.88401647,1.34315846
Shay,52,1,2024-04-17T07:19:49.899Z,english_122.wav,0,1,1450,30,4,mandarin,f,9,0.9,-2.10023036,0.94720038
Shay,52,1,2024-04-17T07:19:49.899Z,english_122.wav,0,1,1450,30,4,mandarin,f,10,1,-47.35507429,1.69772014
Shay,52,1,2024-04-17T07:19:49.899Z,english_122.wav,0,1,1450,30,4,mandarin,f,11,1.09391667,20.07877732,1.14244601
Shay,53,1,2024-04-17T07:19:49.899Z,english_505.wav,0,0,2363,30,4,mandarin,f,0,0,91.23085556,0.82413934
Shay,53,1,2024-04-17T07:19:49.899Z,english_505.wav,0,0,2363,30,4,mandarin,f,1,0.1,-15.55826488,0.35004659
Shay,53,1,2024-04-17T07:19:49.899Z,english_505.wav,0,0,2363,30,4,mandarin,f,2,0.2,12.35940028,1.21560266
Shay,53,1,2024-04-17T07:19:49.899Z,english_505.wav,0,0,2363,30,4,mandarin,f,3,0.3,-0.93203898,1.75278196
Shay,53,1,2024-04-17T07:19:49.899Z,english_505.wav,0,0,2363,30,4,mandarin,f,4,0.4,98.55638555,1.03675584
Shay,53,1,2024-04-17T07:19:49.899Z,english_505.wav,0,0,2363,30,4,mandarin,f,5,0.5,89.84667018,1.84604412
Shay,53,1,2024-04-17T07:19:49.899Z,english_505.wav,0,0,2363,30,4,mandarin,f,6,0.6,61.88853531,0.6105869
Shay,53,1,2024-04-17T07:19:49.899Z,english_505.wav,0,0,2363,30,4,mandarin,f,7,0.7,19.66566337,1.77513514
Shay,53,1,2024-04-17T07:19:49.899Z,english_505.wav,0,0,2363,30,4,mandarin,f,8,0.8,-99.77897317,0.3232423
Shay,53,1,2024-04-17T07:19:49.899Z,english_505.wav,0,0,2363,30,4,mandarin,f,9,0.9,-24.29755532,0.91185212
Shay,53,1,2024-04-17T07:19:49.899Z,english_505.wav,0,0,2363,30,4,mandarin,f,10,1,67.47807651,1.75020631
Shay,53,1,2024-04-17T07:19:49.899Z,english_505.wav,0,0,2363,30,4,mandarin,f,11,1.09391667,13.49034132,1.09867425
Shay,54,1,2024-04-17T07:19:49.899Z,english_436.wav,0,1,1273,30,4,mandarin,f,0,0,-5.79676766,0.51982844
Shay,54,1,2024-04-17T07:19:49.899Z,english_436.wav,0,1,1273,30,4,mandarin,f,1,0.1,-7.88979016,1.6050725
Shay,54,1,2024-04-17T07:19:49.899Z,english_436.wav,0,1,1273,30,4,mandarin,f,2,0.2,-30.02673636,1.59647027
Shay,54,1,2024-04-17T07:19:49.899Z,english_436.wav,0,1,1273,30,4,mandarin,f,3,0.3,10.91379363,1.97742112
Shay,54,1,2024-04-17T07:19:49.899Z,english_436.wav,0,1,1273,30,4,mandarin,f,4,0.4,1.79762369,1.85601804
Shay,54,1,2024-04-17T07:19:49.899Z,english_436.wav,0,1,1273,30,4,mandarin,f,5,0.5,73.94991314,1.38993988
Shay,54,1,2024-04-17T07:19:49.899Z,english_436.wav,0,1,1273,30,4,mandarin,f,6,0.6,77.03109361,1.43065154
Shay,54,1,2024-04-17T07:19:49.899Z,english_436.wav,0,1,1273,30,4,mandarin,f,7,0.7,-48.27841607,0.14937688
Shay,54,1,2024-04-17T07:19:49.899Z,english_436.wav,0,1,1273,30,4,mandarin,f,8,0.8,57.26579501,1.65528817
Shay,54,1,2024-04-17T07:19:49.899Z,english_436.wav,0,1,1273,30,4,mandarin,f,9,0.9,-80.56784579,1.0202375
Shay,54,1,2024-04-17T07:19:49.899Z,english_436.wav,0,1,1273,30,4,mandarin,f,10,1,64.74546515,1.82414723
Shay,54,1,2024-04-17T07:19:49.899Z,english_436.wav,0,1,1273,30,4,mandarin,f,11,1.09391667,5.24901362,1.00971458
Shay,55,1,2024-04-17T07:19:49.899Z,english_155.wav,0,0,1265,30,4,mandarin,f,0,0,21.6550533,0.01570598
Shay,55,1,2024-04-17T07:19:49.899Z,english_155.wav,0,0,1265,30,4,mandarin,f,1,0.1,-0.0016794128,1.76749017
Shay,55,1,2024-04-17T07:19:49.899Z,english_155.wav,0,0,1265,30,4,mandarin,f,2,0.2,-77.5292073,1.37583653
Shay,55,1,2024-04-17T07:19:49.899Z,english_155.wav,0,0,1265,30,4,mandarin,f,3,0.3,-44.9313065,0.19365623
Shay,55,1,2024-04-17T07:19:49.899Z,english_155.wav,0,0,1265,30,4,mandarin,f,4,0.4,-33.7969309,1.34202306
Shay,55,1,2024-04-17T07:19:49.899Z,english_155.wav,0,0,1265,30,4,mandarin,f,5,0.5,46.2285188,1.87351349
Shay,55,1,2024-04-17T07:19:49.899Z,english_155.wav,0,0,1265,30,4,mandarin,f,6,0.6,93.0191022,1.89118344
Shay,55,1,2024-04-17T07:19:49.899Z,english_155.wav,0,0,1265,30,4,mandarin,f,7,0.7,80.6417886,1.25713993
Shay,55,1,2024-04-17T07:19:49.899Z,english_155.wav,0,0,1265,30,4,mandarin,f,8,0.8,-76.4782648,1.84259347
Shay,55,1,2024-04-17T07:19:49.899Z,english_155.wav,0,0,1265,30,4,mandarin,f,9,0.9,-35.964927,0.04007403
Shay,55,1,2024-04-17T07:19:49.899Z,english_155.wav,0,0,1265,30,4,mandarin,f,10,1,90.375739,1.64837519
Shay,55,1,2024-04-17T07:19:49.899Z,english_155.wav,0,0,1265,30,4,mandarin,f,11,1.09391667,66.476003,1.87071869
Shay,56,1,2024-04-17T07:19:49.899Z,english_615.wav,0,1,2448,30,4,mandarin,f,0,0,-59.46419525,1.45272118
Shay,56,1,2024-04-17T07:19:49.899Z,english_615.wav,0,1,2448,30,4,mandarin,f,1,0.1,57.8993682,1.05218588
Shay,56,1,2024-04-17T07:19:49.899Z,english_615.wav,0,1,2448,30,4,mandarin,f,2,0.2,96.50473449,0.16877242
Shay,56,1,2024-04-17T07:19:49.899Z,english_615.wav,0,1,2448,30,4,mandarin,f,3,0.3,70.35497861,0.80491698
Shay,56,1,2024-04-17T07:19:49.899Z,english_615.wav,0,1,2448,30,4,mandarin,f,4,0.4,41.87750843,0.90543026
Shay,56,1,2024-04-17T07:19:49.899Z,english_615.wav,0,1,2448,30,4,mandarin,f,5,0.5,-81.49095224,1.05177913
Shay,56,1,2024-04-17T07:19:49.899Z,english_615.wav,0,1,2448,30,4,mandarin,f,6,0.6,57.42750946,0.09637859
Shay,56,1,2024-04-17T07:19:49.899Z,english_615.wav,0,1,2448,30,4,mandarin,f,7,0.7,4.11503666,0.17788962
Shay,56,1,2024-04-17T07:19:49.899Z,english_615.wav,0,1,2448,30,4,mandarin,f,8,0.8,-69.97079252,0.7335246
Shay,56,1,2024-04-17T07:19:49.899Z,english_615.wav,0,1,2448,30,4,mandarin,f,9,0.9,35.15344639,1.1040214
Shay,56,1,2024-04-17T07:19:49.899Z,english_615.wav,0,1,2448,30,4,mandarin,f,10,1,-81.03238812,0.9742901
Shay,56,1,2024-04-17T07:19:49.899Z,english_615.wav,0,1,2448,30,4,mandarin,f,11,1.09391667,-73.59723868,0.84036339
Shay,57,1,2024-04-17T07:19:49.899Z,english_747.wav,0,1,1123,30,4,mandarin,f,0,0,33.9885207,1.47964533
Shay,57,1,2024-04-17T07:19:49.899Z,english_747.wav,0,1,1123,30,4,mandarin,f,1,0.1,-71.14283381,1.57695323
Shay,57,1,2024-04-17T07:19:49.899Z,english_747.wav,0,1,1123,30,4,mandarin,f,2,0.2,-52.52906762,1.13707985
Shay,57,1,2024-04-17T07:19:49.899Z,english_747.wav,0,1,1123,30,4,mandarin,f,3,0.3,79.5756924,1.65073603
Shay,57,1,2024-04-17T07:19:49.899Z,english_747.wav,0,1,1123,30,4,mandarin,f,4,0.4,-13.30932063,0.47172054
Shay,57,1,2024-04-17T07:19:49.899Z,english_747.wav,0,1,1123,30,4,mandarin,f,5,0.5,25.54535415,1.37786003
Shay,57,1,2024-04-17T07:19:49.899Z,english_747.wav,0,1,1123,30,4,mandarin,f,6,0.6,8.02344494,1.58889604
Shay,57,1,2024-04-17T07:19:49.899Z,english_747.wav,0,1,1123,30,4,mandarin,f,7,0.7,-38.13543806,1.29683876
Shay,57,1,2024-04-17T07:19:49.899Z,english_747.wav,0,1,1123,30,4,mandarin,f,8,0.8,22.33599648,1.65514229
Shay,57,1,2024-04-17T07:19:49.899Z,english_747.wav,0,1,1123,30,4,mandarin,f,9,0.9,-26.77712134,1.18735968
Shay,57,1,2024-04-17T07:19:49.899Z,english_747.wav,0,1,1123,30,4,mandarin,f,10,1,-6.09351927,1.37962036
Shay,57,1,2024-04-17T07:19:49.899Z,english_747.wav,0,1,1123,30,4,mandarin,f,11,1.09391667,43.23579595,1.3791581
Shay,58,1,2024-04-17T07:19:49.899Z,english_307.wav,0,1,1581,30,4,mandarin,f,0,0,4.09277184,1.54634017
Shay,58,1,2024-04-17T07:19:49.899Z,english_307.wav,0,1,1581,30,4,mandarin,f,1,0.1,-55.10651609,1.62042314
Shay,58,1,2024-04-17T07:19:49.899Z,english_307.wav,0,1,1581,30,4,mandarin,f,2,0.2,40.66104674,0.53651735
Shay,58,1,2024-04-17T07:19:49.899Z,english_307.wav,0,1,1581,30,4,mandarin,f,3,0.3,25.01631041,1.3289867
Shay,58,1,2024-04-17T07:19:49.899Z,english_307.wav,0,1,1581,30,4,mandarin,f,4,0.4,-83.19534886,1.20481488
Shay,58,1,2024-04-17T07:19:49.899Z,english_307.wav,0,1,1581,30,4,mandarin,f,5,0.5,50.47121196,0.91135424
Shay,58,1,2024-04-17T07:19:49.899Z,english_307.wav,0,1,1581,30,4,mandarin,f,6,0.6,-23.06520129,0.34154344
Shay,58,1,2024-04-17T07:19:49.899Z,english_307.wav,0,1,1581,30,4,mandarin,f,7,0.7,6.60696351,0.77838965
Shay,58,1,2024-04-17T07:19:49.899Z,english_307.wav,0,1,1581,30,4,mandarin,f,8,0.8,32.78812168,1.52188148
Shay,58,1,2024-04-17T07:19:49.899Z,english_307.wav,0,1,1581,30,4,mandarin,f,9,0.9,-29.8510749,1.3469183
Shay,58,1,2024-04-17T07:19:49.899Z,english_307.wav,0,1,1581,30,4,mandarin,f,10,1,-51.20036712,0.11286505
Shay,58,1,2024-04-17T07:19:49.899Z,english_307.wav,0,1,1581,30,4,mandarin,f,11,1.09391667,-34.31103599,1.9894596
Shay,59,1,2024-04-17T07:19:49.899Z,english_9.wav,0,1,973,30,4,mandarin,f,0,0,-96.61203468,1.48407489
Shay,59,1,2024-04-17T07:19:49.899Z,english_9.wav,0,1,973,30,4,mandarin,f,1,0.1,27.77418146,0.71089129
Shay,59,1,2024-04-17T07:19:49.899Z,english_9.wav,0,1,973,30,4,mandarin,f,2,0.2,-42.79973111,1.02276586
Shay,59,1,2024-04-17T07:19:49.899Z,english_9.wav,0,1,973,30,4,mandarin,f,3,0.3,52.67007286,0.94605025
Shay,59,1,2024-04-17T07:19:49.899Z,english_9.wav,0,1,973,30,4,mandarin,f,4,0.4,-77.37689486,1.64255066
Shay,59,1,2024-04-17T07:19:49.899Z,english_9.wav,0,1,973,30,4,mandarin,f,5,0.5,22.33265825,1.1767353
Shay,59,1,2024-04-17T07:19:49.899Z,english_9.wav,0,1,973,30,4,mandarin,f,6,0.6,-21.53246611,1.24238606
Shay,59,1,2024-04-17T07:19:49.899Z,english_9.wav,0,1,973,30,4,mandarin,f,7,0.7,11.78226484,0.92864334
Shay,59,1,2024-04-17T07:19:49.899Z,english_9.wav,0,1,973,30,4,mandarin,f,8,0.8,-45.34236124,1.13602565
Shay,59,1,2024-04-17T07:19:49.899Z,english_9.wav,0,1,973,30,4,mandarin,f,9,0.9,55.83053399,1.46898539
Shay,59,1,2024-04-17T07:19:49.899Z,english_9.wav,0,1,973,30,4,mandarin,f,10,1,-0.17077069,1.30855548
Shay,59,1,2024-04-17T07:19:49.899Z,english_9.wav,0,1,973,30,4,mandarin,f,11,1.09391667,-99.58545301,1.24881599
Shay,60,1,2024-04-17T07:19:49.899Z,english_397.wav,0,1,866,30,4,mandarin,f,0,0,-93.66149261,1.64508674
Shay,60,1,2024-04-17T07:19:49.899Z,english_397.wav,0,1,866,30,4,mandarin,f,1,0.1,10.02332444,1.71116478
Shay,60,1,2024-04-17T07:19:49.899Z,english_397.wav,0,1,866,30,4,mandarin,f,2,0.2,11.25111848,0.61520949
Shay,60,1,2024-04-17T07:19:49.899Z,english_397.wav,0,1,866,30,4,mandarin,f,3,0.3,-37.6827397,1.11182829
Shay,60,1,2024-04-17T07:19:49.899Z,english_397.wav,0,1,866,30,4,mandarin,f,4,0.4,25.48122538,1.39361431
Shay,60,1,2024-04-17T07:19:49.899Z,english_397.wav,0,1,866,30,4,mandarin,f,5,0.5,26.75513861,1.84991074
Shay,60,1,2024-04-17T07:19:49.899Z,english_397.wav,0,1,866,30,4,mandarin,f,6,0.6,-43.88017582,0.85920693
Shay,60,1,2024-04-17T07:19:49.899Z,english_397.wav,0,1,866,30,4,mandarin,f,7,0.7,-42.20538159,1.85774447
Shay,60,1,2024-04-17T07:19:49.899Z,english_397.wav,0,1,866,30,4,mandarin,f,8,0.8,82.41630332,1.4570352
Shay,60,1,2024-04-17T07:19:49.899Z,english_397.wav,0,1,866,30,4,mandarin,f,9,0.9,57.33831385,0.98799717
Shay,60,1,2024-04-17T07:19:49.899Z,english_397.wav,0,1,866,30,4,mandarin,f,10,1,-42.56353988,0.5544136
Shay,60,1,2024-04-17T07:19:49.899Z,english_397.wav,0,1,866,30,4,mandarin,f,11,1.09391667,68.91357319,0.776674
Shay,61,1,2024-04-17T07:19:49.899Z,english_796.wav,0,1,2257,30,4,mandarin,f,0,0,23.83274793,0.06036971
Shay,61,1,2024-04-17T07:19:49.899Z,english_796.wav,0,1,2257,30,4,mandarin,f,1,0.1,58.93639275,1.88058462
Shay,61,1,2024-04-17T07:19:49.899Z,english_796.wav,0,1,2257,30,4,mandarin,f,2,0.2,38.21414004,0.18227098
Shay,61,1,2024-04-17T07:19:49.899Z,english_796.wav,0,1,2257,30,4,mandarin,f,3,0.3,28.9924604,1.37773272
Shay,61,1,2024-04-17T07:19:49.899Z,english_796.wav,0,1,2257,30,4,mandarin,f,4,0.4,-7.06068982,1.64549947
Shay,61,1,2024-04-17T07:19:49.899Z,english_796.wav,0,1,2257,30,4,mandarin,f,5,0.5,-87.6291124,1.67194705
Shay,61,1,2024-04-17T07:19:49.899Z,english_796.wav,0,1,2257,30,4,mandarin,f,6,0.6,-19.55999428,0.64689213
Shay,61,1,2024-04-17T07:19:49.899Z,english_796.wav,0,1,2257,30,4,mandarin,f,7,0.7,12.86748648,1.59726084
Shay,61,1,2024-04-17T07:19:49.899Z,english_796.wav,0,1,2257,30,4,mandarin,f,8,0.8,60.66600698,0.96069219
Shay,61,1,2024-04-17T07:19:49.899Z,english_796.wav,0,1,2257,30,4,mandarin,f,9,0.9,63.14579763,1.00931817
Shay,61,1,2024-04-17T07:19:49.899Z,english_796.wav,0,1,2257,30,4,mandarin,f,10,1,38.43403738,1.05195825
Shay,61,1,2024-04-17T07:19:49.899Z,english_796.wav,0,1,2257,30,4,mandarin,f,11,1.09391667,-11.41285249,1.96327853
Shay,62,1,2024-04-17T07:19:49.899Z,english_115.wav,0,0,715,30,4,mandarin,f,0,0,-26.06400201,1.03170605
Shay,62,1,2024-04-17T07:19:49.899Z,english_115.wav,0,0,715,30,4,mandarin,f,1,0.1,28.0769801,0.8133226
Shay,62,1,2024-04-17T07:19:49.899Z,english_115.wav,0,0,715,30,4,mandarin,f,2,0.2,0.22454624,0.23304389
Shay,62,1,2024-04-17T07:19:49.899Z,english_115.wav,0,0,715,30,4,mandarin,f,3,0.3,56.47311496,0.50394373
Shay,62,1,2024-04-17T07:19:49.899Z,english_115.wav,0,0,715,30,4,mandarin,f,4,0.4,-7.56064775,1.43876449
Shay,62,1,2024-04-17T07:19:49.899Z,english_115.wav,0,0,715,30,4,mandarin,f,5,0.5,-63.44787447,0.35899171
Shay,62,1,2024-04-17T07:19:49.899Z,english_115.wav,0,0,715,30,4,mandarin,f,6,0.6,-52.68338839,1.5505321
Shay,62,1,2024-04-17T07:19:49.899Z,english_115.wav,0,0,715,30,4,mandarin,f,7,0.7,37.43443466,0.2049404
Shay,62,1,2024-04-17T07:19:49.899Z,english_115.wav,0,0,715,30,4,mandarin,f,8,0.8,-32.93332061,0.392349
Shay,62,1,2024-04-17T07:19:49.899Z,english_115.wav,0,0,715,30,4,mandarin,f,9,0.9,74.83402321,1.84542686
Shay,62,1,2024-04-17T07:19:49.899Z,english_115.wav,0,0,715,30,4,mandarin,f,10,1,-11.65316277,0.75053433
Shay,62,1,2024-04-17T07:19:49.899Z,english_115.wav,0,0,715,30,4,mandarin,f,11,1.09391667,-63.92247639,1.42014848
Shay,63,1,2024-04-17T07:19:49.899Z,english_508.wav,0,1,937,30,4,mandarin,f,0,0,29.95487344,1.28947786
Shay,63,1,2024-04-17T07:19:49.899Z,english_508.wav,0,1,937,30,4,mandarin,f,1,0.1,-43.56994085,0.45872669
Shay,63,1,2024-04-17T07:19:49.899Z,english_508.wav,0,1,937,30,4,mandarin,f,2,0.2,95.99440846,1.02864136
Shay,63,1,2024-04-17T07:19:49.899Z,english_508.wav,0,1,937,30,4,mandarin,f,3,0.3,96.63128694,1.38697031
Shay,63,1,2024-04-17T07:19:49.899Z,english_508.wav,0,1,937,30,4,mandarin,f,4,0.4,81.88240965,0.48619633
Shay,63,1,2024-04-17T07:19:49.899Z,english_508.wav,0,1,937,30,4,mandarin,f,5,0.5,-30.32405698,1.35316712
Shay,63,1,2024-04-17T07:19:49.899Z,english_508.wav,0,1,937,30,4,mandarin,f,6,0.6,-70.6760635,0.61818132
Shay,63,1,2024-04-17T07:19:49.899Z,english_508.wav,0,1,937,30,4,mandarin,f,7,0.7,-36.19238407,0.31535759
Shay,63,1,2024-04-17T07:19:49.899Z,english_508.wav,0,1,937,30,4,mandarin,f,8,0.8,18.2315003,1.60240226
Shay,63,1,2024-04-17T07:19:49.899Z,english_508.wav,0,1,937,30,4,mandarin,f,9,0.9,-71.56865734,1.17638413
Shay,63,1,2024-04-17T07:19:49.899Z,english_508.wav,0,1,937,30,4,mandarin,f,10,1,-72.78274833,0.8457368
Shay,63,1,2024-04-17T07:19:49.899Z,english_508.wav,0,1,937,30,4,mandarin,f,11,1.09391667,51.72471755,0.31851434
Shay,64,1,2024-04-17T07:19:49.899Z,english_522.wav,0,1,881,30,4,mandarin,f,0,0,-41.53907187,0.57004443
Shay,64,1,2024-04-17T07:19:49.899Z,english_522.wav,0,1,881,30,4,mandarin,f,1,0.1,-34.77242331,0.9419408
Shay,64,1,2024-04-17T07:19:49.899Z,english_522.wav,0,1,881,30,4,mandarin,f,2,0.2,44.84688975,1.66104168
Shay,64,1,2024-04-17T07:19:49.899Z,english_522.wav,0,1,881,30,4,mandarin,f,3,0.3,0.52781467,0.91446022
Shay,64,1,2024-04-17T07:19:49.899Z,english_522.wav,0,1,881,30,4,mandarin,f,4,0.4,-85.49095183,1.87910308
Shay,64,1,2024-04-17T07:19:49.899Z,english_522.wav,0,1,881,30,4,mandarin,f,5,0.5,49.75805681,1.6772423
Shay,64,1,2024-04-17T07:19:49.899Z,english_522.wav,0,1,881,30,4,mandarin,f,6,0.6,-34.01238983,1.00245935
Shay,64,1,2024-04-17T07:19:49.899Z,english_522.wav,0,1,881,30,4,mandarin,f,7,0.7,-76.80695945,1.44049733
Shay,64,1,2024-04-17T07:19:49.899Z,english_522.wav,0,1,881,30,4,mandarin,f,8,0.8,57.48181657,0.74965877
Shay,64,1,2024-04-17T07:19:49.899Z,english_522.wav,0,1,881,30,4,mandarin,f,9,0.9,-42.740182,1.30386633
Shay,64,1,2024-04-17T07:19:49.899Z,english_522.wav,0,1,881,30,4,mandarin,f,10,1,76.48970234,1.30270801
Shay,64,1,2024-04-17T07:19:49.899Z,english_522.wav,0,1,881,30,4,mandarin,f,11,1.09391667,-24.33451257,0.47933239
Shay,65,1,2024-04-17T07:19:49.899Z,english_885.wav,0,1,2379,30,4,mandarin,f,0,0,54.55471531,1.33761042
Shay,65,1,2024-04-17T07:19:49.899Z,english_885.wav,0,1,2379,30,4,mandarin,f,1,0.1,-9.45538995,0.16839263
Shay,65,1,2024-04-17T07:19:49.899Z,english_885.wav,0,1,2379,30,4,mandarin,f,2,0.2,51.71669589,0.15282828
Shay,65,1,2024-04-17T07:19:49.899Z,english_885.wav,0,1,2379,30,4,mandarin,f,3,0.3,35.30778931,0.93528856
Shay,65,1,2024-04-17T07:19:49.899Z,english_885.wav,0,1,2379,30,4,mandarin,f,4,0.4,20.62870104,0.42450529
Shay,65,1,2024-04-17T07:19:49.899Z,english_885.wav,0,1,2379,30,4,mandarin,f,5,0.5,45.97492152,1.13086713
Shay,65,1,2024-04-17T07:19:49.899Z,english_885.wav,0,1,2379,30,4,mandarin,f,6,0.6,57.72908242,1.16302136
Shay,65,1,2024-04-17T07:19:49.899Z,english_885.wav,0,1,2379,30,4,mandarin,f,7,0.7,-7.90762664,1.12991064
Shay,65,1,2024-04-17T07:19:49.899Z,english_885.wav,0,1,2379,30,4,mandarin,f,8,0.8,-27.43803549,0.98725245
Shay,65,1,2024-04-17T07:19:49.899Z,english_885.wav,0,1,2379,30,4,mandarin,f,9,0.9,-45.75999486,0.61152154
Shay,65,1,2024-04-17T07:19:49.899Z,english_885.wav,0,1,2379,30,4,mandarin,f,10,1,65.06809526,0.86912983
Shay,65,1,2024-04-17T07:19:49.899Z,english_885.wav,0,1,2379,30,4,mandarin,f,11,1.09391667,85.31433116,0.92468658
Shay,66,1,2024-04-17T07:19:49.899Z,english_833.wav,0,1,1290,30,4,mandarin,f,0,0,-9.82911833,0.41898606
Shay,66,1,2024-04-17T07:19:49.899Z,english_833.wav,0,1,1290,30,4,mandarin,f,1,0.1,26.84576298,1.36279301
Shay,66,1,2024-04-17T07:19:49.899Z,english_833.wav,0,1,1290,30,4,mandarin,f,2,0.2,-28.2282446,1.58440298
Shay,66,1,2024-04-17T07:19:49.899Z,english_833.wav,0,1,1290,30,4,mandarin,f,3,0.3,66.90500865,0.74607222
Shay,66,1,2024-04-17T07:19:49.899Z,english_833.wav,0,1,1290,30,4,mandarin,f,4,0.4,-49.09073162,0.77124081
Shay,66,1,2024-04-17T07:19:49.899Z,english_833.wav,0,1,1290,30,4,mandarin,f,5,0.5,-87.4525088,1.83467454
Shay,66,1,2024-04-17T07:19:49.899Z,english_833.wav,0,1,1290,30,4,mandarin,f,6,0.6,32.13028208,0.88970779
Shay,66,1,2024-04-17T07:19:49.899Z,english_833.wav,0,1,1290,30,4,mandarin,f,7,0.7,-17.61981843,1.25647355
Shay,66,1,2024-04-17T07:19:49.899Z,english_833.wav,0,1,1290,30,4,mandarin,f,8,0.8,-38.32230825,1.59512471
Shay,66,1,2024-04-17T07:19:49.899Z,english_833.wav,0,1,1290,30,4,mandarin,f,9,0.9,65.65277193,0.88454985
Shay,66,1,2024-04-17T07:19:49.899Z,english_833.wav,0,1,1290,30,4,mandarin,f,10,1,-65.08326891,1.48034163
Shay,66,1,2024-04-17T07:19:49.899Z,english_833.wav,0,1,1290,30,4,mandarin,f,11,1.09391667,73.10934072,1.02393934
Shay,67,1,2024-04-17T07:19:49.899Z,english_379.wav,0,1,1611,30,4,mandarin,f,0,0,49.53215273,0.78528704
Shay,67,1,2024-04-17T07:19:49.899Z,english_379.wav,0,1,1611,30,4,mandarin,f,1,0.1,9.27522888,1.81748923
Shay,67,1,2024-04-17T07:19:49.899Z,english_379.wav,0,1,1611,30,4,mandarin,f,2,0.2,37.03122757,0.92030015
Shay,67,1,2024-04-17T07:19:49.899Z,english_379.wav,0,1,1611,30,4,mandarin,f,3,0.3,99.63155139,1.45290857
Shay,67,1,2024-04-17T07:19:49.899Z,english_379.wav,0,1,1611,30,4,mandarin,f,4,0.4,33.35011574,1.06621496
Shay,67,1,2024-04-17T07:19:49.899Z,english_379.wav,0,1,1611,30,4,mandarin,f,5,0.5,-7.70874078,1.14308429
Shay,67,1,2024-04-17T07:19:49.899Z,english_379.wav,0,1,1611,30,4,mandarin,f,6,0.6,46.33326353,0.43706451
Shay,67,1,2024-04-17T07:19:49.899Z,english_379.wav,0,1,1611,30,4,mandarin,f,7,0.7,41.12969148,0.56663738
Shay,67,1,2024-04-17T07:19:49.899Z,english_379.wav,0,1,1611,30,4,mandarin,f,8,0.8,-55.78540597,1.37256697
Shay,67,1,2024-04-17T07:19:49.899Z,english_379.wav,0,1,1611,30,4,mandarin,f,9,0.9,-84.4527127,0.4510475
Shay,67,1,2024-04-17T07:19:49.899Z,english_379.wav,0,1,1611,30,4,mandarin,f,10,1,13.84600332,1.31801048
Shay,67,1,2024-04-17T07:19:49.899Z,english_379.wav,0,1,1611,30,4,mandarin,f,11,1.09391667,82.55643163,0.64535043
Shay,68,1,2024-04-17T07:19:49.899Z,english_100.wav,0,0,1937,30,4,mandarin,f,0,0,-24.42637315,0.62540921
Shay,68,1,2024-04-17T07:19:49.899Z,english_100.wav,0,0,1937,30,4,mandarin,f,1,0.1,47.77288594,1.22625666
Shay,68,1,2024-04-17T07:19:49.899Z,english_100.wav,0,0,1937,30,4,mandarin,f,2,0.2,-50.36782497,1.26348183
Shay,68,1,2024-04-17T07:19:49.899Z,english_100.wav,0,0,1937,30,4,mandarin,f,3,0.3,2.2842979,0.25528387
Shay,68,1,2024-04-17T07:19:49.899Z,english_100.wav,0,0,1937,30,4,mandarin,f,4,0.4,-15.6809061,0.91288523
Shay,68,1,2024-04-17T07:19:49.899Z,english_100.wav,0,0,1937,30,4,mandarin,f,5,0.5,12.92206519,1.75475855
Shay,68,1,2024-04-17T07:19:49.899Z,english_100.wav,0,0,1937,30,4,mandarin,f,6,0.6,58.2816769,1.62969237
Shay,68,1,2024-04-17T07:19:49.899Z,english_100.wav,0,0,1937,30,4,mandarin,f,7,0.7,48.23099815,0.00541247
Shay,68,1,2024-04-17T07:19:49.899Z,english_100.wav,0,0,1937,30,4,mandarin,f,8,0.8,-72.65138159,0.94746335
Shay,68,1,2024-04-17T07:19:49.899Z,english_100.wav,0,0,1937,30,4,mandarin,f,9,0.9,22.56578389,0.25544392
Shay,68,1,2024-04-17T07:19:49.899Z,english_100.wav,0,0,1937,30,4,mandarin,f,10,1,5.8175855,1.63729526
Shay,68,1,2024-04-17T07:19:49.899Z,english_100.wav,0,0,1937,30,4,mandarin,f,11,1.09391667,54.85953581,1.97415754
Shay,69,1,2024-04-17T07:19:49.899Z,english_557.wav,0,0,2310,30,4,mandarin,f,0,0,-36.00437951,0.86268568
Shay,69,1,2024-04-17T07:19:49.899Z,english_557.wav,0,0,2310,30,4,mandarin,f,1,0.1,-36.18192477,0.78818346
Shay,69,1,2024-04-17T07:19:49.899Z,english_557.wav,0,0,2310,30,4,mandarin,f,2,0.2,-76.46214854,0.88104775
Shay,69,1,2024-04-17T07:19:49.899Z,english_557.wav,0,0,2310,30,4,mandarin,f,3,0.3,-9.78546514,0.51957323
Shay,69,1,2024-04-17T07:19:49.899Z,english_557.wav,0,0,2310,30,4,mandarin,f,4,0.4,-53.27937245,1.84624381
Shay,69,1,2024-04-17T07:19:49.899Z,english_557.wav,0,0,2310,30,4,mandarin,f,5,0.5,14.69737181,0.53524469
Shay,69,1,2024-04-17T07:19:49.899Z,english_557.wav,0,0,2310,30,4,mandarin,f,6,0.6,-76.22217722,0.83895898
Shay,69,1,2024-04-17T07:19:49.899Z,english_557.wav,0,0,2310,30,4,mandarin,f,7,0.7,76.26393568,0.4548877
Shay,69,1,2024-04-17T07:19:49.899Z,english_557.wav,0,0,2310,30,4,mandarin,f,8,0.8,-62.02007028,1.59917341
Shay,69,1,2024-04-17T07:19:49.899Z,english_557.wav,0,0,2310,30,4,mandarin,f,9,0.9,73.18804903,0.63690232
Shay,69,1,2024-04-17T07:19:49.899Z,english_557.wav,0,0,2310,30,4,mandarin,f,10,1,75.91755358,1.04600017
Shay,69,1,2024-04-17T07:19:49.899Z,english_557.wav,0,0,2310,30,4,mandarin,f,11,1.09391667,-37.39944408,0.42796411
Shay,70,1,2024-04-17T07:19:49.899Z,english_441.wav,0,1,1107,30,4,mandarin,f,0,0,50.50255474,0.8815455
Shay,70,1,2024-04-17T07:19:49.899Z,english_441.wav,0,1,1107,30,4,mandarin,f,1,0.1,-64.78300632,1.25615458
Shay,70,1,2024-04-17T07:19:49.899Z,english_441.wav,0,1,1107,30,4,mandarin,f,2,0.2,-33.84229425,1.89461417
Shay,70,1,2024-04-17T07:19:49.899Z,english_441.wav,0,1,1107,30,4,mandarin,f,3,0.3,-1.98671345,0.56042506
Shay,70,1,2024-04-17T07:19:49.899Z,english_441.wav,0,1,1107,30,4,mandarin,f,4,0.4,42.73114644,0.74141977
Shay,70,1,2024-04-17T07:19:49.899Z,english_441.wav,0,1,1107,30,4,mandarin,f,5,0.5,42.14553529,0.72181114
Shay,70,1,2024-04-17T07:19:49.899Z,english_441.wav,0,1,1107,30,4,mandarin,f,6,0.6,-44.94303107,0.25334865
Shay,70,1,2024-04-17T07:19:49.899Z,english_441.wav,0,1,1107,30,4,mandarin,f,7,0.7,13.09989783,1.76130975
Shay,70,1,2024-04-17T07:19:49.899Z,english_441.wav,0,1,1107,30,4,mandarin,f,8,0.8,-41.80171469,0.91340104
Shay,70,1,2024-04-17T07:19:49.899Z,english_441.wav,0,1,1107,30,4,mandarin,f,9,0.9,54.31484613,1.37487336
Shay,70,1,2024-04-17T07:19:49.899Z,english_441.wav,0,1,1107,30,4,mandarin,f,10,1,46.32391657,1.57808342
Shay,70,1,2024-04-17T07:19:49.899Z,english_441.wav,0,1,1107,30,4,mandarin,f,11,1.09391667,35.46886189,1.31817522
Shay,71,1,2024-04-17T07:19:49.899Z,english_411.wav,0,0,1935,30,4,mandarin,f,0,0,-19.70973195,0.11468893
Shay,71,1,2024-04-17T07:19:49.899Z,english_411.wav,0,0,1935,30,4,mandarin,f,1,0.1,35.06337641,1.30305137
Shay,71,1,2024-04-17T07:19:49.899Z,english_411.wav,0,0,1935,30,4,mandarin,f,2,0.2,-47.07660398,1.23342094
Shay,71,1,2024-04-17T07:19:49.899Z,english_411.wav,0,0,1935,30,4,mandarin,f,3,0.3,-98.68669902,0.59067951
Shay,71,1,2024-04-17T07:19:49.899Z,english_411.wav,0,0,1935,30,4,mandarin,f,4,0.4,2.91607837,0.74798004
Shay,71,1,2024-04-17T07:19:49.899Z,english_411.wav,0,0,1935,30,4,mandarin,f,5,0.5,-8.99732851,0.55407034
Shay,71,1,2024-04-17T07:19:49.899Z,english_411.wav,0,0,1935,30,4,mandarin,f,6,0.6,57.60803457,1.68778529
Shay,71,1,2024-04-17T07:19:49.899Z,english_411.wav,0,0,1935,30,4,mandarin,f,7,0.7,1.53142899,0.22674115
Shay,71,1,2024-04-17T07:19:49.899Z,english_411.wav,0,0,1935,30,4,mandarin,f,8,0.8,-32.18919875,0.93004634
Shay,71,1,2024-04-17T07:19:49.899Z,english_411.wav,0,0,1935,30,4,mandarin,f,9,0.9,-92.02235415,1.85827411
Shay,71,1,2024-04-17T07:19:49.899Z,english_411.wav,0,0,1935,30,4,mandarin,f,10,1,33.72578798,0.07029884
Shay,71,1,2024-04-17T07:19:49.899Z,english_411.wav,0,0,1935,30,4,mandarin,f,11,1.09391667,81.16053662,1.14058722
Shay,72,1,2024-04-17T07:19:49.899Z,english_233.wav,0,1,1351,30,4,mandarin,f,0,0,-12.45233214,1.31283544
Shay,72,1,2024-04-17T07:19:49.899Z,english_233.wav,0,1,1351,30,4,mandarin,f,1,0.1,-33.20786902,0.09471032
Shay,72,1,2024-04-17T07:19:49.899Z,english_233.wav,0,1,1351,30,4,mandarin,f,2,0.2,-3.84628349,1.88233627
Shay,72,1,2024-04-17T07:19:49.899Z,english_233.wav,0,1,1351,30,4,mandarin,f,3,0.3,52.58812425,1.21028248
Shay,72,1,2024-04-17T07:19:49.899Z,english_233.wav,0,1,1351,30,4,mandarin,f,4,0.4,-82.78729146,0.9101705
Shay,72,1,2024-04-17T07:19:49.899Z,english_233.wav,0,1,1351,30,4,mandarin,f,5,0.5,-90.93928836,1.74264946
Shay,72,1,2024-04-17T07:19:49.899Z,english_233.wav,0,1,1351,30,4,mandarin,f,6,0.6,91.49342166,1.34024886
Shay,72,1,2024-04-17T07:19:49.899Z,english_233.wav,0,1,1351,30,4,mandarin,f,7,0.7,39.27925393,0.33883292
Shay,72,1,2024-04-17T07:19:49.899Z,english_233.wav,0,1,1351,30,4,mandarin,f,8,0.8,-0.66571259,1.35075989
Shay,72,1,2024-04-17T07:19:49.899Z,english_233.wav,0,1,1351,30,4,mandarin,f,9,0.9,50.1456693,1.4470152
Shay,72,1,2024-04-17T07:19:49.899Z,english_233.wav,0,1,1351,30,4,mandarin,f,10,1,-6.64277825,1.15231478
Shay,72,1,2024-04-17T07:19:49.899Z,english_233.wav,0,1,1351,30,4,mandarin,f,11,1.09391667,8.91074874,1.87164883
Shay,73,1,2024-04-17T07:19:49.899Z,english_625.wav,0,0,2324,30,4,mandarin,f,0,0,75.82886559,1.22123306
Shay,73,1,2024-04-17T07:19:49.899Z,english_625.wav,0,0,2324,30,4,mandarin,f,1,0.1,-13.96041742,1.75348863
Shay,73,1,2024-04-17T07:19:49.899Z,english_625.wav,0,0,2324,30,4,mandarin,f,2,0.2,-35.92753512,0.4897572
Shay,73,1,2024-04-17T07:19:49.899Z,english_625.wav,0,0,2324,30,4,mandarin,f,3,0.3,40.25912686,1.96593999
Shay,73,1,2024-04-17T07:19:49.899Z,english_625.wav,0,0,2324,30,4,mandarin,f,4,0.4,50.45257654,1.18887939
Shay,73,1,2024-04-17T07:19:49.899Z,english_625.wav,0,0,2324,30,4,mandarin,f,5,0.5,85.69312188,0.25611648
Shay,73,1,2024-04-17T07:19:49.899Z,english_625.wav,0,0,2324,30,4,mandarin,f,6,0.6,13.47564488,0.63493032
Shay,73,1,2024-04-17T07:19:49.899Z,english_625.wav,0,0,2324,30,4,mandarin,f,7,0.7,-67.08587609,1.56113018
Shay,73,1,2024-04-17T07:19:49.899Z,english_625.wav,0,0,2324,30,4,mandarin,f,8,0.8,-13.59943795,0.9635469
Shay,73,1,2024-04-17T07:19:49.899Z,english_625.wav,0,0,2324,30,4,mandarin,f,9,0.9,48.64664173,1.37605444
Shay,73,1,2024-04-17T07:19:49.899Z,english_625.wav,0,0,2324,30,4,mandarin,f,10,1,12.19725268,1.05458302
Shay,73,1,2024-04-17T07:19:49.899Z,english_625.wav,0,0,2324,30,4,mandarin,f,11,1.09391667,29.4760152,1.34022417
Shay,74,1,2024-04-17T07:19:49.899Z,english_840.wav,0,0,1498,30,4,mandarin,f,0,0,26.56026625,0.58802825
Shay,74,1,2024-04-17T07:19:49.899Z,english_840.wav,0,0,1498,30,4,mandarin,f,1,0.1,-45.76742425,0.34012551
Shay,74,1,2024-04-17T07:19:49.899Z,english_840.wav,0,0,1498,30,4,mandarin,f,2,0.2,58.26038182,1.59409568
Shay,74,1,2024-04-17T07:19:49.899Z,english_840.wav,0,0,1498,30,4,mandarin,f,3,0.3,-41.91368618,1.45145116
Shay,74,1,2024-04-17T07:19:49.899Z,english_840.wav,0,0,1498,30,4,mandarin,f,4,0.4,51.82879955,1.12346348
Shay,74,1,2024-04-17T07:19:49.899Z,english_840.wav,0,0,1498,30,4,mandarin,f,5,0.5,-58.1814991,0.72614378
Shay,74,1,2024-04-17T07:19:49.899Z,english_840.wav,0,0,1498,30,4,mandarin,f,6,0.6,-6.21480863,0.0561304
Shay,74,1,2024-04-17T07:19:49.899Z,english_840.wav,0,0,1498,30,4,mandarin,f,7,0.7,-38.35463557,1.05027211
Shay,74,1,2024-04-17T07:19:49.899Z,english_840.wav,0,0,1498,30,4,mandarin,f,8,0.8,62.53471627,0.63772174
Shay,74,1,2024-04-17T07:19:49.899Z,english_840.wav,0,0,1498,30,4,mandarin,f,9,0.9,-5.88618506,0.79180252
Shay,74,1,2024-04-17T07:19:49.899Z,english_840.wav,0,0,1498,30,4,mandarin,f,10,1,-22.96620486,0.08952915
Shay,74,1,2024-04-17T07:19:49.899Z,english_840.wav,0,0,1498,30,4,mandarin,f,11,1.09391667,38.90401131,0.46969462
Shay,75,1,2024-04-17T07:19:49.899Z,english_657.wav,0,0,1708,30,4,mandarin,f,0,0,-63.69177318,1.72307232
Shay,75,1,2024-04-17T07:19:49.899Z,english_657.wav,0,0,1708,30,4,mandarin,f,1,0.1,54.73276248,1.66830023
Shay,75,1,2024-04-17T07:19:49.899Z,english_657.wav,0,0,1708,30,4,mandarin,f,2,0.2,-43.55623832,1.13616271
Shay,75,1,2024-04-17T07:19:49.899Z,english_657.wav,0,0,1708,30,4,mandarin,f,3,0.3,11.0238782,1.88829015
Shay,75,1,2024-04-17T07:19:49.899Z,english_657.wav,0,0,1708,30,4,mandarin,f,4,0.4,-59.68015802,1.12700282
Shay,75,1,2024-04-17T07:19:49.899Z,english_657.wav,0,0,1708,30,4,mandarin,f,5,0.5,27.65759043,0.7230722
Shay,75,1,2024-04-17T07:19:49.899Z,english_657.wav,0,0,1708,30,4,mandarin,f,6,0.6,-5.28412069,0.45968236
Shay,75,1,2024-04-17T07:19:49.899Z,english_657.wav,0,0,1708,30,4,mandarin,f,7,0.7,11.72971173,1.25039239
Shay,75,1,2024-04-17T07:19:49.899Z,english_657.wav,0,0,1708,30,4,mandarin,f,8,0.8,72.01905562,0.98563216
Shay,75,1,2024-04-17T07:19:49.899Z,english_657.wav,0,0,1708,30,4,mandarin,f,9,0.9,65.996528,0.19974442
Shay,75,1,2024-04-17T07:19:49.899Z,english_657.wav,0,0,1708,30,4,mandarin,f,10,1,-90.37548991,1.44886145
Shay,75,1,2024-04-17T07:19:49.899Z,english_657.wav,0,0,1708,30,4,mandarin,f,11,1.09391667,-82.6734304,0.27222986
Shay,76,1,2024-04-17T07:19:49.899Z,english_52.wav,0,1,1215,30,4,mandarin,f,0,0,22.10137518,1.70966253
Shay,76,1,2024-04-17T07:19:49.899Z,english_52.wav,0,1,1215,30,4,mandarin,f,1,0.1,54.60808655,0.73212315
Shay,76,1,2024-04-17T07:19:49.899Z,english_52.wav,0,1,1215,30,4,mandarin,f,2,0.2,-19.2398092,0.80628637
Shay,76,1,2024-04-17T07:19:49.899Z,english_52.wav,0,1,1215,30,4,mandarin,f,3,0.3,51.72612617,0.90394386
Shay,76,1,2024-04-17T07:19:49.899Z,english_52.wav,0,1,1215,30,4,mandarin,f,4,0.4,48.42620238,0.20122149
Shay,76,1,2024-04-17T07:19:49.899Z,english_52.wav,0,1,1215,30,4,mandarin,f,5,0.5,-74.55875553,0.79458017
Shay,76,1,2024-04-17T07:19:49.899Z,english_52.wav,0,1,1215,30,4,mandarin,f,6,0.6,38.81047921,1.48954082
Shay,76,1,2024-04-17T07:19:49.899Z,english_52.wav,0,1,1215,30,4,mandarin,f,7,0.7,-10.61292931,0.49987231
Shay,76,1,2024-04-17T07:19:49.899Z,english_52.wav,0,1,1215,30,4,mandarin,f,8,0.8,57.32417171,1.72417372
Shay,76,1,2024-04-17T07:19:49.899Z,english_52.wav,0,1,1215,30,4,mandarin,f,9,0.9,1.80511965,1.29717669
Shay,76,1,2024-04-17T07:19:49.899Z,english_52.wav,0,1,1215,30,4,mandarin,f,10,1,21.58974988,1.53819456
Shay,76,1,2024-04-17T07:19:49.899Z,english_52.wav,0,1,1215,30,4,mandarin,f,11,1.09391667,-49.54213801,0.23189362
Shay,77,1,2024-04-17T07:19:49.899Z,english_975.wav,0,1,3110,30,4,mandarin,f,0,0,-53.40155937,0.28931867
Shay,77,1,2024-04-17T07:19:49.899Z,english_975.wav,0,1,3110,30,4,mandarin,f,1,0.1,-46.7591449,0.26014098
Shay,77,1,2024-04-17T07:19:49.899Z,english_975.wav,0,1,3110,30,4,mandarin,f,2,0.2,-39.94858347,0.60863929
Shay,77,1,2024-04-17T07:19:49.899Z,english_975.wav,0,1,3110,30,4,mandarin,f,3,0.3,4.12816175,1.96061536
Shay,77,1,2024-04-17T07:19:49.899Z,english_975.wav,0,1,3110,30,4,mandarin,f,4,0.4,83.44282051,0.74428813
Shay,77,1,2024-04-17T07:19:49.899Z,english_975.wav,0,1,3110,30,4,mandarin,f,5,0.5,20.33193784,1.01644474
Shay,77,1,2024-04-17T07:19:49.899Z,english_975.wav,0,1,3110,30,4,mandarin,f,6,0.6,-92.84690604,0.21290726
Shay,77,1,2024-04-17T07:19:49.899Z,english_975.wav,0,1,3110,30,4,mandarin,f,7,0.7,69.62119896,0.78909982
Shay,77,1,2024-04-17T07:19:49.899Z,english_975.wav,0,1,3110,30,4,mandarin,f,8,0.8,-27.30637844,1.61436772
Shay,77,1,2024-04-17T07:19:49.899Z,english_975.wav,0,1,3110,30,4,mandarin,f,9,0.9,71.11664605,0.92754286
Shay,77,1,2024-04-17T07:19:49.899Z,english_975.wav,0,1,3110,30,4,mandarin,f,10,1,-25.28708081,1.92956557
Shay,77,1,2024-04-17T07:19:49.899Z,english_975.wav,0,1,3110,30,4,mandarin,f,11,1.09391667,-18.06651804,1.66494484
Shay,78,1,2024-04-17T07:19:49.899Z,english_875.wav,0,1,1896,30,4,mandarin,f,0,0,96.8338791,1.90969426
Shay,78,1,2024-04-17T07:19:49.899Z,english_875.wav,0,1,1896,30,4,mandarin,f,1,0.1,37.68794022,1.00034929
Shay,78,1,2024-04-17T07:19:49.899Z,english_875.wav,0,1,1896,30,4,mandarin,f,2,0.2,13.97824571,1.17763903
Shay,78,1,2024-04-17T07:19:49.899Z,english_875.wav,0,1,1896,30,4,mandarin,f,3,0.3,18.96990702,0.35889427
Shay,78,1,2024-04-17T07:19:49.899Z,english_875.wav,0,1,1896,30,4,mandarin,f,4,0.4,63.2084655,0.91300026
Shay,78,1,2024-04-17T07:19:49.899Z,english_875.wav,0,1,1896,30,4,mandarin,f,5,0.5,-98.93629382,1.19226844
Shay,78,1,2024-04-17T07:19:49.899Z,english_875.wav,0,1,1896,30,4,mandarin,f,6,0.6,81.29612198,1.44163348
Shay,78,1,2024-04-17T07:19:49.899Z,english_875.wav,0,1,1896,30,4,mandarin,f,7,0.7,50.14728488,1.08588615
Shay,78,1,2024-04-17T07:19:49.899Z,english_875.wav,0,1,1896,30,4,mandarin,f,8,0.8,13.48666865,1.80200416
Shay,78,1,2024-04-17T07:19:49.899Z,english_875.wav,0,1,1896,30,4,mandarin,f,9,0.9,9.04770509,0.81736325
Shay,78,1,2024-04-17T07:19:49.899Z,english_875.wav,0,1,1896,30,4,mandarin,f,10,1,37.35188663,1.15050925
Shay,78,1,2024-04-17T07:19:49.899Z,english_875.wav,0,1,1896,30,4,mandarin,f,11,1.09391667,68.7171347,1.96049823
Shay,79,1,2024-04-17T07:19:49.899Z,english_362.wav,0,0,1927,30,4,mandarin,f,0,0,-2.50436392,0.54146841
Shay,79,1,2024-04-17T07:19:49.899Z,english_362.wav,0,0,1927,30,4,mandarin,f,1,0.1,0.0104378628,1.24688309
