subj,trial,block,date,stim,stim_order,response,rt,age,english,language,sex,param_index,segment,pitch,stretch
JYS,0,0,2024-06-13T06:16:53.578Z,english_774.wav,0,1,5165,,,,,0,0,38.7876064,0.43642058
JYS,0,0,2024-06-13T06:16:53.578Z,english_774.wav,0,1,5165,,,,,1,0.1,-21.79427352,1.59194207
JYS,0,0,2024-06-13T06:16:53.578Z,english_774.wav,0,1,5165,,,,,2,0.2,-78.67296896,1.92489987
JYS,0,0,2024-06-13T06:16:53.578Z,english_774.wav,0,1,5165,,,,,3,0.3,-75.97471041,1.73224365
JYS,0,0,2024-06-13T06:16:53.578Z,english_774.wav,0,1,5165,,,,,4,0.4,-9.72862999,0.83130124
JYS,0,0,2024-06-13T06:16:53.578Z,english_774.wav,0,1,5165,,,,,5,0.5,-62.72542351,0.05776376
JYS,0,0,2024-06-13T06:16:53.578Z,english_774.wav,0,1,5165,,,,,6,0.6,-92.46329741,0.22257067
JYS,0,0,2024-06-13T06:16:53.578Z,english_774.wav,0,1,5165,,,,,7,0.7,9.68208163,0.82578939
JYS,0,0,2024-06-13T06:16:53.578Z,english_774.wav,0,1,5165,,,,,8,0.8,-31.34266524,1.91233014
JYS,0,0,2024-06-13T06:16:53.578Z,english_774.wav,0,1,5165,,,,,9,0.9,-62.50555476,1.41810173
JYS,0,0,2024-06-13T06:16:53.578Z,english_774.wav,0,1,5165,,,,,10,1,-53.48833614,1.61286395
JYS,0,0,2024-06-13T06:16:53.578Z,english_774.wav,0,1,5165,,,,,11,1.09391667,21.65178302,1.48005452
JYS,1,0,2024-06-13T06:16:53.578Z,english_144.wav,0,0,2306,,,,,0,0,31.57285019,1.02092862
JYS,1,0,2024-06-13T06:16:53.578Z,english_144.wav,0,0,2306,,,,,1,0.1,-66.82367858,1.21687454
JYS,1,0,2024-06-13T06:16:53.578Z,english_144.wav,0,0,2306,,,,,2,0.2,25.9026646,0.83451974
JYS,1,0,2024-06-13T06:16:53.578Z,english_144.wav,0,0,2306,,,,,3,0.3,-73.3005143,1.57454957
JYS,1,0,2024-06-13T06:16:53.578Z,english_144.wav,0,0,2306,,,,,4,0.4,44.123678,0.07717076
JYS,1,0,2024-06-13T06:16:53.578Z,english_144.wav,0,0,2306,,,,,5,0.5,49.27770762,0.27181384
JYS,1,0,2024-06-13T06:16:53.578Z,english_144.wav,0,0,2306,,,,,6,0.6,22.38256085,1.7133157
JYS,1,0,2024-06-13T06:16:53.578Z,english_144.wav,0,0,2306,,,,,7,0.7,-9.16605426,1.06775729
JYS,1,0,2024-06-13T06:16:53.578Z,english_144.wav,0,0,2306,,,,,8,0.8,-36.80428778,1.42091993
JYS,1,0,2024-06-13T06:16:53.578Z,english_144.wav,0,0,2306,,,,,9,0.9,-3.57060361,0.01524657
JYS,1,0,2024-06-13T06:16:53.578Z,english_144.wav,0,0,2306,,,,,10,1,-56.05458997,0.90246411
JYS,1,0,2024-06-13T06:16:53.578Z,english_144.wav,0,0,2306,,,,,11,1.09391667,-88.6470882,1.74083532
JYS,2,0,2024-06-13T06:16:53.578Z,english_110.wav,0,1,1146,,,,,0,0,45.88171242,1.49952965
JYS,2,0,2024-06-13T06:16:53.578Z,english_110.wav,0,1,1146,,,,,1,0.1,19.65275358,1.27857126
JYS,2,0,2024-06-13T06:16:53.578Z,english_110.wav,0,1,1146,,,,,2,0.2,-52.5669285,1.16755208
JYS,2,0,2024-06-13T06:16:53.578Z,english_110.wav,0,1,1146,,,,,3,0.3,50.69142125,1.53878992
JYS,2,0,2024-06-13T06:16:53.578Z,english_110.wav,0,1,1146,,,,,4,0.4,62.87836258,1.32526566
JYS,2,0,2024-06-13T06:16:53.578Z,english_110.wav,0,1,1146,,,,,5,0.5,39.63979386,1.5325195
JYS,2,0,2024-06-13T06:16:53.578Z,english_110.wav,0,1,1146,,,,,6,0.6,-26.37670891,0.18426731
JYS,2,0,2024-06-13T06:16:53.578Z,english_110.wav,0,1,1146,,,,,7,0.7,-93.2202358,1.63742876
JYS,2,0,2024-06-13T06:16:53.578Z,english_110.wav,0,1,1146,,,,,8,0.8,-56.06410486,1.91360144
JYS,2,0,2024-06-13T06:16:53.578Z,english_110.wav,0,1,1146,,,,,9,0.9,-55.01568925,1.5607569
JYS,2,0,2024-06-13T06:16:53.578Z,english_110.wav,0,1,1146,,,,,10,1,78.10124913,0.22178097
JYS,2,0,2024-06-13T06:16:53.578Z,english_110.wav,0,1,1146,,,,,11,1.09391667,16.50451183,0.02570083
JYS,3,0,2024-06-13T06:16:53.578Z,english_227.wav,0,1,692,,,,,0,0,87.02540196,1.45120071
JYS,3,0,2024-06-13T06:16:53.578Z,english_227.wav,0,1,692,,,,,1,0.1,-87.16855408,1.99718195
JYS,3,0,2024-06-13T06:16:53.578Z,english_227.wav,0,1,692,,,,,2,0.2,13.6128173,0.6126104
JYS,3,0,2024-06-13T06:16:53.578Z,english_227.wav,0,1,692,,,,,3,0.3,25.59592298,0.97530447
JYS,3,0,2024-06-13T06:16:53.578Z,english_227.wav,0,1,692,,,,,4,0.4,3.06661623,1.74861281
JYS,3,0,2024-06-13T06:16:53.578Z,english_227.wav,0,1,692,,,,,5,0.5,-6.41872275,1.95931784
JYS,3,0,2024-06-13T06:16:53.578Z,english_227.wav,0,1,692,,,,,6,0.6,-40.97922684,1.44262054
JYS,3,0,2024-06-13T06:16:53.578Z,english_227.wav,0,1,692,,,,,7,0.7,-51.74632522,0.76385193
JYS,3,0,2024-06-13T06:16:53.578Z,english_227.wav,0,1,692,,,,,8,0.8,-35.50720635,0.83123806
JYS,3,0,2024-06-13T06:16:53.578Z,english_227.wav,0,1,692,,,,,9,0.9,-52.46041148,1.0121191
JYS,3,0,2024-06-13T06:16:53.578Z,english_227.wav,0,1,692,,,,,10,1,-5.55255579,1.39124165
JYS,3,0,2024-06-13T06:16:53.578Z,english_227.wav,0,1,692,,,,,11,1.09391667,92.65490635,1.37791309
JYS,4,0,2024-06-13T06:16:53.578Z,english_717.wav,0,0,1768,,,,,0,0,80.79953087,1.86526645
JYS,4,0,2024-06-13T06:16:53.578Z,english_717.wav,0,0,1768,,,,,1,0.1,-1.75275742,1.92589165
JYS,4,0,2024-06-13T06:16:53.578Z,english_717.wav,0,0,1768,,,,,2,0.2,12.73700345,1.47472052
JYS,4,0,2024-06-13T06:16:53.578Z,english_717.wav,0,0,1768,,,,,3,0.3,-58.06023579,1.92992484
JYS,4,0,2024-06-13T06:16:53.578Z,english_717.wav,0,0,1768,,,,,4,0.4,-93.68141032,1.20356957
JYS,4,0,2024-06-13T06:16:53.578Z,english_717.wav,0,0,1768,,,,,5,0.5,-35.69500064,0.92496825
JYS,4,0,2024-06-13T06:16:53.578Z,english_717.wav,0,0,1768,,,,,6,0.6,23.08040277,1.84550356
JYS,4,0,2024-06-13T06:16:53.578Z,english_717.wav,0,0,1768,,,,,7,0.7,-73.54652945,0.83429079
JYS,4,0,2024-06-13T06:16:53.578Z,english_717.wav,0,0,1768,,,,,8,0.8,43.65281286,0.04489088
JYS,4,0,2024-06-13T06:16:53.578Z,english_717.wav,0,0,1768,,,,,9,0.9,99.54987208,1.24125202
JYS,4,0,2024-06-13T06:16:53.578Z,english_717.wav,0,0,1768,,,,,10,1,85.80896401,1.39190792
JYS,4,0,2024-06-13T06:16:53.578Z,english_717.wav,0,0,1768,,,,,11,1.09391667,7.78107645,0.20374713
JYS,5,0,2024-06-13T06:16:53.578Z,english_666.wav,0,0,3288,,,,,0,0,10.55823455,0.52881458
JYS,5,0,2024-06-13T06:16:53.578Z,english_666.wav,0,0,3288,,,,,1,0.1,60.25625818,1.82589442
JYS,5,0,2024-06-13T06:16:53.578Z,english_666.wav,0,0,3288,,,,,2,0.2,40.6898343,1.01937084
JYS,5,0,2024-06-13T06:16:53.578Z,english_666.wav,0,0,3288,,,,,3,0.3,58.2306109,0.05437581
JYS,5,0,2024-06-13T06:16:53.578Z,english_666.wav,0,0,3288,,,,,4,0.4,4.0077953,1.33142654
JYS,5,0,2024-06-13T06:16:53.578Z,english_666.wav,0,0,3288,,,,,5,0.5,71.45661873,0.21266373
JYS,5,0,2024-06-13T06:16:53.578Z,english_666.wav,0,0,3288,,,,,6,0.6,18.87796303,0.67439472
JYS,5,0,2024-06-13T06:16:53.578Z,english_666.wav,0,0,3288,,,,,7,0.7,-29.5527486,1.59641085
JYS,5,0,2024-06-13T06:16:53.578Z,english_666.wav,0,0,3288,,,,,8,0.8,31.6397638,0.05005126
JYS,5,0,2024-06-13T06:16:53.578Z,english_666.wav,0,0,3288,,,,,9,0.9,-90.13061067,0.93178906
JYS,5,0,2024-06-13T06:16:53.578Z,english_666.wav,0,0,3288,,,,,10,1,53.29328049,1.49567277
JYS,5,0,2024-06-13T06:16:53.578Z,english_666.wav,0,0,3288,,,,,11,1.09391667,-53.47399996,1.5853139
JYS,6,0,2024-06-13T06:16:53.578Z,english_38.wav,0,1,618,,,,,0,0,84.84297862,0.12127835
JYS,6,0,2024-06-13T06:16:53.578Z,english_38.wav,0,1,618,,,,,1,0.1,-41.13766339,0.39553601
JYS,6,0,2024-06-13T06:16:53.578Z,english_38.wav,0,1,618,,,,,2,0.2,31.0243005,1.29400733
JYS,6,0,2024-06-13T06:16:53.578Z,english_38.wav,0,1,618,,,,,3,0.3,51.71643077,0.38578685
JYS,6,0,2024-06-13T06:16:53.578Z,english_38.wav,0,1,618,,,,,4,0.4,-15.52187673,0.67216324
JYS,6,0,2024-06-13T06:16:53.578Z,english_38.wav,0,1,618,,,,,5,0.5,37.47478577,0.61922356
JYS,6,0,2024-06-13T06:16:53.578Z,english_38.wav,0,1,618,,,,,6,0.6,27.01527087,0.0538602
JYS,6,0,2024-06-13T06:16:53.578Z,english_38.wav,0,1,618,,,,,7,0.7,44.60136097,0.56901487
JYS,6,0,2024-06-13T06:16:53.578Z,english_38.wav,0,1,618,,,,,8,0.8,-52.37417606,1.28646438
JYS,6,0,2024-06-13T06:16:53.578Z,english_38.wav,0,1,618,,,,,9,0.9,-48.58777174,0.80149466
JYS,6,0,2024-06-13T06:16:53.578Z,english_38.wav,0,1,618,,,,,10,1,7.20305444,1.28981754
JYS,6,0,2024-06-13T06:16:53.578Z,english_38.wav,0,1,618,,,,,11,1.09391667,-74.66052111,0.46742112
JYS,7,0,2024-06-13T06:16:53.578Z,english_813.wav,0,0,2040,,,,,0,0,-21.47810291,0.42494113
JYS,7,0,2024-06-13T06:16:53.578Z,english_813.wav,0,0,2040,,,,,1,0.1,-84.13417806,0.85563352
JYS,7,0,2024-06-13T06:16:53.578Z,english_813.wav,0,0,2040,,,,,2,0.2,-18.57483833,1.62435889
JYS,7,0,2024-06-13T06:16:53.578Z,english_813.wav,0,0,2040,,,,,3,0.3,85.46223106,1.84520067
JYS,7,0,2024-06-13T06:16:53.578Z,english_813.wav,0,0,2040,,,,,4,0.4,-47.12255135,0.16630065
JYS,7,0,2024-06-13T06:16:53.578Z,english_813.wav,0,0,2040,,,,,5,0.5,55.13909294,1.66622477
JYS,7,0,2024-06-13T06:16:53.578Z,english_813.wav,0,0,2040,,,,,6,0.6,-92.27868598,1.29440347
JYS,7,0,2024-06-13T06:16:53.578Z,english_813.wav,0,0,2040,,,,,7,0.7,-98.65237277,1.30366
JYS,7,0,2024-06-13T06:16:53.578Z,english_813.wav,0,0,2040,,,,,8,0.8,-73.59665384,0.95942882
JYS,7,0,2024-06-13T06:16:53.578Z,english_813.wav,0,0,2040,,,,,9,0.9,99.75598896,0.41648042
JYS,7,0,2024-06-13T06:16:53.578Z,english_813.wav,0,0,2040,,,,,10,1,22.46235737,0.55260475
JYS,7,0,2024-06-13T06:16:53.578Z,english_813.wav,0,0,2040,,,,,11,1.09391667,-23.97281603,0.8655965
JYS,8,0,2024-06-13T06:16:53.578Z,english_514.wav,0,1,2188,,,,,0,0,-59.82766829,1.35471226
JYS,8,0,2024-06-13T06:16:53.578Z,english_514.wav,0,1,2188,,,,,1,0.1,-4.54284015,0.81191054
JYS,8,0,2024-06-13T06:16:53.578Z,english_514.wav,0,1,2188,,,,,2,0.2,75.12688257,1.30120799
JYS,8,0,2024-06-13T06:16:53.578Z,english_514.wav,0,1,2188,,,,,3,0.3,52.77263543,1.91982738
JYS,8,0,2024-06-13T06:16:53.578Z,english_514.wav,0,1,2188,,,,,4,0.4,-86.38859223,1.85775535
JYS,8,0,2024-06-13T06:16:53.578Z,english_514.wav,0,1,2188,,,,,5,0.5,22.0573972,0.92799532
JYS,8,0,2024-06-13T06:16:53.578Z,english_514.wav,0,1,2188,,,,,6,0.6,-81.94223644,0.39882237
JYS,8,0,2024-06-13T06:16:53.578Z,english_514.wav,0,1,2188,,,,,7,0.7,33.46090425,1.85696096
JYS,8,0,2024-06-13T06:16:53.578Z,english_514.wav,0,1,2188,,,,,8,0.8,10.59703074,0.26578536
JYS,8,0,2024-06-13T06:16:53.578Z,english_514.wav,0,1,2188,,,,,9,0.9,74.40481447,1.80594265
JYS,8,0,2024-06-13T06:16:53.578Z,english_514.wav,0,1,2188,,,,,10,1,35.18551728,0.66929464
JYS,8,0,2024-06-13T06:16:53.578Z,english_514.wav,0,1,2188,,,,,11,1.09391667,-52.88743611,1.62933111
JYS,9,0,2024-06-13T06:16:53.578Z,english_976.wav,0,1,3904,,,,,0,0,-7.94823885,1.93996979
JYS,9,0,2024-06-13T06:16:53.578Z,english_976.wav,0,1,3904,,,,,1,0.1,96.34184584,0.68967214
JYS,9,0,2024-06-13T06:16:53.578Z,english_976.wav,0,1,3904,,,,,2,0.2,-33.68410723,1.52037239
JYS,9,0,2024-06-13T06:16:53.578Z,english_976.wav,0,1,3904,,,,,3,0.3,71.00734619,0.92144072
JYS,9,0,2024-06-13T06:16:53.578Z,english_976.wav,0,1,3904,,,,,4,0.4,-73.42321757,1.16805043
JYS,9,0,2024-06-13T06:16:53.578Z,english_976.wav,0,1,3904,,,,,5,0.5,68.14494718,0.75881772
JYS,9,0,2024-06-13T06:16:53.578Z,english_976.wav,0,1,3904,,,,,6,0.6,72.66069131,0.99023479
JYS,9,0,2024-06-13T06:16:53.578Z,english_976.wav,0,1,3904,,,,,7,0.7,-46.1327141,1.21750342
JYS,9,0,2024-06-13T06:16:53.578Z,english_976.wav,0,1,3904,,,,,8,0.8,-13.93014286,1.7476055
JYS,9,0,2024-06-13T06:16:53.578Z,english_976.wav,0,1,3904,,,,,9,0.9,53.41967838,1.87214478
JYS,9,0,2024-06-13T06:16:53.578Z,english_976.wav,0,1,3904,,,,,10,1,-12.62377888,0.1004517
JYS,9,0,2024-06-13T06:16:53.578Z,english_976.wav,0,1,3904,,,,,11,1.09391667,-9.46767518,1.64660027
JYS,10,0,2024-06-13T06:16:53.578Z,english_178.wav,0,1,2880,,,,,0,0,5.42478923,1.01011156
JYS,10,0,2024-06-13T06:16:53.578Z,english_178.wav,0,1,2880,,,,,1,0.1,66.71711881,1.60637441
JYS,10,0,2024-06-13T06:16:53.578Z,english_178.wav,0,1,2880,,,,,2,0.2,25.13944125,0.85795496
JYS,10,0,2024-06-13T06:16:53.578Z,english_178.wav,0,1,2880,,,,,3,0.3,95.56005782,1.35214977
JYS,10,0,2024-06-13T06:16:53.578Z,english_178.wav,0,1,2880,,,,,4,0.4,16.85207382,0.61247399
JYS,10,0,2024-06-13T06:16:53.578Z,english_178.wav,0,1,2880,,,,,5,0.5,-27.28270002,1.45555962
JYS,10,0,2024-06-13T06:16:53.578Z,english_178.wav,0,1,2880,,,,,6,0.6,86.24132907,0.34817024
JYS,10,0,2024-06-13T06:16:53.578Z,english_178.wav,0,1,2880,,,,,7,0.7,-67.08119727,0.78995697
JYS,10,0,2024-06-13T06:16:53.578Z,english_178.wav,0,1,2880,,,,,8,0.8,-0.81610081,1.09427424
JYS,10,0,2024-06-13T06:16:53.578Z,english_178.wav,0,1,2880,,,,,9,0.9,-32.08256077,1.32224293
JYS,10,0,2024-06-13T06:16:53.578Z,english_178.wav,0,1,2880,,,,,10,1,33.26765995,1.53013904
JYS,10,0,2024-06-13T06:16:53.578Z,english_178.wav,0,1,2880,,,,,11,1.09391667,50.15163679,1.40313699
JYS,11,0,2024-06-13T06:16:53.578Z,english_913.wav,0,1,1279,,,,,0,0,-12.70990623,1.14486928
JYS,11,0,2024-06-13T06:16:53.578Z,english_913.wav,0,1,1279,,,,,1,0.1,-17.89686071,0.94187729
JYS,11,0,2024-06-13T06:16:53.578Z,english_913.wav,0,1,1279,,,,,2,0.2,58.24027697,0.43978781
JYS,11,0,2024-06-13T06:16:53.578Z,english_913.wav,0,1,1279,,,,,3,0.3,71.96751717,0.86816184
JYS,11,0,2024-06-13T06:16:53.578Z,english_913.wav,0,1,1279,,,,,4,0.4,22.83880081,0.47286583
JYS,11,0,2024-06-13T06:16:53.578Z,english_913.wav,0,1,1279,,,,,5,0.5,74.23310268,0.4719667
JYS,11,0,2024-06-13T06:16:53.578Z,english_913.wav,0,1,1279,,,,,6,0.6,23.98451607,1.54190919
JYS,11,0,2024-06-13T06:16:53.578Z,english_913.wav,0,1,1279,,,,,7,0.7,-29.568704,1.67539159
JYS,11,0,2024-06-13T06:16:53.578Z,english_913.wav,0,1,1279,,,,,8,0.8,19.11592867,1.16448364
JYS,11,0,2024-06-13T06:16:53.578Z,english_913.wav,0,1,1279,,,,,9,0.9,54.77477233,1.68418537
JYS,11,0,2024-06-13T06:16:53.578Z,english_913.wav,0,1,1279,,,,,10,1,9.76021826,1.91621277
JYS,11,0,2024-06-13T06:16:53.578Z,english_913.wav,0,1,1279,,,,,11,1.09391667,-30.35128441,1.40243908
JYS,12,0,2024-06-13T06:16:53.578Z,english_581.wav,0,1,522,,,,,0,0,73.66932606,1.55016183
JYS,12,0,2024-06-13T06:16:53.578Z,english_581.wav,0,1,522,,,,,1,0.1,-66.94779644,0.89838662
JYS,12,0,2024-06-13T06:16:53.578Z,english_581.wav,0,1,522,,,,,2,0.2,17.54153331,0.42808685
JYS,12,0,2024-06-13T06:16:53.578Z,english_581.wav,0,1,522,,,,,3,0.3,-33.4804178,0.92207517
JYS,12,0,2024-06-13T06:16:53.578Z,english_581.wav,0,1,522,,,,,4,0.4,-75.87348007,0.40201435
JYS,12,0,2024-06-13T06:16:53.578Z,english_581.wav,0,1,522,,,,,5,0.5,-19.3699166,0.78725452
JYS,12,0,2024-06-13T06:16:53.578Z,english_581.wav,0,1,522,,,,,6,0.6,44.64649322,0.99552959
JYS,12,0,2024-06-13T06:16:53.578Z,english_581.wav,0,1,522,,,,,7,0.7,49.72085551,1.64481575
JYS,12,0,2024-06-13T06:16:53.578Z,english_581.wav,0,1,522,,,,,8,0.8,-60.52101801,1.59282789
JYS,12,0,2024-06-13T06:16:53.578Z,english_581.wav,0,1,522,,,,,9,0.9,-63.98249467,0.98679066
JYS,12,0,2024-06-13T06:16:53.578Z,english_581.wav,0,1,522,,,,,10,1,-38.32664081,1.29384626
JYS,12,0,2024-06-13T06:16:53.578Z,english_581.wav,0,1,522,,,,,11,1.09391667,93.53202253,1.70769846
JYS,13,0,2024-06-13T06:16:53.578Z,english_416.wav,0,0,1189,,,,,0,0,82.43182744,0.48127721
JYS,13,0,2024-06-13T06:16:53.578Z,english_416.wav,0,0,1189,,,,,1,0.1,53.03166004,0.55506125
JYS,13,0,2024-06-13T06:16:53.578Z,english_416.wav,0,0,1189,,,,,2,0.2,97.51798843,1.10002465
JYS,13,0,2024-06-13T06:16:53.578Z,english_416.wav,0,0,1189,,,,,3,0.3,29.41957171,0.46187328
JYS,13,0,2024-06-13T06:16:53.578Z,english_416.wav,0,0,1189,,,,,4,0.4,-25.73379092,1.80124094
JYS,13,0,2024-06-13T06:16:53.578Z,english_416.wav,0,0,1189,,,,,5,0.5,-41.53228359,1.29733702
JYS,13,0,2024-06-13T06:16:53.578Z,english_416.wav,0,0,1189,,,,,6,0.6,-18.26850451,0.88634114
JYS,13,0,2024-06-13T06:16:53.578Z,english_416.wav,0,0,1189,,,,,7,0.7,36.25947798,0.74571926
JYS,13,0,2024-06-13T06:16:53.578Z,english_416.wav,0,0,1189,,,,,8,0.8,3.82481386,0.12319745
JYS,13,0,2024-06-13T06:16:53.578Z,english_416.wav,0,0,1189,,,,,9,0.9,51.45810025,1.56017106
JYS,13,0,2024-06-13T06:16:53.578Z,english_416.wav,0,0,1189,,,,,10,1,0.92473006,1.11470687
JYS,13,0,2024-06-13T06:16:53.578Z,english_416.wav,0,0,1189,,,,,11,1.09391667,18.75162815,1.36917422
JYS,14,0,2024-06-13T06:16:53.578Z,english_726.wav,0,0,1781,,,,,0,0,23.35137092,0.15397845
JYS,14,0,2024-06-13T06:16:53.578Z,english_726.wav,0,0,1781,,,,,1,0.1,76.34325819,1.80908671
JYS,14,0,2024-06-13T06:16:53.578Z,english_726.wav,0,0,1781,,,,,2,0.2,77.87153215,0.91237222
JYS,14,0,2024-06-13T06:16:53.578Z,english_726.wav,0,0,1781,,,,,3,0.3,45.89033074,0.3916486
JYS,14,0,2024-06-13T06:16:53.578Z,english_726.wav,0,0,1781,,,,,4,0.4,-92.46008591,1.60354114
JYS,14,0,2024-06-13T06:16:53.578Z,english_726.wav,0,0,1781,,,,,5,0.5,-89.27810563,0.90173572
JYS,14,0,2024-06-13T06:16:53.578Z,english_726.wav,0,0,1781,,,,,6,0.6,61.30206765,1.86939155
JYS,14,0,2024-06-13T06:16:53.578Z,english_726.wav,0,0,1781,,,,,7,0.7,68.07705407,0.57523975
JYS,14,0,2024-06-13T06:16:53.578Z,english_726.wav,0,0,1781,,,,,8,0.8,47.81218941,0.88835081
JYS,14,0,2024-06-13T06:16:53.578Z,english_726.wav,0,0,1781,,,,,9,0.9,85.67647673,0.33175344
JYS,14,0,2024-06-13T06:16:53.578Z,english_726.wav,0,0,1781,,,,,10,1,69.08166842,0.8335266
JYS,14,0,2024-06-13T06:16:53.578Z,english_726.wav,0,0,1781,,,,,11,1.09391667,71.61978118,0.36613886
JYS,15,0,2024-06-13T06:16:53.578Z,english_917.wav,0,0,990,,,,,0,0,-35.3182661,1.27669121
JYS,15,0,2024-06-13T06:16:53.578Z,english_917.wav,0,0,990,,,,,1,0.1,-21.7738587,1.4602349
JYS,15,0,2024-06-13T06:16:53.578Z,english_917.wav,0,0,990,,,,,2,0.2,82.1428169,0.09750383
JYS,15,0,2024-06-13T06:16:53.578Z,english_917.wav,0,0,990,,,,,3,0.3,-12.2731677,0.51655458
JYS,15,0,2024-06-13T06:16:53.578Z,english_917.wav,0,0,990,,,,,4,0.4,4.83424811,1.15347497
JYS,15,0,2024-06-13T06:16:53.578Z,english_917.wav,0,0,990,,,,,5,0.5,-0.0854945092,1.01469442
JYS,15,0,2024-06-13T06:16:53.578Z,english_917.wav,0,0,990,,,,,6,0.6,-92.693816,0.31102011
JYS,15,0,2024-06-13T06:16:53.578Z,english_917.wav,0,0,990,,,,,7,0.7,-91.5131295,1.44230515
JYS,15,0,2024-06-13T06:16:53.578Z,english_917.wav,0,0,990,,,,,8,0.8,58.0373061,0.03377485
JYS,15,0,2024-06-13T06:16:53.578Z,english_917.wav,0,0,990,,,,,9,0.9,-28.6534312,0.48994194
JYS,15,0,2024-06-13T06:16:53.578Z,english_917.wav,0,0,990,,,,,10,1,45.4510696,0.17679016
JYS,15,0,2024-06-13T06:16:53.578Z,english_917.wav,0,0,990,,,,,11,1.09391667,48.3165221,0.94650881
JYS,16,0,2024-06-13T06:16:53.578Z,english_292.wav,0,1,923,,,,,0,0,25.72060653,1.17792554
JYS,16,0,2024-06-13T06:16:53.578Z,english_292.wav,0,1,923,,,,,1,0.1,-6.51251487,0.30252559
JYS,16,0,2024-06-13T06:16:53.578Z,english_292.wav,0,1,923,,,,,2,0.2,3.32661168,1.09442145
JYS,16,0,2024-06-13T06:16:53.578Z,english_292.wav,0,1,923,,,,,3,0.3,89.62386246,1.28448778
JYS,16,0,2024-06-13T06:16:53.578Z,english_292.wav,0,1,923,,,,,4,0.4,80.65433919,1.02735441
JYS,16,0,2024-06-13T06:16:53.578Z,english_292.wav,0,1,923,,,,,5,0.5,44.84771524,0.62410129
JYS,16,0,2024-06-13T06:16:53.578Z,english_292.wav,0,1,923,,,,,6,0.6,25.54437629,1.60418481
JYS,16,0,2024-06-13T06:16:53.578Z,english_292.wav,0,1,923,,,,,7,0.7,-12.49512251,0.44189431
JYS,16,0,2024-06-13T06:16:53.578Z,english_292.wav,0,1,923,,,,,8,0.8,-42.7769001,1.24863789
JYS,16,0,2024-06-13T06:16:53.578Z,english_292.wav,0,1,923,,,,,9,0.9,-50.66960292,1.87159039
JYS,16,0,2024-06-13T06:16:53.578Z,english_292.wav,0,1,923,,,,,10,1,-26.28928757,1.63743996
JYS,16,0,2024-06-13T06:16:53.578Z,english_292.wav,0,1,923,,,,,11,1.09391667,-87.75283225,0.32075193
JYS,17,0,2024-06-13T06:16:53.578Z,english_189.wav,0,0,849,,,,,0,0,38.06728106,1.56553487
JYS,17,0,2024-06-13T06:16:53.578Z,english_189.wav,0,0,849,,,,,1,0.1,-1.4916867,1.31424407
JYS,17,0,2024-06-13T06:16:53.578Z,english_189.wav,0,0,849,,,,,2,0.2,43.23022726,1.86938367
JYS,17,0,2024-06-13T06:16:53.578Z,english_189.wav,0,0,849,,,,,3,0.3,70.52777392,0.10876999
JYS,17,0,2024-06-13T06:16:53.578Z,english_189.wav,0,0,849,,,,,4,0.4,-59.79939787,1.05429822
JYS,17,0,2024-06-13T06:16:53.578Z,english_189.wav,0,0,849,,,,,5,0.5,5.41678611,0.01998106
JYS,17,0,2024-06-13T06:16:53.578Z,english_189.wav,0,0,849,,,,,6,0.6,44.76349545,0.98555546
JYS,17,0,2024-06-13T06:16:53.578Z,english_189.wav,0,0,849,,,,,7,0.7,-14.25166989,1.99583415
JYS,17,0,2024-06-13T06:16:53.578Z,english_189.wav,0,0,849,,,,,8,0.8,-20.12101429,0.39293902
JYS,17,0,2024-06-13T06:16:53.578Z,english_189.wav,0,0,849,,,,,9,0.9,-43.3681134,0.55662411
JYS,17,0,2024-06-13T06:16:53.578Z,english_189.wav,0,0,849,,,,,10,1,-43.09833267,0.66082483
JYS,17,0,2024-06-13T06:16:53.578Z,english_189.wav,0,0,849,,,,,11,1.09391667,-43.67138872,0.74070611
JYS,18,0,2024-06-13T06:16:53.578Z,english_539.wav,0,1,1485,,,,,0,0,-94.17846062,0.79705309
JYS,18,0,2024-06-13T06:16:53.578Z,english_539.wav,0,1,1485,,,,,1,0.1,-5.02019603,0.75034459
JYS,18,0,2024-06-13T06:16:53.578Z,english_539.wav,0,1,1485,,,,,2,0.2,-69.32919076,1.92009714
JYS,18,0,2024-06-13T06:16:53.578Z,english_539.wav,0,1,1485,,,,,3,0.3,80.71922828,1.69419261
JYS,18,0,2024-06-13T06:16:53.578Z,english_539.wav,0,1,1485,,,,,4,0.4,-44.41930109,1.08134057
JYS,18,0,2024-06-13T06:16:53.578Z,english_539.wav,0,1,1485,,,,,5,0.5,60.55312323,0.26247587
JYS,18,0,2024-06-13T06:16:53.578Z,english_539.wav,0,1,1485,,,,,6,0.6,-22.38704472,1.40392738
JYS,18,0,2024-06-13T06:16:53.578Z,english_539.wav,0,1,1485,,,,,7,0.7,42.18310052,0.38201887
JYS,18,0,2024-06-13T06:16:53.578Z,english_539.wav,0,1,1485,,,,,8,0.8,-3.23406116,1.79513964
JYS,18,0,2024-06-13T06:16:53.578Z,english_539.wav,0,1,1485,,,,,9,0.9,86.87834775,0.10058598
JYS,18,0,2024-06-13T06:16:53.578Z,english_539.wav,0,1,1485,,,,,10,1,-2.56962664,1.19776684
JYS,18,0,2024-06-13T06:16:53.578Z,english_539.wav,0,1,1485,,,,,11,1.09391667,13.84279534,1.72675702
JYS,19,0,2024-06-13T06:16:53.578Z,english_111.wav,0,0,652,,,,,0,0,-7.89423459,1.73172447
JYS,19,0,2024-06-13T06:16:53.578Z,english_111.wav,0,0,652,,,,,1,0.1,-50.39853442,1.30536321
JYS,19,0,2024-06-13T06:16:53.578Z,english_111.wav,0,0,652,,,,,2,0.2,85.22773015,0.28962065
JYS,19,0,2024-06-13T06:16:53.578Z,english_111.wav,0,0,652,,,,,3,0.3,-7.88513069,1.6166787
JYS,19,0,2024-06-13T06:16:53.578Z,english_111.wav,0,0,652,,,,,4,0.4,-36.68324303,0.55677008
JYS,19,0,2024-06-13T06:16:53.578Z,english_111.wav,0,0,652,,,,,5,0.5,-4.8649615,1.31756148
JYS,19,0,2024-06-13T06:16:53.578Z,english_111.wav,0,0,652,,,,,6,0.6,-92.19494919,1.4789538
JYS,19,0,2024-06-13T06:16:53.578Z,english_111.wav,0,0,652,,,,,7,0.7,-6.11032283,0.53950686
JYS,19,0,2024-06-13T06:16:53.578Z,english_111.wav,0,0,652,,,,,8,0.8,41.34470973,0.89868821
JYS,19,0,2024-06-13T06:16:53.578Z,english_111.wav,0,0,652,,,,,9,0.9,-73.07088632,0.90401257
JYS,19,0,2024-06-13T06:16:53.578Z,english_111.wav,0,0,652,,,,,10,1,50.36502587,0.61580764
JYS,19,0,2024-06-13T06:16:53.578Z,english_111.wav,0,0,652,,,,,11,1.09391667,-49.90215361,1.87610476
JYS,20,0,2024-06-13T06:16:53.578Z,english_142.wav,0,1,1089,,,,,0,0,31.11671536,1.24679721
JYS,20,0,2024-06-13T06:16:53.578Z,english_142.wav,0,1,1089,,,,,1,0.1,14.00827892,0.65366655
JYS,20,0,2024-06-13T06:16:53.578Z,english_142.wav,0,1,1089,,,,,2,0.2,90.23748413,1.20113331
JYS,20,0,2024-06-13T06:16:53.578Z,english_142.wav,0,1,1089,,,,,3,0.3,82.30944071,1.60444487
JYS,20,0,2024-06-13T06:16:53.578Z,english_142.wav,0,1,1089,,,,,4,0.4,-1.47145923,1.29279254
JYS,20,0,2024-06-13T06:16:53.578Z,english_142.wav,0,1,1089,,,,,5,0.5,55.17460753,0.91831488
JYS,20,0,2024-06-13T06:16:53.578Z,english_142.wav,0,1,1089,,,,,6,0.6,26.61999518,0.78219664
JYS,20,0,2024-06-13T06:16:53.578Z,english_142.wav,0,1,1089,,,,,7,0.7,-9.70687044,0.08870339
JYS,20,0,2024-06-13T06:16:53.578Z,english_142.wav,0,1,1089,,,,,8,0.8,45.29559585,1.29591766
JYS,20,0,2024-06-13T06:16:53.578Z,english_142.wav,0,1,1089,,,,,9,0.9,-14.38709872,0.90292953
JYS,20,0,2024-06-13T06:16:53.578Z,english_142.wav,0,1,1089,,,,,10,1,-22.51804374,0.84738987
JYS,20,0,2024-06-13T06:16:53.578Z,english_142.wav,0,1,1089,,,,,11,1.09391667,56.35505814,0.22793797
JYS,21,0,2024-06-13T06:16:53.578Z,english_528.wav,0,0,1481,,,,,0,0,89.92931817,1.55464654
JYS,21,0,2024-06-13T06:16:53.578Z,english_528.wav,0,0,1481,,,,,1,0.1,69.43761356,1.5693867
JYS,21,0,2024-06-13T06:16:53.578Z,english_528.wav,0,0,1481,,,,,2,0.2,-74.63581074,0.24579909
JYS,21,0,2024-06-13T06:16:53.578Z,english_528.wav,0,0,1481,,,,,3,0.3,66.94799646,0.89003704
JYS,21,0,2024-06-13T06:16:53.578Z,english_528.wav,0,0,1481,,,,,4,0.4,93.4667874,0.02709789
JYS,21,0,2024-06-13T06:16:53.578Z,english_528.wav,0,0,1481,,,,,5,0.5,-73.58583841,1.93159194
JYS,21,0,2024-06-13T06:16:53.578Z,english_528.wav,0,0,1481,,,,,6,0.6,60.58074805,1.21534299
JYS,21,0,2024-06-13T06:16:53.578Z,english_528.wav,0,0,1481,,,,,7,0.7,-19.51561534,1.54968918
JYS,21,0,2024-06-13T06:16:53.578Z,english_528.wav,0,0,1481,,,,,8,0.8,1.50674214,1.22283315
JYS,21,0,2024-06-13T06:16:53.578Z,english_528.wav,0,0,1481,,,,,9,0.9,-4.69145727,0.16463995
JYS,21,0,2024-06-13T06:16:53.578Z,english_528.wav,0,0,1481,,,,,10,1,-90.65001005,0.26004795
JYS,21,0,2024-06-13T06:16:53.578Z,english_528.wav,0,0,1481,,,,,11,1.09391667,80.40130965,0.00778095
JYS,22,0,2024-06-13T06:16:53.578Z,english_838.wav,0,1,850,,,,,0,0,66.81838689,0.11169914
JYS,22,0,2024-06-13T06:16:53.578Z,english_838.wav,0,1,850,,,,,1,0.1,94.65046979,0.93671825
JYS,22,0,2024-06-13T06:16:53.578Z,english_838.wav,0,1,850,,,,,2,0.2,91.71604822,0.60356353
JYS,22,0,2024-06-13T06:16:53.578Z,english_838.wav,0,1,850,,,,,3,0.3,78.43794704,1.60109406
JYS,22,0,2024-06-13T06:16:53.578Z,english_838.wav,0,1,850,,,,,4,0.4,-73.47833102,0.84291267
JYS,22,0,2024-06-13T06:16:53.578Z,english_838.wav,0,1,850,,,,,5,0.5,11.66623314,1.01630723
JYS,22,0,2024-06-13T06:16:53.578Z,english_838.wav,0,1,850,,,,,6,0.6,-66.11404528,1.23732351
JYS,22,0,2024-06-13T06:16:53.578Z,english_838.wav,0,1,850,,,,,7,0.7,28.35642813,1.37061964
JYS,22,0,2024-06-13T06:16:53.578Z,english_838.wav,0,1,850,,,,,8,0.8,73.65825503,1.54014816
JYS,22,0,2024-06-13T06:16:53.578Z,english_838.wav,0,1,850,,,,,9,0.9,-30.5228579,0.53177064
JYS,22,0,2024-06-13T06:16:53.578Z,english_838.wav,0,1,850,,,,,10,1,-38.8042384,1.47567338
JYS,22,0,2024-06-13T06:16:53.578Z,english_838.wav,0,1,850,,,,,11,1.09391667,90.67589939,0.7352694
JYS,23,0,2024-06-13T06:16:53.578Z,english_481.wav,0,0,789,,,,,0,0,12.53874901,1.58204947
JYS,23,0,2024-06-13T06:16:53.578Z,english_481.wav,0,0,789,,,,,1,0.1,-9.84524601,0.30197463
JYS,23,0,2024-06-13T06:16:53.578Z,english_481.wav,0,0,789,,,,,2,0.2,-28.69081604,1.36929082
JYS,23,0,2024-06-13T06:16:53.578Z,english_481.wav,0,0,789,,,,,3,0.3,-3.98654711,1.57950224
JYS,23,0,2024-06-13T06:16:53.578Z,english_481.wav,0,0,789,,,,,4,0.4,-31.85582808,1.64821008
JYS,23,0,2024-06-13T06:16:53.578Z,english_481.wav,0,0,789,,,,,5,0.5,-60.66158974,1.40708
JYS,23,0,2024-06-13T06:16:53.578Z,english_481.wav,0,0,789,,,,,6,0.6,37.08553698,0.90705567
JYS,23,0,2024-06-13T06:16:53.578Z,english_481.wav,0,0,789,,,,,7,0.7,-55.30747295,0.62618862
JYS,23,0,2024-06-13T06:16:53.578Z,english_481.wav,0,0,789,,,,,8,0.8,79.95944373,0.10659235
JYS,23,0,2024-06-13T06:16:53.578Z,english_481.wav,0,0,789,,,,,9,0.9,16.93049167,0.31824417
JYS,23,0,2024-06-13T06:16:53.578Z,english_481.wav,0,0,789,,,,,10,1,2.57902723,0.18714767
JYS,23,0,2024-06-13T06:16:53.578Z,english_481.wav,0,0,789,,,,,11,1.09391667,9.37320396,0.57978015
JYS,24,0,2024-06-13T06:16:53.578Z,english_648.wav,0,1,1360,,,,,0,0,33.66524903,1.53800397
JYS,24,0,2024-06-13T06:16:53.578Z,english_648.wav,0,1,1360,,,,,1,0.1,97.98351088,1.15872761
JYS,24,0,2024-06-13T06:16:53.578Z,english_648.wav,0,1,1360,,,,,2,0.2,11.9794117,0.81425559
JYS,24,0,2024-06-13T06:16:53.578Z,english_648.wav,0,1,1360,,,,,3,0.3,29.55885348,0.88028101
JYS,24,0,2024-06-13T06:16:53.578Z,english_648.wav,0,1,1360,,,,,4,0.4,24.59728939,1.88326834
JYS,24,0,2024-06-13T06:16:53.578Z,english_648.wav,0,1,1360,,,,,5,0.5,59.2279724,1.09723956
JYS,24,0,2024-06-13T06:16:53.578Z,english_648.wav,0,1,1360,,,,,6,0.6,3.25949038,0.83602582
JYS,24,0,2024-06-13T06:16:53.578Z,english_648.wav,0,1,1360,,,,,7,0.7,-26.79620766,0.3704665
JYS,24,0,2024-06-13T06:16:53.578Z,english_648.wav,0,1,1360,,,,,8,0.8,98.3282455,0.87153578
JYS,24,0,2024-06-13T06:16:53.578Z,english_648.wav,0,1,1360,,,,,9,0.9,-78.7239126,1.50300547
JYS,24,0,2024-06-13T06:16:53.578Z,english_648.wav,0,1,1360,,,,,10,1,20.12137035,0.75356499
JYS,24,0,2024-06-13T06:16:53.578Z,english_648.wav,0,1,1360,,,,,11,1.09391667,-43.42156432,1.92538482
JYS,25,0,2024-06-13T06:16:53.578Z,english_989.wav,0,1,584,,,,,0,0,82.98869891,0.1174877
JYS,25,0,2024-06-13T06:16:53.578Z,english_989.wav,0,1,584,,,,,1,0.1,24.01311559,0.45178594
JYS,25,0,2024-06-13T06:16:53.578Z,english_989.wav,0,1,584,,,,,2,0.2,71.48528654,1.23946025
JYS,25,0,2024-06-13T06:16:53.578Z,english_989.wav,0,1,584,,,,,3,0.3,82.44483013,1.76656678
JYS,25,0,2024-06-13T06:16:53.578Z,english_989.wav,0,1,584,,,,,4,0.4,98.48869079,0.06101367
JYS,25,0,2024-06-13T06:16:53.578Z,english_989.wav,0,1,584,,,,,5,0.5,52.58496553,0.35631173
JYS,25,0,2024-06-13T06:16:53.578Z,english_989.wav,0,1,584,,,,,6,0.6,-12.54848129,0.41315994
JYS,25,0,2024-06-13T06:16:53.578Z,english_989.wav,0,1,584,,,,,7,0.7,-85.91000404,1.50303793
JYS,25,0,2024-06-13T06:16:53.578Z,english_989.wav,0,1,584,,,,,8,0.8,-71.42298859,0.56943281
JYS,25,0,2024-06-13T06:16:53.578Z,english_989.wav,0,1,584,,,,,9,0.9,25.94025435,1.73902477
JYS,25,0,2024-06-13T06:16:53.578Z,english_989.wav,0,1,584,,,,,10,1,87.85887099,1.10677421
JYS,25,0,2024-06-13T06:16:53.578Z,english_989.wav,0,1,584,,,,,11,1.09391667,-0.32541585,1.65366883
JYS,26,0,2024-06-13T06:16:53.578Z,english_467.wav,0,1,443,,,,,0,0,84.73520447,0.80775308
JYS,26,0,2024-06-13T06:16:53.578Z,english_467.wav,0,1,443,,,,,1,0.1,88.96200227,0.60891261
JYS,26,0,2024-06-13T06:16:53.578Z,english_467.wav,0,1,443,,,,,2,0.2,72.63675829,1.71596765
JYS,26,0,2024-06-13T06:16:53.578Z,english_467.wav,0,1,443,,,,,3,0.3,-11.47164633,0.15084523
JYS,26,0,2024-06-13T06:16:53.578Z,english_467.wav,0,1,443,,,,,4,0.4,-15.99279105,1.25287304
JYS,26,0,2024-06-13T06:16:53.578Z,english_467.wav,0,1,443,,,,,5,0.5,-43.82437563,1.40086837
JYS,26,0,2024-06-13T06:16:53.578Z,english_467.wav,0,1,443,,,,,6,0.6,43.03099958,0.418933
JYS,26,0,2024-06-13T06:16:53.578Z,english_467.wav,0,1,443,,,,,7,0.7,-45.22330674,1.80339492
JYS,26,0,2024-06-13T06:16:53.578Z,english_467.wav,0,1,443,,,,,8,0.8,76.52363546,0.77008525
JYS,26,0,2024-06-13T06:16:53.578Z,english_467.wav,0,1,443,,,,,9,0.9,-64.57143565,1.13088524
JYS,26,0,2024-06-13T06:16:53.578Z,english_467.wav,0,1,443,,,,,10,1,-23.20829111,0.17124527
JYS,26,0,2024-06-13T06:16:53.578Z,english_467.wav,0,1,443,,,,,11,1.09391667,90.56201043,1.41524886
JYS,27,0,2024-06-13T06:16:53.578Z,english_560.wav,0,1,589,,,,,0,0,-58.05020857,1.72720005
JYS,27,0,2024-06-13T06:16:53.578Z,english_560.wav,0,1,589,,,,,1,0.1,0.75359215,0.87170151
JYS,27,0,2024-06-13T06:16:53.578Z,english_560.wav,0,1,589,,,,,2,0.2,-63.0427696,1.11137899
JYS,27,0,2024-06-13T06:16:53.578Z,english_560.wav,0,1,589,,,,,3,0.3,-80.65695741,1.61210877
JYS,27,0,2024-06-13T06:16:53.578Z,english_560.wav,0,1,589,,,,,4,0.4,30.22073259,0.77402776
JYS,27,0,2024-06-13T06:16:53.578Z,english_560.wav,0,1,589,,,,,5,0.5,78.65082856,1.41240522
JYS,27,0,2024-06-13T06:16:53.578Z,english_560.wav,0,1,589,,,,,6,0.6,-21.87019315,1.5310865
JYS,27,0,2024-06-13T06:16:53.578Z,english_560.wav,0,1,589,,,,,7,0.7,-81.08775569,0.91259008
JYS,27,0,2024-06-13T06:16:53.578Z,english_560.wav,0,1,589,,,,,8,0.8,-85.95097006,0.61355253
JYS,27,0,2024-06-13T06:16:53.578Z,english_560.wav,0,1,589,,,,,9,0.9,55.61706947,0.53974683
JYS,27,0,2024-06-13T06:16:53.578Z,english_560.wav,0,1,589,,,,,10,1,78.8186599,1.30815579
JYS,27,0,2024-06-13T06:16:53.578Z,english_560.wav,0,1,589,,,,,11,1.09391667,-38.99290187,1.62027104
JYS,28,0,2024-06-13T06:16:53.578Z,english_122.wav,0,1,422,,,,,0,0,77.3413932,0.58709567
JYS,28,0,2024-06-13T06:16:53.578Z,english_122.wav,0,1,422,,,,,1,0.1,-67.39185751,0.0796985
JYS,28,0,2024-06-13T06:16:53.578Z,english_122.wav,0,1,422,,,,,2,0.2,89.18550357,1.00639024
JYS,28,0,2024-06-13T06:16:53.578Z,english_122.wav,0,1,422,,,,,3,0.3,12.33038367,0.81094575
JYS,28,0,2024-06-13T06:16:53.578Z,english_122.wav,0,1,422,,,,,4,0.4,70.68402371,0.57598842
JYS,28,0,2024-06-13T06:16:53.578Z,english_122.wav,0,1,422,,,,,5,0.5,25.06803156,0.93423984
JYS,28,0,2024-06-13T06:16:53.578Z,english_122.wav,0,1,422,,,,,6,0.6,56.81750659,1.53113092
JYS,28,0,2024-06-13T06:16:53.578Z,english_122.wav,0,1,422,,,,,7,0.7,-43.57912499,1.09738921
JYS,28,0,2024-06-13T06:16:53.578Z,english_122.wav,0,1,422,,,,,8,0.8,-51.88401647,1.34315846
JYS,28,0,2024-06-13T06:16:53.578Z,english_122.wav,0,1,422,,,,,9,0.9,-2.10023036,0.94720038
JYS,28,0,2024-06-13T06:16:53.578Z,english_122.wav,0,1,422,,,,,10,1,-47.35507429,1.69772014
JYS,28,0,2024-06-13T06:16:53.578Z,english_122.wav,0,1,422,,,,,11,1.09391667,20.07877732,1.14244601
JYS,29,0,2024-06-13T06:16:53.578Z,english_139.wav,0,0,1401,,,,,0,0,81.69119698,1.27933894
JYS,29,0,2024-06-13T06:16:53.578Z,english_139.wav,0,0,1401,,,,,1,0.1,42.19378668,0.17402895
JYS,29,0,2024-06-13T06:16:53.578Z,english_139.wav,0,0,1401,,,,,2,0.2,-40.74285827,0.51201081
JYS,29,0,2024-06-13T06:16:53.578Z,english_139.wav,0,0,1401,,,,,3,0.3,49.20247594,0.94873681
JYS,29,0,2024-06-13T06:16:53.578Z,english_139.wav,0,0,1401,,,,,4,0.4,-31.78428617,1.19745534
JYS,29,0,2024-06-13T06:16:53.578Z,english_139.wav,0,0,1401,,,,,5,0.5,33.76293525,0.67270535
JYS,29,0,2024-06-13T06:16:53.578Z,english_139.wav,0,0,1401,,,,,6,0.6,7.11439176,1.44433094
JYS,29,0,2024-06-13T06:16:53.578Z,english_139.wav,0,0,1401,,,,,7,0.7,-18.31872173,0.44605891
JYS,29,0,2024-06-13T06:16:53.578Z,english_139.wav,0,0,1401,,,,,8,0.8,79.70412409,0.81778602
JYS,29,0,2024-06-13T06:16:53.578Z,english_139.wav,0,0,1401,,,,,9,0.9,-88.5628162,1.24773735
JYS,29,0,2024-06-13T06:16:53.578Z,english_139.wav,0,0,1401,,,,,10,1,-65.12448171,0.00984113
JYS,29,0,2024-06-13T06:16:53.578Z,english_139.wav,0,0,1401,,,,,11,1.09391667,11.63103966,1.43403062
JYS,30,0,2024-06-13T06:16:53.578Z,english_446.wav,0,0,1060,,,,,0,0,-71.72833513,0.37077237
JYS,30,0,2024-06-13T06:16:53.578Z,english_446.wav,0,0,1060,,,,,1,0.1,-14.74031919,0.56990881
JYS,30,0,2024-06-13T06:16:53.578Z,english_446.wav,0,0,1060,,,,,2,0.2,-21.83541147,1.59729725
JYS,30,0,2024-06-13T06:16:53.578Z,english_446.wav,0,0,1060,,,,,3,0.3,-67.51881517,1.97035771
JYS,30,0,2024-06-13T06:16:53.578Z,english_446.wav,0,0,1060,,,,,4,0.4,-91.38875442,0.52850963
JYS,30,0,2024-06-13T06:16:53.578Z,english_446.wav,0,0,1060,,,,,5,0.5,6.74447183,1.74112616
JYS,30,0,2024-06-13T06:16:53.578Z,english_446.wav,0,0,1060,,,,,6,0.6,26.61618155,0.02543003
JYS,30,0,2024-06-13T06:16:53.578Z,english_446.wav,0,0,1060,,,,,7,0.7,72.29706337,0.19739553
JYS,30,0,2024-06-13T06:16:53.578Z,english_446.wav,0,0,1060,,,,,8,0.8,58.26898218,0.10712319
JYS,30,0,2024-06-13T06:16:53.578Z,english_446.wav,0,0,1060,,,,,9,0.9,30.44634512,0.63352141
JYS,30,0,2024-06-13T06:16:53.578Z,english_446.wav,0,0,1060,,,,,10,1,-17.84842899,1.44239476
JYS,30,0,2024-06-13T06:16:53.578Z,english_446.wav,0,0,1060,,,,,11,1.09391667,-24.00080187,0.76601062
JYS,31,0,2024-06-13T06:16:53.578Z,english_622.wav,0,1,627,,,,,0,0,85.23778605,0.25362511
JYS,31,0,2024-06-13T06:16:53.578Z,english_622.wav,0,1,627,,,,,1,0.1,-65.052425,0.70835512
JYS,31,0,2024-06-13T06:16:53.578Z,english_622.wav,0,1,627,,,,,2,0.2,94.1080223,1.56739435
JYS,31,0,2024-06-13T06:16:53.578Z,english_622.wav,0,1,627,,,,,3,0.3,60.75067227,0.57882882
JYS,31,0,2024-06-13T06:16:53.578Z,english_622.wav,0,1,627,,,,,4,0.4,82.36087021,1.03820214
JYS,31,0,2024-06-13T06:16:53.578Z,english_622.wav,0,1,627,,,,,5,0.5,-1.2973795,0.49027556
JYS,31,0,2024-06-13T06:16:53.578Z,english_622.wav,0,1,627,,,,,6,0.6,-58.39763813,0.28856178
JYS,31,0,2024-06-13T06:16:53.578Z,english_622.wav,0,1,627,,,,,7,0.7,58.2192584,1.06997695
JYS,31,0,2024-06-13T06:16:53.578Z,english_622.wav,0,1,627,,,,,8,0.8,-34.88970136,1.42411309
JYS,31,0,2024-06-13T06:16:53.578Z,english_622.wav,0,1,627,,,,,9,0.9,58.73036873,1.57990687
JYS,31,0,2024-06-13T06:16:53.578Z,english_622.wav,0,1,627,,,,,10,1,-83.0394786,0.97655658
JYS,31,0,2024-06-13T06:16:53.578Z,english_622.wav,0,1,627,,,,,11,1.09391667,11.79606421,1.49131796
JYS,32,0,2024-06-13T06:16:53.578Z,english_571.wav,0,1,960,,,,,0,0,66.27002453,0.70496708
JYS,32,0,2024-06-13T06:16:53.578Z,english_571.wav,0,1,960,,,,,1,0.1,72.56873765,1.41341806
JYS,32,0,2024-06-13T06:16:53.578Z,english_571.wav,0,1,960,,,,,2,0.2,-47.18075811,1.56676293
JYS,32,0,2024-06-13T06:16:53.578Z,english_571.wav,0,1,960,,,,,3,0.3,-50.2773596,1.96972076
JYS,32,0,2024-06-13T06:16:53.578Z,english_571.wav,0,1,960,,,,,4,0.4,-37.39995802,1.04150982
JYS,32,0,2024-06-13T06:16:53.578Z,english_571.wav,0,1,960,,,,,5,0.5,44.57144772,0.64987665
JYS,32,0,2024-06-13T06:16:53.578Z,english_571.wav,0,1,960,,,,,6,0.6,-77.42232626,0.50073604
JYS,32,0,2024-06-13T06:16:53.578Z,english_571.wav,0,1,960,,,,,7,0.7,-61.53894289,1.36720733
JYS,32,0,2024-06-13T06:16:53.578Z,english_571.wav,0,1,960,,,,,8,0.8,57.25780133,0.69150917
JYS,32,0,2024-06-13T06:16:53.578Z,english_571.wav,0,1,960,,,,,9,0.9,-53.9092717,0.1917381
JYS,32,0,2024-06-13T06:16:53.578Z,english_571.wav,0,1,960,,,,,10,1,79.641801,1.04532949
JYS,32,0,2024-06-13T06:16:53.578Z,english_571.wav,0,1,960,,,,,11,1.09391667,81.23373834,0.53527151
JYS,33,0,2024-06-13T06:16:53.578Z,english_519.wav,0,1,743,,,,,0,0,-89.70690317,1.70012146
JYS,33,0,2024-06-13T06:16:53.578Z,english_519.wav,0,1,743,,,,,1,0.1,12.73288581,0.30558637
JYS,33,0,2024-06-13T06:16:53.578Z,english_519.wav,0,1,743,,,,,2,0.2,-28.85796661,1.20634899
JYS,33,0,2024-06-13T06:16:53.578Z,english_519.wav,0,1,743,,,,,3,0.3,26.94929279,0.03671801
JYS,33,0,2024-06-13T06:16:53.578Z,english_519.wav,0,1,743,,,,,4,0.4,88.17509723,1.89470366
JYS,33,0,2024-06-13T06:16:53.578Z,english_519.wav,0,1,743,,,,,5,0.5,-36.4551596,1.56676756
JYS,33,0,2024-06-13T06:16:53.578Z,english_519.wav,0,1,743,,,,,6,0.6,24.45140187,0.94993833
JYS,33,0,2024-06-13T06:16:53.578Z,english_519.wav,0,1,743,,,,,7,0.7,7.63765931,1.07658622
JYS,33,0,2024-06-13T06:16:53.578Z,english_519.wav,0,1,743,,,,,8,0.8,1.30228681,1.81741966
JYS,33,0,2024-06-13T06:16:53.578Z,english_519.wav,0,1,743,,,,,9,0.9,72.18985419,0.56710914
JYS,33,0,2024-06-13T06:16:53.578Z,english_519.wav,0,1,743,,,,,10,1,-56.35512761,0.45384515
JYS,33,0,2024-06-13T06:16:53.578Z,english_519.wav,0,1,743,,,,,11,1.09391667,-27.12026306,1.11287687
JYS,34,0,2024-06-13T06:16:53.578Z,english_518.wav,0,1,1067,,,,,0,0,22.01202895,1.18568215
JYS,34,0,2024-06-13T06:16:53.578Z,english_518.wav,0,1,1067,,,,,1,0.1,84.85911905,1.27730104
JYS,34,0,2024-06-13T06:16:53.578Z,english_518.wav,0,1,1067,,,,,2,0.2,6.76803646,1.88343212
JYS,34,0,2024-06-13T06:16:53.578Z,english_518.wav,0,1,1067,,,,,3,0.3,-12.31334731,1.70516568
JYS,34,0,2024-06-13T06:16:53.578Z,english_518.wav,0,1,1067,,,,,4,0.4,-5.3812793,1.21188584
JYS,34,0,2024-06-13T06:16:53.578Z,english_518.wav,0,1,1067,,,,,5,0.5,-39.12372131,1.55365309
JYS,34,0,2024-06-13T06:16:53.578Z,english_518.wav,0,1,1067,,,,,6,0.6,-19.59187687,1.67380265
JYS,34,0,2024-06-13T06:16:53.578Z,english_518.wav,0,1,1067,,,,,7,0.7,30.09174406,1.67954719
JYS,34,0,2024-06-13T06:16:53.578Z,english_518.wav,0,1,1067,,,,,8,0.8,12.21299005,1.45293932
JYS,34,0,2024-06-13T06:16:53.578Z,english_518.wav,0,1,1067,,,,,9,0.9,-30.98849923,1.42118442
JYS,34,0,2024-06-13T06:16:53.578Z,english_518.wav,0,1,1067,,,,,10,1,-66.88783357,1.84946345
JYS,34,0,2024-06-13T06:16:53.578Z,english_518.wav,0,1,1067,,,,,11,1.09391667,-47.66173225,1.44146986
JYS,35,0,2024-06-13T06:16:53.578Z,english_367.wav,0,1,786,,,,,0,0,40.69288354,1.09000391
JYS,35,0,2024-06-13T06:16:53.578Z,english_367.wav,0,1,786,,,,,1,0.1,-87.28554983,0.74880644
JYS,35,0,2024-06-13T06:16:53.578Z,english_367.wav,0,1,786,,,,,2,0.2,-64.50130746,0.58255578
JYS,35,0,2024-06-13T06:16:53.578Z,english_367.wav,0,1,786,,,,,3,0.3,65.0554957,0.66468618
JYS,35,0,2024-06-13T06:16:53.578Z,english_367.wav,0,1,786,,,,,4,0.4,-34.90387066,1.54627645
JYS,35,0,2024-06-13T06:16:53.578Z,english_367.wav,0,1,786,,,,,5,0.5,29.56597753,0.56660027
JYS,35,0,2024-06-13T06:16:53.578Z,english_367.wav,0,1,786,,,,,6,0.6,36.50215848,0.69792946
JYS,35,0,2024-06-13T06:16:53.578Z,english_367.wav,0,1,786,,,,,7,0.7,-55.69798386,1.00541299
JYS,35,0,2024-06-13T06:16:53.578Z,english_367.wav,0,1,786,,,,,8,0.8,12.84757482,0.65534854
JYS,35,0,2024-06-13T06:16:53.578Z,english_367.wav,0,1,786,,,,,9,0.9,-23.54866279,1.89531092
JYS,35,0,2024-06-13T06:16:53.578Z,english_367.wav,0,1,786,,,,,10,1,-55.73647309,0.87598705
JYS,35,0,2024-06-13T06:16:53.578Z,english_367.wav,0,1,786,,,,,11,1.09391667,79.84600893,1.75535151
JYS,36,0,2024-06-13T06:16:53.578Z,english_739.wav,0,1,831,,,,,0,0,1.66907671,0.87693375
JYS,36,0,2024-06-13T06:16:53.578Z,english_739.wav,0,1,831,,,,,1,0.1,32.28194312,0.65337813
JYS,36,0,2024-06-13T06:16:53.578Z,english_739.wav,0,1,831,,,,,2,0.2,88.89595153,0.64089741
JYS,36,0,2024-06-13T06:16:53.578Z,english_739.wav,0,1,831,,,,,3,0.3,20.95779095,1.8100412
JYS,36,0,2024-06-13T06:16:53.578Z,english_739.wav,0,1,831,,,,,4,0.4,75.26857339,1.25976755
JYS,36,0,2024-06-13T06:16:53.578Z,english_739.wav,0,1,831,,,,,5,0.5,80.94392955,0.9768095
JYS,36,0,2024-06-13T06:16:53.578Z,english_739.wav,0,1,831,,,,,6,0.6,17.54887525,1.56119235
JYS,36,0,2024-06-13T06:16:53.578Z,english_739.wav,0,1,831,,,,,7,0.7,25.07377362,0.95993111
JYS,36,0,2024-06-13T06:16:53.578Z,english_739.wav,0,1,831,,,,,8,0.8,92.52917298,0.31388654
JYS,36,0,2024-06-13T06:16:53.578Z,english_739.wav,0,1,831,,,,,9,0.9,2.73629171,1.55063506
JYS,36,0,2024-06-13T06:16:53.578Z,english_739.wav,0,1,831,,,,,10,1,-80.00700458,1.57282249
JYS,36,0,2024-06-13T06:16:53.578Z,english_739.wav,0,1,831,,,,,11,1.09391667,-87.47656885,1.46307629
JYS,37,0,2024-06-13T06:16:53.578Z,english_954.wav,0,1,766,,,,,0,0,-5.86860432,0.02682789
JYS,37,0,2024-06-13T06:16:53.578Z,english_954.wav,0,1,766,,,,,1,0.1,38.42724969,1.50907573
JYS,37,0,2024-06-13T06:16:53.578Z,english_954.wav,0,1,766,,,,,2,0.2,83.51680292,1.17187714
JYS,37,0,2024-06-13T06:16:53.578Z,english_954.wav,0,1,766,,,,,3,0.3,-25.06032499,1.88473576
JYS,37,0,2024-06-13T06:16:53.578Z,english_954.wav,0,1,766,,,,,4,0.4,-17.48975264,0.3035603
JYS,37,0,2024-06-13T06:16:53.578Z,english_954.wav,0,1,766,,,,,5,0.5,95.06102198,1.35082964
JYS,37,0,2024-06-13T06:16:53.578Z,english_954.wav,0,1,766,,,,,6,0.6,0.80140457,0.63281948
JYS,37,0,2024-06-13T06:16:53.578Z,english_954.wav,0,1,766,,,,,7,0.7,-41.69263262,0.91375779
JYS,37,0,2024-06-13T06:16:53.578Z,english_954.wav,0,1,766,,,,,8,0.8,18.46045351,0.80486046
JYS,37,0,2024-06-13T06:16:53.578Z,english_954.wav,0,1,766,,,,,9,0.9,-7.88727361,0.18383046
JYS,37,0,2024-06-13T06:16:53.578Z,english_954.wav,0,1,766,,,,,10,1,-34.36872213,1.25307449
JYS,37,0,2024-06-13T06:16:53.578Z,english_954.wav,0,1,766,,,,,11,1.09391667,40.0906943,0.22905501
JYS,38,0,2024-06-13T06:16:53.578Z,english_332.wav,0,0,565,,,,,0,0,53.78872747,0.07590352
JYS,38,0,2024-06-13T06:16:53.578Z,english_332.wav,0,0,565,,,,,1,0.1,-31.30231847,0.7087577
JYS,38,0,2024-06-13T06:16:53.578Z,english_332.wav,0,0,565,,,,,2,0.2,-95.20758858,1.45218303
JYS,38,0,2024-06-13T06:16:53.578Z,english_332.wav,0,0,565,,,,,3,0.3,-77.87616394,0.80997209
JYS,38,0,2024-06-13T06:16:53.578Z,english_332.wav,0,0,565,,,,,4,0.4,4.48979234,1.75678136
JYS,38,0,2024-06-13T06:16:53.578Z,english_332.wav,0,0,565,,,,,5,0.5,-76.42784497,1.99645024
JYS,38,0,2024-06-13T06:16:53.578Z,english_332.wav,0,0,565,,,,,6,0.6,6.07718634,1.82588157
JYS,38,0,2024-06-13T06:16:53.578Z,english_332.wav,0,0,565,,,,,7,0.7,-41.20247157,0.2120908
JYS,38,0,2024-06-13T06:16:53.578Z,english_332.wav,0,0,565,,,,,8,0.8,-17.3481238,0.72760948
JYS,38,0,2024-06-13T06:16:53.578Z,english_332.wav,0,0,565,,,,,9,0.9,-17.17913846,0.31892552
JYS,38,0,2024-06-13T06:16:53.578Z,english_332.wav,0,0,565,,,,,10,1,18.70166714,0.40752537
JYS,38,0,2024-06-13T06:16:53.578Z,english_332.wav,0,0,565,,,,,11,1.09391667,50.68092334,0.76645959
JYS,39,0,2024-06-13T06:16:53.578Z,english_204.wav,0,0,956,,,,,0,0,-54.18548322,0.4935822
JYS,39,0,2024-06-13T06:16:53.578Z,english_204.wav,0,0,956,,,,,1,0.1,-11.27218157,1.37686427
JYS,39,0,2024-06-13T06:16:53.578Z,english_204.wav,0,0,956,,,,,2,0.2,57.70913134,1.17627269
JYS,39,0,2024-06-13T06:16:53.578Z,english_204.wav,0,0,956,,,,,3,0.3,-85.27797026,1.14645494
JYS,39,0,2024-06-13T06:16:53.578Z,english_204.wav,0,0,956,,,,,4,0.4,28.61054009,1.61303053
JYS,39,0,2024-06-13T06:16:53.578Z,english_204.wav,0,0,956,,,,,5,0.5,-36.71816677,0.72559221
JYS,39,0,2024-06-13T06:16:53.578Z,english_204.wav,0,0,956,,,,,6,0.6,-27.72446487,1.95000364
JYS,39,0,2024-06-13T06:16:53.578Z,english_204.wav,0,0,956,,,,,7,0.7,14.69142801,0.06695508
JYS,39,0,2024-06-13T06:16:53.578Z,english_204.wav,0,0,956,,,,,8,0.8,9.61746044,1.52094915
JYS,39,0,2024-06-13T06:16:53.578Z,english_204.wav,0,0,956,,,,,9,0.9,22.67127582,0.41034945
JYS,39,0,2024-06-13T06:16:53.578Z,english_204.wav,0,0,956,,,,,10,1,69.36328148,0.4470276
JYS,39,0,2024-06-13T06:16:53.578Z,english_204.wav,0,0,956,,,,,11,1.09391667,-44.4283226,1.93225144
JYS,40,0,2024-06-13T06:16:53.578Z,english_859.wav,0,1,885,,,,,0,0,31.07114651,1.62014662
JYS,40,0,2024-06-13T06:16:53.578Z,english_859.wav,0,1,885,,,,,1,0.1,-28.29036268,0.23536516
JYS,40,0,2024-06-13T06:16:53.578Z,english_859.wav,0,1,885,,,,,2,0.2,-99.32977332,1.20919843
JYS,40,0,2024-06-13T06:16:53.578Z,english_859.wav,0,1,885,,,,,3,0.3,24.56403326,1.87022771
JYS,40,0,2024-06-13T06:16:53.578Z,english_859.wav,0,1,885,,,,,4,0.4,13.96924155,1.25340901
JYS,40,0,2024-06-13T06:16:53.578Z,english_859.wav,0,1,885,,,,,5,0.5,-7.10648456,1.24145487
JYS,40,0,2024-06-13T06:16:53.578Z,english_859.wav,0,1,885,,,,,6,0.6,16.2139947,0.16688969
JYS,40,0,2024-06-13T06:16:53.578Z,english_859.wav,0,1,885,,,,,7,0.7,-63.09488954,1.9877967
JYS,40,0,2024-06-13T06:16:53.578Z,english_859.wav,0,1,885,,,,,8,0.8,32.97149002,1.05528454
JYS,40,0,2024-06-13T06:16:53.578Z,english_859.wav,0,1,885,,,,,9,0.9,73.86440675,1.04254929
JYS,40,0,2024-06-13T06:16:53.578Z,english_859.wav,0,1,885,,,,,10,1,18.08685772,0.40355025
JYS,40,0,2024-06-13T06:16:53.578Z,english_859.wav,0,1,885,,,,,11,1.09391667,63.56526174,1.52495745
JYS,41,0,2024-06-13T06:16:53.578Z,english_720.wav,0,1,746,,,,,0,0,46.77057766,0.94113564
JYS,41,0,2024-06-13T06:16:53.578Z,english_720.wav,0,1,746,,,,,1,0.1,6.53423564,0.426958
JYS,41,0,2024-06-13T06:16:53.578Z,english_720.wav,0,1,746,,,,,2,0.2,87.60072251,0.98755995
JYS,41,0,2024-06-13T06:16:53.578Z,english_720.wav,0,1,746,,,,,3,0.3,96.80442869,1.5976329
JYS,41,0,2024-06-13T06:16:53.578Z,english_720.wav,0,1,746,,,,,4,0.4,-66.64150433,0.77306227
JYS,41,0,2024-06-13T06:16:53.578Z,english_720.wav,0,1,746,,,,,5,0.5,-65.5107245,0.84513323
JYS,41,0,2024-06-13T06:16:53.578Z,english_720.wav,0,1,746,,,,,6,0.6,-89.05316387,1.55668389
JYS,41,0,2024-06-13T06:16:53.578Z,english_720.wav,0,1,746,,,,,7,0.7,-94.07157603,0.13811629
JYS,41,0,2024-06-13T06:16:53.578Z,english_720.wav,0,1,746,,,,,8,0.8,-1.26954852,1.01089963
JYS,41,0,2024-06-13T06:16:53.578Z,english_720.wav,0,1,746,,,,,9,0.9,-25.92154029,1.10803593
JYS,41,0,2024-06-13T06:16:53.578Z,english_720.wav,0,1,746,,,,,10,1,24.94515678,1.26621877
JYS,41,0,2024-06-13T06:16:53.578Z,english_720.wav,0,1,746,,,,,11,1.09391667,-38.69158076,0.96623921
JYS,42,0,2024-06-13T06:16:53.578Z,english_978.wav,0,1,1664,,,,,0,0,-56.85728998,1.17346596
JYS,42,0,2024-06-13T06:16:53.578Z,english_978.wav,0,1,1664,,,,,1,0.1,16.43364259,0.59297783
JYS,42,0,2024-06-13T06:16:53.578Z,english_978.wav,0,1,1664,,,,,2,0.2,47.77326739,0.67016687
JYS,42,0,2024-06-13T06:16:53.578Z,english_978.wav,0,1,1664,,,,,3,0.3,94.05967356,1.98266891
JYS,42,0,2024-06-13T06:16:53.578Z,english_978.wav,0,1,1664,,,,,4,0.4,-76.48908754,0.86932432
JYS,42,0,2024-06-13T06:16:53.578Z,english_978.wav,0,1,1664,,,,,5,0.5,-47.71848611,0.89103479
JYS,42,0,2024-06-13T06:16:53.578Z,english_978.wav,0,1,1664,,,,,6,0.6,-17.07884838,1.65910536
JYS,42,0,2024-06-13T06:16:53.578Z,english_978.wav,0,1,1664,,,,,7,0.7,50.2599466,1.27682187
JYS,42,0,2024-06-13T06:16:53.578Z,english_978.wav,0,1,1664,,,,,8,0.8,83.04934383,0.051565
JYS,42,0,2024-06-13T06:16:53.578Z,english_978.wav,0,1,1664,,,,,9,0.9,-14.53932226,0.45965995
JYS,42,0,2024-06-13T06:16:53.578Z,english_978.wav,0,1,1664,,,,,10,1,-40.28373024,1.12972823
JYS,42,0,2024-06-13T06:16:53.578Z,english_978.wav,0,1,1664,,,,,11,1.09391667,82.58821892,1.51179451
JYS,43,0,2024-06-13T06:16:53.578Z,english_627.wav,0,1,468,,,,,0,0,61.61292799,1.38806705
JYS,43,0,2024-06-13T06:16:53.578Z,english_627.wav,0,1,468,,,,,1,0.1,56.33641902,0.72797241
JYS,43,0,2024-06-13T06:16:53.578Z,english_627.wav,0,1,468,,,,,2,0.2,-89.79026277,1.31326188
JYS,43,0,2024-06-13T06:16:53.578Z,english_627.wav,0,1,468,,,,,3,0.3,-79.74264658,1.97676424
JYS,43,0,2024-06-13T06:16:53.578Z,english_627.wav,0,1,468,,,,,4,0.4,23.07538857,1.13729178
JYS,43,0,2024-06-13T06:16:53.578Z,english_627.wav,0,1,468,,,,,5,0.5,-10.76343706,0.13245486
JYS,43,0,2024-06-13T06:16:53.578Z,english_627.wav,0,1,468,,,,,6,0.6,-5.69473489,0.69323738
JYS,43,0,2024-06-13T06:16:53.578Z,english_627.wav,0,1,468,,,,,7,0.7,-7.26950502,1.4848786
JYS,43,0,2024-06-13T06:16:53.578Z,english_627.wav,0,1,468,,,,,8,0.8,15.57475433,1.9356485
JYS,43,0,2024-06-13T06:16:53.578Z,english_627.wav,0,1,468,,,,,9,0.9,3.14852465,1.60625319
JYS,43,0,2024-06-13T06:16:53.578Z,english_627.wav,0,1,468,,,,,10,1,33.23262787,0.88492326
JYS,43,0,2024-06-13T06:16:53.578Z,english_627.wav,0,1,468,,,,,11,1.09391667,-88.39615435,1.31394344
JYS,44,0,2024-06-13T06:16:53.578Z,english_802.wav,0,1,322,,,,,0,0,59.91511279,1.85367275
JYS,44,0,2024-06-13T06:16:53.578Z,english_802.wav,0,1,322,,,,,1,0.1,12.24886821,1.18024621
JYS,44,0,2024-06-13T06:16:53.578Z,english_802.wav,0,1,322,,,,,2,0.2,96.02397802,1.49834519
JYS,44,0,2024-06-13T06:16:53.578Z,english_802.wav,0,1,322,,,,,3,0.3,13.76175382,0.18406028
JYS,44,0,2024-06-13T06:16:53.578Z,english_802.wav,0,1,322,,,,,4,0.4,61.38770088,0.92630848
JYS,44,0,2024-06-13T06:16:53.578Z,english_802.wav,0,1,322,,,,,5,0.5,-27.16563277,0.54382734
JYS,44,0,2024-06-13T06:16:53.578Z,english_802.wav,0,1,322,,,,,6,0.6,-56.7121097,1.05559663
JYS,44,0,2024-06-13T06:16:53.578Z,english_802.wav,0,1,322,,,,,7,0.7,-6.03893496,0.71322875
JYS,44,0,2024-06-13T06:16:53.578Z,english_802.wav,0,1,322,,,,,8,0.8,-52.64183472,0.836902
JYS,44,0,2024-06-13T06:16:53.578Z,english_802.wav,0,1,322,,,,,9,0.9,20.48360961,1.2036053
JYS,44,0,2024-06-13T06:16:53.578Z,english_802.wav,0,1,322,,,,,10,1,63.06136933,1.08845051
JYS,44,0,2024-06-13T06:16:53.578Z,english_802.wav,0,1,322,,,,,11,1.09391667,47.93084829,1.71595045
JYS,45,0,2024-06-13T06:16:53.578Z,english_904.wav,0,1,1631,,,,,0,0,-74.82582528,1.4013029
JYS,45,0,2024-06-13T06:16:53.578Z,english_904.wav,0,1,1631,,,,,1,0.1,-96.79575006,0.13633554
JYS,45,0,2024-06-13T06:16:53.578Z,english_904.wav,0,1,1631,,,,,2,0.2,95.14053513,0.85457449
JYS,45,0,2024-06-13T06:16:53.578Z,english_904.wav,0,1,1631,,,,,3,0.3,-60.85445871,0.52689268
JYS,45,0,2024-06-13T06:16:53.578Z,english_904.wav,0,1,1631,,,,,4,0.4,-53.61462939,1.15689505
JYS,45,0,2024-06-13T06:16:53.578Z,english_904.wav,0,1,1631,,,,,5,0.5,36.4108286,1.15306908
JYS,45,0,2024-06-13T06:16:53.578Z,english_904.wav,0,1,1631,,,,,6,0.6,-81.73904146,0.53780722
JYS,45,0,2024-06-13T06:16:53.578Z,english_904.wav,0,1,1631,,,,,7,0.7,67.08505199,1.6251065
JYS,45,0,2024-06-13T06:16:53.578Z,english_904.wav,0,1,1631,,,,,8,0.8,-51.49043615,0.93791245
JYS,45,0,2024-06-13T06:16:53.578Z,english_904.wav,0,1,1631,,,,,9,0.9,-56.43319174,0.6672811
JYS,45,0,2024-06-13T06:16:53.578Z,english_904.wav,0,1,1631,,,,,10,1,-26.03996305,0.48044762
JYS,45,0,2024-06-13T06:16:53.578Z,english_904.wav,0,1,1631,,,,,11,1.09391667,9.12764333,1.83086337
JYS,46,0,2024-06-13T06:16:53.578Z,english_632.wav,0,1,497,,,,,0,0,54.27416022,0.37224575
JYS,46,0,2024-06-13T06:16:53.578Z,english_632.wav,0,1,497,,,,,1,0.1,37.10784124,1.19176423
JYS,46,0,2024-06-13T06:16:53.578Z,english_632.wav,0,1,497,,,,,2,0.2,-11.42343802,1.11602641
JYS,46,0,2024-06-13T06:16:53.578Z,english_632.wav,0,1,497,,,,,3,0.3,83.07683271,0.86319718
JYS,46,0,2024-06-13T06:16:53.578Z,english_632.wav,0,1,497,,,,,4,0.4,-41.86230003,1.45181299
JYS,46,0,2024-06-13T06:16:53.578Z,english_632.wav,0,1,497,,,,,5,0.5,-65.18909296,0.00810665
JYS,46,0,2024-06-13T06:16:53.578Z,english_632.wav,0,1,497,,,,,6,0.6,73.88921211,1.82551729
JYS,46,0,2024-06-13T06:16:53.578Z,english_632.wav,0,1,497,,,,,7,0.7,-78.27421644,0.97441054
JYS,46,0,2024-06-13T06:16:53.578Z,english_632.wav,0,1,497,,,,,8,0.8,-55.91875918,1.38456518
JYS,46,0,2024-06-13T06:16:53.578Z,english_632.wav,0,1,497,,,,,9,0.9,38.52779866,1.39025004
JYS,46,0,2024-06-13T06:16:53.578Z,english_632.wav,0,1,497,,,,,10,1,-63.00995407,0.73323837
JYS,46,0,2024-06-13T06:16:53.578Z,english_632.wav,0,1,497,,,,,11,1.09391667,-47.01105768,1.12337895
JYS,47,0,2024-06-13T06:16:53.578Z,english_211.wav,0,1,697,,,,,0,0,-80.71487731,0.76887991
JYS,47,0,2024-06-13T06:16:53.578Z,english_211.wav,0,1,697,,,,,1,0.1,-84.93103541,0.20306802
JYS,47,0,2024-06-13T06:16:53.578Z,english_211.wav,0,1,697,,,,,2,0.2,44.45354712,0.68006184
JYS,47,0,2024-06-13T06:16:53.578Z,english_211.wav,0,1,697,,,,,3,0.3,93.3584913,1.00051335
JYS,47,0,2024-06-13T06:16:53.578Z,english_211.wav,0,1,697,,,,,4,0.4,-88.5655354,1.99828121
JYS,47,0,2024-06-13T06:16:53.578Z,english_211.wav,0,1,697,,,,,5,0.5,58.50265478,0.71004269
JYS,47,0,2024-06-13T06:16:53.578Z,english_211.wav,0,1,697,,,,,6,0.6,42.72435837,1.91299509
JYS,47,0,2024-06-13T06:16:53.578Z,english_211.wav,0,1,697,,,,,7,0.7,15.71938112,1.01891246
JYS,47,0,2024-06-13T06:16:53.578Z,english_211.wav,0,1,697,,,,,8,0.8,7.70597987,1.53959141
JYS,47,0,2024-06-13T06:16:53.578Z,english_211.wav,0,1,697,,,,,9,0.9,-16.73581283,1.64058726
JYS,47,0,2024-06-13T06:16:53.578Z,english_211.wav,0,1,697,,,,,10,1,-59.877834,1.4823545
JYS,47,0,2024-06-13T06:16:53.578Z,english_211.wav,0,1,697,,,,,11,1.09391667,39.92997673,1.39164399
JYS,48,0,2024-06-13T06:16:53.578Z,english_305.wav,0,0,1413,,,,,0,0,17.49267602,0.00977258
JYS,48,0,2024-06-13T06:16:53.578Z,english_305.wav,0,0,1413,,,,,1,0.1,17.59035292,1.17585195
JYS,48,0,2024-06-13T06:16:53.578Z,english_305.wav,0,0,1413,,,,,2,0.2,83.12376417,1.66932103
JYS,48,0,2024-06-13T06:16:53.578Z,english_305.wav,0,0,1413,,,,,3,0.3,-81.59474703,0.83160233
JYS,48,0,2024-06-13T06:16:53.578Z,english_305.wav,0,0,1413,,,,,4,0.4,-99.63264863,1.05024367
JYS,48,0,2024-06-13T06:16:53.578Z,english_305.wav,0,0,1413,,,,,5,0.5,42.69289025,1.13369845
JYS,48,0,2024-06-13T06:16:53.578Z,english_305.wav,0,0,1413,,,,,6,0.6,82.55548118,0.21867151
JYS,48,0,2024-06-13T06:16:53.578Z,english_305.wav,0,0,1413,,,,,7,0.7,15.87479687,0.32447169
JYS,48,0,2024-06-13T06:16:53.578Z,english_305.wav,0,0,1413,,,,,8,0.8,-15.6323718,1.86350195
JYS,48,0,2024-06-13T06:16:53.578Z,english_305.wav,0,0,1413,,,,,9,0.9,98.18396958,0.82463705
JYS,48,0,2024-06-13T06:16:53.578Z,english_305.wav,0,0,1413,,,,,10,1,52.83112054,0.94709308
JYS,48,0,2024-06-13T06:16:53.578Z,english_305.wav,0,0,1413,,,,,11,1.09391667,33.63343534,0.36254065
JYS,49,0,2024-06-13T06:16:53.578Z,english_618.wav,0,1,410,,,,,0,0,-79.9488622,1.91362605
JYS,49,0,2024-06-13T06:16:53.578Z,english_618.wav,0,1,410,,,,,1,0.1,0.24132163,0.6330552
JYS,49,0,2024-06-13T06:16:53.578Z,english_618.wav,0,1,410,,,,,2,0.2,-56.62295111,0.97728614
JYS,49,0,2024-06-13T06:16:53.578Z,english_618.wav,0,1,410,,,,,3,0.3,-72.03937353,0.96298019
JYS,49,0,2024-06-13T06:16:53.578Z,english_618.wav,0,1,410,,,,,4,0.4,-44.72303747,1.81673931
JYS,49,0,2024-06-13T06:16:53.578Z,english_618.wav,0,1,410,,,,,5,0.5,-96.08672425,0.35989287
JYS,49,0,2024-06-13T06:16:53.578Z,english_618.wav,0,1,410,,,,,6,0.6,63.06881346,1.43341205
JYS,49,0,2024-06-13T06:16:53.578Z,english_618.wav,0,1,410,,,,,7,0.7,7.33604436,1.78848637
JYS,49,0,2024-06-13T06:16:53.578Z,english_618.wav,0,1,410,,,,,8,0.8,76.47736911,1.05646412
JYS,49,0,2024-06-13T06:16:53.578Z,english_618.wav,0,1,410,,,,,9,0.9,-52.54898443,0.998868
JYS,49,0,2024-06-13T06:16:53.578Z,english_618.wav,0,1,410,,,,,10,1,33.73192618,1.38011588
JYS,49,0,2024-06-13T06:16:53.578Z,english_618.wav,0,1,410,,,,,11,1.09391667,31.05572927,1.5899218
JYS,50,1,2024-06-13T06:16:53.578Z,english_588.wav,0,0,1847,,,,,0,0,29.91091742,1.28287681
JYS,50,1,2024-06-13T06:16:53.578Z,english_588.wav,0,0,1847,,,,,1,0.1,29.9060619,1.09118729
JYS,50,1,2024-06-13T06:16:53.578Z,english_588.wav,0,0,1847,,,,,2,0.2,-35.2299782,0.95294685
JYS,50,1,2024-06-13T06:16:53.578Z,english_588.wav,0,0,1847,,,,,3,0.3,33.93454747,1.46022219
JYS,50,1,2024-06-13T06:16:53.578Z,english_588.wav,0,0,1847,,,,,4,0.4,16.01664829,1.6252916
JYS,50,1,2024-06-13T06:16:53.578Z,english_588.wav,0,0,1847,,,,,5,0.5,-18.70778189,1.19035327
JYS,50,1,2024-06-13T06:16:53.578Z,english_588.wav,0,0,1847,,,,,6,0.6,-97.06291502,0.90275631
JYS,50,1,2024-06-13T06:16:53.578Z,english_588.wav,0,0,1847,,,,,7,0.7,13.076942,0.534144
JYS,50,1,2024-06-13T06:16:53.578Z,english_588.wav,0,0,1847,,,,,8,0.8,50.92498955,0.26255875
JYS,50,1,2024-06-13T06:16:53.578Z,english_588.wav,0,0,1847,,,,,9,0.9,53.17318001,0.29008288
JYS,50,1,2024-06-13T06:16:53.578Z,english_588.wav,0,0,1847,,,,,10,1,52.34619788,0.99016986
JYS,50,1,2024-06-13T06:16:53.578Z,english_588.wav,0,0,1847,,,,,11,1.09391667,1.61294986,0.96989244
JYS,51,1,2024-06-13T06:16:53.578Z,english_586.wav,0,0,1326,,,,,0,0,19.9692207,1.34383916
JYS,51,1,2024-06-13T06:16:53.578Z,english_586.wav,0,0,1326,,,,,1,0.1,22.22606315,0.0196847498
JYS,51,1,2024-06-13T06:16:53.578Z,english_586.wav,0,0,1326,,,,,2,0.2,44.76083147,1.32604329
JYS,51,1,2024-06-13T06:16:53.578Z,english_586.wav,0,0,1326,,,,,3,0.3,30.56518658,0.457164903
JYS,51,1,2024-06-13T06:16:53.578Z,english_586.wav,0,0,1326,,,,,4,0.4,70.50807044,0.862218031
JYS,51,1,2024-06-13T06:16:53.578Z,english_586.wav,0,0,1326,,,,,5,0.5,-99.40073456,1.19900353
JYS,51,1,2024-06-13T06:16:53.578Z,english_586.wav,0,0,1326,,,,,6,0.6,-34.76596453,1.85917609
JYS,51,1,2024-06-13T06:16:53.578Z,english_586.wav,0,0,1326,,,,,7,0.7,-7.2574162,0.599282433
JYS,51,1,2024-06-13T06:16:53.578Z,english_586.wav,0,0,1326,,,,,8,0.8,-34.51491792,0.420457526
JYS,51,1,2024-06-13T06:16:53.578Z,english_586.wav,0,0,1326,,,,,9,0.9,40.55984504,1.44903206
JYS,51,1,2024-06-13T06:16:53.578Z,english_586.wav,0,0,1326,,,,,10,1,43.92860722,0.00056977348
JYS,51,1,2024-06-13T06:16:53.578Z,english_586.wav,0,0,1326,,,,,11,1.09391667,97.81958787,1.67148022
JYS,52,1,2024-06-13T06:16:53.578Z,english_419.wav,0,1,1056,,,,,0,0,-43.56677124,1.2135263
JYS,52,1,2024-06-13T06:16:53.578Z,english_419.wav,0,1,1056,,,,,1,0.1,-83.21546868,0.41335372
JYS,52,1,2024-06-13T06:16:53.578Z,english_419.wav,0,1,1056,,,,,2,0.2,-41.54064667,1.17083651
JYS,52,1,2024-06-13T06:16:53.578Z,english_419.wav,0,1,1056,,,,,3,0.3,-35.81330599,0.87264028
JYS,52,1,2024-06-13T06:16:53.578Z,english_419.wav,0,1,1056,,,,,4,0.4,-43.55129097,0.34128763
JYS,52,1,2024-06-13T06:16:53.578Z,english_419.wav,0,1,1056,,,,,5,0.5,-33.79077662,1.24788402
JYS,52,1,2024-06-13T06:16:53.578Z,english_419.wav,0,1,1056,,,,,6,0.6,70.44881048,0.43489623
JYS,52,1,2024-06-13T06:16:53.578Z,english_419.wav,0,1,1056,,,,,7,0.7,3.24826562,0.29781148
JYS,52,1,2024-06-13T06:16:53.578Z,english_419.wav,0,1,1056,,,,,8,0.8,34.80296655,1.73156921
JYS,52,1,2024-06-13T06:16:53.578Z,english_419.wav,0,1,1056,,,,,9,0.9,-7.36062238,1.52997649
JYS,52,1,2024-06-13T06:16:53.578Z,english_419.wav,0,1,1056,,,,,10,1,41.00092789,0.32887005
JYS,52,1,2024-06-13T06:16:53.578Z,english_419.wav,0,1,1056,,,,,11,1.09391667,-17.62948534,0.83665111
JYS,53,1,2024-06-13T06:16:53.578Z,english_278.wav,0,1,976,,,,,0,0,-96.72610313,0.83439052
JYS,53,1,2024-06-13T06:16:53.578Z,english_278.wav,0,1,976,,,,,1,0.1,-36.86809982,1.21055498
JYS,53,1,2024-06-13T06:16:53.578Z,english_278.wav,0,1,976,,,,,2,0.2,-84.24626192,0.05488492
JYS,53,1,2024-06-13T06:16:53.578Z,english_278.wav,0,1,976,,,,,3,0.3,-29.99363641,1.47058347
JYS,53,1,2024-06-13T06:16:53.578Z,english_278.wav,0,1,976,,,,,4,0.4,21.41897552,0.68142996
JYS,53,1,2024-06-13T06:16:53.578Z,english_278.wav,0,1,976,,,,,5,0.5,-73.7985343,0.65955027
JYS,53,1,2024-06-13T06:16:53.578Z,english_278.wav,0,1,976,,,,,6,0.6,-83.05174317,1.54634177
JYS,53,1,2024-06-13T06:16:53.578Z,english_278.wav,0,1,976,,,,,7,0.7,-43.48487906,1.03072417
JYS,53,1,2024-06-13T06:16:53.578Z,english_278.wav,0,1,976,,,,,8,0.8,-48.22741203,0.15769377
JYS,53,1,2024-06-13T06:16:53.578Z,english_278.wav,0,1,976,,,,,9,0.9,-30.73203826,0.79374536
JYS,53,1,2024-06-13T06:16:53.578Z,english_278.wav,0,1,976,,,,,10,1,22.54361358,0.9877131
JYS,53,1,2024-06-13T06:16:53.578Z,english_278.wav,0,1,976,,,,,11,1.09391667,-65.2249662,1.82414956
JYS,54,1,2024-06-13T06:16:53.578Z,english_125.wav,0,1,428,,,,,0,0,37.27554733,0.5612227
JYS,54,1,2024-06-13T06:16:53.578Z,english_125.wav,0,1,428,,,,,1,0.1,24.29830201,1.75747345
JYS,54,1,2024-06-13T06:16:53.578Z,english_125.wav,0,1,428,,,,,2,0.2,-43.3040728,1.33602667
JYS,54,1,2024-06-13T06:16:53.578Z,english_125.wav,0,1,428,,,,,3,0.3,32.63559677,0.25379983
JYS,54,1,2024-06-13T06:16:53.578Z,english_125.wav,0,1,428,,,,,4,0.4,65.75819377,0.46765889
JYS,54,1,2024-06-13T06:16:53.578Z,english_125.wav,0,1,428,,,,,5,0.5,93.24268126,0.0945868
JYS,54,1,2024-06-13T06:16:53.578Z,english_125.wav,0,1,428,,,,,6,0.6,-15.30697981,1.31767057
JYS,54,1,2024-06-13T06:16:53.578Z,english_125.wav,0,1,428,,,,,7,0.7,92.42760244,0.46721292
JYS,54,1,2024-06-13T06:16:53.578Z,english_125.wav,0,1,428,,,,,8,0.8,43.95412796,1.38944415
JYS,54,1,2024-06-13T06:16:53.578Z,english_125.wav,0,1,428,,,,,9,0.9,15.32237433,1.70361777
JYS,54,1,2024-06-13T06:16:53.578Z,english_125.wav,0,1,428,,,,,10,1,-94.44407427,0.93528665
JYS,54,1,2024-06-13T06:16:53.578Z,english_125.wav,0,1,428,,,,,11,1.09391667,87.09346239,1.20335548
JYS,55,1,2024-06-13T06:16:53.578Z,english_589.wav,0,1,710,,,,,0,0,69.60358053,1.2976065
JYS,55,1,2024-06-13T06:16:53.578Z,english_589.wav,0,1,710,,,,,1,0.1,-65.76586915,1.47951187
JYS,55,1,2024-06-13T06:16:53.578Z,english_589.wav,0,1,710,,,,,2,0.2,50.74096111,1.3485394
JYS,55,1,2024-06-13T06:16:53.578Z,english_589.wav,0,1,710,,,,,3,0.3,-96.7673569,0.54528982
JYS,55,1,2024-06-13T06:16:53.578Z,english_589.wav,0,1,710,,,,,4,0.4,-26.86757353,1.27804734
JYS,55,1,2024-06-13T06:16:53.578Z,english_589.wav,0,1,710,,,,,5,0.5,-10.06885571,1.28037388
JYS,55,1,2024-06-13T06:16:53.578Z,english_589.wav,0,1,710,,,,,6,0.6,63.05343757,0.75540581
JYS,55,1,2024-06-13T06:16:53.578Z,english_589.wav,0,1,710,,,,,7,0.7,-63.30132259,0.89000931
JYS,55,1,2024-06-13T06:16:53.578Z,english_589.wav,0,1,710,,,,,8,0.8,-47.99442538,0.42595149
JYS,55,1,2024-06-13T06:16:53.578Z,english_589.wav,0,1,710,,,,,9,0.9,57.19971628,1.49547586
JYS,55,1,2024-06-13T06:16:53.578Z,english_589.wav,0,1,710,,,,,10,1,-48.99247717,0.17298639
JYS,55,1,2024-06-13T06:16:53.578Z,english_589.wav,0,1,710,,,,,11,1.09391667,-67.69648975,0.58048161
JYS,56,1,2024-06-13T06:16:53.578Z,english_296.wav,0,1,641,,,,,0,0,80.48782258,1.56514642
JYS,56,1,2024-06-13T06:16:53.578Z,english_296.wav,0,1,641,,,,,1,0.1,10.56122862,0.84129395
JYS,56,1,2024-06-13T06:16:53.578Z,english_296.wav,0,1,641,,,,,2,0.2,-8.93820662,0.06138073
JYS,56,1,2024-06-13T06:16:53.578Z,english_296.wav,0,1,641,,,,,3,0.3,-54.86681614,0.69727856
JYS,56,1,2024-06-13T06:16:53.578Z,english_296.wav,0,1,641,,,,,4,0.4,4.93462284,1.5884292
JYS,56,1,2024-06-13T06:16:53.578Z,english_296.wav,0,1,641,,,,,5,0.5,35.74757504,1.04892583
JYS,56,1,2024-06-13T06:16:53.578Z,english_296.wav,0,1,641,,,,,6,0.6,68.8469079,1.9689775
JYS,56,1,2024-06-13T06:16:53.578Z,english_296.wav,0,1,641,,,,,7,0.7,-14.27123589,0.88805601
JYS,56,1,2024-06-13T06:16:53.578Z,english_296.wav,0,1,641,,,,,8,0.8,-28.29587023,1.96809087
JYS,56,1,2024-06-13T06:16:53.578Z,english_296.wav,0,1,641,,,,,9,0.9,95.64907093,1.8332122
JYS,56,1,2024-06-13T06:16:53.578Z,english_296.wav,0,1,641,,,,,10,1,-72.41595419,0.12281215
JYS,56,1,2024-06-13T06:16:53.578Z,english_296.wav,0,1,641,,,,,11,1.09391667,67.53861485,0.22120187
JYS,57,1,2024-06-13T06:16:53.578Z,english_340.wav,0,1,679,,,,,0,0,19.74255444,0.3319767
JYS,57,1,2024-06-13T06:16:53.578Z,english_340.wav,0,1,679,,,,,1,0.1,25.16855735,0.61048523
JYS,57,1,2024-06-13T06:16:53.578Z,english_340.wav,0,1,679,,,,,2,0.2,-45.10982673,0.21275179
JYS,57,1,2024-06-13T06:16:53.578Z,english_340.wav,0,1,679,,,,,3,0.3,-94.4237425,0.29825912
JYS,57,1,2024-06-13T06:16:53.578Z,english_340.wav,0,1,679,,,,,4,0.4,33.61318105,0.68673966
JYS,57,1,2024-06-13T06:16:53.578Z,english_340.wav,0,1,679,,,,,5,0.5,-32.11968845,0.56528685
JYS,57,1,2024-06-13T06:16:53.578Z,english_340.wav,0,1,679,,,,,6,0.6,-73.96198045,1.1523669
JYS,57,1,2024-06-13T06:16:53.578Z,english_340.wav,0,1,679,,,,,7,0.7,-70.65108678,1.56179354
JYS,57,1,2024-06-13T06:16:53.578Z,english_340.wav,0,1,679,,,,,8,0.8,-16.68054018,0.7478511
JYS,57,1,2024-06-13T06:16:53.578Z,english_340.wav,0,1,679,,,,,9,0.9,17.74464594,1.06303665
JYS,57,1,2024-06-13T06:16:53.578Z,english_340.wav,0,1,679,,,,,10,1,-17.13563894,1.69470448
JYS,57,1,2024-06-13T06:16:53.578Z,english_340.wav,0,1,679,,,,,11,1.09391667,85.44426077,1.53904315
JYS,58,1,2024-06-13T06:16:53.578Z,english_317.wav,0,1,708,,,,,0,0,35.80517537,1.51358533
JYS,58,1,2024-06-13T06:16:53.578Z,english_317.wav,0,1,708,,,,,1,0.1,-47.20528256,0.29972078
JYS,58,1,2024-06-13T06:16:53.578Z,english_317.wav,0,1,708,,,,,2,0.2,10.16864163,1.18281069
JYS,58,1,2024-06-13T06:16:53.578Z,english_317.wav,0,1,708,,,,,3,0.3,32.59206289,1.39231518
JYS,58,1,2024-06-13T06:16:53.578Z,english_317.wav,0,1,708,,,,,4,0.4,20.53754814,1.77974686
JYS,58,1,2024-06-13T06:16:53.578Z,english_317.wav,0,1,708,,,,,5,0.5,-78.8593211,1.1695001
JYS,58,1,2024-06-13T06:16:53.578Z,english_317.wav,0,1,708,,,,,6,0.6,-97.96541086,1.77666203
JYS,58,1,2024-06-13T06:16:53.578Z,english_317.wav,0,1,708,,,,,7,0.7,49.60543729,0.8164879
JYS,58,1,2024-06-13T06:16:53.578Z,english_317.wav,0,1,708,,,,,8,0.8,-69.92457952,0.08502592
JYS,58,1,2024-06-13T06:16:53.578Z,english_317.wav,0,1,708,,,,,9,0.9,-3.69767957,1.29069951
JYS,58,1,2024-06-13T06:16:53.578Z,english_317.wav,0,1,708,,,,,10,1,-3.35302539,0.64002495
JYS,58,1,2024-06-13T06:16:53.578Z,english_317.wav,0,1,708,,,,,11,1.09391667,29.32411719,1.74584587
JYS,59,1,2024-06-13T06:16:53.578Z,english_848.wav,0,1,472,,,,,0,0,16.27018666,0.42429773
JYS,59,1,2024-06-13T06:16:53.578Z,english_848.wav,0,1,472,,,,,1,0.1,-74.75395213,0.55671169
JYS,59,1,2024-06-13T06:16:53.578Z,english_848.wav,0,1,472,,,,,2,0.2,55.44859949,0.96508228
JYS,59,1,2024-06-13T06:16:53.578Z,english_848.wav,0,1,472,,,,,3,0.3,-32.83945411,0.7665276
JYS,59,1,2024-06-13T06:16:53.578Z,english_848.wav,0,1,472,,,,,4,0.4,30.01434436,0.96341741
JYS,59,1,2024-06-13T06:16:53.578Z,english_848.wav,0,1,472,,,,,5,0.5,48.58281319,0.06275252
JYS,59,1,2024-06-13T06:16:53.578Z,english_848.wav,0,1,472,,,,,6,0.6,-85.68192699,0.89297301
JYS,59,1,2024-06-13T06:16:53.578Z,english_848.wav,0,1,472,,,,,7,0.7,27.03943406,0.16213779
JYS,59,1,2024-06-13T06:16:53.578Z,english_848.wav,0,1,472,,,,,8,0.8,14.64264022,1.88232235
JYS,59,1,2024-06-13T06:16:53.578Z,english_848.wav,0,1,472,,,,,9,0.9,-60.92798451,1.9298227
JYS,59,1,2024-06-13T06:16:53.578Z,english_848.wav,0,1,472,,,,,10,1,-13.82637474,0.08076178
JYS,59,1,2024-06-13T06:16:53.578Z,english_848.wav,0,1,472,,,,,11,1.09391667,-65.39894946,1.11155621
JYS,60,1,2024-06-13T06:16:53.578Z,english_433.wav,0,1,371,,,,,0,0,-74.5918135,1.01979496
JYS,60,1,2024-06-13T06:16:53.578Z,english_433.wav,0,1,371,,,,,1,0.1,28.79821434,0.80806248
JYS,60,1,2024-06-13T06:16:53.578Z,english_433.wav,0,1,371,,,,,2,0.2,97.27836698,0.68923441
JYS,60,1,2024-06-13T06:16:53.578Z,english_433.wav,0,1,371,,,,,3,0.3,70.33680468,0.29842911
JYS,60,1,2024-06-13T06:16:53.578Z,english_433.wav,0,1,371,,,,,4,0.4,14.06818155,1.28851822
JYS,60,1,2024-06-13T06:16:53.578Z,english_433.wav,0,1,371,,,,,5,0.5,-16.97736982,0.93328677
JYS,60,1,2024-06-13T06:16:53.578Z,english_433.wav,0,1,371,,,,,6,0.6,75.14922554,0.10219622
JYS,60,1,2024-06-13T06:16:53.578Z,english_433.wav,0,1,371,,,,,7,0.7,23.29055894,1.41929067
JYS,60,1,2024-06-13T06:16:53.578Z,english_433.wav,0,1,371,,,,,8,0.8,-26.03253211,0.8010075
JYS,60,1,2024-06-13T06:16:53.578Z,english_433.wav,0,1,371,,,,,9,0.9,28.95520226,0.76563128
JYS,60,1,2024-06-13T06:16:53.578Z,english_433.wav,0,1,371,,,,,10,1,-61.82682237,0.36703777
JYS,60,1,2024-06-13T06:16:53.578Z,english_433.wav,0,1,371,,,,,11,1.09391667,47.27585079,0.80268974
JYS,61,1,2024-06-13T06:16:53.578Z,english_460.wav,0,1,435,,,,,0,0,93.59161919,1.32448893
JYS,61,1,2024-06-13T06:16:53.578Z,english_460.wav,0,1,435,,,,,1,0.1,-36.24487207,0.9079638
JYS,61,1,2024-06-13T06:16:53.578Z,english_460.wav,0,1,435,,,,,2,0.2,34.29182357,1.36589638
JYS,61,1,2024-06-13T06:16:53.578Z,english_460.wav,0,1,435,,,,,3,0.3,-43.77936624,1.17890341
JYS,61,1,2024-06-13T06:16:53.578Z,english_460.wav,0,1,435,,,,,4,0.4,69.60343368,0.38929886
JYS,61,1,2024-06-13T06:16:53.578Z,english_460.wav,0,1,435,,,,,5,0.5,56.68710737,0.99526671
JYS,61,1,2024-06-13T06:16:53.578Z,english_460.wav,0,1,435,,,,,6,0.6,-24.24220062,0.46581759
JYS,61,1,2024-06-13T06:16:53.578Z,english_460.wav,0,1,435,,,,,7,0.7,-78.58314977,0.29943683
JYS,61,1,2024-06-13T06:16:53.578Z,english_460.wav,0,1,435,,,,,8,0.8,-13.26257127,1.99375882
JYS,61,1,2024-06-13T06:16:53.578Z,english_460.wav,0,1,435,,,,,9,0.9,33.19824363,1.82666883
JYS,61,1,2024-06-13T06:16:53.578Z,english_460.wav,0,1,435,,,,,10,1,-40.08512875,1.5352094
JYS,61,1,2024-06-13T06:16:53.578Z,english_460.wav,0,1,435,,,,,11,1.09391667,22.89045037,1.53552889
JYS,62,1,2024-06-13T06:16:53.578Z,english_415.wav,0,0,812,,,,,0,0,84.16048874,1.30136544
JYS,62,1,2024-06-13T06:16:53.578Z,english_415.wav,0,0,812,,,,,1,0.1,56.88803289,0.47786549
JYS,62,1,2024-06-13T06:16:53.578Z,english_415.wav,0,0,812,,,,,2,0.2,-77.93771944,0.87690241
JYS,62,1,2024-06-13T06:16:53.578Z,english_415.wav,0,0,812,,,,,3,0.3,33.37600363,1.56003174
JYS,62,1,2024-06-13T06:16:53.578Z,english_415.wav,0,0,812,,,,,4,0.4,-61.82656021,0.56797275
JYS,62,1,2024-06-13T06:16:53.578Z,english_415.wav,0,0,812,,,,,5,0.5,-67.90016523,1.69402787
JYS,62,1,2024-06-13T06:16:53.578Z,english_415.wav,0,0,812,,,,,6,0.6,96.16166422,0.32249707
JYS,62,1,2024-06-13T06:16:53.578Z,english_415.wav,0,0,812,,,,,7,0.7,-50.86749148,0.03139967
JYS,62,1,2024-06-13T06:16:53.578Z,english_415.wav,0,0,812,,,,,8,0.8,55.29150844,1.30261133
JYS,62,1,2024-06-13T06:16:53.578Z,english_415.wav,0,0,812,,,,,9,0.9,-2.61257825,0.40350463
JYS,62,1,2024-06-13T06:16:53.578Z,english_415.wav,0,0,812,,,,,10,1,-83.3993401,1.74375152
JYS,62,1,2024-06-13T06:16:53.578Z,english_415.wav,0,0,812,,,,,11,1.09391667,24.68732816,0.25871995
JYS,63,1,2024-06-13T06:16:53.578Z,english_145.wav,0,1,1001,,,,,0,0,33.46233159,0.5633393
JYS,63,1,2024-06-13T06:16:53.578Z,english_145.wav,0,1,1001,,,,,1,0.1,-61.60936231,1.7411418
JYS,63,1,2024-06-13T06:16:53.578Z,english_145.wav,0,1,1001,,,,,2,0.2,77.17787096,1.3932683
JYS,63,1,2024-06-13T06:16:53.578Z,english_145.wav,0,1,1001,,,,,3,0.3,52.31633647,0.64008683
JYS,63,1,2024-06-13T06:16:53.578Z,english_145.wav,0,1,1001,,,,,4,0.4,50.97764834,0.69845382
JYS,63,1,2024-06-13T06:16:53.578Z,english_145.wav,0,1,1001,,,,,5,0.5,94.06594582,1.78155535
JYS,63,1,2024-06-13T06:16:53.578Z,english_145.wav,0,1,1001,,,,,6,0.6,-40.82786952,0.94197467
JYS,63,1,2024-06-13T06:16:53.578Z,english_145.wav,0,1,1001,,,,,7,0.7,-67.26734542,0.64900441
JYS,63,1,2024-06-13T06:16:53.578Z,english_145.wav,0,1,1001,,,,,8,0.8,59.11900107,1.89522637
JYS,63,1,2024-06-13T06:16:53.578Z,english_145.wav,0,1,1001,,,,,9,0.9,-56.17437001,0.96282543
JYS,63,1,2024-06-13T06:16:53.578Z,english_145.wav,0,1,1001,,,,,10,1,-15.19613378,0.73054996
JYS,63,1,2024-06-13T06:16:53.578Z,english_145.wav,0,1,1001,,,,,11,1.09391667,90.15311402,0.69896131
JYS,64,1,2024-06-13T06:16:53.578Z,english_397.wav,0,1,1010,,,,,0,0,-93.66149261,1.64508674
JYS,64,1,2024-06-13T06:16:53.578Z,english_397.wav,0,1,1010,,,,,1,0.1,10.02332444,1.71116478
JYS,64,1,2024-06-13T06:16:53.578Z,english_397.wav,0,1,1010,,,,,2,0.2,11.25111848,0.61520949
JYS,64,1,2024-06-13T06:16:53.578Z,english_397.wav,0,1,1010,,,,,3,0.3,-37.6827397,1.11182829
JYS,64,1,2024-06-13T06:16:53.578Z,english_397.wav,0,1,1010,,,,,4,0.4,25.48122538,1.39361431
JYS,64,1,2024-06-13T06:16:53.578Z,english_397.wav,0,1,1010,,,,,5,0.5,26.75513861,1.84991074
JYS,64,1,2024-06-13T06:16:53.578Z,english_397.wav,0,1,1010,,,,,6,0.6,-43.88017582,0.85920693
JYS,64,1,2024-06-13T06:16:53.578Z,english_397.wav,0,1,1010,,,,,7,0.7,-42.20538159,1.85774447
JYS,64,1,2024-06-13T06:16:53.578Z,english_397.wav,0,1,1010,,,,,8,0.8,82.41630332,1.4570352
JYS,64,1,2024-06-13T06:16:53.578Z,english_397.wav,0,1,1010,,,,,9,0.9,57.33831385,0.98799717
JYS,64,1,2024-06-13T06:16:53.578Z,english_397.wav,0,1,1010,,,,,10,1,-42.56353988,0.5544136
JYS,64,1,2024-06-13T06:16:53.578Z,english_397.wav,0,1,1010,,,,,11,1.09391667,68.91357319,0.776674
JYS,65,1,2024-06-13T06:16:53.578Z,english_991.wav,0,1,924,,,,,0,0,-1.1896089,1.11058757
JYS,65,1,2024-06-13T06:16:53.578Z,english_991.wav,0,1,924,,,,,1,0.1,-96.26402249,0.1672209
JYS,65,1,2024-06-13T06:16:53.578Z,english_991.wav,0,1,924,,,,,2,0.2,35.13230964,1.95155766
JYS,65,1,2024-06-13T06:16:53.578Z,english_991.wav,0,1,924,,,,,3,0.3,16.47291022,0.04651437
JYS,65,1,2024-06-13T06:16:53.578Z,english_991.wav,0,1,924,,,,,4,0.4,-88.97016612,1.74859016
JYS,65,1,2024-06-13T06:16:53.578Z,english_991.wav,0,1,924,,,,,5,0.5,-18.26917978,1.4122656
JYS,65,1,2024-06-13T06:16:53.578Z,english_991.wav,0,1,924,,,,,6,0.6,-86.44611587,0.52281086
JYS,65,1,2024-06-13T06:16:53.578Z,english_991.wav,0,1,924,,,,,7,0.7,-23.18394533,1.29572944
JYS,65,1,2024-06-13T06:16:53.578Z,english_991.wav,0,1,924,,,,,8,0.8,-34.88810698,1.11115335
JYS,65,1,2024-06-13T06:16:53.578Z,english_991.wav,0,1,924,,,,,9,0.9,58.2484142,1.29146841
JYS,65,1,2024-06-13T06:16:53.578Z,english_991.wav,0,1,924,,,,,10,1,13.64122516,1.37847477
JYS,65,1,2024-06-13T06:16:53.578Z,english_991.wav,0,1,924,,,,,11,1.09391667,-13.61979163,0.12249008
JYS,66,1,2024-06-13T06:16:53.578Z,english_688.wav,0,0,1021,,,,,0,0,-29.94010546,0.64779988
JYS,66,1,2024-06-13T06:16:53.578Z,english_688.wav,0,0,1021,,,,,1,0.1,-41.32005189,0.86768487
JYS,66,1,2024-06-13T06:16:53.578Z,english_688.wav,0,0,1021,,,,,2,0.2,60.5114301,1.84873786
JYS,66,1,2024-06-13T06:16:53.578Z,english_688.wav,0,0,1021,,,,,3,0.3,-11.57251233,1.12374148
JYS,66,1,2024-06-13T06:16:53.578Z,english_688.wav,0,0,1021,,,,,4,0.4,-32.48909096,1.48328397
JYS,66,1,2024-06-13T06:16:53.578Z,english_688.wav,0,0,1021,,,,,5,0.5,70.68045254,0.61802845
JYS,66,1,2024-06-13T06:16:53.578Z,english_688.wav,0,0,1021,,,,,6,0.6,-93.57410751,0.25217431
JYS,66,1,2024-06-13T06:16:53.578Z,english_688.wav,0,0,1021,,,,,7,0.7,-35.20217483,0.64703385
JYS,66,1,2024-06-13T06:16:53.578Z,english_688.wav,0,0,1021,,,,,8,0.8,-56.48380795,0.24929174
JYS,66,1,2024-06-13T06:16:53.578Z,english_688.wav,0,0,1021,,,,,9,0.9,29.31296217,0.36133188
JYS,66,1,2024-06-13T06:16:53.578Z,english_688.wav,0,0,1021,,,,,10,1,-66.64221323,0.49659231
JYS,66,1,2024-06-13T06:16:53.578Z,english_688.wav,0,0,1021,,,,,11,1.09391667,61.92592934,0.74443623
JYS,67,1,2024-06-13T06:16:53.578Z,english_414.wav,0,1,812,,,,,0,0,-7.03040906,1.53438074
JYS,67,1,2024-06-13T06:16:53.578Z,english_414.wav,0,1,812,,,,,1,0.1,-5.82495626,1.95928517
JYS,67,1,2024-06-13T06:16:53.578Z,english_414.wav,0,1,812,,,,,2,0.2,-2.66835352,1.73189387
JYS,67,1,2024-06-13T06:16:53.578Z,english_414.wav,0,1,812,,,,,3,0.3,-59.72056864,1.8329069
JYS,67,1,2024-06-13T06:16:53.578Z,english_414.wav,0,1,812,,,,,4,0.4,44.4623709,1.79888129
JYS,67,1,2024-06-13T06:16:53.578Z,english_414.wav,0,1,812,,,,,5,0.5,-43.61302568,0.54974626
JYS,67,1,2024-06-13T06:16:53.578Z,english_414.wav,0,1,812,,,,,6,0.6,69.2168607,1.59944318
JYS,67,1,2024-06-13T06:16:53.578Z,english_414.wav,0,1,812,,,,,7,0.7,92.16151545,0.63993653
JYS,67,1,2024-06-13T06:16:53.578Z,english_414.wav,0,1,812,,,,,8,0.8,74.54688425,0.28985998
JYS,67,1,2024-06-13T06:16:53.578Z,english_414.wav,0,1,812,,,,,9,0.9,3.36775838,0.49016728
JYS,67,1,2024-06-13T06:16:53.578Z,english_414.wav,0,1,812,,,,,10,1,-65.34358207,1.26877749
JYS,67,1,2024-06-13T06:16:53.578Z,english_414.wav,0,1,812,,,,,11,1.09391667,36.44921696,1.3437293
JYS,68,1,2024-06-13T06:16:53.578Z,english_246.wav,0,1,602,,,,,0,0,65.19555702,1.04626937
JYS,68,1,2024-06-13T06:16:53.578Z,english_246.wav,0,1,602,,,,,1,0.1,-88.31116696,1.63597079
JYS,68,1,2024-06-13T06:16:53.578Z,english_246.wav,0,1,602,,,,,2,0.2,-87.15645837,1.95419498
JYS,68,1,2024-06-13T06:16:53.578Z,english_246.wav,0,1,602,,,,,3,0.3,57.84934166,0.56872665
JYS,68,1,2024-06-13T06:16:53.578Z,english_246.wav,0,1,602,,,,,4,0.4,-76.45557784,0.40309221
JYS,68,1,2024-06-13T06:16:53.578Z,english_246.wav,0,1,602,,,,,5,0.5,66.32688278,1.93282921
JYS,68,1,2024-06-13T06:16:53.578Z,english_246.wav,0,1,602,,,,,6,0.6,93.44738027,1.28213971
JYS,68,1,2024-06-13T06:16:53.578Z,english_246.wav,0,1,602,,,,,7,0.7,54.7923908,1.70127241
JYS,68,1,2024-06-13T06:16:53.578Z,english_246.wav,0,1,602,,,,,8,0.8,-1.38437059,0.15014799
JYS,68,1,2024-06-13T06:16:53.578Z,english_246.wav,0,1,602,,,,,9,0.9,5.22264847,1.21649106
JYS,68,1,2024-06-13T06:16:53.578Z,english_246.wav,0,1,602,,,,,10,1,-11.85909484,1.48942771
JYS,68,1,2024-06-13T06:16:53.578Z,english_246.wav,0,1,602,,,,,11,1.09391667,65.00290812,0.35768018
JYS,69,1,2024-06-13T06:16:53.578Z,english_306.wav,0,0,1039,,,,,0,0,-95.03086766,1.30837938
JYS,69,1,2024-06-13T06:16:53.578Z,english_306.wav,0,0,1039,,,,,1,0.1,-3.19440238,0.41482999
JYS,69,1,2024-06-13T06:16:53.578Z,english_306.wav,0,0,1039,,,,,2,0.2,-39.72459624,1.62954212
JYS,69,1,2024-06-13T06:16:53.578Z,english_306.wav,0,0,1039,,,,,3,0.3,15.36352601,1.09402509
JYS,69,1,2024-06-13T06:16:53.578Z,english_306.wav,0,0,1039,,,,,4,0.4,-38.40390677,0.25113187
JYS,69,1,2024-06-13T06:16:53.578Z,english_306.wav,0,0,1039,,,,,5,0.5,-49.79740584,0.76399472
JYS,69,1,2024-06-13T06:16:53.578Z,english_306.wav,0,0,1039,,,,,6,0.6,-48.37651938,1.73274833
JYS,69,1,2024-06-13T06:16:53.578Z,english_306.wav,0,0,1039,,,,,7,0.7,-33.05516854,0.31535053
JYS,69,1,2024-06-13T06:16:53.578Z,english_306.wav,0,0,1039,,,,,8,0.8,-95.3817315,0.01885302
JYS,69,1,2024-06-13T06:16:53.578Z,english_306.wav,0,0,1039,,,,,9,0.9,-37.53428143,0.72130614
JYS,69,1,2024-06-13T06:16:53.578Z,english_306.wav,0,0,1039,,,,,10,1,13.19585938,0.43232343
JYS,69,1,2024-06-13T06:16:53.578Z,english_306.wav,0,0,1039,,,,,11,1.09391667,36.11780275,1.20783491
JYS,70,1,2024-06-13T06:16:53.578Z,english_923.wav,0,1,352,,,,,0,0,93.2289474,1.70020423
JYS,70,1,2024-06-13T06:16:53.578Z,english_923.wav,0,1,352,,,,,1,0.1,-90.20705496,1.01222006
JYS,70,1,2024-06-13T06:16:53.578Z,english_923.wav,0,1,352,,,,,2,0.2,-39.60180218,0.78975297
JYS,70,1,2024-06-13T06:16:53.578Z,english_923.wav,0,1,352,,,,,3,0.3,80.82184167,0.55346402
JYS,70,1,2024-06-13T06:16:53.578Z,english_923.wav,0,1,352,,,,,4,0.4,-9.151808,0.82944294
JYS,70,1,2024-06-13T06:16:53.578Z,english_923.wav,0,1,352,,,,,5,0.5,26.58775585,1.08031611
JYS,70,1,2024-06-13T06:16:53.578Z,english_923.wav,0,1,352,,,,,6,0.6,6.23734234,0.85830077
JYS,70,1,2024-06-13T06:16:53.578Z,english_923.wav,0,1,352,,,,,7,0.7,72.65407882,1.16981472
JYS,70,1,2024-06-13T06:16:53.578Z,english_923.wav,0,1,352,,,,,8,0.8,-19.39856568,1.72430236
JYS,70,1,2024-06-13T06:16:53.578Z,english_923.wav,0,1,352,,,,,9,0.9,-78.04150402,0.87754791
JYS,70,1,2024-06-13T06:16:53.578Z,english_923.wav,0,1,352,,,,,10,1,32.81309653,1.2494211
JYS,70,1,2024-06-13T06:16:53.578Z,english_923.wav,0,1,352,,,,,11,1.09391667,90.62685446,1.97603122
JYS,71,1,2024-06-13T06:16:53.578Z,english_322.wav,0,1,672,,,,,0,0,76.12419843,0.67214084
JYS,71,1,2024-06-13T06:16:53.578Z,english_322.wav,0,1,672,,,,,1,0.1,11.00659204,0.20805548
JYS,71,1,2024-06-13T06:16:53.578Z,english_322.wav,0,1,672,,,,,2,0.2,-52.15522205,1.24717772
JYS,71,1,2024-06-13T06:16:53.578Z,english_322.wav,0,1,672,,,,,3,0.3,-51.3643268,1.85689227
JYS,71,1,2024-06-13T06:16:53.578Z,english_322.wav,0,1,672,,,,,4,0.4,24.49300534,0.2839927
JYS,71,1,2024-06-13T06:16:53.578Z,english_322.wav,0,1,672,,,,,5,0.5,-64.27724172,0.06592342
JYS,71,1,2024-06-13T06:16:53.578Z,english_322.wav,0,1,672,,,,,6,0.6,83.88593275,0.50660315
JYS,71,1,2024-06-13T06:16:53.578Z,english_322.wav,0,1,672,,,,,7,0.7,17.09124032,0.19977586
JYS,71,1,2024-06-13T06:16:53.578Z,english_322.wav,0,1,672,,,,,8,0.8,-4.85917502,0.57396738
JYS,71,1,2024-06-13T06:16:53.578Z,english_322.wav,0,1,672,,,,,9,0.9,26.21900036,1.25518721
JYS,71,1,2024-06-13T06:16:53.578Z,english_322.wav,0,1,672,,,,,10,1,17.81638138,1.74789318
JYS,71,1,2024-06-13T06:16:53.578Z,english_322.wav,0,1,672,,,,,11,1.09391667,-21.79933582,1.24760572
JYS,72,1,2024-06-13T06:16:53.578Z,english_919.wav,0,1,677,,,,,0,0,-38.5670272,0.46903116
JYS,72,1,2024-06-13T06:16:53.578Z,english_919.wav,0,1,677,,,,,1,0.1,2.77922896,1.08350321
JYS,72,1,2024-06-13T06:16:53.578Z,english_919.wav,0,1,677,,,,,2,0.2,49.85197562,1.32793945
JYS,72,1,2024-06-13T06:16:53.578Z,english_919.wav,0,1,677,,,,,3,0.3,77.76044208,0.31154992
JYS,72,1,2024-06-13T06:16:53.578Z,english_919.wav,0,1,677,,,,,4,0.4,-29.8394914,0.67118234
JYS,72,1,2024-06-13T06:16:53.578Z,english_919.wav,0,1,677,,,,,5,0.5,-0.49098681,0.74590894
JYS,72,1,2024-06-13T06:16:53.578Z,english_919.wav,0,1,677,,,,,6,0.6,-75.25398624,1.99224787
JYS,72,1,2024-06-13T06:16:53.578Z,english_919.wav,0,1,677,,,,,7,0.7,-69.6637691,0.78909547
JYS,72,1,2024-06-13T06:16:53.578Z,english_919.wav,0,1,677,,,,,8,0.8,72.91981936,0.46679106
JYS,72,1,2024-06-13T06:16:53.578Z,english_919.wav,0,1,677,,,,,9,0.9,-53.88815215,0.60556238
JYS,72,1,2024-06-13T06:16:53.578Z,english_919.wav,0,1,677,,,,,10,1,0.89047902,0.47961855
JYS,72,1,2024-06-13T06:16:53.578Z,english_919.wav,0,1,677,,,,,11,1.09391667,-50.064946,1.09390391
JYS,73,1,2024-06-13T06:16:53.578Z,english_325.wav,0,0,813,,,,,0,0,-6.61362073,0.69132615
JYS,73,1,2024-06-13T06:16:53.578Z,english_325.wav,0,0,813,,,,,1,0.1,16.0389953,1.70453966
JYS,73,1,2024-06-13T06:16:53.578Z,english_325.wav,0,0,813,,,,,2,0.2,-15.26495654,1.15898488
JYS,73,1,2024-06-13T06:16:53.578Z,english_325.wav,0,0,813,,,,,3,0.3,-82.62165142,0.76725677
JYS,73,1,2024-06-13T06:16:53.578Z,english_325.wav,0,0,813,,,,,4,0.4,85.7387579,1.1728167
JYS,73,1,2024-06-13T06:16:53.578Z,english_325.wav,0,0,813,,,,,5,0.5,15.3822882,1.82028555
JYS,73,1,2024-06-13T06:16:53.578Z,english_325.wav,0,0,813,,,,,6,0.6,-26.54266781,1.83292981
JYS,73,1,2024-06-13T06:16:53.578Z,english_325.wav,0,0,813,,,,,7,0.7,-60.18579541,1.929681
JYS,73,1,2024-06-13T06:16:53.578Z,english_325.wav,0,0,813,,,,,8,0.8,-28.6472792,0.83713433
JYS,73,1,2024-06-13T06:16:53.578Z,english_325.wav,0,0,813,,,,,9,0.9,66.02417384,0.85579123
JYS,73,1,2024-06-13T06:16:53.578Z,english_325.wav,0,0,813,,,,,10,1,39.52898261,1.16758419
JYS,73,1,2024-06-13T06:16:53.578Z,english_325.wav,0,0,813,,,,,11,1.09391667,-19.70187517,1.84761063
JYS,74,1,2024-06-13T06:16:53.578Z,english_217.wav,0,0,843,,,,,0,0,49.03427647,0.32664973
JYS,74,1,2024-06-13T06:16:53.578Z,english_217.wav,0,0,843,,,,,1,0.1,55.51339481,1.39032489
JYS,74,1,2024-06-13T06:16:53.578Z,english_217.wav,0,0,843,,,,,2,0.2,8.85342812,0.17335256
JYS,74,1,2024-06-13T06:16:53.578Z,english_217.wav,0,0,843,,,,,3,0.3,38.54994366,0.12434027
JYS,74,1,2024-06-13T06:16:53.578Z,english_217.wav,0,0,843,,,,,4,0.4,-2.70833959,1.97912601
JYS,74,1,2024-06-13T06:16:53.578Z,english_217.wav,0,0,843,,,,,5,0.5,70.3938548,0.49508024
JYS,74,1,2024-06-13T06:16:53.578Z,english_217.wav,0,0,843,,,,,6,0.6,5.12480722,1.41080808
JYS,74,1,2024-06-13T06:16:53.578Z,english_217.wav,0,0,843,,,,,7,0.7,-74.03796069,0.59237566
JYS,74,1,2024-06-13T06:16:53.578Z,english_217.wav,0,0,843,,,,,8,0.8,-33.3486243,0.51007366
JYS,74,1,2024-06-13T06:16:53.578Z,english_217.wav,0,0,843,,,,,9,0.9,-40.28599149,0.60232464
JYS,74,1,2024-06-13T06:16:53.578Z,english_217.wav,0,0,843,,,,,10,1,19.2288181,0.62471618
JYS,74,1,2024-06-13T06:16:53.578Z,english_217.wav,0,0,843,,,,,11,1.09391667,28.27107092,0.07651966
JYS,75,1,2024-06-13T06:16:53.578Z,english_8.wav,0,0,696,,,,,0,0,-40.69746503,1.91325818
JYS,75,1,2024-06-13T06:16:53.578Z,english_8.wav,0,0,696,,,,,1,0.1,-2.63283103,0.20995582
JYS,75,1,2024-06-13T06:16:53.578Z,english_8.wav,0,0,696,,,,,2,0.2,5.50551206,1.37536133
JYS,75,1,2024-06-13T06:16:53.578Z,english_8.wav,0,0,696,,,,,3,0.3,17.73685221,1.26994408
JYS,75,1,2024-06-13T06:16:53.578Z,english_8.wav,0,0,696,,,,,4,0.4,-9.16902595,1.33651222
JYS,75,1,2024-06-13T06:16:53.578Z,english_8.wav,0,0,696,,,,,5,0.5,-34.7445518,1.4592859
JYS,75,1,2024-06-13T06:16:53.578Z,english_8.wav,0,0,696,,,,,6,0.6,-48.45099415,0.38968971
JYS,75,1,2024-06-13T06:16:53.578Z,english_8.wav,0,0,696,,,,,7,0.7,77.2460415,0.19810868
JYS,75,1,2024-06-13T06:16:53.578Z,english_8.wav,0,0,696,,,,,8,0.8,-58.60489112,0.97081537
JYS,75,1,2024-06-13T06:16:53.578Z,english_8.wav,0,0,696,,,,,9,0.9,-48.13629471,0.35861069
JYS,75,1,2024-06-13T06:16:53.578Z,english_8.wav,0,0,696,,,,,10,1,56.51883775,1.51205719
JYS,75,1,2024-06-13T06:16:53.578Z,english_8.wav,0,0,696,,,,,11,1.09391667,-41.21742626,0.71101002
JYS,76,1,2024-06-13T06:16:53.578Z,english_257.wav,0,1,634,,,,,0,0,40.54895098,0.78978042
JYS,76,1,2024-06-13T06:16:53.578Z,english_257.wav,0,1,634,,,,,1,0.1,40.15801064,1.47705853
JYS,76,1,2024-06-13T06:16:53.578Z,english_257.wav,0,1,634,,,,,2,0.2,-24.20266722,0.45256837
JYS,76,1,2024-06-13T06:16:53.578Z,english_257.wav,0,1,634,,,,,3,0.3,-7.17661388,1.62604433
JYS,76,1,2024-06-13T06:16:53.578Z,english_257.wav,0,1,634,,,,,4,0.4,-28.64234321,1.35763463
JYS,76,1,2024-06-13T06:16:53.578Z,english_257.wav,0,1,634,,,,,5,0.5,21.61308764,0.40071863
JYS,76,1,2024-06-13T06:16:53.578Z,english_257.wav,0,1,634,,,,,6,0.6,53.78152607,1.66804391
JYS,76,1,2024-06-13T06:16:53.578Z,english_257.wav,0,1,634,,,,,7,0.7,7.01627137,0.9369016
JYS,76,1,2024-06-13T06:16:53.578Z,english_257.wav,0,1,634,,,,,8,0.8,35.40837973,1.28942555
JYS,76,1,2024-06-13T06:16:53.578Z,english_257.wav,0,1,634,,,,,9,0.9,-20.07672714,0.91090345
JYS,76,1,2024-06-13T06:16:53.578Z,english_257.wav,0,1,634,,,,,10,1,-5.14564183,1.13070963
JYS,76,1,2024-06-13T06:16:53.578Z,english_257.wav,0,1,634,,,,,11,1.09391667,-39.03797323,1.90359161
JYS,77,1,2024-06-13T06:16:53.578Z,english_755.wav,0,1,754,,,,,0,0,-75.26385552,0.09689384
JYS,77,1,2024-06-13T06:16:53.578Z,english_755.wav,0,1,754,,,,,1,0.1,-77.54873454,0.88213328
JYS,77,1,2024-06-13T06:16:53.578Z,english_755.wav,0,1,754,,,,,2,0.2,13.4311812,0.06512801
JYS,77,1,2024-06-13T06:16:53.578Z,english_755.wav,0,1,754,,,,,3,0.3,7.92656706,1.12427914
JYS,77,1,2024-06-13T06:16:53.578Z,english_755.wav,0,1,754,,,,,4,0.4,43.04088715,0.73534916
JYS,77,1,2024-06-13T06:16:53.578Z,english_755.wav,0,1,754,,,,,5,0.5,-52.66329155,0.96891313
JYS,77,1,2024-06-13T06:16:53.578Z,english_755.wav,0,1,754,,,,,6,0.6,84.44946609,0.99997318
JYS,77,1,2024-06-13T06:16:53.578Z,english_755.wav,0,1,754,,,,,7,0.7,35.14899848,1.2765527
JYS,77,1,2024-06-13T06:16:53.578Z,english_755.wav,0,1,754,,,,,8,0.8,-13.90496644,1.38017734
JYS,77,1,2024-06-13T06:16:53.578Z,english_755.wav,0,1,754,,,,,9,0.9,10.2251388,1.18692736
JYS,77,1,2024-06-13T06:16:53.578Z,english_755.wav,0,1,754,,,,,10,1,-36.70454503,0.69548573
JYS,77,1,2024-06-13T06:16:53.578Z,english_755.wav,0,1,754,,,,,11,1.09391667,11.3834831,0.72968454
JYS,78,1,2024-06-13T06:16:53.578Z,english_244.wav,0,1,556,,,,,0,0,-16.89000739,1.36645613
JYS,78,1,2024-06-13T06:16:53.578Z,english_244.wav,0,1,556,,,,,1,0.1,13.88621899,0.22689892
JYS,78,1,2024-06-13T06:16:53.578Z,english_244.wav,0,1,556,,,,,2,0.2,19.5320734,0.7498897
JYS,78,1,2024-06-13T06:16:53.578Z,english_244.wav,0,1,556,,,,,3,0.3,77.5555311,0.5439009
JYS,78,1,2024-06-13T06:16:53.578Z,english_244.wav,0,1,556,,,,,4,0.4,-1.54182751,1.43453656
JYS,78,1,2024-06-13T06:16:53.578Z,english_244.wav,0,1,556,,,,,5,0.5,-50.64945855,1.75844179
JYS,78,1,2024-06-13T06:16:53.578Z,english_244.wav,0,1,556,,,,,6,0.6,-35.36321005,1.54599597
JYS,78,1,2024-06-13T06:16:53.578Z,english_244.wav,0,1,556,,,,,7,0.7,-43.62157267,0.6923522
JYS,78,1,2024-06-13T06:16:53.578Z,english_244.wav,0,1,556,,,,,8,0.8,3.96205992,0.7002794
JYS,78,1,2024-06-13T06:16:53.578Z,english_244.wav,0,1,556,,,,,9,0.9,54.24324678,1.06972568
JYS,78,1,2024-06-13T06:16:53.578Z,english_244.wav,0,1,556,,,,,10,1,76.68152807,1.30720641
JYS,78,1,2024-06-13T06:16:53.578Z,english_244.wav,0,1,556,,,,,11,1.09391667,-97.15661366,0.50703606
JYS,79,1,2024-06-13T06:16:53.578Z,english_135.wav,0,0,498,,,,,0,0,1.52771956,1.05574256
JYS,79,1,2024-06-13T06:16:53.578Z,english_135.wav,0,0,498,,,,,1,0.1,87.85930758,0.07400982
JYS,79,1,2024-06-13T06:16:53.578Z,english_135.wav,0,0,498,,,,,2,0.2,10.69232429,1.27555025
JYS,79,1,2024-06-13T06:16:53.578Z,english_135.wav,0,0,498,,,,,3,0.3,-30.56293348,1.65548466
JYS,79,1,2024-06-13T06:16:53.578Z,english_135.wav,0,0,498,,,,,4,0.4,18.68768105,0.65488565
JYS,79,1,2024-06-13T06:16:53.578Z,english_135.wav,0,0,498,,,,,5,0.5,83.74749446,1.6850938
JYS,79,1,2024-06-13T06:16:53.578Z,english_135.wav,0,0,498,,,,,6,0.6,2.30267465,0.17916719
JYS,79,1,2024-06-13T06:16:53.578Z,english_135.wav,0,0,498,,,,,7,0.7,10.55624665,0.7091252
JYS,79,1,2024-06-13T06:16:53.578Z,english_135.wav,0,0,498,,,,,8,0.8,-52.17497639,1.14424326
JYS,79,1,2024-06-13T06:16:53.578Z,english_135.wav,0,0,498,,,,,9,0.9,63.1552018,0.08021557
JYS,79,1,2024-06-13T06:16:53.578Z,english_135.wav,0,0,498,,,,,10,1,32.56027872,1.28558373
JYS,79,1,2024-06-13T06:16:53.578Z,english_135.wav,0,0,498,,,,,11,1.09391667,49.01841871,0.80254185
JYS,80,1,2024-06-13T06:16:53.578Z,english_436.wav,0,1,557,,,,,0,0,-5.79676766,0.51982844
JYS,80,1,2024-06-13T06:16:53.578Z,english_436.wav,0,1,557,,,,,1,0.1,-7.88979016,1.6050725
JYS,80,1,2024-06-13T06:16:53.578Z,english_436.wav,0,1,557,,,,,2,0.2,-30.02673636,1.59647027
JYS,80,1,2024-06-13T06:16:53.578Z,english_436.wav,0,1,557,,,,,3,0.3,10.91379363,1.97742112
JYS,80,1,2024-06-13T06:16:53.578Z,english_436.wav,0,1,557,,,,,4,0.4,1.79762369,1.85601804
JYS,80,1,2024-06-13T06:16:53.578Z,english_436.wav,0,1,557,,,,,5,0.5,73.94991314,1.38993988
JYS,80,1,2024-06-13T06:16:53.578Z,english_436.wav,0,1,557,,,,,6,0.6,77.03109361,1.43065154
JYS,80,1,2024-06-13T06:16:53.578Z,english_436.wav,0,1,557,,,,,7,0.7,-48.27841607,0.14937688
JYS,80,1,2024-06-13T06:16:53.578Z,english_436.wav,0,1,557,,,,,8,0.8,57.26579501,1.65528817
JYS,80,1,2024-06-13T06:16:53.578Z,english_436.wav,0,1,557,,,,,9,0.9,-80.56784579,1.0202375
JYS,80,1,2024-06-13T06:16:53.578Z,english_436.wav,0,1,557,,,,,10,1,64.74546515,1.82414723
JYS,80,1,2024-06-13T06:16:53.578Z,english_436.wav,0,1,557,,,,,11,1.09391667,5.24901362,1.00971458
JYS,81,1,2024-06-13T06:16:53.578Z,english_353.wav,0,1,711,,,,,0,0,-70.67724429,1.06843483
JYS,81,1,2024-06-13T06:16:53.578Z,english_353.wav,0,1,711,,,,,1,0.1,-71.688049,0.77169117
JYS,81,1,2024-06-13T06:16:53.578Z,english_353.wav,0,1,711,,,,,2,0.2,35.51924952,1.46248358
JYS,81,1,2024-06-13T06:16:53.578Z,english_353.wav,0,1,711,,,,,3,0.3,-2.11218413,1.49078151
JYS,81,1,2024-06-13T06:16:53.578Z,english_353.wav,0,1,711,,,,,4,0.4,-16.43862389,1.12150818
JYS,81,1,2024-06-13T06:16:53.578Z,english_353.wav,0,1,711,,,,,5,0.5,42.52341858,1.51009479
JYS,81,1,2024-06-13T06:16:53.578Z,english_353.wav,0,1,711,,,,,6,0.6,-45.01562353,1.56291015
JYS,81,1,2024-06-13T06:16:53.578Z,english_353.wav,0,1,711,,,,,7,0.7,41.4367476,1.91892948
JYS,81,1,2024-06-13T06:16:53.578Z,english_353.wav,0,1,711,,,,,8,0.8,-7.80846777,1.01197455
JYS,81,1,2024-06-13T06:16:53.578Z,english_353.wav,0,1,711,,,,,9,0.9,42.15448352,1.4134273
JYS,81,1,2024-06-13T06:16:53.578Z,english_353.wav,0,1,711,,,,,10,1,92.0591742,1.42236133
JYS,81,1,2024-06-13T06:16:53.578Z,english_353.wav,0,1,711,,,,,11,1.09391667,-12.12221809,0.78816947
JYS,82,1,2024-06-13T06:16:53.578Z,english_557.wav,0,1,644,,,,,0,0,-36.00437951,0.86268568
JYS,82,1,2024-06-13T06:16:53.578Z,english_557.wav,0,1,644,,,,,1,0.1,-36.18192477,0.78818346
JYS,82,1,2024-06-13T06:16:53.578Z,english_557.wav,0,1,644,,,,,2,0.2,-76.46214854,0.88104775
JYS,82,1,2024-06-13T06:16:53.578Z,english_557.wav,0,1,644,,,,,3,0.3,-9.78546514,0.51957323
JYS,82,1,2024-06-13T06:16:53.578Z,english_557.wav,0,1,644,,,,,4,0.4,-53.27937245,1.84624381
JYS,82,1,2024-06-13T06:16:53.578Z,english_557.wav,0,1,644,,,,,5,0.5,14.69737181,0.53524469
JYS,82,1,2024-06-13T06:16:53.578Z,english_557.wav,0,1,644,,,,,6,0.6,-76.22217722,0.83895898
JYS,82,1,2024-06-13T06:16:53.578Z,english_557.wav,0,1,644,,,,,7,0.7,76.26393568,0.4548877
JYS,82,1,2024-06-13T06:16:53.578Z,english_557.wav,0,1,644,,,,,8,0.8,-62.02007028,1.59917341
JYS,82,1,2024-06-13T06:16:53.578Z,english_557.wav,0,1,644,,,,,9,0.9,73.18804903,0.63690232
JYS,82,1,2024-06-13T06:16:53.578Z,english_557.wav,0,1,644,,,,,10,1,75.91755358,1.04600017
JYS,82,1,2024-06-13T06:16:53.578Z,english_557.wav,0,1,644,,,,,11,1.09391667,-37.39944408,0.42796411
JYS,83,1,2024-06-13T06:16:53.578Z,english_834.wav,0,1,576,,,,,0,0,-86.16375599,1.62153397
JYS,83,1,2024-06-13T06:16:53.578Z,english_834.wav,0,1,576,,,,,1,0.1,-22.09919923,1.42577166
JYS,83,1,2024-06-13T06:16:53.578Z,english_834.wav,0,1,576,,,,,2,0.2,63.82090938,1.22840095
JYS,83,1,2024-06-13T06:16:53.578Z,english_834.wav,0,1,576,,,,,3,0.3,38.26115817,1.977843
JYS,83,1,2024-06-13T06:16:53.578Z,english_834.wav,0,1,576,,,,,4,0.4,15.19654457,0.63466945
JYS,83,1,2024-06-13T06:16:53.578Z,english_834.wav,0,1,576,,,,,5,0.5,78.054871,1.94429469
JYS,83,1,2024-06-13T06:16:53.578Z,english_834.wav,0,1,576,,,,,6,0.6,63.1081572,0.531594
JYS,83,1,2024-06-13T06:16:53.578Z,english_834.wav,0,1,576,,,,,7,0.7,43.43236214,1.34157161
JYS,83,1,2024-06-13T06:16:53.578Z,english_834.wav,0,1,576,,,,,8,0.8,-74.3897683,1.32269287
JYS,83,1,2024-06-13T06:16:53.578Z,english_834.wav,0,1,576,,,,,9,0.9,40.24285486,1.75386624
JYS,83,1,2024-06-13T06:16:53.578Z,english_834.wav,0,1,576,,,,,10,1,-67.71571624,1.01238939
JYS,83,1,2024-06-13T06:16:53.578Z,english_834.wav,0,1,576,,,,,11,1.09391667,40.03958616,1.44306133
JYS,84,1,2024-06-13T06:16:53.578Z,english_969.wav,0,1,610,,,,,0,0,29.09924348,1.53055803
JYS,84,1,2024-06-13T06:16:53.578Z,english_969.wav,0,1,610,,,,,1,0.1,-95.88090252,0.21771883
JYS,84,1,2024-06-13T06:16:53.578Z,english_969.wav,0,1,610,,,,,2,0.2,45.5103226,0.6895083
JYS,84,1,2024-06-13T06:16:53.578Z,english_969.wav,0,1,610,,,,,3,0.3,22.6688792,1.38165803
JYS,84,1,2024-06-13T06:16:53.578Z,english_969.wav,0,1,610,,,,,4,0.4,28.43861777,1.43845422
JYS,84,1,2024-06-13T06:16:53.578Z,english_969.wav,0,1,610,,,,,5,0.5,-64.30828006,1.41047112
JYS,84,1,2024-06-13T06:16:53.578Z,english_969.wav,0,1,610,,,,,6,0.6,-54.50431648,1.45510114
JYS,84,1,2024-06-13T06:16:53.578Z,english_969.wav,0,1,610,,,,,7,0.7,30.42451317,0.72825636
JYS,84,1,2024-06-13T06:16:53.578Z,english_969.wav,0,1,610,,,,,8,0.8,-91.90179979,1.35653581
JYS,84,1,2024-06-13T06:16:53.578Z,english_969.wav,0,1,610,,,,,9,0.9,4.36119227,1.06956255
JYS,84,1,2024-06-13T06:16:53.578Z,english_969.wav,0,1,610,,,,,10,1,-67.80457813,1.00621562
JYS,84,1,2024-06-13T06:16:53.578Z,english_969.wav,0,1,610,,,,,11,1.09391667,-80.8303423,1.05370229
JYS,85,1,2024-06-13T06:16:53.578Z,english_482.wav,0,1,564,,,,,0,0,20.07417146,1.35721439
JYS,85,1,2024-06-13T06:16:53.578Z,english_482.wav,0,1,564,,,,,1,0.1,-12.82737333,1.71306389
JYS,85,1,2024-06-13T06:16:53.578Z,english_482.wav,0,1,564,,,,,2,0.2,46.60771192,0.15096255
JYS,85,1,2024-06-13T06:16:53.578Z,english_482.wav,0,1,564,,,,,3,0.3,92.39920005,1.17077369
JYS,85,1,2024-06-13T06:16:53.578Z,english_482.wav,0,1,564,,,,,4,0.4,96.99690807,0.74035243
JYS,85,1,2024-06-13T06:16:53.578Z,english_482.wav,0,1,564,,,,,5,0.5,12.60829295,1.34523093
JYS,85,1,2024-06-13T06:16:53.578Z,english_482.wav,0,1,564,,,,,6,0.6,-23.92845314,0.96774723
JYS,85,1,2024-06-13T06:16:53.578Z,english_482.wav,0,1,564,,,,,7,0.7,-47.3765233,1.67491069
JYS,85,1,2024-06-13T06:16:53.578Z,english_482.wav,0,1,564,,,,,8,0.8,55.97987906,1.90247302
JYS,85,1,2024-06-13T06:16:53.578Z,english_482.wav,0,1,564,,,,,9,0.9,22.28704579,1.31919575
JYS,85,1,2024-06-13T06:16:53.578Z,english_482.wav,0,1,564,,,,,10,1,67.15676761,1.48251796
JYS,85,1,2024-06-13T06:16:53.578Z,english_482.wav,0,1,564,,,,,11,1.09391667,46.69344931,0.85176568
JYS,86,1,2024-06-13T06:16:53.578Z,english_596.wav,0,1,480,,,,,0,0,-42.68859768,1.28071693
JYS,86,1,2024-06-13T06:16:53.578Z,english_596.wav,0,1,480,,,,,1,0.1,67.29414518,0.77411838
JYS,86,1,2024-06-13T06:16:53.578Z,english_596.wav,0,1,480,,,,,2,0.2,-56.57562289,1.32627092
JYS,86,1,2024-06-13T06:16:53.578Z,english_596.wav,0,1,480,,,,,3,0.3,71.30769152,0.49089119
JYS,86,1,2024-06-13T06:16:53.578Z,english_596.wav,0,1,480,,,,,4,0.4,95.1886681,0.72473062
JYS,86,1,2024-06-13T06:16:53.578Z,english_596.wav,0,1,480,,,,,5,0.5,72.69751936,1.52798236
JYS,86,1,2024-06-13T06:16:53.578Z,english_596.wav,0,1,480,,,,,6,0.6,62.43561612,1.79088814
JYS,86,1,2024-06-13T06:16:53.578Z,english_596.wav,0,1,480,,,,,7,0.7,-87.58634469,1.96984618
JYS,86,1,2024-06-13T06:16:53.578Z,english_596.wav,0,1,480,,,,,8,0.8,-28.77393345,1.38508216
JYS,86,1,2024-06-13T06:16:53.578Z,english_596.wav,0,1,480,,,,,9,0.9,-89.27970112,1.05217053
JYS,86,1,2024-06-13T06:16:53.578Z,english_596.wav,0,1,480,,,,,10,1,-11.13754725,1.15113027
JYS,86,1,2024-06-13T06:16:53.578Z,english_596.wav,0,1,480,,,,,11,1.09391667,-71.54799937,0.49767302
JYS,87,1,2024-06-13T06:16:53.578Z,english_653.wav,0,1,605,,,,,0,0,41.8259341,0.17533452
JYS,87,1,2024-06-13T06:16:53.578Z,english_653.wav,0,1,605,,,,,1,0.1,17.38671322,1.08757539
JYS,87,1,2024-06-13T06:16:53.578Z,english_653.wav,0,1,605,,,,,2,0.2,86.12532741,1.96334993
JYS,87,1,2024-06-13T06:16:53.578Z,english_653.wav,0,1,605,,,,,3,0.3,-33.72650973,1.47062591
JYS,87,1,2024-06-13T06:16:53.578Z,english_653.wav,0,1,605,,,,,4,0.4,-40.64508362,1.06368379
JYS,87,1,2024-06-13T06:16:53.578Z,english_653.wav,0,1,605,,,,,5,0.5,29.34700904,1.07766545
JYS,87,1,2024-06-13T06:16:53.578Z,english_653.wav,0,1,605,,,,,6,0.6,-10.62645481,1.32143854
JYS,87,1,2024-06-13T06:16:53.578Z,english_653.wav,0,1,605,,,,,7,0.7,-39.23364733,0.74682372
JYS,87,1,2024-06-13T06:16:53.578Z,english_653.wav,0,1,605,,,,,8,0.8,1.23936202,0.56607345
JYS,87,1,2024-06-13T06:16:53.578Z,english_653.wav,0,1,605,,,,,9,0.9,54.61023708,0.97558446
JYS,87,1,2024-06-13T06:16:53.578Z,english_653.wav,0,1,605,,,,,10,1,68.93146106,0.53847025
JYS,87,1,2024-06-13T06:16:53.578Z,english_653.wav,0,1,605,,,,,11,1.09391667,98.0100566,0.14439152
JYS,88,1,2024-06-13T06:16:53.578Z,english_9.wav,0,1,319,,,,,0,0,-96.61203468,1.48407489
JYS,88,1,2024-06-13T06:16:53.578Z,english_9.wav,0,1,319,,,,,1,0.1,27.77418146,0.71089129
JYS,88,1,2024-06-13T06:16:53.578Z,english_9.wav,0,1,319,,,,,2,0.2,-42.79973111,1.02276586
JYS,88,1,2024-06-13T06:16:53.578Z,english_9.wav,0,1,319,,,,,3,0.3,52.67007286,0.94605025
JYS,88,1,2024-06-13T06:16:53.578Z,english_9.wav,0,1,319,,,,,4,0.4,-77.37689486,1.64255066
JYS,88,1,2024-06-13T06:16:53.578Z,english_9.wav,0,1,319,,,,,5,0.5,22.33265825,1.1767353
JYS,88,1,2024-06-13T06:16:53.578Z,english_9.wav,0,1,319,,,,,6,0.6,-21.53246611,1.24238606
JYS,88,1,2024-06-13T06:16:53.578Z,english_9.wav,0,1,319,,,,,7,0.7,11.78226484,0.92864334
JYS,88,1,2024-06-13T06:16:53.578Z,english_9.wav,0,1,319,,,,,8,0.8,-45.34236124,1.13602565
JYS,88,1,2024-06-13T06:16:53.578Z,english_9.wav,0,1,319,,,,,9,0.9,55.83053399,1.46898539
JYS,88,1,2024-06-13T06:16:53.578Z,english_9.wav,0,1,319,,,,,10,1,-0.17077069,1.30855548
JYS,88,1,2024-06-13T06:16:53.578Z,english_9.wav,0,1,319,,,,,11,1.09391667,-99.58545301,1.24881599
JYS,89,1,2024-06-13T06:16:53.578Z,english_971.wav,0,0,1304,,,,,0,0,21.92702064,0.459047
JYS,89,1,2024-06-13T06:16:53.578Z,english_971.wav,0,0,1304,,,,,1,0.1,-53.27203396,0.06454192
JYS,89,1,2024-06-13T06:16:53.578Z,english_971.wav,0,0,1304,,,,,2,0.2,16.04080675,1.47088252
JYS,89,1,2024-06-13T06:16:53.578Z,english_971.wav,0,0,1304,,,,,3,0.3,-93.72897718,0.63214126
JYS,89,1,2024-06-13T06:16:53.578Z,english_971.wav,0,0,1304,,,,,4,0.4,76.75922717,0.53041825
JYS,89,1,2024-06-13T06:16:53.578Z,english_971.wav,0,0,1304,,,,,5,0.5,2.23154985,0.36671068
JYS,89,1,2024-06-13T06:16:53.578Z,english_971.wav,0,0,1304,,,,,6,0.6,57.16774736,0.84112941
JYS,89,1,2024-06-13T06:16:53.578Z,english_971.wav,0,0,1304,,,,,7,0.7,-66.3096603,0.93270713
JYS,89,1,2024-06-13T06:16:53.578Z,english_971.wav,0,0,1304,,,,,8,0.8,-54.36784686,0.0064824
JYS,89,1,2024-06-13T06:16:53.578Z,english_971.wav,0,0,1304,,,,,9,0.9,31.74688825,0.04508119
JYS,89,1,2024-06-13T06:16:53.578Z,english_971.wav,0,0,1304,,,,,10,1,-41.88838509,1.17781348
JYS,89,1,2024-06-13T06:16:53.578Z,english_971.wav,0,0,1304,,,,,11,1.09391667,-46.11178706,0.19249934
JYS,90,1,2024-06-13T06:16:53.578Z,english_213.wav,0,1,562,,,,,0,0,-32.76105426,1.09332496
JYS,90,1,2024-06-13T06:16:53.578Z,english_213.wav,0,1,562,,,,,1,0.1,20.82965334,1.62338997
JYS,90,1,2024-06-13T06:16:53.578Z,english_213.wav,0,1,562,,,,,2,0.2,92.37712608,0.62920964
JYS,90,1,2024-06-13T06:16:53.578Z,english_213.wav,0,1,562,,,,,3,0.3,62.5594058,1.24187197
JYS,90,1,2024-06-13T06:16:53.578Z,english_213.wav,0,1,562,,,,,4,0.4,6.21236176,0.66893682
JYS,90,1,2024-06-13T06:16:53.578Z,english_213.wav,0,1,562,,,,,5,0.5,4.78560907,0.46069242
JYS,90,1,2024-06-13T06:16:53.578Z,english_213.wav,0,1,562,,,,,6,0.6,-34.71949358,0.40626587
JYS,90,1,2024-06-13T06:16:53.578Z,english_213.wav,0,1,562,,,,,7,0.7,-10.08230205,1.52821633
JYS,90,1,2024-06-13T06:16:53.578Z,english_213.wav,0,1,562,,,,,8,0.8,33.82806657,1.03411812
