subj,trial,block,date,stim,stim_order,response,rt,age,english,language,sex,param_index,segment,pitch,stretch
ZBW_1357,0,0,2024-06-20T05:57:39.562Z,english_3.wav,0,1,2779,,,,,0,0,46.12890401,1.26973721
ZBW_1357,0,0,2024-06-20T05:57:39.562Z,english_3.wav,0,1,2779,,,,,1,0.1,-46.79234899,0.81563074
ZBW_1357,0,0,2024-06-20T05:57:39.562Z,english_3.wav,0,1,2779,,,,,2,0.2,43.27356125,1.94124466
ZBW_1357,0,0,2024-06-20T05:57:39.562Z,english_3.wav,0,1,2779,,,,,3,0.3,-72.16670898,0.70667384
ZBW_1357,0,0,2024-06-20T05:57:39.562Z,english_3.wav,0,1,2779,,,,,4,0.4,-20.43688573,1.08403016
ZBW_1357,0,0,2024-06-20T05:57:39.562Z,english_3.wav,0,1,2779,,,,,5,0.5,47.47685518,0.3642344
ZBW_1357,0,0,2024-06-20T05:57:39.562Z,english_3.wav,0,1,2779,,,,,6,0.6,-99.10404807,0.99174199
ZBW_1357,0,0,2024-06-20T05:57:39.562Z,english_3.wav,0,1,2779,,,,,7,0.7,26.000254,0.55041702
ZBW_1357,0,0,2024-06-20T05:57:39.562Z,english_3.wav,0,1,2779,,,,,8,0.8,-7.26217139,0.75824974
ZBW_1357,0,0,2024-06-20T05:57:39.562Z,english_3.wav,0,1,2779,,,,,9,0.9,-22.74562987,0.866985
ZBW_1357,0,0,2024-06-20T05:57:39.562Z,english_3.wav,0,1,2779,,,,,10,1,-68.2177704,1.56473108
ZBW_1357,0,0,2024-06-20T05:57:39.562Z,english_3.wav,0,1,2779,,,,,11,1.09391667,25.12417325,0.96011667
ZBW_1357,1,0,2024-06-20T05:57:39.562Z,english_234.wav,0,0,756,,,,,0,0,71.25344855,1.77024373
ZBW_1357,1,0,2024-06-20T05:57:39.562Z,english_234.wav,0,0,756,,,,,1,0.1,2.51724238,1.93450941
ZBW_1357,1,0,2024-06-20T05:57:39.562Z,english_234.wav,0,0,756,,,,,2,0.2,11.96692617,1.39397551
ZBW_1357,1,0,2024-06-20T05:57:39.562Z,english_234.wav,0,0,756,,,,,3,0.3,64.81737023,1.38496922
ZBW_1357,1,0,2024-06-20T05:57:39.562Z,english_234.wav,0,0,756,,,,,4,0.4,73.84050439,1.81820251
ZBW_1357,1,0,2024-06-20T05:57:39.562Z,english_234.wav,0,0,756,,,,,5,0.5,-23.01072055,1.61085564
ZBW_1357,1,0,2024-06-20T05:57:39.562Z,english_234.wav,0,0,756,,,,,6,0.6,-44.95387086,1.3729139
ZBW_1357,1,0,2024-06-20T05:57:39.562Z,english_234.wav,0,0,756,,,,,7,0.7,-11.63871465,1.59939785
ZBW_1357,1,0,2024-06-20T05:57:39.562Z,english_234.wav,0,0,756,,,,,8,0.8,88.55977512,0.08431317
ZBW_1357,1,0,2024-06-20T05:57:39.562Z,english_234.wav,0,0,756,,,,,9,0.9,51.63791617,1.41302364
ZBW_1357,1,0,2024-06-20T05:57:39.562Z,english_234.wav,0,0,756,,,,,10,1,-71.95139975,1.44509252
ZBW_1357,1,0,2024-06-20T05:57:39.562Z,english_234.wav,0,0,756,,,,,11,1.09391667,-75.67665254,0.88259776
ZBW_1357,2,0,2024-06-20T05:57:39.562Z,english_640.wav,0,0,275,,,,,0,0,61.20375749,0.85142229
ZBW_1357,2,0,2024-06-20T05:57:39.562Z,english_640.wav,0,0,275,,,,,1,0.1,-16.1857947,0.85767155
ZBW_1357,2,0,2024-06-20T05:57:39.562Z,english_640.wav,0,0,275,,,,,2,0.2,6.11258798,0.88844778
ZBW_1357,2,0,2024-06-20T05:57:39.562Z,english_640.wav,0,0,275,,,,,3,0.3,95.92721012,1.39275841
ZBW_1357,2,0,2024-06-20T05:57:39.562Z,english_640.wav,0,0,275,,,,,4,0.4,93.14129024,1.52098415
ZBW_1357,2,0,2024-06-20T05:57:39.562Z,english_640.wav,0,0,275,,,,,5,0.5,-89.55913941,1.55322116
ZBW_1357,2,0,2024-06-20T05:57:39.562Z,english_640.wav,0,0,275,,,,,6,0.6,57.55264462,0.8538103
ZBW_1357,2,0,2024-06-20T05:57:39.562Z,english_640.wav,0,0,275,,,,,7,0.7,31.50273718,0.01301989
ZBW_1357,2,0,2024-06-20T05:57:39.562Z,english_640.wav,0,0,275,,,,,8,0.8,14.91560265,1.48414579
ZBW_1357,2,0,2024-06-20T05:57:39.562Z,english_640.wav,0,0,275,,,,,9,0.9,73.92386032,0.86811695
ZBW_1357,2,0,2024-06-20T05:57:39.562Z,english_640.wav,0,0,275,,,,,10,1,71.81694375,1.48550262
ZBW_1357,2,0,2024-06-20T05:57:39.562Z,english_640.wav,0,0,275,,,,,11,1.09391667,86.11531977,1.24176268
ZBW_1357,3,0,2024-06-20T05:57:39.562Z,english_662.wav,0,1,246,,,,,0,0,31.31886637,0.51844492
ZBW_1357,3,0,2024-06-20T05:57:39.562Z,english_662.wav,0,1,246,,,,,1,0.1,-45.58012984,1.26337535
ZBW_1357,3,0,2024-06-20T05:57:39.562Z,english_662.wav,0,1,246,,,,,2,0.2,-36.67335117,1.47948125
ZBW_1357,3,0,2024-06-20T05:57:39.562Z,english_662.wav,0,1,246,,,,,3,0.3,91.68908931,1.54973702
ZBW_1357,3,0,2024-06-20T05:57:39.562Z,english_662.wav,0,1,246,,,,,4,0.4,99.42890358,1.40573319
ZBW_1357,3,0,2024-06-20T05:57:39.562Z,english_662.wav,0,1,246,,,,,5,0.5,-75.06867948,0.46765036
ZBW_1357,3,0,2024-06-20T05:57:39.562Z,english_662.wav,0,1,246,,,,,6,0.6,-53.3060983,1.29577772
ZBW_1357,3,0,2024-06-20T05:57:39.562Z,english_662.wav,0,1,246,,,,,7,0.7,66.7707286,1.28176027
ZBW_1357,3,0,2024-06-20T05:57:39.562Z,english_662.wav,0,1,246,,,,,8,0.8,69.18702853,1.79426909
ZBW_1357,3,0,2024-06-20T05:57:39.562Z,english_662.wav,0,1,246,,,,,9,0.9,-16.72052533,0.76623174
ZBW_1357,3,0,2024-06-20T05:57:39.562Z,english_662.wav,0,1,246,,,,,10,1,16.50634939,1.90203541
ZBW_1357,3,0,2024-06-20T05:57:39.562Z,english_662.wav,0,1,246,,,,,11,1.09391667,79.32738685,1.85204165
ZBW_1357,4,0,2024-06-20T05:57:39.562Z,english_279.wav,0,0,750,,,,,0,0,-36.23762281,1.55188156
ZBW_1357,4,0,2024-06-20T05:57:39.562Z,english_279.wav,0,0,750,,,,,1,0.1,-35.59764132,1.09158025
ZBW_1357,4,0,2024-06-20T05:57:39.562Z,english_279.wav,0,0,750,,,,,2,0.2,-13.82808191,1.04107002
ZBW_1357,4,0,2024-06-20T05:57:39.562Z,english_279.wav,0,0,750,,,,,3,0.3,66.93896188,1.2362444
ZBW_1357,4,0,2024-06-20T05:57:39.562Z,english_279.wav,0,0,750,,,,,4,0.4,44.18525499,0.95842363
ZBW_1357,4,0,2024-06-20T05:57:39.562Z,english_279.wav,0,0,750,,,,,5,0.5,77.32475473,1.88195108
ZBW_1357,4,0,2024-06-20T05:57:39.562Z,english_279.wav,0,0,750,,,,,6,0.6,48.96526153,0.79599844
ZBW_1357,4,0,2024-06-20T05:57:39.562Z,english_279.wav,0,0,750,,,,,7,0.7,-92.8605498,1.52048921
ZBW_1357,4,0,2024-06-20T05:57:39.562Z,english_279.wav,0,0,750,,,,,8,0.8,-72.65791469,0.72907645
ZBW_1357,4,0,2024-06-20T05:57:39.562Z,english_279.wav,0,0,750,,,,,9,0.9,-40.93814374,0.85560625
ZBW_1357,4,0,2024-06-20T05:57:39.562Z,english_279.wav,0,0,750,,,,,10,1,53.10101084,1.78550088
ZBW_1357,4,0,2024-06-20T05:57:39.562Z,english_279.wav,0,0,750,,,,,11,1.09391667,-12.52992697,0.47871606
ZBW_1357,5,0,2024-06-20T05:57:39.562Z,english_584.wav,0,0,904,,,,,0,0,50.7358721,1.24615014
ZBW_1357,5,0,2024-06-20T05:57:39.562Z,english_584.wav,0,0,904,,,,,1,0.1,-37.41238679,1.8454839
ZBW_1357,5,0,2024-06-20T05:57:39.562Z,english_584.wav,0,0,904,,,,,2,0.2,-21.91541438,1.76277899
ZBW_1357,5,0,2024-06-20T05:57:39.562Z,english_584.wav,0,0,904,,,,,3,0.3,67.49251718,0.88473448
ZBW_1357,5,0,2024-06-20T05:57:39.562Z,english_584.wav,0,0,904,,,,,4,0.4,36.0609863,0.58271182
ZBW_1357,5,0,2024-06-20T05:57:39.562Z,english_584.wav,0,0,904,,,,,5,0.5,29.68399092,1.46602634
ZBW_1357,5,0,2024-06-20T05:57:39.562Z,english_584.wav,0,0,904,,,,,6,0.6,69.24169566,1.79468998
ZBW_1357,5,0,2024-06-20T05:57:39.562Z,english_584.wav,0,0,904,,,,,7,0.7,2.10305954,1.56143928
ZBW_1357,5,0,2024-06-20T05:57:39.562Z,english_584.wav,0,0,904,,,,,8,0.8,23.93501401,0.46568097
ZBW_1357,5,0,2024-06-20T05:57:39.562Z,english_584.wav,0,0,904,,,,,9,0.9,-17.64282744,0.5808441
ZBW_1357,5,0,2024-06-20T05:57:39.562Z,english_584.wav,0,0,904,,,,,10,1,80.89116082,1.80196263
ZBW_1357,5,0,2024-06-20T05:57:39.562Z,english_584.wav,0,0,904,,,,,11,1.09391667,-10.99932322,1.58954467
ZBW_1357,6,0,2024-06-20T05:57:39.562Z,english_376.wav,0,0,529,,,,,0,0,-22.52600132,1.13600224
ZBW_1357,6,0,2024-06-20T05:57:39.562Z,english_376.wav,0,0,529,,,,,1,0.1,29.36992487,0.82385101
ZBW_1357,6,0,2024-06-20T05:57:39.562Z,english_376.wav,0,0,529,,,,,2,0.2,26.35975313,0.21812262
ZBW_1357,6,0,2024-06-20T05:57:39.562Z,english_376.wav,0,0,529,,,,,3,0.3,22.46882007,1.22545345
ZBW_1357,6,0,2024-06-20T05:57:39.562Z,english_376.wav,0,0,529,,,,,4,0.4,-26.33536786,0.68217052
ZBW_1357,6,0,2024-06-20T05:57:39.562Z,english_376.wav,0,0,529,,,,,5,0.5,-27.32741376,1.80813558
ZBW_1357,6,0,2024-06-20T05:57:39.562Z,english_376.wav,0,0,529,,,,,6,0.6,4.49813396,0.4048305
ZBW_1357,6,0,2024-06-20T05:57:39.562Z,english_376.wav,0,0,529,,,,,7,0.7,-47.02321994,1.72982043
ZBW_1357,6,0,2024-06-20T05:57:39.562Z,english_376.wav,0,0,529,,,,,8,0.8,-61.17584125,0.03977306
ZBW_1357,6,0,2024-06-20T05:57:39.562Z,english_376.wav,0,0,529,,,,,9,0.9,-52.37587082,0.16832119
ZBW_1357,6,0,2024-06-20T05:57:39.562Z,english_376.wav,0,0,529,,,,,10,1,53.16500273,1.81503166
ZBW_1357,6,0,2024-06-20T05:57:39.562Z,english_376.wav,0,0,529,,,,,11,1.09391667,31.59148057,0.61812074
ZBW_1357,7,0,2024-06-20T05:57:39.562Z,english_166.wav,0,1,262,,,,,0,0,-22.47224396,0.79935629
ZBW_1357,7,0,2024-06-20T05:57:39.562Z,english_166.wav,0,1,262,,,,,1,0.1,8.34418228,1.08766258
ZBW_1357,7,0,2024-06-20T05:57:39.562Z,english_166.wav,0,1,262,,,,,2,0.2,-26.80375044,0.88793969
ZBW_1357,7,0,2024-06-20T05:57:39.562Z,english_166.wav,0,1,262,,,,,3,0.3,-25.22426401,1.85581966
ZBW_1357,7,0,2024-06-20T05:57:39.562Z,english_166.wav,0,1,262,,,,,4,0.4,-44.17860095,1.74261815
ZBW_1357,7,0,2024-06-20T05:57:39.562Z,english_166.wav,0,1,262,,,,,5,0.5,-7.8395137,0.67828824
ZBW_1357,7,0,2024-06-20T05:57:39.562Z,english_166.wav,0,1,262,,,,,6,0.6,42.03338864,0.30993225
ZBW_1357,7,0,2024-06-20T05:57:39.562Z,english_166.wav,0,1,262,,,,,7,0.7,50.48936268,1.83209491
ZBW_1357,7,0,2024-06-20T05:57:39.562Z,english_166.wav,0,1,262,,,,,8,0.8,-79.33283531,1.96795539
ZBW_1357,7,0,2024-06-20T05:57:39.562Z,english_166.wav,0,1,262,,,,,9,0.9,57.67304972,0.73278394
ZBW_1357,7,0,2024-06-20T05:57:39.562Z,english_166.wav,0,1,262,,,,,10,1,75.92662412,1.69577801
ZBW_1357,7,0,2024-06-20T05:57:39.562Z,english_166.wav,0,1,262,,,,,11,1.09391667,-5.06556073,0.31756742
ZBW_1357,8,0,2024-06-20T05:57:39.562Z,english_809.wav,0,0,483,,,,,0,0,-9.12051171,1.24060405
ZBW_1357,8,0,2024-06-20T05:57:39.562Z,english_809.wav,0,0,483,,,,,1,0.1,56.83840218,0.92544531
ZBW_1357,8,0,2024-06-20T05:57:39.562Z,english_809.wav,0,0,483,,,,,2,0.2,-21.1464042,1.6749497
ZBW_1357,8,0,2024-06-20T05:57:39.562Z,english_809.wav,0,0,483,,,,,3,0.3,57.63617788,0.74168877
ZBW_1357,8,0,2024-06-20T05:57:39.562Z,english_809.wav,0,0,483,,,,,4,0.4,81.73006696,0.96063823
ZBW_1357,8,0,2024-06-20T05:57:39.562Z,english_809.wav,0,0,483,,,,,5,0.5,1.9499243,1.38564295
ZBW_1357,8,0,2024-06-20T05:57:39.562Z,english_809.wav,0,0,483,,,,,6,0.6,94.78967393,0.56911063
ZBW_1357,8,0,2024-06-20T05:57:39.562Z,english_809.wav,0,0,483,,,,,7,0.7,65.64249462,0.51453492
ZBW_1357,8,0,2024-06-20T05:57:39.562Z,english_809.wav,0,0,483,,,,,8,0.8,90.5146219,0.11779349
ZBW_1357,8,0,2024-06-20T05:57:39.562Z,english_809.wav,0,0,483,,,,,9,0.9,37.72992996,0.31036913
ZBW_1357,8,0,2024-06-20T05:57:39.562Z,english_809.wav,0,0,483,,,,,10,1,-3.08128901,0.78583843
ZBW_1357,8,0,2024-06-20T05:57:39.562Z,english_809.wav,0,0,483,,,,,11,1.09391667,81.22811773,1.12131059
ZBW_1357,9,0,2024-06-20T05:57:39.562Z,english_645.wav,0,1,293,,,,,0,0,74.20759592,0.3722502
ZBW_1357,9,0,2024-06-20T05:57:39.562Z,english_645.wav,0,1,293,,,,,1,0.1,-91.348614,0.72135633
ZBW_1357,9,0,2024-06-20T05:57:39.562Z,english_645.wav,0,1,293,,,,,2,0.2,-47.07053841,1.09022513
ZBW_1357,9,0,2024-06-20T05:57:39.562Z,english_645.wav,0,1,293,,,,,3,0.3,14.8093439,0.23360297
ZBW_1357,9,0,2024-06-20T05:57:39.562Z,english_645.wav,0,1,293,,,,,4,0.4,46.9338314,1.81978529
ZBW_1357,9,0,2024-06-20T05:57:39.562Z,english_645.wav,0,1,293,,,,,5,0.5,39.7428535,0.50068107
ZBW_1357,9,0,2024-06-20T05:57:39.562Z,english_645.wav,0,1,293,,,,,6,0.6,-23.36569069,1.21791048
ZBW_1357,9,0,2024-06-20T05:57:39.562Z,english_645.wav,0,1,293,,,,,7,0.7,45.91971916,0.53153165
ZBW_1357,9,0,2024-06-20T05:57:39.562Z,english_645.wav,0,1,293,,,,,8,0.8,32.42791759,1.47100285
ZBW_1357,9,0,2024-06-20T05:57:39.562Z,english_645.wav,0,1,293,,,,,9,0.9,1.19876254,1.64053241
ZBW_1357,9,0,2024-06-20T05:57:39.562Z,english_645.wav,0,1,293,,,,,10,1,-40.71182661,1.74926312
ZBW_1357,9,0,2024-06-20T05:57:39.562Z,english_645.wav,0,1,293,,,,,11,1.09391667,-1.61863293,1.77861775
ZBW_1357,10,0,2024-06-20T05:57:39.562Z,english_175.wav,0,0,504,,,,,0,0,38.44646754,1.34207659
ZBW_1357,10,0,2024-06-20T05:57:39.562Z,english_175.wav,0,0,504,,,,,1,0.1,-23.00340035,1.41404042
ZBW_1357,10,0,2024-06-20T05:57:39.562Z,english_175.wav,0,0,504,,,,,2,0.2,-30.61543139,1.49080674
ZBW_1357,10,0,2024-06-20T05:57:39.562Z,english_175.wav,0,0,504,,,,,3,0.3,99.83965835,0.72740359
ZBW_1357,10,0,2024-06-20T05:57:39.562Z,english_175.wav,0,0,504,,,,,4,0.4,-46.63956487,1.0197188
ZBW_1357,10,0,2024-06-20T05:57:39.562Z,english_175.wav,0,0,504,,,,,5,0.5,-59.37007197,0.62236458
ZBW_1357,10,0,2024-06-20T05:57:39.562Z,english_175.wav,0,0,504,,,,,6,0.6,82.40355982,1.36261766
ZBW_1357,10,0,2024-06-20T05:57:39.562Z,english_175.wav,0,0,504,,,,,7,0.7,-46.17826166,0.8547614
ZBW_1357,10,0,2024-06-20T05:57:39.562Z,english_175.wav,0,0,504,,,,,8,0.8,9.80730277,0.21399821
ZBW_1357,10,0,2024-06-20T05:57:39.562Z,english_175.wav,0,0,504,,,,,9,0.9,74.64832737,1.05176786
ZBW_1357,10,0,2024-06-20T05:57:39.562Z,english_175.wav,0,0,504,,,,,10,1,-39.17791416,0.6104539
ZBW_1357,10,0,2024-06-20T05:57:39.562Z,english_175.wav,0,0,504,,,,,11,1.09391667,-90.85337976,1.60893412
ZBW_1357,11,0,2024-06-20T05:57:39.562Z,english_629.wav,0,0,693,,,,,0,0,-98.30964243,0.81771725
ZBW_1357,11,0,2024-06-20T05:57:39.562Z,english_629.wav,0,0,693,,,,,1,0.1,-5.62970232,0.80248144
ZBW_1357,11,0,2024-06-20T05:57:39.562Z,english_629.wav,0,0,693,,,,,2,0.2,20.69990793,1.65272957
ZBW_1357,11,0,2024-06-20T05:57:39.562Z,english_629.wav,0,0,693,,,,,3,0.3,-4.68954038,0.79587507
ZBW_1357,11,0,2024-06-20T05:57:39.562Z,english_629.wav,0,0,693,,,,,4,0.4,-82.80499964,0.51843323
ZBW_1357,11,0,2024-06-20T05:57:39.562Z,english_629.wav,0,0,693,,,,,5,0.5,68.80297029,1.06630495
ZBW_1357,11,0,2024-06-20T05:57:39.562Z,english_629.wav,0,0,693,,,,,6,0.6,-24.62615081,0.85921764
ZBW_1357,11,0,2024-06-20T05:57:39.562Z,english_629.wav,0,0,693,,,,,7,0.7,-86.27878454,1.30572182
ZBW_1357,11,0,2024-06-20T05:57:39.562Z,english_629.wav,0,0,693,,,,,8,0.8,-88.66663155,0.67243508
ZBW_1357,11,0,2024-06-20T05:57:39.562Z,english_629.wav,0,0,693,,,,,9,0.9,8.97030431,0.68958588
ZBW_1357,11,0,2024-06-20T05:57:39.562Z,english_629.wav,0,0,693,,,,,10,1,-94.86018334,0.23451131
ZBW_1357,11,0,2024-06-20T05:57:39.562Z,english_629.wav,0,0,693,,,,,11,1.09391667,10.00961885,1.91010728
ZBW_1357,12,0,2024-06-20T05:57:39.562Z,english_699.wav,0,0,1319,,,,,0,0,-10.64404417,0.39733036
ZBW_1357,12,0,2024-06-20T05:57:39.562Z,english_699.wav,0,0,1319,,,,,1,0.1,-35.40818129,1.17761209
ZBW_1357,12,0,2024-06-20T05:57:39.562Z,english_699.wav,0,0,1319,,,,,2,0.2,83.59292759,0.75132377
ZBW_1357,12,0,2024-06-20T05:57:39.562Z,english_699.wav,0,0,1319,,,,,3,0.3,-40.30907773,0.9903314
ZBW_1357,12,0,2024-06-20T05:57:39.562Z,english_699.wav,0,0,1319,,,,,4,0.4,-61.47705422,1.4462142
ZBW_1357,12,0,2024-06-20T05:57:39.562Z,english_699.wav,0,0,1319,,,,,5,0.5,73.77462927,1.48079401
ZBW_1357,12,0,2024-06-20T05:57:39.562Z,english_699.wav,0,0,1319,,,,,6,0.6,-33.57926845,1.0256948
ZBW_1357,12,0,2024-06-20T05:57:39.562Z,english_699.wav,0,0,1319,,,,,7,0.7,4.64440908,1.03411727
ZBW_1357,12,0,2024-06-20T05:57:39.562Z,english_699.wav,0,0,1319,,,,,8,0.8,-17.22893219,1.52402725
ZBW_1357,12,0,2024-06-20T05:57:39.562Z,english_699.wav,0,0,1319,,,,,9,0.9,7.65230973,0.08305717
ZBW_1357,12,0,2024-06-20T05:57:39.562Z,english_699.wav,0,0,1319,,,,,10,1,91.77034013,1.30692687
ZBW_1357,12,0,2024-06-20T05:57:39.562Z,english_699.wav,0,0,1319,,,,,11,1.09391667,29.53486649,1.30233828
ZBW_1357,13,0,2024-06-20T05:57:39.562Z,english_30.wav,0,0,1189,,,,,0,0,7.20305011,0.62248381
ZBW_1357,13,0,2024-06-20T05:57:39.562Z,english_30.wav,0,0,1189,,,,,1,0.1,40.54252217,1.3534175
ZBW_1357,13,0,2024-06-20T05:57:39.562Z,english_30.wav,0,0,1189,,,,,2,0.2,-27.16756142,1.93672018
ZBW_1357,13,0,2024-06-20T05:57:39.562Z,english_30.wav,0,0,1189,,,,,3,0.3,-47.4542684,1.80613869
ZBW_1357,13,0,2024-06-20T05:57:39.562Z,english_30.wav,0,0,1189,,,,,4,0.4,16.89492576,1.17778721
ZBW_1357,13,0,2024-06-20T05:57:39.562Z,english_30.wav,0,0,1189,,,,,5,0.5,-3.45231142,1.26050698
ZBW_1357,13,0,2024-06-20T05:57:39.562Z,english_30.wav,0,0,1189,,,,,6,0.6,-55.37795964,0.40567716
ZBW_1357,13,0,2024-06-20T05:57:39.562Z,english_30.wav,0,0,1189,,,,,7,0.7,94.81526788,1.85712714
ZBW_1357,13,0,2024-06-20T05:57:39.562Z,english_30.wav,0,0,1189,,,,,8,0.8,4.42136383,0.11089582
ZBW_1357,13,0,2024-06-20T05:57:39.562Z,english_30.wav,0,0,1189,,,,,9,0.9,-28.73125868,1.52275562
ZBW_1357,13,0,2024-06-20T05:57:39.562Z,english_30.wav,0,0,1189,,,,,10,1,-43.27093622,0.4081166
ZBW_1357,13,0,2024-06-20T05:57:39.562Z,english_30.wav,0,0,1189,,,,,11,1.09391667,0.63608962,1.00698649
ZBW_1357,14,0,2024-06-20T05:57:39.562Z,english_773.wav,0,1,345,,,,,0,0,25.38598482,0.89232009
ZBW_1357,14,0,2024-06-20T05:57:39.562Z,english_773.wav,0,1,345,,,,,1,0.1,-75.4290336,1.89128597
ZBW_1357,14,0,2024-06-20T05:57:39.562Z,english_773.wav,0,1,345,,,,,2,0.2,-93.77214736,1.99899889
ZBW_1357,14,0,2024-06-20T05:57:39.562Z,english_773.wav,0,1,345,,,,,3,0.3,-11.93109416,0.2472244
ZBW_1357,14,0,2024-06-20T05:57:39.562Z,english_773.wav,0,1,345,,,,,4,0.4,-3.2584173,0.14273894
ZBW_1357,14,0,2024-06-20T05:57:39.562Z,english_773.wav,0,1,345,,,,,5,0.5,4.3608059,1.21438163
ZBW_1357,14,0,2024-06-20T05:57:39.562Z,english_773.wav,0,1,345,,,,,6,0.6,-67.37283883,0.96373014
ZBW_1357,14,0,2024-06-20T05:57:39.562Z,english_773.wav,0,1,345,,,,,7,0.7,-45.00567152,1.90932533
ZBW_1357,14,0,2024-06-20T05:57:39.562Z,english_773.wav,0,1,345,,,,,8,0.8,35.5097718,1.26347726
ZBW_1357,14,0,2024-06-20T05:57:39.562Z,english_773.wav,0,1,345,,,,,9,0.9,43.03996363,1.83989813
ZBW_1357,14,0,2024-06-20T05:57:39.562Z,english_773.wav,0,1,345,,,,,10,1,65.28264622,0.76004817
ZBW_1357,14,0,2024-06-20T05:57:39.562Z,english_773.wav,0,1,345,,,,,11,1.09391667,-37.07012433,0.66989713
ZBW_1357,15,0,2024-06-20T05:57:39.562Z,english_535.wav,0,0,479,,,,,0,0,-4.00375318,0.74823916
ZBW_1357,15,0,2024-06-20T05:57:39.562Z,english_535.wav,0,0,479,,,,,1,0.1,-37.57387138,0.9109632
ZBW_1357,15,0,2024-06-20T05:57:39.562Z,english_535.wav,0,0,479,,,,,2,0.2,-31.12595353,0.84755902
ZBW_1357,15,0,2024-06-20T05:57:39.562Z,english_535.wav,0,0,479,,,,,3,0.3,2.06341331,1.09662022
ZBW_1357,15,0,2024-06-20T05:57:39.562Z,english_535.wav,0,0,479,,,,,4,0.4,56.11576492,0.26254995
ZBW_1357,15,0,2024-06-20T05:57:39.562Z,english_535.wav,0,0,479,,,,,5,0.5,30.13214978,1.29967994
ZBW_1357,15,0,2024-06-20T05:57:39.562Z,english_535.wav,0,0,479,,,,,6,0.6,14.78197265,1.50452532
ZBW_1357,15,0,2024-06-20T05:57:39.562Z,english_535.wav,0,0,479,,,,,7,0.7,-18.38930177,1.51808924
ZBW_1357,15,0,2024-06-20T05:57:39.562Z,english_535.wav,0,0,479,,,,,8,0.8,-10.54396075,0.34439234
ZBW_1357,15,0,2024-06-20T05:57:39.562Z,english_535.wav,0,0,479,,,,,9,0.9,39.09773013,0.86790386
ZBW_1357,15,0,2024-06-20T05:57:39.562Z,english_535.wav,0,0,479,,,,,10,1,46.13111143,0.86784134
ZBW_1357,15,0,2024-06-20T05:57:39.562Z,english_535.wav,0,0,479,,,,,11,1.09391667,-64.44597459,0.57511998
ZBW_1357,16,0,2024-06-20T05:57:39.562Z,english_875.wav,0,1,434,,,,,0,0,96.8338791,1.90969426
ZBW_1357,16,0,2024-06-20T05:57:39.562Z,english_875.wav,0,1,434,,,,,1,0.1,37.68794022,1.00034929
ZBW_1357,16,0,2024-06-20T05:57:39.562Z,english_875.wav,0,1,434,,,,,2,0.2,13.97824571,1.17763903
ZBW_1357,16,0,2024-06-20T05:57:39.562Z,english_875.wav,0,1,434,,,,,3,0.3,18.96990702,0.35889427
ZBW_1357,16,0,2024-06-20T05:57:39.562Z,english_875.wav,0,1,434,,,,,4,0.4,63.2084655,0.91300026
ZBW_1357,16,0,2024-06-20T05:57:39.562Z,english_875.wav,0,1,434,,,,,5,0.5,-98.93629382,1.19226844
ZBW_1357,16,0,2024-06-20T05:57:39.562Z,english_875.wav,0,1,434,,,,,6,0.6,81.29612198,1.44163348
ZBW_1357,16,0,2024-06-20T05:57:39.562Z,english_875.wav,0,1,434,,,,,7,0.7,50.14728488,1.08588615
ZBW_1357,16,0,2024-06-20T05:57:39.562Z,english_875.wav,0,1,434,,,,,8,0.8,13.48666865,1.80200416
ZBW_1357,16,0,2024-06-20T05:57:39.562Z,english_875.wav,0,1,434,,,,,9,0.9,9.04770509,0.81736325
ZBW_1357,16,0,2024-06-20T05:57:39.562Z,english_875.wav,0,1,434,,,,,10,1,37.35188663,1.15050925
ZBW_1357,16,0,2024-06-20T05:57:39.562Z,english_875.wav,0,1,434,,,,,11,1.09391667,68.7171347,1.96049823
ZBW_1357,17,0,2024-06-20T05:57:39.562Z,english_652.wav,0,1,632,,,,,0,0,-6.47134423,1.78340321
ZBW_1357,17,0,2024-06-20T05:57:39.562Z,english_652.wav,0,1,632,,,,,1,0.1,15.08810971,1.37348527
ZBW_1357,17,0,2024-06-20T05:57:39.562Z,english_652.wav,0,1,632,,,,,2,0.2,98.29631383,0.90438715
ZBW_1357,17,0,2024-06-20T05:57:39.562Z,english_652.wav,0,1,632,,,,,3,0.3,30.58339985,0.90448146
ZBW_1357,17,0,2024-06-20T05:57:39.562Z,english_652.wav,0,1,632,,,,,4,0.4,-6.30529528,0.6194213
ZBW_1357,17,0,2024-06-20T05:57:39.562Z,english_652.wav,0,1,632,,,,,5,0.5,-44.5601624,1.03986034
ZBW_1357,17,0,2024-06-20T05:57:39.562Z,english_652.wav,0,1,632,,,,,6,0.6,4.47931007,0.52762796
ZBW_1357,17,0,2024-06-20T05:57:39.562Z,english_652.wav,0,1,632,,,,,7,0.7,-52.28319513,0.92865907
ZBW_1357,17,0,2024-06-20T05:57:39.562Z,english_652.wav,0,1,632,,,,,8,0.8,17.6405793,1.28477406
ZBW_1357,17,0,2024-06-20T05:57:39.562Z,english_652.wav,0,1,632,,,,,9,0.9,2.7192508,1.34724363
ZBW_1357,17,0,2024-06-20T05:57:39.562Z,english_652.wav,0,1,632,,,,,10,1,-8.76412426,1.76490877
ZBW_1357,17,0,2024-06-20T05:57:39.562Z,english_652.wav,0,1,632,,,,,11,1.09391667,53.37366327,1.20575877
ZBW_1357,18,0,2024-06-20T05:57:39.562Z,english_24.wav,0,0,669,,,,,0,0,19.80934614,1.72303363
ZBW_1357,18,0,2024-06-20T05:57:39.562Z,english_24.wav,0,0,669,,,,,1,0.1,18.47296287,1.17223446
ZBW_1357,18,0,2024-06-20T05:57:39.562Z,english_24.wav,0,0,669,,,,,2,0.2,-87.44087303,0.32252022
ZBW_1357,18,0,2024-06-20T05:57:39.562Z,english_24.wav,0,0,669,,,,,3,0.3,-24.76838412,1.29113778
ZBW_1357,18,0,2024-06-20T05:57:39.562Z,english_24.wav,0,0,669,,,,,4,0.4,28.54854922,1.23026356
ZBW_1357,18,0,2024-06-20T05:57:39.562Z,english_24.wav,0,0,669,,,,,5,0.5,-93.00925389,1.272094
ZBW_1357,18,0,2024-06-20T05:57:39.562Z,english_24.wav,0,0,669,,,,,6,0.6,43.83851229,1.03857334
ZBW_1357,18,0,2024-06-20T05:57:39.562Z,english_24.wav,0,0,669,,,,,7,0.7,56.50445967,0.04355902
ZBW_1357,18,0,2024-06-20T05:57:39.562Z,english_24.wav,0,0,669,,,,,8,0.8,-34.51680679,1.12262583
ZBW_1357,18,0,2024-06-20T05:57:39.562Z,english_24.wav,0,0,669,,,,,9,0.9,77.91008798,0.83275479
ZBW_1357,18,0,2024-06-20T05:57:39.562Z,english_24.wav,0,0,669,,,,,10,1,22.21951013,0.49987962
ZBW_1357,18,0,2024-06-20T05:57:39.562Z,english_24.wav,0,0,669,,,,,11,1.09391667,44.21755505,0.6404637
ZBW_1357,19,0,2024-06-20T05:57:39.562Z,english_677.wav,0,0,3973,,,,,0,0,35.18766114,1.46418541
ZBW_1357,19,0,2024-06-20T05:57:39.562Z,english_677.wav,0,0,3973,,,,,1,0.1,3.82449325,0.62060775
ZBW_1357,19,0,2024-06-20T05:57:39.562Z,english_677.wav,0,0,3973,,,,,2,0.2,-81.73229082,1.63148334
ZBW_1357,19,0,2024-06-20T05:57:39.562Z,english_677.wav,0,0,3973,,,,,3,0.3,-1.54015563,0.52758496
ZBW_1357,19,0,2024-06-20T05:57:39.562Z,english_677.wav,0,0,3973,,,,,4,0.4,-45.59201538,0.80943231
ZBW_1357,19,0,2024-06-20T05:57:39.562Z,english_677.wav,0,0,3973,,,,,5,0.5,26.20010581,1.10411223
ZBW_1357,19,0,2024-06-20T05:57:39.562Z,english_677.wav,0,0,3973,,,,,6,0.6,-19.9162202,0.62014779
ZBW_1357,19,0,2024-06-20T05:57:39.562Z,english_677.wav,0,0,3973,,,,,7,0.7,41.69291663,0.65910672
ZBW_1357,19,0,2024-06-20T05:57:39.562Z,english_677.wav,0,0,3973,,,,,8,0.8,-68.08590586,1.69273141
ZBW_1357,19,0,2024-06-20T05:57:39.562Z,english_677.wav,0,0,3973,,,,,9,0.9,-52.35020304,1.22000106
ZBW_1357,19,0,2024-06-20T05:57:39.562Z,english_677.wav,0,0,3973,,,,,10,1,55.76687311,0.67614262
ZBW_1357,19,0,2024-06-20T05:57:39.562Z,english_677.wav,0,0,3973,,,,,11,1.09391667,26.15340501,1.44243981
ZBW_1357,20,0,2024-06-20T05:57:39.562Z,english_905.wav,0,0,471,,,,,0,0,-38.82719082,0.64550094
ZBW_1357,20,0,2024-06-20T05:57:39.562Z,english_905.wav,0,0,471,,,,,1,0.1,91.73556094,1.31053491
ZBW_1357,20,0,2024-06-20T05:57:39.562Z,english_905.wav,0,0,471,,,,,2,0.2,-44.32627421,0.47707545
ZBW_1357,20,0,2024-06-20T05:57:39.562Z,english_905.wav,0,0,471,,,,,3,0.3,-65.11156064,0.49456239
ZBW_1357,20,0,2024-06-20T05:57:39.562Z,english_905.wav,0,0,471,,,,,4,0.4,-48.38956406,0.97248604
ZBW_1357,20,0,2024-06-20T05:57:39.562Z,english_905.wav,0,0,471,,,,,5,0.5,-66.93781594,0.82967407
ZBW_1357,20,0,2024-06-20T05:57:39.562Z,english_905.wav,0,0,471,,,,,6,0.6,-31.37264091,0.41334293
ZBW_1357,20,0,2024-06-20T05:57:39.562Z,english_905.wav,0,0,471,,,,,7,0.7,-76.42119949,0.8386705
ZBW_1357,20,0,2024-06-20T05:57:39.562Z,english_905.wav,0,0,471,,,,,8,0.8,90.55453052,0.29898441
ZBW_1357,20,0,2024-06-20T05:57:39.562Z,english_905.wav,0,0,471,,,,,9,0.9,-13.8538154,0.28325918
ZBW_1357,20,0,2024-06-20T05:57:39.562Z,english_905.wav,0,0,471,,,,,10,1,10.60108282,0.58400342
ZBW_1357,20,0,2024-06-20T05:57:39.562Z,english_905.wav,0,0,471,,,,,11,1.09391667,-16.89815331,0.41677525
ZBW_1357,21,0,2024-06-20T05:57:39.562Z,english_682.wav,0,1,376,,,,,0,0,-53.22260556,0.39279529
ZBW_1357,21,0,2024-06-20T05:57:39.562Z,english_682.wav,0,1,376,,,,,1,0.1,86.77650228,0.89629602
ZBW_1357,21,0,2024-06-20T05:57:39.562Z,english_682.wav,0,1,376,,,,,2,0.2,9.77253821,1.02748966
ZBW_1357,21,0,2024-06-20T05:57:39.562Z,english_682.wav,0,1,376,,,,,3,0.3,11.03493207,0.21487606
ZBW_1357,21,0,2024-06-20T05:57:39.562Z,english_682.wav,0,1,376,,,,,4,0.4,-49.40991028,0.85817313
ZBW_1357,21,0,2024-06-20T05:57:39.562Z,english_682.wav,0,1,376,,,,,5,0.5,40.78961249,0.23854774
ZBW_1357,21,0,2024-06-20T05:57:39.562Z,english_682.wav,0,1,376,,,,,6,0.6,0.17613347,1.76515504
ZBW_1357,21,0,2024-06-20T05:57:39.562Z,english_682.wav,0,1,376,,,,,7,0.7,-59.60480948,0.66287763
ZBW_1357,21,0,2024-06-20T05:57:39.562Z,english_682.wav,0,1,376,,,,,8,0.8,-70.7429322,0.73367901
ZBW_1357,21,0,2024-06-20T05:57:39.562Z,english_682.wav,0,1,376,,,,,9,0.9,73.80660993,0.47936557
ZBW_1357,21,0,2024-06-20T05:57:39.562Z,english_682.wav,0,1,376,,,,,10,1,20.51556505,1.06722754
ZBW_1357,21,0,2024-06-20T05:57:39.562Z,english_682.wav,0,1,376,,,,,11,1.09391667,45.26798103,1.8777792
ZBW_1357,22,0,2024-06-20T05:57:39.562Z,english_401.wav,0,1,409,,,,,0,0,-36.1059854,1.51802818
ZBW_1357,22,0,2024-06-20T05:57:39.562Z,english_401.wav,0,1,409,,,,,1,0.1,38.605133,1.15871841
ZBW_1357,22,0,2024-06-20T05:57:39.562Z,english_401.wav,0,1,409,,,,,2,0.2,6.46138816,1.08082563
ZBW_1357,22,0,2024-06-20T05:57:39.562Z,english_401.wav,0,1,409,,,,,3,0.3,-76.8629005,0.42984112
ZBW_1357,22,0,2024-06-20T05:57:39.562Z,english_401.wav,0,1,409,,,,,4,0.4,53.9378868,1.24745689
ZBW_1357,22,0,2024-06-20T05:57:39.562Z,english_401.wav,0,1,409,,,,,5,0.5,28.3848957,0.52889601
ZBW_1357,22,0,2024-06-20T05:57:39.562Z,english_401.wav,0,1,409,,,,,6,0.6,49.535102,1.52039951
ZBW_1357,22,0,2024-06-20T05:57:39.562Z,english_401.wav,0,1,409,,,,,7,0.7,-64.7881021,1.59778592
ZBW_1357,22,0,2024-06-20T05:57:39.562Z,english_401.wav,0,1,409,,,,,8,0.8,-98.9667189,0.63237027
ZBW_1357,22,0,2024-06-20T05:57:39.562Z,english_401.wav,0,1,409,,,,,9,0.9,-0.0263257976,0.3603848
ZBW_1357,22,0,2024-06-20T05:57:39.562Z,english_401.wav,0,1,409,,,,,10,1,-0.147031707,0.91165557
ZBW_1357,22,0,2024-06-20T05:57:39.562Z,english_401.wav,0,1,409,,,,,11,1.09391667,-83.6458716,1.59350312
ZBW_1357,23,0,2024-06-20T05:57:39.562Z,english_450.wav,0,1,1237,,,,,0,0,-40.47622517,1.62313454
ZBW_1357,23,0,2024-06-20T05:57:39.562Z,english_450.wav,0,1,1237,,,,,1,0.1,32.74162238,1.28157799
ZBW_1357,23,0,2024-06-20T05:57:39.562Z,english_450.wav,0,1,1237,,,,,2,0.2,-31.99785117,0.17374894
ZBW_1357,23,0,2024-06-20T05:57:39.562Z,english_450.wav,0,1,1237,,,,,3,0.3,26.01051774,1.33840529
ZBW_1357,23,0,2024-06-20T05:57:39.562Z,english_450.wav,0,1,1237,,,,,4,0.4,80.55211369,1.99443486
ZBW_1357,23,0,2024-06-20T05:57:39.562Z,english_450.wav,0,1,1237,,,,,5,0.5,18.01549087,1.3531925
ZBW_1357,23,0,2024-06-20T05:57:39.562Z,english_450.wav,0,1,1237,,,,,6,0.6,52.7809862,1.87514045
ZBW_1357,23,0,2024-06-20T05:57:39.562Z,english_450.wav,0,1,1237,,,,,7,0.7,49.03700675,0.88384361
ZBW_1357,23,0,2024-06-20T05:57:39.562Z,english_450.wav,0,1,1237,,,,,8,0.8,-27.91135425,1.18722403
ZBW_1357,23,0,2024-06-20T05:57:39.562Z,english_450.wav,0,1,1237,,,,,9,0.9,36.58986798,1.83701617
ZBW_1357,23,0,2024-06-20T05:57:39.562Z,english_450.wav,0,1,1237,,,,,10,1,-73.7373691,1.36559917
ZBW_1357,23,0,2024-06-20T05:57:39.562Z,english_450.wav,0,1,1237,,,,,11,1.09391667,98.91564747,0.09127158
ZBW_1357,24,0,2024-06-20T05:57:39.562Z,english_41.wav,0,0,460,,,,,0,0,94.86935215,0.27348518
ZBW_1357,24,0,2024-06-20T05:57:39.562Z,english_41.wav,0,0,460,,,,,1,0.1,-7.05168928,1.18971652
ZBW_1357,24,0,2024-06-20T05:57:39.562Z,english_41.wav,0,0,460,,,,,2,0.2,83.29541273,1.0683571
ZBW_1357,24,0,2024-06-20T05:57:39.562Z,english_41.wav,0,0,460,,,,,3,0.3,-1.78314142,1.37978433
ZBW_1357,24,0,2024-06-20T05:57:39.562Z,english_41.wav,0,0,460,,,,,4,0.4,48.9333274,0.66104529
ZBW_1357,24,0,2024-06-20T05:57:39.562Z,english_41.wav,0,0,460,,,,,5,0.5,-37.7603382,1.58723319
ZBW_1357,24,0,2024-06-20T05:57:39.562Z,english_41.wav,0,0,460,,,,,6,0.6,-73.18439231,0.96658357
ZBW_1357,24,0,2024-06-20T05:57:39.562Z,english_41.wav,0,0,460,,,,,7,0.7,14.0804343,1.12331941
ZBW_1357,24,0,2024-06-20T05:57:39.562Z,english_41.wav,0,0,460,,,,,8,0.8,-63.54643631,1.41064232
ZBW_1357,24,0,2024-06-20T05:57:39.562Z,english_41.wav,0,0,460,,,,,9,0.9,15.76603415,0.93302581
ZBW_1357,24,0,2024-06-20T05:57:39.562Z,english_41.wav,0,0,460,,,,,10,1,6.93433941,0.83854769
ZBW_1357,24,0,2024-06-20T05:57:39.562Z,english_41.wav,0,0,460,,,,,11,1.09391667,-37.21216737,1.07714606
ZBW_1357,25,0,2024-06-20T05:57:39.562Z,english_795.wav,0,1,1745,,,,,0,0,87.97989278,1.59591128
ZBW_1357,25,0,2024-06-20T05:57:39.562Z,english_795.wav,0,1,1745,,,,,1,0.1,-23.39853739,1.94488646
ZBW_1357,25,0,2024-06-20T05:57:39.562Z,english_795.wav,0,1,1745,,,,,2,0.2,85.15897758,0.62481037
ZBW_1357,25,0,2024-06-20T05:57:39.562Z,english_795.wav,0,1,1745,,,,,3,0.3,30.45214085,0.56488466
ZBW_1357,25,0,2024-06-20T05:57:39.562Z,english_795.wav,0,1,1745,,,,,4,0.4,25.21841082,0.81270144
ZBW_1357,25,0,2024-06-20T05:57:39.562Z,english_795.wav,0,1,1745,,,,,5,0.5,36.10678603,1.54003491
ZBW_1357,25,0,2024-06-20T05:57:39.562Z,english_795.wav,0,1,1745,,,,,6,0.6,61.48762219,1.21959161
ZBW_1357,25,0,2024-06-20T05:57:39.562Z,english_795.wav,0,1,1745,,,,,7,0.7,14.5754085,0.84714061
ZBW_1357,25,0,2024-06-20T05:57:39.562Z,english_795.wav,0,1,1745,,,,,8,0.8,-57.54329739,1.28928587
ZBW_1357,25,0,2024-06-20T05:57:39.562Z,english_795.wav,0,1,1745,,,,,9,0.9,-73.09117399,1.61523869
ZBW_1357,25,0,2024-06-20T05:57:39.562Z,english_795.wav,0,1,1745,,,,,10,1,77.49994784,1.68827262
ZBW_1357,25,0,2024-06-20T05:57:39.562Z,english_795.wav,0,1,1745,,,,,11,1.09391667,89.63116882,1.85702814
ZBW_1357,26,0,2024-06-20T05:57:39.562Z,english_783.wav,0,1,3571,,,,,0,0,-86.56228458,1.19165513
ZBW_1357,26,0,2024-06-20T05:57:39.562Z,english_783.wav,0,1,3571,,,,,1,0.1,33.36869343,0.83777852
ZBW_1357,26,0,2024-06-20T05:57:39.562Z,english_783.wav,0,1,3571,,,,,2,0.2,9.6331017,0.11846308
ZBW_1357,26,0,2024-06-20T05:57:39.562Z,english_783.wav,0,1,3571,,,,,3,0.3,-0.10370099,1.66137382
ZBW_1357,26,0,2024-06-20T05:57:39.562Z,english_783.wav,0,1,3571,,,,,4,0.4,37.9043983,0.58882923
ZBW_1357,26,0,2024-06-20T05:57:39.562Z,english_783.wav,0,1,3571,,,,,5,0.5,3.6685029,0.46184707
ZBW_1357,26,0,2024-06-20T05:57:39.562Z,english_783.wav,0,1,3571,,,,,6,0.6,70.42333637,1.82009688
ZBW_1357,26,0,2024-06-20T05:57:39.562Z,english_783.wav,0,1,3571,,,,,7,0.7,-15.16907184,1.46902062
ZBW_1357,26,0,2024-06-20T05:57:39.562Z,english_783.wav,0,1,3571,,,,,8,0.8,55.24698517,1.68658026
ZBW_1357,26,0,2024-06-20T05:57:39.562Z,english_783.wav,0,1,3571,,,,,9,0.9,2.94553427,1.05395717
ZBW_1357,26,0,2024-06-20T05:57:39.562Z,english_783.wav,0,1,3571,,,,,10,1,-22.42195587,1.93905679
ZBW_1357,26,0,2024-06-20T05:57:39.562Z,english_783.wav,0,1,3571,,,,,11,1.09391667,45.66016172,0.09684568
ZBW_1357,27,0,2024-06-20T05:57:39.562Z,english_605.wav,0,0,352,,,,,0,0,-8.49945262,0.18632105
ZBW_1357,27,0,2024-06-20T05:57:39.562Z,english_605.wav,0,0,352,,,,,1,0.1,78.59318703,0.57386106
ZBW_1357,27,0,2024-06-20T05:57:39.562Z,english_605.wav,0,0,352,,,,,2,0.2,5.51226276,1.08904108
ZBW_1357,27,0,2024-06-20T05:57:39.562Z,english_605.wav,0,0,352,,,,,3,0.3,-57.71623977,1.06659478
ZBW_1357,27,0,2024-06-20T05:57:39.562Z,english_605.wav,0,0,352,,,,,4,0.4,-16.40155513,1.07197466
ZBW_1357,27,0,2024-06-20T05:57:39.562Z,english_605.wav,0,0,352,,,,,5,0.5,65.3464243,0.99856442
ZBW_1357,27,0,2024-06-20T05:57:39.562Z,english_605.wav,0,0,352,,,,,6,0.6,75.43847502,1.20108487
ZBW_1357,27,0,2024-06-20T05:57:39.562Z,english_605.wav,0,0,352,,,,,7,0.7,-23.5169708,0.82408686
ZBW_1357,27,0,2024-06-20T05:57:39.562Z,english_605.wav,0,0,352,,,,,8,0.8,90.90480097,1.4403859
ZBW_1357,27,0,2024-06-20T05:57:39.562Z,english_605.wav,0,0,352,,,,,9,0.9,2.3218264,1.38639998
ZBW_1357,27,0,2024-06-20T05:57:39.562Z,english_605.wav,0,0,352,,,,,10,1,-54.16543883,0.92793051
ZBW_1357,27,0,2024-06-20T05:57:39.562Z,english_605.wav,0,0,352,,,,,11,1.09391667,-30.94766284,1.95794577
ZBW_1357,28,0,2024-06-20T05:57:39.562Z,english_197.wav,0,0,147,,,,,0,0,-0.52164664,0.76048058
ZBW_1357,28,0,2024-06-20T05:57:39.562Z,english_197.wav,0,0,147,,,,,1,0.1,-87.40194418,1.46601293
ZBW_1357,28,0,2024-06-20T05:57:39.562Z,english_197.wav,0,0,147,,,,,2,0.2,-52.79027246,1.17311431
ZBW_1357,28,0,2024-06-20T05:57:39.562Z,english_197.wav,0,0,147,,,,,3,0.3,-48.86802506,0.52190861
ZBW_1357,28,0,2024-06-20T05:57:39.562Z,english_197.wav,0,0,147,,,,,4,0.4,81.82701326,0.75360033
ZBW_1357,28,0,2024-06-20T05:57:39.562Z,english_197.wav,0,0,147,,,,,5,0.5,-49.36038243,0.57280926
ZBW_1357,28,0,2024-06-20T05:57:39.562Z,english_197.wav,0,0,147,,,,,6,0.6,60.40718162,1.08660509
ZBW_1357,28,0,2024-06-20T05:57:39.562Z,english_197.wav,0,0,147,,,,,7,0.7,23.14241749,1.00122778
ZBW_1357,28,0,2024-06-20T05:57:39.562Z,english_197.wav,0,0,147,,,,,8,0.8,6.00272562,0.93136252
ZBW_1357,28,0,2024-06-20T05:57:39.562Z,english_197.wav,0,0,147,,,,,9,0.9,-33.15203134,1.24898943
ZBW_1357,28,0,2024-06-20T05:57:39.562Z,english_197.wav,0,0,147,,,,,10,1,87.44378179,1.94648397
ZBW_1357,28,0,2024-06-20T05:57:39.562Z,english_197.wav,0,0,147,,,,,11,1.09391667,-36.11997575,0.88926449
ZBW_1357,29,0,2024-06-20T05:57:39.562Z,english_672.wav,0,1,559,,,,,0,0,43.22685975,1.16062379
ZBW_1357,29,0,2024-06-20T05:57:39.562Z,english_672.wav,0,1,559,,,,,1,0.1,-54.22036803,1.05074454
ZBW_1357,29,0,2024-06-20T05:57:39.562Z,english_672.wav,0,1,559,,,,,2,0.2,47.19502214,0.58565022
ZBW_1357,29,0,2024-06-20T05:57:39.562Z,english_672.wav,0,1,559,,,,,3,0.3,29.48399108,0.69010583
ZBW_1357,29,0,2024-06-20T05:57:39.562Z,english_672.wav,0,1,559,,,,,4,0.4,-37.13401682,1.10560462
ZBW_1357,29,0,2024-06-20T05:57:39.562Z,english_672.wav,0,1,559,,,,,5,0.5,-82.77781933,0.90912981
ZBW_1357,29,0,2024-06-20T05:57:39.562Z,english_672.wav,0,1,559,,,,,6,0.6,26.5489707,1.72329615
ZBW_1357,29,0,2024-06-20T05:57:39.562Z,english_672.wav,0,1,559,,,,,7,0.7,-82.12818914,1.29141175
ZBW_1357,29,0,2024-06-20T05:57:39.562Z,english_672.wav,0,1,559,,,,,8,0.8,0.43149331,0.15835131
ZBW_1357,29,0,2024-06-20T05:57:39.562Z,english_672.wav,0,1,559,,,,,9,0.9,36.27396929,0.77804924
ZBW_1357,29,0,2024-06-20T05:57:39.562Z,english_672.wav,0,1,559,,,,,10,1,-33.62939759,0.05373679
ZBW_1357,29,0,2024-06-20T05:57:39.562Z,english_672.wav,0,1,559,,,,,11,1.09391667,-60.08189446,0.92241163
ZBW_1357,30,0,2024-06-20T05:57:39.562Z,english_973.wav,0,0,332,,,,,0,0,86.77777259,1.86280309
ZBW_1357,30,0,2024-06-20T05:57:39.562Z,english_973.wav,0,0,332,,,,,1,0.1,88.68008012,0.36705596
ZBW_1357,30,0,2024-06-20T05:57:39.562Z,english_973.wav,0,0,332,,,,,2,0.2,40.87598241,1.32338867
ZBW_1357,30,0,2024-06-20T05:57:39.562Z,english_973.wav,0,0,332,,,,,3,0.3,-9.9272537,0.04586245
ZBW_1357,30,0,2024-06-20T05:57:39.562Z,english_973.wav,0,0,332,,,,,4,0.4,-53.77098496,1.95113809
ZBW_1357,30,0,2024-06-20T05:57:39.562Z,english_973.wav,0,0,332,,,,,5,0.5,-25.91846693,0.12780271
ZBW_1357,30,0,2024-06-20T05:57:39.562Z,english_973.wav,0,0,332,,,,,6,0.6,53.05484082,1.4683855
ZBW_1357,30,0,2024-06-20T05:57:39.562Z,english_973.wav,0,0,332,,,,,7,0.7,46.24971749,0.39810348
ZBW_1357,30,0,2024-06-20T05:57:39.562Z,english_973.wav,0,0,332,,,,,8,0.8,50.02749475,0.0385797
ZBW_1357,30,0,2024-06-20T05:57:39.562Z,english_973.wav,0,0,332,,,,,9,0.9,-19.53463888,0.83824927
ZBW_1357,30,0,2024-06-20T05:57:39.562Z,english_973.wav,0,0,332,,,,,10,1,-43.93805989,1.6446619
ZBW_1357,30,0,2024-06-20T05:57:39.562Z,english_973.wav,0,0,332,,,,,11,1.09391667,-81.85773857,0.66244145
ZBW_1357,31,0,2024-06-20T05:57:39.562Z,english_800.wav,0,1,371,,,,,0,0,35.31456444,1.69516606
ZBW_1357,31,0,2024-06-20T05:57:39.562Z,english_800.wav,0,1,371,,,,,1,0.1,32.41521545,0.23308544
ZBW_1357,31,0,2024-06-20T05:57:39.562Z,english_800.wav,0,1,371,,,,,2,0.2,-54.21409297,0.95659058
ZBW_1357,31,0,2024-06-20T05:57:39.562Z,english_800.wav,0,1,371,,,,,3,0.3,-42.78782363,1.51885901
ZBW_1357,31,0,2024-06-20T05:57:39.562Z,english_800.wav,0,1,371,,,,,4,0.4,54.56880631,1.37866605
ZBW_1357,31,0,2024-06-20T05:57:39.562Z,english_800.wav,0,1,371,,,,,5,0.5,-47.76201321,0.13843314
ZBW_1357,31,0,2024-06-20T05:57:39.562Z,english_800.wav,0,1,371,,,,,6,0.6,21.101395,0.69869138
ZBW_1357,31,0,2024-06-20T05:57:39.562Z,english_800.wav,0,1,371,,,,,7,0.7,-85.00905452,1.55469424
ZBW_1357,31,0,2024-06-20T05:57:39.562Z,english_800.wav,0,1,371,,,,,8,0.8,89.73188045,1.19022687
ZBW_1357,31,0,2024-06-20T05:57:39.562Z,english_800.wav,0,1,371,,,,,9,0.9,58.36158131,1.40913395
ZBW_1357,31,0,2024-06-20T05:57:39.562Z,english_800.wav,0,1,371,,,,,10,1,82.86297317,1.54823015
ZBW_1357,31,0,2024-06-20T05:57:39.562Z,english_800.wav,0,1,371,,,,,11,1.09391667,50.19485525,1.45235784
ZBW_1357,32,0,2024-06-20T05:57:39.562Z,english_122.wav,0,1,1193,,,,,0,0,77.3413932,0.58709567
ZBW_1357,32,0,2024-06-20T05:57:39.562Z,english_122.wav,0,1,1193,,,,,1,0.1,-67.39185751,0.0796985
ZBW_1357,32,0,2024-06-20T05:57:39.562Z,english_122.wav,0,1,1193,,,,,2,0.2,89.18550357,1.00639024
ZBW_1357,32,0,2024-06-20T05:57:39.562Z,english_122.wav,0,1,1193,,,,,3,0.3,12.33038367,0.81094575
ZBW_1357,32,0,2024-06-20T05:57:39.562Z,english_122.wav,0,1,1193,,,,,4,0.4,70.68402371,0.57598842
ZBW_1357,32,0,2024-06-20T05:57:39.562Z,english_122.wav,0,1,1193,,,,,5,0.5,25.06803156,0.93423984
ZBW_1357,32,0,2024-06-20T05:57:39.562Z,english_122.wav,0,1,1193,,,,,6,0.6,56.81750659,1.53113092
ZBW_1357,32,0,2024-06-20T05:57:39.562Z,english_122.wav,0,1,1193,,,,,7,0.7,-43.57912499,1.09738921
ZBW_1357,32,0,2024-06-20T05:57:39.562Z,english_122.wav,0,1,1193,,,,,8,0.8,-51.88401647,1.34315846
ZBW_1357,32,0,2024-06-20T05:57:39.562Z,english_122.wav,0,1,1193,,,,,9,0.9,-2.10023036,0.94720038
ZBW_1357,32,0,2024-06-20T05:57:39.562Z,english_122.wav,0,1,1193,,,,,10,1,-47.35507429,1.69772014
ZBW_1357,32,0,2024-06-20T05:57:39.562Z,english_122.wav,0,1,1193,,,,,11,1.09391667,20.07877732,1.14244601
ZBW_1357,33,0,2024-06-20T05:57:39.562Z,english_100.wav,0,0,658,,,,,0,0,-24.42637315,0.62540921
ZBW_1357,33,0,2024-06-20T05:57:39.562Z,english_100.wav,0,0,658,,,,,1,0.1,47.77288594,1.22625666
ZBW_1357,33,0,2024-06-20T05:57:39.562Z,english_100.wav,0,0,658,,,,,2,0.2,-50.36782497,1.26348183
ZBW_1357,33,0,2024-06-20T05:57:39.562Z,english_100.wav,0,0,658,,,,,3,0.3,2.2842979,0.25528387
ZBW_1357,33,0,2024-06-20T05:57:39.562Z,english_100.wav,0,0,658,,,,,4,0.4,-15.6809061,0.91288523
ZBW_1357,33,0,2024-06-20T05:57:39.562Z,english_100.wav,0,0,658,,,,,5,0.5,12.92206519,1.75475855
ZBW_1357,33,0,2024-06-20T05:57:39.562Z,english_100.wav,0,0,658,,,,,6,0.6,58.2816769,1.62969237
ZBW_1357,33,0,2024-06-20T05:57:39.562Z,english_100.wav,0,0,658,,,,,7,0.7,48.23099815,0.00541247
ZBW_1357,33,0,2024-06-20T05:57:39.562Z,english_100.wav,0,0,658,,,,,8,0.8,-72.65138159,0.94746335
ZBW_1357,33,0,2024-06-20T05:57:39.562Z,english_100.wav,0,0,658,,,,,9,0.9,22.56578389,0.25544392
ZBW_1357,33,0,2024-06-20T05:57:39.562Z,english_100.wav,0,0,658,,,,,10,1,5.8175855,1.63729526
ZBW_1357,33,0,2024-06-20T05:57:39.562Z,english_100.wav,0,0,658,,,,,11,1.09391667,54.85953581,1.97415754
ZBW_1357,34,0,2024-06-20T05:57:39.562Z,english_858.wav,0,1,441,,,,,0,0,-15.37505572,0.64393049
ZBW_1357,34,0,2024-06-20T05:57:39.562Z,english_858.wav,0,1,441,,,,,1,0.1,47.09921101,1.19859165
ZBW_1357,34,0,2024-06-20T05:57:39.562Z,english_858.wav,0,1,441,,,,,2,0.2,-76.0790668,1.93258785
ZBW_1357,34,0,2024-06-20T05:57:39.562Z,english_858.wav,0,1,441,,,,,3,0.3,-80.27517843,0.51921333
ZBW_1357,34,0,2024-06-20T05:57:39.562Z,english_858.wav,0,1,441,,,,,4,0.4,-25.73472899,0.72976133
ZBW_1357,34,0,2024-06-20T05:57:39.562Z,english_858.wav,0,1,441,,,,,5,0.5,-3.51621139,1.3656743
ZBW_1357,34,0,2024-06-20T05:57:39.562Z,english_858.wav,0,1,441,,,,,6,0.6,-42.58463449,1.33625445
ZBW_1357,34,0,2024-06-20T05:57:39.562Z,english_858.wav,0,1,441,,,,,7,0.7,-98.39604525,1.13554824
ZBW_1357,34,0,2024-06-20T05:57:39.562Z,english_858.wav,0,1,441,,,,,8,0.8,89.96106068,1.47590746
ZBW_1357,34,0,2024-06-20T05:57:39.562Z,english_858.wav,0,1,441,,,,,9,0.9,77.78135143,1.4256977
ZBW_1357,34,0,2024-06-20T05:57:39.562Z,english_858.wav,0,1,441,,,,,10,1,-48.66962061,0.99815363
ZBW_1357,34,0,2024-06-20T05:57:39.562Z,english_858.wav,0,1,441,,,,,11,1.09391667,-42.55835381,1.06699265
ZBW_1357,35,0,2024-06-20T05:57:39.562Z,english_109.wav,0,0,473,,,,,0,0,-85.35755776,0.86429356
ZBW_1357,35,0,2024-06-20T05:57:39.562Z,english_109.wav,0,0,473,,,,,1,0.1,24.87794389,1.54320329
ZBW_1357,35,0,2024-06-20T05:57:39.562Z,english_109.wav,0,0,473,,,,,2,0.2,88.66282845,0.73186937
ZBW_1357,35,0,2024-06-20T05:57:39.562Z,english_109.wav,0,0,473,,,,,3,0.3,53.91159302,0.759779
ZBW_1357,35,0,2024-06-20T05:57:39.562Z,english_109.wav,0,0,473,,,,,4,0.4,-2.76092074,1.4946261
ZBW_1357,35,0,2024-06-20T05:57:39.562Z,english_109.wav,0,0,473,,,,,5,0.5,79.99538148,1.48350308
ZBW_1357,35,0,2024-06-20T05:57:39.562Z,english_109.wav,0,0,473,,,,,6,0.6,-42.31150981,1.90894472
ZBW_1357,35,0,2024-06-20T05:57:39.562Z,english_109.wav,0,0,473,,,,,7,0.7,-5.15781481,0.02998442
ZBW_1357,35,0,2024-06-20T05:57:39.562Z,english_109.wav,0,0,473,,,,,8,0.8,31.3978044,0.89047781
ZBW_1357,35,0,2024-06-20T05:57:39.562Z,english_109.wav,0,0,473,,,,,9,0.9,46.94636463,1.05504638
ZBW_1357,35,0,2024-06-20T05:57:39.562Z,english_109.wav,0,0,473,,,,,10,1,63.69340257,0.96709735
ZBW_1357,35,0,2024-06-20T05:57:39.562Z,english_109.wav,0,0,473,,,,,11,1.09391667,10.97812261,0.43676298
ZBW_1357,36,0,2024-06-20T05:57:39.562Z,english_720.wav,0,1,1250,,,,,0,0,46.77057766,0.94113564
ZBW_1357,36,0,2024-06-20T05:57:39.562Z,english_720.wav,0,1,1250,,,,,1,0.1,6.53423564,0.426958
ZBW_1357,36,0,2024-06-20T05:57:39.562Z,english_720.wav,0,1,1250,,,,,2,0.2,87.60072251,0.98755995
ZBW_1357,36,0,2024-06-20T05:57:39.562Z,english_720.wav,0,1,1250,,,,,3,0.3,96.80442869,1.5976329
ZBW_1357,36,0,2024-06-20T05:57:39.562Z,english_720.wav,0,1,1250,,,,,4,0.4,-66.64150433,0.77306227
ZBW_1357,36,0,2024-06-20T05:57:39.562Z,english_720.wav,0,1,1250,,,,,5,0.5,-65.5107245,0.84513323
ZBW_1357,36,0,2024-06-20T05:57:39.562Z,english_720.wav,0,1,1250,,,,,6,0.6,-89.05316387,1.55668389
ZBW_1357,36,0,2024-06-20T05:57:39.562Z,english_720.wav,0,1,1250,,,,,7,0.7,-94.07157603,0.13811629
ZBW_1357,36,0,2024-06-20T05:57:39.562Z,english_720.wav,0,1,1250,,,,,8,0.8,-1.26954852,1.01089963
ZBW_1357,36,0,2024-06-20T05:57:39.562Z,english_720.wav,0,1,1250,,,,,9,0.9,-25.92154029,1.10803593
ZBW_1357,36,0,2024-06-20T05:57:39.562Z,english_720.wav,0,1,1250,,,,,10,1,24.94515678,1.26621877
ZBW_1357,36,0,2024-06-20T05:57:39.562Z,english_720.wav,0,1,1250,,,,,11,1.09391667,-38.69158076,0.96623921
ZBW_1357,37,0,2024-06-20T05:57:39.562Z,english_29.wav,0,0,629,,,,,0,0,26.34165935,1.71213773
ZBW_1357,37,0,2024-06-20T05:57:39.562Z,english_29.wav,0,0,629,,,,,1,0.1,-56.59594866,1.15120834
ZBW_1357,37,0,2024-06-20T05:57:39.562Z,english_29.wav,0,0,629,,,,,2,0.2,55.77264446,0.20532707
ZBW_1357,37,0,2024-06-20T05:57:39.562Z,english_29.wav,0,0,629,,,,,3,0.3,59.58576331,1.44609217
ZBW_1357,37,0,2024-06-20T05:57:39.562Z,english_29.wav,0,0,629,,,,,4,0.4,50.57214918,1.59031005
ZBW_1357,37,0,2024-06-20T05:57:39.562Z,english_29.wav,0,0,629,,,,,5,0.5,-27.64478316,1.08553967
ZBW_1357,37,0,2024-06-20T05:57:39.562Z,english_29.wav,0,0,629,,,,,6,0.6,2.0668356,0.33734673
ZBW_1357,37,0,2024-06-20T05:57:39.562Z,english_29.wav,0,0,629,,,,,7,0.7,16.42838057,1.73819429
ZBW_1357,37,0,2024-06-20T05:57:39.562Z,english_29.wav,0,0,629,,,,,8,0.8,-69.32816756,1.21021958
ZBW_1357,37,0,2024-06-20T05:57:39.562Z,english_29.wav,0,0,629,,,,,9,0.9,-50.9336042,0.40648389
ZBW_1357,37,0,2024-06-20T05:57:39.562Z,english_29.wav,0,0,629,,,,,10,1,-74.04317483,1.02452254
ZBW_1357,37,0,2024-06-20T05:57:39.562Z,english_29.wav,0,0,629,,,,,11,1.09391667,-55.97160762,0.57453433
ZBW_1357,38,0,2024-06-20T05:57:39.562Z,english_83.wav,0,1,684,,,,,0,0,-13.2041621,1.43008508
ZBW_1357,38,0,2024-06-20T05:57:39.562Z,english_83.wav,0,1,684,,,,,1,0.1,72.11694132,0.66721453
ZBW_1357,38,0,2024-06-20T05:57:39.562Z,english_83.wav,0,1,684,,,,,2,0.2,72.29533823,0.92720226
ZBW_1357,38,0,2024-06-20T05:57:39.562Z,english_83.wav,0,1,684,,,,,3,0.3,27.12463377,1.5008618
ZBW_1357,38,0,2024-06-20T05:57:39.562Z,english_83.wav,0,1,684,,,,,4,0.4,-0.51668001,0.92612905
ZBW_1357,38,0,2024-06-20T05:57:39.562Z,english_83.wav,0,1,684,,,,,5,0.5,95.33803701,1.15889455
ZBW_1357,38,0,2024-06-20T05:57:39.562Z,english_83.wav,0,1,684,,,,,6,0.6,29.01440832,1.69874537
ZBW_1357,38,0,2024-06-20T05:57:39.562Z,english_83.wav,0,1,684,,,,,7,0.7,95.49757562,1.82400366
ZBW_1357,38,0,2024-06-20T05:57:39.562Z,english_83.wav,0,1,684,,,,,8,0.8,73.0572007,0.49276816
ZBW_1357,38,0,2024-06-20T05:57:39.562Z,english_83.wav,0,1,684,,,,,9,0.9,-51.56555772,1.24642372
ZBW_1357,38,0,2024-06-20T05:57:39.562Z,english_83.wav,0,1,684,,,,,10,1,75.9566984,1.81994123
ZBW_1357,38,0,2024-06-20T05:57:39.562Z,english_83.wav,0,1,684,,,,,11,1.09391667,-25.09105013,1.274738
ZBW_1357,39,0,2024-06-20T05:57:39.562Z,english_72.wav,0,0,1295,,,,,0,0,25.66196689,1.61992503
ZBW_1357,39,0,2024-06-20T05:57:39.562Z,english_72.wav,0,0,1295,,,,,1,0.1,91.6871729,1.16223347
ZBW_1357,39,0,2024-06-20T05:57:39.562Z,english_72.wav,0,0,1295,,,,,2,0.2,20.71991496,0.76041055
ZBW_1357,39,0,2024-06-20T05:57:39.562Z,english_72.wav,0,0,1295,,,,,3,0.3,25.2834681,1.27583567
ZBW_1357,39,0,2024-06-20T05:57:39.562Z,english_72.wav,0,0,1295,,,,,4,0.4,58.88880859,1.53150699
ZBW_1357,39,0,2024-06-20T05:57:39.562Z,english_72.wav,0,0,1295,,,,,5,0.5,33.55084541,0.86195905
ZBW_1357,39,0,2024-06-20T05:57:39.562Z,english_72.wav,0,0,1295,,,,,6,0.6,58.54373553,0.4732401
ZBW_1357,39,0,2024-06-20T05:57:39.562Z,english_72.wav,0,0,1295,,,,,7,0.7,-85.40468838,1.47524268
ZBW_1357,39,0,2024-06-20T05:57:39.562Z,english_72.wav,0,0,1295,,,,,8,0.8,27.70213239,0.5818617
ZBW_1357,39,0,2024-06-20T05:57:39.562Z,english_72.wav,0,0,1295,,,,,9,0.9,14.78832573,1.26843549
ZBW_1357,39,0,2024-06-20T05:57:39.562Z,english_72.wav,0,0,1295,,,,,10,1,43.85438073,0.6029755
ZBW_1357,39,0,2024-06-20T05:57:39.562Z,english_72.wav,0,0,1295,,,,,11,1.09391667,-19.73458621,0.39538299
ZBW_1357,40,0,2024-06-20T05:57:39.562Z,english_953.wav,0,1,396,,,,,0,0,66.99743889,1.15286604
ZBW_1357,40,0,2024-06-20T05:57:39.562Z,english_953.wav,0,1,396,,,,,1,0.1,-76.84252631,1.84100888
ZBW_1357,40,0,2024-06-20T05:57:39.562Z,english_953.wav,0,1,396,,,,,2,0.2,-45.49309493,0.29896559
ZBW_1357,40,0,2024-06-20T05:57:39.562Z,english_953.wav,0,1,396,,,,,3,0.3,55.46461894,0.47017465
ZBW_1357,40,0,2024-06-20T05:57:39.562Z,english_953.wav,0,1,396,,,,,4,0.4,81.99201124,0.15248902
ZBW_1357,40,0,2024-06-20T05:57:39.562Z,english_953.wav,0,1,396,,,,,5,0.5,1.34607331,1.13290225
ZBW_1357,40,0,2024-06-20T05:57:39.562Z,english_953.wav,0,1,396,,,,,6,0.6,50.45029952,0.34595451
ZBW_1357,40,0,2024-06-20T05:57:39.562Z,english_953.wav,0,1,396,,,,,7,0.7,74.64893983,0.44244875
ZBW_1357,40,0,2024-06-20T05:57:39.562Z,english_953.wav,0,1,396,,,,,8,0.8,26.00448077,0.8076701
ZBW_1357,40,0,2024-06-20T05:57:39.562Z,english_953.wav,0,1,396,,,,,9,0.9,-99.39894728,1.93347558
ZBW_1357,40,0,2024-06-20T05:57:39.562Z,english_953.wav,0,1,396,,,,,10,1,-16.71063882,1.69365872
ZBW_1357,40,0,2024-06-20T05:57:39.562Z,english_953.wav,0,1,396,,,,,11,1.09391667,53.60095231,1.16220812
ZBW_1357,41,0,2024-06-20T05:57:39.562Z,english_658.wav,0,1,1653,,,,,0,0,28.12480694,0.12118838
ZBW_1357,41,0,2024-06-20T05:57:39.562Z,english_658.wav,0,1,1653,,,,,1,0.1,17.57040955,1.52191588
ZBW_1357,41,0,2024-06-20T05:57:39.562Z,english_658.wav,0,1,1653,,,,,2,0.2,57.56255577,1.14331833
ZBW_1357,41,0,2024-06-20T05:57:39.562Z,english_658.wav,0,1,1653,,,,,3,0.3,-3.0966162,0.60390633
ZBW_1357,41,0,2024-06-20T05:57:39.562Z,english_658.wav,0,1,1653,,,,,4,0.4,6.39522781,0.27160458
ZBW_1357,41,0,2024-06-20T05:57:39.562Z,english_658.wav,0,1,1653,,,,,5,0.5,16.02438064,0.17957329
ZBW_1357,41,0,2024-06-20T05:57:39.562Z,english_658.wav,0,1,1653,,,,,6,0.6,-1.20192687,0.27771517
ZBW_1357,41,0,2024-06-20T05:57:39.562Z,english_658.wav,0,1,1653,,,,,7,0.7,-8.08463242,0.60605354
ZBW_1357,41,0,2024-06-20T05:57:39.562Z,english_658.wav,0,1,1653,,,,,8,0.8,-12.30429445,1.71812783
ZBW_1357,41,0,2024-06-20T05:57:39.562Z,english_658.wav,0,1,1653,,,,,9,0.9,-0.5409395,0.55654772
ZBW_1357,41,0,2024-06-20T05:57:39.562Z,english_658.wav,0,1,1653,,,,,10,1,25.97570406,1.53064605
ZBW_1357,41,0,2024-06-20T05:57:39.562Z,english_658.wav,0,1,1653,,,,,11,1.09391667,75.76475536,1.32831885
ZBW_1357,42,0,2024-06-20T05:57:39.562Z,english_90.wav,0,0,786,,,,,0,0,63.54924995,1.34228215
ZBW_1357,42,0,2024-06-20T05:57:39.562Z,english_90.wav,0,0,786,,,,,1,0.1,-59.21327506,1.34732724
ZBW_1357,42,0,2024-06-20T05:57:39.562Z,english_90.wav,0,0,786,,,,,2,0.2,34.58495613,1.75147993
ZBW_1357,42,0,2024-06-20T05:57:39.562Z,english_90.wav,0,0,786,,,,,3,0.3,3.2427236,0.03089284
ZBW_1357,42,0,2024-06-20T05:57:39.562Z,english_90.wav,0,0,786,,,,,4,0.4,1.17936493,1.52341973
ZBW_1357,42,0,2024-06-20T05:57:39.562Z,english_90.wav,0,0,786,,,,,5,0.5,50.51297544,0.97925583
ZBW_1357,42,0,2024-06-20T05:57:39.562Z,english_90.wav,0,0,786,,,,,6,0.6,61.04656064,1.17642538
ZBW_1357,42,0,2024-06-20T05:57:39.562Z,english_90.wav,0,0,786,,,,,7,0.7,-96.36424089,1.13367306
ZBW_1357,42,0,2024-06-20T05:57:39.562Z,english_90.wav,0,0,786,,,,,8,0.8,9.94738881,1.45431282
ZBW_1357,42,0,2024-06-20T05:57:39.562Z,english_90.wav,0,0,786,,,,,9,0.9,-95.56108651,0.56738547
ZBW_1357,42,0,2024-06-20T05:57:39.562Z,english_90.wav,0,0,786,,,,,10,1,-78.91453265,1.10123663
ZBW_1357,42,0,2024-06-20T05:57:39.562Z,english_90.wav,0,0,786,,,,,11,1.09391667,57.06664979,0.76686745
ZBW_1357,43,0,2024-06-20T05:57:39.562Z,english_452.wav,0,1,282,,,,,0,0,-16.61864147,1.17401117
ZBW_1357,43,0,2024-06-20T05:57:39.562Z,english_452.wav,0,1,282,,,,,1,0.1,-22.13078498,0.56539659
ZBW_1357,43,0,2024-06-20T05:57:39.562Z,english_452.wav,0,1,282,,,,,2,0.2,-16.24569285,0.39679082
ZBW_1357,43,0,2024-06-20T05:57:39.562Z,english_452.wav,0,1,282,,,,,3,0.3,2.20276296,1.32249954
ZBW_1357,43,0,2024-06-20T05:57:39.562Z,english_452.wav,0,1,282,,,,,4,0.4,38.28427002,1.17645405
ZBW_1357,43,0,2024-06-20T05:57:39.562Z,english_452.wav,0,1,282,,,,,5,0.5,-18.79047659,1.63330715
ZBW_1357,43,0,2024-06-20T05:57:39.562Z,english_452.wav,0,1,282,,,,,6,0.6,78.89075327,1.91411401
ZBW_1357,43,0,2024-06-20T05:57:39.562Z,english_452.wav,0,1,282,,,,,7,0.7,92.92821396,1.71360753
ZBW_1357,43,0,2024-06-20T05:57:39.562Z,english_452.wav,0,1,282,,,,,8,0.8,97.94945302,1.56668356
ZBW_1357,43,0,2024-06-20T05:57:39.562Z,english_452.wav,0,1,282,,,,,9,0.9,87.69669084,1.33916848
ZBW_1357,43,0,2024-06-20T05:57:39.562Z,english_452.wav,0,1,282,,,,,10,1,59.46975303,0.94959461
ZBW_1357,43,0,2024-06-20T05:57:39.562Z,english_452.wav,0,1,282,,,,,11,1.09391667,33.32060313,0.70317006
ZBW_1357,44,0,2024-06-20T05:57:39.562Z,english_128.wav,0,1,2182,,,,,0,0,-22.61942611,1.66721471
ZBW_1357,44,0,2024-06-20T05:57:39.562Z,english_128.wav,0,1,2182,,,,,1,0.1,68.41227715,1.06525369
ZBW_1357,44,0,2024-06-20T05:57:39.562Z,english_128.wav,0,1,2182,,,,,2,0.2,-54.10958419,1.55278382
ZBW_1357,44,0,2024-06-20T05:57:39.562Z,english_128.wav,0,1,2182,,,,,3,0.3,-34.3976761,1.27447121
ZBW_1357,44,0,2024-06-20T05:57:39.562Z,english_128.wav,0,1,2182,,,,,4,0.4,-80.35189368,1.24533025
ZBW_1357,44,0,2024-06-20T05:57:39.562Z,english_128.wav,0,1,2182,,,,,5,0.5,-23.21922247,0.40128709
ZBW_1357,44,0,2024-06-20T05:57:39.562Z,english_128.wav,0,1,2182,,,,,6,0.6,75.93285278,1.08908342
ZBW_1357,44,0,2024-06-20T05:57:39.562Z,english_128.wav,0,1,2182,,,,,7,0.7,-25.01230628,1.52248699
ZBW_1357,44,0,2024-06-20T05:57:39.562Z,english_128.wav,0,1,2182,,,,,8,0.8,23.78207095,1.64911831
ZBW_1357,44,0,2024-06-20T05:57:39.562Z,english_128.wav,0,1,2182,,,,,9,0.9,-74.87827882,0.03473392
ZBW_1357,44,0,2024-06-20T05:57:39.562Z,english_128.wav,0,1,2182,,,,,10,1,74.39346852,1.99892406
ZBW_1357,44,0,2024-06-20T05:57:39.562Z,english_128.wav,0,1,2182,,,,,11,1.09391667,30.71976897,1.56565298
ZBW_1357,45,0,2024-06-20T05:57:39.562Z,english_52.wav,0,1,330,,,,,0,0,22.10137518,1.70966253
ZBW_1357,45,0,2024-06-20T05:57:39.562Z,english_52.wav,0,1,330,,,,,1,0.1,54.60808655,0.73212315
ZBW_1357,45,0,2024-06-20T05:57:39.562Z,english_52.wav,0,1,330,,,,,2,0.2,-19.2398092,0.80628637
ZBW_1357,45,0,2024-06-20T05:57:39.562Z,english_52.wav,0,1,330,,,,,3,0.3,51.72612617,0.90394386
ZBW_1357,45,0,2024-06-20T05:57:39.562Z,english_52.wav,0,1,330,,,,,4,0.4,48.42620238,0.20122149
ZBW_1357,45,0,2024-06-20T05:57:39.562Z,english_52.wav,0,1,330,,,,,5,0.5,-74.55875553,0.79458017
ZBW_1357,45,0,2024-06-20T05:57:39.562Z,english_52.wav,0,1,330,,,,,6,0.6,38.81047921,1.48954082
ZBW_1357,45,0,2024-06-20T05:57:39.562Z,english_52.wav,0,1,330,,,,,7,0.7,-10.61292931,0.49987231
ZBW_1357,45,0,2024-06-20T05:57:39.562Z,english_52.wav,0,1,330,,,,,8,0.8,57.32417171,1.72417372
ZBW_1357,45,0,2024-06-20T05:57:39.562Z,english_52.wav,0,1,330,,,,,9,0.9,1.80511965,1.29717669
ZBW_1357,45,0,2024-06-20T05:57:39.562Z,english_52.wav,0,1,330,,,,,10,1,21.58974988,1.53819456
ZBW_1357,45,0,2024-06-20T05:57:39.562Z,english_52.wav,0,1,330,,,,,11,1.09391667,-49.54213801,0.23189362
ZBW_1357,46,0,2024-06-20T05:57:39.562Z,english_146.wav,0,0,1018,,,,,0,0,56.30698685,0.40218926
ZBW_1357,46,0,2024-06-20T05:57:39.562Z,english_146.wav,0,0,1018,,,,,1,0.1,33.76808102,1.30498568
ZBW_1357,46,0,2024-06-20T05:57:39.562Z,english_146.wav,0,0,1018,,,,,2,0.2,7.3416935,1.88518083
ZBW_1357,46,0,2024-06-20T05:57:39.562Z,english_146.wav,0,0,1018,,,,,3,0.3,54.00115317,0.73939723
ZBW_1357,46,0,2024-06-20T05:57:39.562Z,english_146.wav,0,0,1018,,,,,4,0.4,60.50079064,1.18416515
ZBW_1357,46,0,2024-06-20T05:57:39.562Z,english_146.wav,0,0,1018,,,,,5,0.5,93.58064811,0.74397262
ZBW_1357,46,0,2024-06-20T05:57:39.562Z,english_146.wav,0,0,1018,,,,,6,0.6,16.38414301,1.77833366
ZBW_1357,46,0,2024-06-20T05:57:39.562Z,english_146.wav,0,0,1018,,,,,7,0.7,53.45076847,0.98273851
ZBW_1357,46,0,2024-06-20T05:57:39.562Z,english_146.wav,0,0,1018,,,,,8,0.8,57.56482396,1.41119053
ZBW_1357,46,0,2024-06-20T05:57:39.562Z,english_146.wav,0,0,1018,,,,,9,0.9,-28.26782972,0.90766435
ZBW_1357,46,0,2024-06-20T05:57:39.562Z,english_146.wav,0,0,1018,,,,,10,1,79.66793606,0.33691203
ZBW_1357,46,0,2024-06-20T05:57:39.562Z,english_146.wav,0,0,1018,,,,,11,1.09391667,23.81863578,1.86488134
ZBW_1357,47,0,2024-06-20T05:57:39.562Z,english_725.wav,0,0,915,,,,,0,0,-9.03644008,1.33439085
ZBW_1357,47,0,2024-06-20T05:57:39.562Z,english_725.wav,0,0,915,,,,,1,0.1,17.25768585,1.14250237
ZBW_1357,47,0,2024-06-20T05:57:39.562Z,english_725.wav,0,0,915,,,,,2,0.2,31.80596944,1.31071592
ZBW_1357,47,0,2024-06-20T05:57:39.562Z,english_725.wav,0,0,915,,,,,3,0.3,-37.53705258,0.64785465
ZBW_1357,47,0,2024-06-20T05:57:39.562Z,english_725.wav,0,0,915,,,,,4,0.4,-72.83315878,1.42686134
ZBW_1357,47,0,2024-06-20T05:57:39.562Z,english_725.wav,0,0,915,,,,,5,0.5,-86.89655244,1.9351134
ZBW_1357,47,0,2024-06-20T05:57:39.562Z,english_725.wav,0,0,915,,,,,6,0.6,-41.36643193,0.6329639
ZBW_1357,47,0,2024-06-20T05:57:39.562Z,english_725.wav,0,0,915,,,,,7,0.7,-24.29547068,1.12609379
ZBW_1357,47,0,2024-06-20T05:57:39.562Z,english_725.wav,0,0,915,,,,,8,0.8,-10.26201034,0.4317144
ZBW_1357,47,0,2024-06-20T05:57:39.562Z,english_725.wav,0,0,915,,,,,9,0.9,-84.73732243,0.11714111
ZBW_1357,47,0,2024-06-20T05:57:39.562Z,english_725.wav,0,0,915,,,,,10,1,29.57592595,1.51572797
ZBW_1357,47,0,2024-06-20T05:57:39.562Z,english_725.wav,0,0,915,,,,,11,1.09391667,-31.00210879,0.75437121
ZBW_1357,48,0,2024-06-20T05:57:39.562Z,english_993.wav,0,1,526,,,,,0,0,-8.65746923,1.97743958
ZBW_1357,48,0,2024-06-20T05:57:39.562Z,english_993.wav,0,1,526,,,,,1,0.1,-27.87522694,0.36006803
ZBW_1357,48,0,2024-06-20T05:57:39.562Z,english_993.wav,0,1,526,,,,,2,0.2,41.79329436,0.06856355
ZBW_1357,48,0,2024-06-20T05:57:39.562Z,english_993.wav,0,1,526,,,,,3,0.3,-23.16935708,0.38955927
ZBW_1357,48,0,2024-06-20T05:57:39.562Z,english_993.wav,0,1,526,,,,,4,0.4,18.8592239,1.25297016
ZBW_1357,48,0,2024-06-20T05:57:39.562Z,english_993.wav,0,1,526,,,,,5,0.5,40.29392848,0.33975417
ZBW_1357,48,0,2024-06-20T05:57:39.562Z,english_993.wav,0,1,526,,,,,6,0.6,77.6038757,1.12200744
ZBW_1357,48,0,2024-06-20T05:57:39.562Z,english_993.wav,0,1,526,,,,,7,0.7,33.5103026,1.75189261
ZBW_1357,48,0,2024-06-20T05:57:39.562Z,english_993.wav,0,1,526,,,,,8,0.8,71.9206852,0.43539509
ZBW_1357,48,0,2024-06-20T05:57:39.562Z,english_993.wav,0,1,526,,,,,9,0.9,-28.91081602,1.78200425
ZBW_1357,48,0,2024-06-20T05:57:39.562Z,english_993.wav,0,1,526,,,,,10,1,-66.92854856,0.58801976
ZBW_1357,48,0,2024-06-20T05:57:39.562Z,english_993.wav,0,1,526,,,,,11,1.09391667,-70.4693707,0.997712
ZBW_1357,49,0,2024-06-20T05:57:39.562Z,english_227.wav,0,0,490,,,,,0,0,87.02540196,1.45120071
ZBW_1357,49,0,2024-06-20T05:57:39.562Z,english_227.wav,0,0,490,,,,,1,0.1,-87.16855408,1.99718195
ZBW_1357,49,0,2024-06-20T05:57:39.562Z,english_227.wav,0,0,490,,,,,2,0.2,13.6128173,0.6126104
ZBW_1357,49,0,2024-06-20T05:57:39.562Z,english_227.wav,0,0,490,,,,,3,0.3,25.59592298,0.97530447
ZBW_1357,49,0,2024-06-20T05:57:39.562Z,english_227.wav,0,0,490,,,,,4,0.4,3.06661623,1.74861281
ZBW_1357,49,0,2024-06-20T05:57:39.562Z,english_227.wav,0,0,490,,,,,5,0.5,-6.41872275,1.95931784
ZBW_1357,49,0,2024-06-20T05:57:39.562Z,english_227.wav,0,0,490,,,,,6,0.6,-40.97922684,1.44262054
ZBW_1357,49,0,2024-06-20T05:57:39.562Z,english_227.wav,0,0,490,,,,,7,0.7,-51.74632522,0.76385193
ZBW_1357,49,0,2024-06-20T05:57:39.562Z,english_227.wav,0,0,490,,,,,8,0.8,-35.50720635,0.83123806
ZBW_1357,49,0,2024-06-20T05:57:39.562Z,english_227.wav,0,0,490,,,,,9,0.9,-52.46041148,1.0121191
ZBW_1357,49,0,2024-06-20T05:57:39.562Z,english_227.wav,0,0,490,,,,,10,1,-5.55255579,1.39124165
ZBW_1357,49,0,2024-06-20T05:57:39.562Z,english_227.wav,0,0,490,,,,,11,1.09391667,92.65490635,1.37791309
ZBW_1357,50,1,2024-06-20T05:57:39.562Z,english_378.wav,0,0,637,,,,,0,0,-6.75592408,1.57446733
ZBW_1357,50,1,2024-06-20T05:57:39.562Z,english_378.wav,0,0,637,,,,,1,0.1,-33.28558439,0.29285803
ZBW_1357,50,1,2024-06-20T05:57:39.562Z,english_378.wav,0,0,637,,,,,2,0.2,-96.71642688,0.09494473
ZBW_1357,50,1,2024-06-20T05:57:39.562Z,english_378.wav,0,0,637,,,,,3,0.3,70.45646645,0.09114875
ZBW_1357,50,1,2024-06-20T05:57:39.562Z,english_378.wav,0,0,637,,,,,4,0.4,20.01443052,0.12099564
ZBW_1357,50,1,2024-06-20T05:57:39.562Z,english_378.wav,0,0,637,,,,,5,0.5,-69.62604827,0.06996617
ZBW_1357,50,1,2024-06-20T05:57:39.562Z,english_378.wav,0,0,637,,,,,6,0.6,-82.6103386,0.89001983
ZBW_1357,50,1,2024-06-20T05:57:39.562Z,english_378.wav,0,0,637,,,,,7,0.7,-53.90394432,1.80047075
ZBW_1357,50,1,2024-06-20T05:57:39.562Z,english_378.wav,0,0,637,,,,,8,0.8,75.60526061,1.92282567
ZBW_1357,50,1,2024-06-20T05:57:39.562Z,english_378.wav,0,0,637,,,,,9,0.9,-65.71007404,0.07000512
ZBW_1357,50,1,2024-06-20T05:57:39.562Z,english_378.wav,0,0,637,,,,,10,1,-82.95728524,0.51793223
ZBW_1357,50,1,2024-06-20T05:57:39.562Z,english_378.wav,0,0,637,,,,,11,1.09391667,40.19708488,1.33854892
ZBW_1357,51,1,2024-06-20T05:57:39.562Z,english_960.wav,0,0,562,,,,,0,0,-2.34292173,0.04592369
ZBW_1357,51,1,2024-06-20T05:57:39.562Z,english_960.wav,0,0,562,,,,,1,0.1,-14.33809381,1.93256303
ZBW_1357,51,1,2024-06-20T05:57:39.562Z,english_960.wav,0,0,562,,,,,2,0.2,23.80635185,1.63542615
ZBW_1357,51,1,2024-06-20T05:57:39.562Z,english_960.wav,0,0,562,,,,,3,0.3,-47.8246654,1.38214449
ZBW_1357,51,1,2024-06-20T05:57:39.562Z,english_960.wav,0,0,562,,,,,4,0.4,37.72126587,0.23301782
ZBW_1357,51,1,2024-06-20T05:57:39.562Z,english_960.wav,0,0,562,,,,,5,0.5,52.9199081,0.53692552
ZBW_1357,51,1,2024-06-20T05:57:39.562Z,english_960.wav,0,0,562,,,,,6,0.6,7.44982422,1.02814311
ZBW_1357,51,1,2024-06-20T05:57:39.562Z,english_960.wav,0,0,562,,,,,7,0.7,-7.86948203,0.98154622
ZBW_1357,51,1,2024-06-20T05:57:39.562Z,english_960.wav,0,0,562,,,,,8,0.8,72.23117138,0.31984479
ZBW_1357,51,1,2024-06-20T05:57:39.562Z,english_960.wav,0,0,562,,,,,9,0.9,44.79944131,1.34408856
ZBW_1357,51,1,2024-06-20T05:57:39.562Z,english_960.wav,0,0,562,,,,,10,1,4.95796587,0.65666074
ZBW_1357,51,1,2024-06-20T05:57:39.562Z,english_960.wav,0,0,562,,,,,11,1.09391667,60.45608826,0.78367591
ZBW_1357,52,1,2024-06-20T05:57:39.562Z,english_551.wav,0,0,2248,,,,,0,0,-6.7580407,1.36908338
ZBW_1357,52,1,2024-06-20T05:57:39.562Z,english_551.wav,0,0,2248,,,,,1,0.1,35.07051515,1.9104602
ZBW_1357,52,1,2024-06-20T05:57:39.562Z,english_551.wav,0,0,2248,,,,,2,0.2,-13.38429881,0.46910503
ZBW_1357,52,1,2024-06-20T05:57:39.562Z,english_551.wav,0,0,2248,,,,,3,0.3,37.09878084,1.97066888
ZBW_1357,52,1,2024-06-20T05:57:39.562Z,english_551.wav,0,0,2248,,,,,4,0.4,-63.7004989,1.03915964
ZBW_1357,52,1,2024-06-20T05:57:39.562Z,english_551.wav,0,0,2248,,,,,5,0.5,38.07544061,0.03518646
ZBW_1357,52,1,2024-06-20T05:57:39.562Z,english_551.wav,0,0,2248,,,,,6,0.6,-3.84658335,0.35806175
ZBW_1357,52,1,2024-06-20T05:57:39.562Z,english_551.wav,0,0,2248,,,,,7,0.7,-70.82168474,1.2923355
ZBW_1357,52,1,2024-06-20T05:57:39.562Z,english_551.wav,0,0,2248,,,,,8,0.8,15.89042936,0.94769204
ZBW_1357,52,1,2024-06-20T05:57:39.562Z,english_551.wav,0,0,2248,,,,,9,0.9,11.36542465,1.13768641
ZBW_1357,52,1,2024-06-20T05:57:39.562Z,english_551.wav,0,0,2248,,,,,10,1,48.05239425,1.46377274
ZBW_1357,52,1,2024-06-20T05:57:39.562Z,english_551.wav,0,0,2248,,,,,11,1.09391667,-25.45868434,1.28141809
ZBW_1357,53,1,2024-06-20T05:57:39.562Z,english_882.wav,0,0,651,,,,,0,0,-7.05979315,0.25493427
ZBW_1357,53,1,2024-06-20T05:57:39.562Z,english_882.wav,0,0,651,,,,,1,0.1,11.12287517,1.40090196
ZBW_1357,53,1,2024-06-20T05:57:39.562Z,english_882.wav,0,0,651,,,,,2,0.2,28.5672698,0.1131803
ZBW_1357,53,1,2024-06-20T05:57:39.562Z,english_882.wav,0,0,651,,,,,3,0.3,16.48717496,1.17672005
ZBW_1357,53,1,2024-06-20T05:57:39.562Z,english_882.wav,0,0,651,,,,,4,0.4,6.46389904,1.65791719
ZBW_1357,53,1,2024-06-20T05:57:39.562Z,english_882.wav,0,0,651,,,,,5,0.5,-33.62191601,1.48549593
ZBW_1357,53,1,2024-06-20T05:57:39.562Z,english_882.wav,0,0,651,,,,,6,0.6,24.95644847,0.02678123
ZBW_1357,53,1,2024-06-20T05:57:39.562Z,english_882.wav,0,0,651,,,,,7,0.7,-38.16076581,0.84885904
ZBW_1357,53,1,2024-06-20T05:57:39.562Z,english_882.wav,0,0,651,,,,,8,0.8,-79.20201093,0.30029844
ZBW_1357,53,1,2024-06-20T05:57:39.562Z,english_882.wav,0,0,651,,,,,9,0.9,-71.11539398,0.49544308
ZBW_1357,53,1,2024-06-20T05:57:39.562Z,english_882.wav,0,0,651,,,,,10,1,-86.32031944,0.41090122
ZBW_1357,53,1,2024-06-20T05:57:39.562Z,english_882.wav,0,0,651,,,,,11,1.09391667,-43.4557724,0.68463909
ZBW_1357,54,1,2024-06-20T05:57:39.562Z,english_841.wav,0,1,531,,,,,0,0,13.47649633,0.2030304
ZBW_1357,54,1,2024-06-20T05:57:39.562Z,english_841.wav,0,1,531,,,,,1,0.1,-4.31438018,1.4654032
ZBW_1357,54,1,2024-06-20T05:57:39.562Z,english_841.wav,0,1,531,,,,,2,0.2,33.0563647,0.99950721
ZBW_1357,54,1,2024-06-20T05:57:39.562Z,english_841.wav,0,1,531,,,,,3,0.3,86.84745786,0.04710196
ZBW_1357,54,1,2024-06-20T05:57:39.562Z,english_841.wav,0,1,531,,,,,4,0.4,-66.40745707,1.47568135
ZBW_1357,54,1,2024-06-20T05:57:39.562Z,english_841.wav,0,1,531,,,,,5,0.5,-45.55484269,1.38964748
ZBW_1357,54,1,2024-06-20T05:57:39.562Z,english_841.wav,0,1,531,,,,,6,0.6,-86.08753099,1.63844318
ZBW_1357,54,1,2024-06-20T05:57:39.562Z,english_841.wav,0,1,531,,,,,7,0.7,-95.45735959,1.01920512
ZBW_1357,54,1,2024-06-20T05:57:39.562Z,english_841.wav,0,1,531,,,,,8,0.8,23.86654109,1.35517017
ZBW_1357,54,1,2024-06-20T05:57:39.562Z,english_841.wav,0,1,531,,,,,9,0.9,-11.20743419,1.07128935
ZBW_1357,54,1,2024-06-20T05:57:39.562Z,english_841.wav,0,1,531,,,,,10,1,-48.1272879,1.6005201
ZBW_1357,54,1,2024-06-20T05:57:39.562Z,english_841.wav,0,1,531,,,,,11,1.09391667,65.71403117,1.58502918
ZBW_1357,55,1,2024-06-20T05:57:39.562Z,english_756.wav,0,1,310,,,,,0,0,-32.70542045,0.92316539
ZBW_1357,55,1,2024-06-20T05:57:39.562Z,english_756.wav,0,1,310,,,,,1,0.1,62.91454888,0.37547917
ZBW_1357,55,1,2024-06-20T05:57:39.562Z,english_756.wav,0,1,310,,,,,2,0.2,-9.17678833,1.92598223
ZBW_1357,55,1,2024-06-20T05:57:39.562Z,english_756.wav,0,1,310,,,,,3,0.3,16.28624283,0.89010875
ZBW_1357,55,1,2024-06-20T05:57:39.562Z,english_756.wav,0,1,310,,,,,4,0.4,-33.51792534,0.38662098
ZBW_1357,55,1,2024-06-20T05:57:39.562Z,english_756.wav,0,1,310,,,,,5,0.5,88.01648813,1.17672662
ZBW_1357,55,1,2024-06-20T05:57:39.562Z,english_756.wav,0,1,310,,,,,6,0.6,62.37064714,0.21957896
ZBW_1357,55,1,2024-06-20T05:57:39.562Z,english_756.wav,0,1,310,,,,,7,0.7,-52.3683359,1.78953747
ZBW_1357,55,1,2024-06-20T05:57:39.562Z,english_756.wav,0,1,310,,,,,8,0.8,56.37360277,1.89812903
ZBW_1357,55,1,2024-06-20T05:57:39.562Z,english_756.wav,0,1,310,,,,,9,0.9,-54.86484941,1.43873799
ZBW_1357,55,1,2024-06-20T05:57:39.562Z,english_756.wav,0,1,310,,,,,10,1,91.23924333,1.51351367
ZBW_1357,55,1,2024-06-20T05:57:39.562Z,english_756.wav,0,1,310,,,,,11,1.09391667,-26.61223969,1.73327561
ZBW_1357,56,1,2024-06-20T05:57:39.562Z,english_979.wav,0,0,568,,,,,0,0,37.48457567,1.4207367
ZBW_1357,56,1,2024-06-20T05:57:39.562Z,english_979.wav,0,0,568,,,,,1,0.1,-37.02244062,1.31079647
ZBW_1357,56,1,2024-06-20T05:57:39.562Z,english_979.wav,0,0,568,,,,,2,0.2,-24.69283161,0.99381913
ZBW_1357,56,1,2024-06-20T05:57:39.562Z,english_979.wav,0,0,568,,,,,3,0.3,-46.06023598,1.92885953
ZBW_1357,56,1,2024-06-20T05:57:39.562Z,english_979.wav,0,0,568,,,,,4,0.4,-42.84074597,1.90853779
ZBW_1357,56,1,2024-06-20T05:57:39.562Z,english_979.wav,0,0,568,,,,,5,0.5,74.27862476,0.2569717
ZBW_1357,56,1,2024-06-20T05:57:39.562Z,english_979.wav,0,0,568,,,,,6,0.6,-8.30998961,0.19374483
ZBW_1357,56,1,2024-06-20T05:57:39.562Z,english_979.wav,0,0,568,,,,,7,0.7,58.9564601,1.09057025
ZBW_1357,56,1,2024-06-20T05:57:39.562Z,english_979.wav,0,0,568,,,,,8,0.8,-5.32034309,1.33389295
ZBW_1357,56,1,2024-06-20T05:57:39.562Z,english_979.wav,0,0,568,,,,,9,0.9,26.74044499,0.56327367
ZBW_1357,56,1,2024-06-20T05:57:39.562Z,english_979.wav,0,0,568,,,,,10,1,-18.64517926,0.75332902
ZBW_1357,56,1,2024-06-20T05:57:39.562Z,english_979.wav,0,0,568,,,,,11,1.09391667,58.46936922,0.45071064
ZBW_1357,57,1,2024-06-20T05:57:39.562Z,english_907.wav,0,1,679,,,,,0,0,-53.3100291,1.09242223
ZBW_1357,57,1,2024-06-20T05:57:39.562Z,english_907.wav,0,1,679,,,,,1,0.1,4.68553811,1.36905488
ZBW_1357,57,1,2024-06-20T05:57:39.562Z,english_907.wav,0,1,679,,,,,2,0.2,30.1589282,0.80069783
ZBW_1357,57,1,2024-06-20T05:57:39.562Z,english_907.wav,0,1,679,,,,,3,0.3,11.7494605,1.02399961
ZBW_1357,57,1,2024-06-20T05:57:39.562Z,english_907.wav,0,1,679,,,,,4,0.4,14.6843787,1.6109915
ZBW_1357,57,1,2024-06-20T05:57:39.562Z,english_907.wav,0,1,679,,,,,5,0.5,0.0551600348,0.4113542
ZBW_1357,57,1,2024-06-20T05:57:39.562Z,english_907.wav,0,1,679,,,,,6,0.6,21.8487989,1.88718243
ZBW_1357,57,1,2024-06-20T05:57:39.562Z,english_907.wav,0,1,679,,,,,7,0.7,0.876146135,1.82050398
ZBW_1357,57,1,2024-06-20T05:57:39.562Z,english_907.wav,0,1,679,,,,,8,0.8,57.0084802,0.47994227
ZBW_1357,57,1,2024-06-20T05:57:39.562Z,english_907.wav,0,1,679,,,,,9,0.9,5.30429591,1.40201797
ZBW_1357,57,1,2024-06-20T05:57:39.562Z,english_907.wav,0,1,679,,,,,10,1,17.8166491,1.67172578
ZBW_1357,57,1,2024-06-20T05:57:39.562Z,english_907.wav,0,1,679,,,,,11,1.09391667,-29.3939822,0.75533172
ZBW_1357,58,1,2024-06-20T05:57:39.562Z,english_22.wav,0,0,688,,,,,0,0,70.18292814,0.28551441
ZBW_1357,58,1,2024-06-20T05:57:39.562Z,english_22.wav,0,0,688,,,,,1,0.1,-80.96999494,0.4027703
ZBW_1357,58,1,2024-06-20T05:57:39.562Z,english_22.wav,0,0,688,,,,,2,0.2,-35.97807487,0.92085021
ZBW_1357,58,1,2024-06-20T05:57:39.562Z,english_22.wav,0,0,688,,,,,3,0.3,-50.77912628,0.28132548
ZBW_1357,58,1,2024-06-20T05:57:39.562Z,english_22.wav,0,0,688,,,,,4,0.4,45.67027718,1.60569992
ZBW_1357,58,1,2024-06-20T05:57:39.562Z,english_22.wav,0,0,688,,,,,5,0.5,93.75980346,1.16285663
ZBW_1357,58,1,2024-06-20T05:57:39.562Z,english_22.wav,0,0,688,,,,,6,0.6,-60.5710335,1.00744398
ZBW_1357,58,1,2024-06-20T05:57:39.562Z,english_22.wav,0,0,688,,,,,7,0.7,-35.42669747,0.58521518
ZBW_1357,58,1,2024-06-20T05:57:39.562Z,english_22.wav,0,0,688,,,,,8,0.8,84.37918603,0.90086295
ZBW_1357,58,1,2024-06-20T05:57:39.562Z,english_22.wav,0,0,688,,,,,9,0.9,-3.38291766,0.69217241
ZBW_1357,58,1,2024-06-20T05:57:39.562Z,english_22.wav,0,0,688,,,,,10,1,-36.07509244,1.456266
ZBW_1357,58,1,2024-06-20T05:57:39.562Z,english_22.wav,0,0,688,,,,,11,1.09391667,-43.05429972,0.26376925
ZBW_1357,59,1,2024-06-20T05:57:39.562Z,english_867.wav,0,1,602,,,,,0,0,-24.89816024,0.58295981
ZBW_1357,59,1,2024-06-20T05:57:39.562Z,english_867.wav,0,1,602,,,,,1,0.1,-5.46882756,0.29098819
ZBW_1357,59,1,2024-06-20T05:57:39.562Z,english_867.wav,0,1,602,,,,,2,0.2,20.19834057,1.14395964
ZBW_1357,59,1,2024-06-20T05:57:39.562Z,english_867.wav,0,1,602,,,,,3,0.3,-93.32796435,1.65419487
ZBW_1357,59,1,2024-06-20T05:57:39.562Z,english_867.wav,0,1,602,,,,,4,0.4,33.67014856,0.61503003
ZBW_1357,59,1,2024-06-20T05:57:39.562Z,english_867.wav,0,1,602,,,,,5,0.5,-35.81311347,0.19208338
ZBW_1357,59,1,2024-06-20T05:57:39.562Z,english_867.wav,0,1,602,,,,,6,0.6,3.8400964,1.34794824
ZBW_1357,59,1,2024-06-20T05:57:39.562Z,english_867.wav,0,1,602,,,,,7,0.7,36.13382858,0.71921044
ZBW_1357,59,1,2024-06-20T05:57:39.562Z,english_867.wav,0,1,602,,,,,8,0.8,70.00228028,1.86066536
ZBW_1357,59,1,2024-06-20T05:57:39.562Z,english_867.wav,0,1,602,,,,,9,0.9,81.61272395,0.96263601
ZBW_1357,59,1,2024-06-20T05:57:39.562Z,english_867.wav,0,1,602,,,,,10,1,-46.82426053,1.18263142
ZBW_1357,59,1,2024-06-20T05:57:39.562Z,english_867.wav,0,1,602,,,,,11,1.09391667,21.97193379,1.25802514
ZBW_1357,60,1,2024-06-20T05:57:39.562Z,english_516.wav,0,0,811,,,,,0,0,65.27468838,0.72548384
ZBW_1357,60,1,2024-06-20T05:57:39.562Z,english_516.wav,0,0,811,,,,,1,0.1,28.38678538,1.78002716
ZBW_1357,60,1,2024-06-20T05:57:39.562Z,english_516.wav,0,0,811,,,,,2,0.2,-16.29491298,1.52601333
ZBW_1357,60,1,2024-06-20T05:57:39.562Z,english_516.wav,0,0,811,,,,,3,0.3,29.01072094,0.22704286
ZBW_1357,60,1,2024-06-20T05:57:39.562Z,english_516.wav,0,0,811,,,,,4,0.4,-47.32267929,1.00592853
ZBW_1357,60,1,2024-06-20T05:57:39.562Z,english_516.wav,0,0,811,,,,,5,0.5,-47.60418852,0.3740999
ZBW_1357,60,1,2024-06-20T05:57:39.562Z,english_516.wav,0,0,811,,,,,6,0.6,19.91194594,1.89933748
ZBW_1357,60,1,2024-06-20T05:57:39.562Z,english_516.wav,0,0,811,,,,,7,0.7,-28.9289623,0.62297075
ZBW_1357,60,1,2024-06-20T05:57:39.562Z,english_516.wav,0,0,811,,,,,8,0.8,5.6204603,1.26182982
ZBW_1357,60,1,2024-06-20T05:57:39.562Z,english_516.wav,0,0,811,,,,,9,0.9,55.47321842,0.11401837
ZBW_1357,60,1,2024-06-20T05:57:39.562Z,english_516.wav,0,0,811,,,,,10,1,12.03381774,0.27832104
ZBW_1357,60,1,2024-06-20T05:57:39.562Z,english_516.wav,0,0,811,,,,,11,1.09391667,-64.39892236,1.09838576
ZBW_1357,61,1,2024-06-20T05:57:39.562Z,english_262.wav,0,1,535,,,,,0,0,40.3969452,0.57919627
ZBW_1357,61,1,2024-06-20T05:57:39.562Z,english_262.wav,0,1,535,,,,,1,0.1,24.92470984,1.22854993
ZBW_1357,61,1,2024-06-20T05:57:39.562Z,english_262.wav,0,1,535,,,,,2,0.2,-23.52143828,1.84489284
ZBW_1357,61,1,2024-06-20T05:57:39.562Z,english_262.wav,0,1,535,,,,,3,0.3,3.42411393,1.27929622
ZBW_1357,61,1,2024-06-20T05:57:39.562Z,english_262.wav,0,1,535,,,,,4,0.4,-47.82145477,1.21414946
ZBW_1357,61,1,2024-06-20T05:57:39.562Z,english_262.wav,0,1,535,,,,,5,0.5,70.56302105,1.94766948
ZBW_1357,61,1,2024-06-20T05:57:39.562Z,english_262.wav,0,1,535,,,,,6,0.6,-9.7222436,1.55288945
ZBW_1357,61,1,2024-06-20T05:57:39.562Z,english_262.wav,0,1,535,,,,,7,0.7,20.72301517,0.57688166
ZBW_1357,61,1,2024-06-20T05:57:39.562Z,english_262.wav,0,1,535,,,,,8,0.8,-49.74845029,1.86265407
ZBW_1357,61,1,2024-06-20T05:57:39.562Z,english_262.wav,0,1,535,,,,,9,0.9,21.4766741,1.3850481
ZBW_1357,61,1,2024-06-20T05:57:39.562Z,english_262.wav,0,1,535,,,,,10,1,-48.95430403,1.65814683
ZBW_1357,61,1,2024-06-20T05:57:39.562Z,english_262.wav,0,1,535,,,,,11,1.09391667,46.16285525,0.28622245
ZBW_1357,62,1,2024-06-20T05:57:39.562Z,english_977.wav,0,0,775,,,,,0,0,45.32437977,1.51258306
ZBW_1357,62,1,2024-06-20T05:57:39.562Z,english_977.wav,0,0,775,,,,,1,0.1,31.46444726,1.62107879
ZBW_1357,62,1,2024-06-20T05:57:39.562Z,english_977.wav,0,0,775,,,,,2,0.2,7.78815071,0.80620837
ZBW_1357,62,1,2024-06-20T05:57:39.562Z,english_977.wav,0,0,775,,,,,3,0.3,-38.46709342,1.66578012
ZBW_1357,62,1,2024-06-20T05:57:39.562Z,english_977.wav,0,0,775,,,,,4,0.4,-43.12628929,0.5028638
ZBW_1357,62,1,2024-06-20T05:57:39.562Z,english_977.wav,0,0,775,,,,,5,0.5,-60.3999411,1.57064844
ZBW_1357,62,1,2024-06-20T05:57:39.562Z,english_977.wav,0,0,775,,,,,6,0.6,38.30873417,1.43046029
ZBW_1357,62,1,2024-06-20T05:57:39.562Z,english_977.wav,0,0,775,,,,,7,0.7,-32.30937365,0.97320454
ZBW_1357,62,1,2024-06-20T05:57:39.562Z,english_977.wav,0,0,775,,,,,8,0.8,-13.91730907,0.87874216
ZBW_1357,62,1,2024-06-20T05:57:39.562Z,english_977.wav,0,0,775,,,,,9,0.9,-81.54845422,1.41826341
ZBW_1357,62,1,2024-06-20T05:57:39.562Z,english_977.wav,0,0,775,,,,,10,1,29.31026278,0.04715706
ZBW_1357,62,1,2024-06-20T05:57:39.562Z,english_977.wav,0,0,775,,,,,11,1.09391667,34.6707146,1.45727151
ZBW_1357,63,1,2024-06-20T05:57:39.562Z,english_437.wav,0,0,804,,,,,0,0,33.55993848,1.07053388
ZBW_1357,63,1,2024-06-20T05:57:39.562Z,english_437.wav,0,0,804,,,,,1,0.1,99.2710896,1.13266277
ZBW_1357,63,1,2024-06-20T05:57:39.562Z,english_437.wav,0,0,804,,,,,2,0.2,-32.57477065,1.9895336
ZBW_1357,63,1,2024-06-20T05:57:39.562Z,english_437.wav,0,0,804,,,,,3,0.3,-17.79752124,1.49721118
ZBW_1357,63,1,2024-06-20T05:57:39.562Z,english_437.wav,0,0,804,,,,,4,0.4,7.76381485,1.18690415
ZBW_1357,63,1,2024-06-20T05:57:39.562Z,english_437.wav,0,0,804,,,,,5,0.5,-50.05370097,1.89119188
ZBW_1357,63,1,2024-06-20T05:57:39.562Z,english_437.wav,0,0,804,,,,,6,0.6,5.06874502,0.49511118
ZBW_1357,63,1,2024-06-20T05:57:39.562Z,english_437.wav,0,0,804,,,,,7,0.7,1.99558214,1.27007291
ZBW_1357,63,1,2024-06-20T05:57:39.562Z,english_437.wav,0,0,804,,,,,8,0.8,43.8272749,1.66092274
ZBW_1357,63,1,2024-06-20T05:57:39.562Z,english_437.wav,0,0,804,,,,,9,0.9,98.27063476,0.51492766
ZBW_1357,63,1,2024-06-20T05:57:39.562Z,english_437.wav,0,0,804,,,,,10,1,18.74881687,0.04140418
ZBW_1357,63,1,2024-06-20T05:57:39.562Z,english_437.wav,0,0,804,,,,,11,1.09391667,-57.70401561,0.6117047
ZBW_1357,64,1,2024-06-20T05:57:39.562Z,english_791.wav,0,1,560,,,,,0,0,-46.06630558,1.16002163
ZBW_1357,64,1,2024-06-20T05:57:39.562Z,english_791.wav,0,1,560,,,,,1,0.1,-10.41029295,1.31545425
ZBW_1357,64,1,2024-06-20T05:57:39.562Z,english_791.wav,0,1,560,,,,,2,0.2,46.47346809,0.89173565
ZBW_1357,64,1,2024-06-20T05:57:39.562Z,english_791.wav,0,1,560,,,,,3,0.3,-10.43860287,0.05427007
ZBW_1357,64,1,2024-06-20T05:57:39.562Z,english_791.wav,0,1,560,,,,,4,0.4,-38.16717219,1.4017057
ZBW_1357,64,1,2024-06-20T05:57:39.562Z,english_791.wav,0,1,560,,,,,5,0.5,44.56559314,0.47849772
ZBW_1357,64,1,2024-06-20T05:57:39.562Z,english_791.wav,0,1,560,,,,,6,0.6,43.70696978,1.59729287
ZBW_1357,64,1,2024-06-20T05:57:39.562Z,english_791.wav,0,1,560,,,,,7,0.7,-5.54884815,1.50901191
ZBW_1357,64,1,2024-06-20T05:57:39.562Z,english_791.wav,0,1,560,,,,,8,0.8,89.91059564,0.68083576
ZBW_1357,64,1,2024-06-20T05:57:39.562Z,english_791.wav,0,1,560,,,,,9,0.9,90.72111025,1.62669182
ZBW_1357,64,1,2024-06-20T05:57:39.562Z,english_791.wav,0,1,560,,,,,10,1,4.8020349,1.81653342
ZBW_1357,64,1,2024-06-20T05:57:39.562Z,english_791.wav,0,1,560,,,,,11,1.09391667,7.87463746,1.33572141
ZBW_1357,65,1,2024-06-20T05:57:39.562Z,english_616.wav,0,1,337,,,,,0,0,-58.43899918,1.31887323
ZBW_1357,65,1,2024-06-20T05:57:39.562Z,english_616.wav,0,1,337,,,,,1,0.1,91.54551443,1.19326366
ZBW_1357,65,1,2024-06-20T05:57:39.562Z,english_616.wav,0,1,337,,,,,2,0.2,-72.76331238,1.15507306
ZBW_1357,65,1,2024-06-20T05:57:39.562Z,english_616.wav,0,1,337,,,,,3,0.3,98.66983591,1.15408068
ZBW_1357,65,1,2024-06-20T05:57:39.562Z,english_616.wav,0,1,337,,,,,4,0.4,30.89695447,1.80966351
ZBW_1357,65,1,2024-06-20T05:57:39.562Z,english_616.wav,0,1,337,,,,,5,0.5,95.21036015,0.8568389
ZBW_1357,65,1,2024-06-20T05:57:39.562Z,english_616.wav,0,1,337,,,,,6,0.6,38.34251154,0.52507159
ZBW_1357,65,1,2024-06-20T05:57:39.562Z,english_616.wav,0,1,337,,,,,7,0.7,53.37022057,1.38987598
ZBW_1357,65,1,2024-06-20T05:57:39.562Z,english_616.wav,0,1,337,,,,,8,0.8,64.27718414,1.91003383
ZBW_1357,65,1,2024-06-20T05:57:39.562Z,english_616.wav,0,1,337,,,,,9,0.9,-47.15745764,1.62420327
ZBW_1357,65,1,2024-06-20T05:57:39.562Z,english_616.wav,0,1,337,,,,,10,1,61.31789033,1.95831122
ZBW_1357,65,1,2024-06-20T05:57:39.562Z,english_616.wav,0,1,337,,,,,11,1.09391667,-28.29544228,0.95794745
ZBW_1357,66,1,2024-06-20T05:57:39.562Z,english_323.wav,0,0,442,,,,,0,0,40.39415448,1.89273291
ZBW_1357,66,1,2024-06-20T05:57:39.562Z,english_323.wav,0,0,442,,,,,1,0.1,-3.9805302,1.81857991
ZBW_1357,66,1,2024-06-20T05:57:39.562Z,english_323.wav,0,0,442,,,,,2,0.2,-8.81191145,0.58180431
ZBW_1357,66,1,2024-06-20T05:57:39.562Z,english_323.wav,0,0,442,,,,,3,0.3,-8.61923754,0.82209232
ZBW_1357,66,1,2024-06-20T05:57:39.562Z,english_323.wav,0,0,442,,,,,4,0.4,25.51817053,1.26116311
ZBW_1357,66,1,2024-06-20T05:57:39.562Z,english_323.wav,0,0,442,,,,,5,0.5,37.95982404,1.9312982
ZBW_1357,66,1,2024-06-20T05:57:39.562Z,english_323.wav,0,0,442,,,,,6,0.6,-53.30444221,0.90792138
ZBW_1357,66,1,2024-06-20T05:57:39.562Z,english_323.wav,0,0,442,,,,,7,0.7,54.85383866,0.90655742
ZBW_1357,66,1,2024-06-20T05:57:39.562Z,english_323.wav,0,0,442,,,,,8,0.8,-9.4086646,0.85964648
ZBW_1357,66,1,2024-06-20T05:57:39.562Z,english_323.wav,0,0,442,,,,,9,0.9,8.91034325,0.3422022
ZBW_1357,66,1,2024-06-20T05:57:39.562Z,english_323.wav,0,0,442,,,,,10,1,-45.44598831,1.16277549
ZBW_1357,66,1,2024-06-20T05:57:39.562Z,english_323.wav,0,0,442,,,,,11,1.09391667,-71.60554132,1.39313179
ZBW_1357,67,1,2024-06-20T05:57:39.562Z,english_529.wav,0,0,989,,,,,0,0,-75.44052411,0.27425441
ZBW_1357,67,1,2024-06-20T05:57:39.562Z,english_529.wav,0,0,989,,,,,1,0.1,73.68823703,1.79894556
ZBW_1357,67,1,2024-06-20T05:57:39.562Z,english_529.wav,0,0,989,,,,,2,0.2,35.88983091,1.38498362
ZBW_1357,67,1,2024-06-20T05:57:39.562Z,english_529.wav,0,0,989,,,,,3,0.3,74.9860534,1.12136542
ZBW_1357,67,1,2024-06-20T05:57:39.562Z,english_529.wav,0,0,989,,,,,4,0.4,39.79761308,0.69021564
ZBW_1357,67,1,2024-06-20T05:57:39.562Z,english_529.wav,0,0,989,,,,,5,0.5,87.56894365,1.32432139
ZBW_1357,67,1,2024-06-20T05:57:39.562Z,english_529.wav,0,0,989,,,,,6,0.6,-70.18354505,0.62496123
ZBW_1357,67,1,2024-06-20T05:57:39.562Z,english_529.wav,0,0,989,,,,,7,0.7,30.14757838,0.16694554
ZBW_1357,67,1,2024-06-20T05:57:39.562Z,english_529.wav,0,0,989,,,,,8,0.8,-85.67720686,1.72485798
ZBW_1357,67,1,2024-06-20T05:57:39.562Z,english_529.wav,0,0,989,,,,,9,0.9,-5.22909547,0.11317639
ZBW_1357,67,1,2024-06-20T05:57:39.562Z,english_529.wav,0,0,989,,,,,10,1,-29.17041088,1.97903266
ZBW_1357,67,1,2024-06-20T05:57:39.562Z,english_529.wav,0,0,989,,,,,11,1.09391667,91.40497623,0.92289832
ZBW_1357,68,1,2024-06-20T05:57:39.562Z,english_663.wav,0,1,1935,,,,,0,0,25.59053478,1.78737857
ZBW_1357,68,1,2024-06-20T05:57:39.562Z,english_663.wav,0,1,1935,,,,,1,0.1,-58.99857374,1.42240818
ZBW_1357,68,1,2024-06-20T05:57:39.562Z,english_663.wav,0,1,1935,,,,,2,0.2,-5.24989333,1.3064588
ZBW_1357,68,1,2024-06-20T05:57:39.562Z,english_663.wav,0,1,1935,,,,,3,0.3,-69.09303088,0.70237579
ZBW_1357,68,1,2024-06-20T05:57:39.562Z,english_663.wav,0,1,1935,,,,,4,0.4,-45.4002244,1.46111329
ZBW_1357,68,1,2024-06-20T05:57:39.562Z,english_663.wav,0,1,1935,,,,,5,0.5,-34.03427643,0.83880831
ZBW_1357,68,1,2024-06-20T05:57:39.562Z,english_663.wav,0,1,1935,,,,,6,0.6,-19.18804463,1.08172691
ZBW_1357,68,1,2024-06-20T05:57:39.562Z,english_663.wav,0,1,1935,,,,,7,0.7,-64.51254164,1.55901958
ZBW_1357,68,1,2024-06-20T05:57:39.562Z,english_663.wav,0,1,1935,,,,,8,0.8,54.38008437,0.76271714
ZBW_1357,68,1,2024-06-20T05:57:39.562Z,english_663.wav,0,1,1935,,,,,9,0.9,-75.85045717,1.07438518
ZBW_1357,68,1,2024-06-20T05:57:39.562Z,english_663.wav,0,1,1935,,,,,10,1,38.1526186,1.50748802
ZBW_1357,68,1,2024-06-20T05:57:39.562Z,english_663.wav,0,1,1935,,,,,11,1.09391667,60.1980267,1.3123631
ZBW_1357,69,1,2024-06-20T05:57:39.562Z,english_561.wav,0,1,695,,,,,0,0,-40.74145274,1.68424793
ZBW_1357,69,1,2024-06-20T05:57:39.562Z,english_561.wav,0,1,695,,,,,1,0.1,73.1709151,1.15723577
ZBW_1357,69,1,2024-06-20T05:57:39.562Z,english_561.wav,0,1,695,,,,,2,0.2,-76.97322172,0.16061562
ZBW_1357,69,1,2024-06-20T05:57:39.562Z,english_561.wav,0,1,695,,,,,3,0.3,-33.73958817,0.71161921
ZBW_1357,69,1,2024-06-20T05:57:39.562Z,english_561.wav,0,1,695,,,,,4,0.4,-60.0926115,0.40520901
ZBW_1357,69,1,2024-06-20T05:57:39.562Z,english_561.wav,0,1,695,,,,,5,0.5,17.46588089,1.58164625
ZBW_1357,69,1,2024-06-20T05:57:39.562Z,english_561.wav,0,1,695,,,,,6,0.6,74.1182297,0.61549977
ZBW_1357,69,1,2024-06-20T05:57:39.562Z,english_561.wav,0,1,695,,,,,7,0.7,96.50181715,1.28562209
ZBW_1357,69,1,2024-06-20T05:57:39.562Z,english_561.wav,0,1,695,,,,,8,0.8,72.92112675,0.3725745
ZBW_1357,69,1,2024-06-20T05:57:39.562Z,english_561.wav,0,1,695,,,,,9,0.9,-4.13482892,0.83114042
ZBW_1357,69,1,2024-06-20T05:57:39.562Z,english_561.wav,0,1,695,,,,,10,1,68.85388576,1.94100595
ZBW_1357,69,1,2024-06-20T05:57:39.562Z,english_561.wav,0,1,695,,,,,11,1.09391667,-59.51051487,0.22020615
ZBW_1357,70,1,2024-06-20T05:57:39.562Z,english_361.wav,0,1,740,,,,,0,0,20.84328773,1.90680099
ZBW_1357,70,1,2024-06-20T05:57:39.562Z,english_361.wav,0,1,740,,,,,1,0.1,31.97314279,0.60095823
ZBW_1357,70,1,2024-06-20T05:57:39.562Z,english_361.wav,0,1,740,,,,,2,0.2,0.96518171,1.38207831
ZBW_1357,70,1,2024-06-20T05:57:39.562Z,english_361.wav,0,1,740,,,,,3,0.3,76.6061975,1.17298151
ZBW_1357,70,1,2024-06-20T05:57:39.562Z,english_361.wav,0,1,740,,,,,4,0.4,-77.10206306,1.57242958
ZBW_1357,70,1,2024-06-20T05:57:39.562Z,english_361.wav,0,1,740,,,,,5,0.5,23.53898445,0.07487762
ZBW_1357,70,1,2024-06-20T05:57:39.562Z,english_361.wav,0,1,740,,,,,6,0.6,-12.32061179,1.72866781
ZBW_1357,70,1,2024-06-20T05:57:39.562Z,english_361.wav,0,1,740,,,,,7,0.7,28.9259581,0.62365339
ZBW_1357,70,1,2024-06-20T05:57:39.562Z,english_361.wav,0,1,740,,,,,8,0.8,-94.91860317,0.31926535
ZBW_1357,70,1,2024-06-20T05:57:39.562Z,english_361.wav,0,1,740,,,,,9,0.9,-45.1021446,1.82585567
ZBW_1357,70,1,2024-06-20T05:57:39.562Z,english_361.wav,0,1,740,,,,,10,1,37.31543609,1.81117851
ZBW_1357,70,1,2024-06-20T05:57:39.562Z,english_361.wav,0,1,740,,,,,11,1.09391667,-48.80421802,0.64368516
ZBW_1357,71,1,2024-06-20T05:57:39.562Z,english_847.wav,0,1,897,,,,,0,0,-73.89717539,1.8490528
ZBW_1357,71,1,2024-06-20T05:57:39.562Z,english_847.wav,0,1,897,,,,,1,0.1,58.2279035,0.78071375
ZBW_1357,71,1,2024-06-20T05:57:39.562Z,english_847.wav,0,1,897,,,,,2,0.2,-6.95336522,0.52277753
ZBW_1357,71,1,2024-06-20T05:57:39.562Z,english_847.wav,0,1,897,,,,,3,0.3,-22.95480777,0.58053559
ZBW_1357,71,1,2024-06-20T05:57:39.562Z,english_847.wav,0,1,897,,,,,4,0.4,52.90135008,1.88784757
ZBW_1357,71,1,2024-06-20T05:57:39.562Z,english_847.wav,0,1,897,,,,,5,0.5,-46.75765643,0.24672534
ZBW_1357,71,1,2024-06-20T05:57:39.562Z,english_847.wav,0,1,897,,,,,6,0.6,30.49472427,0.03480907
ZBW_1357,71,1,2024-06-20T05:57:39.562Z,english_847.wav,0,1,897,,,,,7,0.7,-69.71037967,1.27028129
ZBW_1357,71,1,2024-06-20T05:57:39.562Z,english_847.wav,0,1,897,,,,,8,0.8,-58.62690345,0.5771855
ZBW_1357,71,1,2024-06-20T05:57:39.562Z,english_847.wav,0,1,897,,,,,9,0.9,-33.68489601,1.71334453
ZBW_1357,71,1,2024-06-20T05:57:39.562Z,english_847.wav,0,1,897,,,,,10,1,-73.6486263,0.92032767
ZBW_1357,71,1,2024-06-20T05:57:39.562Z,english_847.wav,0,1,897,,,,,11,1.09391667,-82.9712864,0.36606921
ZBW_1357,72,1,2024-06-20T05:57:39.562Z,english_383.wav,0,0,387,,,,,0,0,-63.19284146,0.88359619
ZBW_1357,72,1,2024-06-20T05:57:39.562Z,english_383.wav,0,0,387,,,,,1,0.1,-11.67623943,0.67885576
ZBW_1357,72,1,2024-06-20T05:57:39.562Z,english_383.wav,0,0,387,,,,,2,0.2,10.29419774,0.79033279
ZBW_1357,72,1,2024-06-20T05:57:39.562Z,english_383.wav,0,0,387,,,,,3,0.3,-5.52009964,1.96206588
ZBW_1357,72,1,2024-06-20T05:57:39.562Z,english_383.wav,0,0,387,,,,,4,0.4,51.48969715,1.53913599
ZBW_1357,72,1,2024-06-20T05:57:39.562Z,english_383.wav,0,0,387,,,,,5,0.5,36.94617894,0.70890723
ZBW_1357,72,1,2024-06-20T05:57:39.562Z,english_383.wav,0,0,387,,,,,6,0.6,-43.5176619,1.30448928
ZBW_1357,72,1,2024-06-20T05:57:39.562Z,english_383.wav,0,0,387,,,,,7,0.7,48.24470616,0.63214347
ZBW_1357,72,1,2024-06-20T05:57:39.562Z,english_383.wav,0,0,387,,,,,8,0.8,-27.34462671,1.26781992
ZBW_1357,72,1,2024-06-20T05:57:39.562Z,english_383.wav,0,0,387,,,,,9,0.9,77.23299658,0.08660782
ZBW_1357,72,1,2024-06-20T05:57:39.562Z,english_383.wav,0,0,387,,,,,10,1,-26.93588993,1.53722143
ZBW_1357,72,1,2024-06-20T05:57:39.562Z,english_383.wav,0,0,387,,,,,11,1.09391667,-78.64800704,1.42646009
ZBW_1357,73,1,2024-06-20T05:57:39.562Z,english_61.wav,0,0,1303,,,,,0,0,-76.31366774,1.15675845
ZBW_1357,73,1,2024-06-20T05:57:39.562Z,english_61.wav,0,0,1303,,,,,1,0.1,-70.32577527,0.79511083
ZBW_1357,73,1,2024-06-20T05:57:39.562Z,english_61.wav,0,0,1303,,,,,2,0.2,5.13466316,0.40451227
ZBW_1357,73,1,2024-06-20T05:57:39.562Z,english_61.wav,0,0,1303,,,,,3,0.3,37.00830294,0.79487484
ZBW_1357,73,1,2024-06-20T05:57:39.562Z,english_61.wav,0,0,1303,,,,,4,0.4,-11.73068973,0.44483697
ZBW_1357,73,1,2024-06-20T05:57:39.562Z,english_61.wav,0,0,1303,,,,,5,0.5,91.45109603,0.84603206
ZBW_1357,73,1,2024-06-20T05:57:39.562Z,english_61.wav,0,0,1303,,,,,6,0.6,11.9601718,0.8090615
ZBW_1357,73,1,2024-06-20T05:57:39.562Z,english_61.wav,0,0,1303,,,,,7,0.7,-66.7573243,1.09438885
ZBW_1357,73,1,2024-06-20T05:57:39.562Z,english_61.wav,0,0,1303,,,,,8,0.8,78.73702917,1.14041124
ZBW_1357,73,1,2024-06-20T05:57:39.562Z,english_61.wav,0,0,1303,,,,,9,0.9,61.80688515,0.39248564
ZBW_1357,73,1,2024-06-20T05:57:39.562Z,english_61.wav,0,0,1303,,,,,10,1,-73.85845523,1.77720472
ZBW_1357,73,1,2024-06-20T05:57:39.562Z,english_61.wav,0,0,1303,,,,,11,1.09391667,-24.76259921,1.29259789
ZBW_1357,74,1,2024-06-20T05:57:39.562Z,english_46.wav,0,1,801,,,,,0,0,-14.7704521,0.66460672
ZBW_1357,74,1,2024-06-20T05:57:39.562Z,english_46.wav,0,1,801,,,,,1,0.1,44.71982886,0.16115308
ZBW_1357,74,1,2024-06-20T05:57:39.562Z,english_46.wav,0,1,801,,,,,2,0.2,54.31186901,0.69883722
ZBW_1357,74,1,2024-06-20T05:57:39.562Z,english_46.wav,0,1,801,,,,,3,0.3,49.55617509,0.91276183
ZBW_1357,74,1,2024-06-20T05:57:39.562Z,english_46.wav,0,1,801,,,,,4,0.4,13.89468732,1.97897865
ZBW_1357,74,1,2024-06-20T05:57:39.562Z,english_46.wav,0,1,801,,,,,5,0.5,-5.62181735,1.5047395
ZBW_1357,74,1,2024-06-20T05:57:39.562Z,english_46.wav,0,1,801,,,,,6,0.6,46.1003591,1.97786281
ZBW_1357,74,1,2024-06-20T05:57:39.562Z,english_46.wav,0,1,801,,,,,7,0.7,44.70422333,1.91807099
ZBW_1357,74,1,2024-06-20T05:57:39.562Z,english_46.wav,0,1,801,,,,,8,0.8,-14.85596588,0.25212674
ZBW_1357,74,1,2024-06-20T05:57:39.562Z,english_46.wav,0,1,801,,,,,9,0.9,-30.71855866,1.85861414
ZBW_1357,74,1,2024-06-20T05:57:39.562Z,english_46.wav,0,1,801,,,,,10,1,-75.55345039,0.72903252
ZBW_1357,74,1,2024-06-20T05:57:39.562Z,english_46.wav,0,1,801,,,,,11,1.09391667,6.43312975,1.80431148
ZBW_1357,75,1,2024-06-20T05:57:39.562Z,english_829.wav,0,0,1352,,,,,0,0,-7.89955856,0.852516
ZBW_1357,75,1,2024-06-20T05:57:39.562Z,english_829.wav,0,0,1352,,,,,1,0.1,-18.01769042,0.97788956
ZBW_1357,75,1,2024-06-20T05:57:39.562Z,english_829.wav,0,0,1352,,,,,2,0.2,57.48418942,1.32810397
ZBW_1357,75,1,2024-06-20T05:57:39.562Z,english_829.wav,0,0,1352,,,,,3,0.3,41.9687918,0.18108064
ZBW_1357,75,1,2024-06-20T05:57:39.562Z,english_829.wav,0,0,1352,,,,,4,0.4,-61.64702177,0.15705118
ZBW_1357,75,1,2024-06-20T05:57:39.562Z,english_829.wav,0,0,1352,,,,,5,0.5,-20.29007911,0.66571436
ZBW_1357,75,1,2024-06-20T05:57:39.562Z,english_829.wav,0,0,1352,,,,,6,0.6,93.24496902,0.20869504
ZBW_1357,75,1,2024-06-20T05:57:39.562Z,english_829.wav,0,0,1352,,,,,7,0.7,-32.99482484,1.27621492
ZBW_1357,75,1,2024-06-20T05:57:39.562Z,english_829.wav,0,0,1352,,,,,8,0.8,6.59233546,1.10768251
ZBW_1357,75,1,2024-06-20T05:57:39.562Z,english_829.wav,0,0,1352,,,,,9,0.9,-90.87646181,1.10361444
ZBW_1357,75,1,2024-06-20T05:57:39.562Z,english_829.wav,0,0,1352,,,,,10,1,9.72736643,0.98320382
ZBW_1357,75,1,2024-06-20T05:57:39.562Z,english_829.wav,0,0,1352,,,,,11,1.09391667,-11.26207351,1.01672444
ZBW_1357,76,1,2024-06-20T05:57:39.562Z,english_716.wav,0,0,595,,,,,0,0,43.74330497,0.97173824
ZBW_1357,76,1,2024-06-20T05:57:39.562Z,english_716.wav,0,0,595,,,,,1,0.1,1.01157467,1.13719013
ZBW_1357,76,1,2024-06-20T05:57:39.562Z,english_716.wav,0,0,595,,,,,2,0.2,43.31214435,0.97088095
ZBW_1357,76,1,2024-06-20T05:57:39.562Z,english_716.wav,0,0,595,,,,,3,0.3,-64.99824003,1.35537493
ZBW_1357,76,1,2024-06-20T05:57:39.562Z,english_716.wav,0,0,595,,,,,4,0.4,66.22849696,1.16227483
ZBW_1357,76,1,2024-06-20T05:57:39.562Z,english_716.wav,0,0,595,,,,,5,0.5,15.92034767,1.14260693
ZBW_1357,76,1,2024-06-20T05:57:39.562Z,english_716.wav,0,0,595,,,,,6,0.6,-84.49981369,1.21216761
ZBW_1357,76,1,2024-06-20T05:57:39.562Z,english_716.wav,0,0,595,,,,,7,0.7,-36.42045257,1.78190595
ZBW_1357,76,1,2024-06-20T05:57:39.562Z,english_716.wav,0,0,595,,,,,8,0.8,0.56154779,1.16672006
ZBW_1357,76,1,2024-06-20T05:57:39.562Z,english_716.wav,0,0,595,,,,,9,0.9,-55.57576832,1.41993199
ZBW_1357,76,1,2024-06-20T05:57:39.562Z,english_716.wav,0,0,595,,,,,10,1,55.0789401,0.32201877
ZBW_1357,76,1,2024-06-20T05:57:39.562Z,english_716.wav,0,0,595,,,,,11,1.09391667,15.84660207,1.26556623
ZBW_1357,77,1,2024-06-20T05:57:39.562Z,english_370.wav,0,1,664,,,,,0,0,91.45146765,1.23282005
ZBW_1357,77,1,2024-06-20T05:57:39.562Z,english_370.wav,0,1,664,,,,,1,0.1,-35.10409157,0.25999131
ZBW_1357,77,1,2024-06-20T05:57:39.562Z,english_370.wav,0,1,664,,,,,2,0.2,94.76486666,1.34886846
ZBW_1357,77,1,2024-06-20T05:57:39.562Z,english_370.wav,0,1,664,,,,,3,0.3,-53.94210215,0.83234793
ZBW_1357,77,1,2024-06-20T05:57:39.562Z,english_370.wav,0,1,664,,,,,4,0.4,84.25045535,0.3574364
ZBW_1357,77,1,2024-06-20T05:57:39.562Z,english_370.wav,0,1,664,,,,,5,0.5,23.38990659,1.13678853
ZBW_1357,77,1,2024-06-20T05:57:39.562Z,english_370.wav,0,1,664,,,,,6,0.6,-19.20564455,1.71477151
ZBW_1357,77,1,2024-06-20T05:57:39.562Z,english_370.wav,0,1,664,,,,,7,0.7,79.34721748,0.6734852
ZBW_1357,77,1,2024-06-20T05:57:39.562Z,english_370.wav,0,1,664,,,,,8,0.8,-19.93049437,1.07446176
ZBW_1357,77,1,2024-06-20T05:57:39.562Z,english_370.wav,0,1,664,,,,,9,0.9,-60.8441274,1.23242025
ZBW_1357,77,1,2024-06-20T05:57:39.562Z,english_370.wav,0,1,664,,,,,10,1,-1.38990897,1.52786138
ZBW_1357,77,1,2024-06-20T05:57:39.562Z,english_370.wav,0,1,664,,,,,11,1.09391667,24.56704264,1.4714842
ZBW_1357,78,1,2024-06-20T05:57:39.562Z,english_871.wav,0,0,471,,,,,0,0,-17.51935002,0.96351457
ZBW_1357,78,1,2024-06-20T05:57:39.562Z,english_871.wav,0,0,471,,,,,1,0.1,48.49295959,1.65140424
ZBW_1357,78,1,2024-06-20T05:57:39.562Z,english_871.wav,0,0,471,,,,,2,0.2,58.25436474,0.10129148
ZBW_1357,78,1,2024-06-20T05:57:39.562Z,english_871.wav,0,0,471,,,,,3,0.3,19.88257457,1.12009066
ZBW_1357,78,1,2024-06-20T05:57:39.562Z,english_871.wav,0,0,471,,,,,4,0.4,50.10507231,1.6763055
ZBW_1357,78,1,2024-06-20T05:57:39.562Z,english_871.wav,0,0,471,,,,,5,0.5,-56.4846044,1.91634806
ZBW_1357,78,1,2024-06-20T05:57:39.562Z,english_871.wav,0,0,471,,,,,6,0.6,-59.75963758,0.79788864
ZBW_1357,78,1,2024-06-20T05:57:39.562Z,english_871.wav,0,0,471,,,,,7,0.7,-99.92210917,1.02975972
ZBW_1357,78,1,2024-06-20T05:57:39.562Z,english_871.wav,0,0,471,,,,,8,0.8,-47.06603955,0.06596749
ZBW_1357,78,1,2024-06-20T05:57:39.562Z,english_871.wav,0,0,471,,,,,9,0.9,-51.36141327,0.92212705
ZBW_1357,78,1,2024-06-20T05:57:39.562Z,english_871.wav,0,0,471,,,,,10,1,-80.2024198,1.99068199
ZBW_1357,78,1,2024-06-20T05:57:39.562Z,english_871.wav,0,0,471,,,,,11,1.09391667,-23.03879421,0.00440735
ZBW_1357,79,1,2024-06-20T05:57:39.562Z,english_708.wav,0,0,651,,,,,0,0,51.90512372,0.68267885
ZBW_1357,79,1,2024-06-20T05:57:39.562Z,english_708.wav,0,0,651,,,,,1,0.1,26.85875961,1.28009677
ZBW_1357,79,1,2024-06-20T05:57:39.562Z,english_708.wav,0,0,651,,,,,2,0.2,69.50769052,0.67214969
ZBW_1357,79,1,2024-06-20T05:57:39.562Z,english_708.wav,0,0,651,,,,,3,0.3,2.73798265,1.87173266
ZBW_1357,79,1,2024-06-20T05:57:39.562Z,english_708.wav,0,0,651,,,,,4,0.4,19.91752894,1.28139012
ZBW_1357,79,1,2024-06-20T05:57:39.562Z,english_708.wav,0,0,651,,,,,5,0.5,84.74462974,1.50975007
ZBW_1357,79,1,2024-06-20T05:57:39.562Z,english_708.wav,0,0,651,,,,,6,0.6,48.1433783,0.29459019
ZBW_1357,79,1,2024-06-20T05:57:39.562Z,english_708.wav,0,0,651,,,,,7,0.7,62.38973842,0.69646694
ZBW_1357,79,1,2024-06-20T05:57:39.562Z,english_708.wav,0,0,651,,,,,8,0.8,-28.25964696,0.8036912
ZBW_1357,79,1,2024-06-20T05:57:39.562Z,english_708.wav,0,0,651,,,,,9,0.9,1.39285788,0.28906304
ZBW_1357,79,1,2024-06-20T05:57:39.562Z,english_708.wav,0,0,651,,,,,10,1,-27.01293378,1.49505706
ZBW_1357,79,1,2024-06-20T05:57:39.562Z,english_708.wav,0,0,651,,,,,11,1.09391667,-26.97031791,1.88331259
ZBW_1357,80,1,2024-06-20T05:57:39.562Z,english_726.wav,0,0,607,,,,,0,0,23.35137092,0.15397845
ZBW_1357,80,1,2024-06-20T05:57:39.562Z,english_726.wav,0,0,607,,,,,1,0.1,76.34325819,1.80908671
ZBW_1357,80,1,2024-06-20T05:57:39.562Z,english_726.wav,0,0,607,,,,,2,0.2,77.87153215,0.91237222
ZBW_1357,80,1,2024-06-20T05:57:39.562Z,english_726.wav,0,0,607,,,,,3,0.3,45.89033074,0.3916486
ZBW_1357,80,1,2024-06-20T05:57:39.562Z,english_726.wav,0,0,607,,,,,4,0.4,-92.46008591,1.60354114
ZBW_1357,80,1,2024-06-20T05:57:39.562Z,english_726.wav,0,0,607,,,,,5,0.5,-89.27810563,0.90173572
ZBW_1357,80,1,2024-06-20T05:57:39.562Z,english_726.wav,0,0,607,,,,,6,0.6,61.30206765,1.86939155
ZBW_1357,80,1,2024-06-20T05:57:39.562Z,english_726.wav,0,0,607,,,,,7,0.7,68.07705407,0.57523975
ZBW_1357,80,1,2024-06-20T05:57:39.562Z,english_726.wav,0,0,607,,,,,8,0.8,47.81218941,0.88835081
ZBW_1357,80,1,2024-06-20T05:57:39.562Z,english_726.wav,0,0,607,,,,,9,0.9,85.67647673,0.33175344
ZBW_1357,80,1,2024-06-20T05:57:39.562Z,english_726.wav,0,0,607,,,,,10,1,69.08166842,0.8335266
ZBW_1357,80,1,2024-06-20T05:57:39.562Z,english_726.wav,0,0,607,,,,,11,1.09391667,71.61978118,0.36613886
ZBW_1357,81,1,2024-06-20T05:57:39.562Z,english_598.wav,0,0,798,,,,,0,0,66.59254232,1.11503085
ZBW_1357,81,1,2024-06-20T05:57:39.562Z,english_598.wav,0,0,798,,,,,1,0.1,-0.16294116,1.29891619
ZBW_1357,81,1,2024-06-20T05:57:39.562Z,english_598.wav,0,0,798,,,,,2,0.2,87.91623233,0.04302605
ZBW_1357,81,1,2024-06-20T05:57:39.562Z,english_598.wav,0,0,798,,,,,3,0.3,4.78179149,1.90355783
ZBW_1357,81,1,2024-06-20T05:57:39.562Z,english_598.wav,0,0,798,,,,,4,0.4,87.27330533,0.66957129
ZBW_1357,81,1,2024-06-20T05:57:39.562Z,english_598.wav,0,0,798,,,,,5,0.5,15.94205468,1.28062406
ZBW_1357,81,1,2024-06-20T05:57:39.562Z,english_598.wav,0,0,798,,,,,6,0.6,-57.72302194,0.15067731
ZBW_1357,81,1,2024-06-20T05:57:39.562Z,english_598.wav,0,0,798,,,,,7,0.7,-11.53545195,0.37044447
ZBW_1357,81,1,2024-06-20T05:57:39.562Z,english_598.wav,0,0,798,,,,,8,0.8,-97.23766847,0.00668091
ZBW_1357,81,1,2024-06-20T05:57:39.562Z,english_598.wav,0,0,798,,,,,9,0.9,-89.11050407,1.24076678
ZBW_1357,81,1,2024-06-20T05:57:39.562Z,english_598.wav,0,0,798,,,,,10,1,-7.65193873,0.4751477
ZBW_1357,81,1,2024-06-20T05:57:39.562Z,english_598.wav,0,0,798,,,,,11,1.09391667,-0.117565,1.3589293
ZBW_1357,82,1,2024-06-20T05:57:39.562Z,english_826.wav,0,1,587,,,,,0,0,-48.66820204,0.50881221
ZBW_1357,82,1,2024-06-20T05:57:39.562Z,english_826.wav,0,1,587,,,,,1,0.1,15.87758798,1.7988984
ZBW_1357,82,1,2024-06-20T05:57:39.562Z,english_826.wav,0,1,587,,,,,2,0.2,-81.06156605,0.35571274
ZBW_1357,82,1,2024-06-20T05:57:39.562Z,english_826.wav,0,1,587,,,,,3,0.3,-38.67543271,0.88871824
ZBW_1357,82,1,2024-06-20T05:57:39.562Z,english_826.wav,0,1,587,,,,,4,0.4,8.70050458,0.81611388
ZBW_1357,82,1,2024-06-20T05:57:39.562Z,english_826.wav,0,1,587,,,,,5,0.5,-12.50279128,1.15396637
ZBW_1357,82,1,2024-06-20T05:57:39.562Z,english_826.wav,0,1,587,,,,,6,0.6,53.18940921,0.06242761
ZBW_1357,82,1,2024-06-20T05:57:39.562Z,english_826.wav,0,1,587,,,,,7,0.7,25.51770895,0.35293371
ZBW_1357,82,1,2024-06-20T05:57:39.562Z,english_826.wav,0,1,587,,,,,8,0.8,-2.14290614,1.13493967
ZBW_1357,82,1,2024-06-20T05:57:39.562Z,english_826.wav,0,1,587,,,,,9,0.9,59.43969754,1.56070885
ZBW_1357,82,1,2024-06-20T05:57:39.562Z,english_826.wav,0,1,587,,,,,10,1,36.73554264,1.2686095
ZBW_1357,82,1,2024-06-20T05:57:39.562Z,english_826.wav,0,1,587,,,,,11,1.09391667,99.18694211,1.14436626
ZBW_1357,83,1,2024-06-20T05:57:39.562Z,english_990.wav,0,0,676,,,,,0,0,-41.91954114,1.07016473
ZBW_1357,83,1,2024-06-20T05:57:39.562Z,english_990.wav,0,0,676,,,,,1,0.1,-81.73689018,0.80416299
ZBW_1357,83,1,2024-06-20T05:57:39.562Z,english_990.wav,0,0,676,,,,,2,0.2,-8.6439495,1.27361164
ZBW_1357,83,1,2024-06-20T05:57:39.562Z,english_990.wav,0,0,676,,,,,3,0.3,-35.79468829,0.8357561
ZBW_1357,83,1,2024-06-20T05:57:39.562Z,english_990.wav,0,0,676,,,,,4,0.4,-15.71846635,0.68387575
ZBW_1357,83,1,2024-06-20T05:57:39.562Z,english_990.wav,0,0,676,,,,,5,0.5,30.29696997,0.51659091
ZBW_1357,83,1,2024-06-20T05:57:39.562Z,english_990.wav,0,0,676,,,,,6,0.6,58.5778321,0.86090319
ZBW_1357,83,1,2024-06-20T05:57:39.562Z,english_990.wav,0,0,676,,,,,7,0.7,-55.43771635,1.86495605
ZBW_1357,83,1,2024-06-20T05:57:39.562Z,english_990.wav,0,0,676,,,,,8,0.8,-4.04287403,0.50523281
ZBW_1357,83,1,2024-06-20T05:57:39.562Z,english_990.wav,0,0,676,,,,,9,0.9,96.7741085,0.60576665
ZBW_1357,83,1,2024-06-20T05:57:39.562Z,english_990.wav,0,0,676,,,,,10,1,73.27929718,1.38942897
ZBW_1357,83,1,2024-06-20T05:57:39.562Z,english_990.wav,0,0,676,,,,,11,1.09391667,-50.83652549,0.62697308
ZBW_1357,84,1,2024-06-20T05:57:39.562Z,english_21.wav,0,1,820,,,,,0,0,-92.93238975,1.42780018
ZBW_1357,84,1,2024-06-20T05:57:39.562Z,english_21.wav,0,1,820,,,,,1,0.1,28.88119071,1.12059603
ZBW_1357,84,1,2024-06-20T05:57:39.562Z,english_21.wav,0,1,820,,,,,2,0.2,26.75659422,0.11228596
ZBW_1357,84,1,2024-06-20T05:57:39.562Z,english_21.wav,0,1,820,,,,,3,0.3,84.25033289,1.44253616
ZBW_1357,84,1,2024-06-20T05:57:39.562Z,english_21.wav,0,1,820,,,,,4,0.4,-63.52476529,0.8833185
ZBW_1357,84,1,2024-06-20T05:57:39.562Z,english_21.wav,0,1,820,,,,,5,0.5,17.24927989,1.19555363
ZBW_1357,84,1,2024-06-20T05:57:39.562Z,english_21.wav,0,1,820,,,,,6,0.6,51.24429763,1.82378504
ZBW_1357,84,1,2024-06-20T05:57:39.562Z,english_21.wav,0,1,820,,,,,7,0.7,-49.66599845,0.34338191
ZBW_1357,84,1,2024-06-20T05:57:39.562Z,english_21.wav,0,1,820,,,,,8,0.8,63.10207102,1.63020131
ZBW_1357,84,1,2024-06-20T05:57:39.562Z,english_21.wav,0,1,820,,,,,9,0.9,10.69932434,0.5370763
ZBW_1357,84,1,2024-06-20T05:57:39.562Z,english_21.wav,0,1,820,,,,,10,1,77.88197251,1.08980212
ZBW_1357,84,1,2024-06-20T05:57:39.562Z,english_21.wav,0,1,820,,,,,11,1.09391667,-71.28425317,0.35221603
ZBW_1357,85,1,2024-06-20T05:57:39.562Z,english_600.wav,0,1,466,,,,,0,0,54.02401202,1.74963926
ZBW_1357,85,1,2024-06-20T05:57:39.562Z,english_600.wav,0,1,466,,,,,1,0.1,52.55241108,1.86361288
ZBW_1357,85,1,2024-06-20T05:57:39.562Z,english_600.wav,0,1,466,,,,,2,0.2,-17.52140944,1.08718427
ZBW_1357,85,1,2024-06-20T05:57:39.562Z,english_600.wav,0,1,466,,,,,3,0.3,-39.51158997,1.33817406
ZBW_1357,85,1,2024-06-20T05:57:39.562Z,english_600.wav,0,1,466,,,,,4,0.4,-76.99480414,0.48398336
ZBW_1357,85,1,2024-06-20T05:57:39.562Z,english_600.wav,0,1,466,,,,,5,0.5,-69.00053843,0.58536734
ZBW_1357,85,1,2024-06-20T05:57:39.562Z,english_600.wav,0,1,466,,,,,6,0.6,69.67412094,1.17578893
ZBW_1357,85,1,2024-06-20T05:57:39.562Z,english_600.wav,0,1,466,,,,,7,0.7,42.48437255,1.61345559
ZBW_1357,85,1,2024-06-20T05:57:39.562Z,english_600.wav,0,1,466,,,,,8,0.8,-15.33622164,1.78194792
ZBW_1357,85,1,2024-06-20T05:57:39.562Z,english_600.wav,0,1,466,,,,,9,0.9,-55.53099045,0.88901516
ZBW_1357,85,1,2024-06-20T05:57:39.562Z,english_600.wav,0,1,466,,,,,10,1,-56.79297969,1.65574545
ZBW_1357,85,1,2024-06-20T05:57:39.562Z,english_600.wav,0,1,466,,,,,11,1.09391667,25.01258484,1.81372246
ZBW_1357,86,1,2024-06-20T05:57:39.562Z,english_172.wav,0,0,512,,,,,0,0,-67.89328127,0.87390127
ZBW_1357,86,1,2024-06-20T05:57:39.562Z,english_172.wav,0,0,512,,,,,1,0.1,-98.24711177,0.45073311
ZBW_1357,86,1,2024-06-20T05:57:39.562Z,english_172.wav,0,0,512,,,,,2,0.2,49.39394348,1.74616009
ZBW_1357,86,1,2024-06-20T05:57:39.562Z,english_172.wav,0,0,512,,,,,3,0.3,76.5993294,0.92964788
