subj,trial,block,date,stim,stim_order,response,rt,age,english,language,sex,param_index,segment,pitch,stretch
LYZ,0,0,2024-06-14T05:20:06.699Z,english_216.wav,0,1,24049,21,4,chinese,m,0,0,-40.27379603,1.31885312
LYZ,0,0,2024-06-14T05:20:06.699Z,english_216.wav,0,1,24049,21,4,chinese,m,1,0.1,-9.47472605,1.52413536
LYZ,0,0,2024-06-14T05:20:06.699Z,english_216.wav,0,1,24049,21,4,chinese,m,2,0.2,10.83044308,0.3375517
LYZ,0,0,2024-06-14T05:20:06.699Z,english_216.wav,0,1,24049,21,4,chinese,m,3,0.3,-73.80571365,0.67857864
LYZ,0,0,2024-06-14T05:20:06.699Z,english_216.wav,0,1,24049,21,4,chinese,m,4,0.4,41.89217051,0.9344087
LYZ,0,0,2024-06-14T05:20:06.699Z,english_216.wav,0,1,24049,21,4,chinese,m,5,0.5,-33.36366466,0.89775046
LYZ,0,0,2024-06-14T05:20:06.699Z,english_216.wav,0,1,24049,21,4,chinese,m,6,0.6,-97.24072999,0.74652634
LYZ,0,0,2024-06-14T05:20:06.699Z,english_216.wav,0,1,24049,21,4,chinese,m,7,0.7,-3.36916359,0.00621512
LYZ,0,0,2024-06-14T05:20:06.699Z,english_216.wav,0,1,24049,21,4,chinese,m,8,0.8,-1.27566838,0.72729094
LYZ,0,0,2024-06-14T05:20:06.699Z,english_216.wav,0,1,24049,21,4,chinese,m,9,0.9,29.4346129,1.23180128
LYZ,0,0,2024-06-14T05:20:06.699Z,english_216.wav,0,1,24049,21,4,chinese,m,10,1,96.31719875,0.44193416
LYZ,0,0,2024-06-14T05:20:06.699Z,english_216.wav,0,1,24049,21,4,chinese,m,11,1.09391667,90.69441865,0.08230135
LYZ,1,0,2024-06-14T05:20:06.699Z,english_406.wav,0,1,4106,21,4,chinese,m,0,0,16.41054839,1.82011871
LYZ,1,0,2024-06-14T05:20:06.699Z,english_406.wav,0,1,4106,21,4,chinese,m,1,0.1,-23.44264217,1.5788444
LYZ,1,0,2024-06-14T05:20:06.699Z,english_406.wav,0,1,4106,21,4,chinese,m,2,0.2,67.00437835,0.98241909
LYZ,1,0,2024-06-14T05:20:06.699Z,english_406.wav,0,1,4106,21,4,chinese,m,3,0.3,32.24147439,1.73565394
LYZ,1,0,2024-06-14T05:20:06.699Z,english_406.wav,0,1,4106,21,4,chinese,m,4,0.4,-69.94095423,0.23880913
LYZ,1,0,2024-06-14T05:20:06.699Z,english_406.wav,0,1,4106,21,4,chinese,m,5,0.5,-75.95608649,1.64825439
LYZ,1,0,2024-06-14T05:20:06.699Z,english_406.wav,0,1,4106,21,4,chinese,m,6,0.6,26.64856795,1.51416343
LYZ,1,0,2024-06-14T05:20:06.699Z,english_406.wav,0,1,4106,21,4,chinese,m,7,0.7,28.46707033,0.23765412
LYZ,1,0,2024-06-14T05:20:06.699Z,english_406.wav,0,1,4106,21,4,chinese,m,8,0.8,8.57252797,0.78664096
LYZ,1,0,2024-06-14T05:20:06.699Z,english_406.wav,0,1,4106,21,4,chinese,m,9,0.9,-43.42045484,1.03412093
LYZ,1,0,2024-06-14T05:20:06.699Z,english_406.wav,0,1,4106,21,4,chinese,m,10,1,-38.23728815,1.06202892
LYZ,1,0,2024-06-14T05:20:06.699Z,english_406.wav,0,1,4106,21,4,chinese,m,11,1.09391667,-48.66780803,0.40663901
LYZ,2,0,2024-06-14T05:20:06.699Z,english_665.wav,0,1,2724,21,4,chinese,m,0,0,-16.81613766,1.57148085
LYZ,2,0,2024-06-14T05:20:06.699Z,english_665.wav,0,1,2724,21,4,chinese,m,1,0.1,6.45802089,1.67314542
LYZ,2,0,2024-06-14T05:20:06.699Z,english_665.wav,0,1,2724,21,4,chinese,m,2,0.2,-39.14767358,1.64833963
LYZ,2,0,2024-06-14T05:20:06.699Z,english_665.wav,0,1,2724,21,4,chinese,m,3,0.3,-59.56196692,0.04709433
LYZ,2,0,2024-06-14T05:20:06.699Z,english_665.wav,0,1,2724,21,4,chinese,m,4,0.4,-22.80702259,1.1795503
LYZ,2,0,2024-06-14T05:20:06.699Z,english_665.wav,0,1,2724,21,4,chinese,m,5,0.5,48.84600095,1.10369045
LYZ,2,0,2024-06-14T05:20:06.699Z,english_665.wav,0,1,2724,21,4,chinese,m,6,0.6,-22.22311015,1.02368727
LYZ,2,0,2024-06-14T05:20:06.699Z,english_665.wav,0,1,2724,21,4,chinese,m,7,0.7,-21.08263431,1.75922585
LYZ,2,0,2024-06-14T05:20:06.699Z,english_665.wav,0,1,2724,21,4,chinese,m,8,0.8,-18.22407764,1.40227071
LYZ,2,0,2024-06-14T05:20:06.699Z,english_665.wav,0,1,2724,21,4,chinese,m,9,0.9,-61.53900162,1.50722495
LYZ,2,0,2024-06-14T05:20:06.699Z,english_665.wav,0,1,2724,21,4,chinese,m,10,1,-19.08536635,0.46597225
LYZ,2,0,2024-06-14T05:20:06.699Z,english_665.wav,0,1,2724,21,4,chinese,m,11,1.09391667,-43.46705032,0.63106716
LYZ,3,0,2024-06-14T05:20:06.699Z,english_606.wav,0,1,2371,21,4,chinese,m,0,0,72.77252021,1.14271188
LYZ,3,0,2024-06-14T05:20:06.699Z,english_606.wav,0,1,2371,21,4,chinese,m,1,0.1,22.60713343,1.41897374
LYZ,3,0,2024-06-14T05:20:06.699Z,english_606.wav,0,1,2371,21,4,chinese,m,2,0.2,30.91882808,1.73372854
LYZ,3,0,2024-06-14T05:20:06.699Z,english_606.wav,0,1,2371,21,4,chinese,m,3,0.3,-48.84223864,1.07065865
LYZ,3,0,2024-06-14T05:20:06.699Z,english_606.wav,0,1,2371,21,4,chinese,m,4,0.4,-29.82386042,0.5542197
LYZ,3,0,2024-06-14T05:20:06.699Z,english_606.wav,0,1,2371,21,4,chinese,m,5,0.5,82.48397831,0.65978179
LYZ,3,0,2024-06-14T05:20:06.699Z,english_606.wav,0,1,2371,21,4,chinese,m,6,0.6,-18.49396427,0.64487358
LYZ,3,0,2024-06-14T05:20:06.699Z,english_606.wav,0,1,2371,21,4,chinese,m,7,0.7,26.88567381,1.50533402
LYZ,3,0,2024-06-14T05:20:06.699Z,english_606.wav,0,1,2371,21,4,chinese,m,8,0.8,-18.34346668,1.51615031
LYZ,3,0,2024-06-14T05:20:06.699Z,english_606.wav,0,1,2371,21,4,chinese,m,9,0.9,10.06544583,0.11673085
LYZ,3,0,2024-06-14T05:20:06.699Z,english_606.wav,0,1,2371,21,4,chinese,m,10,1,-89.88083722,0.60775024
LYZ,3,0,2024-06-14T05:20:06.699Z,english_606.wav,0,1,2371,21,4,chinese,m,11,1.09391667,66.64968825,0.13627416
LYZ,4,0,2024-06-14T05:20:06.699Z,english_785.wav,0,0,3714,21,4,chinese,m,0,0,-73.74150429,1.15978121
LYZ,4,0,2024-06-14T05:20:06.699Z,english_785.wav,0,0,3714,21,4,chinese,m,1,0.1,-10.25262424,1.76239803
LYZ,4,0,2024-06-14T05:20:06.699Z,english_785.wav,0,0,3714,21,4,chinese,m,2,0.2,-91.38996228,1.35267709
LYZ,4,0,2024-06-14T05:20:06.699Z,english_785.wav,0,0,3714,21,4,chinese,m,3,0.3,-58.16150792,0.50742704
LYZ,4,0,2024-06-14T05:20:06.699Z,english_785.wav,0,0,3714,21,4,chinese,m,4,0.4,56.13851827,1.43887546
LYZ,4,0,2024-06-14T05:20:06.699Z,english_785.wav,0,0,3714,21,4,chinese,m,5,0.5,-53.87138426,0.30204401
LYZ,4,0,2024-06-14T05:20:06.699Z,english_785.wav,0,0,3714,21,4,chinese,m,6,0.6,-26.51328271,0.04616459
LYZ,4,0,2024-06-14T05:20:06.699Z,english_785.wav,0,0,3714,21,4,chinese,m,7,0.7,38.10109315,0.31028806
LYZ,4,0,2024-06-14T05:20:06.699Z,english_785.wav,0,0,3714,21,4,chinese,m,8,0.8,-52.27058488,1.01215639
LYZ,4,0,2024-06-14T05:20:06.699Z,english_785.wav,0,0,3714,21,4,chinese,m,9,0.9,61.81362114,1.14370061
LYZ,4,0,2024-06-14T05:20:06.699Z,english_785.wav,0,0,3714,21,4,chinese,m,10,1,-48.3420263,1.51703025
LYZ,4,0,2024-06-14T05:20:06.699Z,english_785.wav,0,0,3714,21,4,chinese,m,11,1.09391667,5.55581958,0.02011385
LYZ,5,0,2024-06-14T05:20:06.699Z,english_47.wav,0,1,2071,21,4,chinese,m,0,0,68.198191,0.3166901
LYZ,5,0,2024-06-14T05:20:06.699Z,english_47.wav,0,1,2071,21,4,chinese,m,1,0.1,94.43921987,0.04644968
LYZ,5,0,2024-06-14T05:20:06.699Z,english_47.wav,0,1,2071,21,4,chinese,m,2,0.2,71.99565581,0.20202276
LYZ,5,0,2024-06-14T05:20:06.699Z,english_47.wav,0,1,2071,21,4,chinese,m,3,0.3,-2.50267609,0.13324084
LYZ,5,0,2024-06-14T05:20:06.699Z,english_47.wav,0,1,2071,21,4,chinese,m,4,0.4,-27.23226475,1.85081006
LYZ,5,0,2024-06-14T05:20:06.699Z,english_47.wav,0,1,2071,21,4,chinese,m,5,0.5,-34.1635894,1.50387921
LYZ,5,0,2024-06-14T05:20:06.699Z,english_47.wav,0,1,2071,21,4,chinese,m,6,0.6,-43.16759163,1.62546743
LYZ,5,0,2024-06-14T05:20:06.699Z,english_47.wav,0,1,2071,21,4,chinese,m,7,0.7,-66.57434159,1.04862791
LYZ,5,0,2024-06-14T05:20:06.699Z,english_47.wav,0,1,2071,21,4,chinese,m,8,0.8,28.48495109,1.96555665
LYZ,5,0,2024-06-14T05:20:06.699Z,english_47.wav,0,1,2071,21,4,chinese,m,9,0.9,-2.22339421,1.0927937
LYZ,5,0,2024-06-14T05:20:06.699Z,english_47.wav,0,1,2071,21,4,chinese,m,10,1,-87.95517187,0.42699379
LYZ,5,0,2024-06-14T05:20:06.699Z,english_47.wav,0,1,2071,21,4,chinese,m,11,1.09391667,64.08418893,1.59110451
LYZ,6,0,2024-06-14T05:20:06.699Z,english_356.wav,0,1,1749,21,4,chinese,m,0,0,32.76906958,0.08562483
LYZ,6,0,2024-06-14T05:20:06.699Z,english_356.wav,0,1,1749,21,4,chinese,m,1,0.1,-4.50463472,0.71215991
LYZ,6,0,2024-06-14T05:20:06.699Z,english_356.wav,0,1,1749,21,4,chinese,m,2,0.2,-3.50879641,0.27192591
LYZ,6,0,2024-06-14T05:20:06.699Z,english_356.wav,0,1,1749,21,4,chinese,m,3,0.3,-66.50182595,1.84647675
LYZ,6,0,2024-06-14T05:20:06.699Z,english_356.wav,0,1,1749,21,4,chinese,m,4,0.4,-41.87578379,0.94018547
LYZ,6,0,2024-06-14T05:20:06.699Z,english_356.wav,0,1,1749,21,4,chinese,m,5,0.5,15.06829484,0.35538969
LYZ,6,0,2024-06-14T05:20:06.699Z,english_356.wav,0,1,1749,21,4,chinese,m,6,0.6,-0.09178899,0.67852857
LYZ,6,0,2024-06-14T05:20:06.699Z,english_356.wav,0,1,1749,21,4,chinese,m,7,0.7,-46.92797448,1.60890004
LYZ,6,0,2024-06-14T05:20:06.699Z,english_356.wav,0,1,1749,21,4,chinese,m,8,0.8,77.06532678,0.18175686
LYZ,6,0,2024-06-14T05:20:06.699Z,english_356.wav,0,1,1749,21,4,chinese,m,9,0.9,26.9349071,1.60704056
LYZ,6,0,2024-06-14T05:20:06.699Z,english_356.wav,0,1,1749,21,4,chinese,m,10,1,1.26347583,0.84129373
LYZ,6,0,2024-06-14T05:20:06.699Z,english_356.wav,0,1,1749,21,4,chinese,m,11,1.09391667,-52.5712343,0.27010089
LYZ,7,0,2024-06-14T05:20:06.699Z,english_92.wav,0,0,2267,21,4,chinese,m,0,0,11.31108637,1.92205207
LYZ,7,0,2024-06-14T05:20:06.699Z,english_92.wav,0,0,2267,21,4,chinese,m,1,0.1,68.41269988,0.65302474
LYZ,7,0,2024-06-14T05:20:06.699Z,english_92.wav,0,0,2267,21,4,chinese,m,2,0.2,-5.85446567,1.94520229
LYZ,7,0,2024-06-14T05:20:06.699Z,english_92.wav,0,0,2267,21,4,chinese,m,3,0.3,-56.17314857,1.28044043
LYZ,7,0,2024-06-14T05:20:06.699Z,english_92.wav,0,0,2267,21,4,chinese,m,4,0.4,-61.8847044,0.6978833
LYZ,7,0,2024-06-14T05:20:06.699Z,english_92.wav,0,0,2267,21,4,chinese,m,5,0.5,11.37598658,1.39245958
LYZ,7,0,2024-06-14T05:20:06.699Z,english_92.wav,0,0,2267,21,4,chinese,m,6,0.6,19.4709674,1.41686082
LYZ,7,0,2024-06-14T05:20:06.699Z,english_92.wav,0,0,2267,21,4,chinese,m,7,0.7,-11.82404326,0.26269969
LYZ,7,0,2024-06-14T05:20:06.699Z,english_92.wav,0,0,2267,21,4,chinese,m,8,0.8,-12.10341162,0.56613425
LYZ,7,0,2024-06-14T05:20:06.699Z,english_92.wav,0,0,2267,21,4,chinese,m,9,0.9,2.74595363,0.73944091
LYZ,7,0,2024-06-14T05:20:06.699Z,english_92.wav,0,0,2267,21,4,chinese,m,10,1,41.36202449,1.55048139
LYZ,7,0,2024-06-14T05:20:06.699Z,english_92.wav,0,0,2267,21,4,chinese,m,11,1.09391667,-69.11430068,1.16346143
LYZ,8,0,2024-06-14T05:20:06.699Z,english_929.wav,0,1,2240,21,4,chinese,m,0,0,-18.74393268,1.03205893
LYZ,8,0,2024-06-14T05:20:06.699Z,english_929.wav,0,1,2240,21,4,chinese,m,1,0.1,33.5098218,1.56324899
LYZ,8,0,2024-06-14T05:20:06.699Z,english_929.wav,0,1,2240,21,4,chinese,m,2,0.2,-29.94782209,1.48903241
LYZ,8,0,2024-06-14T05:20:06.699Z,english_929.wav,0,1,2240,21,4,chinese,m,3,0.3,-33.25977884,0.12654912
LYZ,8,0,2024-06-14T05:20:06.699Z,english_929.wav,0,1,2240,21,4,chinese,m,4,0.4,-9.01985938,0.84484029
LYZ,8,0,2024-06-14T05:20:06.699Z,english_929.wav,0,1,2240,21,4,chinese,m,5,0.5,-82.73987875,0.94715121
LYZ,8,0,2024-06-14T05:20:06.699Z,english_929.wav,0,1,2240,21,4,chinese,m,6,0.6,48.07587241,1.69154368
LYZ,8,0,2024-06-14T05:20:06.699Z,english_929.wav,0,1,2240,21,4,chinese,m,7,0.7,-43.15088987,0.81126675
LYZ,8,0,2024-06-14T05:20:06.699Z,english_929.wav,0,1,2240,21,4,chinese,m,8,0.8,82.92488977,0.36905029
LYZ,8,0,2024-06-14T05:20:06.699Z,english_929.wav,0,1,2240,21,4,chinese,m,9,0.9,-60.38444868,0.50874334
LYZ,8,0,2024-06-14T05:20:06.699Z,english_929.wav,0,1,2240,21,4,chinese,m,10,1,27.71416794,0.95284967
LYZ,8,0,2024-06-14T05:20:06.699Z,english_929.wav,0,1,2240,21,4,chinese,m,11,1.09391667,21.92497573,0.65099343
LYZ,9,0,2024-06-14T05:20:06.699Z,english_487.wav,0,1,1437,21,4,chinese,m,0,0,83.9506825,1.20569128
LYZ,9,0,2024-06-14T05:20:06.699Z,english_487.wav,0,1,1437,21,4,chinese,m,1,0.1,-73.0195282,0.75422979
LYZ,9,0,2024-06-14T05:20:06.699Z,english_487.wav,0,1,1437,21,4,chinese,m,2,0.2,98.61971221,0.70340278
LYZ,9,0,2024-06-14T05:20:06.699Z,english_487.wav,0,1,1437,21,4,chinese,m,3,0.3,66.30731889,1.25861502
LYZ,9,0,2024-06-14T05:20:06.699Z,english_487.wav,0,1,1437,21,4,chinese,m,4,0.4,22.93795287,1.76994668
LYZ,9,0,2024-06-14T05:20:06.699Z,english_487.wav,0,1,1437,21,4,chinese,m,5,0.5,-81.70494499,1.09959608
LYZ,9,0,2024-06-14T05:20:06.699Z,english_487.wav,0,1,1437,21,4,chinese,m,6,0.6,-70.3149209,1.93360086
LYZ,9,0,2024-06-14T05:20:06.699Z,english_487.wav,0,1,1437,21,4,chinese,m,7,0.7,-54.70127166,0.32077076
LYZ,9,0,2024-06-14T05:20:06.699Z,english_487.wav,0,1,1437,21,4,chinese,m,8,0.8,-60.23299302,0.62494976
LYZ,9,0,2024-06-14T05:20:06.699Z,english_487.wav,0,1,1437,21,4,chinese,m,9,0.9,90.25511794,1.062642
LYZ,9,0,2024-06-14T05:20:06.699Z,english_487.wav,0,1,1437,21,4,chinese,m,10,1,63.36569824,1.45529395
LYZ,9,0,2024-06-14T05:20:06.699Z,english_487.wav,0,1,1437,21,4,chinese,m,11,1.09391667,47.37946456,1.97435305
LYZ,10,0,2024-06-14T05:20:06.699Z,english_59.wav,0,0,1513,21,4,chinese,m,0,0,13.6818357,1.39102809
LYZ,10,0,2024-06-14T05:20:06.699Z,english_59.wav,0,0,1513,21,4,chinese,m,1,0.1,-62.28772111,1.7641323
LYZ,10,0,2024-06-14T05:20:06.699Z,english_59.wav,0,0,1513,21,4,chinese,m,2,0.2,49.12418905,1.93370096
LYZ,10,0,2024-06-14T05:20:06.699Z,english_59.wav,0,0,1513,21,4,chinese,m,3,0.3,-11.37021527,1.41546104
LYZ,10,0,2024-06-14T05:20:06.699Z,english_59.wav,0,0,1513,21,4,chinese,m,4,0.4,-54.18333873,1.8712645
LYZ,10,0,2024-06-14T05:20:06.699Z,english_59.wav,0,0,1513,21,4,chinese,m,5,0.5,89.00177849,1.58142361
LYZ,10,0,2024-06-14T05:20:06.699Z,english_59.wav,0,0,1513,21,4,chinese,m,6,0.6,-39.13145847,1.31038649
LYZ,10,0,2024-06-14T05:20:06.699Z,english_59.wav,0,0,1513,21,4,chinese,m,7,0.7,-8.40184911,1.79881342
LYZ,10,0,2024-06-14T05:20:06.699Z,english_59.wav,0,0,1513,21,4,chinese,m,8,0.8,-34.91016987,0.00761053
LYZ,10,0,2024-06-14T05:20:06.699Z,english_59.wav,0,0,1513,21,4,chinese,m,9,0.9,92.47037208,0.77279167
LYZ,10,0,2024-06-14T05:20:06.699Z,english_59.wav,0,0,1513,21,4,chinese,m,10,1,91.56160698,0.86326769
LYZ,10,0,2024-06-14T05:20:06.699Z,english_59.wav,0,0,1513,21,4,chinese,m,11,1.09391667,-64.52293265,1.19458968
LYZ,11,0,2024-06-14T05:20:06.699Z,english_334.wav,0,1,3677,21,4,chinese,m,0,0,96.16486857,1.13651221
LYZ,11,0,2024-06-14T05:20:06.699Z,english_334.wav,0,1,3677,21,4,chinese,m,1,0.1,-86.51500024,1.49269335
LYZ,11,0,2024-06-14T05:20:06.699Z,english_334.wav,0,1,3677,21,4,chinese,m,2,0.2,-9.37257187,0.61460927
LYZ,11,0,2024-06-14T05:20:06.699Z,english_334.wav,0,1,3677,21,4,chinese,m,3,0.3,72.06266942,0.5407499
LYZ,11,0,2024-06-14T05:20:06.699Z,english_334.wav,0,1,3677,21,4,chinese,m,4,0.4,11.10798007,1.09788414
LYZ,11,0,2024-06-14T05:20:06.699Z,english_334.wav,0,1,3677,21,4,chinese,m,5,0.5,-81.04621106,1.18897069
LYZ,11,0,2024-06-14T05:20:06.699Z,english_334.wav,0,1,3677,21,4,chinese,m,6,0.6,-50.80034191,1.05502288
LYZ,11,0,2024-06-14T05:20:06.699Z,english_334.wav,0,1,3677,21,4,chinese,m,7,0.7,40.96771285,1.84226931
LYZ,11,0,2024-06-14T05:20:06.699Z,english_334.wav,0,1,3677,21,4,chinese,m,8,0.8,92.51105292,0.15122728
LYZ,11,0,2024-06-14T05:20:06.699Z,english_334.wav,0,1,3677,21,4,chinese,m,9,0.9,6.87694398,1.31717853
LYZ,11,0,2024-06-14T05:20:06.699Z,english_334.wav,0,1,3677,21,4,chinese,m,10,1,8.2337815,0.71137381
LYZ,11,0,2024-06-14T05:20:06.699Z,english_334.wav,0,1,3677,21,4,chinese,m,11,1.09391667,-26.51950547,0.47666491
LYZ,12,0,2024-06-14T05:20:06.699Z,english_807.wav,0,1,1609,21,4,chinese,m,0,0,-34.7601745,1.20965337
LYZ,12,0,2024-06-14T05:20:06.699Z,english_807.wav,0,1,1609,21,4,chinese,m,1,0.1,33.36048689,1.65563234
LYZ,12,0,2024-06-14T05:20:06.699Z,english_807.wav,0,1,1609,21,4,chinese,m,2,0.2,-67.67370502,1.59964516
LYZ,12,0,2024-06-14T05:20:06.699Z,english_807.wav,0,1,1609,21,4,chinese,m,3,0.3,-75.303265,0.1616649
LYZ,12,0,2024-06-14T05:20:06.699Z,english_807.wav,0,1,1609,21,4,chinese,m,4,0.4,50.02795893,0.65690397
LYZ,12,0,2024-06-14T05:20:06.699Z,english_807.wav,0,1,1609,21,4,chinese,m,5,0.5,-86.15237501,1.06047173
LYZ,12,0,2024-06-14T05:20:06.699Z,english_807.wav,0,1,1609,21,4,chinese,m,6,0.6,75.95576156,1.33167503
LYZ,12,0,2024-06-14T05:20:06.699Z,english_807.wav,0,1,1609,21,4,chinese,m,7,0.7,90.49040763,0.49356808
LYZ,12,0,2024-06-14T05:20:06.699Z,english_807.wav,0,1,1609,21,4,chinese,m,8,0.8,-21.66303016,0.55567292
LYZ,12,0,2024-06-14T05:20:06.699Z,english_807.wav,0,1,1609,21,4,chinese,m,9,0.9,-29.03621191,1.52247069
LYZ,12,0,2024-06-14T05:20:06.699Z,english_807.wav,0,1,1609,21,4,chinese,m,10,1,-43.10401298,1.04125391
LYZ,12,0,2024-06-14T05:20:06.699Z,english_807.wav,0,1,1609,21,4,chinese,m,11,1.09391667,15.25709301,0.73437953
LYZ,13,0,2024-06-14T05:20:06.699Z,english_928.wav,0,1,1630,21,4,chinese,m,0,0,10.59611368,0.70098124
LYZ,13,0,2024-06-14T05:20:06.699Z,english_928.wav,0,1,1630,21,4,chinese,m,1,0.1,-58.33970814,0.81482125
LYZ,13,0,2024-06-14T05:20:06.699Z,english_928.wav,0,1,1630,21,4,chinese,m,2,0.2,48.21332553,0.85809581
LYZ,13,0,2024-06-14T05:20:06.699Z,english_928.wav,0,1,1630,21,4,chinese,m,3,0.3,8.01473442,1.28695487
LYZ,13,0,2024-06-14T05:20:06.699Z,english_928.wav,0,1,1630,21,4,chinese,m,4,0.4,1.23446692,0.84694823
LYZ,13,0,2024-06-14T05:20:06.699Z,english_928.wav,0,1,1630,21,4,chinese,m,5,0.5,75.4888235,0.86088631
LYZ,13,0,2024-06-14T05:20:06.699Z,english_928.wav,0,1,1630,21,4,chinese,m,6,0.6,-71.96113636,0.91068844
LYZ,13,0,2024-06-14T05:20:06.699Z,english_928.wav,0,1,1630,21,4,chinese,m,7,0.7,-73.39552856,1.800813
LYZ,13,0,2024-06-14T05:20:06.699Z,english_928.wav,0,1,1630,21,4,chinese,m,8,0.8,-33.53378549,0.14082097
LYZ,13,0,2024-06-14T05:20:06.699Z,english_928.wav,0,1,1630,21,4,chinese,m,9,0.9,1.07873632,0.95279098
LYZ,13,0,2024-06-14T05:20:06.699Z,english_928.wav,0,1,1630,21,4,chinese,m,10,1,58.06405964,0.96841151
LYZ,13,0,2024-06-14T05:20:06.699Z,english_928.wav,0,1,1630,21,4,chinese,m,11,1.09391667,15.92112733,0.90966091
LYZ,14,0,2024-06-14T05:20:06.699Z,english_82.wav,0,1,977,21,4,chinese,m,0,0,-50.65944843,0.53695405
LYZ,14,0,2024-06-14T05:20:06.699Z,english_82.wav,0,1,977,21,4,chinese,m,1,0.1,-8.30198342,1.68823048
LYZ,14,0,2024-06-14T05:20:06.699Z,english_82.wav,0,1,977,21,4,chinese,m,2,0.2,28.238309,0.29560695
LYZ,14,0,2024-06-14T05:20:06.699Z,english_82.wav,0,1,977,21,4,chinese,m,3,0.3,-35.80408689,0.83443164
LYZ,14,0,2024-06-14T05:20:06.699Z,english_82.wav,0,1,977,21,4,chinese,m,4,0.4,80.50699914,0.87894934
LYZ,14,0,2024-06-14T05:20:06.699Z,english_82.wav,0,1,977,21,4,chinese,m,5,0.5,-99.69979401,1.46703122
LYZ,14,0,2024-06-14T05:20:06.699Z,english_82.wav,0,1,977,21,4,chinese,m,6,0.6,30.38876845,0.23248639
LYZ,14,0,2024-06-14T05:20:06.699Z,english_82.wav,0,1,977,21,4,chinese,m,7,0.7,-2.76434691,1.71572221
LYZ,14,0,2024-06-14T05:20:06.699Z,english_82.wav,0,1,977,21,4,chinese,m,8,0.8,-19.59960586,1.24729907
LYZ,14,0,2024-06-14T05:20:06.699Z,english_82.wav,0,1,977,21,4,chinese,m,9,0.9,-93.26966696,0.75753981
LYZ,14,0,2024-06-14T05:20:06.699Z,english_82.wav,0,1,977,21,4,chinese,m,10,1,64.56379815,1.65214627
LYZ,14,0,2024-06-14T05:20:06.699Z,english_82.wav,0,1,977,21,4,chinese,m,11,1.09391667,-59.79308705,0.40383656
LYZ,15,0,2024-06-14T05:20:06.699Z,english_199.wav,0,1,775,21,4,chinese,m,0,0,11.88199512,1.7718025
LYZ,15,0,2024-06-14T05:20:06.699Z,english_199.wav,0,1,775,21,4,chinese,m,1,0.1,-46.96504702,0.76735149
LYZ,15,0,2024-06-14T05:20:06.699Z,english_199.wav,0,1,775,21,4,chinese,m,2,0.2,91.54002169,1.87614546
LYZ,15,0,2024-06-14T05:20:06.699Z,english_199.wav,0,1,775,21,4,chinese,m,3,0.3,99.89394598,1.34343154
LYZ,15,0,2024-06-14T05:20:06.699Z,english_199.wav,0,1,775,21,4,chinese,m,4,0.4,-50.70673656,1.06602126
LYZ,15,0,2024-06-14T05:20:06.699Z,english_199.wav,0,1,775,21,4,chinese,m,5,0.5,3.76891672,0.62776747
LYZ,15,0,2024-06-14T05:20:06.699Z,english_199.wav,0,1,775,21,4,chinese,m,6,0.6,96.91424304,1.16622983
LYZ,15,0,2024-06-14T05:20:06.699Z,english_199.wav,0,1,775,21,4,chinese,m,7,0.7,-8.03082423,0.99062008
LYZ,15,0,2024-06-14T05:20:06.699Z,english_199.wav,0,1,775,21,4,chinese,m,8,0.8,10.21194857,0.73939337
LYZ,15,0,2024-06-14T05:20:06.699Z,english_199.wav,0,1,775,21,4,chinese,m,9,0.9,73.92851664,0.60539997
LYZ,15,0,2024-06-14T05:20:06.699Z,english_199.wav,0,1,775,21,4,chinese,m,10,1,29.02383929,1.28070052
LYZ,15,0,2024-06-14T05:20:06.699Z,english_199.wav,0,1,775,21,4,chinese,m,11,1.09391667,-91.13840346,0.2785568
LYZ,16,0,2024-06-14T05:20:06.699Z,english_616.wav,0,1,1352,21,4,chinese,m,0,0,-58.43899918,1.31887323
LYZ,16,0,2024-06-14T05:20:06.699Z,english_616.wav,0,1,1352,21,4,chinese,m,1,0.1,91.54551443,1.19326366
LYZ,16,0,2024-06-14T05:20:06.699Z,english_616.wav,0,1,1352,21,4,chinese,m,2,0.2,-72.76331238,1.15507306
LYZ,16,0,2024-06-14T05:20:06.699Z,english_616.wav,0,1,1352,21,4,chinese,m,3,0.3,98.66983591,1.15408068
LYZ,16,0,2024-06-14T05:20:06.699Z,english_616.wav,0,1,1352,21,4,chinese,m,4,0.4,30.89695447,1.80966351
LYZ,16,0,2024-06-14T05:20:06.699Z,english_616.wav,0,1,1352,21,4,chinese,m,5,0.5,95.21036015,0.8568389
LYZ,16,0,2024-06-14T05:20:06.699Z,english_616.wav,0,1,1352,21,4,chinese,m,6,0.6,38.34251154,0.52507159
LYZ,16,0,2024-06-14T05:20:06.699Z,english_616.wav,0,1,1352,21,4,chinese,m,7,0.7,53.37022057,1.38987598
LYZ,16,0,2024-06-14T05:20:06.699Z,english_616.wav,0,1,1352,21,4,chinese,m,8,0.8,64.27718414,1.91003383
LYZ,16,0,2024-06-14T05:20:06.699Z,english_616.wav,0,1,1352,21,4,chinese,m,9,0.9,-47.15745764,1.62420327
LYZ,16,0,2024-06-14T05:20:06.699Z,english_616.wav,0,1,1352,21,4,chinese,m,10,1,61.31789033,1.95831122
LYZ,16,0,2024-06-14T05:20:06.699Z,english_616.wav,0,1,1352,21,4,chinese,m,11,1.09391667,-28.29544228,0.95794745
LYZ,17,0,2024-06-14T05:20:06.699Z,english_293.wav,0,1,2210,21,4,chinese,m,0,0,-41.6717185,1.35571263
LYZ,17,0,2024-06-14T05:20:06.699Z,english_293.wav,0,1,2210,21,4,chinese,m,1,0.1,80.2291893,0.51147984
LYZ,17,0,2024-06-14T05:20:06.699Z,english_293.wav,0,1,2210,21,4,chinese,m,2,0.2,-71.0140068,0.41951934
LYZ,17,0,2024-06-14T05:20:06.699Z,english_293.wav,0,1,2210,21,4,chinese,m,3,0.3,-90.64066123,0.6442562
LYZ,17,0,2024-06-14T05:20:06.699Z,english_293.wav,0,1,2210,21,4,chinese,m,4,0.4,-6.53332233,0.98522539
LYZ,17,0,2024-06-14T05:20:06.699Z,english_293.wav,0,1,2210,21,4,chinese,m,5,0.5,-9.32979117,0.92132945
LYZ,17,0,2024-06-14T05:20:06.699Z,english_293.wav,0,1,2210,21,4,chinese,m,6,0.6,53.89735235,1.4753131
LYZ,17,0,2024-06-14T05:20:06.699Z,english_293.wav,0,1,2210,21,4,chinese,m,7,0.7,-63.4364313,0.11499708
LYZ,17,0,2024-06-14T05:20:06.699Z,english_293.wav,0,1,2210,21,4,chinese,m,8,0.8,-96.19547901,1.03841664
LYZ,17,0,2024-06-14T05:20:06.699Z,english_293.wav,0,1,2210,21,4,chinese,m,9,0.9,-36.41686224,1.94583411
LYZ,17,0,2024-06-14T05:20:06.699Z,english_293.wav,0,1,2210,21,4,chinese,m,10,1,99.46412477,0.65545153
LYZ,17,0,2024-06-14T05:20:06.699Z,english_293.wav,0,1,2210,21,4,chinese,m,11,1.09391667,17.36040502,1.59979165
LYZ,18,0,2024-06-14T05:20:06.699Z,english_129.wav,0,1,2312,21,4,chinese,m,0,0,-44.56015923,0.4294496
LYZ,18,0,2024-06-14T05:20:06.699Z,english_129.wav,0,1,2312,21,4,chinese,m,1,0.1,-58.7339049,1.17691203
LYZ,18,0,2024-06-14T05:20:06.699Z,english_129.wav,0,1,2312,21,4,chinese,m,2,0.2,4.64427176,0.00792795
LYZ,18,0,2024-06-14T05:20:06.699Z,english_129.wav,0,1,2312,21,4,chinese,m,3,0.3,36.13533526,1.62066926
LYZ,18,0,2024-06-14T05:20:06.699Z,english_129.wav,0,1,2312,21,4,chinese,m,4,0.4,49.60525777,0.46131477
LYZ,18,0,2024-06-14T05:20:06.699Z,english_129.wav,0,1,2312,21,4,chinese,m,5,0.5,66.06381969,0.9562515
LYZ,18,0,2024-06-14T05:20:06.699Z,english_129.wav,0,1,2312,21,4,chinese,m,6,0.6,-22.87129592,0.58790942
LYZ,18,0,2024-06-14T05:20:06.699Z,english_129.wav,0,1,2312,21,4,chinese,m,7,0.7,88.56170171,0.99020247
LYZ,18,0,2024-06-14T05:20:06.699Z,english_129.wav,0,1,2312,21,4,chinese,m,8,0.8,17.84118116,0.9945804
LYZ,18,0,2024-06-14T05:20:06.699Z,english_129.wav,0,1,2312,21,4,chinese,m,9,0.9,-28.77319114,1.36695424
LYZ,18,0,2024-06-14T05:20:06.699Z,english_129.wav,0,1,2312,21,4,chinese,m,10,1,86.03376827,0.72564016
LYZ,18,0,2024-06-14T05:20:06.699Z,english_129.wav,0,1,2312,21,4,chinese,m,11,1.09391667,39.56098905,1.15202696
LYZ,19,0,2024-06-14T05:20:06.699Z,english_875.wav,0,1,3743,21,4,chinese,m,0,0,96.8338791,1.90969426
LYZ,19,0,2024-06-14T05:20:06.699Z,english_875.wav,0,1,3743,21,4,chinese,m,1,0.1,37.68794022,1.00034929
LYZ,19,0,2024-06-14T05:20:06.699Z,english_875.wav,0,1,3743,21,4,chinese,m,2,0.2,13.97824571,1.17763903
LYZ,19,0,2024-06-14T05:20:06.699Z,english_875.wav,0,1,3743,21,4,chinese,m,3,0.3,18.96990702,0.35889427
LYZ,19,0,2024-06-14T05:20:06.699Z,english_875.wav,0,1,3743,21,4,chinese,m,4,0.4,63.2084655,0.91300026
LYZ,19,0,2024-06-14T05:20:06.699Z,english_875.wav,0,1,3743,21,4,chinese,m,5,0.5,-98.93629382,1.19226844
LYZ,19,0,2024-06-14T05:20:06.699Z,english_875.wav,0,1,3743,21,4,chinese,m,6,0.6,81.29612198,1.44163348
LYZ,19,0,2024-06-14T05:20:06.699Z,english_875.wav,0,1,3743,21,4,chinese,m,7,0.7,50.14728488,1.08588615
LYZ,19,0,2024-06-14T05:20:06.699Z,english_875.wav,0,1,3743,21,4,chinese,m,8,0.8,13.48666865,1.80200416
LYZ,19,0,2024-06-14T05:20:06.699Z,english_875.wav,0,1,3743,21,4,chinese,m,9,0.9,9.04770509,0.81736325
LYZ,19,0,2024-06-14T05:20:06.699Z,english_875.wav,0,1,3743,21,4,chinese,m,10,1,37.35188663,1.15050925
LYZ,19,0,2024-06-14T05:20:06.699Z,english_875.wav,0,1,3743,21,4,chinese,m,11,1.09391667,68.7171347,1.96049823
LYZ,20,0,2024-06-14T05:20:06.699Z,english_227.wav,0,1,2056,21,4,chinese,m,0,0,87.02540196,1.45120071
LYZ,20,0,2024-06-14T05:20:06.699Z,english_227.wav,0,1,2056,21,4,chinese,m,1,0.1,-87.16855408,1.99718195
LYZ,20,0,2024-06-14T05:20:06.699Z,english_227.wav,0,1,2056,21,4,chinese,m,2,0.2,13.6128173,0.6126104
LYZ,20,0,2024-06-14T05:20:06.699Z,english_227.wav,0,1,2056,21,4,chinese,m,3,0.3,25.59592298,0.97530447
LYZ,20,0,2024-06-14T05:20:06.699Z,english_227.wav,0,1,2056,21,4,chinese,m,4,0.4,3.06661623,1.74861281
LYZ,20,0,2024-06-14T05:20:06.699Z,english_227.wav,0,1,2056,21,4,chinese,m,5,0.5,-6.41872275,1.95931784
LYZ,20,0,2024-06-14T05:20:06.699Z,english_227.wav,0,1,2056,21,4,chinese,m,6,0.6,-40.97922684,1.44262054
LYZ,20,0,2024-06-14T05:20:06.699Z,english_227.wav,0,1,2056,21,4,chinese,m,7,0.7,-51.74632522,0.76385193
LYZ,20,0,2024-06-14T05:20:06.699Z,english_227.wav,0,1,2056,21,4,chinese,m,8,0.8,-35.50720635,0.83123806
LYZ,20,0,2024-06-14T05:20:06.699Z,english_227.wav,0,1,2056,21,4,chinese,m,9,0.9,-52.46041148,1.0121191
LYZ,20,0,2024-06-14T05:20:06.699Z,english_227.wav,0,1,2056,21,4,chinese,m,10,1,-5.55255579,1.39124165
LYZ,20,0,2024-06-14T05:20:06.699Z,english_227.wav,0,1,2056,21,4,chinese,m,11,1.09391667,92.65490635,1.37791309
LYZ,21,0,2024-06-14T05:20:06.699Z,english_393.wav,0,1,4960,21,4,chinese,m,0,0,-58.74313134,0.16237212
LYZ,21,0,2024-06-14T05:20:06.699Z,english_393.wav,0,1,4960,21,4,chinese,m,1,0.1,46.38152714,1.56085016
LYZ,21,0,2024-06-14T05:20:06.699Z,english_393.wav,0,1,4960,21,4,chinese,m,2,0.2,-5.44961594,0.52643067
LYZ,21,0,2024-06-14T05:20:06.699Z,english_393.wav,0,1,4960,21,4,chinese,m,3,0.3,51.05560406,0.88104135
LYZ,21,0,2024-06-14T05:20:06.699Z,english_393.wav,0,1,4960,21,4,chinese,m,4,0.4,48.86629046,0.28565075
LYZ,21,0,2024-06-14T05:20:06.699Z,english_393.wav,0,1,4960,21,4,chinese,m,5,0.5,-0.66798529,1.31813369
LYZ,21,0,2024-06-14T05:20:06.699Z,english_393.wav,0,1,4960,21,4,chinese,m,6,0.6,8.72000336,1.65879699
LYZ,21,0,2024-06-14T05:20:06.699Z,english_393.wav,0,1,4960,21,4,chinese,m,7,0.7,67.13946978,1.88209371
LYZ,21,0,2024-06-14T05:20:06.699Z,english_393.wav,0,1,4960,21,4,chinese,m,8,0.8,18.17496414,0.89524583
LYZ,21,0,2024-06-14T05:20:06.699Z,english_393.wav,0,1,4960,21,4,chinese,m,9,0.9,-78.16206847,0.64742398
LYZ,21,0,2024-06-14T05:20:06.699Z,english_393.wav,0,1,4960,21,4,chinese,m,10,1,26.35406132,0.57671432
LYZ,21,0,2024-06-14T05:20:06.699Z,english_393.wav,0,1,4960,21,4,chinese,m,11,1.09391667,94.49751902,1.24089852
LYZ,22,0,2024-06-14T05:20:06.699Z,english_244.wav,0,1,3042,21,4,chinese,m,0,0,-16.89000739,1.36645613
LYZ,22,0,2024-06-14T05:20:06.699Z,english_244.wav,0,1,3042,21,4,chinese,m,1,0.1,13.88621899,0.22689892
LYZ,22,0,2024-06-14T05:20:06.699Z,english_244.wav,0,1,3042,21,4,chinese,m,2,0.2,19.5320734,0.7498897
LYZ,22,0,2024-06-14T05:20:06.699Z,english_244.wav,0,1,3042,21,4,chinese,m,3,0.3,77.5555311,0.5439009
LYZ,22,0,2024-06-14T05:20:06.699Z,english_244.wav,0,1,3042,21,4,chinese,m,4,0.4,-1.54182751,1.43453656
LYZ,22,0,2024-06-14T05:20:06.699Z,english_244.wav,0,1,3042,21,4,chinese,m,5,0.5,-50.64945855,1.75844179
LYZ,22,0,2024-06-14T05:20:06.699Z,english_244.wav,0,1,3042,21,4,chinese,m,6,0.6,-35.36321005,1.54599597
LYZ,22,0,2024-06-14T05:20:06.699Z,english_244.wav,0,1,3042,21,4,chinese,m,7,0.7,-43.62157267,0.6923522
LYZ,22,0,2024-06-14T05:20:06.699Z,english_244.wav,0,1,3042,21,4,chinese,m,8,0.8,3.96205992,0.7002794
LYZ,22,0,2024-06-14T05:20:06.699Z,english_244.wav,0,1,3042,21,4,chinese,m,9,0.9,54.24324678,1.06972568
LYZ,22,0,2024-06-14T05:20:06.699Z,english_244.wav,0,1,3042,21,4,chinese,m,10,1,76.68152807,1.30720641
LYZ,22,0,2024-06-14T05:20:06.699Z,english_244.wav,0,1,3042,21,4,chinese,m,11,1.09391667,-97.15661366,0.50703606
LYZ,23,0,2024-06-14T05:20:06.699Z,english_554.wav,0,1,4803,21,4,chinese,m,0,0,68.06713434,1.26196428
LYZ,23,0,2024-06-14T05:20:06.699Z,english_554.wav,0,1,4803,21,4,chinese,m,1,0.1,51.53363243,1.49608983
LYZ,23,0,2024-06-14T05:20:06.699Z,english_554.wav,0,1,4803,21,4,chinese,m,2,0.2,96.79789275,1.01925431
LYZ,23,0,2024-06-14T05:20:06.699Z,english_554.wav,0,1,4803,21,4,chinese,m,3,0.3,-32.97805092,1.27259864
LYZ,23,0,2024-06-14T05:20:06.699Z,english_554.wav,0,1,4803,21,4,chinese,m,4,0.4,38.32175517,0.99325409
LYZ,23,0,2024-06-14T05:20:06.699Z,english_554.wav,0,1,4803,21,4,chinese,m,5,0.5,-48.79684279,1.83296218
LYZ,23,0,2024-06-14T05:20:06.699Z,english_554.wav,0,1,4803,21,4,chinese,m,6,0.6,6.57101052,1.99419824
LYZ,23,0,2024-06-14T05:20:06.699Z,english_554.wav,0,1,4803,21,4,chinese,m,7,0.7,30.34426539,1.31395906
LYZ,23,0,2024-06-14T05:20:06.699Z,english_554.wav,0,1,4803,21,4,chinese,m,8,0.8,57.10485473,1.83167901
LYZ,23,0,2024-06-14T05:20:06.699Z,english_554.wav,0,1,4803,21,4,chinese,m,9,0.9,-93.21826179,1.93422624
LYZ,23,0,2024-06-14T05:20:06.699Z,english_554.wav,0,1,4803,21,4,chinese,m,10,1,58.97430912,1.62256756
LYZ,23,0,2024-06-14T05:20:06.699Z,english_554.wav,0,1,4803,21,4,chinese,m,11,1.09391667,32.65345188,0.90589094
LYZ,24,0,2024-06-14T05:20:06.699Z,english_847.wav,0,1,3161,21,4,chinese,m,0,0,-73.89717539,1.8490528
LYZ,24,0,2024-06-14T05:20:06.699Z,english_847.wav,0,1,3161,21,4,chinese,m,1,0.1,58.2279035,0.78071375
LYZ,24,0,2024-06-14T05:20:06.699Z,english_847.wav,0,1,3161,21,4,chinese,m,2,0.2,-6.95336522,0.52277753
LYZ,24,0,2024-06-14T05:20:06.699Z,english_847.wav,0,1,3161,21,4,chinese,m,3,0.3,-22.95480777,0.58053559
LYZ,24,0,2024-06-14T05:20:06.699Z,english_847.wav,0,1,3161,21,4,chinese,m,4,0.4,52.90135008,1.88784757
LYZ,24,0,2024-06-14T05:20:06.699Z,english_847.wav,0,1,3161,21,4,chinese,m,5,0.5,-46.75765643,0.24672534
LYZ,24,0,2024-06-14T05:20:06.699Z,english_847.wav,0,1,3161,21,4,chinese,m,6,0.6,30.49472427,0.03480907
LYZ,24,0,2024-06-14T05:20:06.699Z,english_847.wav,0,1,3161,21,4,chinese,m,7,0.7,-69.71037967,1.27028129
LYZ,24,0,2024-06-14T05:20:06.699Z,english_847.wav,0,1,3161,21,4,chinese,m,8,0.8,-58.62690345,0.5771855
LYZ,24,0,2024-06-14T05:20:06.699Z,english_847.wav,0,1,3161,21,4,chinese,m,9,0.9,-33.68489601,1.71334453
LYZ,24,0,2024-06-14T05:20:06.699Z,english_847.wav,0,1,3161,21,4,chinese,m,10,1,-73.6486263,0.92032767
LYZ,24,0,2024-06-14T05:20:06.699Z,english_847.wav,0,1,3161,21,4,chinese,m,11,1.09391667,-82.9712864,0.36606921
LYZ,25,0,2024-06-14T05:20:06.699Z,english_991.wav,0,1,7851,21,4,chinese,m,0,0,-1.1896089,1.11058757
LYZ,25,0,2024-06-14T05:20:06.699Z,english_991.wav,0,1,7851,21,4,chinese,m,1,0.1,-96.26402249,0.1672209
LYZ,25,0,2024-06-14T05:20:06.699Z,english_991.wav,0,1,7851,21,4,chinese,m,2,0.2,35.13230964,1.95155766
LYZ,25,0,2024-06-14T05:20:06.699Z,english_991.wav,0,1,7851,21,4,chinese,m,3,0.3,16.47291022,0.04651437
LYZ,25,0,2024-06-14T05:20:06.699Z,english_991.wav,0,1,7851,21,4,chinese,m,4,0.4,-88.97016612,1.74859016
LYZ,25,0,2024-06-14T05:20:06.699Z,english_991.wav,0,1,7851,21,4,chinese,m,5,0.5,-18.26917978,1.4122656
LYZ,25,0,2024-06-14T05:20:06.699Z,english_991.wav,0,1,7851,21,4,chinese,m,6,0.6,-86.44611587,0.52281086
LYZ,25,0,2024-06-14T05:20:06.699Z,english_991.wav,0,1,7851,21,4,chinese,m,7,0.7,-23.18394533,1.29572944
LYZ,25,0,2024-06-14T05:20:06.699Z,english_991.wav,0,1,7851,21,4,chinese,m,8,0.8,-34.88810698,1.11115335
LYZ,25,0,2024-06-14T05:20:06.699Z,english_991.wav,0,1,7851,21,4,chinese,m,9,0.9,58.2484142,1.29146841
LYZ,25,0,2024-06-14T05:20:06.699Z,english_991.wav,0,1,7851,21,4,chinese,m,10,1,13.64122516,1.37847477
LYZ,25,0,2024-06-14T05:20:06.699Z,english_991.wav,0,1,7851,21,4,chinese,m,11,1.09391667,-13.61979163,0.12249008
LYZ,26,0,2024-06-14T05:20:06.699Z,english_81.wav,0,1,1192,21,4,chinese,m,0,0,71.09666265,1.09569192
LYZ,26,0,2024-06-14T05:20:06.699Z,english_81.wav,0,1,1192,21,4,chinese,m,1,0.1,-38.93956525,1.65684188
LYZ,26,0,2024-06-14T05:20:06.699Z,english_81.wav,0,1,1192,21,4,chinese,m,2,0.2,-48.61950395,0.44216952
LYZ,26,0,2024-06-14T05:20:06.699Z,english_81.wav,0,1,1192,21,4,chinese,m,3,0.3,33.39514041,1.72758961
LYZ,26,0,2024-06-14T05:20:06.699Z,english_81.wav,0,1,1192,21,4,chinese,m,4,0.4,18.24180048,1.46257927
LYZ,26,0,2024-06-14T05:20:06.699Z,english_81.wav,0,1,1192,21,4,chinese,m,5,0.5,-45.85953695,1.53730542
LYZ,26,0,2024-06-14T05:20:06.699Z,english_81.wav,0,1,1192,21,4,chinese,m,6,0.6,-0.32699599,1.28818555
LYZ,26,0,2024-06-14T05:20:06.699Z,english_81.wav,0,1,1192,21,4,chinese,m,7,0.7,-32.78716597,1.19414744
LYZ,26,0,2024-06-14T05:20:06.699Z,english_81.wav,0,1,1192,21,4,chinese,m,8,0.8,-37.9267269,1.01923165
LYZ,26,0,2024-06-14T05:20:06.699Z,english_81.wav,0,1,1192,21,4,chinese,m,9,0.9,24.21331247,1.67441048
LYZ,26,0,2024-06-14T05:20:06.699Z,english_81.wav,0,1,1192,21,4,chinese,m,10,1,-31.33871225,1.88948336
LYZ,26,0,2024-06-14T05:20:06.699Z,english_81.wav,0,1,1192,21,4,chinese,m,11,1.09391667,-77.74283174,1.81428343
LYZ,27,0,2024-06-14T05:20:06.699Z,english_23.wav,0,1,3135,21,4,chinese,m,0,0,-81.37820874,0.766267
LYZ,27,0,2024-06-14T05:20:06.699Z,english_23.wav,0,1,3135,21,4,chinese,m,1,0.1,78.5335862,0.99963617
LYZ,27,0,2024-06-14T05:20:06.699Z,english_23.wav,0,1,3135,21,4,chinese,m,2,0.2,2.49490295,0.86356333
LYZ,27,0,2024-06-14T05:20:06.699Z,english_23.wav,0,1,3135,21,4,chinese,m,3,0.3,-86.79579175,1.2935249
LYZ,27,0,2024-06-14T05:20:06.699Z,english_23.wav,0,1,3135,21,4,chinese,m,4,0.4,67.70163639,1.06200742
LYZ,27,0,2024-06-14T05:20:06.699Z,english_23.wav,0,1,3135,21,4,chinese,m,5,0.5,15.95354821,0.35652914
LYZ,27,0,2024-06-14T05:20:06.699Z,english_23.wav,0,1,3135,21,4,chinese,m,6,0.6,39.96363373,0.94623028
LYZ,27,0,2024-06-14T05:20:06.699Z,english_23.wav,0,1,3135,21,4,chinese,m,7,0.7,26.12658962,1.75391992
LYZ,27,0,2024-06-14T05:20:06.699Z,english_23.wav,0,1,3135,21,4,chinese,m,8,0.8,-97.91039736,0.51382587
LYZ,27,0,2024-06-14T05:20:06.699Z,english_23.wav,0,1,3135,21,4,chinese,m,9,0.9,-31.02807756,0.42089134
LYZ,27,0,2024-06-14T05:20:06.699Z,english_23.wav,0,1,3135,21,4,chinese,m,10,1,-20.21947661,0.35251111
LYZ,27,0,2024-06-14T05:20:06.699Z,english_23.wav,0,1,3135,21,4,chinese,m,11,1.09391667,-62.16065677,0.28724109
LYZ,28,0,2024-06-14T05:20:06.699Z,english_304.wav,0,1,3343,21,4,chinese,m,0,0,96.43315713,1.4273089
LYZ,28,0,2024-06-14T05:20:06.699Z,english_304.wav,0,1,3343,21,4,chinese,m,1,0.1,95.93138412,1.40169358
LYZ,28,0,2024-06-14T05:20:06.699Z,english_304.wav,0,1,3343,21,4,chinese,m,2,0.2,65.83383482,1.37134036
LYZ,28,0,2024-06-14T05:20:06.699Z,english_304.wav,0,1,3343,21,4,chinese,m,3,0.3,84.09537744,0.09577365
LYZ,28,0,2024-06-14T05:20:06.699Z,english_304.wav,0,1,3343,21,4,chinese,m,4,0.4,-66.2474925,1.82897854
LYZ,28,0,2024-06-14T05:20:06.699Z,english_304.wav,0,1,3343,21,4,chinese,m,5,0.5,93.4095627,0.08231512
LYZ,28,0,2024-06-14T05:20:06.699Z,english_304.wav,0,1,3343,21,4,chinese,m,6,0.6,-1.11643,0.16260787
LYZ,28,0,2024-06-14T05:20:06.699Z,english_304.wav,0,1,3343,21,4,chinese,m,7,0.7,-9.86041812,1.3997004
LYZ,28,0,2024-06-14T05:20:06.699Z,english_304.wav,0,1,3343,21,4,chinese,m,8,0.8,-26.38054207,0.11489059
LYZ,28,0,2024-06-14T05:20:06.699Z,english_304.wav,0,1,3343,21,4,chinese,m,9,0.9,9.25483922,1.90722294
LYZ,28,0,2024-06-14T05:20:06.699Z,english_304.wav,0,1,3343,21,4,chinese,m,10,1,-76.37569973,1.30374267
LYZ,28,0,2024-06-14T05:20:06.699Z,english_304.wav,0,1,3343,21,4,chinese,m,11,1.09391667,-10.54226117,1.55839178
LYZ,29,0,2024-06-14T05:20:06.699Z,english_687.wav,0,1,1891,21,4,chinese,m,0,0,-35.70290508,1.44721002
LYZ,29,0,2024-06-14T05:20:06.699Z,english_687.wav,0,1,1891,21,4,chinese,m,1,0.1,96.19930643,1.66446564
LYZ,29,0,2024-06-14T05:20:06.699Z,english_687.wav,0,1,1891,21,4,chinese,m,2,0.2,-16.32623685,0.17388823
LYZ,29,0,2024-06-14T05:20:06.699Z,english_687.wav,0,1,1891,21,4,chinese,m,3,0.3,69.01262748,0.9756111
LYZ,29,0,2024-06-14T05:20:06.699Z,english_687.wav,0,1,1891,21,4,chinese,m,4,0.4,-86.96335793,0.75788852
LYZ,29,0,2024-06-14T05:20:06.699Z,english_687.wav,0,1,1891,21,4,chinese,m,5,0.5,-94.81036094,1.04245625
LYZ,29,0,2024-06-14T05:20:06.699Z,english_687.wav,0,1,1891,21,4,chinese,m,6,0.6,24.28115893,0.94679533
LYZ,29,0,2024-06-14T05:20:06.699Z,english_687.wav,0,1,1891,21,4,chinese,m,7,0.7,-73.50271946,1.98988769
LYZ,29,0,2024-06-14T05:20:06.699Z,english_687.wav,0,1,1891,21,4,chinese,m,8,0.8,-67.86786343,1.9531078
LYZ,29,0,2024-06-14T05:20:06.699Z,english_687.wav,0,1,1891,21,4,chinese,m,9,0.9,-59.44479717,1.90267124
LYZ,29,0,2024-06-14T05:20:06.699Z,english_687.wav,0,1,1891,21,4,chinese,m,10,1,0.72231801,1.17236586
LYZ,29,0,2024-06-14T05:20:06.699Z,english_687.wav,0,1,1891,21,4,chinese,m,11,1.09391667,-0.70049857,1.47850695
LYZ,30,0,2024-06-14T05:20:06.699Z,english_632.wav,0,1,3106,21,4,chinese,m,0,0,54.27416022,0.37224575
LYZ,30,0,2024-06-14T05:20:06.699Z,english_632.wav,0,1,3106,21,4,chinese,m,1,0.1,37.10784124,1.19176423
LYZ,30,0,2024-06-14T05:20:06.699Z,english_632.wav,0,1,3106,21,4,chinese,m,2,0.2,-11.42343802,1.11602641
LYZ,30,0,2024-06-14T05:20:06.699Z,english_632.wav,0,1,3106,21,4,chinese,m,3,0.3,83.07683271,0.86319718
LYZ,30,0,2024-06-14T05:20:06.699Z,english_632.wav,0,1,3106,21,4,chinese,m,4,0.4,-41.86230003,1.45181299
LYZ,30,0,2024-06-14T05:20:06.699Z,english_632.wav,0,1,3106,21,4,chinese,m,5,0.5,-65.18909296,0.00810665
LYZ,30,0,2024-06-14T05:20:06.699Z,english_632.wav,0,1,3106,21,4,chinese,m,6,0.6,73.88921211,1.82551729
LYZ,30,0,2024-06-14T05:20:06.699Z,english_632.wav,0,1,3106,21,4,chinese,m,7,0.7,-78.27421644,0.97441054
LYZ,30,0,2024-06-14T05:20:06.699Z,english_632.wav,0,1,3106,21,4,chinese,m,8,0.8,-55.91875918,1.38456518
LYZ,30,0,2024-06-14T05:20:06.699Z,english_632.wav,0,1,3106,21,4,chinese,m,9,0.9,38.52779866,1.39025004
LYZ,30,0,2024-06-14T05:20:06.699Z,english_632.wav,0,1,3106,21,4,chinese,m,10,1,-63.00995407,0.73323837
LYZ,30,0,2024-06-14T05:20:06.699Z,english_632.wav,0,1,3106,21,4,chinese,m,11,1.09391667,-47.01105768,1.12337895
LYZ,31,0,2024-06-14T05:20:06.699Z,english_79.wav,0,1,2064,21,4,chinese,m,0,0,27.97817784,0.84571494
LYZ,31,0,2024-06-14T05:20:06.699Z,english_79.wav,0,1,2064,21,4,chinese,m,1,0.1,71.46944993,1.27709221
LYZ,31,0,2024-06-14T05:20:06.699Z,english_79.wav,0,1,2064,21,4,chinese,m,2,0.2,89.05489336,1.27075812
LYZ,31,0,2024-06-14T05:20:06.699Z,english_79.wav,0,1,2064,21,4,chinese,m,3,0.3,-19.05433113,1.99746898
LYZ,31,0,2024-06-14T05:20:06.699Z,english_79.wav,0,1,2064,21,4,chinese,m,4,0.4,-69.45960299,0.86632135
LYZ,31,0,2024-06-14T05:20:06.699Z,english_79.wav,0,1,2064,21,4,chinese,m,5,0.5,73.78187689,1.18439274
LYZ,31,0,2024-06-14T05:20:06.699Z,english_79.wav,0,1,2064,21,4,chinese,m,6,0.6,45.30424973,0.05743494
LYZ,31,0,2024-06-14T05:20:06.699Z,english_79.wav,0,1,2064,21,4,chinese,m,7,0.7,-12.3964906,1.88609771
LYZ,31,0,2024-06-14T05:20:06.699Z,english_79.wav,0,1,2064,21,4,chinese,m,8,0.8,-6.65615849,1.07546111
LYZ,31,0,2024-06-14T05:20:06.699Z,english_79.wav,0,1,2064,21,4,chinese,m,9,0.9,20.78943027,0.97034818
LYZ,31,0,2024-06-14T05:20:06.699Z,english_79.wav,0,1,2064,21,4,chinese,m,10,1,-67.05166292,0.94663039
LYZ,31,0,2024-06-14T05:20:06.699Z,english_79.wav,0,1,2064,21,4,chinese,m,11,1.09391667,-53.62396235,0.1925317
LYZ,32,0,2024-06-14T05:20:06.699Z,english_116.wav,0,1,3454,21,4,chinese,m,0,0,-9.55497422,1.40906913
LYZ,32,0,2024-06-14T05:20:06.699Z,english_116.wav,0,1,3454,21,4,chinese,m,1,0.1,49.93536879,1.01406047
LYZ,32,0,2024-06-14T05:20:06.699Z,english_116.wav,0,1,3454,21,4,chinese,m,2,0.2,-79.25579082,0.11711084
LYZ,32,0,2024-06-14T05:20:06.699Z,english_116.wav,0,1,3454,21,4,chinese,m,3,0.3,-36.23152563,0.60671403
LYZ,32,0,2024-06-14T05:20:06.699Z,english_116.wav,0,1,3454,21,4,chinese,m,4,0.4,-13.54411706,0.84673882
LYZ,32,0,2024-06-14T05:20:06.699Z,english_116.wav,0,1,3454,21,4,chinese,m,5,0.5,94.79003248,0.4711221
LYZ,32,0,2024-06-14T05:20:06.699Z,english_116.wav,0,1,3454,21,4,chinese,m,6,0.6,82.07262677,0.05184022
LYZ,32,0,2024-06-14T05:20:06.699Z,english_116.wav,0,1,3454,21,4,chinese,m,7,0.7,34.20482138,0.25033894
LYZ,32,0,2024-06-14T05:20:06.699Z,english_116.wav,0,1,3454,21,4,chinese,m,8,0.8,-57.39554956,0.57212798
LYZ,32,0,2024-06-14T05:20:06.699Z,english_116.wav,0,1,3454,21,4,chinese,m,9,0.9,74.8891327,0.83139931
LYZ,32,0,2024-06-14T05:20:06.699Z,english_116.wav,0,1,3454,21,4,chinese,m,10,1,25.67722271,0.9159615
LYZ,32,0,2024-06-14T05:20:06.699Z,english_116.wav,0,1,3454,21,4,chinese,m,11,1.09391667,39.70859054,1.32229157
LYZ,33,0,2024-06-14T05:20:06.699Z,english_194.wav,0,1,1845,21,4,chinese,m,0,0,56.78701541,1.42004802
LYZ,33,0,2024-06-14T05:20:06.699Z,english_194.wav,0,1,1845,21,4,chinese,m,1,0.1,-17.75053988,0.01035796
LYZ,33,0,2024-06-14T05:20:06.699Z,english_194.wav,0,1,1845,21,4,chinese,m,2,0.2,33.25886054,1.01435424
LYZ,33,0,2024-06-14T05:20:06.699Z,english_194.wav,0,1,1845,21,4,chinese,m,3,0.3,-36.30427417,0.10390295
LYZ,33,0,2024-06-14T05:20:06.699Z,english_194.wav,0,1,1845,21,4,chinese,m,4,0.4,87.2538064,0.79219746
LYZ,33,0,2024-06-14T05:20:06.699Z,english_194.wav,0,1,1845,21,4,chinese,m,5,0.5,-35.38798336,0.28919857
LYZ,33,0,2024-06-14T05:20:06.699Z,english_194.wav,0,1,1845,21,4,chinese,m,6,0.6,-16.86822867,1.14065301
LYZ,33,0,2024-06-14T05:20:06.699Z,english_194.wav,0,1,1845,21,4,chinese,m,7,0.7,3.74513195,1.55329947
LYZ,33,0,2024-06-14T05:20:06.699Z,english_194.wav,0,1,1845,21,4,chinese,m,8,0.8,-97.03953589,1.8735666
LYZ,33,0,2024-06-14T05:20:06.699Z,english_194.wav,0,1,1845,21,4,chinese,m,9,0.9,-34.95000954,1.68004219
LYZ,33,0,2024-06-14T05:20:06.699Z,english_194.wav,0,1,1845,21,4,chinese,m,10,1,41.79469937,0.7970796
LYZ,33,0,2024-06-14T05:20:06.699Z,english_194.wav,0,1,1845,21,4,chinese,m,11,1.09391667,-99.09961294,1.89727803
LYZ,34,0,2024-06-14T05:20:06.699Z,english_510.wav,0,1,3546,21,4,chinese,m,0,0,-64.82277941,1.74799884
LYZ,34,0,2024-06-14T05:20:06.699Z,english_510.wav,0,1,3546,21,4,chinese,m,1,0.1,67.50018906,1.7328265
LYZ,34,0,2024-06-14T05:20:06.699Z,english_510.wav,0,1,3546,21,4,chinese,m,2,0.2,83.11599323,1.53243167
LYZ,34,0,2024-06-14T05:20:06.699Z,english_510.wav,0,1,3546,21,4,chinese,m,3,0.3,-40.68058334,0.93226309
LYZ,34,0,2024-06-14T05:20:06.699Z,english_510.wav,0,1,3546,21,4,chinese,m,4,0.4,-20.66274727,0.97994595
LYZ,34,0,2024-06-14T05:20:06.699Z,english_510.wav,0,1,3546,21,4,chinese,m,5,0.5,57.39601347,1.11050562
LYZ,34,0,2024-06-14T05:20:06.699Z,english_510.wav,0,1,3546,21,4,chinese,m,6,0.6,26.65395964,0.07038292
LYZ,34,0,2024-06-14T05:20:06.699Z,english_510.wav,0,1,3546,21,4,chinese,m,7,0.7,-1.22309803,0.34804353
LYZ,34,0,2024-06-14T05:20:06.699Z,english_510.wav,0,1,3546,21,4,chinese,m,8,0.8,91.87113136,1.43252604
LYZ,34,0,2024-06-14T05:20:06.699Z,english_510.wav,0,1,3546,21,4,chinese,m,9,0.9,59.67411659,0.49156131
LYZ,34,0,2024-06-14T05:20:06.699Z,english_510.wav,0,1,3546,21,4,chinese,m,10,1,9.25675614,0.83882448
LYZ,34,0,2024-06-14T05:20:06.699Z,english_510.wav,0,1,3546,21,4,chinese,m,11,1.09391667,-85.2659012,1.33145629
LYZ,35,0,2024-06-14T05:20:06.699Z,english_569.wav,0,1,3218,21,4,chinese,m,0,0,80.86242067,1.33421849
LYZ,35,0,2024-06-14T05:20:06.699Z,english_569.wav,0,1,3218,21,4,chinese,m,1,0.1,-36.85440805,1.5057291
LYZ,35,0,2024-06-14T05:20:06.699Z,english_569.wav,0,1,3218,21,4,chinese,m,2,0.2,55.48604093,1.7838276
LYZ,35,0,2024-06-14T05:20:06.699Z,english_569.wav,0,1,3218,21,4,chinese,m,3,0.3,-32.48832212,0.34502948
LYZ,35,0,2024-06-14T05:20:06.699Z,english_569.wav,0,1,3218,21,4,chinese,m,4,0.4,34.47022209,1.33242051
LYZ,35,0,2024-06-14T05:20:06.699Z,english_569.wav,0,1,3218,21,4,chinese,m,5,0.5,23.79827115,0.68239412
LYZ,35,0,2024-06-14T05:20:06.699Z,english_569.wav,0,1,3218,21,4,chinese,m,6,0.6,-29.60411728,1.41145095
LYZ,35,0,2024-06-14T05:20:06.699Z,english_569.wav,0,1,3218,21,4,chinese,m,7,0.7,-3.34902879,0.70703372
LYZ,35,0,2024-06-14T05:20:06.699Z,english_569.wav,0,1,3218,21,4,chinese,m,8,0.8,-24.14207397,0.57539158
LYZ,35,0,2024-06-14T05:20:06.699Z,english_569.wav,0,1,3218,21,4,chinese,m,9,0.9,49.40170215,1.31553206
LYZ,35,0,2024-06-14T05:20:06.699Z,english_569.wav,0,1,3218,21,4,chinese,m,10,1,34.30113072,0.57675215
LYZ,35,0,2024-06-14T05:20:06.699Z,english_569.wav,0,1,3218,21,4,chinese,m,11,1.09391667,-89.06013863,1.91555697
LYZ,36,0,2024-06-14T05:20:06.699Z,english_100.wav,0,1,1629,21,4,chinese,m,0,0,-24.42637315,0.62540921
LYZ,36,0,2024-06-14T05:20:06.699Z,english_100.wav,0,1,1629,21,4,chinese,m,1,0.1,47.77288594,1.22625666
LYZ,36,0,2024-06-14T05:20:06.699Z,english_100.wav,0,1,1629,21,4,chinese,m,2,0.2,-50.36782497,1.26348183
LYZ,36,0,2024-06-14T05:20:06.699Z,english_100.wav,0,1,1629,21,4,chinese,m,3,0.3,2.2842979,0.25528387
LYZ,36,0,2024-06-14T05:20:06.699Z,english_100.wav,0,1,1629,21,4,chinese,m,4,0.4,-15.6809061,0.91288523
LYZ,36,0,2024-06-14T05:20:06.699Z,english_100.wav,0,1,1629,21,4,chinese,m,5,0.5,12.92206519,1.75475855
LYZ,36,0,2024-06-14T05:20:06.699Z,english_100.wav,0,1,1629,21,4,chinese,m,6,0.6,58.2816769,1.62969237
LYZ,36,0,2024-06-14T05:20:06.699Z,english_100.wav,0,1,1629,21,4,chinese,m,7,0.7,48.23099815,0.00541247
LYZ,36,0,2024-06-14T05:20:06.699Z,english_100.wav,0,1,1629,21,4,chinese,m,8,0.8,-72.65138159,0.94746335
LYZ,36,0,2024-06-14T05:20:06.699Z,english_100.wav,0,1,1629,21,4,chinese,m,9,0.9,22.56578389,0.25544392
LYZ,36,0,2024-06-14T05:20:06.699Z,english_100.wav,0,1,1629,21,4,chinese,m,10,1,5.8175855,1.63729526
LYZ,36,0,2024-06-14T05:20:06.699Z,english_100.wav,0,1,1629,21,4,chinese,m,11,1.09391667,54.85953581,1.97415754
LYZ,37,0,2024-06-14T05:20:06.699Z,english_366.wav,0,1,2516,21,4,chinese,m,0,0,-51.97670193,0.41387665
LYZ,37,0,2024-06-14T05:20:06.699Z,english_366.wav,0,1,2516,21,4,chinese,m,1,0.1,-66.3802986,1.82440093
LYZ,37,0,2024-06-14T05:20:06.699Z,english_366.wav,0,1,2516,21,4,chinese,m,2,0.2,-43.44577517,1.51666721
LYZ,37,0,2024-06-14T05:20:06.699Z,english_366.wav,0,1,2516,21,4,chinese,m,3,0.3,-27.66745881,0.79221573
LYZ,37,0,2024-06-14T05:20:06.699Z,english_366.wav,0,1,2516,21,4,chinese,m,4,0.4,-24.71146446,1.07358208
LYZ,37,0,2024-06-14T05:20:06.699Z,english_366.wav,0,1,2516,21,4,chinese,m,5,0.5,7.18823907,0.88629464
LYZ,37,0,2024-06-14T05:20:06.699Z,english_366.wav,0,1,2516,21,4,chinese,m,6,0.6,-1.04467208,1.421231
LYZ,37,0,2024-06-14T05:20:06.699Z,english_366.wav,0,1,2516,21,4,chinese,m,7,0.7,-90.31563808,0.93675223
LYZ,37,0,2024-06-14T05:20:06.699Z,english_366.wav,0,1,2516,21,4,chinese,m,8,0.8,-10.23526275,1.47759882
LYZ,37,0,2024-06-14T05:20:06.699Z,english_366.wav,0,1,2516,21,4,chinese,m,9,0.9,47.79218582,1.29623614
LYZ,37,0,2024-06-14T05:20:06.699Z,english_366.wav,0,1,2516,21,4,chinese,m,10,1,3.55736556,1.92903866
LYZ,37,0,2024-06-14T05:20:06.699Z,english_366.wav,0,1,2516,21,4,chinese,m,11,1.09391667,-83.88061388,1.30968338
LYZ,38,0,2024-06-14T05:20:06.699Z,english_411.wav,0,1,2485,21,4,chinese,m,0,0,-19.70973195,0.11468893
LYZ,38,0,2024-06-14T05:20:06.699Z,english_411.wav,0,1,2485,21,4,chinese,m,1,0.1,35.06337641,1.30305137
LYZ,38,0,2024-06-14T05:20:06.699Z,english_411.wav,0,1,2485,21,4,chinese,m,2,0.2,-47.07660398,1.23342094
LYZ,38,0,2024-06-14T05:20:06.699Z,english_411.wav,0,1,2485,21,4,chinese,m,3,0.3,-98.68669902,0.59067951
LYZ,38,0,2024-06-14T05:20:06.699Z,english_411.wav,0,1,2485,21,4,chinese,m,4,0.4,2.91607837,0.74798004
LYZ,38,0,2024-06-14T05:20:06.699Z,english_411.wav,0,1,2485,21,4,chinese,m,5,0.5,-8.99732851,0.55407034
LYZ,38,0,2024-06-14T05:20:06.699Z,english_411.wav,0,1,2485,21,4,chinese,m,6,0.6,57.60803457,1.68778529
LYZ,38,0,2024-06-14T05:20:06.699Z,english_411.wav,0,1,2485,21,4,chinese,m,7,0.7,1.53142899,0.22674115
LYZ,38,0,2024-06-14T05:20:06.699Z,english_411.wav,0,1,2485,21,4,chinese,m,8,0.8,-32.18919875,0.93004634
LYZ,38,0,2024-06-14T05:20:06.699Z,english_411.wav,0,1,2485,21,4,chinese,m,9,0.9,-92.02235415,1.85827411
LYZ,38,0,2024-06-14T05:20:06.699Z,english_411.wav,0,1,2485,21,4,chinese,m,10,1,33.72578798,0.07029884
LYZ,38,0,2024-06-14T05:20:06.699Z,english_411.wav,0,1,2485,21,4,chinese,m,11,1.09391667,81.16053662,1.14058722
LYZ,39,0,2024-06-14T05:20:06.699Z,english_808.wav,0,0,3179,21,4,chinese,m,0,0,-54.51930087,0.8777304
LYZ,39,0,2024-06-14T05:20:06.699Z,english_808.wav,0,0,3179,21,4,chinese,m,1,0.1,-81.0495762,1.15782472
LYZ,39,0,2024-06-14T05:20:06.699Z,english_808.wav,0,0,3179,21,4,chinese,m,2,0.2,4.70470679,1.67617188
LYZ,39,0,2024-06-14T05:20:06.699Z,english_808.wav,0,0,3179,21,4,chinese,m,3,0.3,56.77475896,0.46785173
LYZ,39,0,2024-06-14T05:20:06.699Z,english_808.wav,0,0,3179,21,4,chinese,m,4,0.4,-45.19313698,1.34598798
LYZ,39,0,2024-06-14T05:20:06.699Z,english_808.wav,0,0,3179,21,4,chinese,m,5,0.5,-12.85220206,1.21107636
LYZ,39,0,2024-06-14T05:20:06.699Z,english_808.wav,0,0,3179,21,4,chinese,m,6,0.6,-3.64494866,0.33957231
LYZ,39,0,2024-06-14T05:20:06.699Z,english_808.wav,0,0,3179,21,4,chinese,m,7,0.7,-54.59560116,1.78675234
LYZ,39,0,2024-06-14T05:20:06.699Z,english_808.wav,0,0,3179,21,4,chinese,m,8,0.8,62.80587621,0.41874976
LYZ,39,0,2024-06-14T05:20:06.699Z,english_808.wav,0,0,3179,21,4,chinese,m,9,0.9,41.76195467,0.58154764
LYZ,39,0,2024-06-14T05:20:06.699Z,english_808.wav,0,0,3179,21,4,chinese,m,10,1,59.57414533,1.87307122
LYZ,39,0,2024-06-14T05:20:06.699Z,english_808.wav,0,0,3179,21,4,chinese,m,11,1.09391667,-81.82049826,0.91565949
LYZ,40,0,2024-06-14T05:20:06.699Z,english_655.wav,0,1,4551,21,4,chinese,m,0,0,-90.05217159,1.15438405
LYZ,40,0,2024-06-14T05:20:06.699Z,english_655.wav,0,1,4551,21,4,chinese,m,1,0.1,-51.53203878,1.12188764
LYZ,40,0,2024-06-14T05:20:06.699Z,english_655.wav,0,1,4551,21,4,chinese,m,2,0.2,-18.56413276,0.95676367
LYZ,40,0,2024-06-14T05:20:06.699Z,english_655.wav,0,1,4551,21,4,chinese,m,3,0.3,-32.31488117,0.61420414
LYZ,40,0,2024-06-14T05:20:06.699Z,english_655.wav,0,1,4551,21,4,chinese,m,4,0.4,49.43339315,0.76264188
LYZ,40,0,2024-06-14T05:20:06.699Z,english_655.wav,0,1,4551,21,4,chinese,m,5,0.5,-67.53322914,1.45400352
LYZ,40,0,2024-06-14T05:20:06.699Z,english_655.wav,0,1,4551,21,4,chinese,m,6,0.6,90.11454302,0.06830652
LYZ,40,0,2024-06-14T05:20:06.699Z,english_655.wav,0,1,4551,21,4,chinese,m,7,0.7,98.57977716,0.91955523
LYZ,40,0,2024-06-14T05:20:06.699Z,english_655.wav,0,1,4551,21,4,chinese,m,8,0.8,29.43352269,0.33519017
LYZ,40,0,2024-06-14T05:20:06.699Z,english_655.wav,0,1,4551,21,4,chinese,m,9,0.9,91.08820104,0.7797243
LYZ,40,0,2024-06-14T05:20:06.699Z,english_655.wav,0,1,4551,21,4,chinese,m,10,1,-3.70059628,1.01878467
LYZ,40,0,2024-06-14T05:20:06.699Z,english_655.wav,0,1,4551,21,4,chinese,m,11,1.09391667,30.30784512,1.55349389
LYZ,41,0,2024-06-14T05:20:06.699Z,english_707.wav,0,1,2384,21,4,chinese,m,0,0,7.00891716,0.72720076
LYZ,41,0,2024-06-14T05:20:06.699Z,english_707.wav,0,1,2384,21,4,chinese,m,1,0.1,74.96034683,1.51197727
LYZ,41,0,2024-06-14T05:20:06.699Z,english_707.wav,0,1,2384,21,4,chinese,m,2,0.2,-68.0333814,0.14777377
LYZ,41,0,2024-06-14T05:20:06.699Z,english_707.wav,0,1,2384,21,4,chinese,m,3,0.3,58.29848436,0.12739287
LYZ,41,0,2024-06-14T05:20:06.699Z,english_707.wav,0,1,2384,21,4,chinese,m,4,0.4,-84.31982667,0.76569704
LYZ,41,0,2024-06-14T05:20:06.699Z,english_707.wav,0,1,2384,21,4,chinese,m,5,0.5,35.8298309,0.136889
LYZ,41,0,2024-06-14T05:20:06.699Z,english_707.wav,0,1,2384,21,4,chinese,m,6,0.6,-38.90477455,1.7747503
LYZ,41,0,2024-06-14T05:20:06.699Z,english_707.wav,0,1,2384,21,4,chinese,m,7,0.7,82.66036962,1.07544151
LYZ,41,0,2024-06-14T05:20:06.699Z,english_707.wav,0,1,2384,21,4,chinese,m,8,0.8,-14.24432163,1.02550143
LYZ,41,0,2024-06-14T05:20:06.699Z,english_707.wav,0,1,2384,21,4,chinese,m,9,0.9,25.44052546,1.01640219
LYZ,41,0,2024-06-14T05:20:06.699Z,english_707.wav,0,1,2384,21,4,chinese,m,10,1,-83.90842928,0.78720721
LYZ,41,0,2024-06-14T05:20:06.699Z,english_707.wav,0,1,2384,21,4,chinese,m,11,1.09391667,-32.29890156,1.33640167
LYZ,42,0,2024-06-14T05:20:06.699Z,english_611.wav,0,1,2665,21,4,chinese,m,0,0,-44.03154286,0.78645575
LYZ,42,0,2024-06-14T05:20:06.699Z,english_611.wav,0,1,2665,21,4,chinese,m,1,0.1,43.53292368,1.64980838
LYZ,42,0,2024-06-14T05:20:06.699Z,english_611.wav,0,1,2665,21,4,chinese,m,2,0.2,-39.32029451,0.9179457
LYZ,42,0,2024-06-14T05:20:06.699Z,english_611.wav,0,1,2665,21,4,chinese,m,3,0.3,56.48937501,1.56943765
LYZ,42,0,2024-06-14T05:20:06.699Z,english_611.wav,0,1,2665,21,4,chinese,m,4,0.4,79.97019062,0.89618619
LYZ,42,0,2024-06-14T05:20:06.699Z,english_611.wav,0,1,2665,21,4,chinese,m,5,0.5,-25.23129683,1.22477339
LYZ,42,0,2024-06-14T05:20:06.699Z,english_611.wav,0,1,2665,21,4,chinese,m,6,0.6,14.98640169,1.05903803
LYZ,42,0,2024-06-14T05:20:06.699Z,english_611.wav,0,1,2665,21,4,chinese,m,7,0.7,23.2049895,0.37835505
LYZ,42,0,2024-06-14T05:20:06.699Z,english_611.wav,0,1,2665,21,4,chinese,m,8,0.8,-71.91072082,1.6139649
LYZ,42,0,2024-06-14T05:20:06.699Z,english_611.wav,0,1,2665,21,4,chinese,m,9,0.9,-47.29216682,1.9176564
LYZ,42,0,2024-06-14T05:20:06.699Z,english_611.wav,0,1,2665,21,4,chinese,m,10,1,71.77208334,1.62142696
LYZ,42,0,2024-06-14T05:20:06.699Z,english_611.wav,0,1,2665,21,4,chinese,m,11,1.09391667,-64.89664383,1.10334919
LYZ,43,0,2024-06-14T05:20:06.699Z,english_954.wav,0,1,2033,21,4,chinese,m,0,0,-5.86860432,0.02682789
LYZ,43,0,2024-06-14T05:20:06.699Z,english_954.wav,0,1,2033,21,4,chinese,m,1,0.1,38.42724969,1.50907573
LYZ,43,0,2024-06-14T05:20:06.699Z,english_954.wav,0,1,2033,21,4,chinese,m,2,0.2,83.51680292,1.17187714
LYZ,43,0,2024-06-14T05:20:06.699Z,english_954.wav,0,1,2033,21,4,chinese,m,3,0.3,-25.06032499,1.88473576
LYZ,43,0,2024-06-14T05:20:06.699Z,english_954.wav,0,1,2033,21,4,chinese,m,4,0.4,-17.48975264,0.3035603
LYZ,43,0,2024-06-14T05:20:06.699Z,english_954.wav,0,1,2033,21,4,chinese,m,5,0.5,95.06102198,1.35082964
LYZ,43,0,2024-06-14T05:20:06.699Z,english_954.wav,0,1,2033,21,4,chinese,m,6,0.6,0.80140457,0.63281948
LYZ,43,0,2024-06-14T05:20:06.699Z,english_954.wav,0,1,2033,21,4,chinese,m,7,0.7,-41.69263262,0.91375779
LYZ,43,0,2024-06-14T05:20:06.699Z,english_954.wav,0,1,2033,21,4,chinese,m,8,0.8,18.46045351,0.80486046
LYZ,43,0,2024-06-14T05:20:06.699Z,english_954.wav,0,1,2033,21,4,chinese,m,9,0.9,-7.88727361,0.18383046
LYZ,43,0,2024-06-14T05:20:06.699Z,english_954.wav,0,1,2033,21,4,chinese,m,10,1,-34.36872213,1.25307449
LYZ,43,0,2024-06-14T05:20:06.699Z,english_954.wav,0,1,2033,21,4,chinese,m,11,1.09391667,40.0906943,0.22905501
LYZ,44,0,2024-06-14T05:20:06.699Z,english_704.wav,0,1,1656,21,4,chinese,m,0,0,-66.86347245,1.10852805
LYZ,44,0,2024-06-14T05:20:06.699Z,english_704.wav,0,1,1656,21,4,chinese,m,1,0.1,-33.45070856,1.50534643
LYZ,44,0,2024-06-14T05:20:06.699Z,english_704.wav,0,1,1656,21,4,chinese,m,2,0.2,98.95748792,1.36402955
LYZ,44,0,2024-06-14T05:20:06.699Z,english_704.wav,0,1,1656,21,4,chinese,m,3,0.3,40.39124026,1.09402875
LYZ,44,0,2024-06-14T05:20:06.699Z,english_704.wav,0,1,1656,21,4,chinese,m,4,0.4,76.62361043,0.97410313
LYZ,44,0,2024-06-14T05:20:06.699Z,english_704.wav,0,1,1656,21,4,chinese,m,5,0.5,61.00109246,1.19276443
LYZ,44,0,2024-06-14T05:20:06.699Z,english_704.wav,0,1,1656,21,4,chinese,m,6,0.6,24.61875858,0.71178311
LYZ,44,0,2024-06-14T05:20:06.699Z,english_704.wav,0,1,1656,21,4,chinese,m,7,0.7,32.51289689,1.62027576
LYZ,44,0,2024-06-14T05:20:06.699Z,english_704.wav,0,1,1656,21,4,chinese,m,8,0.8,93.51972076,1.01576623
LYZ,44,0,2024-06-14T05:20:06.699Z,english_704.wav,0,1,1656,21,4,chinese,m,9,0.9,43.30633586,0.07371268
LYZ,44,0,2024-06-14T05:20:06.699Z,english_704.wav,0,1,1656,21,4,chinese,m,10,1,5.62352462,0.93560494
LYZ,44,0,2024-06-14T05:20:06.699Z,english_704.wav,0,1,1656,21,4,chinese,m,11,1.09391667,87.81172513,0.13780059
LYZ,45,0,2024-06-14T05:20:06.699Z,english_130.wav,0,1,2505,21,4,chinese,m,0,0,63.22786083,1.15410046
LYZ,45,0,2024-06-14T05:20:06.699Z,english_130.wav,0,1,2505,21,4,chinese,m,1,0.1,87.85722404,0.37024368
LYZ,45,0,2024-06-14T05:20:06.699Z,english_130.wav,0,1,2505,21,4,chinese,m,2,0.2,-11.67996756,1.81334
LYZ,45,0,2024-06-14T05:20:06.699Z,english_130.wav,0,1,2505,21,4,chinese,m,3,0.3,-61.23287213,1.04249546
LYZ,45,0,2024-06-14T05:20:06.699Z,english_130.wav,0,1,2505,21,4,chinese,m,4,0.4,31.74111168,0.8243923
LYZ,45,0,2024-06-14T05:20:06.699Z,english_130.wav,0,1,2505,21,4,chinese,m,5,0.5,33.84141617,1.89113742
LYZ,45,0,2024-06-14T05:20:06.699Z,english_130.wav,0,1,2505,21,4,chinese,m,6,0.6,19.96692936,0.69337223
LYZ,45,0,2024-06-14T05:20:06.699Z,english_130.wav,0,1,2505,21,4,chinese,m,7,0.7,-37.06015238,1.01307283
LYZ,45,0,2024-06-14T05:20:06.699Z,english_130.wav,0,1,2505,21,4,chinese,m,8,0.8,53.30817693,0.67908163
LYZ,45,0,2024-06-14T05:20:06.699Z,english_130.wav,0,1,2505,21,4,chinese,m,9,0.9,56.319569,0.07541053
LYZ,45,0,2024-06-14T05:20:06.699Z,english_130.wav,0,1,2505,21,4,chinese,m,10,1,38.79278484,1.95325555
LYZ,45,0,2024-06-14T05:20:06.699Z,english_130.wav,0,1,2505,21,4,chinese,m,11,1.09391667,-4.91911249,0.98387982
LYZ,46,0,2024-06-14T05:20:06.699Z,english_856.wav,0,1,5276,21,4,chinese,m,0,0,-87.78087501,0.23355411
LYZ,46,0,2024-06-14T05:20:06.699Z,english_856.wav,0,1,5276,21,4,chinese,m,1,0.1,-5.3712764,0.25625776
LYZ,46,0,2024-06-14T05:20:06.699Z,english_856.wav,0,1,5276,21,4,chinese,m,2,0.2,-32.01336506,0.23781871
LYZ,46,0,2024-06-14T05:20:06.699Z,english_856.wav,0,1,5276,21,4,chinese,m,3,0.3,-17.67932292,1.00270159
LYZ,46,0,2024-06-14T05:20:06.699Z,english_856.wav,0,1,5276,21,4,chinese,m,4,0.4,-24.3028662,1.45467938
LYZ,46,0,2024-06-14T05:20:06.699Z,english_856.wav,0,1,5276,21,4,chinese,m,5,0.5,-24.1832065,0.02272775
LYZ,46,0,2024-06-14T05:20:06.699Z,english_856.wav,0,1,5276,21,4,chinese,m,6,0.6,72.09597394,1.47665781
LYZ,46,0,2024-06-14T05:20:06.699Z,english_856.wav,0,1,5276,21,4,chinese,m,7,0.7,99.56545873,1.13119878
LYZ,46,0,2024-06-14T05:20:06.699Z,english_856.wav,0,1,5276,21,4,chinese,m,8,0.8,-38.26985921,1.70416673
LYZ,46,0,2024-06-14T05:20:06.699Z,english_856.wav,0,1,5276,21,4,chinese,m,9,0.9,46.8718891,1.96783156
LYZ,46,0,2024-06-14T05:20:06.699Z,english_856.wav,0,1,5276,21,4,chinese,m,10,1,23.13402485,0.77103282
LYZ,46,0,2024-06-14T05:20:06.699Z,english_856.wav,0,1,5276,21,4,chinese,m,11,1.09391667,-57.51825613,1.57872491
LYZ,47,0,2024-06-14T05:20:06.699Z,english_558.wav,0,0,2033,21,4,chinese,m,0,0,9.45595183,1.13403788
LYZ,47,0,2024-06-14T05:20:06.699Z,english_558.wav,0,0,2033,21,4,chinese,m,1,0.1,-66.91447075,1.18278708
LYZ,47,0,2024-06-14T05:20:06.699Z,english_558.wav,0,0,2033,21,4,chinese,m,2,0.2,5.01642616,1.11112331
LYZ,47,0,2024-06-14T05:20:06.699Z,english_558.wav,0,0,2033,21,4,chinese,m,3,0.3,-82.30049302,0.91283519
LYZ,47,0,2024-06-14T05:20:06.699Z,english_558.wav,0,0,2033,21,4,chinese,m,4,0.4,-10.29129966,0.71678122
LYZ,47,0,2024-06-14T05:20:06.699Z,english_558.wav,0,0,2033,21,4,chinese,m,5,0.5,99.14240741,1.64554748
LYZ,47,0,2024-06-14T05:20:06.699Z,english_558.wav,0,0,2033,21,4,chinese,m,6,0.6,34.85025227,0.99485251
LYZ,47,0,2024-06-14T05:20:06.699Z,english_558.wav,0,0,2033,21,4,chinese,m,7,0.7,43.44441895,0.12536515
LYZ,47,0,2024-06-14T05:20:06.699Z,english_558.wav,0,0,2033,21,4,chinese,m,8,0.8,-97.39694164,0.12044716
LYZ,47,0,2024-06-14T05:20:06.699Z,english_558.wav,0,0,2033,21,4,chinese,m,9,0.9,-31.97632868,0.33780284
LYZ,47,0,2024-06-14T05:20:06.699Z,english_558.wav,0,0,2033,21,4,chinese,m,10,1,-74.01115338,0.39284816
LYZ,47,0,2024-06-14T05:20:06.699Z,english_558.wav,0,0,2033,21,4,chinese,m,11,1.09391667,43.18570617,1.38494175
LYZ,48,0,2024-06-14T05:20:06.699Z,english_459.wav,0,1,2256,21,4,chinese,m,0,0,18.44381796,0.62620118
LYZ,48,0,2024-06-14T05:20:06.699Z,english_459.wav,0,1,2256,21,4,chinese,m,1,0.1,46.92875809,1.02677372
LYZ,48,0,2024-06-14T05:20:06.699Z,english_459.wav,0,1,2256,21,4,chinese,m,2,0.2,-3.83763253,0.887778
LYZ,48,0,2024-06-14T05:20:06.699Z,english_459.wav,0,1,2256,21,4,chinese,m,3,0.3,-48.73372346,0.9749461
LYZ,48,0,2024-06-14T05:20:06.699Z,english_459.wav,0,1,2256,21,4,chinese,m,4,0.4,-14.92000294,0.21389959
LYZ,48,0,2024-06-14T05:20:06.699Z,english_459.wav,0,1,2256,21,4,chinese,m,5,0.5,80.1348202,0.5331643
LYZ,48,0,2024-06-14T05:20:06.699Z,english_459.wav,0,1,2256,21,4,chinese,m,6,0.6,-86.26167397,0.89101651
LYZ,48,0,2024-06-14T05:20:06.699Z,english_459.wav,0,1,2256,21,4,chinese,m,7,0.7,-1.56579515,1.30262719
LYZ,48,0,2024-06-14T05:20:06.699Z,english_459.wav,0,1,2256,21,4,chinese,m,8,0.8,-19.43568929,1.62880583
LYZ,48,0,2024-06-14T05:20:06.699Z,english_459.wav,0,1,2256,21,4,chinese,m,9,0.9,7.94105636,1.73371658
LYZ,48,0,2024-06-14T05:20:06.699Z,english_459.wav,0,1,2256,21,4,chinese,m,10,1,85.15006258,0.16404372
LYZ,48,0,2024-06-14T05:20:06.699Z,english_459.wav,0,1,2256,21,4,chinese,m,11,1.09391667,-33.12026838,1.85143865
LYZ,49,0,2024-06-14T05:20:06.699Z,english_195.wav,0,1,2105,21,4,chinese,m,0,0,-84.31811629,1.00245815
LYZ,49,0,2024-06-14T05:20:06.699Z,english_195.wav,0,1,2105,21,4,chinese,m,1,0.1,-40.4937686,0.37362225
LYZ,49,0,2024-06-14T05:20:06.699Z,english_195.wav,0,1,2105,21,4,chinese,m,2,0.2,43.37920818,1.2771314
LYZ,49,0,2024-06-14T05:20:06.699Z,english_195.wav,0,1,2105,21,4,chinese,m,3,0.3,89.86748729,0.32946516
LYZ,49,0,2024-06-14T05:20:06.699Z,english_195.wav,0,1,2105,21,4,chinese,m,4,0.4,24.49320863,1.39441943
LYZ,49,0,2024-06-14T05:20:06.699Z,english_195.wav,0,1,2105,21,4,chinese,m,5,0.5,-46.40835892,1.30540336
LYZ,49,0,2024-06-14T05:20:06.699Z,english_195.wav,0,1,2105,21,4,chinese,m,6,0.6,35.9505397,0.00236394
LYZ,49,0,2024-06-14T05:20:06.699Z,english_195.wav,0,1,2105,21,4,chinese,m,7,0.7,62.43082011,1.39191992
LYZ,49,0,2024-06-14T05:20:06.699Z,english_195.wav,0,1,2105,21,4,chinese,m,8,0.8,85.56276985,0.22399256
LYZ,49,0,2024-06-14T05:20:06.699Z,english_195.wav,0,1,2105,21,4,chinese,m,9,0.9,52.49119502,0.98445346
LYZ,49,0,2024-06-14T05:20:06.699Z,english_195.wav,0,1,2105,21,4,chinese,m,10,1,-55.346187,1.43930771
LYZ,49,0,2024-06-14T05:20:06.699Z,english_195.wav,0,1,2105,21,4,chinese,m,11,1.09391667,-71.70758722,1.96006647
LYZ,50,1,2024-06-14T05:20:06.699Z,english_430.wav,0,1,1998,21,4,chinese,m,0,0,-88.95761908,1.0411215
LYZ,50,1,2024-06-14T05:20:06.699Z,english_430.wav,0,1,1998,21,4,chinese,m,1,0.1,39.34804897,1.73577333
LYZ,50,1,2024-06-14T05:20:06.699Z,english_430.wav,0,1,1998,21,4,chinese,m,2,0.2,-21.72599187,0.8754531
LYZ,50,1,2024-06-14T05:20:06.699Z,english_430.wav,0,1,1998,21,4,chinese,m,3,0.3,-97.97733292,0.18874451
LYZ,50,1,2024-06-14T05:20:06.699Z,english_430.wav,0,1,1998,21,4,chinese,m,4,0.4,98.23201219,1.1142071
LYZ,50,1,2024-06-14T05:20:06.699Z,english_430.wav,0,1,1998,21,4,chinese,m,5,0.5,92.79611353,0.3830467
LYZ,50,1,2024-06-14T05:20:06.699Z,english_430.wav,0,1,1998,21,4,chinese,m,6,0.6,44.81381594,0.5347185
LYZ,50,1,2024-06-14T05:20:06.699Z,english_430.wav,0,1,1998,21,4,chinese,m,7,0.7,-96.67681225,0.4014233
LYZ,50,1,2024-06-14T05:20:06.699Z,english_430.wav,0,1,1998,21,4,chinese,m,8,0.8,99.24041947,0.50454446
LYZ,50,1,2024-06-14T05:20:06.699Z,english_430.wav,0,1,1998,21,4,chinese,m,9,0.9,33.24344921,0.88496249
LYZ,50,1,2024-06-14T05:20:06.699Z,english_430.wav,0,1,1998,21,4,chinese,m,10,1,-26.01349309,1.71251412
LYZ,50,1,2024-06-14T05:20:06.699Z,english_430.wav,0,1,1998,21,4,chinese,m,11,1.09391667,-84.24925862,1.92006939
LYZ,51,1,2024-06-14T05:20:06.699Z,english_224.wav,0,1,1194,21,4,chinese,m,0,0,-78.61506242,0.96291184
LYZ,51,1,2024-06-14T05:20:06.699Z,english_224.wav,0,1,1194,21,4,chinese,m,1,0.1,50.32903383,1.02849412
LYZ,51,1,2024-06-14T05:20:06.699Z,english_224.wav,0,1,1194,21,4,chinese,m,2,0.2,13.41609495,1.48046057
LYZ,51,1,2024-06-14T05:20:06.699Z,english_224.wav,0,1,1194,21,4,chinese,m,3,0.3,-65.62214638,0.95403391
LYZ,51,1,2024-06-14T05:20:06.699Z,english_224.wav,0,1,1194,21,4,chinese,m,4,0.4,-58.93648778,0.16536285
LYZ,51,1,2024-06-14T05:20:06.699Z,english_224.wav,0,1,1194,21,4,chinese,m,5,0.5,72.28111683,1.42811474
LYZ,51,1,2024-06-14T05:20:06.699Z,english_224.wav,0,1,1194,21,4,chinese,m,6,0.6,-46.77069374,0.74831178
LYZ,51,1,2024-06-14T05:20:06.699Z,english_224.wav,0,1,1194,21,4,chinese,m,7,0.7,-90.37193795,1.44512366
LYZ,51,1,2024-06-14T05:20:06.699Z,english_224.wav,0,1,1194,21,4,chinese,m,8,0.8,-0.43339445,1.0370843
LYZ,51,1,2024-06-14T05:20:06.699Z,english_224.wav,0,1,1194,21,4,chinese,m,9,0.9,-45.45823975,0.73747726
LYZ,51,1,2024-06-14T05:20:06.699Z,english_224.wav,0,1,1194,21,4,chinese,m,10,1,-68.1553756,0.53686902
LYZ,51,1,2024-06-14T05:20:06.699Z,english_224.wav,0,1,1194,21,4,chinese,m,11,1.09391667,-50.27313826,1.24590757
LYZ,52,1,2024-06-14T05:20:06.699Z,english_656.wav,0,1,2634,21,4,chinese,m,0,0,-81.79066312,1.40445152
LYZ,52,1,2024-06-14T05:20:06.699Z,english_656.wav,0,1,2634,21,4,chinese,m,1,0.1,82.04093637,1.3245448
LYZ,52,1,2024-06-14T05:20:06.699Z,english_656.wav,0,1,2634,21,4,chinese,m,2,0.2,-52.28001609,1.15771434
LYZ,52,1,2024-06-14T05:20:06.699Z,english_656.wav,0,1,2634,21,4,chinese,m,3,0.3,67.28232458,1.36671169
LYZ,52,1,2024-06-14T05:20:06.699Z,english_656.wav,0,1,2634,21,4,chinese,m,4,0.4,-93.82911819,1.65032622
LYZ,52,1,2024-06-14T05:20:06.699Z,english_656.wav,0,1,2634,21,4,chinese,m,5,0.5,-25.69923398,0.37873681
LYZ,52,1,2024-06-14T05:20:06.699Z,english_656.wav,0,1,2634,21,4,chinese,m,6,0.6,-22.63880376,0.51917639
LYZ,52,1,2024-06-14T05:20:06.699Z,english_656.wav,0,1,2634,21,4,chinese,m,7,0.7,28.9128231,1.1632187
LYZ,52,1,2024-06-14T05:20:06.699Z,english_656.wav,0,1,2634,21,4,chinese,m,8,0.8,-87.87621278,0.95022034
LYZ,52,1,2024-06-14T05:20:06.699Z,english_656.wav,0,1,2634,21,4,chinese,m,9,0.9,-32.99395829,1.57205129
LYZ,52,1,2024-06-14T05:20:06.699Z,english_656.wav,0,1,2634,21,4,chinese,m,10,1,67.88283241,0.61260001
LYZ,52,1,2024-06-14T05:20:06.699Z,english_656.wav,0,1,2634,21,4,chinese,m,11,1.09391667,-65.62849391,1.24421279
LYZ,53,1,2024-06-14T05:20:06.699Z,english_701.wav,0,1,5798,21,4,chinese,m,0,0,-93.84804117,0.47905205
LYZ,53,1,2024-06-14T05:20:06.699Z,english_701.wav,0,1,5798,21,4,chinese,m,1,0.1,-77.23912918,0.43335114
LYZ,53,1,2024-06-14T05:20:06.699Z,english_701.wav,0,1,5798,21,4,chinese,m,2,0.2,-45.57356693,0.98258142
LYZ,53,1,2024-06-14T05:20:06.699Z,english_701.wav,0,1,5798,21,4,chinese,m,3,0.3,-80.33366172,1.56424934
LYZ,53,1,2024-06-14T05:20:06.699Z,english_701.wav,0,1,5798,21,4,chinese,m,4,0.4,95.38038132,1.99053476
LYZ,53,1,2024-06-14T05:20:06.699Z,english_701.wav,0,1,5798,21,4,chinese,m,5,0.5,43.37257018,1.06230172
LYZ,53,1,2024-06-14T05:20:06.699Z,english_701.wav,0,1,5798,21,4,chinese,m,6,0.6,20.80863296,1.81617496
LYZ,53,1,2024-06-14T05:20:06.699Z,english_701.wav,0,1,5798,21,4,chinese,m,7,0.7,-74.49587502,0.70378114
LYZ,53,1,2024-06-14T05:20:06.699Z,english_701.wav,0,1,5798,21,4,chinese,m,8,0.8,53.82285156,1.40362465
LYZ,53,1,2024-06-14T05:20:06.699Z,english_701.wav,0,1,5798,21,4,chinese,m,9,0.9,86.20229822,0.70617413
LYZ,53,1,2024-06-14T05:20:06.699Z,english_701.wav,0,1,5798,21,4,chinese,m,10,1,-84.46214873,0.74798843
LYZ,53,1,2024-06-14T05:20:06.699Z,english_701.wav,0,1,5798,21,4,chinese,m,11,1.09391667,1.75691035,0.6850293
LYZ,54,1,2024-06-14T05:20:06.699Z,english_877.wav,0,1,4568,21,4,chinese,m,0,0,-79.4269128,0.17316108
LYZ,54,1,2024-06-14T05:20:06.699Z,english_877.wav,0,1,4568,21,4,chinese,m,1,0.1,-42.40916555,0.86989438
LYZ,54,1,2024-06-14T05:20:06.699Z,english_877.wav,0,1,4568,21,4,chinese,m,2,0.2,84.72383025,1.02258728
LYZ,54,1,2024-06-14T05:20:06.699Z,english_877.wav,0,1,4568,21,4,chinese,m,3,0.3,-35.54848219,0.92677034
LYZ,54,1,2024-06-14T05:20:06.699Z,english_877.wav,0,1,4568,21,4,chinese,m,4,0.4,-35.20052766,0.70533019
LYZ,54,1,2024-06-14T05:20:06.699Z,english_877.wav,0,1,4568,21,4,chinese,m,5,0.5,57.63879902,1.77292228
LYZ,54,1,2024-06-14T05:20:06.699Z,english_877.wav,0,1,4568,21,4,chinese,m,6,0.6,-50.34738089,1.28323574
LYZ,54,1,2024-06-14T05:20:06.699Z,english_877.wav,0,1,4568,21,4,chinese,m,7,0.7,35.50935182,1.91968405
LYZ,54,1,2024-06-14T05:20:06.699Z,english_877.wav,0,1,4568,21,4,chinese,m,8,0.8,-13.54053645,1.52549813
LYZ,54,1,2024-06-14T05:20:06.699Z,english_877.wav,0,1,4568,21,4,chinese,m,9,0.9,38.29355396,1.27055267
LYZ,54,1,2024-06-14T05:20:06.699Z,english_877.wav,0,1,4568,21,4,chinese,m,10,1,-90.75099287,0.7500836
LYZ,54,1,2024-06-14T05:20:06.699Z,english_877.wav,0,1,4568,21,4,chinese,m,11,1.09391667,11.78460722,0.69644161
LYZ,55,1,2024-06-14T05:20:06.699Z,english_677.wav,0,1,9369,21,4,chinese,m,0,0,35.18766114,1.46418541
LYZ,55,1,2024-06-14T05:20:06.699Z,english_677.wav,0,1,9369,21,4,chinese,m,1,0.1,3.82449325,0.62060775
LYZ,55,1,2024-06-14T05:20:06.699Z,english_677.wav,0,1,9369,21,4,chinese,m,2,0.2,-81.73229082,1.63148334
LYZ,55,1,2024-06-14T05:20:06.699Z,english_677.wav,0,1,9369,21,4,chinese,m,3,0.3,-1.54015563,0.52758496
LYZ,55,1,2024-06-14T05:20:06.699Z,english_677.wav,0,1,9369,21,4,chinese,m,4,0.4,-45.59201538,0.80943231
LYZ,55,1,2024-06-14T05:20:06.699Z,english_677.wav,0,1,9369,21,4,chinese,m,5,0.5,26.20010581,1.10411223
LYZ,55,1,2024-06-14T05:20:06.699Z,english_677.wav,0,1,9369,21,4,chinese,m,6,0.6,-19.9162202,0.62014779
LYZ,55,1,2024-06-14T05:20:06.699Z,english_677.wav,0,1,9369,21,4,chinese,m,7,0.7,41.69291663,0.65910672
LYZ,55,1,2024-06-14T05:20:06.699Z,english_677.wav,0,1,9369,21,4,chinese,m,8,0.8,-68.08590586,1.69273141
LYZ,55,1,2024-06-14T05:20:06.699Z,english_677.wav,0,1,9369,21,4,chinese,m,9,0.9,-52.35020304,1.22000106
LYZ,55,1,2024-06-14T05:20:06.699Z,english_677.wav,0,1,9369,21,4,chinese,m,10,1,55.76687311,0.67614262
LYZ,55,1,2024-06-14T05:20:06.699Z,english_677.wav,0,1,9369,21,4,chinese,m,11,1.09391667,26.15340501,1.44243981
LYZ,56,1,2024-06-14T05:20:06.699Z,english_296.wav,0,1,8341,21,4,chinese,m,0,0,80.48782258,1.56514642
LYZ,56,1,2024-06-14T05:20:06.699Z,english_296.wav,0,1,8341,21,4,chinese,m,1,0.1,10.56122862,0.84129395
LYZ,56,1,2024-06-14T05:20:06.699Z,english_296.wav,0,1,8341,21,4,chinese,m,2,0.2,-8.93820662,0.06138073
LYZ,56,1,2024-06-14T05:20:06.699Z,english_296.wav,0,1,8341,21,4,chinese,m,3,0.3,-54.86681614,0.69727856
LYZ,56,1,2024-06-14T05:20:06.699Z,english_296.wav,0,1,8341,21,4,chinese,m,4,0.4,4.93462284,1.5884292
LYZ,56,1,2024-06-14T05:20:06.699Z,english_296.wav,0,1,8341,21,4,chinese,m,5,0.5,35.74757504,1.04892583
LYZ,56,1,2024-06-14T05:20:06.699Z,english_296.wav,0,1,8341,21,4,chinese,m,6,0.6,68.8469079,1.9689775
LYZ,56,1,2024-06-14T05:20:06.699Z,english_296.wav,0,1,8341,21,4,chinese,m,7,0.7,-14.27123589,0.88805601
LYZ,56,1,2024-06-14T05:20:06.699Z,english_296.wav,0,1,8341,21,4,chinese,m,8,0.8,-28.29587023,1.96809087
LYZ,56,1,2024-06-14T05:20:06.699Z,english_296.wav,0,1,8341,21,4,chinese,m,9,0.9,95.64907093,1.8332122
LYZ,56,1,2024-06-14T05:20:06.699Z,english_296.wav,0,1,8341,21,4,chinese,m,10,1,-72.41595419,0.12281215
LYZ,56,1,2024-06-14T05:20:06.699Z,english_296.wav,0,1,8341,21,4,chinese,m,11,1.09391667,67.53861485,0.22120187
LYZ,57,1,2024-06-14T05:20:06.699Z,english_561.wav,0,1,3127,21,4,chinese,m,0,0,-40.74145274,1.68424793
LYZ,57,1,2024-06-14T05:20:06.699Z,english_561.wav,0,1,3127,21,4,chinese,m,1,0.1,73.1709151,1.15723577
LYZ,57,1,2024-06-14T05:20:06.699Z,english_561.wav,0,1,3127,21,4,chinese,m,2,0.2,-76.97322172,0.16061562
LYZ,57,1,2024-06-14T05:20:06.699Z,english_561.wav,0,1,3127,21,4,chinese,m,3,0.3,-33.73958817,0.71161921
LYZ,57,1,2024-06-14T05:20:06.699Z,english_561.wav,0,1,3127,21,4,chinese,m,4,0.4,-60.0926115,0.40520901
LYZ,57,1,2024-06-14T05:20:06.699Z,english_561.wav,0,1,3127,21,4,chinese,m,5,0.5,17.46588089,1.58164625
LYZ,57,1,2024-06-14T05:20:06.699Z,english_561.wav,0,1,3127,21,4,chinese,m,6,0.6,74.1182297,0.61549977
LYZ,57,1,2024-06-14T05:20:06.699Z,english_561.wav,0,1,3127,21,4,chinese,m,7,0.7,96.50181715,1.28562209
LYZ,57,1,2024-06-14T05:20:06.699Z,english_561.wav,0,1,3127,21,4,chinese,m,8,0.8,72.92112675,0.3725745
LYZ,57,1,2024-06-14T05:20:06.699Z,english_561.wav,0,1,3127,21,4,chinese,m,9,0.9,-4.13482892,0.83114042
LYZ,57,1,2024-06-14T05:20:06.699Z,english_561.wav,0,1,3127,21,4,chinese,m,10,1,68.85388576,1.94100595
LYZ,57,1,2024-06-14T05:20:06.699Z,english_561.wav,0,1,3127,21,4,chinese,m,11,1.09391667,-59.51051487,0.22020615
LYZ,58,1,2024-06-14T05:20:06.699Z,english_253.wav,0,0,2301,21,4,chinese,m,0,0,-76.54232622,1.69452202
LYZ,58,1,2024-06-14T05:20:06.699Z,english_253.wav,0,0,2301,21,4,chinese,m,1,0.1,23.75797542,0.94155674
LYZ,58,1,2024-06-14T05:20:06.699Z,english_253.wav,0,0,2301,21,4,chinese,m,2,0.2,-82.53055468,0.70353207
LYZ,58,1,2024-06-14T05:20:06.699Z,english_253.wav,0,0,2301,21,4,chinese,m,3,0.3,19.65476927,1.42331271
LYZ,58,1,2024-06-14T05:20:06.699Z,english_253.wav,0,0,2301,21,4,chinese,m,4,0.4,-55.81107988,1.11334266
LYZ,58,1,2024-06-14T05:20:06.699Z,english_253.wav,0,0,2301,21,4,chinese,m,5,0.5,73.24574297,1.34927457
LYZ,58,1,2024-06-14T05:20:06.699Z,english_253.wav,0,0,2301,21,4,chinese,m,6,0.6,-22.29926161,0.26375751
LYZ,58,1,2024-06-14T05:20:06.699Z,english_253.wav,0,0,2301,21,4,chinese,m,7,0.7,-11.91242057,0.63100518
LYZ,58,1,2024-06-14T05:20:06.699Z,english_253.wav,0,0,2301,21,4,chinese,m,8,0.8,-33.99896833,0.22145521
LYZ,58,1,2024-06-14T05:20:06.699Z,english_253.wav,0,0,2301,21,4,chinese,m,9,0.9,32.30473406,0.69052847
LYZ,58,1,2024-06-14T05:20:06.699Z,english_253.wav,0,0,2301,21,4,chinese,m,10,1,68.10745133,1.32352728
LYZ,58,1,2024-06-14T05:20:06.699Z,english_253.wav,0,0,2301,21,4,chinese,m,11,1.09391667,-22.82824608,0.79605757
LYZ,59,1,2024-06-14T05:20:06.699Z,english_526.wav,0,1,1589,21,4,chinese,m,0,0,8.34861985,0.818467978
LYZ,59,1,2024-06-14T05:20:06.699Z,english_526.wav,0,1,1589,21,4,chinese,m,1,0.1,4.68771873,1.47842566
LYZ,59,1,2024-06-14T05:20:06.699Z,english_526.wav,0,1,1589,21,4,chinese,m,2,0.2,53.60731048,1.2919312
LYZ,59,1,2024-06-14T05:20:06.699Z,english_526.wav,0,1,1589,21,4,chinese,m,3,0.3,59.31550311,0.0000036729241
LYZ,59,1,2024-06-14T05:20:06.699Z,english_526.wav,0,1,1589,21,4,chinese,m,4,0.4,72.50237706,1.30202935
LYZ,59,1,2024-06-14T05:20:06.699Z,english_526.wav,0,1,1589,21,4,chinese,m,5,0.5,35.8849844,0.436504023
LYZ,59,1,2024-06-14T05:20:06.699Z,english_526.wav,0,1,1589,21,4,chinese,m,6,0.6,74.11215821,1.72509944
LYZ,59,1,2024-06-14T05:20:06.699Z,english_526.wav,0,1,1589,21,4,chinese,m,7,0.7,55.59683057,0.555064149
LYZ,59,1,2024-06-14T05:20:06.699Z,english_526.wav,0,1,1589,21,4,chinese,m,8,0.8,-27.47924079,0.322124551
LYZ,59,1,2024-06-14T05:20:06.699Z,english_526.wav,0,1,1589,21,4,chinese,m,9,0.9,6.32801867,0.203468589
LYZ,59,1,2024-06-14T05:20:06.699Z,english_526.wav,0,1,1589,21,4,chinese,m,10,1,17.73622103,0.814562372
LYZ,59,1,2024-06-14T05:20:06.699Z,english_526.wav,0,1,1589,21,4,chinese,m,11,1.09391667,57.44538819,1.24257204
LYZ,60,1,2024-06-14T05:20:06.699Z,english_815.wav,0,1,1926,21,4,chinese,m,0,0,13.37098153,0.8883119
LYZ,60,1,2024-06-14T05:20:06.699Z,english_815.wav,0,1,1926,21,4,chinese,m,1,0.1,65.78624278,0.67980941
LYZ,60,1,2024-06-14T05:20:06.699Z,english_815.wav,0,1,1926,21,4,chinese,m,2,0.2,66.40667823,0.95780133
LYZ,60,1,2024-06-14T05:20:06.699Z,english_815.wav,0,1,1926,21,4,chinese,m,3,0.3,-44.62639189,1.51398111
LYZ,60,1,2024-06-14T05:20:06.699Z,english_815.wav,0,1,1926,21,4,chinese,m,4,0.4,-51.75725077,1.4565051
LYZ,60,1,2024-06-14T05:20:06.699Z,english_815.wav,0,1,1926,21,4,chinese,m,5,0.5,-79.21957107,0.83683567
LYZ,60,1,2024-06-14T05:20:06.699Z,english_815.wav,0,1,1926,21,4,chinese,m,6,0.6,-56.86584236,0.38900819
LYZ,60,1,2024-06-14T05:20:06.699Z,english_815.wav,0,1,1926,21,4,chinese,m,7,0.7,42.29244477,1.92415526
LYZ,60,1,2024-06-14T05:20:06.699Z,english_815.wav,0,1,1926,21,4,chinese,m,8,0.8,-94.28545135,0.30571249
LYZ,60,1,2024-06-14T05:20:06.699Z,english_815.wav,0,1,1926,21,4,chinese,m,9,0.9,-14.77734417,0.35189603
LYZ,60,1,2024-06-14T05:20:06.699Z,english_815.wav,0,1,1926,21,4,chinese,m,10,1,55.50770682,0.8512317
LYZ,60,1,2024-06-14T05:20:06.699Z,english_815.wav,0,1,1926,21,4,chinese,m,11,1.09391667,3.0451597,1.01865879
LYZ,61,1,2024-06-14T05:20:06.699Z,english_750.wav,0,1,2086,21,4,chinese,m,0,0,-25.16303224,0.86862278
LYZ,61,1,2024-06-14T05:20:06.699Z,english_750.wav,0,1,2086,21,4,chinese,m,1,0.1,-14.02768866,0.53645709
LYZ,61,1,2024-06-14T05:20:06.699Z,english_750.wav,0,1,2086,21,4,chinese,m,2,0.2,69.31394604,1.09554837
LYZ,61,1,2024-06-14T05:20:06.699Z,english_750.wav,0,1,2086,21,4,chinese,m,3,0.3,90.85453111,0.97960852
LYZ,61,1,2024-06-14T05:20:06.699Z,english_750.wav,0,1,2086,21,4,chinese,m,4,0.4,-11.11189664,1.14883971
LYZ,61,1,2024-06-14T05:20:06.699Z,english_750.wav,0,1,2086,21,4,chinese,m,5,0.5,99.7192225,0.16341609
LYZ,61,1,2024-06-14T05:20:06.699Z,english_750.wav,0,1,2086,21,4,chinese,m,6,0.6,59.23899804,1.34227106
LYZ,61,1,2024-06-14T05:20:06.699Z,english_750.wav,0,1,2086,21,4,chinese,m,7,0.7,61.96409814,1.64659331
LYZ,61,1,2024-06-14T05:20:06.699Z,english_750.wav,0,1,2086,21,4,chinese,m,8,0.8,86.60257641,0.80940412
LYZ,61,1,2024-06-14T05:20:06.699Z,english_750.wav,0,1,2086,21,4,chinese,m,9,0.9,26.97835103,1.55602713
LYZ,61,1,2024-06-14T05:20:06.699Z,english_750.wav,0,1,2086,21,4,chinese,m,10,1,-29.13235822,0.0040181
LYZ,61,1,2024-06-14T05:20:06.699Z,english_750.wav,0,1,2086,21,4,chinese,m,11,1.09391667,-49.9357994,1.03656175
LYZ,62,1,2024-06-14T05:20:06.699Z,english_988.wav,0,0,5537,21,4,chinese,m,0,0,41.01121176,1.79508408
LYZ,62,1,2024-06-14T05:20:06.699Z,english_988.wav,0,0,5537,21,4,chinese,m,1,0.1,-57.00509923,0.91683768
LYZ,62,1,2024-06-14T05:20:06.699Z,english_988.wav,0,0,5537,21,4,chinese,m,2,0.2,-47.7423933,0.75632301
LYZ,62,1,2024-06-14T05:20:06.699Z,english_988.wav,0,0,5537,21,4,chinese,m,3,0.3,-45.09224268,0.50123111
LYZ,62,1,2024-06-14T05:20:06.699Z,english_988.wav,0,0,5537,21,4,chinese,m,4,0.4,-86.23747248,1.43218642
LYZ,62,1,2024-06-14T05:20:06.699Z,english_988.wav,0,0,5537,21,4,chinese,m,5,0.5,32.23270896,1.02417726
LYZ,62,1,2024-06-14T05:20:06.699Z,english_988.wav,0,0,5537,21,4,chinese,m,6,0.6,83.03664367,0.26646991
LYZ,62,1,2024-06-14T05:20:06.699Z,english_988.wav,0,0,5537,21,4,chinese,m,7,0.7,23.13228138,0.55372386
LYZ,62,1,2024-06-14T05:20:06.699Z,english_988.wav,0,0,5537,21,4,chinese,m,8,0.8,-80.96876175,1.25427564
LYZ,62,1,2024-06-14T05:20:06.699Z,english_988.wav,0,0,5537,21,4,chinese,m,9,0.9,85.87163391,1.46901823
LYZ,62,1,2024-06-14T05:20:06.699Z,english_988.wav,0,0,5537,21,4,chinese,m,10,1,65.98257536,1.62105321
LYZ,62,1,2024-06-14T05:20:06.699Z,english_988.wav,0,0,5537,21,4,chinese,m,11,1.09391667,8.92791605,1.15707193
LYZ,63,1,2024-06-14T05:20:06.699Z,english_64.wav,0,1,1426,21,4,chinese,m,0,0,35.19701481,0.1517014
LYZ,63,1,2024-06-14T05:20:06.699Z,english_64.wav,0,1,1426,21,4,chinese,m,1,0.1,75.83495736,1.3624391
LYZ,63,1,2024-06-14T05:20:06.699Z,english_64.wav,0,1,1426,21,4,chinese,m,2,0.2,-57.84604767,0.35043993
LYZ,63,1,2024-06-14T05:20:06.699Z,english_64.wav,0,1,1426,21,4,chinese,m,3,0.3,18.18328311,1.06032252
LYZ,63,1,2024-06-14T05:20:06.699Z,english_64.wav,0,1,1426,21,4,chinese,m,4,0.4,2.5532884,1.51833669
LYZ,63,1,2024-06-14T05:20:06.699Z,english_64.wav,0,1,1426,21,4,chinese,m,5,0.5,24.93011402,0.65789286
LYZ,63,1,2024-06-14T05:20:06.699Z,english_64.wav,0,1,1426,21,4,chinese,m,6,0.6,-51.99875854,1.38401799
LYZ,63,1,2024-06-14T05:20:06.699Z,english_64.wav,0,1,1426,21,4,chinese,m,7,0.7,52.45873465,1.62873445
LYZ,63,1,2024-06-14T05:20:06.699Z,english_64.wav,0,1,1426,21,4,chinese,m,8,0.8,42.38876358,0.48968984
LYZ,63,1,2024-06-14T05:20:06.699Z,english_64.wav,0,1,1426,21,4,chinese,m,9,0.9,54.33691238,0.64777192
LYZ,63,1,2024-06-14T05:20:06.699Z,english_64.wav,0,1,1426,21,4,chinese,m,10,1,27.02485659,0.8399807
LYZ,63,1,2024-06-14T05:20:06.699Z,english_64.wav,0,1,1426,21,4,chinese,m,11,1.09391667,58.99390703,0.25985176
LYZ,64,1,2024-06-14T05:20:06.699Z,english_538.wav,0,1,2685,21,4,chinese,m,0,0,10.61627961,1.15184391
LYZ,64,1,2024-06-14T05:20:06.699Z,english_538.wav,0,1,2685,21,4,chinese,m,1,0.1,-8.0929012,1.50748819
LYZ,64,1,2024-06-14T05:20:06.699Z,english_538.wav,0,1,2685,21,4,chinese,m,2,0.2,4.29598946,0.49576218
LYZ,64,1,2024-06-14T05:20:06.699Z,english_538.wav,0,1,2685,21,4,chinese,m,3,0.3,-22.12858968,1.003898
LYZ,64,1,2024-06-14T05:20:06.699Z,english_538.wav,0,1,2685,21,4,chinese,m,4,0.4,-56.21885188,1.76624867
LYZ,64,1,2024-06-14T05:20:06.699Z,english_538.wav,0,1,2685,21,4,chinese,m,5,0.5,21.93376584,1.27574792
LYZ,64,1,2024-06-14T05:20:06.699Z,english_538.wav,0,1,2685,21,4,chinese,m,6,0.6,-68.32489038,0.1993111
LYZ,64,1,2024-06-14T05:20:06.699Z,english_538.wav,0,1,2685,21,4,chinese,m,7,0.7,-66.29674784,0.49400206
LYZ,64,1,2024-06-14T05:20:06.699Z,english_538.wav,0,1,2685,21,4,chinese,m,8,0.8,-74.72581258,0.32135859
LYZ,64,1,2024-06-14T05:20:06.699Z,english_538.wav,0,1,2685,21,4,chinese,m,9,0.9,14.86779264,1.63136948
LYZ,64,1,2024-06-14T05:20:06.699Z,english_538.wav,0,1,2685,21,4,chinese,m,10,1,61.56126855,1.32900666
LYZ,64,1,2024-06-14T05:20:06.699Z,english_538.wav,0,1,2685,21,4,chinese,m,11,1.09391667,-58.45933513,1.2934419
LYZ,65,1,2024-06-14T05:20:06.699Z,english_876.wav,0,1,9805,21,4,chinese,m,0,0,-22.28605272,0.86114571
LYZ,65,1,2024-06-14T05:20:06.699Z,english_876.wav,0,1,9805,21,4,chinese,m,1,0.1,88.07210504,1.97575965
LYZ,65,1,2024-06-14T05:20:06.699Z,english_876.wav,0,1,9805,21,4,chinese,m,2,0.2,-49.70957844,0.63948783
LYZ,65,1,2024-06-14T05:20:06.699Z,english_876.wav,0,1,9805,21,4,chinese,m,3,0.3,-15.12998944,0.79524936
LYZ,65,1,2024-06-14T05:20:06.699Z,english_876.wav,0,1,9805,21,4,chinese,m,4,0.4,-15.93875253,1.19082012
LYZ,65,1,2024-06-14T05:20:06.699Z,english_876.wav,0,1,9805,21,4,chinese,m,5,0.5,-25.52637737,0.64746998
LYZ,65,1,2024-06-14T05:20:06.699Z,english_876.wav,0,1,9805,21,4,chinese,m,6,0.6,-20.7469083,0.40627419
LYZ,65,1,2024-06-14T05:20:06.699Z,english_876.wav,0,1,9805,21,4,chinese,m,7,0.7,38.24982305,0.95615642
LYZ,65,1,2024-06-14T05:20:06.699Z,english_876.wav,0,1,9805,21,4,chinese,m,8,0.8,85.21823118,1.23938009
LYZ,65,1,2024-06-14T05:20:06.699Z,english_876.wav,0,1,9805,21,4,chinese,m,9,0.9,2.48963564,0.97530307
LYZ,65,1,2024-06-14T05:20:06.699Z,english_876.wav,0,1,9805,21,4,chinese,m,10,1,33.93764026,0.65277391
LYZ,65,1,2024-06-14T05:20:06.699Z,english_876.wav,0,1,9805,21,4,chinese,m,11,1.09391667,1.12823357,0.77957787
LYZ,66,1,2024-06-14T05:20:06.699Z,english_851.wav,0,1,4094,21,4,chinese,m,0,0,-45.21125718,1.95103615
LYZ,66,1,2024-06-14T05:20:06.699Z,english_851.wav,0,1,4094,21,4,chinese,m,1,0.1,-85.75475475,0.03053554
LYZ,66,1,2024-06-14T05:20:06.699Z,english_851.wav,0,1,4094,21,4,chinese,m,2,0.2,-73.09455341,0.63850244
LYZ,66,1,2024-06-14T05:20:06.699Z,english_851.wav,0,1,4094,21,4,chinese,m,3,0.3,1.17370607,0.96719068
LYZ,66,1,2024-06-14T05:20:06.699Z,english_851.wav,0,1,4094,21,4,chinese,m,4,0.4,-11.35992748,0.02484013
LYZ,66,1,2024-06-14T05:20:06.699Z,english_851.wav,0,1,4094,21,4,chinese,m,5,0.5,42.80073602,0.41750072
LYZ,66,1,2024-06-14T05:20:06.699Z,english_851.wav,0,1,4094,21,4,chinese,m,6,0.6,45.07360169,1.17324743
LYZ,66,1,2024-06-14T05:20:06.699Z,english_851.wav,0,1,4094,21,4,chinese,m,7,0.7,-42.16100478,0.99186788
LYZ,66,1,2024-06-14T05:20:06.699Z,english_851.wav,0,1,4094,21,4,chinese,m,8,0.8,-19.59764742,1.3258141
LYZ,66,1,2024-06-14T05:20:06.699Z,english_851.wav,0,1,4094,21,4,chinese,m,9,0.9,-56.7450747,1.2279363
LYZ,66,1,2024-06-14T05:20:06.699Z,english_851.wav,0,1,4094,21,4,chinese,m,10,1,78.71604463,1.72539035
LYZ,66,1,2024-06-14T05:20:06.699Z,english_851.wav,0,1,4094,21,4,chinese,m,11,1.09391667,96.78573361,1.236894
LYZ,67,1,2024-06-14T05:20:06.699Z,english_109.wav,0,1,7068,21,4,chinese,m,0,0,-85.35755776,0.86429356
LYZ,67,1,2024-06-14T05:20:06.699Z,english_109.wav,0,1,7068,21,4,chinese,m,1,0.1,24.87794389,1.54320329
LYZ,67,1,2024-06-14T05:20:06.699Z,english_109.wav,0,1,7068,21,4,chinese,m,2,0.2,88.66282845,0.73186937
LYZ,67,1,2024-06-14T05:20:06.699Z,english_109.wav,0,1,7068,21,4,chinese,m,3,0.3,53.91159302,0.759779
LYZ,67,1,2024-06-14T05:20:06.699Z,english_109.wav,0,1,7068,21,4,chinese,m,4,0.4,-2.76092074,1.4946261
LYZ,67,1,2024-06-14T05:20:06.699Z,english_109.wav,0,1,7068,21,4,chinese,m,5,0.5,79.99538148,1.48350308
LYZ,67,1,2024-06-14T05:20:06.699Z,english_109.wav,0,1,7068,21,4,chinese,m,6,0.6,-42.31150981,1.90894472
LYZ,67,1,2024-06-14T05:20:06.699Z,english_109.wav,0,1,7068,21,4,chinese,m,7,0.7,-5.15781481,0.02998442
LYZ,67,1,2024-06-14T05:20:06.699Z,english_109.wav,0,1,7068,21,4,chinese,m,8,0.8,31.3978044,0.89047781
LYZ,67,1,2024-06-14T05:20:06.699Z,english_109.wav,0,1,7068,21,4,chinese,m,9,0.9,46.94636463,1.05504638
LYZ,67,1,2024-06-14T05:20:06.699Z,english_109.wav,0,1,7068,21,4,chinese,m,10,1,63.69340257,0.96709735
LYZ,67,1,2024-06-14T05:20:06.699Z,english_109.wav,0,1,7068,21,4,chinese,m,11,1.09391667,10.97812261,0.43676298
LYZ,68,1,2024-06-14T05:20:06.699Z,english_312.wav,0,1,3403,21,4,chinese,m,0,0,-44.20026349,0.70172327
LYZ,68,1,2024-06-14T05:20:06.699Z,english_312.wav,0,1,3403,21,4,chinese,m,1,0.1,37.14552062,1.15664492
LYZ,68,1,2024-06-14T05:20:06.699Z,english_312.wav,0,1,3403,21,4,chinese,m,2,0.2,18.3582365,0.90621855
LYZ,68,1,2024-06-14T05:20:06.699Z,english_312.wav,0,1,3403,21,4,chinese,m,3,0.3,77.7774411,1.08976836
LYZ,68,1,2024-06-14T05:20:06.699Z,english_312.wav,0,1,3403,21,4,chinese,m,4,0.4,-78.31932482,1.02467386
LYZ,68,1,2024-06-14T05:20:06.699Z,english_312.wav,0,1,3403,21,4,chinese,m,5,0.5,-58.95150344,0.3820111
LYZ,68,1,2024-06-14T05:20:06.699Z,english_312.wav,0,1,3403,21,4,chinese,m,6,0.6,89.34504931,1.09647863
LYZ,68,1,2024-06-14T05:20:06.699Z,english_312.wav,0,1,3403,21,4,chinese,m,7,0.7,88.15541314,1.49721146
LYZ,68,1,2024-06-14T05:20:06.699Z,english_312.wav,0,1,3403,21,4,chinese,m,8,0.8,-8.94977512,1.78917626
LYZ,68,1,2024-06-14T05:20:06.699Z,english_312.wav,0,1,3403,21,4,chinese,m,9,0.9,-51.17539316,0.56099976
LYZ,68,1,2024-06-14T05:20:06.699Z,english_312.wav,0,1,3403,21,4,chinese,m,10,1,-56.97812864,1.16855683
LYZ,68,1,2024-06-14T05:20:06.699Z,english_312.wav,0,1,3403,21,4,chinese,m,11,1.09391667,78.26932654,0.99548906
LYZ,69,1,2024-06-14T05:20:06.699Z,english_444.wav,0,1,1505,21,4,chinese,m,0,0,-22.35255086,1.17037243
LYZ,69,1,2024-06-14T05:20:06.699Z,english_444.wav,0,1,1505,21,4,chinese,m,1,0.1,-38.39735659,0.80831945
LYZ,69,1,2024-06-14T05:20:06.699Z,english_444.wav,0,1,1505,21,4,chinese,m,2,0.2,81.84483339,1.07936497
LYZ,69,1,2024-06-14T05:20:06.699Z,english_444.wav,0,1,1505,21,4,chinese,m,3,0.3,89.66951187,1.80338122
LYZ,69,1,2024-06-14T05:20:06.699Z,english_444.wav,0,1,1505,21,4,chinese,m,4,0.4,78.72815519,1.1980111
LYZ,69,1,2024-06-14T05:20:06.699Z,english_444.wav,0,1,1505,21,4,chinese,m,5,0.5,-52.70100407,1.57414757
LYZ,69,1,2024-06-14T05:20:06.699Z,english_444.wav,0,1,1505,21,4,chinese,m,6,0.6,-16.77558941,1.54546577
LYZ,69,1,2024-06-14T05:20:06.699Z,english_444.wav,0,1,1505,21,4,chinese,m,7,0.7,74.67924026,0.86646901
LYZ,69,1,2024-06-14T05:20:06.699Z,english_444.wav,0,1,1505,21,4,chinese,m,8,0.8,58.06859333,1.76340154
LYZ,69,1,2024-06-14T05:20:06.699Z,english_444.wav,0,1,1505,21,4,chinese,m,9,0.9,62.1778936,1.16134605
LYZ,69,1,2024-06-14T05:20:06.699Z,english_444.wav,0,1,1505,21,4,chinese,m,10,1,-11.97095728,0.83068954
LYZ,69,1,2024-06-14T05:20:06.699Z,english_444.wav,0,1,1505,21,4,chinese,m,11,1.09391667,61.96058284,1.94365144
LYZ,70,1,2024-06-14T05:20:06.699Z,english_588.wav,0,1,1319,21,4,chinese,m,0,0,29.91091742,1.28287681
LYZ,70,1,2024-06-14T05:20:06.699Z,english_588.wav,0,1,1319,21,4,chinese,m,1,0.1,29.9060619,1.09118729
LYZ,70,1,2024-06-14T05:20:06.699Z,english_588.wav,0,1,1319,21,4,chinese,m,2,0.2,-35.2299782,0.95294685
LYZ,70,1,2024-06-14T05:20:06.699Z,english_588.wav,0,1,1319,21,4,chinese,m,3,0.3,33.93454747,1.46022219
LYZ,70,1,2024-06-14T05:20:06.699Z,english_588.wav,0,1,1319,21,4,chinese,m,4,0.4,16.01664829,1.6252916
LYZ,70,1,2024-06-14T05:20:06.699Z,english_588.wav,0,1,1319,21,4,chinese,m,5,0.5,-18.70778189,1.19035327
LYZ,70,1,2024-06-14T05:20:06.699Z,english_588.wav,0,1,1319,21,4,chinese,m,6,0.6,-97.06291502,0.90275631
LYZ,70,1,2024-06-14T05:20:06.699Z,english_588.wav,0,1,1319,21,4,chinese,m,7,0.7,13.076942,0.534144
LYZ,70,1,2024-06-14T05:20:06.699Z,english_588.wav,0,1,1319,21,4,chinese,m,8,0.8,50.92498955,0.26255875
LYZ,70,1,2024-06-14T05:20:06.699Z,english_588.wav,0,1,1319,21,4,chinese,m,9,0.9,53.17318001,0.29008288
LYZ,70,1,2024-06-14T05:20:06.699Z,english_588.wav,0,1,1319,21,4,chinese,m,10,1,52.34619788,0.99016986
LYZ,70,1,2024-06-14T05:20:06.699Z,english_588.wav,0,1,1319,21,4,chinese,m,11,1.09391667,1.61294986,0.96989244
LYZ,71,1,2024-06-14T05:20:06.699Z,english_83.wav,0,1,3290,21,4,chinese,m,0,0,-13.2041621,1.43008508
LYZ,71,1,2024-06-14T05:20:06.699Z,english_83.wav,0,1,3290,21,4,chinese,m,1,0.1,72.11694132,0.66721453
LYZ,71,1,2024-06-14T05:20:06.699Z,english_83.wav,0,1,3290,21,4,chinese,m,2,0.2,72.29533823,0.92720226
LYZ,71,1,2024-06-14T05:20:06.699Z,english_83.wav,0,1,3290,21,4,chinese,m,3,0.3,27.12463377,1.5008618
LYZ,71,1,2024-06-14T05:20:06.699Z,english_83.wav,0,1,3290,21,4,chinese,m,4,0.4,-0.51668001,0.92612905
LYZ,71,1,2024-06-14T05:20:06.699Z,english_83.wav,0,1,3290,21,4,chinese,m,5,0.5,95.33803701,1.15889455
LYZ,71,1,2024-06-14T05:20:06.699Z,english_83.wav,0,1,3290,21,4,chinese,m,6,0.6,29.01440832,1.69874537
LYZ,71,1,2024-06-14T05:20:06.699Z,english_83.wav,0,1,3290,21,4,chinese,m,7,0.7,95.49757562,1.82400366
LYZ,71,1,2024-06-14T05:20:06.699Z,english_83.wav,0,1,3290,21,4,chinese,m,8,0.8,73.0572007,0.49276816
LYZ,71,1,2024-06-14T05:20:06.699Z,english_83.wav,0,1,3290,21,4,chinese,m,9,0.9,-51.56555772,1.24642372
LYZ,71,1,2024-06-14T05:20:06.699Z,english_83.wav,0,1,3290,21,4,chinese,m,10,1,75.9566984,1.81994123
LYZ,71,1,2024-06-14T05:20:06.699Z,english_83.wav,0,1,3290,21,4,chinese,m,11,1.09391667,-25.09105013,1.274738
LYZ,72,1,2024-06-14T05:20:06.699Z,english_831.wav,0,1,4303,21,4,chinese,m,0,0,-21.16656573,0.86887876
LYZ,72,1,2024-06-14T05:20:06.699Z,english_831.wav,0,1,4303,21,4,chinese,m,1,0.1,29.76214341,1.37629655
LYZ,72,1,2024-06-14T05:20:06.699Z,english_831.wav,0,1,4303,21,4,chinese,m,2,0.2,61.45359844,0.63499907
LYZ,72,1,2024-06-14T05:20:06.699Z,english_831.wav,0,1,4303,21,4,chinese,m,3,0.3,6.67004895,0.11279763
LYZ,72,1,2024-06-14T05:20:06.699Z,english_831.wav,0,1,4303,21,4,chinese,m,4,0.4,26.70370751,0.87092561
LYZ,72,1,2024-06-14T05:20:06.699Z,english_831.wav,0,1,4303,21,4,chinese,m,5,0.5,-40.62935301,1.90700704
LYZ,72,1,2024-06-14T05:20:06.699Z,english_831.wav,0,1,4303,21,4,chinese,m,6,0.6,99.09256776,0.52454597
LYZ,72,1,2024-06-14T05:20:06.699Z,english_831.wav,0,1,4303,21,4,chinese,m,7,0.7,79.82257267,0.72073711
LYZ,72,1,2024-06-14T05:20:06.699Z,english_831.wav,0,1,4303,21,4,chinese,m,8,0.8,42.46181289,0.80064374
LYZ,72,1,2024-06-14T05:20:06.699Z,english_831.wav,0,1,4303,21,4,chinese,m,9,0.9,2.20427108,1.04408214
LYZ,72,1,2024-06-14T05:20:06.699Z,english_831.wav,0,1,4303,21,4,chinese,m,10,1,64.59275416,0.45079877
LYZ,72,1,2024-06-14T05:20:06.699Z,english_831.wav,0,1,4303,21,4,chinese,m,11,1.09391667,-21.96543836,1.2652147
LYZ,73,1,2024-06-14T05:20:06.699Z,english_84.wav,0,1,2462,21,4,chinese,m,0,0,-30.2467566,1.10932486
LYZ,73,1,2024-06-14T05:20:06.699Z,english_84.wav,0,1,2462,21,4,chinese,m,1,0.1,-18.60045113,1.9206934
LYZ,73,1,2024-06-14T05:20:06.699Z,english_84.wav,0,1,2462,21,4,chinese,m,2,0.2,-90.34616495,1.24300923
LYZ,73,1,2024-06-14T05:20:06.699Z,english_84.wav,0,1,2462,21,4,chinese,m,3,0.3,65.05422695,0.26827652
LYZ,73,1,2024-06-14T05:20:06.699Z,english_84.wav,0,1,2462,21,4,chinese,m,4,0.4,-97.4748037,1.06073
LYZ,73,1,2024-06-14T05:20:06.699Z,english_84.wav,0,1,2462,21,4,chinese,m,5,0.5,81.08722465,0.77191048
LYZ,73,1,2024-06-14T05:20:06.699Z,english_84.wav,0,1,2462,21,4,chinese,m,6,0.6,-60.33963886,0.47362595
LYZ,73,1,2024-06-14T05:20:06.699Z,english_84.wav,0,1,2462,21,4,chinese,m,7,0.7,89.16319597,0.81063727
LYZ,73,1,2024-06-14T05:20:06.699Z,english_84.wav,0,1,2462,21,4,chinese,m,8,0.8,-62.96470457,0.77403196
LYZ,73,1,2024-06-14T05:20:06.699Z,english_84.wav,0,1,2462,21,4,chinese,m,9,0.9,-1.62845555,1.97344779
LYZ,73,1,2024-06-14T05:20:06.699Z,english_84.wav,0,1,2462,21,4,chinese,m,10,1,-78.52699488,1.64085803
LYZ,73,1,2024-06-14T05:20:06.699Z,english_84.wav,0,1,2462,21,4,chinese,m,11,1.09391667,30.74269215,1.83432164
LYZ,74,1,2024-06-14T05:20:06.699Z,english_922.wav,0,1,2291,21,4,chinese,m,0,0,61.1700044,0.77397562
LYZ,74,1,2024-06-14T05:20:06.699Z,english_922.wav,0,1,2291,21,4,chinese,m,1,0.1,82.06984085,1.14937293
LYZ,74,1,2024-06-14T05:20:06.699Z,english_922.wav,0,1,2291,21,4,chinese,m,2,0.2,-92.27579322,1.03435185
LYZ,74,1,2024-06-14T05:20:06.699Z,english_922.wav,0,1,2291,21,4,chinese,m,3,0.3,89.90024406,0.69514863
LYZ,74,1,2024-06-14T05:20:06.699Z,english_922.wav,0,1,2291,21,4,chinese,m,4,0.4,36.91510644,0.29090795
LYZ,74,1,2024-06-14T05:20:06.699Z,english_922.wav,0,1,2291,21,4,chinese,m,5,0.5,-58.72846655,0.08046627
LYZ,74,1,2024-06-14T05:20:06.699Z,english_922.wav,0,1,2291,21,4,chinese,m,6,0.6,85.21548547,0.39343329
LYZ,74,1,2024-06-14T05:20:06.699Z,english_922.wav,0,1,2291,21,4,chinese,m,7,0.7,32.72450866,0.50557621
LYZ,74,1,2024-06-14T05:20:06.699Z,english_922.wav,0,1,2291,21,4,chinese,m,8,0.8,50.92998004,1.28859728
LYZ,74,1,2024-06-14T05:20:06.699Z,english_922.wav,0,1,2291,21,4,chinese,m,9,0.9,-26.56973856,0.44286158
LYZ,74,1,2024-06-14T05:20:06.699Z,english_922.wav,0,1,2291,21,4,chinese,m,10,1,-43.37360145,1.43016745
LYZ,74,1,2024-06-14T05:20:06.699Z,english_922.wav,0,1,2291,21,4,chinese,m,11,1.09391667,-17.2071356,1.42163313
LYZ,75,1,2024-06-14T05:20:06.699Z,english_56.wav,0,1,2377,21,4,chinese,m,0,0,94.56130546,1.78248544
LYZ,75,1,2024-06-14T05:20:06.699Z,english_56.wav,0,1,2377,21,4,chinese,m,1,0.1,98.82920217,0.32774506
LYZ,75,1,2024-06-14T05:20:06.699Z,english_56.wav,0,1,2377,21,4,chinese,m,2,0.2,-30.68243792,0.4010142
LYZ,75,1,2024-06-14T05:20:06.699Z,english_56.wav,0,1,2377,21,4,chinese,m,3,0.3,-48.75978293,0.84475133
LYZ,75,1,2024-06-14T05:20:06.699Z,english_56.wav,0,1,2377,21,4,chinese,m,4,0.4,-79.08505246,1.07558594
LYZ,75,1,2024-06-14T05:20:06.699Z,english_56.wav,0,1,2377,21,4,chinese,m,5,0.5,18.07000914,1.2644329
LYZ,75,1,2024-06-14T05:20:06.699Z,english_56.wav,0,1,2377,21,4,chinese,m,6,0.6,57.19590548,1.63811398
LYZ,75,1,2024-06-14T05:20:06.699Z,english_56.wav,0,1,2377,21,4,chinese,m,7,0.7,6.7178476,1.3488209
LYZ,75,1,2024-06-14T05:20:06.699Z,english_56.wav,0,1,2377,21,4,chinese,m,8,0.8,-59.05070955,0.73862335
LYZ,75,1,2024-06-14T05:20:06.699Z,english_56.wav,0,1,2377,21,4,chinese,m,9,0.9,-76.10802368,0.85331353
LYZ,75,1,2024-06-14T05:20:06.699Z,english_56.wav,0,1,2377,21,4,chinese,m,10,1,-28.87948521,1.24951522
LYZ,75,1,2024-06-14T05:20:06.699Z,english_56.wav,0,1,2377,21,4,chinese,m,11,1.09391667,8.04938486,0.68295905
LYZ,76,1,2024-06-14T05:20:06.699Z,english_519.wav,0,1,1758,21,4,chinese,m,0,0,-89.70690317,1.70012146
LYZ,76,1,2024-06-14T05:20:06.699Z,english_519.wav,0,1,1758,21,4,chinese,m,1,0.1,12.73288581,0.30558637
LYZ,76,1,2024-06-14T05:20:06.699Z,english_519.wav,0,1,1758,21,4,chinese,m,2,0.2,-28.85796661,1.20634899
LYZ,76,1,2024-06-14T05:20:06.699Z,english_519.wav,0,1,1758,21,4,chinese,m,3,0.3,26.94929279,0.03671801
LYZ,76,1,2024-06-14T05:20:06.699Z,english_519.wav,0,1,1758,21,4,chinese,m,4,0.4,88.17509723,1.89470366
LYZ,76,1,2024-06-14T05:20:06.699Z,english_519.wav,0,1,1758,21,4,chinese,m,5,0.5,-36.4551596,1.56676756
LYZ,76,1,2024-06-14T05:20:06.699Z,english_519.wav,0,1,1758,21,4,chinese,m,6,0.6,24.45140187,0.94993833
LYZ,76,1,2024-06-14T05:20:06.699Z,english_519.wav,0,1,1758,21,4,chinese,m,7,0.7,7.63765931,1.07658622
LYZ,76,1,2024-06-14T05:20:06.699Z,english_519.wav,0,1,1758,21,4,chinese,m,8,0.8,1.30228681,1.81741966
LYZ,76,1,2024-06-14T05:20:06.699Z,english_519.wav,0,1,1758,21,4,chinese,m,9,0.9,72.18985419,0.56710914
LYZ,76,1,2024-06-14T05:20:06.699Z,english_519.wav,0,1,1758,21,4,chinese,m,10,1,-56.35512761,0.45384515
LYZ,76,1,2024-06-14T05:20:06.699Z,english_519.wav,0,1,1758,21,4,chinese,m,11,1.09391667,-27.12026306,1.11287687
LYZ,77,1,2024-06-14T05:20:06.699Z,english_709.wav,0,1,1659,21,4,chinese,m,0,0,54.89445194,0.75029311
LYZ,77,1,2024-06-14T05:20:06.699Z,english_709.wav,0,1,1659,21,4,chinese,m,1,0.1,-13.90675493,1.75887389
LYZ,77,1,2024-06-14T05:20:06.699Z,english_709.wav,0,1,1659,21,4,chinese,m,2,0.2,17.54151592,1.84695168
LYZ,77,1,2024-06-14T05:20:06.699Z,english_709.wav,0,1,1659,21,4,chinese,m,3,0.3,-21.79257769,0.96071145
LYZ,77,1,2024-06-14T05:20:06.699Z,english_709.wav,0,1,1659,21,4,chinese,m,4,0.4,55.10787635,1.22566663
LYZ,77,1,2024-06-14T05:20:06.699Z,english_709.wav,0,1,1659,21,4,chinese,m,5,0.5,-57.13962404,1.94059393
LYZ,77,1,2024-06-14T05:20:06.699Z,english_709.wav,0,1,1659,21,4,chinese,m,6,0.6,-5.37289715,0.52219194
LYZ,77,1,2024-06-14T05:20:06.699Z,english_709.wav,0,1,1659,21,4,chinese,m,7,0.7,27.40236622,0.9142424
LYZ,77,1,2024-06-14T05:20:06.699Z,english_709.wav,0,1,1659,21,4,chinese,m,8,0.8,12.19670027,1.75067757
LYZ,77,1,2024-06-14T05:20:06.699Z,english_709.wav,0,1,1659,21,4,chinese,m,9,0.9,91.20271112,0.7385059
LYZ,77,1,2024-06-14T05:20:06.699Z,english_709.wav,0,1,1659,21,4,chinese,m,10,1,89.17036871,1.92412986
LYZ,77,1,2024-06-14T05:20:06.699Z,english_709.wav,0,1,1659,21,4,chinese,m,11,1.09391667,50.36439179,0.79240238
LYZ,78,1,2024-06-14T05:20:06.699Z,english_595.wav,0,0,2606,21,4,chinese,m,0,0,22.66066479,1.33322286
LYZ,78,1,2024-06-14T05:20:06.699Z,english_595.wav,0,0,2606,21,4,chinese,m,1,0.1,84.39995443,0.79225642
LYZ,78,1,2024-06-14T05:20:06.699Z,english_595.wav,0,0,2606,21,4,chinese,m,2,0.2,19.72307996,0.78213906
LYZ,78,1,2024-06-14T05:20:06.699Z,english_595.wav,0,0,2606,21,4,chinese,m,3,0.3,-75.24605749,0.04755157
LYZ,78,1,2024-06-14T05:20:06.699Z,english_595.wav,0,0,2606,21,4,chinese,m,4,0.4,-67.45783177,1.8774159
LYZ,78,1,2024-06-14T05:20:06.699Z,english_595.wav,0,0,2606,21,4,chinese,m,5,0.5,-37.47794161,0.68932381
LYZ,78,1,2024-06-14T05:20:06.699Z,english_595.wav,0,0,2606,21,4,chinese,m,6,0.6,11.08818928,1.24235148
LYZ,78,1,2024-06-14T05:20:06.699Z,english_595.wav,0,0,2606,21,4,chinese,m,7,0.7,46.85817265,1.6524831
LYZ,78,1,2024-06-14T05:20:06.699Z,english_595.wav,0,0,2606,21,4,chinese,m,8,0.8,-2.92238114,0.95449466
LYZ,78,1,2024-06-14T05:20:06.699Z,english_595.wav,0,0,2606,21,4,chinese,m,9,0.9,58.48560552,1.23515898
LYZ,78,1,2024-06-14T05:20:06.699Z,english_595.wav,0,0,2606,21,4,chinese,m,10,1,-52.60786122,1.92684196
LYZ,78,1,2024-06-14T05:20:06.699Z,english_595.wav,0,0,2606,21,4,chinese,m,11,1.09391667,16.6492661,0.85611045
LYZ,79,1,2024-06-14T05:20:06.699Z,english_15.wav,0,1,7946,21,4,chinese,m,0,0,62.7654015,0.64461989
LYZ,79,1,2024-06-14T05:20:06.699Z,english_15.wav,0,1,7946,21,4,chinese,m,1,0.1,72.90081021,0.87486851
LYZ,79,1,2024-06-14T05:20:06.699Z,english_15.wav,0,1,7946,21,4,chinese,m,2,0.2,-27.13813981,0.76068215
LYZ,79,1,2024-06-14T05:20:06.699Z,english_15.wav,0,1,7946,21,4,chinese,m,3,0.3,46.15025154,1.07697628
LYZ,79,1,2024-06-14T05:20:06.699Z,english_15.wav,0,1,7946,21,4,chinese,m,4,0.4,82.82691944,1.41242613
LYZ,79,1,2024-06-14T05:20:06.699Z,english_15.wav,0,1,7946,21,4,chinese,m,5,0.5,-11.77094526,0.34527471
LYZ,79,1,2024-06-14T05:20:06.699Z,english_15.wav,0,1,7946,21,4,chinese,m,6,0.6,7.10565833,1.49976623
LYZ,79,1,2024-06-14T05:20:06.699Z,english_15.wav,0,1,7946,21,4,chinese,m,7,0.7,95.94707331,0.60499577
LYZ,79,1,2024-06-14T05:20:06.699Z,english_15.wav,0,1,7946,21,4,chinese,m,8,0.8,45.63799677,1.54166411
LYZ,79,1,2024-06-14T05:20:06.699Z,english_15.wav,0,1,7946,21,4,chinese,m,9,0.9,-92.00814549,0.43181907
LYZ,79,1,2024-06-14T05:20:06.699Z,english_15.wav,0,1,7946,21,4,chinese,m,10,1,63.89035204,1.01946416
LYZ,79,1,2024-06-14T05:20:06.699Z,english_15.wav,0,1,7946,21,4,chinese,m,11,1.09391667,2.5390803,1.42183406
LYZ,80,1,2024-06-14T05:20:06.699Z,english_5.wav,0,1,2542,21,4,chinese,m,0,0,-71.05887053,0.69305634
LYZ,80,1,2024-06-14T05:20:06.699Z,english_5.wav,0,1,2542,21,4,chinese,m,1,0.1,-36.04846502,1.95331705
LYZ,80,1,2024-06-14T05:20:06.699Z,english_5.wav,0,1,2542,21,4,chinese,m,2,0.2,68.09307416,0.24939242
LYZ,80,1,2024-06-14T05:20:06.699Z,english_5.wav,0,1,2542,21,4,chinese,m,3,0.3,-71.61609357,1.30786136
LYZ,80,1,2024-06-14T05:20:06.699Z,english_5.wav,0,1,2542,21,4,chinese,m,4,0.4,-14.92970524,0.35721873
LYZ,80,1,2024-06-14T05:20:06.699Z,english_5.wav,0,1,2542,21,4,chinese,m,5,0.5,36.04461977,1.66367269
LYZ,80,1,2024-06-14T05:20:06.699Z,english_5.wav,0,1,2542,21,4,chinese,m,6,0.6,61.01603353,1.49043319
