subj,trial,block,date,stim,stim_order,response,rt,age,english,language,sex,param_index,segment,pitch,stretch
LG,0,0,2024-06-14T13:53:17.841Z,english_633.wav,0,1,5880,,,,,0,0,-29.53329055,1.81413682
LG,0,0,2024-06-14T13:53:17.841Z,english_633.wav,0,1,5880,,,,,1,0.1,-55.17737052,1.23507598
LG,0,0,2024-06-14T13:53:17.841Z,english_633.wav,0,1,5880,,,,,2,0.2,58.22185342,1.2508175
LG,0,0,2024-06-14T13:53:17.841Z,english_633.wav,0,1,5880,,,,,3,0.3,-43.06637085,0.42299618
LG,0,0,2024-06-14T13:53:17.841Z,english_633.wav,0,1,5880,,,,,4,0.4,76.59680907,0.12183449
LG,0,0,2024-06-14T13:53:17.841Z,english_633.wav,0,1,5880,,,,,5,0.5,52.74440756,0.93446119
LG,0,0,2024-06-14T13:53:17.841Z,english_633.wav,0,1,5880,,,,,6,0.6,-26.52378851,1.44820206
LG,0,0,2024-06-14T13:53:17.841Z,english_633.wav,0,1,5880,,,,,7,0.7,-16.86813106,0.73029459
LG,0,0,2024-06-14T13:53:17.841Z,english_633.wav,0,1,5880,,,,,8,0.8,7.65419617,0.16870505
LG,0,0,2024-06-14T13:53:17.841Z,english_633.wav,0,1,5880,,,,,9,0.9,2.97223231,1.17828847
LG,0,0,2024-06-14T13:53:17.841Z,english_633.wav,0,1,5880,,,,,10,1,-42.35584202,0.62674429
LG,0,0,2024-06-14T13:53:17.841Z,english_633.wav,0,1,5880,,,,,11,1.09391667,-84.52233477,0.94849203
LG,1,0,2024-06-14T13:53:17.841Z,english_559.wav,0,0,4342,,,,,0,0,-22.58359419,0.41474403
LG,1,0,2024-06-14T13:53:17.841Z,english_559.wav,0,0,4342,,,,,1,0.1,-30.96921825,0.71205907
LG,1,0,2024-06-14T13:53:17.841Z,english_559.wav,0,0,4342,,,,,2,0.2,-86.1378048,1.69519751
LG,1,0,2024-06-14T13:53:17.841Z,english_559.wav,0,0,4342,,,,,3,0.3,29.82360498,1.01062692
LG,1,0,2024-06-14T13:53:17.841Z,english_559.wav,0,0,4342,,,,,4,0.4,38.1322139,1.05592913
LG,1,0,2024-06-14T13:53:17.841Z,english_559.wav,0,0,4342,,,,,5,0.5,58.32762061,0.6684902
LG,1,0,2024-06-14T13:53:17.841Z,english_559.wav,0,0,4342,,,,,6,0.6,22.70409536,0.92808907
LG,1,0,2024-06-14T13:53:17.841Z,english_559.wav,0,0,4342,,,,,7,0.7,-21.11680564,1.67728702
LG,1,0,2024-06-14T13:53:17.841Z,english_559.wav,0,0,4342,,,,,8,0.8,76.91113815,0.99155685
LG,1,0,2024-06-14T13:53:17.841Z,english_559.wav,0,0,4342,,,,,9,0.9,-79.88102102,1.28910569
LG,1,0,2024-06-14T13:53:17.841Z,english_559.wav,0,0,4342,,,,,10,1,83.63275499,1.70810559
LG,1,0,2024-06-14T13:53:17.841Z,english_559.wav,0,0,4342,,,,,11,1.09391667,-89.81944345,1.28508404
LG,2,0,2024-06-14T13:53:17.841Z,english_90.wav,0,0,1256,,,,,0,0,63.54924995,1.34228215
LG,2,0,2024-06-14T13:53:17.841Z,english_90.wav,0,0,1256,,,,,1,0.1,-59.21327506,1.34732724
LG,2,0,2024-06-14T13:53:17.841Z,english_90.wav,0,0,1256,,,,,2,0.2,34.58495613,1.75147993
LG,2,0,2024-06-14T13:53:17.841Z,english_90.wav,0,0,1256,,,,,3,0.3,3.2427236,0.03089284
LG,2,0,2024-06-14T13:53:17.841Z,english_90.wav,0,0,1256,,,,,4,0.4,1.17936493,1.52341973
LG,2,0,2024-06-14T13:53:17.841Z,english_90.wav,0,0,1256,,,,,5,0.5,50.51297544,0.97925583
LG,2,0,2024-06-14T13:53:17.841Z,english_90.wav,0,0,1256,,,,,6,0.6,61.04656064,1.17642538
LG,2,0,2024-06-14T13:53:17.841Z,english_90.wav,0,0,1256,,,,,7,0.7,-96.36424089,1.13367306
LG,2,0,2024-06-14T13:53:17.841Z,english_90.wav,0,0,1256,,,,,8,0.8,9.94738881,1.45431282
LG,2,0,2024-06-14T13:53:17.841Z,english_90.wav,0,0,1256,,,,,9,0.9,-95.56108651,0.56738547
LG,2,0,2024-06-14T13:53:17.841Z,english_90.wav,0,0,1256,,,,,10,1,-78.91453265,1.10123663
LG,2,0,2024-06-14T13:53:17.841Z,english_90.wav,0,0,1256,,,,,11,1.09391667,57.06664979,0.76686745
LG,3,0,2024-06-14T13:53:17.841Z,english_560.wav,0,0,3248,,,,,0,0,-58.05020857,1.72720005
LG,3,0,2024-06-14T13:53:17.841Z,english_560.wav,0,0,3248,,,,,1,0.1,0.75359215,0.87170151
LG,3,0,2024-06-14T13:53:17.841Z,english_560.wav,0,0,3248,,,,,2,0.2,-63.0427696,1.11137899
LG,3,0,2024-06-14T13:53:17.841Z,english_560.wav,0,0,3248,,,,,3,0.3,-80.65695741,1.61210877
LG,3,0,2024-06-14T13:53:17.841Z,english_560.wav,0,0,3248,,,,,4,0.4,30.22073259,0.77402776
LG,3,0,2024-06-14T13:53:17.841Z,english_560.wav,0,0,3248,,,,,5,0.5,78.65082856,1.41240522
LG,3,0,2024-06-14T13:53:17.841Z,english_560.wav,0,0,3248,,,,,6,0.6,-21.87019315,1.5310865
LG,3,0,2024-06-14T13:53:17.841Z,english_560.wav,0,0,3248,,,,,7,0.7,-81.08775569,0.91259008
LG,3,0,2024-06-14T13:53:17.841Z,english_560.wav,0,0,3248,,,,,8,0.8,-85.95097006,0.61355253
LG,3,0,2024-06-14T13:53:17.841Z,english_560.wav,0,0,3248,,,,,9,0.9,55.61706947,0.53974683
LG,3,0,2024-06-14T13:53:17.841Z,english_560.wav,0,0,3248,,,,,10,1,78.8186599,1.30815579
LG,3,0,2024-06-14T13:53:17.841Z,english_560.wav,0,0,3248,,,,,11,1.09391667,-38.99290187,1.62027104
LG,4,0,2024-06-14T13:53:17.841Z,english_66.wav,0,1,1259,,,,,0,0,73.54239792,1.39962355
LG,4,0,2024-06-14T13:53:17.841Z,english_66.wav,0,1,1259,,,,,1,0.1,-24.02007983,0.40719393
LG,4,0,2024-06-14T13:53:17.841Z,english_66.wav,0,1,1259,,,,,2,0.2,49.15082977,0.56009301
LG,4,0,2024-06-14T13:53:17.841Z,english_66.wav,0,1,1259,,,,,3,0.3,59.25187184,0.88526938
LG,4,0,2024-06-14T13:53:17.841Z,english_66.wav,0,1,1259,,,,,4,0.4,-38.45178026,0.20167751
LG,4,0,2024-06-14T13:53:17.841Z,english_66.wav,0,1,1259,,,,,5,0.5,4.75457438,0.49978963
LG,4,0,2024-06-14T13:53:17.841Z,english_66.wav,0,1,1259,,,,,6,0.6,46.25569394,1.58181975
LG,4,0,2024-06-14T13:53:17.841Z,english_66.wav,0,1,1259,,,,,7,0.7,-60.4256139,0.73201225
LG,4,0,2024-06-14T13:53:17.841Z,english_66.wav,0,1,1259,,,,,8,0.8,67.09047121,0.26938408
LG,4,0,2024-06-14T13:53:17.841Z,english_66.wav,0,1,1259,,,,,9,0.9,88.85676661,1.15195977
LG,4,0,2024-06-14T13:53:17.841Z,english_66.wav,0,1,1259,,,,,10,1,69.83029982,1.10937983
LG,4,0,2024-06-14T13:53:17.841Z,english_66.wav,0,1,1259,,,,,11,1.09391667,35.36852194,1.70850229
LG,5,0,2024-06-14T13:53:17.841Z,english_121.wav,0,1,413,,,,,0,0,-45.47404613,1.1666534
LG,5,0,2024-06-14T13:53:17.841Z,english_121.wav,0,1,413,,,,,1,0.1,-36.49769978,1.03435239
LG,5,0,2024-06-14T13:53:17.841Z,english_121.wav,0,1,413,,,,,2,0.2,-66.69646717,1.07224248
LG,5,0,2024-06-14T13:53:17.841Z,english_121.wav,0,1,413,,,,,3,0.3,56.76733216,1.62337858
LG,5,0,2024-06-14T13:53:17.841Z,english_121.wav,0,1,413,,,,,4,0.4,-69.2204817,1.13623118
LG,5,0,2024-06-14T13:53:17.841Z,english_121.wav,0,1,413,,,,,5,0.5,67.71926704,0.1634934
LG,5,0,2024-06-14T13:53:17.841Z,english_121.wav,0,1,413,,,,,6,0.6,-20.18031628,1.38272259
LG,5,0,2024-06-14T13:53:17.841Z,english_121.wav,0,1,413,,,,,7,0.7,-46.80295657,1.3454344
LG,5,0,2024-06-14T13:53:17.841Z,english_121.wav,0,1,413,,,,,8,0.8,-30.65691434,1.73628045
LG,5,0,2024-06-14T13:53:17.841Z,english_121.wav,0,1,413,,,,,9,0.9,-30.96173959,0.71303122
LG,5,0,2024-06-14T13:53:17.841Z,english_121.wav,0,1,413,,,,,10,1,69.71514833,1.56011323
LG,5,0,2024-06-14T13:53:17.841Z,english_121.wav,0,1,413,,,,,11,1.09391667,14.56946925,0.62204911
LG,6,0,2024-06-14T13:53:17.841Z,english_474.wav,0,0,384,,,,,0,0,90.33187361,1.64439586
LG,6,0,2024-06-14T13:53:17.841Z,english_474.wav,0,0,384,,,,,1,0.1,-6.84069755,1.97409516
LG,6,0,2024-06-14T13:53:17.841Z,english_474.wav,0,0,384,,,,,2,0.2,-57.72482016,1.83394357
LG,6,0,2024-06-14T13:53:17.841Z,english_474.wav,0,0,384,,,,,3,0.3,-31.39067157,1.91918891
LG,6,0,2024-06-14T13:53:17.841Z,english_474.wav,0,0,384,,,,,4,0.4,81.36101502,1.89552465
LG,6,0,2024-06-14T13:53:17.841Z,english_474.wav,0,0,384,,,,,5,0.5,86.28648359,1.60591709
LG,6,0,2024-06-14T13:53:17.841Z,english_474.wav,0,0,384,,,,,6,0.6,59.24078698,1.87570248
LG,6,0,2024-06-14T13:53:17.841Z,english_474.wav,0,0,384,,,,,7,0.7,83.65694144,0.05909507
LG,6,0,2024-06-14T13:53:17.841Z,english_474.wav,0,0,384,,,,,8,0.8,-5.88526163,0.13266254
LG,6,0,2024-06-14T13:53:17.841Z,english_474.wav,0,0,384,,,,,9,0.9,-0.83528638,1.2446593
LG,6,0,2024-06-14T13:53:17.841Z,english_474.wav,0,0,384,,,,,10,1,93.70431835,0.47044402
LG,6,0,2024-06-14T13:53:17.841Z,english_474.wav,0,0,384,,,,,11,1.09391667,-9.99550439,1.70719202
LG,7,0,2024-06-14T13:53:17.841Z,english_141.wav,0,0,1896,,,,,0,0,-25.96524021,0.14393867
LG,7,0,2024-06-14T13:53:17.841Z,english_141.wav,0,0,1896,,,,,1,0.1,-11.44118441,1.79797632
LG,7,0,2024-06-14T13:53:17.841Z,english_141.wav,0,0,1896,,,,,2,0.2,-66.44014101,0.67919643
LG,7,0,2024-06-14T13:53:17.841Z,english_141.wav,0,0,1896,,,,,3,0.3,30.66990272,0.9819906
LG,7,0,2024-06-14T13:53:17.841Z,english_141.wav,0,0,1896,,,,,4,0.4,-49.39763787,1.78886462
LG,7,0,2024-06-14T13:53:17.841Z,english_141.wav,0,0,1896,,,,,5,0.5,71.82875968,1.83801705
LG,7,0,2024-06-14T13:53:17.841Z,english_141.wav,0,0,1896,,,,,6,0.6,50.32312506,1.16009946
LG,7,0,2024-06-14T13:53:17.841Z,english_141.wav,0,0,1896,,,,,7,0.7,83.58769319,0.83834581
LG,7,0,2024-06-14T13:53:17.841Z,english_141.wav,0,0,1896,,,,,8,0.8,-69.87735782,0.15042094
LG,7,0,2024-06-14T13:53:17.841Z,english_141.wav,0,0,1896,,,,,9,0.9,56.37127437,0.30059528
LG,7,0,2024-06-14T13:53:17.841Z,english_141.wav,0,0,1896,,,,,10,1,68.13119407,1.31059528
LG,7,0,2024-06-14T13:53:17.841Z,english_141.wav,0,0,1896,,,,,11,1.09391667,53.90803302,1.79436216
LG,8,0,2024-06-14T13:53:17.841Z,english_916.wav,0,1,1691,,,,,0,0,-75.50139917,0.33116573
LG,8,0,2024-06-14T13:53:17.841Z,english_916.wav,0,1,1691,,,,,1,0.1,87.74693423,0.79085074
LG,8,0,2024-06-14T13:53:17.841Z,english_916.wav,0,1,1691,,,,,2,0.2,31.07453941,1.46577933
LG,8,0,2024-06-14T13:53:17.841Z,english_916.wav,0,1,1691,,,,,3,0.3,-54.74808786,0.46369868
LG,8,0,2024-06-14T13:53:17.841Z,english_916.wav,0,1,1691,,,,,4,0.4,22.76610273,1.13985244
LG,8,0,2024-06-14T13:53:17.841Z,english_916.wav,0,1,1691,,,,,5,0.5,11.00268218,0.7460079
LG,8,0,2024-06-14T13:53:17.841Z,english_916.wav,0,1,1691,,,,,6,0.6,51.91753819,0.81938326
LG,8,0,2024-06-14T13:53:17.841Z,english_916.wav,0,1,1691,,,,,7,0.7,14.6363884,1.36585166
LG,8,0,2024-06-14T13:53:17.841Z,english_916.wav,0,1,1691,,,,,8,0.8,81.83938772,0.74190137
LG,8,0,2024-06-14T13:53:17.841Z,english_916.wav,0,1,1691,,,,,9,0.9,-6.69300519,1.01772596
LG,8,0,2024-06-14T13:53:17.841Z,english_916.wav,0,1,1691,,,,,10,1,48.70423214,1.52043816
LG,8,0,2024-06-14T13:53:17.841Z,english_916.wav,0,1,1691,,,,,11,1.09391667,-75.62542255,1.80998289
LG,9,0,2024-06-14T13:53:17.841Z,english_89.wav,0,1,421,,,,,0,0,44.55560521,0.83141016
LG,9,0,2024-06-14T13:53:17.841Z,english_89.wav,0,1,421,,,,,1,0.1,-38.12575075,0.73728779
LG,9,0,2024-06-14T13:53:17.841Z,english_89.wav,0,1,421,,,,,2,0.2,-85.08741113,0.76468972
LG,9,0,2024-06-14T13:53:17.841Z,english_89.wav,0,1,421,,,,,3,0.3,-34.51149373,1.40220205
LG,9,0,2024-06-14T13:53:17.841Z,english_89.wav,0,1,421,,,,,4,0.4,91.4200198,1.40801955
LG,9,0,2024-06-14T13:53:17.841Z,english_89.wav,0,1,421,,,,,5,0.5,-88.24762839,0.24508348
LG,9,0,2024-06-14T13:53:17.841Z,english_89.wav,0,1,421,,,,,6,0.6,-12.15976794,0.73331541
LG,9,0,2024-06-14T13:53:17.841Z,english_89.wav,0,1,421,,,,,7,0.7,8.11504905,1.14258486
LG,9,0,2024-06-14T13:53:17.841Z,english_89.wav,0,1,421,,,,,8,0.8,48.7516223,0.28719695
LG,9,0,2024-06-14T13:53:17.841Z,english_89.wav,0,1,421,,,,,9,0.9,-61.89417078,1.82425172
LG,9,0,2024-06-14T13:53:17.841Z,english_89.wav,0,1,421,,,,,10,1,70.08039029,1.66848997
LG,9,0,2024-06-14T13:53:17.841Z,english_89.wav,0,1,421,,,,,11,1.09391667,73.1109171,1.25647122
LG,10,0,2024-06-14T13:53:17.841Z,english_466.wav,0,1,746,,,,,0,0,29.78122055,0.08614047
LG,10,0,2024-06-14T13:53:17.841Z,english_466.wav,0,1,746,,,,,1,0.1,1.00212309,0.60651355
LG,10,0,2024-06-14T13:53:17.841Z,english_466.wav,0,1,746,,,,,2,0.2,84.88341441,0.95660543
LG,10,0,2024-06-14T13:53:17.841Z,english_466.wav,0,1,746,,,,,3,0.3,18.0671926,0.08485907
LG,10,0,2024-06-14T13:53:17.841Z,english_466.wav,0,1,746,,,,,4,0.4,-63.20091068,0.78105645
LG,10,0,2024-06-14T13:53:17.841Z,english_466.wav,0,1,746,,,,,5,0.5,-1.15346207,0.10730209
LG,10,0,2024-06-14T13:53:17.841Z,english_466.wav,0,1,746,,,,,6,0.6,-1.70645236,1.7980607
LG,10,0,2024-06-14T13:53:17.841Z,english_466.wav,0,1,746,,,,,7,0.7,37.24590025,1.48241485
LG,10,0,2024-06-14T13:53:17.841Z,english_466.wav,0,1,746,,,,,8,0.8,-40.92862731,0.1626415
LG,10,0,2024-06-14T13:53:17.841Z,english_466.wav,0,1,746,,,,,9,0.9,-58.08317272,1.43527927
LG,10,0,2024-06-14T13:53:17.841Z,english_466.wav,0,1,746,,,,,10,1,-59.75718078,0.97707475
LG,10,0,2024-06-14T13:53:17.841Z,english_466.wav,0,1,746,,,,,11,1.09391667,13.82760032,1.6467926
LG,11,0,2024-06-14T13:53:17.841Z,english_765.wav,0,1,215,,,,,0,0,-46.53041628,0.24046298
LG,11,0,2024-06-14T13:53:17.841Z,english_765.wav,0,1,215,,,,,1,0.1,-50.60278258,1.09360201
LG,11,0,2024-06-14T13:53:17.841Z,english_765.wav,0,1,215,,,,,2,0.2,-7.48188076,0.57764993
LG,11,0,2024-06-14T13:53:17.841Z,english_765.wav,0,1,215,,,,,3,0.3,-4.61052544,0.55520632
LG,11,0,2024-06-14T13:53:17.841Z,english_765.wav,0,1,215,,,,,4,0.4,69.78049639,0.44903327
LG,11,0,2024-06-14T13:53:17.841Z,english_765.wav,0,1,215,,,,,5,0.5,-53.58575129,0.63867698
LG,11,0,2024-06-14T13:53:17.841Z,english_765.wav,0,1,215,,,,,6,0.6,-46.38219648,0.56842849
LG,11,0,2024-06-14T13:53:17.841Z,english_765.wav,0,1,215,,,,,7,0.7,78.75215399,1.28188815
LG,11,0,2024-06-14T13:53:17.841Z,english_765.wav,0,1,215,,,,,8,0.8,95.47520091,0.91009427
LG,11,0,2024-06-14T13:53:17.841Z,english_765.wav,0,1,215,,,,,9,0.9,26.22396157,0.76285115
LG,11,0,2024-06-14T13:53:17.841Z,english_765.wav,0,1,215,,,,,10,1,3.12654745,1.19675799
LG,11,0,2024-06-14T13:53:17.841Z,english_765.wav,0,1,215,,,,,11,1.09391667,-11.81611391,0.81915378
LG,12,0,2024-06-14T13:53:17.841Z,english_751.wav,0,1,169,,,,,0,0,-66.06272789,0.8938032
LG,12,0,2024-06-14T13:53:17.841Z,english_751.wav,0,1,169,,,,,1,0.1,-35.39424596,0.85096145
LG,12,0,2024-06-14T13:53:17.841Z,english_751.wav,0,1,169,,,,,2,0.2,-5.06217065,0.63682042
LG,12,0,2024-06-14T13:53:17.841Z,english_751.wav,0,1,169,,,,,3,0.3,34.9656481,0.66546542
LG,12,0,2024-06-14T13:53:17.841Z,english_751.wav,0,1,169,,,,,4,0.4,21.23436914,1.36528552
LG,12,0,2024-06-14T13:53:17.841Z,english_751.wav,0,1,169,,,,,5,0.5,82.13600136,1.24494727
LG,12,0,2024-06-14T13:53:17.841Z,english_751.wav,0,1,169,,,,,6,0.6,31.75524198,1.91319775
LG,12,0,2024-06-14T13:53:17.841Z,english_751.wav,0,1,169,,,,,7,0.7,25.74157906,1.46839197
LG,12,0,2024-06-14T13:53:17.841Z,english_751.wav,0,1,169,,,,,8,0.8,0.71739343,1.22847184
LG,12,0,2024-06-14T13:53:17.841Z,english_751.wav,0,1,169,,,,,9,0.9,-48.73723386,1.68139256
LG,12,0,2024-06-14T13:53:17.841Z,english_751.wav,0,1,169,,,,,10,1,-45.00388336,0.62568337
LG,12,0,2024-06-14T13:53:17.841Z,english_751.wav,0,1,169,,,,,11,1.09391667,-22.7557427,0.09425642
LG,13,0,2024-06-14T13:53:17.841Z,english_803.wav,0,1,690,,,,,0,0,-87.73830572,0.85344372
LG,13,0,2024-06-14T13:53:17.841Z,english_803.wav,0,1,690,,,,,1,0.1,-15.08646711,1.55927117
LG,13,0,2024-06-14T13:53:17.841Z,english_803.wav,0,1,690,,,,,2,0.2,-93.06982521,1.70131734
LG,13,0,2024-06-14T13:53:17.841Z,english_803.wav,0,1,690,,,,,3,0.3,-69.48431994,0.94684337
LG,13,0,2024-06-14T13:53:17.841Z,english_803.wav,0,1,690,,,,,4,0.4,66.11466902,1.98181189
LG,13,0,2024-06-14T13:53:17.841Z,english_803.wav,0,1,690,,,,,5,0.5,9.32273235,0.71685289
LG,13,0,2024-06-14T13:53:17.841Z,english_803.wav,0,1,690,,,,,6,0.6,66.48896901,0.68582038
LG,13,0,2024-06-14T13:53:17.841Z,english_803.wav,0,1,690,,,,,7,0.7,-66.59180882,0.52787947
LG,13,0,2024-06-14T13:53:17.841Z,english_803.wav,0,1,690,,,,,8,0.8,43.6326205,1.2789965
LG,13,0,2024-06-14T13:53:17.841Z,english_803.wav,0,1,690,,,,,9,0.9,-52.46264607,1.18929342
LG,13,0,2024-06-14T13:53:17.841Z,english_803.wav,0,1,690,,,,,10,1,47.80537721,1.0745206
LG,13,0,2024-06-14T13:53:17.841Z,english_803.wav,0,1,690,,,,,11,1.09391667,7.91826016,1.28256899
LG,14,0,2024-06-14T13:53:17.841Z,english_903.wav,0,0,401,,,,,0,0,74.40610552,1.10397813
LG,14,0,2024-06-14T13:53:17.841Z,english_903.wav,0,0,401,,,,,1,0.1,-14.0058198,0.67044391
LG,14,0,2024-06-14T13:53:17.841Z,english_903.wav,0,0,401,,,,,2,0.2,-43.18870249,1.06331023
LG,14,0,2024-06-14T13:53:17.841Z,english_903.wav,0,0,401,,,,,3,0.3,85.51038869,0.60586728
LG,14,0,2024-06-14T13:53:17.841Z,english_903.wav,0,0,401,,,,,4,0.4,8.36930428,0.11380816
LG,14,0,2024-06-14T13:53:17.841Z,english_903.wav,0,0,401,,,,,5,0.5,-11.10468326,1.21530961
LG,14,0,2024-06-14T13:53:17.841Z,english_903.wav,0,0,401,,,,,6,0.6,0.77760872,1.48658081
LG,14,0,2024-06-14T13:53:17.841Z,english_903.wav,0,0,401,,,,,7,0.7,61.82804998,1.41412243
LG,14,0,2024-06-14T13:53:17.841Z,english_903.wav,0,0,401,,,,,8,0.8,-21.718638,0.93606202
LG,14,0,2024-06-14T13:53:17.841Z,english_903.wav,0,0,401,,,,,9,0.9,-41.58529941,0.40038549
LG,14,0,2024-06-14T13:53:17.841Z,english_903.wav,0,0,401,,,,,10,1,22.99211782,0.6748387
LG,14,0,2024-06-14T13:53:17.841Z,english_903.wav,0,0,401,,,,,11,1.09391667,-96.82772328,0.72929926
LG,15,0,2024-06-14T13:53:17.841Z,english_643.wav,0,0,935,,,,,0,0,-28.71923325,0.05998695
LG,15,0,2024-06-14T13:53:17.841Z,english_643.wav,0,0,935,,,,,1,0.1,-41.33033256,1.69509995
LG,15,0,2024-06-14T13:53:17.841Z,english_643.wav,0,0,935,,,,,2,0.2,14.60836996,1.2304272
LG,15,0,2024-06-14T13:53:17.841Z,english_643.wav,0,0,935,,,,,3,0.3,24.53811626,1.46168191
LG,15,0,2024-06-14T13:53:17.841Z,english_643.wav,0,0,935,,,,,4,0.4,7.82813988,1.6429412
LG,15,0,2024-06-14T13:53:17.841Z,english_643.wav,0,0,935,,,,,5,0.5,31.13275889,1.01913146
LG,15,0,2024-06-14T13:53:17.841Z,english_643.wav,0,0,935,,,,,6,0.6,9.00223054,0.81472246
LG,15,0,2024-06-14T13:53:17.841Z,english_643.wav,0,0,935,,,,,7,0.7,65.97905996,0.51197957
LG,15,0,2024-06-14T13:53:17.841Z,english_643.wav,0,0,935,,,,,8,0.8,3.77456402,0.97348527
LG,15,0,2024-06-14T13:53:17.841Z,english_643.wav,0,0,935,,,,,9,0.9,20.70026816,0.6370084
LG,15,0,2024-06-14T13:53:17.841Z,english_643.wav,0,0,935,,,,,10,1,98.54762674,0.00532383
LG,15,0,2024-06-14T13:53:17.841Z,english_643.wav,0,0,935,,,,,11,1.09391667,74.26815163,1.21089253
LG,16,0,2024-06-14T13:53:17.841Z,english_239.wav,0,1,405,,,,,0,0,-30.5267656,1.39175326
LG,16,0,2024-06-14T13:53:17.841Z,english_239.wav,0,1,405,,,,,1,0.1,86.9253709,0.20187761
LG,16,0,2024-06-14T13:53:17.841Z,english_239.wav,0,1,405,,,,,2,0.2,98.1444663,0.94285365
LG,16,0,2024-06-14T13:53:17.841Z,english_239.wav,0,1,405,,,,,3,0.3,3.73344739,0.80472341
LG,16,0,2024-06-14T13:53:17.841Z,english_239.wav,0,1,405,,,,,4,0.4,93.7963197,1.04208815
LG,16,0,2024-06-14T13:53:17.841Z,english_239.wav,0,1,405,,,,,5,0.5,3.55240778,1.26812124
LG,16,0,2024-06-14T13:53:17.841Z,english_239.wav,0,1,405,,,,,6,0.6,68.0566249,0.21560502
LG,16,0,2024-06-14T13:53:17.841Z,english_239.wav,0,1,405,,,,,7,0.7,-0.0862323076,1.00669433
LG,16,0,2024-06-14T13:53:17.841Z,english_239.wav,0,1,405,,,,,8,0.8,-20.3909635,0.33435282
LG,16,0,2024-06-14T13:53:17.841Z,english_239.wav,0,1,405,,,,,9,0.9,14.0711591,1.80648064
LG,16,0,2024-06-14T13:53:17.841Z,english_239.wav,0,1,405,,,,,10,1,-8.12414996,0.53666305
LG,16,0,2024-06-14T13:53:17.841Z,english_239.wav,0,1,405,,,,,11,1.09391667,57.1088195,0.81763806
LG,17,0,2024-06-14T13:53:17.841Z,english_525.wav,0,0,652,,,,,0,0,-85.30144906,1.21891661
LG,17,0,2024-06-14T13:53:17.841Z,english_525.wav,0,0,652,,,,,1,0.1,40.69478692,0.63566771
LG,17,0,2024-06-14T13:53:17.841Z,english_525.wav,0,0,652,,,,,2,0.2,27.58167259,1.09185932
LG,17,0,2024-06-14T13:53:17.841Z,english_525.wav,0,0,652,,,,,3,0.3,-9.65414258,1.3630453
LG,17,0,2024-06-14T13:53:17.841Z,english_525.wav,0,0,652,,,,,4,0.4,-92.26214691,0.47547332
LG,17,0,2024-06-14T13:53:17.841Z,english_525.wav,0,0,652,,,,,5,0.5,1.87368715,0.98334241
LG,17,0,2024-06-14T13:53:17.841Z,english_525.wav,0,0,652,,,,,6,0.6,84.67723439,1.24273573
LG,17,0,2024-06-14T13:53:17.841Z,english_525.wav,0,0,652,,,,,7,0.7,-37.99334031,1.29787156
LG,17,0,2024-06-14T13:53:17.841Z,english_525.wav,0,0,652,,,,,8,0.8,91.90351479,1.39013402
LG,17,0,2024-06-14T13:53:17.841Z,english_525.wav,0,0,652,,,,,9,0.9,51.5107545,0.19016555
LG,17,0,2024-06-14T13:53:17.841Z,english_525.wav,0,0,652,,,,,10,1,-23.16743883,0.57102757
LG,17,0,2024-06-14T13:53:17.841Z,english_525.wav,0,0,652,,,,,11,1.09391667,-40.96893152,0.41777753
LG,18,0,2024-06-14T13:53:17.841Z,english_222.wav,0,0,656,,,,,0,0,96.40991371,0.9507269
LG,18,0,2024-06-14T13:53:17.841Z,english_222.wav,0,0,656,,,,,1,0.1,44.65841575,1.79183575
LG,18,0,2024-06-14T13:53:17.841Z,english_222.wav,0,0,656,,,,,2,0.2,-16.29621217,1.09244309
LG,18,0,2024-06-14T13:53:17.841Z,english_222.wav,0,0,656,,,,,3,0.3,-48.55554978,1.6357802
LG,18,0,2024-06-14T13:53:17.841Z,english_222.wav,0,0,656,,,,,4,0.4,26.12822135,0.19893477
LG,18,0,2024-06-14T13:53:17.841Z,english_222.wav,0,0,656,,,,,5,0.5,56.43887594,0.38875901
LG,18,0,2024-06-14T13:53:17.841Z,english_222.wav,0,0,656,,,,,6,0.6,-8.03605186,0.73216499
LG,18,0,2024-06-14T13:53:17.841Z,english_222.wav,0,0,656,,,,,7,0.7,54.77211039,1.11169146
LG,18,0,2024-06-14T13:53:17.841Z,english_222.wav,0,0,656,,,,,8,0.8,25.53059274,0.05558172
LG,18,0,2024-06-14T13:53:17.841Z,english_222.wav,0,0,656,,,,,9,0.9,-58.35574141,0.18202708
LG,18,0,2024-06-14T13:53:17.841Z,english_222.wav,0,0,656,,,,,10,1,-61.20346584,0.44521291
LG,18,0,2024-06-14T13:53:17.841Z,english_222.wav,0,0,656,,,,,11,1.09391667,99.40713186,0.13186743
LG,19,0,2024-06-14T13:53:17.841Z,english_571.wav,0,0,660,,,,,0,0,66.27002453,0.70496708
LG,19,0,2024-06-14T13:53:17.841Z,english_571.wav,0,0,660,,,,,1,0.1,72.56873765,1.41341806
LG,19,0,2024-06-14T13:53:17.841Z,english_571.wav,0,0,660,,,,,2,0.2,-47.18075811,1.56676293
LG,19,0,2024-06-14T13:53:17.841Z,english_571.wav,0,0,660,,,,,3,0.3,-50.2773596,1.96972076
LG,19,0,2024-06-14T13:53:17.841Z,english_571.wav,0,0,660,,,,,4,0.4,-37.39995802,1.04150982
LG,19,0,2024-06-14T13:53:17.841Z,english_571.wav,0,0,660,,,,,5,0.5,44.57144772,0.64987665
LG,19,0,2024-06-14T13:53:17.841Z,english_571.wav,0,0,660,,,,,6,0.6,-77.42232626,0.50073604
LG,19,0,2024-06-14T13:53:17.841Z,english_571.wav,0,0,660,,,,,7,0.7,-61.53894289,1.36720733
LG,19,0,2024-06-14T13:53:17.841Z,english_571.wav,0,0,660,,,,,8,0.8,57.25780133,0.69150917
LG,19,0,2024-06-14T13:53:17.841Z,english_571.wav,0,0,660,,,,,9,0.9,-53.9092717,0.1917381
LG,19,0,2024-06-14T13:53:17.841Z,english_571.wav,0,0,660,,,,,10,1,79.641801,1.04532949
LG,19,0,2024-06-14T13:53:17.841Z,english_571.wav,0,0,660,,,,,11,1.09391667,81.23373834,0.53527151
LG,20,0,2024-06-14T13:53:17.841Z,english_120.wav,0,1,607,,,,,0,0,-26.38999682,0.72895048
LG,20,0,2024-06-14T13:53:17.841Z,english_120.wav,0,1,607,,,,,1,0.1,-22.99967347,1.8926075
LG,20,0,2024-06-14T13:53:17.841Z,english_120.wav,0,1,607,,,,,2,0.2,3.73325412,0.72613161
LG,20,0,2024-06-14T13:53:17.841Z,english_120.wav,0,1,607,,,,,3,0.3,4.96616557,1.865488
LG,20,0,2024-06-14T13:53:17.841Z,english_120.wav,0,1,607,,,,,4,0.4,-29.93221986,1.93166142
LG,20,0,2024-06-14T13:53:17.841Z,english_120.wav,0,1,607,,,,,5,0.5,37.07787093,0.25664039
LG,20,0,2024-06-14T13:53:17.841Z,english_120.wav,0,1,607,,,,,6,0.6,-72.11553582,1.70761542
LG,20,0,2024-06-14T13:53:17.841Z,english_120.wav,0,1,607,,,,,7,0.7,-26.01116497,0.9844932
LG,20,0,2024-06-14T13:53:17.841Z,english_120.wav,0,1,607,,,,,8,0.8,28.09141519,0.79083126
LG,20,0,2024-06-14T13:53:17.841Z,english_120.wav,0,1,607,,,,,9,0.9,-12.73315984,0.78849397
LG,20,0,2024-06-14T13:53:17.841Z,english_120.wav,0,1,607,,,,,10,1,-2.02458529,1.83169014
LG,20,0,2024-06-14T13:53:17.841Z,english_120.wav,0,1,607,,,,,11,1.09391667,-56.16856888,0.88953278
LG,21,0,2024-06-14T13:53:17.841Z,english_127.wav,0,1,331,,,,,0,0,-97.90087244,0.58111051
LG,21,0,2024-06-14T13:53:17.841Z,english_127.wav,0,1,331,,,,,1,0.1,-36.95796642,1.98466344
LG,21,0,2024-06-14T13:53:17.841Z,english_127.wav,0,1,331,,,,,2,0.2,33.65056974,0.66246338
LG,21,0,2024-06-14T13:53:17.841Z,english_127.wav,0,1,331,,,,,3,0.3,-19.85406453,0.15661461
LG,21,0,2024-06-14T13:53:17.841Z,english_127.wav,0,1,331,,,,,4,0.4,-42.6348027,1.74661521
LG,21,0,2024-06-14T13:53:17.841Z,english_127.wav,0,1,331,,,,,5,0.5,-56.79071689,1.58365522
LG,21,0,2024-06-14T13:53:17.841Z,english_127.wav,0,1,331,,,,,6,0.6,-5.36842737,0.14537305
LG,21,0,2024-06-14T13:53:17.841Z,english_127.wav,0,1,331,,,,,7,0.7,-65.17730662,1.46904529
LG,21,0,2024-06-14T13:53:17.841Z,english_127.wav,0,1,331,,,,,8,0.8,55.11157095,1.23944377
LG,21,0,2024-06-14T13:53:17.841Z,english_127.wav,0,1,331,,,,,9,0.9,-6.91901103,1.93001672
LG,21,0,2024-06-14T13:53:17.841Z,english_127.wav,0,1,331,,,,,10,1,32.26051644,0.93435528
LG,21,0,2024-06-14T13:53:17.841Z,english_127.wav,0,1,331,,,,,11,1.09391667,51.54181068,1.6531459
LG,22,0,2024-06-14T13:53:17.841Z,english_792.wav,0,0,866,,,,,0,0,-53.21610879,1.55385175
LG,22,0,2024-06-14T13:53:17.841Z,english_792.wav,0,0,866,,,,,1,0.1,32.15976894,0.65373426
LG,22,0,2024-06-14T13:53:17.841Z,english_792.wav,0,0,866,,,,,2,0.2,11.67164647,0.07623644
LG,22,0,2024-06-14T13:53:17.841Z,english_792.wav,0,0,866,,,,,3,0.3,78.41102069,0.81063335
LG,22,0,2024-06-14T13:53:17.841Z,english_792.wav,0,0,866,,,,,4,0.4,57.86075133,1.61919716
LG,22,0,2024-06-14T13:53:17.841Z,english_792.wav,0,0,866,,,,,5,0.5,26.57758322,1.49931194
LG,22,0,2024-06-14T13:53:17.841Z,english_792.wav,0,0,866,,,,,6,0.6,-19.90648144,0.76960145
LG,22,0,2024-06-14T13:53:17.841Z,english_792.wav,0,0,866,,,,,7,0.7,-5.80202054,0.41164506
LG,22,0,2024-06-14T13:53:17.841Z,english_792.wav,0,0,866,,,,,8,0.8,-79.72401374,1.42613076
LG,22,0,2024-06-14T13:53:17.841Z,english_792.wav,0,0,866,,,,,9,0.9,-39.61261559,0.70792196
LG,22,0,2024-06-14T13:53:17.841Z,english_792.wav,0,0,866,,,,,10,1,87.31929903,1.13611226
LG,22,0,2024-06-14T13:53:17.841Z,english_792.wav,0,0,866,,,,,11,1.09391667,10.49178802,0.18326108
LG,23,0,2024-06-14T13:53:17.841Z,english_3.wav,0,0,219,,,,,0,0,46.12890401,1.26973721
LG,23,0,2024-06-14T13:53:17.841Z,english_3.wav,0,0,219,,,,,1,0.1,-46.79234899,0.81563074
LG,23,0,2024-06-14T13:53:17.841Z,english_3.wav,0,0,219,,,,,2,0.2,43.27356125,1.94124466
LG,23,0,2024-06-14T13:53:17.841Z,english_3.wav,0,0,219,,,,,3,0.3,-72.16670898,0.70667384
LG,23,0,2024-06-14T13:53:17.841Z,english_3.wav,0,0,219,,,,,4,0.4,-20.43688573,1.08403016
LG,23,0,2024-06-14T13:53:17.841Z,english_3.wav,0,0,219,,,,,5,0.5,47.47685518,0.3642344
LG,23,0,2024-06-14T13:53:17.841Z,english_3.wav,0,0,219,,,,,6,0.6,-99.10404807,0.99174199
LG,23,0,2024-06-14T13:53:17.841Z,english_3.wav,0,0,219,,,,,7,0.7,26.000254,0.55041702
LG,23,0,2024-06-14T13:53:17.841Z,english_3.wav,0,0,219,,,,,8,0.8,-7.26217139,0.75824974
LG,23,0,2024-06-14T13:53:17.841Z,english_3.wav,0,0,219,,,,,9,0.9,-22.74562987,0.866985
LG,23,0,2024-06-14T13:53:17.841Z,english_3.wav,0,0,219,,,,,10,1,-68.2177704,1.56473108
LG,23,0,2024-06-14T13:53:17.841Z,english_3.wav,0,0,219,,,,,11,1.09391667,25.12417325,0.96011667
LG,24,0,2024-06-14T13:53:17.841Z,english_990.wav,0,1,952,,,,,0,0,-41.91954114,1.07016473
LG,24,0,2024-06-14T13:53:17.841Z,english_990.wav,0,1,952,,,,,1,0.1,-81.73689018,0.80416299
LG,24,0,2024-06-14T13:53:17.841Z,english_990.wav,0,1,952,,,,,2,0.2,-8.6439495,1.27361164
LG,24,0,2024-06-14T13:53:17.841Z,english_990.wav,0,1,952,,,,,3,0.3,-35.79468829,0.8357561
LG,24,0,2024-06-14T13:53:17.841Z,english_990.wav,0,1,952,,,,,4,0.4,-15.71846635,0.68387575
LG,24,0,2024-06-14T13:53:17.841Z,english_990.wav,0,1,952,,,,,5,0.5,30.29696997,0.51659091
LG,24,0,2024-06-14T13:53:17.841Z,english_990.wav,0,1,952,,,,,6,0.6,58.5778321,0.86090319
LG,24,0,2024-06-14T13:53:17.841Z,english_990.wav,0,1,952,,,,,7,0.7,-55.43771635,1.86495605
LG,24,0,2024-06-14T13:53:17.841Z,english_990.wav,0,1,952,,,,,8,0.8,-4.04287403,0.50523281
LG,24,0,2024-06-14T13:53:17.841Z,english_990.wav,0,1,952,,,,,9,0.9,96.7741085,0.60576665
LG,24,0,2024-06-14T13:53:17.841Z,english_990.wav,0,1,952,,,,,10,1,73.27929718,1.38942897
LG,24,0,2024-06-14T13:53:17.841Z,english_990.wav,0,1,952,,,,,11,1.09391667,-50.83652549,0.62697308
LG,25,0,2024-06-14T13:53:17.841Z,english_110.wav,0,1,507,,,,,0,0,45.88171242,1.49952965
LG,25,0,2024-06-14T13:53:17.841Z,english_110.wav,0,1,507,,,,,1,0.1,19.65275358,1.27857126
LG,25,0,2024-06-14T13:53:17.841Z,english_110.wav,0,1,507,,,,,2,0.2,-52.5669285,1.16755208
LG,25,0,2024-06-14T13:53:17.841Z,english_110.wav,0,1,507,,,,,3,0.3,50.69142125,1.53878992
LG,25,0,2024-06-14T13:53:17.841Z,english_110.wav,0,1,507,,,,,4,0.4,62.87836258,1.32526566
LG,25,0,2024-06-14T13:53:17.841Z,english_110.wav,0,1,507,,,,,5,0.5,39.63979386,1.5325195
LG,25,0,2024-06-14T13:53:17.841Z,english_110.wav,0,1,507,,,,,6,0.6,-26.37670891,0.18426731
LG,25,0,2024-06-14T13:53:17.841Z,english_110.wav,0,1,507,,,,,7,0.7,-93.2202358,1.63742876
LG,25,0,2024-06-14T13:53:17.841Z,english_110.wav,0,1,507,,,,,8,0.8,-56.06410486,1.91360144
LG,25,0,2024-06-14T13:53:17.841Z,english_110.wav,0,1,507,,,,,9,0.9,-55.01568925,1.5607569
LG,25,0,2024-06-14T13:53:17.841Z,english_110.wav,0,1,507,,,,,10,1,78.10124913,0.22178097
LG,25,0,2024-06-14T13:53:17.841Z,english_110.wav,0,1,507,,,,,11,1.09391667,16.50451183,0.02570083
LG,26,0,2024-06-14T13:53:17.841Z,english_163.wav,0,1,524,,,,,0,0,-75.52696483,0.21633828
LG,26,0,2024-06-14T13:53:17.841Z,english_163.wav,0,1,524,,,,,1,0.1,-50.94410786,0.31603177
LG,26,0,2024-06-14T13:53:17.841Z,english_163.wav,0,1,524,,,,,2,0.2,-38.29944429,1.04333718
LG,26,0,2024-06-14T13:53:17.841Z,english_163.wav,0,1,524,,,,,3,0.3,-32.57127411,1.57763682
LG,26,0,2024-06-14T13:53:17.841Z,english_163.wav,0,1,524,,,,,4,0.4,-30.55941116,0.14485533
LG,26,0,2024-06-14T13:53:17.841Z,english_163.wav,0,1,524,,,,,5,0.5,-14.52407307,1.53043555
LG,26,0,2024-06-14T13:53:17.841Z,english_163.wav,0,1,524,,,,,6,0.6,28.48601544,0.0734581
LG,26,0,2024-06-14T13:53:17.841Z,english_163.wav,0,1,524,,,,,7,0.7,-14.30599007,1.19104414
LG,26,0,2024-06-14T13:53:17.841Z,english_163.wav,0,1,524,,,,,8,0.8,38.98323909,0.4056819
LG,26,0,2024-06-14T13:53:17.841Z,english_163.wav,0,1,524,,,,,9,0.9,-70.97720427,1.30823112
LG,26,0,2024-06-14T13:53:17.841Z,english_163.wav,0,1,524,,,,,10,1,-31.77991107,1.63835528
LG,26,0,2024-06-14T13:53:17.841Z,english_163.wav,0,1,524,,,,,11,1.09391667,-57.22342155,1.03131117
LG,27,0,2024-06-14T13:53:17.841Z,english_249.wav,0,0,375,,,,,0,0,76.25739469,0.56602806
LG,27,0,2024-06-14T13:53:17.841Z,english_249.wav,0,0,375,,,,,1,0.1,-72.9034905,1.86013856
LG,27,0,2024-06-14T13:53:17.841Z,english_249.wav,0,0,375,,,,,2,0.2,-34.31284512,1.49321079
LG,27,0,2024-06-14T13:53:17.841Z,english_249.wav,0,0,375,,,,,3,0.3,23.60127817,0.47941188
LG,27,0,2024-06-14T13:53:17.841Z,english_249.wav,0,0,375,,,,,4,0.4,51.01923595,0.65185377
LG,27,0,2024-06-14T13:53:17.841Z,english_249.wav,0,0,375,,,,,5,0.5,-89.59911495,1.3750676
LG,27,0,2024-06-14T13:53:17.841Z,english_249.wav,0,0,375,,,,,6,0.6,34.41203989,1.54319682
LG,27,0,2024-06-14T13:53:17.841Z,english_249.wav,0,0,375,,,,,7,0.7,52.60913862,0.09952226
LG,27,0,2024-06-14T13:53:17.841Z,english_249.wav,0,0,375,,,,,8,0.8,-90.65371811,0.08638802
LG,27,0,2024-06-14T13:53:17.841Z,english_249.wav,0,0,375,,,,,9,0.9,-64.64204846,1.60736563
LG,27,0,2024-06-14T13:53:17.841Z,english_249.wav,0,0,375,,,,,10,1,-86.58401711,0.42122312
LG,27,0,2024-06-14T13:53:17.841Z,english_249.wav,0,0,375,,,,,11,1.09391667,-34.03680634,0.01186603
LG,28,0,2024-06-14T13:53:17.841Z,english_613.wav,0,0,1527,,,,,0,0,56.02417359,1.45969094
LG,28,0,2024-06-14T13:53:17.841Z,english_613.wav,0,0,1527,,,,,1,0.1,-15.12096295,0.70307333
LG,28,0,2024-06-14T13:53:17.841Z,english_613.wav,0,0,1527,,,,,2,0.2,24.11599025,1.55595157
LG,28,0,2024-06-14T13:53:17.841Z,english_613.wav,0,0,1527,,,,,3,0.3,-98.52161237,0.89820675
LG,28,0,2024-06-14T13:53:17.841Z,english_613.wav,0,0,1527,,,,,4,0.4,-83.03822249,1.36107021
LG,28,0,2024-06-14T13:53:17.841Z,english_613.wav,0,0,1527,,,,,5,0.5,21.43017138,0.16432707
LG,28,0,2024-06-14T13:53:17.841Z,english_613.wav,0,0,1527,,,,,6,0.6,63.83169659,0.04833877
LG,28,0,2024-06-14T13:53:17.841Z,english_613.wav,0,0,1527,,,,,7,0.7,20.52778074,0.40598637
LG,28,0,2024-06-14T13:53:17.841Z,english_613.wav,0,0,1527,,,,,8,0.8,94.54806404,1.56556559
LG,28,0,2024-06-14T13:53:17.841Z,english_613.wav,0,0,1527,,,,,9,0.9,22.39216261,0.73835637
LG,28,0,2024-06-14T13:53:17.841Z,english_613.wav,0,0,1527,,,,,10,1,-21.9484098,1.13631796
LG,28,0,2024-06-14T13:53:17.841Z,english_613.wav,0,0,1527,,,,,11,1.09391667,-64.50590256,0.17382409
LG,29,0,2024-06-14T13:53:17.841Z,english_373.wav,0,0,1035,,,,,0,0,-9.94709743,0.51311979
LG,29,0,2024-06-14T13:53:17.841Z,english_373.wav,0,0,1035,,,,,1,0.1,-83.40421168,1.13344135
LG,29,0,2024-06-14T13:53:17.841Z,english_373.wav,0,0,1035,,,,,2,0.2,-22.83191441,0.32488715
LG,29,0,2024-06-14T13:53:17.841Z,english_373.wav,0,0,1035,,,,,3,0.3,-83.42374119,1.83619002
LG,29,0,2024-06-14T13:53:17.841Z,english_373.wav,0,0,1035,,,,,4,0.4,-39.99792882,1.43136972
LG,29,0,2024-06-14T13:53:17.841Z,english_373.wav,0,0,1035,,,,,5,0.5,86.85199712,0.69456756
LG,29,0,2024-06-14T13:53:17.841Z,english_373.wav,0,0,1035,,,,,6,0.6,-4.78975396,1.06607271
LG,29,0,2024-06-14T13:53:17.841Z,english_373.wav,0,0,1035,,,,,7,0.7,-15.74997845,1.30605627
LG,29,0,2024-06-14T13:53:17.841Z,english_373.wav,0,0,1035,,,,,8,0.8,29.79511399,0.03221072
LG,29,0,2024-06-14T13:53:17.841Z,english_373.wav,0,0,1035,,,,,9,0.9,-25.05254908,1.44985225
LG,29,0,2024-06-14T13:53:17.841Z,english_373.wav,0,0,1035,,,,,10,1,-99.62886639,0.95503788
LG,29,0,2024-06-14T13:53:17.841Z,english_373.wav,0,0,1035,,,,,11,1.09391667,18.73159207,0.95128528
LG,30,0,2024-06-14T13:53:17.841Z,english_313.wav,0,0,215,,,,,0,0,-22.0180916,0.52298953
LG,30,0,2024-06-14T13:53:17.841Z,english_313.wav,0,0,215,,,,,1,0.1,96.16831441,0.58043298
LG,30,0,2024-06-14T13:53:17.841Z,english_313.wav,0,0,215,,,,,2,0.2,-45.33444961,0.43861373
LG,30,0,2024-06-14T13:53:17.841Z,english_313.wav,0,0,215,,,,,3,0.3,-30.76295123,0.29063093
LG,30,0,2024-06-14T13:53:17.841Z,english_313.wav,0,0,215,,,,,4,0.4,27.42080434,1.23880448
LG,30,0,2024-06-14T13:53:17.841Z,english_313.wav,0,0,215,,,,,5,0.5,96.50313713,0.08705859
LG,30,0,2024-06-14T13:53:17.841Z,english_313.wav,0,0,215,,,,,6,0.6,-0.94763764,1.32086894
LG,30,0,2024-06-14T13:53:17.841Z,english_313.wav,0,0,215,,,,,7,0.7,67.04457313,1.2914561
LG,30,0,2024-06-14T13:53:17.841Z,english_313.wav,0,0,215,,,,,8,0.8,2.6862445,0.44865702
LG,30,0,2024-06-14T13:53:17.841Z,english_313.wav,0,0,215,,,,,9,0.9,47.07555832,1.89388378
LG,30,0,2024-06-14T13:53:17.841Z,english_313.wav,0,0,215,,,,,10,1,-32.41079138,1.69735018
LG,30,0,2024-06-14T13:53:17.841Z,english_313.wav,0,0,215,,,,,11,1.09391667,11.15794631,1.75721469
LG,31,0,2024-06-14T13:53:17.841Z,english_622.wav,0,1,382,,,,,0,0,85.23778605,0.25362511
LG,31,0,2024-06-14T13:53:17.841Z,english_622.wav,0,1,382,,,,,1,0.1,-65.052425,0.70835512
LG,31,0,2024-06-14T13:53:17.841Z,english_622.wav,0,1,382,,,,,2,0.2,94.1080223,1.56739435
LG,31,0,2024-06-14T13:53:17.841Z,english_622.wav,0,1,382,,,,,3,0.3,60.75067227,0.57882882
LG,31,0,2024-06-14T13:53:17.841Z,english_622.wav,0,1,382,,,,,4,0.4,82.36087021,1.03820214
LG,31,0,2024-06-14T13:53:17.841Z,english_622.wav,0,1,382,,,,,5,0.5,-1.2973795,0.49027556
LG,31,0,2024-06-14T13:53:17.841Z,english_622.wav,0,1,382,,,,,6,0.6,-58.39763813,0.28856178
LG,31,0,2024-06-14T13:53:17.841Z,english_622.wav,0,1,382,,,,,7,0.7,58.2192584,1.06997695
LG,31,0,2024-06-14T13:53:17.841Z,english_622.wav,0,1,382,,,,,8,0.8,-34.88970136,1.42411309
LG,31,0,2024-06-14T13:53:17.841Z,english_622.wav,0,1,382,,,,,9,0.9,58.73036873,1.57990687
LG,31,0,2024-06-14T13:53:17.841Z,english_622.wav,0,1,382,,,,,10,1,-83.0394786,0.97655658
LG,31,0,2024-06-14T13:53:17.841Z,english_622.wav,0,1,382,,,,,11,1.09391667,11.79606421,1.49131796
LG,32,0,2024-06-14T13:53:17.841Z,english_292.wav,0,1,217,,,,,0,0,25.72060653,1.17792554
LG,32,0,2024-06-14T13:53:17.841Z,english_292.wav,0,1,217,,,,,1,0.1,-6.51251487,0.30252559
LG,32,0,2024-06-14T13:53:17.841Z,english_292.wav,0,1,217,,,,,2,0.2,3.32661168,1.09442145
LG,32,0,2024-06-14T13:53:17.841Z,english_292.wav,0,1,217,,,,,3,0.3,89.62386246,1.28448778
LG,32,0,2024-06-14T13:53:17.841Z,english_292.wav,0,1,217,,,,,4,0.4,80.65433919,1.02735441
LG,32,0,2024-06-14T13:53:17.841Z,english_292.wav,0,1,217,,,,,5,0.5,44.84771524,0.62410129
LG,32,0,2024-06-14T13:53:17.841Z,english_292.wav,0,1,217,,,,,6,0.6,25.54437629,1.60418481
LG,32,0,2024-06-14T13:53:17.841Z,english_292.wav,0,1,217,,,,,7,0.7,-12.49512251,0.44189431
LG,32,0,2024-06-14T13:53:17.841Z,english_292.wav,0,1,217,,,,,8,0.8,-42.7769001,1.24863789
LG,32,0,2024-06-14T13:53:17.841Z,english_292.wav,0,1,217,,,,,9,0.9,-50.66960292,1.87159039
LG,32,0,2024-06-14T13:53:17.841Z,english_292.wav,0,1,217,,,,,10,1,-26.28928757,1.63743996
LG,32,0,2024-06-14T13:53:17.841Z,english_292.wav,0,1,217,,,,,11,1.09391667,-87.75283225,0.32075193
LG,33,0,2024-06-14T13:53:17.841Z,english_915.wav,0,1,555,,,,,0,0,-21.98271396,1.11106838
LG,33,0,2024-06-14T13:53:17.841Z,english_915.wav,0,1,555,,,,,1,0.1,1.0207487,1.44455779
LG,33,0,2024-06-14T13:53:17.841Z,english_915.wav,0,1,555,,,,,2,0.2,23.02274493,1.42587556
LG,33,0,2024-06-14T13:53:17.841Z,english_915.wav,0,1,555,,,,,3,0.3,85.32608832,1.47521249
LG,33,0,2024-06-14T13:53:17.841Z,english_915.wav,0,1,555,,,,,4,0.4,-33.34189035,1.68905856
LG,33,0,2024-06-14T13:53:17.841Z,english_915.wav,0,1,555,,,,,5,0.5,29.21421043,1.40181913
LG,33,0,2024-06-14T13:53:17.841Z,english_915.wav,0,1,555,,,,,6,0.6,56.26543798,1.46869984
LG,33,0,2024-06-14T13:53:17.841Z,english_915.wav,0,1,555,,,,,7,0.7,7.71467122,0.70433786
LG,33,0,2024-06-14T13:53:17.841Z,english_915.wav,0,1,555,,,,,8,0.8,88.21567756,1.11015014
LG,33,0,2024-06-14T13:53:17.841Z,english_915.wav,0,1,555,,,,,9,0.9,-50.54904275,0.72100932
LG,33,0,2024-06-14T13:53:17.841Z,english_915.wav,0,1,555,,,,,10,1,-64.3056321,1.02681764
LG,33,0,2024-06-14T13:53:17.841Z,english_915.wav,0,1,555,,,,,11,1.09391667,-64.41259803,0.869897
LG,34,0,2024-06-14T13:53:17.841Z,english_910.wav,0,1,280,,,,,0,0,93.46024718,0.69074333
LG,34,0,2024-06-14T13:53:17.841Z,english_910.wav,0,1,280,,,,,1,0.1,-38.0106705,0.32933862
LG,34,0,2024-06-14T13:53:17.841Z,english_910.wav,0,1,280,,,,,2,0.2,-30.70791106,1.76708997
LG,34,0,2024-06-14T13:53:17.841Z,english_910.wav,0,1,280,,,,,3,0.3,-49.1070975,0.49648564
LG,34,0,2024-06-14T13:53:17.841Z,english_910.wav,0,1,280,,,,,4,0.4,91.46247689,1.45285745
LG,34,0,2024-06-14T13:53:17.841Z,english_910.wav,0,1,280,,,,,5,0.5,78.82386136,1.00544929
LG,34,0,2024-06-14T13:53:17.841Z,english_910.wav,0,1,280,,,,,6,0.6,-6.45155929,1.307348
LG,34,0,2024-06-14T13:53:17.841Z,english_910.wav,0,1,280,,,,,7,0.7,-83.2103546,0.52979989
LG,34,0,2024-06-14T13:53:17.841Z,english_910.wav,0,1,280,,,,,8,0.8,-83.88050829,1.11439341
LG,34,0,2024-06-14T13:53:17.841Z,english_910.wav,0,1,280,,,,,9,0.9,-99.45548406,1.95169189
LG,34,0,2024-06-14T13:53:17.841Z,english_910.wav,0,1,280,,,,,10,1,66.97768693,1.74620984
LG,34,0,2024-06-14T13:53:17.841Z,english_910.wav,0,1,280,,,,,11,1.09391667,38.56846955,0.09671244
LG,35,0,2024-06-14T13:53:17.841Z,english_822.wav,0,0,497,,,,,0,0,-57.24532264,1.07162112
LG,35,0,2024-06-14T13:53:17.841Z,english_822.wav,0,0,497,,,,,1,0.1,-0.6561153,1.88043926
LG,35,0,2024-06-14T13:53:17.841Z,english_822.wav,0,0,497,,,,,2,0.2,20.41316559,0.90199971
LG,35,0,2024-06-14T13:53:17.841Z,english_822.wav,0,0,497,,,,,3,0.3,41.70802905,0.26893632
LG,35,0,2024-06-14T13:53:17.841Z,english_822.wav,0,0,497,,,,,4,0.4,-77.9443686,1.26571685
LG,35,0,2024-06-14T13:53:17.841Z,english_822.wav,0,0,497,,,,,5,0.5,63.06825284,1.37105199
LG,35,0,2024-06-14T13:53:17.841Z,english_822.wav,0,0,497,,,,,6,0.6,-26.82945761,1.3296767
LG,35,0,2024-06-14T13:53:17.841Z,english_822.wav,0,0,497,,,,,7,0.7,-92.61277401,1.89258001
LG,35,0,2024-06-14T13:53:17.841Z,english_822.wav,0,0,497,,,,,8,0.8,-55.75237854,1.15705119
LG,35,0,2024-06-14T13:53:17.841Z,english_822.wav,0,0,497,,,,,9,0.9,-53.36958595,0.11001008
LG,35,0,2024-06-14T13:53:17.841Z,english_822.wav,0,0,497,,,,,10,1,65.67162204,0.72053282
LG,35,0,2024-06-14T13:53:17.841Z,english_822.wav,0,0,497,,,,,11,1.09391667,97.68319671,1.63006682
LG,36,0,2024-06-14T13:53:17.841Z,english_168.wav,0,0,444,,,,,0,0,-2.82851798,0.84695831
LG,36,0,2024-06-14T13:53:17.841Z,english_168.wav,0,0,444,,,,,1,0.1,47.00857465,0.31778045
LG,36,0,2024-06-14T13:53:17.841Z,english_168.wav,0,0,444,,,,,2,0.2,-17.58347791,1.27812293
LG,36,0,2024-06-14T13:53:17.841Z,english_168.wav,0,0,444,,,,,3,0.3,-13.31715429,0.74038461
LG,36,0,2024-06-14T13:53:17.841Z,english_168.wav,0,0,444,,,,,4,0.4,32.59893477,0.53430653
LG,36,0,2024-06-14T13:53:17.841Z,english_168.wav,0,0,444,,,,,5,0.5,97.16584938,0.39836338
LG,36,0,2024-06-14T13:53:17.841Z,english_168.wav,0,0,444,,,,,6,0.6,-13.44636048,1.18595545
LG,36,0,2024-06-14T13:53:17.841Z,english_168.wav,0,0,444,,,,,7,0.7,9.9504683,1.40244409
LG,36,0,2024-06-14T13:53:17.841Z,english_168.wav,0,0,444,,,,,8,0.8,45.41604728,0.07499365
LG,36,0,2024-06-14T13:53:17.841Z,english_168.wav,0,0,444,,,,,9,0.9,-79.49961867,0.73784136
LG,36,0,2024-06-14T13:53:17.841Z,english_168.wav,0,0,444,,,,,10,1,35.96813383,1.37065847
LG,36,0,2024-06-14T13:53:17.841Z,english_168.wav,0,0,444,,,,,11,1.09391667,-86.51274139,0.67911571
LG,37,0,2024-06-14T13:53:17.841Z,english_235.wav,0,1,621,,,,,0,0,44.65499148,0.45157531
LG,37,0,2024-06-14T13:53:17.841Z,english_235.wav,0,1,621,,,,,1,0.1,77.52873905,0.81502167
LG,37,0,2024-06-14T13:53:17.841Z,english_235.wav,0,1,621,,,,,2,0.2,7.66193616,0.73184795
LG,37,0,2024-06-14T13:53:17.841Z,english_235.wav,0,1,621,,,,,3,0.3,-36.65234069,1.39041991
LG,37,0,2024-06-14T13:53:17.841Z,english_235.wav,0,1,621,,,,,4,0.4,-38.57977077,0.8131102
LG,37,0,2024-06-14T13:53:17.841Z,english_235.wav,0,1,621,,,,,5,0.5,-69.81992681,0.63770546
LG,37,0,2024-06-14T13:53:17.841Z,english_235.wav,0,1,621,,,,,6,0.6,-3.21185942,0.48204551
LG,37,0,2024-06-14T13:53:17.841Z,english_235.wav,0,1,621,,,,,7,0.7,-3.7989625,0.64449527
LG,37,0,2024-06-14T13:53:17.841Z,english_235.wav,0,1,621,,,,,8,0.8,-60.5356981,0.17411585
LG,37,0,2024-06-14T13:53:17.841Z,english_235.wav,0,1,621,,,,,9,0.9,10.60420307,1.43103789
LG,37,0,2024-06-14T13:53:17.841Z,english_235.wav,0,1,621,,,,,10,1,73.74029871,1.90034823
LG,37,0,2024-06-14T13:53:17.841Z,english_235.wav,0,1,621,,,,,11,1.09391667,-42.3978276,0.79167247
LG,38,0,2024-06-14T13:53:17.841Z,english_281.wav,0,1,1892,,,,,0,0,-6.91929945,1.49696204
LG,38,0,2024-06-14T13:53:17.841Z,english_281.wav,0,1,1892,,,,,1,0.1,-25.44932046,1.38956204
LG,38,0,2024-06-14T13:53:17.841Z,english_281.wav,0,1,1892,,,,,2,0.2,-43.70872046,0.8964952
LG,38,0,2024-06-14T13:53:17.841Z,english_281.wav,0,1,1892,,,,,3,0.3,-18.3101874,0.52852326
LG,38,0,2024-06-14T13:53:17.841Z,english_281.wav,0,1,1892,,,,,4,0.4,86.16338552,0.8625919
LG,38,0,2024-06-14T13:53:17.841Z,english_281.wav,0,1,1892,,,,,5,0.5,49.26346324,1.51743083
LG,38,0,2024-06-14T13:53:17.841Z,english_281.wav,0,1,1892,,,,,6,0.6,79.40576686,0.79009251
LG,38,0,2024-06-14T13:53:17.841Z,english_281.wav,0,1,1892,,,,,7,0.7,85.96397413,0.18987002
LG,38,0,2024-06-14T13:53:17.841Z,english_281.wav,0,1,1892,,,,,8,0.8,-82.16790218,1.11136212
LG,38,0,2024-06-14T13:53:17.841Z,english_281.wav,0,1,1892,,,,,9,0.9,53.88469083,1.69337287
LG,38,0,2024-06-14T13:53:17.841Z,english_281.wav,0,1,1892,,,,,10,1,30.1327539,0.62990301
LG,38,0,2024-06-14T13:53:17.841Z,english_281.wav,0,1,1892,,,,,11,1.09391667,-24.86364002,1.33770256
LG,39,0,2024-06-14T13:53:17.841Z,english_13.wav,0,1,996,,,,,0,0,64.38962342,1.00112645
LG,39,0,2024-06-14T13:53:17.841Z,english_13.wav,0,1,996,,,,,1,0.1,-51.8551163,1.06925212
LG,39,0,2024-06-14T13:53:17.841Z,english_13.wav,0,1,996,,,,,2,0.2,-2.17663011,1.94512736
LG,39,0,2024-06-14T13:53:17.841Z,english_13.wav,0,1,996,,,,,3,0.3,58.1527086,1.38458927
LG,39,0,2024-06-14T13:53:17.841Z,english_13.wav,0,1,996,,,,,4,0.4,-46.96650895,1.28889459
LG,39,0,2024-06-14T13:53:17.841Z,english_13.wav,0,1,996,,,,,5,0.5,-16.57361125,1.54024857
LG,39,0,2024-06-14T13:53:17.841Z,english_13.wav,0,1,996,,,,,6,0.6,75.93348377,1.09201657
LG,39,0,2024-06-14T13:53:17.841Z,english_13.wav,0,1,996,,,,,7,0.7,19.1912547,0.41927036
LG,39,0,2024-06-14T13:53:17.841Z,english_13.wav,0,1,996,,,,,8,0.8,-13.17481254,0.35094068
LG,39,0,2024-06-14T13:53:17.841Z,english_13.wav,0,1,996,,,,,9,0.9,82.06501342,1.95646908
LG,39,0,2024-06-14T13:53:17.841Z,english_13.wav,0,1,996,,,,,10,1,98.060651,0.64409889
LG,39,0,2024-06-14T13:53:17.841Z,english_13.wav,0,1,996,,,,,11,1.09391667,-65.93265282,0.45282126
LG,40,0,2024-06-14T13:53:17.841Z,english_179.wav,0,1,508,,,,,0,0,-33.4332198,0.62790478
LG,40,0,2024-06-14T13:53:17.841Z,english_179.wav,0,1,508,,,,,1,0.1,-18.78825339,1.4036751
LG,40,0,2024-06-14T13:53:17.841Z,english_179.wav,0,1,508,,,,,2,0.2,20.20417282,0.86896148
LG,40,0,2024-06-14T13:53:17.841Z,english_179.wav,0,1,508,,,,,3,0.3,-7.9077668,1.06787362
LG,40,0,2024-06-14T13:53:17.841Z,english_179.wav,0,1,508,,,,,4,0.4,36.31992416,1.90188001
LG,40,0,2024-06-14T13:53:17.841Z,english_179.wav,0,1,508,,,,,5,0.5,37.81237311,1.25658589
LG,40,0,2024-06-14T13:53:17.841Z,english_179.wav,0,1,508,,,,,6,0.6,32.61553446,1.46381777
LG,40,0,2024-06-14T13:53:17.841Z,english_179.wav,0,1,508,,,,,7,0.7,-19.47769131,1.6099544
LG,40,0,2024-06-14T13:53:17.841Z,english_179.wav,0,1,508,,,,,8,0.8,27.26473458,0.97421346
LG,40,0,2024-06-14T13:53:17.841Z,english_179.wav,0,1,508,,,,,9,0.9,-27.81368084,1.81429346
LG,40,0,2024-06-14T13:53:17.841Z,english_179.wav,0,1,508,,,,,10,1,-84.08642127,0.55055727
LG,40,0,2024-06-14T13:53:17.841Z,english_179.wav,0,1,508,,,,,11,1.09391667,-61.91167259,0.88239537
LG,41,0,2024-06-14T13:53:17.841Z,english_140.wav,0,1,247,,,,,0,0,3.17682923,0.87887046
LG,41,0,2024-06-14T13:53:17.841Z,english_140.wav,0,1,247,,,,,1,0.1,6.35877152,0.507187
LG,41,0,2024-06-14T13:53:17.841Z,english_140.wav,0,1,247,,,,,2,0.2,-9.02165969,0.30654511
LG,41,0,2024-06-14T13:53:17.841Z,english_140.wav,0,1,247,,,,,3,0.3,-36.47269085,0.61695793
LG,41,0,2024-06-14T13:53:17.841Z,english_140.wav,0,1,247,,,,,4,0.4,-72.32699921,1.67577575
LG,41,0,2024-06-14T13:53:17.841Z,english_140.wav,0,1,247,,,,,5,0.5,-28.69942826,0.30689604
LG,41,0,2024-06-14T13:53:17.841Z,english_140.wav,0,1,247,,,,,6,0.6,68.422362,1.73923813
LG,41,0,2024-06-14T13:53:17.841Z,english_140.wav,0,1,247,,,,,7,0.7,-32.97741766,1.33940979
LG,41,0,2024-06-14T13:53:17.841Z,english_140.wav,0,1,247,,,,,8,0.8,-98.50350873,1.86246524
LG,41,0,2024-06-14T13:53:17.841Z,english_140.wav,0,1,247,,,,,9,0.9,4.47546112,0.68629119
LG,41,0,2024-06-14T13:53:17.841Z,english_140.wav,0,1,247,,,,,10,1,-70.93750026,1.82050493
LG,41,0,2024-06-14T13:53:17.841Z,english_140.wav,0,1,247,,,,,11,1.09391667,36.42764636,1.04858085
LG,42,0,2024-06-14T13:53:17.841Z,english_561.wav,0,0,2099,,,,,0,0,-40.74145274,1.68424793
LG,42,0,2024-06-14T13:53:17.841Z,english_561.wav,0,0,2099,,,,,1,0.1,73.1709151,1.15723577
LG,42,0,2024-06-14T13:53:17.841Z,english_561.wav,0,0,2099,,,,,2,0.2,-76.97322172,0.16061562
LG,42,0,2024-06-14T13:53:17.841Z,english_561.wav,0,0,2099,,,,,3,0.3,-33.73958817,0.71161921
LG,42,0,2024-06-14T13:53:17.841Z,english_561.wav,0,0,2099,,,,,4,0.4,-60.0926115,0.40520901
LG,42,0,2024-06-14T13:53:17.841Z,english_561.wav,0,0,2099,,,,,5,0.5,17.46588089,1.58164625
LG,42,0,2024-06-14T13:53:17.841Z,english_561.wav,0,0,2099,,,,,6,0.6,74.1182297,0.61549977
LG,42,0,2024-06-14T13:53:17.841Z,english_561.wav,0,0,2099,,,,,7,0.7,96.50181715,1.28562209
LG,42,0,2024-06-14T13:53:17.841Z,english_561.wav,0,0,2099,,,,,8,0.8,72.92112675,0.3725745
LG,42,0,2024-06-14T13:53:17.841Z,english_561.wav,0,0,2099,,,,,9,0.9,-4.13482892,0.83114042
LG,42,0,2024-06-14T13:53:17.841Z,english_561.wav,0,0,2099,,,,,10,1,68.85388576,1.94100595
LG,42,0,2024-06-14T13:53:17.841Z,english_561.wav,0,0,2099,,,,,11,1.09391667,-59.51051487,0.22020615
LG,43,0,2024-06-14T13:53:17.841Z,english_722.wav,0,0,721,,,,,0,0,-57.56576196,0.04722973
LG,43,0,2024-06-14T13:53:17.841Z,english_722.wav,0,0,721,,,,,1,0.1,-19.70677764,1.09555253
LG,43,0,2024-06-14T13:53:17.841Z,english_722.wav,0,0,721,,,,,2,0.2,83.71549809,0.8122888
LG,43,0,2024-06-14T13:53:17.841Z,english_722.wav,0,0,721,,,,,3,0.3,0.72860566,0.82350502
LG,43,0,2024-06-14T13:53:17.841Z,english_722.wav,0,0,721,,,,,4,0.4,23.57010212,0.7141467
LG,43,0,2024-06-14T13:53:17.841Z,english_722.wav,0,0,721,,,,,5,0.5,-90.6432868,0.19918411
LG,43,0,2024-06-14T13:53:17.841Z,english_722.wav,0,0,721,,,,,6,0.6,3.97952781,0.04680372
LG,43,0,2024-06-14T13:53:17.841Z,english_722.wav,0,0,721,,,,,7,0.7,47.87385022,0.22857445
LG,43,0,2024-06-14T13:53:17.841Z,english_722.wav,0,0,721,,,,,8,0.8,-10.29099789,1.06043027
LG,43,0,2024-06-14T13:53:17.841Z,english_722.wav,0,0,721,,,,,9,0.9,-55.37554035,1.28411096
LG,43,0,2024-06-14T13:53:17.841Z,english_722.wav,0,0,721,,,,,10,1,-74.87108339,1.38807885
LG,43,0,2024-06-14T13:53:17.841Z,english_722.wav,0,0,721,,,,,11,1.09391667,32.13407254,0.54998416
LG,44,0,2024-06-14T13:53:17.841Z,english_381.wav,0,0,671,,,,,0,0,32.46103548,1.94101049
LG,44,0,2024-06-14T13:53:17.841Z,english_381.wav,0,0,671,,,,,1,0.1,-84.4488561,1.51363242
LG,44,0,2024-06-14T13:53:17.841Z,english_381.wav,0,0,671,,,,,2,0.2,-42.33494044,0.19481462
LG,44,0,2024-06-14T13:53:17.841Z,english_381.wav,0,0,671,,,,,3,0.3,26.92548459,1.5781166
LG,44,0,2024-06-14T13:53:17.841Z,english_381.wav,0,0,671,,,,,4,0.4,89.55231206,0.89814833
LG,44,0,2024-06-14T13:53:17.841Z,english_381.wav,0,0,671,,,,,5,0.5,44.65598435,1.1373774
LG,44,0,2024-06-14T13:53:17.841Z,english_381.wav,0,0,671,,,,,6,0.6,-71.41154839,0.86888784
LG,44,0,2024-06-14T13:53:17.841Z,english_381.wav,0,0,671,,,,,7,0.7,-16.0355166,0.73017184
LG,44,0,2024-06-14T13:53:17.841Z,english_381.wav,0,0,671,,,,,8,0.8,-87.56719183,1.43125884
LG,44,0,2024-06-14T13:53:17.841Z,english_381.wav,0,0,671,,,,,9,0.9,-36.64318661,0.63988164
LG,44,0,2024-06-14T13:53:17.841Z,english_381.wav,0,0,671,,,,,10,1,2.98595367,0.12358053
LG,44,0,2024-06-14T13:53:17.841Z,english_381.wav,0,0,671,,,,,11,1.09391667,-73.96797181,1.01352385
LG,45,0,2024-06-14T13:53:17.841Z,english_401.wav,0,0,494,,,,,0,0,-36.1059854,1.51802818
LG,45,0,2024-06-14T13:53:17.841Z,english_401.wav,0,0,494,,,,,1,0.1,38.605133,1.15871841
LG,45,0,2024-06-14T13:53:17.841Z,english_401.wav,0,0,494,,,,,2,0.2,6.46138816,1.08082563
LG,45,0,2024-06-14T13:53:17.841Z,english_401.wav,0,0,494,,,,,3,0.3,-76.8629005,0.42984112
LG,45,0,2024-06-14T13:53:17.841Z,english_401.wav,0,0,494,,,,,4,0.4,53.9378868,1.24745689
LG,45,0,2024-06-14T13:53:17.841Z,english_401.wav,0,0,494,,,,,5,0.5,28.3848957,0.52889601
LG,45,0,2024-06-14T13:53:17.841Z,english_401.wav,0,0,494,,,,,6,0.6,49.535102,1.52039951
LG,45,0,2024-06-14T13:53:17.841Z,english_401.wav,0,0,494,,,,,7,0.7,-64.7881021,1.59778592
LG,45,0,2024-06-14T13:53:17.841Z,english_401.wav,0,0,494,,,,,8,0.8,-98.9667189,0.63237027
LG,45,0,2024-06-14T13:53:17.841Z,english_401.wav,0,0,494,,,,,9,0.9,-0.0263257976,0.3603848
LG,45,0,2024-06-14T13:53:17.841Z,english_401.wav,0,0,494,,,,,10,1,-0.147031707,0.91165557
LG,45,0,2024-06-14T13:53:17.841Z,english_401.wav,0,0,494,,,,,11,1.09391667,-83.6458716,1.59350312
LG,46,0,2024-06-14T13:53:17.841Z,english_602.wav,0,0,1207,,,,,0,0,68.03651569,0.44361931
LG,46,0,2024-06-14T13:53:17.841Z,english_602.wav,0,0,1207,,,,,1,0.1,45.80270737,1.54062364
LG,46,0,2024-06-14T13:53:17.841Z,english_602.wav,0,0,1207,,,,,2,0.2,40.05084495,1.57634207
LG,46,0,2024-06-14T13:53:17.841Z,english_602.wav,0,0,1207,,,,,3,0.3,48.64089828,0.03645506
LG,46,0,2024-06-14T13:53:17.841Z,english_602.wav,0,0,1207,,,,,4,0.4,24.15305268,1.06145672
LG,46,0,2024-06-14T13:53:17.841Z,english_602.wav,0,0,1207,,,,,5,0.5,51.63059478,0.59279659
LG,46,0,2024-06-14T13:53:17.841Z,english_602.wav,0,0,1207,,,,,6,0.6,84.11339373,1.68063549
LG,46,0,2024-06-14T13:53:17.841Z,english_602.wav,0,0,1207,,,,,7,0.7,22.39119116,0.09041329
LG,46,0,2024-06-14T13:53:17.841Z,english_602.wav,0,0,1207,,,,,8,0.8,-41.26651668,1.8261536
LG,46,0,2024-06-14T13:53:17.841Z,english_602.wav,0,0,1207,,,,,9,0.9,-2.28056387,1.1974799
LG,46,0,2024-06-14T13:53:17.841Z,english_602.wav,0,0,1207,,,,,10,1,-50.54956883,1.84366918
LG,46,0,2024-06-14T13:53:17.841Z,english_602.wav,0,0,1207,,,,,11,1.09391667,-93.08298628,1.00091384
LG,47,0,2024-06-14T13:53:17.841Z,english_517.wav,0,0,953,,,,,0,0,66.65099922,0.14059347
LG,47,0,2024-06-14T13:53:17.841Z,english_517.wav,0,0,953,,,,,1,0.1,-25.70388075,0.04284068
LG,47,0,2024-06-14T13:53:17.841Z,english_517.wav,0,0,953,,,,,2,0.2,-22.37896652,0.61477249
LG,47,0,2024-06-14T13:53:17.841Z,english_517.wav,0,0,953,,,,,3,0.3,-6.57908025,0.586151
LG,47,0,2024-06-14T13:53:17.841Z,english_517.wav,0,0,953,,,,,4,0.4,14.90197081,0.82467301
LG,47,0,2024-06-14T13:53:17.841Z,english_517.wav,0,0,953,,,,,5,0.5,28.13310888,1.4846696
LG,47,0,2024-06-14T13:53:17.841Z,english_517.wav,0,0,953,,,,,6,0.6,67.72161666,1.87560286
LG,47,0,2024-06-14T13:53:17.841Z,english_517.wav,0,0,953,,,,,7,0.7,-79.77738636,0.86888635
LG,47,0,2024-06-14T13:53:17.841Z,english_517.wav,0,0,953,,,,,8,0.8,-9.62789869,0.65753642
LG,47,0,2024-06-14T13:53:17.841Z,english_517.wav,0,0,953,,,,,9,0.9,-43.36595112,1.72637139
LG,47,0,2024-06-14T13:53:17.841Z,english_517.wav,0,0,953,,,,,10,1,-65.22090713,0.00479054
LG,47,0,2024-06-14T13:53:17.841Z,english_517.wav,0,0,953,,,,,11,1.09391667,93.99451349,1.63350936
LG,48,0,2024-06-14T13:53:17.841Z,english_216.wav,0,0,704,,,,,0,0,-40.27379603,1.31885312
LG,48,0,2024-06-14T13:53:17.841Z,english_216.wav,0,0,704,,,,,1,0.1,-9.47472605,1.52413536
LG,48,0,2024-06-14T13:53:17.841Z,english_216.wav,0,0,704,,,,,2,0.2,10.83044308,0.3375517
LG,48,0,2024-06-14T13:53:17.841Z,english_216.wav,0,0,704,,,,,3,0.3,-73.80571365,0.67857864
LG,48,0,2024-06-14T13:53:17.841Z,english_216.wav,0,0,704,,,,,4,0.4,41.89217051,0.9344087
LG,48,0,2024-06-14T13:53:17.841Z,english_216.wav,0,0,704,,,,,5,0.5,-33.36366466,0.89775046
LG,48,0,2024-06-14T13:53:17.841Z,english_216.wav,0,0,704,,,,,6,0.6,-97.24072999,0.74652634
LG,48,0,2024-06-14T13:53:17.841Z,english_216.wav,0,0,704,,,,,7,0.7,-3.36916359,0.00621512
LG,48,0,2024-06-14T13:53:17.841Z,english_216.wav,0,0,704,,,,,8,0.8,-1.27566838,0.72729094
LG,48,0,2024-06-14T13:53:17.841Z,english_216.wav,0,0,704,,,,,9,0.9,29.4346129,1.23180128
LG,48,0,2024-06-14T13:53:17.841Z,english_216.wav,0,0,704,,,,,10,1,96.31719875,0.44193416
LG,48,0,2024-06-14T13:53:17.841Z,english_216.wav,0,0,704,,,,,11,1.09391667,90.69441865,0.08230135
LG,49,0,2024-06-14T13:53:17.841Z,english_211.wav,0,1,140,,,,,0,0,-80.71487731,0.76887991
LG,49,0,2024-06-14T13:53:17.841Z,english_211.wav,0,1,140,,,,,1,0.1,-84.93103541,0.20306802
LG,49,0,2024-06-14T13:53:17.841Z,english_211.wav,0,1,140,,,,,2,0.2,44.45354712,0.68006184
LG,49,0,2024-06-14T13:53:17.841Z,english_211.wav,0,1,140,,,,,3,0.3,93.3584913,1.00051335
LG,49,0,2024-06-14T13:53:17.841Z,english_211.wav,0,1,140,,,,,4,0.4,-88.5655354,1.99828121
LG,49,0,2024-06-14T13:53:17.841Z,english_211.wav,0,1,140,,,,,5,0.5,58.50265478,0.71004269
LG,49,0,2024-06-14T13:53:17.841Z,english_211.wav,0,1,140,,,,,6,0.6,42.72435837,1.91299509
LG,49,0,2024-06-14T13:53:17.841Z,english_211.wav,0,1,140,,,,,7,0.7,15.71938112,1.01891246
LG,49,0,2024-06-14T13:53:17.841Z,english_211.wav,0,1,140,,,,,8,0.8,7.70597987,1.53959141
LG,49,0,2024-06-14T13:53:17.841Z,english_211.wav,0,1,140,,,,,9,0.9,-16.73581283,1.64058726
LG,49,0,2024-06-14T13:53:17.841Z,english_211.wav,0,1,140,,,,,10,1,-59.877834,1.4823545
LG,49,0,2024-06-14T13:53:17.841Z,english_211.wav,0,1,140,,,,,11,1.09391667,39.92997673,1.39164399
LG,50,1,2024-06-14T13:53:17.841Z,english_377.wav,0,0,976,,,,,0,0,73.04653382,1.47836601
LG,50,1,2024-06-14T13:53:17.841Z,english_377.wav,0,0,976,,,,,1,0.1,61.01214683,1.01623989
LG,50,1,2024-06-14T13:53:17.841Z,english_377.wav,0,0,976,,,,,2,0.2,-82.4479578,1.48528015
LG,50,1,2024-06-14T13:53:17.841Z,english_377.wav,0,0,976,,,,,3,0.3,-6.35059144,0.37422398
LG,50,1,2024-06-14T13:53:17.841Z,english_377.wav,0,0,976,,,,,4,0.4,58.86113959,0.85864758
LG,50,1,2024-06-14T13:53:17.841Z,english_377.wav,0,0,976,,,,,5,0.5,19.19354738,0.94448051
LG,50,1,2024-06-14T13:53:17.841Z,english_377.wav,0,0,976,,,,,6,0.6,-31.09076765,1.48225941
LG,50,1,2024-06-14T13:53:17.841Z,english_377.wav,0,0,976,,,,,7,0.7,-78.80759367,0.12460905
LG,50,1,2024-06-14T13:53:17.841Z,english_377.wav,0,0,976,,,,,8,0.8,40.88540154,0.28155513
LG,50,1,2024-06-14T13:53:17.841Z,english_377.wav,0,0,976,,,,,9,0.9,2.78755214,0.51707897
LG,50,1,2024-06-14T13:53:17.841Z,english_377.wav,0,0,976,,,,,10,1,-65.38807899,0.25575056
LG,50,1,2024-06-14T13:53:17.841Z,english_377.wav,0,0,976,,,,,11,1.09391667,58.80108337,0.70835394
LG,51,1,2024-06-14T13:53:17.841Z,english_446.wav,0,0,739,,,,,0,0,-71.72833513,0.37077237
LG,51,1,2024-06-14T13:53:17.841Z,english_446.wav,0,0,739,,,,,1,0.1,-14.74031919,0.56990881
LG,51,1,2024-06-14T13:53:17.841Z,english_446.wav,0,0,739,,,,,2,0.2,-21.83541147,1.59729725
LG,51,1,2024-06-14T13:53:17.841Z,english_446.wav,0,0,739,,,,,3,0.3,-67.51881517,1.97035771
LG,51,1,2024-06-14T13:53:17.841Z,english_446.wav,0,0,739,,,,,4,0.4,-91.38875442,0.52850963
LG,51,1,2024-06-14T13:53:17.841Z,english_446.wav,0,0,739,,,,,5,0.5,6.74447183,1.74112616
LG,51,1,2024-06-14T13:53:17.841Z,english_446.wav,0,0,739,,,,,6,0.6,26.61618155,0.02543003
LG,51,1,2024-06-14T13:53:17.841Z,english_446.wav,0,0,739,,,,,7,0.7,72.29706337,0.19739553
LG,51,1,2024-06-14T13:53:17.841Z,english_446.wav,0,0,739,,,,,8,0.8,58.26898218,0.10712319
LG,51,1,2024-06-14T13:53:17.841Z,english_446.wav,0,0,739,,,,,9,0.9,30.44634512,0.63352141
LG,51,1,2024-06-14T13:53:17.841Z,english_446.wav,0,0,739,,,,,10,1,-17.84842899,1.44239476
LG,51,1,2024-06-14T13:53:17.841Z,english_446.wav,0,0,739,,,,,11,1.09391667,-24.00080187,0.76601062
LG,52,1,2024-06-14T13:53:17.841Z,english_247.wav,0,1,360,,,,,0,0,25.0451381,1.47539451
LG,52,1,2024-06-14T13:53:17.841Z,english_247.wav,0,1,360,,,,,1,0.1,-0.42762512,0.00273089
LG,52,1,2024-06-14T13:53:17.841Z,english_247.wav,0,1,360,,,,,2,0.2,6.28793154,1.08361758
LG,52,1,2024-06-14T13:53:17.841Z,english_247.wav,0,1,360,,,,,3,0.3,-3.67285953,1.41054103
LG,52,1,2024-06-14T13:53:17.841Z,english_247.wav,0,1,360,,,,,4,0.4,72.86099671,0.74915888
LG,52,1,2024-06-14T13:53:17.841Z,english_247.wav,0,1,360,,,,,5,0.5,4.14559404,1.69392232
LG,52,1,2024-06-14T13:53:17.841Z,english_247.wav,0,1,360,,,,,6,0.6,25.40906202,1.26493683
LG,52,1,2024-06-14T13:53:17.841Z,english_247.wav,0,1,360,,,,,7,0.7,-4.12042736,0.1138778
LG,52,1,2024-06-14T13:53:17.841Z,english_247.wav,0,1,360,,,,,8,0.8,34.39220846,1.15663669
LG,52,1,2024-06-14T13:53:17.841Z,english_247.wav,0,1,360,,,,,9,0.9,-47.96329468,1.48677288
LG,52,1,2024-06-14T13:53:17.841Z,english_247.wav,0,1,360,,,,,10,1,84.41515092,0.39384904
LG,52,1,2024-06-14T13:53:17.841Z,english_247.wav,0,1,360,,,,,11,1.09391667,76.12511321,0.02417049
LG,53,1,2024-06-14T13:53:17.841Z,english_776.wav,0,0,732,,,,,0,0,87.36983695,0.99012423
LG,53,1,2024-06-14T13:53:17.841Z,english_776.wav,0,0,732,,,,,1,0.1,-7.36044234,0.99897732
LG,53,1,2024-06-14T13:53:17.841Z,english_776.wav,0,0,732,,,,,2,0.2,-78.22847681,1.18840119
LG,53,1,2024-06-14T13:53:17.841Z,english_776.wav,0,0,732,,,,,3,0.3,-28.99379036,1.28345901
LG,53,1,2024-06-14T13:53:17.841Z,english_776.wav,0,0,732,,,,,4,0.4,76.19445877,0.93018475
LG,53,1,2024-06-14T13:53:17.841Z,english_776.wav,0,0,732,,,,,5,0.5,-43.33414,1.3758077
LG,53,1,2024-06-14T13:53:17.841Z,english_776.wav,0,0,732,,,,,6,0.6,-77.80909366,0.61279661
LG,53,1,2024-06-14T13:53:17.841Z,english_776.wav,0,0,732,,,,,7,0.7,-63.14510086,1.13295599
LG,53,1,2024-06-14T13:53:17.841Z,english_776.wav,0,0,732,,,,,8,0.8,70.29145503,0.21705032
LG,53,1,2024-06-14T13:53:17.841Z,english_776.wav,0,0,732,,,,,9,0.9,46.24407769,1.45577739
LG,53,1,2024-06-14T13:53:17.841Z,english_776.wav,0,0,732,,,,,10,1,-23.45182889,1.82818043
LG,53,1,2024-06-14T13:53:17.841Z,english_776.wav,0,0,732,,,,,11,1.09391667,72.2860477,0.32191232
LG,54,1,2024-06-14T13:53:17.841Z,english_599.wav,0,0,935,,,,,0,0,68.55754102,0.43315889
LG,54,1,2024-06-14T13:53:17.841Z,english_599.wav,0,0,935,,,,,1,0.1,-7.26037981,0.25693118
LG,54,1,2024-06-14T13:53:17.841Z,english_599.wav,0,0,935,,,,,2,0.2,92.88050494,0.63718224
LG,54,1,2024-06-14T13:53:17.841Z,english_599.wav,0,0,935,,,,,3,0.3,-30.01198602,0.72589136
LG,54,1,2024-06-14T13:53:17.841Z,english_599.wav,0,0,935,,,,,4,0.4,-12.83448782,1.41268703
LG,54,1,2024-06-14T13:53:17.841Z,english_599.wav,0,0,935,,,,,5,0.5,95.18827309,1.68026213
LG,54,1,2024-06-14T13:53:17.841Z,english_599.wav,0,0,935,,,,,6,0.6,76.69886181,1.35988865
LG,54,1,2024-06-14T13:53:17.841Z,english_599.wav,0,0,935,,,,,7,0.7,-88.96581396,1.48925284
LG,54,1,2024-06-14T13:53:17.841Z,english_599.wav,0,0,935,,,,,8,0.8,6.31748227,0.8159251
LG,54,1,2024-06-14T13:53:17.841Z,english_599.wav,0,0,935,,,,,9,0.9,-93.23103284,0.71703188
LG,54,1,2024-06-14T13:53:17.841Z,english_599.wav,0,0,935,,,,,10,1,52.23538248,0.37366583
LG,54,1,2024-06-14T13:53:17.841Z,english_599.wav,0,0,935,,,,,11,1.09391667,80.6723105,0.06283904
LG,55,1,2024-06-14T13:53:17.841Z,english_51.wav,0,0,927,,,,,0,0,4.82438937,1.72214018
LG,55,1,2024-06-14T13:53:17.841Z,english_51.wav,0,0,927,,,,,1,0.1,-25.96164734,0.88661189
LG,55,1,2024-06-14T13:53:17.841Z,english_51.wav,0,0,927,,,,,2,0.2,69.41579929,0.13058188
LG,55,1,2024-06-14T13:53:17.841Z,english_51.wav,0,0,927,,,,,3,0.3,-53.59443599,0.95728679
LG,55,1,2024-06-14T13:53:17.841Z,english_51.wav,0,0,927,,,,,4,0.4,-3.65182133,1.79715226
LG,55,1,2024-06-14T13:53:17.841Z,english_51.wav,0,0,927,,,,,5,0.5,-31.28869864,0.9981941
LG,55,1,2024-06-14T13:53:17.841Z,english_51.wav,0,0,927,,,,,6,0.6,61.83683128,0.02786947
LG,55,1,2024-06-14T13:53:17.841Z,english_51.wav,0,0,927,,,,,7,0.7,21.64373061,0.63001571
LG,55,1,2024-06-14T13:53:17.841Z,english_51.wav,0,0,927,,,,,8,0.8,63.25865389,1.19147023
LG,55,1,2024-06-14T13:53:17.841Z,english_51.wav,0,0,927,,,,,9,0.9,-40.06070135,0.58040848
LG,55,1,2024-06-14T13:53:17.841Z,english_51.wav,0,0,927,,,,,10,1,68.22105394,1.03101423
LG,55,1,2024-06-14T13:53:17.841Z,english_51.wav,0,0,927,,,,,11,1.09391667,-1.01243895,0.89107538
LG,56,1,2024-06-14T13:53:17.841Z,english_264.wav,0,0,589,,,,,0,0,-7.97071304,0.52584892
LG,56,1,2024-06-14T13:53:17.841Z,english_264.wav,0,0,589,,,,,1,0.1,5.26810794,0.35098417
LG,56,1,2024-06-14T13:53:17.841Z,english_264.wav,0,0,589,,,,,2,0.2,42.90180093,0.87826506
LG,56,1,2024-06-14T13:53:17.841Z,english_264.wav,0,0,589,,,,,3,0.3,32.54664666,0.85267403
LG,56,1,2024-06-14T13:53:17.841Z,english_264.wav,0,0,589,,,,,4,0.4,-75.33920427,0.05665148
LG,56,1,2024-06-14T13:53:17.841Z,english_264.wav,0,0,589,,,,,5,0.5,-92.87225366,0.902019
LG,56,1,2024-06-14T13:53:17.841Z,english_264.wav,0,0,589,,,,,6,0.6,1.54584209,0.36999328
LG,56,1,2024-06-14T13:53:17.841Z,english_264.wav,0,0,589,,,,,7,0.7,-61.85301996,1.87523396
LG,56,1,2024-06-14T13:53:17.841Z,english_264.wav,0,0,589,,,,,8,0.8,-59.27209487,0.99775271
LG,56,1,2024-06-14T13:53:17.841Z,english_264.wav,0,0,589,,,,,9,0.9,-3.4044868,0.18460265
LG,56,1,2024-06-14T13:53:17.841Z,english_264.wav,0,0,589,,,,,10,1,20.29119999,0.05992377
LG,56,1,2024-06-14T13:53:17.841Z,english_264.wav,0,0,589,,,,,11,1.09391667,76.66199878,1.79844018
LG,57,1,2024-06-14T13:53:17.841Z,english_246.wav,0,0,889,,,,,0,0,65.19555702,1.04626937
LG,57,1,2024-06-14T13:53:17.841Z,english_246.wav,0,0,889,,,,,1,0.1,-88.31116696,1.63597079
LG,57,1,2024-06-14T13:53:17.841Z,english_246.wav,0,0,889,,,,,2,0.2,-87.15645837,1.95419498
LG,57,1,2024-06-14T13:53:17.841Z,english_246.wav,0,0,889,,,,,3,0.3,57.84934166,0.56872665
LG,57,1,2024-06-14T13:53:17.841Z,english_246.wav,0,0,889,,,,,4,0.4,-76.45557784,0.40309221
LG,57,1,2024-06-14T13:53:17.841Z,english_246.wav,0,0,889,,,,,5,0.5,66.32688278,1.93282921
LG,57,1,2024-06-14T13:53:17.841Z,english_246.wav,0,0,889,,,,,6,0.6,93.44738027,1.28213971
LG,57,1,2024-06-14T13:53:17.841Z,english_246.wav,0,0,889,,,,,7,0.7,54.7923908,1.70127241
LG,57,1,2024-06-14T13:53:17.841Z,english_246.wav,0,0,889,,,,,8,0.8,-1.38437059,0.15014799
LG,57,1,2024-06-14T13:53:17.841Z,english_246.wav,0,0,889,,,,,9,0.9,5.22264847,1.21649106
LG,57,1,2024-06-14T13:53:17.841Z,english_246.wav,0,0,889,,,,,10,1,-11.85909484,1.48942771
LG,57,1,2024-06-14T13:53:17.841Z,english_246.wav,0,0,889,,,,,11,1.09391667,65.00290812,0.35768018
LG,58,1,2024-06-14T13:53:17.841Z,english_676.wav,0,0,582,,,,,0,0,77.23951032,1.33259474
LG,58,1,2024-06-14T13:53:17.841Z,english_676.wav,0,0,582,,,,,1,0.1,27.47427545,0.90028372
LG,58,1,2024-06-14T13:53:17.841Z,english_676.wav,0,0,582,,,,,2,0.2,92.07370265,1.66717955
LG,58,1,2024-06-14T13:53:17.841Z,english_676.wav,0,0,582,,,,,3,0.3,-39.62602007,0.42158585
LG,58,1,2024-06-14T13:53:17.841Z,english_676.wav,0,0,582,,,,,4,0.4,-81.22107243,1.7878255
LG,58,1,2024-06-14T13:53:17.841Z,english_676.wav,0,0,582,,,,,5,0.5,-99.04707649,1.33780608
LG,58,1,2024-06-14T13:53:17.841Z,english_676.wav,0,0,582,,,,,6,0.6,-64.5180536,0.94548991
LG,58,1,2024-06-14T13:53:17.841Z,english_676.wav,0,0,582,,,,,7,0.7,91.29392748,1.43207041
LG,58,1,2024-06-14T13:53:17.841Z,english_676.wav,0,0,582,,,,,8,0.8,97.8635705,1.03085722
LG,58,1,2024-06-14T13:53:17.841Z,english_676.wav,0,0,582,,,,,9,0.9,-84.2423741,0.34895699
LG,58,1,2024-06-14T13:53:17.841Z,english_676.wav,0,0,582,,,,,10,1,-76.68596269,0.83720355
LG,58,1,2024-06-14T13:53:17.841Z,english_676.wav,0,0,582,,,,,11,1.09391667,65.10857552,1.31764415
LG,59,1,2024-06-14T13:53:17.841Z,english_818.wav,0,1,534,,,,,0,0,-53.85801374,1.92122954
LG,59,1,2024-06-14T13:53:17.841Z,english_818.wav,0,1,534,,,,,1,0.1,-93.19772639,0.02572463
LG,59,1,2024-06-14T13:53:17.841Z,english_818.wav,0,1,534,,,,,2,0.2,36.0949282,1.37895456
LG,59,1,2024-06-14T13:53:17.841Z,english_818.wav,0,1,534,,,,,3,0.3,-47.55219442,1.64642832
LG,59,1,2024-06-14T13:53:17.841Z,english_818.wav,0,1,534,,,,,4,0.4,17.01171479,0.12526848
LG,59,1,2024-06-14T13:53:17.841Z,english_818.wav,0,1,534,,,,,5,0.5,29.09646454,1.76409188
LG,59,1,2024-06-14T13:53:17.841Z,english_818.wav,0,1,534,,,,,6,0.6,48.56925167,0.03435044
LG,59,1,2024-06-14T13:53:17.841Z,english_818.wav,0,1,534,,,,,7,0.7,44.28631241,1.81061652
LG,59,1,2024-06-14T13:53:17.841Z,english_818.wav,0,1,534,,,,,8,0.8,29.63703739,0.88793726
LG,59,1,2024-06-14T13:53:17.841Z,english_818.wav,0,1,534,,,,,9,0.9,-81.11114494,1.44811096
LG,59,1,2024-06-14T13:53:17.841Z,english_818.wav,0,1,534,,,,,10,1,36.27214607,1.53494249
LG,59,1,2024-06-14T13:53:17.841Z,english_818.wav,0,1,534,,,,,11,1.09391667,10.20011282,1.88236128
LG,60,1,2024-06-14T13:53:17.841Z,english_376.wav,0,0,407,,,,,0,0,-22.52600132,1.13600224
LG,60,1,2024-06-14T13:53:17.841Z,english_376.wav,0,0,407,,,,,1,0.1,29.36992487,0.82385101
LG,60,1,2024-06-14T13:53:17.841Z,english_376.wav,0,0,407,,,,,2,0.2,26.35975313,0.21812262
LG,60,1,2024-06-14T13:53:17.841Z,english_376.wav,0,0,407,,,,,3,0.3,22.46882007,1.22545345
LG,60,1,2024-06-14T13:53:17.841Z,english_376.wav,0,0,407,,,,,4,0.4,-26.33536786,0.68217052
LG,60,1,2024-06-14T13:53:17.841Z,english_376.wav,0,0,407,,,,,5,0.5,-27.32741376,1.80813558
LG,60,1,2024-06-14T13:53:17.841Z,english_376.wav,0,0,407,,,,,6,0.6,4.49813396,0.4048305
LG,60,1,2024-06-14T13:53:17.841Z,english_376.wav,0,0,407,,,,,7,0.7,-47.02321994,1.72982043
LG,60,1,2024-06-14T13:53:17.841Z,english_376.wav,0,0,407,,,,,8,0.8,-61.17584125,0.03977306
LG,60,1,2024-06-14T13:53:17.841Z,english_376.wav,0,0,407,,,,,9,0.9,-52.37587082,0.16832119
LG,60,1,2024-06-14T13:53:17.841Z,english_376.wav,0,0,407,,,,,10,1,53.16500273,1.81503166
LG,60,1,2024-06-14T13:53:17.841Z,english_376.wav,0,0,407,,,,,11,1.09391667,31.59148057,0.61812074
LG,61,1,2024-06-14T13:53:17.841Z,english_208.wav,0,1,906,,,,,0,0,13.17731857,0.34094022
LG,61,1,2024-06-14T13:53:17.841Z,english_208.wav,0,1,906,,,,,1,0.1,13.38844503,0.19016609
LG,61,1,2024-06-14T13:53:17.841Z,english_208.wav,0,1,906,,,,,2,0.2,-2.93736893,0.78973148
LG,61,1,2024-06-14T13:53:17.841Z,english_208.wav,0,1,906,,,,,3,0.3,65.128601,1.45881618
LG,61,1,2024-06-14T13:53:17.841Z,english_208.wav,0,1,906,,,,,4,0.4,53.87360247,1.41599405
LG,61,1,2024-06-14T13:53:17.841Z,english_208.wav,0,1,906,,,,,5,0.5,-0.34021564,1.39781882
LG,61,1,2024-06-14T13:53:17.841Z,english_208.wav,0,1,906,,,,,6,0.6,-58.53870567,0.32952238
LG,61,1,2024-06-14T13:53:17.841Z,english_208.wav,0,1,906,,,,,7,0.7,-81.74346202,0.80753811
LG,61,1,2024-06-14T13:53:17.841Z,english_208.wav,0,1,906,,,,,8,0.8,-87.40484801,0.14343543
LG,61,1,2024-06-14T13:53:17.841Z,english_208.wav,0,1,906,,,,,9,0.9,-0.74903693,1.78385386
LG,61,1,2024-06-14T13:53:17.841Z,english_208.wav,0,1,906,,,,,10,1,44.66507116,1.76017797
LG,61,1,2024-06-14T13:53:17.841Z,english_208.wav,0,1,906,,,,,11,1.09391667,86.63877281,0.82405184
LG,62,1,2024-06-14T13:53:17.841Z,english_799.wav,0,0,577,,,,,0,0,20.93448877,0.48820712
LG,62,1,2024-06-14T13:53:17.841Z,english_799.wav,0,0,577,,,,,1,0.1,74.90549066,0.80562581
LG,62,1,2024-06-14T13:53:17.841Z,english_799.wav,0,0,577,,,,,2,0.2,79.35216778,1.19822254
LG,62,1,2024-06-14T13:53:17.841Z,english_799.wav,0,0,577,,,,,3,0.3,-10.62506754,1.60128914
LG,62,1,2024-06-14T13:53:17.841Z,english_799.wav,0,0,577,,,,,4,0.4,6.33564747,0.01319764
LG,62,1,2024-06-14T13:53:17.841Z,english_799.wav,0,0,577,,,,,5,0.5,90.41443979,1.72553046
LG,62,1,2024-06-14T13:53:17.841Z,english_799.wav,0,0,577,,,,,6,0.6,-60.57880503,1.2547609
LG,62,1,2024-06-14T13:53:17.841Z,english_799.wav,0,0,577,,,,,7,0.7,9.86229071,0.74830712
LG,62,1,2024-06-14T13:53:17.841Z,english_799.wav,0,0,577,,,,,8,0.8,-45.57695026,0.71080767
LG,62,1,2024-06-14T13:53:17.841Z,english_799.wav,0,0,577,,,,,9,0.9,4.80419962,0.83933205
LG,62,1,2024-06-14T13:53:17.841Z,english_799.wav,0,0,577,,,,,10,1,49.35310044,0.24394342
LG,62,1,2024-06-14T13:53:17.841Z,english_799.wav,0,0,577,,,,,11,1.09391667,82.63345718,0.9569793
LG,63,1,2024-06-14T13:53:17.841Z,english_865.wav,0,0,565,,,,,0,0,86.1163895,0.19420048
LG,63,1,2024-06-14T13:53:17.841Z,english_865.wav,0,0,565,,,,,1,0.1,69.95513589,1.46581666
LG,63,1,2024-06-14T13:53:17.841Z,english_865.wav,0,0,565,,,,,2,0.2,-13.94671811,1.09876795
LG,63,1,2024-06-14T13:53:17.841Z,english_865.wav,0,0,565,,,,,3,0.3,-33.10342907,0.83580859
LG,63,1,2024-06-14T13:53:17.841Z,english_865.wav,0,0,565,,,,,4,0.4,-76.59504937,0.7375784
LG,63,1,2024-06-14T13:53:17.841Z,english_865.wav,0,0,565,,,,,5,0.5,-3.51899048,1.73720254
LG,63,1,2024-06-14T13:53:17.841Z,english_865.wav,0,0,565,,,,,6,0.6,30.42015795,0.47612768
LG,63,1,2024-06-14T13:53:17.841Z,english_865.wav,0,0,565,,,,,7,0.7,-55.73707392,0.34287239
LG,63,1,2024-06-14T13:53:17.841Z,english_865.wav,0,0,565,,,,,8,0.8,54.32986928,1.39046848
LG,63,1,2024-06-14T13:53:17.841Z,english_865.wav,0,0,565,,,,,9,0.9,-94.25719672,0.32361365
LG,63,1,2024-06-14T13:53:17.841Z,english_865.wav,0,0,565,,,,,10,1,52.44088275,0.4960331
LG,63,1,2024-06-14T13:53:17.841Z,english_865.wav,0,0,565,,,,,11,1.09391667,-37.34958779,0.90913699
LG,64,1,2024-06-14T13:53:17.841Z,english_791.wav,0,1,749,,,,,0,0,-46.06630558,1.16002163
LG,64,1,2024-06-14T13:53:17.841Z,english_791.wav,0,1,749,,,,,1,0.1,-10.41029295,1.31545425
LG,64,1,2024-06-14T13:53:17.841Z,english_791.wav,0,1,749,,,,,2,0.2,46.47346809,0.89173565
LG,64,1,2024-06-14T13:53:17.841Z,english_791.wav,0,1,749,,,,,3,0.3,-10.43860287,0.05427007
LG,64,1,2024-06-14T13:53:17.841Z,english_791.wav,0,1,749,,,,,4,0.4,-38.16717219,1.4017057
LG,64,1,2024-06-14T13:53:17.841Z,english_791.wav,0,1,749,,,,,5,0.5,44.56559314,0.47849772
LG,64,1,2024-06-14T13:53:17.841Z,english_791.wav,0,1,749,,,,,6,0.6,43.70696978,1.59729287
LG,64,1,2024-06-14T13:53:17.841Z,english_791.wav,0,1,749,,,,,7,0.7,-5.54884815,1.50901191
LG,64,1,2024-06-14T13:53:17.841Z,english_791.wav,0,1,749,,,,,8,0.8,89.91059564,0.68083576
LG,64,1,2024-06-14T13:53:17.841Z,english_791.wav,0,1,749,,,,,9,0.9,90.72111025,1.62669182
LG,64,1,2024-06-14T13:53:17.841Z,english_791.wav,0,1,749,,,,,10,1,4.8020349,1.81653342
LG,64,1,2024-06-14T13:53:17.841Z,english_791.wav,0,1,749,,,,,11,1.09391667,7.87463746,1.33572141
LG,65,1,2024-06-14T13:53:17.841Z,english_771.wav,0,0,584,,,,,0,0,-36.50619676,0.84712365
LG,65,1,2024-06-14T13:53:17.841Z,english_771.wav,0,0,584,,,,,1,0.1,14.7541205,1.2125626
LG,65,1,2024-06-14T13:53:17.841Z,english_771.wav,0,0,584,,,,,2,0.2,-52.38540711,1.26925878
LG,65,1,2024-06-14T13:53:17.841Z,english_771.wav,0,0,584,,,,,3,0.3,-44.85491202,0.42277432
LG,65,1,2024-06-14T13:53:17.841Z,english_771.wav,0,0,584,,,,,4,0.4,-95.75173067,1.76146367
LG,65,1,2024-06-14T13:53:17.841Z,english_771.wav,0,0,584,,,,,5,0.5,80.62781484,1.97802023
LG,65,1,2024-06-14T13:53:17.841Z,english_771.wav,0,0,584,,,,,6,0.6,73.74351295,1.00927999
LG,65,1,2024-06-14T13:53:17.841Z,english_771.wav,0,0,584,,,,,7,0.7,-36.03140148,0.74378616
LG,65,1,2024-06-14T13:53:17.841Z,english_771.wav,0,0,584,,,,,8,0.8,-29.08842157,1.61654752
LG,65,1,2024-06-14T13:53:17.841Z,english_771.wav,0,0,584,,,,,9,0.9,81.37771219,0.74494496
LG,65,1,2024-06-14T13:53:17.841Z,english_771.wav,0,0,584,,,,,10,1,2.32979024,0.15244903
LG,65,1,2024-06-14T13:53:17.841Z,english_771.wav,0,0,584,,,,,11,1.09391667,-15.5068463,0.47232317
LG,66,1,2024-06-14T13:53:17.841Z,english_270.wav,0,0,861,,,,,0,0,-55.81256687,1.62867923
LG,66,1,2024-06-14T13:53:17.841Z,english_270.wav,0,0,861,,,,,1,0.1,86.32458749,1.84562159
LG,66,1,2024-06-14T13:53:17.841Z,english_270.wav,0,0,861,,,,,2,0.2,13.49455739,0.93167879
LG,66,1,2024-06-14T13:53:17.841Z,english_270.wav,0,0,861,,,,,3,0.3,-68.69500359,1.73816361
LG,66,1,2024-06-14T13:53:17.841Z,english_270.wav,0,0,861,,,,,4,0.4,-97.00280027,0.08320837
LG,66,1,2024-06-14T13:53:17.841Z,english_270.wav,0,0,861,,,,,5,0.5,-69.821637,1.0435143
LG,66,1,2024-06-14T13:53:17.841Z,english_270.wav,0,0,861,,,,,6,0.6,1.11664619,1.6211018
LG,66,1,2024-06-14T13:53:17.841Z,english_270.wav,0,0,861,,,,,7,0.7,14.10763844,1.15083177
LG,66,1,2024-06-14T13:53:17.841Z,english_270.wav,0,0,861,,,,,8,0.8,-34.97611605,0.10335889
LG,66,1,2024-06-14T13:53:17.841Z,english_270.wav,0,0,861,,,,,9,0.9,64.83030817,1.46234983
LG,66,1,2024-06-14T13:53:17.841Z,english_270.wav,0,0,861,,,,,10,1,-92.12802344,1.54267918
LG,66,1,2024-06-14T13:53:17.841Z,english_270.wav,0,0,861,,,,,11,1.09391667,70.2696905,1.13836595
LG,67,1,2024-06-14T13:53:17.841Z,english_451.wav,0,0,643,,,,,0,0,-86.97928696,0.12091055
LG,67,1,2024-06-14T13:53:17.841Z,english_451.wav,0,0,643,,,,,1,0.1,35.46303065,0.11109609
LG,67,1,2024-06-14T13:53:17.841Z,english_451.wav,0,0,643,,,,,2,0.2,-6.55574904,0.96762463
LG,67,1,2024-06-14T13:53:17.841Z,english_451.wav,0,0,643,,,,,3,0.3,-70.24481901,0.33361345
LG,67,1,2024-06-14T13:53:17.841Z,english_451.wav,0,0,643,,,,,4,0.4,-15.3143791,1.63079661
LG,67,1,2024-06-14T13:53:17.841Z,english_451.wav,0,0,643,,,,,5,0.5,-46.78683141,1.71822711
LG,67,1,2024-06-14T13:53:17.841Z,english_451.wav,0,0,643,,,,,6,0.6,30.57428638,1.99896141
LG,67,1,2024-06-14T13:53:17.841Z,english_451.wav,0,0,643,,,,,7,0.7,-51.27590564,1.31564503
LG,67,1,2024-06-14T13:53:17.841Z,english_451.wav,0,0,643,,,,,8,0.8,-57.45214614,0.39748904
LG,67,1,2024-06-14T13:53:17.841Z,english_451.wav,0,0,643,,,,,9,0.9,43.47837492,0.70409186
LG,67,1,2024-06-14T13:53:17.841Z,english_451.wav,0,0,643,,,,,10,1,45.12702561,0.48590378
LG,67,1,2024-06-14T13:53:17.841Z,english_451.wav,0,0,643,,,,,11,1.09391667,-26.34948453,1.98999714
LG,68,1,2024-06-14T13:53:17.841Z,english_481.wav,0,0,1494,,,,,0,0,12.53874901,1.58204947
LG,68,1,2024-06-14T13:53:17.841Z,english_481.wav,0,0,1494,,,,,1,0.1,-9.84524601,0.30197463
LG,68,1,2024-06-14T13:53:17.841Z,english_481.wav,0,0,1494,,,,,2,0.2,-28.69081604,1.36929082
LG,68,1,2024-06-14T13:53:17.841Z,english_481.wav,0,0,1494,,,,,3,0.3,-3.98654711,1.57950224
LG,68,1,2024-06-14T13:53:17.841Z,english_481.wav,0,0,1494,,,,,4,0.4,-31.85582808,1.64821008
LG,68,1,2024-06-14T13:53:17.841Z,english_481.wav,0,0,1494,,,,,5,0.5,-60.66158974,1.40708
LG,68,1,2024-06-14T13:53:17.841Z,english_481.wav,0,0,1494,,,,,6,0.6,37.08553698,0.90705567
LG,68,1,2024-06-14T13:53:17.841Z,english_481.wav,0,0,1494,,,,,7,0.7,-55.30747295,0.62618862
LG,68,1,2024-06-14T13:53:17.841Z,english_481.wav,0,0,1494,,,,,8,0.8,79.95944373,0.10659235
LG,68,1,2024-06-14T13:53:17.841Z,english_481.wav,0,0,1494,,,,,9,0.9,16.93049167,0.31824417
LG,68,1,2024-06-14T13:53:17.841Z,english_481.wav,0,0,1494,,,,,10,1,2.57902723,0.18714767
LG,68,1,2024-06-14T13:53:17.841Z,english_481.wav,0,0,1494,,,,,11,1.09391667,9.37320396,0.57978015
LG,69,1,2024-06-14T13:53:17.841Z,english_107.wav,0,1,210,,,,,0,0,14.75106281,1.14538344
LG,69,1,2024-06-14T13:53:17.841Z,english_107.wav,0,1,210,,,,,1,0.1,61.55616618,1.63691709
LG,69,1,2024-06-14T13:53:17.841Z,english_107.wav,0,1,210,,,,,2,0.2,-53.67988365,1.34954163
LG,69,1,2024-06-14T13:53:17.841Z,english_107.wav,0,1,210,,,,,3,0.3,-26.40552644,0.87865188
LG,69,1,2024-06-14T13:53:17.841Z,english_107.wav,0,1,210,,,,,4,0.4,-39.74978172,0.87105183
LG,69,1,2024-06-14T13:53:17.841Z,english_107.wav,0,1,210,,,,,5,0.5,59.30152115,0.97837698
LG,69,1,2024-06-14T13:53:17.841Z,english_107.wav,0,1,210,,,,,6,0.6,47.78500901,0.24331513
LG,69,1,2024-06-14T13:53:17.841Z,english_107.wav,0,1,210,,,,,7,0.7,-56.28829924,1.31332622
LG,69,1,2024-06-14T13:53:17.841Z,english_107.wav,0,1,210,,,,,8,0.8,-27.92998764,1.65018095
LG,69,1,2024-06-14T13:53:17.841Z,english_107.wav,0,1,210,,,,,9,0.9,-79.09348068,0.9374591
LG,69,1,2024-06-14T13:53:17.841Z,english_107.wav,0,1,210,,,,,10,1,-12.41548757,1.20965119
LG,69,1,2024-06-14T13:53:17.841Z,english_107.wav,0,1,210,,,,,11,1.09391667,52.16057728,1.85980397
LG,70,1,2024-06-14T13:53:17.841Z,english_387.wav,0,0,3381,,,,,0,0,67.80075556,0.00122772109
LG,70,1,2024-06-14T13:53:17.841Z,english_387.wav,0,0,3381,,,,,1,0.1,2.91528807,1.63436641
LG,70,1,2024-06-14T13:53:17.841Z,english_387.wav,0,0,3381,,,,,2,0.2,-96.71759945,0.942533102
LG,70,1,2024-06-14T13:53:17.841Z,english_387.wav,0,0,3381,,,,,3,0.3,0.93195301,0.658001898
LG,70,1,2024-06-14T13:53:17.841Z,english_387.wav,0,0,3381,,,,,4,0.4,64.10102677,1.5746929
LG,70,1,2024-06-14T13:53:17.841Z,english_387.wav,0,0,3381,,,,,5,0.5,50.38025389,0.711925794
LG,70,1,2024-06-14T13:53:17.841Z,english_387.wav,0,0,3381,,,,,6,0.6,73.00593199,1.61187408
LG,70,1,2024-06-14T13:53:17.841Z,english_387.wav,0,0,3381,,,,,7,0.7,18.93402178,1.34608703
LG,70,1,2024-06-14T13:53:17.841Z,english_387.wav,0,0,3381,,,,,8,0.8,35.76134207,1.4554979
LG,70,1,2024-06-14T13:53:17.841Z,english_387.wav,0,0,3381,,,,,9,0.9,32.66910334,0.118157589
LG,70,1,2024-06-14T13:53:17.841Z,english_387.wav,0,0,3381,,,,,10,1,89.60787906,0.929482496
LG,70,1,2024-06-14T13:53:17.841Z,english_387.wav,0,0,3381,,,,,11,1.09391667,4.26061553,1.40897442
LG,71,1,2024-06-14T13:53:17.841Z,english_711.wav,0,1,51,,,,,0,0,5.56697991,1.20296493
LG,71,1,2024-06-14T13:53:17.841Z,english_711.wav,0,1,51,,,,,1,0.1,-24.51973587,1.05892315
LG,71,1,2024-06-14T13:53:17.841Z,english_711.wav,0,1,51,,,,,2,0.2,14.74252879,0.52339911
LG,71,1,2024-06-14T13:53:17.841Z,english_711.wav,0,1,51,,,,,3,0.3,62.90835999,1.255633
LG,71,1,2024-06-14T13:53:17.841Z,english_711.wav,0,1,51,,,,,4,0.4,-30.148836,1.66876465
LG,71,1,2024-06-14T13:53:17.841Z,english_711.wav,0,1,51,,,,,5,0.5,-90.0367138,0.2337908
LG,71,1,2024-06-14T13:53:17.841Z,english_711.wav,0,1,51,,,,,6,0.6,23.29272454,0.4494252
LG,71,1,2024-06-14T13:53:17.841Z,english_711.wav,0,1,51,,,,,7,0.7,51.00007107,1.6594433
LG,71,1,2024-06-14T13:53:17.841Z,english_711.wav,0,1,51,,,,,8,0.8,-5.61877019,1.49925628
LG,71,1,2024-06-14T13:53:17.841Z,english_711.wav,0,1,51,,,,,9,0.9,4.00444287,1.73015634
LG,71,1,2024-06-14T13:53:17.841Z,english_711.wav,0,1,51,,,,,10,1,81.75034051,1.46308192
LG,71,1,2024-06-14T13:53:17.841Z,english_711.wav,0,1,51,,,,,11,1.09391667,-78.99678836,1.6603821
LG,72,1,2024-06-14T13:53:17.841Z,english_963.wav,0,0,636,,,,,0,0,12.85572416,1.75469767
LG,72,1,2024-06-14T13:53:17.841Z,english_963.wav,0,0,636,,,,,1,0.1,-76.17617766,0.88786329
LG,72,1,2024-06-14T13:53:17.841Z,english_963.wav,0,0,636,,,,,2,0.2,42.35975093,1.03977576
LG,72,1,2024-06-14T13:53:17.841Z,english_963.wav,0,0,636,,,,,3,0.3,-29.56352697,0.40233076
LG,72,1,2024-06-14T13:53:17.841Z,english_963.wav,0,0,636,,,,,4,0.4,1.9048802,1.77716713
LG,72,1,2024-06-14T13:53:17.841Z,english_963.wav,0,0,636,,,,,5,0.5,-59.42176318,1.22252544
LG,72,1,2024-06-14T13:53:17.841Z,english_963.wav,0,0,636,,,,,6,0.6,-90.23873789,1.36334994
LG,72,1,2024-06-14T13:53:17.841Z,english_963.wav,0,0,636,,,,,7,0.7,96.0492683,0.19892648
LG,72,1,2024-06-14T13:53:17.841Z,english_963.wav,0,0,636,,,,,8,0.8,-14.96705396,0.48578079
LG,72,1,2024-06-14T13:53:17.841Z,english_963.wav,0,0,636,,,,,9,0.9,53.28049668,0.49525144
LG,72,1,2024-06-14T13:53:17.841Z,english_963.wav,0,0,636,,,,,10,1,-50.64061571,1.97867338
LG,72,1,2024-06-14T13:53:17.841Z,english_963.wav,0,0,636,,,,,11,1.09391667,33.50411271,0.71277393
LG,73,1,2024-06-14T13:53:17.841Z,english_9.wav,0,1,603,,,,,0,0,-96.61203468,1.48407489
LG,73,1,2024-06-14T13:53:17.841Z,english_9.wav,0,1,603,,,,,1,0.1,27.77418146,0.71089129
LG,73,1,2024-06-14T13:53:17.841Z,english_9.wav,0,1,603,,,,,2,0.2,-42.79973111,1.02276586
LG,73,1,2024-06-14T13:53:17.841Z,english_9.wav,0,1,603,,,,,3,0.3,52.67007286,0.94605025
LG,73,1,2024-06-14T13:53:17.841Z,english_9.wav,0,1,603,,,,,4,0.4,-77.37689486,1.64255066
LG,73,1,2024-06-14T13:53:17.841Z,english_9.wav,0,1,603,,,,,5,0.5,22.33265825,1.1767353
LG,73,1,2024-06-14T13:53:17.841Z,english_9.wav,0,1,603,,,,,6,0.6,-21.53246611,1.24238606
LG,73,1,2024-06-14T13:53:17.841Z,english_9.wav,0,1,603,,,,,7,0.7,11.78226484,0.92864334
LG,73,1,2024-06-14T13:53:17.841Z,english_9.wav,0,1,603,,,,,8,0.8,-45.34236124,1.13602565
LG,73,1,2024-06-14T13:53:17.841Z,english_9.wav,0,1,603,,,,,9,0.9,55.83053399,1.46898539
LG,73,1,2024-06-14T13:53:17.841Z,english_9.wav,0,1,603,,,,,10,1,-0.17077069,1.30855548
LG,73,1,2024-06-14T13:53:17.841Z,english_9.wav,0,1,603,,,,,11,1.09391667,-99.58545301,1.24881599
LG,74,1,2024-06-14T13:53:17.841Z,english_324.wav,0,1,1071,,,,,0,0,17.54140289,0.28643924
LG,74,1,2024-06-14T13:53:17.841Z,english_324.wav,0,1,1071,,,,,1,0.1,71.06846472,0.89310243
LG,74,1,2024-06-14T13:53:17.841Z,english_324.wav,0,1,1071,,,,,2,0.2,-58.0756972,0.19434283
LG,74,1,2024-06-14T13:53:17.841Z,english_324.wav,0,1,1071,,,,,3,0.3,21.96350357,1.40300385
LG,74,1,2024-06-14T13:53:17.841Z,english_324.wav,0,1,1071,,,,,4,0.4,8.51736718,0.22031138
LG,74,1,2024-06-14T13:53:17.841Z,english_324.wav,0,1,1071,,,,,5,0.5,54.10034556,1.10087032
LG,74,1,2024-06-14T13:53:17.841Z,english_324.wav,0,1,1071,,,,,6,0.6,-45.23490782,0.61239123
LG,74,1,2024-06-14T13:53:17.841Z,english_324.wav,0,1,1071,,,,,7,0.7,-47.50195247,0.50887139
LG,74,1,2024-06-14T13:53:17.841Z,english_324.wav,0,1,1071,,,,,8,0.8,90.23201078,1.93720132
LG,74,1,2024-06-14T13:53:17.841Z,english_324.wav,0,1,1071,,,,,9,0.9,-25.79699052,1.9219801
LG,74,1,2024-06-14T13:53:17.841Z,english_324.wav,0,1,1071,,,,,10,1,-46.49971987,0.58550327
LG,74,1,2024-06-14T13:53:17.841Z,english_324.wav,0,1,1071,,,,,11,1.09391667,53.98083149,0.44963146
LG,75,1,2024-06-14T13:53:17.841Z,english_87.wav,0,0,374,,,,,0,0,-7.69614497,1.36395538
LG,75,1,2024-06-14T13:53:17.841Z,english_87.wav,0,0,374,,,,,1,0.1,-50.79583923,0.55370317
LG,75,1,2024-06-14T13:53:17.841Z,english_87.wav,0,0,374,,,,,2,0.2,-21.62085435,0.68433779
LG,75,1,2024-06-14T13:53:17.841Z,english_87.wav,0,0,374,,,,,3,0.3,23.33346841,1.42277988
LG,75,1,2024-06-14T13:53:17.841Z,english_87.wav,0,0,374,,,,,4,0.4,84.82731916,1.16991809
LG,75,1,2024-06-14T13:53:17.841Z,english_87.wav,0,0,374,,,,,5,0.5,74.54936251,0.13065421
LG,75,1,2024-06-14T13:53:17.841Z,english_87.wav,0,0,374,,,,,6,0.6,-86.24882643,1.74622352
LG,75,1,2024-06-14T13:53:17.841Z,english_87.wav,0,0,374,,,,,7,0.7,18.19590059,0.87122315
LG,75,1,2024-06-14T13:53:17.841Z,english_87.wav,0,0,374,,,,,8,0.8,86.70789686,1.52981879
LG,75,1,2024-06-14T13:53:17.841Z,english_87.wav,0,0,374,,,,,9,0.9,67.00424782,1.42292715
LG,75,1,2024-06-14T13:53:17.841Z,english_87.wav,0,0,374,,,,,10,1,91.10231962,0.07145037
LG,75,1,2024-06-14T13:53:17.841Z,english_87.wav,0,0,374,,,,,11,1.09391667,23.49318924,0.54757178
LG,76,1,2024-06-14T13:53:17.841Z,english_191.wav,0,0,683,,,,,0,0,-24.02277358,1.0914461
LG,76,1,2024-06-14T13:53:17.841Z,english_191.wav,0,0,683,,,,,1,0.1,63.4439463,0.33098092
LG,76,1,2024-06-14T13:53:17.841Z,english_191.wav,0,0,683,,,,,2,0.2,-22.47731103,1.86196051
LG,76,1,2024-06-14T13:53:17.841Z,english_191.wav,0,0,683,,,,,3,0.3,-9.99025732,0.09450542
LG,76,1,2024-06-14T13:53:17.841Z,english_191.wav,0,0,683,,,,,4,0.4,58.56180387,1.1158369
LG,76,1,2024-06-14T13:53:17.841Z,english_191.wav,0,0,683,,,,,5,0.5,62.8001027,0.90347235
LG,76,1,2024-06-14T13:53:17.841Z,english_191.wav,0,0,683,,,,,6,0.6,15.39253294,1.55895669
LG,76,1,2024-06-14T13:53:17.841Z,english_191.wav,0,0,683,,,,,7,0.7,56.82172684,1.11486536
LG,76,1,2024-06-14T13:53:17.841Z,english_191.wav,0,0,683,,,,,8,0.8,-77.92272587,0.70296155
LG,76,1,2024-06-14T13:53:17.841Z,english_191.wav,0,0,683,,,,,9,0.9,-72.7474465,1.56868029
LG,76,1,2024-06-14T13:53:17.841Z,english_191.wav,0,0,683,,,,,10,1,-73.86130367,1.33347033
LG,76,1,2024-06-14T13:53:17.841Z,english_191.wav,0,0,683,,,,,11,1.09391667,-78.65780479,1.27370222
LG,77,1,2024-06-14T13:53:17.841Z,english_214.wav,0,0,194,,,,,0,0,77.66249847,1.66443393
LG,77,1,2024-06-14T13:53:17.841Z,english_214.wav,0,0,194,,,,,1,0.1,-66.26077856,1.37654428
LG,77,1,2024-06-14T13:53:17.841Z,english_214.wav,0,0,194,,,,,2,0.2,-51.4922282,1.40712663
LG,77,1,2024-06-14T13:53:17.841Z,english_214.wav,0,0,194,,,,,3,0.3,14.18659261,0.14412451
LG,77,1,2024-06-14T13:53:17.841Z,english_214.wav,0,0,194,,,,,4,0.4,-48.84743407,0.91551293
LG,77,1,2024-06-14T13:53:17.841Z,english_214.wav,0,0,194,,,,,5,0.5,19.47798934,0.32690142
LG,77,1,2024-06-14T13:53:17.841Z,english_214.wav,0,0,194,,,,,6,0.6,30.92446632,1.55465622
LG,77,1,2024-06-14T13:53:17.841Z,english_214.wav,0,0,194,,,,,7,0.7,-20.72955743,0.81533764
LG,77,1,2024-06-14T13:53:17.841Z,english_214.wav,0,0,194,,,,,8,0.8,-84.03788896,1.36872512
LG,77,1,2024-06-14T13:53:17.841Z,english_214.wav,0,0,194,,,,,9,0.9,1.19993411,0.61257248
LG,77,1,2024-06-14T13:53:17.841Z,english_214.wav,0,0,194,,,,,10,1,-10.67189742,1.2492197
LG,77,1,2024-06-14T13:53:17.841Z,english_214.wav,0,0,194,,,,,11,1.09391667,76.51495677,1.13872638
LG,78,1,2024-06-14T13:53:17.841Z,english_49.wav,0,0,562,,,,,0,0,-7.77522682,0.84923144
LG,78,1,2024-06-14T13:53:17.841Z,english_49.wav,0,0,562,,,,,1,0.1,-69.00488143,0.33119372
LG,78,1,2024-06-14T13:53:17.841Z,english_49.wav,0,0,562,,,,,2,0.2,56.47558832,1.22070051
LG,78,1,2024-06-14T13:53:17.841Z,english_49.wav,0,0,562,,,,,3,0.3,47.73828653,0.09401361
LG,78,1,2024-06-14T13:53:17.841Z,english_49.wav,0,0,562,,,,,4,0.4,-58.74936134,0.13758585
LG,78,1,2024-06-14T13:53:17.841Z,english_49.wav,0,0,562,,,,,5,0.5,-16.00930073,1.02104263
LG,78,1,2024-06-14T13:53:17.841Z,english_49.wav,0,0,562,,,,,6,0.6,68.77090309,1.27727042
LG,78,1,2024-06-14T13:53:17.841Z,english_49.wav,0,0,562,,,,,7,0.7,47.28501738,0.65680798
LG,78,1,2024-06-14T13:53:17.841Z,english_49.wav,0,0,562,,,,,8,0.8,-26.83696642,1.41824482
LG,78,1,2024-06-14T13:53:17.841Z,english_49.wav,0,0,562,,,,,9,0.9,16.45883289,0.73136625
LG,78,1,2024-06-14T13:53:17.841Z,english_49.wav,0,0,562,,,,,10,1,-23.79769264,0.31271595
LG,78,1,2024-06-14T13:53:17.841Z,english_49.wav,0,0,562,,,,,11,1.09391667,62.62161118,0.15435739
LG,79,1,2024-06-14T13:53:17.841Z,english_860.wav,0,0,112,,,,,0,0,-75.11512177,0.5802678
LG,79,1,2024-06-14T13:53:17.841Z,english_860.wav,0,0,112,,,,,1,0.1,-76.73255409,0.63510207
LG,79,1,2024-06-14T13:53:17.841Z,english_860.wav,0,0,112,,,,,2,0.2,-22.8093588,1.68265606
LG,79,1,2024-06-14T13:53:17.841Z,english_860.wav,0,0,112,,,,,3,0.3,52.97738113,1.3480606
LG,79,1,2024-06-14T13:53:17.841Z,english_860.wav,0,0,112,,,,,4,0.4,-48.45234216,1.82238625
LG,79,1,2024-06-14T13:53:17.841Z,english_860.wav,0,0,112,,,,,5,0.5,-73.13735188,1.51063726
LG,79,1,2024-06-14T13:53:17.841Z,english_860.wav,0,0,112,,,,,6,0.6,-46.97684059,1.0243353
LG,79,1,2024-06-14T13:53:17.841Z,english_860.wav,0,0,112,,,,,7,0.7,-71.08749695,1.81300466
LG,79,1,2024-06-14T13:53:17.841Z,english_860.wav,0,0,112,,,,,8,0.8,63.11648415,1.10665048
LG,79,1,2024-06-14T13:53:17.841Z,english_860.wav,0,0,112,,,,,9,0.9,33.70639775,0.26575263
LG,79,1,2024-06-14T13:53:17.841Z,english_860.wav,0,0,112,,,,,10,1,39.70734852,1.65404894
LG,79,1,2024-06-14T13:53:17.841Z,english_860.wav,0,0,112,,,,,11,1.09391667,-93.86026271,1.66618104
LG,80,1,2024-06-14T13:53:17.841Z,english_31.wav,0,0,174,,,,,0,0,27.66535658,1.77982522
LG,80,1,2024-06-14T13:53:17.841Z,english_31.wav,0,0,174,,,,,1,0.1,13.56694794,1.07162792
LG,80,1,2024-06-14T13:53:17.841Z,english_31.wav,0,0,174,,,,,2,0.2,18.47033094,0.18234571
LG,80,1,2024-06-14T13:53:17.841Z,english_31.wav,0,0,174,,,,,3,0.3,59.04276692,1.10955417
LG,80,1,2024-06-14T13:53:17.841Z,english_31.wav,0,0,174,,,,,4,0.4,-91.09157625,1.72425302
LG,80,1,2024-06-14T13:53:17.841Z,english_31.wav,0,0,174,,,,,5,0.5,-18.02658585,0.5579513
LG,80,1,2024-06-14T13:53:17.841Z,english_31.wav,0,0,174,,,,,6,0.6,-35.60184109,1.93053319
LG,80,1,2024-06-14T13:53:17.841Z,english_31.wav,0,0,174,,,,,7,0.7,54.26515106,1.77971636
LG,80,1,2024-06-14T13:53:17.841Z,english_31.wav,0,0,174,,,,,8,0.8,-22.38727861,0.37301738
LG,80,1,2024-06-14T13:53:17.841Z,english_31.wav,0,0,174,,,,,9,0.9,43.77933905,1.40160657
LG,80,1,2024-06-14T13:53:17.841Z,english_31.wav,0,0,174,,,,,10,1,18.37090143,0.31959468
LG,80,1,2024-06-14T13:53:17.841Z,english_31.wav,0,0,174,,,,,11,1.09391667,6.84824494,1.79655945
LG,81,1,2024-06-14T13:53:17.841Z,english_17.wav,0,0,281,,,,,0,0,-41.3657541,0.93042496
LG,81,1,2024-06-14T13:53:17.841Z,english_17.wav,0,0,281,,,,,1,0.1,18.52407521,0.57556252
LG,81,1,2024-06-14T13:53:17.841Z,english_17.wav,0,0,281,,,,,2,0.2,28.83660917,1.05825244
LG,81,1,2024-06-14T13:53:17.841Z,english_17.wav,0,0,281,,,,,3,0.3,-68.73925871,1.61296419
LG,81,1,2024-06-14T13:53:17.841Z,english_17.wav,0,0,281,,,,,4,0.4,16.38358539,1.88532434
LG,81,1,2024-06-14T13:53:17.841Z,english_17.wav,0,0,281,,,,,5,0.5,10.80665977,0.93003826
LG,81,1,2024-06-14T13:53:17.841Z,english_17.wav,0,0,281,,,,,6,0.6,-96.31867509,1.71319597
LG,81,1,2024-06-14T13:53:17.841Z,english_17.wav,0,0,281,,,,,7,0.7,3.37543051,0.84201525
LG,81,1,2024-06-14T13:53:17.841Z,english_17.wav,0,0,281,,,,,8,0.8,-54.88657906,0.38884428
LG,81,1,2024-06-14T13:53:17.841Z,english_17.wav,0,0,281,,,,,9,0.9,-8.55837904,0.28018269
LG,81,1,2024-06-14T13:53:17.841Z,english_17.wav,0,0,281,,,,,10,1,90.97556366,1.36723804
LG,81,1,2024-06-14T13:53:17.841Z,english_17.wav,0,0,281,,,,,11,1.09391667,-99.26558204,0.42314615
LG,82,1,2024-06-14T13:53:17.841Z,english_693.wav,0,0,1589,,,,,0,0,-75.67975091,0.6706819
LG,82,1,2024-06-14T13:53:17.841Z,english_693.wav,0,0,1589,,,,,1,0.1,-0.67488573,0.70747017
LG,82,1,2024-06-14T13:53:17.841Z,english_693.wav,0,0,1589,,,,,2,0.2,8.83748606,1.043537
LG,82,1,2024-06-14T13:53:17.841Z,english_693.wav,0,0,1589,,,,,3,0.3,46.84016051,1.06639289
LG,82,1,2024-06-14T13:53:17.841Z,english_693.wav,0,0,1589,,,,,4,0.4,-13.00761781,1.65543462
LG,82,1,2024-06-14T13:53:17.841Z,english_693.wav,0,0,1589,,,,,5,0.5,14.23719318,1.13988087
LG,82,1,2024-06-14T13:53:17.841Z,english_693.wav,0,0,1589,,,,,6,0.6,42.52615101,0.88807521
LG,82,1,2024-06-14T13:53:17.841Z,english_693.wav,0,0,1589,,,,,7,0.7,65.43388412,1.6314593
LG,82,1,2024-06-14T13:53:17.841Z,english_693.wav,0,0,1589,,,,,8,0.8,-9.43344372,1.91739549
LG,82,1,2024-06-14T13:53:17.841Z,english_693.wav,0,0,1589,,,,,9,0.9,-30.43290339,1.30579352
LG,82,1,2024-06-14T13:53:17.841Z,english_693.wav,0,0,1589,,,,,10,1,-71.43466109,1.06179133
LG,82,1,2024-06-14T13:53:17.841Z,english_693.wav,0,0,1589,,,,,11,1.09391667,22.00910114,0.90887908
LG,83,1,2024-06-14T13:53:17.841Z,english_667.wav,0,0,346,,,,,0,0,-40.55421882,0.65900383
LG,83,1,2024-06-14T13:53:17.841Z,english_667.wav,0,0,346,,,,,1,0.1,-4.36791553,1.32668807
LG,83,1,2024-06-14T13:53:17.841Z,english_667.wav,0,0,346,,,,,2,0.2,-47.28306179,1.36801295
LG,83,1,2024-06-14T13:53:17.841Z,english_667.wav,0,0,346,,,,,3,0.3,4.54742829,1.31909989
LG,83,1,2024-06-14T13:53:17.841Z,english_667.wav,0,0,346,,,,,4,0.4,56.02469614,1.3880932
LG,83,1,2024-06-14T13:53:17.841Z,english_667.wav,0,0,346,,,,,5,0.5,-1.96932384,1.04427425
LG,83,1,2024-06-14T13:53:17.841Z,english_667.wav,0,0,346,,,,,6,0.6,5.19539512,1.75340959
LG,83,1,2024-06-14T13:53:17.841Z,english_667.wav,0,0,346,,,,,7,0.7,-58.89384288,0.51778984
LG,83,1,2024-06-14T13:53:17.841Z,english_667.wav,0,0,346,,,,,8,0.8,-23.79810438,1.0404646
LG,83,1,2024-06-14T13:53:17.841Z,english_667.wav,0,0,346,,,,,9,0.9,98.84523473,0.97755594
LG,83,1,2024-06-14T13:53:17.841Z,english_667.wav,0,0,346,,,,,10,1,7.14220046,0.3681696
LG,83,1,2024-06-14T13:53:17.841Z,english_667.wav,0,0,346,,,,,11,1.09391667,-53.41190767,1.51620439
LG,84,1,2024-06-14T13:53:17.841Z,english_504.wav,0,0,464,,,,,0,0,-66.23189197,1.64024725
LG,84,1,2024-06-14T13:53:17.841Z,english_504.wav,0,0,464,,,,,1,0.1,-7.28081394,1.33861833
LG,84,1,2024-06-14T13:53:17.841Z,english_504.wav,0,0,464,,,,,2,0.2,-74.05426979,0.21996253
LG,84,1,2024-06-14T13:53:17.841Z,english_504.wav,0,0,464,,,,,3,0.3,-2.17834407,0.9295354
LG,84,1,2024-06-14T13:53:17.841Z,english_504.wav,0,0,464,,,,,4,0.4,-44.29553612,0.18867482
LG,84,1,2024-06-14T13:53:17.841Z,english_504.wav,0,0,464,,,,,5,0.5,-21.93882769,0.17745141
LG,84,1,2024-06-14T13:53:17.841Z,english_504.wav,0,0,464,,,,,6,0.6,-6.80381408,1.36415298
LG,84,1,2024-06-14T13:53:17.841Z,english_504.wav,0,0,464,,,,,7,0.7,9.00050206,1.08571676
LG,84,1,2024-06-14T13:53:17.841Z,english_504.wav,0,0,464,,,,,8,0.8,-19.58321875,1.38544941
LG,84,1,2024-06-14T13:53:17.841Z,english_504.wav,0,0,464,,,,,9,0.9,-97.27632106,0.33380342
LG,84,1,2024-06-14T13:53:17.841Z,english_504.wav,0,0,464,,,,,10,1,94.36582119,0.16971293
LG,84,1,2024-06-14T13:53:17.841Z,english_504.wav,0,0,464,,,,,11,1.09391667,-77.55415354,0.89224977
LG,85,1,2024-06-14T13:53:17.841Z,english_745.wav,0,0,252,,,,,0,0,-47.9537983,1.262874
LG,85,1,2024-06-14T13:53:17.841Z,english_745.wav,0,0,252,,,,,1,0.1,10.59664377,0.45595153
LG,85,1,2024-06-14T13:53:17.841Z,english_745.wav,0,0,252,,,,,2,0.2,3.22121318,1.90154411
LG,85,1,2024-06-14T13:53:17.841Z,english_745.wav,0,0,252,,,,,3,0.3,66.38489409,1.18935698
LG,85,1,2024-06-14T13:53:17.841Z,english_745.wav,0,0,252,,,,,4,0.4,-85.62638025,0.53454894
LG,85,1,2024-06-14T13:53:17.841Z,english_745.wav,0,0,252,,,,,5,0.5,53.0870989,0.07115633
LG,85,1,2024-06-14T13:53:17.841Z,english_745.wav,0,0,252,,,,,6,0.6,37.88737288,0.91558947
LG,85,1,2024-06-14T13:53:17.841Z,english_745.wav,0,0,252,,,,,7,0.7,-50.87104403,0.71993263
LG,85,1,2024-06-14T13:53:17.841Z,english_745.wav,0,0,252,,,,,8,0.8,-30.17524051,0.93591694
LG,85,1,2024-06-14T13:53:17.841Z,english_745.wav,0,0,252,,,,,9,0.9,42.29036925,0.99723137
LG,85,1,2024-06-14T13:53:17.841Z,english_745.wav,0,0,252,,,,,10,1,6.95263715,0.85978939
LG,85,1,2024-06-14T13:53:17.841Z,english_745.wav,0,0,252,,,,,11,1.09391667,-3.81320325,0.69941736
LG,86,1,2024-06-14T13:53:17.841Z,english_821.wav,0,1,795,,,,,0,0,60.02897282,0.81118736
LG,86,1,2024-06-14T13:53:17.841Z,english_821.wav,0,1,795,,,,,1,0.1,-31.71016541,1.4887669
LG,86,1,2024-06-14T13:53:17.841Z,english_821.wav,0,1,795,,,,,2,0.2,65.3097336,0.65578563
LG,86,1,2024-06-14T13:53:17.841Z,english_821.wav,0,1,795,,,,,3,0.3,39.90488009,0.99843063
LG,86,1,2024-06-14T13:53:17.841Z,english_821.wav,0,1,795,,,,,4,0.4,65.66520818,0.54862628
LG,86,1,2024-06-14T13:53:17.841Z,english_821.wav,0,1,795,,,,,5,0.5,-73.56912207,0.9620802
LG,86,1,2024-06-14T13:53:17.841Z,english_821.wav,0,1,795,,,,,6,0.6,0.74999233,1.96570853
LG,86,1,2024-06-14T13:53:17.841Z,english_821.wav,0,1,795,,,,,7,0.7,64.12769535,1.86660776
LG,86,1,2024-06-14T13:53:17.841Z,english_821.wav,0,1,795,,,,,8,0.8,-79.18665898,0.48590566
LG,86,1,2024-06-14T13:53:17.841Z,english_821.wav,0,1,795,,,,,9,0.9,-84.62050136,1.1315153
LG,86,1,2024-06-14T13:53:17.841Z,english_821.wav,0,1,795,,,,,10,1,99.19624858,1.62744853
LG,86,1,2024-06-14T13:53:17.841Z,english_821.wav,0,1,795,,,,,11,1.09391667,71.58670695,1.94836872
LG,87,1,2024-06-14T13:53:17.841Z,english_991.wav,0,0,496,,,,,0,0,-1.1896089,1.11058757
LG,87,1,2024-06-14T13:53:17.841Z,english_991.wav,0,0,496,,,,,1,0.1,-96.26402249,0.1672209
LG,87,1,2024-06-14T13:53:17.841Z,english_991.wav,0,0,496,,,,,2,0.2,35.13230964,1.95155766
LG,87,1,2024-06-14T13:53:17.841Z,english_991.wav,0,0,496,,,,,3,0.3,16.47291022,0.04651437
LG,87,1,2024-06-14T13:53:17.841Z,english_991.wav,0,0,496,,,,,4,0.4,-88.97016612,1.74859016
LG,87,1,2024-06-14T13:53:17.841Z,english_991.wav,0,0,496,,,,,5,0.5,-18.26917978,1.4122656
LG,87,1,2024-06-14T13:53:17.841Z,english_991.wav,0,0,496,,,,,6,0.6,-86.44611587,0.52281086
LG,87,1,2024-06-14T13:53:17.841Z,english_991.wav,0,0,496,,,,,7,0.7,-23.18394533,1.29572944
LG,87,1,2024-06-14T13:53:17.841Z,english_991.wav,0,0,496,,,,,8,0.8,-34.88810698,1.11115335
LG,87,1,2024-06-14T13:53:17.841Z,english_991.wav,0,0,496,,,,,9,0.9,58.2484142,1.29146841
LG,87,1,2024-06-14T13:53:17.841Z,english_991.wav,0,0,496,,,,,10,1,13.64122516,1.37847477
LG,87,1,2024-06-14T13:53:17.841Z,english_991.wav,0,0,496,,,,,11,1.09391667,-13.61979163,0.12249008
LG,88,1,2024-06-14T13:53:17.841Z,english_306.wav,0,0,701,,,,,0,0,-95.03086766,1.30837938
LG,88,1,2024-06-14T13:53:17.841Z,english_306.wav,0,0,701,,,,,1,0.1,-3.19440238,0.41482999
LG,88,1,2024-06-14T13:53:17.841Z,english_306.wav,0,0,701,,,,,2,0.2,-39.72459624,1.62954212
LG,88,1,2024-06-14T13:53:17.841Z,english_306.wav,0,0,701,,,,,3,0.3,15.36352601,1.09402509
LG,88,1,2024-06-14T13:53:17.841Z,english_306.wav,0,0,701,,,,,4,0.4,-38.40390677,0.25113187
LG,88,1,2024-06-14T13:53:17.841Z,english_306.wav,0,0,701,,,,,5,0.5,-49.79740584,0.76399472
LG,88,1,2024-06-14T13:53:17.841Z,english_306.wav,0,0,701,,,,,6,0.6,-48.37651938,1.73274833
LG,88,1,2024-06-14T13:53:17.841Z,english_306.wav,0,0,701,,,,,7,0.7,-33.05516854,0.31535053
LG,88,1,2024-06-14T13:53:17.841Z,english_306.wav,0,0,701,,,,,8,0.8,-95.3817315,0.01885302
LG,88,1,2024-06-14T13:53:17.841Z,english_306.wav,0,0,701,,,,,9,0.9,-37.53428143,0.72130614
LG,88,1,2024-06-14T13:53:17.841Z,english_306.wav,0,0,701,,,,,10,1,13.19585938,0.43232343
LG,88,1,2024-06-14T13:53:17.841Z,english_306.wav,0,0,701,,,,,11,1.09391667,36.11780275,1.20783491
LG,89,1,2024-06-14T13:53:17.841Z,english_417.wav,0,0,705,,,,,0,0,29.37383655,1.92425936
LG,89,1,2024-06-14T13:53:17.841Z,english_417.wav,0,0,705,,,,,1,0.1,23.19156398,0.6229039
LG,89,1,2024-06-14T13:53:17.841Z,english_417.wav,0,0,705,,,,,2,0.2,85.81337763,1.36154183
LG,89,1,2024-06-14T13:53:17.841Z,english_417.wav,0,0,705,,,,,3,0.3,-29.64908449,0.09031289
LG,89,1,2024-06-14T13:53:17.841Z,english_417.wav,0,0,705,,,,,4,0.4,8.97904128,0.90960709
LG,89,1,2024-06-14T13:53:17.841Z,english_417.wav,0,0,705,,,,,5,0.5,39.22706603,1.25920128
LG,89,1,2024-06-14T13:53:17.841Z,english_417.wav,0,0,705,,,,,6,0.6,61.83715867,1.48525242
LG,89,1,2024-06-14T13:53:17.841Z,english_417.wav,0,0,705,,,,,7,0.7,-85.41027475,0.60232136
LG,89,1,2024-06-14T13:53:17.841Z,english_417.wav,0,0,705,,,,,8,0.8,73.95238576,0.50952592
LG,89,1,2024-06-14T13:53:17.841Z,english_417.wav,0,0,705,,,,,9,0.9,27.80762862,0.22145612
LG,89,1,2024-06-14T13:53:17.841Z,english_417.wav,0,0,705,,,,,10,1,-27.42196196,0.91644458
LG,89,1,2024-06-14T13:53:17.841Z,english_417.wav,0,0,705,,,,,11,1.09391667,-33.44848628,1.07641807
LG,90,1,2024-06-14T13:53:17.841Z,english_692.wav,0,0,430,,,,,0,0,17.01173199,0.47550749
LG,90,1,2024-06-14T13:53:17.841Z,english_692.wav,0,0,430,,,,,1,0.1,-83.06969334,1.08739119
LG,90,1,2024-06-14T13:53:17.841Z,english_692.wav,0,0,430,,,,,2,0.2,-58.44100575,1.75941989
LG,90,1,2024-06-14T13:53:17.841Z,english_692.wav,0,0,430,,,,,3,0.3,-91.32119293,0.308091
LG,90,1,2024-06-14T13:53:17.841Z,english_692.wav,0,0,430,,,,,4,0.4,-39.52405727,0.34371229
LG,90,1,2024-06-14T13:53:17.841Z,english_692.wav,0,0,430,,,,,5,0.5,-40.26958375,0.85553053
LG,90,1,2024-06-14T13:53:17.841Z,english_692.wav,0,0,430,,,,,6,0.6,55.4362835,1.67285815
LG,90,1,2024-06-14T13:53:17.841Z,english_692.wav,0,0,430,,,,,7,0.7,20.27621399,1.37569405
LG,90,1,2024-06-14T13:53:17.841Z,english_692.wav,0,0,430,,,,,8,0.8,-86.30023131,1.97676153
LG,90,1,2024-06-14T13:53:17.841Z,english_692.wav,0,0,430,,,,,9,0.9,6.83955759,0.86697186
LG,90,1,2024-06-14T13:53:17.841Z,english_692.wav,0,0,430,,,,,10,1,6.70379303,1.63903464
LG,90,1,2024-06-14T13:53:17.841Z,english_692.wav,0,0,430,,,,,11,1.09391667,92.50690067,0.89498599
LG,91,1,2024-06-14T13:53:17.841Z,english_71.wav,0,1,381,,,,,0,0,30.10636139,0.62946654
LG,91,1,2024-06-14T13:53:17.841Z,english_71.wav,0,1,381,,,,,1,0.1,3.0816021,1.50453007
LG,91,1,2024-06-14T13:53:17.841Z,english_71.wav,0,1,381,,,,,2,0.2,66.18138618,0.98046708
LG,91,1,2024-06-14T13:53:17.841Z,english_71.wav,0,1,381,,,,,3,0.3,48.30744502,0.69034505
LG,91,1,2024-06-14T13:53:17.841Z,english_71.wav,0,1,381,,,,,4,0.4,76.92572471,0.92028911
LG,91,1,2024-06-14T13:53:17.841Z,english_71.wav,0,1,381,,,,,5,0.5,-25.53426936,0.29314993
LG,91,1,2024-06-14T13:53:17.841Z,english_71.wav,0,1,381,,,,,6,0.6,50.68511548,0.30848008
LG,91,1,2024-06-14T13:53:17.841Z,english_71.wav,0,1,381,,,,,7,0.7,-55.42199264,0.91569305
LG,91,1,2024-06-14T13:53:17.841Z,english_71.wav,0,1,381,,,,,8,0.8,-37.57822881,1.44666992
LG,91,1,2024-06-14T13:53:17.841Z,english_71.wav,0,1,381,,,,,9,0.9,93.39435099,1.1812526
LG,91,1,2024-06-14T13:53:17.841Z,english_71.wav,0,1,381,,,,,10,1,84.87822391,0.81790169
LG,91,1,2024-06-14T13:53:17.841Z,english_71.wav,0,1,381,,,,,11,1.09391667,-75.5815668,1.06314532
