subj,trial,block,date,stim,stim_order,response,rt,age,english,language,sex,param_index,segment,pitch,stretch
QXL_1546,0,0,2024-06-20T07:47:56.596Z,english_669.wav,0,1,5598,23,4,chinese,f,0,0,63.63841723,1.21965741
QXL_1546,0,0,2024-06-20T07:47:56.596Z,english_669.wav,0,1,5598,23,4,chinese,f,1,0.1,-16.46655099,1.77063888
QXL_1546,0,0,2024-06-20T07:47:56.596Z,english_669.wav,0,1,5598,23,4,chinese,f,2,0.2,59.94652085,1.19972221
QXL_1546,0,0,2024-06-20T07:47:56.596Z,english_669.wav,0,1,5598,23,4,chinese,f,3,0.3,87.91202499,1.09192955
QXL_1546,0,0,2024-06-20T07:47:56.596Z,english_669.wav,0,1,5598,23,4,chinese,f,4,0.4,-9.72604882,0.69529064
QXL_1546,0,0,2024-06-20T07:47:56.596Z,english_669.wav,0,1,5598,23,4,chinese,f,5,0.5,72.16172308,1.09710692
QXL_1546,0,0,2024-06-20T07:47:56.596Z,english_669.wav,0,1,5598,23,4,chinese,f,6,0.6,-64.88013083,1.91297745
QXL_1546,0,0,2024-06-20T07:47:56.596Z,english_669.wav,0,1,5598,23,4,chinese,f,7,0.7,26.66035036,1.12487674
QXL_1546,0,0,2024-06-20T07:47:56.596Z,english_669.wav,0,1,5598,23,4,chinese,f,8,0.8,-43.66675722,0.95542007
QXL_1546,0,0,2024-06-20T07:47:56.596Z,english_669.wav,0,1,5598,23,4,chinese,f,9,0.9,4.29997564,1.3922733
QXL_1546,0,0,2024-06-20T07:47:56.596Z,english_669.wav,0,1,5598,23,4,chinese,f,10,1,-68.31489554,1.61053031
QXL_1546,0,0,2024-06-20T07:47:56.596Z,english_669.wav,0,1,5598,23,4,chinese,f,11,1.09391667,-65.69487781,0.28856802
QXL_1546,1,0,2024-06-20T07:47:56.596Z,english_377.wav,0,0,3961,23,4,chinese,f,0,0,73.04653382,1.47836601
QXL_1546,1,0,2024-06-20T07:47:56.596Z,english_377.wav,0,0,3961,23,4,chinese,f,1,0.1,61.01214683,1.01623989
QXL_1546,1,0,2024-06-20T07:47:56.596Z,english_377.wav,0,0,3961,23,4,chinese,f,2,0.2,-82.4479578,1.48528015
QXL_1546,1,0,2024-06-20T07:47:56.596Z,english_377.wav,0,0,3961,23,4,chinese,f,3,0.3,-6.35059144,0.37422398
QXL_1546,1,0,2024-06-20T07:47:56.596Z,english_377.wav,0,0,3961,23,4,chinese,f,4,0.4,58.86113959,0.85864758
QXL_1546,1,0,2024-06-20T07:47:56.596Z,english_377.wav,0,0,3961,23,4,chinese,f,5,0.5,19.19354738,0.94448051
QXL_1546,1,0,2024-06-20T07:47:56.596Z,english_377.wav,0,0,3961,23,4,chinese,f,6,0.6,-31.09076765,1.48225941
QXL_1546,1,0,2024-06-20T07:47:56.596Z,english_377.wav,0,0,3961,23,4,chinese,f,7,0.7,-78.80759367,0.12460905
QXL_1546,1,0,2024-06-20T07:47:56.596Z,english_377.wav,0,0,3961,23,4,chinese,f,8,0.8,40.88540154,0.28155513
QXL_1546,1,0,2024-06-20T07:47:56.596Z,english_377.wav,0,0,3961,23,4,chinese,f,9,0.9,2.78755214,0.51707897
QXL_1546,1,0,2024-06-20T07:47:56.596Z,english_377.wav,0,0,3961,23,4,chinese,f,10,1,-65.38807899,0.25575056
QXL_1546,1,0,2024-06-20T07:47:56.596Z,english_377.wav,0,0,3961,23,4,chinese,f,11,1.09391667,58.80108337,0.70835394
QXL_1546,2,0,2024-06-20T07:47:56.596Z,english_551.wav,0,1,5918,23,4,chinese,f,0,0,-6.7580407,1.36908338
QXL_1546,2,0,2024-06-20T07:47:56.596Z,english_551.wav,0,1,5918,23,4,chinese,f,1,0.1,35.07051515,1.9104602
QXL_1546,2,0,2024-06-20T07:47:56.596Z,english_551.wav,0,1,5918,23,4,chinese,f,2,0.2,-13.38429881,0.46910503
QXL_1546,2,0,2024-06-20T07:47:56.596Z,english_551.wav,0,1,5918,23,4,chinese,f,3,0.3,37.09878084,1.97066888
QXL_1546,2,0,2024-06-20T07:47:56.596Z,english_551.wav,0,1,5918,23,4,chinese,f,4,0.4,-63.7004989,1.03915964
QXL_1546,2,0,2024-06-20T07:47:56.596Z,english_551.wav,0,1,5918,23,4,chinese,f,5,0.5,38.07544061,0.03518646
QXL_1546,2,0,2024-06-20T07:47:56.596Z,english_551.wav,0,1,5918,23,4,chinese,f,6,0.6,-3.84658335,0.35806175
QXL_1546,2,0,2024-06-20T07:47:56.596Z,english_551.wav,0,1,5918,23,4,chinese,f,7,0.7,-70.82168474,1.2923355
QXL_1546,2,0,2024-06-20T07:47:56.596Z,english_551.wav,0,1,5918,23,4,chinese,f,8,0.8,15.89042936,0.94769204
QXL_1546,2,0,2024-06-20T07:47:56.596Z,english_551.wav,0,1,5918,23,4,chinese,f,9,0.9,11.36542465,1.13768641
QXL_1546,2,0,2024-06-20T07:47:56.596Z,english_551.wav,0,1,5918,23,4,chinese,f,10,1,48.05239425,1.46377274
QXL_1546,2,0,2024-06-20T07:47:56.596Z,english_551.wav,0,1,5918,23,4,chinese,f,11,1.09391667,-25.45868434,1.28141809
QXL_1546,3,0,2024-06-20T07:47:56.596Z,english_301.wav,0,0,1657,23,4,chinese,f,0,0,20.00084454,0.51149801
QXL_1546,3,0,2024-06-20T07:47:56.596Z,english_301.wav,0,0,1657,23,4,chinese,f,1,0.1,-52.8514029,1.39891418
QXL_1546,3,0,2024-06-20T07:47:56.596Z,english_301.wav,0,0,1657,23,4,chinese,f,2,0.2,18.35573453,1.20064295
QXL_1546,3,0,2024-06-20T07:47:56.596Z,english_301.wav,0,0,1657,23,4,chinese,f,3,0.3,20.24530443,1.16262284
QXL_1546,3,0,2024-06-20T07:47:56.596Z,english_301.wav,0,0,1657,23,4,chinese,f,4,0.4,-31.13596974,0.89189618
QXL_1546,3,0,2024-06-20T07:47:56.596Z,english_301.wav,0,0,1657,23,4,chinese,f,5,0.5,-57.63348461,0.05591257
QXL_1546,3,0,2024-06-20T07:47:56.596Z,english_301.wav,0,0,1657,23,4,chinese,f,6,0.6,-75.64185581,1.65560528
QXL_1546,3,0,2024-06-20T07:47:56.596Z,english_301.wav,0,0,1657,23,4,chinese,f,7,0.7,11.75816268,0.92096294
QXL_1546,3,0,2024-06-20T07:47:56.596Z,english_301.wav,0,0,1657,23,4,chinese,f,8,0.8,94.20607314,0.41490279
QXL_1546,3,0,2024-06-20T07:47:56.596Z,english_301.wav,0,0,1657,23,4,chinese,f,9,0.9,-85.03664705,1.73145538
QXL_1546,3,0,2024-06-20T07:47:56.596Z,english_301.wav,0,0,1657,23,4,chinese,f,10,1,-35.05020918,1.60276464
QXL_1546,3,0,2024-06-20T07:47:56.596Z,english_301.wav,0,0,1657,23,4,chinese,f,11,1.09391667,79.38839228,1.26188471
QXL_1546,4,0,2024-06-20T07:47:56.596Z,english_839.wav,0,1,1603,23,4,chinese,f,0,0,25.22327534,0.79021115
QXL_1546,4,0,2024-06-20T07:47:56.596Z,english_839.wav,0,1,1603,23,4,chinese,f,1,0.1,65.97179868,1.36275453
QXL_1546,4,0,2024-06-20T07:47:56.596Z,english_839.wav,0,1,1603,23,4,chinese,f,2,0.2,36.46298268,0.56940252
QXL_1546,4,0,2024-06-20T07:47:56.596Z,english_839.wav,0,1,1603,23,4,chinese,f,3,0.3,0.36789595,1.38606336
QXL_1546,4,0,2024-06-20T07:47:56.596Z,english_839.wav,0,1,1603,23,4,chinese,f,4,0.4,37.25543056,1.49876521
QXL_1546,4,0,2024-06-20T07:47:56.596Z,english_839.wav,0,1,1603,23,4,chinese,f,5,0.5,13.61304399,1.33513266
QXL_1546,4,0,2024-06-20T07:47:56.596Z,english_839.wav,0,1,1603,23,4,chinese,f,6,0.6,40.85367399,0.34922841
QXL_1546,4,0,2024-06-20T07:47:56.596Z,english_839.wav,0,1,1603,23,4,chinese,f,7,0.7,92.87994107,1.58402098
QXL_1546,4,0,2024-06-20T07:47:56.596Z,english_839.wav,0,1,1603,23,4,chinese,f,8,0.8,40.19777361,0.73275133
QXL_1546,4,0,2024-06-20T07:47:56.596Z,english_839.wav,0,1,1603,23,4,chinese,f,9,0.9,-27.70209944,1.05467816
QXL_1546,4,0,2024-06-20T07:47:56.596Z,english_839.wav,0,1,1603,23,4,chinese,f,10,1,-75.44304357,1.81419779
QXL_1546,4,0,2024-06-20T07:47:56.596Z,english_839.wav,0,1,1603,23,4,chinese,f,11,1.09391667,15.82899147,1.89560881
QXL_1546,5,0,2024-06-20T07:47:56.596Z,english_475.wav,0,1,1000,23,4,chinese,f,0,0,29.80961577,0.43821818
QXL_1546,5,0,2024-06-20T07:47:56.596Z,english_475.wav,0,1,1000,23,4,chinese,f,1,0.1,48.86857013,0.91916023
QXL_1546,5,0,2024-06-20T07:47:56.596Z,english_475.wav,0,1,1000,23,4,chinese,f,2,0.2,-75.87963709,1.43870603
QXL_1546,5,0,2024-06-20T07:47:56.596Z,english_475.wav,0,1,1000,23,4,chinese,f,3,0.3,30.73642142,0.67232978
QXL_1546,5,0,2024-06-20T07:47:56.596Z,english_475.wav,0,1,1000,23,4,chinese,f,4,0.4,-47.77384215,0.927705
QXL_1546,5,0,2024-06-20T07:47:56.596Z,english_475.wav,0,1,1000,23,4,chinese,f,5,0.5,95.74069733,0.04190462
QXL_1546,5,0,2024-06-20T07:47:56.596Z,english_475.wav,0,1,1000,23,4,chinese,f,6,0.6,49.89153758,1.51758055
QXL_1546,5,0,2024-06-20T07:47:56.596Z,english_475.wav,0,1,1000,23,4,chinese,f,7,0.7,-93.96412935,1.81908107
QXL_1546,5,0,2024-06-20T07:47:56.596Z,english_475.wav,0,1,1000,23,4,chinese,f,8,0.8,-13.00332235,1.60949708
QXL_1546,5,0,2024-06-20T07:47:56.596Z,english_475.wav,0,1,1000,23,4,chinese,f,9,0.9,80.99885276,1.9985333
QXL_1546,5,0,2024-06-20T07:47:56.596Z,english_475.wav,0,1,1000,23,4,chinese,f,10,1,-12.77273084,1.07792874
QXL_1546,5,0,2024-06-20T07:47:56.596Z,english_475.wav,0,1,1000,23,4,chinese,f,11,1.09391667,-3.9803657,1.55358956
QXL_1546,6,0,2024-06-20T07:47:56.596Z,english_66.wav,0,0,1983,23,4,chinese,f,0,0,73.54239792,1.39962355
QXL_1546,6,0,2024-06-20T07:47:56.596Z,english_66.wav,0,0,1983,23,4,chinese,f,1,0.1,-24.02007983,0.40719393
QXL_1546,6,0,2024-06-20T07:47:56.596Z,english_66.wav,0,0,1983,23,4,chinese,f,2,0.2,49.15082977,0.56009301
QXL_1546,6,0,2024-06-20T07:47:56.596Z,english_66.wav,0,0,1983,23,4,chinese,f,3,0.3,59.25187184,0.88526938
QXL_1546,6,0,2024-06-20T07:47:56.596Z,english_66.wav,0,0,1983,23,4,chinese,f,4,0.4,-38.45178026,0.20167751
QXL_1546,6,0,2024-06-20T07:47:56.596Z,english_66.wav,0,0,1983,23,4,chinese,f,5,0.5,4.75457438,0.49978963
QXL_1546,6,0,2024-06-20T07:47:56.596Z,english_66.wav,0,0,1983,23,4,chinese,f,6,0.6,46.25569394,1.58181975
QXL_1546,6,0,2024-06-20T07:47:56.596Z,english_66.wav,0,0,1983,23,4,chinese,f,7,0.7,-60.4256139,0.73201225
QXL_1546,6,0,2024-06-20T07:47:56.596Z,english_66.wav,0,0,1983,23,4,chinese,f,8,0.8,67.09047121,0.26938408
QXL_1546,6,0,2024-06-20T07:47:56.596Z,english_66.wav,0,0,1983,23,4,chinese,f,9,0.9,88.85676661,1.15195977
QXL_1546,6,0,2024-06-20T07:47:56.596Z,english_66.wav,0,0,1983,23,4,chinese,f,10,1,69.83029982,1.10937983
QXL_1546,6,0,2024-06-20T07:47:56.596Z,english_66.wav,0,0,1983,23,4,chinese,f,11,1.09391667,35.36852194,1.70850229
QXL_1546,7,0,2024-06-20T07:47:56.596Z,english_936.wav,0,1,673,23,4,chinese,f,0,0,36.31221715,1.2887877
QXL_1546,7,0,2024-06-20T07:47:56.596Z,english_936.wav,0,1,673,23,4,chinese,f,1,0.1,-44.47492587,1.4589685
QXL_1546,7,0,2024-06-20T07:47:56.596Z,english_936.wav,0,1,673,23,4,chinese,f,2,0.2,-4.14718789,0.18405876
QXL_1546,7,0,2024-06-20T07:47:56.596Z,english_936.wav,0,1,673,23,4,chinese,f,3,0.3,-65.70158372,0.27129686
QXL_1546,7,0,2024-06-20T07:47:56.596Z,english_936.wav,0,1,673,23,4,chinese,f,4,0.4,76.09968898,0.60039507
QXL_1546,7,0,2024-06-20T07:47:56.596Z,english_936.wav,0,1,673,23,4,chinese,f,5,0.5,52.5413509,0.83949142
QXL_1546,7,0,2024-06-20T07:47:56.596Z,english_936.wav,0,1,673,23,4,chinese,f,6,0.6,5.38506085,0.92420877
QXL_1546,7,0,2024-06-20T07:47:56.596Z,english_936.wav,0,1,673,23,4,chinese,f,7,0.7,-9.33856544,0.31849757
QXL_1546,7,0,2024-06-20T07:47:56.596Z,english_936.wav,0,1,673,23,4,chinese,f,8,0.8,-79.6079489,1.55991954
QXL_1546,7,0,2024-06-20T07:47:56.596Z,english_936.wav,0,1,673,23,4,chinese,f,9,0.9,-51.30915368,1.32485451
QXL_1546,7,0,2024-06-20T07:47:56.596Z,english_936.wav,0,1,673,23,4,chinese,f,10,1,-23.2662762,1.1603689
QXL_1546,7,0,2024-06-20T07:47:56.596Z,english_936.wav,0,1,673,23,4,chinese,f,11,1.09391667,10.041916,0.29288231
QXL_1546,8,0,2024-06-20T07:47:56.596Z,english_470.wav,0,0,1566,23,4,chinese,f,0,0,7.37990413,0.50795653
QXL_1546,8,0,2024-06-20T07:47:56.596Z,english_470.wav,0,0,1566,23,4,chinese,f,1,0.1,87.94942489,0.30691906
QXL_1546,8,0,2024-06-20T07:47:56.596Z,english_470.wav,0,0,1566,23,4,chinese,f,2,0.2,10.38249529,0.98636118
QXL_1546,8,0,2024-06-20T07:47:56.596Z,english_470.wav,0,0,1566,23,4,chinese,f,3,0.3,-58.07329771,1.21445168
QXL_1546,8,0,2024-06-20T07:47:56.596Z,english_470.wav,0,0,1566,23,4,chinese,f,4,0.4,23.85321855,1.48681533
QXL_1546,8,0,2024-06-20T07:47:56.596Z,english_470.wav,0,0,1566,23,4,chinese,f,5,0.5,6.8444155,0.97810489
QXL_1546,8,0,2024-06-20T07:47:56.596Z,english_470.wav,0,0,1566,23,4,chinese,f,6,0.6,-98.77408233,1.43803165
QXL_1546,8,0,2024-06-20T07:47:56.596Z,english_470.wav,0,0,1566,23,4,chinese,f,7,0.7,31.31374825,0.53571114
QXL_1546,8,0,2024-06-20T07:47:56.596Z,english_470.wav,0,0,1566,23,4,chinese,f,8,0.8,48.11301354,0.52187188
QXL_1546,8,0,2024-06-20T07:47:56.596Z,english_470.wav,0,0,1566,23,4,chinese,f,9,0.9,41.85545408,0.48211822
QXL_1546,8,0,2024-06-20T07:47:56.596Z,english_470.wav,0,0,1566,23,4,chinese,f,10,1,-24.66275902,1.48098769
QXL_1546,8,0,2024-06-20T07:47:56.596Z,english_470.wav,0,0,1566,23,4,chinese,f,11,1.09391667,-90.92929456,1.20326113
QXL_1546,9,0,2024-06-20T07:47:56.596Z,english_837.wav,0,0,2957,23,4,chinese,f,0,0,-19.55907837,0.36214908
QXL_1546,9,0,2024-06-20T07:47:56.596Z,english_837.wav,0,0,2957,23,4,chinese,f,1,0.1,81.5519268,1.07178346
QXL_1546,9,0,2024-06-20T07:47:56.596Z,english_837.wav,0,0,2957,23,4,chinese,f,2,0.2,51.06726568,0.32034272
QXL_1546,9,0,2024-06-20T07:47:56.596Z,english_837.wav,0,0,2957,23,4,chinese,f,3,0.3,11.56573734,0.28433719
QXL_1546,9,0,2024-06-20T07:47:56.596Z,english_837.wav,0,0,2957,23,4,chinese,f,4,0.4,3.9548588,0.83672743
QXL_1546,9,0,2024-06-20T07:47:56.596Z,english_837.wav,0,0,2957,23,4,chinese,f,5,0.5,-33.36822777,0.19314145
QXL_1546,9,0,2024-06-20T07:47:56.596Z,english_837.wav,0,0,2957,23,4,chinese,f,6,0.6,36.7691739,0.96322299
QXL_1546,9,0,2024-06-20T07:47:56.596Z,english_837.wav,0,0,2957,23,4,chinese,f,7,0.7,-18.61244812,1.32224338
QXL_1546,9,0,2024-06-20T07:47:56.596Z,english_837.wav,0,0,2957,23,4,chinese,f,8,0.8,16.54769658,1.87041814
QXL_1546,9,0,2024-06-20T07:47:56.596Z,english_837.wav,0,0,2957,23,4,chinese,f,9,0.9,-37.16394557,0.06067537
QXL_1546,9,0,2024-06-20T07:47:56.596Z,english_837.wav,0,0,2957,23,4,chinese,f,10,1,10.95001842,0.49261583
QXL_1546,9,0,2024-06-20T07:47:56.596Z,english_837.wav,0,0,2957,23,4,chinese,f,11,1.09391667,34.38345354,1.54886366
QXL_1546,10,0,2024-06-20T07:47:56.596Z,english_563.wav,0,0,855,23,4,chinese,f,0,0,97.71228094,1.26204961
QXL_1546,10,0,2024-06-20T07:47:56.596Z,english_563.wav,0,0,855,23,4,chinese,f,1,0.1,-46.61979444,1.17265915
QXL_1546,10,0,2024-06-20T07:47:56.596Z,english_563.wav,0,0,855,23,4,chinese,f,2,0.2,2.79591849,0.73553811
QXL_1546,10,0,2024-06-20T07:47:56.596Z,english_563.wav,0,0,855,23,4,chinese,f,3,0.3,-24.69974698,1.75222103
QXL_1546,10,0,2024-06-20T07:47:56.596Z,english_563.wav,0,0,855,23,4,chinese,f,4,0.4,-33.21670204,1.16360082
QXL_1546,10,0,2024-06-20T07:47:56.596Z,english_563.wav,0,0,855,23,4,chinese,f,5,0.5,-22.29161776,0.78496451
QXL_1546,10,0,2024-06-20T07:47:56.596Z,english_563.wav,0,0,855,23,4,chinese,f,6,0.6,-9.78409371,0.25812971
QXL_1546,10,0,2024-06-20T07:47:56.596Z,english_563.wav,0,0,855,23,4,chinese,f,7,0.7,22.41186375,1.68001513
QXL_1546,10,0,2024-06-20T07:47:56.596Z,english_563.wav,0,0,855,23,4,chinese,f,8,0.8,-16.19600926,1.88614824
QXL_1546,10,0,2024-06-20T07:47:56.596Z,english_563.wav,0,0,855,23,4,chinese,f,9,0.9,96.89254029,0.22022692
QXL_1546,10,0,2024-06-20T07:47:56.596Z,english_563.wav,0,0,855,23,4,chinese,f,10,1,-8.68448167,0.44747932
QXL_1546,10,0,2024-06-20T07:47:56.596Z,english_563.wav,0,0,855,23,4,chinese,f,11,1.09391667,22.23097911,1.70220981
QXL_1546,11,0,2024-06-20T07:47:56.596Z,english_887.wav,0,0,765,23,4,chinese,f,0,0,-3.44900861,0.51239927
QXL_1546,11,0,2024-06-20T07:47:56.596Z,english_887.wav,0,0,765,23,4,chinese,f,1,0.1,-17.8432189,1.03264561
QXL_1546,11,0,2024-06-20T07:47:56.596Z,english_887.wav,0,0,765,23,4,chinese,f,2,0.2,-6.85827808,0.34600943
QXL_1546,11,0,2024-06-20T07:47:56.596Z,english_887.wav,0,0,765,23,4,chinese,f,3,0.3,45.65439731,0.47649702
QXL_1546,11,0,2024-06-20T07:47:56.596Z,english_887.wav,0,0,765,23,4,chinese,f,4,0.4,-45.51901732,1.73458193
QXL_1546,11,0,2024-06-20T07:47:56.596Z,english_887.wav,0,0,765,23,4,chinese,f,5,0.5,-48.46749348,0.81561736
QXL_1546,11,0,2024-06-20T07:47:56.596Z,english_887.wav,0,0,765,23,4,chinese,f,6,0.6,61.02871352,1.13461249
QXL_1546,11,0,2024-06-20T07:47:56.596Z,english_887.wav,0,0,765,23,4,chinese,f,7,0.7,88.88451803,0.39624217
QXL_1546,11,0,2024-06-20T07:47:56.596Z,english_887.wav,0,0,765,23,4,chinese,f,8,0.8,-62.50472578,0.97607282
QXL_1546,11,0,2024-06-20T07:47:56.596Z,english_887.wav,0,0,765,23,4,chinese,f,9,0.9,-72.54245457,0.43830143
QXL_1546,11,0,2024-06-20T07:47:56.596Z,english_887.wav,0,0,765,23,4,chinese,f,10,1,69.58025846,1.14588811
QXL_1546,11,0,2024-06-20T07:47:56.596Z,english_887.wav,0,0,765,23,4,chinese,f,11,1.09391667,-27.66978609,0.14331088
QXL_1546,12,0,2024-06-20T07:47:56.596Z,english_379.wav,0,0,1884,23,4,chinese,f,0,0,49.53215273,0.78528704
QXL_1546,12,0,2024-06-20T07:47:56.596Z,english_379.wav,0,0,1884,23,4,chinese,f,1,0.1,9.27522888,1.81748923
QXL_1546,12,0,2024-06-20T07:47:56.596Z,english_379.wav,0,0,1884,23,4,chinese,f,2,0.2,37.03122757,0.92030015
QXL_1546,12,0,2024-06-20T07:47:56.596Z,english_379.wav,0,0,1884,23,4,chinese,f,3,0.3,99.63155139,1.45290857
QXL_1546,12,0,2024-06-20T07:47:56.596Z,english_379.wav,0,0,1884,23,4,chinese,f,4,0.4,33.35011574,1.06621496
QXL_1546,12,0,2024-06-20T07:47:56.596Z,english_379.wav,0,0,1884,23,4,chinese,f,5,0.5,-7.70874078,1.14308429
QXL_1546,12,0,2024-06-20T07:47:56.596Z,english_379.wav,0,0,1884,23,4,chinese,f,6,0.6,46.33326353,0.43706451
QXL_1546,12,0,2024-06-20T07:47:56.596Z,english_379.wav,0,0,1884,23,4,chinese,f,7,0.7,41.12969148,0.56663738
QXL_1546,12,0,2024-06-20T07:47:56.596Z,english_379.wav,0,0,1884,23,4,chinese,f,8,0.8,-55.78540597,1.37256697
QXL_1546,12,0,2024-06-20T07:47:56.596Z,english_379.wav,0,0,1884,23,4,chinese,f,9,0.9,-84.4527127,0.4510475
QXL_1546,12,0,2024-06-20T07:47:56.596Z,english_379.wav,0,0,1884,23,4,chinese,f,10,1,13.84600332,1.31801048
QXL_1546,12,0,2024-06-20T07:47:56.596Z,english_379.wav,0,0,1884,23,4,chinese,f,11,1.09391667,82.55643163,0.64535043
QXL_1546,13,0,2024-06-20T07:47:56.596Z,english_404.wav,0,1,1007,23,4,chinese,f,0,0,51.0629149,0.92872816
QXL_1546,13,0,2024-06-20T07:47:56.596Z,english_404.wav,0,1,1007,23,4,chinese,f,1,0.1,-20.11660717,1.09197178
QXL_1546,13,0,2024-06-20T07:47:56.596Z,english_404.wav,0,1,1007,23,4,chinese,f,2,0.2,-24.08850376,1.28516423
QXL_1546,13,0,2024-06-20T07:47:56.596Z,english_404.wav,0,1,1007,23,4,chinese,f,3,0.3,-31.42467522,0.67196706
QXL_1546,13,0,2024-06-20T07:47:56.596Z,english_404.wav,0,1,1007,23,4,chinese,f,4,0.4,53.01415625,0.26298551
QXL_1546,13,0,2024-06-20T07:47:56.596Z,english_404.wav,0,1,1007,23,4,chinese,f,5,0.5,-45.18749729,0.832552
QXL_1546,13,0,2024-06-20T07:47:56.596Z,english_404.wav,0,1,1007,23,4,chinese,f,6,0.6,75.22262363,0.94238773
QXL_1546,13,0,2024-06-20T07:47:56.596Z,english_404.wav,0,1,1007,23,4,chinese,f,7,0.7,53.71694776,0.97166455
QXL_1546,13,0,2024-06-20T07:47:56.596Z,english_404.wav,0,1,1007,23,4,chinese,f,8,0.8,-31.94049291,0.24504
QXL_1546,13,0,2024-06-20T07:47:56.596Z,english_404.wav,0,1,1007,23,4,chinese,f,9,0.9,64.49384663,1.54934709
QXL_1546,13,0,2024-06-20T07:47:56.596Z,english_404.wav,0,1,1007,23,4,chinese,f,10,1,-87.57862232,0.71675997
QXL_1546,13,0,2024-06-20T07:47:56.596Z,english_404.wav,0,1,1007,23,4,chinese,f,11,1.09391667,-93.26487386,1.21108184
QXL_1546,14,0,2024-06-20T07:47:56.596Z,english_770.wav,0,0,1300,23,4,chinese,f,0,0,91.12421142,0.39537222
QXL_1546,14,0,2024-06-20T07:47:56.596Z,english_770.wav,0,0,1300,23,4,chinese,f,1,0.1,-19.58540638,0.64754321
QXL_1546,14,0,2024-06-20T07:47:56.596Z,english_770.wav,0,0,1300,23,4,chinese,f,2,0.2,-79.28932671,1.33811004
QXL_1546,14,0,2024-06-20T07:47:56.596Z,english_770.wav,0,0,1300,23,4,chinese,f,3,0.3,84.41656944,0.79999887
QXL_1546,14,0,2024-06-20T07:47:56.596Z,english_770.wav,0,0,1300,23,4,chinese,f,4,0.4,-7.14437585,0.34341238
QXL_1546,14,0,2024-06-20T07:47:56.596Z,english_770.wav,0,0,1300,23,4,chinese,f,5,0.5,-65.427815,0.89137249
QXL_1546,14,0,2024-06-20T07:47:56.596Z,english_770.wav,0,0,1300,23,4,chinese,f,6,0.6,24.29112002,1.67993341
QXL_1546,14,0,2024-06-20T07:47:56.596Z,english_770.wav,0,0,1300,23,4,chinese,f,7,0.7,-96.64014953,1.65600172
QXL_1546,14,0,2024-06-20T07:47:56.596Z,english_770.wav,0,0,1300,23,4,chinese,f,8,0.8,-19.88619379,0.2664894
QXL_1546,14,0,2024-06-20T07:47:56.596Z,english_770.wav,0,0,1300,23,4,chinese,f,9,0.9,6.75538061,1.80740877
QXL_1546,14,0,2024-06-20T07:47:56.596Z,english_770.wav,0,0,1300,23,4,chinese,f,10,1,-9.4599271,0.27817675
QXL_1546,14,0,2024-06-20T07:47:56.596Z,english_770.wav,0,0,1300,23,4,chinese,f,11,1.09391667,37.64052975,0.07045036
QXL_1546,15,0,2024-06-20T07:47:56.596Z,english_397.wav,0,1,769,23,4,chinese,f,0,0,-93.66149261,1.64508674
QXL_1546,15,0,2024-06-20T07:47:56.596Z,english_397.wav,0,1,769,23,4,chinese,f,1,0.1,10.02332444,1.71116478
QXL_1546,15,0,2024-06-20T07:47:56.596Z,english_397.wav,0,1,769,23,4,chinese,f,2,0.2,11.25111848,0.61520949
QXL_1546,15,0,2024-06-20T07:47:56.596Z,english_397.wav,0,1,769,23,4,chinese,f,3,0.3,-37.6827397,1.11182829
QXL_1546,15,0,2024-06-20T07:47:56.596Z,english_397.wav,0,1,769,23,4,chinese,f,4,0.4,25.48122538,1.39361431
QXL_1546,15,0,2024-06-20T07:47:56.596Z,english_397.wav,0,1,769,23,4,chinese,f,5,0.5,26.75513861,1.84991074
QXL_1546,15,0,2024-06-20T07:47:56.596Z,english_397.wav,0,1,769,23,4,chinese,f,6,0.6,-43.88017582,0.85920693
QXL_1546,15,0,2024-06-20T07:47:56.596Z,english_397.wav,0,1,769,23,4,chinese,f,7,0.7,-42.20538159,1.85774447
QXL_1546,15,0,2024-06-20T07:47:56.596Z,english_397.wav,0,1,769,23,4,chinese,f,8,0.8,82.41630332,1.4570352
QXL_1546,15,0,2024-06-20T07:47:56.596Z,english_397.wav,0,1,769,23,4,chinese,f,9,0.9,57.33831385,0.98799717
QXL_1546,15,0,2024-06-20T07:47:56.596Z,english_397.wav,0,1,769,23,4,chinese,f,10,1,-42.56353988,0.5544136
QXL_1546,15,0,2024-06-20T07:47:56.596Z,english_397.wav,0,1,769,23,4,chinese,f,11,1.09391667,68.91357319,0.776674
QXL_1546,16,0,2024-06-20T07:47:56.596Z,english_670.wav,0,0,1340,23,4,chinese,f,0,0,61.47755319,1.45530198
QXL_1546,16,0,2024-06-20T07:47:56.596Z,english_670.wav,0,0,1340,23,4,chinese,f,1,0.1,79.47502579,1.32139426
QXL_1546,16,0,2024-06-20T07:47:56.596Z,english_670.wav,0,0,1340,23,4,chinese,f,2,0.2,73.60091474,0.78813228
QXL_1546,16,0,2024-06-20T07:47:56.596Z,english_670.wav,0,0,1340,23,4,chinese,f,3,0.3,58.1460863,0.55211546
QXL_1546,16,0,2024-06-20T07:47:56.596Z,english_670.wav,0,0,1340,23,4,chinese,f,4,0.4,97.58712211,0.66504483
QXL_1546,16,0,2024-06-20T07:47:56.596Z,english_670.wav,0,0,1340,23,4,chinese,f,5,0.5,-25.3557345,0.1283282
QXL_1546,16,0,2024-06-20T07:47:56.596Z,english_670.wav,0,0,1340,23,4,chinese,f,6,0.6,-0.56542957,1.41482601
QXL_1546,16,0,2024-06-20T07:47:56.596Z,english_670.wav,0,0,1340,23,4,chinese,f,7,0.7,31.42903677,1.61871195
QXL_1546,16,0,2024-06-20T07:47:56.596Z,english_670.wav,0,0,1340,23,4,chinese,f,8,0.8,42.53271581,1.01398737
QXL_1546,16,0,2024-06-20T07:47:56.596Z,english_670.wav,0,0,1340,23,4,chinese,f,9,0.9,77.28375596,0.52342725
QXL_1546,16,0,2024-06-20T07:47:56.596Z,english_670.wav,0,0,1340,23,4,chinese,f,10,1,-30.44711444,1.03483045
QXL_1546,16,0,2024-06-20T07:47:56.596Z,english_670.wav,0,0,1340,23,4,chinese,f,11,1.09391667,19.3107075,0.15284579
QXL_1546,17,0,2024-06-20T07:47:56.596Z,english_205.wav,0,1,1363,23,4,chinese,f,0,0,56.82976783,1.96536411
QXL_1546,17,0,2024-06-20T07:47:56.596Z,english_205.wav,0,1,1363,23,4,chinese,f,1,0.1,-4.18818005,1.65463192
QXL_1546,17,0,2024-06-20T07:47:56.596Z,english_205.wav,0,1,1363,23,4,chinese,f,2,0.2,38.88249383,1.20705079
QXL_1546,17,0,2024-06-20T07:47:56.596Z,english_205.wav,0,1,1363,23,4,chinese,f,3,0.3,-62.55482064,1.01845998
QXL_1546,17,0,2024-06-20T07:47:56.596Z,english_205.wav,0,1,1363,23,4,chinese,f,4,0.4,-71.1999088,1.21355865
QXL_1546,17,0,2024-06-20T07:47:56.596Z,english_205.wav,0,1,1363,23,4,chinese,f,5,0.5,76.75946394,1.24989356
QXL_1546,17,0,2024-06-20T07:47:56.596Z,english_205.wav,0,1,1363,23,4,chinese,f,6,0.6,-88.17613487,0.92766979
QXL_1546,17,0,2024-06-20T07:47:56.596Z,english_205.wav,0,1,1363,23,4,chinese,f,7,0.7,-47.95022574,0.92420432
QXL_1546,17,0,2024-06-20T07:47:56.596Z,english_205.wav,0,1,1363,23,4,chinese,f,8,0.8,36.49012842,0.521979
QXL_1546,17,0,2024-06-20T07:47:56.596Z,english_205.wav,0,1,1363,23,4,chinese,f,9,0.9,58.14148902,1.99842272
QXL_1546,17,0,2024-06-20T07:47:56.596Z,english_205.wav,0,1,1363,23,4,chinese,f,10,1,-54.42029586,0.40180649
QXL_1546,17,0,2024-06-20T07:47:56.596Z,english_205.wav,0,1,1363,23,4,chinese,f,11,1.09391667,23.46713727,0.98322277
QXL_1546,18,0,2024-06-20T07:47:56.596Z,english_108.wav,0,1,3741,23,4,chinese,f,0,0,-72.12984017,0.26945128
QXL_1546,18,0,2024-06-20T07:47:56.596Z,english_108.wav,0,1,3741,23,4,chinese,f,1,0.1,8.19812644,1.01925784
QXL_1546,18,0,2024-06-20T07:47:56.596Z,english_108.wav,0,1,3741,23,4,chinese,f,2,0.2,78.6546888,1.32918217
QXL_1546,18,0,2024-06-20T07:47:56.596Z,english_108.wav,0,1,3741,23,4,chinese,f,3,0.3,-30.04278384,0.63536527
QXL_1546,18,0,2024-06-20T07:47:56.596Z,english_108.wav,0,1,3741,23,4,chinese,f,4,0.4,-12.36369755,1.19436668
QXL_1546,18,0,2024-06-20T07:47:56.596Z,english_108.wav,0,1,3741,23,4,chinese,f,5,0.5,70.67382026,0.3289366
QXL_1546,18,0,2024-06-20T07:47:56.596Z,english_108.wav,0,1,3741,23,4,chinese,f,6,0.6,-56.34929952,1.40732185
QXL_1546,18,0,2024-06-20T07:47:56.596Z,english_108.wav,0,1,3741,23,4,chinese,f,7,0.7,-58.84895788,0.91014899
QXL_1546,18,0,2024-06-20T07:47:56.596Z,english_108.wav,0,1,3741,23,4,chinese,f,8,0.8,-57.8473435,0.89824174
QXL_1546,18,0,2024-06-20T07:47:56.596Z,english_108.wav,0,1,3741,23,4,chinese,f,9,0.9,74.00200547,0.75928312
QXL_1546,18,0,2024-06-20T07:47:56.596Z,english_108.wav,0,1,3741,23,4,chinese,f,10,1,14.31080133,1.3591553
QXL_1546,18,0,2024-06-20T07:47:56.596Z,english_108.wav,0,1,3741,23,4,chinese,f,11,1.09391667,52.36561827,1.12113776
QXL_1546,19,0,2024-06-20T07:47:56.596Z,english_499.wav,0,0,649,23,4,chinese,f,0,0,-7.75302897,0.29368166
QXL_1546,19,0,2024-06-20T07:47:56.596Z,english_499.wav,0,0,649,23,4,chinese,f,1,0.1,23.88086762,1.58141682
QXL_1546,19,0,2024-06-20T07:47:56.596Z,english_499.wav,0,0,649,23,4,chinese,f,2,0.2,-0.54854112,0.68322719
QXL_1546,19,0,2024-06-20T07:47:56.596Z,english_499.wav,0,0,649,23,4,chinese,f,3,0.3,11.38417001,1.0607803
QXL_1546,19,0,2024-06-20T07:47:56.596Z,english_499.wav,0,0,649,23,4,chinese,f,4,0.4,76.48373601,0.5459371
QXL_1546,19,0,2024-06-20T07:47:56.596Z,english_499.wav,0,0,649,23,4,chinese,f,5,0.5,34.68075028,1.82829661
QXL_1546,19,0,2024-06-20T07:47:56.596Z,english_499.wav,0,0,649,23,4,chinese,f,6,0.6,-14.34298834,1.23009433
QXL_1546,19,0,2024-06-20T07:47:56.596Z,english_499.wav,0,0,649,23,4,chinese,f,7,0.7,26.82043511,1.38131853
QXL_1546,19,0,2024-06-20T07:47:56.596Z,english_499.wav,0,0,649,23,4,chinese,f,8,0.8,60.32593039,0.45099226
QXL_1546,19,0,2024-06-20T07:47:56.596Z,english_499.wav,0,0,649,23,4,chinese,f,9,0.9,-38.40765739,1.79672484
QXL_1546,19,0,2024-06-20T07:47:56.596Z,english_499.wav,0,0,649,23,4,chinese,f,10,1,7.55243951,0.11050545
QXL_1546,19,0,2024-06-20T07:47:56.596Z,english_499.wav,0,0,649,23,4,chinese,f,11,1.09391667,-96.29085545,0.98124995
QXL_1546,20,0,2024-06-20T07:47:56.596Z,english_618.wav,0,1,462,23,4,chinese,f,0,0,-79.9488622,1.91362605
QXL_1546,20,0,2024-06-20T07:47:56.596Z,english_618.wav,0,1,462,23,4,chinese,f,1,0.1,0.24132163,0.6330552
QXL_1546,20,0,2024-06-20T07:47:56.596Z,english_618.wav,0,1,462,23,4,chinese,f,2,0.2,-56.62295111,0.97728614
QXL_1546,20,0,2024-06-20T07:47:56.596Z,english_618.wav,0,1,462,23,4,chinese,f,3,0.3,-72.03937353,0.96298019
QXL_1546,20,0,2024-06-20T07:47:56.596Z,english_618.wav,0,1,462,23,4,chinese,f,4,0.4,-44.72303747,1.81673931
QXL_1546,20,0,2024-06-20T07:47:56.596Z,english_618.wav,0,1,462,23,4,chinese,f,5,0.5,-96.08672425,0.35989287
QXL_1546,20,0,2024-06-20T07:47:56.596Z,english_618.wav,0,1,462,23,4,chinese,f,6,0.6,63.06881346,1.43341205
QXL_1546,20,0,2024-06-20T07:47:56.596Z,english_618.wav,0,1,462,23,4,chinese,f,7,0.7,7.33604436,1.78848637
QXL_1546,20,0,2024-06-20T07:47:56.596Z,english_618.wav,0,1,462,23,4,chinese,f,8,0.8,76.47736911,1.05646412
QXL_1546,20,0,2024-06-20T07:47:56.596Z,english_618.wav,0,1,462,23,4,chinese,f,9,0.9,-52.54898443,0.998868
QXL_1546,20,0,2024-06-20T07:47:56.596Z,english_618.wav,0,1,462,23,4,chinese,f,10,1,33.73192618,1.38011588
QXL_1546,20,0,2024-06-20T07:47:56.596Z,english_618.wav,0,1,462,23,4,chinese,f,11,1.09391667,31.05572927,1.5899218
QXL_1546,21,0,2024-06-20T07:47:56.596Z,english_81.wav,0,1,1229,23,4,chinese,f,0,0,71.09666265,1.09569192
QXL_1546,21,0,2024-06-20T07:47:56.596Z,english_81.wav,0,1,1229,23,4,chinese,f,1,0.1,-38.93956525,1.65684188
QXL_1546,21,0,2024-06-20T07:47:56.596Z,english_81.wav,0,1,1229,23,4,chinese,f,2,0.2,-48.61950395,0.44216952
QXL_1546,21,0,2024-06-20T07:47:56.596Z,english_81.wav,0,1,1229,23,4,chinese,f,3,0.3,33.39514041,1.72758961
QXL_1546,21,0,2024-06-20T07:47:56.596Z,english_81.wav,0,1,1229,23,4,chinese,f,4,0.4,18.24180048,1.46257927
QXL_1546,21,0,2024-06-20T07:47:56.596Z,english_81.wav,0,1,1229,23,4,chinese,f,5,0.5,-45.85953695,1.53730542
QXL_1546,21,0,2024-06-20T07:47:56.596Z,english_81.wav,0,1,1229,23,4,chinese,f,6,0.6,-0.32699599,1.28818555
QXL_1546,21,0,2024-06-20T07:47:56.596Z,english_81.wav,0,1,1229,23,4,chinese,f,7,0.7,-32.78716597,1.19414744
QXL_1546,21,0,2024-06-20T07:47:56.596Z,english_81.wav,0,1,1229,23,4,chinese,f,8,0.8,-37.9267269,1.01923165
QXL_1546,21,0,2024-06-20T07:47:56.596Z,english_81.wav,0,1,1229,23,4,chinese,f,9,0.9,24.21331247,1.67441048
QXL_1546,21,0,2024-06-20T07:47:56.596Z,english_81.wav,0,1,1229,23,4,chinese,f,10,1,-31.33871225,1.88948336
QXL_1546,21,0,2024-06-20T07:47:56.596Z,english_81.wav,0,1,1229,23,4,chinese,f,11,1.09391667,-77.74283174,1.81428343
QXL_1546,22,0,2024-06-20T07:47:56.596Z,english_869.wav,0,1,644,23,4,chinese,f,0,0,-20.7946379,1.94834657
QXL_1546,22,0,2024-06-20T07:47:56.596Z,english_869.wav,0,1,644,23,4,chinese,f,1,0.1,-22.88594334,1.67021182
QXL_1546,22,0,2024-06-20T07:47:56.596Z,english_869.wav,0,1,644,23,4,chinese,f,2,0.2,-44.01188064,1.50520546
QXL_1546,22,0,2024-06-20T07:47:56.596Z,english_869.wav,0,1,644,23,4,chinese,f,3,0.3,58.96228493,0.98955103
QXL_1546,22,0,2024-06-20T07:47:56.596Z,english_869.wav,0,1,644,23,4,chinese,f,4,0.4,0.25554563,0.43254465
QXL_1546,22,0,2024-06-20T07:47:56.596Z,english_869.wav,0,1,644,23,4,chinese,f,5,0.5,-14.29276016,1.32326318
QXL_1546,22,0,2024-06-20T07:47:56.596Z,english_869.wav,0,1,644,23,4,chinese,f,6,0.6,40.28852475,0.34817039
QXL_1546,22,0,2024-06-20T07:47:56.596Z,english_869.wav,0,1,644,23,4,chinese,f,7,0.7,83.9110951,0.4259349
QXL_1546,22,0,2024-06-20T07:47:56.596Z,english_869.wav,0,1,644,23,4,chinese,f,8,0.8,-58.08971542,0.20780663
QXL_1546,22,0,2024-06-20T07:47:56.596Z,english_869.wav,0,1,644,23,4,chinese,f,9,0.9,-47.84735546,0.9384124
QXL_1546,22,0,2024-06-20T07:47:56.596Z,english_869.wav,0,1,644,23,4,chinese,f,10,1,18.70420486,1.5529846
QXL_1546,22,0,2024-06-20T07:47:56.596Z,english_869.wav,0,1,644,23,4,chinese,f,11,1.09391667,33.02688521,1.23929613
QXL_1546,23,0,2024-06-20T07:47:56.596Z,english_666.wav,0,0,399,23,4,chinese,f,0,0,10.55823455,0.52881458
QXL_1546,23,0,2024-06-20T07:47:56.596Z,english_666.wav,0,0,399,23,4,chinese,f,1,0.1,60.25625818,1.82589442
QXL_1546,23,0,2024-06-20T07:47:56.596Z,english_666.wav,0,0,399,23,4,chinese,f,2,0.2,40.6898343,1.01937084
QXL_1546,23,0,2024-06-20T07:47:56.596Z,english_666.wav,0,0,399,23,4,chinese,f,3,0.3,58.2306109,0.05437581
QXL_1546,23,0,2024-06-20T07:47:56.596Z,english_666.wav,0,0,399,23,4,chinese,f,4,0.4,4.0077953,1.33142654
QXL_1546,23,0,2024-06-20T07:47:56.596Z,english_666.wav,0,0,399,23,4,chinese,f,5,0.5,71.45661873,0.21266373
QXL_1546,23,0,2024-06-20T07:47:56.596Z,english_666.wav,0,0,399,23,4,chinese,f,6,0.6,18.87796303,0.67439472
QXL_1546,23,0,2024-06-20T07:47:56.596Z,english_666.wav,0,0,399,23,4,chinese,f,7,0.7,-29.5527486,1.59641085
QXL_1546,23,0,2024-06-20T07:47:56.596Z,english_666.wav,0,0,399,23,4,chinese,f,8,0.8,31.6397638,0.05005126
QXL_1546,23,0,2024-06-20T07:47:56.596Z,english_666.wav,0,0,399,23,4,chinese,f,9,0.9,-90.13061067,0.93178906
QXL_1546,23,0,2024-06-20T07:47:56.596Z,english_666.wav,0,0,399,23,4,chinese,f,10,1,53.29328049,1.49567277
QXL_1546,23,0,2024-06-20T07:47:56.596Z,english_666.wav,0,0,399,23,4,chinese,f,11,1.09391667,-53.47399996,1.5853139
QXL_1546,24,0,2024-06-20T07:47:56.596Z,english_754.wav,0,0,476,23,4,chinese,f,0,0,-64.18066608,1.31756219
QXL_1546,24,0,2024-06-20T07:47:56.596Z,english_754.wav,0,0,476,23,4,chinese,f,1,0.1,-98.7453181,0.6775935
QXL_1546,24,0,2024-06-20T07:47:56.596Z,english_754.wav,0,0,476,23,4,chinese,f,2,0.2,-52.29987626,0.44453287
QXL_1546,24,0,2024-06-20T07:47:56.596Z,english_754.wav,0,0,476,23,4,chinese,f,3,0.3,-91.6870734,0.79930959
QXL_1546,24,0,2024-06-20T07:47:56.596Z,english_754.wav,0,0,476,23,4,chinese,f,4,0.4,-99.93480519,0.36385227
QXL_1546,24,0,2024-06-20T07:47:56.596Z,english_754.wav,0,0,476,23,4,chinese,f,5,0.5,-2.56117899,1.60724529
QXL_1546,24,0,2024-06-20T07:47:56.596Z,english_754.wav,0,0,476,23,4,chinese,f,6,0.6,-58.25705586,1.54119087
QXL_1546,24,0,2024-06-20T07:47:56.596Z,english_754.wav,0,0,476,23,4,chinese,f,7,0.7,-50.59283721,0.4128908
QXL_1546,24,0,2024-06-20T07:47:56.596Z,english_754.wav,0,0,476,23,4,chinese,f,8,0.8,-3.4865488,0.89168042
QXL_1546,24,0,2024-06-20T07:47:56.596Z,english_754.wav,0,0,476,23,4,chinese,f,9,0.9,11.81028617,0.16017021
QXL_1546,24,0,2024-06-20T07:47:56.596Z,english_754.wav,0,0,476,23,4,chinese,f,10,1,27.46545009,1.03192762
QXL_1546,24,0,2024-06-20T07:47:56.596Z,english_754.wav,0,0,476,23,4,chinese,f,11,1.09391667,8.3161915,0.24632806
QXL_1546,25,0,2024-06-20T07:47:56.596Z,english_204.wav,0,0,769,23,4,chinese,f,0,0,-54.18548322,0.4935822
QXL_1546,25,0,2024-06-20T07:47:56.596Z,english_204.wav,0,0,769,23,4,chinese,f,1,0.1,-11.27218157,1.37686427
QXL_1546,25,0,2024-06-20T07:47:56.596Z,english_204.wav,0,0,769,23,4,chinese,f,2,0.2,57.70913134,1.17627269
QXL_1546,25,0,2024-06-20T07:47:56.596Z,english_204.wav,0,0,769,23,4,chinese,f,3,0.3,-85.27797026,1.14645494
QXL_1546,25,0,2024-06-20T07:47:56.596Z,english_204.wav,0,0,769,23,4,chinese,f,4,0.4,28.61054009,1.61303053
QXL_1546,25,0,2024-06-20T07:47:56.596Z,english_204.wav,0,0,769,23,4,chinese,f,5,0.5,-36.71816677,0.72559221
QXL_1546,25,0,2024-06-20T07:47:56.596Z,english_204.wav,0,0,769,23,4,chinese,f,6,0.6,-27.72446487,1.95000364
QXL_1546,25,0,2024-06-20T07:47:56.596Z,english_204.wav,0,0,769,23,4,chinese,f,7,0.7,14.69142801,0.06695508
QXL_1546,25,0,2024-06-20T07:47:56.596Z,english_204.wav,0,0,769,23,4,chinese,f,8,0.8,9.61746044,1.52094915
QXL_1546,25,0,2024-06-20T07:47:56.596Z,english_204.wav,0,0,769,23,4,chinese,f,9,0.9,22.67127582,0.41034945
QXL_1546,25,0,2024-06-20T07:47:56.596Z,english_204.wav,0,0,769,23,4,chinese,f,10,1,69.36328148,0.4470276
QXL_1546,25,0,2024-06-20T07:47:56.596Z,english_204.wav,0,0,769,23,4,chinese,f,11,1.09391667,-44.4283226,1.93225144
QXL_1546,26,0,2024-06-20T07:47:56.596Z,english_712.wav,0,1,384,23,4,chinese,f,0,0,-23.1463857,0.37379236
QXL_1546,26,0,2024-06-20T07:47:56.596Z,english_712.wav,0,1,384,23,4,chinese,f,1,0.1,24.6800968,1.67699004
QXL_1546,26,0,2024-06-20T07:47:56.596Z,english_712.wav,0,1,384,23,4,chinese,f,2,0.2,0.0161964332,1.79701075
QXL_1546,26,0,2024-06-20T07:47:56.596Z,english_712.wav,0,1,384,23,4,chinese,f,3,0.3,-17.6606804,0.97598087
QXL_1546,26,0,2024-06-20T07:47:56.596Z,english_712.wav,0,1,384,23,4,chinese,f,4,0.4,0.366433398,0.364202
QXL_1546,26,0,2024-06-20T07:47:56.596Z,english_712.wav,0,1,384,23,4,chinese,f,5,0.5,92.1731967,1.74943947
QXL_1546,26,0,2024-06-20T07:47:56.596Z,english_712.wav,0,1,384,23,4,chinese,f,6,0.6,37.7445609,0.51022449
QXL_1546,26,0,2024-06-20T07:47:56.596Z,english_712.wav,0,1,384,23,4,chinese,f,7,0.7,36.1997785,1.89888437
QXL_1546,26,0,2024-06-20T07:47:56.596Z,english_712.wav,0,1,384,23,4,chinese,f,8,0.8,68.1982864,1.17858578
QXL_1546,26,0,2024-06-20T07:47:56.596Z,english_712.wav,0,1,384,23,4,chinese,f,9,0.9,89.0317309,0.87832213
QXL_1546,26,0,2024-06-20T07:47:56.596Z,english_712.wav,0,1,384,23,4,chinese,f,10,1,-18.2298461,1.72214889
QXL_1546,26,0,2024-06-20T07:47:56.596Z,english_712.wav,0,1,384,23,4,chinese,f,11,1.09391667,4.18738238,0.60066774
QXL_1546,27,0,2024-06-20T07:47:56.596Z,english_230.wav,0,1,641,23,4,chinese,f,0,0,33.38389537,1.56748289
QXL_1546,27,0,2024-06-20T07:47:56.596Z,english_230.wav,0,1,641,23,4,chinese,f,1,0.1,-34.15374901,0.35840318
QXL_1546,27,0,2024-06-20T07:47:56.596Z,english_230.wav,0,1,641,23,4,chinese,f,2,0.2,-17.15972141,0.69573927
QXL_1546,27,0,2024-06-20T07:47:56.596Z,english_230.wav,0,1,641,23,4,chinese,f,3,0.3,-8.06213265,1.48062695
QXL_1546,27,0,2024-06-20T07:47:56.596Z,english_230.wav,0,1,641,23,4,chinese,f,4,0.4,10.20192226,1.80584749
QXL_1546,27,0,2024-06-20T07:47:56.596Z,english_230.wav,0,1,641,23,4,chinese,f,5,0.5,-58.60843687,0.27713833
QXL_1546,27,0,2024-06-20T07:47:56.596Z,english_230.wav,0,1,641,23,4,chinese,f,6,0.6,79.76687213,0.54911174
QXL_1546,27,0,2024-06-20T07:47:56.596Z,english_230.wav,0,1,641,23,4,chinese,f,7,0.7,-68.85443864,0.47648858
QXL_1546,27,0,2024-06-20T07:47:56.596Z,english_230.wav,0,1,641,23,4,chinese,f,8,0.8,-14.23970475,1.61704234
QXL_1546,27,0,2024-06-20T07:47:56.596Z,english_230.wav,0,1,641,23,4,chinese,f,9,0.9,-88.80466565,1.41921333
QXL_1546,27,0,2024-06-20T07:47:56.596Z,english_230.wav,0,1,641,23,4,chinese,f,10,1,-64.76676699,0.47778277
QXL_1546,27,0,2024-06-20T07:47:56.596Z,english_230.wav,0,1,641,23,4,chinese,f,11,1.09391667,-85.72124736,0.86213517
QXL_1546,28,0,2024-06-20T07:47:56.596Z,english_312.wav,0,1,852,23,4,chinese,f,0,0,-44.20026349,0.70172327
QXL_1546,28,0,2024-06-20T07:47:56.596Z,english_312.wav,0,1,852,23,4,chinese,f,1,0.1,37.14552062,1.15664492
QXL_1546,28,0,2024-06-20T07:47:56.596Z,english_312.wav,0,1,852,23,4,chinese,f,2,0.2,18.3582365,0.90621855
QXL_1546,28,0,2024-06-20T07:47:56.596Z,english_312.wav,0,1,852,23,4,chinese,f,3,0.3,77.7774411,1.08976836
QXL_1546,28,0,2024-06-20T07:47:56.596Z,english_312.wav,0,1,852,23,4,chinese,f,4,0.4,-78.31932482,1.02467386
QXL_1546,28,0,2024-06-20T07:47:56.596Z,english_312.wav,0,1,852,23,4,chinese,f,5,0.5,-58.95150344,0.3820111
QXL_1546,28,0,2024-06-20T07:47:56.596Z,english_312.wav,0,1,852,23,4,chinese,f,6,0.6,89.34504931,1.09647863
QXL_1546,28,0,2024-06-20T07:47:56.596Z,english_312.wav,0,1,852,23,4,chinese,f,7,0.7,88.15541314,1.49721146
QXL_1546,28,0,2024-06-20T07:47:56.596Z,english_312.wav,0,1,852,23,4,chinese,f,8,0.8,-8.94977512,1.78917626
QXL_1546,28,0,2024-06-20T07:47:56.596Z,english_312.wav,0,1,852,23,4,chinese,f,9,0.9,-51.17539316,0.56099976
QXL_1546,28,0,2024-06-20T07:47:56.596Z,english_312.wav,0,1,852,23,4,chinese,f,10,1,-56.97812864,1.16855683
QXL_1546,28,0,2024-06-20T07:47:56.596Z,english_312.wav,0,1,852,23,4,chinese,f,11,1.09391667,78.26932654,0.99548906
QXL_1546,29,0,2024-06-20T07:47:56.596Z,english_508.wav,0,1,1017,23,4,chinese,f,0,0,29.95487344,1.28947786
QXL_1546,29,0,2024-06-20T07:47:56.596Z,english_508.wav,0,1,1017,23,4,chinese,f,1,0.1,-43.56994085,0.45872669
QXL_1546,29,0,2024-06-20T07:47:56.596Z,english_508.wav,0,1,1017,23,4,chinese,f,2,0.2,95.99440846,1.02864136
QXL_1546,29,0,2024-06-20T07:47:56.596Z,english_508.wav,0,1,1017,23,4,chinese,f,3,0.3,96.63128694,1.38697031
QXL_1546,29,0,2024-06-20T07:47:56.596Z,english_508.wav,0,1,1017,23,4,chinese,f,4,0.4,81.88240965,0.48619633
QXL_1546,29,0,2024-06-20T07:47:56.596Z,english_508.wav,0,1,1017,23,4,chinese,f,5,0.5,-30.32405698,1.35316712
QXL_1546,29,0,2024-06-20T07:47:56.596Z,english_508.wav,0,1,1017,23,4,chinese,f,6,0.6,-70.6760635,0.61818132
QXL_1546,29,0,2024-06-20T07:47:56.596Z,english_508.wav,0,1,1017,23,4,chinese,f,7,0.7,-36.19238407,0.31535759
QXL_1546,29,0,2024-06-20T07:47:56.596Z,english_508.wav,0,1,1017,23,4,chinese,f,8,0.8,18.2315003,1.60240226
QXL_1546,29,0,2024-06-20T07:47:56.596Z,english_508.wav,0,1,1017,23,4,chinese,f,9,0.9,-71.56865734,1.17638413
QXL_1546,29,0,2024-06-20T07:47:56.596Z,english_508.wav,0,1,1017,23,4,chinese,f,10,1,-72.78274833,0.8457368
QXL_1546,29,0,2024-06-20T07:47:56.596Z,english_508.wav,0,1,1017,23,4,chinese,f,11,1.09391667,51.72471755,0.31851434
QXL_1546,30,0,2024-06-20T07:47:56.596Z,english_534.wav,0,1,476,23,4,chinese,f,0,0,-15.08523103,1.2576493
QXL_1546,30,0,2024-06-20T07:47:56.596Z,english_534.wav,0,1,476,23,4,chinese,f,1,0.1,93.48585898,1.2446308
QXL_1546,30,0,2024-06-20T07:47:56.596Z,english_534.wav,0,1,476,23,4,chinese,f,2,0.2,55.87888333,0.65171732
QXL_1546,30,0,2024-06-20T07:47:56.596Z,english_534.wav,0,1,476,23,4,chinese,f,3,0.3,-36.19470402,0.89712992
QXL_1546,30,0,2024-06-20T07:47:56.596Z,english_534.wav,0,1,476,23,4,chinese,f,4,0.4,-10.66505227,0.55440887
QXL_1546,30,0,2024-06-20T07:47:56.596Z,english_534.wav,0,1,476,23,4,chinese,f,5,0.5,-17.59721476,1.08297088
QXL_1546,30,0,2024-06-20T07:47:56.596Z,english_534.wav,0,1,476,23,4,chinese,f,6,0.6,0.24135603,0.95799779
QXL_1546,30,0,2024-06-20T07:47:56.596Z,english_534.wav,0,1,476,23,4,chinese,f,7,0.7,10.84337222,1.14434093
QXL_1546,30,0,2024-06-20T07:47:56.596Z,english_534.wav,0,1,476,23,4,chinese,f,8,0.8,-58.25689659,1.1844466
QXL_1546,30,0,2024-06-20T07:47:56.596Z,english_534.wav,0,1,476,23,4,chinese,f,9,0.9,99.17008703,1.42626651
QXL_1546,30,0,2024-06-20T07:47:56.596Z,english_534.wav,0,1,476,23,4,chinese,f,10,1,-1.84311714,0.25468926
QXL_1546,30,0,2024-06-20T07:47:56.596Z,english_534.wav,0,1,476,23,4,chinese,f,11,1.09391667,-27.99556667,1.75255348
QXL_1546,31,0,2024-06-20T07:47:56.596Z,english_859.wav,0,1,1134,23,4,chinese,f,0,0,31.07114651,1.62014662
QXL_1546,31,0,2024-06-20T07:47:56.596Z,english_859.wav,0,1,1134,23,4,chinese,f,1,0.1,-28.29036268,0.23536516
QXL_1546,31,0,2024-06-20T07:47:56.596Z,english_859.wav,0,1,1134,23,4,chinese,f,2,0.2,-99.32977332,1.20919843
QXL_1546,31,0,2024-06-20T07:47:56.596Z,english_859.wav,0,1,1134,23,4,chinese,f,3,0.3,24.56403326,1.87022771
QXL_1546,31,0,2024-06-20T07:47:56.596Z,english_859.wav,0,1,1134,23,4,chinese,f,4,0.4,13.96924155,1.25340901
QXL_1546,31,0,2024-06-20T07:47:56.596Z,english_859.wav,0,1,1134,23,4,chinese,f,5,0.5,-7.10648456,1.24145487
QXL_1546,31,0,2024-06-20T07:47:56.596Z,english_859.wav,0,1,1134,23,4,chinese,f,6,0.6,16.2139947,0.16688969
QXL_1546,31,0,2024-06-20T07:47:56.596Z,english_859.wav,0,1,1134,23,4,chinese,f,7,0.7,-63.09488954,1.9877967
QXL_1546,31,0,2024-06-20T07:47:56.596Z,english_859.wav,0,1,1134,23,4,chinese,f,8,0.8,32.97149002,1.05528454
QXL_1546,31,0,2024-06-20T07:47:56.596Z,english_859.wav,0,1,1134,23,4,chinese,f,9,0.9,73.86440675,1.04254929
QXL_1546,31,0,2024-06-20T07:47:56.596Z,english_859.wav,0,1,1134,23,4,chinese,f,10,1,18.08685772,0.40355025
QXL_1546,31,0,2024-06-20T07:47:56.596Z,english_859.wav,0,1,1134,23,4,chinese,f,11,1.09391667,63.56526174,1.52495745
QXL_1546,32,0,2024-06-20T07:47:56.596Z,english_617.wav,0,1,984,23,4,chinese,f,0,0,10.93227953,0.72387338
QXL_1546,32,0,2024-06-20T07:47:56.596Z,english_617.wav,0,1,984,23,4,chinese,f,1,0.1,-59.2478864,1.78831672
QXL_1546,32,0,2024-06-20T07:47:56.596Z,english_617.wav,0,1,984,23,4,chinese,f,2,0.2,-60.98157443,0.6179467
QXL_1546,32,0,2024-06-20T07:47:56.596Z,english_617.wav,0,1,984,23,4,chinese,f,3,0.3,-98.20098641,0.63320585
QXL_1546,32,0,2024-06-20T07:47:56.596Z,english_617.wav,0,1,984,23,4,chinese,f,4,0.4,-27.56878422,0.42531965
QXL_1546,32,0,2024-06-20T07:47:56.596Z,english_617.wav,0,1,984,23,4,chinese,f,5,0.5,-16.62879698,1.05036122
QXL_1546,32,0,2024-06-20T07:47:56.596Z,english_617.wav,0,1,984,23,4,chinese,f,6,0.6,-85.18504197,1.22550457
QXL_1546,32,0,2024-06-20T07:47:56.596Z,english_617.wav,0,1,984,23,4,chinese,f,7,0.7,65.935133,0.87185678
QXL_1546,32,0,2024-06-20T07:47:56.596Z,english_617.wav,0,1,984,23,4,chinese,f,8,0.8,-49.35852621,1.19822477
QXL_1546,32,0,2024-06-20T07:47:56.596Z,english_617.wav,0,1,984,23,4,chinese,f,9,0.9,-79.82823856,0.11933649
QXL_1546,32,0,2024-06-20T07:47:56.596Z,english_617.wav,0,1,984,23,4,chinese,f,10,1,-43.72382152,1.37889257
QXL_1546,32,0,2024-06-20T07:47:56.596Z,english_617.wav,0,1,984,23,4,chinese,f,11,1.09391667,-81.76136352,0.25359551
QXL_1546,33,0,2024-06-20T07:47:56.596Z,english_630.wav,0,1,596,23,4,chinese,f,0,0,78.75492265,1.14018337
QXL_1546,33,0,2024-06-20T07:47:56.596Z,english_630.wav,0,1,596,23,4,chinese,f,1,0.1,-83.58930578,0.42247423
QXL_1546,33,0,2024-06-20T07:47:56.596Z,english_630.wav,0,1,596,23,4,chinese,f,2,0.2,-79.71821409,1.15399078
QXL_1546,33,0,2024-06-20T07:47:56.596Z,english_630.wav,0,1,596,23,4,chinese,f,3,0.3,-40.02519871,1.63118088
QXL_1546,33,0,2024-06-20T07:47:56.596Z,english_630.wav,0,1,596,23,4,chinese,f,4,0.4,28.39164799,0.60995737
QXL_1546,33,0,2024-06-20T07:47:56.596Z,english_630.wav,0,1,596,23,4,chinese,f,5,0.5,-22.91010751,1.14933658
QXL_1546,33,0,2024-06-20T07:47:56.596Z,english_630.wav,0,1,596,23,4,chinese,f,6,0.6,66.99878234,1.58053618
QXL_1546,33,0,2024-06-20T07:47:56.596Z,english_630.wav,0,1,596,23,4,chinese,f,7,0.7,-67.03907611,1.44408005
QXL_1546,33,0,2024-06-20T07:47:56.596Z,english_630.wav,0,1,596,23,4,chinese,f,8,0.8,-31.68288064,0.22921488
QXL_1546,33,0,2024-06-20T07:47:56.596Z,english_630.wav,0,1,596,23,4,chinese,f,9,0.9,-92.36791787,1.99244959
QXL_1546,33,0,2024-06-20T07:47:56.596Z,english_630.wav,0,1,596,23,4,chinese,f,10,1,-47.34450832,1.8016164
QXL_1546,33,0,2024-06-20T07:47:56.596Z,english_630.wav,0,1,596,23,4,chinese,f,11,1.09391667,-92.12755103,1.49248838
QXL_1546,34,0,2024-06-20T07:47:56.596Z,english_147.wav,0,0,1278,23,4,chinese,f,0,0,13.5835913,1.55424913
QXL_1546,34,0,2024-06-20T07:47:56.596Z,english_147.wav,0,0,1278,23,4,chinese,f,1,0.1,-12.78269311,1.36751472
QXL_1546,34,0,2024-06-20T07:47:56.596Z,english_147.wav,0,0,1278,23,4,chinese,f,2,0.2,-68.15160011,0.0989476
QXL_1546,34,0,2024-06-20T07:47:56.596Z,english_147.wav,0,0,1278,23,4,chinese,f,3,0.3,-22.06196162,1.09942606
QXL_1546,34,0,2024-06-20T07:47:56.596Z,english_147.wav,0,0,1278,23,4,chinese,f,4,0.4,-52.80599893,0.66767386
QXL_1546,34,0,2024-06-20T07:47:56.596Z,english_147.wav,0,0,1278,23,4,chinese,f,5,0.5,-19.06204323,1.22234283
QXL_1546,34,0,2024-06-20T07:47:56.596Z,english_147.wav,0,0,1278,23,4,chinese,f,6,0.6,99.53651939,1.18173491
QXL_1546,34,0,2024-06-20T07:47:56.596Z,english_147.wav,0,0,1278,23,4,chinese,f,7,0.7,-28.8369824,1.33756281
QXL_1546,34,0,2024-06-20T07:47:56.596Z,english_147.wav,0,0,1278,23,4,chinese,f,8,0.8,74.70483883,0.81214456
QXL_1546,34,0,2024-06-20T07:47:56.596Z,english_147.wav,0,0,1278,23,4,chinese,f,9,0.9,42.275031,0.37062199
QXL_1546,34,0,2024-06-20T07:47:56.596Z,english_147.wav,0,0,1278,23,4,chinese,f,10,1,-85.9360484,1.6700327
QXL_1546,34,0,2024-06-20T07:47:56.596Z,english_147.wav,0,0,1278,23,4,chinese,f,11,1.09391667,70.70596031,1.62026459
QXL_1546,35,0,2024-06-20T07:47:56.596Z,english_880.wav,0,0,684,23,4,chinese,f,0,0,-41.47628357,0.55394603
QXL_1546,35,0,2024-06-20T07:47:56.596Z,english_880.wav,0,0,684,23,4,chinese,f,1,0.1,65.54296858,0.9616183
QXL_1546,35,0,2024-06-20T07:47:56.596Z,english_880.wav,0,0,684,23,4,chinese,f,2,0.2,-39.31347774,0.19888821
QXL_1546,35,0,2024-06-20T07:47:56.596Z,english_880.wav,0,0,684,23,4,chinese,f,3,0.3,61.98950127,0.57394663
QXL_1546,35,0,2024-06-20T07:47:56.596Z,english_880.wav,0,0,684,23,4,chinese,f,4,0.4,-3.60095554,0.13686424
QXL_1546,35,0,2024-06-20T07:47:56.596Z,english_880.wav,0,0,684,23,4,chinese,f,5,0.5,-14.51452604,1.28705149
QXL_1546,35,0,2024-06-20T07:47:56.596Z,english_880.wav,0,0,684,23,4,chinese,f,6,0.6,37.32728479,1.1695459
QXL_1546,35,0,2024-06-20T07:47:56.596Z,english_880.wav,0,0,684,23,4,chinese,f,7,0.7,-80.65072298,0.87953448
QXL_1546,35,0,2024-06-20T07:47:56.596Z,english_880.wav,0,0,684,23,4,chinese,f,8,0.8,-45.95652934,1.16448852
QXL_1546,35,0,2024-06-20T07:47:56.596Z,english_880.wav,0,0,684,23,4,chinese,f,9,0.9,58.7720162,1.15057409
QXL_1546,35,0,2024-06-20T07:47:56.596Z,english_880.wav,0,0,684,23,4,chinese,f,10,1,-45.80137343,0.15999969
QXL_1546,35,0,2024-06-20T07:47:56.596Z,english_880.wav,0,0,684,23,4,chinese,f,11,1.09391667,-30.61117418,1.26319269
QXL_1546,36,0,2024-06-20T07:47:56.596Z,english_956.wav,0,1,1862,23,4,chinese,f,0,0,-69.56603744,1.25885793
QXL_1546,36,0,2024-06-20T07:47:56.596Z,english_956.wav,0,1,1862,23,4,chinese,f,1,0.1,-25.37186141,1.06466306
QXL_1546,36,0,2024-06-20T07:47:56.596Z,english_956.wav,0,1,1862,23,4,chinese,f,2,0.2,27.97650052,0.94194041
QXL_1546,36,0,2024-06-20T07:47:56.596Z,english_956.wav,0,1,1862,23,4,chinese,f,3,0.3,-27.59550019,1.53569938
QXL_1546,36,0,2024-06-20T07:47:56.596Z,english_956.wav,0,1,1862,23,4,chinese,f,4,0.4,-92.97950526,1.85243798
QXL_1546,36,0,2024-06-20T07:47:56.596Z,english_956.wav,0,1,1862,23,4,chinese,f,5,0.5,38.52785923,1.85210152
QXL_1546,36,0,2024-06-20T07:47:56.596Z,english_956.wav,0,1,1862,23,4,chinese,f,6,0.6,10.83790673,0.63562422
QXL_1546,36,0,2024-06-20T07:47:56.596Z,english_956.wav,0,1,1862,23,4,chinese,f,7,0.7,-7.44647917,1.69096149
QXL_1546,36,0,2024-06-20T07:47:56.596Z,english_956.wav,0,1,1862,23,4,chinese,f,8,0.8,21.12716208,0.44450575
QXL_1546,36,0,2024-06-20T07:47:56.596Z,english_956.wav,0,1,1862,23,4,chinese,f,9,0.9,68.89451613,0.92187191
QXL_1546,36,0,2024-06-20T07:47:56.596Z,english_956.wav,0,1,1862,23,4,chinese,f,10,1,40.53084536,1.63644611
QXL_1546,36,0,2024-06-20T07:47:56.596Z,english_956.wav,0,1,1862,23,4,chinese,f,11,1.09391667,63.98453991,0.57157091
QXL_1546,37,0,2024-06-20T07:47:56.596Z,english_381.wav,0,0,1145,23,4,chinese,f,0,0,32.46103548,1.94101049
QXL_1546,37,0,2024-06-20T07:47:56.596Z,english_381.wav,0,0,1145,23,4,chinese,f,1,0.1,-84.4488561,1.51363242
QXL_1546,37,0,2024-06-20T07:47:56.596Z,english_381.wav,0,0,1145,23,4,chinese,f,2,0.2,-42.33494044,0.19481462
QXL_1546,37,0,2024-06-20T07:47:56.596Z,english_381.wav,0,0,1145,23,4,chinese,f,3,0.3,26.92548459,1.5781166
QXL_1546,37,0,2024-06-20T07:47:56.596Z,english_381.wav,0,0,1145,23,4,chinese,f,4,0.4,89.55231206,0.89814833
QXL_1546,37,0,2024-06-20T07:47:56.596Z,english_381.wav,0,0,1145,23,4,chinese,f,5,0.5,44.65598435,1.1373774
QXL_1546,37,0,2024-06-20T07:47:56.596Z,english_381.wav,0,0,1145,23,4,chinese,f,6,0.6,-71.41154839,0.86888784
QXL_1546,37,0,2024-06-20T07:47:56.596Z,english_381.wav,0,0,1145,23,4,chinese,f,7,0.7,-16.0355166,0.73017184
QXL_1546,37,0,2024-06-20T07:47:56.596Z,english_381.wav,0,0,1145,23,4,chinese,f,8,0.8,-87.56719183,1.43125884
QXL_1546,37,0,2024-06-20T07:47:56.596Z,english_381.wav,0,0,1145,23,4,chinese,f,9,0.9,-36.64318661,0.63988164
QXL_1546,37,0,2024-06-20T07:47:56.596Z,english_381.wav,0,0,1145,23,4,chinese,f,10,1,2.98595367,0.12358053
QXL_1546,37,0,2024-06-20T07:47:56.596Z,english_381.wav,0,0,1145,23,4,chinese,f,11,1.09391667,-73.96797181,1.01352385
QXL_1546,38,0,2024-06-20T07:47:56.596Z,english_863.wav,0,0,999,23,4,chinese,f,0,0,3.14313852,1.16629305
QXL_1546,38,0,2024-06-20T07:47:56.596Z,english_863.wav,0,0,999,23,4,chinese,f,1,0.1,-23.21665248,0.07060829
QXL_1546,38,0,2024-06-20T07:47:56.596Z,english_863.wav,0,0,999,23,4,chinese,f,2,0.2,94.57997372,0.73624632
QXL_1546,38,0,2024-06-20T07:47:56.596Z,english_863.wav,0,0,999,23,4,chinese,f,3,0.3,-70.02674633,1.78608874
QXL_1546,38,0,2024-06-20T07:47:56.596Z,english_863.wav,0,0,999,23,4,chinese,f,4,0.4,40.94796862,1.19353904
QXL_1546,38,0,2024-06-20T07:47:56.596Z,english_863.wav,0,0,999,23,4,chinese,f,5,0.5,88.61836916,1.05800258
QXL_1546,38,0,2024-06-20T07:47:56.596Z,english_863.wav,0,0,999,23,4,chinese,f,6,0.6,69.208784,1.13776513
QXL_1546,38,0,2024-06-20T07:47:56.596Z,english_863.wav,0,0,999,23,4,chinese,f,7,0.7,77.12421504,0.42226269
QXL_1546,38,0,2024-06-20T07:47:56.596Z,english_863.wav,0,0,999,23,4,chinese,f,8,0.8,-17.44873358,1.07561455
QXL_1546,38,0,2024-06-20T07:47:56.596Z,english_863.wav,0,0,999,23,4,chinese,f,9,0.9,-87.01424673,0.7154793
QXL_1546,38,0,2024-06-20T07:47:56.596Z,english_863.wav,0,0,999,23,4,chinese,f,10,1,-56.04990787,0.64178271
QXL_1546,38,0,2024-06-20T07:47:56.596Z,english_863.wav,0,0,999,23,4,chinese,f,11,1.09391667,-48.10301357,1.63280959
QXL_1546,39,0,2024-06-20T07:47:56.596Z,english_17.wav,0,0,1170,23,4,chinese,f,0,0,-41.3657541,0.93042496
QXL_1546,39,0,2024-06-20T07:47:56.596Z,english_17.wav,0,0,1170,23,4,chinese,f,1,0.1,18.52407521,0.57556252
QXL_1546,39,0,2024-06-20T07:47:56.596Z,english_17.wav,0,0,1170,23,4,chinese,f,2,0.2,28.83660917,1.05825244
QXL_1546,39,0,2024-06-20T07:47:56.596Z,english_17.wav,0,0,1170,23,4,chinese,f,3,0.3,-68.73925871,1.61296419
QXL_1546,39,0,2024-06-20T07:47:56.596Z,english_17.wav,0,0,1170,23,4,chinese,f,4,0.4,16.38358539,1.88532434
QXL_1546,39,0,2024-06-20T07:47:56.596Z,english_17.wav,0,0,1170,23,4,chinese,f,5,0.5,10.80665977,0.93003826
QXL_1546,39,0,2024-06-20T07:47:56.596Z,english_17.wav,0,0,1170,23,4,chinese,f,6,0.6,-96.31867509,1.71319597
QXL_1546,39,0,2024-06-20T07:47:56.596Z,english_17.wav,0,0,1170,23,4,chinese,f,7,0.7,3.37543051,0.84201525
QXL_1546,39,0,2024-06-20T07:47:56.596Z,english_17.wav,0,0,1170,23,4,chinese,f,8,0.8,-54.88657906,0.38884428
QXL_1546,39,0,2024-06-20T07:47:56.596Z,english_17.wav,0,0,1170,23,4,chinese,f,9,0.9,-8.55837904,0.28018269
QXL_1546,39,0,2024-06-20T07:47:56.596Z,english_17.wav,0,0,1170,23,4,chinese,f,10,1,90.97556366,1.36723804
QXL_1546,39,0,2024-06-20T07:47:56.596Z,english_17.wav,0,0,1170,23,4,chinese,f,11,1.09391667,-99.26558204,0.42314615
QXL_1546,40,0,2024-06-20T07:47:56.596Z,english_847.wav,0,1,787,23,4,chinese,f,0,0,-73.89717539,1.8490528
QXL_1546,40,0,2024-06-20T07:47:56.596Z,english_847.wav,0,1,787,23,4,chinese,f,1,0.1,58.2279035,0.78071375
QXL_1546,40,0,2024-06-20T07:47:56.596Z,english_847.wav,0,1,787,23,4,chinese,f,2,0.2,-6.95336522,0.52277753
QXL_1546,40,0,2024-06-20T07:47:56.596Z,english_847.wav,0,1,787,23,4,chinese,f,3,0.3,-22.95480777,0.58053559
QXL_1546,40,0,2024-06-20T07:47:56.596Z,english_847.wav,0,1,787,23,4,chinese,f,4,0.4,52.90135008,1.88784757
QXL_1546,40,0,2024-06-20T07:47:56.596Z,english_847.wav,0,1,787,23,4,chinese,f,5,0.5,-46.75765643,0.24672534
QXL_1546,40,0,2024-06-20T07:47:56.596Z,english_847.wav,0,1,787,23,4,chinese,f,6,0.6,30.49472427,0.03480907
QXL_1546,40,0,2024-06-20T07:47:56.596Z,english_847.wav,0,1,787,23,4,chinese,f,7,0.7,-69.71037967,1.27028129
QXL_1546,40,0,2024-06-20T07:47:56.596Z,english_847.wav,0,1,787,23,4,chinese,f,8,0.8,-58.62690345,0.5771855
QXL_1546,40,0,2024-06-20T07:47:56.596Z,english_847.wav,0,1,787,23,4,chinese,f,9,0.9,-33.68489601,1.71334453
QXL_1546,40,0,2024-06-20T07:47:56.596Z,english_847.wav,0,1,787,23,4,chinese,f,10,1,-73.6486263,0.92032767
QXL_1546,40,0,2024-06-20T07:47:56.596Z,english_847.wav,0,1,787,23,4,chinese,f,11,1.09391667,-82.9712864,0.36606921
QXL_1546,41,0,2024-06-20T07:47:56.596Z,english_474.wav,0,1,768,23,4,chinese,f,0,0,90.33187361,1.64439586
QXL_1546,41,0,2024-06-20T07:47:56.596Z,english_474.wav,0,1,768,23,4,chinese,f,1,0.1,-6.84069755,1.97409516
QXL_1546,41,0,2024-06-20T07:47:56.596Z,english_474.wav,0,1,768,23,4,chinese,f,2,0.2,-57.72482016,1.83394357
QXL_1546,41,0,2024-06-20T07:47:56.596Z,english_474.wav,0,1,768,23,4,chinese,f,3,0.3,-31.39067157,1.91918891
QXL_1546,41,0,2024-06-20T07:47:56.596Z,english_474.wav,0,1,768,23,4,chinese,f,4,0.4,81.36101502,1.89552465
QXL_1546,41,0,2024-06-20T07:47:56.596Z,english_474.wav,0,1,768,23,4,chinese,f,5,0.5,86.28648359,1.60591709
QXL_1546,41,0,2024-06-20T07:47:56.596Z,english_474.wav,0,1,768,23,4,chinese,f,6,0.6,59.24078698,1.87570248
QXL_1546,41,0,2024-06-20T07:47:56.596Z,english_474.wav,0,1,768,23,4,chinese,f,7,0.7,83.65694144,0.05909507
QXL_1546,41,0,2024-06-20T07:47:56.596Z,english_474.wav,0,1,768,23,4,chinese,f,8,0.8,-5.88526163,0.13266254
QXL_1546,41,0,2024-06-20T07:47:56.596Z,english_474.wav,0,1,768,23,4,chinese,f,9,0.9,-0.83528638,1.2446593
QXL_1546,41,0,2024-06-20T07:47:56.596Z,english_474.wav,0,1,768,23,4,chinese,f,10,1,93.70431835,0.47044402
QXL_1546,41,0,2024-06-20T07:47:56.596Z,english_474.wav,0,1,768,23,4,chinese,f,11,1.09391667,-9.99550439,1.70719202
QXL_1546,42,0,2024-06-20T07:47:56.596Z,english_557.wav,0,1,662,23,4,chinese,f,0,0,-36.00437951,0.86268568
QXL_1546,42,0,2024-06-20T07:47:56.596Z,english_557.wav,0,1,662,23,4,chinese,f,1,0.1,-36.18192477,0.78818346
QXL_1546,42,0,2024-06-20T07:47:56.596Z,english_557.wav,0,1,662,23,4,chinese,f,2,0.2,-76.46214854,0.88104775
QXL_1546,42,0,2024-06-20T07:47:56.596Z,english_557.wav,0,1,662,23,4,chinese,f,3,0.3,-9.78546514,0.51957323
QXL_1546,42,0,2024-06-20T07:47:56.596Z,english_557.wav,0,1,662,23,4,chinese,f,4,0.4,-53.27937245,1.84624381
QXL_1546,42,0,2024-06-20T07:47:56.596Z,english_557.wav,0,1,662,23,4,chinese,f,5,0.5,14.69737181,0.53524469
QXL_1546,42,0,2024-06-20T07:47:56.596Z,english_557.wav,0,1,662,23,4,chinese,f,6,0.6,-76.22217722,0.83895898
QXL_1546,42,0,2024-06-20T07:47:56.596Z,english_557.wav,0,1,662,23,4,chinese,f,7,0.7,76.26393568,0.4548877
QXL_1546,42,0,2024-06-20T07:47:56.596Z,english_557.wav,0,1,662,23,4,chinese,f,8,0.8,-62.02007028,1.59917341
QXL_1546,42,0,2024-06-20T07:47:56.596Z,english_557.wav,0,1,662,23,4,chinese,f,9,0.9,73.18804903,0.63690232
QXL_1546,42,0,2024-06-20T07:47:56.596Z,english_557.wav,0,1,662,23,4,chinese,f,10,1,75.91755358,1.04600017
QXL_1546,42,0,2024-06-20T07:47:56.596Z,english_557.wav,0,1,662,23,4,chinese,f,11,1.09391667,-37.39944408,0.42796411
QXL_1546,43,0,2024-06-20T07:47:56.596Z,english_955.wav,0,0,852,23,4,chinese,f,0,0,38.31421616,0.40317625
QXL_1546,43,0,2024-06-20T07:47:56.596Z,english_955.wav,0,0,852,23,4,chinese,f,1,0.1,-0.24395343,1.41770308
QXL_1546,43,0,2024-06-20T07:47:56.596Z,english_955.wav,0,0,852,23,4,chinese,f,2,0.2,-30.85408012,0.82154239
QXL_1546,43,0,2024-06-20T07:47:56.596Z,english_955.wav,0,0,852,23,4,chinese,f,3,0.3,73.34311783,1.53285595
QXL_1546,43,0,2024-06-20T07:47:56.596Z,english_955.wav,0,0,852,23,4,chinese,f,4,0.4,-91.5837752,0.89318017
QXL_1546,43,0,2024-06-20T07:47:56.596Z,english_955.wav,0,0,852,23,4,chinese,f,5,0.5,57.97712299,1.16313419
QXL_1546,43,0,2024-06-20T07:47:56.596Z,english_955.wav,0,0,852,23,4,chinese,f,6,0.6,6.73272041,0.62969855
QXL_1546,43,0,2024-06-20T07:47:56.596Z,english_955.wav,0,0,852,23,4,chinese,f,7,0.7,-3.5280389,1.12563056
QXL_1546,43,0,2024-06-20T07:47:56.596Z,english_955.wav,0,0,852,23,4,chinese,f,8,0.8,-53.89604604,0.39704544
QXL_1546,43,0,2024-06-20T07:47:56.596Z,english_955.wav,0,0,852,23,4,chinese,f,9,0.9,42.44442799,0.50354627
QXL_1546,43,0,2024-06-20T07:47:56.596Z,english_955.wav,0,0,852,23,4,chinese,f,10,1,-51.31943535,0.66246368
QXL_1546,43,0,2024-06-20T07:47:56.596Z,english_955.wav,0,0,852,23,4,chinese,f,11,1.09391667,-10.15737525,0.25441039
QXL_1546,44,0,2024-06-20T07:47:56.596Z,english_389.wav,0,1,1089,23,4,chinese,f,0,0,-27.92030451,1.81186154
QXL_1546,44,0,2024-06-20T07:47:56.596Z,english_389.wav,0,1,1089,23,4,chinese,f,1,0.1,-46.10796153,1.54804085
QXL_1546,44,0,2024-06-20T07:47:56.596Z,english_389.wav,0,1,1089,23,4,chinese,f,2,0.2,29.27243325,0.55488288
QXL_1546,44,0,2024-06-20T07:47:56.596Z,english_389.wav,0,1,1089,23,4,chinese,f,3,0.3,-81.13766006,1.00824624
QXL_1546,44,0,2024-06-20T07:47:56.596Z,english_389.wav,0,1,1089,23,4,chinese,f,4,0.4,-25.00115648,1.07224035
QXL_1546,44,0,2024-06-20T07:47:56.596Z,english_389.wav,0,1,1089,23,4,chinese,f,5,0.5,-17.10951233,0.42212287
QXL_1546,44,0,2024-06-20T07:47:56.596Z,english_389.wav,0,1,1089,23,4,chinese,f,6,0.6,15.83507298,1.0440142
QXL_1546,44,0,2024-06-20T07:47:56.596Z,english_389.wav,0,1,1089,23,4,chinese,f,7,0.7,79.29241289,1.00958508
QXL_1546,44,0,2024-06-20T07:47:56.596Z,english_389.wav,0,1,1089,23,4,chinese,f,8,0.8,27.96570621,0.92707182
QXL_1546,44,0,2024-06-20T07:47:56.596Z,english_389.wav,0,1,1089,23,4,chinese,f,9,0.9,-91.92786914,1.30621654
QXL_1546,44,0,2024-06-20T07:47:56.596Z,english_389.wav,0,1,1089,23,4,chinese,f,10,1,39.38033895,1.4968603
QXL_1546,44,0,2024-06-20T07:47:56.596Z,english_389.wav,0,1,1089,23,4,chinese,f,11,1.09391667,-32.92969944,0.53867672
QXL_1546,45,0,2024-06-20T07:47:56.596Z,english_761.wav,0,0,902,23,4,chinese,f,0,0,-80.97330145,0.75841869
QXL_1546,45,0,2024-06-20T07:47:56.596Z,english_761.wav,0,0,902,23,4,chinese,f,1,0.1,-87.8498671,0.93275546
QXL_1546,45,0,2024-06-20T07:47:56.596Z,english_761.wav,0,0,902,23,4,chinese,f,2,0.2,-46.50669934,1.71329225
QXL_1546,45,0,2024-06-20T07:47:56.596Z,english_761.wav,0,0,902,23,4,chinese,f,3,0.3,59.20965722,1.0347089
QXL_1546,45,0,2024-06-20T07:47:56.596Z,english_761.wav,0,0,902,23,4,chinese,f,4,0.4,-35.71104214,1.01687932
QXL_1546,45,0,2024-06-20T07:47:56.596Z,english_761.wav,0,0,902,23,4,chinese,f,5,0.5,-52.81542402,0.41101951
QXL_1546,45,0,2024-06-20T07:47:56.596Z,english_761.wav,0,0,902,23,4,chinese,f,6,0.6,31.64937697,0.68065775
QXL_1546,45,0,2024-06-20T07:47:56.596Z,english_761.wav,0,0,902,23,4,chinese,f,7,0.7,29.30310565,1.83101612
QXL_1546,45,0,2024-06-20T07:47:56.596Z,english_761.wav,0,0,902,23,4,chinese,f,8,0.8,-83.11546178,0.13402502
QXL_1546,45,0,2024-06-20T07:47:56.596Z,english_761.wav,0,0,902,23,4,chinese,f,9,0.9,4.4057425,1.22130523
QXL_1546,45,0,2024-06-20T07:47:56.596Z,english_761.wav,0,0,902,23,4,chinese,f,10,1,40.14606476,0.44607754
QXL_1546,45,0,2024-06-20T07:47:56.596Z,english_761.wav,0,0,902,23,4,chinese,f,11,1.09391667,-16.15452459,1.73687105
QXL_1546,46,0,2024-06-20T07:47:56.596Z,english_296.wav,0,1,776,23,4,chinese,f,0,0,80.48782258,1.56514642
QXL_1546,46,0,2024-06-20T07:47:56.596Z,english_296.wav,0,1,776,23,4,chinese,f,1,0.1,10.56122862,0.84129395
QXL_1546,46,0,2024-06-20T07:47:56.596Z,english_296.wav,0,1,776,23,4,chinese,f,2,0.2,-8.93820662,0.06138073
QXL_1546,46,0,2024-06-20T07:47:56.596Z,english_296.wav,0,1,776,23,4,chinese,f,3,0.3,-54.86681614,0.69727856
QXL_1546,46,0,2024-06-20T07:47:56.596Z,english_296.wav,0,1,776,23,4,chinese,f,4,0.4,4.93462284,1.5884292
QXL_1546,46,0,2024-06-20T07:47:56.596Z,english_296.wav,0,1,776,23,4,chinese,f,5,0.5,35.74757504,1.04892583
QXL_1546,46,0,2024-06-20T07:47:56.596Z,english_296.wav,0,1,776,23,4,chinese,f,6,0.6,68.8469079,1.9689775
QXL_1546,46,0,2024-06-20T07:47:56.596Z,english_296.wav,0,1,776,23,4,chinese,f,7,0.7,-14.27123589,0.88805601
QXL_1546,46,0,2024-06-20T07:47:56.596Z,english_296.wav,0,1,776,23,4,chinese,f,8,0.8,-28.29587023,1.96809087
QXL_1546,46,0,2024-06-20T07:47:56.596Z,english_296.wav,0,1,776,23,4,chinese,f,9,0.9,95.64907093,1.8332122
QXL_1546,46,0,2024-06-20T07:47:56.596Z,english_296.wav,0,1,776,23,4,chinese,f,10,1,-72.41595419,0.12281215
QXL_1546,46,0,2024-06-20T07:47:56.596Z,english_296.wav,0,1,776,23,4,chinese,f,11,1.09391667,67.53861485,0.22120187
QXL_1546,47,0,2024-06-20T07:47:56.596Z,english_496.wav,0,1,526,23,4,chinese,f,0,0,71.48836841,0.54791396
QXL_1546,47,0,2024-06-20T07:47:56.596Z,english_496.wav,0,1,526,23,4,chinese,f,1,0.1,15.20852814,0.58485485
QXL_1546,47,0,2024-06-20T07:47:56.596Z,english_496.wav,0,1,526,23,4,chinese,f,2,0.2,-96.44274776,0.36991182
QXL_1546,47,0,2024-06-20T07:47:56.596Z,english_496.wav,0,1,526,23,4,chinese,f,3,0.3,-60.77213324,0.28046451
QXL_1546,47,0,2024-06-20T07:47:56.596Z,english_496.wav,0,1,526,23,4,chinese,f,4,0.4,51.84358461,1.3513408
QXL_1546,47,0,2024-06-20T07:47:56.596Z,english_496.wav,0,1,526,23,4,chinese,f,5,0.5,-29.81815899,0.81550086
QXL_1546,47,0,2024-06-20T07:47:56.596Z,english_496.wav,0,1,526,23,4,chinese,f,6,0.6,68.78610252,1.72009229
QXL_1546,47,0,2024-06-20T07:47:56.596Z,english_496.wav,0,1,526,23,4,chinese,f,7,0.7,-7.56844822,0.3057716
QXL_1546,47,0,2024-06-20T07:47:56.596Z,english_496.wav,0,1,526,23,4,chinese,f,8,0.8,77.81323141,0.47124655
QXL_1546,47,0,2024-06-20T07:47:56.596Z,english_496.wav,0,1,526,23,4,chinese,f,9,0.9,-20.60892305,1.72803136
QXL_1546,47,0,2024-06-20T07:47:56.596Z,english_496.wav,0,1,526,23,4,chinese,f,10,1,-49.14310168,0.96978589
QXL_1546,47,0,2024-06-20T07:47:56.596Z,english_496.wav,0,1,526,23,4,chinese,f,11,1.09391667,12.76376139,1.35172816
QXL_1546,48,0,2024-06-20T07:47:56.596Z,english_124.wav,0,1,573,23,4,chinese,f,0,0,5.35510852,0.99413203
QXL_1546,48,0,2024-06-20T07:47:56.596Z,english_124.wav,0,1,573,23,4,chinese,f,1,0.1,82.22763866,0.35886786
QXL_1546,48,0,2024-06-20T07:47:56.596Z,english_124.wav,0,1,573,23,4,chinese,f,2,0.2,78.44526729,0.68901736
QXL_1546,48,0,2024-06-20T07:47:56.596Z,english_124.wav,0,1,573,23,4,chinese,f,3,0.3,-3.07690156,1.32582542
QXL_1546,48,0,2024-06-20T07:47:56.596Z,english_124.wav,0,1,573,23,4,chinese,f,4,0.4,-26.87127611,1.93650033
QXL_1546,48,0,2024-06-20T07:47:56.596Z,english_124.wav,0,1,573,23,4,chinese,f,5,0.5,-1.1256219,1.64621245
QXL_1546,48,0,2024-06-20T07:47:56.596Z,english_124.wav,0,1,573,23,4,chinese,f,6,0.6,-86.86575837,1.68793936
QXL_1546,48,0,2024-06-20T07:47:56.596Z,english_124.wav,0,1,573,23,4,chinese,f,7,0.7,73.06997556,1.14468764
QXL_1546,48,0,2024-06-20T07:47:56.596Z,english_124.wav,0,1,573,23,4,chinese,f,8,0.8,48.90999268,1.13594555
QXL_1546,48,0,2024-06-20T07:47:56.596Z,english_124.wav,0,1,573,23,4,chinese,f,9,0.9,52.65203742,0.473778
QXL_1546,48,0,2024-06-20T07:47:56.596Z,english_124.wav,0,1,573,23,4,chinese,f,10,1,-49.74668146,1.84215607
QXL_1546,48,0,2024-06-20T07:47:56.596Z,english_124.wav,0,1,573,23,4,chinese,f,11,1.09391667,-71.87075445,0.96391319
QXL_1546,49,0,2024-06-20T07:47:56.596Z,english_149.wav,0,1,204,23,4,chinese,f,0,0,-53.20573735,0.95670134
QXL_1546,49,0,2024-06-20T07:47:56.596Z,english_149.wav,0,1,204,23,4,chinese,f,1,0.1,-90.4921868,0.5519459
QXL_1546,49,0,2024-06-20T07:47:56.596Z,english_149.wav,0,1,204,23,4,chinese,f,2,0.2,-21.57127114,0.68228705
QXL_1546,49,0,2024-06-20T07:47:56.596Z,english_149.wav,0,1,204,23,4,chinese,f,3,0.3,-29.49661343,0.40950451
QXL_1546,49,0,2024-06-20T07:47:56.596Z,english_149.wav,0,1,204,23,4,chinese,f,4,0.4,-77.75712455,1.98655192
QXL_1546,49,0,2024-06-20T07:47:56.596Z,english_149.wav,0,1,204,23,4,chinese,f,5,0.5,-23.65011592,0.22349442
QXL_1546,49,0,2024-06-20T07:47:56.596Z,english_149.wav,0,1,204,23,4,chinese,f,6,0.6,-4.31853851,1.34559787
QXL_1546,49,0,2024-06-20T07:47:56.596Z,english_149.wav,0,1,204,23,4,chinese,f,7,0.7,95.2447513,0.78513236
QXL_1546,49,0,2024-06-20T07:47:56.596Z,english_149.wav,0,1,204,23,4,chinese,f,8,0.8,-64.13043019,1.81674813
QXL_1546,49,0,2024-06-20T07:47:56.596Z,english_149.wav,0,1,204,23,4,chinese,f,9,0.9,20.09083708,1.85324621
QXL_1546,49,0,2024-06-20T07:47:56.596Z,english_149.wav,0,1,204,23,4,chinese,f,10,1,47.07706549,1.9199937
QXL_1546,49,0,2024-06-20T07:47:56.596Z,english_149.wav,0,1,204,23,4,chinese,f,11,1.09391667,-54.30871038,0.6097093
QXL_1546,50,1,2024-06-20T07:53:04.280Z,english_899.wav,0,0,1108,23,4,chinese,f,0,0,36.05043058,0.90588284
QXL_1546,50,1,2024-06-20T07:53:04.280Z,english_899.wav,0,0,1108,23,4,chinese,f,1,0.1,33.3197066,1.60760833
QXL_1546,50,1,2024-06-20T07:53:04.280Z,english_899.wav,0,0,1108,23,4,chinese,f,2,0.2,-89.01295916,1.45467369
QXL_1546,50,1,2024-06-20T07:53:04.280Z,english_899.wav,0,0,1108,23,4,chinese,f,3,0.3,98.52221139,0.4019209
QXL_1546,50,1,2024-06-20T07:53:04.280Z,english_899.wav,0,0,1108,23,4,chinese,f,4,0.4,-46.63657868,1.10920818
QXL_1546,50,1,2024-06-20T07:53:04.280Z,english_899.wav,0,0,1108,23,4,chinese,f,5,0.5,-65.65669191,1.04007942
QXL_1546,50,1,2024-06-20T07:53:04.280Z,english_899.wav,0,0,1108,23,4,chinese,f,6,0.6,76.90163594,0.20562094
QXL_1546,50,1,2024-06-20T07:53:04.280Z,english_899.wav,0,0,1108,23,4,chinese,f,7,0.7,36.98286823,0.26673383
QXL_1546,50,1,2024-06-20T07:53:04.280Z,english_899.wav,0,0,1108,23,4,chinese,f,8,0.8,58.54417199,0.17186704
QXL_1546,50,1,2024-06-20T07:53:04.280Z,english_899.wav,0,0,1108,23,4,chinese,f,9,0.9,37.91895182,1.28815156
QXL_1546,50,1,2024-06-20T07:53:04.280Z,english_899.wav,0,0,1108,23,4,chinese,f,10,1,-84.2401269,0.03412997
QXL_1546,50,1,2024-06-20T07:53:04.280Z,english_899.wav,0,0,1108,23,4,chinese,f,11,1.09391667,-3.10665722,1.51688145
QXL_1546,51,1,2024-06-20T07:53:04.280Z,english_77.wav,0,1,7314,23,4,chinese,f,0,0,14.85901356,0.93801636
QXL_1546,51,1,2024-06-20T07:53:04.280Z,english_77.wav,0,1,7314,23,4,chinese,f,1,0.1,-14.38598058,1.78480039
QXL_1546,51,1,2024-06-20T07:53:04.280Z,english_77.wav,0,1,7314,23,4,chinese,f,2,0.2,-43.69728494,1.59819809
QXL_1546,51,1,2024-06-20T07:53:04.280Z,english_77.wav,0,1,7314,23,4,chinese,f,3,0.3,-19.24854373,0.89560743
QXL_1546,51,1,2024-06-20T07:53:04.280Z,english_77.wav,0,1,7314,23,4,chinese,f,4,0.4,4.73942442,0.68128783
QXL_1546,51,1,2024-06-20T07:53:04.280Z,english_77.wav,0,1,7314,23,4,chinese,f,5,0.5,6.08734895,1.19225119
QXL_1546,51,1,2024-06-20T07:53:04.280Z,english_77.wav,0,1,7314,23,4,chinese,f,6,0.6,2.07981921,1.49267812
QXL_1546,51,1,2024-06-20T07:53:04.280Z,english_77.wav,0,1,7314,23,4,chinese,f,7,0.7,-3.22152689,1.83354621
QXL_1546,51,1,2024-06-20T07:53:04.280Z,english_77.wav,0,1,7314,23,4,chinese,f,8,0.8,-81.97912938,0.65715704
QXL_1546,51,1,2024-06-20T07:53:04.280Z,english_77.wav,0,1,7314,23,4,chinese,f,9,0.9,9.14807536,1.29592629
QXL_1546,51,1,2024-06-20T07:53:04.280Z,english_77.wav,0,1,7314,23,4,chinese,f,10,1,-30.52937586,1.03409297
QXL_1546,51,1,2024-06-20T07:53:04.280Z,english_77.wav,0,1,7314,23,4,chinese,f,11,1.09391667,17.14336326,1.45456337
QXL_1546,52,1,2024-06-20T07:53:04.280Z,english_216.wav,0,0,492,23,4,chinese,f,0,0,-40.27379603,1.31885312
QXL_1546,52,1,2024-06-20T07:53:04.280Z,english_216.wav,0,0,492,23,4,chinese,f,1,0.1,-9.47472605,1.52413536
QXL_1546,52,1,2024-06-20T07:53:04.280Z,english_216.wav,0,0,492,23,4,chinese,f,2,0.2,10.83044308,0.3375517
QXL_1546,52,1,2024-06-20T07:53:04.280Z,english_216.wav,0,0,492,23,4,chinese,f,3,0.3,-73.80571365,0.67857864
QXL_1546,52,1,2024-06-20T07:53:04.280Z,english_216.wav,0,0,492,23,4,chinese,f,4,0.4,41.89217051,0.9344087
QXL_1546,52,1,2024-06-20T07:53:04.280Z,english_216.wav,0,0,492,23,4,chinese,f,5,0.5,-33.36366466,0.89775046
QXL_1546,52,1,2024-06-20T07:53:04.280Z,english_216.wav,0,0,492,23,4,chinese,f,6,0.6,-97.24072999,0.74652634
QXL_1546,52,1,2024-06-20T07:53:04.280Z,english_216.wav,0,0,492,23,4,chinese,f,7,0.7,-3.36916359,0.00621512
QXL_1546,52,1,2024-06-20T07:53:04.280Z,english_216.wav,0,0,492,23,4,chinese,f,8,0.8,-1.27566838,0.72729094
QXL_1546,52,1,2024-06-20T07:53:04.280Z,english_216.wav,0,0,492,23,4,chinese,f,9,0.9,29.4346129,1.23180128
QXL_1546,52,1,2024-06-20T07:53:04.280Z,english_216.wav,0,0,492,23,4,chinese,f,10,1,96.31719875,0.44193416
QXL_1546,52,1,2024-06-20T07:53:04.280Z,english_216.wav,0,0,492,23,4,chinese,f,11,1.09391667,90.69441865,0.08230135
QXL_1546,53,1,2024-06-20T07:53:04.280Z,english_489.wav,0,1,568,23,4,chinese,f,0,0,34.87513384,0.04879029
QXL_1546,53,1,2024-06-20T07:53:04.280Z,english_489.wav,0,1,568,23,4,chinese,f,1,0.1,-56.49709653,0.42206675
QXL_1546,53,1,2024-06-20T07:53:04.280Z,english_489.wav,0,1,568,23,4,chinese,f,2,0.2,-69.32456338,1.77329015
QXL_1546,53,1,2024-06-20T07:53:04.280Z,english_489.wav,0,1,568,23,4,chinese,f,3,0.3,53.20706346,0.48934341
QXL_1546,53,1,2024-06-20T07:53:04.280Z,english_489.wav,0,1,568,23,4,chinese,f,4,0.4,66.8977185,1.53841919
QXL_1546,53,1,2024-06-20T07:53:04.280Z,english_489.wav,0,1,568,23,4,chinese,f,5,0.5,47.95425842,1.90609151
QXL_1546,53,1,2024-06-20T07:53:04.280Z,english_489.wav,0,1,568,23,4,chinese,f,6,0.6,18.45634507,1.04648426
QXL_1546,53,1,2024-06-20T07:53:04.280Z,english_489.wav,0,1,568,23,4,chinese,f,7,0.7,-35.00488862,0.7592551
QXL_1546,53,1,2024-06-20T07:53:04.280Z,english_489.wav,0,1,568,23,4,chinese,f,8,0.8,41.56892466,1.06956744
QXL_1546,53,1,2024-06-20T07:53:04.280Z,english_489.wav,0,1,568,23,4,chinese,f,9,0.9,-9.61579481,0.57636466
QXL_1546,53,1,2024-06-20T07:53:04.280Z,english_489.wav,0,1,568,23,4,chinese,f,10,1,-77.26438838,0.72315176
QXL_1546,53,1,2024-06-20T07:53:04.280Z,english_489.wav,0,1,568,23,4,chinese,f,11,1.09391667,-34.81016687,0.99781533
QXL_1546,54,1,2024-06-20T07:53:04.280Z,english_356.wav,0,0,421,23,4,chinese,f,0,0,32.76906958,0.08562483
QXL_1546,54,1,2024-06-20T07:53:04.280Z,english_356.wav,0,0,421,23,4,chinese,f,1,0.1,-4.50463472,0.71215991
QXL_1546,54,1,2024-06-20T07:53:04.280Z,english_356.wav,0,0,421,23,4,chinese,f,2,0.2,-3.50879641,0.27192591
QXL_1546,54,1,2024-06-20T07:53:04.280Z,english_356.wav,0,0,421,23,4,chinese,f,3,0.3,-66.50182595,1.84647675
QXL_1546,54,1,2024-06-20T07:53:04.280Z,english_356.wav,0,0,421,23,4,chinese,f,4,0.4,-41.87578379,0.94018547
QXL_1546,54,1,2024-06-20T07:53:04.280Z,english_356.wav,0,0,421,23,4,chinese,f,5,0.5,15.06829484,0.35538969
QXL_1546,54,1,2024-06-20T07:53:04.280Z,english_356.wav,0,0,421,23,4,chinese,f,6,0.6,-0.09178899,0.67852857
QXL_1546,54,1,2024-06-20T07:53:04.280Z,english_356.wav,0,0,421,23,4,chinese,f,7,0.7,-46.92797448,1.60890004
QXL_1546,54,1,2024-06-20T07:53:04.280Z,english_356.wav,0,0,421,23,4,chinese,f,8,0.8,77.06532678,0.18175686
QXL_1546,54,1,2024-06-20T07:53:04.280Z,english_356.wav,0,0,421,23,4,chinese,f,9,0.9,26.9349071,1.60704056
QXL_1546,54,1,2024-06-20T07:53:04.280Z,english_356.wav,0,0,421,23,4,chinese,f,10,1,1.26347583,0.84129373
QXL_1546,54,1,2024-06-20T07:53:04.280Z,english_356.wav,0,0,421,23,4,chinese,f,11,1.09391667,-52.5712343,0.27010089
QXL_1546,55,1,2024-06-20T07:53:04.280Z,english_373.wav,0,1,885,23,4,chinese,f,0,0,-9.94709743,0.51311979
QXL_1546,55,1,2024-06-20T07:53:04.280Z,english_373.wav,0,1,885,23,4,chinese,f,1,0.1,-83.40421168,1.13344135
QXL_1546,55,1,2024-06-20T07:53:04.280Z,english_373.wav,0,1,885,23,4,chinese,f,2,0.2,-22.83191441,0.32488715
QXL_1546,55,1,2024-06-20T07:53:04.280Z,english_373.wav,0,1,885,23,4,chinese,f,3,0.3,-83.42374119,1.83619002
QXL_1546,55,1,2024-06-20T07:53:04.280Z,english_373.wav,0,1,885,23,4,chinese,f,4,0.4,-39.99792882,1.43136972
QXL_1546,55,1,2024-06-20T07:53:04.280Z,english_373.wav,0,1,885,23,4,chinese,f,5,0.5,86.85199712,0.69456756
QXL_1546,55,1,2024-06-20T07:53:04.280Z,english_373.wav,0,1,885,23,4,chinese,f,6,0.6,-4.78975396,1.06607271
QXL_1546,55,1,2024-06-20T07:53:04.280Z,english_373.wav,0,1,885,23,4,chinese,f,7,0.7,-15.74997845,1.30605627
QXL_1546,55,1,2024-06-20T07:53:04.280Z,english_373.wav,0,1,885,23,4,chinese,f,8,0.8,29.79511399,0.03221072
QXL_1546,55,1,2024-06-20T07:53:04.280Z,english_373.wav,0,1,885,23,4,chinese,f,9,0.9,-25.05254908,1.44985225
QXL_1546,55,1,2024-06-20T07:53:04.280Z,english_373.wav,0,1,885,23,4,chinese,f,10,1,-99.62886639,0.95503788
QXL_1546,55,1,2024-06-20T07:53:04.280Z,english_373.wav,0,1,885,23,4,chinese,f,11,1.09391667,18.73159207,0.95128528
QXL_1546,56,1,2024-06-20T07:53:04.280Z,english_469.wav,0,1,437,23,4,chinese,f,0,0,-33.27051151,1.91972156
QXL_1546,56,1,2024-06-20T07:53:04.280Z,english_469.wav,0,1,437,23,4,chinese,f,1,0.1,-94.55728016,0.89758894
QXL_1546,56,1,2024-06-20T07:53:04.280Z,english_469.wav,0,1,437,23,4,chinese,f,2,0.2,-24.34554111,0.14767308
QXL_1546,56,1,2024-06-20T07:53:04.280Z,english_469.wav,0,1,437,23,4,chinese,f,3,0.3,16.33493977,0.88925412
QXL_1546,56,1,2024-06-20T07:53:04.280Z,english_469.wav,0,1,437,23,4,chinese,f,4,0.4,-66.14325269,0.02970636
QXL_1546,56,1,2024-06-20T07:53:04.280Z,english_469.wav,0,1,437,23,4,chinese,f,5,0.5,-2.40335162,0.16070031
QXL_1546,56,1,2024-06-20T07:53:04.280Z,english_469.wav,0,1,437,23,4,chinese,f,6,0.6,-87.80607373,0.0970541
QXL_1546,56,1,2024-06-20T07:53:04.280Z,english_469.wav,0,1,437,23,4,chinese,f,7,0.7,34.04653441,1.25032873
QXL_1546,56,1,2024-06-20T07:53:04.280Z,english_469.wav,0,1,437,23,4,chinese,f,8,0.8,53.31501889,1.92087852
QXL_1546,56,1,2024-06-20T07:53:04.280Z,english_469.wav,0,1,437,23,4,chinese,f,9,0.9,-70.89291525,0.56083362
QXL_1546,56,1,2024-06-20T07:53:04.280Z,english_469.wav,0,1,437,23,4,chinese,f,10,1,35.01344624,0.78804248
QXL_1546,56,1,2024-06-20T07:53:04.280Z,english_469.wav,0,1,437,23,4,chinese,f,11,1.09391667,15.03691984,0.71632164
QXL_1546,57,1,2024-06-20T07:53:04.280Z,english_838.wav,0,1,450,23,4,chinese,f,0,0,66.81838689,0.11169914
QXL_1546,57,1,2024-06-20T07:53:04.280Z,english_838.wav,0,1,450,23,4,chinese,f,1,0.1,94.65046979,0.93671825
QXL_1546,57,1,2024-06-20T07:53:04.280Z,english_838.wav,0,1,450,23,4,chinese,f,2,0.2,91.71604822,0.60356353
QXL_1546,57,1,2024-06-20T07:53:04.280Z,english_838.wav,0,1,450,23,4,chinese,f,3,0.3,78.43794704,1.60109406
QXL_1546,57,1,2024-06-20T07:53:04.280Z,english_838.wav,0,1,450,23,4,chinese,f,4,0.4,-73.47833102,0.84291267
QXL_1546,57,1,2024-06-20T07:53:04.280Z,english_838.wav,0,1,450,23,4,chinese,f,5,0.5,11.66623314,1.01630723
QXL_1546,57,1,2024-06-20T07:53:04.280Z,english_838.wav,0,1,450,23,4,chinese,f,6,0.6,-66.11404528,1.23732351
QXL_1546,57,1,2024-06-20T07:53:04.280Z,english_838.wav,0,1,450,23,4,chinese,f,7,0.7,28.35642813,1.37061964
QXL_1546,57,1,2024-06-20T07:53:04.280Z,english_838.wav,0,1,450,23,4,chinese,f,8,0.8,73.65825503,1.54014816
QXL_1546,57,1,2024-06-20T07:53:04.280Z,english_838.wav,0,1,450,23,4,chinese,f,9,0.9,-30.5228579,0.53177064
QXL_1546,57,1,2024-06-20T07:53:04.280Z,english_838.wav,0,1,450,23,4,chinese,f,10,1,-38.8042384,1.47567338
QXL_1546,57,1,2024-06-20T07:53:04.280Z,english_838.wav,0,1,450,23,4,chinese,f,11,1.09391667,90.67589939,0.7352694
QXL_1546,58,1,2024-06-20T07:53:04.280Z,english_835.wav,0,1,1453,23,4,chinese,f,0,0,-39.02011782,0.39436065
QXL_1546,58,1,2024-06-20T07:53:04.280Z,english_835.wav,0,1,1453,23,4,chinese,f,1,0.1,-63.30829774,0.19347001
QXL_1546,58,1,2024-06-20T07:53:04.280Z,english_835.wav,0,1,1453,23,4,chinese,f,2,0.2,-49.45230925,1.31632093
QXL_1546,58,1,2024-06-20T07:53:04.280Z,english_835.wav,0,1,1453,23,4,chinese,f,3,0.3,-7.37432437,0.74578151
QXL_1546,58,1,2024-06-20T07:53:04.280Z,english_835.wav,0,1,1453,23,4,chinese,f,4,0.4,13.5618111,1.17984814
QXL_1546,58,1,2024-06-20T07:53:04.280Z,english_835.wav,0,1,1453,23,4,chinese,f,5,0.5,-42.04372358,1.65194144
QXL_1546,58,1,2024-06-20T07:53:04.280Z,english_835.wav,0,1,1453,23,4,chinese,f,6,0.6,-23.05427732,1.69640587
QXL_1546,58,1,2024-06-20T07:53:04.280Z,english_835.wav,0,1,1453,23,4,chinese,f,7,0.7,-46.66498758,1.48589436
QXL_1546,58,1,2024-06-20T07:53:04.280Z,english_835.wav,0,1,1453,23,4,chinese,f,8,0.8,-43.23379064,0.66391529
QXL_1546,58,1,2024-06-20T07:53:04.280Z,english_835.wav,0,1,1453,23,4,chinese,f,9,0.9,45.29964787,0.69924952
QXL_1546,58,1,2024-06-20T07:53:04.280Z,english_835.wav,0,1,1453,23,4,chinese,f,10,1,-13.97031602,0.90104484
QXL_1546,58,1,2024-06-20T07:53:04.280Z,english_835.wav,0,1,1453,23,4,chinese,f,11,1.09391667,-69.96512508,0.7026329
QXL_1546,59,1,2024-06-20T07:53:04.280Z,english_196.wav,0,1,484,23,4,chinese,f,0,0,2.02767746,0.52488194
QXL_1546,59,1,2024-06-20T07:53:04.280Z,english_196.wav,0,1,484,23,4,chinese,f,1,0.1,-33.8864136,0.07938129
QXL_1546,59,1,2024-06-20T07:53:04.280Z,english_196.wav,0,1,484,23,4,chinese,f,2,0.2,22.2108892,1.27880301
QXL_1546,59,1,2024-06-20T07:53:04.280Z,english_196.wav,0,1,484,23,4,chinese,f,3,0.3,26.8443858,0.8345871
QXL_1546,59,1,2024-06-20T07:53:04.280Z,english_196.wav,0,1,484,23,4,chinese,f,4,0.4,54.5751314,1.20448566
QXL_1546,59,1,2024-06-20T07:53:04.280Z,english_196.wav,0,1,484,23,4,chinese,f,5,0.5,17.7209079,1.38294306
QXL_1546,59,1,2024-06-20T07:53:04.280Z,english_196.wav,0,1,484,23,4,chinese,f,6,0.6,46.4311721,1.20996935
QXL_1546,59,1,2024-06-20T07:53:04.280Z,english_196.wav,0,1,484,23,4,chinese,f,7,0.7,74.3025548,0.87104857
QXL_1546,59,1,2024-06-20T07:53:04.280Z,english_196.wav,0,1,484,23,4,chinese,f,8,0.8,24.2178378,0.98676135
QXL_1546,59,1,2024-06-20T07:53:04.280Z,english_196.wav,0,1,484,23,4,chinese,f,9,0.9,-0.0117232829,0.71720025
QXL_1546,59,1,2024-06-20T07:53:04.280Z,english_196.wav,0,1,484,23,4,chinese,f,10,1,-55.3381983,1.3134078
QXL_1546,59,1,2024-06-20T07:53:04.280Z,english_196.wav,0,1,484,23,4,chinese,f,11,1.09391667,-51.2005151,0.6531164
QXL_1546,60,1,2024-06-20T07:53:04.280Z,english_682.wav,0,1,756,23,4,chinese,f,0,0,-53.22260556,0.39279529
QXL_1546,60,1,2024-06-20T07:53:04.280Z,english_682.wav,0,1,756,23,4,chinese,f,1,0.1,86.77650228,0.89629602
QXL_1546,60,1,2024-06-20T07:53:04.280Z,english_682.wav,0,1,756,23,4,chinese,f,2,0.2,9.77253821,1.02748966
QXL_1546,60,1,2024-06-20T07:53:04.280Z,english_682.wav,0,1,756,23,4,chinese,f,3,0.3,11.03493207,0.21487606
QXL_1546,60,1,2024-06-20T07:53:04.280Z,english_682.wav,0,1,756,23,4,chinese,f,4,0.4,-49.40991028,0.85817313
QXL_1546,60,1,2024-06-20T07:53:04.280Z,english_682.wav,0,1,756,23,4,chinese,f,5,0.5,40.78961249,0.23854774
QXL_1546,60,1,2024-06-20T07:53:04.280Z,english_682.wav,0,1,756,23,4,chinese,f,6,0.6,0.17613347,1.76515504
QXL_1546,60,1,2024-06-20T07:53:04.280Z,english_682.wav,0,1,756,23,4,chinese,f,7,0.7,-59.60480948,0.66287763
QXL_1546,60,1,2024-06-20T07:53:04.280Z,english_682.wav,0,1,756,23,4,chinese,f,8,0.8,-70.7429322,0.73367901
QXL_1546,60,1,2024-06-20T07:53:04.280Z,english_682.wav,0,1,756,23,4,chinese,f,9,0.9,73.80660993,0.47936557
QXL_1546,60,1,2024-06-20T07:53:04.280Z,english_682.wav,0,1,756,23,4,chinese,f,10,1,20.51556505,1.06722754
QXL_1546,60,1,2024-06-20T07:53:04.280Z,english_682.wav,0,1,756,23,4,chinese,f,11,1.09391667,45.26798103,1.8777792
QXL_1546,61,1,2024-06-20T07:53:04.280Z,english_696.wav,0,1,471,23,4,chinese,f,0,0,80.76263908,0.91509798
QXL_1546,61,1,2024-06-20T07:53:04.280Z,english_696.wav,0,1,471,23,4,chinese,f,1,0.1,-81.05122768,1.74478529
QXL_1546,61,1,2024-06-20T07:53:04.280Z,english_696.wav,0,1,471,23,4,chinese,f,2,0.2,25.61500263,0.26644886
QXL_1546,61,1,2024-06-20T07:53:04.280Z,english_696.wav,0,1,471,23,4,chinese,f,3,0.3,25.88663843,1.54651286
QXL_1546,61,1,2024-06-20T07:53:04.280Z,english_696.wav,0,1,471,23,4,chinese,f,4,0.4,-95.94910221,0.7055337
QXL_1546,61,1,2024-06-20T07:53:04.280Z,english_696.wav,0,1,471,23,4,chinese,f,5,0.5,-72.42601444,0.71467656
QXL_1546,61,1,2024-06-20T07:53:04.280Z,english_696.wav,0,1,471,23,4,chinese,f,6,0.6,24.16177071,0.57693313
QXL_1546,61,1,2024-06-20T07:53:04.280Z,english_696.wav,0,1,471,23,4,chinese,f,7,0.7,64.95279218,1.47925574
QXL_1546,61,1,2024-06-20T07:53:04.280Z,english_696.wav,0,1,471,23,4,chinese,f,8,0.8,52.94859059,0.57583693
QXL_1546,61,1,2024-06-20T07:53:04.280Z,english_696.wav,0,1,471,23,4,chinese,f,9,0.9,-62.75879423,1.82750547
QXL_1546,61,1,2024-06-20T07:53:04.280Z,english_696.wav,0,1,471,23,4,chinese,f,10,1,30.29085573,0.4690012
QXL_1546,61,1,2024-06-20T07:53:04.280Z,english_696.wav,0,1,471,23,4,chinese,f,11,1.09391667,95.60067697,1.32087167
QXL_1546,62,1,2024-06-20T07:53:04.280Z,english_822.wav,0,1,808,23,4,chinese,f,0,0,-57.24532264,1.07162112
QXL_1546,62,1,2024-06-20T07:53:04.280Z,english_822.wav,0,1,808,23,4,chinese,f,1,0.1,-0.6561153,1.88043926
QXL_1546,62,1,2024-06-20T07:53:04.280Z,english_822.wav,0,1,808,23,4,chinese,f,2,0.2,20.41316559,0.90199971
QXL_1546,62,1,2024-06-20T07:53:04.280Z,english_822.wav,0,1,808,23,4,chinese,f,3,0.3,41.70802905,0.26893632
QXL_1546,62,1,2024-06-20T07:53:04.280Z,english_822.wav,0,1,808,23,4,chinese,f,4,0.4,-77.9443686,1.26571685
QXL_1546,62,1,2024-06-20T07:53:04.280Z,english_822.wav,0,1,808,23,4,chinese,f,5,0.5,63.06825284,1.37105199
QXL_1546,62,1,2024-06-20T07:53:04.280Z,english_822.wav,0,1,808,23,4,chinese,f,6,0.6,-26.82945761,1.3296767
QXL_1546,62,1,2024-06-20T07:53:04.280Z,english_822.wav,0,1,808,23,4,chinese,f,7,0.7,-92.61277401,1.89258001
QXL_1546,62,1,2024-06-20T07:53:04.280Z,english_822.wav,0,1,808,23,4,chinese,f,8,0.8,-55.75237854,1.15705119
QXL_1546,62,1,2024-06-20T07:53:04.280Z,english_822.wav,0,1,808,23,4,chinese,f,9,0.9,-53.36958595,0.11001008
QXL_1546,62,1,2024-06-20T07:53:04.280Z,english_822.wav,0,1,808,23,4,chinese,f,10,1,65.67162204,0.72053282
QXL_1546,62,1,2024-06-20T07:53:04.280Z,english_822.wav,0,1,808,23,4,chinese,f,11,1.09391667,97.68319671,1.63006682
QXL_1546,63,1,2024-06-20T07:53:04.280Z,english_387.wav,0,0,3408,23,4,chinese,f,0,0,67.80075556,0.00122772109
QXL_1546,63,1,2024-06-20T07:53:04.280Z,english_387.wav,0,0,3408,23,4,chinese,f,1,0.1,2.91528807,1.63436641
QXL_1546,63,1,2024-06-20T07:53:04.280Z,english_387.wav,0,0,3408,23,4,chinese,f,2,0.2,-96.71759945,0.942533102
QXL_1546,63,1,2024-06-20T07:53:04.280Z,english_387.wav,0,0,3408,23,4,chinese,f,3,0.3,0.93195301,0.658001898
QXL_1546,63,1,2024-06-20T07:53:04.280Z,english_387.wav,0,0,3408,23,4,chinese,f,4,0.4,64.10102677,1.5746929
QXL_1546,63,1,2024-06-20T07:53:04.280Z,english_387.wav,0,0,3408,23,4,chinese,f,5,0.5,50.38025389,0.711925794
QXL_1546,63,1,2024-06-20T07:53:04.280Z,english_387.wav,0,0,3408,23,4,chinese,f,6,0.6,73.00593199,1.61187408
QXL_1546,63,1,2024-06-20T07:53:04.280Z,english_387.wav,0,0,3408,23,4,chinese,f,7,0.7,18.93402178,1.34608703
QXL_1546,63,1,2024-06-20T07:53:04.280Z,english_387.wav,0,0,3408,23,4,chinese,f,8,0.8,35.76134207,1.4554979
QXL_1546,63,1,2024-06-20T07:53:04.280Z,english_387.wav,0,0,3408,23,4,chinese,f,9,0.9,32.66910334,0.118157589
QXL_1546,63,1,2024-06-20T07:53:04.280Z,english_387.wav,0,0,3408,23,4,chinese,f,10,1,89.60787906,0.929482496
QXL_1546,63,1,2024-06-20T07:53:04.280Z,english_387.wav,0,0,3408,23,4,chinese,f,11,1.09391667,4.26061553,1.40897442
QXL_1546,64,1,2024-06-20T07:53:04.280Z,english_785.wav,0,1,523,23,4,chinese,f,0,0,-73.74150429,1.15978121
QXL_1546,64,1,2024-06-20T07:53:04.280Z,english_785.wav,0,1,523,23,4,chinese,f,1,0.1,-10.25262424,1.76239803
QXL_1546,64,1,2024-06-20T07:53:04.280Z,english_785.wav,0,1,523,23,4,chinese,f,2,0.2,-91.38996228,1.35267709
QXL_1546,64,1,2024-06-20T07:53:04.280Z,english_785.wav,0,1,523,23,4,chinese,f,3,0.3,-58.16150792,0.50742704
QXL_1546,64,1,2024-06-20T07:53:04.280Z,english_785.wav,0,1,523,23,4,chinese,f,4,0.4,56.13851827,1.43887546
QXL_1546,64,1,2024-06-20T07:53:04.280Z,english_785.wav,0,1,523,23,4,chinese,f,5,0.5,-53.87138426,0.30204401
QXL_1546,64,1,2024-06-20T07:53:04.280Z,english_785.wav,0,1,523,23,4,chinese,f,6,0.6,-26.51328271,0.04616459
QXL_1546,64,1,2024-06-20T07:53:04.280Z,english_785.wav,0,1,523,23,4,chinese,f,7,0.7,38.10109315,0.31028806
QXL_1546,64,1,2024-06-20T07:53:04.280Z,english_785.wav,0,1,523,23,4,chinese,f,8,0.8,-52.27058488,1.01215639
QXL_1546,64,1,2024-06-20T07:53:04.280Z,english_785.wav,0,1,523,23,4,chinese,f,9,0.9,61.81362114,1.14370061
QXL_1546,64,1,2024-06-20T07:53:04.280Z,english_785.wav,0,1,523,23,4,chinese,f,10,1,-48.3420263,1.51703025
QXL_1546,64,1,2024-06-20T07:53:04.280Z,english_785.wav,0,1,523,23,4,chinese,f,11,1.09391667,5.55581958,0.02011385
QXL_1546,65,1,2024-06-20T07:53:04.280Z,english_365.wav,0,1,923,23,4,chinese,f,0,0,-13.81078305,1.74540369
QXL_1546,65,1,2024-06-20T07:53:04.280Z,english_365.wav,0,1,923,23,4,chinese,f,1,0.1,10.90636048,0.64746191
QXL_1546,65,1,2024-06-20T07:53:04.280Z,english_365.wav,0,1,923,23,4,chinese,f,2,0.2,71.51010514,0.6414627
QXL_1546,65,1,2024-06-20T07:53:04.280Z,english_365.wav,0,1,923,23,4,chinese,f,3,0.3,42.52309231,0.02436054
QXL_1546,65,1,2024-06-20T07:53:04.280Z,english_365.wav,0,1,923,23,4,chinese,f,4,0.4,61.30753847,0.53231596
QXL_1546,65,1,2024-06-20T07:53:04.280Z,english_365.wav,0,1,923,23,4,chinese,f,5,0.5,-34.48448602,1.68146763
QXL_1546,65,1,2024-06-20T07:53:04.280Z,english_365.wav,0,1,923,23,4,chinese,f,6,0.6,35.84346113,1.59056588
QXL_1546,65,1,2024-06-20T07:53:04.280Z,english_365.wav,0,1,923,23,4,chinese,f,7,0.7,-56.39981073,1.84748389
QXL_1546,65,1,2024-06-20T07:53:04.280Z,english_365.wav,0,1,923,23,4,chinese,f,8,0.8,-86.58866218,1.51888636
QXL_1546,65,1,2024-06-20T07:53:04.280Z,english_365.wav,0,1,923,23,4,chinese,f,9,0.9,-51.1308372,0.50507437
QXL_1546,65,1,2024-06-20T07:53:04.280Z,english_365.wav,0,1,923,23,4,chinese,f,10,1,-44.59979753,1.32144417
QXL_1546,65,1,2024-06-20T07:53:04.280Z,english_365.wav,0,1,923,23,4,chinese,f,11,1.09391667,99.72573964,1.70632081
QXL_1546,66,1,2024-06-20T07:53:04.280Z,english_349.wav,0,1,420,23,4,chinese,f,0,0,78.21791369,0.37053366
QXL_1546,66,1,2024-06-20T07:53:04.280Z,english_349.wav,0,1,420,23,4,chinese,f,1,0.1,9.4630269,0.06190409
QXL_1546,66,1,2024-06-20T07:53:04.280Z,english_349.wav,0,1,420,23,4,chinese,f,2,0.2,-3.29994587,0.20284396
QXL_1546,66,1,2024-06-20T07:53:04.280Z,english_349.wav,0,1,420,23,4,chinese,f,3,0.3,13.5324371,0.23510746
QXL_1546,66,1,2024-06-20T07:53:04.280Z,english_349.wav,0,1,420,23,4,chinese,f,4,0.4,88.19527441,1.05287262
QXL_1546,66,1,2024-06-20T07:53:04.280Z,english_349.wav,0,1,420,23,4,chinese,f,5,0.5,1.7504357,1.51424362
QXL_1546,66,1,2024-06-20T07:53:04.280Z,english_349.wav,0,1,420,23,4,chinese,f,6,0.6,-42.50120826,0.74446718
QXL_1546,66,1,2024-06-20T07:53:04.280Z,english_349.wav,0,1,420,23,4,chinese,f,7,0.7,-43.9320192,1.35303028
QXL_1546,66,1,2024-06-20T07:53:04.280Z,english_349.wav,0,1,420,23,4,chinese,f,8,0.8,-72.26393539,1.8690989
QXL_1546,66,1,2024-06-20T07:53:04.280Z,english_349.wav,0,1,420,23,4,chinese,f,9,0.9,-37.61612777,1.42604643
QXL_1546,66,1,2024-06-20T07:53:04.280Z,english_349.wav,0,1,420,23,4,chinese,f,10,1,9.822435,1.6879771
QXL_1546,66,1,2024-06-20T07:53:04.280Z,english_349.wav,0,1,420,23,4,chinese,f,11,1.09391667,-46.39218801,0.80624402
QXL_1546,67,1,2024-06-20T07:53:04.280Z,english_317.wav,0,1,676,23,4,chinese,f,0,0,35.80517537,1.51358533
QXL_1546,67,1,2024-06-20T07:53:04.280Z,english_317.wav,0,1,676,23,4,chinese,f,1,0.1,-47.20528256,0.29972078
QXL_1546,67,1,2024-06-20T07:53:04.280Z,english_317.wav,0,1,676,23,4,chinese,f,2,0.2,10.16864163,1.18281069
QXL_1546,67,1,2024-06-20T07:53:04.280Z,english_317.wav,0,1,676,23,4,chinese,f,3,0.3,32.59206289,1.39231518
QXL_1546,67,1,2024-06-20T07:53:04.280Z,english_317.wav,0,1,676,23,4,chinese,f,4,0.4,20.53754814,1.77974686
QXL_1546,67,1,2024-06-20T07:53:04.280Z,english_317.wav,0,1,676,23,4,chinese,f,5,0.5,-78.8593211,1.1695001
QXL_1546,67,1,2024-06-20T07:53:04.280Z,english_317.wav,0,1,676,23,4,chinese,f,6,0.6,-97.96541086,1.77666203
QXL_1546,67,1,2024-06-20T07:53:04.280Z,english_317.wav,0,1,676,23,4,chinese,f,7,0.7,49.60543729,0.8164879
QXL_1546,67,1,2024-06-20T07:53:04.280Z,english_317.wav,0,1,676,23,4,chinese,f,8,0.8,-69.92457952,0.08502592
QXL_1546,67,1,2024-06-20T07:53:04.280Z,english_317.wav,0,1,676,23,4,chinese,f,9,0.9,-3.69767957,1.29069951
QXL_1546,67,1,2024-06-20T07:53:04.280Z,english_317.wav,0,1,676,23,4,chinese,f,10,1,-3.35302539,0.64002495
QXL_1546,67,1,2024-06-20T07:53:04.280Z,english_317.wav,0,1,676,23,4,chinese,f,11,1.09391667,29.32411719,1.74584587
QXL_1546,68,1,2024-06-20T07:53:04.280Z,english_476.wav,0,1,544,23,4,chinese,f,0,0,44.69659717,1.41297837
QXL_1546,68,1,2024-06-20T07:53:04.280Z,english_476.wav,0,1,544,23,4,chinese,f,1,0.1,-34.716814,1.05145195
QXL_1546,68,1,2024-06-20T07:53:04.280Z,english_476.wav,0,1,544,23,4,chinese,f,2,0.2,-37.83043351,0.94681533
QXL_1546,68,1,2024-06-20T07:53:04.280Z,english_476.wav,0,1,544,23,4,chinese,f,3,0.3,-62.93772859,1.38886049
QXL_1546,68,1,2024-06-20T07:53:04.280Z,english_476.wav,0,1,544,23,4,chinese,f,4,0.4,29.80105548,0.50983073
QXL_1546,68,1,2024-06-20T07:53:04.280Z,english_476.wav,0,1,544,23,4,chinese,f,5,0.5,-19.93397346,0.87963627
QXL_1546,68,1,2024-06-20T07:53:04.280Z,english_476.wav,0,1,544,23,4,chinese,f,6,0.6,-81.51838574,0.37083783
QXL_1546,68,1,2024-06-20T07:53:04.280Z,english_476.wav,0,1,544,23,4,chinese,f,7,0.7,-13.12417842,1.60201274
QXL_1546,68,1,2024-06-20T07:53:04.280Z,english_476.wav,0,1,544,23,4,chinese,f,8,0.8,-49.11622946,0.02246419
QXL_1546,68,1,2024-06-20T07:53:04.280Z,english_476.wav,0,1,544,23,4,chinese,f,9,0.9,-40.62215118,1.35146298
QXL_1546,68,1,2024-06-20T07:53:04.280Z,english_476.wav,0,1,544,23,4,chinese,f,10,1,-29.85989769,1.39707139
QXL_1546,68,1,2024-06-20T07:53:04.280Z,english_476.wav,0,1,544,23,4,chinese,f,11,1.09391667,-46.8973955,0.19828042
QXL_1546,69,1,2024-06-20T07:53:04.280Z,english_76.wav,0,1,1020,23,4,chinese,f,0,0,24.53692124,0.00919351
QXL_1546,69,1,2024-06-20T07:53:04.280Z,english_76.wav,0,1,1020,23,4,chinese,f,1,0.1,4.74525032,1.89780668
QXL_1546,69,1,2024-06-20T07:53:04.280Z,english_76.wav,0,1,1020,23,4,chinese,f,2,0.2,-11.73085706,1.28424019
QXL_1546,69,1,2024-06-20T07:53:04.280Z,english_76.wav,0,1,1020,23,4,chinese,f,3,0.3,-67.51409973,0.97330389
QXL_1546,69,1,2024-06-20T07:53:04.280Z,english_76.wav,0,1,1020,23,4,chinese,f,4,0.4,18.72894419,1.57704982
QXL_1546,69,1,2024-06-20T07:53:04.280Z,english_76.wav,0,1,1020,23,4,chinese,f,5,0.5,-87.08655703,0.6100989
QXL_1546,69,1,2024-06-20T07:53:04.280Z,english_76.wav,0,1,1020,23,4,chinese,f,6,0.6,8.86378377,0.1303689
QXL_1546,69,1,2024-06-20T07:53:04.280Z,english_76.wav,0,1,1020,23,4,chinese,f,7,0.7,-88.70159666,1.07980698
QXL_1546,69,1,2024-06-20T07:53:04.280Z,english_76.wav,0,1,1020,23,4,chinese,f,8,0.8,-19.63742154,0.36042094
QXL_1546,69,1,2024-06-20T07:53:04.280Z,english_76.wav,0,1,1020,23,4,chinese,f,9,0.9,-28.01043875,1.46264173
QXL_1546,69,1,2024-06-20T07:53:04.280Z,english_76.wav,0,1,1020,23,4,chinese,f,10,1,-30.77636244,0.93716424
QXL_1546,69,1,2024-06-20T07:53:04.280Z,english_76.wav,0,1,1020,23,4,chinese,f,11,1.09391667,-23.02477644,0.27656628
QXL_1546,70,1,2024-06-20T07:53:04.280Z,english_236.wav,0,1,403,23,4,chinese,f,0,0,-58.47147348,1.25570844
QXL_1546,70,1,2024-06-20T07:53:04.280Z,english_236.wav,0,1,403,23,4,chinese,f,1,0.1,25.25879028,1.3068123
QXL_1546,70,1,2024-06-20T07:53:04.280Z,english_236.wav,0,1,403,23,4,chinese,f,2,0.2,-78.78616324,1.48831799
QXL_1546,70,1,2024-06-20T07:53:04.280Z,english_236.wav,0,1,403,23,4,chinese,f,3,0.3,11.29938963,0.34919936
QXL_1546,70,1,2024-06-20T07:53:04.280Z,english_236.wav,0,1,403,23,4,chinese,f,4,0.4,39.53352696,1.00725943
QXL_1546,70,1,2024-06-20T07:53:04.280Z,english_236.wav,0,1,403,23,4,chinese,f,5,0.5,91.57483284,1.25472599
QXL_1546,70,1,2024-06-20T07:53:04.280Z,english_236.wav,0,1,403,23,4,chinese,f,6,0.6,22.72019707,1.46652556
QXL_1546,70,1,2024-06-20T07:53:04.280Z,english_236.wav,0,1,403,23,4,chinese,f,7,0.7,30.21012118,0.98566412
QXL_1546,70,1,2024-06-20T07:53:04.280Z,english_236.wav,0,1,403,23,4,chinese,f,8,0.8,-41.20304871,1.93402839
QXL_1546,70,1,2024-06-20T07:53:04.280Z,english_236.wav,0,1,403,23,4,chinese,f,9,0.9,28.6164571,1.61503367
QXL_1546,70,1,2024-06-20T07:53:04.280Z,english_236.wav,0,1,403,23,4,chinese,f,10,1,36.23029146,0.92571768
QXL_1546,70,1,2024-06-20T07:53:04.280Z,english_236.wav,0,1,403,23,4,chinese,f,11,1.09391667,-21.60177346,1.50534637
QXL_1546,71,1,2024-06-20T07:53:04.280Z,english_694.wav,0,1,472,23,4,chinese,f,0,0,28.89643962,0.23097519
QXL_1546,71,1,2024-06-20T07:53:04.280Z,english_694.wav,0,1,472,23,4,chinese,f,1,0.1,-44.49941165,1.12594213
QXL_1546,71,1,2024-06-20T07:53:04.280Z,english_694.wav,0,1,472,23,4,chinese,f,2,0.2,60.6754056,1.01502789
QXL_1546,71,1,2024-06-20T07:53:04.280Z,english_694.wav,0,1,472,23,4,chinese,f,3,0.3,72.66869222,0.55545347
QXL_1546,71,1,2024-06-20T07:53:04.280Z,english_694.wav,0,1,472,23,4,chinese,f,4,0.4,26.91102981,0.313515
QXL_1546,71,1,2024-06-20T07:53:04.280Z,english_694.wav,0,1,472,23,4,chinese,f,5,0.5,-19.36398165,0.8133174
QXL_1546,71,1,2024-06-20T07:53:04.280Z,english_694.wav,0,1,472,23,4,chinese,f,6,0.6,83.61982614,0.08479119
QXL_1546,71,1,2024-06-20T07:53:04.280Z,english_694.wav,0,1,472,23,4,chinese,f,7,0.7,-93.83830037,1.36590055
QXL_1546,71,1,2024-06-20T07:53:04.280Z,english_694.wav,0,1,472,23,4,chinese,f,8,0.8,-41.75440855,1.50882856
QXL_1546,71,1,2024-06-20T07:53:04.280Z,english_694.wav,0,1,472,23,4,chinese,f,9,0.9,-17.17525064,1.54263899
QXL_1546,71,1,2024-06-20T07:53:04.280Z,english_694.wav,0,1,472,23,4,chinese,f,10,1,5.88397372,1.28663395
QXL_1546,71,1,2024-06-20T07:53:04.280Z,english_694.wav,0,1,472,23,4,chinese,f,11,1.09391667,84.29938157,0.05122723
QXL_1546,72,1,2024-06-20T07:53:04.280Z,english_437.wav,0,0,635,23,4,chinese,f,0,0,33.55993848,1.07053388
QXL_1546,72,1,2024-06-20T07:53:04.280Z,english_437.wav,0,0,635,23,4,chinese,f,1,0.1,99.2710896,1.13266277
QXL_1546,72,1,2024-06-20T07:53:04.280Z,english_437.wav,0,0,635,23,4,chinese,f,2,0.2,-32.57477065,1.9895336
QXL_1546,72,1,2024-06-20T07:53:04.280Z,english_437.wav,0,0,635,23,4,chinese,f,3,0.3,-17.79752124,1.49721118
QXL_1546,72,1,2024-06-20T07:53:04.280Z,english_437.wav,0,0,635,23,4,chinese,f,4,0.4,7.76381485,1.18690415
QXL_1546,72,1,2024-06-20T07:53:04.280Z,english_437.wav,0,0,635,23,4,chinese,f,5,0.5,-50.05370097,1.89119188
QXL_1546,72,1,2024-06-20T07:53:04.280Z,english_437.wav,0,0,635,23,4,chinese,f,6,0.6,5.06874502,0.49511118
QXL_1546,72,1,2024-06-20T07:53:04.280Z,english_437.wav,0,0,635,23,4,chinese,f,7,0.7,1.99558214,1.27007291
QXL_1546,72,1,2024-06-20T07:53:04.280Z,english_437.wav,0,0,635,23,4,chinese,f,8,0.8,43.8272749,1.66092274
QXL_1546,72,1,2024-06-20T07:53:04.280Z,english_437.wav,0,0,635,23,4,chinese,f,9,0.9,98.27063476,0.51492766
QXL_1546,72,1,2024-06-20T07:53:04.280Z,english_437.wav,0,0,635,23,4,chinese,f,10,1,18.74881687,0.04140418
QXL_1546,72,1,2024-06-20T07:53:04.280Z,english_437.wav,0,0,635,23,4,chinese,f,11,1.09391667,-57.70401561,0.6117047
QXL_1546,73,1,2024-06-20T07:53:04.280Z,english_394.wav,0,0,349,23,4,chinese,f,0,0,-15.73952497,0.37404547
QXL_1546,73,1,2024-06-20T07:53:04.280Z,english_394.wav,0,0,349,23,4,chinese,f,1,0.1,-72.53875874,0.74662783
QXL_1546,73,1,2024-06-20T07:53:04.280Z,english_394.wav,0,0,349,23,4,chinese,f,2,0.2,-2.77448658,0.09869687
QXL_1546,73,1,2024-06-20T07:53:04.280Z,english_394.wav,0,0,349,23,4,chinese,f,3,0.3,-34.13929652,0.4926167
QXL_1546,73,1,2024-06-20T07:53:04.280Z,english_394.wav,0,0,349,23,4,chinese,f,4,0.4,98.89455917,0.88094357
QXL_1546,73,1,2024-06-20T07:53:04.280Z,english_394.wav,0,0,349,23,4,chinese,f,5,0.5,92.17283268,1.74845503
QXL_1546,73,1,2024-06-20T07:53:04.280Z,english_394.wav,0,0,349,23,4,chinese,f,6,0.6,57.90330337,0.56104095
QXL_1546,73,1,2024-06-20T07:53:04.280Z,english_394.wav,0,0,349,23,4,chinese,f,7,0.7,42.86143517,1.17773509
QXL_1546,73,1,2024-06-20T07:53:04.280Z,english_394.wav,0,0,349,23,4,chinese,f,8,0.8,-24.72366611,1.30676371
QXL_1546,73,1,2024-06-20T07:53:04.280Z,english_394.wav,0,0,349,23,4,chinese,f,9,0.9,1.80991862,0.02013397
QXL_1546,73,1,2024-06-20T07:53:04.280Z,english_394.wav,0,0,349,23,4,chinese,f,10,1,-3.52242486,1.86341361
QXL_1546,73,1,2024-06-20T07:53:04.280Z,english_394.wav,0,0,349,23,4,chinese,f,11,1.09391667,-17.84344946,0.37928015
QXL_1546,74,1,2024-06-20T07:53:04.280Z,english_272.wav,0,1,490,23,4,chinese,f,0,0,-52.99211904,1.4863423
QXL_1546,74,1,2024-06-20T07:53:04.280Z,english_272.wav,0,1,490,23,4,chinese,f,1,0.1,-25.71564607,1.69746599
QXL_1546,74,1,2024-06-20T07:53:04.280Z,english_272.wav,0,1,490,23,4,chinese,f,2,0.2,-56.58642074,0.8962104
QXL_1546,74,1,2024-06-20T07:53:04.280Z,english_272.wav,0,1,490,23,4,chinese,f,3,0.3,-87.92268727,1.48386127
QXL_1546,74,1,2024-06-20T07:53:04.280Z,english_272.wav,0,1,490,23,4,chinese,f,4,0.4,-77.06370831,1.12180502
QXL_1546,74,1,2024-06-20T07:53:04.280Z,english_272.wav,0,1,490,23,4,chinese,f,5,0.5,85.07000432,1.22395179
QXL_1546,74,1,2024-06-20T07:53:04.280Z,english_272.wav,0,1,490,23,4,chinese,f,6,0.6,13.520854,1.22503653
QXL_1546,74,1,2024-06-20T07:53:04.280Z,english_272.wav,0,1,490,23,4,chinese,f,7,0.7,85.24542971,0.66217064
QXL_1546,74,1,2024-06-20T07:53:04.280Z,english_272.wav,0,1,490,23,4,chinese,f,8,0.8,21.00568548,1.40926924
QXL_1546,74,1,2024-06-20T07:53:04.280Z,english_272.wav,0,1,490,23,4,chinese,f,9,0.9,47.91949332,0.42323382
QXL_1546,74,1,2024-06-20T07:53:04.280Z,english_272.wav,0,1,490,23,4,chinese,f,10,1,-9.98443485,1.68730728
QXL_1546,74,1,2024-06-20T07:53:04.280Z,english_272.wav,0,1,490,23,4,chinese,f,11,1.09391667,-3.7192884,1.76864858
QXL_1546,75,1,2024-06-20T07:53:04.280Z,english_445.wav,0,0,561,23,4,chinese,f,0,0,76.42112213,1.57802926
QXL_1546,75,1,2024-06-20T07:53:04.280Z,english_445.wav,0,0,561,23,4,chinese,f,1,0.1,-97.95203426,1.29835175
QXL_1546,75,1,2024-06-20T07:53:04.280Z,english_445.wav,0,0,561,23,4,chinese,f,2,0.2,-59.82746333,0.53636504
QXL_1546,75,1,2024-06-20T07:53:04.280Z,english_445.wav,0,0,561,23,4,chinese,f,3,0.3,-13.48573522,1.2021667
QXL_1546,75,1,2024-06-20T07:53:04.280Z,english_445.wav,0,0,561,23,4,chinese,f,4,0.4,81.29973607,1.41426839
QXL_1546,75,1,2024-06-20T07:53:04.280Z,english_445.wav,0,0,561,23,4,chinese,f,5,0.5,41.3671656,1.60295296
QXL_1546,75,1,2024-06-20T07:53:04.280Z,english_445.wav,0,0,561,23,4,chinese,f,6,0.6,-85.98514438,0.58159358
QXL_1546,75,1,2024-06-20T07:53:04.280Z,english_445.wav,0,0,561,23,4,chinese,f,7,0.7,57.90232239,0.76199649
QXL_1546,75,1,2024-06-20T07:53:04.280Z,english_445.wav,0,0,561,23,4,chinese,f,8,0.8,-95.60547231,0.54097795
QXL_1546,75,1,2024-06-20T07:53:04.280Z,english_445.wav,0,0,561,23,4,chinese,f,9,0.9,17.13362758,0.00538706
QXL_1546,75,1,2024-06-20T07:53:04.280Z,english_445.wav,0,0,561,23,4,chinese,f,10,1,46.54539843,0.3060589
QXL_1546,75,1,2024-06-20T07:53:04.280Z,english_445.wav,0,0,561,23,4,chinese,f,11,1.09391667,43.78720367,1.39576853
QXL_1546,76,1,2024-06-20T07:53:04.280Z,english_235.wav,0,1,365,23,4,chinese,f,0,0,44.65499148,0.45157531
QXL_1546,76,1,2024-06-20T07:53:04.280Z,english_235.wav,0,1,365,23,4,chinese,f,1,0.1,77.52873905,0.81502167
QXL_1546,76,1,2024-06-20T07:53:04.280Z,english_235.wav,0,1,365,23,4,chinese,f,2,0.2,7.66193616,0.73184795
QXL_1546,76,1,2024-06-20T07:53:04.280Z,english_235.wav,0,1,365,23,4,chinese,f,3,0.3,-36.65234069,1.39041991
QXL_1546,76,1,2024-06-20T07:53:04.280Z,english_235.wav,0,1,365,23,4,chinese,f,4,0.4,-38.57977077,0.8131102
QXL_1546,76,1,2024-06-20T07:53:04.280Z,english_235.wav,0,1,365,23,4,chinese,f,5,0.5,-69.81992681,0.63770546
QXL_1546,76,1,2024-06-20T07:53:04.280Z,english_235.wav,0,1,365,23,4,chinese,f,6,0.6,-3.21185942,0.48204551
QXL_1546,76,1,2024-06-20T07:53:04.280Z,english_235.wav,0,1,365,23,4,chinese,f,7,0.7,-3.7989625,0.64449527
QXL_1546,76,1,2024-06-20T07:53:04.280Z,english_235.wav,0,1,365,23,4,chinese,f,8,0.8,-60.5356981,0.17411585
QXL_1546,76,1,2024-06-20T07:53:04.280Z,english_235.wav,0,1,365,23,4,chinese,f,9,0.9,10.60420307,1.43103789
QXL_1546,76,1,2024-06-20T07:53:04.280Z,english_235.wav,0,1,365,23,4,chinese,f,10,1,73.74029871,1.90034823
QXL_1546,76,1,2024-06-20T07:53:04.280Z,english_235.wav,0,1,365,23,4,chinese,f,11,1.09391667,-42.3978276,0.79167247
QXL_1546,77,1,2024-06-20T07:53:04.280Z,english_358.wav,0,1,213,23,4,chinese,f,0,0,92.28677649,0.81523353
QXL_1546,77,1,2024-06-20T07:53:04.280Z,english_358.wav,0,1,213,23,4,chinese,f,1,0.1,-12.9582866,0.40862617
QXL_1546,77,1,2024-06-20T07:53:04.280Z,english_358.wav,0,1,213,23,4,chinese,f,2,0.2,-98.82534689,0.64915378
