subj,trial,block,date,stim,stim_order,response,rt,age,english,language,sex,param_index,segment,pitch,stretch
TWP_2025,0,0,2024-06-20T12:26:44.931Z,english_732.wav,0,1,5105,22,4,Chinese,f,0,0,-6.1655518,1.83743041
TWP_2025,0,0,2024-06-20T12:26:44.931Z,english_732.wav,0,1,5105,22,4,Chinese,f,1,0.1,-21.68268247,0.45034165
TWP_2025,0,0,2024-06-20T12:26:44.931Z,english_732.wav,0,1,5105,22,4,Chinese,f,2,0.2,-44.18505393,1.43977044
TWP_2025,0,0,2024-06-20T12:26:44.931Z,english_732.wav,0,1,5105,22,4,Chinese,f,3,0.3,-99.08787178,1.63276402
TWP_2025,0,0,2024-06-20T12:26:44.931Z,english_732.wav,0,1,5105,22,4,Chinese,f,4,0.4,52.69419041,1.14410498
TWP_2025,0,0,2024-06-20T12:26:44.931Z,english_732.wav,0,1,5105,22,4,Chinese,f,5,0.5,-22.76801282,0.80499942
TWP_2025,0,0,2024-06-20T12:26:44.931Z,english_732.wav,0,1,5105,22,4,Chinese,f,6,0.6,-68.37024344,0.00488355
TWP_2025,0,0,2024-06-20T12:26:44.931Z,english_732.wav,0,1,5105,22,4,Chinese,f,7,0.7,99.79862575,1.08087267
TWP_2025,0,0,2024-06-20T12:26:44.931Z,english_732.wav,0,1,5105,22,4,Chinese,f,8,0.8,-45.96985204,0.60546967
TWP_2025,0,0,2024-06-20T12:26:44.931Z,english_732.wav,0,1,5105,22,4,Chinese,f,9,0.9,34.4904792,1.53964006
TWP_2025,0,0,2024-06-20T12:26:44.931Z,english_732.wav,0,1,5105,22,4,Chinese,f,10,1,-81.20928849,0.59388625
TWP_2025,0,0,2024-06-20T12:26:44.931Z,english_732.wav,0,1,5105,22,4,Chinese,f,11,1.09391667,-1.26617119,1.72169188
TWP_2025,1,0,2024-06-20T12:26:44.931Z,english_349.wav,0,1,3947,22,4,Chinese,f,0,0,78.21791369,0.37053366
TWP_2025,1,0,2024-06-20T12:26:44.931Z,english_349.wav,0,1,3947,22,4,Chinese,f,1,0.1,9.4630269,0.06190409
TWP_2025,1,0,2024-06-20T12:26:44.931Z,english_349.wav,0,1,3947,22,4,Chinese,f,2,0.2,-3.29994587,0.20284396
TWP_2025,1,0,2024-06-20T12:26:44.931Z,english_349.wav,0,1,3947,22,4,Chinese,f,3,0.3,13.5324371,0.23510746
TWP_2025,1,0,2024-06-20T12:26:44.931Z,english_349.wav,0,1,3947,22,4,Chinese,f,4,0.4,88.19527441,1.05287262
TWP_2025,1,0,2024-06-20T12:26:44.931Z,english_349.wav,0,1,3947,22,4,Chinese,f,5,0.5,1.7504357,1.51424362
TWP_2025,1,0,2024-06-20T12:26:44.931Z,english_349.wav,0,1,3947,22,4,Chinese,f,6,0.6,-42.50120826,0.74446718
TWP_2025,1,0,2024-06-20T12:26:44.931Z,english_349.wav,0,1,3947,22,4,Chinese,f,7,0.7,-43.9320192,1.35303028
TWP_2025,1,0,2024-06-20T12:26:44.931Z,english_349.wav,0,1,3947,22,4,Chinese,f,8,0.8,-72.26393539,1.8690989
TWP_2025,1,0,2024-06-20T12:26:44.931Z,english_349.wav,0,1,3947,22,4,Chinese,f,9,0.9,-37.61612777,1.42604643
TWP_2025,1,0,2024-06-20T12:26:44.931Z,english_349.wav,0,1,3947,22,4,Chinese,f,10,1,9.822435,1.6879771
TWP_2025,1,0,2024-06-20T12:26:44.931Z,english_349.wav,0,1,3947,22,4,Chinese,f,11,1.09391667,-46.39218801,0.80624402
TWP_2025,2,0,2024-06-20T12:26:44.931Z,english_160.wav,0,1,4405,22,4,Chinese,f,0,0,54.87282188,1.23358014
TWP_2025,2,0,2024-06-20T12:26:44.931Z,english_160.wav,0,1,4405,22,4,Chinese,f,1,0.1,38.39559314,0.90117281
TWP_2025,2,0,2024-06-20T12:26:44.931Z,english_160.wav,0,1,4405,22,4,Chinese,f,2,0.2,45.94024754,1.29672558
TWP_2025,2,0,2024-06-20T12:26:44.931Z,english_160.wav,0,1,4405,22,4,Chinese,f,3,0.3,23.2538411,1.0625388
TWP_2025,2,0,2024-06-20T12:26:44.931Z,english_160.wav,0,1,4405,22,4,Chinese,f,4,0.4,-76.36457338,1.82179424
TWP_2025,2,0,2024-06-20T12:26:44.931Z,english_160.wav,0,1,4405,22,4,Chinese,f,5,0.5,-7.52503837,0.15771982
TWP_2025,2,0,2024-06-20T12:26:44.931Z,english_160.wav,0,1,4405,22,4,Chinese,f,6,0.6,-67.2018033,1.20020733
TWP_2025,2,0,2024-06-20T12:26:44.931Z,english_160.wav,0,1,4405,22,4,Chinese,f,7,0.7,40.79859053,1.72655744
TWP_2025,2,0,2024-06-20T12:26:44.931Z,english_160.wav,0,1,4405,22,4,Chinese,f,8,0.8,-54.00476677,1.68926394
TWP_2025,2,0,2024-06-20T12:26:44.931Z,english_160.wav,0,1,4405,22,4,Chinese,f,9,0.9,-39.47782367,0.81447331
TWP_2025,2,0,2024-06-20T12:26:44.931Z,english_160.wav,0,1,4405,22,4,Chinese,f,10,1,13.27455738,0.52461363
TWP_2025,2,0,2024-06-20T12:26:44.931Z,english_160.wav,0,1,4405,22,4,Chinese,f,11,1.09391667,82.72582228,1.24111221
TWP_2025,3,0,2024-06-20T12:26:44.931Z,english_366.wav,0,1,969,22,4,Chinese,f,0,0,-51.97670193,0.41387665
TWP_2025,3,0,2024-06-20T12:26:44.931Z,english_366.wav,0,1,969,22,4,Chinese,f,1,0.1,-66.3802986,1.82440093
TWP_2025,3,0,2024-06-20T12:26:44.931Z,english_366.wav,0,1,969,22,4,Chinese,f,2,0.2,-43.44577517,1.51666721
TWP_2025,3,0,2024-06-20T12:26:44.931Z,english_366.wav,0,1,969,22,4,Chinese,f,3,0.3,-27.66745881,0.79221573
TWP_2025,3,0,2024-06-20T12:26:44.931Z,english_366.wav,0,1,969,22,4,Chinese,f,4,0.4,-24.71146446,1.07358208
TWP_2025,3,0,2024-06-20T12:26:44.931Z,english_366.wav,0,1,969,22,4,Chinese,f,5,0.5,7.18823907,0.88629464
TWP_2025,3,0,2024-06-20T12:26:44.931Z,english_366.wav,0,1,969,22,4,Chinese,f,6,0.6,-1.04467208,1.421231
TWP_2025,3,0,2024-06-20T12:26:44.931Z,english_366.wav,0,1,969,22,4,Chinese,f,7,0.7,-90.31563808,0.93675223
TWP_2025,3,0,2024-06-20T12:26:44.931Z,english_366.wav,0,1,969,22,4,Chinese,f,8,0.8,-10.23526275,1.47759882
TWP_2025,3,0,2024-06-20T12:26:44.931Z,english_366.wav,0,1,969,22,4,Chinese,f,9,0.9,47.79218582,1.29623614
TWP_2025,3,0,2024-06-20T12:26:44.931Z,english_366.wav,0,1,969,22,4,Chinese,f,10,1,3.55736556,1.92903866
TWP_2025,3,0,2024-06-20T12:26:44.931Z,english_366.wav,0,1,969,22,4,Chinese,f,11,1.09391667,-83.88061388,1.30968338
TWP_2025,4,0,2024-06-20T12:26:44.931Z,english_465.wav,0,1,1227,22,4,Chinese,f,0,0,32.62808343,1.95674705
TWP_2025,4,0,2024-06-20T12:26:44.931Z,english_465.wav,0,1,1227,22,4,Chinese,f,1,0.1,-19.45954063,0.2020369
TWP_2025,4,0,2024-06-20T12:26:44.931Z,english_465.wav,0,1,1227,22,4,Chinese,f,2,0.2,31.8583501,0.52421729
TWP_2025,4,0,2024-06-20T12:26:44.931Z,english_465.wav,0,1,1227,22,4,Chinese,f,3,0.3,62.10393883,0.65974817
TWP_2025,4,0,2024-06-20T12:26:44.931Z,english_465.wav,0,1,1227,22,4,Chinese,f,4,0.4,18.6647785,0.39728546
TWP_2025,4,0,2024-06-20T12:26:44.931Z,english_465.wav,0,1,1227,22,4,Chinese,f,5,0.5,60.37095119,0.37134149
TWP_2025,4,0,2024-06-20T12:26:44.931Z,english_465.wav,0,1,1227,22,4,Chinese,f,6,0.6,-66.90125798,0.92371442
TWP_2025,4,0,2024-06-20T12:26:44.931Z,english_465.wav,0,1,1227,22,4,Chinese,f,7,0.7,-81.40602189,0.31310251
TWP_2025,4,0,2024-06-20T12:26:44.931Z,english_465.wav,0,1,1227,22,4,Chinese,f,8,0.8,50.53882687,1.13414137
TWP_2025,4,0,2024-06-20T12:26:44.931Z,english_465.wav,0,1,1227,22,4,Chinese,f,9,0.9,-56.46028762,0.34422608
TWP_2025,4,0,2024-06-20T12:26:44.931Z,english_465.wav,0,1,1227,22,4,Chinese,f,10,1,17.60561432,1.91257156
TWP_2025,4,0,2024-06-20T12:26:44.931Z,english_465.wav,0,1,1227,22,4,Chinese,f,11,1.09391667,99.29101089,1.23959362
TWP_2025,5,0,2024-06-20T12:26:44.931Z,english_899.wav,0,0,6352,22,4,Chinese,f,0,0,36.05043058,0.90588284
TWP_2025,5,0,2024-06-20T12:26:44.931Z,english_899.wav,0,0,6352,22,4,Chinese,f,1,0.1,33.3197066,1.60760833
TWP_2025,5,0,2024-06-20T12:26:44.931Z,english_899.wav,0,0,6352,22,4,Chinese,f,2,0.2,-89.01295916,1.45467369
TWP_2025,5,0,2024-06-20T12:26:44.931Z,english_899.wav,0,0,6352,22,4,Chinese,f,3,0.3,98.52221139,0.4019209
TWP_2025,5,0,2024-06-20T12:26:44.931Z,english_899.wav,0,0,6352,22,4,Chinese,f,4,0.4,-46.63657868,1.10920818
TWP_2025,5,0,2024-06-20T12:26:44.931Z,english_899.wav,0,0,6352,22,4,Chinese,f,5,0.5,-65.65669191,1.04007942
TWP_2025,5,0,2024-06-20T12:26:44.931Z,english_899.wav,0,0,6352,22,4,Chinese,f,6,0.6,76.90163594,0.20562094
TWP_2025,5,0,2024-06-20T12:26:44.931Z,english_899.wav,0,0,6352,22,4,Chinese,f,7,0.7,36.98286823,0.26673383
TWP_2025,5,0,2024-06-20T12:26:44.931Z,english_899.wav,0,0,6352,22,4,Chinese,f,8,0.8,58.54417199,0.17186704
TWP_2025,5,0,2024-06-20T12:26:44.931Z,english_899.wav,0,0,6352,22,4,Chinese,f,9,0.9,37.91895182,1.28815156
TWP_2025,5,0,2024-06-20T12:26:44.931Z,english_899.wav,0,0,6352,22,4,Chinese,f,10,1,-84.2401269,0.03412997
TWP_2025,5,0,2024-06-20T12:26:44.931Z,english_899.wav,0,0,6352,22,4,Chinese,f,11,1.09391667,-3.10665722,1.51688145
TWP_2025,6,0,2024-06-20T12:26:44.931Z,english_162.wav,0,1,6602,22,4,Chinese,f,0,0,26.55716136,1.5554451
TWP_2025,6,0,2024-06-20T12:26:44.931Z,english_162.wav,0,1,6602,22,4,Chinese,f,1,0.1,11.82804586,0.73276272
TWP_2025,6,0,2024-06-20T12:26:44.931Z,english_162.wav,0,1,6602,22,4,Chinese,f,2,0.2,-23.9414726,1.80328422
TWP_2025,6,0,2024-06-20T12:26:44.931Z,english_162.wav,0,1,6602,22,4,Chinese,f,3,0.3,-1.71566049,0.92347316
TWP_2025,6,0,2024-06-20T12:26:44.931Z,english_162.wav,0,1,6602,22,4,Chinese,f,4,0.4,-19.44382046,0.80698984
TWP_2025,6,0,2024-06-20T12:26:44.931Z,english_162.wav,0,1,6602,22,4,Chinese,f,5,0.5,-4.89650776,1.82055232
TWP_2025,6,0,2024-06-20T12:26:44.931Z,english_162.wav,0,1,6602,22,4,Chinese,f,6,0.6,-86.90887997,1.9917578
TWP_2025,6,0,2024-06-20T12:26:44.931Z,english_162.wav,0,1,6602,22,4,Chinese,f,7,0.7,-2.56378327,0.80582965
TWP_2025,6,0,2024-06-20T12:26:44.931Z,english_162.wav,0,1,6602,22,4,Chinese,f,8,0.8,6.4232906,1.51404022
TWP_2025,6,0,2024-06-20T12:26:44.931Z,english_162.wav,0,1,6602,22,4,Chinese,f,9,0.9,85.15737342,0.66169756
TWP_2025,6,0,2024-06-20T12:26:44.931Z,english_162.wav,0,1,6602,22,4,Chinese,f,10,1,86.70536365,0.35533471
TWP_2025,6,0,2024-06-20T12:26:44.931Z,english_162.wav,0,1,6602,22,4,Chinese,f,11,1.09391667,85.58259912,1.22719758
TWP_2025,7,0,2024-06-20T12:26:44.931Z,english_251.wav,0,1,1754,22,4,Chinese,f,0,0,-93.03805102,1.12342723
TWP_2025,7,0,2024-06-20T12:26:44.931Z,english_251.wav,0,1,1754,22,4,Chinese,f,1,0.1,51.2655571,1.9149468
TWP_2025,7,0,2024-06-20T12:26:44.931Z,english_251.wav,0,1,1754,22,4,Chinese,f,2,0.2,37.58283666,1.73876516
TWP_2025,7,0,2024-06-20T12:26:44.931Z,english_251.wav,0,1,1754,22,4,Chinese,f,3,0.3,-55.53133441,1.01047504
TWP_2025,7,0,2024-06-20T12:26:44.931Z,english_251.wav,0,1,1754,22,4,Chinese,f,4,0.4,98.21602679,0.87048418
TWP_2025,7,0,2024-06-20T12:26:44.931Z,english_251.wav,0,1,1754,22,4,Chinese,f,5,0.5,-85.24256095,1.77281536
TWP_2025,7,0,2024-06-20T12:26:44.931Z,english_251.wav,0,1,1754,22,4,Chinese,f,6,0.6,-76.0460332,1.29741372
TWP_2025,7,0,2024-06-20T12:26:44.931Z,english_251.wav,0,1,1754,22,4,Chinese,f,7,0.7,26.51950349,0.41684213
TWP_2025,7,0,2024-06-20T12:26:44.931Z,english_251.wav,0,1,1754,22,4,Chinese,f,8,0.8,-37.24987979,1.13690271
TWP_2025,7,0,2024-06-20T12:26:44.931Z,english_251.wav,0,1,1754,22,4,Chinese,f,9,0.9,-60.42287441,1.00770315
TWP_2025,7,0,2024-06-20T12:26:44.931Z,english_251.wav,0,1,1754,22,4,Chinese,f,10,1,31.01216571,0.51077747
TWP_2025,7,0,2024-06-20T12:26:44.931Z,english_251.wav,0,1,1754,22,4,Chinese,f,11,1.09391667,74.35472995,0.89311028
TWP_2025,8,0,2024-06-20T12:26:44.931Z,english_402.wav,0,1,1695,22,4,Chinese,f,0,0,13.762471,1.51429567
TWP_2025,8,0,2024-06-20T12:26:44.931Z,english_402.wav,0,1,1695,22,4,Chinese,f,1,0.1,56.960538,1.68766969
TWP_2025,8,0,2024-06-20T12:26:44.931Z,english_402.wav,0,1,1695,22,4,Chinese,f,2,0.2,31.61900178,1.34501255
TWP_2025,8,0,2024-06-20T12:26:44.931Z,english_402.wav,0,1,1695,22,4,Chinese,f,3,0.3,-58.12329087,0.78143448
TWP_2025,8,0,2024-06-20T12:26:44.931Z,english_402.wav,0,1,1695,22,4,Chinese,f,4,0.4,-92.10904416,0.95522192
TWP_2025,8,0,2024-06-20T12:26:44.931Z,english_402.wav,0,1,1695,22,4,Chinese,f,5,0.5,-26.99116943,1.16323619
TWP_2025,8,0,2024-06-20T12:26:44.931Z,english_402.wav,0,1,1695,22,4,Chinese,f,6,0.6,2.85267641,0.43497741
TWP_2025,8,0,2024-06-20T12:26:44.931Z,english_402.wav,0,1,1695,22,4,Chinese,f,7,0.7,-21.2400385,1.84271931
TWP_2025,8,0,2024-06-20T12:26:44.931Z,english_402.wav,0,1,1695,22,4,Chinese,f,8,0.8,47.25195685,1.28114522
TWP_2025,8,0,2024-06-20T12:26:44.931Z,english_402.wav,0,1,1695,22,4,Chinese,f,9,0.9,86.30516809,0.9091169
TWP_2025,8,0,2024-06-20T12:26:44.931Z,english_402.wav,0,1,1695,22,4,Chinese,f,10,1,-9.29622935,1.84546322
TWP_2025,8,0,2024-06-20T12:26:44.931Z,english_402.wav,0,1,1695,22,4,Chinese,f,11,1.09391667,3.14612385,0.72114292
TWP_2025,9,0,2024-06-20T12:26:44.931Z,english_123.wav,0,1,711,22,4,Chinese,f,0,0,-32.38117679,1.9386571
TWP_2025,9,0,2024-06-20T12:26:44.931Z,english_123.wav,0,1,711,22,4,Chinese,f,1,0.1,-64.71485254,0.09408227
TWP_2025,9,0,2024-06-20T12:26:44.931Z,english_123.wav,0,1,711,22,4,Chinese,f,2,0.2,-18.01291226,0.88874753
TWP_2025,9,0,2024-06-20T12:26:44.931Z,english_123.wav,0,1,711,22,4,Chinese,f,3,0.3,-79.77518117,1.32217329
TWP_2025,9,0,2024-06-20T12:26:44.931Z,english_123.wav,0,1,711,22,4,Chinese,f,4,0.4,-61.15753939,0.99742331
TWP_2025,9,0,2024-06-20T12:26:44.931Z,english_123.wav,0,1,711,22,4,Chinese,f,5,0.5,5.43029515,0.11774982
TWP_2025,9,0,2024-06-20T12:26:44.931Z,english_123.wav,0,1,711,22,4,Chinese,f,6,0.6,-66.97873388,0.31317678
TWP_2025,9,0,2024-06-20T12:26:44.931Z,english_123.wav,0,1,711,22,4,Chinese,f,7,0.7,5.34490813,0.67167814
TWP_2025,9,0,2024-06-20T12:26:44.931Z,english_123.wav,0,1,711,22,4,Chinese,f,8,0.8,4.4190052,1.13014618
TWP_2025,9,0,2024-06-20T12:26:44.931Z,english_123.wav,0,1,711,22,4,Chinese,f,9,0.9,-81.7992949,1.16110431
TWP_2025,9,0,2024-06-20T12:26:44.931Z,english_123.wav,0,1,711,22,4,Chinese,f,10,1,16.85173502,1.02455086
TWP_2025,9,0,2024-06-20T12:26:44.931Z,english_123.wav,0,1,711,22,4,Chinese,f,11,1.09391667,68.10720927,1.2246775
TWP_2025,10,0,2024-06-20T12:26:44.931Z,english_19.wav,0,0,2665,22,4,Chinese,f,0,0,34.83932387,0.39991481
TWP_2025,10,0,2024-06-20T12:26:44.931Z,english_19.wav,0,0,2665,22,4,Chinese,f,1,0.1,-48.03564672,0.42708011
TWP_2025,10,0,2024-06-20T12:26:44.931Z,english_19.wav,0,0,2665,22,4,Chinese,f,2,0.2,-39.79994301,1.66102439
TWP_2025,10,0,2024-06-20T12:26:44.931Z,english_19.wav,0,0,2665,22,4,Chinese,f,3,0.3,55.51204031,0.51091135
TWP_2025,10,0,2024-06-20T12:26:44.931Z,english_19.wav,0,0,2665,22,4,Chinese,f,4,0.4,-31.38608709,1.29385953
TWP_2025,10,0,2024-06-20T12:26:44.931Z,english_19.wav,0,0,2665,22,4,Chinese,f,5,0.5,14.87165635,0.69347698
TWP_2025,10,0,2024-06-20T12:26:44.931Z,english_19.wav,0,0,2665,22,4,Chinese,f,6,0.6,17.74253656,0.8818624
TWP_2025,10,0,2024-06-20T12:26:44.931Z,english_19.wav,0,0,2665,22,4,Chinese,f,7,0.7,73.83891975,1.31039877
TWP_2025,10,0,2024-06-20T12:26:44.931Z,english_19.wav,0,0,2665,22,4,Chinese,f,8,0.8,17.68085004,0.1856431
TWP_2025,10,0,2024-06-20T12:26:44.931Z,english_19.wav,0,0,2665,22,4,Chinese,f,9,0.9,-24.1862435,0.16878638
TWP_2025,10,0,2024-06-20T12:26:44.931Z,english_19.wav,0,0,2665,22,4,Chinese,f,10,1,-54.03404818,0.18582405
TWP_2025,10,0,2024-06-20T12:26:44.931Z,english_19.wav,0,0,2665,22,4,Chinese,f,11,1.09391667,28.67386017,0.29170194
TWP_2025,11,0,2024-06-20T12:26:44.931Z,english_270.wav,0,1,898,22,4,Chinese,f,0,0,-55.81256687,1.62867923
TWP_2025,11,0,2024-06-20T12:26:44.931Z,english_270.wav,0,1,898,22,4,Chinese,f,1,0.1,86.32458749,1.84562159
TWP_2025,11,0,2024-06-20T12:26:44.931Z,english_270.wav,0,1,898,22,4,Chinese,f,2,0.2,13.49455739,0.93167879
TWP_2025,11,0,2024-06-20T12:26:44.931Z,english_270.wav,0,1,898,22,4,Chinese,f,3,0.3,-68.69500359,1.73816361
TWP_2025,11,0,2024-06-20T12:26:44.931Z,english_270.wav,0,1,898,22,4,Chinese,f,4,0.4,-97.00280027,0.08320837
TWP_2025,11,0,2024-06-20T12:26:44.931Z,english_270.wav,0,1,898,22,4,Chinese,f,5,0.5,-69.821637,1.0435143
TWP_2025,11,0,2024-06-20T12:26:44.931Z,english_270.wav,0,1,898,22,4,Chinese,f,6,0.6,1.11664619,1.6211018
TWP_2025,11,0,2024-06-20T12:26:44.931Z,english_270.wav,0,1,898,22,4,Chinese,f,7,0.7,14.10763844,1.15083177
TWP_2025,11,0,2024-06-20T12:26:44.931Z,english_270.wav,0,1,898,22,4,Chinese,f,8,0.8,-34.97611605,0.10335889
TWP_2025,11,0,2024-06-20T12:26:44.931Z,english_270.wav,0,1,898,22,4,Chinese,f,9,0.9,64.83030817,1.46234983
TWP_2025,11,0,2024-06-20T12:26:44.931Z,english_270.wav,0,1,898,22,4,Chinese,f,10,1,-92.12802344,1.54267918
TWP_2025,11,0,2024-06-20T12:26:44.931Z,english_270.wav,0,1,898,22,4,Chinese,f,11,1.09391667,70.2696905,1.13836595
TWP_2025,12,0,2024-06-20T12:26:44.931Z,english_57.wav,0,1,952,22,4,Chinese,f,0,0,69.92924321,1.37399784
TWP_2025,12,0,2024-06-20T12:26:44.931Z,english_57.wav,0,1,952,22,4,Chinese,f,1,0.1,50.83595835,1.30125162
TWP_2025,12,0,2024-06-20T12:26:44.931Z,english_57.wav,0,1,952,22,4,Chinese,f,2,0.2,72.89041726,0.76532722
TWP_2025,12,0,2024-06-20T12:26:44.931Z,english_57.wav,0,1,952,22,4,Chinese,f,3,0.3,-25.50577281,0.08256356
TWP_2025,12,0,2024-06-20T12:26:44.931Z,english_57.wav,0,1,952,22,4,Chinese,f,4,0.4,-12.89341009,1.10396563
TWP_2025,12,0,2024-06-20T12:26:44.931Z,english_57.wav,0,1,952,22,4,Chinese,f,5,0.5,-24.95937253,1.0000289
TWP_2025,12,0,2024-06-20T12:26:44.931Z,english_57.wav,0,1,952,22,4,Chinese,f,6,0.6,64.68704807,0.6504756
TWP_2025,12,0,2024-06-20T12:26:44.931Z,english_57.wav,0,1,952,22,4,Chinese,f,7,0.7,26.76917617,1.09615913
TWP_2025,12,0,2024-06-20T12:26:44.931Z,english_57.wav,0,1,952,22,4,Chinese,f,8,0.8,-85.40894658,0.70411597
TWP_2025,12,0,2024-06-20T12:26:44.931Z,english_57.wav,0,1,952,22,4,Chinese,f,9,0.9,-86.04927125,0.54802277
TWP_2025,12,0,2024-06-20T12:26:44.931Z,english_57.wav,0,1,952,22,4,Chinese,f,10,1,86.88641586,1.43991022
TWP_2025,12,0,2024-06-20T12:26:44.931Z,english_57.wav,0,1,952,22,4,Chinese,f,11,1.09391667,-99.07725694,1.41890007
TWP_2025,13,0,2024-06-20T12:26:44.931Z,english_734.wav,0,0,2091,22,4,Chinese,f,0,0,37.80658654,0.89840931
TWP_2025,13,0,2024-06-20T12:26:44.931Z,english_734.wav,0,0,2091,22,4,Chinese,f,1,0.1,90.1003789,1.2414915
TWP_2025,13,0,2024-06-20T12:26:44.931Z,english_734.wav,0,0,2091,22,4,Chinese,f,2,0.2,-17.90602095,1.52855063
TWP_2025,13,0,2024-06-20T12:26:44.931Z,english_734.wav,0,0,2091,22,4,Chinese,f,3,0.3,-31.44385996,0.60902156
TWP_2025,13,0,2024-06-20T12:26:44.931Z,english_734.wav,0,0,2091,22,4,Chinese,f,4,0.4,44.9323419,1.0676513
TWP_2025,13,0,2024-06-20T12:26:44.931Z,english_734.wav,0,0,2091,22,4,Chinese,f,5,0.5,-31.11774155,0.47732506
TWP_2025,13,0,2024-06-20T12:26:44.931Z,english_734.wav,0,0,2091,22,4,Chinese,f,6,0.6,97.37077349,0.01117227
TWP_2025,13,0,2024-06-20T12:26:44.931Z,english_734.wav,0,0,2091,22,4,Chinese,f,7,0.7,83.67731812,1.95948527
TWP_2025,13,0,2024-06-20T12:26:44.931Z,english_734.wav,0,0,2091,22,4,Chinese,f,8,0.8,-92.96209535,1.72730216
TWP_2025,13,0,2024-06-20T12:26:44.931Z,english_734.wav,0,0,2091,22,4,Chinese,f,9,0.9,-86.38679985,0.10005855
TWP_2025,13,0,2024-06-20T12:26:44.931Z,english_734.wav,0,0,2091,22,4,Chinese,f,10,1,-15.69243899,1.31074677
TWP_2025,13,0,2024-06-20T12:26:44.931Z,english_734.wav,0,0,2091,22,4,Chinese,f,11,1.09391667,-68.67808483,0.47077758
TWP_2025,14,0,2024-06-20T12:26:44.931Z,english_428.wav,0,1,889,22,4,Chinese,f,0,0,81.83092524,1.65195738
TWP_2025,14,0,2024-06-20T12:26:44.931Z,english_428.wav,0,1,889,22,4,Chinese,f,1,0.1,-80.13069751,1.50342219
TWP_2025,14,0,2024-06-20T12:26:44.931Z,english_428.wav,0,1,889,22,4,Chinese,f,2,0.2,-11.65632902,1.06152039
TWP_2025,14,0,2024-06-20T12:26:44.931Z,english_428.wav,0,1,889,22,4,Chinese,f,3,0.3,-46.08084266,0.87273268
TWP_2025,14,0,2024-06-20T12:26:44.931Z,english_428.wav,0,1,889,22,4,Chinese,f,4,0.4,3.29741478,1.30041173
TWP_2025,14,0,2024-06-20T12:26:44.931Z,english_428.wav,0,1,889,22,4,Chinese,f,5,0.5,38.2144639,1.27181021
TWP_2025,14,0,2024-06-20T12:26:44.931Z,english_428.wav,0,1,889,22,4,Chinese,f,6,0.6,-36.34649143,1.2829939
TWP_2025,14,0,2024-06-20T12:26:44.931Z,english_428.wav,0,1,889,22,4,Chinese,f,7,0.7,-64.94911042,0.80379216
TWP_2025,14,0,2024-06-20T12:26:44.931Z,english_428.wav,0,1,889,22,4,Chinese,f,8,0.8,55.28808141,0.54976242
TWP_2025,14,0,2024-06-20T12:26:44.931Z,english_428.wav,0,1,889,22,4,Chinese,f,9,0.9,-85.65631623,1.4846347
TWP_2025,14,0,2024-06-20T12:26:44.931Z,english_428.wav,0,1,889,22,4,Chinese,f,10,1,45.03584187,0.86531381
TWP_2025,14,0,2024-06-20T12:26:44.931Z,english_428.wav,0,1,889,22,4,Chinese,f,11,1.09391667,-22.28745039,0.63375774
TWP_2025,15,0,2024-06-20T12:26:44.931Z,english_42.wav,0,1,964,22,4,Chinese,f,0,0,-12.35235723,0.89110064
TWP_2025,15,0,2024-06-20T12:26:44.931Z,english_42.wav,0,1,964,22,4,Chinese,f,1,0.1,-31.30593397,0.38934259
TWP_2025,15,0,2024-06-20T12:26:44.931Z,english_42.wav,0,1,964,22,4,Chinese,f,2,0.2,93.22547931,1.45440232
TWP_2025,15,0,2024-06-20T12:26:44.931Z,english_42.wav,0,1,964,22,4,Chinese,f,3,0.3,3.55661221,0.25584691
TWP_2025,15,0,2024-06-20T12:26:44.931Z,english_42.wav,0,1,964,22,4,Chinese,f,4,0.4,-65.82574245,1.05295351
TWP_2025,15,0,2024-06-20T12:26:44.931Z,english_42.wav,0,1,964,22,4,Chinese,f,5,0.5,29.87364381,0.59087155
TWP_2025,15,0,2024-06-20T12:26:44.931Z,english_42.wav,0,1,964,22,4,Chinese,f,6,0.6,-76.70361056,0.12112438
TWP_2025,15,0,2024-06-20T12:26:44.931Z,english_42.wav,0,1,964,22,4,Chinese,f,7,0.7,-29.10356368,0.72116868
TWP_2025,15,0,2024-06-20T12:26:44.931Z,english_42.wav,0,1,964,22,4,Chinese,f,8,0.8,-52.57981462,0.07340316
TWP_2025,15,0,2024-06-20T12:26:44.931Z,english_42.wav,0,1,964,22,4,Chinese,f,9,0.9,3.2621499,1.9617885
TWP_2025,15,0,2024-06-20T12:26:44.931Z,english_42.wav,0,1,964,22,4,Chinese,f,10,1,-86.59512904,0.50342264
TWP_2025,15,0,2024-06-20T12:26:44.931Z,english_42.wav,0,1,964,22,4,Chinese,f,11,1.09391667,39.23696044,1.24684981
TWP_2025,16,0,2024-06-20T12:26:44.931Z,english_188.wav,0,1,860,22,4,Chinese,f,0,0,-44.78438497,0.94710117
TWP_2025,16,0,2024-06-20T12:26:44.931Z,english_188.wav,0,1,860,22,4,Chinese,f,1,0.1,-59.64362525,0.96413905
TWP_2025,16,0,2024-06-20T12:26:44.931Z,english_188.wav,0,1,860,22,4,Chinese,f,2,0.2,-64.08533898,0.84840618
TWP_2025,16,0,2024-06-20T12:26:44.931Z,english_188.wav,0,1,860,22,4,Chinese,f,3,0.3,-29.1378116,0.37627617
TWP_2025,16,0,2024-06-20T12:26:44.931Z,english_188.wav,0,1,860,22,4,Chinese,f,4,0.4,-4.14868477,1.62621942
TWP_2025,16,0,2024-06-20T12:26:44.931Z,english_188.wav,0,1,860,22,4,Chinese,f,5,0.5,-61.00737987,0.44747201
TWP_2025,16,0,2024-06-20T12:26:44.931Z,english_188.wav,0,1,860,22,4,Chinese,f,6,0.6,61.72468412,0.51555254
TWP_2025,16,0,2024-06-20T12:26:44.931Z,english_188.wav,0,1,860,22,4,Chinese,f,7,0.7,91.61563335,1.97040932
TWP_2025,16,0,2024-06-20T12:26:44.931Z,english_188.wav,0,1,860,22,4,Chinese,f,8,0.8,-69.21450223,0.35468899
TWP_2025,16,0,2024-06-20T12:26:44.931Z,english_188.wav,0,1,860,22,4,Chinese,f,9,0.9,55.80681999,1.42342949
TWP_2025,16,0,2024-06-20T12:26:44.931Z,english_188.wav,0,1,860,22,4,Chinese,f,10,1,-13.47812759,1.23724986
TWP_2025,16,0,2024-06-20T12:26:44.931Z,english_188.wav,0,1,860,22,4,Chinese,f,11,1.09391667,47.39616925,0.05613364
TWP_2025,17,0,2024-06-20T12:26:44.931Z,english_217.wav,0,0,1396,22,4,Chinese,f,0,0,49.03427647,0.32664973
TWP_2025,17,0,2024-06-20T12:26:44.931Z,english_217.wav,0,0,1396,22,4,Chinese,f,1,0.1,55.51339481,1.39032489
TWP_2025,17,0,2024-06-20T12:26:44.931Z,english_217.wav,0,0,1396,22,4,Chinese,f,2,0.2,8.85342812,0.17335256
TWP_2025,17,0,2024-06-20T12:26:44.931Z,english_217.wav,0,0,1396,22,4,Chinese,f,3,0.3,38.54994366,0.12434027
TWP_2025,17,0,2024-06-20T12:26:44.931Z,english_217.wav,0,0,1396,22,4,Chinese,f,4,0.4,-2.70833959,1.97912601
TWP_2025,17,0,2024-06-20T12:26:44.931Z,english_217.wav,0,0,1396,22,4,Chinese,f,5,0.5,70.3938548,0.49508024
TWP_2025,17,0,2024-06-20T12:26:44.931Z,english_217.wav,0,0,1396,22,4,Chinese,f,6,0.6,5.12480722,1.41080808
TWP_2025,17,0,2024-06-20T12:26:44.931Z,english_217.wav,0,0,1396,22,4,Chinese,f,7,0.7,-74.03796069,0.59237566
TWP_2025,17,0,2024-06-20T12:26:44.931Z,english_217.wav,0,0,1396,22,4,Chinese,f,8,0.8,-33.3486243,0.51007366
TWP_2025,17,0,2024-06-20T12:26:44.931Z,english_217.wav,0,0,1396,22,4,Chinese,f,9,0.9,-40.28599149,0.60232464
TWP_2025,17,0,2024-06-20T12:26:44.931Z,english_217.wav,0,0,1396,22,4,Chinese,f,10,1,19.2288181,0.62471618
TWP_2025,17,0,2024-06-20T12:26:44.931Z,english_217.wav,0,0,1396,22,4,Chinese,f,11,1.09391667,28.27107092,0.07651966
TWP_2025,18,0,2024-06-20T12:26:44.931Z,english_93.wav,0,0,3675,22,4,Chinese,f,0,0,-5.64044051,0.93985767
TWP_2025,18,0,2024-06-20T12:26:44.931Z,english_93.wav,0,0,3675,22,4,Chinese,f,1,0.1,-71.62427253,1.9578989
TWP_2025,18,0,2024-06-20T12:26:44.931Z,english_93.wav,0,0,3675,22,4,Chinese,f,2,0.2,44.8568839,1.04309205
TWP_2025,18,0,2024-06-20T12:26:44.931Z,english_93.wav,0,0,3675,22,4,Chinese,f,3,0.3,13.73699883,1.22075438
TWP_2025,18,0,2024-06-20T12:26:44.931Z,english_93.wav,0,0,3675,22,4,Chinese,f,4,0.4,-9.51130818,1.24468343
TWP_2025,18,0,2024-06-20T12:26:44.931Z,english_93.wav,0,0,3675,22,4,Chinese,f,5,0.5,25.73719345,1.1802762
TWP_2025,18,0,2024-06-20T12:26:44.931Z,english_93.wav,0,0,3675,22,4,Chinese,f,6,0.6,-9.54816374,1.78615262
TWP_2025,18,0,2024-06-20T12:26:44.931Z,english_93.wav,0,0,3675,22,4,Chinese,f,7,0.7,-99.85495199,1.82361192
TWP_2025,18,0,2024-06-20T12:26:44.931Z,english_93.wav,0,0,3675,22,4,Chinese,f,8,0.8,26.311999,0.83873706
TWP_2025,18,0,2024-06-20T12:26:44.931Z,english_93.wav,0,0,3675,22,4,Chinese,f,9,0.9,37.40170351,1.41980792
TWP_2025,18,0,2024-06-20T12:26:44.931Z,english_93.wav,0,0,3675,22,4,Chinese,f,10,1,-54.32300287,0.16266534
TWP_2025,18,0,2024-06-20T12:26:44.931Z,english_93.wav,0,0,3675,22,4,Chinese,f,11,1.09391667,-13.38941708,1.86742119
TWP_2025,19,0,2024-06-20T12:26:44.931Z,english_405.wav,0,1,740,22,4,Chinese,f,0,0,-78.42073653,1.26555168
TWP_2025,19,0,2024-06-20T12:26:44.931Z,english_405.wav,0,1,740,22,4,Chinese,f,1,0.1,-24.61205512,0.89640123
TWP_2025,19,0,2024-06-20T12:26:44.931Z,english_405.wav,0,1,740,22,4,Chinese,f,2,0.2,-11.84314917,0.55951574
TWP_2025,19,0,2024-06-20T12:26:44.931Z,english_405.wav,0,1,740,22,4,Chinese,f,3,0.3,-70.6403769,0.41074213
TWP_2025,19,0,2024-06-20T12:26:44.931Z,english_405.wav,0,1,740,22,4,Chinese,f,4,0.4,-46.85191634,0.16739124
TWP_2025,19,0,2024-06-20T12:26:44.931Z,english_405.wav,0,1,740,22,4,Chinese,f,5,0.5,-71.06093943,0.840879
TWP_2025,19,0,2024-06-20T12:26:44.931Z,english_405.wav,0,1,740,22,4,Chinese,f,6,0.6,30.63391912,1.64487685
TWP_2025,19,0,2024-06-20T12:26:44.931Z,english_405.wav,0,1,740,22,4,Chinese,f,7,0.7,-74.22566174,0.4477739
TWP_2025,19,0,2024-06-20T12:26:44.931Z,english_405.wav,0,1,740,22,4,Chinese,f,8,0.8,7.48787405,0.39629761
TWP_2025,19,0,2024-06-20T12:26:44.931Z,english_405.wav,0,1,740,22,4,Chinese,f,9,0.9,-46.20513682,1.07902243
TWP_2025,19,0,2024-06-20T12:26:44.931Z,english_405.wav,0,1,740,22,4,Chinese,f,10,1,49.04599402,1.30068101
TWP_2025,19,0,2024-06-20T12:26:44.931Z,english_405.wav,0,1,740,22,4,Chinese,f,11,1.09391667,-4.00470975,1.72481408
TWP_2025,20,0,2024-06-20T12:26:44.931Z,english_698.wav,0,1,1535,22,4,Chinese,f,0,0,-98.49976842,0.43179997
TWP_2025,20,0,2024-06-20T12:26:44.931Z,english_698.wav,0,1,1535,22,4,Chinese,f,1,0.1,97.00885889,1.41337894
TWP_2025,20,0,2024-06-20T12:26:44.931Z,english_698.wav,0,1,1535,22,4,Chinese,f,2,0.2,54.87082892,1.17184634
TWP_2025,20,0,2024-06-20T12:26:44.931Z,english_698.wav,0,1,1535,22,4,Chinese,f,3,0.3,-24.25113459,0.60534302
TWP_2025,20,0,2024-06-20T12:26:44.931Z,english_698.wav,0,1,1535,22,4,Chinese,f,4,0.4,-19.41361559,1.24831976
TWP_2025,20,0,2024-06-20T12:26:44.931Z,english_698.wav,0,1,1535,22,4,Chinese,f,5,0.5,38.63477703,1.39113252
TWP_2025,20,0,2024-06-20T12:26:44.931Z,english_698.wav,0,1,1535,22,4,Chinese,f,6,0.6,-31.74740997,1.28562889
TWP_2025,20,0,2024-06-20T12:26:44.931Z,english_698.wav,0,1,1535,22,4,Chinese,f,7,0.7,75.16156156,1.10433052
TWP_2025,20,0,2024-06-20T12:26:44.931Z,english_698.wav,0,1,1535,22,4,Chinese,f,8,0.8,41.06057046,1.08053659
TWP_2025,20,0,2024-06-20T12:26:44.931Z,english_698.wav,0,1,1535,22,4,Chinese,f,9,0.9,-30.65402234,1.52582563
TWP_2025,20,0,2024-06-20T12:26:44.931Z,english_698.wav,0,1,1535,22,4,Chinese,f,10,1,-13.5987644,0.95244876
TWP_2025,20,0,2024-06-20T12:26:44.931Z,english_698.wav,0,1,1535,22,4,Chinese,f,11,1.09391667,-10.25655958,1.39681887
TWP_2025,21,0,2024-06-20T12:26:44.931Z,english_925.wav,0,1,677,22,4,Chinese,f,0,0,-84.57233467,1.00848694
TWP_2025,21,0,2024-06-20T12:26:44.931Z,english_925.wav,0,1,677,22,4,Chinese,f,1,0.1,-44.7314948,0.79986677
TWP_2025,21,0,2024-06-20T12:26:44.931Z,english_925.wav,0,1,677,22,4,Chinese,f,2,0.2,-21.76001852,1.01395723
TWP_2025,21,0,2024-06-20T12:26:44.931Z,english_925.wav,0,1,677,22,4,Chinese,f,3,0.3,58.94026315,0.40578686
TWP_2025,21,0,2024-06-20T12:26:44.931Z,english_925.wav,0,1,677,22,4,Chinese,f,4,0.4,68.109547,1.18343794
TWP_2025,21,0,2024-06-20T12:26:44.931Z,english_925.wav,0,1,677,22,4,Chinese,f,5,0.5,49.84786379,0.73791716
TWP_2025,21,0,2024-06-20T12:26:44.931Z,english_925.wav,0,1,677,22,4,Chinese,f,6,0.6,60.87486089,0.58895249
TWP_2025,21,0,2024-06-20T12:26:44.931Z,english_925.wav,0,1,677,22,4,Chinese,f,7,0.7,50.05197286,0.92214068
TWP_2025,21,0,2024-06-20T12:26:44.931Z,english_925.wav,0,1,677,22,4,Chinese,f,8,0.8,83.62089831,1.8971644
TWP_2025,21,0,2024-06-20T12:26:44.931Z,english_925.wav,0,1,677,22,4,Chinese,f,9,0.9,-6.54901241,1.57717007
TWP_2025,21,0,2024-06-20T12:26:44.931Z,english_925.wav,0,1,677,22,4,Chinese,f,10,1,59.32339342,1.06930768
TWP_2025,21,0,2024-06-20T12:26:44.931Z,english_925.wav,0,1,677,22,4,Chinese,f,11,1.09391667,-66.08603468,1.74149988
TWP_2025,22,0,2024-06-20T12:26:44.931Z,english_89.wav,0,1,869,22,4,Chinese,f,0,0,44.55560521,0.83141016
TWP_2025,22,0,2024-06-20T12:26:44.931Z,english_89.wav,0,1,869,22,4,Chinese,f,1,0.1,-38.12575075,0.73728779
TWP_2025,22,0,2024-06-20T12:26:44.931Z,english_89.wav,0,1,869,22,4,Chinese,f,2,0.2,-85.08741113,0.76468972
TWP_2025,22,0,2024-06-20T12:26:44.931Z,english_89.wav,0,1,869,22,4,Chinese,f,3,0.3,-34.51149373,1.40220205
TWP_2025,22,0,2024-06-20T12:26:44.931Z,english_89.wav,0,1,869,22,4,Chinese,f,4,0.4,91.4200198,1.40801955
TWP_2025,22,0,2024-06-20T12:26:44.931Z,english_89.wav,0,1,869,22,4,Chinese,f,5,0.5,-88.24762839,0.24508348
TWP_2025,22,0,2024-06-20T12:26:44.931Z,english_89.wav,0,1,869,22,4,Chinese,f,6,0.6,-12.15976794,0.73331541
TWP_2025,22,0,2024-06-20T12:26:44.931Z,english_89.wav,0,1,869,22,4,Chinese,f,7,0.7,8.11504905,1.14258486
TWP_2025,22,0,2024-06-20T12:26:44.931Z,english_89.wav,0,1,869,22,4,Chinese,f,8,0.8,48.7516223,0.28719695
TWP_2025,22,0,2024-06-20T12:26:44.931Z,english_89.wav,0,1,869,22,4,Chinese,f,9,0.9,-61.89417078,1.82425172
TWP_2025,22,0,2024-06-20T12:26:44.931Z,english_89.wav,0,1,869,22,4,Chinese,f,10,1,70.08039029,1.66848997
TWP_2025,22,0,2024-06-20T12:26:44.931Z,english_89.wav,0,1,869,22,4,Chinese,f,11,1.09391667,73.1109171,1.25647122
TWP_2025,23,0,2024-06-20T12:26:44.931Z,english_956.wav,0,1,825,22,4,Chinese,f,0,0,-69.56603744,1.25885793
TWP_2025,23,0,2024-06-20T12:26:44.931Z,english_956.wav,0,1,825,22,4,Chinese,f,1,0.1,-25.37186141,1.06466306
TWP_2025,23,0,2024-06-20T12:26:44.931Z,english_956.wav,0,1,825,22,4,Chinese,f,2,0.2,27.97650052,0.94194041
TWP_2025,23,0,2024-06-20T12:26:44.931Z,english_956.wav,0,1,825,22,4,Chinese,f,3,0.3,-27.59550019,1.53569938
TWP_2025,23,0,2024-06-20T12:26:44.931Z,english_956.wav,0,1,825,22,4,Chinese,f,4,0.4,-92.97950526,1.85243798
TWP_2025,23,0,2024-06-20T12:26:44.931Z,english_956.wav,0,1,825,22,4,Chinese,f,5,0.5,38.52785923,1.85210152
TWP_2025,23,0,2024-06-20T12:26:44.931Z,english_956.wav,0,1,825,22,4,Chinese,f,6,0.6,10.83790673,0.63562422
TWP_2025,23,0,2024-06-20T12:26:44.931Z,english_956.wav,0,1,825,22,4,Chinese,f,7,0.7,-7.44647917,1.69096149
TWP_2025,23,0,2024-06-20T12:26:44.931Z,english_956.wav,0,1,825,22,4,Chinese,f,8,0.8,21.12716208,0.44450575
TWP_2025,23,0,2024-06-20T12:26:44.931Z,english_956.wav,0,1,825,22,4,Chinese,f,9,0.9,68.89451613,0.92187191
TWP_2025,23,0,2024-06-20T12:26:44.931Z,english_956.wav,0,1,825,22,4,Chinese,f,10,1,40.53084536,1.63644611
TWP_2025,23,0,2024-06-20T12:26:44.931Z,english_956.wav,0,1,825,22,4,Chinese,f,11,1.09391667,63.98453991,0.57157091
TWP_2025,24,0,2024-06-20T12:26:44.931Z,english_961.wav,0,1,2370,22,4,Chinese,f,0,0,81.83147696,1.4308336
TWP_2025,24,0,2024-06-20T12:26:44.931Z,english_961.wav,0,1,2370,22,4,Chinese,f,1,0.1,-55.44397817,0.90947764
TWP_2025,24,0,2024-06-20T12:26:44.931Z,english_961.wav,0,1,2370,22,4,Chinese,f,2,0.2,88.24181947,0.90243859
TWP_2025,24,0,2024-06-20T12:26:44.931Z,english_961.wav,0,1,2370,22,4,Chinese,f,3,0.3,-15.15816006,0.46936311
TWP_2025,24,0,2024-06-20T12:26:44.931Z,english_961.wav,0,1,2370,22,4,Chinese,f,4,0.4,-50.45638081,1.55927191
TWP_2025,24,0,2024-06-20T12:26:44.931Z,english_961.wav,0,1,2370,22,4,Chinese,f,5,0.5,69.96256983,0.75129721
TWP_2025,24,0,2024-06-20T12:26:44.931Z,english_961.wav,0,1,2370,22,4,Chinese,f,6,0.6,-17.06813057,1.46735594
TWP_2025,24,0,2024-06-20T12:26:44.931Z,english_961.wav,0,1,2370,22,4,Chinese,f,7,0.7,73.47800457,1.92767727
TWP_2025,24,0,2024-06-20T12:26:44.931Z,english_961.wav,0,1,2370,22,4,Chinese,f,8,0.8,-64.26564282,0.4665746
TWP_2025,24,0,2024-06-20T12:26:44.931Z,english_961.wav,0,1,2370,22,4,Chinese,f,9,0.9,75.43502269,1.80828177
TWP_2025,24,0,2024-06-20T12:26:44.931Z,english_961.wav,0,1,2370,22,4,Chinese,f,10,1,4.4137361,1.76060205
TWP_2025,24,0,2024-06-20T12:26:44.931Z,english_961.wav,0,1,2370,22,4,Chinese,f,11,1.09391667,-27.6807027,1.95049148
TWP_2025,25,0,2024-06-20T12:26:44.931Z,english_133.wav,0,0,3349,22,4,Chinese,f,0,0,10.63343709,0.76476464
TWP_2025,25,0,2024-06-20T12:26:44.931Z,english_133.wav,0,0,3349,22,4,Chinese,f,1,0.1,24.84890696,1.29515793
TWP_2025,25,0,2024-06-20T12:26:44.931Z,english_133.wav,0,0,3349,22,4,Chinese,f,2,0.2,-34.79554397,1.91673142
TWP_2025,25,0,2024-06-20T12:26:44.931Z,english_133.wav,0,0,3349,22,4,Chinese,f,3,0.3,-18.60172977,1.0879203
TWP_2025,25,0,2024-06-20T12:26:44.931Z,english_133.wav,0,0,3349,22,4,Chinese,f,4,0.4,-98.89022724,1.20589026
TWP_2025,25,0,2024-06-20T12:26:44.931Z,english_133.wav,0,0,3349,22,4,Chinese,f,5,0.5,23.30800479,1.56284498
TWP_2025,25,0,2024-06-20T12:26:44.931Z,english_133.wav,0,0,3349,22,4,Chinese,f,6,0.6,30.70048396,0.05267283
TWP_2025,25,0,2024-06-20T12:26:44.931Z,english_133.wav,0,0,3349,22,4,Chinese,f,7,0.7,-76.25426305,1.08371144
TWP_2025,25,0,2024-06-20T12:26:44.931Z,english_133.wav,0,0,3349,22,4,Chinese,f,8,0.8,14.35819181,0.48506717
TWP_2025,25,0,2024-06-20T12:26:44.931Z,english_133.wav,0,0,3349,22,4,Chinese,f,9,0.9,-62.19404817,1.72104901
TWP_2025,25,0,2024-06-20T12:26:44.931Z,english_133.wav,0,0,3349,22,4,Chinese,f,10,1,77.39529663,1.20839478
TWP_2025,25,0,2024-06-20T12:26:44.931Z,english_133.wav,0,0,3349,22,4,Chinese,f,11,1.09391667,16.52655074,0.51907939
TWP_2025,26,0,2024-06-20T12:26:44.931Z,english_951.wav,0,1,1148,22,4,Chinese,f,0,0,-36.21368885,0.73102916
TWP_2025,26,0,2024-06-20T12:26:44.931Z,english_951.wav,0,1,1148,22,4,Chinese,f,1,0.1,-21.58887728,1.91789337
TWP_2025,26,0,2024-06-20T12:26:44.931Z,english_951.wav,0,1,1148,22,4,Chinese,f,2,0.2,13.41790132,0.21798818
TWP_2025,26,0,2024-06-20T12:26:44.931Z,english_951.wav,0,1,1148,22,4,Chinese,f,3,0.3,54.14984422,1.25250258
TWP_2025,26,0,2024-06-20T12:26:44.931Z,english_951.wav,0,1,1148,22,4,Chinese,f,4,0.4,-14.70759229,1.17100168
TWP_2025,26,0,2024-06-20T12:26:44.931Z,english_951.wav,0,1,1148,22,4,Chinese,f,5,0.5,-89.28721174,0.37038944
TWP_2025,26,0,2024-06-20T12:26:44.931Z,english_951.wav,0,1,1148,22,4,Chinese,f,6,0.6,-44.90139169,0.22313149
TWP_2025,26,0,2024-06-20T12:26:44.931Z,english_951.wav,0,1,1148,22,4,Chinese,f,7,0.7,31.96128506,1.88317087
TWP_2025,26,0,2024-06-20T12:26:44.931Z,english_951.wav,0,1,1148,22,4,Chinese,f,8,0.8,15.8351581,0.03386618
TWP_2025,26,0,2024-06-20T12:26:44.931Z,english_951.wav,0,1,1148,22,4,Chinese,f,9,0.9,-35.27402609,1.29108959
TWP_2025,26,0,2024-06-20T12:26:44.931Z,english_951.wav,0,1,1148,22,4,Chinese,f,10,1,-2.7577194,0.69196657
TWP_2025,26,0,2024-06-20T12:26:44.931Z,english_951.wav,0,1,1148,22,4,Chinese,f,11,1.09391667,-33.63227805,1.7463571
TWP_2025,27,0,2024-06-20T12:26:44.931Z,english_921.wav,0,0,4554,22,4,Chinese,f,0,0,31.46476347,1.40929115
TWP_2025,27,0,2024-06-20T12:26:44.931Z,english_921.wav,0,0,4554,22,4,Chinese,f,1,0.1,-97.58408055,0.95578469
TWP_2025,27,0,2024-06-20T12:26:44.931Z,english_921.wav,0,0,4554,22,4,Chinese,f,2,0.2,54.67506657,1.08840418
TWP_2025,27,0,2024-06-20T12:26:44.931Z,english_921.wav,0,0,4554,22,4,Chinese,f,3,0.3,22.21056557,0.27152021
TWP_2025,27,0,2024-06-20T12:26:44.931Z,english_921.wav,0,0,4554,22,4,Chinese,f,4,0.4,0.8393727,1.01175766
TWP_2025,27,0,2024-06-20T12:26:44.931Z,english_921.wav,0,0,4554,22,4,Chinese,f,5,0.5,-71.57742702,0.91544212
TWP_2025,27,0,2024-06-20T12:26:44.931Z,english_921.wav,0,0,4554,22,4,Chinese,f,6,0.6,-21.98162251,1.03161778
TWP_2025,27,0,2024-06-20T12:26:44.931Z,english_921.wav,0,0,4554,22,4,Chinese,f,7,0.7,-45.34354294,1.69417828
TWP_2025,27,0,2024-06-20T12:26:44.931Z,english_921.wav,0,0,4554,22,4,Chinese,f,8,0.8,-54.46580015,1.14800845
TWP_2025,27,0,2024-06-20T12:26:44.931Z,english_921.wav,0,0,4554,22,4,Chinese,f,9,0.9,-33.00243687,1.17008377
TWP_2025,27,0,2024-06-20T12:26:44.931Z,english_921.wav,0,0,4554,22,4,Chinese,f,10,1,45.39245913,0.19449602
TWP_2025,27,0,2024-06-20T12:26:44.931Z,english_921.wav,0,0,4554,22,4,Chinese,f,11,1.09391667,-24.69054897,1.58975603
TWP_2025,28,0,2024-06-20T12:26:44.931Z,english_651.wav,0,0,2509,22,4,Chinese,f,0,0,-91.34539462,1.93962683
TWP_2025,28,0,2024-06-20T12:26:44.931Z,english_651.wav,0,0,2509,22,4,Chinese,f,1,0.1,-1.38504973,0.25281252
TWP_2025,28,0,2024-06-20T12:26:44.931Z,english_651.wav,0,0,2509,22,4,Chinese,f,2,0.2,2.05125073,0.90917451
TWP_2025,28,0,2024-06-20T12:26:44.931Z,english_651.wav,0,0,2509,22,4,Chinese,f,3,0.3,-5.20837211,0.6157456
TWP_2025,28,0,2024-06-20T12:26:44.931Z,english_651.wav,0,0,2509,22,4,Chinese,f,4,0.4,30.89438942,0.48487698
TWP_2025,28,0,2024-06-20T12:26:44.931Z,english_651.wav,0,0,2509,22,4,Chinese,f,5,0.5,-28.36589971,1.14423933
TWP_2025,28,0,2024-06-20T12:26:44.931Z,english_651.wav,0,0,2509,22,4,Chinese,f,6,0.6,-42.97374851,0.91557091
TWP_2025,28,0,2024-06-20T12:26:44.931Z,english_651.wav,0,0,2509,22,4,Chinese,f,7,0.7,-56.55365324,1.50856564
TWP_2025,28,0,2024-06-20T12:26:44.931Z,english_651.wav,0,0,2509,22,4,Chinese,f,8,0.8,3.73861638,0.47177544
TWP_2025,28,0,2024-06-20T12:26:44.931Z,english_651.wav,0,0,2509,22,4,Chinese,f,9,0.9,-2.43332653,0.09479279
TWP_2025,28,0,2024-06-20T12:26:44.931Z,english_651.wav,0,0,2509,22,4,Chinese,f,10,1,-73.16332477,0.24018528
TWP_2025,28,0,2024-06-20T12:26:44.931Z,english_651.wav,0,0,2509,22,4,Chinese,f,11,1.09391667,61.30377091,0.24667973
TWP_2025,29,0,2024-06-20T12:26:44.931Z,english_544.wav,0,0,901,22,4,Chinese,f,0,0,-12.83752334,0.26746705
TWP_2025,29,0,2024-06-20T12:26:44.931Z,english_544.wav,0,0,901,22,4,Chinese,f,1,0.1,18.81551767,0.28928579
TWP_2025,29,0,2024-06-20T12:26:44.931Z,english_544.wav,0,0,901,22,4,Chinese,f,2,0.2,-29.56712799,1.1529058
TWP_2025,29,0,2024-06-20T12:26:44.931Z,english_544.wav,0,0,901,22,4,Chinese,f,3,0.3,-88.71669508,0.71030524
TWP_2025,29,0,2024-06-20T12:26:44.931Z,english_544.wav,0,0,901,22,4,Chinese,f,4,0.4,60.52504719,1.2257672
TWP_2025,29,0,2024-06-20T12:26:44.931Z,english_544.wav,0,0,901,22,4,Chinese,f,5,0.5,-63.41119431,1.58517904
TWP_2025,29,0,2024-06-20T12:26:44.931Z,english_544.wav,0,0,901,22,4,Chinese,f,6,0.6,8.79618234,0.02752012
TWP_2025,29,0,2024-06-20T12:26:44.931Z,english_544.wav,0,0,901,22,4,Chinese,f,7,0.7,-45.10475513,0.40266107
TWP_2025,29,0,2024-06-20T12:26:44.931Z,english_544.wav,0,0,901,22,4,Chinese,f,8,0.8,-50.11360918,1.24234406
TWP_2025,29,0,2024-06-20T12:26:44.931Z,english_544.wav,0,0,901,22,4,Chinese,f,9,0.9,24.528145,0.82116457
TWP_2025,29,0,2024-06-20T12:26:44.931Z,english_544.wav,0,0,901,22,4,Chinese,f,10,1,39.08857689,0.0963448
TWP_2025,29,0,2024-06-20T12:26:44.931Z,english_544.wav,0,0,901,22,4,Chinese,f,11,1.09391667,16.62790968,0.38181462
TWP_2025,30,0,2024-06-20T12:26:44.931Z,english_41.wav,0,1,3143,22,4,Chinese,f,0,0,94.86935215,0.27348518
TWP_2025,30,0,2024-06-20T12:26:44.931Z,english_41.wav,0,1,3143,22,4,Chinese,f,1,0.1,-7.05168928,1.18971652
TWP_2025,30,0,2024-06-20T12:26:44.931Z,english_41.wav,0,1,3143,22,4,Chinese,f,2,0.2,83.29541273,1.0683571
TWP_2025,30,0,2024-06-20T12:26:44.931Z,english_41.wav,0,1,3143,22,4,Chinese,f,3,0.3,-1.78314142,1.37978433
TWP_2025,30,0,2024-06-20T12:26:44.931Z,english_41.wav,0,1,3143,22,4,Chinese,f,4,0.4,48.9333274,0.66104529
TWP_2025,30,0,2024-06-20T12:26:44.931Z,english_41.wav,0,1,3143,22,4,Chinese,f,5,0.5,-37.7603382,1.58723319
TWP_2025,30,0,2024-06-20T12:26:44.931Z,english_41.wav,0,1,3143,22,4,Chinese,f,6,0.6,-73.18439231,0.96658357
TWP_2025,30,0,2024-06-20T12:26:44.931Z,english_41.wav,0,1,3143,22,4,Chinese,f,7,0.7,14.0804343,1.12331941
TWP_2025,30,0,2024-06-20T12:26:44.931Z,english_41.wav,0,1,3143,22,4,Chinese,f,8,0.8,-63.54643631,1.41064232
TWP_2025,30,0,2024-06-20T12:26:44.931Z,english_41.wav,0,1,3143,22,4,Chinese,f,9,0.9,15.76603415,0.93302581
TWP_2025,30,0,2024-06-20T12:26:44.931Z,english_41.wav,0,1,3143,22,4,Chinese,f,10,1,6.93433941,0.83854769
TWP_2025,30,0,2024-06-20T12:26:44.931Z,english_41.wav,0,1,3143,22,4,Chinese,f,11,1.09391667,-37.21216737,1.07714606
TWP_2025,31,0,2024-06-20T12:26:44.931Z,english_714.wav,0,1,1933,22,4,Chinese,f,0,0,79.0390651,0.49033963
TWP_2025,31,0,2024-06-20T12:26:44.931Z,english_714.wav,0,1,1933,22,4,Chinese,f,1,0.1,36.23720606,1.92693389
TWP_2025,31,0,2024-06-20T12:26:44.931Z,english_714.wav,0,1,1933,22,4,Chinese,f,2,0.2,59.88505324,0.63464649
TWP_2025,31,0,2024-06-20T12:26:44.931Z,english_714.wav,0,1,1933,22,4,Chinese,f,3,0.3,35.79437608,0.92002545
TWP_2025,31,0,2024-06-20T12:26:44.931Z,english_714.wav,0,1,1933,22,4,Chinese,f,4,0.4,1.83402307,0.7042678
TWP_2025,31,0,2024-06-20T12:26:44.931Z,english_714.wav,0,1,1933,22,4,Chinese,f,5,0.5,73.3370193,0.59965101
TWP_2025,31,0,2024-06-20T12:26:44.931Z,english_714.wav,0,1,1933,22,4,Chinese,f,6,0.6,-82.63220087,0.57753473
TWP_2025,31,0,2024-06-20T12:26:44.931Z,english_714.wav,0,1,1933,22,4,Chinese,f,7,0.7,49.23957633,1.31617156
TWP_2025,31,0,2024-06-20T12:26:44.931Z,english_714.wav,0,1,1933,22,4,Chinese,f,8,0.8,10.5160274,1.11503481
TWP_2025,31,0,2024-06-20T12:26:44.931Z,english_714.wav,0,1,1933,22,4,Chinese,f,9,0.9,-94.9780405,1.71749538
TWP_2025,31,0,2024-06-20T12:26:44.931Z,english_714.wav,0,1,1933,22,4,Chinese,f,10,1,20.48401592,0.94991936
TWP_2025,31,0,2024-06-20T12:26:44.931Z,english_714.wav,0,1,1933,22,4,Chinese,f,11,1.09391667,-2.68158482,0.61904564
TWP_2025,32,0,2024-06-20T12:26:44.931Z,english_950.wav,0,0,3488,22,4,Chinese,f,0,0,-86.87554151,0.57113527
TWP_2025,32,0,2024-06-20T12:26:44.931Z,english_950.wav,0,0,3488,22,4,Chinese,f,1,0.1,-72.53946924,0.14563677
TWP_2025,32,0,2024-06-20T12:26:44.931Z,english_950.wav,0,0,3488,22,4,Chinese,f,2,0.2,-93.26314945,1.26514388
TWP_2025,32,0,2024-06-20T12:26:44.931Z,english_950.wav,0,0,3488,22,4,Chinese,f,3,0.3,-1.26261121,0.38436166
TWP_2025,32,0,2024-06-20T12:26:44.931Z,english_950.wav,0,0,3488,22,4,Chinese,f,4,0.4,31.78397293,0.69830078
TWP_2025,32,0,2024-06-20T12:26:44.931Z,english_950.wav,0,0,3488,22,4,Chinese,f,5,0.5,93.59900189,1.31794619
TWP_2025,32,0,2024-06-20T12:26:44.931Z,english_950.wav,0,0,3488,22,4,Chinese,f,6,0.6,-32.85922571,0.31066599
TWP_2025,32,0,2024-06-20T12:26:44.931Z,english_950.wav,0,0,3488,22,4,Chinese,f,7,0.7,18.10300476,1.23311227
TWP_2025,32,0,2024-06-20T12:26:44.931Z,english_950.wav,0,0,3488,22,4,Chinese,f,8,0.8,52.92250064,0.77437242
TWP_2025,32,0,2024-06-20T12:26:44.931Z,english_950.wav,0,0,3488,22,4,Chinese,f,9,0.9,-34.91247692,0.74996015
TWP_2025,32,0,2024-06-20T12:26:44.931Z,english_950.wav,0,0,3488,22,4,Chinese,f,10,1,-31.45567731,0.3691409
TWP_2025,32,0,2024-06-20T12:26:44.931Z,english_950.wav,0,0,3488,22,4,Chinese,f,11,1.09391667,88.77151431,1.91617341
TWP_2025,33,0,2024-06-20T12:26:44.931Z,english_498.wav,0,1,1004,22,4,Chinese,f,0,0,43.98055184,1.94722798
TWP_2025,33,0,2024-06-20T12:26:44.931Z,english_498.wav,0,1,1004,22,4,Chinese,f,1,0.1,91.3545984,1.93048351
TWP_2025,33,0,2024-06-20T12:26:44.931Z,english_498.wav,0,1,1004,22,4,Chinese,f,2,0.2,-25.91563113,0.27240706
TWP_2025,33,0,2024-06-20T12:26:44.931Z,english_498.wav,0,1,1004,22,4,Chinese,f,3,0.3,-14.96140851,1.06623965
TWP_2025,33,0,2024-06-20T12:26:44.931Z,english_498.wav,0,1,1004,22,4,Chinese,f,4,0.4,-8.05824247,1.41558656
TWP_2025,33,0,2024-06-20T12:26:44.931Z,english_498.wav,0,1,1004,22,4,Chinese,f,5,0.5,-61.63888891,0.26700347
TWP_2025,33,0,2024-06-20T12:26:44.931Z,english_498.wav,0,1,1004,22,4,Chinese,f,6,0.6,37.86658664,0.54434522
TWP_2025,33,0,2024-06-20T12:26:44.931Z,english_498.wav,0,1,1004,22,4,Chinese,f,7,0.7,-97.52325855,0.79258737
TWP_2025,33,0,2024-06-20T12:26:44.931Z,english_498.wav,0,1,1004,22,4,Chinese,f,8,0.8,-16.03910224,1.13417158
TWP_2025,33,0,2024-06-20T12:26:44.931Z,english_498.wav,0,1,1004,22,4,Chinese,f,9,0.9,83.25609208,0.68565339
TWP_2025,33,0,2024-06-20T12:26:44.931Z,english_498.wav,0,1,1004,22,4,Chinese,f,10,1,-65.28300381,0.73020294
TWP_2025,33,0,2024-06-20T12:26:44.931Z,english_498.wav,0,1,1004,22,4,Chinese,f,11,1.09391667,38.04109912,1.48505369
TWP_2025,34,0,2024-06-20T12:26:44.931Z,english_799.wav,0,0,1582,22,4,Chinese,f,0,0,20.93448877,0.48820712
TWP_2025,34,0,2024-06-20T12:26:44.931Z,english_799.wav,0,0,1582,22,4,Chinese,f,1,0.1,74.90549066,0.80562581
TWP_2025,34,0,2024-06-20T12:26:44.931Z,english_799.wav,0,0,1582,22,4,Chinese,f,2,0.2,79.35216778,1.19822254
TWP_2025,34,0,2024-06-20T12:26:44.931Z,english_799.wav,0,0,1582,22,4,Chinese,f,3,0.3,-10.62506754,1.60128914
TWP_2025,34,0,2024-06-20T12:26:44.931Z,english_799.wav,0,0,1582,22,4,Chinese,f,4,0.4,6.33564747,0.01319764
TWP_2025,34,0,2024-06-20T12:26:44.931Z,english_799.wav,0,0,1582,22,4,Chinese,f,5,0.5,90.41443979,1.72553046
TWP_2025,34,0,2024-06-20T12:26:44.931Z,english_799.wav,0,0,1582,22,4,Chinese,f,6,0.6,-60.57880503,1.2547609
TWP_2025,34,0,2024-06-20T12:26:44.931Z,english_799.wav,0,0,1582,22,4,Chinese,f,7,0.7,9.86229071,0.74830712
TWP_2025,34,0,2024-06-20T12:26:44.931Z,english_799.wav,0,0,1582,22,4,Chinese,f,8,0.8,-45.57695026,0.71080767
TWP_2025,34,0,2024-06-20T12:26:44.931Z,english_799.wav,0,0,1582,22,4,Chinese,f,9,0.9,4.80419962,0.83933205
TWP_2025,34,0,2024-06-20T12:26:44.931Z,english_799.wav,0,0,1582,22,4,Chinese,f,10,1,49.35310044,0.24394342
TWP_2025,34,0,2024-06-20T12:26:44.931Z,english_799.wav,0,0,1582,22,4,Chinese,f,11,1.09391667,82.63345718,0.9569793
TWP_2025,35,0,2024-06-20T12:26:44.931Z,english_135.wav,0,0,2179,22,4,Chinese,f,0,0,1.52771956,1.05574256
TWP_2025,35,0,2024-06-20T12:26:44.931Z,english_135.wav,0,0,2179,22,4,Chinese,f,1,0.1,87.85930758,0.07400982
TWP_2025,35,0,2024-06-20T12:26:44.931Z,english_135.wav,0,0,2179,22,4,Chinese,f,2,0.2,10.69232429,1.27555025
TWP_2025,35,0,2024-06-20T12:26:44.931Z,english_135.wav,0,0,2179,22,4,Chinese,f,3,0.3,-30.56293348,1.65548466
TWP_2025,35,0,2024-06-20T12:26:44.931Z,english_135.wav,0,0,2179,22,4,Chinese,f,4,0.4,18.68768105,0.65488565
TWP_2025,35,0,2024-06-20T12:26:44.931Z,english_135.wav,0,0,2179,22,4,Chinese,f,5,0.5,83.74749446,1.6850938
TWP_2025,35,0,2024-06-20T12:26:44.931Z,english_135.wav,0,0,2179,22,4,Chinese,f,6,0.6,2.30267465,0.17916719
TWP_2025,35,0,2024-06-20T12:26:44.931Z,english_135.wav,0,0,2179,22,4,Chinese,f,7,0.7,10.55624665,0.7091252
TWP_2025,35,0,2024-06-20T12:26:44.931Z,english_135.wav,0,0,2179,22,4,Chinese,f,8,0.8,-52.17497639,1.14424326
TWP_2025,35,0,2024-06-20T12:26:44.931Z,english_135.wav,0,0,2179,22,4,Chinese,f,9,0.9,63.1552018,0.08021557
TWP_2025,35,0,2024-06-20T12:26:44.931Z,english_135.wav,0,0,2179,22,4,Chinese,f,10,1,32.56027872,1.28558373
TWP_2025,35,0,2024-06-20T12:26:44.931Z,english_135.wav,0,0,2179,22,4,Chinese,f,11,1.09391667,49.01841871,0.80254185
TWP_2025,36,0,2024-06-20T12:26:44.931Z,english_655.wav,0,1,838,22,4,Chinese,f,0,0,-90.05217159,1.15438405
TWP_2025,36,0,2024-06-20T12:26:44.931Z,english_655.wav,0,1,838,22,4,Chinese,f,1,0.1,-51.53203878,1.12188764
TWP_2025,36,0,2024-06-20T12:26:44.931Z,english_655.wav,0,1,838,22,4,Chinese,f,2,0.2,-18.56413276,0.95676367
TWP_2025,36,0,2024-06-20T12:26:44.931Z,english_655.wav,0,1,838,22,4,Chinese,f,3,0.3,-32.31488117,0.61420414
TWP_2025,36,0,2024-06-20T12:26:44.931Z,english_655.wav,0,1,838,22,4,Chinese,f,4,0.4,49.43339315,0.76264188
TWP_2025,36,0,2024-06-20T12:26:44.931Z,english_655.wav,0,1,838,22,4,Chinese,f,5,0.5,-67.53322914,1.45400352
TWP_2025,36,0,2024-06-20T12:26:44.931Z,english_655.wav,0,1,838,22,4,Chinese,f,6,0.6,90.11454302,0.06830652
TWP_2025,36,0,2024-06-20T12:26:44.931Z,english_655.wav,0,1,838,22,4,Chinese,f,7,0.7,98.57977716,0.91955523
TWP_2025,36,0,2024-06-20T12:26:44.931Z,english_655.wav,0,1,838,22,4,Chinese,f,8,0.8,29.43352269,0.33519017
TWP_2025,36,0,2024-06-20T12:26:44.931Z,english_655.wav,0,1,838,22,4,Chinese,f,9,0.9,91.08820104,0.7797243
TWP_2025,36,0,2024-06-20T12:26:44.931Z,english_655.wav,0,1,838,22,4,Chinese,f,10,1,-3.70059628,1.01878467
TWP_2025,36,0,2024-06-20T12:26:44.931Z,english_655.wav,0,1,838,22,4,Chinese,f,11,1.09391667,30.30784512,1.55349389
TWP_2025,37,0,2024-06-20T12:26:44.931Z,english_834.wav,0,1,598,22,4,Chinese,f,0,0,-86.16375599,1.62153397
TWP_2025,37,0,2024-06-20T12:26:44.931Z,english_834.wav,0,1,598,22,4,Chinese,f,1,0.1,-22.09919923,1.42577166
TWP_2025,37,0,2024-06-20T12:26:44.931Z,english_834.wav,0,1,598,22,4,Chinese,f,2,0.2,63.82090938,1.22840095
TWP_2025,37,0,2024-06-20T12:26:44.931Z,english_834.wav,0,1,598,22,4,Chinese,f,3,0.3,38.26115817,1.977843
TWP_2025,37,0,2024-06-20T12:26:44.931Z,english_834.wav,0,1,598,22,4,Chinese,f,4,0.4,15.19654457,0.63466945
TWP_2025,37,0,2024-06-20T12:26:44.931Z,english_834.wav,0,1,598,22,4,Chinese,f,5,0.5,78.054871,1.94429469
TWP_2025,37,0,2024-06-20T12:26:44.931Z,english_834.wav,0,1,598,22,4,Chinese,f,6,0.6,63.1081572,0.531594
TWP_2025,37,0,2024-06-20T12:26:44.931Z,english_834.wav,0,1,598,22,4,Chinese,f,7,0.7,43.43236214,1.34157161
TWP_2025,37,0,2024-06-20T12:26:44.931Z,english_834.wav,0,1,598,22,4,Chinese,f,8,0.8,-74.3897683,1.32269287
TWP_2025,37,0,2024-06-20T12:26:44.931Z,english_834.wav,0,1,598,22,4,Chinese,f,9,0.9,40.24285486,1.75386624
TWP_2025,37,0,2024-06-20T12:26:44.931Z,english_834.wav,0,1,598,22,4,Chinese,f,10,1,-67.71571624,1.01238939
TWP_2025,37,0,2024-06-20T12:26:44.931Z,english_834.wav,0,1,598,22,4,Chinese,f,11,1.09391667,40.03958616,1.44306133
TWP_2025,38,0,2024-06-20T12:26:44.931Z,english_901.wav,0,0,1052,22,4,Chinese,f,0,0,-96.81604806,1.46324918
TWP_2025,38,0,2024-06-20T12:26:44.931Z,english_901.wav,0,0,1052,22,4,Chinese,f,1,0.1,37.83480038,0.84459601
TWP_2025,38,0,2024-06-20T12:26:44.931Z,english_901.wav,0,0,1052,22,4,Chinese,f,2,0.2,-8.61723514,0.1668762
TWP_2025,38,0,2024-06-20T12:26:44.931Z,english_901.wav,0,0,1052,22,4,Chinese,f,3,0.3,-84.9926442,0.0760945
TWP_2025,38,0,2024-06-20T12:26:44.931Z,english_901.wav,0,0,1052,22,4,Chinese,f,4,0.4,-0.16612884,0.24671579
TWP_2025,38,0,2024-06-20T12:26:44.931Z,english_901.wav,0,0,1052,22,4,Chinese,f,5,0.5,15.9690541,1.57602984
TWP_2025,38,0,2024-06-20T12:26:44.931Z,english_901.wav,0,0,1052,22,4,Chinese,f,6,0.6,46.64910026,1.29975865
TWP_2025,38,0,2024-06-20T12:26:44.931Z,english_901.wav,0,0,1052,22,4,Chinese,f,7,0.7,-78.92875072,1.65637017
TWP_2025,38,0,2024-06-20T12:26:44.931Z,english_901.wav,0,0,1052,22,4,Chinese,f,8,0.8,97.27833726,0.50357009
TWP_2025,38,0,2024-06-20T12:26:44.931Z,english_901.wav,0,0,1052,22,4,Chinese,f,9,0.9,57.26507245,0.73013763
TWP_2025,38,0,2024-06-20T12:26:44.931Z,english_901.wav,0,0,1052,22,4,Chinese,f,10,1,87.23640608,0.60658699
TWP_2025,38,0,2024-06-20T12:26:44.931Z,english_901.wav,0,0,1052,22,4,Chinese,f,11,1.09391667,9.28772105,1.30909728
TWP_2025,39,0,2024-06-20T12:26:44.931Z,english_26.wav,0,0,659,22,4,Chinese,f,0,0,-47.00443728,0.76495966
TWP_2025,39,0,2024-06-20T12:26:44.931Z,english_26.wav,0,0,659,22,4,Chinese,f,1,0.1,-34.82629788,0.39579578
TWP_2025,39,0,2024-06-20T12:26:44.931Z,english_26.wav,0,0,659,22,4,Chinese,f,2,0.2,24.7004615,0.94110956
TWP_2025,39,0,2024-06-20T12:26:44.931Z,english_26.wav,0,0,659,22,4,Chinese,f,3,0.3,58.84625328,1.03122295
TWP_2025,39,0,2024-06-20T12:26:44.931Z,english_26.wav,0,0,659,22,4,Chinese,f,4,0.4,35.91387632,0.44153341
TWP_2025,39,0,2024-06-20T12:26:44.931Z,english_26.wav,0,0,659,22,4,Chinese,f,5,0.5,-49.42977929,0.19802805
TWP_2025,39,0,2024-06-20T12:26:44.931Z,english_26.wav,0,0,659,22,4,Chinese,f,6,0.6,63.62799551,0.5127439
TWP_2025,39,0,2024-06-20T12:26:44.931Z,english_26.wav,0,0,659,22,4,Chinese,f,7,0.7,-20.10119494,1.41060294
TWP_2025,39,0,2024-06-20T12:26:44.931Z,english_26.wav,0,0,659,22,4,Chinese,f,8,0.8,-32.9417882,0.36769689
TWP_2025,39,0,2024-06-20T12:26:44.931Z,english_26.wav,0,0,659,22,4,Chinese,f,9,0.9,-76.94114545,0.44844399
TWP_2025,39,0,2024-06-20T12:26:44.931Z,english_26.wav,0,0,659,22,4,Chinese,f,10,1,55.52160425,0.43574826
TWP_2025,39,0,2024-06-20T12:26:44.931Z,english_26.wav,0,0,659,22,4,Chinese,f,11,1.09391667,-26.0703889,0.40615906
TWP_2025,40,0,2024-06-20T12:26:44.931Z,english_718.wav,0,0,1115,22,4,Chinese,f,0,0,61.00269276,1.9915537
TWP_2025,40,0,2024-06-20T12:26:44.931Z,english_718.wav,0,0,1115,22,4,Chinese,f,1,0.1,-4.74934843,0.89410112
TWP_2025,40,0,2024-06-20T12:26:44.931Z,english_718.wav,0,0,1115,22,4,Chinese,f,2,0.2,9.01462899,1.56072611
TWP_2025,40,0,2024-06-20T12:26:44.931Z,english_718.wav,0,0,1115,22,4,Chinese,f,3,0.3,79.23930225,0.98422559
TWP_2025,40,0,2024-06-20T12:26:44.931Z,english_718.wav,0,0,1115,22,4,Chinese,f,4,0.4,-22.0403667,1.91227381
TWP_2025,40,0,2024-06-20T12:26:44.931Z,english_718.wav,0,0,1115,22,4,Chinese,f,5,0.5,-60.9220938,1.04807259
TWP_2025,40,0,2024-06-20T12:26:44.931Z,english_718.wav,0,0,1115,22,4,Chinese,f,6,0.6,36.91126826,0.76136187
TWP_2025,40,0,2024-06-20T12:26:44.931Z,english_718.wav,0,0,1115,22,4,Chinese,f,7,0.7,23.15113788,1.40698191
TWP_2025,40,0,2024-06-20T12:26:44.931Z,english_718.wav,0,0,1115,22,4,Chinese,f,8,0.8,-72.29830581,0.19509634
TWP_2025,40,0,2024-06-20T12:26:44.931Z,english_718.wav,0,0,1115,22,4,Chinese,f,9,0.9,-56.27843268,0.95755477
TWP_2025,40,0,2024-06-20T12:26:44.931Z,english_718.wav,0,0,1115,22,4,Chinese,f,10,1,-20.76477327,0.32836836
TWP_2025,40,0,2024-06-20T12:26:44.931Z,english_718.wav,0,0,1115,22,4,Chinese,f,11,1.09391667,-26.98598325,1.63350278
TWP_2025,41,0,2024-06-20T12:26:44.931Z,english_771.wav,0,0,1298,22,4,Chinese,f,0,0,-36.50619676,0.84712365
TWP_2025,41,0,2024-06-20T12:26:44.931Z,english_771.wav,0,0,1298,22,4,Chinese,f,1,0.1,14.7541205,1.2125626
TWP_2025,41,0,2024-06-20T12:26:44.931Z,english_771.wav,0,0,1298,22,4,Chinese,f,2,0.2,-52.38540711,1.26925878
TWP_2025,41,0,2024-06-20T12:26:44.931Z,english_771.wav,0,0,1298,22,4,Chinese,f,3,0.3,-44.85491202,0.42277432
TWP_2025,41,0,2024-06-20T12:26:44.931Z,english_771.wav,0,0,1298,22,4,Chinese,f,4,0.4,-95.75173067,1.76146367
TWP_2025,41,0,2024-06-20T12:26:44.931Z,english_771.wav,0,0,1298,22,4,Chinese,f,5,0.5,80.62781484,1.97802023
TWP_2025,41,0,2024-06-20T12:26:44.931Z,english_771.wav,0,0,1298,22,4,Chinese,f,6,0.6,73.74351295,1.00927999
TWP_2025,41,0,2024-06-20T12:26:44.931Z,english_771.wav,0,0,1298,22,4,Chinese,f,7,0.7,-36.03140148,0.74378616
TWP_2025,41,0,2024-06-20T12:26:44.931Z,english_771.wav,0,0,1298,22,4,Chinese,f,8,0.8,-29.08842157,1.61654752
TWP_2025,41,0,2024-06-20T12:26:44.931Z,english_771.wav,0,0,1298,22,4,Chinese,f,9,0.9,81.37771219,0.74494496
TWP_2025,41,0,2024-06-20T12:26:44.931Z,english_771.wav,0,0,1298,22,4,Chinese,f,10,1,2.32979024,0.15244903
TWP_2025,41,0,2024-06-20T12:26:44.931Z,english_771.wav,0,0,1298,22,4,Chinese,f,11,1.09391667,-15.5068463,0.47232317
TWP_2025,42,0,2024-06-20T12:26:44.931Z,english_644.wav,0,1,2393,22,4,Chinese,f,0,0,-7.74705656,0.66688753
TWP_2025,42,0,2024-06-20T12:26:44.931Z,english_644.wav,0,1,2393,22,4,Chinese,f,1,0.1,13.74923295,1.25240531
TWP_2025,42,0,2024-06-20T12:26:44.931Z,english_644.wav,0,1,2393,22,4,Chinese,f,2,0.2,40.16854527,1.72800914
TWP_2025,42,0,2024-06-20T12:26:44.931Z,english_644.wav,0,1,2393,22,4,Chinese,f,3,0.3,16.95590876,1.901406
TWP_2025,42,0,2024-06-20T12:26:44.931Z,english_644.wav,0,1,2393,22,4,Chinese,f,4,0.4,92.94154477,1.33708406
TWP_2025,42,0,2024-06-20T12:26:44.931Z,english_644.wav,0,1,2393,22,4,Chinese,f,5,0.5,56.03551628,0.15832583
TWP_2025,42,0,2024-06-20T12:26:44.931Z,english_644.wav,0,1,2393,22,4,Chinese,f,6,0.6,38.20742884,0.92905529
TWP_2025,42,0,2024-06-20T12:26:44.931Z,english_644.wav,0,1,2393,22,4,Chinese,f,7,0.7,77.59912579,1.33051148
TWP_2025,42,0,2024-06-20T12:26:44.931Z,english_644.wav,0,1,2393,22,4,Chinese,f,8,0.8,-70.6366221,1.52220135
TWP_2025,42,0,2024-06-20T12:26:44.931Z,english_644.wav,0,1,2393,22,4,Chinese,f,9,0.9,28.8352997,0.90700951
TWP_2025,42,0,2024-06-20T12:26:44.931Z,english_644.wav,0,1,2393,22,4,Chinese,f,10,1,-31.19037079,0.18646841
TWP_2025,42,0,2024-06-20T12:26:44.931Z,english_644.wav,0,1,2393,22,4,Chinese,f,11,1.09391667,-96.94347339,1.53278214
TWP_2025,43,0,2024-06-20T12:26:44.931Z,english_988.wav,0,1,1192,22,4,Chinese,f,0,0,41.01121176,1.79508408
TWP_2025,43,0,2024-06-20T12:26:44.931Z,english_988.wav,0,1,1192,22,4,Chinese,f,1,0.1,-57.00509923,0.91683768
TWP_2025,43,0,2024-06-20T12:26:44.931Z,english_988.wav,0,1,1192,22,4,Chinese,f,2,0.2,-47.7423933,0.75632301
TWP_2025,43,0,2024-06-20T12:26:44.931Z,english_988.wav,0,1,1192,22,4,Chinese,f,3,0.3,-45.09224268,0.50123111
TWP_2025,43,0,2024-06-20T12:26:44.931Z,english_988.wav,0,1,1192,22,4,Chinese,f,4,0.4,-86.23747248,1.43218642
TWP_2025,43,0,2024-06-20T12:26:44.931Z,english_988.wav,0,1,1192,22,4,Chinese,f,5,0.5,32.23270896,1.02417726
TWP_2025,43,0,2024-06-20T12:26:44.931Z,english_988.wav,0,1,1192,22,4,Chinese,f,6,0.6,83.03664367,0.26646991
TWP_2025,43,0,2024-06-20T12:26:44.931Z,english_988.wav,0,1,1192,22,4,Chinese,f,7,0.7,23.13228138,0.55372386
TWP_2025,43,0,2024-06-20T12:26:44.931Z,english_988.wav,0,1,1192,22,4,Chinese,f,8,0.8,-80.96876175,1.25427564
TWP_2025,43,0,2024-06-20T12:26:44.931Z,english_988.wav,0,1,1192,22,4,Chinese,f,9,0.9,85.87163391,1.46901823
TWP_2025,43,0,2024-06-20T12:26:44.931Z,english_988.wav,0,1,1192,22,4,Chinese,f,10,1,65.98257536,1.62105321
TWP_2025,43,0,2024-06-20T12:26:44.931Z,english_988.wav,0,1,1192,22,4,Chinese,f,11,1.09391667,8.92791605,1.15707193
TWP_2025,44,0,2024-06-20T12:26:44.931Z,english_212.wav,0,1,570,22,4,Chinese,f,0,0,7.28178662,1.69718484
TWP_2025,44,0,2024-06-20T12:26:44.931Z,english_212.wav,0,1,570,22,4,Chinese,f,1,0.1,53.30309055,0.86840916
TWP_2025,44,0,2024-06-20T12:26:44.931Z,english_212.wav,0,1,570,22,4,Chinese,f,2,0.2,9.81131056,0.62741544
TWP_2025,44,0,2024-06-20T12:26:44.931Z,english_212.wav,0,1,570,22,4,Chinese,f,3,0.3,-90.32961485,1.93796864
TWP_2025,44,0,2024-06-20T12:26:44.931Z,english_212.wav,0,1,570,22,4,Chinese,f,4,0.4,16.20847807,1.96151684
TWP_2025,44,0,2024-06-20T12:26:44.931Z,english_212.wav,0,1,570,22,4,Chinese,f,5,0.5,-12.76815096,0.98998478
TWP_2025,44,0,2024-06-20T12:26:44.931Z,english_212.wav,0,1,570,22,4,Chinese,f,6,0.6,93.86097069,1.74396039
TWP_2025,44,0,2024-06-20T12:26:44.931Z,english_212.wav,0,1,570,22,4,Chinese,f,7,0.7,39.57297318,1.59359998
TWP_2025,44,0,2024-06-20T12:26:44.931Z,english_212.wav,0,1,570,22,4,Chinese,f,8,0.8,-19.22688735,1.3284153
TWP_2025,44,0,2024-06-20T12:26:44.931Z,english_212.wav,0,1,570,22,4,Chinese,f,9,0.9,-71.99383643,1.90824048
TWP_2025,44,0,2024-06-20T12:26:44.931Z,english_212.wav,0,1,570,22,4,Chinese,f,10,1,5.42324024,1.38687745
TWP_2025,44,0,2024-06-20T12:26:44.931Z,english_212.wav,0,1,570,22,4,Chinese,f,11,1.09391667,-66.1565739,0.48487656
TWP_2025,45,0,2024-06-20T12:26:44.931Z,english_466.wav,0,1,974,22,4,Chinese,f,0,0,29.78122055,0.08614047
TWP_2025,45,0,2024-06-20T12:26:44.931Z,english_466.wav,0,1,974,22,4,Chinese,f,1,0.1,1.00212309,0.60651355
TWP_2025,45,0,2024-06-20T12:26:44.931Z,english_466.wav,0,1,974,22,4,Chinese,f,2,0.2,84.88341441,0.95660543
TWP_2025,45,0,2024-06-20T12:26:44.931Z,english_466.wav,0,1,974,22,4,Chinese,f,3,0.3,18.0671926,0.08485907
TWP_2025,45,0,2024-06-20T12:26:44.931Z,english_466.wav,0,1,974,22,4,Chinese,f,4,0.4,-63.20091068,0.78105645
TWP_2025,45,0,2024-06-20T12:26:44.931Z,english_466.wav,0,1,974,22,4,Chinese,f,5,0.5,-1.15346207,0.10730209
TWP_2025,45,0,2024-06-20T12:26:44.931Z,english_466.wav,0,1,974,22,4,Chinese,f,6,0.6,-1.70645236,1.7980607
TWP_2025,45,0,2024-06-20T12:26:44.931Z,english_466.wav,0,1,974,22,4,Chinese,f,7,0.7,37.24590025,1.48241485
TWP_2025,45,0,2024-06-20T12:26:44.931Z,english_466.wav,0,1,974,22,4,Chinese,f,8,0.8,-40.92862731,0.1626415
TWP_2025,45,0,2024-06-20T12:26:44.931Z,english_466.wav,0,1,974,22,4,Chinese,f,9,0.9,-58.08317272,1.43527927
TWP_2025,45,0,2024-06-20T12:26:44.931Z,english_466.wav,0,1,974,22,4,Chinese,f,10,1,-59.75718078,0.97707475
TWP_2025,45,0,2024-06-20T12:26:44.931Z,english_466.wav,0,1,974,22,4,Chinese,f,11,1.09391667,13.82760032,1.6467926
TWP_2025,46,0,2024-06-20T12:26:44.931Z,english_477.wav,0,1,1065,22,4,Chinese,f,0,0,44.11369928,1.39445147
TWP_2025,46,0,2024-06-20T12:26:44.931Z,english_477.wav,0,1,1065,22,4,Chinese,f,1,0.1,-49.72421876,1.98393148
TWP_2025,46,0,2024-06-20T12:26:44.931Z,english_477.wav,0,1,1065,22,4,Chinese,f,2,0.2,37.81687243,1.85807547
TWP_2025,46,0,2024-06-20T12:26:44.931Z,english_477.wav,0,1,1065,22,4,Chinese,f,3,0.3,-52.5290051,0.71490172
TWP_2025,46,0,2024-06-20T12:26:44.931Z,english_477.wav,0,1,1065,22,4,Chinese,f,4,0.4,42.12087864,0.37809407
TWP_2025,46,0,2024-06-20T12:26:44.931Z,english_477.wav,0,1,1065,22,4,Chinese,f,5,0.5,-3.66730799,0.12826759
TWP_2025,46,0,2024-06-20T12:26:44.931Z,english_477.wav,0,1,1065,22,4,Chinese,f,6,0.6,34.46605835,0.32776618
TWP_2025,46,0,2024-06-20T12:26:44.931Z,english_477.wav,0,1,1065,22,4,Chinese,f,7,0.7,92.87725089,0.64947081
TWP_2025,46,0,2024-06-20T12:26:44.931Z,english_477.wav,0,1,1065,22,4,Chinese,f,8,0.8,-80.85076749,1.06355304
TWP_2025,46,0,2024-06-20T12:26:44.931Z,english_477.wav,0,1,1065,22,4,Chinese,f,9,0.9,-9.36766275,1.32938803
TWP_2025,46,0,2024-06-20T12:26:44.931Z,english_477.wav,0,1,1065,22,4,Chinese,f,10,1,76.24737873,1.22597552
TWP_2025,46,0,2024-06-20T12:26:44.931Z,english_477.wav,0,1,1065,22,4,Chinese,f,11,1.09391667,-13.80306297,1.00606008
TWP_2025,47,0,2024-06-20T12:26:44.931Z,english_319.wav,0,1,598,22,4,Chinese,f,0,0,77.16443591,0.7420308
TWP_2025,47,0,2024-06-20T12:26:44.931Z,english_319.wav,0,1,598,22,4,Chinese,f,1,0.1,-97.50447801,0.79369359
TWP_2025,47,0,2024-06-20T12:26:44.931Z,english_319.wav,0,1,598,22,4,Chinese,f,2,0.2,48.22320359,0.01474693
TWP_2025,47,0,2024-06-20T12:26:44.931Z,english_319.wav,0,1,598,22,4,Chinese,f,3,0.3,85.69365628,0.05089627
TWP_2025,47,0,2024-06-20T12:26:44.931Z,english_319.wav,0,1,598,22,4,Chinese,f,4,0.4,-99.19363603,1.27499461
TWP_2025,47,0,2024-06-20T12:26:44.931Z,english_319.wav,0,1,598,22,4,Chinese,f,5,0.5,-23.7721795,1.87204787
TWP_2025,47,0,2024-06-20T12:26:44.931Z,english_319.wav,0,1,598,22,4,Chinese,f,6,0.6,69.35156136,1.81900072
TWP_2025,47,0,2024-06-20T12:26:44.931Z,english_319.wav,0,1,598,22,4,Chinese,f,7,0.7,-45.28598517,1.18018
TWP_2025,47,0,2024-06-20T12:26:44.931Z,english_319.wav,0,1,598,22,4,Chinese,f,8,0.8,-63.05288391,1.07853439
TWP_2025,47,0,2024-06-20T12:26:44.931Z,english_319.wav,0,1,598,22,4,Chinese,f,9,0.9,-37.89893573,1.96522233
TWP_2025,47,0,2024-06-20T12:26:44.931Z,english_319.wav,0,1,598,22,4,Chinese,f,10,1,-33.85226459,1.95815374
TWP_2025,47,0,2024-06-20T12:26:44.931Z,english_319.wav,0,1,598,22,4,Chinese,f,11,1.09391667,-77.07753192,1.86512983
TWP_2025,48,0,2024-06-20T12:26:44.931Z,english_967.wav,0,1,806,22,4,Chinese,f,0,0,-95.01579597,1.84793029
TWP_2025,48,0,2024-06-20T12:26:44.931Z,english_967.wav,0,1,806,22,4,Chinese,f,1,0.1,-83.85694312,0.58680999
TWP_2025,48,0,2024-06-20T12:26:44.931Z,english_967.wav,0,1,806,22,4,Chinese,f,2,0.2,-85.29120752,1.7718572
TWP_2025,48,0,2024-06-20T12:26:44.931Z,english_967.wav,0,1,806,22,4,Chinese,f,3,0.3,39.64714204,1.16952376
TWP_2025,48,0,2024-06-20T12:26:44.931Z,english_967.wav,0,1,806,22,4,Chinese,f,4,0.4,57.5109199,0.26483397
TWP_2025,48,0,2024-06-20T12:26:44.931Z,english_967.wav,0,1,806,22,4,Chinese,f,5,0.5,17.84726357,0.70174807
TWP_2025,48,0,2024-06-20T12:26:44.931Z,english_967.wav,0,1,806,22,4,Chinese,f,6,0.6,72.49898727,1.00653378
TWP_2025,48,0,2024-06-20T12:26:44.931Z,english_967.wav,0,1,806,22,4,Chinese,f,7,0.7,-49.28489837,0.37312662
TWP_2025,48,0,2024-06-20T12:26:44.931Z,english_967.wav,0,1,806,22,4,Chinese,f,8,0.8,27.76319329,0.21661179
TWP_2025,48,0,2024-06-20T12:26:44.931Z,english_967.wav,0,1,806,22,4,Chinese,f,9,0.9,40.88732144,1.37557681
TWP_2025,48,0,2024-06-20T12:26:44.931Z,english_967.wav,0,1,806,22,4,Chinese,f,10,1,25.08094833,0.83851773
TWP_2025,48,0,2024-06-20T12:26:44.931Z,english_967.wav,0,1,806,22,4,Chinese,f,11,1.09391667,-11.2848797,1.10196179
TWP_2025,49,0,2024-06-20T12:26:44.931Z,english_616.wav,0,1,698,22,4,Chinese,f,0,0,-58.43899918,1.31887323
TWP_2025,49,0,2024-06-20T12:26:44.931Z,english_616.wav,0,1,698,22,4,Chinese,f,1,0.1,91.54551443,1.19326366
TWP_2025,49,0,2024-06-20T12:26:44.931Z,english_616.wav,0,1,698,22,4,Chinese,f,2,0.2,-72.76331238,1.15507306
TWP_2025,49,0,2024-06-20T12:26:44.931Z,english_616.wav,0,1,698,22,4,Chinese,f,3,0.3,98.66983591,1.15408068
TWP_2025,49,0,2024-06-20T12:26:44.931Z,english_616.wav,0,1,698,22,4,Chinese,f,4,0.4,30.89695447,1.80966351
TWP_2025,49,0,2024-06-20T12:26:44.931Z,english_616.wav,0,1,698,22,4,Chinese,f,5,0.5,95.21036015,0.8568389
TWP_2025,49,0,2024-06-20T12:26:44.931Z,english_616.wav,0,1,698,22,4,Chinese,f,6,0.6,38.34251154,0.52507159
TWP_2025,49,0,2024-06-20T12:26:44.931Z,english_616.wav,0,1,698,22,4,Chinese,f,7,0.7,53.37022057,1.38987598
TWP_2025,49,0,2024-06-20T12:26:44.931Z,english_616.wav,0,1,698,22,4,Chinese,f,8,0.8,64.27718414,1.91003383
TWP_2025,49,0,2024-06-20T12:26:44.931Z,english_616.wav,0,1,698,22,4,Chinese,f,9,0.9,-47.15745764,1.62420327
TWP_2025,49,0,2024-06-20T12:26:44.931Z,english_616.wav,0,1,698,22,4,Chinese,f,10,1,61.31789033,1.95831122
TWP_2025,49,0,2024-06-20T12:26:44.931Z,english_616.wav,0,1,698,22,4,Chinese,f,11,1.09391667,-28.29544228,0.95794745
TWP_2025,50,1,2024-06-20T12:26:44.931Z,english_881.wav,0,0,1577,22,4,Chinese,f,0,0,-6.48543923,0.68458474
TWP_2025,50,1,2024-06-20T12:26:44.931Z,english_881.wav,0,0,1577,22,4,Chinese,f,1,0.1,52.42470042,1.23345655
TWP_2025,50,1,2024-06-20T12:26:44.931Z,english_881.wav,0,0,1577,22,4,Chinese,f,2,0.2,27.22865134,1.03441451
TWP_2025,50,1,2024-06-20T12:26:44.931Z,english_881.wav,0,0,1577,22,4,Chinese,f,3,0.3,-26.12053543,0.51926044
TWP_2025,50,1,2024-06-20T12:26:44.931Z,english_881.wav,0,0,1577,22,4,Chinese,f,4,0.4,80.9200248,1.84993398
TWP_2025,50,1,2024-06-20T12:26:44.931Z,english_881.wav,0,0,1577,22,4,Chinese,f,5,0.5,91.13618142,0.2782437
TWP_2025,50,1,2024-06-20T12:26:44.931Z,english_881.wav,0,0,1577,22,4,Chinese,f,6,0.6,72.82749112,1.43037542
TWP_2025,50,1,2024-06-20T12:26:44.931Z,english_881.wav,0,0,1577,22,4,Chinese,f,7,0.7,4.61309193,1.82353332
TWP_2025,50,1,2024-06-20T12:26:44.931Z,english_881.wav,0,0,1577,22,4,Chinese,f,8,0.8,6.14992629,1.39771107
TWP_2025,50,1,2024-06-20T12:26:44.931Z,english_881.wav,0,0,1577,22,4,Chinese,f,9,0.9,-73.40306534,0.81234613
TWP_2025,50,1,2024-06-20T12:26:44.931Z,english_881.wav,0,0,1577,22,4,Chinese,f,10,1,-18.81910787,0.47215555
TWP_2025,50,1,2024-06-20T12:26:44.931Z,english_881.wav,0,0,1577,22,4,Chinese,f,11,1.09391667,-70.65652208,1.77841719
TWP_2025,51,1,2024-06-20T12:26:44.931Z,english_30.wav,0,0,2981,22,4,Chinese,f,0,0,7.20305011,0.62248381
TWP_2025,51,1,2024-06-20T12:26:44.931Z,english_30.wav,0,0,2981,22,4,Chinese,f,1,0.1,40.54252217,1.3534175
TWP_2025,51,1,2024-06-20T12:26:44.931Z,english_30.wav,0,0,2981,22,4,Chinese,f,2,0.2,-27.16756142,1.93672018
TWP_2025,51,1,2024-06-20T12:26:44.931Z,english_30.wav,0,0,2981,22,4,Chinese,f,3,0.3,-47.4542684,1.80613869
TWP_2025,51,1,2024-06-20T12:26:44.931Z,english_30.wav,0,0,2981,22,4,Chinese,f,4,0.4,16.89492576,1.17778721
TWP_2025,51,1,2024-06-20T12:26:44.931Z,english_30.wav,0,0,2981,22,4,Chinese,f,5,0.5,-3.45231142,1.26050698
TWP_2025,51,1,2024-06-20T12:26:44.931Z,english_30.wav,0,0,2981,22,4,Chinese,f,6,0.6,-55.37795964,0.40567716
TWP_2025,51,1,2024-06-20T12:26:44.931Z,english_30.wav,0,0,2981,22,4,Chinese,f,7,0.7,94.81526788,1.85712714
TWP_2025,51,1,2024-06-20T12:26:44.931Z,english_30.wav,0,0,2981,22,4,Chinese,f,8,0.8,4.42136383,0.11089582
TWP_2025,51,1,2024-06-20T12:26:44.931Z,english_30.wav,0,0,2981,22,4,Chinese,f,9,0.9,-28.73125868,1.52275562
TWP_2025,51,1,2024-06-20T12:26:44.931Z,english_30.wav,0,0,2981,22,4,Chinese,f,10,1,-43.27093622,0.4081166
TWP_2025,51,1,2024-06-20T12:26:44.931Z,english_30.wav,0,0,2981,22,4,Chinese,f,11,1.09391667,0.63608962,1.00698649
TWP_2025,52,1,2024-06-20T12:26:44.931Z,english_337.wav,0,1,552,22,4,Chinese,f,0,0,63.30955307,1.05146316
TWP_2025,52,1,2024-06-20T12:26:44.931Z,english_337.wav,0,1,552,22,4,Chinese,f,1,0.1,-16.2405627,1.82422784
TWP_2025,52,1,2024-06-20T12:26:44.931Z,english_337.wav,0,1,552,22,4,Chinese,f,2,0.2,-94.40154866,0.58494816
TWP_2025,52,1,2024-06-20T12:26:44.931Z,english_337.wav,0,1,552,22,4,Chinese,f,3,0.3,75.21778114,1.0983984
TWP_2025,52,1,2024-06-20T12:26:44.931Z,english_337.wav,0,1,552,22,4,Chinese,f,4,0.4,25.54945434,0.15013246
TWP_2025,52,1,2024-06-20T12:26:44.931Z,english_337.wav,0,1,552,22,4,Chinese,f,5,0.5,-24.8991059,0.80312612
TWP_2025,52,1,2024-06-20T12:26:44.931Z,english_337.wav,0,1,552,22,4,Chinese,f,6,0.6,41.94064473,0.26635056
TWP_2025,52,1,2024-06-20T12:26:44.931Z,english_337.wav,0,1,552,22,4,Chinese,f,7,0.7,-52.88941207,1.56094221
TWP_2025,52,1,2024-06-20T12:26:44.931Z,english_337.wav,0,1,552,22,4,Chinese,f,8,0.8,34.33759816,1.1585981
TWP_2025,52,1,2024-06-20T12:26:44.931Z,english_337.wav,0,1,552,22,4,Chinese,f,9,0.9,11.89714474,1.8876465
TWP_2025,52,1,2024-06-20T12:26:44.931Z,english_337.wav,0,1,552,22,4,Chinese,f,10,1,-68.13632942,1.89794163
TWP_2025,52,1,2024-06-20T12:26:44.931Z,english_337.wav,0,1,552,22,4,Chinese,f,11,1.09391667,47.32266625,0.59037239
TWP_2025,53,1,2024-06-20T12:26:44.931Z,english_388.wav,0,0,958,22,4,Chinese,f,0,0,-41.72152619,1.04150919
TWP_2025,53,1,2024-06-20T12:26:44.931Z,english_388.wav,0,0,958,22,4,Chinese,f,1,0.1,16.10845718,1.44420011
TWP_2025,53,1,2024-06-20T12:26:44.931Z,english_388.wav,0,0,958,22,4,Chinese,f,2,0.2,56.96293644,1.65872581
TWP_2025,53,1,2024-06-20T12:26:44.931Z,english_388.wav,0,0,958,22,4,Chinese,f,3,0.3,-95.24889342,1.66380946
TWP_2025,53,1,2024-06-20T12:26:44.931Z,english_388.wav,0,0,958,22,4,Chinese,f,4,0.4,-92.06058204,1.25967223
TWP_2025,53,1,2024-06-20T12:26:44.931Z,english_388.wav,0,0,958,22,4,Chinese,f,5,0.5,-66.79451415,1.01005139
TWP_2025,53,1,2024-06-20T12:26:44.931Z,english_388.wav,0,0,958,22,4,Chinese,f,6,0.6,31.29945158,0.59386887
TWP_2025,53,1,2024-06-20T12:26:44.931Z,english_388.wav,0,0,958,22,4,Chinese,f,7,0.7,52.76870029,1.783647
TWP_2025,53,1,2024-06-20T12:26:44.931Z,english_388.wav,0,0,958,22,4,Chinese,f,8,0.8,-83.90415266,0.30560863
TWP_2025,53,1,2024-06-20T12:26:44.931Z,english_388.wav,0,0,958,22,4,Chinese,f,9,0.9,16.41554992,0.09885056
TWP_2025,53,1,2024-06-20T12:26:44.931Z,english_388.wav,0,0,958,22,4,Chinese,f,10,1,44.20651848,0.45485887
TWP_2025,53,1,2024-06-20T12:26:44.931Z,english_388.wav,0,0,958,22,4,Chinese,f,11,1.09391667,-53.31309565,1.06517725
TWP_2025,54,1,2024-06-20T12:26:44.931Z,english_494.wav,0,0,2686,22,4,Chinese,f,0,0,-0.71105911,1.19698802
TWP_2025,54,1,2024-06-20T12:26:44.931Z,english_494.wav,0,0,2686,22,4,Chinese,f,1,0.1,-4.76372759,0.64302423
TWP_2025,54,1,2024-06-20T12:26:44.931Z,english_494.wav,0,0,2686,22,4,Chinese,f,2,0.2,66.89870616,0.88986983
TWP_2025,54,1,2024-06-20T12:26:44.931Z,english_494.wav,0,0,2686,22,4,Chinese,f,3,0.3,43.91062915,0.33391225
TWP_2025,54,1,2024-06-20T12:26:44.931Z,english_494.wav,0,0,2686,22,4,Chinese,f,4,0.4,-57.8545691,0.78562285
TWP_2025,54,1,2024-06-20T12:26:44.931Z,english_494.wav,0,0,2686,22,4,Chinese,f,5,0.5,-82.5179259,1.92178158
TWP_2025,54,1,2024-06-20T12:26:44.931Z,english_494.wav,0,0,2686,22,4,Chinese,f,6,0.6,80.42837684,0.82903442
TWP_2025,54,1,2024-06-20T12:26:44.931Z,english_494.wav,0,0,2686,22,4,Chinese,f,7,0.7,96.180933,0.59414127
TWP_2025,54,1,2024-06-20T12:26:44.931Z,english_494.wav,0,0,2686,22,4,Chinese,f,8,0.8,17.6398549,1.2399684
TWP_2025,54,1,2024-06-20T12:26:44.931Z,english_494.wav,0,0,2686,22,4,Chinese,f,9,0.9,-72.53927607,0.09321319
TWP_2025,54,1,2024-06-20T12:26:44.931Z,english_494.wav,0,0,2686,22,4,Chinese,f,10,1,-51.27052229,0.68716523
TWP_2025,54,1,2024-06-20T12:26:44.931Z,english_494.wav,0,0,2686,22,4,Chinese,f,11,1.09391667,16.38241645,1.81410855
TWP_2025,55,1,2024-06-20T12:26:44.931Z,english_958.wav,0,1,1062,22,4,Chinese,f,0,0,82.24324258,1.82058144
TWP_2025,55,1,2024-06-20T12:26:44.931Z,english_958.wav,0,1,1062,22,4,Chinese,f,1,0.1,80.86962612,1.23603782
TWP_2025,55,1,2024-06-20T12:26:44.931Z,english_958.wav,0,1,1062,22,4,Chinese,f,2,0.2,-72.80020936,0.454026
TWP_2025,55,1,2024-06-20T12:26:44.931Z,english_958.wav,0,1,1062,22,4,Chinese,f,3,0.3,76.49424807,0.0052754
TWP_2025,55,1,2024-06-20T12:26:44.931Z,english_958.wav,0,1,1062,22,4,Chinese,f,4,0.4,-64.96103848,1.08282214
TWP_2025,55,1,2024-06-20T12:26:44.931Z,english_958.wav,0,1,1062,22,4,Chinese,f,5,0.5,-28.48200693,1.85144542
TWP_2025,55,1,2024-06-20T12:26:44.931Z,english_958.wav,0,1,1062,22,4,Chinese,f,6,0.6,36.24392724,1.26196062
TWP_2025,55,1,2024-06-20T12:26:44.931Z,english_958.wav,0,1,1062,22,4,Chinese,f,7,0.7,61.50604074,1.03215922
TWP_2025,55,1,2024-06-20T12:26:44.931Z,english_958.wav,0,1,1062,22,4,Chinese,f,8,0.8,-15.49344292,0.62598284
TWP_2025,55,1,2024-06-20T12:26:44.931Z,english_958.wav,0,1,1062,22,4,Chinese,f,9,0.9,94.8143858,0.44294081
TWP_2025,55,1,2024-06-20T12:26:44.931Z,english_958.wav,0,1,1062,22,4,Chinese,f,10,1,-29.01167878,0.91164636
TWP_2025,55,1,2024-06-20T12:26:44.931Z,english_958.wav,0,1,1062,22,4,Chinese,f,11,1.09391667,29.83149857,0.09783427
TWP_2025,56,1,2024-06-20T12:26:44.931Z,english_480.wav,0,1,557,22,4,Chinese,f,0,0,9.88794778,0.87231247
TWP_2025,56,1,2024-06-20T12:26:44.931Z,english_480.wav,0,1,557,22,4,Chinese,f,1,0.1,-95.33959947,0.98456716
TWP_2025,56,1,2024-06-20T12:26:44.931Z,english_480.wav,0,1,557,22,4,Chinese,f,2,0.2,-71.35423478,0.16901934
TWP_2025,56,1,2024-06-20T12:26:44.931Z,english_480.wav,0,1,557,22,4,Chinese,f,3,0.3,-83.02465504,0.73359769
TWP_2025,56,1,2024-06-20T12:26:44.931Z,english_480.wav,0,1,557,22,4,Chinese,f,4,0.4,44.94534434,1.77352581
TWP_2025,56,1,2024-06-20T12:26:44.931Z,english_480.wav,0,1,557,22,4,Chinese,f,5,0.5,90.60802244,0.80191765
TWP_2025,56,1,2024-06-20T12:26:44.931Z,english_480.wav,0,1,557,22,4,Chinese,f,6,0.6,-21.26982867,1.98344476
TWP_2025,56,1,2024-06-20T12:26:44.931Z,english_480.wav,0,1,557,22,4,Chinese,f,7,0.7,9.71569321,1.54524915
TWP_2025,56,1,2024-06-20T12:26:44.931Z,english_480.wav,0,1,557,22,4,Chinese,f,8,0.8,-55.27404123,1.67546329
TWP_2025,56,1,2024-06-20T12:26:44.931Z,english_480.wav,0,1,557,22,4,Chinese,f,9,0.9,-2.41346819,1.13666865
TWP_2025,56,1,2024-06-20T12:26:44.931Z,english_480.wav,0,1,557,22,4,Chinese,f,10,1,56.20871311,1.61861075
TWP_2025,56,1,2024-06-20T12:26:44.931Z,english_480.wav,0,1,557,22,4,Chinese,f,11,1.09391667,-52.83193459,1.31490021
TWP_2025,57,1,2024-06-20T12:26:44.931Z,english_155.wav,0,1,1455,22,4,Chinese,f,0,0,21.6550533,0.01570598
TWP_2025,57,1,2024-06-20T12:26:44.931Z,english_155.wav,0,1,1455,22,4,Chinese,f,1,0.1,-0.0016794128,1.76749017
TWP_2025,57,1,2024-06-20T12:26:44.931Z,english_155.wav,0,1,1455,22,4,Chinese,f,2,0.2,-77.5292073,1.37583653
TWP_2025,57,1,2024-06-20T12:26:44.931Z,english_155.wav,0,1,1455,22,4,Chinese,f,3,0.3,-44.9313065,0.19365623
TWP_2025,57,1,2024-06-20T12:26:44.931Z,english_155.wav,0,1,1455,22,4,Chinese,f,4,0.4,-33.7969309,1.34202306
TWP_2025,57,1,2024-06-20T12:26:44.931Z,english_155.wav,0,1,1455,22,4,Chinese,f,5,0.5,46.2285188,1.87351349
TWP_2025,57,1,2024-06-20T12:26:44.931Z,english_155.wav,0,1,1455,22,4,Chinese,f,6,0.6,93.0191022,1.89118344
TWP_2025,57,1,2024-06-20T12:26:44.931Z,english_155.wav,0,1,1455,22,4,Chinese,f,7,0.7,80.6417886,1.25713993
TWP_2025,57,1,2024-06-20T12:26:44.931Z,english_155.wav,0,1,1455,22,4,Chinese,f,8,0.8,-76.4782648,1.84259347
TWP_2025,57,1,2024-06-20T12:26:44.931Z,english_155.wav,0,1,1455,22,4,Chinese,f,9,0.9,-35.964927,0.04007403
TWP_2025,57,1,2024-06-20T12:26:44.931Z,english_155.wav,0,1,1455,22,4,Chinese,f,10,1,90.375739,1.64837519
TWP_2025,57,1,2024-06-20T12:26:44.931Z,english_155.wav,0,1,1455,22,4,Chinese,f,11,1.09391667,66.476003,1.87071869
TWP_2025,58,1,2024-06-20T12:26:44.931Z,english_11.wav,0,0,916,22,4,Chinese,f,0,0,54.56080353,0.32515428
TWP_2025,58,1,2024-06-20T12:26:44.931Z,english_11.wav,0,0,916,22,4,Chinese,f,1,0.1,-83.87228419,1.52115417
TWP_2025,58,1,2024-06-20T12:26:44.931Z,english_11.wav,0,0,916,22,4,Chinese,f,2,0.2,-61.53925714,0.25420302
TWP_2025,58,1,2024-06-20T12:26:44.931Z,english_11.wav,0,0,916,22,4,Chinese,f,3,0.3,-23.71141184,0.57547438
TWP_2025,58,1,2024-06-20T12:26:44.931Z,english_11.wav,0,0,916,22,4,Chinese,f,4,0.4,85.16808592,1.45332803
TWP_2025,58,1,2024-06-20T12:26:44.931Z,english_11.wav,0,0,916,22,4,Chinese,f,5,0.5,-4.98332447,0.76503735
TWP_2025,58,1,2024-06-20T12:26:44.931Z,english_11.wav,0,0,916,22,4,Chinese,f,6,0.6,10.34089151,0.14014492
TWP_2025,58,1,2024-06-20T12:26:44.931Z,english_11.wav,0,0,916,22,4,Chinese,f,7,0.7,-78.53726298,1.07694112
TWP_2025,58,1,2024-06-20T12:26:44.931Z,english_11.wav,0,0,916,22,4,Chinese,f,8,0.8,50.83234719,0.6442665
TWP_2025,58,1,2024-06-20T12:26:44.931Z,english_11.wav,0,0,916,22,4,Chinese,f,9,0.9,-4.0093207,0.01049254
TWP_2025,58,1,2024-06-20T12:26:44.931Z,english_11.wav,0,0,916,22,4,Chinese,f,10,1,-9.65462756,0.40097789
TWP_2025,58,1,2024-06-20T12:26:44.931Z,english_11.wav,0,0,916,22,4,Chinese,f,11,1.09391667,58.44851678,0.23650396
TWP_2025,59,1,2024-06-20T12:26:44.931Z,english_24.wav,0,1,1288,22,4,Chinese,f,0,0,19.80934614,1.72303363
TWP_2025,59,1,2024-06-20T12:26:44.931Z,english_24.wav,0,1,1288,22,4,Chinese,f,1,0.1,18.47296287,1.17223446
TWP_2025,59,1,2024-06-20T12:26:44.931Z,english_24.wav,0,1,1288,22,4,Chinese,f,2,0.2,-87.44087303,0.32252022
TWP_2025,59,1,2024-06-20T12:26:44.931Z,english_24.wav,0,1,1288,22,4,Chinese,f,3,0.3,-24.76838412,1.29113778
TWP_2025,59,1,2024-06-20T12:26:44.931Z,english_24.wav,0,1,1288,22,4,Chinese,f,4,0.4,28.54854922,1.23026356
TWP_2025,59,1,2024-06-20T12:26:44.931Z,english_24.wav,0,1,1288,22,4,Chinese,f,5,0.5,-93.00925389,1.272094
TWP_2025,59,1,2024-06-20T12:26:44.931Z,english_24.wav,0,1,1288,22,4,Chinese,f,6,0.6,43.83851229,1.03857334
TWP_2025,59,1,2024-06-20T12:26:44.931Z,english_24.wav,0,1,1288,22,4,Chinese,f,7,0.7,56.50445967,0.04355902
TWP_2025,59,1,2024-06-20T12:26:44.931Z,english_24.wav,0,1,1288,22,4,Chinese,f,8,0.8,-34.51680679,1.12262583
TWP_2025,59,1,2024-06-20T12:26:44.931Z,english_24.wav,0,1,1288,22,4,Chinese,f,9,0.9,77.91008798,0.83275479
TWP_2025,59,1,2024-06-20T12:26:44.931Z,english_24.wav,0,1,1288,22,4,Chinese,f,10,1,22.21951013,0.49987962
TWP_2025,59,1,2024-06-20T12:26:44.931Z,english_24.wav,0,1,1288,22,4,Chinese,f,11,1.09391667,44.21755505,0.6404637
TWP_2025,60,1,2024-06-20T12:26:44.931Z,english_209.wav,0,0,875,22,4,Chinese,f,0,0,-69.97643607,1.01752059
TWP_2025,60,1,2024-06-20T12:26:44.931Z,english_209.wav,0,0,875,22,4,Chinese,f,1,0.1,-88.52393114,0.50741315
TWP_2025,60,1,2024-06-20T12:26:44.931Z,english_209.wav,0,0,875,22,4,Chinese,f,2,0.2,-92.64381406,1.61277815
TWP_2025,60,1,2024-06-20T12:26:44.931Z,english_209.wav,0,0,875,22,4,Chinese,f,3,0.3,-12.19607679,1.4872908
TWP_2025,60,1,2024-06-20T12:26:44.931Z,english_209.wav,0,0,875,22,4,Chinese,f,4,0.4,51.51628924,0.5793757
TWP_2025,60,1,2024-06-20T12:26:44.931Z,english_209.wav,0,0,875,22,4,Chinese,f,5,0.5,-0.64468501,0.52779709
TWP_2025,60,1,2024-06-20T12:26:44.931Z,english_209.wav,0,0,875,22,4,Chinese,f,6,0.6,71.59302863,0.0231703
TWP_2025,60,1,2024-06-20T12:26:44.931Z,english_209.wav,0,0,875,22,4,Chinese,f,7,0.7,-9.81029184,1.34840208
TWP_2025,60,1,2024-06-20T12:26:44.931Z,english_209.wav,0,0,875,22,4,Chinese,f,8,0.8,-24.63818078,0.66467052
TWP_2025,60,1,2024-06-20T12:26:44.931Z,english_209.wav,0,0,875,22,4,Chinese,f,9,0.9,-3.20105403,0.39411628
TWP_2025,60,1,2024-06-20T12:26:44.931Z,english_209.wav,0,0,875,22,4,Chinese,f,10,1,34.64482647,0.07463584
TWP_2025,60,1,2024-06-20T12:26:44.931Z,english_209.wav,0,0,875,22,4,Chinese,f,11,1.09391667,-96.73374827,1.52336413
TWP_2025,61,1,2024-06-20T12:26:44.931Z,english_543.wav,0,1,594,22,4,Chinese,f,0,0,-38.60842869,0.01455056
TWP_2025,61,1,2024-06-20T12:26:44.931Z,english_543.wav,0,1,594,22,4,Chinese,f,1,0.1,53.1018826,1.33130856
TWP_2025,61,1,2024-06-20T12:26:44.931Z,english_543.wav,0,1,594,22,4,Chinese,f,2,0.2,21.93281072,0.07852499
TWP_2025,61,1,2024-06-20T12:26:44.931Z,english_543.wav,0,1,594,22,4,Chinese,f,3,0.3,-40.4815272,1.77861337
TWP_2025,61,1,2024-06-20T12:26:44.931Z,english_543.wav,0,1,594,22,4,Chinese,f,4,0.4,2.89670018,1.72434721
TWP_2025,61,1,2024-06-20T12:26:44.931Z,english_543.wav,0,1,594,22,4,Chinese,f,5,0.5,31.11758458,1.53256383
TWP_2025,61,1,2024-06-20T12:26:44.931Z,english_543.wav,0,1,594,22,4,Chinese,f,6,0.6,1.30911675,1.33712035
TWP_2025,61,1,2024-06-20T12:26:44.931Z,english_543.wav,0,1,594,22,4,Chinese,f,7,0.7,46.76912586,0.29783205
TWP_2025,61,1,2024-06-20T12:26:44.931Z,english_543.wav,0,1,594,22,4,Chinese,f,8,0.8,-75.40535735,1.43997323
TWP_2025,61,1,2024-06-20T12:26:44.931Z,english_543.wav,0,1,594,22,4,Chinese,f,9,0.9,57.91130712,0.04561747
TWP_2025,61,1,2024-06-20T12:26:44.931Z,english_543.wav,0,1,594,22,4,Chinese,f,10,1,-90.16753315,1.78781135
TWP_2025,61,1,2024-06-20T12:26:44.931Z,english_543.wav,0,1,594,22,4,Chinese,f,11,1.09391667,-42.19615814,1.03895071
TWP_2025,62,1,2024-06-20T12:26:44.931Z,english_372.wav,0,1,2441,22,4,Chinese,f,0,0,26.59916967,1.01937466
TWP_2025,62,1,2024-06-20T12:26:44.931Z,english_372.wav,0,1,2441,22,4,Chinese,f,1,0.1,3.58814385,0.79696142
TWP_2025,62,1,2024-06-20T12:26:44.931Z,english_372.wav,0,1,2441,22,4,Chinese,f,2,0.2,-60.14178388,0.00503004
TWP_2025,62,1,2024-06-20T12:26:44.931Z,english_372.wav,0,1,2441,22,4,Chinese,f,3,0.3,-44.19894674,0.84575405
TWP_2025,62,1,2024-06-20T12:26:44.931Z,english_372.wav,0,1,2441,22,4,Chinese,f,4,0.4,-38.03613901,0.48969314
TWP_2025,62,1,2024-06-20T12:26:44.931Z,english_372.wav,0,1,2441,22,4,Chinese,f,5,0.5,46.39303355,1.79043023
TWP_2025,62,1,2024-06-20T12:26:44.931Z,english_372.wav,0,1,2441,22,4,Chinese,f,6,0.6,-33.97181462,1.46860797
TWP_2025,62,1,2024-06-20T12:26:44.931Z,english_372.wav,0,1,2441,22,4,Chinese,f,7,0.7,-27.46884733,0.04122284
TWP_2025,62,1,2024-06-20T12:26:44.931Z,english_372.wav,0,1,2441,22,4,Chinese,f,8,0.8,-45.55461231,0.63203754
TWP_2025,62,1,2024-06-20T12:26:44.931Z,english_372.wav,0,1,2441,22,4,Chinese,f,9,0.9,20.15963599,1.00944548
TWP_2025,62,1,2024-06-20T12:26:44.931Z,english_372.wav,0,1,2441,22,4,Chinese,f,10,1,54.79355498,0.7711604
TWP_2025,62,1,2024-06-20T12:26:44.931Z,english_372.wav,0,1,2441,22,4,Chinese,f,11,1.09391667,93.56246184,0.15048829
TWP_2025,63,1,2024-06-20T12:26:44.931Z,english_457.wav,0,1,4440,22,4,Chinese,f,0,0,84.98139411,1.86732056
TWP_2025,63,1,2024-06-20T12:26:44.931Z,english_457.wav,0,1,4440,22,4,Chinese,f,1,0.1,17.09678879,0.44857368
TWP_2025,63,1,2024-06-20T12:26:44.931Z,english_457.wav,0,1,4440,22,4,Chinese,f,2,0.2,57.17804744,1.73229159
TWP_2025,63,1,2024-06-20T12:26:44.931Z,english_457.wav,0,1,4440,22,4,Chinese,f,3,0.3,14.4816153,0.24838145
TWP_2025,63,1,2024-06-20T12:26:44.931Z,english_457.wav,0,1,4440,22,4,Chinese,f,4,0.4,-95.87323345,1.53185401
TWP_2025,63,1,2024-06-20T12:26:44.931Z,english_457.wav,0,1,4440,22,4,Chinese,f,5,0.5,72.05470838,1.59335631
TWP_2025,63,1,2024-06-20T12:26:44.931Z,english_457.wav,0,1,4440,22,4,Chinese,f,6,0.6,30.06629286,0.96995374
TWP_2025,63,1,2024-06-20T12:26:44.931Z,english_457.wav,0,1,4440,22,4,Chinese,f,7,0.7,-8.14218992,1.30472387
TWP_2025,63,1,2024-06-20T12:26:44.931Z,english_457.wav,0,1,4440,22,4,Chinese,f,8,0.8,-4.76706145,1.4318374
TWP_2025,63,1,2024-06-20T12:26:44.931Z,english_457.wav,0,1,4440,22,4,Chinese,f,9,0.9,60.66734428,0.45428712
TWP_2025,63,1,2024-06-20T12:26:44.931Z,english_457.wav,0,1,4440,22,4,Chinese,f,10,1,-30.19655674,0.92562243
TWP_2025,63,1,2024-06-20T12:26:44.931Z,english_457.wav,0,1,4440,22,4,Chinese,f,11,1.09391667,-39.41077424,0.45157817
TWP_2025,64,1,2024-06-20T12:26:44.931Z,english_122.wav,0,1,619,22,4,Chinese,f,0,0,77.3413932,0.58709567
TWP_2025,64,1,2024-06-20T12:26:44.931Z,english_122.wav,0,1,619,22,4,Chinese,f,1,0.1,-67.39185751,0.0796985
TWP_2025,64,1,2024-06-20T12:26:44.931Z,english_122.wav,0,1,619,22,4,Chinese,f,2,0.2,89.18550357,1.00639024
TWP_2025,64,1,2024-06-20T12:26:44.931Z,english_122.wav,0,1,619,22,4,Chinese,f,3,0.3,12.33038367,0.81094575
TWP_2025,64,1,2024-06-20T12:26:44.931Z,english_122.wav,0,1,619,22,4,Chinese,f,4,0.4,70.68402371,0.57598842
TWP_2025,64,1,2024-06-20T12:26:44.931Z,english_122.wav,0,1,619,22,4,Chinese,f,5,0.5,25.06803156,0.93423984
TWP_2025,64,1,2024-06-20T12:26:44.931Z,english_122.wav,0,1,619,22,4,Chinese,f,6,0.6,56.81750659,1.53113092
TWP_2025,64,1,2024-06-20T12:26:44.931Z,english_122.wav,0,1,619,22,4,Chinese,f,7,0.7,-43.57912499,1.09738921
TWP_2025,64,1,2024-06-20T12:26:44.931Z,english_122.wav,0,1,619,22,4,Chinese,f,8,0.8,-51.88401647,1.34315846
TWP_2025,64,1,2024-06-20T12:26:44.931Z,english_122.wav,0,1,619,22,4,Chinese,f,9,0.9,-2.10023036,0.94720038
TWP_2025,64,1,2024-06-20T12:26:44.931Z,english_122.wav,0,1,619,22,4,Chinese,f,10,1,-47.35507429,1.69772014
TWP_2025,64,1,2024-06-20T12:26:44.931Z,english_122.wav,0,1,619,22,4,Chinese,f,11,1.09391667,20.07877732,1.14244601
TWP_2025,65,1,2024-06-20T12:26:44.931Z,english_79.wav,0,0,1712,22,4,Chinese,f,0,0,27.97817784,0.84571494
TWP_2025,65,1,2024-06-20T12:26:44.931Z,english_79.wav,0,0,1712,22,4,Chinese,f,1,0.1,71.46944993,1.27709221
TWP_2025,65,1,2024-06-20T12:26:44.931Z,english_79.wav,0,0,1712,22,4,Chinese,f,2,0.2,89.05489336,1.27075812
TWP_2025,65,1,2024-06-20T12:26:44.931Z,english_79.wav,0,0,1712,22,4,Chinese,f,3,0.3,-19.05433113,1.99746898
TWP_2025,65,1,2024-06-20T12:26:44.931Z,english_79.wav,0,0,1712,22,4,Chinese,f,4,0.4,-69.45960299,0.86632135
TWP_2025,65,1,2024-06-20T12:26:44.931Z,english_79.wav,0,0,1712,22,4,Chinese,f,5,0.5,73.78187689,1.18439274
TWP_2025,65,1,2024-06-20T12:26:44.931Z,english_79.wav,0,0,1712,22,4,Chinese,f,6,0.6,45.30424973,0.05743494
TWP_2025,65,1,2024-06-20T12:26:44.931Z,english_79.wav,0,0,1712,22,4,Chinese,f,7,0.7,-12.3964906,1.88609771
TWP_2025,65,1,2024-06-20T12:26:44.931Z,english_79.wav,0,0,1712,22,4,Chinese,f,8,0.8,-6.65615849,1.07546111
TWP_2025,65,1,2024-06-20T12:26:44.931Z,english_79.wav,0,0,1712,22,4,Chinese,f,9,0.9,20.78943027,0.97034818
TWP_2025,65,1,2024-06-20T12:26:44.931Z,english_79.wav,0,0,1712,22,4,Chinese,f,10,1,-67.05166292,0.94663039
TWP_2025,65,1,2024-06-20T12:26:44.931Z,english_79.wav,0,0,1712,22,4,Chinese,f,11,1.09391667,-53.62396235,0.1925317
TWP_2025,66,1,2024-06-20T12:26:44.931Z,english_974.wav,0,1,2448,22,4,Chinese,f,0,0,-93.03864928,0.43845399
TWP_2025,66,1,2024-06-20T12:26:44.931Z,english_974.wav,0,1,2448,22,4,Chinese,f,1,0.1,-77.75716604,1.6903579
TWP_2025,66,1,2024-06-20T12:26:44.931Z,english_974.wav,0,1,2448,22,4,Chinese,f,2,0.2,0.69139929,1.16063432
TWP_2025,66,1,2024-06-20T12:26:44.931Z,english_974.wav,0,1,2448,22,4,Chinese,f,3,0.3,26.0953238,1.86115796
TWP_2025,66,1,2024-06-20T12:26:44.931Z,english_974.wav,0,1,2448,22,4,Chinese,f,4,0.4,98.53440651,1.84489406
TWP_2025,66,1,2024-06-20T12:26:44.931Z,english_974.wav,0,1,2448,22,4,Chinese,f,5,0.5,92.94553081,1.48551441
TWP_2025,66,1,2024-06-20T12:26:44.931Z,english_974.wav,0,1,2448,22,4,Chinese,f,6,0.6,-7.63804917,0.45444214
TWP_2025,66,1,2024-06-20T12:26:44.931Z,english_974.wav,0,1,2448,22,4,Chinese,f,7,0.7,9.10874073,0.66005011
TWP_2025,66,1,2024-06-20T12:26:44.931Z,english_974.wav,0,1,2448,22,4,Chinese,f,8,0.8,-89.79433239,1.73425962
TWP_2025,66,1,2024-06-20T12:26:44.931Z,english_974.wav,0,1,2448,22,4,Chinese,f,9,0.9,-25.22506103,0.5346903
TWP_2025,66,1,2024-06-20T12:26:44.931Z,english_974.wav,0,1,2448,22,4,Chinese,f,10,1,90.91634132,1.12098349
TWP_2025,66,1,2024-06-20T12:26:44.931Z,english_974.wav,0,1,2448,22,4,Chinese,f,11,1.09391667,96.1258414,0.52486182
TWP_2025,67,1,2024-06-20T12:26:44.931Z,english_378.wav,0,0,1578,22,4,Chinese,f,0,0,-6.75592408,1.57446733
TWP_2025,67,1,2024-06-20T12:26:44.931Z,english_378.wav,0,0,1578,22,4,Chinese,f,1,0.1,-33.28558439,0.29285803
TWP_2025,67,1,2024-06-20T12:26:44.931Z,english_378.wav,0,0,1578,22,4,Chinese,f,2,0.2,-96.71642688,0.09494473
TWP_2025,67,1,2024-06-20T12:26:44.931Z,english_378.wav,0,0,1578,22,4,Chinese,f,3,0.3,70.45646645,0.09114875
TWP_2025,67,1,2024-06-20T12:26:44.931Z,english_378.wav,0,0,1578,22,4,Chinese,f,4,0.4,20.01443052,0.12099564
TWP_2025,67,1,2024-06-20T12:26:44.931Z,english_378.wav,0,0,1578,22,4,Chinese,f,5,0.5,-69.62604827,0.06996617
TWP_2025,67,1,2024-06-20T12:26:44.931Z,english_378.wav,0,0,1578,22,4,Chinese,f,6,0.6,-82.6103386,0.89001983
TWP_2025,67,1,2024-06-20T12:26:44.931Z,english_378.wav,0,0,1578,22,4,Chinese,f,7,0.7,-53.90394432,1.80047075
TWP_2025,67,1,2024-06-20T12:26:44.931Z,english_378.wav,0,0,1578,22,4,Chinese,f,8,0.8,75.60526061,1.92282567
TWP_2025,67,1,2024-06-20T12:26:44.931Z,english_378.wav,0,0,1578,22,4,Chinese,f,9,0.9,-65.71007404,0.07000512
TWP_2025,67,1,2024-06-20T12:26:44.931Z,english_378.wav,0,0,1578,22,4,Chinese,f,10,1,-82.95728524,0.51793223
TWP_2025,67,1,2024-06-20T12:26:44.931Z,english_378.wav,0,0,1578,22,4,Chinese,f,11,1.09391667,40.19708488,1.33854892
TWP_2025,68,1,2024-06-20T12:26:44.931Z,english_232.wav,0,0,817,22,4,Chinese,f,0,0,-26.51940276,0.21059611
TWP_2025,68,1,2024-06-20T12:26:44.931Z,english_232.wav,0,0,817,22,4,Chinese,f,1,0.1,80.97161113,0.68519171
TWP_2025,68,1,2024-06-20T12:26:44.931Z,english_232.wav,0,0,817,22,4,Chinese,f,2,0.2,-59.14883297,1.41170079
TWP_2025,68,1,2024-06-20T12:26:44.931Z,english_232.wav,0,0,817,22,4,Chinese,f,3,0.3,25.03200804,1.73443495
TWP_2025,68,1,2024-06-20T12:26:44.931Z,english_232.wav,0,0,817,22,4,Chinese,f,4,0.4,20.05380764,0.29201417
TWP_2025,68,1,2024-06-20T12:26:44.931Z,english_232.wav,0,0,817,22,4,Chinese,f,5,0.5,56.28196281,0.54790335
TWP_2025,68,1,2024-06-20T12:26:44.931Z,english_232.wav,0,0,817,22,4,Chinese,f,6,0.6,50.47197961,1.77444553
TWP_2025,68,1,2024-06-20T12:26:44.931Z,english_232.wav,0,0,817,22,4,Chinese,f,7,0.7,52.11037309,1.99008741
TWP_2025,68,1,2024-06-20T12:26:44.931Z,english_232.wav,0,0,817,22,4,Chinese,f,8,0.8,88.23327143,0.74569824
TWP_2025,68,1,2024-06-20T12:26:44.931Z,english_232.wav,0,0,817,22,4,Chinese,f,9,0.9,37.32869559,0.18993344
TWP_2025,68,1,2024-06-20T12:26:44.931Z,english_232.wav,0,0,817,22,4,Chinese,f,10,1,-23.53745861,0.72085595
TWP_2025,68,1,2024-06-20T12:26:44.931Z,english_232.wav,0,0,817,22,4,Chinese,f,11,1.09391667,93.83220457,1.92388819
TWP_2025,69,1,2024-06-20T12:26:44.931Z,english_646.wav,0,0,4317,22,4,Chinese,f,0,0,-72.16367523,1.23252036
TWP_2025,69,1,2024-06-20T12:26:44.931Z,english_646.wav,0,0,4317,22,4,Chinese,f,1,0.1,89.23048569,0.41153547
TWP_2025,69,1,2024-06-20T12:26:44.931Z,english_646.wav,0,0,4317,22,4,Chinese,f,2,0.2,3.93643173,1.30500866
TWP_2025,69,1,2024-06-20T12:26:44.931Z,english_646.wav,0,0,4317,22,4,Chinese,f,3,0.3,32.33211102,0.16779894
TWP_2025,69,1,2024-06-20T12:26:44.931Z,english_646.wav,0,0,4317,22,4,Chinese,f,4,0.4,57.94131679,1.44956343
TWP_2025,69,1,2024-06-20T12:26:44.931Z,english_646.wav,0,0,4317,22,4,Chinese,f,5,0.5,3.36702109,0.43462
TWP_2025,69,1,2024-06-20T12:26:44.931Z,english_646.wav,0,0,4317,22,4,Chinese,f,6,0.6,61.97454592,1.17161273
TWP_2025,69,1,2024-06-20T12:26:44.931Z,english_646.wav,0,0,4317,22,4,Chinese,f,7,0.7,-38.94515992,1.33009112
TWP_2025,69,1,2024-06-20T12:26:44.931Z,english_646.wav,0,0,4317,22,4,Chinese,f,8,0.8,18.02819855,1.9601355
TWP_2025,69,1,2024-06-20T12:26:44.931Z,english_646.wav,0,0,4317,22,4,Chinese,f,9,0.9,-7.01403953,1.16018484
TWP_2025,69,1,2024-06-20T12:26:44.931Z,english_646.wav,0,0,4317,22,4,Chinese,f,10,1,22.99913436,0.4872476
TWP_2025,69,1,2024-06-20T12:26:44.931Z,english_646.wav,0,0,4317,22,4,Chinese,f,11,1.09391667,-15.24744046,0.4931797
TWP_2025,70,1,2024-06-20T12:26:44.931Z,english_966.wav,0,1,945,22,4,Chinese,f,0,0,-96.91789055,1.23686614
TWP_2025,70,1,2024-06-20T12:26:44.931Z,english_966.wav,0,1,945,22,4,Chinese,f,1,0.1,-64.86850103,0.67188965
TWP_2025,70,1,2024-06-20T12:26:44.931Z,english_966.wav,0,1,945,22,4,Chinese,f,2,0.2,-43.92628472,0.33271907
TWP_2025,70,1,2024-06-20T12:26:44.931Z,english_966.wav,0,1,945,22,4,Chinese,f,3,0.3,-93.7136214,1.62713329
TWP_2025,70,1,2024-06-20T12:26:44.931Z,english_966.wav,0,1,945,22,4,Chinese,f,4,0.4,-57.14902712,1.49154652
TWP_2025,70,1,2024-06-20T12:26:44.931Z,english_966.wav,0,1,945,22,4,Chinese,f,5,0.5,-12.68506719,1.31520623
TWP_2025,70,1,2024-06-20T12:26:44.931Z,english_966.wav,0,1,945,22,4,Chinese,f,6,0.6,-15.43922669,0.20724492
TWP_2025,70,1,2024-06-20T12:26:44.931Z,english_966.wav,0,1,945,22,4,Chinese,f,7,0.7,24.10386484,0.13137995
TWP_2025,70,1,2024-06-20T12:26:44.931Z,english_966.wav,0,1,945,22,4,Chinese,f,8,0.8,3.35646026,1.15134967
TWP_2025,70,1,2024-06-20T12:26:44.931Z,english_966.wav,0,1,945,22,4,Chinese,f,9,0.9,88.24028536,0.75921019
TWP_2025,70,1,2024-06-20T12:26:44.931Z,english_966.wav,0,1,945,22,4,Chinese,f,10,1,-32.39213993,0.67670762
TWP_2025,70,1,2024-06-20T12:26:44.931Z,english_966.wav,0,1,945,22,4,Chinese,f,11,1.09391667,-1.72411588,1.22586656
TWP_2025,71,1,2024-06-20T12:26:44.931Z,english_452.wav,0,1,746,22,4,Chinese,f,0,0,-16.61864147,1.17401117
TWP_2025,71,1,2024-06-20T12:26:44.931Z,english_452.wav,0,1,746,22,4,Chinese,f,1,0.1,-22.13078498,0.56539659
TWP_2025,71,1,2024-06-20T12:26:44.931Z,english_452.wav,0,1,746,22,4,Chinese,f,2,0.2,-16.24569285,0.39679082
TWP_2025,71,1,2024-06-20T12:26:44.931Z,english_452.wav,0,1,746,22,4,Chinese,f,3,0.3,2.20276296,1.32249954
TWP_2025,71,1,2024-06-20T12:26:44.931Z,english_452.wav,0,1,746,22,4,Chinese,f,4,0.4,38.28427002,1.17645405
TWP_2025,71,1,2024-06-20T12:26:44.931Z,english_452.wav,0,1,746,22,4,Chinese,f,5,0.5,-18.79047659,1.63330715
TWP_2025,71,1,2024-06-20T12:26:44.931Z,english_452.wav,0,1,746,22,4,Chinese,f,6,0.6,78.89075327,1.91411401
TWP_2025,71,1,2024-06-20T12:26:44.931Z,english_452.wav,0,1,746,22,4,Chinese,f,7,0.7,92.92821396,1.71360753
TWP_2025,71,1,2024-06-20T12:26:44.931Z,english_452.wav,0,1,746,22,4,Chinese,f,8,0.8,97.94945302,1.56668356
TWP_2025,71,1,2024-06-20T12:26:44.931Z,english_452.wav,0,1,746,22,4,Chinese,f,9,0.9,87.69669084,1.33916848
TWP_2025,71,1,2024-06-20T12:26:44.931Z,english_452.wav,0,1,746,22,4,Chinese,f,10,1,59.46975303,0.94959461
TWP_2025,71,1,2024-06-20T12:26:44.931Z,english_452.wav,0,1,746,22,4,Chinese,f,11,1.09391667,33.32060313,0.70317006
TWP_2025,72,1,2024-06-20T12:26:44.931Z,english_531.wav,0,0,1792,22,4,Chinese,f,0,0,64.01741769,1.51547649
TWP_2025,72,1,2024-06-20T12:26:44.931Z,english_531.wav,0,0,1792,22,4,Chinese,f,1,0.1,26.7868786,1.88187252
TWP_2025,72,1,2024-06-20T12:26:44.931Z,english_531.wav,0,0,1792,22,4,Chinese,f,2,0.2,-11.61455466,1.96684575
TWP_2025,72,1,2024-06-20T12:26:44.931Z,english_531.wav,0,0,1792,22,4,Chinese,f,3,0.3,5.98277112,0.79325927
TWP_2025,72,1,2024-06-20T12:26:44.931Z,english_531.wav,0,0,1792,22,4,Chinese,f,4,0.4,-58.29733436,0.88962117
TWP_2025,72,1,2024-06-20T12:26:44.931Z,english_531.wav,0,0,1792,22,4,Chinese,f,5,0.5,-28.52423669,0.54211356
TWP_2025,72,1,2024-06-20T12:26:44.931Z,english_531.wav,0,0,1792,22,4,Chinese,f,6,0.6,-20.08515402,0.71772169
TWP_2025,72,1,2024-06-20T12:26:44.931Z,english_531.wav,0,0,1792,22,4,Chinese,f,7,0.7,56.89013176,1.30220499
TWP_2025,72,1,2024-06-20T12:26:44.931Z,english_531.wav,0,0,1792,22,4,Chinese,f,8,0.8,-1.76253667,0.81496958
TWP_2025,72,1,2024-06-20T12:26:44.931Z,english_531.wav,0,0,1792,22,4,Chinese,f,9,0.9,17.11874088,0.64316233
TWP_2025,72,1,2024-06-20T12:26:44.931Z,english_531.wav,0,0,1792,22,4,Chinese,f,10,1,-69.92464743,0.7734262
TWP_2025,72,1,2024-06-20T12:26:44.931Z,english_531.wav,0,0,1792,22,4,Chinese,f,11,1.09391667,16.89803128,0.24670156
TWP_2025,73,1,2024-06-20T12:26:44.931Z,english_540.wav,0,1,818,22,4,Chinese,f,0,0,56.3389614,0.35919702
TWP_2025,73,1,2024-06-20T12:26:44.931Z,english_540.wav,0,1,818,22,4,Chinese,f,1,0.1,15.5810044,0.12290397
TWP_2025,73,1,2024-06-20T12:26:44.931Z,english_540.wav,0,1,818,22,4,Chinese,f,2,0.2,-57.00882779,0.4388906
TWP_2025,73,1,2024-06-20T12:26:44.931Z,english_540.wav,0,1,818,22,4,Chinese,f,3,0.3,-38.51831774,1.4101729
TWP_2025,73,1,2024-06-20T12:26:44.931Z,english_540.wav,0,1,818,22,4,Chinese,f,4,0.4,-2.48649571,1.50441402
TWP_2025,73,1,2024-06-20T12:26:44.931Z,english_540.wav,0,1,818,22,4,Chinese,f,5,0.5,47.94489788,0.12973549
TWP_2025,73,1,2024-06-20T12:26:44.931Z,english_540.wav,0,1,818,22,4,Chinese,f,6,0.6,-25.26992134,1.5432215
TWP_2025,73,1,2024-06-20T12:26:44.931Z,english_540.wav,0,1,818,22,4,Chinese,f,7,0.7,71.13867004,0.81755123
TWP_2025,73,1,2024-06-20T12:26:44.931Z,english_540.wav,0,1,818,22,4,Chinese,f,8,0.8,-84.74018584,1.08085579
TWP_2025,73,1,2024-06-20T12:26:44.931Z,english_540.wav,0,1,818,22,4,Chinese,f,9,0.9,36.45045372,1.434422
TWP_2025,73,1,2024-06-20T12:26:44.931Z,english_540.wav,0,1,818,22,4,Chinese,f,10,1,21.99011702,0.97494001
TWP_2025,73,1,2024-06-20T12:26:44.931Z,english_540.wav,0,1,818,22,4,Chinese,f,11,1.09391667,81.39151634,0.80759169
TWP_2025,74,1,2024-06-20T12:26:44.931Z,english_146.wav,0,0,1958,22,4,Chinese,f,0,0,56.30698685,0.40218926
TWP_2025,74,1,2024-06-20T12:26:44.931Z,english_146.wav,0,0,1958,22,4,Chinese,f,1,0.1,33.76808102,1.30498568
TWP_2025,74,1,2024-06-20T12:26:44.931Z,english_146.wav,0,0,1958,22,4,Chinese,f,2,0.2,7.3416935,1.88518083
TWP_2025,74,1,2024-06-20T12:26:44.931Z,english_146.wav,0,0,1958,22,4,Chinese,f,3,0.3,54.00115317,0.73939723
TWP_2025,74,1,2024-06-20T12:26:44.931Z,english_146.wav,0,0,1958,22,4,Chinese,f,4,0.4,60.50079064,1.18416515
TWP_2025,74,1,2024-06-20T12:26:44.931Z,english_146.wav,0,0,1958,22,4,Chinese,f,5,0.5,93.58064811,0.74397262
TWP_2025,74,1,2024-06-20T12:26:44.931Z,english_146.wav,0,0,1958,22,4,Chinese,f,6,0.6,16.38414301,1.77833366
TWP_2025,74,1,2024-06-20T12:26:44.931Z,english_146.wav,0,0,1958,22,4,Chinese,f,7,0.7,53.45076847,0.98273851
TWP_2025,74,1,2024-06-20T12:26:44.931Z,english_146.wav,0,0,1958,22,4,Chinese,f,8,0.8,57.56482396,1.41119053
TWP_2025,74,1,2024-06-20T12:26:44.931Z,english_146.wav,0,0,1958,22,4,Chinese,f,9,0.9,-28.26782972,0.90766435
TWP_2025,74,1,2024-06-20T12:26:44.931Z,english_146.wav,0,0,1958,22,4,Chinese,f,10,1,79.66793606,0.33691203
TWP_2025,74,1,2024-06-20T12:26:44.931Z,english_146.wav,0,0,1958,22,4,Chinese,f,11,1.09391667,23.81863578,1.86488134
TWP_2025,75,1,2024-06-20T12:26:44.931Z,english_258.wav,0,1,451,22,4,Chinese,f,0,0,25.58821978,1.29707378
TWP_2025,75,1,2024-06-20T12:26:44.931Z,english_258.wav,0,1,451,22,4,Chinese,f,1,0.1,7.03087627,0.49566701
TWP_2025,75,1,2024-06-20T12:26:44.931Z,english_258.wav,0,1,451,22,4,Chinese,f,2,0.2,-15.91116386,0.43385518
TWP_2025,75,1,2024-06-20T12:26:44.931Z,english_258.wav,0,1,451,22,4,Chinese,f,3,0.3,-10.18288773,0.30166849
TWP_2025,75,1,2024-06-20T12:26:44.931Z,english_258.wav,0,1,451,22,4,Chinese,f,4,0.4,-1.03622481,0.40418484
TWP_2025,75,1,2024-06-20T12:26:44.931Z,english_258.wav,0,1,451,22,4,Chinese,f,5,0.5,7.08237834,0.97614875
TWP_2025,75,1,2024-06-20T12:26:44.931Z,english_258.wav,0,1,451,22,4,Chinese,f,6,0.6,-65.85616389,0.50782257
TWP_2025,75,1,2024-06-20T12:26:44.931Z,english_258.wav,0,1,451,22,4,Chinese,f,7,0.7,61.11432003,1.26334363
TWP_2025,75,1,2024-06-20T12:26:44.931Z,english_258.wav,0,1,451,22,4,Chinese,f,8,0.8,62.35570806,1.6928405
TWP_2025,75,1,2024-06-20T12:26:44.931Z,english_258.wav,0,1,451,22,4,Chinese,f,9,0.9,64.93681849,1.97714506
TWP_2025,75,1,2024-06-20T12:26:44.931Z,english_258.wav,0,1,451,22,4,Chinese,f,10,1,-37.74920533,1.10059348
TWP_2025,75,1,2024-06-20T12:26:44.931Z,english_258.wav,0,1,451,22,4,Chinese,f,11,1.09391667,-81.90690998,1.23409369
TWP_2025,76,1,2024-06-20T12:26:44.931Z,english_664.wav,0,1,1498,22,4,Chinese,f,0,0,87.83799753,0.80622544
TWP_2025,76,1,2024-06-20T12:26:44.931Z,english_664.wav,0,1,1498,22,4,Chinese,f,1,0.1,93.07880912,0.71131531
TWP_2025,76,1,2024-06-20T12:26:44.931Z,english_664.wav,0,1,1498,22,4,Chinese,f,2,0.2,-21.43792859,0.52490717
TWP_2025,76,1,2024-06-20T12:26:44.931Z,english_664.wav,0,1,1498,22,4,Chinese,f,3,0.3,54.61607152,0.79105774
TWP_2025,76,1,2024-06-20T12:26:44.931Z,english_664.wav,0,1,1498,22,4,Chinese,f,4,0.4,63.53186125,0.74894626
TWP_2025,76,1,2024-06-20T12:26:44.931Z,english_664.wav,0,1,1498,22,4,Chinese,f,5,0.5,69.57332079,0.96341942
TWP_2025,76,1,2024-06-20T12:26:44.931Z,english_664.wav,0,1,1498,22,4,Chinese,f,6,0.6,-98.283012,0.12490453
TWP_2025,76,1,2024-06-20T12:26:44.931Z,english_664.wav,0,1,1498,22,4,Chinese,f,7,0.7,3.96514961,1.772086
TWP_2025,76,1,2024-06-20T12:26:44.931Z,english_664.wav,0,1,1498,22,4,Chinese,f,8,0.8,-68.49765079,1.2138043
TWP_2025,76,1,2024-06-20T12:26:44.931Z,english_664.wav,0,1,1498,22,4,Chinese,f,9,0.9,22.71561052,1.03968333
TWP_2025,76,1,2024-06-20T12:26:44.931Z,english_664.wav,0,1,1498,22,4,Chinese,f,10,1,62.92065682,1.01702127
TWP_2025,76,1,2024-06-20T12:26:44.931Z,english_664.wav,0,1,1498,22,4,Chinese,f,11,1.09391667,7.64063367,1.88905221
TWP_2025,77,1,2024-06-20T12:26:44.931Z,english_237.wav,0,0,856,22,4,Chinese,f,0,0,-24.33351242,0.5798894
TWP_2025,77,1,2024-06-20T12:26:44.931Z,english_237.wav,0,0,856,22,4,Chinese,f,1,0.1,-30.25700372,1.5217244
