subj,trial,block,date,stim,stim_order,response,rt,age,english,language,sex,param_index,segment,pitch,stretch
WZL_2014,0,0,2024-06-16T12:14:34.938Z,english_391.wav,0,0,5077,25,4,chinese,m,0,0,48.72029915,1.46381994
WZL_2014,0,0,2024-06-16T12:14:34.938Z,english_391.wav,0,0,5077,25,4,chinese,m,1,0.1,3.36267099,1.74177862
WZL_2014,0,0,2024-06-16T12:14:34.938Z,english_391.wav,0,0,5077,25,4,chinese,m,2,0.2,-54.73892797,0.37153285
WZL_2014,0,0,2024-06-16T12:14:34.938Z,english_391.wav,0,0,5077,25,4,chinese,m,3,0.3,-4.43599027,1.37930547
WZL_2014,0,0,2024-06-16T12:14:34.938Z,english_391.wav,0,0,5077,25,4,chinese,m,4,0.4,-4.38697431,1.2025528
WZL_2014,0,0,2024-06-16T12:14:34.938Z,english_391.wav,0,0,5077,25,4,chinese,m,5,0.5,12.32416895,1.41669348
WZL_2014,0,0,2024-06-16T12:14:34.938Z,english_391.wav,0,0,5077,25,4,chinese,m,6,0.6,-35.16299901,1.90409923
WZL_2014,0,0,2024-06-16T12:14:34.938Z,english_391.wav,0,0,5077,25,4,chinese,m,7,0.7,-18.71198536,0.35955458
WZL_2014,0,0,2024-06-16T12:14:34.938Z,english_391.wav,0,0,5077,25,4,chinese,m,8,0.8,50.45333825,0.73524
WZL_2014,0,0,2024-06-16T12:14:34.938Z,english_391.wav,0,0,5077,25,4,chinese,m,9,0.9,24.10808682,1.22465208
WZL_2014,0,0,2024-06-16T12:14:34.938Z,english_391.wav,0,0,5077,25,4,chinese,m,10,1,-10.46564493,1.61244098
WZL_2014,0,0,2024-06-16T12:14:34.938Z,english_391.wav,0,0,5077,25,4,chinese,m,11,1.09391667,6.45782967,1.66867903
WZL_2014,1,0,2024-06-16T12:14:34.938Z,english_722.wav,0,0,1616,25,4,chinese,m,0,0,-57.56576196,0.04722973
WZL_2014,1,0,2024-06-16T12:14:34.938Z,english_722.wav,0,0,1616,25,4,chinese,m,1,0.1,-19.70677764,1.09555253
WZL_2014,1,0,2024-06-16T12:14:34.938Z,english_722.wav,0,0,1616,25,4,chinese,m,2,0.2,83.71549809,0.8122888
WZL_2014,1,0,2024-06-16T12:14:34.938Z,english_722.wav,0,0,1616,25,4,chinese,m,3,0.3,0.72860566,0.82350502
WZL_2014,1,0,2024-06-16T12:14:34.938Z,english_722.wav,0,0,1616,25,4,chinese,m,4,0.4,23.57010212,0.7141467
WZL_2014,1,0,2024-06-16T12:14:34.938Z,english_722.wav,0,0,1616,25,4,chinese,m,5,0.5,-90.6432868,0.19918411
WZL_2014,1,0,2024-06-16T12:14:34.938Z,english_722.wav,0,0,1616,25,4,chinese,m,6,0.6,3.97952781,0.04680372
WZL_2014,1,0,2024-06-16T12:14:34.938Z,english_722.wav,0,0,1616,25,4,chinese,m,7,0.7,47.87385022,0.22857445
WZL_2014,1,0,2024-06-16T12:14:34.938Z,english_722.wav,0,0,1616,25,4,chinese,m,8,0.8,-10.29099789,1.06043027
WZL_2014,1,0,2024-06-16T12:14:34.938Z,english_722.wav,0,0,1616,25,4,chinese,m,9,0.9,-55.37554035,1.28411096
WZL_2014,1,0,2024-06-16T12:14:34.938Z,english_722.wav,0,0,1616,25,4,chinese,m,10,1,-74.87108339,1.38807885
WZL_2014,1,0,2024-06-16T12:14:34.938Z,english_722.wav,0,0,1616,25,4,chinese,m,11,1.09391667,32.13407254,0.54998416
WZL_2014,2,0,2024-06-16T12:14:34.938Z,english_772.wav,0,0,3037,25,4,chinese,m,0,0,-98.58408334,0.99511883
WZL_2014,2,0,2024-06-16T12:14:34.938Z,english_772.wav,0,0,3037,25,4,chinese,m,1,0.1,-61.87034705,1.73357078
WZL_2014,2,0,2024-06-16T12:14:34.938Z,english_772.wav,0,0,3037,25,4,chinese,m,2,0.2,-18.09819366,0.0586696
WZL_2014,2,0,2024-06-16T12:14:34.938Z,english_772.wav,0,0,3037,25,4,chinese,m,3,0.3,12.3782964,0.06385699
WZL_2014,2,0,2024-06-16T12:14:34.938Z,english_772.wav,0,0,3037,25,4,chinese,m,4,0.4,-22.02938965,1.69798328
WZL_2014,2,0,2024-06-16T12:14:34.938Z,english_772.wav,0,0,3037,25,4,chinese,m,5,0.5,59.95527001,1.42811841
WZL_2014,2,0,2024-06-16T12:14:34.938Z,english_772.wav,0,0,3037,25,4,chinese,m,6,0.6,-20.50157966,1.57518039
WZL_2014,2,0,2024-06-16T12:14:34.938Z,english_772.wav,0,0,3037,25,4,chinese,m,7,0.7,-21.89990222,1.02318801
WZL_2014,2,0,2024-06-16T12:14:34.938Z,english_772.wav,0,0,3037,25,4,chinese,m,8,0.8,25.10186839,0.72889481
WZL_2014,2,0,2024-06-16T12:14:34.938Z,english_772.wav,0,0,3037,25,4,chinese,m,9,0.9,-9.02191032,0.61952628
WZL_2014,2,0,2024-06-16T12:14:34.938Z,english_772.wav,0,0,3037,25,4,chinese,m,10,1,-16.49784397,1.31221342
WZL_2014,2,0,2024-06-16T12:14:34.938Z,english_772.wav,0,0,3037,25,4,chinese,m,11,1.09391667,-42.94184761,1.78690458
WZL_2014,3,0,2024-06-16T12:14:34.938Z,english_980.wav,0,0,4203,25,4,chinese,m,0,0,-89.21120638,0.86013949
WZL_2014,3,0,2024-06-16T12:14:34.938Z,english_980.wav,0,0,4203,25,4,chinese,m,1,0.1,-61.94586113,1.20415769
WZL_2014,3,0,2024-06-16T12:14:34.938Z,english_980.wav,0,0,4203,25,4,chinese,m,2,0.2,66.92224931,1.12519254
WZL_2014,3,0,2024-06-16T12:14:34.938Z,english_980.wav,0,0,4203,25,4,chinese,m,3,0.3,-8.83169244,1.93563119
WZL_2014,3,0,2024-06-16T12:14:34.938Z,english_980.wav,0,0,4203,25,4,chinese,m,4,0.4,-62.26224073,1.36290277
WZL_2014,3,0,2024-06-16T12:14:34.938Z,english_980.wav,0,0,4203,25,4,chinese,m,5,0.5,-40.69471865,0.31823405
WZL_2014,3,0,2024-06-16T12:14:34.938Z,english_980.wav,0,0,4203,25,4,chinese,m,6,0.6,-55.09323572,1.64522851
WZL_2014,3,0,2024-06-16T12:14:34.938Z,english_980.wav,0,0,4203,25,4,chinese,m,7,0.7,-85.76938639,0.41705872
WZL_2014,3,0,2024-06-16T12:14:34.938Z,english_980.wav,0,0,4203,25,4,chinese,m,8,0.8,-61.73931362,0.77550812
WZL_2014,3,0,2024-06-16T12:14:34.938Z,english_980.wav,0,0,4203,25,4,chinese,m,9,0.9,29.10621895,0.71060598
WZL_2014,3,0,2024-06-16T12:14:34.938Z,english_980.wav,0,0,4203,25,4,chinese,m,10,1,-54.92010394,0.25781542
WZL_2014,3,0,2024-06-16T12:14:34.938Z,english_980.wav,0,0,4203,25,4,chinese,m,11,1.09391667,-99.59524777,0.26651543
WZL_2014,4,0,2024-06-16T12:14:34.938Z,english_22.wav,0,1,506,25,4,chinese,m,0,0,70.18292814,0.28551441
WZL_2014,4,0,2024-06-16T12:14:34.938Z,english_22.wav,0,1,506,25,4,chinese,m,1,0.1,-80.96999494,0.4027703
WZL_2014,4,0,2024-06-16T12:14:34.938Z,english_22.wav,0,1,506,25,4,chinese,m,2,0.2,-35.97807487,0.92085021
WZL_2014,4,0,2024-06-16T12:14:34.938Z,english_22.wav,0,1,506,25,4,chinese,m,3,0.3,-50.77912628,0.28132548
WZL_2014,4,0,2024-06-16T12:14:34.938Z,english_22.wav,0,1,506,25,4,chinese,m,4,0.4,45.67027718,1.60569992
WZL_2014,4,0,2024-06-16T12:14:34.938Z,english_22.wav,0,1,506,25,4,chinese,m,5,0.5,93.75980346,1.16285663
WZL_2014,4,0,2024-06-16T12:14:34.938Z,english_22.wav,0,1,506,25,4,chinese,m,6,0.6,-60.5710335,1.00744398
WZL_2014,4,0,2024-06-16T12:14:34.938Z,english_22.wav,0,1,506,25,4,chinese,m,7,0.7,-35.42669747,0.58521518
WZL_2014,4,0,2024-06-16T12:14:34.938Z,english_22.wav,0,1,506,25,4,chinese,m,8,0.8,84.37918603,0.90086295
WZL_2014,4,0,2024-06-16T12:14:34.938Z,english_22.wav,0,1,506,25,4,chinese,m,9,0.9,-3.38291766,0.69217241
WZL_2014,4,0,2024-06-16T12:14:34.938Z,english_22.wav,0,1,506,25,4,chinese,m,10,1,-36.07509244,1.456266
WZL_2014,4,0,2024-06-16T12:14:34.938Z,english_22.wav,0,1,506,25,4,chinese,m,11,1.09391667,-43.05429972,0.26376925
WZL_2014,5,0,2024-06-16T12:14:34.938Z,english_643.wav,0,1,551,25,4,chinese,m,0,0,-28.71923325,0.05998695
WZL_2014,5,0,2024-06-16T12:14:34.938Z,english_643.wav,0,1,551,25,4,chinese,m,1,0.1,-41.33033256,1.69509995
WZL_2014,5,0,2024-06-16T12:14:34.938Z,english_643.wav,0,1,551,25,4,chinese,m,2,0.2,14.60836996,1.2304272
WZL_2014,5,0,2024-06-16T12:14:34.938Z,english_643.wav,0,1,551,25,4,chinese,m,3,0.3,24.53811626,1.46168191
WZL_2014,5,0,2024-06-16T12:14:34.938Z,english_643.wav,0,1,551,25,4,chinese,m,4,0.4,7.82813988,1.6429412
WZL_2014,5,0,2024-06-16T12:14:34.938Z,english_643.wav,0,1,551,25,4,chinese,m,5,0.5,31.13275889,1.01913146
WZL_2014,5,0,2024-06-16T12:14:34.938Z,english_643.wav,0,1,551,25,4,chinese,m,6,0.6,9.00223054,0.81472246
WZL_2014,5,0,2024-06-16T12:14:34.938Z,english_643.wav,0,1,551,25,4,chinese,m,7,0.7,65.97905996,0.51197957
WZL_2014,5,0,2024-06-16T12:14:34.938Z,english_643.wav,0,1,551,25,4,chinese,m,8,0.8,3.77456402,0.97348527
WZL_2014,5,0,2024-06-16T12:14:34.938Z,english_643.wav,0,1,551,25,4,chinese,m,9,0.9,20.70026816,0.6370084
WZL_2014,5,0,2024-06-16T12:14:34.938Z,english_643.wav,0,1,551,25,4,chinese,m,10,1,98.54762674,0.00532383
WZL_2014,5,0,2024-06-16T12:14:34.938Z,english_643.wav,0,1,551,25,4,chinese,m,11,1.09391667,74.26815163,1.21089253
WZL_2014,6,0,2024-06-16T12:14:34.938Z,english_631.wav,0,1,360,25,4,chinese,m,0,0,-27.81937338,1.32778062
WZL_2014,6,0,2024-06-16T12:14:34.938Z,english_631.wav,0,1,360,25,4,chinese,m,1,0.1,33.35930373,0.48085638
WZL_2014,6,0,2024-06-16T12:14:34.938Z,english_631.wav,0,1,360,25,4,chinese,m,2,0.2,-11.73917174,1.38663751
WZL_2014,6,0,2024-06-16T12:14:34.938Z,english_631.wav,0,1,360,25,4,chinese,m,3,0.3,-1.18589974,1.87480355
WZL_2014,6,0,2024-06-16T12:14:34.938Z,english_631.wav,0,1,360,25,4,chinese,m,4,0.4,27.16828493,0.88998166
WZL_2014,6,0,2024-06-16T12:14:34.938Z,english_631.wav,0,1,360,25,4,chinese,m,5,0.5,53.71281756,0.85037115
WZL_2014,6,0,2024-06-16T12:14:34.938Z,english_631.wav,0,1,360,25,4,chinese,m,6,0.6,81.56085765,0.88131869
WZL_2014,6,0,2024-06-16T12:14:34.938Z,english_631.wav,0,1,360,25,4,chinese,m,7,0.7,89.56289447,1.45107232
WZL_2014,6,0,2024-06-16T12:14:34.938Z,english_631.wav,0,1,360,25,4,chinese,m,8,0.8,-43.2108802,1.60608237
WZL_2014,6,0,2024-06-16T12:14:34.938Z,english_631.wav,0,1,360,25,4,chinese,m,9,0.9,-23.23030719,1.10456267
WZL_2014,6,0,2024-06-16T12:14:34.938Z,english_631.wav,0,1,360,25,4,chinese,m,10,1,88.86506339,0.94928651
WZL_2014,6,0,2024-06-16T12:14:34.938Z,english_631.wav,0,1,360,25,4,chinese,m,11,1.09391667,-96.00200772,0.59566853
WZL_2014,7,0,2024-06-16T12:14:34.938Z,english_718.wav,0,1,2637,25,4,chinese,m,0,0,61.00269276,1.9915537
WZL_2014,7,0,2024-06-16T12:14:34.938Z,english_718.wav,0,1,2637,25,4,chinese,m,1,0.1,-4.74934843,0.89410112
WZL_2014,7,0,2024-06-16T12:14:34.938Z,english_718.wav,0,1,2637,25,4,chinese,m,2,0.2,9.01462899,1.56072611
WZL_2014,7,0,2024-06-16T12:14:34.938Z,english_718.wav,0,1,2637,25,4,chinese,m,3,0.3,79.23930225,0.98422559
WZL_2014,7,0,2024-06-16T12:14:34.938Z,english_718.wav,0,1,2637,25,4,chinese,m,4,0.4,-22.0403667,1.91227381
WZL_2014,7,0,2024-06-16T12:14:34.938Z,english_718.wav,0,1,2637,25,4,chinese,m,5,0.5,-60.9220938,1.04807259
WZL_2014,7,0,2024-06-16T12:14:34.938Z,english_718.wav,0,1,2637,25,4,chinese,m,6,0.6,36.91126826,0.76136187
WZL_2014,7,0,2024-06-16T12:14:34.938Z,english_718.wav,0,1,2637,25,4,chinese,m,7,0.7,23.15113788,1.40698191
WZL_2014,7,0,2024-06-16T12:14:34.938Z,english_718.wav,0,1,2637,25,4,chinese,m,8,0.8,-72.29830581,0.19509634
WZL_2014,7,0,2024-06-16T12:14:34.938Z,english_718.wav,0,1,2637,25,4,chinese,m,9,0.9,-56.27843268,0.95755477
WZL_2014,7,0,2024-06-16T12:14:34.938Z,english_718.wav,0,1,2637,25,4,chinese,m,10,1,-20.76477327,0.32836836
WZL_2014,7,0,2024-06-16T12:14:34.938Z,english_718.wav,0,1,2637,25,4,chinese,m,11,1.09391667,-26.98598325,1.63350278
WZL_2014,8,0,2024-06-16T12:14:34.938Z,english_867.wav,0,1,506,25,4,chinese,m,0,0,-24.89816024,0.58295981
WZL_2014,8,0,2024-06-16T12:14:34.938Z,english_867.wav,0,1,506,25,4,chinese,m,1,0.1,-5.46882756,0.29098819
WZL_2014,8,0,2024-06-16T12:14:34.938Z,english_867.wav,0,1,506,25,4,chinese,m,2,0.2,20.19834057,1.14395964
WZL_2014,8,0,2024-06-16T12:14:34.938Z,english_867.wav,0,1,506,25,4,chinese,m,3,0.3,-93.32796435,1.65419487
WZL_2014,8,0,2024-06-16T12:14:34.938Z,english_867.wav,0,1,506,25,4,chinese,m,4,0.4,33.67014856,0.61503003
WZL_2014,8,0,2024-06-16T12:14:34.938Z,english_867.wav,0,1,506,25,4,chinese,m,5,0.5,-35.81311347,0.19208338
WZL_2014,8,0,2024-06-16T12:14:34.938Z,english_867.wav,0,1,506,25,4,chinese,m,6,0.6,3.8400964,1.34794824
WZL_2014,8,0,2024-06-16T12:14:34.938Z,english_867.wav,0,1,506,25,4,chinese,m,7,0.7,36.13382858,0.71921044
WZL_2014,8,0,2024-06-16T12:14:34.938Z,english_867.wav,0,1,506,25,4,chinese,m,8,0.8,70.00228028,1.86066536
WZL_2014,8,0,2024-06-16T12:14:34.938Z,english_867.wav,0,1,506,25,4,chinese,m,9,0.9,81.61272395,0.96263601
WZL_2014,8,0,2024-06-16T12:14:34.938Z,english_867.wav,0,1,506,25,4,chinese,m,10,1,-46.82426053,1.18263142
WZL_2014,8,0,2024-06-16T12:14:34.938Z,english_867.wav,0,1,506,25,4,chinese,m,11,1.09391667,21.97193379,1.25802514
WZL_2014,9,0,2024-06-16T12:14:34.938Z,english_878.wav,0,1,269,25,4,chinese,m,0,0,-93.54916279,0.97267647
WZL_2014,9,0,2024-06-16T12:14:34.938Z,english_878.wav,0,1,269,25,4,chinese,m,1,0.1,34.21390888,0.02715416
WZL_2014,9,0,2024-06-16T12:14:34.938Z,english_878.wav,0,1,269,25,4,chinese,m,2,0.2,-58.82294687,0.28996928
WZL_2014,9,0,2024-06-16T12:14:34.938Z,english_878.wav,0,1,269,25,4,chinese,m,3,0.3,10.18768241,1.11808931
WZL_2014,9,0,2024-06-16T12:14:34.938Z,english_878.wav,0,1,269,25,4,chinese,m,4,0.4,-49.52140337,1.8324871
WZL_2014,9,0,2024-06-16T12:14:34.938Z,english_878.wav,0,1,269,25,4,chinese,m,5,0.5,-71.54422434,1.79950878
WZL_2014,9,0,2024-06-16T12:14:34.938Z,english_878.wav,0,1,269,25,4,chinese,m,6,0.6,58.16145178,1.12806689
WZL_2014,9,0,2024-06-16T12:14:34.938Z,english_878.wav,0,1,269,25,4,chinese,m,7,0.7,-74.84169027,0.34574191
WZL_2014,9,0,2024-06-16T12:14:34.938Z,english_878.wav,0,1,269,25,4,chinese,m,8,0.8,-47.28121675,1.0964165
WZL_2014,9,0,2024-06-16T12:14:34.938Z,english_878.wav,0,1,269,25,4,chinese,m,9,0.9,17.04020125,0.06170949
WZL_2014,9,0,2024-06-16T12:14:34.938Z,english_878.wav,0,1,269,25,4,chinese,m,10,1,-15.84668216,1.1582617
WZL_2014,9,0,2024-06-16T12:14:34.938Z,english_878.wav,0,1,269,25,4,chinese,m,11,1.09391667,15.68838881,0.39253234
WZL_2014,10,0,2024-06-16T12:14:34.938Z,english_240.wav,0,1,101,25,4,chinese,m,0,0,94.92487397,1.16173124
WZL_2014,10,0,2024-06-16T12:14:34.938Z,english_240.wav,0,1,101,25,4,chinese,m,1,0.1,46.60086456,0.28146868
WZL_2014,10,0,2024-06-16T12:14:34.938Z,english_240.wav,0,1,101,25,4,chinese,m,2,0.2,-85.09682287,1.34805144
WZL_2014,10,0,2024-06-16T12:14:34.938Z,english_240.wav,0,1,101,25,4,chinese,m,3,0.3,61.23591388,0.20054267
WZL_2014,10,0,2024-06-16T12:14:34.938Z,english_240.wav,0,1,101,25,4,chinese,m,4,0.4,-87.76590316,1.28124808
WZL_2014,10,0,2024-06-16T12:14:34.938Z,english_240.wav,0,1,101,25,4,chinese,m,5,0.5,-26.78505593,0.75335144
WZL_2014,10,0,2024-06-16T12:14:34.938Z,english_240.wav,0,1,101,25,4,chinese,m,6,0.6,79.97771783,0.06187073
WZL_2014,10,0,2024-06-16T12:14:34.938Z,english_240.wav,0,1,101,25,4,chinese,m,7,0.7,-52.5823066,0.9449402
WZL_2014,10,0,2024-06-16T12:14:34.938Z,english_240.wav,0,1,101,25,4,chinese,m,8,0.8,-50.02012697,0.10878198
WZL_2014,10,0,2024-06-16T12:14:34.938Z,english_240.wav,0,1,101,25,4,chinese,m,9,0.9,92.54545653,1.66426768
WZL_2014,10,0,2024-06-16T12:14:34.938Z,english_240.wav,0,1,101,25,4,chinese,m,10,1,-31.99180963,1.44792205
WZL_2014,10,0,2024-06-16T12:14:34.938Z,english_240.wav,0,1,101,25,4,chinese,m,11,1.09391667,16.04001658,0.58420497
WZL_2014,11,0,2024-06-16T12:14:34.938Z,english_607.wav,0,1,214,25,4,chinese,m,0,0,0.27599318,1.85195662
WZL_2014,11,0,2024-06-16T12:14:34.938Z,english_607.wav,0,1,214,25,4,chinese,m,1,0.1,61.54655284,0.01211705
WZL_2014,11,0,2024-06-16T12:14:34.938Z,english_607.wav,0,1,214,25,4,chinese,m,2,0.2,-45.68438061,1.01527113
WZL_2014,11,0,2024-06-16T12:14:34.938Z,english_607.wav,0,1,214,25,4,chinese,m,3,0.3,-56.50831868,0.58104245
WZL_2014,11,0,2024-06-16T12:14:34.938Z,english_607.wav,0,1,214,25,4,chinese,m,4,0.4,15.2577286,0.36467608
WZL_2014,11,0,2024-06-16T12:14:34.938Z,english_607.wav,0,1,214,25,4,chinese,m,5,0.5,-52.12017374,0.76758339
WZL_2014,11,0,2024-06-16T12:14:34.938Z,english_607.wav,0,1,214,25,4,chinese,m,6,0.6,97.83272545,1.21313057
WZL_2014,11,0,2024-06-16T12:14:34.938Z,english_607.wav,0,1,214,25,4,chinese,m,7,0.7,7.21834566,1.69539972
WZL_2014,11,0,2024-06-16T12:14:34.938Z,english_607.wav,0,1,214,25,4,chinese,m,8,0.8,8.71902974,0.38171646
WZL_2014,11,0,2024-06-16T12:14:34.938Z,english_607.wav,0,1,214,25,4,chinese,m,9,0.9,84.51998902,1.4848349
WZL_2014,11,0,2024-06-16T12:14:34.938Z,english_607.wav,0,1,214,25,4,chinese,m,10,1,-21.50673836,0.84163241
WZL_2014,11,0,2024-06-16T12:14:34.938Z,english_607.wav,0,1,214,25,4,chinese,m,11,1.09391667,68.90809966,0.34247873
WZL_2014,12,0,2024-06-16T12:14:34.938Z,english_474.wav,0,1,345,25,4,chinese,m,0,0,90.33187361,1.64439586
WZL_2014,12,0,2024-06-16T12:14:34.938Z,english_474.wav,0,1,345,25,4,chinese,m,1,0.1,-6.84069755,1.97409516
WZL_2014,12,0,2024-06-16T12:14:34.938Z,english_474.wav,0,1,345,25,4,chinese,m,2,0.2,-57.72482016,1.83394357
WZL_2014,12,0,2024-06-16T12:14:34.938Z,english_474.wav,0,1,345,25,4,chinese,m,3,0.3,-31.39067157,1.91918891
WZL_2014,12,0,2024-06-16T12:14:34.938Z,english_474.wav,0,1,345,25,4,chinese,m,4,0.4,81.36101502,1.89552465
WZL_2014,12,0,2024-06-16T12:14:34.938Z,english_474.wav,0,1,345,25,4,chinese,m,5,0.5,86.28648359,1.60591709
WZL_2014,12,0,2024-06-16T12:14:34.938Z,english_474.wav,0,1,345,25,4,chinese,m,6,0.6,59.24078698,1.87570248
WZL_2014,12,0,2024-06-16T12:14:34.938Z,english_474.wav,0,1,345,25,4,chinese,m,7,0.7,83.65694144,0.05909507
WZL_2014,12,0,2024-06-16T12:14:34.938Z,english_474.wav,0,1,345,25,4,chinese,m,8,0.8,-5.88526163,0.13266254
WZL_2014,12,0,2024-06-16T12:14:34.938Z,english_474.wav,0,1,345,25,4,chinese,m,9,0.9,-0.83528638,1.2446593
WZL_2014,12,0,2024-06-16T12:14:34.938Z,english_474.wav,0,1,345,25,4,chinese,m,10,1,93.70431835,0.47044402
WZL_2014,12,0,2024-06-16T12:14:34.938Z,english_474.wav,0,1,345,25,4,chinese,m,11,1.09391667,-9.99550439,1.70719202
WZL_2014,13,0,2024-06-16T12:14:34.938Z,english_781.wav,0,1,376,25,4,chinese,m,0,0,13.49860993,0.0422445
WZL_2014,13,0,2024-06-16T12:14:34.938Z,english_781.wav,0,1,376,25,4,chinese,m,1,0.1,78.16193023,0.76912714
WZL_2014,13,0,2024-06-16T12:14:34.938Z,english_781.wav,0,1,376,25,4,chinese,m,2,0.2,43.40540276,1.16484067
WZL_2014,13,0,2024-06-16T12:14:34.938Z,english_781.wav,0,1,376,25,4,chinese,m,3,0.3,44.39381188,0.51341231
WZL_2014,13,0,2024-06-16T12:14:34.938Z,english_781.wav,0,1,376,25,4,chinese,m,4,0.4,1.19618008,0.61057315
WZL_2014,13,0,2024-06-16T12:14:34.938Z,english_781.wav,0,1,376,25,4,chinese,m,5,0.5,97.39796145,1.22595164
WZL_2014,13,0,2024-06-16T12:14:34.938Z,english_781.wav,0,1,376,25,4,chinese,m,6,0.6,-80.74515196,0.0959771
WZL_2014,13,0,2024-06-16T12:14:34.938Z,english_781.wav,0,1,376,25,4,chinese,m,7,0.7,24.03355654,0.86869214
WZL_2014,13,0,2024-06-16T12:14:34.938Z,english_781.wav,0,1,376,25,4,chinese,m,8,0.8,-69.35175607,1.17997392
WZL_2014,13,0,2024-06-16T12:14:34.938Z,english_781.wav,0,1,376,25,4,chinese,m,9,0.9,69.20236756,1.93834455
WZL_2014,13,0,2024-06-16T12:14:34.938Z,english_781.wav,0,1,376,25,4,chinese,m,10,1,35.51398516,0.60620459
WZL_2014,13,0,2024-06-16T12:14:34.938Z,english_781.wav,0,1,376,25,4,chinese,m,11,1.09391667,-53.23346631,1.46133915
WZL_2014,14,0,2024-06-16T12:14:34.938Z,english_656.wav,0,1,3615,25,4,chinese,m,0,0,-81.79066312,1.40445152
WZL_2014,14,0,2024-06-16T12:14:34.938Z,english_656.wav,0,1,3615,25,4,chinese,m,1,0.1,82.04093637,1.3245448
WZL_2014,14,0,2024-06-16T12:14:34.938Z,english_656.wav,0,1,3615,25,4,chinese,m,2,0.2,-52.28001609,1.15771434
WZL_2014,14,0,2024-06-16T12:14:34.938Z,english_656.wav,0,1,3615,25,4,chinese,m,3,0.3,67.28232458,1.36671169
WZL_2014,14,0,2024-06-16T12:14:34.938Z,english_656.wav,0,1,3615,25,4,chinese,m,4,0.4,-93.82911819,1.65032622
WZL_2014,14,0,2024-06-16T12:14:34.938Z,english_656.wav,0,1,3615,25,4,chinese,m,5,0.5,-25.69923398,0.37873681
WZL_2014,14,0,2024-06-16T12:14:34.938Z,english_656.wav,0,1,3615,25,4,chinese,m,6,0.6,-22.63880376,0.51917639
WZL_2014,14,0,2024-06-16T12:14:34.938Z,english_656.wav,0,1,3615,25,4,chinese,m,7,0.7,28.9128231,1.1632187
WZL_2014,14,0,2024-06-16T12:14:34.938Z,english_656.wav,0,1,3615,25,4,chinese,m,8,0.8,-87.87621278,0.95022034
WZL_2014,14,0,2024-06-16T12:14:34.938Z,english_656.wav,0,1,3615,25,4,chinese,m,9,0.9,-32.99395829,1.57205129
WZL_2014,14,0,2024-06-16T12:14:34.938Z,english_656.wav,0,1,3615,25,4,chinese,m,10,1,67.88283241,0.61260001
WZL_2014,14,0,2024-06-16T12:14:34.938Z,english_656.wav,0,1,3615,25,4,chinese,m,11,1.09391667,-65.62849391,1.24421279
WZL_2014,15,0,2024-06-16T12:14:34.938Z,english_560.wav,0,1,327,25,4,chinese,m,0,0,-58.05020857,1.72720005
WZL_2014,15,0,2024-06-16T12:14:34.938Z,english_560.wav,0,1,327,25,4,chinese,m,1,0.1,0.75359215,0.87170151
WZL_2014,15,0,2024-06-16T12:14:34.938Z,english_560.wav,0,1,327,25,4,chinese,m,2,0.2,-63.0427696,1.11137899
WZL_2014,15,0,2024-06-16T12:14:34.938Z,english_560.wav,0,1,327,25,4,chinese,m,3,0.3,-80.65695741,1.61210877
WZL_2014,15,0,2024-06-16T12:14:34.938Z,english_560.wav,0,1,327,25,4,chinese,m,4,0.4,30.22073259,0.77402776
WZL_2014,15,0,2024-06-16T12:14:34.938Z,english_560.wav,0,1,327,25,4,chinese,m,5,0.5,78.65082856,1.41240522
WZL_2014,15,0,2024-06-16T12:14:34.938Z,english_560.wav,0,1,327,25,4,chinese,m,6,0.6,-21.87019315,1.5310865
WZL_2014,15,0,2024-06-16T12:14:34.938Z,english_560.wav,0,1,327,25,4,chinese,m,7,0.7,-81.08775569,0.91259008
WZL_2014,15,0,2024-06-16T12:14:34.938Z,english_560.wav,0,1,327,25,4,chinese,m,8,0.8,-85.95097006,0.61355253
WZL_2014,15,0,2024-06-16T12:14:34.938Z,english_560.wav,0,1,327,25,4,chinese,m,9,0.9,55.61706947,0.53974683
WZL_2014,15,0,2024-06-16T12:14:34.938Z,english_560.wav,0,1,327,25,4,chinese,m,10,1,78.8186599,1.30815579
WZL_2014,15,0,2024-06-16T12:14:34.938Z,english_560.wav,0,1,327,25,4,chinese,m,11,1.09391667,-38.99290187,1.62027104
WZL_2014,16,0,2024-06-16T12:17:00.433Z,english_590.wav,0,1,433,25,4,chinese,m,0,0,24.53986414,1.78897409
WZL_2014,16,0,2024-06-16T12:17:00.433Z,english_590.wav,0,1,433,25,4,chinese,m,1,0.1,62.74729121,1.71743114
WZL_2014,16,0,2024-06-16T12:17:00.433Z,english_590.wav,0,1,433,25,4,chinese,m,2,0.2,-6.99692864,1.45844579
WZL_2014,16,0,2024-06-16T12:17:00.433Z,english_590.wav,0,1,433,25,4,chinese,m,3,0.3,32.91070415,0.05079794
WZL_2014,16,0,2024-06-16T12:17:00.433Z,english_590.wav,0,1,433,25,4,chinese,m,4,0.4,54.80975448,1.44685897
WZL_2014,16,0,2024-06-16T12:17:00.433Z,english_590.wav,0,1,433,25,4,chinese,m,5,0.5,24.32530029,0.6322235
WZL_2014,16,0,2024-06-16T12:17:00.433Z,english_590.wav,0,1,433,25,4,chinese,m,6,0.6,16.29432048,1.01805408
WZL_2014,16,0,2024-06-16T12:17:00.433Z,english_590.wav,0,1,433,25,4,chinese,m,7,0.7,-66.06817006,0.32502854
WZL_2014,16,0,2024-06-16T12:17:00.433Z,english_590.wav,0,1,433,25,4,chinese,m,8,0.8,-90.96676801,1.20600442
WZL_2014,16,0,2024-06-16T12:17:00.433Z,english_590.wav,0,1,433,25,4,chinese,m,9,0.9,-4.67977612,0.69143843
WZL_2014,16,0,2024-06-16T12:17:00.433Z,english_590.wav,0,1,433,25,4,chinese,m,10,1,-25.79105575,0.12523546
WZL_2014,16,0,2024-06-16T12:17:00.433Z,english_590.wav,0,1,433,25,4,chinese,m,11,1.09391667,-43.70584136,1.95537842
WZL_2014,17,0,2024-06-16T12:17:00.433Z,english_372.wav,0,1,418,25,4,chinese,m,0,0,26.59916967,1.01937466
WZL_2014,17,0,2024-06-16T12:17:00.433Z,english_372.wav,0,1,418,25,4,chinese,m,1,0.1,3.58814385,0.79696142
WZL_2014,17,0,2024-06-16T12:17:00.433Z,english_372.wav,0,1,418,25,4,chinese,m,2,0.2,-60.14178388,0.00503004
WZL_2014,17,0,2024-06-16T12:17:00.433Z,english_372.wav,0,1,418,25,4,chinese,m,3,0.3,-44.19894674,0.84575405
WZL_2014,17,0,2024-06-16T12:17:00.433Z,english_372.wav,0,1,418,25,4,chinese,m,4,0.4,-38.03613901,0.48969314
WZL_2014,17,0,2024-06-16T12:17:00.433Z,english_372.wav,0,1,418,25,4,chinese,m,5,0.5,46.39303355,1.79043023
WZL_2014,17,0,2024-06-16T12:17:00.433Z,english_372.wav,0,1,418,25,4,chinese,m,6,0.6,-33.97181462,1.46860797
WZL_2014,17,0,2024-06-16T12:17:00.433Z,english_372.wav,0,1,418,25,4,chinese,m,7,0.7,-27.46884733,0.04122284
WZL_2014,17,0,2024-06-16T12:17:00.433Z,english_372.wav,0,1,418,25,4,chinese,m,8,0.8,-45.55461231,0.63203754
WZL_2014,17,0,2024-06-16T12:17:00.433Z,english_372.wav,0,1,418,25,4,chinese,m,9,0.9,20.15963599,1.00944548
WZL_2014,17,0,2024-06-16T12:17:00.433Z,english_372.wav,0,1,418,25,4,chinese,m,10,1,54.79355498,0.7711604
WZL_2014,17,0,2024-06-16T12:17:00.433Z,english_372.wav,0,1,418,25,4,chinese,m,11,1.09391667,93.56246184,0.15048829
WZL_2014,18,0,2024-06-16T12:17:00.433Z,english_394.wav,0,1,338,25,4,chinese,m,0,0,-15.73952497,0.37404547
WZL_2014,18,0,2024-06-16T12:17:00.433Z,english_394.wav,0,1,338,25,4,chinese,m,1,0.1,-72.53875874,0.74662783
WZL_2014,18,0,2024-06-16T12:17:00.433Z,english_394.wav,0,1,338,25,4,chinese,m,2,0.2,-2.77448658,0.09869687
WZL_2014,18,0,2024-06-16T12:17:00.433Z,english_394.wav,0,1,338,25,4,chinese,m,3,0.3,-34.13929652,0.4926167
WZL_2014,18,0,2024-06-16T12:17:00.433Z,english_394.wav,0,1,338,25,4,chinese,m,4,0.4,98.89455917,0.88094357
WZL_2014,18,0,2024-06-16T12:17:00.433Z,english_394.wav,0,1,338,25,4,chinese,m,5,0.5,92.17283268,1.74845503
WZL_2014,18,0,2024-06-16T12:17:00.433Z,english_394.wav,0,1,338,25,4,chinese,m,6,0.6,57.90330337,0.56104095
WZL_2014,18,0,2024-06-16T12:17:00.433Z,english_394.wav,0,1,338,25,4,chinese,m,7,0.7,42.86143517,1.17773509
WZL_2014,18,0,2024-06-16T12:17:00.433Z,english_394.wav,0,1,338,25,4,chinese,m,8,0.8,-24.72366611,1.30676371
WZL_2014,18,0,2024-06-16T12:17:00.433Z,english_394.wav,0,1,338,25,4,chinese,m,9,0.9,1.80991862,0.02013397
WZL_2014,18,0,2024-06-16T12:17:00.433Z,english_394.wav,0,1,338,25,4,chinese,m,10,1,-3.52242486,1.86341361
WZL_2014,18,0,2024-06-16T12:17:00.433Z,english_394.wav,0,1,338,25,4,chinese,m,11,1.09391667,-17.84344946,0.37928015
WZL_2014,19,0,2024-06-16T12:17:00.433Z,english_577.wav,0,1,195,25,4,chinese,m,0,0,-76.85094523,0.20458554
WZL_2014,19,0,2024-06-16T12:17:00.433Z,english_577.wav,0,1,195,25,4,chinese,m,1,0.1,94.91365435,0.06228827
WZL_2014,19,0,2024-06-16T12:17:00.433Z,english_577.wav,0,1,195,25,4,chinese,m,2,0.2,32.9651173,1.08516977
WZL_2014,19,0,2024-06-16T12:17:00.433Z,english_577.wav,0,1,195,25,4,chinese,m,3,0.3,97.44139815,1.03608724
WZL_2014,19,0,2024-06-16T12:17:00.433Z,english_577.wav,0,1,195,25,4,chinese,m,4,0.4,-92.85161712,1.39749402
WZL_2014,19,0,2024-06-16T12:17:00.433Z,english_577.wav,0,1,195,25,4,chinese,m,5,0.5,-28.41231643,0.64758682
WZL_2014,19,0,2024-06-16T12:17:00.433Z,english_577.wav,0,1,195,25,4,chinese,m,6,0.6,19.38479245,0.95032341
WZL_2014,19,0,2024-06-16T12:17:00.433Z,english_577.wav,0,1,195,25,4,chinese,m,7,0.7,49.58285772,1.2742538
WZL_2014,19,0,2024-06-16T12:17:00.433Z,english_577.wav,0,1,195,25,4,chinese,m,8,0.8,92.79445105,1.48392176
WZL_2014,19,0,2024-06-16T12:17:00.433Z,english_577.wav,0,1,195,25,4,chinese,m,9,0.9,-51.23747257,0.56445321
WZL_2014,19,0,2024-06-16T12:17:00.433Z,english_577.wav,0,1,195,25,4,chinese,m,10,1,-16.84554087,1.53283339
WZL_2014,19,0,2024-06-16T12:17:00.433Z,english_577.wav,0,1,195,25,4,chinese,m,11,1.09391667,-72.32540524,1.57768455
WZL_2014,20,0,2024-06-16T12:17:00.433Z,english_724.wav,0,1,935,25,4,chinese,m,0,0,-56.76875747,1.98134375
WZL_2014,20,0,2024-06-16T12:17:00.433Z,english_724.wav,0,1,935,25,4,chinese,m,1,0.1,-86.21406354,1.3755847
WZL_2014,20,0,2024-06-16T12:17:00.433Z,english_724.wav,0,1,935,25,4,chinese,m,2,0.2,60.18994207,0.59510503
WZL_2014,20,0,2024-06-16T12:17:00.433Z,english_724.wav,0,1,935,25,4,chinese,m,3,0.3,-73.18576328,0.94085573
WZL_2014,20,0,2024-06-16T12:17:00.433Z,english_724.wav,0,1,935,25,4,chinese,m,4,0.4,9.02898682,1.58537713
WZL_2014,20,0,2024-06-16T12:17:00.433Z,english_724.wav,0,1,935,25,4,chinese,m,5,0.5,0.09152752,0.37644638
WZL_2014,20,0,2024-06-16T12:17:00.433Z,english_724.wav,0,1,935,25,4,chinese,m,6,0.6,-45.20734969,0.99166811
WZL_2014,20,0,2024-06-16T12:17:00.433Z,english_724.wav,0,1,935,25,4,chinese,m,7,0.7,41.14572905,0.69217337
WZL_2014,20,0,2024-06-16T12:17:00.433Z,english_724.wav,0,1,935,25,4,chinese,m,8,0.8,-8.90641818,0.6776497
WZL_2014,20,0,2024-06-16T12:17:00.433Z,english_724.wav,0,1,935,25,4,chinese,m,9,0.9,16.12067161,0.10142147
WZL_2014,20,0,2024-06-16T12:17:00.433Z,english_724.wav,0,1,935,25,4,chinese,m,10,1,72.53679682,1.80502318
WZL_2014,20,0,2024-06-16T12:17:00.433Z,english_724.wav,0,1,935,25,4,chinese,m,11,1.09391667,17.69672556,1.15790189
WZL_2014,21,0,2024-06-16T12:17:50.040Z,english_799.wav,0,1,608,25,4,chinese,m,0,0,20.93448877,0.48820712
WZL_2014,21,0,2024-06-16T12:17:50.040Z,english_799.wav,0,1,608,25,4,chinese,m,1,0.1,74.90549066,0.80562581
WZL_2014,21,0,2024-06-16T12:17:50.040Z,english_799.wav,0,1,608,25,4,chinese,m,2,0.2,79.35216778,1.19822254
WZL_2014,21,0,2024-06-16T12:17:50.040Z,english_799.wav,0,1,608,25,4,chinese,m,3,0.3,-10.62506754,1.60128914
WZL_2014,21,0,2024-06-16T12:17:50.040Z,english_799.wav,0,1,608,25,4,chinese,m,4,0.4,6.33564747,0.01319764
WZL_2014,21,0,2024-06-16T12:17:50.040Z,english_799.wav,0,1,608,25,4,chinese,m,5,0.5,90.41443979,1.72553046
WZL_2014,21,0,2024-06-16T12:17:50.040Z,english_799.wav,0,1,608,25,4,chinese,m,6,0.6,-60.57880503,1.2547609
WZL_2014,21,0,2024-06-16T12:17:50.040Z,english_799.wav,0,1,608,25,4,chinese,m,7,0.7,9.86229071,0.74830712
WZL_2014,21,0,2024-06-16T12:17:50.040Z,english_799.wav,0,1,608,25,4,chinese,m,8,0.8,-45.57695026,0.71080767
WZL_2014,21,0,2024-06-16T12:17:50.040Z,english_799.wav,0,1,608,25,4,chinese,m,9,0.9,4.80419962,0.83933205
WZL_2014,21,0,2024-06-16T12:17:50.040Z,english_799.wav,0,1,608,25,4,chinese,m,10,1,49.35310044,0.24394342
WZL_2014,21,0,2024-06-16T12:17:50.040Z,english_799.wav,0,1,608,25,4,chinese,m,11,1.09391667,82.63345718,0.9569793
WZL_2014,22,0,2024-06-16T12:17:50.040Z,english_470.wav,0,1,161,25,4,chinese,m,0,0,7.37990413,0.50795653
WZL_2014,22,0,2024-06-16T12:17:50.040Z,english_470.wav,0,1,161,25,4,chinese,m,1,0.1,87.94942489,0.30691906
WZL_2014,22,0,2024-06-16T12:17:50.040Z,english_470.wav,0,1,161,25,4,chinese,m,2,0.2,10.38249529,0.98636118
WZL_2014,22,0,2024-06-16T12:17:50.040Z,english_470.wav,0,1,161,25,4,chinese,m,3,0.3,-58.07329771,1.21445168
WZL_2014,22,0,2024-06-16T12:17:50.040Z,english_470.wav,0,1,161,25,4,chinese,m,4,0.4,23.85321855,1.48681533
WZL_2014,22,0,2024-06-16T12:17:50.040Z,english_470.wav,0,1,161,25,4,chinese,m,5,0.5,6.8444155,0.97810489
WZL_2014,22,0,2024-06-16T12:17:50.040Z,english_470.wav,0,1,161,25,4,chinese,m,6,0.6,-98.77408233,1.43803165
WZL_2014,22,0,2024-06-16T12:17:50.040Z,english_470.wav,0,1,161,25,4,chinese,m,7,0.7,31.31374825,0.53571114
WZL_2014,22,0,2024-06-16T12:17:50.040Z,english_470.wav,0,1,161,25,4,chinese,m,8,0.8,48.11301354,0.52187188
WZL_2014,22,0,2024-06-16T12:17:50.040Z,english_470.wav,0,1,161,25,4,chinese,m,9,0.9,41.85545408,0.48211822
WZL_2014,22,0,2024-06-16T12:17:50.040Z,english_470.wav,0,1,161,25,4,chinese,m,10,1,-24.66275902,1.48098769
WZL_2014,22,0,2024-06-16T12:17:50.040Z,english_470.wav,0,1,161,25,4,chinese,m,11,1.09391667,-90.92929456,1.20326113
WZL_2014,23,0,2024-06-16T12:17:50.040Z,english_868.wav,0,1,233,25,4,chinese,m,0,0,8.81168197,0.91928245
WZL_2014,23,0,2024-06-16T12:17:50.040Z,english_868.wav,0,1,233,25,4,chinese,m,1,0.1,28.82624603,1.1322176
WZL_2014,23,0,2024-06-16T12:17:50.040Z,english_868.wav,0,1,233,25,4,chinese,m,2,0.2,-13.41860503,0.903902
WZL_2014,23,0,2024-06-16T12:17:50.040Z,english_868.wav,0,1,233,25,4,chinese,m,3,0.3,-3.78239355,0.85237712
WZL_2014,23,0,2024-06-16T12:17:50.040Z,english_868.wav,0,1,233,25,4,chinese,m,4,0.4,-99.28888376,0.30528578
WZL_2014,23,0,2024-06-16T12:17:50.040Z,english_868.wav,0,1,233,25,4,chinese,m,5,0.5,97.17399406,0.73312891
WZL_2014,23,0,2024-06-16T12:17:50.040Z,english_868.wav,0,1,233,25,4,chinese,m,6,0.6,-7.91387191,1.49247212
WZL_2014,23,0,2024-06-16T12:17:50.040Z,english_868.wav,0,1,233,25,4,chinese,m,7,0.7,60.9049728,1.20652206
WZL_2014,23,0,2024-06-16T12:17:50.040Z,english_868.wav,0,1,233,25,4,chinese,m,8,0.8,-11.98639675,1.13523652
WZL_2014,23,0,2024-06-16T12:17:50.040Z,english_868.wav,0,1,233,25,4,chinese,m,9,0.9,-1.38257528,0.60296342
WZL_2014,23,0,2024-06-16T12:17:50.040Z,english_868.wav,0,1,233,25,4,chinese,m,10,1,25.89344048,0.75702193
WZL_2014,23,0,2024-06-16T12:17:50.040Z,english_868.wav,0,1,233,25,4,chinese,m,11,1.09391667,-40.04347975,0.87917509
WZL_2014,24,0,2024-06-16T12:17:50.040Z,english_163.wav,0,1,501,25,4,chinese,m,0,0,-75.52696483,0.21633828
WZL_2014,24,0,2024-06-16T12:17:50.040Z,english_163.wav,0,1,501,25,4,chinese,m,1,0.1,-50.94410786,0.31603177
WZL_2014,24,0,2024-06-16T12:17:50.040Z,english_163.wav,0,1,501,25,4,chinese,m,2,0.2,-38.29944429,1.04333718
WZL_2014,24,0,2024-06-16T12:17:50.040Z,english_163.wav,0,1,501,25,4,chinese,m,3,0.3,-32.57127411,1.57763682
WZL_2014,24,0,2024-06-16T12:17:50.040Z,english_163.wav,0,1,501,25,4,chinese,m,4,0.4,-30.55941116,0.14485533
WZL_2014,24,0,2024-06-16T12:17:50.040Z,english_163.wav,0,1,501,25,4,chinese,m,5,0.5,-14.52407307,1.53043555
WZL_2014,24,0,2024-06-16T12:17:50.040Z,english_163.wav,0,1,501,25,4,chinese,m,6,0.6,28.48601544,0.0734581
WZL_2014,24,0,2024-06-16T12:17:50.040Z,english_163.wav,0,1,501,25,4,chinese,m,7,0.7,-14.30599007,1.19104414
WZL_2014,24,0,2024-06-16T12:17:50.040Z,english_163.wav,0,1,501,25,4,chinese,m,8,0.8,38.98323909,0.4056819
WZL_2014,24,0,2024-06-16T12:17:50.040Z,english_163.wav,0,1,501,25,4,chinese,m,9,0.9,-70.97720427,1.30823112
WZL_2014,24,0,2024-06-16T12:17:50.040Z,english_163.wav,0,1,501,25,4,chinese,m,10,1,-31.77991107,1.63835528
WZL_2014,24,0,2024-06-16T12:17:50.040Z,english_163.wav,0,1,501,25,4,chinese,m,11,1.09391667,-57.22342155,1.03131117
WZL_2014,25,0,2024-06-16T12:17:50.040Z,english_229.wav,0,1,466,25,4,chinese,m,0,0,-79.04304689,0.75524208
WZL_2014,25,0,2024-06-16T12:17:50.040Z,english_229.wav,0,1,466,25,4,chinese,m,1,0.1,-33.27907889,1.36191913
WZL_2014,25,0,2024-06-16T12:17:50.040Z,english_229.wav,0,1,466,25,4,chinese,m,2,0.2,-48.38559405,0.27826927
WZL_2014,25,0,2024-06-16T12:17:50.040Z,english_229.wav,0,1,466,25,4,chinese,m,3,0.3,-41.35801628,1.07720363
WZL_2014,25,0,2024-06-16T12:17:50.040Z,english_229.wav,0,1,466,25,4,chinese,m,4,0.4,-26.02502446,1.01002639
WZL_2014,25,0,2024-06-16T12:17:50.040Z,english_229.wav,0,1,466,25,4,chinese,m,5,0.5,13.55019155,0.44849721
WZL_2014,25,0,2024-06-16T12:17:50.040Z,english_229.wav,0,1,466,25,4,chinese,m,6,0.6,18.26415136,0.65469054
WZL_2014,25,0,2024-06-16T12:17:50.040Z,english_229.wav,0,1,466,25,4,chinese,m,7,0.7,-44.56995302,0.24060095
WZL_2014,25,0,2024-06-16T12:17:50.040Z,english_229.wav,0,1,466,25,4,chinese,m,8,0.8,9.70532855,1.46400581
WZL_2014,25,0,2024-06-16T12:17:50.040Z,english_229.wav,0,1,466,25,4,chinese,m,9,0.9,-87.31769778,0.19595273
WZL_2014,25,0,2024-06-16T12:17:50.040Z,english_229.wav,0,1,466,25,4,chinese,m,10,1,71.16611241,1.05591567
WZL_2014,25,0,2024-06-16T12:17:50.040Z,english_229.wav,0,1,466,25,4,chinese,m,11,1.09391667,-73.56487105,1.79159402
WZL_2014,26,0,2024-06-16T12:17:50.040Z,english_962.wav,0,1,202,25,4,chinese,m,0,0,-16.60048673,0.55938727
WZL_2014,26,0,2024-06-16T12:17:50.040Z,english_962.wav,0,1,202,25,4,chinese,m,1,0.1,86.97119881,1.40731286
WZL_2014,26,0,2024-06-16T12:17:50.040Z,english_962.wav,0,1,202,25,4,chinese,m,2,0.2,60.43507778,0.29415182
WZL_2014,26,0,2024-06-16T12:17:50.040Z,english_962.wav,0,1,202,25,4,chinese,m,3,0.3,34.28838618,0.53536257
WZL_2014,26,0,2024-06-16T12:17:50.040Z,english_962.wav,0,1,202,25,4,chinese,m,4,0.4,-3.8203387,0.38742579
WZL_2014,26,0,2024-06-16T12:17:50.040Z,english_962.wav,0,1,202,25,4,chinese,m,5,0.5,82.49891636,0.91323434
WZL_2014,26,0,2024-06-16T12:17:50.040Z,english_962.wav,0,1,202,25,4,chinese,m,6,0.6,22.18578672,0.69102333
WZL_2014,26,0,2024-06-16T12:17:50.040Z,english_962.wav,0,1,202,25,4,chinese,m,7,0.7,20.13766391,0.47321431
WZL_2014,26,0,2024-06-16T12:17:50.040Z,english_962.wav,0,1,202,25,4,chinese,m,8,0.8,74.50191695,1.91525386
WZL_2014,26,0,2024-06-16T12:17:50.040Z,english_962.wav,0,1,202,25,4,chinese,m,9,0.9,68.04596391,0.05569164
WZL_2014,26,0,2024-06-16T12:17:50.040Z,english_962.wav,0,1,202,25,4,chinese,m,10,1,-41.45827676,1.5038001
WZL_2014,26,0,2024-06-16T12:17:50.040Z,english_962.wav,0,1,202,25,4,chinese,m,11,1.09391667,-81.40338911,1.11433977
WZL_2014,27,0,2024-06-16T12:17:50.040Z,english_691.wav,0,1,183,25,4,chinese,m,0,0,53.99142335,1.37901611
WZL_2014,27,0,2024-06-16T12:17:50.040Z,english_691.wav,0,1,183,25,4,chinese,m,1,0.1,59.99308562,0.48516991
WZL_2014,27,0,2024-06-16T12:17:50.040Z,english_691.wav,0,1,183,25,4,chinese,m,2,0.2,-83.77980644,1.93939228
WZL_2014,27,0,2024-06-16T12:17:50.040Z,english_691.wav,0,1,183,25,4,chinese,m,3,0.3,5.55909075,1.80900702
WZL_2014,27,0,2024-06-16T12:17:50.040Z,english_691.wav,0,1,183,25,4,chinese,m,4,0.4,23.79459539,0.81475575
WZL_2014,27,0,2024-06-16T12:17:50.040Z,english_691.wav,0,1,183,25,4,chinese,m,5,0.5,-52.64546011,0.95195088
WZL_2014,27,0,2024-06-16T12:17:50.040Z,english_691.wav,0,1,183,25,4,chinese,m,6,0.6,2.68270455,1.3919478
WZL_2014,27,0,2024-06-16T12:17:50.040Z,english_691.wav,0,1,183,25,4,chinese,m,7,0.7,-52.61692888,0.70729183
WZL_2014,27,0,2024-06-16T12:17:50.040Z,english_691.wav,0,1,183,25,4,chinese,m,8,0.8,-36.65533837,1.61794077
WZL_2014,27,0,2024-06-16T12:17:50.040Z,english_691.wav,0,1,183,25,4,chinese,m,9,0.9,-75.69832194,0.1770134
WZL_2014,27,0,2024-06-16T12:17:50.040Z,english_691.wav,0,1,183,25,4,chinese,m,10,1,1.92131533,0.51863844
WZL_2014,27,0,2024-06-16T12:17:50.040Z,english_691.wav,0,1,183,25,4,chinese,m,11,1.09391667,-54.35087966,0.34478655
WZL_2014,28,0,2024-06-16T12:17:50.040Z,english_481.wav,0,1,481,25,4,chinese,m,0,0,12.53874901,1.58204947
WZL_2014,28,0,2024-06-16T12:17:50.040Z,english_481.wav,0,1,481,25,4,chinese,m,1,0.1,-9.84524601,0.30197463
WZL_2014,28,0,2024-06-16T12:17:50.040Z,english_481.wav,0,1,481,25,4,chinese,m,2,0.2,-28.69081604,1.36929082
WZL_2014,28,0,2024-06-16T12:17:50.040Z,english_481.wav,0,1,481,25,4,chinese,m,3,0.3,-3.98654711,1.57950224
WZL_2014,28,0,2024-06-16T12:17:50.040Z,english_481.wav,0,1,481,25,4,chinese,m,4,0.4,-31.85582808,1.64821008
WZL_2014,28,0,2024-06-16T12:17:50.040Z,english_481.wav,0,1,481,25,4,chinese,m,5,0.5,-60.66158974,1.40708
WZL_2014,28,0,2024-06-16T12:17:50.040Z,english_481.wav,0,1,481,25,4,chinese,m,6,0.6,37.08553698,0.90705567
WZL_2014,28,0,2024-06-16T12:17:50.040Z,english_481.wav,0,1,481,25,4,chinese,m,7,0.7,-55.30747295,0.62618862
WZL_2014,28,0,2024-06-16T12:17:50.040Z,english_481.wav,0,1,481,25,4,chinese,m,8,0.8,79.95944373,0.10659235
WZL_2014,28,0,2024-06-16T12:17:50.040Z,english_481.wav,0,1,481,25,4,chinese,m,9,0.9,16.93049167,0.31824417
WZL_2014,28,0,2024-06-16T12:17:50.040Z,english_481.wav,0,1,481,25,4,chinese,m,10,1,2.57902723,0.18714767
WZL_2014,28,0,2024-06-16T12:17:50.040Z,english_481.wav,0,1,481,25,4,chinese,m,11,1.09391667,9.37320396,0.57978015
WZL_2014,29,0,2024-06-16T12:17:50.040Z,english_629.wav,0,1,397,25,4,chinese,m,0,0,-98.30964243,0.81771725
WZL_2014,29,0,2024-06-16T12:17:50.040Z,english_629.wav,0,1,397,25,4,chinese,m,1,0.1,-5.62970232,0.80248144
WZL_2014,29,0,2024-06-16T12:17:50.040Z,english_629.wav,0,1,397,25,4,chinese,m,2,0.2,20.69990793,1.65272957
WZL_2014,29,0,2024-06-16T12:17:50.040Z,english_629.wav,0,1,397,25,4,chinese,m,3,0.3,-4.68954038,0.79587507
WZL_2014,29,0,2024-06-16T12:17:50.040Z,english_629.wav,0,1,397,25,4,chinese,m,4,0.4,-82.80499964,0.51843323
WZL_2014,29,0,2024-06-16T12:17:50.040Z,english_629.wav,0,1,397,25,4,chinese,m,5,0.5,68.80297029,1.06630495
WZL_2014,29,0,2024-06-16T12:17:50.040Z,english_629.wav,0,1,397,25,4,chinese,m,6,0.6,-24.62615081,0.85921764
WZL_2014,29,0,2024-06-16T12:17:50.040Z,english_629.wav,0,1,397,25,4,chinese,m,7,0.7,-86.27878454,1.30572182
WZL_2014,29,0,2024-06-16T12:17:50.040Z,english_629.wav,0,1,397,25,4,chinese,m,8,0.8,-88.66663155,0.67243508
WZL_2014,29,0,2024-06-16T12:17:50.040Z,english_629.wav,0,1,397,25,4,chinese,m,9,0.9,8.97030431,0.68958588
WZL_2014,29,0,2024-06-16T12:17:50.040Z,english_629.wav,0,1,397,25,4,chinese,m,10,1,-94.86018334,0.23451131
WZL_2014,29,0,2024-06-16T12:17:50.040Z,english_629.wav,0,1,397,25,4,chinese,m,11,1.09391667,10.00961885,1.91010728
WZL_2014,30,0,2024-06-16T12:17:50.040Z,english_371.wav,0,1,1483,25,4,chinese,m,0,0,99.9242386,0.39669775
WZL_2014,30,0,2024-06-16T12:17:50.040Z,english_371.wav,0,1,1483,25,4,chinese,m,1,0.1,22.83023049,0.78709847
WZL_2014,30,0,2024-06-16T12:17:50.040Z,english_371.wav,0,1,1483,25,4,chinese,m,2,0.2,91.55037371,1.18432294
WZL_2014,30,0,2024-06-16T12:17:50.040Z,english_371.wav,0,1,1483,25,4,chinese,m,3,0.3,5.76311401,0.89768316
WZL_2014,30,0,2024-06-16T12:17:50.040Z,english_371.wav,0,1,1483,25,4,chinese,m,4,0.4,4.70890445,0.28448655
WZL_2014,30,0,2024-06-16T12:17:50.040Z,english_371.wav,0,1,1483,25,4,chinese,m,5,0.5,-99.6762273,1.11635531
WZL_2014,30,0,2024-06-16T12:17:50.040Z,english_371.wav,0,1,1483,25,4,chinese,m,6,0.6,-44.58037386,0.70262912
WZL_2014,30,0,2024-06-16T12:17:50.040Z,english_371.wav,0,1,1483,25,4,chinese,m,7,0.7,-30.18832908,1.50477642
WZL_2014,30,0,2024-06-16T12:17:50.040Z,english_371.wav,0,1,1483,25,4,chinese,m,8,0.8,69.47065737,1.93681172
WZL_2014,30,0,2024-06-16T12:17:50.040Z,english_371.wav,0,1,1483,25,4,chinese,m,9,0.9,-91.54025657,1.02826785
WZL_2014,30,0,2024-06-16T12:17:50.040Z,english_371.wav,0,1,1483,25,4,chinese,m,10,1,20.04839549,1.64700674
WZL_2014,30,0,2024-06-16T12:17:50.040Z,english_371.wav,0,1,1483,25,4,chinese,m,11,1.09391667,43.26134408,0.44264614
WZL_2014,31,0,2024-06-16T12:17:50.040Z,english_26.wav,0,1,867,25,4,chinese,m,0,0,-47.00443728,0.76495966
WZL_2014,31,0,2024-06-16T12:17:50.040Z,english_26.wav,0,1,867,25,4,chinese,m,1,0.1,-34.82629788,0.39579578
WZL_2014,31,0,2024-06-16T12:17:50.040Z,english_26.wav,0,1,867,25,4,chinese,m,2,0.2,24.7004615,0.94110956
WZL_2014,31,0,2024-06-16T12:17:50.040Z,english_26.wav,0,1,867,25,4,chinese,m,3,0.3,58.84625328,1.03122295
WZL_2014,31,0,2024-06-16T12:17:50.040Z,english_26.wav,0,1,867,25,4,chinese,m,4,0.4,35.91387632,0.44153341
WZL_2014,31,0,2024-06-16T12:17:50.040Z,english_26.wav,0,1,867,25,4,chinese,m,5,0.5,-49.42977929,0.19802805
WZL_2014,31,0,2024-06-16T12:17:50.040Z,english_26.wav,0,1,867,25,4,chinese,m,6,0.6,63.62799551,0.5127439
WZL_2014,31,0,2024-06-16T12:17:50.040Z,english_26.wav,0,1,867,25,4,chinese,m,7,0.7,-20.10119494,1.41060294
WZL_2014,31,0,2024-06-16T12:17:50.040Z,english_26.wav,0,1,867,25,4,chinese,m,8,0.8,-32.9417882,0.36769689
WZL_2014,31,0,2024-06-16T12:17:50.040Z,english_26.wav,0,1,867,25,4,chinese,m,9,0.9,-76.94114545,0.44844399
WZL_2014,31,0,2024-06-16T12:17:50.040Z,english_26.wav,0,1,867,25,4,chinese,m,10,1,55.52160425,0.43574826
WZL_2014,31,0,2024-06-16T12:17:50.040Z,english_26.wav,0,1,867,25,4,chinese,m,11,1.09391667,-26.0703889,0.40615906
WZL_2014,32,0,2024-06-16T12:17:50.040Z,english_173.wav,0,1,349,25,4,chinese,m,0,0,34.32682043,0.82312646
WZL_2014,32,0,2024-06-16T12:17:50.040Z,english_173.wav,0,1,349,25,4,chinese,m,1,0.1,-35.22347769,0.84965345
WZL_2014,32,0,2024-06-16T12:17:50.040Z,english_173.wav,0,1,349,25,4,chinese,m,2,0.2,15.69043139,0.84607348
WZL_2014,32,0,2024-06-16T12:17:50.040Z,english_173.wav,0,1,349,25,4,chinese,m,3,0.3,-71.83777825,0.55995079
WZL_2014,32,0,2024-06-16T12:17:50.040Z,english_173.wav,0,1,349,25,4,chinese,m,4,0.4,-96.81426106,0.51635348
WZL_2014,32,0,2024-06-16T12:17:50.040Z,english_173.wav,0,1,349,25,4,chinese,m,5,0.5,-51.15803827,1.6072313
WZL_2014,32,0,2024-06-16T12:17:50.040Z,english_173.wav,0,1,349,25,4,chinese,m,6,0.6,-12.70248505,1.25349503
WZL_2014,32,0,2024-06-16T12:17:50.040Z,english_173.wav,0,1,349,25,4,chinese,m,7,0.7,-30.75730157,1.4731344
WZL_2014,32,0,2024-06-16T12:17:50.040Z,english_173.wav,0,1,349,25,4,chinese,m,8,0.8,-5.0022938,0.28621328
WZL_2014,32,0,2024-06-16T12:17:50.040Z,english_173.wav,0,1,349,25,4,chinese,m,9,0.9,41.07030003,0.95942448
WZL_2014,32,0,2024-06-16T12:17:50.040Z,english_173.wav,0,1,349,25,4,chinese,m,10,1,-5.319412,0.2847469
WZL_2014,32,0,2024-06-16T12:17:50.040Z,english_173.wav,0,1,349,25,4,chinese,m,11,1.09391667,43.01251996,0.4938404
WZL_2014,33,0,2024-06-16T12:17:50.040Z,english_689.wav,0,1,745,25,4,chinese,m,0,0,83.12133252,1.04214093
WZL_2014,33,0,2024-06-16T12:17:50.040Z,english_689.wav,0,1,745,25,4,chinese,m,1,0.1,-80.97372196,0.40468985
WZL_2014,33,0,2024-06-16T12:17:50.040Z,english_689.wav,0,1,745,25,4,chinese,m,2,0.2,-28.26528551,1.50877389
WZL_2014,33,0,2024-06-16T12:17:50.040Z,english_689.wav,0,1,745,25,4,chinese,m,3,0.3,42.6688421,1.67206734
WZL_2014,33,0,2024-06-16T12:17:50.040Z,english_689.wav,0,1,745,25,4,chinese,m,4,0.4,6.31951717,1.24892229
WZL_2014,33,0,2024-06-16T12:17:50.040Z,english_689.wav,0,1,745,25,4,chinese,m,5,0.5,65.13167849,0.38767445
WZL_2014,33,0,2024-06-16T12:17:50.040Z,english_689.wav,0,1,745,25,4,chinese,m,6,0.6,-21.58547915,1.45702475
WZL_2014,33,0,2024-06-16T12:17:50.040Z,english_689.wav,0,1,745,25,4,chinese,m,7,0.7,-38.42350837,0.16690889
WZL_2014,33,0,2024-06-16T12:17:50.040Z,english_689.wav,0,1,745,25,4,chinese,m,8,0.8,72.27336224,1.13554192
WZL_2014,33,0,2024-06-16T12:17:50.040Z,english_689.wav,0,1,745,25,4,chinese,m,9,0.9,-22.08116071,0.21927817
WZL_2014,33,0,2024-06-16T12:17:50.040Z,english_689.wav,0,1,745,25,4,chinese,m,10,1,-2.34337227,0.41094591
WZL_2014,33,0,2024-06-16T12:17:50.040Z,english_689.wav,0,1,745,25,4,chinese,m,11,1.09391667,32.05995553,0.34398042
WZL_2014,34,0,2024-06-16T12:17:50.040Z,english_226.wav,0,1,426,25,4,chinese,m,0,0,98.43255035,0.1861089
WZL_2014,34,0,2024-06-16T12:17:50.040Z,english_226.wav,0,1,426,25,4,chinese,m,1,0.1,23.16871923,1.79682409
WZL_2014,34,0,2024-06-16T12:17:50.040Z,english_226.wav,0,1,426,25,4,chinese,m,2,0.2,-3.17590314,0.62264246
WZL_2014,34,0,2024-06-16T12:17:50.040Z,english_226.wav,0,1,426,25,4,chinese,m,3,0.3,99.80077362,0.77697044
WZL_2014,34,0,2024-06-16T12:17:50.040Z,english_226.wav,0,1,426,25,4,chinese,m,4,0.4,-24.84472991,0.40647993
WZL_2014,34,0,2024-06-16T12:17:50.040Z,english_226.wav,0,1,426,25,4,chinese,m,5,0.5,-71.24957961,0.2976559
WZL_2014,34,0,2024-06-16T12:17:50.040Z,english_226.wav,0,1,426,25,4,chinese,m,6,0.6,65.30269432,1.34176321
WZL_2014,34,0,2024-06-16T12:17:50.040Z,english_226.wav,0,1,426,25,4,chinese,m,7,0.7,72.52720516,1.5087957
WZL_2014,34,0,2024-06-16T12:17:50.040Z,english_226.wav,0,1,426,25,4,chinese,m,8,0.8,-90.19894531,1.69033096
WZL_2014,34,0,2024-06-16T12:17:50.040Z,english_226.wav,0,1,426,25,4,chinese,m,9,0.9,11.74226894,0.35382167
WZL_2014,34,0,2024-06-16T12:17:50.040Z,english_226.wav,0,1,426,25,4,chinese,m,10,1,-32.60755552,1.3177586
WZL_2014,34,0,2024-06-16T12:17:50.040Z,english_226.wav,0,1,426,25,4,chinese,m,11,1.09391667,10.41380533,0.38575288
WZL_2014,35,0,2024-06-16T12:17:50.040Z,english_142.wav,0,1,115,25,4,chinese,m,0,0,31.11671536,1.24679721
WZL_2014,35,0,2024-06-16T12:17:50.040Z,english_142.wav,0,1,115,25,4,chinese,m,1,0.1,14.00827892,0.65366655
WZL_2014,35,0,2024-06-16T12:17:50.040Z,english_142.wav,0,1,115,25,4,chinese,m,2,0.2,90.23748413,1.20113331
WZL_2014,35,0,2024-06-16T12:17:50.040Z,english_142.wav,0,1,115,25,4,chinese,m,3,0.3,82.30944071,1.60444487
WZL_2014,35,0,2024-06-16T12:17:50.040Z,english_142.wav,0,1,115,25,4,chinese,m,4,0.4,-1.47145923,1.29279254
WZL_2014,35,0,2024-06-16T12:17:50.040Z,english_142.wav,0,1,115,25,4,chinese,m,5,0.5,55.17460753,0.91831488
WZL_2014,35,0,2024-06-16T12:17:50.040Z,english_142.wav,0,1,115,25,4,chinese,m,6,0.6,26.61999518,0.78219664
WZL_2014,35,0,2024-06-16T12:17:50.040Z,english_142.wav,0,1,115,25,4,chinese,m,7,0.7,-9.70687044,0.08870339
WZL_2014,35,0,2024-06-16T12:17:50.040Z,english_142.wav,0,1,115,25,4,chinese,m,8,0.8,45.29559585,1.29591766
WZL_2014,35,0,2024-06-16T12:17:50.040Z,english_142.wav,0,1,115,25,4,chinese,m,9,0.9,-14.38709872,0.90292953
WZL_2014,35,0,2024-06-16T12:17:50.040Z,english_142.wav,0,1,115,25,4,chinese,m,10,1,-22.51804374,0.84738987
WZL_2014,35,0,2024-06-16T12:17:50.040Z,english_142.wav,0,1,115,25,4,chinese,m,11,1.09391667,56.35505814,0.22793797
WZL_2014,36,0,2024-06-16T12:17:50.040Z,english_121.wav,0,1,1278,25,4,chinese,m,0,0,-45.47404613,1.1666534
WZL_2014,36,0,2024-06-16T12:17:50.040Z,english_121.wav,0,1,1278,25,4,chinese,m,1,0.1,-36.49769978,1.03435239
WZL_2014,36,0,2024-06-16T12:17:50.040Z,english_121.wav,0,1,1278,25,4,chinese,m,2,0.2,-66.69646717,1.07224248
WZL_2014,36,0,2024-06-16T12:17:50.040Z,english_121.wav,0,1,1278,25,4,chinese,m,3,0.3,56.76733216,1.62337858
WZL_2014,36,0,2024-06-16T12:17:50.040Z,english_121.wav,0,1,1278,25,4,chinese,m,4,0.4,-69.2204817,1.13623118
WZL_2014,36,0,2024-06-16T12:17:50.040Z,english_121.wav,0,1,1278,25,4,chinese,m,5,0.5,67.71926704,0.1634934
WZL_2014,36,0,2024-06-16T12:17:50.040Z,english_121.wav,0,1,1278,25,4,chinese,m,6,0.6,-20.18031628,1.38272259
WZL_2014,36,0,2024-06-16T12:17:50.040Z,english_121.wav,0,1,1278,25,4,chinese,m,7,0.7,-46.80295657,1.3454344
WZL_2014,36,0,2024-06-16T12:17:50.040Z,english_121.wav,0,1,1278,25,4,chinese,m,8,0.8,-30.65691434,1.73628045
WZL_2014,36,0,2024-06-16T12:17:50.040Z,english_121.wav,0,1,1278,25,4,chinese,m,9,0.9,-30.96173959,0.71303122
WZL_2014,36,0,2024-06-16T12:17:50.040Z,english_121.wav,0,1,1278,25,4,chinese,m,10,1,69.71514833,1.56011323
WZL_2014,36,0,2024-06-16T12:17:50.040Z,english_121.wav,0,1,1278,25,4,chinese,m,11,1.09391667,14.56946925,0.62204911
WZL_2014,37,0,2024-06-16T12:17:50.040Z,english_796.wav,0,1,417,25,4,chinese,m,0,0,23.83274793,0.06036971
WZL_2014,37,0,2024-06-16T12:17:50.040Z,english_796.wav,0,1,417,25,4,chinese,m,1,0.1,58.93639275,1.88058462
WZL_2014,37,0,2024-06-16T12:17:50.040Z,english_796.wav,0,1,417,25,4,chinese,m,2,0.2,38.21414004,0.18227098
WZL_2014,37,0,2024-06-16T12:17:50.040Z,english_796.wav,0,1,417,25,4,chinese,m,3,0.3,28.9924604,1.37773272
WZL_2014,37,0,2024-06-16T12:17:50.040Z,english_796.wav,0,1,417,25,4,chinese,m,4,0.4,-7.06068982,1.64549947
WZL_2014,37,0,2024-06-16T12:17:50.040Z,english_796.wav,0,1,417,25,4,chinese,m,5,0.5,-87.6291124,1.67194705
WZL_2014,37,0,2024-06-16T12:17:50.040Z,english_796.wav,0,1,417,25,4,chinese,m,6,0.6,-19.55999428,0.64689213
WZL_2014,37,0,2024-06-16T12:17:50.040Z,english_796.wav,0,1,417,25,4,chinese,m,7,0.7,12.86748648,1.59726084
WZL_2014,37,0,2024-06-16T12:17:50.040Z,english_796.wav,0,1,417,25,4,chinese,m,8,0.8,60.66600698,0.96069219
WZL_2014,37,0,2024-06-16T12:17:50.040Z,english_796.wav,0,1,417,25,4,chinese,m,9,0.9,63.14579763,1.00931817
WZL_2014,37,0,2024-06-16T12:17:50.040Z,english_796.wav,0,1,417,25,4,chinese,m,10,1,38.43403738,1.05195825
WZL_2014,37,0,2024-06-16T12:17:50.040Z,english_796.wav,0,1,417,25,4,chinese,m,11,1.09391667,-11.41285249,1.96327853
WZL_2014,38,0,2024-06-16T12:17:50.040Z,english_241.wav,0,1,538,25,4,chinese,m,0,0,-97.22432216,1.35478851
WZL_2014,38,0,2024-06-16T12:17:50.040Z,english_241.wav,0,1,538,25,4,chinese,m,1,0.1,-28.14905208,0.42795765
WZL_2014,38,0,2024-06-16T12:17:50.040Z,english_241.wav,0,1,538,25,4,chinese,m,2,0.2,47.39910383,0.77593108
WZL_2014,38,0,2024-06-16T12:17:50.040Z,english_241.wav,0,1,538,25,4,chinese,m,3,0.3,62.74698337,1.52084491
WZL_2014,38,0,2024-06-16T12:17:50.040Z,english_241.wav,0,1,538,25,4,chinese,m,4,0.4,42.69629452,1.0423858
WZL_2014,38,0,2024-06-16T12:17:50.040Z,english_241.wav,0,1,538,25,4,chinese,m,5,0.5,-28.86057988,0.26192027
WZL_2014,38,0,2024-06-16T12:17:50.040Z,english_241.wav,0,1,538,25,4,chinese,m,6,0.6,47.37469517,1.65360196
WZL_2014,38,0,2024-06-16T12:17:50.040Z,english_241.wav,0,1,538,25,4,chinese,m,7,0.7,19.60148675,1.3989631
WZL_2014,38,0,2024-06-16T12:17:50.040Z,english_241.wav,0,1,538,25,4,chinese,m,8,0.8,25.28127543,0.94780347
WZL_2014,38,0,2024-06-16T12:17:50.040Z,english_241.wav,0,1,538,25,4,chinese,m,9,0.9,-90.65530928,1.1797356
WZL_2014,38,0,2024-06-16T12:17:50.040Z,english_241.wav,0,1,538,25,4,chinese,m,10,1,58.14244463,1.19530939
WZL_2014,38,0,2024-06-16T12:17:50.040Z,english_241.wav,0,1,538,25,4,chinese,m,11,1.09391667,33.70088271,0.5415955
WZL_2014,39,0,2024-06-16T12:17:50.040Z,english_450.wav,0,1,258,25,4,chinese,m,0,0,-40.47622517,1.62313454
WZL_2014,39,0,2024-06-16T12:17:50.040Z,english_450.wav,0,1,258,25,4,chinese,m,1,0.1,32.74162238,1.28157799
WZL_2014,39,0,2024-06-16T12:17:50.040Z,english_450.wav,0,1,258,25,4,chinese,m,2,0.2,-31.99785117,0.17374894
WZL_2014,39,0,2024-06-16T12:17:50.040Z,english_450.wav,0,1,258,25,4,chinese,m,3,0.3,26.01051774,1.33840529
WZL_2014,39,0,2024-06-16T12:17:50.040Z,english_450.wav,0,1,258,25,4,chinese,m,4,0.4,80.55211369,1.99443486
WZL_2014,39,0,2024-06-16T12:17:50.040Z,english_450.wav,0,1,258,25,4,chinese,m,5,0.5,18.01549087,1.3531925
WZL_2014,39,0,2024-06-16T12:17:50.040Z,english_450.wav,0,1,258,25,4,chinese,m,6,0.6,52.7809862,1.87514045
WZL_2014,39,0,2024-06-16T12:17:50.040Z,english_450.wav,0,1,258,25,4,chinese,m,7,0.7,49.03700675,0.88384361
WZL_2014,39,0,2024-06-16T12:17:50.040Z,english_450.wav,0,1,258,25,4,chinese,m,8,0.8,-27.91135425,1.18722403
WZL_2014,39,0,2024-06-16T12:17:50.040Z,english_450.wav,0,1,258,25,4,chinese,m,9,0.9,36.58986798,1.83701617
WZL_2014,39,0,2024-06-16T12:17:50.040Z,english_450.wav,0,1,258,25,4,chinese,m,10,1,-73.7373691,1.36559917
WZL_2014,39,0,2024-06-16T12:17:50.040Z,english_450.wav,0,1,258,25,4,chinese,m,11,1.09391667,98.91564747,0.09127158
WZL_2014,40,0,2024-06-16T12:17:50.040Z,english_706.wav,0,1,372,25,4,chinese,m,0,0,-18.59828841,1.29674848
WZL_2014,40,0,2024-06-16T12:17:50.040Z,english_706.wav,0,1,372,25,4,chinese,m,1,0.1,17.62467533,1.04037111
WZL_2014,40,0,2024-06-16T12:17:50.040Z,english_706.wav,0,1,372,25,4,chinese,m,2,0.2,-32.04245358,0.06692701
WZL_2014,40,0,2024-06-16T12:17:50.040Z,english_706.wav,0,1,372,25,4,chinese,m,3,0.3,-59.68997275,0.01228106
WZL_2014,40,0,2024-06-16T12:17:50.040Z,english_706.wav,0,1,372,25,4,chinese,m,4,0.4,-88.86740026,1.17857321
WZL_2014,40,0,2024-06-16T12:17:50.040Z,english_706.wav,0,1,372,25,4,chinese,m,5,0.5,20.33601639,0.64258097
WZL_2014,40,0,2024-06-16T12:17:50.040Z,english_706.wav,0,1,372,25,4,chinese,m,6,0.6,88.8364898,0.45138919
WZL_2014,40,0,2024-06-16T12:17:50.040Z,english_706.wav,0,1,372,25,4,chinese,m,7,0.7,-63.14338412,0.65752297
WZL_2014,40,0,2024-06-16T12:17:50.040Z,english_706.wav,0,1,372,25,4,chinese,m,8,0.8,-30.16182588,0.08455698
WZL_2014,40,0,2024-06-16T12:17:50.040Z,english_706.wav,0,1,372,25,4,chinese,m,9,0.9,58.36718538,1.13304912
WZL_2014,40,0,2024-06-16T12:17:50.040Z,english_706.wav,0,1,372,25,4,chinese,m,10,1,-51.79248442,1.89686489
WZL_2014,40,0,2024-06-16T12:17:50.040Z,english_706.wav,0,1,372,25,4,chinese,m,11,1.09391667,-57.45505408,1.14298605
WZL_2014,41,0,2024-06-16T12:17:50.040Z,english_583.wav,0,1,223,25,4,chinese,m,0,0,-89.46926799,1.93205848
WZL_2014,41,0,2024-06-16T12:17:50.040Z,english_583.wav,0,1,223,25,4,chinese,m,1,0.1,-21.95760647,0.52539253
WZL_2014,41,0,2024-06-16T12:17:50.040Z,english_583.wav,0,1,223,25,4,chinese,m,2,0.2,51.54638902,0.25359823
WZL_2014,41,0,2024-06-16T12:17:50.040Z,english_583.wav,0,1,223,25,4,chinese,m,3,0.3,-19.59460838,0.46642282
WZL_2014,41,0,2024-06-16T12:17:50.040Z,english_583.wav,0,1,223,25,4,chinese,m,4,0.4,-80.65157181,0.25879931
WZL_2014,41,0,2024-06-16T12:17:50.040Z,english_583.wav,0,1,223,25,4,chinese,m,5,0.5,13.46564549,0.54774352
WZL_2014,41,0,2024-06-16T12:17:50.040Z,english_583.wav,0,1,223,25,4,chinese,m,6,0.6,-1.99224774,1.89783447
WZL_2014,41,0,2024-06-16T12:17:50.040Z,english_583.wav,0,1,223,25,4,chinese,m,7,0.7,96.26030273,0.46572744
WZL_2014,41,0,2024-06-16T12:17:50.040Z,english_583.wav,0,1,223,25,4,chinese,m,8,0.8,-75.70856073,0.69184565
WZL_2014,41,0,2024-06-16T12:17:50.040Z,english_583.wav,0,1,223,25,4,chinese,m,9,0.9,40.78035579,1.20488206
WZL_2014,41,0,2024-06-16T12:17:50.040Z,english_583.wav,0,1,223,25,4,chinese,m,10,1,3.65984432,1.22997803
WZL_2014,41,0,2024-06-16T12:17:50.040Z,english_583.wav,0,1,223,25,4,chinese,m,11,1.09391667,-26.98513255,1.99403249
WZL_2014,42,0,2024-06-16T12:17:50.040Z,english_18.wav,0,1,399,25,4,chinese,m,0,0,-34.26622777,1.34360385
WZL_2014,42,0,2024-06-16T12:17:50.040Z,english_18.wav,0,1,399,25,4,chinese,m,1,0.1,-75.64955683,1.57489552
WZL_2014,42,0,2024-06-16T12:17:50.040Z,english_18.wav,0,1,399,25,4,chinese,m,2,0.2,-27.92679038,0.39363555
WZL_2014,42,0,2024-06-16T12:17:50.040Z,english_18.wav,0,1,399,25,4,chinese,m,3,0.3,-19.62027656,0.89611778
WZL_2014,42,0,2024-06-16T12:17:50.040Z,english_18.wav,0,1,399,25,4,chinese,m,4,0.4,-20.32459895,1.50747647
WZL_2014,42,0,2024-06-16T12:17:50.040Z,english_18.wav,0,1,399,25,4,chinese,m,5,0.5,0.79905947,0.43558214
WZL_2014,42,0,2024-06-16T12:17:50.040Z,english_18.wav,0,1,399,25,4,chinese,m,6,0.6,8.10958223,1.91834816
WZL_2014,42,0,2024-06-16T12:17:50.040Z,english_18.wav,0,1,399,25,4,chinese,m,7,0.7,-12.88361986,0.90012517
WZL_2014,42,0,2024-06-16T12:17:50.040Z,english_18.wav,0,1,399,25,4,chinese,m,8,0.8,74.6796053,0.69419363
WZL_2014,42,0,2024-06-16T12:17:50.040Z,english_18.wav,0,1,399,25,4,chinese,m,9,0.9,13.61359807,0.27849068
WZL_2014,42,0,2024-06-16T12:17:50.040Z,english_18.wav,0,1,399,25,4,chinese,m,10,1,-21.69070415,0.10490824
WZL_2014,42,0,2024-06-16T12:17:50.040Z,english_18.wav,0,1,399,25,4,chinese,m,11,1.09391667,-57.34652915,1.33460981
WZL_2014,43,0,2024-06-16T12:17:50.040Z,english_245.wav,0,1,255,25,4,chinese,m,0,0,-3.94489453,1.87262136
WZL_2014,43,0,2024-06-16T12:17:50.040Z,english_245.wav,0,1,255,25,4,chinese,m,1,0.1,93.78845114,1.5911659
WZL_2014,43,0,2024-06-16T12:17:50.040Z,english_245.wav,0,1,255,25,4,chinese,m,2,0.2,-15.4175353,0.77224849
WZL_2014,43,0,2024-06-16T12:17:50.040Z,english_245.wav,0,1,255,25,4,chinese,m,3,0.3,69.96206512,1.66276975
WZL_2014,43,0,2024-06-16T12:17:50.040Z,english_245.wav,0,1,255,25,4,chinese,m,4,0.4,-2.81275051,0.59757366
WZL_2014,43,0,2024-06-16T12:17:50.040Z,english_245.wav,0,1,255,25,4,chinese,m,5,0.5,-99.06344561,1.2271396
WZL_2014,43,0,2024-06-16T12:17:50.040Z,english_245.wav,0,1,255,25,4,chinese,m,6,0.6,93.3644365,0.27105927
WZL_2014,43,0,2024-06-16T12:17:50.040Z,english_245.wav,0,1,255,25,4,chinese,m,7,0.7,38.15823311,1.13207073
WZL_2014,43,0,2024-06-16T12:17:50.040Z,english_245.wav,0,1,255,25,4,chinese,m,8,0.8,51.44383365,0.42497597
WZL_2014,43,0,2024-06-16T12:17:50.040Z,english_245.wav,0,1,255,25,4,chinese,m,9,0.9,19.95795113,0.54403667
WZL_2014,43,0,2024-06-16T12:17:50.040Z,english_245.wav,0,1,255,25,4,chinese,m,10,1,-68.88770698,0.3131135
WZL_2014,43,0,2024-06-16T12:17:50.040Z,english_245.wav,0,1,255,25,4,chinese,m,11,1.09391667,99.45926262,1.0229568
WZL_2014,44,0,2024-06-16T12:17:50.040Z,english_595.wav,0,1,105,25,4,chinese,m,0,0,22.66066479,1.33322286
WZL_2014,44,0,2024-06-16T12:17:50.040Z,english_595.wav,0,1,105,25,4,chinese,m,1,0.1,84.39995443,0.79225642
WZL_2014,44,0,2024-06-16T12:17:50.040Z,english_595.wav,0,1,105,25,4,chinese,m,2,0.2,19.72307996,0.78213906
WZL_2014,44,0,2024-06-16T12:17:50.040Z,english_595.wav,0,1,105,25,4,chinese,m,3,0.3,-75.24605749,0.04755157
WZL_2014,44,0,2024-06-16T12:17:50.040Z,english_595.wav,0,1,105,25,4,chinese,m,4,0.4,-67.45783177,1.8774159
WZL_2014,44,0,2024-06-16T12:17:50.040Z,english_595.wav,0,1,105,25,4,chinese,m,5,0.5,-37.47794161,0.68932381
WZL_2014,44,0,2024-06-16T12:17:50.040Z,english_595.wav,0,1,105,25,4,chinese,m,6,0.6,11.08818928,1.24235148
WZL_2014,44,0,2024-06-16T12:17:50.040Z,english_595.wav,0,1,105,25,4,chinese,m,7,0.7,46.85817265,1.6524831
WZL_2014,44,0,2024-06-16T12:17:50.040Z,english_595.wav,0,1,105,25,4,chinese,m,8,0.8,-2.92238114,0.95449466
WZL_2014,44,0,2024-06-16T12:17:50.040Z,english_595.wav,0,1,105,25,4,chinese,m,9,0.9,58.48560552,1.23515898
WZL_2014,44,0,2024-06-16T12:17:50.040Z,english_595.wav,0,1,105,25,4,chinese,m,10,1,-52.60786122,1.92684196
WZL_2014,44,0,2024-06-16T12:17:50.040Z,english_595.wav,0,1,105,25,4,chinese,m,11,1.09391667,16.6492661,0.85611045
WZL_2014,45,0,2024-06-16T12:17:50.040Z,english_518.wav,0,1,155,25,4,chinese,m,0,0,22.01202895,1.18568215
WZL_2014,45,0,2024-06-16T12:17:50.040Z,english_518.wav,0,1,155,25,4,chinese,m,1,0.1,84.85911905,1.27730104
WZL_2014,45,0,2024-06-16T12:17:50.040Z,english_518.wav,0,1,155,25,4,chinese,m,2,0.2,6.76803646,1.88343212
WZL_2014,45,0,2024-06-16T12:17:50.040Z,english_518.wav,0,1,155,25,4,chinese,m,3,0.3,-12.31334731,1.70516568
WZL_2014,45,0,2024-06-16T12:17:50.040Z,english_518.wav,0,1,155,25,4,chinese,m,4,0.4,-5.3812793,1.21188584
WZL_2014,45,0,2024-06-16T12:17:50.040Z,english_518.wav,0,1,155,25,4,chinese,m,5,0.5,-39.12372131,1.55365309
WZL_2014,45,0,2024-06-16T12:17:50.040Z,english_518.wav,0,1,155,25,4,chinese,m,6,0.6,-19.59187687,1.67380265
WZL_2014,45,0,2024-06-16T12:17:50.040Z,english_518.wav,0,1,155,25,4,chinese,m,7,0.7,30.09174406,1.67954719
WZL_2014,45,0,2024-06-16T12:17:50.040Z,english_518.wav,0,1,155,25,4,chinese,m,8,0.8,12.21299005,1.45293932
WZL_2014,45,0,2024-06-16T12:17:50.040Z,english_518.wav,0,1,155,25,4,chinese,m,9,0.9,-30.98849923,1.42118442
WZL_2014,45,0,2024-06-16T12:17:50.040Z,english_518.wav,0,1,155,25,4,chinese,m,10,1,-66.88783357,1.84946345
WZL_2014,45,0,2024-06-16T12:17:50.040Z,english_518.wav,0,1,155,25,4,chinese,m,11,1.09391667,-47.66173225,1.44146986
WZL_2014,46,0,2024-06-16T12:17:50.040Z,english_650.wav,0,1,5018,25,4,chinese,m,0,0,84.72208984,1.44671944
WZL_2014,46,0,2024-06-16T12:17:50.040Z,english_650.wav,0,1,5018,25,4,chinese,m,1,0.1,-25.46570276,0.96213955
WZL_2014,46,0,2024-06-16T12:17:50.040Z,english_650.wav,0,1,5018,25,4,chinese,m,2,0.2,-14.49877792,0.60880641
WZL_2014,46,0,2024-06-16T12:17:50.040Z,english_650.wav,0,1,5018,25,4,chinese,m,3,0.3,92.39693734,0.82954369
WZL_2014,46,0,2024-06-16T12:17:50.040Z,english_650.wav,0,1,5018,25,4,chinese,m,4,0.4,-32.47071196,0.31003161
WZL_2014,46,0,2024-06-16T12:17:50.040Z,english_650.wav,0,1,5018,25,4,chinese,m,5,0.5,57.90191837,1.04774221
WZL_2014,46,0,2024-06-16T12:17:50.040Z,english_650.wav,0,1,5018,25,4,chinese,m,6,0.6,-80.89557153,1.35433017
WZL_2014,46,0,2024-06-16T12:17:50.040Z,english_650.wav,0,1,5018,25,4,chinese,m,7,0.7,-42.41945014,0.91007785
WZL_2014,46,0,2024-06-16T12:17:50.040Z,english_650.wav,0,1,5018,25,4,chinese,m,8,0.8,-93.95714217,1.66906144
WZL_2014,46,0,2024-06-16T12:17:50.040Z,english_650.wav,0,1,5018,25,4,chinese,m,9,0.9,72.90615392,0.82431
WZL_2014,46,0,2024-06-16T12:17:50.040Z,english_650.wav,0,1,5018,25,4,chinese,m,10,1,69.05005157,0.70002504
WZL_2014,46,0,2024-06-16T12:17:50.040Z,english_650.wav,0,1,5018,25,4,chinese,m,11,1.09391667,82.64627583,0.57122533
WZL_2014,47,0,2024-06-16T12:17:50.040Z,english_817.wav,0,1,176,25,4,chinese,m,0,0,39.93653704,0.59804512
WZL_2014,47,0,2024-06-16T12:17:50.040Z,english_817.wav,0,1,176,25,4,chinese,m,1,0.1,-44.37889142,1.22051814
WZL_2014,47,0,2024-06-16T12:17:50.040Z,english_817.wav,0,1,176,25,4,chinese,m,2,0.2,-71.95009912,1.02272202
WZL_2014,47,0,2024-06-16T12:17:50.040Z,english_817.wav,0,1,176,25,4,chinese,m,3,0.3,0.10723305,0.82768739
WZL_2014,47,0,2024-06-16T12:17:50.040Z,english_817.wav,0,1,176,25,4,chinese,m,4,0.4,32.85070006,0.75023907
WZL_2014,47,0,2024-06-16T12:17:50.040Z,english_817.wav,0,1,176,25,4,chinese,m,5,0.5,84.39314217,1.45571946
WZL_2014,47,0,2024-06-16T12:17:50.040Z,english_817.wav,0,1,176,25,4,chinese,m,6,0.6,-27.64718927,1.19333558
WZL_2014,47,0,2024-06-16T12:17:50.040Z,english_817.wav,0,1,176,25,4,chinese,m,7,0.7,-96.89614882,0.88124366
WZL_2014,47,0,2024-06-16T12:17:50.040Z,english_817.wav,0,1,176,25,4,chinese,m,8,0.8,78.14592137,1.40555944
WZL_2014,47,0,2024-06-16T12:17:50.040Z,english_817.wav,0,1,176,25,4,chinese,m,9,0.9,-23.71803159,0.40947716
WZL_2014,47,0,2024-06-16T12:17:50.040Z,english_817.wav,0,1,176,25,4,chinese,m,10,1,-89.09326047,0.89036455
WZL_2014,47,0,2024-06-16T12:17:50.040Z,english_817.wav,0,1,176,25,4,chinese,m,11,1.09391667,-7.75099391,1.8115698
WZL_2014,48,0,2024-06-16T12:17:50.040Z,english_268.wav,0,1,5331,25,4,chinese,m,0,0,-10.36348141,0.34238631
WZL_2014,48,0,2024-06-16T12:17:50.040Z,english_268.wav,0,1,5331,25,4,chinese,m,1,0.1,83.25825445,0.93968033
WZL_2014,48,0,2024-06-16T12:17:50.040Z,english_268.wav,0,1,5331,25,4,chinese,m,2,0.2,90.11608715,0.03117119
WZL_2014,48,0,2024-06-16T12:17:50.040Z,english_268.wav,0,1,5331,25,4,chinese,m,3,0.3,32.1996215,0.99400779
WZL_2014,48,0,2024-06-16T12:17:50.040Z,english_268.wav,0,1,5331,25,4,chinese,m,4,0.4,8.976783,0.56090086
WZL_2014,48,0,2024-06-16T12:17:50.040Z,english_268.wav,0,1,5331,25,4,chinese,m,5,0.5,-6.95203106,0.18644764
WZL_2014,48,0,2024-06-16T12:17:50.040Z,english_268.wav,0,1,5331,25,4,chinese,m,6,0.6,67.82169398,1.05098713
WZL_2014,48,0,2024-06-16T12:17:50.040Z,english_268.wav,0,1,5331,25,4,chinese,m,7,0.7,50.85858074,0.33151379
WZL_2014,48,0,2024-06-16T12:17:50.040Z,english_268.wav,0,1,5331,25,4,chinese,m,8,0.8,11.07143565,0.1498151
WZL_2014,48,0,2024-06-16T12:17:50.040Z,english_268.wav,0,1,5331,25,4,chinese,m,9,0.9,40.44499652,0.7130759
WZL_2014,48,0,2024-06-16T12:17:50.040Z,english_268.wav,0,1,5331,25,4,chinese,m,10,1,87.615801,0.85732073
WZL_2014,48,0,2024-06-16T12:17:50.040Z,english_268.wav,0,1,5331,25,4,chinese,m,11,1.09391667,-54.91088926,1.8995277
WZL_2014,49,0,2024-06-16T12:17:50.040Z,english_446.wav,0,1,1427,25,4,chinese,m,0,0,-71.72833513,0.37077237
WZL_2014,49,0,2024-06-16T12:17:50.040Z,english_446.wav,0,1,1427,25,4,chinese,m,1,0.1,-14.74031919,0.56990881
WZL_2014,49,0,2024-06-16T12:17:50.040Z,english_446.wav,0,1,1427,25,4,chinese,m,2,0.2,-21.83541147,1.59729725
WZL_2014,49,0,2024-06-16T12:17:50.040Z,english_446.wav,0,1,1427,25,4,chinese,m,3,0.3,-67.51881517,1.97035771
WZL_2014,49,0,2024-06-16T12:17:50.040Z,english_446.wav,0,1,1427,25,4,chinese,m,4,0.4,-91.38875442,0.52850963
WZL_2014,49,0,2024-06-16T12:17:50.040Z,english_446.wav,0,1,1427,25,4,chinese,m,5,0.5,6.74447183,1.74112616
WZL_2014,49,0,2024-06-16T12:17:50.040Z,english_446.wav,0,1,1427,25,4,chinese,m,6,0.6,26.61618155,0.02543003
WZL_2014,49,0,2024-06-16T12:17:50.040Z,english_446.wav,0,1,1427,25,4,chinese,m,7,0.7,72.29706337,0.19739553
WZL_2014,49,0,2024-06-16T12:17:50.040Z,english_446.wav,0,1,1427,25,4,chinese,m,8,0.8,58.26898218,0.10712319
WZL_2014,49,0,2024-06-16T12:17:50.040Z,english_446.wav,0,1,1427,25,4,chinese,m,9,0.9,30.44634512,0.63352141
WZL_2014,49,0,2024-06-16T12:17:50.040Z,english_446.wav,0,1,1427,25,4,chinese,m,10,1,-17.84842899,1.44239476
WZL_2014,49,0,2024-06-16T12:17:50.040Z,english_446.wav,0,1,1427,25,4,chinese,m,11,1.09391667,-24.00080187,0.76601062
WZL_2014,50,1,2024-06-16T12:17:50.040Z,english_215.wav,0,1,124,25,4,chinese,m,0,0,-99.5332925,0.28465119
WZL_2014,50,1,2024-06-16T12:17:50.040Z,english_215.wav,0,1,124,25,4,chinese,m,1,0.1,1.45242975,1.8088146
WZL_2014,50,1,2024-06-16T12:17:50.040Z,english_215.wav,0,1,124,25,4,chinese,m,2,0.2,-64.33425221,1.50664885
WZL_2014,50,1,2024-06-16T12:17:50.040Z,english_215.wav,0,1,124,25,4,chinese,m,3,0.3,94.32501829,1.24738647
WZL_2014,50,1,2024-06-16T12:17:50.040Z,english_215.wav,0,1,124,25,4,chinese,m,4,0.4,-24.96285319,1.99674836
WZL_2014,50,1,2024-06-16T12:17:50.040Z,english_215.wav,0,1,124,25,4,chinese,m,5,0.5,24.44115024,1.0963611
WZL_2014,50,1,2024-06-16T12:17:50.040Z,english_215.wav,0,1,124,25,4,chinese,m,6,0.6,88.75353775,1.91027181
WZL_2014,50,1,2024-06-16T12:17:50.040Z,english_215.wav,0,1,124,25,4,chinese,m,7,0.7,84.15272448,1.87676127
WZL_2014,50,1,2024-06-16T12:17:50.040Z,english_215.wav,0,1,124,25,4,chinese,m,8,0.8,64.6545326,1.65561874
WZL_2014,50,1,2024-06-16T12:17:50.040Z,english_215.wav,0,1,124,25,4,chinese,m,9,0.9,-74.06978327,1.63896442
WZL_2014,50,1,2024-06-16T12:17:50.040Z,english_215.wav,0,1,124,25,4,chinese,m,10,1,-77.05086555,0.85126523
WZL_2014,50,1,2024-06-16T12:17:50.040Z,english_215.wav,0,1,124,25,4,chinese,m,11,1.09391667,82.12012488,1.4630733
WZL_2014,51,1,2024-06-16T12:17:50.040Z,english_487.wav,0,1,183,25,4,chinese,m,0,0,83.9506825,1.20569128
WZL_2014,51,1,2024-06-16T12:17:50.040Z,english_487.wav,0,1,183,25,4,chinese,m,1,0.1,-73.0195282,0.75422979
WZL_2014,51,1,2024-06-16T12:17:50.040Z,english_487.wav,0,1,183,25,4,chinese,m,2,0.2,98.61971221,0.70340278
WZL_2014,51,1,2024-06-16T12:17:50.040Z,english_487.wav,0,1,183,25,4,chinese,m,3,0.3,66.30731889,1.25861502
WZL_2014,51,1,2024-06-16T12:17:50.040Z,english_487.wav,0,1,183,25,4,chinese,m,4,0.4,22.93795287,1.76994668
WZL_2014,51,1,2024-06-16T12:17:50.040Z,english_487.wav,0,1,183,25,4,chinese,m,5,0.5,-81.70494499,1.09959608
WZL_2014,51,1,2024-06-16T12:17:50.040Z,english_487.wav,0,1,183,25,4,chinese,m,6,0.6,-70.3149209,1.93360086
WZL_2014,51,1,2024-06-16T12:17:50.040Z,english_487.wav,0,1,183,25,4,chinese,m,7,0.7,-54.70127166,0.32077076
WZL_2014,51,1,2024-06-16T12:17:50.040Z,english_487.wav,0,1,183,25,4,chinese,m,8,0.8,-60.23299302,0.62494976
WZL_2014,51,1,2024-06-16T12:17:50.040Z,english_487.wav,0,1,183,25,4,chinese,m,9,0.9,90.25511794,1.062642
WZL_2014,51,1,2024-06-16T12:17:50.040Z,english_487.wav,0,1,183,25,4,chinese,m,10,1,63.36569824,1.45529395
WZL_2014,51,1,2024-06-16T12:17:50.040Z,english_487.wav,0,1,183,25,4,chinese,m,11,1.09391667,47.37946456,1.97435305
WZL_2014,52,1,2024-06-16T12:17:50.040Z,english_14.wav,0,1,197,25,4,chinese,m,0,0,-5.69961552,1.552338
WZL_2014,52,1,2024-06-16T12:17:50.040Z,english_14.wav,0,1,197,25,4,chinese,m,1,0.1,-17.69328861,0.71654176
WZL_2014,52,1,2024-06-16T12:17:50.040Z,english_14.wav,0,1,197,25,4,chinese,m,2,0.2,-45.6905252,1.07785173
WZL_2014,52,1,2024-06-16T12:17:50.040Z,english_14.wav,0,1,197,25,4,chinese,m,3,0.3,-40.89378138,1.31161341
WZL_2014,52,1,2024-06-16T12:17:50.040Z,english_14.wav,0,1,197,25,4,chinese,m,4,0.4,-36.19831956,0.28947894
WZL_2014,52,1,2024-06-16T12:17:50.040Z,english_14.wav,0,1,197,25,4,chinese,m,5,0.5,13.76556606,0.6738955
WZL_2014,52,1,2024-06-16T12:17:50.040Z,english_14.wav,0,1,197,25,4,chinese,m,6,0.6,51.91139139,1.18134596
WZL_2014,52,1,2024-06-16T12:17:50.040Z,english_14.wav,0,1,197,25,4,chinese,m,7,0.7,22.36023261,0.36193456
WZL_2014,52,1,2024-06-16T12:17:50.040Z,english_14.wav,0,1,197,25,4,chinese,m,8,0.8,-6.30606285,1.01055915
WZL_2014,52,1,2024-06-16T12:17:50.040Z,english_14.wav,0,1,197,25,4,chinese,m,9,0.9,44.07295662,1.51598154
WZL_2014,52,1,2024-06-16T12:17:50.040Z,english_14.wav,0,1,197,25,4,chinese,m,10,1,49.08865221,1.55420583
WZL_2014,52,1,2024-06-16T12:17:50.040Z,english_14.wav,0,1,197,25,4,chinese,m,11,1.09391667,-15.23758706,0.88497418
WZL_2014,53,1,2024-06-16T12:17:50.040Z,english_715.wav,0,1,243,25,4,chinese,m,0,0,78.22774345,0.75991229
WZL_2014,53,1,2024-06-16T12:17:50.040Z,english_715.wav,0,1,243,25,4,chinese,m,1,0.1,-96.8523275,0.99773413
WZL_2014,53,1,2024-06-16T12:17:50.040Z,english_715.wav,0,1,243,25,4,chinese,m,2,0.2,-34.50555451,0.56874377
WZL_2014,53,1,2024-06-16T12:17:50.040Z,english_715.wav,0,1,243,25,4,chinese,m,3,0.3,-68.33010748,0.94740887
WZL_2014,53,1,2024-06-16T12:17:50.040Z,english_715.wav,0,1,243,25,4,chinese,m,4,0.4,1.3176975,0.15689837
WZL_2014,53,1,2024-06-16T12:17:50.040Z,english_715.wav,0,1,243,25,4,chinese,m,5,0.5,-22.85405384,0.63882757
WZL_2014,53,1,2024-06-16T12:17:50.040Z,english_715.wav,0,1,243,25,4,chinese,m,6,0.6,31.97819163,1.98432361
WZL_2014,53,1,2024-06-16T12:17:50.040Z,english_715.wav,0,1,243,25,4,chinese,m,7,0.7,-68.8879522,1.01055426
WZL_2014,53,1,2024-06-16T12:17:50.040Z,english_715.wav,0,1,243,25,4,chinese,m,8,0.8,-81.63258435,1.54899678
WZL_2014,53,1,2024-06-16T12:17:50.040Z,english_715.wav,0,1,243,25,4,chinese,m,9,0.9,27.36842189,1.56798589
WZL_2014,53,1,2024-06-16T12:17:50.040Z,english_715.wav,0,1,243,25,4,chinese,m,10,1,-14.86787672,0.94191973
WZL_2014,53,1,2024-06-16T12:17:50.040Z,english_715.wav,0,1,243,25,4,chinese,m,11,1.09391667,-20.30845266,1.60145533
WZL_2014,54,1,2024-06-16T12:17:50.040Z,english_566.wav,0,1,427,25,4,chinese,m,0,0,-62.56630806,1.86832625
WZL_2014,54,1,2024-06-16T12:17:50.040Z,english_566.wav,0,1,427,25,4,chinese,m,1,0.1,-47.88948562,0.16089863
WZL_2014,54,1,2024-06-16T12:17:50.040Z,english_566.wav,0,1,427,25,4,chinese,m,2,0.2,32.64151801,0.0444821
WZL_2014,54,1,2024-06-16T12:17:50.040Z,english_566.wav,0,1,427,25,4,chinese,m,3,0.3,-32.06511913,1.57257602
WZL_2014,54,1,2024-06-16T12:17:50.040Z,english_566.wav,0,1,427,25,4,chinese,m,4,0.4,93.60270043,1.42885531
WZL_2014,54,1,2024-06-16T12:17:50.040Z,english_566.wav,0,1,427,25,4,chinese,m,5,0.5,26.08771786,1.38538324
WZL_2014,54,1,2024-06-16T12:17:50.040Z,english_566.wav,0,1,427,25,4,chinese,m,6,0.6,-3.7007295,1.01058653
WZL_2014,54,1,2024-06-16T12:17:50.040Z,english_566.wav,0,1,427,25,4,chinese,m,7,0.7,58.86956752,0.52217054
WZL_2014,54,1,2024-06-16T12:17:50.040Z,english_566.wav,0,1,427,25,4,chinese,m,8,0.8,-75.73304048,1.32659726
WZL_2014,54,1,2024-06-16T12:17:50.040Z,english_566.wav,0,1,427,25,4,chinese,m,9,0.9,-35.43253665,0.88864926
WZL_2014,54,1,2024-06-16T12:17:50.040Z,english_566.wav,0,1,427,25,4,chinese,m,10,1,-21.03744822,1.19784945
WZL_2014,54,1,2024-06-16T12:17:50.040Z,english_566.wav,0,1,427,25,4,chinese,m,11,1.09391667,-19.58423429,0.92748285
WZL_2014,55,1,2024-06-16T12:17:50.040Z,english_110.wav,0,1,710,25,4,chinese,m,0,0,45.88171242,1.49952965
WZL_2014,55,1,2024-06-16T12:17:50.040Z,english_110.wav,0,1,710,25,4,chinese,m,1,0.1,19.65275358,1.27857126
WZL_2014,55,1,2024-06-16T12:17:50.040Z,english_110.wav,0,1,710,25,4,chinese,m,2,0.2,-52.5669285,1.16755208
WZL_2014,55,1,2024-06-16T12:17:50.040Z,english_110.wav,0,1,710,25,4,chinese,m,3,0.3,50.69142125,1.53878992
WZL_2014,55,1,2024-06-16T12:17:50.040Z,english_110.wav,0,1,710,25,4,chinese,m,4,0.4,62.87836258,1.32526566
WZL_2014,55,1,2024-06-16T12:17:50.040Z,english_110.wav,0,1,710,25,4,chinese,m,5,0.5,39.63979386,1.5325195
WZL_2014,55,1,2024-06-16T12:17:50.040Z,english_110.wav,0,1,710,25,4,chinese,m,6,0.6,-26.37670891,0.18426731
WZL_2014,55,1,2024-06-16T12:17:50.040Z,english_110.wav,0,1,710,25,4,chinese,m,7,0.7,-93.2202358,1.63742876
WZL_2014,55,1,2024-06-16T12:17:50.040Z,english_110.wav,0,1,710,25,4,chinese,m,8,0.8,-56.06410486,1.91360144
WZL_2014,55,1,2024-06-16T12:17:50.040Z,english_110.wav,0,1,710,25,4,chinese,m,9,0.9,-55.01568925,1.5607569
WZL_2014,55,1,2024-06-16T12:17:50.040Z,english_110.wav,0,1,710,25,4,chinese,m,10,1,78.10124913,0.22178097
WZL_2014,55,1,2024-06-16T12:17:50.040Z,english_110.wav,0,1,710,25,4,chinese,m,11,1.09391667,16.50451183,0.02570083
WZL_2014,56,1,2024-06-16T12:17:50.040Z,english_348.wav,0,1,455,25,4,chinese,m,0,0,49.10415519,0.2034627
WZL_2014,56,1,2024-06-16T12:17:50.040Z,english_348.wav,0,1,455,25,4,chinese,m,1,0.1,-48.79965422,1.25044247
WZL_2014,56,1,2024-06-16T12:17:50.040Z,english_348.wav,0,1,455,25,4,chinese,m,2,0.2,53.20165278,0.74094366
WZL_2014,56,1,2024-06-16T12:17:50.040Z,english_348.wav,0,1,455,25,4,chinese,m,3,0.3,57.36742524,0.00954132
WZL_2014,56,1,2024-06-16T12:17:50.040Z,english_348.wav,0,1,455,25,4,chinese,m,4,0.4,94.02129802,1.6517129
WZL_2014,56,1,2024-06-16T12:17:50.040Z,english_348.wav,0,1,455,25,4,chinese,m,5,0.5,75.45128831,0.80661731
WZL_2014,56,1,2024-06-16T12:17:50.040Z,english_348.wav,0,1,455,25,4,chinese,m,6,0.6,28.29323428,1.01146739
WZL_2014,56,1,2024-06-16T12:17:50.040Z,english_348.wav,0,1,455,25,4,chinese,m,7,0.7,-56.033964,0.68924025
WZL_2014,56,1,2024-06-16T12:17:50.040Z,english_348.wav,0,1,455,25,4,chinese,m,8,0.8,-29.54315548,1.21892084
WZL_2014,56,1,2024-06-16T12:17:50.040Z,english_348.wav,0,1,455,25,4,chinese,m,9,0.9,76.45106471,0.39109075
WZL_2014,56,1,2024-06-16T12:17:50.040Z,english_348.wav,0,1,455,25,4,chinese,m,10,1,-33.55717755,0.51319042
WZL_2014,56,1,2024-06-16T12:17:50.040Z,english_348.wav,0,1,455,25,4,chinese,m,11,1.09391667,-82.96462131,0.0502457
WZL_2014,57,1,2024-06-16T12:17:50.040Z,english_130.wav,0,1,357,25,4,chinese,m,0,0,63.22786083,1.15410046
WZL_2014,57,1,2024-06-16T12:17:50.040Z,english_130.wav,0,1,357,25,4,chinese,m,1,0.1,87.85722404,0.37024368
WZL_2014,57,1,2024-06-16T12:17:50.040Z,english_130.wav,0,1,357,25,4,chinese,m,2,0.2,-11.67996756,1.81334
WZL_2014,57,1,2024-06-16T12:17:50.040Z,english_130.wav,0,1,357,25,4,chinese,m,3,0.3,-61.23287213,1.04249546
WZL_2014,57,1,2024-06-16T12:17:50.040Z,english_130.wav,0,1,357,25,4,chinese,m,4,0.4,31.74111168,0.8243923
WZL_2014,57,1,2024-06-16T12:17:50.040Z,english_130.wav,0,1,357,25,4,chinese,m,5,0.5,33.84141617,1.89113742
WZL_2014,57,1,2024-06-16T12:17:50.040Z,english_130.wav,0,1,357,25,4,chinese,m,6,0.6,19.96692936,0.69337223
WZL_2014,57,1,2024-06-16T12:17:50.040Z,english_130.wav,0,1,357,25,4,chinese,m,7,0.7,-37.06015238,1.01307283
WZL_2014,57,1,2024-06-16T12:17:50.040Z,english_130.wav,0,1,357,25,4,chinese,m,8,0.8,53.30817693,0.67908163
WZL_2014,57,1,2024-06-16T12:17:50.040Z,english_130.wav,0,1,357,25,4,chinese,m,9,0.9,56.319569,0.07541053
WZL_2014,57,1,2024-06-16T12:17:50.040Z,english_130.wav,0,1,357,25,4,chinese,m,10,1,38.79278484,1.95325555
WZL_2014,57,1,2024-06-16T12:17:50.040Z,english_130.wav,0,1,357,25,4,chinese,m,11,1.09391667,-4.91911249,0.98387982
WZL_2014,58,1,2024-06-16T12:17:50.040Z,english_124.wav,0,1,284,25,4,chinese,m,0,0,5.35510852,0.99413203
WZL_2014,58,1,2024-06-16T12:17:50.040Z,english_124.wav,0,1,284,25,4,chinese,m,1,0.1,82.22763866,0.35886786
WZL_2014,58,1,2024-06-16T12:17:50.040Z,english_124.wav,0,1,284,25,4,chinese,m,2,0.2,78.44526729,0.68901736
WZL_2014,58,1,2024-06-16T12:17:50.040Z,english_124.wav,0,1,284,25,4,chinese,m,3,0.3,-3.07690156,1.32582542
WZL_2014,58,1,2024-06-16T12:17:50.040Z,english_124.wav,0,1,284,25,4,chinese,m,4,0.4,-26.87127611,1.93650033
WZL_2014,58,1,2024-06-16T12:17:50.040Z,english_124.wav,0,1,284,25,4,chinese,m,5,0.5,-1.1256219,1.64621245
WZL_2014,58,1,2024-06-16T12:17:50.040Z,english_124.wav,0,1,284,25,4,chinese,m,6,0.6,-86.86575837,1.68793936
WZL_2014,58,1,2024-06-16T12:17:50.040Z,english_124.wav,0,1,284,25,4,chinese,m,7,0.7,73.06997556,1.14468764
WZL_2014,58,1,2024-06-16T12:17:50.040Z,english_124.wav,0,1,284,25,4,chinese,m,8,0.8,48.90999268,1.13594555
WZL_2014,58,1,2024-06-16T12:17:50.040Z,english_124.wav,0,1,284,25,4,chinese,m,9,0.9,52.65203742,0.473778
WZL_2014,58,1,2024-06-16T12:17:50.040Z,english_124.wav,0,1,284,25,4,chinese,m,10,1,-49.74668146,1.84215607
WZL_2014,58,1,2024-06-16T12:17:50.040Z,english_124.wav,0,1,284,25,4,chinese,m,11,1.09391667,-71.87075445,0.96391319
WZL_2014,59,1,2024-06-16T12:17:50.040Z,english_199.wav,0,1,357,25,4,chinese,m,0,0,11.88199512,1.7718025
WZL_2014,59,1,2024-06-16T12:17:50.040Z,english_199.wav,0,1,357,25,4,chinese,m,1,0.1,-46.96504702,0.76735149
WZL_2014,59,1,2024-06-16T12:17:50.040Z,english_199.wav,0,1,357,25,4,chinese,m,2,0.2,91.54002169,1.87614546
WZL_2014,59,1,2024-06-16T12:17:50.040Z,english_199.wav,0,1,357,25,4,chinese,m,3,0.3,99.89394598,1.34343154
WZL_2014,59,1,2024-06-16T12:17:50.040Z,english_199.wav,0,1,357,25,4,chinese,m,4,0.4,-50.70673656,1.06602126
WZL_2014,59,1,2024-06-16T12:17:50.040Z,english_199.wav,0,1,357,25,4,chinese,m,5,0.5,3.76891672,0.62776747
WZL_2014,59,1,2024-06-16T12:17:50.040Z,english_199.wav,0,1,357,25,4,chinese,m,6,0.6,96.91424304,1.16622983
WZL_2014,59,1,2024-06-16T12:17:50.040Z,english_199.wav,0,1,357,25,4,chinese,m,7,0.7,-8.03082423,0.99062008
WZL_2014,59,1,2024-06-16T12:17:50.040Z,english_199.wav,0,1,357,25,4,chinese,m,8,0.8,10.21194857,0.73939337
WZL_2014,59,1,2024-06-16T12:17:50.040Z,english_199.wav,0,1,357,25,4,chinese,m,9,0.9,73.92851664,0.60539997
WZL_2014,59,1,2024-06-16T12:17:50.040Z,english_199.wav,0,1,357,25,4,chinese,m,10,1,29.02383929,1.28070052
WZL_2014,59,1,2024-06-16T12:17:50.040Z,english_199.wav,0,1,357,25,4,chinese,m,11,1.09391667,-91.13840346,0.2785568
WZL_2014,60,1,2024-06-16T12:17:50.040Z,english_513.wav,0,1,330,25,4,chinese,m,0,0,69.69423026,1.14751405
WZL_2014,60,1,2024-06-16T12:17:50.040Z,english_513.wav,0,1,330,25,4,chinese,m,1,0.1,-61.65221054,0.70036193
WZL_2014,60,1,2024-06-16T12:17:50.040Z,english_513.wav,0,1,330,25,4,chinese,m,2,0.2,12.06620713,1.7124885
WZL_2014,60,1,2024-06-16T12:17:50.040Z,english_513.wav,0,1,330,25,4,chinese,m,3,0.3,68.31024972,0.98016869
WZL_2014,60,1,2024-06-16T12:17:50.040Z,english_513.wav,0,1,330,25,4,chinese,m,4,0.4,74.12641094,0.11366006
WZL_2014,60,1,2024-06-16T12:17:50.040Z,english_513.wav,0,1,330,25,4,chinese,m,5,0.5,6.77833978,0.43979592
WZL_2014,60,1,2024-06-16T12:17:50.040Z,english_513.wav,0,1,330,25,4,chinese,m,6,0.6,-4.07072349,1.91776754
WZL_2014,60,1,2024-06-16T12:17:50.040Z,english_513.wav,0,1,330,25,4,chinese,m,7,0.7,-75.18978196,0.49107068
WZL_2014,60,1,2024-06-16T12:17:50.040Z,english_513.wav,0,1,330,25,4,chinese,m,8,0.8,-25.44315508,0.92055325
WZL_2014,60,1,2024-06-16T12:17:50.040Z,english_513.wav,0,1,330,25,4,chinese,m,9,0.9,1.64473536,0.8410121
WZL_2014,60,1,2024-06-16T12:17:50.040Z,english_513.wav,0,1,330,25,4,chinese,m,10,1,-82.34234751,0.34671239
WZL_2014,60,1,2024-06-16T12:17:50.040Z,english_513.wav,0,1,330,25,4,chinese,m,11,1.09391667,-17.87879592,1.52659427
WZL_2014,61,1,2024-06-16T12:17:50.040Z,english_112.wav,0,1,186,25,4,chinese,m,0,0,49.45259009,1.41914206
WZL_2014,61,1,2024-06-16T12:17:50.040Z,english_112.wav,0,1,186,25,4,chinese,m,1,0.1,26.00670844,1.08420532
WZL_2014,61,1,2024-06-16T12:17:50.040Z,english_112.wav,0,1,186,25,4,chinese,m,2,0.2,-62.78053013,1.90864959
WZL_2014,61,1,2024-06-16T12:17:50.040Z,english_112.wav,0,1,186,25,4,chinese,m,3,0.3,13.64858628,0.00296714
WZL_2014,61,1,2024-06-16T12:17:50.040Z,english_112.wav,0,1,186,25,4,chinese,m,4,0.4,-46.53502922,0.2257171
WZL_2014,61,1,2024-06-16T12:17:50.040Z,english_112.wav,0,1,186,25,4,chinese,m,5,0.5,55.2952107,1.98382605
WZL_2014,61,1,2024-06-16T12:17:50.040Z,english_112.wav,0,1,186,25,4,chinese,m,6,0.6,-37.49134954,0.39764394
WZL_2014,61,1,2024-06-16T12:17:50.040Z,english_112.wav,0,1,186,25,4,chinese,m,7,0.7,9.25181319,1.10443659
WZL_2014,61,1,2024-06-16T12:17:50.040Z,english_112.wav,0,1,186,25,4,chinese,m,8,0.8,52.76907871,0.52917173
WZL_2014,61,1,2024-06-16T12:17:50.040Z,english_112.wav,0,1,186,25,4,chinese,m,9,0.9,40.19984459,0.39475588
WZL_2014,61,1,2024-06-16T12:17:50.040Z,english_112.wav,0,1,186,25,4,chinese,m,10,1,72.4009261,0.72882938
WZL_2014,61,1,2024-06-16T12:17:50.040Z,english_112.wav,0,1,186,25,4,chinese,m,11,1.09391667,-65.62688247,0.87807842
WZL_2014,62,1,2024-06-16T12:17:50.040Z,english_857.wav,0,1,1454,25,4,chinese,m,0,0,-56.93168928,1.92395656
WZL_2014,62,1,2024-06-16T12:17:50.040Z,english_857.wav,0,1,1454,25,4,chinese,m,1,0.1,-40.57515649,1.41156549
WZL_2014,62,1,2024-06-16T12:17:50.040Z,english_857.wav,0,1,1454,25,4,chinese,m,2,0.2,-26.26283105,0.14185194
WZL_2014,62,1,2024-06-16T12:17:50.040Z,english_857.wav,0,1,1454,25,4,chinese,m,3,0.3,-49.62797955,1.1985334
WZL_2014,62,1,2024-06-16T12:17:50.040Z,english_857.wav,0,1,1454,25,4,chinese,m,4,0.4,47.07146778,0.83326814
WZL_2014,62,1,2024-06-16T12:17:50.040Z,english_857.wav,0,1,1454,25,4,chinese,m,5,0.5,-96.41882062,0.71224123
WZL_2014,62,1,2024-06-16T12:17:50.040Z,english_857.wav,0,1,1454,25,4,chinese,m,6,0.6,63.09662026,1.58040322
WZL_2014,62,1,2024-06-16T12:17:50.040Z,english_857.wav,0,1,1454,25,4,chinese,m,7,0.7,98.67053018,1.02327595
WZL_2014,62,1,2024-06-16T12:17:50.040Z,english_857.wav,0,1,1454,25,4,chinese,m,8,0.8,-56.85749065,1.48703987
WZL_2014,62,1,2024-06-16T12:17:50.040Z,english_857.wav,0,1,1454,25,4,chinese,m,9,0.9,-18.03690135,0.70290333
WZL_2014,62,1,2024-06-16T12:17:50.040Z,english_857.wav,0,1,1454,25,4,chinese,m,10,1,52.13097753,0.53460392
WZL_2014,62,1,2024-06-16T12:17:50.040Z,english_857.wav,0,1,1454,25,4,chinese,m,11,1.09391667,52.54650928,1.10851945
WZL_2014,63,1,2024-06-16T12:17:50.040Z,english_366.wav,0,1,4843,25,4,chinese,m,0,0,-51.97670193,0.41387665
WZL_2014,63,1,2024-06-16T12:17:50.040Z,english_366.wav,0,1,4843,25,4,chinese,m,1,0.1,-66.3802986,1.82440093
WZL_2014,63,1,2024-06-16T12:17:50.040Z,english_366.wav,0,1,4843,25,4,chinese,m,2,0.2,-43.44577517,1.51666721
WZL_2014,63,1,2024-06-16T12:17:50.040Z,english_366.wav,0,1,4843,25,4,chinese,m,3,0.3,-27.66745881,0.79221573
WZL_2014,63,1,2024-06-16T12:17:50.040Z,english_366.wav,0,1,4843,25,4,chinese,m,4,0.4,-24.71146446,1.07358208
WZL_2014,63,1,2024-06-16T12:17:50.040Z,english_366.wav,0,1,4843,25,4,chinese,m,5,0.5,7.18823907,0.88629464
WZL_2014,63,1,2024-06-16T12:17:50.040Z,english_366.wav,0,1,4843,25,4,chinese,m,6,0.6,-1.04467208,1.421231
WZL_2014,63,1,2024-06-16T12:17:50.040Z,english_366.wav,0,1,4843,25,4,chinese,m,7,0.7,-90.31563808,0.93675223
WZL_2014,63,1,2024-06-16T12:17:50.040Z,english_366.wav,0,1,4843,25,4,chinese,m,8,0.8,-10.23526275,1.47759882
WZL_2014,63,1,2024-06-16T12:17:50.040Z,english_366.wav,0,1,4843,25,4,chinese,m,9,0.9,47.79218582,1.29623614
WZL_2014,63,1,2024-06-16T12:17:50.040Z,english_366.wav,0,1,4843,25,4,chinese,m,10,1,3.55736556,1.92903866
WZL_2014,63,1,2024-06-16T12:17:50.040Z,english_366.wav,0,1,4843,25,4,chinese,m,11,1.09391667,-83.88061388,1.30968338
WZL_2014,64,1,2024-06-16T12:17:50.040Z,english_818.wav,0,1,76,25,4,chinese,m,0,0,-53.85801374,1.92122954
WZL_2014,64,1,2024-06-16T12:17:50.040Z,english_818.wav,0,1,76,25,4,chinese,m,1,0.1,-93.19772639,0.02572463
WZL_2014,64,1,2024-06-16T12:17:50.040Z,english_818.wav,0,1,76,25,4,chinese,m,2,0.2,36.0949282,1.37895456
WZL_2014,64,1,2024-06-16T12:17:50.040Z,english_818.wav,0,1,76,25,4,chinese,m,3,0.3,-47.55219442,1.64642832
WZL_2014,64,1,2024-06-16T12:17:50.040Z,english_818.wav,0,1,76,25,4,chinese,m,4,0.4,17.01171479,0.12526848
WZL_2014,64,1,2024-06-16T12:17:50.040Z,english_818.wav,0,1,76,25,4,chinese,m,5,0.5,29.09646454,1.76409188
WZL_2014,64,1,2024-06-16T12:17:50.040Z,english_818.wav,0,1,76,25,4,chinese,m,6,0.6,48.56925167,0.03435044
WZL_2014,64,1,2024-06-16T12:17:50.040Z,english_818.wav,0,1,76,25,4,chinese,m,7,0.7,44.28631241,1.81061652
WZL_2014,64,1,2024-06-16T12:17:50.040Z,english_818.wav,0,1,76,25,4,chinese,m,8,0.8,29.63703739,0.88793726
WZL_2014,64,1,2024-06-16T12:17:50.040Z,english_818.wav,0,1,76,25,4,chinese,m,9,0.9,-81.11114494,1.44811096
WZL_2014,64,1,2024-06-16T12:17:50.040Z,english_818.wav,0,1,76,25,4,chinese,m,10,1,36.27214607,1.53494249
WZL_2014,64,1,2024-06-16T12:17:50.040Z,english_818.wav,0,1,76,25,4,chinese,m,11,1.09391667,10.20011282,1.88236128
WZL_2014,65,1,2024-06-16T12:17:50.040Z,english_809.wav,0,1,209,25,4,chinese,m,0,0,-9.12051171,1.24060405
WZL_2014,65,1,2024-06-16T12:17:50.040Z,english_809.wav,0,1,209,25,4,chinese,m,1,0.1,56.83840218,0.92544531
WZL_2014,65,1,2024-06-16T12:17:50.040Z,english_809.wav,0,1,209,25,4,chinese,m,2,0.2,-21.1464042,1.6749497
WZL_2014,65,1,2024-06-16T12:17:50.040Z,english_809.wav,0,1,209,25,4,chinese,m,3,0.3,57.63617788,0.74168877
WZL_2014,65,1,2024-06-16T12:17:50.040Z,english_809.wav,0,1,209,25,4,chinese,m,4,0.4,81.73006696,0.96063823
WZL_2014,65,1,2024-06-16T12:17:50.040Z,english_809.wav,0,1,209,25,4,chinese,m,5,0.5,1.9499243,1.38564295
WZL_2014,65,1,2024-06-16T12:17:50.040Z,english_809.wav,0,1,209,25,4,chinese,m,6,0.6,94.78967393,0.56911063
WZL_2014,65,1,2024-06-16T12:17:50.040Z,english_809.wav,0,1,209,25,4,chinese,m,7,0.7,65.64249462,0.51453492
WZL_2014,65,1,2024-06-16T12:17:50.040Z,english_809.wav,0,1,209,25,4,chinese,m,8,0.8,90.5146219,0.11779349
WZL_2014,65,1,2024-06-16T12:17:50.040Z,english_809.wav,0,1,209,25,4,chinese,m,9,0.9,37.72992996,0.31036913
WZL_2014,65,1,2024-06-16T12:17:50.040Z,english_809.wav,0,1,209,25,4,chinese,m,10,1,-3.08128901,0.78583843
WZL_2014,65,1,2024-06-16T12:17:50.040Z,english_809.wav,0,1,209,25,4,chinese,m,11,1.09391667,81.22811773,1.12131059
WZL_2014,66,1,2024-06-16T12:17:50.040Z,english_258.wav,0,1,270,25,4,chinese,m,0,0,25.58821978,1.29707378
WZL_2014,66,1,2024-06-16T12:17:50.040Z,english_258.wav,0,1,270,25,4,chinese,m,1,0.1,7.03087627,0.49566701
WZL_2014,66,1,2024-06-16T12:17:50.040Z,english_258.wav,0,1,270,25,4,chinese,m,2,0.2,-15.91116386,0.43385518
WZL_2014,66,1,2024-06-16T12:17:50.040Z,english_258.wav,0,1,270,25,4,chinese,m,3,0.3,-10.18288773,0.30166849
WZL_2014,66,1,2024-06-16T12:17:50.040Z,english_258.wav,0,1,270,25,4,chinese,m,4,0.4,-1.03622481,0.40418484
WZL_2014,66,1,2024-06-16T12:17:50.040Z,english_258.wav,0,1,270,25,4,chinese,m,5,0.5,7.08237834,0.97614875
WZL_2014,66,1,2024-06-16T12:17:50.040Z,english_258.wav,0,1,270,25,4,chinese,m,6,0.6,-65.85616389,0.50782257
WZL_2014,66,1,2024-06-16T12:17:50.040Z,english_258.wav,0,1,270,25,4,chinese,m,7,0.7,61.11432003,1.26334363
WZL_2014,66,1,2024-06-16T12:17:50.040Z,english_258.wav,0,1,270,25,4,chinese,m,8,0.8,62.35570806,1.6928405
WZL_2014,66,1,2024-06-16T12:17:50.040Z,english_258.wav,0,1,270,25,4,chinese,m,9,0.9,64.93681849,1.97714506
WZL_2014,66,1,2024-06-16T12:17:50.040Z,english_258.wav,0,1,270,25,4,chinese,m,10,1,-37.74920533,1.10059348
WZL_2014,66,1,2024-06-16T12:17:50.040Z,english_258.wav,0,1,270,25,4,chinese,m,11,1.09391667,-81.90690998,1.23409369
WZL_2014,67,1,2024-06-16T12:17:50.040Z,english_787.wav,0,1,377,25,4,chinese,m,0,0,75.50983857,0.8452738
WZL_2014,67,1,2024-06-16T12:17:50.040Z,english_787.wav,0,1,377,25,4,chinese,m,1,0.1,-1.58249906,0.76339694
WZL_2014,67,1,2024-06-16T12:17:50.040Z,english_787.wav,0,1,377,25,4,chinese,m,2,0.2,3.57353021,0.25803741
WZL_2014,67,1,2024-06-16T12:17:50.040Z,english_787.wav,0,1,377,25,4,chinese,m,3,0.3,-99.77057176,1.65296212
WZL_2014,67,1,2024-06-16T12:17:50.040Z,english_787.wav,0,1,377,25,4,chinese,m,4,0.4,-38.99568239,1.74214563
WZL_2014,67,1,2024-06-16T12:17:50.040Z,english_787.wav,0,1,377,25,4,chinese,m,5,0.5,15.30754913,0.91821048
WZL_2014,67,1,2024-06-16T12:17:50.040Z,english_787.wav,0,1,377,25,4,chinese,m,6,0.6,-97.41525775,1.20673022
WZL_2014,67,1,2024-06-16T12:17:50.040Z,english_787.wav,0,1,377,25,4,chinese,m,7,0.7,39.01293018,1.21324632
WZL_2014,67,1,2024-06-16T12:17:50.040Z,english_787.wav,0,1,377,25,4,chinese,m,8,0.8,42.79848726,1.47465653
WZL_2014,67,1,2024-06-16T12:17:50.040Z,english_787.wav,0,1,377,25,4,chinese,m,9,0.9,9.93276614,0.97625714
WZL_2014,67,1,2024-06-16T12:17:50.040Z,english_787.wav,0,1,377,25,4,chinese,m,10,1,-95.01180619,1.17241626
WZL_2014,67,1,2024-06-16T12:17:50.040Z,english_787.wav,0,1,377,25,4,chinese,m,11,1.09391667,-15.9004552,0.99284929
WZL_2014,68,1,2024-06-16T12:17:50.040Z,english_983.wav,0,1,421,25,4,chinese,m,0,0,-50.22823897,0.88633634
WZL_2014,68,1,2024-06-16T12:17:50.040Z,english_983.wav,0,1,421,25,4,chinese,m,1,0.1,-4.67437073,1.28034271
WZL_2014,68,1,2024-06-16T12:17:50.040Z,english_983.wav,0,1,421,25,4,chinese,m,2,0.2,-31.6094098,0.94172266
WZL_2014,68,1,2024-06-16T12:17:50.040Z,english_983.wav,0,1,421,25,4,chinese,m,3,0.3,25.42275216,0.73344406
WZL_2014,68,1,2024-06-16T12:17:50.040Z,english_983.wav,0,1,421,25,4,chinese,m,4,0.4,79.9624674,1.78223604
WZL_2014,68,1,2024-06-16T12:17:50.040Z,english_983.wav,0,1,421,25,4,chinese,m,5,0.5,11.84827872,1.04715588
WZL_2014,68,1,2024-06-16T12:17:50.040Z,english_983.wav,0,1,421,25,4,chinese,m,6,0.6,-53.41316004,1.93599287
WZL_2014,68,1,2024-06-16T12:17:50.040Z,english_983.wav,0,1,421,25,4,chinese,m,7,0.7,-2.37481813,0.44413806
WZL_2014,68,1,2024-06-16T12:17:50.040Z,english_983.wav,0,1,421,25,4,chinese,m,8,0.8,81.38125647,0.67013669
WZL_2014,68,1,2024-06-16T12:17:50.040Z,english_983.wav,0,1,421,25,4,chinese,m,9,0.9,-62.03068284,1.03528206
WZL_2014,68,1,2024-06-16T12:17:50.040Z,english_983.wav,0,1,421,25,4,chinese,m,10,1,-64.21224493,0.12422577
WZL_2014,68,1,2024-06-16T12:17:50.040Z,english_983.wav,0,1,421,25,4,chinese,m,11,1.09391667,38.19793451,1.50859084
WZL_2014,69,1,2024-06-16T12:17:50.040Z,english_727.wav,0,1,202,25,4,chinese,m,0,0,-18.41371041,1.35764892
WZL_2014,69,1,2024-06-16T12:17:50.040Z,english_727.wav,0,1,202,25,4,chinese,m,1,0.1,-63.10285802,1.30171306
WZL_2014,69,1,2024-06-16T12:17:50.040Z,english_727.wav,0,1,202,25,4,chinese,m,2,0.2,-11.47868373,1.89832966
WZL_2014,69,1,2024-06-16T12:17:50.040Z,english_727.wav,0,1,202,25,4,chinese,m,3,0.3,40.37675275,1.96157356
WZL_2014,69,1,2024-06-16T12:17:50.040Z,english_727.wav,0,1,202,25,4,chinese,m,4,0.4,-77.12859483,0.9069281
WZL_2014,69,1,2024-06-16T12:17:50.040Z,english_727.wav,0,1,202,25,4,chinese,m,5,0.5,92.73705719,1.12095366
WZL_2014,69,1,2024-06-16T12:17:50.040Z,english_727.wav,0,1,202,25,4,chinese,m,6,0.6,-55.99534641,1.00983545
WZL_2014,69,1,2024-06-16T12:17:50.040Z,english_727.wav,0,1,202,25,4,chinese,m,7,0.7,-55.52546335,0.3683737
WZL_2014,69,1,2024-06-16T12:17:50.040Z,english_727.wav,0,1,202,25,4,chinese,m,8,0.8,6.97078157,1.10707799
WZL_2014,69,1,2024-06-16T12:17:50.040Z,english_727.wav,0,1,202,25,4,chinese,m,9,0.9,-23.82740681,1.05563912
WZL_2014,69,1,2024-06-16T12:17:50.040Z,english_727.wav,0,1,202,25,4,chinese,m,10,1,16.85010217,1.15538622
WZL_2014,69,1,2024-06-16T12:17:50.040Z,english_727.wav,0,1,202,25,4,chinese,m,11,1.09391667,12.17774436,0.52815825
WZL_2014,70,1,2024-06-16T12:17:50.040Z,english_471.wav,0,1,391,25,4,chinese,m,0,0,-44.33438949,1.24178701
WZL_2014,70,1,2024-06-16T12:17:50.040Z,english_471.wav,0,1,391,25,4,chinese,m,1,0.1,16.47774329,1.49559335
WZL_2014,70,1,2024-06-16T12:17:50.040Z,english_471.wav,0,1,391,25,4,chinese,m,2,0.2,-22.18014429,1.46207388
WZL_2014,70,1,2024-06-16T12:17:50.040Z,english_471.wav,0,1,391,25,4,chinese,m,3,0.3,96.62980594,0.79768684
WZL_2014,70,1,2024-06-16T12:17:50.040Z,english_471.wav,0,1,391,25,4,chinese,m,4,0.4,0.22905681,0.93952191
WZL_2014,70,1,2024-06-16T12:17:50.040Z,english_471.wav,0,1,391,25,4,chinese,m,5,0.5,25.29876176,1.31580264
WZL_2014,70,1,2024-06-16T12:17:50.040Z,english_471.wav,0,1,391,25,4,chinese,m,6,0.6,-1.90422532,0.66385174
WZL_2014,70,1,2024-06-16T12:17:50.040Z,english_471.wav,0,1,391,25,4,chinese,m,7,0.7,20.77355212,0.36428101
WZL_2014,70,1,2024-06-16T12:17:50.040Z,english_471.wav,0,1,391,25,4,chinese,m,8,0.8,26.61706742,1.49472861
WZL_2014,70,1,2024-06-16T12:17:50.040Z,english_471.wav,0,1,391,25,4,chinese,m,9,0.9,-76.46197336,1.78460372
WZL_2014,70,1,2024-06-16T12:17:50.040Z,english_471.wav,0,1,391,25,4,chinese,m,10,1,74.78681403,1.14119983
WZL_2014,70,1,2024-06-16T12:17:50.040Z,english_471.wav,0,1,391,25,4,chinese,m,11,1.09391667,70.35269737,0.45644683
WZL_2014,71,1,2024-06-16T12:17:50.040Z,english_114.wav,0,1,195,25,4,chinese,m,0,0,-38.33361484,0.25479749
WZL_2014,71,1,2024-06-16T12:17:50.040Z,english_114.wav,0,1,195,25,4,chinese,m,1,0.1,-12.76602364,1.23857364
WZL_2014,71,1,2024-06-16T12:17:50.040Z,english_114.wav,0,1,195,25,4,chinese,m,2,0.2,0.32729235,0.44881648
WZL_2014,71,1,2024-06-16T12:17:50.040Z,english_114.wav,0,1,195,25,4,chinese,m,3,0.3,-29.2958396,1.47628631
WZL_2014,71,1,2024-06-16T12:17:50.040Z,english_114.wav,0,1,195,25,4,chinese,m,4,0.4,-44.05321795,1.29960212
WZL_2014,71,1,2024-06-16T12:17:50.040Z,english_114.wav,0,1,195,25,4,chinese,m,5,0.5,77.26891482,0.86625142
WZL_2014,71,1,2024-06-16T12:17:50.040Z,english_114.wav,0,1,195,25,4,chinese,m,6,0.6,-80.80990528,1.18678323
WZL_2014,71,1,2024-06-16T12:17:50.040Z,english_114.wav,0,1,195,25,4,chinese,m,7,0.7,-78.02585179,0.40341658
WZL_2014,71,1,2024-06-16T12:17:50.040Z,english_114.wav,0,1,195,25,4,chinese,m,8,0.8,14.37560873,0.69236485
WZL_2014,71,1,2024-06-16T12:17:50.040Z,english_114.wav,0,1,195,25,4,chinese,m,9,0.9,-41.68954869,0.99173078
WZL_2014,71,1,2024-06-16T12:17:50.040Z,english_114.wav,0,1,195,25,4,chinese,m,10,1,-51.42719285,0.71091923
WZL_2014,71,1,2024-06-16T12:17:50.040Z,english_114.wav,0,1,195,25,4,chinese,m,11,1.09391667,29.02505558,1.73837671
WZL_2014,72,1,2024-06-16T12:17:50.040Z,english_156.wav,0,1,473,25,4,chinese,m,0,0,67.80241824,1.86846381
WZL_2014,72,1,2024-06-16T12:17:50.040Z,english_156.wav,0,1,473,25,4,chinese,m,1,0.1,29.99846692,0.17784513
WZL_2014,72,1,2024-06-16T12:17:50.040Z,english_156.wav,0,1,473,25,4,chinese,m,2,0.2,-57.62339124,0.792312
WZL_2014,72,1,2024-06-16T12:17:50.040Z,english_156.wav,0,1,473,25,4,chinese,m,3,0.3,87.84697028,1.20922302
WZL_2014,72,1,2024-06-16T12:17:50.040Z,english_156.wav,0,1,473,25,4,chinese,m,4,0.4,85.25466999,1.15380481
WZL_2014,72,1,2024-06-16T12:17:50.040Z,english_156.wav,0,1,473,25,4,chinese,m,5,0.5,21.68559313,1.34214235
WZL_2014,72,1,2024-06-16T12:17:50.040Z,english_156.wav,0,1,473,25,4,chinese,m,6,0.6,25.36322325,0.12119946
WZL_2014,72,1,2024-06-16T12:17:50.040Z,english_156.wav,0,1,473,25,4,chinese,m,7,0.7,-63.0463062,0.90660735
WZL_2014,72,1,2024-06-16T12:17:50.040Z,english_156.wav,0,1,473,25,4,chinese,m,8,0.8,55.51522375,0.02485499
WZL_2014,72,1,2024-06-16T12:17:50.040Z,english_156.wav,0,1,473,25,4,chinese,m,9,0.9,84.28688223,1.43158428
WZL_2014,72,1,2024-06-16T12:17:50.040Z,english_156.wav,0,1,473,25,4,chinese,m,10,1,75.12562412,1.49951226
WZL_2014,72,1,2024-06-16T12:17:50.040Z,english_156.wav,0,1,473,25,4,chinese,m,11,1.09391667,1.86074779,1.07671063
WZL_2014,73,1,2024-06-16T12:17:50.040Z,english_875.wav,0,1,322,25,4,chinese,m,0,0,96.8338791,1.90969426
WZL_2014,73,1,2024-06-16T12:17:50.040Z,english_875.wav,0,1,322,25,4,chinese,m,1,0.1,37.68794022,1.00034929
WZL_2014,73,1,2024-06-16T12:17:50.040Z,english_875.wav,0,1,322,25,4,chinese,m,2,0.2,13.97824571,1.17763903
WZL_2014,73,1,2024-06-16T12:17:50.040Z,english_875.wav,0,1,322,25,4,chinese,m,3,0.3,18.96990702,0.35889427
WZL_2014,73,1,2024-06-16T12:17:50.040Z,english_875.wav,0,1,322,25,4,chinese,m,4,0.4,63.2084655,0.91300026
WZL_2014,73,1,2024-06-16T12:17:50.040Z,english_875.wav,0,1,322,25,4,chinese,m,5,0.5,-98.93629382,1.19226844
WZL_2014,73,1,2024-06-16T12:17:50.040Z,english_875.wav,0,1,322,25,4,chinese,m,6,0.6,81.29612198,1.44163348
WZL_2014,73,1,2024-06-16T12:17:50.040Z,english_875.wav,0,1,322,25,4,chinese,m,7,0.7,50.14728488,1.08588615
WZL_2014,73,1,2024-06-16T12:17:50.040Z,english_875.wav,0,1,322,25,4,chinese,m,8,0.8,13.48666865,1.80200416
WZL_2014,73,1,2024-06-16T12:17:50.040Z,english_875.wav,0,1,322,25,4,chinese,m,9,0.9,9.04770509,0.81736325
WZL_2014,73,1,2024-06-16T12:17:50.040Z,english_875.wav,0,1,322,25,4,chinese,m,10,1,37.35188663,1.15050925
WZL_2014,73,1,2024-06-16T12:17:50.040Z,english_875.wav,0,1,322,25,4,chinese,m,11,1.09391667,68.7171347,1.96049823
WZL_2014,74,1,2024-06-16T12:17:50.040Z,english_756.wav,0,1,292,25,4,chinese,m,0,0,-32.70542045,0.92316539
WZL_2014,74,1,2024-06-16T12:17:50.040Z,english_756.wav,0,1,292,25,4,chinese,m,1,0.1,62.91454888,0.37547917
WZL_2014,74,1,2024-06-16T12:17:50.040Z,english_756.wav,0,1,292,25,4,chinese,m,2,0.2,-9.17678833,1.92598223
WZL_2014,74,1,2024-06-16T12:17:50.040Z,english_756.wav,0,1,292,25,4,chinese,m,3,0.3,16.28624283,0.89010875
WZL_2014,74,1,2024-06-16T12:17:50.040Z,english_756.wav,0,1,292,25,4,chinese,m,4,0.4,-33.51792534,0.38662098
WZL_2014,74,1,2024-06-16T12:17:50.040Z,english_756.wav,0,1,292,25,4,chinese,m,5,0.5,88.01648813,1.17672662
WZL_2014,74,1,2024-06-16T12:17:50.040Z,english_756.wav,0,1,292,25,4,chinese,m,6,0.6,62.37064714,0.21957896
WZL_2014,74,1,2024-06-16T12:17:50.040Z,english_756.wav,0,1,292,25,4,chinese,m,7,0.7,-52.3683359,1.78953747
WZL_2014,74,1,2024-06-16T12:17:50.040Z,english_756.wav,0,1,292,25,4,chinese,m,8,0.8,56.37360277,1.89812903
WZL_2014,74,1,2024-06-16T12:17:50.040Z,english_756.wav,0,1,292,25,4,chinese,m,9,0.9,-54.86484941,1.43873799
WZL_2014,74,1,2024-06-16T12:17:50.040Z,english_756.wav,0,1,292,25,4,chinese,m,10,1,91.23924333,1.51351367
WZL_2014,74,1,2024-06-16T12:17:50.040Z,english_756.wav,0,1,292,25,4,chinese,m,11,1.09391667,-26.61223969,1.73327561
WZL_2014,75,1,2024-06-16T12:17:50.040Z,english_406.wav,0,1,361,25,4,chinese,m,0,0,16.41054839,1.82011871
WZL_2014,75,1,2024-06-16T12:17:50.040Z,english_406.wav,0,1,361,25,4,chinese,m,1,0.1,-23.44264217,1.5788444
WZL_2014,75,1,2024-06-16T12:17:50.040Z,english_406.wav,0,1,361,25,4,chinese,m,2,0.2,67.00437835,0.98241909
WZL_2014,75,1,2024-06-16T12:17:50.040Z,english_406.wav,0,1,361,25,4,chinese,m,3,0.3,32.24147439,1.73565394
WZL_2014,75,1,2024-06-16T12:17:50.040Z,english_406.wav,0,1,361,25,4,chinese,m,4,0.4,-69.94095423,0.23880913
WZL_2014,75,1,2024-06-16T12:17:50.040Z,english_406.wav,0,1,361,25,4,chinese,m,5,0.5,-75.95608649,1.64825439
WZL_2014,75,1,2024-06-16T12:17:50.040Z,english_406.wav,0,1,361,25,4,chinese,m,6,0.6,26.64856795,1.51416343
WZL_2014,75,1,2024-06-16T12:17:50.040Z,english_406.wav,0,1,361,25,4,chinese,m,7,0.7,28.46707033,0.23765412
WZL_2014,75,1,2024-06-16T12:17:50.040Z,english_406.wav,0,1,361,25,4,chinese,m,8,0.8,8.57252797,0.78664096
WZL_2014,75,1,2024-06-16T12:17:50.040Z,english_406.wav,0,1,361,25,4,chinese,m,9,0.9,-43.42045484,1.03412093
WZL_2014,75,1,2024-06-16T12:17:50.040Z,english_406.wav,0,1,361,25,4,chinese,m,10,1,-38.23728815,1.06202892
WZL_2014,75,1,2024-06-16T12:17:50.040Z,english_406.wav,0,1,361,25,4,chinese,m,11,1.09391667,-48.66780803,0.40663901
WZL_2014,76,1,2024-06-16T12:17:50.040Z,english_761.wav,0,1,271,25,4,chinese,m,0,0,-80.97330145,0.75841869
WZL_2014,76,1,2024-06-16T12:17:50.040Z,english_761.wav,0,1,271,25,4,chinese,m,1,0.1,-87.8498671,0.93275546
WZL_2014,76,1,2024-06-16T12:17:50.040Z,english_761.wav,0,1,271,25,4,chinese,m,2,0.2,-46.50669934,1.71329225
WZL_2014,76,1,2024-06-16T12:17:50.040Z,english_761.wav,0,1,271,25,4,chinese,m,3,0.3,59.20965722,1.0347089
WZL_2014,76,1,2024-06-16T12:17:50.040Z,english_761.wav,0,1,271,25,4,chinese,m,4,0.4,-35.71104214,1.01687932
WZL_2014,76,1,2024-06-16T12:17:50.040Z,english_761.wav,0,1,271,25,4,chinese,m,5,0.5,-52.81542402,0.41101951
WZL_2014,76,1,2024-06-16T12:17:50.040Z,english_761.wav,0,1,271,25,4,chinese,m,6,0.6,31.64937697,0.68065775
WZL_2014,76,1,2024-06-16T12:17:50.040Z,english_761.wav,0,1,271,25,4,chinese,m,7,0.7,29.30310565,1.83101612
WZL_2014,76,1,2024-06-16T12:17:50.040Z,english_761.wav,0,1,271,25,4,chinese,m,8,0.8,-83.11546178,0.13402502
WZL_2014,76,1,2024-06-16T12:17:50.040Z,english_761.wav,0,1,271,25,4,chinese,m,9,0.9,4.4057425,1.22130523
WZL_2014,76,1,2024-06-16T12:17:50.040Z,english_761.wav,0,1,271,25,4,chinese,m,10,1,40.14606476,0.44607754
WZL_2014,76,1,2024-06-16T12:17:50.040Z,english_761.wav,0,1,271,25,4,chinese,m,11,1.09391667,-16.15452459,1.73687105
WZL_2014,77,1,2024-06-16T12:17:50.040Z,english_785.wav,0,1,113,25,4,chinese,m,0,0,-73.74150429,1.15978121
WZL_2014,77,1,2024-06-16T12:17:50.040Z,english_785.wav,0,1,113,25,4,chinese,m,1,0.1,-10.25262424,1.76239803
WZL_2014,77,1,2024-06-16T12:17:50.040Z,english_785.wav,0,1,113,25,4,chinese,m,2,0.2,-91.38996228,1.35267709
WZL_2014,77,1,2024-06-16T12:17:50.040Z,english_785.wav,0,1,113,25,4,chinese,m,3,0.3,-58.16150792,0.50742704
