subj,trial,block,date,stim,stim_order,response,rt,age,english,language,sex,param_index,segment,pitch,stretch
LX,0,0,2024-06-14T09:20:11.181Z,english_498.wav,0,0,1399,21,5,Chinese,f,0,0,43.98055184,1.94722798
LX,0,0,2024-06-14T09:20:11.181Z,english_498.wav,0,0,1399,21,5,Chinese,f,1,0.1,91.3545984,1.93048351
LX,0,0,2024-06-14T09:20:11.181Z,english_498.wav,0,0,1399,21,5,Chinese,f,2,0.2,-25.91563113,0.27240706
LX,0,0,2024-06-14T09:20:11.181Z,english_498.wav,0,0,1399,21,5,Chinese,f,3,0.3,-14.96140851,1.06623965
LX,0,0,2024-06-14T09:20:11.181Z,english_498.wav,0,0,1399,21,5,Chinese,f,4,0.4,-8.05824247,1.41558656
LX,0,0,2024-06-14T09:20:11.181Z,english_498.wav,0,0,1399,21,5,Chinese,f,5,0.5,-61.63888891,0.26700347
LX,0,0,2024-06-14T09:20:11.181Z,english_498.wav,0,0,1399,21,5,Chinese,f,6,0.6,37.86658664,0.54434522
LX,0,0,2024-06-14T09:20:11.181Z,english_498.wav,0,0,1399,21,5,Chinese,f,7,0.7,-97.52325855,0.79258737
LX,0,0,2024-06-14T09:20:11.181Z,english_498.wav,0,0,1399,21,5,Chinese,f,8,0.8,-16.03910224,1.13417158
LX,0,0,2024-06-14T09:20:11.181Z,english_498.wav,0,0,1399,21,5,Chinese,f,9,0.9,83.25609208,0.68565339
LX,0,0,2024-06-14T09:20:11.181Z,english_498.wav,0,0,1399,21,5,Chinese,f,10,1,-65.28300381,0.73020294
LX,0,0,2024-06-14T09:20:11.181Z,english_498.wav,0,0,1399,21,5,Chinese,f,11,1.09391667,38.04109912,1.48505369
LX,1,0,2024-06-14T09:20:11.181Z,english_607.wav,0,1,527,21,5,Chinese,f,0,0,0.27599318,1.85195662
LX,1,0,2024-06-14T09:20:11.181Z,english_607.wav,0,1,527,21,5,Chinese,f,1,0.1,61.54655284,0.01211705
LX,1,0,2024-06-14T09:20:11.181Z,english_607.wav,0,1,527,21,5,Chinese,f,2,0.2,-45.68438061,1.01527113
LX,1,0,2024-06-14T09:20:11.181Z,english_607.wav,0,1,527,21,5,Chinese,f,3,0.3,-56.50831868,0.58104245
LX,1,0,2024-06-14T09:20:11.181Z,english_607.wav,0,1,527,21,5,Chinese,f,4,0.4,15.2577286,0.36467608
LX,1,0,2024-06-14T09:20:11.181Z,english_607.wav,0,1,527,21,5,Chinese,f,5,0.5,-52.12017374,0.76758339
LX,1,0,2024-06-14T09:20:11.181Z,english_607.wav,0,1,527,21,5,Chinese,f,6,0.6,97.83272545,1.21313057
LX,1,0,2024-06-14T09:20:11.181Z,english_607.wav,0,1,527,21,5,Chinese,f,7,0.7,7.21834566,1.69539972
LX,1,0,2024-06-14T09:20:11.181Z,english_607.wav,0,1,527,21,5,Chinese,f,8,0.8,8.71902974,0.38171646
LX,1,0,2024-06-14T09:20:11.181Z,english_607.wav,0,1,527,21,5,Chinese,f,9,0.9,84.51998902,1.4848349
LX,1,0,2024-06-14T09:20:11.181Z,english_607.wav,0,1,527,21,5,Chinese,f,10,1,-21.50673836,0.84163241
LX,1,0,2024-06-14T09:20:11.181Z,english_607.wav,0,1,527,21,5,Chinese,f,11,1.09391667,68.90809966,0.34247873
LX,2,0,2024-06-14T09:20:11.181Z,english_419.wav,0,1,253,21,5,Chinese,f,0,0,-43.56677124,1.2135263
LX,2,0,2024-06-14T09:20:11.181Z,english_419.wav,0,1,253,21,5,Chinese,f,1,0.1,-83.21546868,0.41335372
LX,2,0,2024-06-14T09:20:11.181Z,english_419.wav,0,1,253,21,5,Chinese,f,2,0.2,-41.54064667,1.17083651
LX,2,0,2024-06-14T09:20:11.181Z,english_419.wav,0,1,253,21,5,Chinese,f,3,0.3,-35.81330599,0.87264028
LX,2,0,2024-06-14T09:20:11.181Z,english_419.wav,0,1,253,21,5,Chinese,f,4,0.4,-43.55129097,0.34128763
LX,2,0,2024-06-14T09:20:11.181Z,english_419.wav,0,1,253,21,5,Chinese,f,5,0.5,-33.79077662,1.24788402
LX,2,0,2024-06-14T09:20:11.181Z,english_419.wav,0,1,253,21,5,Chinese,f,6,0.6,70.44881048,0.43489623
LX,2,0,2024-06-14T09:20:11.181Z,english_419.wav,0,1,253,21,5,Chinese,f,7,0.7,3.24826562,0.29781148
LX,2,0,2024-06-14T09:20:11.181Z,english_419.wav,0,1,253,21,5,Chinese,f,8,0.8,34.80296655,1.73156921
LX,2,0,2024-06-14T09:20:11.181Z,english_419.wav,0,1,253,21,5,Chinese,f,9,0.9,-7.36062238,1.52997649
LX,2,0,2024-06-14T09:20:11.181Z,english_419.wav,0,1,253,21,5,Chinese,f,10,1,41.00092789,0.32887005
LX,2,0,2024-06-14T09:20:11.181Z,english_419.wav,0,1,253,21,5,Chinese,f,11,1.09391667,-17.62948534,0.83665111
LX,3,0,2024-06-14T09:20:11.181Z,english_357.wav,0,0,199,21,5,Chinese,f,0,0,-87.96365185,1.52852124
LX,3,0,2024-06-14T09:20:11.181Z,english_357.wav,0,0,199,21,5,Chinese,f,1,0.1,-8.5190019,1.93288072
LX,3,0,2024-06-14T09:20:11.181Z,english_357.wav,0,0,199,21,5,Chinese,f,2,0.2,34.94660595,1.80201728
LX,3,0,2024-06-14T09:20:11.181Z,english_357.wav,0,0,199,21,5,Chinese,f,3,0.3,74.01534503,0.94192251
LX,3,0,2024-06-14T09:20:11.181Z,english_357.wav,0,0,199,21,5,Chinese,f,4,0.4,13.59562063,1.02469598
LX,3,0,2024-06-14T09:20:11.181Z,english_357.wav,0,0,199,21,5,Chinese,f,5,0.5,-84.64423503,1.61646509
LX,3,0,2024-06-14T09:20:11.181Z,english_357.wav,0,0,199,21,5,Chinese,f,6,0.6,-29.1291793,0.27950667
LX,3,0,2024-06-14T09:20:11.181Z,english_357.wav,0,0,199,21,5,Chinese,f,7,0.7,-52.42503967,1.30320323
LX,3,0,2024-06-14T09:20:11.181Z,english_357.wav,0,0,199,21,5,Chinese,f,8,0.8,21.24796122,1.07824702
LX,3,0,2024-06-14T09:20:11.181Z,english_357.wav,0,0,199,21,5,Chinese,f,9,0.9,32.72205185,0.68433039
LX,3,0,2024-06-14T09:20:11.181Z,english_357.wav,0,0,199,21,5,Chinese,f,10,1,-96.5222269,1.27621022
LX,3,0,2024-06-14T09:20:11.181Z,english_357.wav,0,0,199,21,5,Chinese,f,11,1.09391667,30.40810686,1.23591368
LX,4,0,2024-06-14T09:20:11.181Z,english_374.wav,0,1,613,21,5,Chinese,f,0,0,54.43926361,0.54407087
LX,4,0,2024-06-14T09:20:11.181Z,english_374.wav,0,1,613,21,5,Chinese,f,1,0.1,5.04553463,1.18746228
LX,4,0,2024-06-14T09:20:11.181Z,english_374.wav,0,1,613,21,5,Chinese,f,2,0.2,-29.92324173,0.24457514
LX,4,0,2024-06-14T09:20:11.181Z,english_374.wav,0,1,613,21,5,Chinese,f,3,0.3,9.31980191,1.5215713
LX,4,0,2024-06-14T09:20:11.181Z,english_374.wav,0,1,613,21,5,Chinese,f,4,0.4,57.19426259,0.23876892
LX,4,0,2024-06-14T09:20:11.181Z,english_374.wav,0,1,613,21,5,Chinese,f,5,0.5,-3.3094666,1.20093953
LX,4,0,2024-06-14T09:20:11.181Z,english_374.wav,0,1,613,21,5,Chinese,f,6,0.6,-34.99988775,0.71152841
LX,4,0,2024-06-14T09:20:11.181Z,english_374.wav,0,1,613,21,5,Chinese,f,7,0.7,-5.52128289,0.54974152
LX,4,0,2024-06-14T09:20:11.181Z,english_374.wav,0,1,613,21,5,Chinese,f,8,0.8,-2.72953426,1.54853357
LX,4,0,2024-06-14T09:20:11.181Z,english_374.wav,0,1,613,21,5,Chinese,f,9,0.9,44.40653175,1.01082543
LX,4,0,2024-06-14T09:20:11.181Z,english_374.wav,0,1,613,21,5,Chinese,f,10,1,-66.39952008,1.62323057
LX,4,0,2024-06-14T09:20:11.181Z,english_374.wav,0,1,613,21,5,Chinese,f,11,1.09391667,-68.48294466,0.91500447
LX,5,0,2024-06-14T09:20:11.181Z,english_468.wav,0,1,1763,21,5,Chinese,f,0,0,19.31976264,0.66158439
LX,5,0,2024-06-14T09:20:11.181Z,english_468.wav,0,1,1763,21,5,Chinese,f,1,0.1,-31.93707888,1.54343798
LX,5,0,2024-06-14T09:20:11.181Z,english_468.wav,0,1,1763,21,5,Chinese,f,2,0.2,87.74953583,1.18268033
LX,5,0,2024-06-14T09:20:11.181Z,english_468.wav,0,1,1763,21,5,Chinese,f,3,0.3,75.542399,0.92842135
LX,5,0,2024-06-14T09:20:11.181Z,english_468.wav,0,1,1763,21,5,Chinese,f,4,0.4,-30.66435396,1.55978724
LX,5,0,2024-06-14T09:20:11.181Z,english_468.wav,0,1,1763,21,5,Chinese,f,5,0.5,27.34391208,1.04364147
LX,5,0,2024-06-14T09:20:11.181Z,english_468.wav,0,1,1763,21,5,Chinese,f,6,0.6,-88.33380447,1.4617077
LX,5,0,2024-06-14T09:20:11.181Z,english_468.wav,0,1,1763,21,5,Chinese,f,7,0.7,22.89610212,1.75173298
LX,5,0,2024-06-14T09:20:11.181Z,english_468.wav,0,1,1763,21,5,Chinese,f,8,0.8,-23.39935551,0.43321648
LX,5,0,2024-06-14T09:20:11.181Z,english_468.wav,0,1,1763,21,5,Chinese,f,9,0.9,4.99226109,0.70184302
LX,5,0,2024-06-14T09:20:11.181Z,english_468.wav,0,1,1763,21,5,Chinese,f,10,1,10.7480571,0.01962582
LX,5,0,2024-06-14T09:20:11.181Z,english_468.wav,0,1,1763,21,5,Chinese,f,11,1.09391667,16.97403313,1.09642758
LX,6,0,2024-06-14T09:20:11.181Z,english_144.wav,0,0,574,21,5,Chinese,f,0,0,31.57285019,1.02092862
LX,6,0,2024-06-14T09:20:11.181Z,english_144.wav,0,0,574,21,5,Chinese,f,1,0.1,-66.82367858,1.21687454
LX,6,0,2024-06-14T09:20:11.181Z,english_144.wav,0,0,574,21,5,Chinese,f,2,0.2,25.9026646,0.83451974
LX,6,0,2024-06-14T09:20:11.181Z,english_144.wav,0,0,574,21,5,Chinese,f,3,0.3,-73.3005143,1.57454957
LX,6,0,2024-06-14T09:20:11.181Z,english_144.wav,0,0,574,21,5,Chinese,f,4,0.4,44.123678,0.07717076
LX,6,0,2024-06-14T09:20:11.181Z,english_144.wav,0,0,574,21,5,Chinese,f,5,0.5,49.27770762,0.27181384
LX,6,0,2024-06-14T09:20:11.181Z,english_144.wav,0,0,574,21,5,Chinese,f,6,0.6,22.38256085,1.7133157
LX,6,0,2024-06-14T09:20:11.181Z,english_144.wav,0,0,574,21,5,Chinese,f,7,0.7,-9.16605426,1.06775729
LX,6,0,2024-06-14T09:20:11.181Z,english_144.wav,0,0,574,21,5,Chinese,f,8,0.8,-36.80428778,1.42091993
LX,6,0,2024-06-14T09:20:11.181Z,english_144.wav,0,0,574,21,5,Chinese,f,9,0.9,-3.57060361,0.01524657
LX,6,0,2024-06-14T09:20:11.181Z,english_144.wav,0,0,574,21,5,Chinese,f,10,1,-56.05458997,0.90246411
LX,6,0,2024-06-14T09:20:11.181Z,english_144.wav,0,0,574,21,5,Chinese,f,11,1.09391667,-88.6470882,1.74083532
LX,7,0,2024-06-14T09:20:11.181Z,english_687.wav,0,0,809,21,5,Chinese,f,0,0,-35.70290508,1.44721002
LX,7,0,2024-06-14T09:20:11.181Z,english_687.wav,0,0,809,21,5,Chinese,f,1,0.1,96.19930643,1.66446564
LX,7,0,2024-06-14T09:20:11.181Z,english_687.wav,0,0,809,21,5,Chinese,f,2,0.2,-16.32623685,0.17388823
LX,7,0,2024-06-14T09:20:11.181Z,english_687.wav,0,0,809,21,5,Chinese,f,3,0.3,69.01262748,0.9756111
LX,7,0,2024-06-14T09:20:11.181Z,english_687.wav,0,0,809,21,5,Chinese,f,4,0.4,-86.96335793,0.75788852
LX,7,0,2024-06-14T09:20:11.181Z,english_687.wav,0,0,809,21,5,Chinese,f,5,0.5,-94.81036094,1.04245625
LX,7,0,2024-06-14T09:20:11.181Z,english_687.wav,0,0,809,21,5,Chinese,f,6,0.6,24.28115893,0.94679533
LX,7,0,2024-06-14T09:20:11.181Z,english_687.wav,0,0,809,21,5,Chinese,f,7,0.7,-73.50271946,1.98988769
LX,7,0,2024-06-14T09:20:11.181Z,english_687.wav,0,0,809,21,5,Chinese,f,8,0.8,-67.86786343,1.9531078
LX,7,0,2024-06-14T09:20:11.181Z,english_687.wav,0,0,809,21,5,Chinese,f,9,0.9,-59.44479717,1.90267124
LX,7,0,2024-06-14T09:20:11.181Z,english_687.wav,0,0,809,21,5,Chinese,f,10,1,0.72231801,1.17236586
LX,7,0,2024-06-14T09:20:11.181Z,english_687.wav,0,0,809,21,5,Chinese,f,11,1.09391667,-0.70049857,1.47850695
LX,8,0,2024-06-14T09:20:11.181Z,english_424.wav,0,0,2296,21,5,Chinese,f,0,0,-17.35907603,1.03823748
LX,8,0,2024-06-14T09:20:11.181Z,english_424.wav,0,0,2296,21,5,Chinese,f,1,0.1,18.81369918,0.96868976
LX,8,0,2024-06-14T09:20:11.181Z,english_424.wav,0,0,2296,21,5,Chinese,f,2,0.2,55.92500366,1.67797376
LX,8,0,2024-06-14T09:20:11.181Z,english_424.wav,0,0,2296,21,5,Chinese,f,3,0.3,45.08785435,1.44469234
LX,8,0,2024-06-14T09:20:11.181Z,english_424.wav,0,0,2296,21,5,Chinese,f,4,0.4,3.17174712,0.62957499
LX,8,0,2024-06-14T09:20:11.181Z,english_424.wav,0,0,2296,21,5,Chinese,f,5,0.5,-30.69278374,1.7765397
LX,8,0,2024-06-14T09:20:11.181Z,english_424.wav,0,0,2296,21,5,Chinese,f,6,0.6,41.43178992,1.27231114
LX,8,0,2024-06-14T09:20:11.181Z,english_424.wav,0,0,2296,21,5,Chinese,f,7,0.7,-46.28602692,0.02713593
LX,8,0,2024-06-14T09:20:11.181Z,english_424.wav,0,0,2296,21,5,Chinese,f,8,0.8,-38.81280045,0.44344556
LX,8,0,2024-06-14T09:20:11.181Z,english_424.wav,0,0,2296,21,5,Chinese,f,9,0.9,-42.19882472,0.86812909
LX,8,0,2024-06-14T09:20:11.181Z,english_424.wav,0,0,2296,21,5,Chinese,f,10,1,-88.98684391,1.07480581
LX,8,0,2024-06-14T09:20:11.181Z,english_424.wav,0,0,2296,21,5,Chinese,f,11,1.09391667,-92.81820885,0.17756303
LX,9,0,2024-06-14T09:20:11.181Z,english_519.wav,0,1,152,21,5,Chinese,f,0,0,-89.70690317,1.70012146
LX,9,0,2024-06-14T09:20:11.181Z,english_519.wav,0,1,152,21,5,Chinese,f,1,0.1,12.73288581,0.30558637
LX,9,0,2024-06-14T09:20:11.181Z,english_519.wav,0,1,152,21,5,Chinese,f,2,0.2,-28.85796661,1.20634899
LX,9,0,2024-06-14T09:20:11.181Z,english_519.wav,0,1,152,21,5,Chinese,f,3,0.3,26.94929279,0.03671801
LX,9,0,2024-06-14T09:20:11.181Z,english_519.wav,0,1,152,21,5,Chinese,f,4,0.4,88.17509723,1.89470366
LX,9,0,2024-06-14T09:20:11.181Z,english_519.wav,0,1,152,21,5,Chinese,f,5,0.5,-36.4551596,1.56676756
LX,9,0,2024-06-14T09:20:11.181Z,english_519.wav,0,1,152,21,5,Chinese,f,6,0.6,24.45140187,0.94993833
LX,9,0,2024-06-14T09:20:11.181Z,english_519.wav,0,1,152,21,5,Chinese,f,7,0.7,7.63765931,1.07658622
LX,9,0,2024-06-14T09:20:11.181Z,english_519.wav,0,1,152,21,5,Chinese,f,8,0.8,1.30228681,1.81741966
LX,9,0,2024-06-14T09:20:11.181Z,english_519.wav,0,1,152,21,5,Chinese,f,9,0.9,72.18985419,0.56710914
LX,9,0,2024-06-14T09:20:11.181Z,english_519.wav,0,1,152,21,5,Chinese,f,10,1,-56.35512761,0.45384515
LX,9,0,2024-06-14T09:20:11.181Z,english_519.wav,0,1,152,21,5,Chinese,f,11,1.09391667,-27.12026306,1.11287687
LX,10,0,2024-06-14T09:20:11.181Z,english_489.wav,0,0,1355,21,5,Chinese,f,0,0,34.87513384,0.04879029
LX,10,0,2024-06-14T09:20:11.181Z,english_489.wav,0,0,1355,21,5,Chinese,f,1,0.1,-56.49709653,0.42206675
LX,10,0,2024-06-14T09:20:11.181Z,english_489.wav,0,0,1355,21,5,Chinese,f,2,0.2,-69.32456338,1.77329015
LX,10,0,2024-06-14T09:20:11.181Z,english_489.wav,0,0,1355,21,5,Chinese,f,3,0.3,53.20706346,0.48934341
LX,10,0,2024-06-14T09:20:11.181Z,english_489.wav,0,0,1355,21,5,Chinese,f,4,0.4,66.8977185,1.53841919
LX,10,0,2024-06-14T09:20:11.181Z,english_489.wav,0,0,1355,21,5,Chinese,f,5,0.5,47.95425842,1.90609151
LX,10,0,2024-06-14T09:20:11.181Z,english_489.wav,0,0,1355,21,5,Chinese,f,6,0.6,18.45634507,1.04648426
LX,10,0,2024-06-14T09:20:11.181Z,english_489.wav,0,0,1355,21,5,Chinese,f,7,0.7,-35.00488862,0.7592551
LX,10,0,2024-06-14T09:20:11.181Z,english_489.wav,0,0,1355,21,5,Chinese,f,8,0.8,41.56892466,1.06956744
LX,10,0,2024-06-14T09:20:11.181Z,english_489.wav,0,0,1355,21,5,Chinese,f,9,0.9,-9.61579481,0.57636466
LX,10,0,2024-06-14T09:20:11.181Z,english_489.wav,0,0,1355,21,5,Chinese,f,10,1,-77.26438838,0.72315176
LX,10,0,2024-06-14T09:20:11.181Z,english_489.wav,0,0,1355,21,5,Chinese,f,11,1.09391667,-34.81016687,0.99781533
LX,11,0,2024-06-14T09:20:11.181Z,english_728.wav,0,0,2993,21,5,Chinese,f,0,0,86.97428458,1.28134459
LX,11,0,2024-06-14T09:20:11.181Z,english_728.wav,0,0,2993,21,5,Chinese,f,1,0.1,68.85214371,0.92040862
LX,11,0,2024-06-14T09:20:11.181Z,english_728.wav,0,0,2993,21,5,Chinese,f,2,0.2,-97.98565906,0.75536346
LX,11,0,2024-06-14T09:20:11.181Z,english_728.wav,0,0,2993,21,5,Chinese,f,3,0.3,35.07930547,1.26670058
LX,11,0,2024-06-14T09:20:11.181Z,english_728.wav,0,0,2993,21,5,Chinese,f,4,0.4,-30.18374109,0.22005976
LX,11,0,2024-06-14T09:20:11.181Z,english_728.wav,0,0,2993,21,5,Chinese,f,5,0.5,-82.66469876,1.42168107
LX,11,0,2024-06-14T09:20:11.181Z,english_728.wav,0,0,2993,21,5,Chinese,f,6,0.6,23.39578652,1.49957944
LX,11,0,2024-06-14T09:20:11.181Z,english_728.wav,0,0,2993,21,5,Chinese,f,7,0.7,26.21600665,0.84685957
LX,11,0,2024-06-14T09:20:11.181Z,english_728.wav,0,0,2993,21,5,Chinese,f,8,0.8,40.56146868,0.54890831
LX,11,0,2024-06-14T09:20:11.181Z,english_728.wav,0,0,2993,21,5,Chinese,f,9,0.9,8.84190716,1.06754414
LX,11,0,2024-06-14T09:20:11.181Z,english_728.wav,0,0,2993,21,5,Chinese,f,10,1,42.34962336,0.96376908
LX,11,0,2024-06-14T09:20:11.181Z,english_728.wav,0,0,2993,21,5,Chinese,f,11,1.09391667,-32.07226286,0.10029528
LX,12,0,2024-06-14T09:20:11.181Z,english_49.wav,0,1,520,21,5,Chinese,f,0,0,-7.77522682,0.84923144
LX,12,0,2024-06-14T09:20:11.181Z,english_49.wav,0,1,520,21,5,Chinese,f,1,0.1,-69.00488143,0.33119372
LX,12,0,2024-06-14T09:20:11.181Z,english_49.wav,0,1,520,21,5,Chinese,f,2,0.2,56.47558832,1.22070051
LX,12,0,2024-06-14T09:20:11.181Z,english_49.wav,0,1,520,21,5,Chinese,f,3,0.3,47.73828653,0.09401361
LX,12,0,2024-06-14T09:20:11.181Z,english_49.wav,0,1,520,21,5,Chinese,f,4,0.4,-58.74936134,0.13758585
LX,12,0,2024-06-14T09:20:11.181Z,english_49.wav,0,1,520,21,5,Chinese,f,5,0.5,-16.00930073,1.02104263
LX,12,0,2024-06-14T09:20:11.181Z,english_49.wav,0,1,520,21,5,Chinese,f,6,0.6,68.77090309,1.27727042
LX,12,0,2024-06-14T09:20:11.181Z,english_49.wav,0,1,520,21,5,Chinese,f,7,0.7,47.28501738,0.65680798
LX,12,0,2024-06-14T09:20:11.181Z,english_49.wav,0,1,520,21,5,Chinese,f,8,0.8,-26.83696642,1.41824482
LX,12,0,2024-06-14T09:20:11.181Z,english_49.wav,0,1,520,21,5,Chinese,f,9,0.9,16.45883289,0.73136625
LX,12,0,2024-06-14T09:20:11.181Z,english_49.wav,0,1,520,21,5,Chinese,f,10,1,-23.79769264,0.31271595
LX,12,0,2024-06-14T09:20:11.181Z,english_49.wav,0,1,520,21,5,Chinese,f,11,1.09391667,62.62161118,0.15435739
LX,13,0,2024-06-14T09:20:11.181Z,english_484.wav,0,1,283,21,5,Chinese,f,0,0,2.0569585,0.34651955
LX,13,0,2024-06-14T09:20:11.181Z,english_484.wav,0,1,283,21,5,Chinese,f,1,0.1,-79.1484241,1.84776357
LX,13,0,2024-06-14T09:20:11.181Z,english_484.wav,0,1,283,21,5,Chinese,f,2,0.2,30.9033229,1.82203066
LX,13,0,2024-06-14T09:20:11.181Z,english_484.wav,0,1,283,21,5,Chinese,f,3,0.3,12.05929197,1.56778111
LX,13,0,2024-06-14T09:20:11.181Z,english_484.wav,0,1,283,21,5,Chinese,f,4,0.4,-72.8204973,1.22252397
LX,13,0,2024-06-14T09:20:11.181Z,english_484.wav,0,1,283,21,5,Chinese,f,5,0.5,-89.96387514,1.78789861
LX,13,0,2024-06-14T09:20:11.181Z,english_484.wav,0,1,283,21,5,Chinese,f,6,0.6,-22.94210609,0.02218534
LX,13,0,2024-06-14T09:20:11.181Z,english_484.wav,0,1,283,21,5,Chinese,f,7,0.7,17.91925192,1.7744569
LX,13,0,2024-06-14T09:20:11.181Z,english_484.wav,0,1,283,21,5,Chinese,f,8,0.8,-62.01555508,1.27917124
LX,13,0,2024-06-14T09:20:11.181Z,english_484.wav,0,1,283,21,5,Chinese,f,9,0.9,-43.27412131,1.76665807
LX,13,0,2024-06-14T09:20:11.181Z,english_484.wav,0,1,283,21,5,Chinese,f,10,1,0.91553281,1.1189794
LX,13,0,2024-06-14T09:20:11.181Z,english_484.wav,0,1,283,21,5,Chinese,f,11,1.09391667,-32.68645572,0.68984214
LX,14,0,2024-06-14T09:20:11.181Z,english_978.wav,0,0,3435,21,5,Chinese,f,0,0,-56.85728998,1.17346596
LX,14,0,2024-06-14T09:20:11.181Z,english_978.wav,0,0,3435,21,5,Chinese,f,1,0.1,16.43364259,0.59297783
LX,14,0,2024-06-14T09:20:11.181Z,english_978.wav,0,0,3435,21,5,Chinese,f,2,0.2,47.77326739,0.67016687
LX,14,0,2024-06-14T09:20:11.181Z,english_978.wav,0,0,3435,21,5,Chinese,f,3,0.3,94.05967356,1.98266891
LX,14,0,2024-06-14T09:20:11.181Z,english_978.wav,0,0,3435,21,5,Chinese,f,4,0.4,-76.48908754,0.86932432
LX,14,0,2024-06-14T09:20:11.181Z,english_978.wav,0,0,3435,21,5,Chinese,f,5,0.5,-47.71848611,0.89103479
LX,14,0,2024-06-14T09:20:11.181Z,english_978.wav,0,0,3435,21,5,Chinese,f,6,0.6,-17.07884838,1.65910536
LX,14,0,2024-06-14T09:20:11.181Z,english_978.wav,0,0,3435,21,5,Chinese,f,7,0.7,50.2599466,1.27682187
LX,14,0,2024-06-14T09:20:11.181Z,english_978.wav,0,0,3435,21,5,Chinese,f,8,0.8,83.04934383,0.051565
LX,14,0,2024-06-14T09:20:11.181Z,english_978.wav,0,0,3435,21,5,Chinese,f,9,0.9,-14.53932226,0.45965995
LX,14,0,2024-06-14T09:20:11.181Z,english_978.wav,0,0,3435,21,5,Chinese,f,10,1,-40.28373024,1.12972823
LX,14,0,2024-06-14T09:20:11.181Z,english_978.wav,0,0,3435,21,5,Chinese,f,11,1.09391667,82.58821892,1.51179451
LX,15,0,2024-06-14T09:20:11.181Z,english_893.wav,0,0,1825,21,5,Chinese,f,0,0,-88.27288408,0.46079997
LX,15,0,2024-06-14T09:20:11.181Z,english_893.wav,0,0,1825,21,5,Chinese,f,1,0.1,65.02931774,1.28353758
LX,15,0,2024-06-14T09:20:11.181Z,english_893.wav,0,0,1825,21,5,Chinese,f,2,0.2,52.75255946,1.5240413
LX,15,0,2024-06-14T09:20:11.181Z,english_893.wav,0,0,1825,21,5,Chinese,f,3,0.3,83.63729727,1.67217786
LX,15,0,2024-06-14T09:20:11.181Z,english_893.wav,0,0,1825,21,5,Chinese,f,4,0.4,-40.64554186,1.32541151
LX,15,0,2024-06-14T09:20:11.181Z,english_893.wav,0,0,1825,21,5,Chinese,f,5,0.5,-63.5561657,0.97852107
LX,15,0,2024-06-14T09:20:11.181Z,english_893.wav,0,0,1825,21,5,Chinese,f,6,0.6,86.64180858,0.03458433
LX,15,0,2024-06-14T09:20:11.181Z,english_893.wav,0,0,1825,21,5,Chinese,f,7,0.7,66.95085035,1.20988187
LX,15,0,2024-06-14T09:20:11.181Z,english_893.wav,0,0,1825,21,5,Chinese,f,8,0.8,-95.78590216,1.76333765
LX,15,0,2024-06-14T09:20:11.181Z,english_893.wav,0,0,1825,21,5,Chinese,f,9,0.9,-69.05067698,0.45158105
LX,15,0,2024-06-14T09:20:11.181Z,english_893.wav,0,0,1825,21,5,Chinese,f,10,1,-26.34394451,1.28641333
LX,15,0,2024-06-14T09:20:11.181Z,english_893.wav,0,0,1825,21,5,Chinese,f,11,1.09391667,46.22858611,0.88140728
LX,16,0,2024-06-14T09:20:11.181Z,english_648.wav,0,1,676,21,5,Chinese,f,0,0,33.66524903,1.53800397
LX,16,0,2024-06-14T09:20:11.181Z,english_648.wav,0,1,676,21,5,Chinese,f,1,0.1,97.98351088,1.15872761
LX,16,0,2024-06-14T09:20:11.181Z,english_648.wav,0,1,676,21,5,Chinese,f,2,0.2,11.9794117,0.81425559
LX,16,0,2024-06-14T09:20:11.181Z,english_648.wav,0,1,676,21,5,Chinese,f,3,0.3,29.55885348,0.88028101
LX,16,0,2024-06-14T09:20:11.181Z,english_648.wav,0,1,676,21,5,Chinese,f,4,0.4,24.59728939,1.88326834
LX,16,0,2024-06-14T09:20:11.181Z,english_648.wav,0,1,676,21,5,Chinese,f,5,0.5,59.2279724,1.09723956
LX,16,0,2024-06-14T09:20:11.181Z,english_648.wav,0,1,676,21,5,Chinese,f,6,0.6,3.25949038,0.83602582
LX,16,0,2024-06-14T09:20:11.181Z,english_648.wav,0,1,676,21,5,Chinese,f,7,0.7,-26.79620766,0.3704665
LX,16,0,2024-06-14T09:20:11.181Z,english_648.wav,0,1,676,21,5,Chinese,f,8,0.8,98.3282455,0.87153578
LX,16,0,2024-06-14T09:20:11.181Z,english_648.wav,0,1,676,21,5,Chinese,f,9,0.9,-78.7239126,1.50300547
LX,16,0,2024-06-14T09:20:11.181Z,english_648.wav,0,1,676,21,5,Chinese,f,10,1,20.12137035,0.75356499
LX,16,0,2024-06-14T09:20:11.181Z,english_648.wav,0,1,676,21,5,Chinese,f,11,1.09391667,-43.42156432,1.92538482
LX,17,0,2024-06-14T09:20:11.181Z,english_27.wav,0,1,2115,21,5,Chinese,f,0,0,79.54091256,1.25862136
LX,17,0,2024-06-14T09:20:11.181Z,english_27.wav,0,1,2115,21,5,Chinese,f,1,0.1,8.12106861,0.9398724
LX,17,0,2024-06-14T09:20:11.181Z,english_27.wav,0,1,2115,21,5,Chinese,f,2,0.2,-86.96528304,1.23485766
LX,17,0,2024-06-14T09:20:11.181Z,english_27.wav,0,1,2115,21,5,Chinese,f,3,0.3,34.39896744,0.94041456
LX,17,0,2024-06-14T09:20:11.181Z,english_27.wav,0,1,2115,21,5,Chinese,f,4,0.4,73.46875222,1.68451502
LX,17,0,2024-06-14T09:20:11.181Z,english_27.wav,0,1,2115,21,5,Chinese,f,5,0.5,-83.8449803,0.54115759
LX,17,0,2024-06-14T09:20:11.181Z,english_27.wav,0,1,2115,21,5,Chinese,f,6,0.6,58.21808767,0.09765006
LX,17,0,2024-06-14T09:20:11.181Z,english_27.wav,0,1,2115,21,5,Chinese,f,7,0.7,-1.02085817,0.91208016
LX,17,0,2024-06-14T09:20:11.181Z,english_27.wav,0,1,2115,21,5,Chinese,f,8,0.8,-33.33574161,1.53320318
LX,17,0,2024-06-14T09:20:11.181Z,english_27.wav,0,1,2115,21,5,Chinese,f,9,0.9,24.41997053,1.39457069
LX,17,0,2024-06-14T09:20:11.181Z,english_27.wav,0,1,2115,21,5,Chinese,f,10,1,-54.97722052,0.85736332
LX,17,0,2024-06-14T09:20:11.181Z,english_27.wav,0,1,2115,21,5,Chinese,f,11,1.09391667,-40.91525951,0.73478674
LX,18,0,2024-06-14T09:20:11.181Z,english_43.wav,0,0,777,21,5,Chinese,f,0,0,35.0853305,0.26027887
LX,18,0,2024-06-14T09:20:11.181Z,english_43.wav,0,0,777,21,5,Chinese,f,1,0.1,-82.31052455,0.68956967
LX,18,0,2024-06-14T09:20:11.181Z,english_43.wav,0,0,777,21,5,Chinese,f,2,0.2,-87.01844832,1.59168544
LX,18,0,2024-06-14T09:20:11.181Z,english_43.wav,0,0,777,21,5,Chinese,f,3,0.3,35.19386066,0.50064201
LX,18,0,2024-06-14T09:20:11.181Z,english_43.wav,0,0,777,21,5,Chinese,f,4,0.4,-6.50663416,1.69386915
LX,18,0,2024-06-14T09:20:11.181Z,english_43.wav,0,0,777,21,5,Chinese,f,5,0.5,-43.93611532,1.13933047
LX,18,0,2024-06-14T09:20:11.181Z,english_43.wav,0,0,777,21,5,Chinese,f,6,0.6,-73.49805581,1.51065435
LX,18,0,2024-06-14T09:20:11.181Z,english_43.wav,0,0,777,21,5,Chinese,f,7,0.7,65.62731204,0.46562499
LX,18,0,2024-06-14T09:20:11.181Z,english_43.wav,0,0,777,21,5,Chinese,f,8,0.8,-40.13292878,1.37756628
LX,18,0,2024-06-14T09:20:11.181Z,english_43.wav,0,0,777,21,5,Chinese,f,9,0.9,-82.04161205,0.8121578
LX,18,0,2024-06-14T09:20:11.181Z,english_43.wav,0,0,777,21,5,Chinese,f,10,1,51.94207196,0.36046396
LX,18,0,2024-06-14T09:20:11.181Z,english_43.wav,0,0,777,21,5,Chinese,f,11,1.09391667,-30.06023569,0.31346917
LX,19,0,2024-06-14T09:20:11.181Z,english_294.wav,0,1,143,21,5,Chinese,f,0,0,-35.26170476,0.76895084
LX,19,0,2024-06-14T09:20:11.181Z,english_294.wav,0,1,143,21,5,Chinese,f,1,0.1,-68.79847515,0.42345848
LX,19,0,2024-06-14T09:20:11.181Z,english_294.wav,0,1,143,21,5,Chinese,f,2,0.2,21.65443345,1.88759315
LX,19,0,2024-06-14T09:20:11.181Z,english_294.wav,0,1,143,21,5,Chinese,f,3,0.3,18.61336719,0.20743541
LX,19,0,2024-06-14T09:20:11.181Z,english_294.wav,0,1,143,21,5,Chinese,f,4,0.4,29.14118392,0.10193981
LX,19,0,2024-06-14T09:20:11.181Z,english_294.wav,0,1,143,21,5,Chinese,f,5,0.5,-0.79474297,0.31438326
LX,19,0,2024-06-14T09:20:11.181Z,english_294.wav,0,1,143,21,5,Chinese,f,6,0.6,-83.10715175,1.2995954
LX,19,0,2024-06-14T09:20:11.181Z,english_294.wav,0,1,143,21,5,Chinese,f,7,0.7,-22.63410673,1.94703728
LX,19,0,2024-06-14T09:20:11.181Z,english_294.wav,0,1,143,21,5,Chinese,f,8,0.8,-21.26415856,0.92366458
LX,19,0,2024-06-14T09:20:11.181Z,english_294.wav,0,1,143,21,5,Chinese,f,9,0.9,47.90727918,1.04223302
LX,19,0,2024-06-14T09:20:11.181Z,english_294.wav,0,1,143,21,5,Chinese,f,10,1,-39.88232682,1.01801331
LX,19,0,2024-06-14T09:20:11.181Z,english_294.wav,0,1,143,21,5,Chinese,f,11,1.09391667,-74.09279353,0.911147
LX,20,0,2024-06-14T09:20:11.181Z,english_828.wav,0,1,12,21,5,Chinese,f,0,0,44.40736288,0.6854481
LX,20,0,2024-06-14T09:20:11.181Z,english_828.wav,0,1,12,21,5,Chinese,f,1,0.1,-42.04416601,0.68064333
LX,20,0,2024-06-14T09:20:11.181Z,english_828.wav,0,1,12,21,5,Chinese,f,2,0.2,-20.29293086,0.81685259
LX,20,0,2024-06-14T09:20:11.181Z,english_828.wav,0,1,12,21,5,Chinese,f,3,0.3,92.4837764,1.64535042
LX,20,0,2024-06-14T09:20:11.181Z,english_828.wav,0,1,12,21,5,Chinese,f,4,0.4,-9.06614004,1.05789966
LX,20,0,2024-06-14T09:20:11.181Z,english_828.wav,0,1,12,21,5,Chinese,f,5,0.5,-13.57134894,0.50783684
LX,20,0,2024-06-14T09:20:11.181Z,english_828.wav,0,1,12,21,5,Chinese,f,6,0.6,-35.94091013,0.44879888
LX,20,0,2024-06-14T09:20:11.181Z,english_828.wav,0,1,12,21,5,Chinese,f,7,0.7,-16.77232099,1.56814335
LX,20,0,2024-06-14T09:20:11.181Z,english_828.wav,0,1,12,21,5,Chinese,f,8,0.8,-37.97296566,1.89886882
LX,20,0,2024-06-14T09:20:11.181Z,english_828.wav,0,1,12,21,5,Chinese,f,9,0.9,-82.27097072,0.04070617
LX,20,0,2024-06-14T09:20:11.181Z,english_828.wav,0,1,12,21,5,Chinese,f,10,1,58.44690016,0.64400746
LX,20,0,2024-06-14T09:20:11.181Z,english_828.wav,0,1,12,21,5,Chinese,f,11,1.09391667,80.21996359,0.77415838
LX,21,0,2024-06-14T09:20:11.181Z,english_93.wav,0,0,457,21,5,Chinese,f,0,0,-5.64044051,0.93985767
LX,21,0,2024-06-14T09:20:11.181Z,english_93.wav,0,0,457,21,5,Chinese,f,1,0.1,-71.62427253,1.9578989
LX,21,0,2024-06-14T09:20:11.181Z,english_93.wav,0,0,457,21,5,Chinese,f,2,0.2,44.8568839,1.04309205
LX,21,0,2024-06-14T09:20:11.181Z,english_93.wav,0,0,457,21,5,Chinese,f,3,0.3,13.73699883,1.22075438
LX,21,0,2024-06-14T09:20:11.181Z,english_93.wav,0,0,457,21,5,Chinese,f,4,0.4,-9.51130818,1.24468343
LX,21,0,2024-06-14T09:20:11.181Z,english_93.wav,0,0,457,21,5,Chinese,f,5,0.5,25.73719345,1.1802762
LX,21,0,2024-06-14T09:20:11.181Z,english_93.wav,0,0,457,21,5,Chinese,f,6,0.6,-9.54816374,1.78615262
LX,21,0,2024-06-14T09:20:11.181Z,english_93.wav,0,0,457,21,5,Chinese,f,7,0.7,-99.85495199,1.82361192
LX,21,0,2024-06-14T09:20:11.181Z,english_93.wav,0,0,457,21,5,Chinese,f,8,0.8,26.311999,0.83873706
LX,21,0,2024-06-14T09:20:11.181Z,english_93.wav,0,0,457,21,5,Chinese,f,9,0.9,37.40170351,1.41980792
LX,21,0,2024-06-14T09:20:11.181Z,english_93.wav,0,0,457,21,5,Chinese,f,10,1,-54.32300287,0.16266534
LX,21,0,2024-06-14T09:20:11.181Z,english_93.wav,0,0,457,21,5,Chinese,f,11,1.09391667,-13.38941708,1.86742119
LX,22,0,2024-06-14T09:20:11.181Z,english_911.wav,0,1,222,21,5,Chinese,f,0,0,97.74431138,1.45295226
LX,22,0,2024-06-14T09:20:11.181Z,english_911.wav,0,1,222,21,5,Chinese,f,1,0.1,63.25353714,0.52934156
LX,22,0,2024-06-14T09:20:11.181Z,english_911.wav,0,1,222,21,5,Chinese,f,2,0.2,31.76873058,1.12978313
LX,22,0,2024-06-14T09:20:11.181Z,english_911.wav,0,1,222,21,5,Chinese,f,3,0.3,-80.65515271,0.46492479
LX,22,0,2024-06-14T09:20:11.181Z,english_911.wav,0,1,222,21,5,Chinese,f,4,0.4,87.72308134,1.65576631
LX,22,0,2024-06-14T09:20:11.181Z,english_911.wav,0,1,222,21,5,Chinese,f,5,0.5,-43.90030619,0.95301179
LX,22,0,2024-06-14T09:20:11.181Z,english_911.wav,0,1,222,21,5,Chinese,f,6,0.6,-96.43392939,1.98033305
LX,22,0,2024-06-14T09:20:11.181Z,english_911.wav,0,1,222,21,5,Chinese,f,7,0.7,-95.09691132,0.56650122
LX,22,0,2024-06-14T09:20:11.181Z,english_911.wav,0,1,222,21,5,Chinese,f,8,0.8,7.77484736,1.59543029
LX,22,0,2024-06-14T09:20:11.181Z,english_911.wav,0,1,222,21,5,Chinese,f,9,0.9,12.16907111,1.97260423
LX,22,0,2024-06-14T09:20:11.181Z,english_911.wav,0,1,222,21,5,Chinese,f,10,1,33.87787458,1.68149339
LX,22,0,2024-06-14T09:20:11.181Z,english_911.wav,0,1,222,21,5,Chinese,f,11,1.09391667,10.13841493,1.03055348
LX,23,0,2024-06-14T09:20:11.181Z,english_329.wav,0,0,327,21,5,Chinese,f,0,0,-73.5267518,0.87153309
LX,23,0,2024-06-14T09:20:11.181Z,english_329.wav,0,0,327,21,5,Chinese,f,1,0.1,26.40936661,1.24873758
LX,23,0,2024-06-14T09:20:11.181Z,english_329.wav,0,0,327,21,5,Chinese,f,2,0.2,95.94954551,0.87594124
LX,23,0,2024-06-14T09:20:11.181Z,english_329.wav,0,0,327,21,5,Chinese,f,3,0.3,-92.18268605,0.88012103
LX,23,0,2024-06-14T09:20:11.181Z,english_329.wav,0,0,327,21,5,Chinese,f,4,0.4,-98.10910069,1.62824367
LX,23,0,2024-06-14T09:20:11.181Z,english_329.wav,0,0,327,21,5,Chinese,f,5,0.5,-61.34103681,1.41725229
LX,23,0,2024-06-14T09:20:11.181Z,english_329.wav,0,0,327,21,5,Chinese,f,6,0.6,34.88723994,1.27607992
LX,23,0,2024-06-14T09:20:11.181Z,english_329.wav,0,0,327,21,5,Chinese,f,7,0.7,66.83835425,0.30685243
LX,23,0,2024-06-14T09:20:11.181Z,english_329.wav,0,0,327,21,5,Chinese,f,8,0.8,-67.43059972,0.43279956
LX,23,0,2024-06-14T09:20:11.181Z,english_329.wav,0,0,327,21,5,Chinese,f,9,0.9,51.12526405,0.74557381
LX,23,0,2024-06-14T09:20:11.181Z,english_329.wav,0,0,327,21,5,Chinese,f,10,1,-25.5134348,0.84179224
LX,23,0,2024-06-14T09:20:11.181Z,english_329.wav,0,0,327,21,5,Chinese,f,11,1.09391667,-82.24978729,0.84260005
LX,24,0,2024-06-14T09:20:11.181Z,english_497.wav,0,1,352,21,5,Chinese,f,0,0,80.19747469,0.03666691
LX,24,0,2024-06-14T09:20:11.181Z,english_497.wav,0,1,352,21,5,Chinese,f,1,0.1,-96.43069026,0.31407974
LX,24,0,2024-06-14T09:20:11.181Z,english_497.wav,0,1,352,21,5,Chinese,f,2,0.2,6.71798647,0.70160097
LX,24,0,2024-06-14T09:20:11.181Z,english_497.wav,0,1,352,21,5,Chinese,f,3,0.3,19.69444111,1.30733275
LX,24,0,2024-06-14T09:20:11.181Z,english_497.wav,0,1,352,21,5,Chinese,f,4,0.4,-18.5018769,1.0770642
LX,24,0,2024-06-14T09:20:11.181Z,english_497.wav,0,1,352,21,5,Chinese,f,5,0.5,-89.69065854,1.1030143
LX,24,0,2024-06-14T09:20:11.181Z,english_497.wav,0,1,352,21,5,Chinese,f,6,0.6,18.45091423,0.72184595
LX,24,0,2024-06-14T09:20:11.181Z,english_497.wav,0,1,352,21,5,Chinese,f,7,0.7,58.14918595,0.59634745
LX,24,0,2024-06-14T09:20:11.181Z,english_497.wav,0,1,352,21,5,Chinese,f,8,0.8,-12.73126571,0.95783225
LX,24,0,2024-06-14T09:20:11.181Z,english_497.wav,0,1,352,21,5,Chinese,f,9,0.9,-37.82928272,0.84592096
LX,24,0,2024-06-14T09:20:11.181Z,english_497.wav,0,1,352,21,5,Chinese,f,10,1,-47.82962272,1.86600497
LX,24,0,2024-06-14T09:20:11.181Z,english_497.wav,0,1,352,21,5,Chinese,f,11,1.09391667,-71.69807159,0.50915901
LX,25,0,2024-06-14T09:20:11.181Z,english_977.wav,0,0,804,21,5,Chinese,f,0,0,45.32437977,1.51258306
LX,25,0,2024-06-14T09:20:11.181Z,english_977.wav,0,0,804,21,5,Chinese,f,1,0.1,31.46444726,1.62107879
LX,25,0,2024-06-14T09:20:11.181Z,english_977.wav,0,0,804,21,5,Chinese,f,2,0.2,7.78815071,0.80620837
LX,25,0,2024-06-14T09:20:11.181Z,english_977.wav,0,0,804,21,5,Chinese,f,3,0.3,-38.46709342,1.66578012
LX,25,0,2024-06-14T09:20:11.181Z,english_977.wav,0,0,804,21,5,Chinese,f,4,0.4,-43.12628929,0.5028638
LX,25,0,2024-06-14T09:20:11.181Z,english_977.wav,0,0,804,21,5,Chinese,f,5,0.5,-60.3999411,1.57064844
LX,25,0,2024-06-14T09:20:11.181Z,english_977.wav,0,0,804,21,5,Chinese,f,6,0.6,38.30873417,1.43046029
LX,25,0,2024-06-14T09:20:11.181Z,english_977.wav,0,0,804,21,5,Chinese,f,7,0.7,-32.30937365,0.97320454
LX,25,0,2024-06-14T09:20:11.181Z,english_977.wav,0,0,804,21,5,Chinese,f,8,0.8,-13.91730907,0.87874216
LX,25,0,2024-06-14T09:20:11.181Z,english_977.wav,0,0,804,21,5,Chinese,f,9,0.9,-81.54845422,1.41826341
LX,25,0,2024-06-14T09:20:11.181Z,english_977.wav,0,0,804,21,5,Chinese,f,10,1,29.31026278,0.04715706
LX,25,0,2024-06-14T09:20:11.181Z,english_977.wav,0,0,804,21,5,Chinese,f,11,1.09391667,34.6707146,1.45727151
LX,26,0,2024-06-14T09:20:11.181Z,english_608.wav,0,1,553,21,5,Chinese,f,0,0,51.7664081,1.51537713
LX,26,0,2024-06-14T09:20:11.181Z,english_608.wav,0,1,553,21,5,Chinese,f,1,0.1,-80.54246428,0.15028224
LX,26,0,2024-06-14T09:20:11.181Z,english_608.wav,0,1,553,21,5,Chinese,f,2,0.2,-77.98130797,1.81254149
LX,26,0,2024-06-14T09:20:11.181Z,english_608.wav,0,1,553,21,5,Chinese,f,3,0.3,25.40612748,1.88904665
LX,26,0,2024-06-14T09:20:11.181Z,english_608.wav,0,1,553,21,5,Chinese,f,4,0.4,-25.13261416,0.02307613
LX,26,0,2024-06-14T09:20:11.181Z,english_608.wav,0,1,553,21,5,Chinese,f,5,0.5,-47.23330204,1.59293411
LX,26,0,2024-06-14T09:20:11.181Z,english_608.wav,0,1,553,21,5,Chinese,f,6,0.6,80.77508225,1.34709582
LX,26,0,2024-06-14T09:20:11.181Z,english_608.wav,0,1,553,21,5,Chinese,f,7,0.7,-91.19719701,0.43937258
LX,26,0,2024-06-14T09:20:11.181Z,english_608.wav,0,1,553,21,5,Chinese,f,8,0.8,-56.07696763,1.30698023
LX,26,0,2024-06-14T09:20:11.181Z,english_608.wav,0,1,553,21,5,Chinese,f,9,0.9,-57.98593589,1.72852212
LX,26,0,2024-06-14T09:20:11.181Z,english_608.wav,0,1,553,21,5,Chinese,f,10,1,87.03595353,1.13440146
LX,26,0,2024-06-14T09:20:11.181Z,english_608.wav,0,1,553,21,5,Chinese,f,11,1.09391667,-36.96026424,1.09789882
LX,27,0,2024-06-14T09:20:11.181Z,english_959.wav,0,1,187,21,5,Chinese,f,0,0,-72.11702721,0.58402208
LX,27,0,2024-06-14T09:20:11.181Z,english_959.wav,0,1,187,21,5,Chinese,f,1,0.1,-40.70802273,1.62475599
LX,27,0,2024-06-14T09:20:11.181Z,english_959.wav,0,1,187,21,5,Chinese,f,2,0.2,87.64553822,1.65188883
LX,27,0,2024-06-14T09:20:11.181Z,english_959.wav,0,1,187,21,5,Chinese,f,3,0.3,-48.2331893,0.55484279
LX,27,0,2024-06-14T09:20:11.181Z,english_959.wav,0,1,187,21,5,Chinese,f,4,0.4,-95.5440406,0.6061604
LX,27,0,2024-06-14T09:20:11.181Z,english_959.wav,0,1,187,21,5,Chinese,f,5,0.5,59.94111347,1.49451004
LX,27,0,2024-06-14T09:20:11.181Z,english_959.wav,0,1,187,21,5,Chinese,f,6,0.6,91.02979874,0.05914992
LX,27,0,2024-06-14T09:20:11.181Z,english_959.wav,0,1,187,21,5,Chinese,f,7,0.7,19.11555726,1.4845686
LX,27,0,2024-06-14T09:20:11.181Z,english_959.wav,0,1,187,21,5,Chinese,f,8,0.8,75.67996803,1.97323442
LX,27,0,2024-06-14T09:20:11.181Z,english_959.wav,0,1,187,21,5,Chinese,f,9,0.9,92.01217726,0.84762709
LX,27,0,2024-06-14T09:20:11.181Z,english_959.wav,0,1,187,21,5,Chinese,f,10,1,-10.30028839,0.74785562
LX,27,0,2024-06-14T09:20:11.181Z,english_959.wav,0,1,187,21,5,Chinese,f,11,1.09391667,-99.09748483,1.91422779
LX,28,0,2024-06-14T09:20:11.181Z,english_190.wav,0,0,368,21,5,Chinese,f,0,0,68.06436233,1.70360444
LX,28,0,2024-06-14T09:20:11.181Z,english_190.wav,0,0,368,21,5,Chinese,f,1,0.1,24.19088811,1.35006329
LX,28,0,2024-06-14T09:20:11.181Z,english_190.wav,0,0,368,21,5,Chinese,f,2,0.2,-65.11888028,0.62623632
LX,28,0,2024-06-14T09:20:11.181Z,english_190.wav,0,0,368,21,5,Chinese,f,3,0.3,32.33155843,0.74087673
LX,28,0,2024-06-14T09:20:11.181Z,english_190.wav,0,0,368,21,5,Chinese,f,4,0.4,-73.69082424,1.65268471
LX,28,0,2024-06-14T09:20:11.181Z,english_190.wav,0,0,368,21,5,Chinese,f,5,0.5,2.10243169,0.89116286
LX,28,0,2024-06-14T09:20:11.181Z,english_190.wav,0,0,368,21,5,Chinese,f,6,0.6,28.92667908,1.98709983
LX,28,0,2024-06-14T09:20:11.181Z,english_190.wav,0,0,368,21,5,Chinese,f,7,0.7,34.75610328,1.82073469
LX,28,0,2024-06-14T09:20:11.181Z,english_190.wav,0,0,368,21,5,Chinese,f,8,0.8,31.4188322,0.29012773
LX,28,0,2024-06-14T09:20:11.181Z,english_190.wav,0,0,368,21,5,Chinese,f,9,0.9,-96.94690026,0.16914855
LX,28,0,2024-06-14T09:20:11.181Z,english_190.wav,0,0,368,21,5,Chinese,f,10,1,53.11864997,1.64341156
LX,28,0,2024-06-14T09:20:11.181Z,english_190.wav,0,0,368,21,5,Chinese,f,11,1.09391667,-92.72540724,1.35295698
LX,29,0,2024-06-14T09:20:11.181Z,english_936.wav,0,0,68,21,5,Chinese,f,0,0,36.31221715,1.2887877
LX,29,0,2024-06-14T09:20:11.181Z,english_936.wav,0,0,68,21,5,Chinese,f,1,0.1,-44.47492587,1.4589685
LX,29,0,2024-06-14T09:20:11.181Z,english_936.wav,0,0,68,21,5,Chinese,f,2,0.2,-4.14718789,0.18405876
LX,29,0,2024-06-14T09:20:11.181Z,english_936.wav,0,0,68,21,5,Chinese,f,3,0.3,-65.70158372,0.27129686
LX,29,0,2024-06-14T09:20:11.181Z,english_936.wav,0,0,68,21,5,Chinese,f,4,0.4,76.09968898,0.60039507
LX,29,0,2024-06-14T09:20:11.181Z,english_936.wav,0,0,68,21,5,Chinese,f,5,0.5,52.5413509,0.83949142
LX,29,0,2024-06-14T09:20:11.181Z,english_936.wav,0,0,68,21,5,Chinese,f,6,0.6,5.38506085,0.92420877
LX,29,0,2024-06-14T09:20:11.181Z,english_936.wav,0,0,68,21,5,Chinese,f,7,0.7,-9.33856544,0.31849757
LX,29,0,2024-06-14T09:20:11.181Z,english_936.wav,0,0,68,21,5,Chinese,f,8,0.8,-79.6079489,1.55991954
LX,29,0,2024-06-14T09:20:11.181Z,english_936.wav,0,0,68,21,5,Chinese,f,9,0.9,-51.30915368,1.32485451
LX,29,0,2024-06-14T09:20:11.181Z,english_936.wav,0,0,68,21,5,Chinese,f,10,1,-23.2662762,1.1603689
LX,29,0,2024-06-14T09:20:11.181Z,english_936.wav,0,0,68,21,5,Chinese,f,11,1.09391667,10.041916,0.29288231
LX,30,0,2024-06-14T09:20:11.181Z,english_197.wav,0,1,2290,21,5,Chinese,f,0,0,-0.52164664,0.76048058
LX,30,0,2024-06-14T09:20:11.181Z,english_197.wav,0,1,2290,21,5,Chinese,f,1,0.1,-87.40194418,1.46601293
LX,30,0,2024-06-14T09:20:11.181Z,english_197.wav,0,1,2290,21,5,Chinese,f,2,0.2,-52.79027246,1.17311431
LX,30,0,2024-06-14T09:20:11.181Z,english_197.wav,0,1,2290,21,5,Chinese,f,3,0.3,-48.86802506,0.52190861
LX,30,0,2024-06-14T09:20:11.181Z,english_197.wav,0,1,2290,21,5,Chinese,f,4,0.4,81.82701326,0.75360033
LX,30,0,2024-06-14T09:20:11.181Z,english_197.wav,0,1,2290,21,5,Chinese,f,5,0.5,-49.36038243,0.57280926
LX,30,0,2024-06-14T09:20:11.181Z,english_197.wav,0,1,2290,21,5,Chinese,f,6,0.6,60.40718162,1.08660509
LX,30,0,2024-06-14T09:20:11.181Z,english_197.wav,0,1,2290,21,5,Chinese,f,7,0.7,23.14241749,1.00122778
LX,30,0,2024-06-14T09:20:11.181Z,english_197.wav,0,1,2290,21,5,Chinese,f,8,0.8,6.00272562,0.93136252
LX,30,0,2024-06-14T09:20:11.181Z,english_197.wav,0,1,2290,21,5,Chinese,f,9,0.9,-33.15203134,1.24898943
LX,30,0,2024-06-14T09:20:11.181Z,english_197.wav,0,1,2290,21,5,Chinese,f,10,1,87.44378179,1.94648397
LX,30,0,2024-06-14T09:20:11.181Z,english_197.wav,0,1,2290,21,5,Chinese,f,11,1.09391667,-36.11997575,0.88926449
LX,31,0,2024-06-14T09:20:11.181Z,english_403.wav,0,1,450,21,5,Chinese,f,0,0,0.0155370236,1.50775741
LX,31,0,2024-06-14T09:20:11.181Z,english_403.wav,0,1,450,21,5,Chinese,f,1,0.1,-4.64270355,1.88632048
LX,31,0,2024-06-14T09:20:11.181Z,english_403.wav,0,1,450,21,5,Chinese,f,2,0.2,-86.7611077,1.79027228
LX,31,0,2024-06-14T09:20:11.181Z,english_403.wav,0,1,450,21,5,Chinese,f,3,0.3,-86.6854854,0.9708058
LX,31,0,2024-06-14T09:20:11.181Z,english_403.wav,0,1,450,21,5,Chinese,f,4,0.4,-74.3205589,1.26833926
LX,31,0,2024-06-14T09:20:11.181Z,english_403.wav,0,1,450,21,5,Chinese,f,5,0.5,56.1207621,0.98662828
LX,31,0,2024-06-14T09:20:11.181Z,english_403.wav,0,1,450,21,5,Chinese,f,6,0.6,15.0235235,1.65364002
LX,31,0,2024-06-14T09:20:11.181Z,english_403.wav,0,1,450,21,5,Chinese,f,7,0.7,25.8783198,1.52514764
LX,31,0,2024-06-14T09:20:11.181Z,english_403.wav,0,1,450,21,5,Chinese,f,8,0.8,21.3726461,1.10599603
LX,31,0,2024-06-14T09:20:11.181Z,english_403.wav,0,1,450,21,5,Chinese,f,9,0.9,86.9816794,1.01372586
LX,31,0,2024-06-14T09:20:11.181Z,english_403.wav,0,1,450,21,5,Chinese,f,10,1,-56.1900631,1.1928159
LX,31,0,2024-06-14T09:20:11.181Z,english_403.wav,0,1,450,21,5,Chinese,f,11,1.09391667,59.2986673,0.36234179
LX,32,0,2024-06-14T09:20:11.181Z,english_619.wav,0,1,243,21,5,Chinese,f,0,0,-41.0924044,1.71942116
LX,32,0,2024-06-14T09:20:11.181Z,english_619.wav,0,1,243,21,5,Chinese,f,1,0.1,-7.96280913,1.03534148
LX,32,0,2024-06-14T09:20:11.181Z,english_619.wav,0,1,243,21,5,Chinese,f,2,0.2,-87.23866402,1.90474628
LX,32,0,2024-06-14T09:20:11.181Z,english_619.wav,0,1,243,21,5,Chinese,f,3,0.3,-49.33627733,1.25465254
LX,32,0,2024-06-14T09:20:11.181Z,english_619.wav,0,1,243,21,5,Chinese,f,4,0.4,-9.049641,0.872658
LX,32,0,2024-06-14T09:20:11.181Z,english_619.wav,0,1,243,21,5,Chinese,f,5,0.5,-44.96771142,0.88442624
LX,32,0,2024-06-14T09:20:11.181Z,english_619.wav,0,1,243,21,5,Chinese,f,6,0.6,-40.79885207,0.90889779
LX,32,0,2024-06-14T09:20:11.181Z,english_619.wav,0,1,243,21,5,Chinese,f,7,0.7,40.82825876,0.65121567
LX,32,0,2024-06-14T09:20:11.181Z,english_619.wav,0,1,243,21,5,Chinese,f,8,0.8,-20.59710474,0.05436153
LX,32,0,2024-06-14T09:20:11.181Z,english_619.wav,0,1,243,21,5,Chinese,f,9,0.9,39.88878166,1.54961319
LX,32,0,2024-06-14T09:20:11.181Z,english_619.wav,0,1,243,21,5,Chinese,f,10,1,26.7856421,0.36194851
LX,32,0,2024-06-14T09:20:11.181Z,english_619.wav,0,1,243,21,5,Chinese,f,11,1.09391667,40.93095409,0.79464548
LX,33,0,2024-06-14T09:20:11.181Z,english_947.wav,0,0,418,21,5,Chinese,f,0,0,30.31601864,1.90953585
LX,33,0,2024-06-14T09:20:11.181Z,english_947.wav,0,0,418,21,5,Chinese,f,1,0.1,-75.95641423,1.97785982
LX,33,0,2024-06-14T09:20:11.181Z,english_947.wav,0,0,418,21,5,Chinese,f,2,0.2,54.94521645,0.82379025
LX,33,0,2024-06-14T09:20:11.181Z,english_947.wav,0,0,418,21,5,Chinese,f,3,0.3,26.24562162,0.15379293
LX,33,0,2024-06-14T09:20:11.181Z,english_947.wav,0,0,418,21,5,Chinese,f,4,0.4,54.40237068,1.01827888
LX,33,0,2024-06-14T09:20:11.181Z,english_947.wav,0,0,418,21,5,Chinese,f,5,0.5,40.82679184,1.47839937
LX,33,0,2024-06-14T09:20:11.181Z,english_947.wav,0,0,418,21,5,Chinese,f,6,0.6,77.31299723,1.20847868
LX,33,0,2024-06-14T09:20:11.181Z,english_947.wav,0,0,418,21,5,Chinese,f,7,0.7,1.15315344,0.14564675
LX,33,0,2024-06-14T09:20:11.181Z,english_947.wav,0,0,418,21,5,Chinese,f,8,0.8,73.19645095,0.87070751
LX,33,0,2024-06-14T09:20:11.181Z,english_947.wav,0,0,418,21,5,Chinese,f,9,0.9,6.20643858,0.13653501
LX,33,0,2024-06-14T09:20:11.181Z,english_947.wav,0,0,418,21,5,Chinese,f,10,1,28.66234598,0.34449422
LX,33,0,2024-06-14T09:20:11.181Z,english_947.wav,0,0,418,21,5,Chinese,f,11,1.09391667,7.34981137,1.34190112
LX,34,0,2024-06-14T09:20:11.181Z,english_872.wav,0,1,438,21,5,Chinese,f,0,0,-4.42672904,1.38946162
LX,34,0,2024-06-14T09:20:11.181Z,english_872.wav,0,1,438,21,5,Chinese,f,1,0.1,-45.54953548,1.85362479
LX,34,0,2024-06-14T09:20:11.181Z,english_872.wav,0,1,438,21,5,Chinese,f,2,0.2,61.94236328,1.40120351
LX,34,0,2024-06-14T09:20:11.181Z,english_872.wav,0,1,438,21,5,Chinese,f,3,0.3,-6.76881519,0.73681545
LX,34,0,2024-06-14T09:20:11.181Z,english_872.wav,0,1,438,21,5,Chinese,f,4,0.4,70.60925321,1.34579028
LX,34,0,2024-06-14T09:20:11.181Z,english_872.wav,0,1,438,21,5,Chinese,f,5,0.5,61.83462206,0.03433947
LX,34,0,2024-06-14T09:20:11.181Z,english_872.wav,0,1,438,21,5,Chinese,f,6,0.6,80.97898291,0.00901878
LX,34,0,2024-06-14T09:20:11.181Z,english_872.wav,0,1,438,21,5,Chinese,f,7,0.7,85.22540412,0.90232531
LX,34,0,2024-06-14T09:20:11.181Z,english_872.wav,0,1,438,21,5,Chinese,f,8,0.8,0.99054443,1.1650967
LX,34,0,2024-06-14T09:20:11.181Z,english_872.wav,0,1,438,21,5,Chinese,f,9,0.9,4.65362218,1.94757047
LX,34,0,2024-06-14T09:20:11.181Z,english_872.wav,0,1,438,21,5,Chinese,f,10,1,-50.74375514,1.11012852
LX,34,0,2024-06-14T09:20:11.181Z,english_872.wav,0,1,438,21,5,Chinese,f,11,1.09391667,-72.71002663,1.91238116
LX,35,0,2024-06-14T09:20:11.181Z,english_515.wav,0,0,291,21,5,Chinese,f,0,0,-58.23176372,1.22843541
LX,35,0,2024-06-14T09:20:11.181Z,english_515.wav,0,0,291,21,5,Chinese,f,1,0.1,-76.45173976,1.63015901
LX,35,0,2024-06-14T09:20:11.181Z,english_515.wav,0,0,291,21,5,Chinese,f,2,0.2,25.49902523,1.20813881
LX,35,0,2024-06-14T09:20:11.181Z,english_515.wav,0,0,291,21,5,Chinese,f,3,0.3,5.27103545,0.47612476
LX,35,0,2024-06-14T09:20:11.181Z,english_515.wav,0,0,291,21,5,Chinese,f,4,0.4,-41.64983344,0.26545174
LX,35,0,2024-06-14T09:20:11.181Z,english_515.wav,0,0,291,21,5,Chinese,f,5,0.5,-51.29888172,1.8557412
LX,35,0,2024-06-14T09:20:11.181Z,english_515.wav,0,0,291,21,5,Chinese,f,6,0.6,65.36966432,0.81547092
LX,35,0,2024-06-14T09:20:11.181Z,english_515.wav,0,0,291,21,5,Chinese,f,7,0.7,-56.17839976,1.63185656
LX,35,0,2024-06-14T09:20:11.181Z,english_515.wav,0,0,291,21,5,Chinese,f,8,0.8,-12.23547481,0.09263004
LX,35,0,2024-06-14T09:20:11.181Z,english_515.wav,0,0,291,21,5,Chinese,f,9,0.9,-89.1418522,1.76127396
LX,35,0,2024-06-14T09:20:11.181Z,english_515.wav,0,0,291,21,5,Chinese,f,10,1,8.96872742,0.57224671
LX,35,0,2024-06-14T09:20:11.181Z,english_515.wav,0,0,291,21,5,Chinese,f,11,1.09391667,-18.30503433,1.26155121
LX,36,0,2024-06-14T09:20:11.181Z,english_659.wav,0,1,1440,21,5,Chinese,f,0,0,-42.73609053,0.70277484
LX,36,0,2024-06-14T09:20:11.181Z,english_659.wav,0,1,1440,21,5,Chinese,f,1,0.1,-54.26462218,1.15657561
LX,36,0,2024-06-14T09:20:11.181Z,english_659.wav,0,1,1440,21,5,Chinese,f,2,0.2,4.14591437,0.91169634
LX,36,0,2024-06-14T09:20:11.181Z,english_659.wav,0,1,1440,21,5,Chinese,f,3,0.3,27.62308209,0.71232504
LX,36,0,2024-06-14T09:20:11.181Z,english_659.wav,0,1,1440,21,5,Chinese,f,4,0.4,38.57198708,1.23589102
LX,36,0,2024-06-14T09:20:11.181Z,english_659.wav,0,1,1440,21,5,Chinese,f,5,0.5,80.21422515,0.15679007
LX,36,0,2024-06-14T09:20:11.181Z,english_659.wav,0,1,1440,21,5,Chinese,f,6,0.6,73.99870372,0.18969614
LX,36,0,2024-06-14T09:20:11.181Z,english_659.wav,0,1,1440,21,5,Chinese,f,7,0.7,-75.83334389,0.50055959
LX,36,0,2024-06-14T09:20:11.181Z,english_659.wav,0,1,1440,21,5,Chinese,f,8,0.8,62.20160473,1.57461742
LX,36,0,2024-06-14T09:20:11.181Z,english_659.wav,0,1,1440,21,5,Chinese,f,9,0.9,4.13787027,1.20431491
LX,36,0,2024-06-14T09:20:11.181Z,english_659.wav,0,1,1440,21,5,Chinese,f,10,1,54.01825885,1.24355935
LX,36,0,2024-06-14T09:20:11.181Z,english_659.wav,0,1,1440,21,5,Chinese,f,11,1.09391667,93.31828501,1.36043281
LX,37,0,2024-06-14T09:20:11.181Z,english_804.wav,0,0,393,21,5,Chinese,f,0,0,12.60054447,1.79447267
LX,37,0,2024-06-14T09:20:11.181Z,english_804.wav,0,0,393,21,5,Chinese,f,1,0.1,-24.04730937,0.19342468
LX,37,0,2024-06-14T09:20:11.181Z,english_804.wav,0,0,393,21,5,Chinese,f,2,0.2,-96.55390316,1.90657737
LX,37,0,2024-06-14T09:20:11.181Z,english_804.wav,0,0,393,21,5,Chinese,f,3,0.3,-0.0991441,0.96962123
LX,37,0,2024-06-14T09:20:11.181Z,english_804.wav,0,0,393,21,5,Chinese,f,4,0.4,-4.22567636,1.3580225
LX,37,0,2024-06-14T09:20:11.181Z,english_804.wav,0,0,393,21,5,Chinese,f,5,0.5,70.60990728,1.75244202
LX,37,0,2024-06-14T09:20:11.181Z,english_804.wav,0,0,393,21,5,Chinese,f,6,0.6,-70.63369163,1.0415074
LX,37,0,2024-06-14T09:20:11.181Z,english_804.wav,0,0,393,21,5,Chinese,f,7,0.7,9.74055236,0.51929492
LX,37,0,2024-06-14T09:20:11.181Z,english_804.wav,0,0,393,21,5,Chinese,f,8,0.8,30.38077192,0.12110661
LX,37,0,2024-06-14T09:20:11.181Z,english_804.wav,0,0,393,21,5,Chinese,f,9,0.9,-59.11296325,0.62938559
LX,37,0,2024-06-14T09:20:11.181Z,english_804.wav,0,0,393,21,5,Chinese,f,10,1,43.99527933,1.09820629
LX,37,0,2024-06-14T09:20:11.181Z,english_804.wav,0,0,393,21,5,Chinese,f,11,1.09391667,50.55732952,0.96550638
LX,38,0,2024-06-14T09:20:11.181Z,english_821.wav,0,1,183,21,5,Chinese,f,0,0,60.02897282,0.81118736
LX,38,0,2024-06-14T09:20:11.181Z,english_821.wav,0,1,183,21,5,Chinese,f,1,0.1,-31.71016541,1.4887669
LX,38,0,2024-06-14T09:20:11.181Z,english_821.wav,0,1,183,21,5,Chinese,f,2,0.2,65.3097336,0.65578563
LX,38,0,2024-06-14T09:20:11.181Z,english_821.wav,0,1,183,21,5,Chinese,f,3,0.3,39.90488009,0.99843063
LX,38,0,2024-06-14T09:20:11.181Z,english_821.wav,0,1,183,21,5,Chinese,f,4,0.4,65.66520818,0.54862628
LX,38,0,2024-06-14T09:20:11.181Z,english_821.wav,0,1,183,21,5,Chinese,f,5,0.5,-73.56912207,0.9620802
LX,38,0,2024-06-14T09:20:11.181Z,english_821.wav,0,1,183,21,5,Chinese,f,6,0.6,0.74999233,1.96570853
LX,38,0,2024-06-14T09:20:11.181Z,english_821.wav,0,1,183,21,5,Chinese,f,7,0.7,64.12769535,1.86660776
LX,38,0,2024-06-14T09:20:11.181Z,english_821.wav,0,1,183,21,5,Chinese,f,8,0.8,-79.18665898,0.48590566
LX,38,0,2024-06-14T09:20:11.181Z,english_821.wav,0,1,183,21,5,Chinese,f,9,0.9,-84.62050136,1.1315153
LX,38,0,2024-06-14T09:20:11.181Z,english_821.wav,0,1,183,21,5,Chinese,f,10,1,99.19624858,1.62744853
LX,38,0,2024-06-14T09:20:11.181Z,english_821.wav,0,1,183,21,5,Chinese,f,11,1.09391667,71.58670695,1.94836872
LX,39,0,2024-06-14T09:20:11.181Z,english_940.wav,0,1,312,21,5,Chinese,f,0,0,-74.78707904,1.32849745
LX,39,0,2024-06-14T09:20:11.181Z,english_940.wav,0,1,312,21,5,Chinese,f,1,0.1,-17.41948052,0.12464251
LX,39,0,2024-06-14T09:20:11.181Z,english_940.wav,0,1,312,21,5,Chinese,f,2,0.2,18.32757183,1.60919877
LX,39,0,2024-06-14T09:20:11.181Z,english_940.wav,0,1,312,21,5,Chinese,f,3,0.3,49.59676146,1.26515186
LX,39,0,2024-06-14T09:20:11.181Z,english_940.wav,0,1,312,21,5,Chinese,f,4,0.4,89.11302511,0.36425632
LX,39,0,2024-06-14T09:20:11.181Z,english_940.wav,0,1,312,21,5,Chinese,f,5,0.5,-54.90271493,0.18773625
LX,39,0,2024-06-14T09:20:11.181Z,english_940.wav,0,1,312,21,5,Chinese,f,6,0.6,5.52128104,1.95544511
LX,39,0,2024-06-14T09:20:11.181Z,english_940.wav,0,1,312,21,5,Chinese,f,7,0.7,6.34300122,0.05018426
LX,39,0,2024-06-14T09:20:11.181Z,english_940.wav,0,1,312,21,5,Chinese,f,8,0.8,-52.23900499,0.91238744
LX,39,0,2024-06-14T09:20:11.181Z,english_940.wav,0,1,312,21,5,Chinese,f,9,0.9,-91.70083374,1.89571163
LX,39,0,2024-06-14T09:20:11.181Z,english_940.wav,0,1,312,21,5,Chinese,f,10,1,-59.86037194,1.52579837
LX,39,0,2024-06-14T09:20:11.181Z,english_940.wav,0,1,312,21,5,Chinese,f,11,1.09391667,44.21269836,0.42550386
LX,40,0,2024-06-14T09:20:11.181Z,english_658.wav,0,1,168,21,5,Chinese,f,0,0,28.12480694,0.12118838
LX,40,0,2024-06-14T09:20:11.181Z,english_658.wav,0,1,168,21,5,Chinese,f,1,0.1,17.57040955,1.52191588
LX,40,0,2024-06-14T09:20:11.181Z,english_658.wav,0,1,168,21,5,Chinese,f,2,0.2,57.56255577,1.14331833
LX,40,0,2024-06-14T09:20:11.181Z,english_658.wav,0,1,168,21,5,Chinese,f,3,0.3,-3.0966162,0.60390633
LX,40,0,2024-06-14T09:20:11.181Z,english_658.wav,0,1,168,21,5,Chinese,f,4,0.4,6.39522781,0.27160458
LX,40,0,2024-06-14T09:20:11.181Z,english_658.wav,0,1,168,21,5,Chinese,f,5,0.5,16.02438064,0.17957329
LX,40,0,2024-06-14T09:20:11.181Z,english_658.wav,0,1,168,21,5,Chinese,f,6,0.6,-1.20192687,0.27771517
LX,40,0,2024-06-14T09:20:11.181Z,english_658.wav,0,1,168,21,5,Chinese,f,7,0.7,-8.08463242,0.60605354
LX,40,0,2024-06-14T09:20:11.181Z,english_658.wav,0,1,168,21,5,Chinese,f,8,0.8,-12.30429445,1.71812783
LX,40,0,2024-06-14T09:20:11.181Z,english_658.wav,0,1,168,21,5,Chinese,f,9,0.9,-0.5409395,0.55654772
LX,40,0,2024-06-14T09:20:11.181Z,english_658.wav,0,1,168,21,5,Chinese,f,10,1,25.97570406,1.53064605
LX,40,0,2024-06-14T09:20:11.181Z,english_658.wav,0,1,168,21,5,Chinese,f,11,1.09391667,75.76475536,1.32831885
LX,41,0,2024-06-14T09:20:11.181Z,english_463.wav,0,1,62,21,5,Chinese,f,0,0,10.50801154,1.17811947
LX,41,0,2024-06-14T09:20:11.181Z,english_463.wav,0,1,62,21,5,Chinese,f,1,0.1,53.01075337,0.17767022
LX,41,0,2024-06-14T09:20:11.181Z,english_463.wav,0,1,62,21,5,Chinese,f,2,0.2,-45.92576003,0.48691175
LX,41,0,2024-06-14T09:20:11.181Z,english_463.wav,0,1,62,21,5,Chinese,f,3,0.3,19.52430908,0.61421231
LX,41,0,2024-06-14T09:20:11.181Z,english_463.wav,0,1,62,21,5,Chinese,f,4,0.4,-49.30728031,1.08242916
LX,41,0,2024-06-14T09:20:11.181Z,english_463.wav,0,1,62,21,5,Chinese,f,5,0.5,14.12996474,0.36464212
LX,41,0,2024-06-14T09:20:11.181Z,english_463.wav,0,1,62,21,5,Chinese,f,6,0.6,-38.56124135,1.11640778
LX,41,0,2024-06-14T09:20:11.181Z,english_463.wav,0,1,62,21,5,Chinese,f,7,0.7,60.51994471,0.46617429
LX,41,0,2024-06-14T09:20:11.181Z,english_463.wav,0,1,62,21,5,Chinese,f,8,0.8,-80.92150268,1.24207175
LX,41,0,2024-06-14T09:20:11.181Z,english_463.wav,0,1,62,21,5,Chinese,f,9,0.9,77.91302957,1.740718
LX,41,0,2024-06-14T09:20:11.181Z,english_463.wav,0,1,62,21,5,Chinese,f,10,1,-17.96219129,0.97634615
LX,41,0,2024-06-14T09:20:11.181Z,english_463.wav,0,1,62,21,5,Chinese,f,11,1.09391667,-4.0549477,0.84642764
LX,42,0,2024-06-14T09:20:11.181Z,english_229.wav,0,0,88,21,5,Chinese,f,0,0,-79.04304689,0.75524208
LX,42,0,2024-06-14T09:20:11.181Z,english_229.wav,0,0,88,21,5,Chinese,f,1,0.1,-33.27907889,1.36191913
LX,42,0,2024-06-14T09:20:11.181Z,english_229.wav,0,0,88,21,5,Chinese,f,2,0.2,-48.38559405,0.27826927
LX,42,0,2024-06-14T09:20:11.181Z,english_229.wav,0,0,88,21,5,Chinese,f,3,0.3,-41.35801628,1.07720363
LX,42,0,2024-06-14T09:20:11.181Z,english_229.wav,0,0,88,21,5,Chinese,f,4,0.4,-26.02502446,1.01002639
LX,42,0,2024-06-14T09:20:11.181Z,english_229.wav,0,0,88,21,5,Chinese,f,5,0.5,13.55019155,0.44849721
LX,42,0,2024-06-14T09:20:11.181Z,english_229.wav,0,0,88,21,5,Chinese,f,6,0.6,18.26415136,0.65469054
LX,42,0,2024-06-14T09:20:11.181Z,english_229.wav,0,0,88,21,5,Chinese,f,7,0.7,-44.56995302,0.24060095
LX,42,0,2024-06-14T09:20:11.181Z,english_229.wav,0,0,88,21,5,Chinese,f,8,0.8,9.70532855,1.46400581
LX,42,0,2024-06-14T09:20:11.181Z,english_229.wav,0,0,88,21,5,Chinese,f,9,0.9,-87.31769778,0.19595273
LX,42,0,2024-06-14T09:20:11.181Z,english_229.wav,0,0,88,21,5,Chinese,f,10,1,71.16611241,1.05591567
LX,42,0,2024-06-14T09:20:11.181Z,english_229.wav,0,0,88,21,5,Chinese,f,11,1.09391667,-73.56487105,1.79159402
LX,43,0,2024-06-14T09:20:11.181Z,english_798.wav,0,1,407,21,5,Chinese,f,0,0,-67.02841194,0.33593724
LX,43,0,2024-06-14T09:20:11.181Z,english_798.wav,0,1,407,21,5,Chinese,f,1,0.1,-61.53416047,1.45592665
LX,43,0,2024-06-14T09:20:11.181Z,english_798.wav,0,1,407,21,5,Chinese,f,2,0.2,58.59657868,0.89843982
LX,43,0,2024-06-14T09:20:11.181Z,english_798.wav,0,1,407,21,5,Chinese,f,3,0.3,29.19204806,0.82315135
LX,43,0,2024-06-14T09:20:11.181Z,english_798.wav,0,1,407,21,5,Chinese,f,4,0.4,23.45650743,1.88697526
LX,43,0,2024-06-14T09:20:11.181Z,english_798.wav,0,1,407,21,5,Chinese,f,5,0.5,68.99571545,0.96876146
LX,43,0,2024-06-14T09:20:11.181Z,english_798.wav,0,1,407,21,5,Chinese,f,6,0.6,-55.06633408,0.51998357
LX,43,0,2024-06-14T09:20:11.181Z,english_798.wav,0,1,407,21,5,Chinese,f,7,0.7,-84.88813755,0.83848957
LX,43,0,2024-06-14T09:20:11.181Z,english_798.wav,0,1,407,21,5,Chinese,f,8,0.8,-86.25019985,0.75519813
LX,43,0,2024-06-14T09:20:11.181Z,english_798.wav,0,1,407,21,5,Chinese,f,9,0.9,32.09324542,0.08799146
LX,43,0,2024-06-14T09:20:11.181Z,english_798.wav,0,1,407,21,5,Chinese,f,10,1,-18.86097807,1.1327065
LX,43,0,2024-06-14T09:20:11.181Z,english_798.wav,0,1,407,21,5,Chinese,f,11,1.09391667,-0.34975855,0.30601278
LX,44,0,2024-06-14T09:20:11.181Z,english_605.wav,0,1,532,21,5,Chinese,f,0,0,-8.49945262,0.18632105
LX,44,0,2024-06-14T09:20:11.181Z,english_605.wav,0,1,532,21,5,Chinese,f,1,0.1,78.59318703,0.57386106
LX,44,0,2024-06-14T09:20:11.181Z,english_605.wav,0,1,532,21,5,Chinese,f,2,0.2,5.51226276,1.08904108
LX,44,0,2024-06-14T09:20:11.181Z,english_605.wav,0,1,532,21,5,Chinese,f,3,0.3,-57.71623977,1.06659478
LX,44,0,2024-06-14T09:20:11.181Z,english_605.wav,0,1,532,21,5,Chinese,f,4,0.4,-16.40155513,1.07197466
LX,44,0,2024-06-14T09:20:11.181Z,english_605.wav,0,1,532,21,5,Chinese,f,5,0.5,65.3464243,0.99856442
LX,44,0,2024-06-14T09:20:11.181Z,english_605.wav,0,1,532,21,5,Chinese,f,6,0.6,75.43847502,1.20108487
LX,44,0,2024-06-14T09:20:11.181Z,english_605.wav,0,1,532,21,5,Chinese,f,7,0.7,-23.5169708,0.82408686
LX,44,0,2024-06-14T09:20:11.181Z,english_605.wav,0,1,532,21,5,Chinese,f,8,0.8,90.90480097,1.4403859
LX,44,0,2024-06-14T09:20:11.181Z,english_605.wav,0,1,532,21,5,Chinese,f,9,0.9,2.3218264,1.38639998
LX,44,0,2024-06-14T09:20:11.181Z,english_605.wav,0,1,532,21,5,Chinese,f,10,1,-54.16543883,0.92793051
LX,44,0,2024-06-14T09:20:11.181Z,english_605.wav,0,1,532,21,5,Chinese,f,11,1.09391667,-30.94766284,1.95794577
LX,45,0,2024-06-14T09:20:11.181Z,english_312.wav,0,1,494,21,5,Chinese,f,0,0,-44.20026349,0.70172327
LX,45,0,2024-06-14T09:20:11.181Z,english_312.wav,0,1,494,21,5,Chinese,f,1,0.1,37.14552062,1.15664492
LX,45,0,2024-06-14T09:20:11.181Z,english_312.wav,0,1,494,21,5,Chinese,f,2,0.2,18.3582365,0.90621855
LX,45,0,2024-06-14T09:20:11.181Z,english_312.wav,0,1,494,21,5,Chinese,f,3,0.3,77.7774411,1.08976836
LX,45,0,2024-06-14T09:20:11.181Z,english_312.wav,0,1,494,21,5,Chinese,f,4,0.4,-78.31932482,1.02467386
LX,45,0,2024-06-14T09:20:11.181Z,english_312.wav,0,1,494,21,5,Chinese,f,5,0.5,-58.95150344,0.3820111
LX,45,0,2024-06-14T09:20:11.181Z,english_312.wav,0,1,494,21,5,Chinese,f,6,0.6,89.34504931,1.09647863
LX,45,0,2024-06-14T09:20:11.181Z,english_312.wav,0,1,494,21,5,Chinese,f,7,0.7,88.15541314,1.49721146
LX,45,0,2024-06-14T09:20:11.181Z,english_312.wav,0,1,494,21,5,Chinese,f,8,0.8,-8.94977512,1.78917626
LX,45,0,2024-06-14T09:20:11.181Z,english_312.wav,0,1,494,21,5,Chinese,f,9,0.9,-51.17539316,0.56099976
LX,45,0,2024-06-14T09:20:11.181Z,english_312.wav,0,1,494,21,5,Chinese,f,10,1,-56.97812864,1.16855683
LX,45,0,2024-06-14T09:20:11.181Z,english_312.wav,0,1,494,21,5,Chinese,f,11,1.09391667,78.26932654,0.99548906
LX,46,0,2024-06-14T09:20:11.181Z,english_271.wav,0,1,794,21,5,Chinese,f,0,0,83.54860051,1.23852779
LX,46,0,2024-06-14T09:20:11.181Z,english_271.wav,0,1,794,21,5,Chinese,f,1,0.1,-11.78692869,0.5617939
LX,46,0,2024-06-14T09:20:11.181Z,english_271.wav,0,1,794,21,5,Chinese,f,2,0.2,-93.59093408,1.03672554
LX,46,0,2024-06-14T09:20:11.181Z,english_271.wav,0,1,794,21,5,Chinese,f,3,0.3,53.60258666,1.7849895
LX,46,0,2024-06-14T09:20:11.181Z,english_271.wav,0,1,794,21,5,Chinese,f,4,0.4,-66.08364726,0.3533195
LX,46,0,2024-06-14T09:20:11.181Z,english_271.wav,0,1,794,21,5,Chinese,f,5,0.5,94.15354622,1.03785323
LX,46,0,2024-06-14T09:20:11.181Z,english_271.wav,0,1,794,21,5,Chinese,f,6,0.6,24.82086802,0.33969939
LX,46,0,2024-06-14T09:20:11.181Z,english_271.wav,0,1,794,21,5,Chinese,f,7,0.7,-91.87331613,1.93991394
LX,46,0,2024-06-14T09:20:11.181Z,english_271.wav,0,1,794,21,5,Chinese,f,8,0.8,94.31312055,1.07242572
LX,46,0,2024-06-14T09:20:11.181Z,english_271.wav,0,1,794,21,5,Chinese,f,9,0.9,-76.94840956,0.17124333
LX,46,0,2024-06-14T09:20:11.181Z,english_271.wav,0,1,794,21,5,Chinese,f,10,1,10.84106531,1.85218062
LX,46,0,2024-06-14T09:20:11.181Z,english_271.wav,0,1,794,21,5,Chinese,f,11,1.09391667,74.33271623,0.80828121
LX,47,0,2024-06-14T09:20:11.181Z,english_502.wav,0,1,263,21,5,Chinese,f,0,0,57.69639955,1.15234611
LX,47,0,2024-06-14T09:20:11.181Z,english_502.wav,0,1,263,21,5,Chinese,f,1,0.1,28.96096349,1.67970143
LX,47,0,2024-06-14T09:20:11.181Z,english_502.wav,0,1,263,21,5,Chinese,f,2,0.2,-5.93680221,0.71376986
LX,47,0,2024-06-14T09:20:11.181Z,english_502.wav,0,1,263,21,5,Chinese,f,3,0.3,-9.12517159,0.49125702
LX,47,0,2024-06-14T09:20:11.181Z,english_502.wav,0,1,263,21,5,Chinese,f,4,0.4,44.04961264,0.39874308
LX,47,0,2024-06-14T09:20:11.181Z,english_502.wav,0,1,263,21,5,Chinese,f,5,0.5,84.4955788,0.1440426
LX,47,0,2024-06-14T09:20:11.181Z,english_502.wav,0,1,263,21,5,Chinese,f,6,0.6,97.09857183,1.53167879
LX,47,0,2024-06-14T09:20:11.181Z,english_502.wav,0,1,263,21,5,Chinese,f,7,0.7,99.13853902,1.52730171
LX,47,0,2024-06-14T09:20:11.181Z,english_502.wav,0,1,263,21,5,Chinese,f,8,0.8,91.26297662,0.65970293
LX,47,0,2024-06-14T09:20:11.181Z,english_502.wav,0,1,263,21,5,Chinese,f,9,0.9,17.95296758,0.91797137
LX,47,0,2024-06-14T09:20:11.181Z,english_502.wav,0,1,263,21,5,Chinese,f,10,1,-98.67508596,1.57983796
LX,47,0,2024-06-14T09:20:11.181Z,english_502.wav,0,1,263,21,5,Chinese,f,11,1.09391667,-78.95703283,0.77767597
LX,48,0,2024-06-14T09:20:11.181Z,english_77.wav,0,1,4582,21,5,Chinese,f,0,0,14.85901356,0.93801636
LX,48,0,2024-06-14T09:20:11.181Z,english_77.wav,0,1,4582,21,5,Chinese,f,1,0.1,-14.38598058,1.78480039
LX,48,0,2024-06-14T09:20:11.181Z,english_77.wav,0,1,4582,21,5,Chinese,f,2,0.2,-43.69728494,1.59819809
LX,48,0,2024-06-14T09:20:11.181Z,english_77.wav,0,1,4582,21,5,Chinese,f,3,0.3,-19.24854373,0.89560743
LX,48,0,2024-06-14T09:20:11.181Z,english_77.wav,0,1,4582,21,5,Chinese,f,4,0.4,4.73942442,0.68128783
LX,48,0,2024-06-14T09:20:11.181Z,english_77.wav,0,1,4582,21,5,Chinese,f,5,0.5,6.08734895,1.19225119
LX,48,0,2024-06-14T09:20:11.181Z,english_77.wav,0,1,4582,21,5,Chinese,f,6,0.6,2.07981921,1.49267812
LX,48,0,2024-06-14T09:20:11.181Z,english_77.wav,0,1,4582,21,5,Chinese,f,7,0.7,-3.22152689,1.83354621
LX,48,0,2024-06-14T09:20:11.181Z,english_77.wav,0,1,4582,21,5,Chinese,f,8,0.8,-81.97912938,0.65715704
LX,48,0,2024-06-14T09:20:11.181Z,english_77.wav,0,1,4582,21,5,Chinese,f,9,0.9,9.14807536,1.29592629
LX,48,0,2024-06-14T09:20:11.181Z,english_77.wav,0,1,4582,21,5,Chinese,f,10,1,-30.52937586,1.03409297
LX,48,0,2024-06-14T09:20:11.181Z,english_77.wav,0,1,4582,21,5,Chinese,f,11,1.09391667,17.14336326,1.45456337
LX,49,0,2024-06-14T09:20:11.181Z,english_351.wav,0,1,1245,21,5,Chinese,f,0,0,-19.65986015,1.42460204
LX,49,0,2024-06-14T09:20:11.181Z,english_351.wav,0,1,1245,21,5,Chinese,f,1,0.1,73.58710044,0.00643347
LX,49,0,2024-06-14T09:20:11.181Z,english_351.wav,0,1,1245,21,5,Chinese,f,2,0.2,74.12275499,0.97495265
LX,49,0,2024-06-14T09:20:11.181Z,english_351.wav,0,1,1245,21,5,Chinese,f,3,0.3,-24.45683786,0.52137616
LX,49,0,2024-06-14T09:20:11.181Z,english_351.wav,0,1,1245,21,5,Chinese,f,4,0.4,21.01511918,1.11946487
LX,49,0,2024-06-14T09:20:11.181Z,english_351.wav,0,1,1245,21,5,Chinese,f,5,0.5,55.7456538,0.33788576
LX,49,0,2024-06-14T09:20:11.181Z,english_351.wav,0,1,1245,21,5,Chinese,f,6,0.6,54.50583955,1.25361851
LX,49,0,2024-06-14T09:20:11.181Z,english_351.wav,0,1,1245,21,5,Chinese,f,7,0.7,74.68230433,1.43767459
LX,49,0,2024-06-14T09:20:11.181Z,english_351.wav,0,1,1245,21,5,Chinese,f,8,0.8,-93.39577551,0.08040705
LX,49,0,2024-06-14T09:20:11.181Z,english_351.wav,0,1,1245,21,5,Chinese,f,9,0.9,89.8823857,0.01025875
LX,49,0,2024-06-14T09:20:11.181Z,english_351.wav,0,1,1245,21,5,Chinese,f,10,1,82.37960735,0.65117528
LX,49,0,2024-06-14T09:20:11.181Z,english_351.wav,0,1,1245,21,5,Chinese,f,11,1.09391667,-9.15420485,0.78690639
LX,50,1,2024-06-14T09:20:11.181Z,english_132.wav,0,0,1215,21,5,Chinese,f,0,0,0.80878803,1.8484575
LX,50,1,2024-06-14T09:20:11.181Z,english_132.wav,0,0,1215,21,5,Chinese,f,1,0.1,-89.46369243,0.19659267
LX,50,1,2024-06-14T09:20:11.181Z,english_132.wav,0,0,1215,21,5,Chinese,f,2,0.2,-42.02740452,0.98704764
LX,50,1,2024-06-14T09:20:11.181Z,english_132.wav,0,0,1215,21,5,Chinese,f,3,0.3,-31.54071999,0.90975168
LX,50,1,2024-06-14T09:20:11.181Z,english_132.wav,0,0,1215,21,5,Chinese,f,4,0.4,0.25010778,1.48690857
LX,50,1,2024-06-14T09:20:11.181Z,english_132.wav,0,0,1215,21,5,Chinese,f,5,0.5,58.11815913,1.16973021
LX,50,1,2024-06-14T09:20:11.181Z,english_132.wav,0,0,1215,21,5,Chinese,f,6,0.6,81.96461668,0.00206468
LX,50,1,2024-06-14T09:20:11.181Z,english_132.wav,0,0,1215,21,5,Chinese,f,7,0.7,-44.50191201,0.61136538
LX,50,1,2024-06-14T09:20:11.181Z,english_132.wav,0,0,1215,21,5,Chinese,f,8,0.8,-95.34081409,0.53595083
LX,50,1,2024-06-14T09:20:11.181Z,english_132.wav,0,0,1215,21,5,Chinese,f,9,0.9,-97.06518429,0.1294964
LX,50,1,2024-06-14T09:20:11.181Z,english_132.wav,0,0,1215,21,5,Chinese,f,10,1,9.04827132,0.71465456
LX,50,1,2024-06-14T09:20:11.181Z,english_132.wav,0,0,1215,21,5,Chinese,f,11,1.09391667,76.3058936,0.51987053
LX,51,1,2024-06-14T09:20:11.181Z,english_524.wav,0,1,191,21,5,Chinese,f,0,0,-30.25985822,0.34793973
LX,51,1,2024-06-14T09:20:11.181Z,english_524.wav,0,1,191,21,5,Chinese,f,1,0.1,-25.72639464,1.18810863
LX,51,1,2024-06-14T09:20:11.181Z,english_524.wav,0,1,191,21,5,Chinese,f,2,0.2,-19.31311579,0.08692409
LX,51,1,2024-06-14T09:20:11.181Z,english_524.wav,0,1,191,21,5,Chinese,f,3,0.3,75.52996736,0.42169144
LX,51,1,2024-06-14T09:20:11.181Z,english_524.wav,0,1,191,21,5,Chinese,f,4,0.4,95.21234869,0.91790301
LX,51,1,2024-06-14T09:20:11.181Z,english_524.wav,0,1,191,21,5,Chinese,f,5,0.5,-71.1057772,1.60079155
LX,51,1,2024-06-14T09:20:11.181Z,english_524.wav,0,1,191,21,5,Chinese,f,6,0.6,-19.64273872,0.41126457
LX,51,1,2024-06-14T09:20:11.181Z,english_524.wav,0,1,191,21,5,Chinese,f,7,0.7,-1.31214815,0.20209882
LX,51,1,2024-06-14T09:20:11.181Z,english_524.wav,0,1,191,21,5,Chinese,f,8,0.8,64.64076703,1.03575809
LX,51,1,2024-06-14T09:20:11.181Z,english_524.wav,0,1,191,21,5,Chinese,f,9,0.9,-18.69724377,0.43486471
LX,51,1,2024-06-14T09:20:11.181Z,english_524.wav,0,1,191,21,5,Chinese,f,10,1,-40.5043492,0.51132712
LX,51,1,2024-06-14T09:20:11.181Z,english_524.wav,0,1,191,21,5,Chinese,f,11,1.09391667,-72.71091187,0.92380924
LX,52,1,2024-06-14T09:20:11.181Z,english_459.wav,0,1,57,21,5,Chinese,f,0,0,18.44381796,0.62620118
LX,52,1,2024-06-14T09:20:11.181Z,english_459.wav,0,1,57,21,5,Chinese,f,1,0.1,46.92875809,1.02677372
LX,52,1,2024-06-14T09:20:11.181Z,english_459.wav,0,1,57,21,5,Chinese,f,2,0.2,-3.83763253,0.887778
LX,52,1,2024-06-14T09:20:11.181Z,english_459.wav,0,1,57,21,5,Chinese,f,3,0.3,-48.73372346,0.9749461
LX,52,1,2024-06-14T09:20:11.181Z,english_459.wav,0,1,57,21,5,Chinese,f,4,0.4,-14.92000294,0.21389959
LX,52,1,2024-06-14T09:20:11.181Z,english_459.wav,0,1,57,21,5,Chinese,f,5,0.5,80.1348202,0.5331643
LX,52,1,2024-06-14T09:20:11.181Z,english_459.wav,0,1,57,21,5,Chinese,f,6,0.6,-86.26167397,0.89101651
LX,52,1,2024-06-14T09:20:11.181Z,english_459.wav,0,1,57,21,5,Chinese,f,7,0.7,-1.56579515,1.30262719
LX,52,1,2024-06-14T09:20:11.181Z,english_459.wav,0,1,57,21,5,Chinese,f,8,0.8,-19.43568929,1.62880583
LX,52,1,2024-06-14T09:20:11.181Z,english_459.wav,0,1,57,21,5,Chinese,f,9,0.9,7.94105636,1.73371658
LX,52,1,2024-06-14T09:20:11.181Z,english_459.wav,0,1,57,21,5,Chinese,f,10,1,85.15006258,0.16404372
LX,52,1,2024-06-14T09:20:11.181Z,english_459.wav,0,1,57,21,5,Chinese,f,11,1.09391667,-33.12026838,1.85143865
LX,53,1,2024-06-14T09:20:11.181Z,english_664.wav,0,1,309,21,5,Chinese,f,0,0,87.83799753,0.80622544
LX,53,1,2024-06-14T09:20:11.181Z,english_664.wav,0,1,309,21,5,Chinese,f,1,0.1,93.07880912,0.71131531
LX,53,1,2024-06-14T09:20:11.181Z,english_664.wav,0,1,309,21,5,Chinese,f,2,0.2,-21.43792859,0.52490717
LX,53,1,2024-06-14T09:20:11.181Z,english_664.wav,0,1,309,21,5,Chinese,f,3,0.3,54.61607152,0.79105774
LX,53,1,2024-06-14T09:20:11.181Z,english_664.wav,0,1,309,21,5,Chinese,f,4,0.4,63.53186125,0.74894626
LX,53,1,2024-06-14T09:20:11.181Z,english_664.wav,0,1,309,21,5,Chinese,f,5,0.5,69.57332079,0.96341942
LX,53,1,2024-06-14T09:20:11.181Z,english_664.wav,0,1,309,21,5,Chinese,f,6,0.6,-98.283012,0.12490453
LX,53,1,2024-06-14T09:20:11.181Z,english_664.wav,0,1,309,21,5,Chinese,f,7,0.7,3.96514961,1.772086
LX,53,1,2024-06-14T09:20:11.181Z,english_664.wav,0,1,309,21,5,Chinese,f,8,0.8,-68.49765079,1.2138043
LX,53,1,2024-06-14T09:20:11.181Z,english_664.wav,0,1,309,21,5,Chinese,f,9,0.9,22.71561052,1.03968333
LX,53,1,2024-06-14T09:20:11.181Z,english_664.wav,0,1,309,21,5,Chinese,f,10,1,62.92065682,1.01702127
LX,53,1,2024-06-14T09:20:11.181Z,english_664.wav,0,1,309,21,5,Chinese,f,11,1.09391667,7.64063367,1.88905221
LX,54,1,2024-06-14T09:20:11.181Z,english_969.wav,0,0,152,21,5,Chinese,f,0,0,29.09924348,1.53055803
LX,54,1,2024-06-14T09:20:11.181Z,english_969.wav,0,0,152,21,5,Chinese,f,1,0.1,-95.88090252,0.21771883
LX,54,1,2024-06-14T09:20:11.181Z,english_969.wav,0,0,152,21,5,Chinese,f,2,0.2,45.5103226,0.6895083
LX,54,1,2024-06-14T09:20:11.181Z,english_969.wav,0,0,152,21,5,Chinese,f,3,0.3,22.6688792,1.38165803
LX,54,1,2024-06-14T09:20:11.181Z,english_969.wav,0,0,152,21,5,Chinese,f,4,0.4,28.43861777,1.43845422
LX,54,1,2024-06-14T09:20:11.181Z,english_969.wav,0,0,152,21,5,Chinese,f,5,0.5,-64.30828006,1.41047112
LX,54,1,2024-06-14T09:20:11.181Z,english_969.wav,0,0,152,21,5,Chinese,f,6,0.6,-54.50431648,1.45510114
LX,54,1,2024-06-14T09:20:11.181Z,english_969.wav,0,0,152,21,5,Chinese,f,7,0.7,30.42451317,0.72825636
LX,54,1,2024-06-14T09:20:11.181Z,english_969.wav,0,0,152,21,5,Chinese,f,8,0.8,-91.90179979,1.35653581
LX,54,1,2024-06-14T09:20:11.181Z,english_969.wav,0,0,152,21,5,Chinese,f,9,0.9,4.36119227,1.06956255
LX,54,1,2024-06-14T09:20:11.181Z,english_969.wav,0,0,152,21,5,Chinese,f,10,1,-67.80457813,1.00621562
LX,54,1,2024-06-14T09:20:11.181Z,english_969.wav,0,0,152,21,5,Chinese,f,11,1.09391667,-80.8303423,1.05370229
LX,55,1,2024-06-14T09:20:11.181Z,english_560.wav,0,0,123,21,5,Chinese,f,0,0,-58.05020857,1.72720005
LX,55,1,2024-06-14T09:20:11.181Z,english_560.wav,0,0,123,21,5,Chinese,f,1,0.1,0.75359215,0.87170151
LX,55,1,2024-06-14T09:20:11.181Z,english_560.wav,0,0,123,21,5,Chinese,f,2,0.2,-63.0427696,1.11137899
LX,55,1,2024-06-14T09:20:11.181Z,english_560.wav,0,0,123,21,5,Chinese,f,3,0.3,-80.65695741,1.61210877
LX,55,1,2024-06-14T09:20:11.181Z,english_560.wav,0,0,123,21,5,Chinese,f,4,0.4,30.22073259,0.77402776
LX,55,1,2024-06-14T09:20:11.181Z,english_560.wav,0,0,123,21,5,Chinese,f,5,0.5,78.65082856,1.41240522
LX,55,1,2024-06-14T09:20:11.181Z,english_560.wav,0,0,123,21,5,Chinese,f,6,0.6,-21.87019315,1.5310865
LX,55,1,2024-06-14T09:20:11.181Z,english_560.wav,0,0,123,21,5,Chinese,f,7,0.7,-81.08775569,0.91259008
LX,55,1,2024-06-14T09:20:11.181Z,english_560.wav,0,0,123,21,5,Chinese,f,8,0.8,-85.95097006,0.61355253
LX,55,1,2024-06-14T09:20:11.181Z,english_560.wav,0,0,123,21,5,Chinese,f,9,0.9,55.61706947,0.53974683
LX,55,1,2024-06-14T09:20:11.181Z,english_560.wav,0,0,123,21,5,Chinese,f,10,1,78.8186599,1.30815579
LX,55,1,2024-06-14T09:20:11.181Z,english_560.wav,0,0,123,21,5,Chinese,f,11,1.09391667,-38.99290187,1.62027104
LX,56,1,2024-06-14T09:20:11.181Z,english_2.wav,0,1,1436,21,5,Chinese,f,0,0,41.22215969,0.59226954
LX,56,1,2024-06-14T09:20:11.181Z,english_2.wav,0,1,1436,21,5,Chinese,f,1,0.1,63.4325041,1.70689004
LX,56,1,2024-06-14T09:20:11.181Z,english_2.wav,0,1,1436,21,5,Chinese,f,2,0.2,30.26698033,1.70278764
LX,56,1,2024-06-14T09:20:11.181Z,english_2.wav,0,1,1436,21,5,Chinese,f,3,0.3,-42.97414703,0.93211278
LX,56,1,2024-06-14T09:20:11.181Z,english_2.wav,0,1,1436,21,5,Chinese,f,4,0.4,78.73420301,0.75985414
LX,56,1,2024-06-14T09:20:11.181Z,english_2.wav,0,1,1436,21,5,Chinese,f,5,0.5,98.07294335,1.00279357
LX,56,1,2024-06-14T09:20:11.181Z,english_2.wav,0,1,1436,21,5,Chinese,f,6,0.6,-11.43066233,1.68044469
LX,56,1,2024-06-14T09:20:11.181Z,english_2.wav,0,1,1436,21,5,Chinese,f,7,0.7,98.59484661,1.4408376
LX,56,1,2024-06-14T09:20:11.181Z,english_2.wav,0,1,1436,21,5,Chinese,f,8,0.8,5.98934189,0.34467269
LX,56,1,2024-06-14T09:20:11.181Z,english_2.wav,0,1,1436,21,5,Chinese,f,9,0.9,12.71998757,0.3933307
LX,56,1,2024-06-14T09:20:11.181Z,english_2.wav,0,1,1436,21,5,Chinese,f,10,1,80.81444137,0.30092676
LX,56,1,2024-06-14T09:20:11.181Z,english_2.wav,0,1,1436,21,5,Chinese,f,11,1.09391667,-65.72418196,0.87599386
LX,57,1,2024-06-14T09:20:11.181Z,english_667.wav,0,1,266,21,5,Chinese,f,0,0,-40.55421882,0.65900383
LX,57,1,2024-06-14T09:20:11.181Z,english_667.wav,0,1,266,21,5,Chinese,f,1,0.1,-4.36791553,1.32668807
LX,57,1,2024-06-14T09:20:11.181Z,english_667.wav,0,1,266,21,5,Chinese,f,2,0.2,-47.28306179,1.36801295
LX,57,1,2024-06-14T09:20:11.181Z,english_667.wav,0,1,266,21,5,Chinese,f,3,0.3,4.54742829,1.31909989
LX,57,1,2024-06-14T09:20:11.181Z,english_667.wav,0,1,266,21,5,Chinese,f,4,0.4,56.02469614,1.3880932
LX,57,1,2024-06-14T09:20:11.181Z,english_667.wav,0,1,266,21,5,Chinese,f,5,0.5,-1.96932384,1.04427425
LX,57,1,2024-06-14T09:20:11.181Z,english_667.wav,0,1,266,21,5,Chinese,f,6,0.6,5.19539512,1.75340959
LX,57,1,2024-06-14T09:20:11.181Z,english_667.wav,0,1,266,21,5,Chinese,f,7,0.7,-58.89384288,0.51778984
LX,57,1,2024-06-14T09:20:11.181Z,english_667.wav,0,1,266,21,5,Chinese,f,8,0.8,-23.79810438,1.0404646
LX,57,1,2024-06-14T09:20:11.181Z,english_667.wav,0,1,266,21,5,Chinese,f,9,0.9,98.84523473,0.97755594
LX,57,1,2024-06-14T09:20:11.181Z,english_667.wav,0,1,266,21,5,Chinese,f,10,1,7.14220046,0.3681696
LX,57,1,2024-06-14T09:20:11.181Z,english_667.wav,0,1,266,21,5,Chinese,f,11,1.09391667,-53.41190767,1.51620439
LX,58,1,2024-06-14T09:20:11.181Z,english_305.wav,0,1,261,21,5,Chinese,f,0,0,17.49267602,0.00977258
LX,58,1,2024-06-14T09:20:11.181Z,english_305.wav,0,1,261,21,5,Chinese,f,1,0.1,17.59035292,1.17585195
LX,58,1,2024-06-14T09:20:11.181Z,english_305.wav,0,1,261,21,5,Chinese,f,2,0.2,83.12376417,1.66932103
LX,58,1,2024-06-14T09:20:11.181Z,english_305.wav,0,1,261,21,5,Chinese,f,3,0.3,-81.59474703,0.83160233
LX,58,1,2024-06-14T09:20:11.181Z,english_305.wav,0,1,261,21,5,Chinese,f,4,0.4,-99.63264863,1.05024367
LX,58,1,2024-06-14T09:20:11.181Z,english_305.wav,0,1,261,21,5,Chinese,f,5,0.5,42.69289025,1.13369845
LX,58,1,2024-06-14T09:20:11.181Z,english_305.wav,0,1,261,21,5,Chinese,f,6,0.6,82.55548118,0.21867151
LX,58,1,2024-06-14T09:20:11.181Z,english_305.wav,0,1,261,21,5,Chinese,f,7,0.7,15.87479687,0.32447169
LX,58,1,2024-06-14T09:20:11.181Z,english_305.wav,0,1,261,21,5,Chinese,f,8,0.8,-15.6323718,1.86350195
LX,58,1,2024-06-14T09:20:11.181Z,english_305.wav,0,1,261,21,5,Chinese,f,9,0.9,98.18396958,0.82463705
LX,58,1,2024-06-14T09:20:11.181Z,english_305.wav,0,1,261,21,5,Chinese,f,10,1,52.83112054,0.94709308
LX,58,1,2024-06-14T09:20:11.181Z,english_305.wav,0,1,261,21,5,Chinese,f,11,1.09391667,33.63343534,0.36254065
LX,59,1,2024-06-14T09:20:11.181Z,english_486.wav,0,1,52,21,5,Chinese,f,0,0,14.09044268,1.6475495
LX,59,1,2024-06-14T09:20:11.181Z,english_486.wav,0,1,52,21,5,Chinese,f,1,0.1,28.13825665,1.6255176
LX,59,1,2024-06-14T09:20:11.181Z,english_486.wav,0,1,52,21,5,Chinese,f,2,0.2,-40.21559781,1.99682212
LX,59,1,2024-06-14T09:20:11.181Z,english_486.wav,0,1,52,21,5,Chinese,f,3,0.3,9.13288013,0.39670369
LX,59,1,2024-06-14T09:20:11.181Z,english_486.wav,0,1,52,21,5,Chinese,f,4,0.4,89.32859242,1.34395023
LX,59,1,2024-06-14T09:20:11.181Z,english_486.wav,0,1,52,21,5,Chinese,f,5,0.5,-17.87642912,0.55691658
LX,59,1,2024-06-14T09:20:11.181Z,english_486.wav,0,1,52,21,5,Chinese,f,6,0.6,80.16824269,1.45409657
LX,59,1,2024-06-14T09:20:11.181Z,english_486.wav,0,1,52,21,5,Chinese,f,7,0.7,40.51786148,1.8204099
LX,59,1,2024-06-14T09:20:11.181Z,english_486.wav,0,1,52,21,5,Chinese,f,8,0.8,-19.91774538,0.51861004
LX,59,1,2024-06-14T09:20:11.181Z,english_486.wav,0,1,52,21,5,Chinese,f,9,0.9,-8.63425979,0.91268117
LX,59,1,2024-06-14T09:20:11.181Z,english_486.wav,0,1,52,21,5,Chinese,f,10,1,-22.84814304,1.67784611
LX,59,1,2024-06-14T09:20:11.181Z,english_486.wav,0,1,52,21,5,Chinese,f,11,1.09391667,36.71518597,0.60064436
LX,60,1,2024-06-14T09:20:11.181Z,english_522.wav,0,1,443,21,5,Chinese,f,0,0,-41.53907187,0.57004443
LX,60,1,2024-06-14T09:20:11.181Z,english_522.wav,0,1,443,21,5,Chinese,f,1,0.1,-34.77242331,0.9419408
LX,60,1,2024-06-14T09:20:11.181Z,english_522.wav,0,1,443,21,5,Chinese,f,2,0.2,44.84688975,1.66104168
LX,60,1,2024-06-14T09:20:11.181Z,english_522.wav,0,1,443,21,5,Chinese,f,3,0.3,0.52781467,0.91446022
LX,60,1,2024-06-14T09:20:11.181Z,english_522.wav,0,1,443,21,5,Chinese,f,4,0.4,-85.49095183,1.87910308
LX,60,1,2024-06-14T09:20:11.181Z,english_522.wav,0,1,443,21,5,Chinese,f,5,0.5,49.75805681,1.6772423
LX,60,1,2024-06-14T09:20:11.181Z,english_522.wav,0,1,443,21,5,Chinese,f,6,0.6,-34.01238983,1.00245935
LX,60,1,2024-06-14T09:20:11.181Z,english_522.wav,0,1,443,21,5,Chinese,f,7,0.7,-76.80695945,1.44049733
LX,60,1,2024-06-14T09:20:11.181Z,english_522.wav,0,1,443,21,5,Chinese,f,8,0.8,57.48181657,0.74965877
LX,60,1,2024-06-14T09:20:11.181Z,english_522.wav,0,1,443,21,5,Chinese,f,9,0.9,-42.740182,1.30386633
LX,60,1,2024-06-14T09:20:11.181Z,english_522.wav,0,1,443,21,5,Chinese,f,10,1,76.48970234,1.30270801
LX,60,1,2024-06-14T09:20:11.181Z,english_522.wav,0,1,443,21,5,Chinese,f,11,1.09391667,-24.33451257,0.47933239
LX,61,1,2024-06-14T09:20:11.181Z,english_450.wav,0,1,137,21,5,Chinese,f,0,0,-40.47622517,1.62313454
LX,61,1,2024-06-14T09:20:11.181Z,english_450.wav,0,1,137,21,5,Chinese,f,1,0.1,32.74162238,1.28157799
LX,61,1,2024-06-14T09:20:11.181Z,english_450.wav,0,1,137,21,5,Chinese,f,2,0.2,-31.99785117,0.17374894
LX,61,1,2024-06-14T09:20:11.181Z,english_450.wav,0,1,137,21,5,Chinese,f,3,0.3,26.01051774,1.33840529
LX,61,1,2024-06-14T09:20:11.181Z,english_450.wav,0,1,137,21,5,Chinese,f,4,0.4,80.55211369,1.99443486
LX,61,1,2024-06-14T09:20:11.181Z,english_450.wav,0,1,137,21,5,Chinese,f,5,0.5,18.01549087,1.3531925
LX,61,1,2024-06-14T09:20:11.181Z,english_450.wav,0,1,137,21,5,Chinese,f,6,0.6,52.7809862,1.87514045
LX,61,1,2024-06-14T09:20:11.181Z,english_450.wav,0,1,137,21,5,Chinese,f,7,0.7,49.03700675,0.88384361
LX,61,1,2024-06-14T09:20:11.181Z,english_450.wav,0,1,137,21,5,Chinese,f,8,0.8,-27.91135425,1.18722403
LX,61,1,2024-06-14T09:20:11.181Z,english_450.wav,0,1,137,21,5,Chinese,f,9,0.9,36.58986798,1.83701617
LX,61,1,2024-06-14T09:20:11.181Z,english_450.wav,0,1,137,21,5,Chinese,f,10,1,-73.7373691,1.36559917
LX,61,1,2024-06-14T09:20:11.181Z,english_450.wav,0,1,137,21,5,Chinese,f,11,1.09391667,98.91564747,0.09127158
LX,62,1,2024-06-14T09:20:11.181Z,english_303.wav,0,1,502,21,5,Chinese,f,0,0,0.14016308,1.85835187
LX,62,1,2024-06-14T09:20:11.181Z,english_303.wav,0,1,502,21,5,Chinese,f,1,0.1,-44.5758284,0.39450132
LX,62,1,2024-06-14T09:20:11.181Z,english_303.wav,0,1,502,21,5,Chinese,f,2,0.2,40.18240402,0.24238742
LX,62,1,2024-06-14T09:20:11.181Z,english_303.wav,0,1,502,21,5,Chinese,f,3,0.3,-39.07989996,0.56764068
LX,62,1,2024-06-14T09:20:11.181Z,english_303.wav,0,1,502,21,5,Chinese,f,4,0.4,67.80800806,1.20233096
LX,62,1,2024-06-14T09:20:11.181Z,english_303.wav,0,1,502,21,5,Chinese,f,5,0.5,17.65490848,0.74682504
LX,62,1,2024-06-14T09:20:11.181Z,english_303.wav,0,1,502,21,5,Chinese,f,6,0.6,58.57137806,1.26635068
LX,62,1,2024-06-14T09:20:11.181Z,english_303.wav,0,1,502,21,5,Chinese,f,7,0.7,-9.36157139,0.78955625
LX,62,1,2024-06-14T09:20:11.181Z,english_303.wav,0,1,502,21,5,Chinese,f,8,0.8,-59.59223338,0.64317534
LX,62,1,2024-06-14T09:20:11.181Z,english_303.wav,0,1,502,21,5,Chinese,f,9,0.9,-85.34182112,0.64803316
LX,62,1,2024-06-14T09:20:11.181Z,english_303.wav,0,1,502,21,5,Chinese,f,10,1,98.58496987,0.59787494
LX,62,1,2024-06-14T09:20:11.181Z,english_303.wav,0,1,502,21,5,Chinese,f,11,1.09391667,0.30898467,1.47452335
LX,63,1,2024-06-14T09:20:11.181Z,english_672.wav,0,1,178,21,5,Chinese,f,0,0,43.22685975,1.16062379
LX,63,1,2024-06-14T09:20:11.181Z,english_672.wav,0,1,178,21,5,Chinese,f,1,0.1,-54.22036803,1.05074454
LX,63,1,2024-06-14T09:20:11.181Z,english_672.wav,0,1,178,21,5,Chinese,f,2,0.2,47.19502214,0.58565022
LX,63,1,2024-06-14T09:20:11.181Z,english_672.wav,0,1,178,21,5,Chinese,f,3,0.3,29.48399108,0.69010583
LX,63,1,2024-06-14T09:20:11.181Z,english_672.wav,0,1,178,21,5,Chinese,f,4,0.4,-37.13401682,1.10560462
LX,63,1,2024-06-14T09:20:11.181Z,english_672.wav,0,1,178,21,5,Chinese,f,5,0.5,-82.77781933,0.90912981
LX,63,1,2024-06-14T09:20:11.181Z,english_672.wav,0,1,178,21,5,Chinese,f,6,0.6,26.5489707,1.72329615
LX,63,1,2024-06-14T09:20:11.181Z,english_672.wav,0,1,178,21,5,Chinese,f,7,0.7,-82.12818914,1.29141175
LX,63,1,2024-06-14T09:20:11.181Z,english_672.wav,0,1,178,21,5,Chinese,f,8,0.8,0.43149331,0.15835131
LX,63,1,2024-06-14T09:20:11.181Z,english_672.wav,0,1,178,21,5,Chinese,f,9,0.9,36.27396929,0.77804924
LX,63,1,2024-06-14T09:20:11.181Z,english_672.wav,0,1,178,21,5,Chinese,f,10,1,-33.62939759,0.05373679
LX,63,1,2024-06-14T09:20:11.181Z,english_672.wav,0,1,178,21,5,Chinese,f,11,1.09391667,-60.08189446,0.92241163
LX,64,1,2024-06-14T09:20:11.181Z,english_526.wav,0,0,1505,21,5,Chinese,f,0,0,8.34861985,0.818467978
LX,64,1,2024-06-14T09:20:11.181Z,english_526.wav,0,0,1505,21,5,Chinese,f,1,0.1,4.68771873,1.47842566
LX,64,1,2024-06-14T09:20:11.181Z,english_526.wav,0,0,1505,21,5,Chinese,f,2,0.2,53.60731048,1.2919312
LX,64,1,2024-06-14T09:20:11.181Z,english_526.wav,0,0,1505,21,5,Chinese,f,3,0.3,59.31550311,0.0000036729241
LX,64,1,2024-06-14T09:20:11.181Z,english_526.wav,0,0,1505,21,5,Chinese,f,4,0.4,72.50237706,1.30202935
LX,64,1,2024-06-14T09:20:11.181Z,english_526.wav,0,0,1505,21,5,Chinese,f,5,0.5,35.8849844,0.436504023
LX,64,1,2024-06-14T09:20:11.181Z,english_526.wav,0,0,1505,21,5,Chinese,f,6,0.6,74.11215821,1.72509944
LX,64,1,2024-06-14T09:20:11.181Z,english_526.wav,0,0,1505,21,5,Chinese,f,7,0.7,55.59683057,0.555064149
LX,64,1,2024-06-14T09:20:11.181Z,english_526.wav,0,0,1505,21,5,Chinese,f,8,0.8,-27.47924079,0.322124551
LX,64,1,2024-06-14T09:20:11.181Z,english_526.wav,0,0,1505,21,5,Chinese,f,9,0.9,6.32801867,0.203468589
LX,64,1,2024-06-14T09:20:11.181Z,english_526.wav,0,0,1505,21,5,Chinese,f,10,1,17.73622103,0.814562372
LX,64,1,2024-06-14T09:20:11.181Z,english_526.wav,0,0,1505,21,5,Chinese,f,11,1.09391667,57.44538819,1.24257204
LX,65,1,2024-06-14T09:20:11.181Z,english_930.wav,0,1,13,21,5,Chinese,f,0,0,19.45977217,0.84483281
LX,65,1,2024-06-14T09:20:11.181Z,english_930.wav,0,1,13,21,5,Chinese,f,1,0.1,-80.07863209,1.28415243
LX,65,1,2024-06-14T09:20:11.181Z,english_930.wav,0,1,13,21,5,Chinese,f,2,0.2,45.52554026,0.42013726
LX,65,1,2024-06-14T09:20:11.181Z,english_930.wav,0,1,13,21,5,Chinese,f,3,0.3,15.52716044,0.73216184
LX,65,1,2024-06-14T09:20:11.181Z,english_930.wav,0,1,13,21,5,Chinese,f,4,0.4,-83.05812581,0.68838287
LX,65,1,2024-06-14T09:20:11.181Z,english_930.wav,0,1,13,21,5,Chinese,f,5,0.5,-71.84540183,1.12855875
LX,65,1,2024-06-14T09:20:11.181Z,english_930.wav,0,1,13,21,5,Chinese,f,6,0.6,-43.21972941,1.19871165
LX,65,1,2024-06-14T09:20:11.181Z,english_930.wav,0,1,13,21,5,Chinese,f,7,0.7,24.79128716,1.34030412
LX,65,1,2024-06-14T09:20:11.181Z,english_930.wav,0,1,13,21,5,Chinese,f,8,0.8,-16.02759849,0.99943393
LX,65,1,2024-06-14T09:20:11.181Z,english_930.wav,0,1,13,21,5,Chinese,f,9,0.9,5.32070927,1.01667004
LX,65,1,2024-06-14T09:20:11.181Z,english_930.wav,0,1,13,21,5,Chinese,f,10,1,41.16408732,1.52152501
LX,65,1,2024-06-14T09:20:11.181Z,english_930.wav,0,1,13,21,5,Chinese,f,11,1.09391667,45.49028899,0.12802686
LX,66,1,2024-06-14T09:20:11.181Z,english_690.wav,0,1,736,21,5,Chinese,f,0,0,17.55747423,0.76835561
LX,66,1,2024-06-14T09:20:11.181Z,english_690.wav,0,1,736,21,5,Chinese,f,1,0.1,23.93305712,0.92260391
LX,66,1,2024-06-14T09:20:11.181Z,english_690.wav,0,1,736,21,5,Chinese,f,2,0.2,64.00076059,1.35078007
LX,66,1,2024-06-14T09:20:11.181Z,english_690.wav,0,1,736,21,5,Chinese,f,3,0.3,-94.30848537,0.66724341
LX,66,1,2024-06-14T09:20:11.181Z,english_690.wav,0,1,736,21,5,Chinese,f,4,0.4,6.99210774,0.90703794
LX,66,1,2024-06-14T09:20:11.181Z,english_690.wav,0,1,736,21,5,Chinese,f,5,0.5,85.90585052,0.64408178
LX,66,1,2024-06-14T09:20:11.181Z,english_690.wav,0,1,736,21,5,Chinese,f,6,0.6,87.05779363,0.93697695
LX,66,1,2024-06-14T09:20:11.181Z,english_690.wav,0,1,736,21,5,Chinese,f,7,0.7,-33.56142867,1.7663892
LX,66,1,2024-06-14T09:20:11.181Z,english_690.wav,0,1,736,21,5,Chinese,f,8,0.8,3.23139144,0.87547527
LX,66,1,2024-06-14T09:20:11.181Z,english_690.wav,0,1,736,21,5,Chinese,f,9,0.9,-81.40386669,1.67132801
LX,66,1,2024-06-14T09:20:11.181Z,english_690.wav,0,1,736,21,5,Chinese,f,10,1,-73.94182177,1.67691306
LX,66,1,2024-06-14T09:20:11.181Z,english_690.wav,0,1,736,21,5,Chinese,f,11,1.09391667,93.27821127,1.90511297
LX,67,1,2024-06-14T09:20:11.181Z,english_367.wav,0,1,67,21,5,Chinese,f,0,0,40.69288354,1.09000391
LX,67,1,2024-06-14T09:20:11.181Z,english_367.wav,0,1,67,21,5,Chinese,f,1,0.1,-87.28554983,0.74880644
LX,67,1,2024-06-14T09:20:11.181Z,english_367.wav,0,1,67,21,5,Chinese,f,2,0.2,-64.50130746,0.58255578
LX,67,1,2024-06-14T09:20:11.181Z,english_367.wav,0,1,67,21,5,Chinese,f,3,0.3,65.0554957,0.66468618
LX,67,1,2024-06-14T09:20:11.181Z,english_367.wav,0,1,67,21,5,Chinese,f,4,0.4,-34.90387066,1.54627645
LX,67,1,2024-06-14T09:20:11.181Z,english_367.wav,0,1,67,21,5,Chinese,f,5,0.5,29.56597753,0.56660027
LX,67,1,2024-06-14T09:20:11.181Z,english_367.wav,0,1,67,21,5,Chinese,f,6,0.6,36.50215848,0.69792946
LX,67,1,2024-06-14T09:20:11.181Z,english_367.wav,0,1,67,21,5,Chinese,f,7,0.7,-55.69798386,1.00541299
LX,67,1,2024-06-14T09:20:11.181Z,english_367.wav,0,1,67,21,5,Chinese,f,8,0.8,12.84757482,0.65534854
LX,67,1,2024-06-14T09:20:11.181Z,english_367.wav,0,1,67,21,5,Chinese,f,9,0.9,-23.54866279,1.89531092
LX,67,1,2024-06-14T09:20:11.181Z,english_367.wav,0,1,67,21,5,Chinese,f,10,1,-55.73647309,0.87598705
LX,67,1,2024-06-14T09:20:11.181Z,english_367.wav,0,1,67,21,5,Chinese,f,11,1.09391667,79.84600893,1.75535151
LX,68,1,2024-06-14T09:20:11.181Z,english_469.wav,0,0,548,21,5,Chinese,f,0,0,-33.27051151,1.91972156
LX,68,1,2024-06-14T09:20:11.181Z,english_469.wav,0,0,548,21,5,Chinese,f,1,0.1,-94.55728016,0.89758894
LX,68,1,2024-06-14T09:20:11.181Z,english_469.wav,0,0,548,21,5,Chinese,f,2,0.2,-24.34554111,0.14767308
LX,68,1,2024-06-14T09:20:11.181Z,english_469.wav,0,0,548,21,5,Chinese,f,3,0.3,16.33493977,0.88925412
LX,68,1,2024-06-14T09:20:11.181Z,english_469.wav,0,0,548,21,5,Chinese,f,4,0.4,-66.14325269,0.02970636
LX,68,1,2024-06-14T09:20:11.181Z,english_469.wav,0,0,548,21,5,Chinese,f,5,0.5,-2.40335162,0.16070031
LX,68,1,2024-06-14T09:20:11.181Z,english_469.wav,0,0,548,21,5,Chinese,f,6,0.6,-87.80607373,0.0970541
LX,68,1,2024-06-14T09:20:11.181Z,english_469.wav,0,0,548,21,5,Chinese,f,7,0.7,34.04653441,1.25032873
LX,68,1,2024-06-14T09:20:11.181Z,english_469.wav,0,0,548,21,5,Chinese,f,8,0.8,53.31501889,1.92087852
LX,68,1,2024-06-14T09:20:11.181Z,english_469.wav,0,0,548,21,5,Chinese,f,9,0.9,-70.89291525,0.56083362
LX,68,1,2024-06-14T09:20:11.181Z,english_469.wav,0,0,548,21,5,Chinese,f,10,1,35.01344624,0.78804248
LX,68,1,2024-06-14T09:20:11.181Z,english_469.wav,0,0,548,21,5,Chinese,f,11,1.09391667,15.03691984,0.71632164
LX,69,1,2024-06-14T09:20:11.181Z,english_722.wav,0,1,146,21,5,Chinese,f,0,0,-57.56576196,0.04722973
LX,69,1,2024-06-14T09:20:11.181Z,english_722.wav,0,1,146,21,5,Chinese,f,1,0.1,-19.70677764,1.09555253
LX,69,1,2024-06-14T09:20:11.181Z,english_722.wav,0,1,146,21,5,Chinese,f,2,0.2,83.71549809,0.8122888
LX,69,1,2024-06-14T09:20:11.181Z,english_722.wav,0,1,146,21,5,Chinese,f,3,0.3,0.72860566,0.82350502
LX,69,1,2024-06-14T09:20:11.181Z,english_722.wav,0,1,146,21,5,Chinese,f,4,0.4,23.57010212,0.7141467
LX,69,1,2024-06-14T09:20:11.181Z,english_722.wav,0,1,146,21,5,Chinese,f,5,0.5,-90.6432868,0.19918411
LX,69,1,2024-06-14T09:20:11.181Z,english_722.wav,0,1,146,21,5,Chinese,f,6,0.6,3.97952781,0.04680372
LX,69,1,2024-06-14T09:20:11.181Z,english_722.wav,0,1,146,21,5,Chinese,f,7,0.7,47.87385022,0.22857445
LX,69,1,2024-06-14T09:20:11.181Z,english_722.wav,0,1,146,21,5,Chinese,f,8,0.8,-10.29099789,1.06043027
LX,69,1,2024-06-14T09:20:11.181Z,english_722.wav,0,1,146,21,5,Chinese,f,9,0.9,-55.37554035,1.28411096
LX,69,1,2024-06-14T09:20:11.181Z,english_722.wav,0,1,146,21,5,Chinese,f,10,1,-74.87108339,1.38807885
LX,69,1,2024-06-14T09:20:11.181Z,english_722.wav,0,1,146,21,5,Chinese,f,11,1.09391667,32.13407254,0.54998416
LX,70,1,2024-06-14T09:20:11.181Z,english_150.wav,0,1,761,21,5,Chinese,f,0,0,-50.54232549,1.16258998
LX,70,1,2024-06-14T09:20:11.181Z,english_150.wav,0,1,761,21,5,Chinese,f,1,0.1,34.32153656,0.79689364
LX,70,1,2024-06-14T09:20:11.181Z,english_150.wav,0,1,761,21,5,Chinese,f,2,0.2,-10.92395048,0.16790755
LX,70,1,2024-06-14T09:20:11.181Z,english_150.wav,0,1,761,21,5,Chinese,f,3,0.3,53.72738624,0.35039588
LX,70,1,2024-06-14T09:20:11.181Z,english_150.wav,0,1,761,21,5,Chinese,f,4,0.4,62.41801081,0.24836215
LX,70,1,2024-06-14T09:20:11.181Z,english_150.wav,0,1,761,21,5,Chinese,f,5,0.5,-32.60317387,0.38408886
LX,70,1,2024-06-14T09:20:11.181Z,english_150.wav,0,1,761,21,5,Chinese,f,6,0.6,-14.80411838,0.47894499
LX,70,1,2024-06-14T09:20:11.181Z,english_150.wav,0,1,761,21,5,Chinese,f,7,0.7,55.20966729,1.81942338
LX,70,1,2024-06-14T09:20:11.181Z,english_150.wav,0,1,761,21,5,Chinese,f,8,0.8,-74.0684305,1.36079379
LX,70,1,2024-06-14T09:20:11.181Z,english_150.wav,0,1,761,21,5,Chinese,f,9,0.9,-4.87965611,1.63972786
LX,70,1,2024-06-14T09:20:11.181Z,english_150.wav,0,1,761,21,5,Chinese,f,10,1,-79.50813125,1.65428446
LX,70,1,2024-06-14T09:20:11.181Z,english_150.wav,0,1,761,21,5,Chinese,f,11,1.09391667,24.9492826,1.31063675
LX,71,1,2024-06-14T09:20:11.181Z,english_352.wav,0,1,13,21,5,Chinese,f,0,0,84.78119141,1.3229017
LX,71,1,2024-06-14T09:20:11.181Z,english_352.wav,0,1,13,21,5,Chinese,f,1,0.1,88.75454048,0.55829323
LX,71,1,2024-06-14T09:20:11.181Z,english_352.wav,0,1,13,21,5,Chinese,f,2,0.2,23.94901813,0.0402509
LX,71,1,2024-06-14T09:20:11.181Z,english_352.wav,0,1,13,21,5,Chinese,f,3,0.3,-18.90676095,0.61640233
LX,71,1,2024-06-14T09:20:11.181Z,english_352.wav,0,1,13,21,5,Chinese,f,4,0.4,60.06070111,0.96654272
LX,71,1,2024-06-14T09:20:11.181Z,english_352.wav,0,1,13,21,5,Chinese,f,5,0.5,62.40800149,0.92098566
LX,71,1,2024-06-14T09:20:11.181Z,english_352.wav,0,1,13,21,5,Chinese,f,6,0.6,3.12749593,1.84821975
LX,71,1,2024-06-14T09:20:11.181Z,english_352.wav,0,1,13,21,5,Chinese,f,7,0.7,56.86714317,0.23838951
LX,71,1,2024-06-14T09:20:11.181Z,english_352.wav,0,1,13,21,5,Chinese,f,8,0.8,-52.83270381,0.65493925
LX,71,1,2024-06-14T09:20:11.181Z,english_352.wav,0,1,13,21,5,Chinese,f,9,0.9,-40.5099806,1.28053314
LX,71,1,2024-06-14T09:20:11.181Z,english_352.wav,0,1,13,21,5,Chinese,f,10,1,-16.36538997,0.87321298
LX,71,1,2024-06-14T09:20:11.181Z,english_352.wav,0,1,13,21,5,Chinese,f,11,1.09391667,22.50184759,0.74058038
LX,72,1,2024-06-14T09:20:11.181Z,english_983.wav,0,0,153,21,5,Chinese,f,0,0,-50.22823897,0.88633634
LX,72,1,2024-06-14T09:20:11.181Z,english_983.wav,0,0,153,21,5,Chinese,f,1,0.1,-4.67437073,1.28034271
LX,72,1,2024-06-14T09:20:11.181Z,english_983.wav,0,0,153,21,5,Chinese,f,2,0.2,-31.6094098,0.94172266
LX,72,1,2024-06-14T09:20:11.181Z,english_983.wav,0,0,153,21,5,Chinese,f,3,0.3,25.42275216,0.73344406
LX,72,1,2024-06-14T09:20:11.181Z,english_983.wav,0,0,153,21,5,Chinese,f,4,0.4,79.9624674,1.78223604
LX,72,1,2024-06-14T09:20:11.181Z,english_983.wav,0,0,153,21,5,Chinese,f,5,0.5,11.84827872,1.04715588
LX,72,1,2024-06-14T09:20:11.181Z,english_983.wav,0,0,153,21,5,Chinese,f,6,0.6,-53.41316004,1.93599287
LX,72,1,2024-06-14T09:20:11.181Z,english_983.wav,0,0,153,21,5,Chinese,f,7,0.7,-2.37481813,0.44413806
LX,72,1,2024-06-14T09:20:11.181Z,english_983.wav,0,0,153,21,5,Chinese,f,8,0.8,81.38125647,0.67013669
LX,72,1,2024-06-14T09:20:11.181Z,english_983.wav,0,0,153,21,5,Chinese,f,9,0.9,-62.03068284,1.03528206
LX,72,1,2024-06-14T09:20:11.181Z,english_983.wav,0,0,153,21,5,Chinese,f,10,1,-64.21224493,0.12422577
LX,72,1,2024-06-14T09:20:11.181Z,english_983.wav,0,0,153,21,5,Chinese,f,11,1.09391667,38.19793451,1.50859084
LX,73,1,2024-06-14T09:20:11.181Z,english_471.wav,0,1,124,21,5,Chinese,f,0,0,-44.33438949,1.24178701
LX,73,1,2024-06-14T09:20:11.181Z,english_471.wav,0,1,124,21,5,Chinese,f,1,0.1,16.47774329,1.49559335
LX,73,1,2024-06-14T09:20:11.181Z,english_471.wav,0,1,124,21,5,Chinese,f,2,0.2,-22.18014429,1.46207388
LX,73,1,2024-06-14T09:20:11.181Z,english_471.wav,0,1,124,21,5,Chinese,f,3,0.3,96.62980594,0.79768684
LX,73,1,2024-06-14T09:20:11.181Z,english_471.wav,0,1,124,21,5,Chinese,f,4,0.4,0.22905681,0.93952191
LX,73,1,2024-06-14T09:20:11.181Z,english_471.wav,0,1,124,21,5,Chinese,f,5,0.5,25.29876176,1.31580264
LX,73,1,2024-06-14T09:20:11.181Z,english_471.wav,0,1,124,21,5,Chinese,f,6,0.6,-1.90422532,0.66385174
LX,73,1,2024-06-14T09:20:11.181Z,english_471.wav,0,1,124,21,5,Chinese,f,7,0.7,20.77355212,0.36428101
LX,73,1,2024-06-14T09:20:11.181Z,english_471.wav,0,1,124,21,5,Chinese,f,8,0.8,26.61706742,1.49472861
LX,73,1,2024-06-14T09:20:11.181Z,english_471.wav,0,1,124,21,5,Chinese,f,9,0.9,-76.46197336,1.78460372
LX,73,1,2024-06-14T09:20:11.181Z,english_471.wav,0,1,124,21,5,Chinese,f,10,1,74.78681403,1.14119983
LX,73,1,2024-06-14T09:20:11.181Z,english_471.wav,0,1,124,21,5,Chinese,f,11,1.09391667,70.35269737,0.45644683
LX,74,1,2024-06-14T09:20:11.181Z,english_681.wav,0,0,83,21,5,Chinese,f,0,0,-92.26077834,1.18766689
LX,74,1,2024-06-14T09:20:11.181Z,english_681.wav,0,0,83,21,5,Chinese,f,1,0.1,11.95344045,1.17925246
LX,74,1,2024-06-14T09:20:11.181Z,english_681.wav,0,0,83,21,5,Chinese,f,2,0.2,35.63077321,1.18714511
LX,74,1,2024-06-14T09:20:11.181Z,english_681.wav,0,0,83,21,5,Chinese,f,3,0.3,10.32953838,0.81117053
LX,74,1,2024-06-14T09:20:11.181Z,english_681.wav,0,0,83,21,5,Chinese,f,4,0.4,-65.38984885,0.881102
LX,74,1,2024-06-14T09:20:11.181Z,english_681.wav,0,0,83,21,5,Chinese,f,5,0.5,97.33649353,0.91983652
LX,74,1,2024-06-14T09:20:11.181Z,english_681.wav,0,0,83,21,5,Chinese,f,6,0.6,-8.45532029,1.26950169
LX,74,1,2024-06-14T09:20:11.181Z,english_681.wav,0,0,83,21,5,Chinese,f,7,0.7,-65.12679711,1.73435483
LX,74,1,2024-06-14T09:20:11.181Z,english_681.wav,0,0,83,21,5,Chinese,f,8,0.8,-45.40923943,0.23522848
LX,74,1,2024-06-14T09:20:11.181Z,english_681.wav,0,0,83,21,5,Chinese,f,9,0.9,15.66943247,1.44084722
LX,74,1,2024-06-14T09:20:11.181Z,english_681.wav,0,0,83,21,5,Chinese,f,10,1,-78.97347716,0.55279263
LX,74,1,2024-06-14T09:20:11.181Z,english_681.wav,0,0,83,21,5,Chinese,f,11,1.09391667,28.12793686,1.79690954
LX,75,1,2024-06-14T09:20:11.181Z,english_3.wav,0,0,500,21,5,Chinese,f,0,0,46.12890401,1.26973721
LX,75,1,2024-06-14T09:20:11.181Z,english_3.wav,0,0,500,21,5,Chinese,f,1,0.1,-46.79234899,0.81563074
LX,75,1,2024-06-14T09:20:11.181Z,english_3.wav,0,0,500,21,5,Chinese,f,2,0.2,43.27356125,1.94124466
LX,75,1,2024-06-14T09:20:11.181Z,english_3.wav,0,0,500,21,5,Chinese,f,3,0.3,-72.16670898,0.70667384
LX,75,1,2024-06-14T09:20:11.181Z,english_3.wav,0,0,500,21,5,Chinese,f,4,0.4,-20.43688573,1.08403016
LX,75,1,2024-06-14T09:20:11.181Z,english_3.wav,0,0,500,21,5,Chinese,f,5,0.5,47.47685518,0.3642344
LX,75,1,2024-06-14T09:20:11.181Z,english_3.wav,0,0,500,21,5,Chinese,f,6,0.6,-99.10404807,0.99174199
LX,75,1,2024-06-14T09:20:11.181Z,english_3.wav,0,0,500,21,5,Chinese,f,7,0.7,26.000254,0.55041702
LX,75,1,2024-06-14T09:20:11.181Z,english_3.wav,0,0,500,21,5,Chinese,f,8,0.8,-7.26217139,0.75824974
LX,75,1,2024-06-14T09:20:11.181Z,english_3.wav,0,0,500,21,5,Chinese,f,9,0.9,-22.74562987,0.866985
LX,75,1,2024-06-14T09:20:11.181Z,english_3.wav,0,0,500,21,5,Chinese,f,10,1,-68.2177704,1.56473108
LX,75,1,2024-06-14T09:20:11.181Z,english_3.wav,0,0,500,21,5,Chinese,f,11,1.09391667,25.12417325,0.96011667
LX,76,1,2024-06-14T09:27:26.745Z,english_573.wav,0,1,547,21,5,Chinese,f,0,0,79.01360671,0.58078149
LX,76,1,2024-06-14T09:27:26.745Z,english_573.wav,0,1,547,21,5,Chinese,f,1,0.1,52.71884285,1.30954319
LX,76,1,2024-06-14T09:27:26.745Z,english_573.wav,0,1,547,21,5,Chinese,f,2,0.2,50.53447538,0.29557882
LX,76,1,2024-06-14T09:27:26.745Z,english_573.wav,0,1,547,21,5,Chinese,f,3,0.3,-77.30718956,0.06017209
LX,76,1,2024-06-14T09:27:26.745Z,english_573.wav,0,1,547,21,5,Chinese,f,4,0.4,33.34946603,1.37776662
LX,76,1,2024-06-14T09:27:26.745Z,english_573.wav,0,1,547,21,5,Chinese,f,5,0.5,65.54692119,1.42660443
LX,76,1,2024-06-14T09:27:26.745Z,english_573.wav,0,1,547,21,5,Chinese,f,6,0.6,18.3747553,1.66364869
LX,76,1,2024-06-14T09:27:26.745Z,english_573.wav,0,1,547,21,5,Chinese,f,7,0.7,51.17957479,1.08928957
LX,76,1,2024-06-14T09:27:26.745Z,english_573.wav,0,1,547,21,5,Chinese,f,8,0.8,29.2707463,0.72793509
LX,76,1,2024-06-14T09:27:26.745Z,english_573.wav,0,1,547,21,5,Chinese,f,9,0.9,19.39700322,0.41728398
LX,76,1,2024-06-14T09:27:26.745Z,english_573.wav,0,1,547,21,5,Chinese,f,10,1,64.73291428,0.11685832
LX,76,1,2024-06-14T09:27:26.745Z,english_573.wav,0,1,547,21,5,Chinese,f,11,1.09391667,32.81987365,0.66462102
LX,77,1,2024-06-14T09:27:26.745Z,english_65.wav,0,0,110,21,5,Chinese,f,0,0,-44.08652709,1.3840041
LX,77,1,2024-06-14T09:27:26.745Z,english_65.wav,0,0,110,21,5,Chinese,f,1,0.1,3.68023197,1.67820436
LX,77,1,2024-06-14T09:27:26.745Z,english_65.wav,0,0,110,21,5,Chinese,f,2,0.2,-19.05866896,1.58939797
LX,77,1,2024-06-14T09:27:26.745Z,english_65.wav,0,0,110,21,5,Chinese,f,3,0.3,12.87316772,0.13316714
LX,77,1,2024-06-14T09:27:26.745Z,english_65.wav,0,0,110,21,5,Chinese,f,4,0.4,-96.16119339,0.86814229
LX,77,1,2024-06-14T09:27:26.745Z,english_65.wav,0,0,110,21,5,Chinese,f,5,0.5,-80.0946771,0.41459676
LX,77,1,2024-06-14T09:27:26.745Z,english_65.wav,0,0,110,21,5,Chinese,f,6,0.6,69.71447188,1.482845
LX,77,1,2024-06-14T09:27:26.745Z,english_65.wav,0,0,110,21,5,Chinese,f,7,0.7,31.09176238,0.500881
LX,77,1,2024-06-14T09:27:26.745Z,english_65.wav,0,0,110,21,5,Chinese,f,8,0.8,5.95151439,1.54890047
LX,77,1,2024-06-14T09:27:26.745Z,english_65.wav,0,0,110,21,5,Chinese,f,9,0.9,-95.02350092,0.653854
LX,77,1,2024-06-14T09:27:26.745Z,english_65.wav,0,0,110,21,5,Chinese,f,10,1,40.23975653,1.48515765
LX,77,1,2024-06-14T09:27:26.745Z,english_65.wav,0,0,110,21,5,Chinese,f,11,1.09391667,55.65657795,1.57918375
LX,78,1,2024-06-14T09:27:26.745Z,english_528.wav,0,1,522,21,5,Chinese,f,0,0,89.92931817,1.55464654
LX,78,1,2024-06-14T09:27:26.745Z,english_528.wav,0,1,522,21,5,Chinese,f,1,0.1,69.43761356,1.5693867
LX,78,1,2024-06-14T09:27:26.745Z,english_528.wav,0,1,522,21,5,Chinese,f,2,0.2,-74.63581074,0.24579909
LX,78,1,2024-06-14T09:27:26.745Z,english_528.wav,0,1,522,21,5,Chinese,f,3,0.3,66.94799646,0.89003704
LX,78,1,2024-06-14T09:27:26.745Z,english_528.wav,0,1,522,21,5,Chinese,f,4,0.4,93.4667874,0.02709789
LX,78,1,2024-06-14T09:27:26.745Z,english_528.wav,0,1,522,21,5,Chinese,f,5,0.5,-73.58583841,1.93159194
LX,78,1,2024-06-14T09:27:26.745Z,english_528.wav,0,1,522,21,5,Chinese,f,6,0.6,60.58074805,1.21534299
LX,78,1,2024-06-14T09:27:26.745Z,english_528.wav,0,1,522,21,5,Chinese,f,7,0.7,-19.51561534,1.54968918
LX,78,1,2024-06-14T09:27:26.745Z,english_528.wav,0,1,522,21,5,Chinese,f,8,0.8,1.50674214,1.22283315
LX,78,1,2024-06-14T09:27:26.745Z,english_528.wav,0,1,522,21,5,Chinese,f,9,0.9,-4.69145727,0.16463995
LX,78,1,2024-06-14T09:27:26.745Z,english_528.wav,0,1,522,21,5,Chinese,f,10,1,-90.65001005,0.26004795
LX,78,1,2024-06-14T09:27:26.745Z,english_528.wav,0,1,522,21,5,Chinese,f,11,1.09391667,80.40130965,0.00778095
LX,79,1,2024-06-14T09:27:26.745Z,english_817.wav,0,0,121,21,5,Chinese,f,0,0,39.93653704,0.59804512
LX,79,1,2024-06-14T09:27:26.745Z,english_817.wav,0,0,121,21,5,Chinese,f,1,0.1,-44.37889142,1.22051814
LX,79,1,2024-06-14T09:27:26.745Z,english_817.wav,0,0,121,21,5,Chinese,f,2,0.2,-71.95009912,1.02272202
LX,79,1,2024-06-14T09:27:26.745Z,english_817.wav,0,0,121,21,5,Chinese,f,3,0.3,0.10723305,0.82768739
LX,79,1,2024-06-14T09:27:26.745Z,english_817.wav,0,0,121,21,5,Chinese,f,4,0.4,32.85070006,0.75023907
LX,79,1,2024-06-14T09:27:26.745Z,english_817.wav,0,0,121,21,5,Chinese,f,5,0.5,84.39314217,1.45571946
LX,79,1,2024-06-14T09:27:26.745Z,english_817.wav,0,0,121,21,5,Chinese,f,6,0.6,-27.64718927,1.19333558
LX,79,1,2024-06-14T09:27:26.745Z,english_817.wav,0,0,121,21,5,Chinese,f,7,0.7,-96.89614882,0.88124366
LX,79,1,2024-06-14T09:27:26.745Z,english_817.wav,0,0,121,21,5,Chinese,f,8,0.8,78.14592137,1.40555944
LX,79,1,2024-06-14T09:27:26.745Z,english_817.wav,0,0,121,21,5,Chinese,f,9,0.9,-23.71803159,0.40947716
LX,79,1,2024-06-14T09:27:26.745Z,english_817.wav,0,0,121,21,5,Chinese,f,10,1,-89.09326047,0.89036455
LX,79,1,2024-06-14T09:27:26.745Z,english_817.wav,0,0,121,21,5,Chinese,f,11,1.09391667,-7.75099391,1.8115698
LX,80,1,2024-06-14T09:27:26.745Z,english_912.wav,0,1,85,21,5,Chinese,f,0,0,83.45320293,1.30725461
LX,80,1,2024-06-14T09:27:26.745Z,english_912.wav,0,1,85,21,5,Chinese,f,1,0.1,47.1123547,0.36515134
LX,80,1,2024-06-14T09:27:26.745Z,english_912.wav,0,1,85,21,5,Chinese,f,2,0.2,-44.09395349,0.27834174
LX,80,1,2024-06-14T09:27:26.745Z,english_912.wav,0,1,85,21,5,Chinese,f,3,0.3,80.4089211,1.38784543
LX,80,1,2024-06-14T09:27:26.745Z,english_912.wav,0,1,85,21,5,Chinese,f,4,0.4,-65.95886508,0.18344109
LX,80,1,2024-06-14T09:27:26.745Z,english_912.wav,0,1,85,21,5,Chinese,f,5,0.5,-25.59965852,0.42703515
LX,80,1,2024-06-14T09:27:26.745Z,english_912.wav,0,1,85,21,5,Chinese,f,6,0.6,58.94865135,1.85819174
LX,80,1,2024-06-14T09:27:26.745Z,english_912.wav,0,1,85,21,5,Chinese,f,7,0.7,-95.38965028,1.3517083
LX,80,1,2024-06-14T09:27:26.745Z,english_912.wav,0,1,85,21,5,Chinese,f,8,0.8,10.68091992,1.52712698
LX,80,1,2024-06-14T09:27:26.745Z,english_912.wav,0,1,85,21,5,Chinese,f,9,0.9,-57.68744928,1.44811226
LX,80,1,2024-06-14T09:27:26.745Z,english_912.wav,0,1,85,21,5,Chinese,f,10,1,5.39108627,1.0038839
LX,80,1,2024-06-14T09:27:26.745Z,english_912.wav,0,1,85,21,5,Chinese,f,11,1.09391667,37.38622487,0.79645394
LX,81,1,2024-06-14T09:27:26.745Z,english_363.wav,0,0,190,21,5,Chinese,f,0,0,-5.66534259,1.60513634
LX,81,1,2024-06-14T09:27:26.745Z,english_363.wav,0,0,190,21,5,Chinese,f,1,0.1,96.57780227,0.93762693
LX,81,1,2024-06-14T09:27:26.745Z,english_363.wav,0,0,190,21,5,Chinese,f,2,0.2,8.75498082,1.53396088
LX,81,1,2024-06-14T09:27:26.745Z,english_363.wav,0,0,190,21,5,Chinese,f,3,0.3,-62.00877197,1.61687943
LX,81,1,2024-06-14T09:27:26.745Z,english_363.wav,0,0,190,21,5,Chinese,f,4,0.4,55.64754403,0.81027283
LX,81,1,2024-06-14T09:27:26.745Z,english_363.wav,0,0,190,21,5,Chinese,f,5,0.5,60.40753337,0.96421289
LX,81,1,2024-06-14T09:27:26.745Z,english_363.wav,0,0,190,21,5,Chinese,f,6,0.6,28.13214645,0.44675755
LX,81,1,2024-06-14T09:27:26.745Z,english_363.wav,0,0,190,21,5,Chinese,f,7,0.7,80.12225937,1.7907484
LX,81,1,2024-06-14T09:27:26.745Z,english_363.wav,0,0,190,21,5,Chinese,f,8,0.8,96.25782192,1.63025461
LX,81,1,2024-06-14T09:27:26.745Z,english_363.wav,0,0,190,21,5,Chinese,f,9,0.9,-69.76671387,1.21594348
LX,81,1,2024-06-14T09:27:26.745Z,english_363.wav,0,0,190,21,5,Chinese,f,10,1,60.27804949,1.84929312
LX,81,1,2024-06-14T09:27:26.745Z,english_363.wav,0,0,190,21,5,Chinese,f,11,1.09391667,31.6619376,0.74880834
LX,82,1,2024-06-14T09:27:26.745Z,english_877.wav,0,1,143,21,5,Chinese,f,0,0,-79.4269128,0.17316108
