subj,trial,block,date,stim,stim_order,response,rt,age,english,language,sex,param_index,segment,pitch,stretch
FQC,0,0,2024-06-14T03:00:52.107Z,english_862.wav,0,1,1887,,,,,0,0,21.21965496,0.74332802
FQC,0,0,2024-06-14T03:00:52.107Z,english_862.wav,0,1,1887,,,,,1,0.1,-28.10028624,0.09938773
FQC,0,0,2024-06-14T03:00:52.107Z,english_862.wav,0,1,1887,,,,,2,0.2,87.2285398,0.50575358
FQC,0,0,2024-06-14T03:00:52.107Z,english_862.wav,0,1,1887,,,,,3,0.3,41.56317367,0.643087
FQC,0,0,2024-06-14T03:00:52.107Z,english_862.wav,0,1,1887,,,,,4,0.4,-7.26177219,0.60738988
FQC,0,0,2024-06-14T03:00:52.107Z,english_862.wav,0,1,1887,,,,,5,0.5,82.03356609,0.78763104
FQC,0,0,2024-06-14T03:00:52.107Z,english_862.wav,0,1,1887,,,,,6,0.6,-50.47589124,1.37786949
FQC,0,0,2024-06-14T03:00:52.107Z,english_862.wav,0,1,1887,,,,,7,0.7,-94.47584418,1.33601808
FQC,0,0,2024-06-14T03:00:52.107Z,english_862.wav,0,1,1887,,,,,8,0.8,-25.95412099,1.06645132
FQC,0,0,2024-06-14T03:00:52.107Z,english_862.wav,0,1,1887,,,,,9,0.9,99.30679825,1.13650404
FQC,0,0,2024-06-14T03:00:52.107Z,english_862.wav,0,1,1887,,,,,10,1,62.70648748,0.36591568
FQC,0,0,2024-06-14T03:00:52.107Z,english_862.wav,0,1,1887,,,,,11,1.09391667,64.43642371,1.86759313
FQC,1,0,2024-06-14T03:00:52.107Z,english_367.wav,0,1,1061,,,,,0,0,40.69288354,1.09000391
FQC,1,0,2024-06-14T03:00:52.107Z,english_367.wav,0,1,1061,,,,,1,0.1,-87.28554983,0.74880644
FQC,1,0,2024-06-14T03:00:52.107Z,english_367.wav,0,1,1061,,,,,2,0.2,-64.50130746,0.58255578
FQC,1,0,2024-06-14T03:00:52.107Z,english_367.wav,0,1,1061,,,,,3,0.3,65.0554957,0.66468618
FQC,1,0,2024-06-14T03:00:52.107Z,english_367.wav,0,1,1061,,,,,4,0.4,-34.90387066,1.54627645
FQC,1,0,2024-06-14T03:00:52.107Z,english_367.wav,0,1,1061,,,,,5,0.5,29.56597753,0.56660027
FQC,1,0,2024-06-14T03:00:52.107Z,english_367.wav,0,1,1061,,,,,6,0.6,36.50215848,0.69792946
FQC,1,0,2024-06-14T03:00:52.107Z,english_367.wav,0,1,1061,,,,,7,0.7,-55.69798386,1.00541299
FQC,1,0,2024-06-14T03:00:52.107Z,english_367.wav,0,1,1061,,,,,8,0.8,12.84757482,0.65534854
FQC,1,0,2024-06-14T03:00:52.107Z,english_367.wav,0,1,1061,,,,,9,0.9,-23.54866279,1.89531092
FQC,1,0,2024-06-14T03:00:52.107Z,english_367.wav,0,1,1061,,,,,10,1,-55.73647309,0.87598705
FQC,1,0,2024-06-14T03:00:52.107Z,english_367.wav,0,1,1061,,,,,11,1.09391667,79.84600893,1.75535151
FQC,2,0,2024-06-14T03:00:52.107Z,english_442.wav,0,1,1123,,,,,0,0,-82.79812385,1.11396114
FQC,2,0,2024-06-14T03:00:52.107Z,english_442.wav,0,1,1123,,,,,1,0.1,13.26533661,1.75736632
FQC,2,0,2024-06-14T03:00:52.107Z,english_442.wav,0,1,1123,,,,,2,0.2,-27.77858548,0.50029201
FQC,2,0,2024-06-14T03:00:52.107Z,english_442.wav,0,1,1123,,,,,3,0.3,-8.21179447,0.94281284
FQC,2,0,2024-06-14T03:00:52.107Z,english_442.wav,0,1,1123,,,,,4,0.4,42.22985327,0.51943545
FQC,2,0,2024-06-14T03:00:52.107Z,english_442.wav,0,1,1123,,,,,5,0.5,28.42887923,1.6869371
FQC,2,0,2024-06-14T03:00:52.107Z,english_442.wav,0,1,1123,,,,,6,0.6,80.44970592,0.17301415
FQC,2,0,2024-06-14T03:00:52.107Z,english_442.wav,0,1,1123,,,,,7,0.7,21.26225147,1.48852219
FQC,2,0,2024-06-14T03:00:52.107Z,english_442.wav,0,1,1123,,,,,8,0.8,-37.93625661,1.01404105
FQC,2,0,2024-06-14T03:00:52.107Z,english_442.wav,0,1,1123,,,,,9,0.9,-26.7095537,1.17770211
FQC,2,0,2024-06-14T03:00:52.107Z,english_442.wav,0,1,1123,,,,,10,1,-21.16506099,1.73105649
FQC,2,0,2024-06-14T03:00:52.107Z,english_442.wav,0,1,1123,,,,,11,1.09391667,7.34933703,1.8720967
FQC,3,0,2024-06-14T03:00:52.107Z,english_260.wav,0,1,2458,,,,,0,0,15.97763116,1.94177241
FQC,3,0,2024-06-14T03:00:52.107Z,english_260.wav,0,1,2458,,,,,1,0.1,-13.3847134,0.74015027
FQC,3,0,2024-06-14T03:00:52.107Z,english_260.wav,0,1,2458,,,,,2,0.2,-29.63675022,0.26772348
FQC,3,0,2024-06-14T03:00:52.107Z,english_260.wav,0,1,2458,,,,,3,0.3,-94.12252117,0.24482628
FQC,3,0,2024-06-14T03:00:52.107Z,english_260.wav,0,1,2458,,,,,4,0.4,37.44404644,0.73676391
FQC,3,0,2024-06-14T03:00:52.107Z,english_260.wav,0,1,2458,,,,,5,0.5,-13.47562993,0.3869803
FQC,3,0,2024-06-14T03:00:52.107Z,english_260.wav,0,1,2458,,,,,6,0.6,28.72077468,0.62582606
FQC,3,0,2024-06-14T03:00:52.107Z,english_260.wav,0,1,2458,,,,,7,0.7,-25.31213713,0.50244213
FQC,3,0,2024-06-14T03:00:52.107Z,english_260.wav,0,1,2458,,,,,8,0.8,12.33791488,0.1260874
FQC,3,0,2024-06-14T03:00:52.107Z,english_260.wav,0,1,2458,,,,,9,0.9,1.56732473,0.8031848
FQC,3,0,2024-06-14T03:00:52.107Z,english_260.wav,0,1,2458,,,,,10,1,-29.87361041,1.5387452
FQC,3,0,2024-06-14T03:00:52.107Z,english_260.wav,0,1,2458,,,,,11,1.09391667,9.56042619,0.69389389
FQC,4,0,2024-06-14T03:00:52.107Z,english_854.wav,0,1,4087,,,,,0,0,41.65293518,0.10243767
FQC,4,0,2024-06-14T03:00:52.107Z,english_854.wav,0,1,4087,,,,,1,0.1,12.19905505,1.22737147
FQC,4,0,2024-06-14T03:00:52.107Z,english_854.wav,0,1,4087,,,,,2,0.2,-17.7367635,0.80405871
FQC,4,0,2024-06-14T03:00:52.107Z,english_854.wav,0,1,4087,,,,,3,0.3,82.5511566,1.55191633
FQC,4,0,2024-06-14T03:00:52.107Z,english_854.wav,0,1,4087,,,,,4,0.4,24.18828857,0.00681269
FQC,4,0,2024-06-14T03:00:52.107Z,english_854.wav,0,1,4087,,,,,5,0.5,-37.78588701,1.47971367
FQC,4,0,2024-06-14T03:00:52.107Z,english_854.wav,0,1,4087,,,,,6,0.6,12.42409681,0.34468947
FQC,4,0,2024-06-14T03:00:52.107Z,english_854.wav,0,1,4087,,,,,7,0.7,-1.0486121,0.87101018
FQC,4,0,2024-06-14T03:00:52.107Z,english_854.wav,0,1,4087,,,,,8,0.8,-50.74764629,1.12590191
FQC,4,0,2024-06-14T03:00:52.107Z,english_854.wav,0,1,4087,,,,,9,0.9,-93.36344031,1.039516
FQC,4,0,2024-06-14T03:00:52.107Z,english_854.wav,0,1,4087,,,,,10,1,39.91763763,1.26341771
FQC,4,0,2024-06-14T03:00:52.107Z,english_854.wav,0,1,4087,,,,,11,1.09391667,-16.62780594,1.79941384
FQC,5,0,2024-06-14T03:00:52.107Z,english_499.wav,0,1,2033,,,,,0,0,-7.75302897,0.29368166
FQC,5,0,2024-06-14T03:00:52.107Z,english_499.wav,0,1,2033,,,,,1,0.1,23.88086762,1.58141682
FQC,5,0,2024-06-14T03:00:52.107Z,english_499.wav,0,1,2033,,,,,2,0.2,-0.54854112,0.68322719
FQC,5,0,2024-06-14T03:00:52.107Z,english_499.wav,0,1,2033,,,,,3,0.3,11.38417001,1.0607803
FQC,5,0,2024-06-14T03:00:52.107Z,english_499.wav,0,1,2033,,,,,4,0.4,76.48373601,0.5459371
FQC,5,0,2024-06-14T03:00:52.107Z,english_499.wav,0,1,2033,,,,,5,0.5,34.68075028,1.82829661
FQC,5,0,2024-06-14T03:00:52.107Z,english_499.wav,0,1,2033,,,,,6,0.6,-14.34298834,1.23009433
FQC,5,0,2024-06-14T03:00:52.107Z,english_499.wav,0,1,2033,,,,,7,0.7,26.82043511,1.38131853
FQC,5,0,2024-06-14T03:00:52.107Z,english_499.wav,0,1,2033,,,,,8,0.8,60.32593039,0.45099226
FQC,5,0,2024-06-14T03:00:52.107Z,english_499.wav,0,1,2033,,,,,9,0.9,-38.40765739,1.79672484
FQC,5,0,2024-06-14T03:00:52.107Z,english_499.wav,0,1,2033,,,,,10,1,7.55243951,0.11050545
FQC,5,0,2024-06-14T03:00:52.107Z,english_499.wav,0,1,2033,,,,,11,1.09391667,-96.29085545,0.98124995
FQC,6,0,2024-06-14T03:00:52.107Z,english_23.wav,0,0,1059,,,,,0,0,-81.37820874,0.766267
FQC,6,0,2024-06-14T03:00:52.107Z,english_23.wav,0,0,1059,,,,,1,0.1,78.5335862,0.99963617
FQC,6,0,2024-06-14T03:00:52.107Z,english_23.wav,0,0,1059,,,,,2,0.2,2.49490295,0.86356333
FQC,6,0,2024-06-14T03:00:52.107Z,english_23.wav,0,0,1059,,,,,3,0.3,-86.79579175,1.2935249
FQC,6,0,2024-06-14T03:00:52.107Z,english_23.wav,0,0,1059,,,,,4,0.4,67.70163639,1.06200742
FQC,6,0,2024-06-14T03:00:52.107Z,english_23.wav,0,0,1059,,,,,5,0.5,15.95354821,0.35652914
FQC,6,0,2024-06-14T03:00:52.107Z,english_23.wav,0,0,1059,,,,,6,0.6,39.96363373,0.94623028
FQC,6,0,2024-06-14T03:00:52.107Z,english_23.wav,0,0,1059,,,,,7,0.7,26.12658962,1.75391992
FQC,6,0,2024-06-14T03:00:52.107Z,english_23.wav,0,0,1059,,,,,8,0.8,-97.91039736,0.51382587
FQC,6,0,2024-06-14T03:00:52.107Z,english_23.wav,0,0,1059,,,,,9,0.9,-31.02807756,0.42089134
FQC,6,0,2024-06-14T03:00:52.107Z,english_23.wav,0,0,1059,,,,,10,1,-20.21947661,0.35251111
FQC,6,0,2024-06-14T03:00:52.107Z,english_23.wav,0,0,1059,,,,,11,1.09391667,-62.16065677,0.28724109
FQC,7,0,2024-06-14T03:00:52.107Z,english_418.wav,0,0,915,,,,,0,0,17.48179392,1.16767435
FQC,7,0,2024-06-14T03:00:52.107Z,english_418.wav,0,0,915,,,,,1,0.1,-20.93259057,1.12895723
FQC,7,0,2024-06-14T03:00:52.107Z,english_418.wav,0,0,915,,,,,2,0.2,38.48191575,0.3034601
FQC,7,0,2024-06-14T03:00:52.107Z,english_418.wav,0,0,915,,,,,3,0.3,-43.04758346,1.48058882
FQC,7,0,2024-06-14T03:00:52.107Z,english_418.wav,0,0,915,,,,,4,0.4,-27.49631219,0.85133692
FQC,7,0,2024-06-14T03:00:52.107Z,english_418.wav,0,0,915,,,,,5,0.5,-43.30662093,1.76317004
FQC,7,0,2024-06-14T03:00:52.107Z,english_418.wav,0,0,915,,,,,6,0.6,-11.80067145,0.40561242
FQC,7,0,2024-06-14T03:00:52.107Z,english_418.wav,0,0,915,,,,,7,0.7,-65.69750473,0.69119528
FQC,7,0,2024-06-14T03:00:52.107Z,english_418.wav,0,0,915,,,,,8,0.8,36.09713106,0.70403422
FQC,7,0,2024-06-14T03:00:52.107Z,english_418.wav,0,0,915,,,,,9,0.9,-89.16917769,0.50785509
FQC,7,0,2024-06-14T03:00:52.107Z,english_418.wav,0,0,915,,,,,10,1,-11.53730863,0.15277714
FQC,7,0,2024-06-14T03:00:52.107Z,english_418.wav,0,0,915,,,,,11,1.09391667,91.60971419,0.42464397
FQC,8,0,2024-06-14T03:00:52.107Z,english_838.wav,0,1,941,,,,,0,0,66.81838689,0.11169914
FQC,8,0,2024-06-14T03:00:52.107Z,english_838.wav,0,1,941,,,,,1,0.1,94.65046979,0.93671825
FQC,8,0,2024-06-14T03:00:52.107Z,english_838.wav,0,1,941,,,,,2,0.2,91.71604822,0.60356353
FQC,8,0,2024-06-14T03:00:52.107Z,english_838.wav,0,1,941,,,,,3,0.3,78.43794704,1.60109406
FQC,8,0,2024-06-14T03:00:52.107Z,english_838.wav,0,1,941,,,,,4,0.4,-73.47833102,0.84291267
FQC,8,0,2024-06-14T03:00:52.107Z,english_838.wav,0,1,941,,,,,5,0.5,11.66623314,1.01630723
FQC,8,0,2024-06-14T03:00:52.107Z,english_838.wav,0,1,941,,,,,6,0.6,-66.11404528,1.23732351
FQC,8,0,2024-06-14T03:00:52.107Z,english_838.wav,0,1,941,,,,,7,0.7,28.35642813,1.37061964
FQC,8,0,2024-06-14T03:00:52.107Z,english_838.wav,0,1,941,,,,,8,0.8,73.65825503,1.54014816
FQC,8,0,2024-06-14T03:00:52.107Z,english_838.wav,0,1,941,,,,,9,0.9,-30.5228579,0.53177064
FQC,8,0,2024-06-14T03:00:52.107Z,english_838.wav,0,1,941,,,,,10,1,-38.8042384,1.47567338
FQC,8,0,2024-06-14T03:00:52.107Z,english_838.wav,0,1,941,,,,,11,1.09391667,90.67589939,0.7352694
FQC,9,0,2024-06-14T03:00:52.107Z,english_44.wav,0,0,2060,,,,,0,0,4.31802361,1.29887764
FQC,9,0,2024-06-14T03:00:52.107Z,english_44.wav,0,0,2060,,,,,1,0.1,47.0728406,1.11913745
FQC,9,0,2024-06-14T03:00:52.107Z,english_44.wav,0,0,2060,,,,,2,0.2,-14.77115386,1.22583552
FQC,9,0,2024-06-14T03:00:52.107Z,english_44.wav,0,0,2060,,,,,3,0.3,48.30959917,1.94992967
FQC,9,0,2024-06-14T03:00:52.107Z,english_44.wav,0,0,2060,,,,,4,0.4,-48.39525922,1.60078026
FQC,9,0,2024-06-14T03:00:52.107Z,english_44.wav,0,0,2060,,,,,5,0.5,-15.20190814,1.61096713
FQC,9,0,2024-06-14T03:00:52.107Z,english_44.wav,0,0,2060,,,,,6,0.6,-7.79536513,0.91293866
FQC,9,0,2024-06-14T03:00:52.107Z,english_44.wav,0,0,2060,,,,,7,0.7,-57.36737228,1.91414895
FQC,9,0,2024-06-14T03:00:52.107Z,english_44.wav,0,0,2060,,,,,8,0.8,-4.58128381,0.38490234
FQC,9,0,2024-06-14T03:00:52.107Z,english_44.wav,0,0,2060,,,,,9,0.9,-46.69208344,1.07535839
FQC,9,0,2024-06-14T03:00:52.107Z,english_44.wav,0,0,2060,,,,,10,1,-83.85792586,1.14300315
FQC,9,0,2024-06-14T03:00:52.107Z,english_44.wav,0,0,2060,,,,,11,1.09391667,-0.53505125,0.87829704
FQC,10,0,2024-06-14T03:00:52.107Z,english_165.wav,0,1,910,,,,,0,0,-2.19989306,1.80366268
FQC,10,0,2024-06-14T03:00:52.107Z,english_165.wav,0,1,910,,,,,1,0.1,-17.54385673,0.63199927
FQC,10,0,2024-06-14T03:00:52.107Z,english_165.wav,0,1,910,,,,,2,0.2,-35.4480887,1.72021084
FQC,10,0,2024-06-14T03:00:52.107Z,english_165.wav,0,1,910,,,,,3,0.3,38.42421814,1.85097281
FQC,10,0,2024-06-14T03:00:52.107Z,english_165.wav,0,1,910,,,,,4,0.4,19.51422171,0.29605958
FQC,10,0,2024-06-14T03:00:52.107Z,english_165.wav,0,1,910,,,,,5,0.5,-2.86344702,1.04155763
FQC,10,0,2024-06-14T03:00:52.107Z,english_165.wav,0,1,910,,,,,6,0.6,24.21245357,0.33290829
FQC,10,0,2024-06-14T03:00:52.107Z,english_165.wav,0,1,910,,,,,7,0.7,-20.07763652,0.77719776
FQC,10,0,2024-06-14T03:00:52.107Z,english_165.wav,0,1,910,,,,,8,0.8,-4.69526924,1.6690738
FQC,10,0,2024-06-14T03:00:52.107Z,english_165.wav,0,1,910,,,,,9,0.9,46.92767694,0.76251785
FQC,10,0,2024-06-14T03:00:52.107Z,english_165.wav,0,1,910,,,,,10,1,-4.88253914,1.74728665
FQC,10,0,2024-06-14T03:00:52.107Z,english_165.wav,0,1,910,,,,,11,1.09391667,23.85195976,0.67244999
FQC,11,0,2024-06-14T03:00:52.107Z,english_858.wav,0,1,779,,,,,0,0,-15.37505572,0.64393049
FQC,11,0,2024-06-14T03:00:52.107Z,english_858.wav,0,1,779,,,,,1,0.1,47.09921101,1.19859165
FQC,11,0,2024-06-14T03:00:52.107Z,english_858.wav,0,1,779,,,,,2,0.2,-76.0790668,1.93258785
FQC,11,0,2024-06-14T03:00:52.107Z,english_858.wav,0,1,779,,,,,3,0.3,-80.27517843,0.51921333
FQC,11,0,2024-06-14T03:00:52.107Z,english_858.wav,0,1,779,,,,,4,0.4,-25.73472899,0.72976133
FQC,11,0,2024-06-14T03:00:52.107Z,english_858.wav,0,1,779,,,,,5,0.5,-3.51621139,1.3656743
FQC,11,0,2024-06-14T03:00:52.107Z,english_858.wav,0,1,779,,,,,6,0.6,-42.58463449,1.33625445
FQC,11,0,2024-06-14T03:00:52.107Z,english_858.wav,0,1,779,,,,,7,0.7,-98.39604525,1.13554824
FQC,11,0,2024-06-14T03:00:52.107Z,english_858.wav,0,1,779,,,,,8,0.8,89.96106068,1.47590746
FQC,11,0,2024-06-14T03:00:52.107Z,english_858.wav,0,1,779,,,,,9,0.9,77.78135143,1.4256977
FQC,11,0,2024-06-14T03:00:52.107Z,english_858.wav,0,1,779,,,,,10,1,-48.66962061,0.99815363
FQC,11,0,2024-06-14T03:00:52.107Z,english_858.wav,0,1,779,,,,,11,1.09391667,-42.55835381,1.06699265
FQC,12,0,2024-06-14T03:00:52.107Z,english_528.wav,0,0,1557,,,,,0,0,89.92931817,1.55464654
FQC,12,0,2024-06-14T03:00:52.107Z,english_528.wav,0,0,1557,,,,,1,0.1,69.43761356,1.5693867
FQC,12,0,2024-06-14T03:00:52.107Z,english_528.wav,0,0,1557,,,,,2,0.2,-74.63581074,0.24579909
FQC,12,0,2024-06-14T03:00:52.107Z,english_528.wav,0,0,1557,,,,,3,0.3,66.94799646,0.89003704
FQC,12,0,2024-06-14T03:00:52.107Z,english_528.wav,0,0,1557,,,,,4,0.4,93.4667874,0.02709789
FQC,12,0,2024-06-14T03:00:52.107Z,english_528.wav,0,0,1557,,,,,5,0.5,-73.58583841,1.93159194
FQC,12,0,2024-06-14T03:00:52.107Z,english_528.wav,0,0,1557,,,,,6,0.6,60.58074805,1.21534299
FQC,12,0,2024-06-14T03:00:52.107Z,english_528.wav,0,0,1557,,,,,7,0.7,-19.51561534,1.54968918
FQC,12,0,2024-06-14T03:00:52.107Z,english_528.wav,0,0,1557,,,,,8,0.8,1.50674214,1.22283315
FQC,12,0,2024-06-14T03:00:52.107Z,english_528.wav,0,0,1557,,,,,9,0.9,-4.69145727,0.16463995
FQC,12,0,2024-06-14T03:00:52.107Z,english_528.wav,0,0,1557,,,,,10,1,-90.65001005,0.26004795
FQC,12,0,2024-06-14T03:00:52.107Z,english_528.wav,0,0,1557,,,,,11,1.09391667,80.40130965,0.00778095
FQC,13,0,2024-06-14T03:00:52.107Z,english_440.wav,0,1,1093,,,,,0,0,12.29982285,1.19760878
FQC,13,0,2024-06-14T03:00:52.107Z,english_440.wav,0,1,1093,,,,,1,0.1,29.91017607,0.84661932
FQC,13,0,2024-06-14T03:00:52.107Z,english_440.wav,0,1,1093,,,,,2,0.2,-33.88416802,0.98013694
FQC,13,0,2024-06-14T03:00:52.107Z,english_440.wav,0,1,1093,,,,,3,0.3,9.59442927,1.13268467
FQC,13,0,2024-06-14T03:00:52.107Z,english_440.wav,0,1,1093,,,,,4,0.4,67.78661643,0.35608992
FQC,13,0,2024-06-14T03:00:52.107Z,english_440.wav,0,1,1093,,,,,5,0.5,-67.23660087,0.95578268
FQC,13,0,2024-06-14T03:00:52.107Z,english_440.wav,0,1,1093,,,,,6,0.6,76.63778139,0.48847823
FQC,13,0,2024-06-14T03:00:52.107Z,english_440.wav,0,1,1093,,,,,7,0.7,73.67785479,0.77954634
FQC,13,0,2024-06-14T03:00:52.107Z,english_440.wav,0,1,1093,,,,,8,0.8,54.53431981,1.22473034
FQC,13,0,2024-06-14T03:00:52.107Z,english_440.wav,0,1,1093,,,,,9,0.9,-39.644329,1.58063768
FQC,13,0,2024-06-14T03:00:52.107Z,english_440.wav,0,1,1093,,,,,10,1,39.92173261,0.71218861
FQC,13,0,2024-06-14T03:00:52.107Z,english_440.wav,0,1,1093,,,,,11,1.09391667,84.70283428,1.21525734
FQC,14,0,2024-06-14T03:00:52.107Z,english_76.wav,0,1,4985,,,,,0,0,24.53692124,0.00919351
FQC,14,0,2024-06-14T03:00:52.107Z,english_76.wav,0,1,4985,,,,,1,0.1,4.74525032,1.89780668
FQC,14,0,2024-06-14T03:00:52.107Z,english_76.wav,0,1,4985,,,,,2,0.2,-11.73085706,1.28424019
FQC,14,0,2024-06-14T03:00:52.107Z,english_76.wav,0,1,4985,,,,,3,0.3,-67.51409973,0.97330389
FQC,14,0,2024-06-14T03:00:52.107Z,english_76.wav,0,1,4985,,,,,4,0.4,18.72894419,1.57704982
FQC,14,0,2024-06-14T03:00:52.107Z,english_76.wav,0,1,4985,,,,,5,0.5,-87.08655703,0.6100989
FQC,14,0,2024-06-14T03:00:52.107Z,english_76.wav,0,1,4985,,,,,6,0.6,8.86378377,0.1303689
FQC,14,0,2024-06-14T03:00:52.107Z,english_76.wav,0,1,4985,,,,,7,0.7,-88.70159666,1.07980698
FQC,14,0,2024-06-14T03:00:52.107Z,english_76.wav,0,1,4985,,,,,8,0.8,-19.63742154,0.36042094
FQC,14,0,2024-06-14T03:00:52.107Z,english_76.wav,0,1,4985,,,,,9,0.9,-28.01043875,1.46264173
FQC,14,0,2024-06-14T03:00:52.107Z,english_76.wav,0,1,4985,,,,,10,1,-30.77636244,0.93716424
FQC,14,0,2024-06-14T03:00:52.107Z,english_76.wav,0,1,4985,,,,,11,1.09391667,-23.02477644,0.27656628
FQC,15,0,2024-06-14T03:00:52.107Z,english_676.wav,0,1,1756,,,,,0,0,77.23951032,1.33259474
FQC,15,0,2024-06-14T03:00:52.107Z,english_676.wav,0,1,1756,,,,,1,0.1,27.47427545,0.90028372
FQC,15,0,2024-06-14T03:00:52.107Z,english_676.wav,0,1,1756,,,,,2,0.2,92.07370265,1.66717955
FQC,15,0,2024-06-14T03:00:52.107Z,english_676.wav,0,1,1756,,,,,3,0.3,-39.62602007,0.42158585
FQC,15,0,2024-06-14T03:00:52.107Z,english_676.wav,0,1,1756,,,,,4,0.4,-81.22107243,1.7878255
FQC,15,0,2024-06-14T03:00:52.107Z,english_676.wav,0,1,1756,,,,,5,0.5,-99.04707649,1.33780608
FQC,15,0,2024-06-14T03:00:52.107Z,english_676.wav,0,1,1756,,,,,6,0.6,-64.5180536,0.94548991
FQC,15,0,2024-06-14T03:00:52.107Z,english_676.wav,0,1,1756,,,,,7,0.7,91.29392748,1.43207041
FQC,15,0,2024-06-14T03:00:52.107Z,english_676.wav,0,1,1756,,,,,8,0.8,97.8635705,1.03085722
FQC,15,0,2024-06-14T03:00:52.107Z,english_676.wav,0,1,1756,,,,,9,0.9,-84.2423741,0.34895699
FQC,15,0,2024-06-14T03:00:52.107Z,english_676.wav,0,1,1756,,,,,10,1,-76.68596269,0.83720355
FQC,15,0,2024-06-14T03:00:52.107Z,english_676.wav,0,1,1756,,,,,11,1.09391667,65.10857552,1.31764415
FQC,16,0,2024-06-14T03:00:52.107Z,english_513.wav,0,0,905,,,,,0,0,69.69423026,1.14751405
FQC,16,0,2024-06-14T03:00:52.107Z,english_513.wav,0,0,905,,,,,1,0.1,-61.65221054,0.70036193
FQC,16,0,2024-06-14T03:00:52.107Z,english_513.wav,0,0,905,,,,,2,0.2,12.06620713,1.7124885
FQC,16,0,2024-06-14T03:00:52.107Z,english_513.wav,0,0,905,,,,,3,0.3,68.31024972,0.98016869
FQC,16,0,2024-06-14T03:00:52.107Z,english_513.wav,0,0,905,,,,,4,0.4,74.12641094,0.11366006
FQC,16,0,2024-06-14T03:00:52.107Z,english_513.wav,0,0,905,,,,,5,0.5,6.77833978,0.43979592
FQC,16,0,2024-06-14T03:00:52.107Z,english_513.wav,0,0,905,,,,,6,0.6,-4.07072349,1.91776754
FQC,16,0,2024-06-14T03:00:52.107Z,english_513.wav,0,0,905,,,,,7,0.7,-75.18978196,0.49107068
FQC,16,0,2024-06-14T03:00:52.107Z,english_513.wav,0,0,905,,,,,8,0.8,-25.44315508,0.92055325
FQC,16,0,2024-06-14T03:00:52.107Z,english_513.wav,0,0,905,,,,,9,0.9,1.64473536,0.8410121
FQC,16,0,2024-06-14T03:00:52.107Z,english_513.wav,0,0,905,,,,,10,1,-82.34234751,0.34671239
FQC,16,0,2024-06-14T03:00:52.107Z,english_513.wav,0,0,905,,,,,11,1.09391667,-17.87879592,1.52659427
FQC,17,0,2024-06-14T03:00:52.107Z,english_104.wav,0,0,1172,,,,,0,0,-44.36265311,0.57549521
FQC,17,0,2024-06-14T03:00:52.107Z,english_104.wav,0,0,1172,,,,,1,0.1,-54.18444724,1.28133407
FQC,17,0,2024-06-14T03:00:52.107Z,english_104.wav,0,0,1172,,,,,2,0.2,85.0725802,1.08596543
FQC,17,0,2024-06-14T03:00:52.107Z,english_104.wav,0,0,1172,,,,,3,0.3,26.58924477,1.95916684
FQC,17,0,2024-06-14T03:00:52.107Z,english_104.wav,0,0,1172,,,,,4,0.4,-12.96639675,0.37544414
FQC,17,0,2024-06-14T03:00:52.107Z,english_104.wav,0,0,1172,,,,,5,0.5,-66.5599203,0.78577569
FQC,17,0,2024-06-14T03:00:52.107Z,english_104.wav,0,0,1172,,,,,6,0.6,21.67855603,0.65129956
FQC,17,0,2024-06-14T03:00:52.107Z,english_104.wav,0,0,1172,,,,,7,0.7,-15.50031997,0.77672945
FQC,17,0,2024-06-14T03:00:52.107Z,english_104.wav,0,0,1172,,,,,8,0.8,-68.33822385,0.45937825
FQC,17,0,2024-06-14T03:00:52.107Z,english_104.wav,0,0,1172,,,,,9,0.9,47.23398252,0.91963539
FQC,17,0,2024-06-14T03:00:52.107Z,english_104.wav,0,0,1172,,,,,10,1,-52.36694839,0.17538168
FQC,17,0,2024-06-14T03:00:52.107Z,english_104.wav,0,0,1172,,,,,11,1.09391667,-55.61838026,1.965861
FQC,18,0,2024-06-14T03:00:52.107Z,english_433.wav,0,0,2415,,,,,0,0,-74.5918135,1.01979496
FQC,18,0,2024-06-14T03:00:52.107Z,english_433.wav,0,0,2415,,,,,1,0.1,28.79821434,0.80806248
FQC,18,0,2024-06-14T03:00:52.107Z,english_433.wav,0,0,2415,,,,,2,0.2,97.27836698,0.68923441
FQC,18,0,2024-06-14T03:00:52.107Z,english_433.wav,0,0,2415,,,,,3,0.3,70.33680468,0.29842911
FQC,18,0,2024-06-14T03:00:52.107Z,english_433.wav,0,0,2415,,,,,4,0.4,14.06818155,1.28851822
FQC,18,0,2024-06-14T03:00:52.107Z,english_433.wav,0,0,2415,,,,,5,0.5,-16.97736982,0.93328677
FQC,18,0,2024-06-14T03:00:52.107Z,english_433.wav,0,0,2415,,,,,6,0.6,75.14922554,0.10219622
FQC,18,0,2024-06-14T03:00:52.107Z,english_433.wav,0,0,2415,,,,,7,0.7,23.29055894,1.41929067
FQC,18,0,2024-06-14T03:00:52.107Z,english_433.wav,0,0,2415,,,,,8,0.8,-26.03253211,0.8010075
FQC,18,0,2024-06-14T03:00:52.107Z,english_433.wav,0,0,2415,,,,,9,0.9,28.95520226,0.76563128
FQC,18,0,2024-06-14T03:00:52.107Z,english_433.wav,0,0,2415,,,,,10,1,-61.82682237,0.36703777
FQC,18,0,2024-06-14T03:00:52.107Z,english_433.wav,0,0,2415,,,,,11,1.09391667,47.27585079,0.80268974
FQC,19,0,2024-06-14T03:00:52.107Z,english_167.wav,0,1,4192,,,,,0,0,24.63183347,0.27443004
FQC,19,0,2024-06-14T03:00:52.107Z,english_167.wav,0,1,4192,,,,,1,0.1,13.73246145,1.84171745
FQC,19,0,2024-06-14T03:00:52.107Z,english_167.wav,0,1,4192,,,,,2,0.2,-60.43880616,1.67288004
FQC,19,0,2024-06-14T03:00:52.107Z,english_167.wav,0,1,4192,,,,,3,0.3,7.09789875,0.06788145
FQC,19,0,2024-06-14T03:00:52.107Z,english_167.wav,0,1,4192,,,,,4,0.4,-33.19551678,0.85380936
FQC,19,0,2024-06-14T03:00:52.107Z,english_167.wav,0,1,4192,,,,,5,0.5,95.64356753,0.74095746
FQC,19,0,2024-06-14T03:00:52.107Z,english_167.wav,0,1,4192,,,,,6,0.6,-14.26788655,0.50118345
FQC,19,0,2024-06-14T03:00:52.107Z,english_167.wav,0,1,4192,,,,,7,0.7,66.37452918,0.34417323
FQC,19,0,2024-06-14T03:00:52.107Z,english_167.wav,0,1,4192,,,,,8,0.8,21.11990371,0.18827799
FQC,19,0,2024-06-14T03:00:52.107Z,english_167.wav,0,1,4192,,,,,9,0.9,91.73440173,1.5764248
FQC,19,0,2024-06-14T03:00:52.107Z,english_167.wav,0,1,4192,,,,,10,1,98.54474933,1.57665407
FQC,19,0,2024-06-14T03:00:52.107Z,english_167.wav,0,1,4192,,,,,11,1.09391667,47.66166762,0.79567252
FQC,20,0,2024-06-14T03:00:52.107Z,english_743.wav,0,1,1051,,,,,0,0,97.77122609,0.40936323
FQC,20,0,2024-06-14T03:00:52.107Z,english_743.wav,0,1,1051,,,,,1,0.1,75.39760322,0.83333714
FQC,20,0,2024-06-14T03:00:52.107Z,english_743.wav,0,1,1051,,,,,2,0.2,-92.56300928,1.9299588
FQC,20,0,2024-06-14T03:00:52.107Z,english_743.wav,0,1,1051,,,,,3,0.3,73.60734954,0.31044819
FQC,20,0,2024-06-14T03:00:52.107Z,english_743.wav,0,1,1051,,,,,4,0.4,84.82420222,1.11112706
FQC,20,0,2024-06-14T03:00:52.107Z,english_743.wav,0,1,1051,,,,,5,0.5,-57.35733587,0.30641345
FQC,20,0,2024-06-14T03:00:52.107Z,english_743.wav,0,1,1051,,,,,6,0.6,36.05799571,1.79191215
FQC,20,0,2024-06-14T03:00:52.107Z,english_743.wav,0,1,1051,,,,,7,0.7,-80.10781894,1.43353199
FQC,20,0,2024-06-14T03:00:52.107Z,english_743.wav,0,1,1051,,,,,8,0.8,79.81818761,0.61341243
FQC,20,0,2024-06-14T03:00:52.107Z,english_743.wav,0,1,1051,,,,,9,0.9,71.53815245,1.6920607
FQC,20,0,2024-06-14T03:00:52.107Z,english_743.wav,0,1,1051,,,,,10,1,39.3075371,0.85862509
FQC,20,0,2024-06-14T03:00:52.107Z,english_743.wav,0,1,1051,,,,,11,1.09391667,85.61049635,0.78833379
FQC,21,0,2024-06-14T03:00:52.107Z,english_219.wav,0,1,1721,,,,,0,0,-71.22269302,0.64229707
FQC,21,0,2024-06-14T03:00:52.107Z,english_219.wav,0,1,1721,,,,,1,0.1,81.0106601,0.83761643
FQC,21,0,2024-06-14T03:00:52.107Z,english_219.wav,0,1,1721,,,,,2,0.2,57.89841848,0.27469413
FQC,21,0,2024-06-14T03:00:52.107Z,english_219.wav,0,1,1721,,,,,3,0.3,-20.90242642,1.66128254
FQC,21,0,2024-06-14T03:00:52.107Z,english_219.wav,0,1,1721,,,,,4,0.4,-14.30711836,1.11706047
FQC,21,0,2024-06-14T03:00:52.107Z,english_219.wav,0,1,1721,,,,,5,0.5,-91.16050531,0.71185951
FQC,21,0,2024-06-14T03:00:52.107Z,english_219.wav,0,1,1721,,,,,6,0.6,-51.25509361,0.78321207
FQC,21,0,2024-06-14T03:00:52.107Z,english_219.wav,0,1,1721,,,,,7,0.7,-32.58617714,1.3379864
FQC,21,0,2024-06-14T03:00:52.107Z,english_219.wav,0,1,1721,,,,,8,0.8,-1.65304819,1.4411775
FQC,21,0,2024-06-14T03:00:52.107Z,english_219.wav,0,1,1721,,,,,9,0.9,-46.25752807,1.25595477
FQC,21,0,2024-06-14T03:00:52.107Z,english_219.wav,0,1,1721,,,,,10,1,-57.14980858,0.30425647
FQC,21,0,2024-06-14T03:00:52.107Z,english_219.wav,0,1,1721,,,,,11,1.09391667,-0.56518547,1.82291256
FQC,22,0,2024-06-14T03:00:52.107Z,english_937.wav,0,0,889,,,,,0,0,48.31161741,0.20999663
FQC,22,0,2024-06-14T03:00:52.107Z,english_937.wav,0,0,889,,,,,1,0.1,94.31178096,0.73195695
FQC,22,0,2024-06-14T03:00:52.107Z,english_937.wav,0,0,889,,,,,2,0.2,43.82009927,0.70757327
FQC,22,0,2024-06-14T03:00:52.107Z,english_937.wav,0,0,889,,,,,3,0.3,34.87322119,0.54050489
FQC,22,0,2024-06-14T03:00:52.107Z,english_937.wav,0,0,889,,,,,4,0.4,62.02386853,0.53879588
FQC,22,0,2024-06-14T03:00:52.107Z,english_937.wav,0,0,889,,,,,5,0.5,-76.91099942,0.40459306
FQC,22,0,2024-06-14T03:00:52.107Z,english_937.wav,0,0,889,,,,,6,0.6,85.65284811,1.92541325
FQC,22,0,2024-06-14T03:00:52.107Z,english_937.wav,0,0,889,,,,,7,0.7,16.74886634,1.53445282
FQC,22,0,2024-06-14T03:00:52.107Z,english_937.wav,0,0,889,,,,,8,0.8,-83.35160832,0.38375611
FQC,22,0,2024-06-14T03:00:52.107Z,english_937.wav,0,0,889,,,,,9,0.9,99.3500254,0.09137971
FQC,22,0,2024-06-14T03:00:52.107Z,english_937.wav,0,0,889,,,,,10,1,-72.7605227,0.90026455
FQC,22,0,2024-06-14T03:00:52.107Z,english_937.wav,0,0,889,,,,,11,1.09391667,-40.54115445,0.89252671
FQC,23,0,2024-06-14T03:00:52.107Z,english_794.wav,0,0,837,,,,,0,0,-94.32956865,0.17232345
FQC,23,0,2024-06-14T03:00:52.107Z,english_794.wav,0,0,837,,,,,1,0.1,-54.44529308,0.63768668
FQC,23,0,2024-06-14T03:00:52.107Z,english_794.wav,0,0,837,,,,,2,0.2,41.27752313,0.54334699
FQC,23,0,2024-06-14T03:00:52.107Z,english_794.wav,0,0,837,,,,,3,0.3,-24.41011935,0.41814183
FQC,23,0,2024-06-14T03:00:52.107Z,english_794.wav,0,0,837,,,,,4,0.4,-17.86009113,0.83205575
FQC,23,0,2024-06-14T03:00:52.107Z,english_794.wav,0,0,837,,,,,5,0.5,70.96620098,1.38587001
FQC,23,0,2024-06-14T03:00:52.107Z,english_794.wav,0,0,837,,,,,6,0.6,-6.92588192,0.50257762
FQC,23,0,2024-06-14T03:00:52.107Z,english_794.wav,0,0,837,,,,,7,0.7,1.86567935,1.6396819
FQC,23,0,2024-06-14T03:00:52.107Z,english_794.wav,0,0,837,,,,,8,0.8,85.29780195,1.19491374
FQC,23,0,2024-06-14T03:00:52.107Z,english_794.wav,0,0,837,,,,,9,0.9,66.99714839,0.22376499
FQC,23,0,2024-06-14T03:00:52.107Z,english_794.wav,0,0,837,,,,,10,1,34.72052642,0.81945326
FQC,23,0,2024-06-14T03:00:52.107Z,english_794.wav,0,0,837,,,,,11,1.09391667,18.1862992,1.51337696
FQC,24,0,2024-06-14T03:00:52.107Z,english_253.wav,0,0,1482,,,,,0,0,-76.54232622,1.69452202
FQC,24,0,2024-06-14T03:00:52.107Z,english_253.wav,0,0,1482,,,,,1,0.1,23.75797542,0.94155674
FQC,24,0,2024-06-14T03:00:52.107Z,english_253.wav,0,0,1482,,,,,2,0.2,-82.53055468,0.70353207
FQC,24,0,2024-06-14T03:00:52.107Z,english_253.wav,0,0,1482,,,,,3,0.3,19.65476927,1.42331271
FQC,24,0,2024-06-14T03:00:52.107Z,english_253.wav,0,0,1482,,,,,4,0.4,-55.81107988,1.11334266
FQC,24,0,2024-06-14T03:00:52.107Z,english_253.wav,0,0,1482,,,,,5,0.5,73.24574297,1.34927457
FQC,24,0,2024-06-14T03:00:52.107Z,english_253.wav,0,0,1482,,,,,6,0.6,-22.29926161,0.26375751
FQC,24,0,2024-06-14T03:00:52.107Z,english_253.wav,0,0,1482,,,,,7,0.7,-11.91242057,0.63100518
FQC,24,0,2024-06-14T03:00:52.107Z,english_253.wav,0,0,1482,,,,,8,0.8,-33.99896833,0.22145521
FQC,24,0,2024-06-14T03:00:52.107Z,english_253.wav,0,0,1482,,,,,9,0.9,32.30473406,0.69052847
FQC,24,0,2024-06-14T03:00:52.107Z,english_253.wav,0,0,1482,,,,,10,1,68.10745133,1.32352728
FQC,24,0,2024-06-14T03:00:52.107Z,english_253.wav,0,0,1482,,,,,11,1.09391667,-22.82824608,0.79605757
FQC,25,0,2024-06-14T03:00:52.107Z,english_813.wav,0,0,891,,,,,0,0,-21.47810291,0.42494113
FQC,25,0,2024-06-14T03:00:52.107Z,english_813.wav,0,0,891,,,,,1,0.1,-84.13417806,0.85563352
FQC,25,0,2024-06-14T03:00:52.107Z,english_813.wav,0,0,891,,,,,2,0.2,-18.57483833,1.62435889
FQC,25,0,2024-06-14T03:00:52.107Z,english_813.wav,0,0,891,,,,,3,0.3,85.46223106,1.84520067
FQC,25,0,2024-06-14T03:00:52.107Z,english_813.wav,0,0,891,,,,,4,0.4,-47.12255135,0.16630065
FQC,25,0,2024-06-14T03:00:52.107Z,english_813.wav,0,0,891,,,,,5,0.5,55.13909294,1.66622477
FQC,25,0,2024-06-14T03:00:52.107Z,english_813.wav,0,0,891,,,,,6,0.6,-92.27868598,1.29440347
FQC,25,0,2024-06-14T03:00:52.107Z,english_813.wav,0,0,891,,,,,7,0.7,-98.65237277,1.30366
FQC,25,0,2024-06-14T03:00:52.107Z,english_813.wav,0,0,891,,,,,8,0.8,-73.59665384,0.95942882
FQC,25,0,2024-06-14T03:00:52.107Z,english_813.wav,0,0,891,,,,,9,0.9,99.75598896,0.41648042
FQC,25,0,2024-06-14T03:00:52.107Z,english_813.wav,0,0,891,,,,,10,1,22.46235737,0.55260475
FQC,25,0,2024-06-14T03:00:52.107Z,english_813.wav,0,0,891,,,,,11,1.09391667,-23.97281603,0.8655965
FQC,26,0,2024-06-14T03:00:52.107Z,english_793.wav,0,1,885,,,,,0,0,-39.70617561,0.49970472
FQC,26,0,2024-06-14T03:00:52.107Z,english_793.wav,0,1,885,,,,,1,0.1,-29.28823244,0.64262829
FQC,26,0,2024-06-14T03:00:52.107Z,english_793.wav,0,1,885,,,,,2,0.2,-89.65836103,1.52317209
FQC,26,0,2024-06-14T03:00:52.107Z,english_793.wav,0,1,885,,,,,3,0.3,9.66432805,0.03732268
FQC,26,0,2024-06-14T03:00:52.107Z,english_793.wav,0,1,885,,,,,4,0.4,46.78400104,0.76197013
FQC,26,0,2024-06-14T03:00:52.107Z,english_793.wav,0,1,885,,,,,5,0.5,77.17847788,1.20681543
FQC,26,0,2024-06-14T03:00:52.107Z,english_793.wav,0,1,885,,,,,6,0.6,65.90216738,0.39643945
FQC,26,0,2024-06-14T03:00:52.107Z,english_793.wav,0,1,885,,,,,7,0.7,19.02180402,0.55038392
FQC,26,0,2024-06-14T03:00:52.107Z,english_793.wav,0,1,885,,,,,8,0.8,4.99424524,0.97724905
FQC,26,0,2024-06-14T03:00:52.107Z,english_793.wav,0,1,885,,,,,9,0.9,95.94113908,1.29198989
FQC,26,0,2024-06-14T03:00:52.107Z,english_793.wav,0,1,885,,,,,10,1,5.28849012,1.94187371
FQC,26,0,2024-06-14T03:00:52.107Z,english_793.wav,0,1,885,,,,,11,1.09391667,-28.1855206,0.04726533
FQC,27,0,2024-06-14T03:00:52.107Z,english_553.wav,0,1,683,,,,,0,0,-24.88703549,1.59716139
FQC,27,0,2024-06-14T03:00:52.107Z,english_553.wav,0,1,683,,,,,1,0.1,-32.78735509,1.94339053
FQC,27,0,2024-06-14T03:00:52.107Z,english_553.wav,0,1,683,,,,,2,0.2,11.78475046,0.07176258
FQC,27,0,2024-06-14T03:00:52.107Z,english_553.wav,0,1,683,,,,,3,0.3,-49.38675094,1.26590086
FQC,27,0,2024-06-14T03:00:52.107Z,english_553.wav,0,1,683,,,,,4,0.4,87.03858762,0.74193634
FQC,27,0,2024-06-14T03:00:52.107Z,english_553.wav,0,1,683,,,,,5,0.5,60.30502824,1.61552542
FQC,27,0,2024-06-14T03:00:52.107Z,english_553.wav,0,1,683,,,,,6,0.6,10.13311967,0.16579471
FQC,27,0,2024-06-14T03:00:52.107Z,english_553.wav,0,1,683,,,,,7,0.7,67.86345644,1.42366471
FQC,27,0,2024-06-14T03:00:52.107Z,english_553.wav,0,1,683,,,,,8,0.8,-60.17677271,1.14167702
FQC,27,0,2024-06-14T03:00:52.107Z,english_553.wav,0,1,683,,,,,9,0.9,12.98417217,1.59651853
FQC,27,0,2024-06-14T03:00:52.107Z,english_553.wav,0,1,683,,,,,10,1,49.25042129,1.95090435
FQC,27,0,2024-06-14T03:00:52.107Z,english_553.wav,0,1,683,,,,,11,1.09391667,-82.97566862,0.60671916
FQC,28,0,2024-06-14T03:00:52.107Z,english_180.wav,0,1,798,,,,,0,0,42.85478744,0.49645543
FQC,28,0,2024-06-14T03:00:52.107Z,english_180.wav,0,1,798,,,,,1,0.1,11.60642133,1.40377655
FQC,28,0,2024-06-14T03:00:52.107Z,english_180.wav,0,1,798,,,,,2,0.2,-27.38772625,0.70453688
FQC,28,0,2024-06-14T03:00:52.107Z,english_180.wav,0,1,798,,,,,3,0.3,80.41560742,1.01697082
FQC,28,0,2024-06-14T03:00:52.107Z,english_180.wav,0,1,798,,,,,4,0.4,-67.11843031,0.59692665
FQC,28,0,2024-06-14T03:00:52.107Z,english_180.wav,0,1,798,,,,,5,0.5,25.47679572,0.43242047
FQC,28,0,2024-06-14T03:00:52.107Z,english_180.wav,0,1,798,,,,,6,0.6,29.48556379,0.65503898
FQC,28,0,2024-06-14T03:00:52.107Z,english_180.wav,0,1,798,,,,,7,0.7,-62.53851543,1.14916488
FQC,28,0,2024-06-14T03:00:52.107Z,english_180.wav,0,1,798,,,,,8,0.8,-49.48041885,0.12826618
FQC,28,0,2024-06-14T03:00:52.107Z,english_180.wav,0,1,798,,,,,9,0.9,29.80835172,1.82068044
FQC,28,0,2024-06-14T03:00:52.107Z,english_180.wav,0,1,798,,,,,10,1,83.85336689,1.93281092
FQC,28,0,2024-06-14T03:00:52.107Z,english_180.wav,0,1,798,,,,,11,1.09391667,-22.17498974,1.38105191
FQC,29,0,2024-06-14T03:00:52.107Z,english_432.wav,0,1,740,,,,,0,0,28.49955807,0.25208372
FQC,29,0,2024-06-14T03:00:52.107Z,english_432.wav,0,1,740,,,,,1,0.1,-31.8275444,0.73448825
FQC,29,0,2024-06-14T03:00:52.107Z,english_432.wav,0,1,740,,,,,2,0.2,24.24217544,0.75780001
FQC,29,0,2024-06-14T03:00:52.107Z,english_432.wav,0,1,740,,,,,3,0.3,-66.09269444,1.1180686
FQC,29,0,2024-06-14T03:00:52.107Z,english_432.wav,0,1,740,,,,,4,0.4,-62.15798019,1.06816696
FQC,29,0,2024-06-14T03:00:52.107Z,english_432.wav,0,1,740,,,,,5,0.5,-49.72154406,0.60613643
FQC,29,0,2024-06-14T03:00:52.107Z,english_432.wav,0,1,740,,,,,6,0.6,-47.69762913,0.58276722
FQC,29,0,2024-06-14T03:00:52.107Z,english_432.wav,0,1,740,,,,,7,0.7,77.36626765,1.4653334
FQC,29,0,2024-06-14T03:00:52.107Z,english_432.wav,0,1,740,,,,,8,0.8,5.83013874,1.3937813
FQC,29,0,2024-06-14T03:00:52.107Z,english_432.wav,0,1,740,,,,,9,0.9,28.26329168,1.50157436
FQC,29,0,2024-06-14T03:00:52.107Z,english_432.wav,0,1,740,,,,,10,1,-41.71680011,1.14185861
FQC,29,0,2024-06-14T03:00:52.107Z,english_432.wav,0,1,740,,,,,11,1.09391667,67.89473062,1.59474316
FQC,30,0,2024-06-14T03:00:52.107Z,english_129.wav,0,1,1936,,,,,0,0,-44.56015923,0.4294496
FQC,30,0,2024-06-14T03:00:52.107Z,english_129.wav,0,1,1936,,,,,1,0.1,-58.7339049,1.17691203
FQC,30,0,2024-06-14T03:00:52.107Z,english_129.wav,0,1,1936,,,,,2,0.2,4.64427176,0.00792795
FQC,30,0,2024-06-14T03:00:52.107Z,english_129.wav,0,1,1936,,,,,3,0.3,36.13533526,1.62066926
FQC,30,0,2024-06-14T03:00:52.107Z,english_129.wav,0,1,1936,,,,,4,0.4,49.60525777,0.46131477
FQC,30,0,2024-06-14T03:00:52.107Z,english_129.wav,0,1,1936,,,,,5,0.5,66.06381969,0.9562515
FQC,30,0,2024-06-14T03:00:52.107Z,english_129.wav,0,1,1936,,,,,6,0.6,-22.87129592,0.58790942
FQC,30,0,2024-06-14T03:00:52.107Z,english_129.wav,0,1,1936,,,,,7,0.7,88.56170171,0.99020247
FQC,30,0,2024-06-14T03:00:52.107Z,english_129.wav,0,1,1936,,,,,8,0.8,17.84118116,0.9945804
FQC,30,0,2024-06-14T03:00:52.107Z,english_129.wav,0,1,1936,,,,,9,0.9,-28.77319114,1.36695424
FQC,30,0,2024-06-14T03:00:52.107Z,english_129.wav,0,1,1936,,,,,10,1,86.03376827,0.72564016
FQC,30,0,2024-06-14T03:00:52.107Z,english_129.wav,0,1,1936,,,,,11,1.09391667,39.56098905,1.15202696
FQC,31,0,2024-06-14T03:00:52.107Z,english_452.wav,0,1,2052,,,,,0,0,-16.61864147,1.17401117
FQC,31,0,2024-06-14T03:00:52.107Z,english_452.wav,0,1,2052,,,,,1,0.1,-22.13078498,0.56539659
FQC,31,0,2024-06-14T03:00:52.107Z,english_452.wav,0,1,2052,,,,,2,0.2,-16.24569285,0.39679082
FQC,31,0,2024-06-14T03:00:52.107Z,english_452.wav,0,1,2052,,,,,3,0.3,2.20276296,1.32249954
FQC,31,0,2024-06-14T03:00:52.107Z,english_452.wav,0,1,2052,,,,,4,0.4,38.28427002,1.17645405
FQC,31,0,2024-06-14T03:00:52.107Z,english_452.wav,0,1,2052,,,,,5,0.5,-18.79047659,1.63330715
FQC,31,0,2024-06-14T03:00:52.107Z,english_452.wav,0,1,2052,,,,,6,0.6,78.89075327,1.91411401
FQC,31,0,2024-06-14T03:00:52.107Z,english_452.wav,0,1,2052,,,,,7,0.7,92.92821396,1.71360753
FQC,31,0,2024-06-14T03:00:52.107Z,english_452.wav,0,1,2052,,,,,8,0.8,97.94945302,1.56668356
FQC,31,0,2024-06-14T03:00:52.107Z,english_452.wav,0,1,2052,,,,,9,0.9,87.69669084,1.33916848
FQC,31,0,2024-06-14T03:00:52.107Z,english_452.wav,0,1,2052,,,,,10,1,59.46975303,0.94959461
FQC,31,0,2024-06-14T03:00:52.107Z,english_452.wav,0,1,2052,,,,,11,1.09391667,33.32060313,0.70317006
FQC,32,0,2024-06-14T03:00:52.107Z,english_512.wav,0,0,860,,,,,0,0,-23.56559233,0.34737706
FQC,32,0,2024-06-14T03:00:52.107Z,english_512.wav,0,0,860,,,,,1,0.1,44.15406219,1.80415703
FQC,32,0,2024-06-14T03:00:52.107Z,english_512.wav,0,0,860,,,,,2,0.2,90.2297784,1.77401658
FQC,32,0,2024-06-14T03:00:52.107Z,english_512.wav,0,0,860,,,,,3,0.3,31.62400251,0.80962243
FQC,32,0,2024-06-14T03:00:52.107Z,english_512.wav,0,0,860,,,,,4,0.4,-71.52797272,0.21525837
FQC,32,0,2024-06-14T03:00:52.107Z,english_512.wav,0,0,860,,,,,5,0.5,-17.92560707,0.09930304
FQC,32,0,2024-06-14T03:00:52.107Z,english_512.wav,0,0,860,,,,,6,0.6,78.14138422,0.93763429
FQC,32,0,2024-06-14T03:00:52.107Z,english_512.wav,0,0,860,,,,,7,0.7,-0.55474778,0.07747984
FQC,32,0,2024-06-14T03:00:52.107Z,english_512.wav,0,0,860,,,,,8,0.8,-0.96763975,1.28799801
FQC,32,0,2024-06-14T03:00:52.107Z,english_512.wav,0,0,860,,,,,9,0.9,18.83454105,0.32721238
FQC,32,0,2024-06-14T03:00:52.107Z,english_512.wav,0,0,860,,,,,10,1,3.09463475,0.68607536
FQC,32,0,2024-06-14T03:00:52.107Z,english_512.wav,0,0,860,,,,,11,1.09391667,65.7955852,1.62840549
FQC,33,0,2024-06-14T03:00:52.107Z,english_34.wav,0,1,742,,,,,0,0,9.71692873,1.51290073
FQC,33,0,2024-06-14T03:00:52.107Z,english_34.wav,0,1,742,,,,,1,0.1,-32.4765448,1.69209185
FQC,33,0,2024-06-14T03:00:52.107Z,english_34.wav,0,1,742,,,,,2,0.2,15.43761556,1.03006511
FQC,33,0,2024-06-14T03:00:52.107Z,english_34.wav,0,1,742,,,,,3,0.3,58.61018381,0.24425739
FQC,33,0,2024-06-14T03:00:52.107Z,english_34.wav,0,1,742,,,,,4,0.4,25.83507297,1.41814457
FQC,33,0,2024-06-14T03:00:52.107Z,english_34.wav,0,1,742,,,,,5,0.5,-56.32199776,1.04050252
FQC,33,0,2024-06-14T03:00:52.107Z,english_34.wav,0,1,742,,,,,6,0.6,-56.68859517,0.2977066
FQC,33,0,2024-06-14T03:00:52.107Z,english_34.wav,0,1,742,,,,,7,0.7,-35.23691581,0.84278016
FQC,33,0,2024-06-14T03:00:52.107Z,english_34.wav,0,1,742,,,,,8,0.8,-38.05292499,1.02765016
FQC,33,0,2024-06-14T03:00:52.107Z,english_34.wav,0,1,742,,,,,9,0.9,-19.80503333,1.82923519
FQC,33,0,2024-06-14T03:00:52.107Z,english_34.wav,0,1,742,,,,,10,1,18.63515133,1.36188649
FQC,33,0,2024-06-14T03:00:52.107Z,english_34.wav,0,1,742,,,,,11,1.09391667,20.3470687,1.04188566
FQC,34,0,2024-06-14T03:00:52.107Z,english_723.wav,0,0,1532,,,,,0,0,41.38539941,1.7889603
FQC,34,0,2024-06-14T03:00:52.107Z,english_723.wav,0,0,1532,,,,,1,0.1,-10.01095303,0.1038592
FQC,34,0,2024-06-14T03:00:52.107Z,english_723.wav,0,0,1532,,,,,2,0.2,29.27272113,0.53110076
FQC,34,0,2024-06-14T03:00:52.107Z,english_723.wav,0,0,1532,,,,,3,0.3,-49.7176535,0.29760974
FQC,34,0,2024-06-14T03:00:52.107Z,english_723.wav,0,0,1532,,,,,4,0.4,-10.52042461,1.31106604
FQC,34,0,2024-06-14T03:00:52.107Z,english_723.wav,0,0,1532,,,,,5,0.5,-43.11656662,0.93542765
FQC,34,0,2024-06-14T03:00:52.107Z,english_723.wav,0,0,1532,,,,,6,0.6,-24.09481257,1.32967349
FQC,34,0,2024-06-14T03:00:52.107Z,english_723.wav,0,0,1532,,,,,7,0.7,61.11286308,1.11219452
FQC,34,0,2024-06-14T03:00:52.107Z,english_723.wav,0,0,1532,,,,,8,0.8,-37.09128746,0.4392085
FQC,34,0,2024-06-14T03:00:52.107Z,english_723.wav,0,0,1532,,,,,9,0.9,71.58023837,1.93673799
FQC,34,0,2024-06-14T03:00:52.107Z,english_723.wav,0,0,1532,,,,,10,1,30.56657054,0.01664343
FQC,34,0,2024-06-14T03:00:52.107Z,english_723.wav,0,0,1532,,,,,11,1.09391667,-5.36806636,0.22848658
FQC,35,0,2024-06-14T03:00:52.107Z,english_38.wav,0,0,1864,,,,,0,0,84.84297862,0.12127835
FQC,35,0,2024-06-14T03:00:52.107Z,english_38.wav,0,0,1864,,,,,1,0.1,-41.13766339,0.39553601
FQC,35,0,2024-06-14T03:00:52.107Z,english_38.wav,0,0,1864,,,,,2,0.2,31.0243005,1.29400733
FQC,35,0,2024-06-14T03:00:52.107Z,english_38.wav,0,0,1864,,,,,3,0.3,51.71643077,0.38578685
FQC,35,0,2024-06-14T03:00:52.107Z,english_38.wav,0,0,1864,,,,,4,0.4,-15.52187673,0.67216324
FQC,35,0,2024-06-14T03:00:52.107Z,english_38.wav,0,0,1864,,,,,5,0.5,37.47478577,0.61922356
FQC,35,0,2024-06-14T03:00:52.107Z,english_38.wav,0,0,1864,,,,,6,0.6,27.01527087,0.0538602
FQC,35,0,2024-06-14T03:00:52.107Z,english_38.wav,0,0,1864,,,,,7,0.7,44.60136097,0.56901487
FQC,35,0,2024-06-14T03:00:52.107Z,english_38.wav,0,0,1864,,,,,8,0.8,-52.37417606,1.28646438
FQC,35,0,2024-06-14T03:00:52.107Z,english_38.wav,0,0,1864,,,,,9,0.9,-48.58777174,0.80149466
FQC,35,0,2024-06-14T03:00:52.107Z,english_38.wav,0,0,1864,,,,,10,1,7.20305444,1.28981754
FQC,35,0,2024-06-14T03:00:52.107Z,english_38.wav,0,0,1864,,,,,11,1.09391667,-74.66052111,0.46742112
FQC,36,0,2024-06-14T03:00:52.107Z,english_642.wav,0,1,781,,,,,0,0,91.32452464,1.47199137
FQC,36,0,2024-06-14T03:00:52.107Z,english_642.wav,0,1,781,,,,,1,0.1,25.50334758,0.86889355
FQC,36,0,2024-06-14T03:00:52.107Z,english_642.wav,0,1,781,,,,,2,0.2,16.65062249,0.12872518
FQC,36,0,2024-06-14T03:00:52.107Z,english_642.wav,0,1,781,,,,,3,0.3,59.49550973,0.72033949
FQC,36,0,2024-06-14T03:00:52.107Z,english_642.wav,0,1,781,,,,,4,0.4,71.09902,1.524748
FQC,36,0,2024-06-14T03:00:52.107Z,english_642.wav,0,1,781,,,,,5,0.5,32.48084173,1.90798091
FQC,36,0,2024-06-14T03:00:52.107Z,english_642.wav,0,1,781,,,,,6,0.6,-3.97213515,1.71709986
FQC,36,0,2024-06-14T03:00:52.107Z,english_642.wav,0,1,781,,,,,7,0.7,-1.84724139,1.47754373
FQC,36,0,2024-06-14T03:00:52.107Z,english_642.wav,0,1,781,,,,,8,0.8,94.84850521,1.43391033
FQC,36,0,2024-06-14T03:00:52.107Z,english_642.wav,0,1,781,,,,,9,0.9,-6.66803952,1.68537408
FQC,36,0,2024-06-14T03:00:52.107Z,english_642.wav,0,1,781,,,,,10,1,95.32562857,1.1201051
FQC,36,0,2024-06-14T03:00:52.107Z,english_642.wav,0,1,781,,,,,11,1.09391667,43.75707904,1.27926817
FQC,37,0,2024-06-14T03:00:52.107Z,english_778.wav,0,0,870,,,,,0,0,82.0288253,1.66099758
FQC,37,0,2024-06-14T03:00:52.107Z,english_778.wav,0,0,870,,,,,1,0.1,-20.3816384,0.6394452
FQC,37,0,2024-06-14T03:00:52.107Z,english_778.wav,0,0,870,,,,,2,0.2,20.1187508,1.73198521
FQC,37,0,2024-06-14T03:00:52.107Z,english_778.wav,0,0,870,,,,,3,0.3,-67.3840406,1.63414449
FQC,37,0,2024-06-14T03:00:52.107Z,english_778.wav,0,0,870,,,,,4,0.4,41.792495,0.91528965
FQC,37,0,2024-06-14T03:00:52.107Z,english_778.wav,0,0,870,,,,,5,0.5,69.2908492,1.84340145
FQC,37,0,2024-06-14T03:00:52.107Z,english_778.wav,0,0,870,,,,,6,0.6,-41.9809295,0.70098427
FQC,37,0,2024-06-14T03:00:52.107Z,english_778.wav,0,0,870,,,,,7,0.7,93.0761369,1.59677801
FQC,37,0,2024-06-14T03:00:52.107Z,english_778.wav,0,0,870,,,,,8,0.8,4.08814008,0.75626513
FQC,37,0,2024-06-14T03:00:52.107Z,english_778.wav,0,0,870,,,,,9,0.9,-0.0375531871,1.05104073
FQC,37,0,2024-06-14T03:00:52.107Z,english_778.wav,0,0,870,,,,,10,1,-79.0647822,0.42401001
FQC,37,0,2024-06-14T03:00:52.107Z,english_778.wav,0,0,870,,,,,11,1.09391667,-53.0664028,1.42241932
FQC,38,0,2024-06-14T03:00:52.107Z,english_615.wav,0,0,2703,,,,,0,0,-59.46419525,1.45272118
FQC,38,0,2024-06-14T03:00:52.107Z,english_615.wav,0,0,2703,,,,,1,0.1,57.8993682,1.05218588
FQC,38,0,2024-06-14T03:00:52.107Z,english_615.wav,0,0,2703,,,,,2,0.2,96.50473449,0.16877242
FQC,38,0,2024-06-14T03:00:52.107Z,english_615.wav,0,0,2703,,,,,3,0.3,70.35497861,0.80491698
FQC,38,0,2024-06-14T03:00:52.107Z,english_615.wav,0,0,2703,,,,,4,0.4,41.87750843,0.90543026
FQC,38,0,2024-06-14T03:00:52.107Z,english_615.wav,0,0,2703,,,,,5,0.5,-81.49095224,1.05177913
FQC,38,0,2024-06-14T03:00:52.107Z,english_615.wav,0,0,2703,,,,,6,0.6,57.42750946,0.09637859
FQC,38,0,2024-06-14T03:00:52.107Z,english_615.wav,0,0,2703,,,,,7,0.7,4.11503666,0.17788962
FQC,38,0,2024-06-14T03:00:52.107Z,english_615.wav,0,0,2703,,,,,8,0.8,-69.97079252,0.7335246
FQC,38,0,2024-06-14T03:00:52.107Z,english_615.wav,0,0,2703,,,,,9,0.9,35.15344639,1.1040214
FQC,38,0,2024-06-14T03:00:52.107Z,english_615.wav,0,0,2703,,,,,10,1,-81.03238812,0.9742901
FQC,38,0,2024-06-14T03:00:52.107Z,english_615.wav,0,0,2703,,,,,11,1.09391667,-73.59723868,0.84036339
FQC,39,0,2024-06-14T03:00:52.107Z,english_384.wav,0,0,2147,,,,,0,0,25.59746769,0.31530466
FQC,39,0,2024-06-14T03:00:52.107Z,english_384.wav,0,0,2147,,,,,1,0.1,77.10112132,1.4723663
FQC,39,0,2024-06-14T03:00:52.107Z,english_384.wav,0,0,2147,,,,,2,0.2,-44.89854527,0.76042634
FQC,39,0,2024-06-14T03:00:52.107Z,english_384.wav,0,0,2147,,,,,3,0.3,-92.39491606,1.26765442
FQC,39,0,2024-06-14T03:00:52.107Z,english_384.wav,0,0,2147,,,,,4,0.4,-7.21963548,0.4561299
FQC,39,0,2024-06-14T03:00:52.107Z,english_384.wav,0,0,2147,,,,,5,0.5,-12.57418593,0.66006902
FQC,39,0,2024-06-14T03:00:52.107Z,english_384.wav,0,0,2147,,,,,6,0.6,-91.58210139,0.52858229
FQC,39,0,2024-06-14T03:00:52.107Z,english_384.wav,0,0,2147,,,,,7,0.7,-83.16364251,0.95307861
FQC,39,0,2024-06-14T03:00:52.107Z,english_384.wav,0,0,2147,,,,,8,0.8,-99.35642135,1.25910316
FQC,39,0,2024-06-14T03:00:52.107Z,english_384.wav,0,0,2147,,,,,9,0.9,39.42669245,1.31614459
FQC,39,0,2024-06-14T03:00:52.107Z,english_384.wav,0,0,2147,,,,,10,1,2.14731946,0.23757066
FQC,39,0,2024-06-14T03:00:52.107Z,english_384.wav,0,0,2147,,,,,11,1.09391667,-81.26968126,1.34705459
FQC,40,0,2024-06-14T03:00:52.107Z,english_827.wav,0,0,1961,,,,,0,0,68.00908508,0.75704727
FQC,40,0,2024-06-14T03:00:52.107Z,english_827.wav,0,0,1961,,,,,1,0.1,62.86337393,1.26162294
FQC,40,0,2024-06-14T03:00:52.107Z,english_827.wav,0,0,1961,,,,,2,0.2,-78.66229145,0.12232387
FQC,40,0,2024-06-14T03:00:52.107Z,english_827.wav,0,0,1961,,,,,3,0.3,22.2543924,1.21737576
FQC,40,0,2024-06-14T03:00:52.107Z,english_827.wav,0,0,1961,,,,,4,0.4,-38.38701394,0.91087215
FQC,40,0,2024-06-14T03:00:52.107Z,english_827.wav,0,0,1961,,,,,5,0.5,42.22150711,0.43725261
FQC,40,0,2024-06-14T03:00:52.107Z,english_827.wav,0,0,1961,,,,,6,0.6,-45.69118252,1.41339021
FQC,40,0,2024-06-14T03:00:52.107Z,english_827.wav,0,0,1961,,,,,7,0.7,-2.62995829,0.84435274
FQC,40,0,2024-06-14T03:00:52.107Z,english_827.wav,0,0,1961,,,,,8,0.8,-5.53100906,1.45939376
FQC,40,0,2024-06-14T03:00:52.107Z,english_827.wav,0,0,1961,,,,,9,0.9,-28.52107901,0.25757528
FQC,40,0,2024-06-14T03:00:52.107Z,english_827.wav,0,0,1961,,,,,10,1,49.22868474,0.16904312
FQC,40,0,2024-06-14T03:00:52.107Z,english_827.wav,0,0,1961,,,,,11,1.09391667,-68.48939537,1.55565222
FQC,41,0,2024-06-14T03:00:52.107Z,english_986.wav,0,1,1168,,,,,0,0,66.66952336,1.97934099
FQC,41,0,2024-06-14T03:00:52.107Z,english_986.wav,0,1,1168,,,,,1,0.1,96.9530251,1.29460225
FQC,41,0,2024-06-14T03:00:52.107Z,english_986.wav,0,1,1168,,,,,2,0.2,75.3477354,1.53421825
FQC,41,0,2024-06-14T03:00:52.107Z,english_986.wav,0,1,1168,,,,,3,0.3,-56.79707668,1.45039514
FQC,41,0,2024-06-14T03:00:52.107Z,english_986.wav,0,1,1168,,,,,4,0.4,68.50410973,0.98893675
FQC,41,0,2024-06-14T03:00:52.107Z,english_986.wav,0,1,1168,,,,,5,0.5,5.80156778,1.73927101
FQC,41,0,2024-06-14T03:00:52.107Z,english_986.wav,0,1,1168,,,,,6,0.6,-59.00857509,1.32684672
FQC,41,0,2024-06-14T03:00:52.107Z,english_986.wav,0,1,1168,,,,,7,0.7,23.78788766,1.65077043
FQC,41,0,2024-06-14T03:00:52.107Z,english_986.wav,0,1,1168,,,,,8,0.8,8.31255478,1.05904427
FQC,41,0,2024-06-14T03:00:52.107Z,english_986.wav,0,1,1168,,,,,9,0.9,-23.40072537,0.79622744
FQC,41,0,2024-06-14T03:00:52.107Z,english_986.wav,0,1,1168,,,,,10,1,36.6022418,1.94329627
FQC,41,0,2024-06-14T03:00:52.107Z,english_986.wav,0,1,1168,,,,,11,1.09391667,-51.87443186,1.45912014
FQC,42,0,2024-06-14T03:00:52.107Z,english_662.wav,0,1,608,,,,,0,0,31.31886637,0.51844492
FQC,42,0,2024-06-14T03:00:52.107Z,english_662.wav,0,1,608,,,,,1,0.1,-45.58012984,1.26337535
FQC,42,0,2024-06-14T03:00:52.107Z,english_662.wav,0,1,608,,,,,2,0.2,-36.67335117,1.47948125
FQC,42,0,2024-06-14T03:00:52.107Z,english_662.wav,0,1,608,,,,,3,0.3,91.68908931,1.54973702
FQC,42,0,2024-06-14T03:00:52.107Z,english_662.wav,0,1,608,,,,,4,0.4,99.42890358,1.40573319
FQC,42,0,2024-06-14T03:00:52.107Z,english_662.wav,0,1,608,,,,,5,0.5,-75.06867948,0.46765036
FQC,42,0,2024-06-14T03:00:52.107Z,english_662.wav,0,1,608,,,,,6,0.6,-53.3060983,1.29577772
FQC,42,0,2024-06-14T03:00:52.107Z,english_662.wav,0,1,608,,,,,7,0.7,66.7707286,1.28176027
FQC,42,0,2024-06-14T03:00:52.107Z,english_662.wav,0,1,608,,,,,8,0.8,69.18702853,1.79426909
FQC,42,0,2024-06-14T03:00:52.107Z,english_662.wav,0,1,608,,,,,9,0.9,-16.72052533,0.76623174
FQC,42,0,2024-06-14T03:00:52.107Z,english_662.wav,0,1,608,,,,,10,1,16.50634939,1.90203541
FQC,42,0,2024-06-14T03:00:52.107Z,english_662.wav,0,1,608,,,,,11,1.09391667,79.32738685,1.85204165
FQC,43,0,2024-06-14T03:00:52.107Z,english_91.wav,0,1,708,,,,,0,0,90.30305792,1.1938068
FQC,43,0,2024-06-14T03:00:52.107Z,english_91.wav,0,1,708,,,,,1,0.1,56.18894947,1.20808781
FQC,43,0,2024-06-14T03:00:52.107Z,english_91.wav,0,1,708,,,,,2,0.2,-58.19739478,0.13849828
FQC,43,0,2024-06-14T03:00:52.107Z,english_91.wav,0,1,708,,,,,3,0.3,79.028897,0.94138732
FQC,43,0,2024-06-14T03:00:52.107Z,english_91.wav,0,1,708,,,,,4,0.4,7.81343209,0.4665442
FQC,43,0,2024-06-14T03:00:52.107Z,english_91.wav,0,1,708,,,,,5,0.5,28.60271905,1.77893908
FQC,43,0,2024-06-14T03:00:52.107Z,english_91.wav,0,1,708,,,,,6,0.6,14.99037293,0.39545287
FQC,43,0,2024-06-14T03:00:52.107Z,english_91.wav,0,1,708,,,,,7,0.7,-0.25615484,1.77472074
FQC,43,0,2024-06-14T03:00:52.107Z,english_91.wav,0,1,708,,,,,8,0.8,86.53655438,1.9424725
FQC,43,0,2024-06-14T03:00:52.107Z,english_91.wav,0,1,708,,,,,9,0.9,-90.65230495,1.79603275
FQC,43,0,2024-06-14T03:00:52.107Z,english_91.wav,0,1,708,,,,,10,1,95.15657265,1.28685544
FQC,43,0,2024-06-14T03:00:52.107Z,english_91.wav,0,1,708,,,,,11,1.09391667,-56.87677847,0.36998726
FQC,44,0,2024-06-14T03:00:52.107Z,english_464.wav,0,1,2696,,,,,0,0,-23.34522256,1.83574023
FQC,44,0,2024-06-14T03:00:52.107Z,english_464.wav,0,1,2696,,,,,1,0.1,-19.55225305,1.45464116
FQC,44,0,2024-06-14T03:00:52.107Z,english_464.wav,0,1,2696,,,,,2,0.2,-17.46601835,0.96557802
FQC,44,0,2024-06-14T03:00:52.107Z,english_464.wav,0,1,2696,,,,,3,0.3,-18.06083259,0.862048
FQC,44,0,2024-06-14T03:00:52.107Z,english_464.wav,0,1,2696,,,,,4,0.4,39.93999663,1.49154181
FQC,44,0,2024-06-14T03:00:52.107Z,english_464.wav,0,1,2696,,,,,5,0.5,18.26379158,0.8466408
FQC,44,0,2024-06-14T03:00:52.107Z,english_464.wav,0,1,2696,,,,,6,0.6,29.05119834,1.01287791
FQC,44,0,2024-06-14T03:00:52.107Z,english_464.wav,0,1,2696,,,,,7,0.7,-59.7360239,0.24671588
FQC,44,0,2024-06-14T03:00:52.107Z,english_464.wav,0,1,2696,,,,,8,0.8,88.20887552,1.40889965
FQC,44,0,2024-06-14T03:00:52.107Z,english_464.wav,0,1,2696,,,,,9,0.9,-3.73411856,0.91232797
FQC,44,0,2024-06-14T03:00:52.107Z,english_464.wav,0,1,2696,,,,,10,1,-94.561572,0.94183149
FQC,44,0,2024-06-14T03:00:52.107Z,english_464.wav,0,1,2696,,,,,11,1.09391667,-28.03048225,1.23465261
FQC,45,0,2024-06-14T03:00:52.107Z,english_540.wav,0,1,1257,,,,,0,0,56.3389614,0.35919702
FQC,45,0,2024-06-14T03:00:52.107Z,english_540.wav,0,1,1257,,,,,1,0.1,15.5810044,0.12290397
FQC,45,0,2024-06-14T03:00:52.107Z,english_540.wav,0,1,1257,,,,,2,0.2,-57.00882779,0.4388906
FQC,45,0,2024-06-14T03:00:52.107Z,english_540.wav,0,1,1257,,,,,3,0.3,-38.51831774,1.4101729
FQC,45,0,2024-06-14T03:00:52.107Z,english_540.wav,0,1,1257,,,,,4,0.4,-2.48649571,1.50441402
FQC,45,0,2024-06-14T03:00:52.107Z,english_540.wav,0,1,1257,,,,,5,0.5,47.94489788,0.12973549
FQC,45,0,2024-06-14T03:00:52.107Z,english_540.wav,0,1,1257,,,,,6,0.6,-25.26992134,1.5432215
FQC,45,0,2024-06-14T03:00:52.107Z,english_540.wav,0,1,1257,,,,,7,0.7,71.13867004,0.81755123
FQC,45,0,2024-06-14T03:00:52.107Z,english_540.wav,0,1,1257,,,,,8,0.8,-84.74018584,1.08085579
FQC,45,0,2024-06-14T03:00:52.107Z,english_540.wav,0,1,1257,,,,,9,0.9,36.45045372,1.434422
FQC,45,0,2024-06-14T03:00:52.107Z,english_540.wav,0,1,1257,,,,,10,1,21.99011702,0.97494001
FQC,45,0,2024-06-14T03:00:52.107Z,english_540.wav,0,1,1257,,,,,11,1.09391667,81.39151634,0.80759169
FQC,46,0,2024-06-14T03:00:52.107Z,english_496.wav,0,1,8831,,,,,0,0,71.48836841,0.54791396
FQC,46,0,2024-06-14T03:00:52.107Z,english_496.wav,0,1,8831,,,,,1,0.1,15.20852814,0.58485485
FQC,46,0,2024-06-14T03:00:52.107Z,english_496.wav,0,1,8831,,,,,2,0.2,-96.44274776,0.36991182
FQC,46,0,2024-06-14T03:00:52.107Z,english_496.wav,0,1,8831,,,,,3,0.3,-60.77213324,0.28046451
FQC,46,0,2024-06-14T03:00:52.107Z,english_496.wav,0,1,8831,,,,,4,0.4,51.84358461,1.3513408
FQC,46,0,2024-06-14T03:00:52.107Z,english_496.wav,0,1,8831,,,,,5,0.5,-29.81815899,0.81550086
FQC,46,0,2024-06-14T03:00:52.107Z,english_496.wav,0,1,8831,,,,,6,0.6,68.78610252,1.72009229
FQC,46,0,2024-06-14T03:00:52.107Z,english_496.wav,0,1,8831,,,,,7,0.7,-7.56844822,0.3057716
FQC,46,0,2024-06-14T03:00:52.107Z,english_496.wav,0,1,8831,,,,,8,0.8,77.81323141,0.47124655
FQC,46,0,2024-06-14T03:00:52.107Z,english_496.wav,0,1,8831,,,,,9,0.9,-20.60892305,1.72803136
FQC,46,0,2024-06-14T03:00:52.107Z,english_496.wav,0,1,8831,,,,,10,1,-49.14310168,0.96978589
FQC,46,0,2024-06-14T03:00:52.107Z,english_496.wav,0,1,8831,,,,,11,1.09391667,12.76376139,1.35172816
FQC,47,0,2024-06-14T03:00:52.107Z,english_583.wav,0,1,1694,,,,,0,0,-89.46926799,1.93205848
FQC,47,0,2024-06-14T03:00:52.107Z,english_583.wav,0,1,1694,,,,,1,0.1,-21.95760647,0.52539253
FQC,47,0,2024-06-14T03:00:52.107Z,english_583.wav,0,1,1694,,,,,2,0.2,51.54638902,0.25359823
FQC,47,0,2024-06-14T03:00:52.107Z,english_583.wav,0,1,1694,,,,,3,0.3,-19.59460838,0.46642282
FQC,47,0,2024-06-14T03:00:52.107Z,english_583.wav,0,1,1694,,,,,4,0.4,-80.65157181,0.25879931
FQC,47,0,2024-06-14T03:00:52.107Z,english_583.wav,0,1,1694,,,,,5,0.5,13.46564549,0.54774352
FQC,47,0,2024-06-14T03:00:52.107Z,english_583.wav,0,1,1694,,,,,6,0.6,-1.99224774,1.89783447
FQC,47,0,2024-06-14T03:00:52.107Z,english_583.wav,0,1,1694,,,,,7,0.7,96.26030273,0.46572744
FQC,47,0,2024-06-14T03:00:52.107Z,english_583.wav,0,1,1694,,,,,8,0.8,-75.70856073,0.69184565
FQC,47,0,2024-06-14T03:00:52.107Z,english_583.wav,0,1,1694,,,,,9,0.9,40.78035579,1.20488206
FQC,47,0,2024-06-14T03:00:52.107Z,english_583.wav,0,1,1694,,,,,10,1,3.65984432,1.22997803
FQC,47,0,2024-06-14T03:00:52.107Z,english_583.wav,0,1,1694,,,,,11,1.09391667,-26.98513255,1.99403249
FQC,48,0,2024-06-14T03:00:52.107Z,english_969.wav,0,1,1942,,,,,0,0,29.09924348,1.53055803
FQC,48,0,2024-06-14T03:00:52.107Z,english_969.wav,0,1,1942,,,,,1,0.1,-95.88090252,0.21771883
FQC,48,0,2024-06-14T03:00:52.107Z,english_969.wav,0,1,1942,,,,,2,0.2,45.5103226,0.6895083
FQC,48,0,2024-06-14T03:00:52.107Z,english_969.wav,0,1,1942,,,,,3,0.3,22.6688792,1.38165803
FQC,48,0,2024-06-14T03:00:52.107Z,english_969.wav,0,1,1942,,,,,4,0.4,28.43861777,1.43845422
FQC,48,0,2024-06-14T03:00:52.107Z,english_969.wav,0,1,1942,,,,,5,0.5,-64.30828006,1.41047112
FQC,48,0,2024-06-14T03:00:52.107Z,english_969.wav,0,1,1942,,,,,6,0.6,-54.50431648,1.45510114
FQC,48,0,2024-06-14T03:00:52.107Z,english_969.wav,0,1,1942,,,,,7,0.7,30.42451317,0.72825636
FQC,48,0,2024-06-14T03:00:52.107Z,english_969.wav,0,1,1942,,,,,8,0.8,-91.90179979,1.35653581
FQC,48,0,2024-06-14T03:00:52.107Z,english_969.wav,0,1,1942,,,,,9,0.9,4.36119227,1.06956255
FQC,48,0,2024-06-14T03:00:52.107Z,english_969.wav,0,1,1942,,,,,10,1,-67.80457813,1.00621562
FQC,48,0,2024-06-14T03:00:52.107Z,english_969.wav,0,1,1942,,,,,11,1.09391667,-80.8303423,1.05370229
FQC,49,0,2024-06-14T03:00:52.107Z,english_289.wav,0,0,2061,,,,,0,0,-74.78655,1.54308435
FQC,49,0,2024-06-14T03:00:52.107Z,english_289.wav,0,0,2061,,,,,1,0.1,-90.25985406,1.23232394
FQC,49,0,2024-06-14T03:00:52.107Z,english_289.wav,0,0,2061,,,,,2,0.2,-27.93675794,0.21652241
FQC,49,0,2024-06-14T03:00:52.107Z,english_289.wav,0,0,2061,,,,,3,0.3,-69.8278995,1.88715195
FQC,49,0,2024-06-14T03:00:52.107Z,english_289.wav,0,0,2061,,,,,4,0.4,80.83899325,0.72261078
FQC,49,0,2024-06-14T03:00:52.107Z,english_289.wav,0,0,2061,,,,,5,0.5,59.60907912,1.3658372
FQC,49,0,2024-06-14T03:00:52.107Z,english_289.wav,0,0,2061,,,,,6,0.6,-7.23667322,0.39334931
FQC,49,0,2024-06-14T03:00:52.107Z,english_289.wav,0,0,2061,,,,,7,0.7,40.65599914,0.15923439
FQC,49,0,2024-06-14T03:00:52.107Z,english_289.wav,0,0,2061,,,,,8,0.8,70.76112858,0.96106175
FQC,49,0,2024-06-14T03:00:52.107Z,english_289.wav,0,0,2061,,,,,9,0.9,55.20165463,1.02832529
FQC,49,0,2024-06-14T03:00:52.107Z,english_289.wav,0,0,2061,,,,,10,1,12.92586279,1.79645227
FQC,49,0,2024-06-14T03:00:52.107Z,english_289.wav,0,0,2061,,,,,11,1.09391667,79.89951156,0.36571396
FQC,50,1,2024-06-14T03:00:52.107Z,english_926.wav,0,1,845,,,,,0,0,53.49151787,0.226364497
FQC,50,1,2024-06-14T03:00:52.107Z,english_926.wav,0,1,845,,,,,1,0.1,10.58129761,0.000721176289
FQC,50,1,2024-06-14T03:00:52.107Z,english_926.wav,0,1,845,,,,,2,0.2,10.53773661,0.875811779
FQC,50,1,2024-06-14T03:00:52.107Z,english_926.wav,0,1,845,,,,,3,0.3,41.27195991,1.25055456
FQC,50,1,2024-06-14T03:00:52.107Z,english_926.wav,0,1,845,,,,,4,0.4,-17.37234578,0.546896354
FQC,50,1,2024-06-14T03:00:52.107Z,english_926.wav,0,1,845,,,,,5,0.5,66.8871695,1.08222942
FQC,50,1,2024-06-14T03:00:52.107Z,english_926.wav,0,1,845,,,,,6,0.6,69.01436048,0.838599058
FQC,50,1,2024-06-14T03:00:52.107Z,english_926.wav,0,1,845,,,,,7,0.7,89.40824761,0.626338416
FQC,50,1,2024-06-14T03:00:52.107Z,english_926.wav,0,1,845,,,,,8,0.8,-98.42632437,1.27601453
FQC,50,1,2024-06-14T03:00:52.107Z,english_926.wav,0,1,845,,,,,9,0.9,27.58055205,1.32538862
FQC,50,1,2024-06-14T03:00:52.107Z,english_926.wav,0,1,845,,,,,10,1,-11.99004947,1.73191108
FQC,50,1,2024-06-14T03:00:52.107Z,english_926.wav,0,1,845,,,,,11,1.09391667,15.35572308,0.629016927
FQC,51,1,2024-06-14T03:00:52.107Z,english_682.wav,0,0,964,,,,,0,0,-53.22260556,0.39279529
FQC,51,1,2024-06-14T03:00:52.107Z,english_682.wav,0,0,964,,,,,1,0.1,86.77650228,0.89629602
FQC,51,1,2024-06-14T03:00:52.107Z,english_682.wav,0,0,964,,,,,2,0.2,9.77253821,1.02748966
FQC,51,1,2024-06-14T03:00:52.107Z,english_682.wav,0,0,964,,,,,3,0.3,11.03493207,0.21487606
FQC,51,1,2024-06-14T03:00:52.107Z,english_682.wav,0,0,964,,,,,4,0.4,-49.40991028,0.85817313
FQC,51,1,2024-06-14T03:00:52.107Z,english_682.wav,0,0,964,,,,,5,0.5,40.78961249,0.23854774
FQC,51,1,2024-06-14T03:00:52.107Z,english_682.wav,0,0,964,,,,,6,0.6,0.17613347,1.76515504
FQC,51,1,2024-06-14T03:00:52.107Z,english_682.wav,0,0,964,,,,,7,0.7,-59.60480948,0.66287763
FQC,51,1,2024-06-14T03:00:52.107Z,english_682.wav,0,0,964,,,,,8,0.8,-70.7429322,0.73367901
FQC,51,1,2024-06-14T03:00:52.107Z,english_682.wav,0,0,964,,,,,9,0.9,73.80660993,0.47936557
FQC,51,1,2024-06-14T03:00:52.107Z,english_682.wav,0,0,964,,,,,10,1,20.51556505,1.06722754
FQC,51,1,2024-06-14T03:00:52.107Z,english_682.wav,0,0,964,,,,,11,1.09391667,45.26798103,1.8777792
FQC,52,1,2024-06-14T03:00:52.107Z,english_365.wav,0,0,1055,,,,,0,0,-13.81078305,1.74540369
FQC,52,1,2024-06-14T03:00:52.107Z,english_365.wav,0,0,1055,,,,,1,0.1,10.90636048,0.64746191
FQC,52,1,2024-06-14T03:00:52.107Z,english_365.wav,0,0,1055,,,,,2,0.2,71.51010514,0.6414627
FQC,52,1,2024-06-14T03:00:52.107Z,english_365.wav,0,0,1055,,,,,3,0.3,42.52309231,0.02436054
FQC,52,1,2024-06-14T03:00:52.107Z,english_365.wav,0,0,1055,,,,,4,0.4,61.30753847,0.53231596
FQC,52,1,2024-06-14T03:00:52.107Z,english_365.wav,0,0,1055,,,,,5,0.5,-34.48448602,1.68146763
FQC,52,1,2024-06-14T03:00:52.107Z,english_365.wav,0,0,1055,,,,,6,0.6,35.84346113,1.59056588
FQC,52,1,2024-06-14T03:00:52.107Z,english_365.wav,0,0,1055,,,,,7,0.7,-56.39981073,1.84748389
FQC,52,1,2024-06-14T03:00:52.107Z,english_365.wav,0,0,1055,,,,,8,0.8,-86.58866218,1.51888636
FQC,52,1,2024-06-14T03:00:52.107Z,english_365.wav,0,0,1055,,,,,9,0.9,-51.1308372,0.50507437
FQC,52,1,2024-06-14T03:00:52.107Z,english_365.wav,0,0,1055,,,,,10,1,-44.59979753,1.32144417
FQC,52,1,2024-06-14T03:00:52.107Z,english_365.wav,0,0,1055,,,,,11,1.09391667,99.72573964,1.70632081
FQC,53,1,2024-06-14T03:00:52.107Z,english_865.wav,0,0,867,,,,,0,0,86.1163895,0.19420048
FQC,53,1,2024-06-14T03:00:52.107Z,english_865.wav,0,0,867,,,,,1,0.1,69.95513589,1.46581666
FQC,53,1,2024-06-14T03:00:52.107Z,english_865.wav,0,0,867,,,,,2,0.2,-13.94671811,1.09876795
FQC,53,1,2024-06-14T03:00:52.107Z,english_865.wav,0,0,867,,,,,3,0.3,-33.10342907,0.83580859
FQC,53,1,2024-06-14T03:00:52.107Z,english_865.wav,0,0,867,,,,,4,0.4,-76.59504937,0.7375784
FQC,53,1,2024-06-14T03:00:52.107Z,english_865.wav,0,0,867,,,,,5,0.5,-3.51899048,1.73720254
FQC,53,1,2024-06-14T03:00:52.107Z,english_865.wav,0,0,867,,,,,6,0.6,30.42015795,0.47612768
FQC,53,1,2024-06-14T03:00:52.107Z,english_865.wav,0,0,867,,,,,7,0.7,-55.73707392,0.34287239
FQC,53,1,2024-06-14T03:00:52.107Z,english_865.wav,0,0,867,,,,,8,0.8,54.32986928,1.39046848
FQC,53,1,2024-06-14T03:00:52.107Z,english_865.wav,0,0,867,,,,,9,0.9,-94.25719672,0.32361365
FQC,53,1,2024-06-14T03:00:52.107Z,english_865.wav,0,0,867,,,,,10,1,52.44088275,0.4960331
FQC,53,1,2024-06-14T03:00:52.107Z,english_865.wav,0,0,867,,,,,11,1.09391667,-37.34958779,0.90913699
FQC,54,1,2024-06-14T03:00:52.107Z,english_550.wav,0,1,896,,,,,0,0,85.56762679,1.30256716
FQC,54,1,2024-06-14T03:00:52.107Z,english_550.wav,0,1,896,,,,,1,0.1,-46.94203093,1.73510164
FQC,54,1,2024-06-14T03:00:52.107Z,english_550.wav,0,1,896,,,,,2,0.2,10.19407412,0.89036326
FQC,54,1,2024-06-14T03:00:52.107Z,english_550.wav,0,1,896,,,,,3,0.3,1.47506103,0.09950504
FQC,54,1,2024-06-14T03:00:52.107Z,english_550.wav,0,1,896,,,,,4,0.4,18.20902046,0.7123978
FQC,54,1,2024-06-14T03:00:52.107Z,english_550.wav,0,1,896,,,,,5,0.5,-9.07211541,0.78286675
FQC,54,1,2024-06-14T03:00:52.107Z,english_550.wav,0,1,896,,,,,6,0.6,68.24492246,1.57257447
FQC,54,1,2024-06-14T03:00:52.107Z,english_550.wav,0,1,896,,,,,7,0.7,-55.39194289,0.50906814
FQC,54,1,2024-06-14T03:00:52.107Z,english_550.wav,0,1,896,,,,,8,0.8,17.18108307,0.32905773
FQC,54,1,2024-06-14T03:00:52.107Z,english_550.wav,0,1,896,,,,,9,0.9,23.42877298,1.19492705
FQC,54,1,2024-06-14T03:00:52.107Z,english_550.wav,0,1,896,,,,,10,1,2.91525796,1.53585055
FQC,54,1,2024-06-14T03:00:52.107Z,english_550.wav,0,1,896,,,,,11,1.09391667,84.75217651,0.16869385
FQC,55,1,2024-06-14T03:00:52.107Z,english_443.wav,0,0,1012,,,,,0,0,81.96165797,0.75557645
FQC,55,1,2024-06-14T03:00:52.107Z,english_443.wav,0,0,1012,,,,,1,0.1,-28.05483683,1.24238721
FQC,55,1,2024-06-14T03:00:52.107Z,english_443.wav,0,0,1012,,,,,2,0.2,-21.59346314,1.29479034
FQC,55,1,2024-06-14T03:00:52.107Z,english_443.wav,0,0,1012,,,,,3,0.3,1.08429848,1.78084003
FQC,55,1,2024-06-14T03:00:52.107Z,english_443.wav,0,0,1012,,,,,4,0.4,21.43423257,0.20990132
FQC,55,1,2024-06-14T03:00:52.107Z,english_443.wav,0,0,1012,,,,,5,0.5,75.67535371,0.69063729
FQC,55,1,2024-06-14T03:00:52.107Z,english_443.wav,0,0,1012,,,,,6,0.6,-12.42326874,1.52523801
FQC,55,1,2024-06-14T03:00:52.107Z,english_443.wav,0,0,1012,,,,,7,0.7,-43.03784954,1.69469222
FQC,55,1,2024-06-14T03:00:52.107Z,english_443.wav,0,0,1012,,,,,8,0.8,-95.88108409,1.5231422
FQC,55,1,2024-06-14T03:00:52.107Z,english_443.wav,0,0,1012,,,,,9,0.9,5.88501358,0.01978813
FQC,55,1,2024-06-14T03:00:52.107Z,english_443.wav,0,0,1012,,,,,10,1,-74.23415878,0.32318558
FQC,55,1,2024-06-14T03:00:52.107Z,english_443.wav,0,0,1012,,,,,11,1.09391667,-13.77398798,1.99092699
FQC,56,1,2024-06-14T03:00:52.107Z,english_668.wav,0,1,3749,,,,,0,0,24.30500843,1.5693483
FQC,56,1,2024-06-14T03:00:52.107Z,english_668.wav,0,1,3749,,,,,1,0.1,57.57377678,1.68368473
FQC,56,1,2024-06-14T03:00:52.107Z,english_668.wav,0,1,3749,,,,,2,0.2,-95.42785245,0.73781789
FQC,56,1,2024-06-14T03:00:52.107Z,english_668.wav,0,1,3749,,,,,3,0.3,-42.97336145,0.35418693
FQC,56,1,2024-06-14T03:00:52.107Z,english_668.wav,0,1,3749,,,,,4,0.4,-27.66393175,0.0078487
FQC,56,1,2024-06-14T03:00:52.107Z,english_668.wav,0,1,3749,,,,,5,0.5,77.20765179,1.54548252
FQC,56,1,2024-06-14T03:00:52.107Z,english_668.wav,0,1,3749,,,,,6,0.6,83.13326456,1.19620748
FQC,56,1,2024-06-14T03:00:52.107Z,english_668.wav,0,1,3749,,,,,7,0.7,-32.13348901,1.89254879
FQC,56,1,2024-06-14T03:00:52.107Z,english_668.wav,0,1,3749,,,,,8,0.8,68.31202494,0.72669061
FQC,56,1,2024-06-14T03:00:52.107Z,english_668.wav,0,1,3749,,,,,9,0.9,19.90764766,1.22099256
FQC,56,1,2024-06-14T03:00:52.107Z,english_668.wav,0,1,3749,,,,,10,1,67.85742397,1.73789428
FQC,56,1,2024-06-14T03:00:52.107Z,english_668.wav,0,1,3749,,,,,11,1.09391667,89.08528759,1.66641406
FQC,57,1,2024-06-14T03:00:52.107Z,english_375.wav,0,0,2087,,,,,0,0,-66.54027977,1.30902013
FQC,57,1,2024-06-14T03:00:52.107Z,english_375.wav,0,0,2087,,,,,1,0.1,72.08787066,1.77420651
FQC,57,1,2024-06-14T03:00:52.107Z,english_375.wav,0,0,2087,,,,,2,0.2,-56.77584869,1.24550761
FQC,57,1,2024-06-14T03:00:52.107Z,english_375.wav,0,0,2087,,,,,3,0.3,-36.97947012,0.68148521
FQC,57,1,2024-06-14T03:00:52.107Z,english_375.wav,0,0,2087,,,,,4,0.4,43.73402827,1.5097978
FQC,57,1,2024-06-14T03:00:52.107Z,english_375.wav,0,0,2087,,,,,5,0.5,19.53034116,0.87895003
FQC,57,1,2024-06-14T03:00:52.107Z,english_375.wav,0,0,2087,,,,,6,0.6,-35.65016919,0.57287352
FQC,57,1,2024-06-14T03:00:52.107Z,english_375.wav,0,0,2087,,,,,7,0.7,12.37356045,0.19847139
FQC,57,1,2024-06-14T03:00:52.107Z,english_375.wav,0,0,2087,,,,,8,0.8,-24.97795402,1.57884859
FQC,57,1,2024-06-14T03:00:52.107Z,english_375.wav,0,0,2087,,,,,9,0.9,57.77915604,1.32641243
FQC,57,1,2024-06-14T03:00:52.107Z,english_375.wav,0,0,2087,,,,,10,1,-30.716589,0.36090675
FQC,57,1,2024-06-14T03:00:52.107Z,english_375.wav,0,0,2087,,,,,11,1.09391667,78.48935482,1.90030926
FQC,58,1,2024-06-14T03:00:52.107Z,english_326.wav,0,0,1224,,,,,0,0,-43.10917618,0.92818159
FQC,58,1,2024-06-14T03:00:52.107Z,english_326.wav,0,0,1224,,,,,1,0.1,51.71010142,0.32622589
FQC,58,1,2024-06-14T03:00:52.107Z,english_326.wav,0,0,1224,,,,,2,0.2,-51.98898793,0.25183357
FQC,58,1,2024-06-14T03:00:52.107Z,english_326.wav,0,0,1224,,,,,3,0.3,-88.25420689,0.15547956
FQC,58,1,2024-06-14T03:00:52.107Z,english_326.wav,0,0,1224,,,,,4,0.4,-29.81917635,0.54551317
FQC,58,1,2024-06-14T03:00:52.107Z,english_326.wav,0,0,1224,,,,,5,0.5,-40.02564907,0.579881
FQC,58,1,2024-06-14T03:00:52.107Z,english_326.wav,0,0,1224,,,,,6,0.6,-80.61031076,0.72251342
FQC,58,1,2024-06-14T03:00:52.107Z,english_326.wav,0,0,1224,,,,,7,0.7,27.73097561,1.44758164
FQC,58,1,2024-06-14T03:00:52.107Z,english_326.wav,0,0,1224,,,,,8,0.8,86.25406042,1.07961509
FQC,58,1,2024-06-14T03:00:52.107Z,english_326.wav,0,0,1224,,,,,9,0.9,-98.97965016,1.11677138
FQC,58,1,2024-06-14T03:00:52.107Z,english_326.wav,0,0,1224,,,,,10,1,-32.16564668,0.90130016
FQC,58,1,2024-06-14T03:00:52.107Z,english_326.wav,0,0,1224,,,,,11,1.09391667,-99.19861207,0.29135461
FQC,59,1,2024-06-14T03:00:52.107Z,english_510.wav,0,0,1403,,,,,0,0,-64.82277941,1.74799884
FQC,59,1,2024-06-14T03:00:52.107Z,english_510.wav,0,0,1403,,,,,1,0.1,67.50018906,1.7328265
FQC,59,1,2024-06-14T03:00:52.107Z,english_510.wav,0,0,1403,,,,,2,0.2,83.11599323,1.53243167
FQC,59,1,2024-06-14T03:00:52.107Z,english_510.wav,0,0,1403,,,,,3,0.3,-40.68058334,0.93226309
FQC,59,1,2024-06-14T03:00:52.107Z,english_510.wav,0,0,1403,,,,,4,0.4,-20.66274727,0.97994595
FQC,59,1,2024-06-14T03:00:52.107Z,english_510.wav,0,0,1403,,,,,5,0.5,57.39601347,1.11050562
FQC,59,1,2024-06-14T03:00:52.107Z,english_510.wav,0,0,1403,,,,,6,0.6,26.65395964,0.07038292
FQC,59,1,2024-06-14T03:00:52.107Z,english_510.wav,0,0,1403,,,,,7,0.7,-1.22309803,0.34804353
FQC,59,1,2024-06-14T03:00:52.107Z,english_510.wav,0,0,1403,,,,,8,0.8,91.87113136,1.43252604
FQC,59,1,2024-06-14T03:00:52.107Z,english_510.wav,0,0,1403,,,,,9,0.9,59.67411659,0.49156131
FQC,59,1,2024-06-14T03:00:52.107Z,english_510.wav,0,0,1403,,,,,10,1,9.25675614,0.83882448
FQC,59,1,2024-06-14T03:00:52.107Z,english_510.wav,0,0,1403,,,,,11,1.09391667,-85.2659012,1.33145629
FQC,60,1,2024-06-14T03:00:52.107Z,english_173.wav,0,0,847,,,,,0,0,34.32682043,0.82312646
FQC,60,1,2024-06-14T03:00:52.107Z,english_173.wav,0,0,847,,,,,1,0.1,-35.22347769,0.84965345
FQC,60,1,2024-06-14T03:00:52.107Z,english_173.wav,0,0,847,,,,,2,0.2,15.69043139,0.84607348
FQC,60,1,2024-06-14T03:00:52.107Z,english_173.wav,0,0,847,,,,,3,0.3,-71.83777825,0.55995079
FQC,60,1,2024-06-14T03:00:52.107Z,english_173.wav,0,0,847,,,,,4,0.4,-96.81426106,0.51635348
FQC,60,1,2024-06-14T03:00:52.107Z,english_173.wav,0,0,847,,,,,5,0.5,-51.15803827,1.6072313
FQC,60,1,2024-06-14T03:00:52.107Z,english_173.wav,0,0,847,,,,,6,0.6,-12.70248505,1.25349503
FQC,60,1,2024-06-14T03:00:52.107Z,english_173.wav,0,0,847,,,,,7,0.7,-30.75730157,1.4731344
FQC,60,1,2024-06-14T03:00:52.107Z,english_173.wav,0,0,847,,,,,8,0.8,-5.0022938,0.28621328
FQC,60,1,2024-06-14T03:00:52.107Z,english_173.wav,0,0,847,,,,,9,0.9,41.07030003,0.95942448
FQC,60,1,2024-06-14T03:00:52.107Z,english_173.wav,0,0,847,,,,,10,1,-5.319412,0.2847469
FQC,60,1,2024-06-14T03:00:52.107Z,english_173.wav,0,0,847,,,,,11,1.09391667,43.01251996,0.4938404
FQC,61,1,2024-06-14T03:00:52.107Z,english_908.wav,0,0,5574,,,,,0,0,79.90322555,1.59871196
FQC,61,1,2024-06-14T03:00:52.107Z,english_908.wav,0,0,5574,,,,,1,0.1,-35.21263137,0.28479508
FQC,61,1,2024-06-14T03:00:52.107Z,english_908.wav,0,0,5574,,,,,2,0.2,-45.3814443,1.09874794
FQC,61,1,2024-06-14T03:00:52.107Z,english_908.wav,0,0,5574,,,,,3,0.3,27.76250809,0.00174433
FQC,61,1,2024-06-14T03:00:52.107Z,english_908.wav,0,0,5574,,,,,4,0.4,88.9030614,0.67512833
FQC,61,1,2024-06-14T03:00:52.107Z,english_908.wav,0,0,5574,,,,,5,0.5,-61.85553308,0.00194264
FQC,61,1,2024-06-14T03:00:52.107Z,english_908.wav,0,0,5574,,,,,6,0.6,-81.1964681,0.8304753
FQC,61,1,2024-06-14T03:00:52.107Z,english_908.wav,0,0,5574,,,,,7,0.7,5.34087676,1.28348369
FQC,61,1,2024-06-14T03:00:52.107Z,english_908.wav,0,0,5574,,,,,8,0.8,54.78811936,0.55017108
FQC,61,1,2024-06-14T03:00:52.107Z,english_908.wav,0,0,5574,,,,,9,0.9,-31.27071111,1.59638521
FQC,61,1,2024-06-14T03:00:52.107Z,english_908.wav,0,0,5574,,,,,10,1,-53.95963771,1.63592826
FQC,61,1,2024-06-14T03:00:52.107Z,english_908.wav,0,0,5574,,,,,11,1.09391667,80.48331988,1.14767612
FQC,62,1,2024-06-14T03:00:52.107Z,english_64.wav,0,0,1015,,,,,0,0,35.19701481,0.1517014
FQC,62,1,2024-06-14T03:00:52.107Z,english_64.wav,0,0,1015,,,,,1,0.1,75.83495736,1.3624391
FQC,62,1,2024-06-14T03:00:52.107Z,english_64.wav,0,0,1015,,,,,2,0.2,-57.84604767,0.35043993
FQC,62,1,2024-06-14T03:00:52.107Z,english_64.wav,0,0,1015,,,,,3,0.3,18.18328311,1.06032252
FQC,62,1,2024-06-14T03:00:52.107Z,english_64.wav,0,0,1015,,,,,4,0.4,2.5532884,1.51833669
FQC,62,1,2024-06-14T03:00:52.107Z,english_64.wav,0,0,1015,,,,,5,0.5,24.93011402,0.65789286
FQC,62,1,2024-06-14T03:00:52.107Z,english_64.wav,0,0,1015,,,,,6,0.6,-51.99875854,1.38401799
FQC,62,1,2024-06-14T03:00:52.107Z,english_64.wav,0,0,1015,,,,,7,0.7,52.45873465,1.62873445
FQC,62,1,2024-06-14T03:00:52.107Z,english_64.wav,0,0,1015,,,,,8,0.8,42.38876358,0.48968984
FQC,62,1,2024-06-14T03:00:52.107Z,english_64.wav,0,0,1015,,,,,9,0.9,54.33691238,0.64777192
FQC,62,1,2024-06-14T03:00:52.107Z,english_64.wav,0,0,1015,,,,,10,1,27.02485659,0.8399807
FQC,62,1,2024-06-14T03:00:52.107Z,english_64.wav,0,0,1015,,,,,11,1.09391667,58.99390703,0.25985176
FQC,63,1,2024-06-14T03:00:52.107Z,english_481.wav,0,0,1124,,,,,0,0,12.53874901,1.58204947
FQC,63,1,2024-06-14T03:00:52.107Z,english_481.wav,0,0,1124,,,,,1,0.1,-9.84524601,0.30197463
FQC,63,1,2024-06-14T03:00:52.107Z,english_481.wav,0,0,1124,,,,,2,0.2,-28.69081604,1.36929082
FQC,63,1,2024-06-14T03:00:52.107Z,english_481.wav,0,0,1124,,,,,3,0.3,-3.98654711,1.57950224
FQC,63,1,2024-06-14T03:00:52.107Z,english_481.wav,0,0,1124,,,,,4,0.4,-31.85582808,1.64821008
FQC,63,1,2024-06-14T03:00:52.107Z,english_481.wav,0,0,1124,,,,,5,0.5,-60.66158974,1.40708
FQC,63,1,2024-06-14T03:00:52.107Z,english_481.wav,0,0,1124,,,,,6,0.6,37.08553698,0.90705567
FQC,63,1,2024-06-14T03:00:52.107Z,english_481.wav,0,0,1124,,,,,7,0.7,-55.30747295,0.62618862
FQC,63,1,2024-06-14T03:00:52.107Z,english_481.wav,0,0,1124,,,,,8,0.8,79.95944373,0.10659235
FQC,63,1,2024-06-14T03:00:52.107Z,english_481.wav,0,0,1124,,,,,9,0.9,16.93049167,0.31824417
FQC,63,1,2024-06-14T03:00:52.107Z,english_481.wav,0,0,1124,,,,,10,1,2.57902723,0.18714767
FQC,63,1,2024-06-14T03:00:52.107Z,english_481.wav,0,0,1124,,,,,11,1.09391667,9.37320396,0.57978015
FQC,64,1,2024-06-14T03:00:52.107Z,english_317.wav,0,1,1113,,,,,0,0,35.80517537,1.51358533
FQC,64,1,2024-06-14T03:00:52.107Z,english_317.wav,0,1,1113,,,,,1,0.1,-47.20528256,0.29972078
FQC,64,1,2024-06-14T03:00:52.107Z,english_317.wav,0,1,1113,,,,,2,0.2,10.16864163,1.18281069
FQC,64,1,2024-06-14T03:00:52.107Z,english_317.wav,0,1,1113,,,,,3,0.3,32.59206289,1.39231518
FQC,64,1,2024-06-14T03:00:52.107Z,english_317.wav,0,1,1113,,,,,4,0.4,20.53754814,1.77974686
FQC,64,1,2024-06-14T03:00:52.107Z,english_317.wav,0,1,1113,,,,,5,0.5,-78.8593211,1.1695001
FQC,64,1,2024-06-14T03:00:52.107Z,english_317.wav,0,1,1113,,,,,6,0.6,-97.96541086,1.77666203
FQC,64,1,2024-06-14T03:00:52.107Z,english_317.wav,0,1,1113,,,,,7,0.7,49.60543729,0.8164879
FQC,64,1,2024-06-14T03:00:52.107Z,english_317.wav,0,1,1113,,,,,8,0.8,-69.92457952,0.08502592
FQC,64,1,2024-06-14T03:00:52.107Z,english_317.wav,0,1,1113,,,,,9,0.9,-3.69767957,1.29069951
FQC,64,1,2024-06-14T03:00:52.107Z,english_317.wav,0,1,1113,,,,,10,1,-3.35302539,0.64002495
FQC,64,1,2024-06-14T03:00:52.107Z,english_317.wav,0,1,1113,,,,,11,1.09391667,29.32411719,1.74584587
FQC,65,1,2024-06-14T03:00:52.107Z,english_545.wav,0,1,862,,,,,0,0,-99.01008517,0.51580829
FQC,65,1,2024-06-14T03:00:52.107Z,english_545.wav,0,1,862,,,,,1,0.1,65.47335851,0.53489733
FQC,65,1,2024-06-14T03:00:52.107Z,english_545.wav,0,1,862,,,,,2,0.2,-84.28840174,1.28091178
FQC,65,1,2024-06-14T03:00:52.107Z,english_545.wav,0,1,862,,,,,3,0.3,-53.2257253,1.83272888
FQC,65,1,2024-06-14T03:00:52.107Z,english_545.wav,0,1,862,,,,,4,0.4,-67.85056043,0.88291171
FQC,65,1,2024-06-14T03:00:52.107Z,english_545.wav,0,1,862,,,,,5,0.5,-22.57245088,0.35382027
FQC,65,1,2024-06-14T03:00:52.107Z,english_545.wav,0,1,862,,,,,6,0.6,-0.78864791,1.57508052
FQC,65,1,2024-06-14T03:00:52.107Z,english_545.wav,0,1,862,,,,,7,0.7,17.40611159,0.29019895
FQC,65,1,2024-06-14T03:00:52.107Z,english_545.wav,0,1,862,,,,,8,0.8,62.9168566,1.37661243
FQC,65,1,2024-06-14T03:00:52.107Z,english_545.wav,0,1,862,,,,,9,0.9,32.36790846,0.94083914
FQC,65,1,2024-06-14T03:00:52.107Z,english_545.wav,0,1,862,,,,,10,1,-91.70599266,1.54827837
FQC,65,1,2024-06-14T03:00:52.107Z,english_545.wav,0,1,862,,,,,11,1.09391667,50.31108328,0.28023548
FQC,66,1,2024-06-14T03:00:52.107Z,english_998.wav,0,0,705,,,,,0,0,-83.67346728,1.27391906
FQC,66,1,2024-06-14T03:00:52.107Z,english_998.wav,0,0,705,,,,,1,0.1,-68.43297462,0.75913393
FQC,66,1,2024-06-14T03:00:52.107Z,english_998.wav,0,0,705,,,,,2,0.2,47.84560439,1.02363825
FQC,66,1,2024-06-14T03:00:52.107Z,english_998.wav,0,0,705,,,,,3,0.3,71.43971258,1.78775676
FQC,66,1,2024-06-14T03:00:52.107Z,english_998.wav,0,0,705,,,,,4,0.4,-30.40941836,0.0961221
FQC,66,1,2024-06-14T03:00:52.107Z,english_998.wav,0,0,705,,,,,5,0.5,69.31214212,1.18933693
FQC,66,1,2024-06-14T03:00:52.107Z,english_998.wav,0,0,705,,,,,6,0.6,-95.04564508,1.9379163
FQC,66,1,2024-06-14T03:00:52.107Z,english_998.wav,0,0,705,,,,,7,0.7,-61.88405175,1.91389769
FQC,66,1,2024-06-14T03:00:52.107Z,english_998.wav,0,0,705,,,,,8,0.8,11.43915949,1.08895614
FQC,66,1,2024-06-14T03:00:52.107Z,english_998.wav,0,0,705,,,,,9,0.9,79.6365109,1.52042952
FQC,66,1,2024-06-14T03:00:52.107Z,english_998.wav,0,0,705,,,,,10,1,58.29305302,0.38016323
FQC,66,1,2024-06-14T03:00:52.107Z,english_998.wav,0,0,705,,,,,11,1.09391667,44.0288717,1.77799574
FQC,67,1,2024-06-14T03:00:52.107Z,english_447.wav,0,0,763,,,,,0,0,-49.70124271,1.81391456
FQC,67,1,2024-06-14T03:00:52.107Z,english_447.wav,0,0,763,,,,,1,0.1,6.80747638,1.91818371
FQC,67,1,2024-06-14T03:00:52.107Z,english_447.wav,0,0,763,,,,,2,0.2,78.85711307,1.77045116
FQC,67,1,2024-06-14T03:00:52.107Z,english_447.wav,0,0,763,,,,,3,0.3,58.81086859,1.59965973
FQC,67,1,2024-06-14T03:00:52.107Z,english_447.wav,0,0,763,,,,,4,0.4,-4.36201374,1.21262432
FQC,67,1,2024-06-14T03:00:52.107Z,english_447.wav,0,0,763,,,,,5,0.5,-19.70745175,1.80283693
FQC,67,1,2024-06-14T03:00:52.107Z,english_447.wav,0,0,763,,,,,6,0.6,5.54500097,0.57888703
FQC,67,1,2024-06-14T03:00:52.107Z,english_447.wav,0,0,763,,,,,7,0.7,-73.03933833,0.47461482
FQC,67,1,2024-06-14T03:00:52.107Z,english_447.wav,0,0,763,,,,,8,0.8,-20.453142,0.56581151
FQC,67,1,2024-06-14T03:00:52.107Z,english_447.wav,0,0,763,,,,,9,0.9,9.14360097,0.85442376
FQC,67,1,2024-06-14T03:00:52.107Z,english_447.wav,0,0,763,,,,,10,1,-42.46591072,0.56057863
FQC,67,1,2024-06-14T03:00:52.107Z,english_447.wav,0,0,763,,,,,11,1.09391667,3.646082,1.46752368
FQC,68,1,2024-06-14T03:00:52.107Z,english_329.wav,0,0,1209,,,,,0,0,-73.5267518,0.87153309
FQC,68,1,2024-06-14T03:00:52.107Z,english_329.wav,0,0,1209,,,,,1,0.1,26.40936661,1.24873758
FQC,68,1,2024-06-14T03:00:52.107Z,english_329.wav,0,0,1209,,,,,2,0.2,95.94954551,0.87594124
FQC,68,1,2024-06-14T03:00:52.107Z,english_329.wav,0,0,1209,,,,,3,0.3,-92.18268605,0.88012103
FQC,68,1,2024-06-14T03:00:52.107Z,english_329.wav,0,0,1209,,,,,4,0.4,-98.10910069,1.62824367
FQC,68,1,2024-06-14T03:00:52.107Z,english_329.wav,0,0,1209,,,,,5,0.5,-61.34103681,1.41725229
FQC,68,1,2024-06-14T03:00:52.107Z,english_329.wav,0,0,1209,,,,,6,0.6,34.88723994,1.27607992
FQC,68,1,2024-06-14T03:00:52.107Z,english_329.wav,0,0,1209,,,,,7,0.7,66.83835425,0.30685243
FQC,68,1,2024-06-14T03:00:52.107Z,english_329.wav,0,0,1209,,,,,8,0.8,-67.43059972,0.43279956
FQC,68,1,2024-06-14T03:00:52.107Z,english_329.wav,0,0,1209,,,,,9,0.9,51.12526405,0.74557381
FQC,68,1,2024-06-14T03:00:52.107Z,english_329.wav,0,0,1209,,,,,10,1,-25.5134348,0.84179224
FQC,68,1,2024-06-14T03:00:52.107Z,english_329.wav,0,0,1209,,,,,11,1.09391667,-82.24978729,0.84260005
FQC,69,1,2024-06-14T03:00:52.107Z,english_810.wav,0,1,1029,,,,,0,0,-83.9281143,1.69146892
FQC,69,1,2024-06-14T03:00:52.107Z,english_810.wav,0,1,1029,,,,,1,0.1,27.49266296,0.58552036
FQC,69,1,2024-06-14T03:00:52.107Z,english_810.wav,0,1,1029,,,,,2,0.2,-79.7114404,0.8081372
FQC,69,1,2024-06-14T03:00:52.107Z,english_810.wav,0,1,1029,,,,,3,0.3,88.86514055,1.52853197
FQC,69,1,2024-06-14T03:00:52.107Z,english_810.wav,0,1,1029,,,,,4,0.4,-83.57104811,1.32903065
FQC,69,1,2024-06-14T03:00:52.107Z,english_810.wav,0,1,1029,,,,,5,0.5,64.75337821,0.44686923
FQC,69,1,2024-06-14T03:00:52.107Z,english_810.wav,0,1,1029,,,,,6,0.6,-39.25229813,0.97314752
FQC,69,1,2024-06-14T03:00:52.107Z,english_810.wav,0,1,1029,,,,,7,0.7,-20.80683656,1.28969147
FQC,69,1,2024-06-14T03:00:52.107Z,english_810.wav,0,1,1029,,,,,8,0.8,-8.25263634,1.65843454
FQC,69,1,2024-06-14T03:00:52.107Z,english_810.wav,0,1,1029,,,,,9,0.9,-69.80984132,1.6089276
FQC,69,1,2024-06-14T03:00:52.107Z,english_810.wav,0,1,1029,,,,,10,1,12.24901577,1.8611166
FQC,69,1,2024-06-14T03:00:52.107Z,english_810.wav,0,1,1029,,,,,11,1.09391667,84.4149929,1.61125361
FQC,70,1,2024-06-14T03:00:52.107Z,english_830.wav,0,1,6972,,,,,0,0,-56.43859205,0.48566255
FQC,70,1,2024-06-14T03:00:52.107Z,english_830.wav,0,1,6972,,,,,1,0.1,-40.42370878,1.80120887
FQC,70,1,2024-06-14T03:00:52.107Z,english_830.wav,0,1,6972,,,,,2,0.2,57.12298771,0.23081218
FQC,70,1,2024-06-14T03:00:52.107Z,english_830.wav,0,1,6972,,,,,3,0.3,-17.62232487,1.34466319
FQC,70,1,2024-06-14T03:00:52.107Z,english_830.wav,0,1,6972,,,,,4,0.4,68.18956177,1.72981242
FQC,70,1,2024-06-14T03:00:52.107Z,english_830.wav,0,1,6972,,,,,5,0.5,87.82671531,1.56597803
FQC,70,1,2024-06-14T03:00:52.107Z,english_830.wav,0,1,6972,,,,,6,0.6,47.80958912,0.72011463
FQC,70,1,2024-06-14T03:00:52.107Z,english_830.wav,0,1,6972,,,,,7,0.7,90.11134252,1.40332871
FQC,70,1,2024-06-14T03:00:52.107Z,english_830.wav,0,1,6972,,,,,8,0.8,-73.11836968,0.88730082
FQC,70,1,2024-06-14T03:00:52.107Z,english_830.wav,0,1,6972,,,,,9,0.9,76.91440669,1.45593299
FQC,70,1,2024-06-14T03:00:52.107Z,english_830.wav,0,1,6972,,,,,10,1,0.84638196,1.11832638
FQC,70,1,2024-06-14T03:00:52.107Z,english_830.wav,0,1,6972,,,,,11,1.09391667,40.94191156,1.24825364
FQC,71,1,2024-06-14T03:00:52.107Z,english_10.wav,0,0,939,,,,,0,0,-15.04153425,1.52083452
FQC,71,1,2024-06-14T03:00:52.107Z,english_10.wav,0,0,939,,,,,1,0.1,-57.22263716,1.29896522
FQC,71,1,2024-06-14T03:00:52.107Z,english_10.wav,0,0,939,,,,,2,0.2,27.92618044,0.38561389
FQC,71,1,2024-06-14T03:00:52.107Z,english_10.wav,0,0,939,,,,,3,0.3,25.5799778,0.99686674
FQC,71,1,2024-06-14T03:00:52.107Z,english_10.wav,0,0,939,,,,,4,0.4,30.11064479,0.6118482
FQC,71,1,2024-06-14T03:00:52.107Z,english_10.wav,0,0,939,,,,,5,0.5,-7.71764525,1.86037541
FQC,71,1,2024-06-14T03:00:52.107Z,english_10.wav,0,0,939,,,,,6,0.6,27.65902171,0.71941397
FQC,71,1,2024-06-14T03:00:52.107Z,english_10.wav,0,0,939,,,,,7,0.7,-47.57621095,1.21671158
FQC,71,1,2024-06-14T03:00:52.107Z,english_10.wav,0,0,939,,,,,8,0.8,43.99977355,1.36149686
FQC,71,1,2024-06-14T03:00:52.107Z,english_10.wav,0,0,939,,,,,9,0.9,-15.79441044,0.57839438
FQC,71,1,2024-06-14T03:00:52.107Z,english_10.wav,0,0,939,,,,,10,1,-34.81966507,0.86495111
FQC,71,1,2024-06-14T03:00:52.107Z,english_10.wav,0,0,939,,,,,11,1.09391667,60.77971601,0.19592518
FQC,72,1,2024-06-14T03:00:52.107Z,english_213.wav,0,1,952,,,,,0,0,-32.76105426,1.09332496
FQC,72,1,2024-06-14T03:00:52.107Z,english_213.wav,0,1,952,,,,,1,0.1,20.82965334,1.62338997
FQC,72,1,2024-06-14T03:00:52.107Z,english_213.wav,0,1,952,,,,,2,0.2,92.37712608,0.62920964
FQC,72,1,2024-06-14T03:00:52.107Z,english_213.wav,0,1,952,,,,,3,0.3,62.5594058,1.24187197
FQC,72,1,2024-06-14T03:00:52.107Z,english_213.wav,0,1,952,,,,,4,0.4,6.21236176,0.66893682
FQC,72,1,2024-06-14T03:00:52.107Z,english_213.wav,0,1,952,,,,,5,0.5,4.78560907,0.46069242
FQC,72,1,2024-06-14T03:00:52.107Z,english_213.wav,0,1,952,,,,,6,0.6,-34.71949358,0.40626587
FQC,72,1,2024-06-14T03:00:52.107Z,english_213.wav,0,1,952,,,,,7,0.7,-10.08230205,1.52821633
FQC,72,1,2024-06-14T03:00:52.107Z,english_213.wav,0,1,952,,,,,8,0.8,33.82806657,1.03411812
FQC,72,1,2024-06-14T03:00:52.107Z,english_213.wav,0,1,952,,,,,9,0.9,-6.48550499,1.40320231
FQC,72,1,2024-06-14T03:00:52.107Z,english_213.wav,0,1,952,,,,,10,1,-24.14508238,0.99721534
FQC,72,1,2024-06-14T03:00:52.107Z,english_213.wav,0,1,952,,,,,11,1.09391667,87.95814846,0.20116539
FQC,73,1,2024-06-14T03:00:52.107Z,english_300.wav,0,0,1895,,,,,0,0,2.79972232,1.53749115
FQC,73,1,2024-06-14T03:00:52.107Z,english_300.wav,0,0,1895,,,,,1,0.1,-6.00092765,1.12105385
FQC,73,1,2024-06-14T03:00:52.107Z,english_300.wav,0,0,1895,,,,,2,0.2,5.93513414,1.21050577
FQC,73,1,2024-06-14T03:00:52.107Z,english_300.wav,0,0,1895,,,,,3,0.3,65.0106623,1.39038364
FQC,73,1,2024-06-14T03:00:52.107Z,english_300.wav,0,0,1895,,,,,4,0.4,-35.27715369,0.59533856
FQC,73,1,2024-06-14T03:00:52.107Z,english_300.wav,0,0,1895,,,,,5,0.5,-49.20910009,0.92189242
FQC,73,1,2024-06-14T03:00:52.107Z,english_300.wav,0,0,1895,,,,,6,0.6,90.62348649,1.12293969
FQC,73,1,2024-06-14T03:00:52.107Z,english_300.wav,0,0,1895,,,,,7,0.7,-62.79963136,0.08212217
FQC,73,1,2024-06-14T03:00:52.107Z,english_300.wav,0,0,1895,,,,,8,0.8,41.66095929,0.24893909
FQC,73,1,2024-06-14T03:00:52.107Z,english_300.wav,0,0,1895,,,,,9,0.9,-9.40303164,0.97640661
FQC,73,1,2024-06-14T03:00:52.107Z,english_300.wav,0,0,1895,,,,,10,1,-11.98915311,1.76885677
FQC,73,1,2024-06-14T03:00:52.107Z,english_300.wav,0,0,1895,,,,,11,1.09391667,86.33383712,1.97400425
FQC,74,1,2024-06-14T03:00:52.107Z,english_598.wav,0,0,808,,,,,0,0,66.59254232,1.11503085
FQC,74,1,2024-06-14T03:00:52.107Z,english_598.wav,0,0,808,,,,,1,0.1,-0.16294116,1.29891619
FQC,74,1,2024-06-14T03:00:52.107Z,english_598.wav,0,0,808,,,,,2,0.2,87.91623233,0.04302605
FQC,74,1,2024-06-14T03:00:52.107Z,english_598.wav,0,0,808,,,,,3,0.3,4.78179149,1.90355783
FQC,74,1,2024-06-14T03:00:52.107Z,english_598.wav,0,0,808,,,,,4,0.4,87.27330533,0.66957129
FQC,74,1,2024-06-14T03:00:52.107Z,english_598.wav,0,0,808,,,,,5,0.5,15.94205468,1.28062406
FQC,74,1,2024-06-14T03:00:52.107Z,english_598.wav,0,0,808,,,,,6,0.6,-57.72302194,0.15067731
FQC,74,1,2024-06-14T03:00:52.107Z,english_598.wav,0,0,808,,,,,7,0.7,-11.53545195,0.37044447
FQC,74,1,2024-06-14T03:00:52.107Z,english_598.wav,0,0,808,,,,,8,0.8,-97.23766847,0.00668091
FQC,74,1,2024-06-14T03:00:52.107Z,english_598.wav,0,0,808,,,,,9,0.9,-89.11050407,1.24076678
FQC,74,1,2024-06-14T03:00:52.107Z,english_598.wav,0,0,808,,,,,10,1,-7.65193873,0.4751477
FQC,74,1,2024-06-14T03:00:52.107Z,english_598.wav,0,0,808,,,,,11,1.09391667,-0.117565,1.3589293
FQC,75,1,2024-06-14T03:00:52.107Z,english_834.wav,0,1,653,,,,,0,0,-86.16375599,1.62153397
FQC,75,1,2024-06-14T03:00:52.107Z,english_834.wav,0,1,653,,,,,1,0.1,-22.09919923,1.42577166
FQC,75,1,2024-06-14T03:00:52.107Z,english_834.wav,0,1,653,,,,,2,0.2,63.82090938,1.22840095
FQC,75,1,2024-06-14T03:00:52.107Z,english_834.wav,0,1,653,,,,,3,0.3,38.26115817,1.977843
FQC,75,1,2024-06-14T03:00:52.107Z,english_834.wav,0,1,653,,,,,4,0.4,15.19654457,0.63466945
FQC,75,1,2024-06-14T03:00:52.107Z,english_834.wav,0,1,653,,,,,5,0.5,78.054871,1.94429469
FQC,75,1,2024-06-14T03:00:52.107Z,english_834.wav,0,1,653,,,,,6,0.6,63.1081572,0.531594
FQC,75,1,2024-06-14T03:00:52.107Z,english_834.wav,0,1,653,,,,,7,0.7,43.43236214,1.34157161
FQC,75,1,2024-06-14T03:00:52.107Z,english_834.wav,0,1,653,,,,,8,0.8,-74.3897683,1.32269287
FQC,75,1,2024-06-14T03:00:52.107Z,english_834.wav,0,1,653,,,,,9,0.9,40.24285486,1.75386624
FQC,75,1,2024-06-14T03:00:52.107Z,english_834.wav,0,1,653,,,,,10,1,-67.71571624,1.01238939
FQC,75,1,2024-06-14T03:00:52.107Z,english_834.wav,0,1,653,,,,,11,1.09391667,40.03958616,1.44306133
FQC,76,1,2024-06-14T03:00:52.107Z,english_874.wav,0,0,853,,,,,0,0,-71.39498579,1.26251394
FQC,76,1,2024-06-14T03:00:52.107Z,english_874.wav,0,0,853,,,,,1,0.1,62.98858744,1.60813214
FQC,76,1,2024-06-14T03:00:52.107Z,english_874.wav,0,0,853,,,,,2,0.2,41.27867713,0.77910004
FQC,76,1,2024-06-14T03:00:52.107Z,english_874.wav,0,0,853,,,,,3,0.3,-0.45014309,1.66768461
FQC,76,1,2024-06-14T03:00:52.107Z,english_874.wav,0,0,853,,,,,4,0.4,-62.23813069,1.66631965
FQC,76,1,2024-06-14T03:00:52.107Z,english_874.wav,0,0,853,,,,,5,0.5,81.69191529,0.96578831
FQC,76,1,2024-06-14T03:00:52.107Z,english_874.wav,0,0,853,,,,,6,0.6,-39.52630557,1.50022708
FQC,76,1,2024-06-14T03:00:52.107Z,english_874.wav,0,0,853,,,,,7,0.7,6.61232929,0.80807106
FQC,76,1,2024-06-14T03:00:52.107Z,english_874.wav,0,0,853,,,,,8,0.8,76.37120083,0.57035077
FQC,76,1,2024-06-14T03:00:52.107Z,english_874.wav,0,0,853,,,,,9,0.9,72.14080556,0.35036103
FQC,76,1,2024-06-14T03:00:52.107Z,english_874.wav,0,0,853,,,,,10,1,56.73337142,0.39594805
FQC,76,1,2024-06-14T03:00:52.107Z,english_874.wav,0,0,853,,,,,11,1.09391667,-44.63255829,1.14540291
FQC,77,1,2024-06-14T03:00:52.107Z,english_179.wav,0,1,759,,,,,0,0,-33.4332198,0.62790478
FQC,77,1,2024-06-14T03:00:52.107Z,english_179.wav,0,1,759,,,,,1,0.1,-18.78825339,1.4036751
FQC,77,1,2024-06-14T03:00:52.107Z,english_179.wav,0,1,759,,,,,2,0.2,20.20417282,0.86896148
FQC,77,1,2024-06-14T03:00:52.107Z,english_179.wav,0,1,759,,,,,3,0.3,-7.9077668,1.06787362
FQC,77,1,2024-06-14T03:00:52.107Z,english_179.wav,0,1,759,,,,,4,0.4,36.31992416,1.90188001
FQC,77,1,2024-06-14T03:00:52.107Z,english_179.wav,0,1,759,,,,,5,0.5,37.81237311,1.25658589
FQC,77,1,2024-06-14T03:00:52.107Z,english_179.wav,0,1,759,,,,,6,0.6,32.61553446,1.46381777
FQC,77,1,2024-06-14T03:00:52.107Z,english_179.wav,0,1,759,,,,,7,0.7,-19.47769131,1.6099544
FQC,77,1,2024-06-14T03:00:52.107Z,english_179.wav,0,1,759,,,,,8,0.8,27.26473458,0.97421346
FQC,77,1,2024-06-14T03:00:52.107Z,english_179.wav,0,1,759,,,,,9,0.9,-27.81368084,1.81429346
FQC,77,1,2024-06-14T03:00:52.107Z,english_179.wav,0,1,759,,,,,10,1,-84.08642127,0.55055727
FQC,77,1,2024-06-14T03:00:52.107Z,english_179.wav,0,1,759,,,,,11,1.09391667,-61.91167259,0.88239537
FQC,78,1,2024-06-14T03:00:52.107Z,english_846.wav,0,0,1153,,,,,0,0,47.64315726,0.95758586
FQC,78,1,2024-06-14T03:00:52.107Z,english_846.wav,0,0,1153,,,,,1,0.1,43.78617601,0.16218947
FQC,78,1,2024-06-14T03:00:52.107Z,english_846.wav,0,0,1153,,,,,2,0.2,-67.59598015,0.72860603
FQC,78,1,2024-06-14T03:00:52.107Z,english_846.wav,0,0,1153,,,,,3,0.3,75.82681519,0.60627127
FQC,78,1,2024-06-14T03:00:52.107Z,english_846.wav,0,0,1153,,,,,4,0.4,74.28596976,0.41876793
FQC,78,1,2024-06-14T03:00:52.107Z,english_846.wav,0,0,1153,,,,,5,0.5,40.48744531,1.23414848
FQC,78,1,2024-06-14T03:00:52.107Z,english_846.wav,0,0,1153,,,,,6,0.6,-65.90904049,1.54330327
FQC,78,1,2024-06-14T03:00:52.107Z,english_846.wav,0,0,1153,,,,,7,0.7,90.52035497,1.06483437
FQC,78,1,2024-06-14T03:00:52.107Z,english_846.wav,0,0,1153,,,,,8,0.8,-68.67205107,0.84380864
FQC,78,1,2024-06-14T03:00:52.107Z,english_846.wav,0,0,1153,,,,,9,0.9,8.67982792,0.84626324
FQC,78,1,2024-06-14T03:00:52.107Z,english_846.wav,0,0,1153,,,,,10,1,-64.09193989,1.29492524
FQC,78,1,2024-06-14T03:00:52.107Z,english_846.wav,0,0,1153,,,,,11,1.09391667,11.5113113,0.37776928
FQC,79,1,2024-06-14T03:00:52.107Z,english_548.wav,0,1,606,,,,,0,0,-24.88128465,1.63350405
FQC,79,1,2024-06-14T03:00:52.107Z,english_548.wav,0,1,606,,,,,1,0.1,1.54687273,0.1653087
FQC,79,1,2024-06-14T03:00:52.107Z,english_548.wav,0,1,606,,,,,2,0.2,58.02940435,0.01517729
FQC,79,1,2024-06-14T03:00:52.107Z,english_548.wav,0,1,606,,,,,3,0.3,-2.90148727,1.81666457
FQC,79,1,2024-06-14T03:00:52.107Z,english_548.wav,0,1,606,,,,,4,0.4,9.31686881,0.9208407
FQC,79,1,2024-06-14T03:00:52.107Z,english_548.wav,0,1,606,,,,,5,0.5,-62.70026351,1.35074745
FQC,79,1,2024-06-14T03:00:52.107Z,english_548.wav,0,1,606,,,,,6,0.6,-56.6580034,0.86467249
FQC,79,1,2024-06-14T03:00:52.107Z,english_548.wav,0,1,606,,,,,7,0.7,14.62965286,1.73416909
FQC,79,1,2024-06-14T03:00:52.107Z,english_548.wav,0,1,606,,,,,8,0.8,-14.87483285,1.42113571
FQC,79,1,2024-06-14T03:00:52.107Z,english_548.wav,0,1,606,,,,,9,0.9,69.23683794,0.95555023
FQC,79,1,2024-06-14T03:00:52.107Z,english_548.wav,0,1,606,,,,,10,1,-42.98683333,1.22888343
FQC,79,1,2024-06-14T03:00:52.107Z,english_548.wav,0,1,606,,,,,11,1.09391667,67.19958302,1.18114311
FQC,80,1,2024-06-14T03:00:52.107Z,english_24.wav,0,0,810,,,,,0,0,19.80934614,1.72303363
FQC,80,1,2024-06-14T03:00:52.107Z,english_24.wav,0,0,810,,,,,1,0.1,18.47296287,1.17223446
FQC,80,1,2024-06-14T03:00:52.107Z,english_24.wav,0,0,810,,,,,2,0.2,-87.44087303,0.32252022
FQC,80,1,2024-06-14T03:00:52.107Z,english_24.wav,0,0,810,,,,,3,0.3,-24.76838412,1.29113778
FQC,80,1,2024-06-14T03:00:52.107Z,english_24.wav,0,0,810,,,,,4,0.4,28.54854922,1.23026356
FQC,80,1,2024-06-14T03:00:52.107Z,english_24.wav,0,0,810,,,,,5,0.5,-93.00925389,1.272094
FQC,80,1,2024-06-14T03:00:52.107Z,english_24.wav,0,0,810,,,,,6,0.6,43.83851229,1.03857334
FQC,80,1,2024-06-14T03:00:52.107Z,english_24.wav,0,0,810,,,,,7,0.7,56.50445967,0.04355902
FQC,80,1,2024-06-14T03:00:52.107Z,english_24.wav,0,0,810,,,,,8,0.8,-34.51680679,1.12262583
FQC,80,1,2024-06-14T03:00:52.107Z,english_24.wav,0,0,810,,,,,9,0.9,77.91008798,0.83275479
FQC,80,1,2024-06-14T03:00:52.107Z,english_24.wav,0,0,810,,,,,10,1,22.21951013,0.49987962
FQC,80,1,2024-06-14T03:00:52.107Z,english_24.wav,0,0,810,,,,,11,1.09391667,44.21755505,0.6404637
FQC,81,1,2024-06-14T03:00:52.107Z,english_189.wav,0,0,859,,,,,0,0,38.06728106,1.56553487
FQC,81,1,2024-06-14T03:00:52.107Z,english_189.wav,0,0,859,,,,,1,0.1,-1.4916867,1.31424407
FQC,81,1,2024-06-14T03:00:52.107Z,english_189.wav,0,0,859,,,,,2,0.2,43.23022726,1.86938367
FQC,81,1,2024-06-14T03:00:52.107Z,english_189.wav,0,0,859,,,,,3,0.3,70.52777392,0.10876999
FQC,81,1,2024-06-14T03:00:52.107Z,english_189.wav,0,0,859,,,,,4,0.4,-59.79939787,1.05429822
FQC,81,1,2024-06-14T03:00:52.107Z,english_189.wav,0,0,859,,,,,5,0.5,5.41678611,0.01998106
FQC,81,1,2024-06-14T03:00:52.107Z,english_189.wav,0,0,859,,,,,6,0.6,44.76349545,0.98555546
FQC,81,1,2024-06-14T03:00:52.107Z,english_189.wav,0,0,859,,,,,7,0.7,-14.25166989,1.99583415
FQC,81,1,2024-06-14T03:00:52.107Z,english_189.wav,0,0,859,,,,,8,0.8,-20.12101429,0.39293902
FQC,81,1,2024-06-14T03:00:52.107Z,english_189.wav,0,0,859,,,,,9,0.9,-43.3681134,0.55662411
FQC,81,1,2024-06-14T03:00:52.107Z,english_189.wav,0,0,859,,,,,10,1,-43.09833267,0.66082483
FQC,81,1,2024-06-14T03:00:52.107Z,english_189.wav,0,0,859,,,,,11,1.09391667,-43.67138872,0.74070611
FQC,82,1,2024-06-14T03:00:52.107Z,english_970.wav,0,0,931,,,,,0,0,-54.89447986,0.81951556
FQC,82,1,2024-06-14T03:00:52.107Z,english_970.wav,0,0,931,,,,,1,0.1,25.1169893,1.67117432
FQC,82,1,2024-06-14T03:00:52.107Z,english_970.wav,0,0,931,,,,,2,0.2,-40.43511265,1.15867829
FQC,82,1,2024-06-14T03:00:52.107Z,english_970.wav,0,0,931,,,,,3,0.3,-62.36717191,1.19627059
FQC,82,1,2024-06-14T03:00:52.107Z,english_970.wav,0,0,931,,,,,4,0.4,-52.87769156,1.65204518
FQC,82,1,2024-06-14T03:00:52.107Z,english_970.wav,0,0,931,,,,,5,0.5,-60.51030312,1.89905296
FQC,82,1,2024-06-14T03:00:52.107Z,english_970.wav,0,0,931,,,,,6,0.6,-20.66217752,1.49874094
FQC,82,1,2024-06-14T03:00:52.107Z,english_970.wav,0,0,931,,,,,7,0.7,39.3890126,1.49402448
FQC,82,1,2024-06-14T03:00:52.107Z,english_970.wav,0,0,931,,,,,8,0.8,-42.20316614,0.52089687
FQC,82,1,2024-06-14T03:00:52.107Z,english_970.wav,0,0,931,,,,,9,0.9,-5.07453967,0.54496633
FQC,82,1,2024-06-14T03:00:52.107Z,english_970.wav,0,0,931,,,,,10,1,63.70783578,0.14699143
FQC,82,1,2024-06-14T03:00:52.107Z,english_970.wav,0,0,931,,,,,11,1.09391667,15.89619138,0.8383136
FQC,83,1,2024-06-14T03:00:52.107Z,english_661.wav,0,1,753,,,,,0,0,-96.27017097,0.06095717
FQC,83,1,2024-06-14T03:00:52.107Z,english_661.wav,0,1,753,,,,,1,0.1,-8.23164951,1.37830678
FQC,83,1,2024-06-14T03:00:52.107Z,english_661.wav,0,1,753,,,,,2,0.2,-17.16483844,0.60938429
FQC,83,1,2024-06-14T03:00:52.107Z,english_661.wav,0,1,753,,,,,3,0.3,51.38438878,1.50755712
FQC,83,1,2024-06-14T03:00:52.107Z,english_661.wav,0,1,753,,,,,4,0.4,-46.68819378,0.78233896
FQC,83,1,2024-06-14T03:00:52.107Z,english_661.wav,0,1,753,,,,,5,0.5,-48.36150329,1.0485375
FQC,83,1,2024-06-14T03:00:52.107Z,english_661.wav,0,1,753,,,,,6,0.6,39.11171658,1.09444979
FQC,83,1,2024-06-14T03:00:52.107Z,english_661.wav,0,1,753,,,,,7,0.7,61.02242978,0.69142926
FQC,83,1,2024-06-14T03:00:52.107Z,english_661.wav,0,1,753,,,,,8,0.8,-31.59479495,1.58337901
FQC,83,1,2024-06-14T03:00:52.107Z,english_661.wav,0,1,753,,,,,9,0.9,29.78054616,1.62604078
FQC,83,1,2024-06-14T03:00:52.107Z,english_661.wav,0,1,753,,,,,10,1,12.03263948,0.74172624
FQC,83,1,2024-06-14T03:00:52.107Z,english_661.wav,0,1,753,,,,,11,1.09391667,45.41432931,1.92603435
FQC,84,1,2024-06-14T03:00:52.107Z,english_557.wav,0,1,854,,,,,0,0,-36.00437951,0.86268568
FQC,84,1,2024-06-14T03:00:52.107Z,english_557.wav,0,1,854,,,,,1,0.1,-36.18192477,0.78818346
FQC,84,1,2024-06-14T03:00:52.107Z,english_557.wav,0,1,854,,,,,2,0.2,-76.46214854,0.88104775
FQC,84,1,2024-06-14T03:00:52.107Z,english_557.wav,0,1,854,,,,,3,0.3,-9.78546514,0.51957323
FQC,84,1,2024-06-14T03:00:52.107Z,english_557.wav,0,1,854,,,,,4,0.4,-53.27937245,1.84624381
FQC,84,1,2024-06-14T03:00:52.107Z,english_557.wav,0,1,854,,,,,5,0.5,14.69737181,0.53524469
FQC,84,1,2024-06-14T03:00:52.107Z,english_557.wav,0,1,854,,,,,6,0.6,-76.22217722,0.83895898
FQC,84,1,2024-06-14T03:00:52.107Z,english_557.wav,0,1,854,,,,,7,0.7,76.26393568,0.4548877
FQC,84,1,2024-06-14T03:00:52.107Z,english_557.wav,0,1,854,,,,,8,0.8,-62.02007028,1.59917341
FQC,84,1,2024-06-14T03:00:52.107Z,english_557.wav,0,1,854,,,,,9,0.9,73.18804903,0.63690232
FQC,84,1,2024-06-14T03:00:52.107Z,english_557.wav,0,1,854,,,,,10,1,75.91755358,1.04600017
FQC,84,1,2024-06-14T03:00:52.107Z,english_557.wav,0,1,854,,,,,11,1.09391667,-37.39944408,0.42796411
FQC,85,1,2024-06-14T03:00:52.107Z,english_399.wav,0,1,1403,,,,,0,0,7.35119233,1.43512774
FQC,85,1,2024-06-14T03:00:52.107Z,english_399.wav,0,1,1403,,,,,1,0.1,7.30105906,1.7056904
FQC,85,1,2024-06-14T03:00:52.107Z,english_399.wav,0,1,1403,,,,,2,0.2,-55.03587691,1.60882656
FQC,85,1,2024-06-14T03:00:52.107Z,english_399.wav,0,1,1403,,,,,3,0.3,63.9361431,1.57397844
FQC,85,1,2024-06-14T03:00:52.107Z,english_399.wav,0,1,1403,,,,,4,0.4,44.6049307,0.93377042
FQC,85,1,2024-06-14T03:00:52.107Z,english_399.wav,0,1,1403,,,,,5,0.5,68.42668929,1.9481779
FQC,85,1,2024-06-14T03:00:52.107Z,english_399.wav,0,1,1403,,,,,6,0.6,54.53895784,1.40688071
FQC,85,1,2024-06-14T03:00:52.107Z,english_399.wav,0,1,1403,,,,,7,0.7,87.63954028,0.69376281
FQC,85,1,2024-06-14T03:00:52.107Z,english_399.wav,0,1,1403,,,,,8,0.8,-0.41432999,1.28838791
FQC,85,1,2024-06-14T03:00:52.107Z,english_399.wav,0,1,1403,,,,,9,0.9,24.60615905,0.52758228
FQC,85,1,2024-06-14T03:00:52.107Z,english_399.wav,0,1,1403,,,,,10,1,-97.67130798,0.96519431
FQC,85,1,2024-06-14T03:00:52.107Z,english_399.wav,0,1,1403,,,,,11,1.09391667,61.44027276,1.05566464
FQC,86,1,2024-06-14T03:00:52.107Z,english_427.wav,0,0,781,,,,,0,0,-34.05157895,1.0004529
FQC,86,1,2024-06-14T03:00:52.107Z,english_427.wav,0,0,781,,,,,1,0.1,58.19153473,1.21096565
FQC,86,1,2024-06-14T03:00:52.107Z,english_427.wav,0,0,781,,,,,2,0.2,-48.12257975,0.11590133
FQC,86,1,2024-06-14T03:00:52.107Z,english_427.wav,0,0,781,,,,,3,0.3,49.89061623,1.91629618
FQC,86,1,2024-06-14T03:00:52.107Z,english_427.wav,0,0,781,,,,,4,0.4,34.36154687,1.2268838
FQC,86,1,2024-06-14T03:00:52.107Z,english_427.wav,0,0,781,,,,,5,0.5,-5.3172375,1.50953507
FQC,86,1,2024-06-14T03:00:52.107Z,english_427.wav,0,0,781,,,,,6,0.6,22.96924358,0.88661312
FQC,86,1,2024-06-14T03:00:52.107Z,english_427.wav,0,0,781,,,,,7,0.7,-97.31174849,0.11078335
FQC,86,1,2024-06-14T03:00:52.107Z,english_427.wav,0,0,781,,,,,8,0.8,-28.90224272,0.79636785
FQC,86,1,2024-06-14T03:00:52.107Z,english_427.wav,0,0,781,,,,,9,0.9,-26.24845885,0.27345116
FQC,86,1,2024-06-14T03:00:52.107Z,english_427.wav,0,0,781,,,,,10,1,92.28378811,0.14785478
FQC,86,1,2024-06-14T03:00:52.107Z,english_427.wav,0,0,781,,,,,11,1.09391667,-48.38945182,0.43629002
FQC,87,1,2024-06-14T03:00:52.107Z,english_381.wav,0,1,2383,,,,,0,0,32.46103548,1.94101049
FQC,87,1,2024-06-14T03:00:52.107Z,english_381.wav,0,1,2383,,,,,1,0.1,-84.4488561,1.51363242
FQC,87,1,2024-06-14T03:00:52.107Z,english_381.wav,0,1,2383,,,,,2,0.2,-42.33494044,0.19481462
FQC,87,1,2024-06-14T03:00:52.107Z,english_381.wav,0,1,2383,,,,,3,0.3,26.92548459,1.5781166
FQC,87,1,2024-06-14T03:00:52.107Z,english_381.wav,0,1,2383,,,,,4,0.4,89.55231206,0.89814833
FQC,87,1,2024-06-14T03:00:52.107Z,english_381.wav,0,1,2383,,,,,5,0.5,44.65598435,1.1373774
FQC,87,1,2024-06-14T03:00:52.107Z,english_381.wav,0,1,2383,,,,,6,0.6,-71.41154839,0.86888784
FQC,87,1,2024-06-14T03:00:52.107Z,english_381.wav,0,1,2383,,,,,7,0.7,-16.0355166,0.73017184
FQC,87,1,2024-06-14T03:00:52.107Z,english_381.wav,0,1,2383,,,,,8,0.8,-87.56719183,1.43125884
FQC,87,1,2024-06-14T03:00:52.107Z,english_381.wav,0,1,2383,,,,,9,0.9,-36.64318661,0.63988164
FQC,87,1,2024-06-14T03:00:52.107Z,english_381.wav,0,1,2383,,,,,10,1,2.98595367,0.12358053
FQC,87,1,2024-06-14T03:00:52.107Z,english_381.wav,0,1,2383,,,,,11,1.09391667,-73.96797181,1.01352385
FQC,88,1,2024-06-14T03:00:52.107Z,english_807.wav,0,1,956,,,,,0,0,-34.7601745,1.20965337
FQC,88,1,2024-06-14T03:00:52.107Z,english_807.wav,0,1,956,,,,,1,0.1,33.36048689,1.65563234
FQC,88,1,2024-06-14T03:00:52.107Z,english_807.wav,0,1,956,,,,,2,0.2,-67.67370502,1.59964516
FQC,88,1,2024-06-14T03:00:52.107Z,english_807.wav,0,1,956,,,,,3,0.3,-75.303265,0.1616649
FQC,88,1,2024-06-14T03:00:52.107Z,english_807.wav,0,1,956,,,,,4,0.4,50.02795893,0.65690397
FQC,88,1,2024-06-14T03:00:52.107Z,english_807.wav,0,1,956,,,,,5,0.5,-86.15237501,1.06047173
FQC,88,1,2024-06-14T03:00:52.107Z,english_807.wav,0,1,956,,,,,6,0.6,75.95576156,1.33167503
FQC,88,1,2024-06-14T03:00:52.107Z,english_807.wav,0,1,956,,,,,7,0.7,90.49040763,0.49356808
FQC,88,1,2024-06-14T03:00:52.107Z,english_807.wav,0,1,956,,,,,8,0.8,-21.66303016,0.55567292
FQC,88,1,2024-06-14T03:00:52.107Z,english_807.wav,0,1,956,,,,,9,0.9,-29.03621191,1.52247069
FQC,88,1,2024-06-14T03:00:52.107Z,english_807.wav,0,1,956,,,,,10,1,-43.10401298,1.04125391
FQC,88,1,2024-06-14T03:00:52.107Z,english_807.wav,0,1,956,,,,,11,1.09391667,15.25709301,0.73437953
FQC,89,1,2024-06-14T03:00:52.107Z,english_61.wav,0,1,999,,,,,0,0,-76.31366774,1.15675845
FQC,89,1,2024-06-14T03:00:52.107Z,english_61.wav,0,1,999,,,,,1,0.1,-70.32577527,0.79511083
FQC,89,1,2024-06-14T03:00:52.107Z,english_61.wav,0,1,999,,,,,2,0.2,5.13466316,0.40451227
FQC,89,1,2024-06-14T03:00:52.107Z,english_61.wav,0,1,999,,,,,3,0.3,37.00830294,0.79487484
FQC,89,1,2024-06-14T03:00:52.107Z,english_61.wav,0,1,999,,,,,4,0.4,-11.73068973,0.44483697
FQC,89,1,2024-06-14T03:00:52.107Z,english_61.wav,0,1,999,,,,,5,0.5,91.45109603,0.84603206
FQC,89,1,2024-06-14T03:00:52.107Z,english_61.wav,0,1,999,,,,,6,0.6,11.9601718,0.8090615
FQC,89,1,2024-06-14T03:00:52.107Z,english_61.wav,0,1,999,,,,,7,0.7,-66.7573243,1.09438885
FQC,89,1,2024-06-14T03:00:52.107Z,english_61.wav,0,1,999,,,,,8,0.8,78.73702917,1.14041124
FQC,89,1,2024-06-14T03:00:52.107Z,english_61.wav,0,1,999,,,,,9,0.9,61.80688515,0.39248564
FQC,89,1,2024-06-14T03:00:52.107Z,english_61.wav,0,1,999,,,,,10,1,-73.85845523,1.77720472
FQC,89,1,2024-06-14T03:00:52.107Z,english_61.wav,0,1,999,,,,,11,1.09391667,-24.76259921,1.29259789
FQC,90,1,2024-06-14T03:00:52.107Z,english_911.wav,0,1,797,,,,,0,0,97.74431138,1.45295226
FQC,90,1,2024-06-14T03:00:52.107Z,english_911.wav,0,1,797,,,,,1,0.1,63.25353714,0.52934156
FQC,90,1,2024-06-14T03:00:52.107Z,english_911.wav,0,1,797,,,,,2,0.2,31.76873058,1.12978313
FQC,90,1,2024-06-14T03:00:52.107Z,english_911.wav,0,1,797,,,,,3,0.3,-80.65515271,0.46492479
FQC,90,1,2024-06-14T03:00:52.107Z,english_911.wav,0,1,797,,,,,4,0.4,87.72308134,1.65576631
FQC,90,1,2024-06-14T03:00:52.107Z,english_911.wav,0,1,797,,,,,5,0.5,-43.90030619,0.95301179
FQC,90,1,2024-06-14T03:00:52.107Z,english_911.wav,0,1,797,,,,,6,0.6,-96.43392939,1.98033305
