subj,trial,block,date,stim,stim_order,response,rt,age,english,language,sex,param_index,segment,pitch,stretch
ZH,0,0,2024-06-14T08:26:48.904Z,english_820.wav,0,1,2253,20,3,Chinese,f,0,0,-90.13612519,0.91151007
ZH,0,0,2024-06-14T08:26:48.904Z,english_820.wav,0,1,2253,20,3,Chinese,f,1,0.1,-50.72556256,1.30362027
ZH,0,0,2024-06-14T08:26:48.904Z,english_820.wav,0,1,2253,20,3,Chinese,f,2,0.2,-79.00829797,0.25855126
ZH,0,0,2024-06-14T08:26:48.904Z,english_820.wav,0,1,2253,20,3,Chinese,f,3,0.3,-14.44339945,1.8078566
ZH,0,0,2024-06-14T08:26:48.904Z,english_820.wav,0,1,2253,20,3,Chinese,f,4,0.4,25.9456349,1.15063196
ZH,0,0,2024-06-14T08:26:48.904Z,english_820.wav,0,1,2253,20,3,Chinese,f,5,0.5,-28.76259068,1.03640346
ZH,0,0,2024-06-14T08:26:48.904Z,english_820.wav,0,1,2253,20,3,Chinese,f,6,0.6,-20.65873648,1.10712464
ZH,0,0,2024-06-14T08:26:48.904Z,english_820.wav,0,1,2253,20,3,Chinese,f,7,0.7,19.30633091,1.58948272
ZH,0,0,2024-06-14T08:26:48.904Z,english_820.wav,0,1,2253,20,3,Chinese,f,8,0.8,6.01129625,1.36569453
ZH,0,0,2024-06-14T08:26:48.904Z,english_820.wav,0,1,2253,20,3,Chinese,f,9,0.9,-10.90113074,0.84663536
ZH,0,0,2024-06-14T08:26:48.904Z,english_820.wav,0,1,2253,20,3,Chinese,f,10,1,-2.19154449,1.67108309
ZH,0,0,2024-06-14T08:26:48.904Z,english_820.wav,0,1,2253,20,3,Chinese,f,11,1.09391667,-66.85311594,1.79051546
ZH,1,0,2024-06-14T08:26:48.904Z,english_535.wav,0,0,830,20,3,Chinese,f,0,0,-4.00375318,0.74823916
ZH,1,0,2024-06-14T08:26:48.904Z,english_535.wav,0,0,830,20,3,Chinese,f,1,0.1,-37.57387138,0.9109632
ZH,1,0,2024-06-14T08:26:48.904Z,english_535.wav,0,0,830,20,3,Chinese,f,2,0.2,-31.12595353,0.84755902
ZH,1,0,2024-06-14T08:26:48.904Z,english_535.wav,0,0,830,20,3,Chinese,f,3,0.3,2.06341331,1.09662022
ZH,1,0,2024-06-14T08:26:48.904Z,english_535.wav,0,0,830,20,3,Chinese,f,4,0.4,56.11576492,0.26254995
ZH,1,0,2024-06-14T08:26:48.904Z,english_535.wav,0,0,830,20,3,Chinese,f,5,0.5,30.13214978,1.29967994
ZH,1,0,2024-06-14T08:26:48.904Z,english_535.wav,0,0,830,20,3,Chinese,f,6,0.6,14.78197265,1.50452532
ZH,1,0,2024-06-14T08:26:48.904Z,english_535.wav,0,0,830,20,3,Chinese,f,7,0.7,-18.38930177,1.51808924
ZH,1,0,2024-06-14T08:26:48.904Z,english_535.wav,0,0,830,20,3,Chinese,f,8,0.8,-10.54396075,0.34439234
ZH,1,0,2024-06-14T08:26:48.904Z,english_535.wav,0,0,830,20,3,Chinese,f,9,0.9,39.09773013,0.86790386
ZH,1,0,2024-06-14T08:26:48.904Z,english_535.wav,0,0,830,20,3,Chinese,f,10,1,46.13111143,0.86784134
ZH,1,0,2024-06-14T08:26:48.904Z,english_535.wav,0,0,830,20,3,Chinese,f,11,1.09391667,-64.44597459,0.57511998
ZH,2,0,2024-06-14T08:26:48.904Z,english_449.wav,0,1,1026,20,3,Chinese,f,0,0,-44.55388373,1.29710548
ZH,2,0,2024-06-14T08:26:48.904Z,english_449.wav,0,1,1026,20,3,Chinese,f,1,0.1,-6.72313799,1.06558485
ZH,2,0,2024-06-14T08:26:48.904Z,english_449.wav,0,1,1026,20,3,Chinese,f,2,0.2,79.06263513,1.64594706
ZH,2,0,2024-06-14T08:26:48.904Z,english_449.wav,0,1,1026,20,3,Chinese,f,3,0.3,-55.67409496,0.52101608
ZH,2,0,2024-06-14T08:26:48.904Z,english_449.wav,0,1,1026,20,3,Chinese,f,4,0.4,-98.00845055,1.47445199
ZH,2,0,2024-06-14T08:26:48.904Z,english_449.wav,0,1,1026,20,3,Chinese,f,5,0.5,11.95490186,0.94544277
ZH,2,0,2024-06-14T08:26:48.904Z,english_449.wav,0,1,1026,20,3,Chinese,f,6,0.6,61.24554038,1.90306494
ZH,2,0,2024-06-14T08:26:48.904Z,english_449.wav,0,1,1026,20,3,Chinese,f,7,0.7,22.84997393,1.15810732
ZH,2,0,2024-06-14T08:26:48.904Z,english_449.wav,0,1,1026,20,3,Chinese,f,8,0.8,-43.41021729,0.26889852
ZH,2,0,2024-06-14T08:26:48.904Z,english_449.wav,0,1,1026,20,3,Chinese,f,9,0.9,-0.66438627,1.02983536
ZH,2,0,2024-06-14T08:26:48.904Z,english_449.wav,0,1,1026,20,3,Chinese,f,10,1,97.92538247,1.13790703
ZH,2,0,2024-06-14T08:26:48.904Z,english_449.wav,0,1,1026,20,3,Chinese,f,11,1.09391667,-73.561514,0.97073961
ZH,3,0,2024-06-14T08:26:48.904Z,english_519.wav,0,1,657,20,3,Chinese,f,0,0,-89.70690317,1.70012146
ZH,3,0,2024-06-14T08:26:48.904Z,english_519.wav,0,1,657,20,3,Chinese,f,1,0.1,12.73288581,0.30558637
ZH,3,0,2024-06-14T08:26:48.904Z,english_519.wav,0,1,657,20,3,Chinese,f,2,0.2,-28.85796661,1.20634899
ZH,3,0,2024-06-14T08:26:48.904Z,english_519.wav,0,1,657,20,3,Chinese,f,3,0.3,26.94929279,0.03671801
ZH,3,0,2024-06-14T08:26:48.904Z,english_519.wav,0,1,657,20,3,Chinese,f,4,0.4,88.17509723,1.89470366
ZH,3,0,2024-06-14T08:26:48.904Z,english_519.wav,0,1,657,20,3,Chinese,f,5,0.5,-36.4551596,1.56676756
ZH,3,0,2024-06-14T08:26:48.904Z,english_519.wav,0,1,657,20,3,Chinese,f,6,0.6,24.45140187,0.94993833
ZH,3,0,2024-06-14T08:26:48.904Z,english_519.wav,0,1,657,20,3,Chinese,f,7,0.7,7.63765931,1.07658622
ZH,3,0,2024-06-14T08:26:48.904Z,english_519.wav,0,1,657,20,3,Chinese,f,8,0.8,1.30228681,1.81741966
ZH,3,0,2024-06-14T08:26:48.904Z,english_519.wav,0,1,657,20,3,Chinese,f,9,0.9,72.18985419,0.56710914
ZH,3,0,2024-06-14T08:26:48.904Z,english_519.wav,0,1,657,20,3,Chinese,f,10,1,-56.35512761,0.45384515
ZH,3,0,2024-06-14T08:26:48.904Z,english_519.wav,0,1,657,20,3,Chinese,f,11,1.09391667,-27.12026306,1.11287687
ZH,4,0,2024-06-14T08:26:48.904Z,english_809.wav,0,0,827,20,3,Chinese,f,0,0,-9.12051171,1.24060405
ZH,4,0,2024-06-14T08:26:48.904Z,english_809.wav,0,0,827,20,3,Chinese,f,1,0.1,56.83840218,0.92544531
ZH,4,0,2024-06-14T08:26:48.904Z,english_809.wav,0,0,827,20,3,Chinese,f,2,0.2,-21.1464042,1.6749497
ZH,4,0,2024-06-14T08:26:48.904Z,english_809.wav,0,0,827,20,3,Chinese,f,3,0.3,57.63617788,0.74168877
ZH,4,0,2024-06-14T08:26:48.904Z,english_809.wav,0,0,827,20,3,Chinese,f,4,0.4,81.73006696,0.96063823
ZH,4,0,2024-06-14T08:26:48.904Z,english_809.wav,0,0,827,20,3,Chinese,f,5,0.5,1.9499243,1.38564295
ZH,4,0,2024-06-14T08:26:48.904Z,english_809.wav,0,0,827,20,3,Chinese,f,6,0.6,94.78967393,0.56911063
ZH,4,0,2024-06-14T08:26:48.904Z,english_809.wav,0,0,827,20,3,Chinese,f,7,0.7,65.64249462,0.51453492
ZH,4,0,2024-06-14T08:26:48.904Z,english_809.wav,0,0,827,20,3,Chinese,f,8,0.8,90.5146219,0.11779349
ZH,4,0,2024-06-14T08:26:48.904Z,english_809.wav,0,0,827,20,3,Chinese,f,9,0.9,37.72992996,0.31036913
ZH,4,0,2024-06-14T08:26:48.904Z,english_809.wav,0,0,827,20,3,Chinese,f,10,1,-3.08128901,0.78583843
ZH,4,0,2024-06-14T08:26:48.904Z,english_809.wav,0,0,827,20,3,Chinese,f,11,1.09391667,81.22811773,1.12131059
ZH,5,0,2024-06-14T08:26:48.904Z,english_953.wav,0,1,2381,20,3,Chinese,f,0,0,66.99743889,1.15286604
ZH,5,0,2024-06-14T08:26:48.904Z,english_953.wav,0,1,2381,20,3,Chinese,f,1,0.1,-76.84252631,1.84100888
ZH,5,0,2024-06-14T08:26:48.904Z,english_953.wav,0,1,2381,20,3,Chinese,f,2,0.2,-45.49309493,0.29896559
ZH,5,0,2024-06-14T08:26:48.904Z,english_953.wav,0,1,2381,20,3,Chinese,f,3,0.3,55.46461894,0.47017465
ZH,5,0,2024-06-14T08:26:48.904Z,english_953.wav,0,1,2381,20,3,Chinese,f,4,0.4,81.99201124,0.15248902
ZH,5,0,2024-06-14T08:26:48.904Z,english_953.wav,0,1,2381,20,3,Chinese,f,5,0.5,1.34607331,1.13290225
ZH,5,0,2024-06-14T08:26:48.904Z,english_953.wav,0,1,2381,20,3,Chinese,f,6,0.6,50.45029952,0.34595451
ZH,5,0,2024-06-14T08:26:48.904Z,english_953.wav,0,1,2381,20,3,Chinese,f,7,0.7,74.64893983,0.44244875
ZH,5,0,2024-06-14T08:26:48.904Z,english_953.wav,0,1,2381,20,3,Chinese,f,8,0.8,26.00448077,0.8076701
ZH,5,0,2024-06-14T08:26:48.904Z,english_953.wav,0,1,2381,20,3,Chinese,f,9,0.9,-99.39894728,1.93347558
ZH,5,0,2024-06-14T08:26:48.904Z,english_953.wav,0,1,2381,20,3,Chinese,f,10,1,-16.71063882,1.69365872
ZH,5,0,2024-06-14T08:26:48.904Z,english_953.wav,0,1,2381,20,3,Chinese,f,11,1.09391667,53.60095231,1.16220812
ZH,6,0,2024-06-14T08:26:48.904Z,english_610.wav,0,0,740,20,3,Chinese,f,0,0,-92.84300711,0.87509592
ZH,6,0,2024-06-14T08:26:48.904Z,english_610.wav,0,0,740,20,3,Chinese,f,1,0.1,84.93303095,1.15799642
ZH,6,0,2024-06-14T08:26:48.904Z,english_610.wav,0,0,740,20,3,Chinese,f,2,0.2,80.17137486,0.35067597
ZH,6,0,2024-06-14T08:26:48.904Z,english_610.wav,0,0,740,20,3,Chinese,f,3,0.3,-20.18134966,0.73569606
ZH,6,0,2024-06-14T08:26:48.904Z,english_610.wav,0,0,740,20,3,Chinese,f,4,0.4,-20.20363531,1.23116766
ZH,6,0,2024-06-14T08:26:48.904Z,english_610.wav,0,0,740,20,3,Chinese,f,5,0.5,-69.79247274,0.29684789
ZH,6,0,2024-06-14T08:26:48.904Z,english_610.wav,0,0,740,20,3,Chinese,f,6,0.6,33.10957698,0.98948574
ZH,6,0,2024-06-14T08:26:48.904Z,english_610.wav,0,0,740,20,3,Chinese,f,7,0.7,-20.50322303,0.76787478
ZH,6,0,2024-06-14T08:26:48.904Z,english_610.wav,0,0,740,20,3,Chinese,f,8,0.8,-72.05825618,0.48117832
ZH,6,0,2024-06-14T08:26:48.904Z,english_610.wav,0,0,740,20,3,Chinese,f,9,0.9,1.26743028,0.47321928
ZH,6,0,2024-06-14T08:26:48.904Z,english_610.wav,0,0,740,20,3,Chinese,f,10,1,17.12915034,0.17126553
ZH,6,0,2024-06-14T08:26:48.904Z,english_610.wav,0,0,740,20,3,Chinese,f,11,1.09391667,64.76618694,1.04318183
ZH,7,0,2024-06-14T08:26:48.904Z,english_722.wav,0,1,1052,20,3,Chinese,f,0,0,-57.56576196,0.04722973
ZH,7,0,2024-06-14T08:26:48.904Z,english_722.wav,0,1,1052,20,3,Chinese,f,1,0.1,-19.70677764,1.09555253
ZH,7,0,2024-06-14T08:26:48.904Z,english_722.wav,0,1,1052,20,3,Chinese,f,2,0.2,83.71549809,0.8122888
ZH,7,0,2024-06-14T08:26:48.904Z,english_722.wav,0,1,1052,20,3,Chinese,f,3,0.3,0.72860566,0.82350502
ZH,7,0,2024-06-14T08:26:48.904Z,english_722.wav,0,1,1052,20,3,Chinese,f,4,0.4,23.57010212,0.7141467
ZH,7,0,2024-06-14T08:26:48.904Z,english_722.wav,0,1,1052,20,3,Chinese,f,5,0.5,-90.6432868,0.19918411
ZH,7,0,2024-06-14T08:26:48.904Z,english_722.wav,0,1,1052,20,3,Chinese,f,6,0.6,3.97952781,0.04680372
ZH,7,0,2024-06-14T08:26:48.904Z,english_722.wav,0,1,1052,20,3,Chinese,f,7,0.7,47.87385022,0.22857445
ZH,7,0,2024-06-14T08:26:48.904Z,english_722.wav,0,1,1052,20,3,Chinese,f,8,0.8,-10.29099789,1.06043027
ZH,7,0,2024-06-14T08:26:48.904Z,english_722.wav,0,1,1052,20,3,Chinese,f,9,0.9,-55.37554035,1.28411096
ZH,7,0,2024-06-14T08:26:48.904Z,english_722.wav,0,1,1052,20,3,Chinese,f,10,1,-74.87108339,1.38807885
ZH,7,0,2024-06-14T08:26:48.904Z,english_722.wav,0,1,1052,20,3,Chinese,f,11,1.09391667,32.13407254,0.54998416
ZH,8,0,2024-06-14T08:26:48.904Z,english_514.wav,0,1,748,20,3,Chinese,f,0,0,-59.82766829,1.35471226
ZH,8,0,2024-06-14T08:26:48.904Z,english_514.wav,0,1,748,20,3,Chinese,f,1,0.1,-4.54284015,0.81191054
ZH,8,0,2024-06-14T08:26:48.904Z,english_514.wav,0,1,748,20,3,Chinese,f,2,0.2,75.12688257,1.30120799
ZH,8,0,2024-06-14T08:26:48.904Z,english_514.wav,0,1,748,20,3,Chinese,f,3,0.3,52.77263543,1.91982738
ZH,8,0,2024-06-14T08:26:48.904Z,english_514.wav,0,1,748,20,3,Chinese,f,4,0.4,-86.38859223,1.85775535
ZH,8,0,2024-06-14T08:26:48.904Z,english_514.wav,0,1,748,20,3,Chinese,f,5,0.5,22.0573972,0.92799532
ZH,8,0,2024-06-14T08:26:48.904Z,english_514.wav,0,1,748,20,3,Chinese,f,6,0.6,-81.94223644,0.39882237
ZH,8,0,2024-06-14T08:26:48.904Z,english_514.wav,0,1,748,20,3,Chinese,f,7,0.7,33.46090425,1.85696096
ZH,8,0,2024-06-14T08:26:48.904Z,english_514.wav,0,1,748,20,3,Chinese,f,8,0.8,10.59703074,0.26578536
ZH,8,0,2024-06-14T08:26:48.904Z,english_514.wav,0,1,748,20,3,Chinese,f,9,0.9,74.40481447,1.80594265
ZH,8,0,2024-06-14T08:26:48.904Z,english_514.wav,0,1,748,20,3,Chinese,f,10,1,35.18551728,0.66929464
ZH,8,0,2024-06-14T08:26:48.904Z,english_514.wav,0,1,748,20,3,Chinese,f,11,1.09391667,-52.88743611,1.62933111
ZH,9,0,2024-06-14T08:26:48.904Z,english_954.wav,0,1,895,20,3,Chinese,f,0,0,-5.86860432,0.02682789
ZH,9,0,2024-06-14T08:26:48.904Z,english_954.wav,0,1,895,20,3,Chinese,f,1,0.1,38.42724969,1.50907573
ZH,9,0,2024-06-14T08:26:48.904Z,english_954.wav,0,1,895,20,3,Chinese,f,2,0.2,83.51680292,1.17187714
ZH,9,0,2024-06-14T08:26:48.904Z,english_954.wav,0,1,895,20,3,Chinese,f,3,0.3,-25.06032499,1.88473576
ZH,9,0,2024-06-14T08:26:48.904Z,english_954.wav,0,1,895,20,3,Chinese,f,4,0.4,-17.48975264,0.3035603
ZH,9,0,2024-06-14T08:26:48.904Z,english_954.wav,0,1,895,20,3,Chinese,f,5,0.5,95.06102198,1.35082964
ZH,9,0,2024-06-14T08:26:48.904Z,english_954.wav,0,1,895,20,3,Chinese,f,6,0.6,0.80140457,0.63281948
ZH,9,0,2024-06-14T08:26:48.904Z,english_954.wav,0,1,895,20,3,Chinese,f,7,0.7,-41.69263262,0.91375779
ZH,9,0,2024-06-14T08:26:48.904Z,english_954.wav,0,1,895,20,3,Chinese,f,8,0.8,18.46045351,0.80486046
ZH,9,0,2024-06-14T08:26:48.904Z,english_954.wav,0,1,895,20,3,Chinese,f,9,0.9,-7.88727361,0.18383046
ZH,9,0,2024-06-14T08:26:48.904Z,english_954.wav,0,1,895,20,3,Chinese,f,10,1,-34.36872213,1.25307449
ZH,9,0,2024-06-14T08:26:48.904Z,english_954.wav,0,1,895,20,3,Chinese,f,11,1.09391667,40.0906943,0.22905501
ZH,10,0,2024-06-14T08:26:48.904Z,english_260.wav,0,1,1416,20,3,Chinese,f,0,0,15.97763116,1.94177241
ZH,10,0,2024-06-14T08:26:48.904Z,english_260.wav,0,1,1416,20,3,Chinese,f,1,0.1,-13.3847134,0.74015027
ZH,10,0,2024-06-14T08:26:48.904Z,english_260.wav,0,1,1416,20,3,Chinese,f,2,0.2,-29.63675022,0.26772348
ZH,10,0,2024-06-14T08:26:48.904Z,english_260.wav,0,1,1416,20,3,Chinese,f,3,0.3,-94.12252117,0.24482628
ZH,10,0,2024-06-14T08:26:48.904Z,english_260.wav,0,1,1416,20,3,Chinese,f,4,0.4,37.44404644,0.73676391
ZH,10,0,2024-06-14T08:26:48.904Z,english_260.wav,0,1,1416,20,3,Chinese,f,5,0.5,-13.47562993,0.3869803
ZH,10,0,2024-06-14T08:26:48.904Z,english_260.wav,0,1,1416,20,3,Chinese,f,6,0.6,28.72077468,0.62582606
ZH,10,0,2024-06-14T08:26:48.904Z,english_260.wav,0,1,1416,20,3,Chinese,f,7,0.7,-25.31213713,0.50244213
ZH,10,0,2024-06-14T08:26:48.904Z,english_260.wav,0,1,1416,20,3,Chinese,f,8,0.8,12.33791488,0.1260874
ZH,10,0,2024-06-14T08:26:48.904Z,english_260.wav,0,1,1416,20,3,Chinese,f,9,0.9,1.56732473,0.8031848
ZH,10,0,2024-06-14T08:26:48.904Z,english_260.wav,0,1,1416,20,3,Chinese,f,10,1,-29.87361041,1.5387452
ZH,10,0,2024-06-14T08:26:48.904Z,english_260.wav,0,1,1416,20,3,Chinese,f,11,1.09391667,9.56042619,0.69389389
ZH,11,0,2024-06-14T08:26:48.904Z,english_492.wav,0,1,621,20,3,Chinese,f,0,0,-29.9472328,1.28534899
ZH,11,0,2024-06-14T08:26:48.904Z,english_492.wav,0,1,621,20,3,Chinese,f,1,0.1,35.33010824,1.03908978
ZH,11,0,2024-06-14T08:26:48.904Z,english_492.wav,0,1,621,20,3,Chinese,f,2,0.2,-3.45968041,1.26033893
ZH,11,0,2024-06-14T08:26:48.904Z,english_492.wav,0,1,621,20,3,Chinese,f,3,0.3,59.06456756,0.39463808
ZH,11,0,2024-06-14T08:26:48.904Z,english_492.wav,0,1,621,20,3,Chinese,f,4,0.4,98.23949624,0.21276087
ZH,11,0,2024-06-14T08:26:48.904Z,english_492.wav,0,1,621,20,3,Chinese,f,5,0.5,-1.48270349,0.25205409
ZH,11,0,2024-06-14T08:26:48.904Z,english_492.wav,0,1,621,20,3,Chinese,f,6,0.6,-1.72219507,0.58596557
ZH,11,0,2024-06-14T08:26:48.904Z,english_492.wav,0,1,621,20,3,Chinese,f,7,0.7,12.69106909,1.49088879
ZH,11,0,2024-06-14T08:26:48.904Z,english_492.wav,0,1,621,20,3,Chinese,f,8,0.8,-21.74180351,1.5225112
ZH,11,0,2024-06-14T08:26:48.904Z,english_492.wav,0,1,621,20,3,Chinese,f,9,0.9,-33.92370757,0.13189423
ZH,11,0,2024-06-14T08:26:48.904Z,english_492.wav,0,1,621,20,3,Chinese,f,10,1,37.93162517,0.89918189
ZH,11,0,2024-06-14T08:26:48.904Z,english_492.wav,0,1,621,20,3,Chinese,f,11,1.09391667,-90.75179354,1.07142866
ZH,12,0,2024-06-14T08:26:48.904Z,english_634.wav,0,1,680,20,3,Chinese,f,0,0,64.72558427,1.10878065
ZH,12,0,2024-06-14T08:26:48.904Z,english_634.wav,0,1,680,20,3,Chinese,f,1,0.1,89.90901107,0.64399172
ZH,12,0,2024-06-14T08:26:48.904Z,english_634.wav,0,1,680,20,3,Chinese,f,2,0.2,81.42978407,1.22080944
ZH,12,0,2024-06-14T08:26:48.904Z,english_634.wav,0,1,680,20,3,Chinese,f,3,0.3,-10.43897534,0.11214204
ZH,12,0,2024-06-14T08:26:48.904Z,english_634.wav,0,1,680,20,3,Chinese,f,4,0.4,43.00975077,0.83352272
ZH,12,0,2024-06-14T08:26:48.904Z,english_634.wav,0,1,680,20,3,Chinese,f,5,0.5,-54.25678595,0.01534265
ZH,12,0,2024-06-14T08:26:48.904Z,english_634.wav,0,1,680,20,3,Chinese,f,6,0.6,62.84702282,0.46262621
ZH,12,0,2024-06-14T08:26:48.904Z,english_634.wav,0,1,680,20,3,Chinese,f,7,0.7,-6.57558609,1.34444527
ZH,12,0,2024-06-14T08:26:48.904Z,english_634.wav,0,1,680,20,3,Chinese,f,8,0.8,14.82558761,1.35254429
ZH,12,0,2024-06-14T08:26:48.904Z,english_634.wav,0,1,680,20,3,Chinese,f,9,0.9,-96.64026407,1.9141104
ZH,12,0,2024-06-14T08:26:48.904Z,english_634.wav,0,1,680,20,3,Chinese,f,10,1,-32.22519468,1.83780596
ZH,12,0,2024-06-14T08:26:48.904Z,english_634.wav,0,1,680,20,3,Chinese,f,11,1.09391667,15.06988784,1.20703097
ZH,13,0,2024-06-14T08:26:48.904Z,english_525.wav,0,0,1366,20,3,Chinese,f,0,0,-85.30144906,1.21891661
ZH,13,0,2024-06-14T08:26:48.904Z,english_525.wav,0,0,1366,20,3,Chinese,f,1,0.1,40.69478692,0.63566771
ZH,13,0,2024-06-14T08:26:48.904Z,english_525.wav,0,0,1366,20,3,Chinese,f,2,0.2,27.58167259,1.09185932
ZH,13,0,2024-06-14T08:26:48.904Z,english_525.wav,0,0,1366,20,3,Chinese,f,3,0.3,-9.65414258,1.3630453
ZH,13,0,2024-06-14T08:26:48.904Z,english_525.wav,0,0,1366,20,3,Chinese,f,4,0.4,-92.26214691,0.47547332
ZH,13,0,2024-06-14T08:26:48.904Z,english_525.wav,0,0,1366,20,3,Chinese,f,5,0.5,1.87368715,0.98334241
ZH,13,0,2024-06-14T08:26:48.904Z,english_525.wav,0,0,1366,20,3,Chinese,f,6,0.6,84.67723439,1.24273573
ZH,13,0,2024-06-14T08:26:48.904Z,english_525.wav,0,0,1366,20,3,Chinese,f,7,0.7,-37.99334031,1.29787156
ZH,13,0,2024-06-14T08:26:48.904Z,english_525.wav,0,0,1366,20,3,Chinese,f,8,0.8,91.90351479,1.39013402
ZH,13,0,2024-06-14T08:26:48.904Z,english_525.wav,0,0,1366,20,3,Chinese,f,9,0.9,51.5107545,0.19016555
ZH,13,0,2024-06-14T08:26:48.904Z,english_525.wav,0,0,1366,20,3,Chinese,f,10,1,-23.16743883,0.57102757
ZH,13,0,2024-06-14T08:26:48.904Z,english_525.wav,0,0,1366,20,3,Chinese,f,11,1.09391667,-40.96893152,0.41777753
ZH,14,0,2024-06-14T08:26:48.904Z,english_952.wav,0,1,1285,20,3,Chinese,f,0,0,54.55896485,0.17002178
ZH,14,0,2024-06-14T08:26:48.904Z,english_952.wav,0,1,1285,20,3,Chinese,f,1,0.1,-84.703617,0.57357602
ZH,14,0,2024-06-14T08:26:48.904Z,english_952.wav,0,1,1285,20,3,Chinese,f,2,0.2,-45.52691842,0.18029925
ZH,14,0,2024-06-14T08:26:48.904Z,english_952.wav,0,1,1285,20,3,Chinese,f,3,0.3,30.90198875,0.59395627
ZH,14,0,2024-06-14T08:26:48.904Z,english_952.wav,0,1,1285,20,3,Chinese,f,4,0.4,69.36903556,1.72997597
ZH,14,0,2024-06-14T08:26:48.904Z,english_952.wav,0,1,1285,20,3,Chinese,f,5,0.5,-77.32429823,1.46184146
ZH,14,0,2024-06-14T08:26:48.904Z,english_952.wav,0,1,1285,20,3,Chinese,f,6,0.6,-36.56393573,1.64193231
ZH,14,0,2024-06-14T08:26:48.904Z,english_952.wav,0,1,1285,20,3,Chinese,f,7,0.7,-54.92203019,0.7720156
ZH,14,0,2024-06-14T08:26:48.904Z,english_952.wav,0,1,1285,20,3,Chinese,f,8,0.8,63.95367778,1.56938558
ZH,14,0,2024-06-14T08:26:48.904Z,english_952.wav,0,1,1285,20,3,Chinese,f,9,0.9,-73.16013867,0.55739545
ZH,14,0,2024-06-14T08:26:48.904Z,english_952.wav,0,1,1285,20,3,Chinese,f,10,1,86.56813229,0.52583185
ZH,14,0,2024-06-14T08:26:48.904Z,english_952.wav,0,1,1285,20,3,Chinese,f,11,1.09391667,-21.53870741,1.37102022
ZH,15,0,2024-06-14T08:26:48.904Z,english_936.wav,0,1,961,20,3,Chinese,f,0,0,36.31221715,1.2887877
ZH,15,0,2024-06-14T08:26:48.904Z,english_936.wav,0,1,961,20,3,Chinese,f,1,0.1,-44.47492587,1.4589685
ZH,15,0,2024-06-14T08:26:48.904Z,english_936.wav,0,1,961,20,3,Chinese,f,2,0.2,-4.14718789,0.18405876
ZH,15,0,2024-06-14T08:26:48.904Z,english_936.wav,0,1,961,20,3,Chinese,f,3,0.3,-65.70158372,0.27129686
ZH,15,0,2024-06-14T08:26:48.904Z,english_936.wav,0,1,961,20,3,Chinese,f,4,0.4,76.09968898,0.60039507
ZH,15,0,2024-06-14T08:26:48.904Z,english_936.wav,0,1,961,20,3,Chinese,f,5,0.5,52.5413509,0.83949142
ZH,15,0,2024-06-14T08:26:48.904Z,english_936.wav,0,1,961,20,3,Chinese,f,6,0.6,5.38506085,0.92420877
ZH,15,0,2024-06-14T08:26:48.904Z,english_936.wav,0,1,961,20,3,Chinese,f,7,0.7,-9.33856544,0.31849757
ZH,15,0,2024-06-14T08:26:48.904Z,english_936.wav,0,1,961,20,3,Chinese,f,8,0.8,-79.6079489,1.55991954
ZH,15,0,2024-06-14T08:26:48.904Z,english_936.wav,0,1,961,20,3,Chinese,f,9,0.9,-51.30915368,1.32485451
ZH,15,0,2024-06-14T08:26:48.904Z,english_936.wav,0,1,961,20,3,Chinese,f,10,1,-23.2662762,1.1603689
ZH,15,0,2024-06-14T08:26:48.904Z,english_936.wav,0,1,961,20,3,Chinese,f,11,1.09391667,10.041916,0.29288231
ZH,16,0,2024-06-14T08:26:48.904Z,english_500.wav,0,1,863,20,3,Chinese,f,0,0,66.22088329,0.53820699
ZH,16,0,2024-06-14T08:26:48.904Z,english_500.wav,0,1,863,20,3,Chinese,f,1,0.1,-5.13412803,0.50417448
ZH,16,0,2024-06-14T08:26:48.904Z,english_500.wav,0,1,863,20,3,Chinese,f,2,0.2,-6.11874153,1.24224985
ZH,16,0,2024-06-14T08:26:48.904Z,english_500.wav,0,1,863,20,3,Chinese,f,3,0.3,-90.40360626,1.39300909
ZH,16,0,2024-06-14T08:26:48.904Z,english_500.wav,0,1,863,20,3,Chinese,f,4,0.4,32.06545372,1.26037646
ZH,16,0,2024-06-14T08:26:48.904Z,english_500.wav,0,1,863,20,3,Chinese,f,5,0.5,-65.0306572,1.07818355
ZH,16,0,2024-06-14T08:26:48.904Z,english_500.wav,0,1,863,20,3,Chinese,f,6,0.6,-6.23225895,1.23543803
ZH,16,0,2024-06-14T08:26:48.904Z,english_500.wav,0,1,863,20,3,Chinese,f,7,0.7,-23.5823243,1.80782898
ZH,16,0,2024-06-14T08:26:48.904Z,english_500.wav,0,1,863,20,3,Chinese,f,8,0.8,77.81337781,0.94957733
ZH,16,0,2024-06-14T08:26:48.904Z,english_500.wav,0,1,863,20,3,Chinese,f,9,0.9,-20.41987669,0.60641079
ZH,16,0,2024-06-14T08:26:48.904Z,english_500.wav,0,1,863,20,3,Chinese,f,10,1,21.49612229,1.83181528
ZH,16,0,2024-06-14T08:26:48.904Z,english_500.wav,0,1,863,20,3,Chinese,f,11,1.09391667,9.32174873,0.67500242
ZH,17,0,2024-06-14T08:26:48.904Z,english_619.wav,0,0,973,20,3,Chinese,f,0,0,-41.0924044,1.71942116
ZH,17,0,2024-06-14T08:26:48.904Z,english_619.wav,0,0,973,20,3,Chinese,f,1,0.1,-7.96280913,1.03534148
ZH,17,0,2024-06-14T08:26:48.904Z,english_619.wav,0,0,973,20,3,Chinese,f,2,0.2,-87.23866402,1.90474628
ZH,17,0,2024-06-14T08:26:48.904Z,english_619.wav,0,0,973,20,3,Chinese,f,3,0.3,-49.33627733,1.25465254
ZH,17,0,2024-06-14T08:26:48.904Z,english_619.wav,0,0,973,20,3,Chinese,f,4,0.4,-9.049641,0.872658
ZH,17,0,2024-06-14T08:26:48.904Z,english_619.wav,0,0,973,20,3,Chinese,f,5,0.5,-44.96771142,0.88442624
ZH,17,0,2024-06-14T08:26:48.904Z,english_619.wav,0,0,973,20,3,Chinese,f,6,0.6,-40.79885207,0.90889779
ZH,17,0,2024-06-14T08:26:48.904Z,english_619.wav,0,0,973,20,3,Chinese,f,7,0.7,40.82825876,0.65121567
ZH,17,0,2024-06-14T08:26:48.904Z,english_619.wav,0,0,973,20,3,Chinese,f,8,0.8,-20.59710474,0.05436153
ZH,17,0,2024-06-14T08:26:48.904Z,english_619.wav,0,0,973,20,3,Chinese,f,9,0.9,39.88878166,1.54961319
ZH,17,0,2024-06-14T08:26:48.904Z,english_619.wav,0,0,973,20,3,Chinese,f,10,1,26.7856421,0.36194851
ZH,17,0,2024-06-14T08:26:48.904Z,english_619.wav,0,0,973,20,3,Chinese,f,11,1.09391667,40.93095409,0.79464548
ZH,18,0,2024-06-14T08:26:48.904Z,english_640.wav,0,1,651,20,3,Chinese,f,0,0,61.20375749,0.85142229
ZH,18,0,2024-06-14T08:26:48.904Z,english_640.wav,0,1,651,20,3,Chinese,f,1,0.1,-16.1857947,0.85767155
ZH,18,0,2024-06-14T08:26:48.904Z,english_640.wav,0,1,651,20,3,Chinese,f,2,0.2,6.11258798,0.88844778
ZH,18,0,2024-06-14T08:26:48.904Z,english_640.wav,0,1,651,20,3,Chinese,f,3,0.3,95.92721012,1.39275841
ZH,18,0,2024-06-14T08:26:48.904Z,english_640.wav,0,1,651,20,3,Chinese,f,4,0.4,93.14129024,1.52098415
ZH,18,0,2024-06-14T08:26:48.904Z,english_640.wav,0,1,651,20,3,Chinese,f,5,0.5,-89.55913941,1.55322116
ZH,18,0,2024-06-14T08:26:48.904Z,english_640.wav,0,1,651,20,3,Chinese,f,6,0.6,57.55264462,0.8538103
ZH,18,0,2024-06-14T08:26:48.904Z,english_640.wav,0,1,651,20,3,Chinese,f,7,0.7,31.50273718,0.01301989
ZH,18,0,2024-06-14T08:26:48.904Z,english_640.wav,0,1,651,20,3,Chinese,f,8,0.8,14.91560265,1.48414579
ZH,18,0,2024-06-14T08:26:48.904Z,english_640.wav,0,1,651,20,3,Chinese,f,9,0.9,73.92386032,0.86811695
ZH,18,0,2024-06-14T08:26:48.904Z,english_640.wav,0,1,651,20,3,Chinese,f,10,1,71.81694375,1.48550262
ZH,18,0,2024-06-14T08:26:48.904Z,english_640.wav,0,1,651,20,3,Chinese,f,11,1.09391667,86.11531977,1.24176268
ZH,19,0,2024-06-14T08:26:48.904Z,english_391.wav,0,1,871,20,3,Chinese,f,0,0,48.72029915,1.46381994
ZH,19,0,2024-06-14T08:26:48.904Z,english_391.wav,0,1,871,20,3,Chinese,f,1,0.1,3.36267099,1.74177862
ZH,19,0,2024-06-14T08:26:48.904Z,english_391.wav,0,1,871,20,3,Chinese,f,2,0.2,-54.73892797,0.37153285
ZH,19,0,2024-06-14T08:26:48.904Z,english_391.wav,0,1,871,20,3,Chinese,f,3,0.3,-4.43599027,1.37930547
ZH,19,0,2024-06-14T08:26:48.904Z,english_391.wav,0,1,871,20,3,Chinese,f,4,0.4,-4.38697431,1.2025528
ZH,19,0,2024-06-14T08:26:48.904Z,english_391.wav,0,1,871,20,3,Chinese,f,5,0.5,12.32416895,1.41669348
ZH,19,0,2024-06-14T08:26:48.904Z,english_391.wav,0,1,871,20,3,Chinese,f,6,0.6,-35.16299901,1.90409923
ZH,19,0,2024-06-14T08:26:48.904Z,english_391.wav,0,1,871,20,3,Chinese,f,7,0.7,-18.71198536,0.35955458
ZH,19,0,2024-06-14T08:26:48.904Z,english_391.wav,0,1,871,20,3,Chinese,f,8,0.8,50.45333825,0.73524
ZH,19,0,2024-06-14T08:26:48.904Z,english_391.wav,0,1,871,20,3,Chinese,f,9,0.9,24.10808682,1.22465208
ZH,19,0,2024-06-14T08:26:48.904Z,english_391.wav,0,1,871,20,3,Chinese,f,10,1,-10.46564493,1.61244098
ZH,19,0,2024-06-14T08:26:48.904Z,english_391.wav,0,1,871,20,3,Chinese,f,11,1.09391667,6.45782967,1.66867903
ZH,20,0,2024-06-14T08:26:48.904Z,english_280.wav,0,1,913,20,3,Chinese,f,0,0,88.39262763,0.21682945
ZH,20,0,2024-06-14T08:26:48.904Z,english_280.wav,0,1,913,20,3,Chinese,f,1,0.1,-30.0419816,1.88667459
ZH,20,0,2024-06-14T08:26:48.904Z,english_280.wav,0,1,913,20,3,Chinese,f,2,0.2,-70.85942958,0.16117743
ZH,20,0,2024-06-14T08:26:48.904Z,english_280.wav,0,1,913,20,3,Chinese,f,3,0.3,-46.07032191,0.35719266
ZH,20,0,2024-06-14T08:26:48.904Z,english_280.wav,0,1,913,20,3,Chinese,f,4,0.4,22.37889655,1.6700127
ZH,20,0,2024-06-14T08:26:48.904Z,english_280.wav,0,1,913,20,3,Chinese,f,5,0.5,47.83072725,1.73336776
ZH,20,0,2024-06-14T08:26:48.904Z,english_280.wav,0,1,913,20,3,Chinese,f,6,0.6,22.02613007,0.653825
ZH,20,0,2024-06-14T08:26:48.904Z,english_280.wav,0,1,913,20,3,Chinese,f,7,0.7,-10.57655449,1.99113264
ZH,20,0,2024-06-14T08:26:48.904Z,english_280.wav,0,1,913,20,3,Chinese,f,8,0.8,78.01759084,1.83439976
ZH,20,0,2024-06-14T08:26:48.904Z,english_280.wav,0,1,913,20,3,Chinese,f,9,0.9,38.41828257,1.29158868
ZH,20,0,2024-06-14T08:26:48.904Z,english_280.wav,0,1,913,20,3,Chinese,f,10,1,88.43566384,1.21494043
ZH,20,0,2024-06-14T08:26:48.904Z,english_280.wav,0,1,913,20,3,Chinese,f,11,1.09391667,-41.21843243,1.43203323
ZH,21,0,2024-06-14T08:26:48.904Z,english_743.wav,0,1,1122,20,3,Chinese,f,0,0,97.77122609,0.40936323
ZH,21,0,2024-06-14T08:26:48.904Z,english_743.wav,0,1,1122,20,3,Chinese,f,1,0.1,75.39760322,0.83333714
ZH,21,0,2024-06-14T08:26:48.904Z,english_743.wav,0,1,1122,20,3,Chinese,f,2,0.2,-92.56300928,1.9299588
ZH,21,0,2024-06-14T08:26:48.904Z,english_743.wav,0,1,1122,20,3,Chinese,f,3,0.3,73.60734954,0.31044819
ZH,21,0,2024-06-14T08:26:48.904Z,english_743.wav,0,1,1122,20,3,Chinese,f,4,0.4,84.82420222,1.11112706
ZH,21,0,2024-06-14T08:26:48.904Z,english_743.wav,0,1,1122,20,3,Chinese,f,5,0.5,-57.35733587,0.30641345
ZH,21,0,2024-06-14T08:26:48.904Z,english_743.wav,0,1,1122,20,3,Chinese,f,6,0.6,36.05799571,1.79191215
ZH,21,0,2024-06-14T08:26:48.904Z,english_743.wav,0,1,1122,20,3,Chinese,f,7,0.7,-80.10781894,1.43353199
ZH,21,0,2024-06-14T08:26:48.904Z,english_743.wav,0,1,1122,20,3,Chinese,f,8,0.8,79.81818761,0.61341243
ZH,21,0,2024-06-14T08:26:48.904Z,english_743.wav,0,1,1122,20,3,Chinese,f,9,0.9,71.53815245,1.6920607
ZH,21,0,2024-06-14T08:26:48.904Z,english_743.wav,0,1,1122,20,3,Chinese,f,10,1,39.3075371,0.85862509
ZH,21,0,2024-06-14T08:26:48.904Z,english_743.wav,0,1,1122,20,3,Chinese,f,11,1.09391667,85.61049635,0.78833379
ZH,22,0,2024-06-14T08:26:48.904Z,english_539.wav,0,0,1056,20,3,Chinese,f,0,0,-94.17846062,0.79705309
ZH,22,0,2024-06-14T08:26:48.904Z,english_539.wav,0,0,1056,20,3,Chinese,f,1,0.1,-5.02019603,0.75034459
ZH,22,0,2024-06-14T08:26:48.904Z,english_539.wav,0,0,1056,20,3,Chinese,f,2,0.2,-69.32919076,1.92009714
ZH,22,0,2024-06-14T08:26:48.904Z,english_539.wav,0,0,1056,20,3,Chinese,f,3,0.3,80.71922828,1.69419261
ZH,22,0,2024-06-14T08:26:48.904Z,english_539.wav,0,0,1056,20,3,Chinese,f,4,0.4,-44.41930109,1.08134057
ZH,22,0,2024-06-14T08:26:48.904Z,english_539.wav,0,0,1056,20,3,Chinese,f,5,0.5,60.55312323,0.26247587
ZH,22,0,2024-06-14T08:26:48.904Z,english_539.wav,0,0,1056,20,3,Chinese,f,6,0.6,-22.38704472,1.40392738
ZH,22,0,2024-06-14T08:26:48.904Z,english_539.wav,0,0,1056,20,3,Chinese,f,7,0.7,42.18310052,0.38201887
ZH,22,0,2024-06-14T08:26:48.904Z,english_539.wav,0,0,1056,20,3,Chinese,f,8,0.8,-3.23406116,1.79513964
ZH,22,0,2024-06-14T08:26:48.904Z,english_539.wav,0,0,1056,20,3,Chinese,f,9,0.9,86.87834775,0.10058598
ZH,22,0,2024-06-14T08:26:48.904Z,english_539.wav,0,0,1056,20,3,Chinese,f,10,1,-2.56962664,1.19776684
ZH,22,0,2024-06-14T08:26:48.904Z,english_539.wav,0,0,1056,20,3,Chinese,f,11,1.09391667,13.84279534,1.72675702
ZH,23,0,2024-06-14T08:26:48.904Z,english_709.wav,0,0,435,20,3,Chinese,f,0,0,54.89445194,0.75029311
ZH,23,0,2024-06-14T08:26:48.904Z,english_709.wav,0,0,435,20,3,Chinese,f,1,0.1,-13.90675493,1.75887389
ZH,23,0,2024-06-14T08:26:48.904Z,english_709.wav,0,0,435,20,3,Chinese,f,2,0.2,17.54151592,1.84695168
ZH,23,0,2024-06-14T08:26:48.904Z,english_709.wav,0,0,435,20,3,Chinese,f,3,0.3,-21.79257769,0.96071145
ZH,23,0,2024-06-14T08:26:48.904Z,english_709.wav,0,0,435,20,3,Chinese,f,4,0.4,55.10787635,1.22566663
ZH,23,0,2024-06-14T08:26:48.904Z,english_709.wav,0,0,435,20,3,Chinese,f,5,0.5,-57.13962404,1.94059393
ZH,23,0,2024-06-14T08:26:48.904Z,english_709.wav,0,0,435,20,3,Chinese,f,6,0.6,-5.37289715,0.52219194
ZH,23,0,2024-06-14T08:26:48.904Z,english_709.wav,0,0,435,20,3,Chinese,f,7,0.7,27.40236622,0.9142424
ZH,23,0,2024-06-14T08:26:48.904Z,english_709.wav,0,0,435,20,3,Chinese,f,8,0.8,12.19670027,1.75067757
ZH,23,0,2024-06-14T08:26:48.904Z,english_709.wav,0,0,435,20,3,Chinese,f,9,0.9,91.20271112,0.7385059
ZH,23,0,2024-06-14T08:26:48.904Z,english_709.wav,0,0,435,20,3,Chinese,f,10,1,89.17036871,1.92412986
ZH,23,0,2024-06-14T08:26:48.904Z,english_709.wav,0,0,435,20,3,Chinese,f,11,1.09391667,50.36439179,0.79240238
ZH,24,0,2024-06-14T08:26:48.904Z,english_695.wav,0,0,432,20,3,Chinese,f,0,0,-0.40611107,1.26493678
ZH,24,0,2024-06-14T08:26:48.904Z,english_695.wav,0,0,432,20,3,Chinese,f,1,0.1,-51.44580043,0.30645506
ZH,24,0,2024-06-14T08:26:48.904Z,english_695.wav,0,0,432,20,3,Chinese,f,2,0.2,99.94982399,0.22891404
ZH,24,0,2024-06-14T08:26:48.904Z,english_695.wav,0,0,432,20,3,Chinese,f,3,0.3,-89.26755039,0.36431767
ZH,24,0,2024-06-14T08:26:48.904Z,english_695.wav,0,0,432,20,3,Chinese,f,4,0.4,-5.79922916,1.58087712
ZH,24,0,2024-06-14T08:26:48.904Z,english_695.wav,0,0,432,20,3,Chinese,f,5,0.5,32.87645526,1.0219227
ZH,24,0,2024-06-14T08:26:48.904Z,english_695.wav,0,0,432,20,3,Chinese,f,6,0.6,45.01226994,0.87256138
ZH,24,0,2024-06-14T08:26:48.904Z,english_695.wav,0,0,432,20,3,Chinese,f,7,0.7,-12.9046985,0.08723999
ZH,24,0,2024-06-14T08:26:48.904Z,english_695.wav,0,0,432,20,3,Chinese,f,8,0.8,-4.01812723,0.25614853
ZH,24,0,2024-06-14T08:26:48.904Z,english_695.wav,0,0,432,20,3,Chinese,f,9,0.9,-88.04470656,0.82634086
ZH,24,0,2024-06-14T08:26:48.904Z,english_695.wav,0,0,432,20,3,Chinese,f,10,1,-55.25497398,1.44930742
ZH,24,0,2024-06-14T08:26:48.904Z,english_695.wav,0,0,432,20,3,Chinese,f,11,1.09391667,-57.74686665,1.25560424
ZH,25,0,2024-06-14T08:26:48.904Z,english_614.wav,0,0,842,20,3,Chinese,f,0,0,-82.48035623,0.71590115
ZH,25,0,2024-06-14T08:26:48.904Z,english_614.wav,0,0,842,20,3,Chinese,f,1,0.1,79.46307131,0.88553055
ZH,25,0,2024-06-14T08:26:48.904Z,english_614.wav,0,0,842,20,3,Chinese,f,2,0.2,-34.63501936,0.6127243
ZH,25,0,2024-06-14T08:26:48.904Z,english_614.wav,0,0,842,20,3,Chinese,f,3,0.3,-36.11573217,1.30048752
ZH,25,0,2024-06-14T08:26:48.904Z,english_614.wav,0,0,842,20,3,Chinese,f,4,0.4,28.60715933,0.96267967
ZH,25,0,2024-06-14T08:26:48.904Z,english_614.wav,0,0,842,20,3,Chinese,f,5,0.5,-48.6136036,0.63406811
ZH,25,0,2024-06-14T08:26:48.904Z,english_614.wav,0,0,842,20,3,Chinese,f,6,0.6,-7.2226969,1.30483529
ZH,25,0,2024-06-14T08:26:48.904Z,english_614.wav,0,0,842,20,3,Chinese,f,7,0.7,-29.94263831,0.38784821
ZH,25,0,2024-06-14T08:26:48.904Z,english_614.wav,0,0,842,20,3,Chinese,f,8,0.8,-84.37614436,0.63559187
ZH,25,0,2024-06-14T08:26:48.904Z,english_614.wav,0,0,842,20,3,Chinese,f,9,0.9,6.08502503,0.26922563
ZH,25,0,2024-06-14T08:26:48.904Z,english_614.wav,0,0,842,20,3,Chinese,f,10,1,89.45930015,0.19525475
ZH,25,0,2024-06-14T08:26:48.904Z,english_614.wav,0,0,842,20,3,Chinese,f,11,1.09391667,-99.05808014,1.74947328
ZH,26,0,2024-06-14T08:26:48.904Z,english_12.wav,0,1,936,20,3,Chinese,f,0,0,42.97445599,0.55669558
ZH,26,0,2024-06-14T08:26:48.904Z,english_12.wav,0,1,936,20,3,Chinese,f,1,0.1,-13.36169143,0.58156084
ZH,26,0,2024-06-14T08:26:48.904Z,english_12.wav,0,1,936,20,3,Chinese,f,2,0.2,95.55347712,1.49895361
ZH,26,0,2024-06-14T08:26:48.904Z,english_12.wav,0,1,936,20,3,Chinese,f,3,0.3,25.38194066,1.21133401
ZH,26,0,2024-06-14T08:26:48.904Z,english_12.wav,0,1,936,20,3,Chinese,f,4,0.4,7.99263567,1.29255802
ZH,26,0,2024-06-14T08:26:48.904Z,english_12.wav,0,1,936,20,3,Chinese,f,5,0.5,-99.22256454,0.60717751
ZH,26,0,2024-06-14T08:26:48.904Z,english_12.wav,0,1,936,20,3,Chinese,f,6,0.6,-40.78265899,1.53494704
ZH,26,0,2024-06-14T08:26:48.904Z,english_12.wav,0,1,936,20,3,Chinese,f,7,0.7,6.53756305,0.96428077
ZH,26,0,2024-06-14T08:26:48.904Z,english_12.wav,0,1,936,20,3,Chinese,f,8,0.8,-20.69460066,0.42904798
ZH,26,0,2024-06-14T08:26:48.904Z,english_12.wav,0,1,936,20,3,Chinese,f,9,0.9,-61.55291704,1.90575432
ZH,26,0,2024-06-14T08:26:48.904Z,english_12.wav,0,1,936,20,3,Chinese,f,10,1,-41.80363085,0.98826975
ZH,26,0,2024-06-14T08:26:48.904Z,english_12.wav,0,1,936,20,3,Chinese,f,11,1.09391667,-15.66743162,0.15634055
ZH,27,0,2024-06-14T08:26:48.904Z,english_741.wav,0,1,811,20,3,Chinese,f,0,0,-52.58118809,0.04069066
ZH,27,0,2024-06-14T08:26:48.904Z,english_741.wav,0,1,811,20,3,Chinese,f,1,0.1,12.25497131,1.79280913
ZH,27,0,2024-06-14T08:26:48.904Z,english_741.wav,0,1,811,20,3,Chinese,f,2,0.2,-66.99465096,1.62861486
ZH,27,0,2024-06-14T08:26:48.904Z,english_741.wav,0,1,811,20,3,Chinese,f,3,0.3,33.21075969,1.99142518
ZH,27,0,2024-06-14T08:26:48.904Z,english_741.wav,0,1,811,20,3,Chinese,f,4,0.4,-80.7229313,0.68846699
ZH,27,0,2024-06-14T08:26:48.904Z,english_741.wav,0,1,811,20,3,Chinese,f,5,0.5,33.52953563,0.95565852
ZH,27,0,2024-06-14T08:26:48.904Z,english_741.wav,0,1,811,20,3,Chinese,f,6,0.6,-70.06014591,1.55389223
ZH,27,0,2024-06-14T08:26:48.904Z,english_741.wav,0,1,811,20,3,Chinese,f,7,0.7,74.24671254,0.39415735
ZH,27,0,2024-06-14T08:26:48.904Z,english_741.wav,0,1,811,20,3,Chinese,f,8,0.8,-72.74719072,1.19562483
ZH,27,0,2024-06-14T08:26:48.904Z,english_741.wav,0,1,811,20,3,Chinese,f,9,0.9,-6.6044487,1.16664034
ZH,27,0,2024-06-14T08:26:48.904Z,english_741.wav,0,1,811,20,3,Chinese,f,10,1,14.62137165,0.62122377
ZH,27,0,2024-06-14T08:26:48.904Z,english_741.wav,0,1,811,20,3,Chinese,f,11,1.09391667,-3.50523329,0.83751938
ZH,28,0,2024-06-14T08:26:48.904Z,english_967.wav,0,0,703,20,3,Chinese,f,0,0,-95.01579597,1.84793029
ZH,28,0,2024-06-14T08:26:48.904Z,english_967.wav,0,0,703,20,3,Chinese,f,1,0.1,-83.85694312,0.58680999
ZH,28,0,2024-06-14T08:26:48.904Z,english_967.wav,0,0,703,20,3,Chinese,f,2,0.2,-85.29120752,1.7718572
ZH,28,0,2024-06-14T08:26:48.904Z,english_967.wav,0,0,703,20,3,Chinese,f,3,0.3,39.64714204,1.16952376
ZH,28,0,2024-06-14T08:26:48.904Z,english_967.wav,0,0,703,20,3,Chinese,f,4,0.4,57.5109199,0.26483397
ZH,28,0,2024-06-14T08:26:48.904Z,english_967.wav,0,0,703,20,3,Chinese,f,5,0.5,17.84726357,0.70174807
ZH,28,0,2024-06-14T08:26:48.904Z,english_967.wav,0,0,703,20,3,Chinese,f,6,0.6,72.49898727,1.00653378
ZH,28,0,2024-06-14T08:26:48.904Z,english_967.wav,0,0,703,20,3,Chinese,f,7,0.7,-49.28489837,0.37312662
ZH,28,0,2024-06-14T08:26:48.904Z,english_967.wav,0,0,703,20,3,Chinese,f,8,0.8,27.76319329,0.21661179
ZH,28,0,2024-06-14T08:26:48.904Z,english_967.wav,0,0,703,20,3,Chinese,f,9,0.9,40.88732144,1.37557681
ZH,28,0,2024-06-14T08:26:48.904Z,english_967.wav,0,0,703,20,3,Chinese,f,10,1,25.08094833,0.83851773
ZH,28,0,2024-06-14T08:26:48.904Z,english_967.wav,0,0,703,20,3,Chinese,f,11,1.09391667,-11.2848797,1.10196179
ZH,29,0,2024-06-14T08:26:48.904Z,english_604.wav,0,1,1125,20,3,Chinese,f,0,0,-7.32786977,0.45756233
ZH,29,0,2024-06-14T08:26:48.904Z,english_604.wav,0,1,1125,20,3,Chinese,f,1,0.1,-57.46968162,0.00297482
ZH,29,0,2024-06-14T08:26:48.904Z,english_604.wav,0,1,1125,20,3,Chinese,f,2,0.2,-51.48206507,1.19670532
ZH,29,0,2024-06-14T08:26:48.904Z,english_604.wav,0,1,1125,20,3,Chinese,f,3,0.3,77.63466913,0.65081773
ZH,29,0,2024-06-14T08:26:48.904Z,english_604.wav,0,1,1125,20,3,Chinese,f,4,0.4,45.22839705,0.22469511
ZH,29,0,2024-06-14T08:26:48.904Z,english_604.wav,0,1,1125,20,3,Chinese,f,5,0.5,-27.78980975,0.33338284
ZH,29,0,2024-06-14T08:26:48.904Z,english_604.wav,0,1,1125,20,3,Chinese,f,6,0.6,-14.67402927,1.91381058
ZH,29,0,2024-06-14T08:26:48.904Z,english_604.wav,0,1,1125,20,3,Chinese,f,7,0.7,66.92200223,0.36993011
ZH,29,0,2024-06-14T08:26:48.904Z,english_604.wav,0,1,1125,20,3,Chinese,f,8,0.8,44.7359597,1.21459689
ZH,29,0,2024-06-14T08:26:48.904Z,english_604.wav,0,1,1125,20,3,Chinese,f,9,0.9,87.34456413,1.1126352
ZH,29,0,2024-06-14T08:26:48.904Z,english_604.wav,0,1,1125,20,3,Chinese,f,10,1,37.61860755,1.39772335
ZH,29,0,2024-06-14T08:26:48.904Z,english_604.wav,0,1,1125,20,3,Chinese,f,11,1.09391667,91.85438616,1.16252792
ZH,30,0,2024-06-14T08:26:48.904Z,english_701.wav,0,1,580,20,3,Chinese,f,0,0,-93.84804117,0.47905205
ZH,30,0,2024-06-14T08:26:48.904Z,english_701.wav,0,1,580,20,3,Chinese,f,1,0.1,-77.23912918,0.43335114
ZH,30,0,2024-06-14T08:26:48.904Z,english_701.wav,0,1,580,20,3,Chinese,f,2,0.2,-45.57356693,0.98258142
ZH,30,0,2024-06-14T08:26:48.904Z,english_701.wav,0,1,580,20,3,Chinese,f,3,0.3,-80.33366172,1.56424934
ZH,30,0,2024-06-14T08:26:48.904Z,english_701.wav,0,1,580,20,3,Chinese,f,4,0.4,95.38038132,1.99053476
ZH,30,0,2024-06-14T08:26:48.904Z,english_701.wav,0,1,580,20,3,Chinese,f,5,0.5,43.37257018,1.06230172
ZH,30,0,2024-06-14T08:26:48.904Z,english_701.wav,0,1,580,20,3,Chinese,f,6,0.6,20.80863296,1.81617496
ZH,30,0,2024-06-14T08:26:48.904Z,english_701.wav,0,1,580,20,3,Chinese,f,7,0.7,-74.49587502,0.70378114
ZH,30,0,2024-06-14T08:26:48.904Z,english_701.wav,0,1,580,20,3,Chinese,f,8,0.8,53.82285156,1.40362465
ZH,30,0,2024-06-14T08:26:48.904Z,english_701.wav,0,1,580,20,3,Chinese,f,9,0.9,86.20229822,0.70617413
ZH,30,0,2024-06-14T08:26:48.904Z,english_701.wav,0,1,580,20,3,Chinese,f,10,1,-84.46214873,0.74798843
ZH,30,0,2024-06-14T08:26:48.904Z,english_701.wav,0,1,580,20,3,Chinese,f,11,1.09391667,1.75691035,0.6850293
ZH,31,0,2024-06-14T08:26:48.904Z,english_66.wav,0,0,461,20,3,Chinese,f,0,0,73.54239792,1.39962355
ZH,31,0,2024-06-14T08:26:48.904Z,english_66.wav,0,0,461,20,3,Chinese,f,1,0.1,-24.02007983,0.40719393
ZH,31,0,2024-06-14T08:26:48.904Z,english_66.wav,0,0,461,20,3,Chinese,f,2,0.2,49.15082977,0.56009301
ZH,31,0,2024-06-14T08:26:48.904Z,english_66.wav,0,0,461,20,3,Chinese,f,3,0.3,59.25187184,0.88526938
ZH,31,0,2024-06-14T08:26:48.904Z,english_66.wav,0,0,461,20,3,Chinese,f,4,0.4,-38.45178026,0.20167751
ZH,31,0,2024-06-14T08:26:48.904Z,english_66.wav,0,0,461,20,3,Chinese,f,5,0.5,4.75457438,0.49978963
ZH,31,0,2024-06-14T08:26:48.904Z,english_66.wav,0,0,461,20,3,Chinese,f,6,0.6,46.25569394,1.58181975
ZH,31,0,2024-06-14T08:26:48.904Z,english_66.wav,0,0,461,20,3,Chinese,f,7,0.7,-60.4256139,0.73201225
ZH,31,0,2024-06-14T08:26:48.904Z,english_66.wav,0,0,461,20,3,Chinese,f,8,0.8,67.09047121,0.26938408
ZH,31,0,2024-06-14T08:26:48.904Z,english_66.wav,0,0,461,20,3,Chinese,f,9,0.9,88.85676661,1.15195977
ZH,31,0,2024-06-14T08:26:48.904Z,english_66.wav,0,0,461,20,3,Chinese,f,10,1,69.83029982,1.10937983
ZH,31,0,2024-06-14T08:26:48.904Z,english_66.wav,0,0,461,20,3,Chinese,f,11,1.09391667,35.36852194,1.70850229
ZH,32,0,2024-06-14T08:26:48.904Z,english_232.wav,0,0,884,20,3,Chinese,f,0,0,-26.51940276,0.21059611
ZH,32,0,2024-06-14T08:26:48.904Z,english_232.wav,0,0,884,20,3,Chinese,f,1,0.1,80.97161113,0.68519171
ZH,32,0,2024-06-14T08:26:48.904Z,english_232.wav,0,0,884,20,3,Chinese,f,2,0.2,-59.14883297,1.41170079
ZH,32,0,2024-06-14T08:26:48.904Z,english_232.wav,0,0,884,20,3,Chinese,f,3,0.3,25.03200804,1.73443495
ZH,32,0,2024-06-14T08:26:48.904Z,english_232.wav,0,0,884,20,3,Chinese,f,4,0.4,20.05380764,0.29201417
ZH,32,0,2024-06-14T08:26:48.904Z,english_232.wav,0,0,884,20,3,Chinese,f,5,0.5,56.28196281,0.54790335
ZH,32,0,2024-06-14T08:26:48.904Z,english_232.wav,0,0,884,20,3,Chinese,f,6,0.6,50.47197961,1.77444553
ZH,32,0,2024-06-14T08:26:48.904Z,english_232.wav,0,0,884,20,3,Chinese,f,7,0.7,52.11037309,1.99008741
ZH,32,0,2024-06-14T08:26:48.904Z,english_232.wav,0,0,884,20,3,Chinese,f,8,0.8,88.23327143,0.74569824
ZH,32,0,2024-06-14T08:26:48.904Z,english_232.wav,0,0,884,20,3,Chinese,f,9,0.9,37.32869559,0.18993344
ZH,32,0,2024-06-14T08:26:48.904Z,english_232.wav,0,0,884,20,3,Chinese,f,10,1,-23.53745861,0.72085595
ZH,32,0,2024-06-14T08:26:48.904Z,english_232.wav,0,0,884,20,3,Chinese,f,11,1.09391667,93.83220457,1.92388819
ZH,33,0,2024-06-14T08:26:48.904Z,english_745.wav,0,0,860,20,3,Chinese,f,0,0,-47.9537983,1.262874
ZH,33,0,2024-06-14T08:26:48.904Z,english_745.wav,0,0,860,20,3,Chinese,f,1,0.1,10.59664377,0.45595153
ZH,33,0,2024-06-14T08:26:48.904Z,english_745.wav,0,0,860,20,3,Chinese,f,2,0.2,3.22121318,1.90154411
ZH,33,0,2024-06-14T08:26:48.904Z,english_745.wav,0,0,860,20,3,Chinese,f,3,0.3,66.38489409,1.18935698
ZH,33,0,2024-06-14T08:26:48.904Z,english_745.wav,0,0,860,20,3,Chinese,f,4,0.4,-85.62638025,0.53454894
ZH,33,0,2024-06-14T08:26:48.904Z,english_745.wav,0,0,860,20,3,Chinese,f,5,0.5,53.0870989,0.07115633
ZH,33,0,2024-06-14T08:26:48.904Z,english_745.wav,0,0,860,20,3,Chinese,f,6,0.6,37.88737288,0.91558947
ZH,33,0,2024-06-14T08:26:48.904Z,english_745.wav,0,0,860,20,3,Chinese,f,7,0.7,-50.87104403,0.71993263
ZH,33,0,2024-06-14T08:26:48.904Z,english_745.wav,0,0,860,20,3,Chinese,f,8,0.8,-30.17524051,0.93591694
ZH,33,0,2024-06-14T08:26:48.904Z,english_745.wav,0,0,860,20,3,Chinese,f,9,0.9,42.29036925,0.99723137
ZH,33,0,2024-06-14T08:26:48.904Z,english_745.wav,0,0,860,20,3,Chinese,f,10,1,6.95263715,0.85978939
ZH,33,0,2024-06-14T08:26:48.904Z,english_745.wav,0,0,860,20,3,Chinese,f,11,1.09391667,-3.81320325,0.69941736
ZH,34,0,2024-06-14T08:26:48.904Z,english_664.wav,0,1,704,20,3,Chinese,f,0,0,87.83799753,0.80622544
ZH,34,0,2024-06-14T08:26:48.904Z,english_664.wav,0,1,704,20,3,Chinese,f,1,0.1,93.07880912,0.71131531
ZH,34,0,2024-06-14T08:26:48.904Z,english_664.wav,0,1,704,20,3,Chinese,f,2,0.2,-21.43792859,0.52490717
ZH,34,0,2024-06-14T08:26:48.904Z,english_664.wav,0,1,704,20,3,Chinese,f,3,0.3,54.61607152,0.79105774
ZH,34,0,2024-06-14T08:26:48.904Z,english_664.wav,0,1,704,20,3,Chinese,f,4,0.4,63.53186125,0.74894626
ZH,34,0,2024-06-14T08:26:48.904Z,english_664.wav,0,1,704,20,3,Chinese,f,5,0.5,69.57332079,0.96341942
ZH,34,0,2024-06-14T08:26:48.904Z,english_664.wav,0,1,704,20,3,Chinese,f,6,0.6,-98.283012,0.12490453
ZH,34,0,2024-06-14T08:26:48.904Z,english_664.wav,0,1,704,20,3,Chinese,f,7,0.7,3.96514961,1.772086
ZH,34,0,2024-06-14T08:26:48.904Z,english_664.wav,0,1,704,20,3,Chinese,f,8,0.8,-68.49765079,1.2138043
ZH,34,0,2024-06-14T08:26:48.904Z,english_664.wav,0,1,704,20,3,Chinese,f,9,0.9,22.71561052,1.03968333
ZH,34,0,2024-06-14T08:26:48.904Z,english_664.wav,0,1,704,20,3,Chinese,f,10,1,62.92065682,1.01702127
ZH,34,0,2024-06-14T08:26:48.904Z,english_664.wav,0,1,704,20,3,Chinese,f,11,1.09391667,7.64063367,1.88905221
ZH,35,0,2024-06-14T08:26:48.904Z,english_425.wav,0,1,1088,20,3,Chinese,f,0,0,85.86099955,1.60253472
ZH,35,0,2024-06-14T08:26:48.904Z,english_425.wav,0,1,1088,20,3,Chinese,f,1,0.1,-74.24278906,1.17756514
ZH,35,0,2024-06-14T08:26:48.904Z,english_425.wav,0,1,1088,20,3,Chinese,f,2,0.2,66.63239561,1.35741875
ZH,35,0,2024-06-14T08:26:48.904Z,english_425.wav,0,1,1088,20,3,Chinese,f,3,0.3,48.1989772,1.41012003
ZH,35,0,2024-06-14T08:26:48.904Z,english_425.wav,0,1,1088,20,3,Chinese,f,4,0.4,-24.59174715,0.10488559
ZH,35,0,2024-06-14T08:26:48.904Z,english_425.wav,0,1,1088,20,3,Chinese,f,5,0.5,-13.08814226,1.84558303
ZH,35,0,2024-06-14T08:26:48.904Z,english_425.wav,0,1,1088,20,3,Chinese,f,6,0.6,3.3813436,1.65169658
ZH,35,0,2024-06-14T08:26:48.904Z,english_425.wav,0,1,1088,20,3,Chinese,f,7,0.7,-77.57885428,0.99070069
ZH,35,0,2024-06-14T08:26:48.904Z,english_425.wav,0,1,1088,20,3,Chinese,f,8,0.8,64.2992526,1.03905924
ZH,35,0,2024-06-14T08:26:48.904Z,english_425.wav,0,1,1088,20,3,Chinese,f,9,0.9,-69.82436983,1.4199326
ZH,35,0,2024-06-14T08:26:48.904Z,english_425.wav,0,1,1088,20,3,Chinese,f,10,1,-17.74567454,1.83949921
ZH,35,0,2024-06-14T08:26:48.904Z,english_425.wav,0,1,1088,20,3,Chinese,f,11,1.09391667,34.86644748,1.32096962
ZH,36,0,2024-06-14T08:26:48.904Z,english_381.wav,0,0,663,20,3,Chinese,f,0,0,32.46103548,1.94101049
ZH,36,0,2024-06-14T08:26:48.904Z,english_381.wav,0,0,663,20,3,Chinese,f,1,0.1,-84.4488561,1.51363242
ZH,36,0,2024-06-14T08:26:48.904Z,english_381.wav,0,0,663,20,3,Chinese,f,2,0.2,-42.33494044,0.19481462
ZH,36,0,2024-06-14T08:26:48.904Z,english_381.wav,0,0,663,20,3,Chinese,f,3,0.3,26.92548459,1.5781166
ZH,36,0,2024-06-14T08:26:48.904Z,english_381.wav,0,0,663,20,3,Chinese,f,4,0.4,89.55231206,0.89814833
ZH,36,0,2024-06-14T08:26:48.904Z,english_381.wav,0,0,663,20,3,Chinese,f,5,0.5,44.65598435,1.1373774
ZH,36,0,2024-06-14T08:26:48.904Z,english_381.wav,0,0,663,20,3,Chinese,f,6,0.6,-71.41154839,0.86888784
ZH,36,0,2024-06-14T08:26:48.904Z,english_381.wav,0,0,663,20,3,Chinese,f,7,0.7,-16.0355166,0.73017184
ZH,36,0,2024-06-14T08:26:48.904Z,english_381.wav,0,0,663,20,3,Chinese,f,8,0.8,-87.56719183,1.43125884
ZH,36,0,2024-06-14T08:26:48.904Z,english_381.wav,0,0,663,20,3,Chinese,f,9,0.9,-36.64318661,0.63988164
ZH,36,0,2024-06-14T08:26:48.904Z,english_381.wav,0,0,663,20,3,Chinese,f,10,1,2.98595367,0.12358053
ZH,36,0,2024-06-14T08:26:48.904Z,english_381.wav,0,0,663,20,3,Chinese,f,11,1.09391667,-73.96797181,1.01352385
ZH,37,0,2024-06-14T08:26:48.904Z,english_88.wav,0,0,778,20,3,Chinese,f,0,0,-71.9844785,0.53660294
ZH,37,0,2024-06-14T08:26:48.904Z,english_88.wav,0,0,778,20,3,Chinese,f,1,0.1,-49.01939905,1.47642874
ZH,37,0,2024-06-14T08:26:48.904Z,english_88.wav,0,0,778,20,3,Chinese,f,2,0.2,50.12381506,0.52511459
ZH,37,0,2024-06-14T08:26:48.904Z,english_88.wav,0,0,778,20,3,Chinese,f,3,0.3,-84.58055822,1.50109779
ZH,37,0,2024-06-14T08:26:48.904Z,english_88.wav,0,0,778,20,3,Chinese,f,4,0.4,-75.77840035,0.97976024
ZH,37,0,2024-06-14T08:26:48.904Z,english_88.wav,0,0,778,20,3,Chinese,f,5,0.5,-24.7911267,0.85239994
ZH,37,0,2024-06-14T08:26:48.904Z,english_88.wav,0,0,778,20,3,Chinese,f,6,0.6,-23.67428976,1.05191942
ZH,37,0,2024-06-14T08:26:48.904Z,english_88.wav,0,0,778,20,3,Chinese,f,7,0.7,-54.46174988,0.4066024
ZH,37,0,2024-06-14T08:26:48.904Z,english_88.wav,0,0,778,20,3,Chinese,f,8,0.8,17.41292988,0.004424
ZH,37,0,2024-06-14T08:26:48.904Z,english_88.wav,0,0,778,20,3,Chinese,f,9,0.9,-76.44908604,1.90836134
ZH,37,0,2024-06-14T08:26:48.904Z,english_88.wav,0,0,778,20,3,Chinese,f,10,1,-2.36913576,1.74184755
ZH,37,0,2024-06-14T08:26:48.904Z,english_88.wav,0,0,778,20,3,Chinese,f,11,1.09391667,-39.62259758,0.66301055
ZH,38,0,2024-06-14T08:26:48.904Z,english_197.wav,0,1,895,20,3,Chinese,f,0,0,-0.52164664,0.76048058
ZH,38,0,2024-06-14T08:26:48.904Z,english_197.wav,0,1,895,20,3,Chinese,f,1,0.1,-87.40194418,1.46601293
ZH,38,0,2024-06-14T08:26:48.904Z,english_197.wav,0,1,895,20,3,Chinese,f,2,0.2,-52.79027246,1.17311431
ZH,38,0,2024-06-14T08:26:48.904Z,english_197.wav,0,1,895,20,3,Chinese,f,3,0.3,-48.86802506,0.52190861
ZH,38,0,2024-06-14T08:26:48.904Z,english_197.wav,0,1,895,20,3,Chinese,f,4,0.4,81.82701326,0.75360033
ZH,38,0,2024-06-14T08:26:48.904Z,english_197.wav,0,1,895,20,3,Chinese,f,5,0.5,-49.36038243,0.57280926
ZH,38,0,2024-06-14T08:26:48.904Z,english_197.wav,0,1,895,20,3,Chinese,f,6,0.6,60.40718162,1.08660509
ZH,38,0,2024-06-14T08:26:48.904Z,english_197.wav,0,1,895,20,3,Chinese,f,7,0.7,23.14241749,1.00122778
ZH,38,0,2024-06-14T08:26:48.904Z,english_197.wav,0,1,895,20,3,Chinese,f,8,0.8,6.00272562,0.93136252
ZH,38,0,2024-06-14T08:26:48.904Z,english_197.wav,0,1,895,20,3,Chinese,f,9,0.9,-33.15203134,1.24898943
ZH,38,0,2024-06-14T08:26:48.904Z,english_197.wav,0,1,895,20,3,Chinese,f,10,1,87.44378179,1.94648397
ZH,38,0,2024-06-14T08:26:48.904Z,english_197.wav,0,1,895,20,3,Chinese,f,11,1.09391667,-36.11997575,0.88926449
ZH,39,0,2024-06-14T08:26:48.904Z,english_830.wav,0,1,519,20,3,Chinese,f,0,0,-56.43859205,0.48566255
ZH,39,0,2024-06-14T08:26:48.904Z,english_830.wav,0,1,519,20,3,Chinese,f,1,0.1,-40.42370878,1.80120887
ZH,39,0,2024-06-14T08:26:48.904Z,english_830.wav,0,1,519,20,3,Chinese,f,2,0.2,57.12298771,0.23081218
ZH,39,0,2024-06-14T08:26:48.904Z,english_830.wav,0,1,519,20,3,Chinese,f,3,0.3,-17.62232487,1.34466319
ZH,39,0,2024-06-14T08:26:48.904Z,english_830.wav,0,1,519,20,3,Chinese,f,4,0.4,68.18956177,1.72981242
ZH,39,0,2024-06-14T08:26:48.904Z,english_830.wav,0,1,519,20,3,Chinese,f,5,0.5,87.82671531,1.56597803
ZH,39,0,2024-06-14T08:26:48.904Z,english_830.wav,0,1,519,20,3,Chinese,f,6,0.6,47.80958912,0.72011463
ZH,39,0,2024-06-14T08:26:48.904Z,english_830.wav,0,1,519,20,3,Chinese,f,7,0.7,90.11134252,1.40332871
ZH,39,0,2024-06-14T08:26:48.904Z,english_830.wav,0,1,519,20,3,Chinese,f,8,0.8,-73.11836968,0.88730082
ZH,39,0,2024-06-14T08:26:48.904Z,english_830.wav,0,1,519,20,3,Chinese,f,9,0.9,76.91440669,1.45593299
ZH,39,0,2024-06-14T08:26:48.904Z,english_830.wav,0,1,519,20,3,Chinese,f,10,1,0.84638196,1.11832638
ZH,39,0,2024-06-14T08:26:48.904Z,english_830.wav,0,1,519,20,3,Chinese,f,11,1.09391667,40.94191156,1.24825364
ZH,40,0,2024-06-14T08:26:48.904Z,english_624.wav,0,0,842,20,3,Chinese,f,0,0,34.76400378,1.78994994
ZH,40,0,2024-06-14T08:26:48.904Z,english_624.wav,0,0,842,20,3,Chinese,f,1,0.1,-36.42076645,1.4795907
ZH,40,0,2024-06-14T08:26:48.904Z,english_624.wav,0,0,842,20,3,Chinese,f,2,0.2,-52.38985079,1.80721514
ZH,40,0,2024-06-14T08:26:48.904Z,english_624.wav,0,0,842,20,3,Chinese,f,3,0.3,98.14853718,1.70059719
ZH,40,0,2024-06-14T08:26:48.904Z,english_624.wav,0,0,842,20,3,Chinese,f,4,0.4,97.5674754,0.69719837
ZH,40,0,2024-06-14T08:26:48.904Z,english_624.wav,0,0,842,20,3,Chinese,f,5,0.5,-80.04687885,1.37290399
ZH,40,0,2024-06-14T08:26:48.904Z,english_624.wav,0,0,842,20,3,Chinese,f,6,0.6,-8.81047571,1.53741575
ZH,40,0,2024-06-14T08:26:48.904Z,english_624.wav,0,0,842,20,3,Chinese,f,7,0.7,-78.45129318,1.54350611
ZH,40,0,2024-06-14T08:26:48.904Z,english_624.wav,0,0,842,20,3,Chinese,f,8,0.8,39.54454361,0.49170725
ZH,40,0,2024-06-14T08:26:48.904Z,english_624.wav,0,0,842,20,3,Chinese,f,9,0.9,32.62160332,1.04663897
ZH,40,0,2024-06-14T08:26:48.904Z,english_624.wav,0,0,842,20,3,Chinese,f,10,1,-98.98158135,0.63020253
ZH,40,0,2024-06-14T08:26:48.904Z,english_624.wav,0,0,842,20,3,Chinese,f,11,1.09391667,19.08613563,0.96318783
ZH,41,0,2024-06-14T08:26:48.904Z,english_302.wav,0,1,1265,20,3,Chinese,f,0,0,22.32512828,1.43751276
ZH,41,0,2024-06-14T08:26:48.904Z,english_302.wav,0,1,1265,20,3,Chinese,f,1,0.1,-34.68493306,1.04855025
ZH,41,0,2024-06-14T08:26:48.904Z,english_302.wav,0,1,1265,20,3,Chinese,f,2,0.2,-60.33048789,0.11748708
ZH,41,0,2024-06-14T08:26:48.904Z,english_302.wav,0,1,1265,20,3,Chinese,f,3,0.3,-66.33131812,1.014131
ZH,41,0,2024-06-14T08:26:48.904Z,english_302.wav,0,1,1265,20,3,Chinese,f,4,0.4,61.16500984,1.52698955
ZH,41,0,2024-06-14T08:26:48.904Z,english_302.wav,0,1,1265,20,3,Chinese,f,5,0.5,49.23692814,1.28665313
ZH,41,0,2024-06-14T08:26:48.904Z,english_302.wav,0,1,1265,20,3,Chinese,f,6,0.6,18.80850389,1.64816454
ZH,41,0,2024-06-14T08:26:48.904Z,english_302.wav,0,1,1265,20,3,Chinese,f,7,0.7,91.26807024,0.26189179
ZH,41,0,2024-06-14T08:26:48.904Z,english_302.wav,0,1,1265,20,3,Chinese,f,8,0.8,51.0661189,1.3962077
ZH,41,0,2024-06-14T08:26:48.904Z,english_302.wav,0,1,1265,20,3,Chinese,f,9,0.9,-89.83945555,0.53648677
ZH,41,0,2024-06-14T08:26:48.904Z,english_302.wav,0,1,1265,20,3,Chinese,f,10,1,-75.19546708,1.41713481
ZH,41,0,2024-06-14T08:26:48.904Z,english_302.wav,0,1,1265,20,3,Chinese,f,11,1.09391667,-66.5337051,0.68271313
ZH,42,0,2024-06-14T08:26:48.904Z,english_973.wav,0,0,566,20,3,Chinese,f,0,0,86.77777259,1.86280309
ZH,42,0,2024-06-14T08:26:48.904Z,english_973.wav,0,0,566,20,3,Chinese,f,1,0.1,88.68008012,0.36705596
ZH,42,0,2024-06-14T08:26:48.904Z,english_973.wav,0,0,566,20,3,Chinese,f,2,0.2,40.87598241,1.32338867
ZH,42,0,2024-06-14T08:26:48.904Z,english_973.wav,0,0,566,20,3,Chinese,f,3,0.3,-9.9272537,0.04586245
ZH,42,0,2024-06-14T08:26:48.904Z,english_973.wav,0,0,566,20,3,Chinese,f,4,0.4,-53.77098496,1.95113809
ZH,42,0,2024-06-14T08:26:48.904Z,english_973.wav,0,0,566,20,3,Chinese,f,5,0.5,-25.91846693,0.12780271
ZH,42,0,2024-06-14T08:26:48.904Z,english_973.wav,0,0,566,20,3,Chinese,f,6,0.6,53.05484082,1.4683855
ZH,42,0,2024-06-14T08:26:48.904Z,english_973.wav,0,0,566,20,3,Chinese,f,7,0.7,46.24971749,0.39810348
ZH,42,0,2024-06-14T08:26:48.904Z,english_973.wav,0,0,566,20,3,Chinese,f,8,0.8,50.02749475,0.0385797
ZH,42,0,2024-06-14T08:26:48.904Z,english_973.wav,0,0,566,20,3,Chinese,f,9,0.9,-19.53463888,0.83824927
ZH,42,0,2024-06-14T08:26:48.904Z,english_973.wav,0,0,566,20,3,Chinese,f,10,1,-43.93805989,1.6446619
ZH,42,0,2024-06-14T08:26:48.904Z,english_973.wav,0,0,566,20,3,Chinese,f,11,1.09391667,-81.85773857,0.66244145
ZH,43,0,2024-06-14T08:26:48.904Z,english_209.wav,0,0,763,20,3,Chinese,f,0,0,-69.97643607,1.01752059
ZH,43,0,2024-06-14T08:26:48.904Z,english_209.wav,0,0,763,20,3,Chinese,f,1,0.1,-88.52393114,0.50741315
ZH,43,0,2024-06-14T08:26:48.904Z,english_209.wav,0,0,763,20,3,Chinese,f,2,0.2,-92.64381406,1.61277815
ZH,43,0,2024-06-14T08:26:48.904Z,english_209.wav,0,0,763,20,3,Chinese,f,3,0.3,-12.19607679,1.4872908
ZH,43,0,2024-06-14T08:26:48.904Z,english_209.wav,0,0,763,20,3,Chinese,f,4,0.4,51.51628924,0.5793757
ZH,43,0,2024-06-14T08:26:48.904Z,english_209.wav,0,0,763,20,3,Chinese,f,5,0.5,-0.64468501,0.52779709
ZH,43,0,2024-06-14T08:26:48.904Z,english_209.wav,0,0,763,20,3,Chinese,f,6,0.6,71.59302863,0.0231703
ZH,43,0,2024-06-14T08:26:48.904Z,english_209.wav,0,0,763,20,3,Chinese,f,7,0.7,-9.81029184,1.34840208
ZH,43,0,2024-06-14T08:26:48.904Z,english_209.wav,0,0,763,20,3,Chinese,f,8,0.8,-24.63818078,0.66467052
ZH,43,0,2024-06-14T08:26:48.904Z,english_209.wav,0,0,763,20,3,Chinese,f,9,0.9,-3.20105403,0.39411628
ZH,43,0,2024-06-14T08:26:48.904Z,english_209.wav,0,0,763,20,3,Chinese,f,10,1,34.64482647,0.07463584
ZH,43,0,2024-06-14T08:26:48.904Z,english_209.wav,0,0,763,20,3,Chinese,f,11,1.09391667,-96.73374827,1.52336413
ZH,44,0,2024-06-14T08:26:48.904Z,english_278.wav,0,0,804,20,3,Chinese,f,0,0,-96.72610313,0.83439052
ZH,44,0,2024-06-14T08:26:48.904Z,english_278.wav,0,0,804,20,3,Chinese,f,1,0.1,-36.86809982,1.21055498
ZH,44,0,2024-06-14T08:26:48.904Z,english_278.wav,0,0,804,20,3,Chinese,f,2,0.2,-84.24626192,0.05488492
ZH,44,0,2024-06-14T08:26:48.904Z,english_278.wav,0,0,804,20,3,Chinese,f,3,0.3,-29.99363641,1.47058347
ZH,44,0,2024-06-14T08:26:48.904Z,english_278.wav,0,0,804,20,3,Chinese,f,4,0.4,21.41897552,0.68142996
ZH,44,0,2024-06-14T08:26:48.904Z,english_278.wav,0,0,804,20,3,Chinese,f,5,0.5,-73.7985343,0.65955027
ZH,44,0,2024-06-14T08:26:48.904Z,english_278.wav,0,0,804,20,3,Chinese,f,6,0.6,-83.05174317,1.54634177
ZH,44,0,2024-06-14T08:26:48.904Z,english_278.wav,0,0,804,20,3,Chinese,f,7,0.7,-43.48487906,1.03072417
ZH,44,0,2024-06-14T08:26:48.904Z,english_278.wav,0,0,804,20,3,Chinese,f,8,0.8,-48.22741203,0.15769377
ZH,44,0,2024-06-14T08:26:48.904Z,english_278.wav,0,0,804,20,3,Chinese,f,9,0.9,-30.73203826,0.79374536
ZH,44,0,2024-06-14T08:26:48.904Z,english_278.wav,0,0,804,20,3,Chinese,f,10,1,22.54361358,0.9877131
ZH,44,0,2024-06-14T08:26:48.904Z,english_278.wav,0,0,804,20,3,Chinese,f,11,1.09391667,-65.2249662,1.82414956
ZH,45,0,2024-06-14T08:26:48.904Z,english_465.wav,0,0,807,20,3,Chinese,f,0,0,32.62808343,1.95674705
ZH,45,0,2024-06-14T08:26:48.904Z,english_465.wav,0,0,807,20,3,Chinese,f,1,0.1,-19.45954063,0.2020369
ZH,45,0,2024-06-14T08:26:48.904Z,english_465.wav,0,0,807,20,3,Chinese,f,2,0.2,31.8583501,0.52421729
ZH,45,0,2024-06-14T08:26:48.904Z,english_465.wav,0,0,807,20,3,Chinese,f,3,0.3,62.10393883,0.65974817
ZH,45,0,2024-06-14T08:26:48.904Z,english_465.wav,0,0,807,20,3,Chinese,f,4,0.4,18.6647785,0.39728546
ZH,45,0,2024-06-14T08:26:48.904Z,english_465.wav,0,0,807,20,3,Chinese,f,5,0.5,60.37095119,0.37134149
ZH,45,0,2024-06-14T08:26:48.904Z,english_465.wav,0,0,807,20,3,Chinese,f,6,0.6,-66.90125798,0.92371442
ZH,45,0,2024-06-14T08:26:48.904Z,english_465.wav,0,0,807,20,3,Chinese,f,7,0.7,-81.40602189,0.31310251
ZH,45,0,2024-06-14T08:26:48.904Z,english_465.wav,0,0,807,20,3,Chinese,f,8,0.8,50.53882687,1.13414137
ZH,45,0,2024-06-14T08:26:48.904Z,english_465.wav,0,0,807,20,3,Chinese,f,9,0.9,-56.46028762,0.34422608
ZH,45,0,2024-06-14T08:26:48.904Z,english_465.wav,0,0,807,20,3,Chinese,f,10,1,17.60561432,1.91257156
ZH,45,0,2024-06-14T08:26:48.904Z,english_465.wav,0,0,807,20,3,Chinese,f,11,1.09391667,99.29101089,1.23959362
ZH,46,0,2024-06-14T08:26:48.904Z,english_61.wav,0,1,812,20,3,Chinese,f,0,0,-76.31366774,1.15675845
ZH,46,0,2024-06-14T08:26:48.904Z,english_61.wav,0,1,812,20,3,Chinese,f,1,0.1,-70.32577527,0.79511083
ZH,46,0,2024-06-14T08:26:48.904Z,english_61.wav,0,1,812,20,3,Chinese,f,2,0.2,5.13466316,0.40451227
ZH,46,0,2024-06-14T08:26:48.904Z,english_61.wav,0,1,812,20,3,Chinese,f,3,0.3,37.00830294,0.79487484
ZH,46,0,2024-06-14T08:26:48.904Z,english_61.wav,0,1,812,20,3,Chinese,f,4,0.4,-11.73068973,0.44483697
ZH,46,0,2024-06-14T08:26:48.904Z,english_61.wav,0,1,812,20,3,Chinese,f,5,0.5,91.45109603,0.84603206
ZH,46,0,2024-06-14T08:26:48.904Z,english_61.wav,0,1,812,20,3,Chinese,f,6,0.6,11.9601718,0.8090615
ZH,46,0,2024-06-14T08:26:48.904Z,english_61.wav,0,1,812,20,3,Chinese,f,7,0.7,-66.7573243,1.09438885
ZH,46,0,2024-06-14T08:26:48.904Z,english_61.wav,0,1,812,20,3,Chinese,f,8,0.8,78.73702917,1.14041124
ZH,46,0,2024-06-14T08:26:48.904Z,english_61.wav,0,1,812,20,3,Chinese,f,9,0.9,61.80688515,0.39248564
ZH,46,0,2024-06-14T08:26:48.904Z,english_61.wav,0,1,812,20,3,Chinese,f,10,1,-73.85845523,1.77720472
ZH,46,0,2024-06-14T08:26:48.904Z,english_61.wav,0,1,812,20,3,Chinese,f,11,1.09391667,-24.76259921,1.29259789
ZH,47,0,2024-06-14T08:26:48.904Z,english_713.wav,0,1,790,20,3,Chinese,f,0,0,-93.47933458,1.62613831
ZH,47,0,2024-06-14T08:26:48.904Z,english_713.wav,0,1,790,20,3,Chinese,f,1,0.1,17.56811932,0.15624323
ZH,47,0,2024-06-14T08:26:48.904Z,english_713.wav,0,1,790,20,3,Chinese,f,2,0.2,35.67998285,1.16642221
ZH,47,0,2024-06-14T08:26:48.904Z,english_713.wav,0,1,790,20,3,Chinese,f,3,0.3,22.32245501,1.85687669
ZH,47,0,2024-06-14T08:26:48.904Z,english_713.wav,0,1,790,20,3,Chinese,f,4,0.4,-55.00810372,0.77296433
ZH,47,0,2024-06-14T08:26:48.904Z,english_713.wav,0,1,790,20,3,Chinese,f,5,0.5,-25.94753581,0.17905086
ZH,47,0,2024-06-14T08:26:48.904Z,english_713.wav,0,1,790,20,3,Chinese,f,6,0.6,12.36521929,0.48201302
ZH,47,0,2024-06-14T08:26:48.904Z,english_713.wav,0,1,790,20,3,Chinese,f,7,0.7,42.68303221,0.74996995
ZH,47,0,2024-06-14T08:26:48.904Z,english_713.wav,0,1,790,20,3,Chinese,f,8,0.8,68.77442649,1.90885108
ZH,47,0,2024-06-14T08:26:48.904Z,english_713.wav,0,1,790,20,3,Chinese,f,9,0.9,-39.13144034,0.17419233
ZH,47,0,2024-06-14T08:26:48.904Z,english_713.wav,0,1,790,20,3,Chinese,f,10,1,48.51746803,1.84801942
ZH,47,0,2024-06-14T08:26:48.904Z,english_713.wav,0,1,790,20,3,Chinese,f,11,1.09391667,-19.71329918,0.87144157
ZH,48,0,2024-06-14T08:26:48.904Z,english_276.wav,0,0,671,20,3,Chinese,f,0,0,21.98586045,0.30932428
ZH,48,0,2024-06-14T08:26:48.904Z,english_276.wav,0,0,671,20,3,Chinese,f,1,0.1,-67.99860163,0.09597304
ZH,48,0,2024-06-14T08:26:48.904Z,english_276.wav,0,0,671,20,3,Chinese,f,2,0.2,25.17256123,1.83076822
ZH,48,0,2024-06-14T08:26:48.904Z,english_276.wav,0,0,671,20,3,Chinese,f,3,0.3,21.36527348,0.0831707
ZH,48,0,2024-06-14T08:26:48.904Z,english_276.wav,0,0,671,20,3,Chinese,f,4,0.4,35.76600766,1.62200671
ZH,48,0,2024-06-14T08:26:48.904Z,english_276.wav,0,0,671,20,3,Chinese,f,5,0.5,-7.15376156,1.09615837
ZH,48,0,2024-06-14T08:26:48.904Z,english_276.wav,0,0,671,20,3,Chinese,f,6,0.6,6.29513946,1.21666569
ZH,48,0,2024-06-14T08:26:48.904Z,english_276.wav,0,0,671,20,3,Chinese,f,7,0.7,-54.12906392,0.44734549
ZH,48,0,2024-06-14T08:26:48.904Z,english_276.wav,0,0,671,20,3,Chinese,f,8,0.8,17.42972017,0.42974841
ZH,48,0,2024-06-14T08:26:48.904Z,english_276.wav,0,0,671,20,3,Chinese,f,9,0.9,4.25119531,0.69082029
ZH,48,0,2024-06-14T08:26:48.904Z,english_276.wav,0,0,671,20,3,Chinese,f,10,1,-8.01806671,1.55074446
ZH,48,0,2024-06-14T08:26:48.904Z,english_276.wav,0,0,671,20,3,Chinese,f,11,1.09391667,17.7867456,1.15912049
ZH,49,0,2024-06-14T08:26:48.904Z,english_104.wav,0,0,857,20,3,Chinese,f,0,0,-44.36265311,0.57549521
ZH,49,0,2024-06-14T08:26:48.904Z,english_104.wav,0,0,857,20,3,Chinese,f,1,0.1,-54.18444724,1.28133407
ZH,49,0,2024-06-14T08:26:48.904Z,english_104.wav,0,0,857,20,3,Chinese,f,2,0.2,85.0725802,1.08596543
ZH,49,0,2024-06-14T08:26:48.904Z,english_104.wav,0,0,857,20,3,Chinese,f,3,0.3,26.58924477,1.95916684
ZH,49,0,2024-06-14T08:26:48.904Z,english_104.wav,0,0,857,20,3,Chinese,f,4,0.4,-12.96639675,0.37544414
ZH,49,0,2024-06-14T08:26:48.904Z,english_104.wav,0,0,857,20,3,Chinese,f,5,0.5,-66.5599203,0.78577569
ZH,49,0,2024-06-14T08:26:48.904Z,english_104.wav,0,0,857,20,3,Chinese,f,6,0.6,21.67855603,0.65129956
ZH,49,0,2024-06-14T08:26:48.904Z,english_104.wav,0,0,857,20,3,Chinese,f,7,0.7,-15.50031997,0.77672945
ZH,49,0,2024-06-14T08:26:48.904Z,english_104.wav,0,0,857,20,3,Chinese,f,8,0.8,-68.33822385,0.45937825
ZH,49,0,2024-06-14T08:26:48.904Z,english_104.wav,0,0,857,20,3,Chinese,f,9,0.9,47.23398252,0.91963539
ZH,49,0,2024-06-14T08:26:48.904Z,english_104.wav,0,0,857,20,3,Chinese,f,10,1,-52.36694839,0.17538168
ZH,49,0,2024-06-14T08:26:48.904Z,english_104.wav,0,0,857,20,3,Chinese,f,11,1.09391667,-55.61838026,1.965861
ZH,50,1,2024-06-14T08:26:48.904Z,english_140.wav,0,1,520,20,3,Chinese,f,0,0,3.17682923,0.87887046
ZH,50,1,2024-06-14T08:26:48.904Z,english_140.wav,0,1,520,20,3,Chinese,f,1,0.1,6.35877152,0.507187
ZH,50,1,2024-06-14T08:26:48.904Z,english_140.wav,0,1,520,20,3,Chinese,f,2,0.2,-9.02165969,0.30654511
ZH,50,1,2024-06-14T08:26:48.904Z,english_140.wav,0,1,520,20,3,Chinese,f,3,0.3,-36.47269085,0.61695793
ZH,50,1,2024-06-14T08:26:48.904Z,english_140.wav,0,1,520,20,3,Chinese,f,4,0.4,-72.32699921,1.67577575
ZH,50,1,2024-06-14T08:26:48.904Z,english_140.wav,0,1,520,20,3,Chinese,f,5,0.5,-28.69942826,0.30689604
ZH,50,1,2024-06-14T08:26:48.904Z,english_140.wav,0,1,520,20,3,Chinese,f,6,0.6,68.422362,1.73923813
ZH,50,1,2024-06-14T08:26:48.904Z,english_140.wav,0,1,520,20,3,Chinese,f,7,0.7,-32.97741766,1.33940979
ZH,50,1,2024-06-14T08:26:48.904Z,english_140.wav,0,1,520,20,3,Chinese,f,8,0.8,-98.50350873,1.86246524
ZH,50,1,2024-06-14T08:26:48.904Z,english_140.wav,0,1,520,20,3,Chinese,f,9,0.9,4.47546112,0.68629119
ZH,50,1,2024-06-14T08:26:48.904Z,english_140.wav,0,1,520,20,3,Chinese,f,10,1,-70.93750026,1.82050493
ZH,50,1,2024-06-14T08:26:48.904Z,english_140.wav,0,1,520,20,3,Chinese,f,11,1.09391667,36.42764636,1.04858085
ZH,51,1,2024-06-14T08:26:48.904Z,english_638.wav,0,1,650,20,3,Chinese,f,0,0,27.0849984,1.3280689
ZH,51,1,2024-06-14T08:26:48.904Z,english_638.wav,0,1,650,20,3,Chinese,f,1,0.1,-76.77372335,0.56896387
ZH,51,1,2024-06-14T08:26:48.904Z,english_638.wav,0,1,650,20,3,Chinese,f,2,0.2,-5.6974772,0.56746927
ZH,51,1,2024-06-14T08:26:48.904Z,english_638.wav,0,1,650,20,3,Chinese,f,3,0.3,-27.04640621,0.40067671
ZH,51,1,2024-06-14T08:26:48.904Z,english_638.wav,0,1,650,20,3,Chinese,f,4,0.4,10.67934685,1.88228275
ZH,51,1,2024-06-14T08:26:48.904Z,english_638.wav,0,1,650,20,3,Chinese,f,5,0.5,-13.18628206,0.52168705
ZH,51,1,2024-06-14T08:26:48.904Z,english_638.wav,0,1,650,20,3,Chinese,f,6,0.6,11.34372698,0.80905376
ZH,51,1,2024-06-14T08:26:48.904Z,english_638.wav,0,1,650,20,3,Chinese,f,7,0.7,-64.2430687,1.41810717
ZH,51,1,2024-06-14T08:26:48.904Z,english_638.wav,0,1,650,20,3,Chinese,f,8,0.8,46.35115049,1.8285697
ZH,51,1,2024-06-14T08:26:48.904Z,english_638.wav,0,1,650,20,3,Chinese,f,9,0.9,44.69499683,0.3100636
ZH,51,1,2024-06-14T08:26:48.904Z,english_638.wav,0,1,650,20,3,Chinese,f,10,1,-11.73136011,1.74790386
ZH,51,1,2024-06-14T08:26:48.904Z,english_638.wav,0,1,650,20,3,Chinese,f,11,1.09391667,-77.04953993,1.8348397
ZH,52,1,2024-06-14T08:26:48.904Z,english_785.wav,0,0,572,20,3,Chinese,f,0,0,-73.74150429,1.15978121
ZH,52,1,2024-06-14T08:26:48.904Z,english_785.wav,0,0,572,20,3,Chinese,f,1,0.1,-10.25262424,1.76239803
ZH,52,1,2024-06-14T08:26:48.904Z,english_785.wav,0,0,572,20,3,Chinese,f,2,0.2,-91.38996228,1.35267709
ZH,52,1,2024-06-14T08:26:48.904Z,english_785.wav,0,0,572,20,3,Chinese,f,3,0.3,-58.16150792,0.50742704
ZH,52,1,2024-06-14T08:26:48.904Z,english_785.wav,0,0,572,20,3,Chinese,f,4,0.4,56.13851827,1.43887546
ZH,52,1,2024-06-14T08:26:48.904Z,english_785.wav,0,0,572,20,3,Chinese,f,5,0.5,-53.87138426,0.30204401
ZH,52,1,2024-06-14T08:26:48.904Z,english_785.wav,0,0,572,20,3,Chinese,f,6,0.6,-26.51328271,0.04616459
ZH,52,1,2024-06-14T08:26:48.904Z,english_785.wav,0,0,572,20,3,Chinese,f,7,0.7,38.10109315,0.31028806
ZH,52,1,2024-06-14T08:26:48.904Z,english_785.wav,0,0,572,20,3,Chinese,f,8,0.8,-52.27058488,1.01215639
ZH,52,1,2024-06-14T08:26:48.904Z,english_785.wav,0,0,572,20,3,Chinese,f,9,0.9,61.81362114,1.14370061
ZH,52,1,2024-06-14T08:26:48.904Z,english_785.wav,0,0,572,20,3,Chinese,f,10,1,-48.3420263,1.51703025
ZH,52,1,2024-06-14T08:26:48.904Z,english_785.wav,0,0,572,20,3,Chinese,f,11,1.09391667,5.55581958,0.02011385
ZH,53,1,2024-06-14T08:26:48.904Z,english_126.wav,0,1,1195,20,3,Chinese,f,0,0,17.23277349,0.07681875
ZH,53,1,2024-06-14T08:26:48.904Z,english_126.wav,0,1,1195,20,3,Chinese,f,1,0.1,-82.02564831,1.15308157
ZH,53,1,2024-06-14T08:26:48.904Z,english_126.wav,0,1,1195,20,3,Chinese,f,2,0.2,-89.77449202,0.24325653
ZH,53,1,2024-06-14T08:26:48.904Z,english_126.wav,0,1,1195,20,3,Chinese,f,3,0.3,-51.19975639,0.26308615
ZH,53,1,2024-06-14T08:26:48.904Z,english_126.wav,0,1,1195,20,3,Chinese,f,4,0.4,-15.70542785,1.15666053
ZH,53,1,2024-06-14T08:26:48.904Z,english_126.wav,0,1,1195,20,3,Chinese,f,5,0.5,-86.49178279,0.93452427
ZH,53,1,2024-06-14T08:26:48.904Z,english_126.wav,0,1,1195,20,3,Chinese,f,6,0.6,-63.9993416,1.80863716
ZH,53,1,2024-06-14T08:26:48.904Z,english_126.wav,0,1,1195,20,3,Chinese,f,7,0.7,15.94919888,1.09862854
ZH,53,1,2024-06-14T08:26:48.904Z,english_126.wav,0,1,1195,20,3,Chinese,f,8,0.8,14.83212149,1.20748097
ZH,53,1,2024-06-14T08:26:48.904Z,english_126.wav,0,1,1195,20,3,Chinese,f,9,0.9,89.46410037,1.44558157
ZH,53,1,2024-06-14T08:26:48.904Z,english_126.wav,0,1,1195,20,3,Chinese,f,10,1,-9.32479478,0.49090758
ZH,53,1,2024-06-14T08:26:48.904Z,english_126.wav,0,1,1195,20,3,Chinese,f,11,1.09391667,36.75071045,0.88504815
ZH,54,1,2024-06-14T08:26:48.904Z,english_902.wav,0,1,910,20,3,Chinese,f,0,0,14.8305777,0.38500358
ZH,54,1,2024-06-14T08:26:48.904Z,english_902.wav,0,1,910,20,3,Chinese,f,1,0.1,-47.11140389,1.2332903
ZH,54,1,2024-06-14T08:26:48.904Z,english_902.wav,0,1,910,20,3,Chinese,f,2,0.2,-96.35329483,1.76615422
ZH,54,1,2024-06-14T08:26:48.904Z,english_902.wav,0,1,910,20,3,Chinese,f,3,0.3,-31.00015801,0.59488462
ZH,54,1,2024-06-14T08:26:48.904Z,english_902.wav,0,1,910,20,3,Chinese,f,4,0.4,46.42403561,0.56384869
ZH,54,1,2024-06-14T08:26:48.904Z,english_902.wav,0,1,910,20,3,Chinese,f,5,0.5,-64.13766191,0.91132343
ZH,54,1,2024-06-14T08:26:48.904Z,english_902.wav,0,1,910,20,3,Chinese,f,6,0.6,31.93254177,0.03211524
ZH,54,1,2024-06-14T08:26:48.904Z,english_902.wav,0,1,910,20,3,Chinese,f,7,0.7,-48.59706945,0.95267988
ZH,54,1,2024-06-14T08:26:48.904Z,english_902.wav,0,1,910,20,3,Chinese,f,8,0.8,22.33610028,1.25460011
ZH,54,1,2024-06-14T08:26:48.904Z,english_902.wav,0,1,910,20,3,Chinese,f,9,0.9,-29.48809445,1.32807075
ZH,54,1,2024-06-14T08:26:48.904Z,english_902.wav,0,1,910,20,3,Chinese,f,10,1,-64.83953347,0.21654555
ZH,54,1,2024-06-14T08:26:48.904Z,english_902.wav,0,1,910,20,3,Chinese,f,11,1.09391667,88.52973545,1.72349975
ZH,55,1,2024-06-14T08:26:48.904Z,english_194.wav,0,1,610,20,3,Chinese,f,0,0,56.78701541,1.42004802
ZH,55,1,2024-06-14T08:26:48.904Z,english_194.wav,0,1,610,20,3,Chinese,f,1,0.1,-17.75053988,0.01035796
ZH,55,1,2024-06-14T08:26:48.904Z,english_194.wav,0,1,610,20,3,Chinese,f,2,0.2,33.25886054,1.01435424
ZH,55,1,2024-06-14T08:26:48.904Z,english_194.wav,0,1,610,20,3,Chinese,f,3,0.3,-36.30427417,0.10390295
ZH,55,1,2024-06-14T08:26:48.904Z,english_194.wav,0,1,610,20,3,Chinese,f,4,0.4,87.2538064,0.79219746
ZH,55,1,2024-06-14T08:26:48.904Z,english_194.wav,0,1,610,20,3,Chinese,f,5,0.5,-35.38798336,0.28919857
ZH,55,1,2024-06-14T08:26:48.904Z,english_194.wav,0,1,610,20,3,Chinese,f,6,0.6,-16.86822867,1.14065301
ZH,55,1,2024-06-14T08:26:48.904Z,english_194.wav,0,1,610,20,3,Chinese,f,7,0.7,3.74513195,1.55329947
ZH,55,1,2024-06-14T08:26:48.904Z,english_194.wav,0,1,610,20,3,Chinese,f,8,0.8,-97.03953589,1.8735666
ZH,55,1,2024-06-14T08:26:48.904Z,english_194.wav,0,1,610,20,3,Chinese,f,9,0.9,-34.95000954,1.68004219
ZH,55,1,2024-06-14T08:26:48.904Z,english_194.wav,0,1,610,20,3,Chinese,f,10,1,41.79469937,0.7970796
ZH,55,1,2024-06-14T08:26:48.904Z,english_194.wav,0,1,610,20,3,Chinese,f,11,1.09391667,-99.09961294,1.89727803
ZH,56,1,2024-06-14T08:26:48.904Z,english_321.wav,0,0,2453,20,3,Chinese,f,0,0,-77.41334575,1.30726178
ZH,56,1,2024-06-14T08:26:48.904Z,english_321.wav,0,0,2453,20,3,Chinese,f,1,0.1,-61.98635838,0.09021545
ZH,56,1,2024-06-14T08:26:48.904Z,english_321.wav,0,0,2453,20,3,Chinese,f,2,0.2,63.85195092,1.50183321
ZH,56,1,2024-06-14T08:26:48.904Z,english_321.wav,0,0,2453,20,3,Chinese,f,3,0.3,29.6904451,0.65065228
ZH,56,1,2024-06-14T08:26:48.904Z,english_321.wav,0,0,2453,20,3,Chinese,f,4,0.4,-43.5045078,1.45081069
ZH,56,1,2024-06-14T08:26:48.904Z,english_321.wav,0,0,2453,20,3,Chinese,f,5,0.5,62.57170592,1.7661601
ZH,56,1,2024-06-14T08:26:48.904Z,english_321.wav,0,0,2453,20,3,Chinese,f,6,0.6,28.41559033,0.98052074
ZH,56,1,2024-06-14T08:26:48.904Z,english_321.wav,0,0,2453,20,3,Chinese,f,7,0.7,57.20206106,1.50508218
ZH,56,1,2024-06-14T08:26:48.904Z,english_321.wav,0,0,2453,20,3,Chinese,f,8,0.8,21.76754783,1.92892589
ZH,56,1,2024-06-14T08:26:48.904Z,english_321.wav,0,0,2453,20,3,Chinese,f,9,0.9,-93.37290208,0.5132303
ZH,56,1,2024-06-14T08:26:48.904Z,english_321.wav,0,0,2453,20,3,Chinese,f,10,1,-66.78585721,1.33865757
ZH,56,1,2024-06-14T08:26:48.904Z,english_321.wav,0,0,2453,20,3,Chinese,f,11,1.09391667,79.62121497,0.23870746
ZH,57,1,2024-06-14T08:26:48.904Z,english_476.wav,0,0,769,20,3,Chinese,f,0,0,44.69659717,1.41297837
ZH,57,1,2024-06-14T08:26:48.904Z,english_476.wav,0,0,769,20,3,Chinese,f,1,0.1,-34.716814,1.05145195
ZH,57,1,2024-06-14T08:26:48.904Z,english_476.wav,0,0,769,20,3,Chinese,f,2,0.2,-37.83043351,0.94681533
ZH,57,1,2024-06-14T08:26:48.904Z,english_476.wav,0,0,769,20,3,Chinese,f,3,0.3,-62.93772859,1.38886049
ZH,57,1,2024-06-14T08:26:48.904Z,english_476.wav,0,0,769,20,3,Chinese,f,4,0.4,29.80105548,0.50983073
ZH,57,1,2024-06-14T08:26:48.904Z,english_476.wav,0,0,769,20,3,Chinese,f,5,0.5,-19.93397346,0.87963627
ZH,57,1,2024-06-14T08:26:48.904Z,english_476.wav,0,0,769,20,3,Chinese,f,6,0.6,-81.51838574,0.37083783
ZH,57,1,2024-06-14T08:26:48.904Z,english_476.wav,0,0,769,20,3,Chinese,f,7,0.7,-13.12417842,1.60201274
ZH,57,1,2024-06-14T08:26:48.904Z,english_476.wav,0,0,769,20,3,Chinese,f,8,0.8,-49.11622946,0.02246419
ZH,57,1,2024-06-14T08:26:48.904Z,english_476.wav,0,0,769,20,3,Chinese,f,9,0.9,-40.62215118,1.35146298
ZH,57,1,2024-06-14T08:26:48.904Z,english_476.wav,0,0,769,20,3,Chinese,f,10,1,-29.85989769,1.39707139
ZH,57,1,2024-06-14T08:26:48.904Z,english_476.wav,0,0,769,20,3,Chinese,f,11,1.09391667,-46.8973955,0.19828042
ZH,58,1,2024-06-14T08:26:48.904Z,english_747.wav,0,1,641,20,3,Chinese,f,0,0,33.9885207,1.47964533
ZH,58,1,2024-06-14T08:26:48.904Z,english_747.wav,0,1,641,20,3,Chinese,f,1,0.1,-71.14283381,1.57695323
ZH,58,1,2024-06-14T08:26:48.904Z,english_747.wav,0,1,641,20,3,Chinese,f,2,0.2,-52.52906762,1.13707985
ZH,58,1,2024-06-14T08:26:48.904Z,english_747.wav,0,1,641,20,3,Chinese,f,3,0.3,79.5756924,1.65073603
ZH,58,1,2024-06-14T08:26:48.904Z,english_747.wav,0,1,641,20,3,Chinese,f,4,0.4,-13.30932063,0.47172054
ZH,58,1,2024-06-14T08:26:48.904Z,english_747.wav,0,1,641,20,3,Chinese,f,5,0.5,25.54535415,1.37786003
ZH,58,1,2024-06-14T08:26:48.904Z,english_747.wav,0,1,641,20,3,Chinese,f,6,0.6,8.02344494,1.58889604
ZH,58,1,2024-06-14T08:26:48.904Z,english_747.wav,0,1,641,20,3,Chinese,f,7,0.7,-38.13543806,1.29683876
ZH,58,1,2024-06-14T08:26:48.904Z,english_747.wav,0,1,641,20,3,Chinese,f,8,0.8,22.33599648,1.65514229
ZH,58,1,2024-06-14T08:26:48.904Z,english_747.wav,0,1,641,20,3,Chinese,f,9,0.9,-26.77712134,1.18735968
ZH,58,1,2024-06-14T08:26:48.904Z,english_747.wav,0,1,641,20,3,Chinese,f,10,1,-6.09351927,1.37962036
ZH,58,1,2024-06-14T08:26:48.904Z,english_747.wav,0,1,641,20,3,Chinese,f,11,1.09391667,43.23579595,1.3791581
ZH,59,1,2024-06-14T08:26:48.904Z,english_661.wav,0,1,620,20,3,Chinese,f,0,0,-96.27017097,0.06095717
ZH,59,1,2024-06-14T08:26:48.904Z,english_661.wav,0,1,620,20,3,Chinese,f,1,0.1,-8.23164951,1.37830678
ZH,59,1,2024-06-14T08:26:48.904Z,english_661.wav,0,1,620,20,3,Chinese,f,2,0.2,-17.16483844,0.60938429
ZH,59,1,2024-06-14T08:26:48.904Z,english_661.wav,0,1,620,20,3,Chinese,f,3,0.3,51.38438878,1.50755712
ZH,59,1,2024-06-14T08:26:48.904Z,english_661.wav,0,1,620,20,3,Chinese,f,4,0.4,-46.68819378,0.78233896
ZH,59,1,2024-06-14T08:26:48.904Z,english_661.wav,0,1,620,20,3,Chinese,f,5,0.5,-48.36150329,1.0485375
ZH,59,1,2024-06-14T08:26:48.904Z,english_661.wav,0,1,620,20,3,Chinese,f,6,0.6,39.11171658,1.09444979
ZH,59,1,2024-06-14T08:26:48.904Z,english_661.wav,0,1,620,20,3,Chinese,f,7,0.7,61.02242978,0.69142926
ZH,59,1,2024-06-14T08:26:48.904Z,english_661.wav,0,1,620,20,3,Chinese,f,8,0.8,-31.59479495,1.58337901
ZH,59,1,2024-06-14T08:26:48.904Z,english_661.wav,0,1,620,20,3,Chinese,f,9,0.9,29.78054616,1.62604078
ZH,59,1,2024-06-14T08:26:48.904Z,english_661.wav,0,1,620,20,3,Chinese,f,10,1,12.03263948,0.74172624
ZH,59,1,2024-06-14T08:26:48.904Z,english_661.wav,0,1,620,20,3,Chinese,f,11,1.09391667,45.41432931,1.92603435
ZH,60,1,2024-06-14T08:26:48.904Z,english_203.wav,0,0,746,20,3,Chinese,f,0,0,-95.15502969,0.13261154
ZH,60,1,2024-06-14T08:26:48.904Z,english_203.wav,0,0,746,20,3,Chinese,f,1,0.1,-9.00046759,0.68737046
ZH,60,1,2024-06-14T08:26:48.904Z,english_203.wav,0,0,746,20,3,Chinese,f,2,0.2,-46.05673343,1.04752223
ZH,60,1,2024-06-14T08:26:48.904Z,english_203.wav,0,0,746,20,3,Chinese,f,3,0.3,-80.20455434,1.42056073
ZH,60,1,2024-06-14T08:26:48.904Z,english_203.wav,0,0,746,20,3,Chinese,f,4,0.4,69.34929809,1.98486552
ZH,60,1,2024-06-14T08:26:48.904Z,english_203.wav,0,0,746,20,3,Chinese,f,5,0.5,52.23432308,0.94146217
ZH,60,1,2024-06-14T08:26:48.904Z,english_203.wav,0,0,746,20,3,Chinese,f,6,0.6,-15.81323993,0.9157491
ZH,60,1,2024-06-14T08:26:48.904Z,english_203.wav,0,0,746,20,3,Chinese,f,7,0.7,37.6557434,1.05147425
ZH,60,1,2024-06-14T08:26:48.904Z,english_203.wav,0,0,746,20,3,Chinese,f,8,0.8,17.28698378,0.64444213
ZH,60,1,2024-06-14T08:26:48.904Z,english_203.wav,0,0,746,20,3,Chinese,f,9,0.9,49.30427287,0.93595102
ZH,60,1,2024-06-14T08:26:48.904Z,english_203.wav,0,0,746,20,3,Chinese,f,10,1,75.36526211,0.02848654
ZH,60,1,2024-06-14T08:26:48.904Z,english_203.wav,0,0,746,20,3,Chinese,f,11,1.09391667,-92.86270005,1.21065321
ZH,61,1,2024-06-14T08:26:48.904Z,english_54.wav,0,0,1115,20,3,Chinese,f,0,0,-21.96933263,0.48716735
ZH,61,1,2024-06-14T08:26:48.904Z,english_54.wav,0,0,1115,20,3,Chinese,f,1,0.1,21.34738665,1.05776716
ZH,61,1,2024-06-14T08:26:48.904Z,english_54.wav,0,0,1115,20,3,Chinese,f,2,0.2,31.11757961,1.06204204
ZH,61,1,2024-06-14T08:26:48.904Z,english_54.wav,0,0,1115,20,3,Chinese,f,3,0.3,-97.99268721,1.04698992
ZH,61,1,2024-06-14T08:26:48.904Z,english_54.wav,0,0,1115,20,3,Chinese,f,4,0.4,-9.10924424,1.4258698
ZH,61,1,2024-06-14T08:26:48.904Z,english_54.wav,0,0,1115,20,3,Chinese,f,5,0.5,6.54964279,0.044516
ZH,61,1,2024-06-14T08:26:48.904Z,english_54.wav,0,0,1115,20,3,Chinese,f,6,0.6,-88.03304288,1.54012871
ZH,61,1,2024-06-14T08:26:48.904Z,english_54.wav,0,0,1115,20,3,Chinese,f,7,0.7,-43.35008219,0.40475238
ZH,61,1,2024-06-14T08:26:48.904Z,english_54.wav,0,0,1115,20,3,Chinese,f,8,0.8,96.98577024,1.50449696
ZH,61,1,2024-06-14T08:26:48.904Z,english_54.wav,0,0,1115,20,3,Chinese,f,9,0.9,50.71384678,0.29484315
ZH,61,1,2024-06-14T08:26:48.904Z,english_54.wav,0,0,1115,20,3,Chinese,f,10,1,-60.40662606,1.60594219
ZH,61,1,2024-06-14T08:26:48.904Z,english_54.wav,0,0,1115,20,3,Chinese,f,11,1.09391667,58.67238149,0.44012247
ZH,62,1,2024-06-14T08:26:48.904Z,english_644.wav,0,1,536,20,3,Chinese,f,0,0,-7.74705656,0.66688753
ZH,62,1,2024-06-14T08:26:48.904Z,english_644.wav,0,1,536,20,3,Chinese,f,1,0.1,13.74923295,1.25240531
ZH,62,1,2024-06-14T08:26:48.904Z,english_644.wav,0,1,536,20,3,Chinese,f,2,0.2,40.16854527,1.72800914
ZH,62,1,2024-06-14T08:26:48.904Z,english_644.wav,0,1,536,20,3,Chinese,f,3,0.3,16.95590876,1.901406
ZH,62,1,2024-06-14T08:26:48.904Z,english_644.wav,0,1,536,20,3,Chinese,f,4,0.4,92.94154477,1.33708406
ZH,62,1,2024-06-14T08:26:48.904Z,english_644.wav,0,1,536,20,3,Chinese,f,5,0.5,56.03551628,0.15832583
ZH,62,1,2024-06-14T08:26:48.904Z,english_644.wav,0,1,536,20,3,Chinese,f,6,0.6,38.20742884,0.92905529
ZH,62,1,2024-06-14T08:26:48.904Z,english_644.wav,0,1,536,20,3,Chinese,f,7,0.7,77.59912579,1.33051148
ZH,62,1,2024-06-14T08:26:48.904Z,english_644.wav,0,1,536,20,3,Chinese,f,8,0.8,-70.6366221,1.52220135
ZH,62,1,2024-06-14T08:26:48.904Z,english_644.wav,0,1,536,20,3,Chinese,f,9,0.9,28.8352997,0.90700951
ZH,62,1,2024-06-14T08:26:48.904Z,english_644.wav,0,1,536,20,3,Chinese,f,10,1,-31.19037079,0.18646841
ZH,62,1,2024-06-14T08:26:48.904Z,english_644.wav,0,1,536,20,3,Chinese,f,11,1.09391667,-96.94347339,1.53278214
ZH,63,1,2024-06-14T08:26:48.904Z,english_41.wav,0,1,603,20,3,Chinese,f,0,0,94.86935215,0.27348518
ZH,63,1,2024-06-14T08:26:48.904Z,english_41.wav,0,1,603,20,3,Chinese,f,1,0.1,-7.05168928,1.18971652
ZH,63,1,2024-06-14T08:26:48.904Z,english_41.wav,0,1,603,20,3,Chinese,f,2,0.2,83.29541273,1.0683571
ZH,63,1,2024-06-14T08:26:48.904Z,english_41.wav,0,1,603,20,3,Chinese,f,3,0.3,-1.78314142,1.37978433
ZH,63,1,2024-06-14T08:26:48.904Z,english_41.wav,0,1,603,20,3,Chinese,f,4,0.4,48.9333274,0.66104529
ZH,63,1,2024-06-14T08:26:48.904Z,english_41.wav,0,1,603,20,3,Chinese,f,5,0.5,-37.7603382,1.58723319
ZH,63,1,2024-06-14T08:26:48.904Z,english_41.wav,0,1,603,20,3,Chinese,f,6,0.6,-73.18439231,0.96658357
ZH,63,1,2024-06-14T08:26:48.904Z,english_41.wav,0,1,603,20,3,Chinese,f,7,0.7,14.0804343,1.12331941
ZH,63,1,2024-06-14T08:26:48.904Z,english_41.wav,0,1,603,20,3,Chinese,f,8,0.8,-63.54643631,1.41064232
ZH,63,1,2024-06-14T08:26:48.904Z,english_41.wav,0,1,603,20,3,Chinese,f,9,0.9,15.76603415,0.93302581
ZH,63,1,2024-06-14T08:26:48.904Z,english_41.wav,0,1,603,20,3,Chinese,f,10,1,6.93433941,0.83854769
ZH,63,1,2024-06-14T08:26:48.904Z,english_41.wav,0,1,603,20,3,Chinese,f,11,1.09391667,-37.21216737,1.07714606
ZH,64,1,2024-06-14T08:26:48.904Z,english_99.wav,0,1,1945,20,3,Chinese,f,0,0,-35.67146007,0.39654392
ZH,64,1,2024-06-14T08:26:48.904Z,english_99.wav,0,1,1945,20,3,Chinese,f,1,0.1,77.48026741,0.30370297
ZH,64,1,2024-06-14T08:26:48.904Z,english_99.wav,0,1,1945,20,3,Chinese,f,2,0.2,60.67953513,0.91456869
ZH,64,1,2024-06-14T08:26:48.904Z,english_99.wav,0,1,1945,20,3,Chinese,f,3,0.3,7.03375586,1.67387039
ZH,64,1,2024-06-14T08:26:48.904Z,english_99.wav,0,1,1945,20,3,Chinese,f,4,0.4,93.94527477,0.48426399
ZH,64,1,2024-06-14T08:26:48.904Z,english_99.wav,0,1,1945,20,3,Chinese,f,5,0.5,32.23439221,1.86313592
ZH,64,1,2024-06-14T08:26:48.904Z,english_99.wav,0,1,1945,20,3,Chinese,f,6,0.6,63.65771061,0.46284335
ZH,64,1,2024-06-14T08:26:48.904Z,english_99.wav,0,1,1945,20,3,Chinese,f,7,0.7,-43.04880321,1.10565763
ZH,64,1,2024-06-14T08:26:48.904Z,english_99.wav,0,1,1945,20,3,Chinese,f,8,0.8,90.01770485,1.32411051
ZH,64,1,2024-06-14T08:26:48.904Z,english_99.wav,0,1,1945,20,3,Chinese,f,9,0.9,79.3607672,1.33992166
ZH,64,1,2024-06-14T08:26:48.904Z,english_99.wav,0,1,1945,20,3,Chinese,f,10,1,66.07005899,0.65624545
ZH,64,1,2024-06-14T08:26:48.904Z,english_99.wav,0,1,1945,20,3,Chinese,f,11,1.09391667,-60.54212183,1.79200877
ZH,65,1,2024-06-14T08:26:48.904Z,english_475.wav,0,1,598,20,3,Chinese,f,0,0,29.80961577,0.43821818
ZH,65,1,2024-06-14T08:26:48.904Z,english_475.wav,0,1,598,20,3,Chinese,f,1,0.1,48.86857013,0.91916023
ZH,65,1,2024-06-14T08:26:48.904Z,english_475.wav,0,1,598,20,3,Chinese,f,2,0.2,-75.87963709,1.43870603
ZH,65,1,2024-06-14T08:26:48.904Z,english_475.wav,0,1,598,20,3,Chinese,f,3,0.3,30.73642142,0.67232978
ZH,65,1,2024-06-14T08:26:48.904Z,english_475.wav,0,1,598,20,3,Chinese,f,4,0.4,-47.77384215,0.927705
ZH,65,1,2024-06-14T08:26:48.904Z,english_475.wav,0,1,598,20,3,Chinese,f,5,0.5,95.74069733,0.04190462
ZH,65,1,2024-06-14T08:26:48.904Z,english_475.wav,0,1,598,20,3,Chinese,f,6,0.6,49.89153758,1.51758055
ZH,65,1,2024-06-14T08:26:48.904Z,english_475.wav,0,1,598,20,3,Chinese,f,7,0.7,-93.96412935,1.81908107
ZH,65,1,2024-06-14T08:26:48.904Z,english_475.wav,0,1,598,20,3,Chinese,f,8,0.8,-13.00332235,1.60949708
ZH,65,1,2024-06-14T08:26:48.904Z,english_475.wav,0,1,598,20,3,Chinese,f,9,0.9,80.99885276,1.9985333
ZH,65,1,2024-06-14T08:26:48.904Z,english_475.wav,0,1,598,20,3,Chinese,f,10,1,-12.77273084,1.07792874
ZH,65,1,2024-06-14T08:26:48.904Z,english_475.wav,0,1,598,20,3,Chinese,f,11,1.09391667,-3.9803657,1.55358956
ZH,66,1,2024-06-14T08:26:48.904Z,english_7.wav,0,0,2187,20,3,Chinese,f,0,0,6.20403874,1.30974385
ZH,66,1,2024-06-14T08:26:48.904Z,english_7.wav,0,0,2187,20,3,Chinese,f,1,0.1,37.19731147,0.99661129
ZH,66,1,2024-06-14T08:26:48.904Z,english_7.wav,0,0,2187,20,3,Chinese,f,2,0.2,49.31472848,1.03745865
ZH,66,1,2024-06-14T08:26:48.904Z,english_7.wav,0,0,2187,20,3,Chinese,f,3,0.3,-90.70180435,1.78258145
ZH,66,1,2024-06-14T08:26:48.904Z,english_7.wav,0,0,2187,20,3,Chinese,f,4,0.4,27.47473692,0.46239098
ZH,66,1,2024-06-14T08:26:48.904Z,english_7.wav,0,0,2187,20,3,Chinese,f,5,0.5,15.65561706,1.16284284
ZH,66,1,2024-06-14T08:26:48.904Z,english_7.wav,0,0,2187,20,3,Chinese,f,6,0.6,67.99861593,0.54440065
ZH,66,1,2024-06-14T08:26:48.904Z,english_7.wav,0,0,2187,20,3,Chinese,f,7,0.7,-2.80792886,0.65589639
ZH,66,1,2024-06-14T08:26:48.904Z,english_7.wav,0,0,2187,20,3,Chinese,f,8,0.8,-17.20995774,0.81804206
ZH,66,1,2024-06-14T08:26:48.904Z,english_7.wav,0,0,2187,20,3,Chinese,f,9,0.9,38.34852693,0.8839338
ZH,66,1,2024-06-14T08:26:48.904Z,english_7.wav,0,0,2187,20,3,Chinese,f,10,1,6.34291962,0.72265374
ZH,66,1,2024-06-14T08:26:48.904Z,english_7.wav,0,0,2187,20,3,Chinese,f,11,1.09391667,-45.85734326,0.75155419
ZH,67,1,2024-06-14T08:26:48.904Z,english_214.wav,0,0,598,20,3,Chinese,f,0,0,77.66249847,1.66443393
ZH,67,1,2024-06-14T08:26:48.904Z,english_214.wav,0,0,598,20,3,Chinese,f,1,0.1,-66.26077856,1.37654428
ZH,67,1,2024-06-14T08:26:48.904Z,english_214.wav,0,0,598,20,3,Chinese,f,2,0.2,-51.4922282,1.40712663
ZH,67,1,2024-06-14T08:26:48.904Z,english_214.wav,0,0,598,20,3,Chinese,f,3,0.3,14.18659261,0.14412451
ZH,67,1,2024-06-14T08:26:48.904Z,english_214.wav,0,0,598,20,3,Chinese,f,4,0.4,-48.84743407,0.91551293
ZH,67,1,2024-06-14T08:26:48.904Z,english_214.wav,0,0,598,20,3,Chinese,f,5,0.5,19.47798934,0.32690142
ZH,67,1,2024-06-14T08:26:48.904Z,english_214.wav,0,0,598,20,3,Chinese,f,6,0.6,30.92446632,1.55465622
ZH,67,1,2024-06-14T08:26:48.904Z,english_214.wav,0,0,598,20,3,Chinese,f,7,0.7,-20.72955743,0.81533764
ZH,67,1,2024-06-14T08:26:48.904Z,english_214.wav,0,0,598,20,3,Chinese,f,8,0.8,-84.03788896,1.36872512
ZH,67,1,2024-06-14T08:26:48.904Z,english_214.wav,0,0,598,20,3,Chinese,f,9,0.9,1.19993411,0.61257248
ZH,67,1,2024-06-14T08:26:48.904Z,english_214.wav,0,0,598,20,3,Chinese,f,10,1,-10.67189742,1.2492197
ZH,67,1,2024-06-14T08:26:48.904Z,english_214.wav,0,0,598,20,3,Chinese,f,11,1.09391667,76.51495677,1.13872638
ZH,68,1,2024-06-14T08:26:48.904Z,english_164.wav,0,0,933,20,3,Chinese,f,0,0,25.67612046,1.60368468
ZH,68,1,2024-06-14T08:26:48.904Z,english_164.wav,0,0,933,20,3,Chinese,f,1,0.1,-73.22421847,0.71109799
ZH,68,1,2024-06-14T08:26:48.904Z,english_164.wav,0,0,933,20,3,Chinese,f,2,0.2,45.60415064,0.65921899
ZH,68,1,2024-06-14T08:26:48.904Z,english_164.wav,0,0,933,20,3,Chinese,f,3,0.3,93.27879502,1.59053842
ZH,68,1,2024-06-14T08:26:48.904Z,english_164.wav,0,0,933,20,3,Chinese,f,4,0.4,33.1762566,0.71799916
ZH,68,1,2024-06-14T08:26:48.904Z,english_164.wav,0,0,933,20,3,Chinese,f,5,0.5,47.64320434,1.2187377
ZH,68,1,2024-06-14T08:26:48.904Z,english_164.wav,0,0,933,20,3,Chinese,f,6,0.6,-19.19510789,1.25318934
ZH,68,1,2024-06-14T08:26:48.904Z,english_164.wav,0,0,933,20,3,Chinese,f,7,0.7,-33.42680653,0.56903982
ZH,68,1,2024-06-14T08:26:48.904Z,english_164.wav,0,0,933,20,3,Chinese,f,8,0.8,47.71435933,0.44355463
ZH,68,1,2024-06-14T08:26:48.904Z,english_164.wav,0,0,933,20,3,Chinese,f,9,0.9,5.90681892,1.65481096
ZH,68,1,2024-06-14T08:26:48.904Z,english_164.wav,0,0,933,20,3,Chinese,f,10,1,42.52423942,0.56871191
ZH,68,1,2024-06-14T08:26:48.904Z,english_164.wav,0,0,933,20,3,Chinese,f,11,1.09391667,43.22160039,0.29440298
ZH,69,1,2024-06-14T08:26:48.904Z,english_131.wav,0,1,852,20,3,Chinese,f,0,0,0.31363537,1.18724551
ZH,69,1,2024-06-14T08:26:48.904Z,english_131.wav,0,1,852,20,3,Chinese,f,1,0.1,36.71486201,1.11707061
ZH,69,1,2024-06-14T08:26:48.904Z,english_131.wav,0,1,852,20,3,Chinese,f,2,0.2,-43.77123754,0.00275246
ZH,69,1,2024-06-14T08:26:48.904Z,english_131.wav,0,1,852,20,3,Chinese,f,3,0.3,-25.02514695,1.15512468
ZH,69,1,2024-06-14T08:26:48.904Z,english_131.wav,0,1,852,20,3,Chinese,f,4,0.4,-57.33579205,1.12677457
ZH,69,1,2024-06-14T08:26:48.904Z,english_131.wav,0,1,852,20,3,Chinese,f,5,0.5,-86.86546268,1.05779514
ZH,69,1,2024-06-14T08:26:48.904Z,english_131.wav,0,1,852,20,3,Chinese,f,6,0.6,34.68309006,1.76361287
ZH,69,1,2024-06-14T08:26:48.904Z,english_131.wav,0,1,852,20,3,Chinese,f,7,0.7,-54.571254,1.49422438
ZH,69,1,2024-06-14T08:26:48.904Z,english_131.wav,0,1,852,20,3,Chinese,f,8,0.8,15.2602828,0.77084465
ZH,69,1,2024-06-14T08:26:48.904Z,english_131.wav,0,1,852,20,3,Chinese,f,9,0.9,37.40968803,0.77617306
ZH,69,1,2024-06-14T08:26:48.904Z,english_131.wav,0,1,852,20,3,Chinese,f,10,1,-75.44923375,0.87602882
ZH,69,1,2024-06-14T08:26:48.904Z,english_131.wav,0,1,852,20,3,Chinese,f,11,1.09391667,22.36121129,1.56580011
ZH,70,1,2024-06-14T08:26:48.904Z,english_840.wav,0,0,827,20,3,Chinese,f,0,0,26.56026625,0.58802825
ZH,70,1,2024-06-14T08:26:48.904Z,english_840.wav,0,0,827,20,3,Chinese,f,1,0.1,-45.76742425,0.34012551
ZH,70,1,2024-06-14T08:26:48.904Z,english_840.wav,0,0,827,20,3,Chinese,f,2,0.2,58.26038182,1.59409568
ZH,70,1,2024-06-14T08:26:48.904Z,english_840.wav,0,0,827,20,3,Chinese,f,3,0.3,-41.91368618,1.45145116
ZH,70,1,2024-06-14T08:26:48.904Z,english_840.wav,0,0,827,20,3,Chinese,f,4,0.4,51.82879955,1.12346348
ZH,70,1,2024-06-14T08:26:48.904Z,english_840.wav,0,0,827,20,3,Chinese,f,5,0.5,-58.1814991,0.72614378
ZH,70,1,2024-06-14T08:26:48.904Z,english_840.wav,0,0,827,20,3,Chinese,f,6,0.6,-6.21480863,0.0561304
ZH,70,1,2024-06-14T08:26:48.904Z,english_840.wav,0,0,827,20,3,Chinese,f,7,0.7,-38.35463557,1.05027211
ZH,70,1,2024-06-14T08:26:48.904Z,english_840.wav,0,0,827,20,3,Chinese,f,8,0.8,62.53471627,0.63772174
ZH,70,1,2024-06-14T08:26:48.904Z,english_840.wav,0,0,827,20,3,Chinese,f,9,0.9,-5.88618506,0.79180252
ZH,70,1,2024-06-14T08:26:48.904Z,english_840.wav,0,0,827,20,3,Chinese,f,10,1,-22.96620486,0.08952915
ZH,70,1,2024-06-14T08:26:48.904Z,english_840.wav,0,0,827,20,3,Chinese,f,11,1.09391667,38.90401131,0.46969462
ZH,71,1,2024-06-14T08:26:48.904Z,english_253.wav,0,0,800,20,3,Chinese,f,0,0,-76.54232622,1.69452202
ZH,71,1,2024-06-14T08:26:48.904Z,english_253.wav,0,0,800,20,3,Chinese,f,1,0.1,23.75797542,0.94155674
ZH,71,1,2024-06-14T08:26:48.904Z,english_253.wav,0,0,800,20,3,Chinese,f,2,0.2,-82.53055468,0.70353207
ZH,71,1,2024-06-14T08:26:48.904Z,english_253.wav,0,0,800,20,3,Chinese,f,3,0.3,19.65476927,1.42331271
ZH,71,1,2024-06-14T08:26:48.904Z,english_253.wav,0,0,800,20,3,Chinese,f,4,0.4,-55.81107988,1.11334266
ZH,71,1,2024-06-14T08:26:48.904Z,english_253.wav,0,0,800,20,3,Chinese,f,5,0.5,73.24574297,1.34927457
ZH,71,1,2024-06-14T08:26:48.904Z,english_253.wav,0,0,800,20,3,Chinese,f,6,0.6,-22.29926161,0.26375751
ZH,71,1,2024-06-14T08:26:48.904Z,english_253.wav,0,0,800,20,3,Chinese,f,7,0.7,-11.91242057,0.63100518
ZH,71,1,2024-06-14T08:26:48.904Z,english_253.wav,0,0,800,20,3,Chinese,f,8,0.8,-33.99896833,0.22145521
ZH,71,1,2024-06-14T08:26:48.904Z,english_253.wav,0,0,800,20,3,Chinese,f,9,0.9,32.30473406,0.69052847
ZH,71,1,2024-06-14T08:26:48.904Z,english_253.wav,0,0,800,20,3,Chinese,f,10,1,68.10745133,1.32352728
ZH,71,1,2024-06-14T08:26:48.904Z,english_253.wav,0,0,800,20,3,Chinese,f,11,1.09391667,-22.82824608,0.79605757
ZH,72,1,2024-06-14T08:26:48.904Z,english_867.wav,0,1,588,20,3,Chinese,f,0,0,-24.89816024,0.58295981
ZH,72,1,2024-06-14T08:26:48.904Z,english_867.wav,0,1,588,20,3,Chinese,f,1,0.1,-5.46882756,0.29098819
ZH,72,1,2024-06-14T08:26:48.904Z,english_867.wav,0,1,588,20,3,Chinese,f,2,0.2,20.19834057,1.14395964
ZH,72,1,2024-06-14T08:26:48.904Z,english_867.wav,0,1,588,20,3,Chinese,f,3,0.3,-93.32796435,1.65419487
ZH,72,1,2024-06-14T08:26:48.904Z,english_867.wav,0,1,588,20,3,Chinese,f,4,0.4,33.67014856,0.61503003
ZH,72,1,2024-06-14T08:26:48.904Z,english_867.wav,0,1,588,20,3,Chinese,f,5,0.5,-35.81311347,0.19208338
ZH,72,1,2024-06-14T08:26:48.904Z,english_867.wav,0,1,588,20,3,Chinese,f,6,0.6,3.8400964,1.34794824
ZH,72,1,2024-06-14T08:26:48.904Z,english_867.wav,0,1,588,20,3,Chinese,f,7,0.7,36.13382858,0.71921044
ZH,72,1,2024-06-14T08:26:48.904Z,english_867.wav,0,1,588,20,3,Chinese,f,8,0.8,70.00228028,1.86066536
ZH,72,1,2024-06-14T08:26:48.904Z,english_867.wav,0,1,588,20,3,Chinese,f,9,0.9,81.61272395,0.96263601
ZH,72,1,2024-06-14T08:26:48.904Z,english_867.wav,0,1,588,20,3,Chinese,f,10,1,-46.82426053,1.18263142
ZH,72,1,2024-06-14T08:26:48.904Z,english_867.wav,0,1,588,20,3,Chinese,f,11,1.09391667,21.97193379,1.25802514
ZH,73,1,2024-06-14T08:26:48.904Z,english_981.wav,0,0,950,20,3,Chinese,f,0,0,24.3055989,1.29303253
ZH,73,1,2024-06-14T08:26:48.904Z,english_981.wav,0,0,950,20,3,Chinese,f,1,0.1,28.97891723,1.06779992
ZH,73,1,2024-06-14T08:26:48.904Z,english_981.wav,0,0,950,20,3,Chinese,f,2,0.2,51.4418758,1.11588817
ZH,73,1,2024-06-14T08:26:48.904Z,english_981.wav,0,0,950,20,3,Chinese,f,3,0.3,-41.6425055,1.45059858
ZH,73,1,2024-06-14T08:26:48.904Z,english_981.wav,0,0,950,20,3,Chinese,f,4,0.4,-6.63622722,0.93926956
ZH,73,1,2024-06-14T08:26:48.904Z,english_981.wav,0,0,950,20,3,Chinese,f,5,0.5,90.98935315,0.09427917
ZH,73,1,2024-06-14T08:26:48.904Z,english_981.wav,0,0,950,20,3,Chinese,f,6,0.6,-91.30627378,0.99584654
ZH,73,1,2024-06-14T08:26:48.904Z,english_981.wav,0,0,950,20,3,Chinese,f,7,0.7,-70.54702949,1.20164622
ZH,73,1,2024-06-14T08:26:48.904Z,english_981.wav,0,0,950,20,3,Chinese,f,8,0.8,37.31249144,1.37323006
ZH,73,1,2024-06-14T08:26:48.904Z,english_981.wav,0,0,950,20,3,Chinese,f,9,0.9,44.20519134,0.98395355
ZH,73,1,2024-06-14T08:26:48.904Z,english_981.wav,0,0,950,20,3,Chinese,f,10,1,-85.22636705,0.17020531
ZH,73,1,2024-06-14T08:26:48.904Z,english_981.wav,0,0,950,20,3,Chinese,f,11,1.09391667,33.48956199,0.83321676
ZH,74,1,2024-06-14T08:26:48.904Z,english_125.wav,0,1,343,20,3,Chinese,f,0,0,37.27554733,0.5612227
ZH,74,1,2024-06-14T08:26:48.904Z,english_125.wav,0,1,343,20,3,Chinese,f,1,0.1,24.29830201,1.75747345
ZH,74,1,2024-06-14T08:26:48.904Z,english_125.wav,0,1,343,20,3,Chinese,f,2,0.2,-43.3040728,1.33602667
ZH,74,1,2024-06-14T08:26:48.904Z,english_125.wav,0,1,343,20,3,Chinese,f,3,0.3,32.63559677,0.25379983
ZH,74,1,2024-06-14T08:26:48.904Z,english_125.wav,0,1,343,20,3,Chinese,f,4,0.4,65.75819377,0.46765889
ZH,74,1,2024-06-14T08:26:48.904Z,english_125.wav,0,1,343,20,3,Chinese,f,5,0.5,93.24268126,0.0945868
ZH,74,1,2024-06-14T08:26:48.904Z,english_125.wav,0,1,343,20,3,Chinese,f,6,0.6,-15.30697981,1.31767057
ZH,74,1,2024-06-14T08:26:48.904Z,english_125.wav,0,1,343,20,3,Chinese,f,7,0.7,92.42760244,0.46721292
ZH,74,1,2024-06-14T08:26:48.904Z,english_125.wav,0,1,343,20,3,Chinese,f,8,0.8,43.95412796,1.38944415
ZH,74,1,2024-06-14T08:26:48.904Z,english_125.wav,0,1,343,20,3,Chinese,f,9,0.9,15.32237433,1.70361777
ZH,74,1,2024-06-14T08:26:48.904Z,english_125.wav,0,1,343,20,3,Chinese,f,10,1,-94.44407427,0.93528665
ZH,74,1,2024-06-14T08:26:48.904Z,english_125.wav,0,1,343,20,3,Chinese,f,11,1.09391667,87.09346239,1.20335548
ZH,75,1,2024-06-14T08:26:48.904Z,english_545.wav,0,0,328,20,3,Chinese,f,0,0,-99.01008517,0.51580829
ZH,75,1,2024-06-14T08:26:48.904Z,english_545.wav,0,0,328,20,3,Chinese,f,1,0.1,65.47335851,0.53489733
ZH,75,1,2024-06-14T08:26:48.904Z,english_545.wav,0,0,328,20,3,Chinese,f,2,0.2,-84.28840174,1.28091178
ZH,75,1,2024-06-14T08:26:48.904Z,english_545.wav,0,0,328,20,3,Chinese,f,3,0.3,-53.2257253,1.83272888
ZH,75,1,2024-06-14T08:26:48.904Z,english_545.wav,0,0,328,20,3,Chinese,f,4,0.4,-67.85056043,0.88291171
ZH,75,1,2024-06-14T08:26:48.904Z,english_545.wav,0,0,328,20,3,Chinese,f,5,0.5,-22.57245088,0.35382027
ZH,75,1,2024-06-14T08:26:48.904Z,english_545.wav,0,0,328,20,3,Chinese,f,6,0.6,-0.78864791,1.57508052
ZH,75,1,2024-06-14T08:26:48.904Z,english_545.wav,0,0,328,20,3,Chinese,f,7,0.7,17.40611159,0.29019895
ZH,75,1,2024-06-14T08:26:48.904Z,english_545.wav,0,0,328,20,3,Chinese,f,8,0.8,62.9168566,1.37661243
ZH,75,1,2024-06-14T08:26:48.904Z,english_545.wav,0,0,328,20,3,Chinese,f,9,0.9,32.36790846,0.94083914
ZH,75,1,2024-06-14T08:26:48.904Z,english_545.wav,0,0,328,20,3,Chinese,f,10,1,-91.70599266,1.54827837
ZH,75,1,2024-06-14T08:26:48.904Z,english_545.wav,0,0,328,20,3,Chinese,f,11,1.09391667,50.31108328,0.28023548
ZH,76,1,2024-06-14T08:26:48.904Z,english_217.wav,0,0,823,20,3,Chinese,f,0,0,49.03427647,0.32664973
ZH,76,1,2024-06-14T08:26:48.904Z,english_217.wav,0,0,823,20,3,Chinese,f,1,0.1,55.51339481,1.39032489
ZH,76,1,2024-06-14T08:26:48.904Z,english_217.wav,0,0,823,20,3,Chinese,f,2,0.2,8.85342812,0.17335256
ZH,76,1,2024-06-14T08:26:48.904Z,english_217.wav,0,0,823,20,3,Chinese,f,3,0.3,38.54994366,0.12434027
ZH,76,1,2024-06-14T08:26:48.904Z,english_217.wav,0,0,823,20,3,Chinese,f,4,0.4,-2.70833959,1.97912601
ZH,76,1,2024-06-14T08:26:48.904Z,english_217.wav,0,0,823,20,3,Chinese,f,5,0.5,70.3938548,0.49508024
ZH,76,1,2024-06-14T08:26:48.904Z,english_217.wav,0,0,823,20,3,Chinese,f,6,0.6,5.12480722,1.41080808
ZH,76,1,2024-06-14T08:26:48.904Z,english_217.wav,0,0,823,20,3,Chinese,f,7,0.7,-74.03796069,0.59237566
ZH,76,1,2024-06-14T08:26:48.904Z,english_217.wav,0,0,823,20,3,Chinese,f,8,0.8,-33.3486243,0.51007366
ZH,76,1,2024-06-14T08:26:48.904Z,english_217.wav,0,0,823,20,3,Chinese,f,9,0.9,-40.28599149,0.60232464
ZH,76,1,2024-06-14T08:26:48.904Z,english_217.wav,0,0,823,20,3,Chinese,f,10,1,19.2288181,0.62471618
ZH,76,1,2024-06-14T08:26:48.904Z,english_217.wav,0,0,823,20,3,Chinese,f,11,1.09391667,28.27107092,0.07651966
ZH,77,1,2024-06-14T08:26:48.904Z,english_354.wav,0,0,779,20,3,Chinese,f,0,0,-28.87420486,0.20754018
ZH,77,1,2024-06-14T08:26:48.904Z,english_354.wav,0,0,779,20,3,Chinese,f,1,0.1,-23.35112853,1.88177303
ZH,77,1,2024-06-14T08:26:48.904Z,english_354.wav,0,0,779,20,3,Chinese,f,2,0.2,5.36311679,1.60863404
ZH,77,1,2024-06-14T08:26:48.904Z,english_354.wav,0,0,779,20,3,Chinese,f,3,0.3,88.42745553,0.83478671
ZH,77,1,2024-06-14T08:26:48.904Z,english_354.wav,0,0,779,20,3,Chinese,f,4,0.4,2.47520697,1.51310965
ZH,77,1,2024-06-14T08:26:48.904Z,english_354.wav,0,0,779,20,3,Chinese,f,5,0.5,46.1200008,1.04317866
ZH,77,1,2024-06-14T08:26:48.904Z,english_354.wav,0,0,779,20,3,Chinese,f,6,0.6,-18.78131858,0.09474749
ZH,77,1,2024-06-14T08:26:48.904Z,english_354.wav,0,0,779,20,3,Chinese,f,7,0.7,-50.4047441,1.6889762
ZH,77,1,2024-06-14T08:26:48.904Z,english_354.wav,0,0,779,20,3,Chinese,f,8,0.8,70.60844452,0.35231613
ZH,77,1,2024-06-14T08:26:48.904Z,english_354.wav,0,0,779,20,3,Chinese,f,9,0.9,-79.1017332,0.20561504
ZH,77,1,2024-06-14T08:26:48.904Z,english_354.wav,0,0,779,20,3,Chinese,f,10,1,-66.82350364,0.40462269
ZH,77,1,2024-06-14T08:26:48.904Z,english_354.wav,0,0,779,20,3,Chinese,f,11,1.09391667,-48.20226443,0.51831425
ZH,78,1,2024-06-14T08:26:48.904Z,english_484.wav,0,1,580,20,3,Chinese,f,0,0,2.0569585,0.34651955
ZH,78,1,2024-06-14T08:26:48.904Z,english_484.wav,0,1,580,20,3,Chinese,f,1,0.1,-79.1484241,1.84776357
ZH,78,1,2024-06-14T08:26:48.904Z,english_484.wav,0,1,580,20,3,Chinese,f,2,0.2,30.9033229,1.82203066
ZH,78,1,2024-06-14T08:26:48.904Z,english_484.wav,0,1,580,20,3,Chinese,f,3,0.3,12.05929197,1.56778111
ZH,78,1,2024-06-14T08:26:48.904Z,english_484.wav,0,1,580,20,3,Chinese,f,4,0.4,-72.8204973,1.22252397
ZH,78,1,2024-06-14T08:26:48.904Z,english_484.wav,0,1,580,20,3,Chinese,f,5,0.5,-89.96387514,1.78789861
ZH,78,1,2024-06-14T08:26:48.904Z,english_484.wav,0,1,580,20,3,Chinese,f,6,0.6,-22.94210609,0.02218534
ZH,78,1,2024-06-14T08:26:48.904Z,english_484.wav,0,1,580,20,3,Chinese,f,7,0.7,17.91925192,1.7744569
ZH,78,1,2024-06-14T08:26:48.904Z,english_484.wav,0,1,580,20,3,Chinese,f,8,0.8,-62.01555508,1.27917124
ZH,78,1,2024-06-14T08:26:48.904Z,english_484.wav,0,1,580,20,3,Chinese,f,9,0.9,-43.27412131,1.76665807
ZH,78,1,2024-06-14T08:26:48.904Z,english_484.wav,0,1,580,20,3,Chinese,f,10,1,0.91553281,1.1189794
ZH,78,1,2024-06-14T08:26:48.904Z,english_484.wav,0,1,580,20,3,Chinese,f,11,1.09391667,-32.68645572,0.68984214
ZH,79,1,2024-06-14T08:26:48.904Z,english_347.wav,0,1,1278,20,3,Chinese,f,0,0,-77.92779138,1.02669822
ZH,79,1,2024-06-14T08:26:48.904Z,english_347.wav,0,1,1278,20,3,Chinese,f,1,0.1,-64.69220677,0.41696548
ZH,79,1,2024-06-14T08:26:48.904Z,english_347.wav,0,1,1278,20,3,Chinese,f,2,0.2,-52.71418659,1.03112891
ZH,79,1,2024-06-14T08:26:48.904Z,english_347.wav,0,1,1278,20,3,Chinese,f,3,0.3,63.39772469,0.20004082
ZH,79,1,2024-06-14T08:26:48.904Z,english_347.wav,0,1,1278,20,3,Chinese,f,4,0.4,28.65691045,0.24296187
ZH,79,1,2024-06-14T08:26:48.904Z,english_347.wav,0,1,1278,20,3,Chinese,f,5,0.5,-54.91733511,0.01939813
ZH,79,1,2024-06-14T08:26:48.904Z,english_347.wav,0,1,1278,20,3,Chinese,f,6,0.6,28.83719113,1.71588951
ZH,79,1,2024-06-14T08:26:48.904Z,english_347.wav,0,1,1278,20,3,Chinese,f,7,0.7,71.325035,0.13307252
ZH,79,1,2024-06-14T08:26:48.904Z,english_347.wav,0,1,1278,20,3,Chinese,f,8,0.8,64.29714523,0.90631223
ZH,79,1,2024-06-14T08:26:48.904Z,english_347.wav,0,1,1278,20,3,Chinese,f,9,0.9,-52.51835147,1.74084271
ZH,79,1,2024-06-14T08:26:48.904Z,english_347.wav,0,1,1278,20,3,Chinese,f,10,1,-41.65784487,0.63465457
ZH,79,1,2024-06-14T08:26:48.904Z,english_347.wav,0,1,1278,20,3,Chinese,f,11,1.09391667,-56.27332848,1.27137416
ZH,80,1,2024-06-14T08:26:48.904Z,english_418.wav,0,0,711,20,3,Chinese,f,0,0,17.48179392,1.16767435
ZH,80,1,2024-06-14T08:26:48.904Z,english_418.wav,0,0,711,20,3,Chinese,f,1,0.1,-20.93259057,1.12895723
ZH,80,1,2024-06-14T08:26:48.904Z,english_418.wav,0,0,711,20,3,Chinese,f,2,0.2,38.48191575,0.3034601
ZH,80,1,2024-06-14T08:26:48.904Z,english_418.wav,0,0,711,20,3,Chinese,f,3,0.3,-43.04758346,1.48058882
ZH,80,1,2024-06-14T08:26:48.904Z,english_418.wav,0,0,711,20,3,Chinese,f,4,0.4,-27.49631219,0.85133692
ZH,80,1,2024-06-14T08:26:48.904Z,english_418.wav,0,0,711,20,3,Chinese,f,5,0.5,-43.30662093,1.76317004
ZH,80,1,2024-06-14T08:26:48.904Z,english_418.wav,0,0,711,20,3,Chinese,f,6,0.6,-11.80067145,0.40561242
ZH,80,1,2024-06-14T08:26:48.904Z,english_418.wav,0,0,711,20,3,Chinese,f,7,0.7,-65.69750473,0.69119528
ZH,80,1,2024-06-14T08:26:48.904Z,english_418.wav,0,0,711,20,3,Chinese,f,8,0.8,36.09713106,0.70403422
ZH,80,1,2024-06-14T08:26:48.904Z,english_418.wav,0,0,711,20,3,Chinese,f,9,0.9,-89.16917769,0.50785509
ZH,80,1,2024-06-14T08:26:48.904Z,english_418.wav,0,0,711,20,3,Chinese,f,10,1,-11.53730863,0.15277714
ZH,80,1,2024-06-14T08:26:48.904Z,english_418.wav,0,0,711,20,3,Chinese,f,11,1.09391667,91.60971419,0.42464397
ZH,81,1,2024-06-14T08:26:48.904Z,english_505.wav,0,0,647,20,3,Chinese,f,0,0,91.23085556,0.82413934
ZH,81,1,2024-06-14T08:26:48.904Z,english_505.wav,0,0,647,20,3,Chinese,f,1,0.1,-15.55826488,0.35004659
ZH,81,1,2024-06-14T08:26:48.904Z,english_505.wav,0,0,647,20,3,Chinese,f,2,0.2,12.35940028,1.21560266
ZH,81,1,2024-06-14T08:26:48.904Z,english_505.wav,0,0,647,20,3,Chinese,f,3,0.3,-0.93203898,1.75278196
ZH,81,1,2024-06-14T08:26:48.904Z,english_505.wav,0,0,647,20,3,Chinese,f,4,0.4,98.55638555,1.03675584
ZH,81,1,2024-06-14T08:26:48.904Z,english_505.wav,0,0,647,20,3,Chinese,f,5,0.5,89.84667018,1.84604412
ZH,81,1,2024-06-14T08:26:48.904Z,english_505.wav,0,0,647,20,3,Chinese,f,6,0.6,61.88853531,0.6105869
ZH,81,1,2024-06-14T08:26:48.904Z,english_505.wav,0,0,647,20,3,Chinese,f,7,0.7,19.66566337,1.77513514
ZH,81,1,2024-06-14T08:26:48.904Z,english_505.wav,0,0,647,20,3,Chinese,f,8,0.8,-99.77897317,0.3232423
ZH,81,1,2024-06-14T08:26:48.904Z,english_505.wav,0,0,647,20,3,Chinese,f,9,0.9,-24.29755532,0.91185212
ZH,81,1,2024-06-14T08:26:48.904Z,english_505.wav,0,0,647,20,3,Chinese,f,10,1,67.47807651,1.75020631
