subj,trial,block,date,stim,stim_order,response,rt,age,english,language,sex,param_index,segment,pitch,stretch
MJH_0924,0,0,2024-06-16T01:23:55.170Z,english_317.wav,0,0,2681,,,,,0,0,35.80517537,1.51358533
MJH_0924,0,0,2024-06-16T01:23:55.170Z,english_317.wav,0,0,2681,,,,,1,0.1,-47.20528256,0.29972078
MJH_0924,0,0,2024-06-16T01:23:55.170Z,english_317.wav,0,0,2681,,,,,2,0.2,10.16864163,1.18281069
MJH_0924,0,0,2024-06-16T01:23:55.170Z,english_317.wav,0,0,2681,,,,,3,0.3,32.59206289,1.39231518
MJH_0924,0,0,2024-06-16T01:23:55.170Z,english_317.wav,0,0,2681,,,,,4,0.4,20.53754814,1.77974686
MJH_0924,0,0,2024-06-16T01:23:55.170Z,english_317.wav,0,0,2681,,,,,5,0.5,-78.8593211,1.1695001
MJH_0924,0,0,2024-06-16T01:23:55.170Z,english_317.wav,0,0,2681,,,,,6,0.6,-97.96541086,1.77666203
MJH_0924,0,0,2024-06-16T01:23:55.170Z,english_317.wav,0,0,2681,,,,,7,0.7,49.60543729,0.8164879
MJH_0924,0,0,2024-06-16T01:23:55.170Z,english_317.wav,0,0,2681,,,,,8,0.8,-69.92457952,0.08502592
MJH_0924,0,0,2024-06-16T01:23:55.170Z,english_317.wav,0,0,2681,,,,,9,0.9,-3.69767957,1.29069951
MJH_0924,0,0,2024-06-16T01:23:55.170Z,english_317.wav,0,0,2681,,,,,10,1,-3.35302539,0.64002495
MJH_0924,0,0,2024-06-16T01:23:55.170Z,english_317.wav,0,0,2681,,,,,11,1.09391667,29.32411719,1.74584587
MJH_0924,1,0,2024-06-16T01:23:55.170Z,english_462.wav,0,0,1440,,,,,0,0,78.76621738,0.83121963
MJH_0924,1,0,2024-06-16T01:23:55.170Z,english_462.wav,0,0,1440,,,,,1,0.1,31.47495931,1.43506309
MJH_0924,1,0,2024-06-16T01:23:55.170Z,english_462.wav,0,0,1440,,,,,2,0.2,-13.74936046,0.97721307
MJH_0924,1,0,2024-06-16T01:23:55.170Z,english_462.wav,0,0,1440,,,,,3,0.3,-80.17251448,0.92562125
MJH_0924,1,0,2024-06-16T01:23:55.170Z,english_462.wav,0,0,1440,,,,,4,0.4,-78.67939132,0.04016866
MJH_0924,1,0,2024-06-16T01:23:55.170Z,english_462.wav,0,0,1440,,,,,5,0.5,43.51355655,0.46288791
MJH_0924,1,0,2024-06-16T01:23:55.170Z,english_462.wav,0,0,1440,,,,,6,0.6,3.64631971,1.76703425
MJH_0924,1,0,2024-06-16T01:23:55.170Z,english_462.wav,0,0,1440,,,,,7,0.7,-45.69022839,1.40353438
MJH_0924,1,0,2024-06-16T01:23:55.170Z,english_462.wav,0,0,1440,,,,,8,0.8,-12.47954209,0.01443424
MJH_0924,1,0,2024-06-16T01:23:55.170Z,english_462.wav,0,0,1440,,,,,9,0.9,-13.33411056,0.75223744
MJH_0924,1,0,2024-06-16T01:23:55.170Z,english_462.wav,0,0,1440,,,,,10,1,14.72637348,0.69611535
MJH_0924,1,0,2024-06-16T01:23:55.170Z,english_462.wav,0,0,1440,,,,,11,1.09391667,-47.88617719,0.81633503
MJH_0924,2,0,2024-06-16T01:23:55.170Z,english_764.wav,0,1,52424,,,,,0,0,-83.00734362,1.43154352
MJH_0924,2,0,2024-06-16T01:23:55.170Z,english_764.wav,0,1,52424,,,,,1,0.1,84.10171544,1.56325347
MJH_0924,2,0,2024-06-16T01:23:55.170Z,english_764.wav,0,1,52424,,,,,2,0.2,49.2008901,1.26543708
MJH_0924,2,0,2024-06-16T01:23:55.170Z,english_764.wav,0,1,52424,,,,,3,0.3,-10.6841825,0.423798415
MJH_0924,2,0,2024-06-16T01:23:55.170Z,english_764.wav,0,1,52424,,,,,4,0.4,-4.51825693,1.27376863
MJH_0924,2,0,2024-06-16T01:23:55.170Z,english_764.wav,0,1,52424,,,,,5,0.5,13.05855171,0.758380694
MJH_0924,2,0,2024-06-16T01:23:55.170Z,english_764.wav,0,1,52424,,,,,6,0.6,-89.35484482,0.001003512
MJH_0924,2,0,2024-06-16T01:23:55.170Z,english_764.wav,0,1,52424,,,,,7,0.7,31.98534685,0.899071383
MJH_0924,2,0,2024-06-16T01:23:55.170Z,english_764.wav,0,1,52424,,,,,8,0.8,-75.69390241,1.10287579
MJH_0924,2,0,2024-06-16T01:23:55.170Z,english_764.wav,0,1,52424,,,,,9,0.9,27.20832849,1.25133293
MJH_0924,2,0,2024-06-16T01:23:55.170Z,english_764.wav,0,1,52424,,,,,10,1,56.31930051,1.83305733
MJH_0924,2,0,2024-06-16T01:23:55.170Z,english_764.wav,0,1,52424,,,,,11,1.09391667,-35.91935055,1.51505239
MJH_0924,3,0,2024-06-16T01:23:55.170Z,english_506.wav,0,1,1036,,,,,0,0,-13.3952031,0.85990944
MJH_0924,3,0,2024-06-16T01:23:55.170Z,english_506.wav,0,1,1036,,,,,1,0.1,8.8632007,0.40173642
MJH_0924,3,0,2024-06-16T01:23:55.170Z,english_506.wav,0,1,1036,,,,,2,0.2,-83.95985859,0.03154553
MJH_0924,3,0,2024-06-16T01:23:55.170Z,english_506.wav,0,1,1036,,,,,3,0.3,38.02193565,0.39528278
MJH_0924,3,0,2024-06-16T01:23:55.170Z,english_506.wav,0,1,1036,,,,,4,0.4,29.61638046,0.64999614
MJH_0924,3,0,2024-06-16T01:23:55.170Z,english_506.wav,0,1,1036,,,,,5,0.5,91.08087873,0.76132632
MJH_0924,3,0,2024-06-16T01:23:55.170Z,english_506.wav,0,1,1036,,,,,6,0.6,45.85080553,0.84020916
MJH_0924,3,0,2024-06-16T01:23:55.170Z,english_506.wav,0,1,1036,,,,,7,0.7,15.18618823,1.25961369
MJH_0924,3,0,2024-06-16T01:23:55.170Z,english_506.wav,0,1,1036,,,,,8,0.8,7.43914734,1.02786985
MJH_0924,3,0,2024-06-16T01:23:55.170Z,english_506.wav,0,1,1036,,,,,9,0.9,90.87583829,1.37241819
MJH_0924,3,0,2024-06-16T01:23:55.170Z,english_506.wav,0,1,1036,,,,,10,1,-85.58318538,0.76507647
MJH_0924,3,0,2024-06-16T01:23:55.170Z,english_506.wav,0,1,1036,,,,,11,1.09391667,-68.83720883,1.93766079
MJH_0924,4,0,2024-06-16T01:23:55.170Z,english_302.wav,0,1,937,,,,,0,0,22.32512828,1.43751276
MJH_0924,4,0,2024-06-16T01:23:55.170Z,english_302.wav,0,1,937,,,,,1,0.1,-34.68493306,1.04855025
MJH_0924,4,0,2024-06-16T01:23:55.170Z,english_302.wav,0,1,937,,,,,2,0.2,-60.33048789,0.11748708
MJH_0924,4,0,2024-06-16T01:23:55.170Z,english_302.wav,0,1,937,,,,,3,0.3,-66.33131812,1.014131
MJH_0924,4,0,2024-06-16T01:23:55.170Z,english_302.wav,0,1,937,,,,,4,0.4,61.16500984,1.52698955
MJH_0924,4,0,2024-06-16T01:23:55.170Z,english_302.wav,0,1,937,,,,,5,0.5,49.23692814,1.28665313
MJH_0924,4,0,2024-06-16T01:23:55.170Z,english_302.wav,0,1,937,,,,,6,0.6,18.80850389,1.64816454
MJH_0924,4,0,2024-06-16T01:23:55.170Z,english_302.wav,0,1,937,,,,,7,0.7,91.26807024,0.26189179
MJH_0924,4,0,2024-06-16T01:23:55.170Z,english_302.wav,0,1,937,,,,,8,0.8,51.0661189,1.3962077
MJH_0924,4,0,2024-06-16T01:23:55.170Z,english_302.wav,0,1,937,,,,,9,0.9,-89.83945555,0.53648677
MJH_0924,4,0,2024-06-16T01:23:55.170Z,english_302.wav,0,1,937,,,,,10,1,-75.19546708,1.41713481
MJH_0924,4,0,2024-06-16T01:23:55.170Z,english_302.wav,0,1,937,,,,,11,1.09391667,-66.5337051,0.68271313
MJH_0924,5,0,2024-06-16T01:23:55.170Z,english_509.wav,0,0,2318,,,,,0,0,-60.47633283,1.8433091
MJH_0924,5,0,2024-06-16T01:23:55.170Z,english_509.wav,0,0,2318,,,,,1,0.1,62.43182062,0.67753575
MJH_0924,5,0,2024-06-16T01:23:55.170Z,english_509.wav,0,0,2318,,,,,2,0.2,-89.10254598,0.6228286
MJH_0924,5,0,2024-06-16T01:23:55.170Z,english_509.wav,0,0,2318,,,,,3,0.3,-56.00324349,1.20175852
MJH_0924,5,0,2024-06-16T01:23:55.170Z,english_509.wav,0,0,2318,,,,,4,0.4,-22.97503075,0.68327781
MJH_0924,5,0,2024-06-16T01:23:55.170Z,english_509.wav,0,0,2318,,,,,5,0.5,-10.58010289,1.6981399
MJH_0924,5,0,2024-06-16T01:23:55.170Z,english_509.wav,0,0,2318,,,,,6,0.6,41.52809509,1.77808046
MJH_0924,5,0,2024-06-16T01:23:55.170Z,english_509.wav,0,0,2318,,,,,7,0.7,11.42336317,0.9915964
MJH_0924,5,0,2024-06-16T01:23:55.170Z,english_509.wav,0,0,2318,,,,,8,0.8,-33.49389875,1.58247003
MJH_0924,5,0,2024-06-16T01:23:55.170Z,english_509.wav,0,0,2318,,,,,9,0.9,-76.54160855,0.51702523
MJH_0924,5,0,2024-06-16T01:23:55.170Z,english_509.wav,0,0,2318,,,,,10,1,67.53120636,1.67242009
MJH_0924,5,0,2024-06-16T01:23:55.170Z,english_509.wav,0,0,2318,,,,,11,1.09391667,52.42137891,0.41732509
MJH_0924,6,0,2024-06-16T01:23:55.170Z,english_314.wav,0,0,5171,,,,,0,0,-72.77248659,0.8900907
MJH_0924,6,0,2024-06-16T01:23:55.170Z,english_314.wav,0,0,5171,,,,,1,0.1,-16.3777023,0.59416925
MJH_0924,6,0,2024-06-16T01:23:55.170Z,english_314.wav,0,0,5171,,,,,2,0.2,-54.89367252,1.27689755
MJH_0924,6,0,2024-06-16T01:23:55.170Z,english_314.wav,0,0,5171,,,,,3,0.3,-94.61910998,0.70275331
MJH_0924,6,0,2024-06-16T01:23:55.170Z,english_314.wav,0,0,5171,,,,,4,0.4,-16.43986335,1.42732001
MJH_0924,6,0,2024-06-16T01:23:55.170Z,english_314.wav,0,0,5171,,,,,5,0.5,22.95549902,0.51357734
MJH_0924,6,0,2024-06-16T01:23:55.170Z,english_314.wav,0,0,5171,,,,,6,0.6,-38.50046808,1.78706659
MJH_0924,6,0,2024-06-16T01:23:55.170Z,english_314.wav,0,0,5171,,,,,7,0.7,94.4546569,0.51196802
MJH_0924,6,0,2024-06-16T01:23:55.170Z,english_314.wav,0,0,5171,,,,,8,0.8,-37.64043119,0.29950004
MJH_0924,6,0,2024-06-16T01:23:55.170Z,english_314.wav,0,0,5171,,,,,9,0.9,48.39030237,0.69158189
MJH_0924,6,0,2024-06-16T01:23:55.170Z,english_314.wav,0,0,5171,,,,,10,1,-45.26638295,0.28421865
MJH_0924,6,0,2024-06-16T01:23:55.170Z,english_314.wav,0,0,5171,,,,,11,1.09391667,-45.55554074,1.42591163
MJH_0924,7,0,2024-06-16T01:23:55.170Z,english_25.wav,0,0,643,,,,,0,0,-3.04072315,0.82619881
MJH_0924,7,0,2024-06-16T01:23:55.170Z,english_25.wav,0,0,643,,,,,1,0.1,-7.71178933,0.19533878
MJH_0924,7,0,2024-06-16T01:23:55.170Z,english_25.wav,0,0,643,,,,,2,0.2,-42.18636208,1.08277914
MJH_0924,7,0,2024-06-16T01:23:55.170Z,english_25.wav,0,0,643,,,,,3,0.3,-34.45077435,1.14412535
MJH_0924,7,0,2024-06-16T01:23:55.170Z,english_25.wav,0,0,643,,,,,4,0.4,-84.66227969,1.20529311
MJH_0924,7,0,2024-06-16T01:23:55.170Z,english_25.wav,0,0,643,,,,,5,0.5,-92.64439035,1.74650044
MJH_0924,7,0,2024-06-16T01:23:55.170Z,english_25.wav,0,0,643,,,,,6,0.6,-61.14666871,0.43899038
MJH_0924,7,0,2024-06-16T01:23:55.170Z,english_25.wav,0,0,643,,,,,7,0.7,-3.59823801,0.82830315
MJH_0924,7,0,2024-06-16T01:23:55.170Z,english_25.wav,0,0,643,,,,,8,0.8,-55.86599887,0.29447237
MJH_0924,7,0,2024-06-16T01:23:55.170Z,english_25.wav,0,0,643,,,,,9,0.9,70.71897097,0.99577412
MJH_0924,7,0,2024-06-16T01:23:55.170Z,english_25.wav,0,0,643,,,,,10,1,-41.59717756,1.79017757
MJH_0924,7,0,2024-06-16T01:23:55.170Z,english_25.wav,0,0,643,,,,,11,1.09391667,45.33564492,1.70871786
MJH_0924,8,0,2024-06-16T01:23:55.170Z,english_212.wav,0,1,1471,,,,,0,0,7.28178662,1.69718484
MJH_0924,8,0,2024-06-16T01:23:55.170Z,english_212.wav,0,1,1471,,,,,1,0.1,53.30309055,0.86840916
MJH_0924,8,0,2024-06-16T01:23:55.170Z,english_212.wav,0,1,1471,,,,,2,0.2,9.81131056,0.62741544
MJH_0924,8,0,2024-06-16T01:23:55.170Z,english_212.wav,0,1,1471,,,,,3,0.3,-90.32961485,1.93796864
MJH_0924,8,0,2024-06-16T01:23:55.170Z,english_212.wav,0,1,1471,,,,,4,0.4,16.20847807,1.96151684
MJH_0924,8,0,2024-06-16T01:23:55.170Z,english_212.wav,0,1,1471,,,,,5,0.5,-12.76815096,0.98998478
MJH_0924,8,0,2024-06-16T01:23:55.170Z,english_212.wav,0,1,1471,,,,,6,0.6,93.86097069,1.74396039
MJH_0924,8,0,2024-06-16T01:23:55.170Z,english_212.wav,0,1,1471,,,,,7,0.7,39.57297318,1.59359998
MJH_0924,8,0,2024-06-16T01:23:55.170Z,english_212.wav,0,1,1471,,,,,8,0.8,-19.22688735,1.3284153
MJH_0924,8,0,2024-06-16T01:23:55.170Z,english_212.wav,0,1,1471,,,,,9,0.9,-71.99383643,1.90824048
MJH_0924,8,0,2024-06-16T01:23:55.170Z,english_212.wav,0,1,1471,,,,,10,1,5.42324024,1.38687745
MJH_0924,8,0,2024-06-16T01:23:55.170Z,english_212.wav,0,1,1471,,,,,11,1.09391667,-66.1565739,0.48487656
MJH_0924,9,0,2024-06-16T01:23:55.170Z,english_278.wav,0,0,863,,,,,0,0,-96.72610313,0.83439052
MJH_0924,9,0,2024-06-16T01:23:55.170Z,english_278.wav,0,0,863,,,,,1,0.1,-36.86809982,1.21055498
MJH_0924,9,0,2024-06-16T01:23:55.170Z,english_278.wav,0,0,863,,,,,2,0.2,-84.24626192,0.05488492
MJH_0924,9,0,2024-06-16T01:23:55.170Z,english_278.wav,0,0,863,,,,,3,0.3,-29.99363641,1.47058347
MJH_0924,9,0,2024-06-16T01:23:55.170Z,english_278.wav,0,0,863,,,,,4,0.4,21.41897552,0.68142996
MJH_0924,9,0,2024-06-16T01:23:55.170Z,english_278.wav,0,0,863,,,,,5,0.5,-73.7985343,0.65955027
MJH_0924,9,0,2024-06-16T01:23:55.170Z,english_278.wav,0,0,863,,,,,6,0.6,-83.05174317,1.54634177
MJH_0924,9,0,2024-06-16T01:23:55.170Z,english_278.wav,0,0,863,,,,,7,0.7,-43.48487906,1.03072417
MJH_0924,9,0,2024-06-16T01:23:55.170Z,english_278.wav,0,0,863,,,,,8,0.8,-48.22741203,0.15769377
MJH_0924,9,0,2024-06-16T01:23:55.170Z,english_278.wav,0,0,863,,,,,9,0.9,-30.73203826,0.79374536
MJH_0924,9,0,2024-06-16T01:23:55.170Z,english_278.wav,0,0,863,,,,,10,1,22.54361358,0.9877131
MJH_0924,9,0,2024-06-16T01:23:55.170Z,english_278.wav,0,0,863,,,,,11,1.09391667,-65.2249662,1.82414956
MJH_0924,10,0,2024-06-16T01:23:55.170Z,english_709.wav,0,1,2198,,,,,0,0,54.89445194,0.75029311
MJH_0924,10,0,2024-06-16T01:23:55.170Z,english_709.wav,0,1,2198,,,,,1,0.1,-13.90675493,1.75887389
MJH_0924,10,0,2024-06-16T01:23:55.170Z,english_709.wav,0,1,2198,,,,,2,0.2,17.54151592,1.84695168
MJH_0924,10,0,2024-06-16T01:23:55.170Z,english_709.wav,0,1,2198,,,,,3,0.3,-21.79257769,0.96071145
MJH_0924,10,0,2024-06-16T01:23:55.170Z,english_709.wav,0,1,2198,,,,,4,0.4,55.10787635,1.22566663
MJH_0924,10,0,2024-06-16T01:23:55.170Z,english_709.wav,0,1,2198,,,,,5,0.5,-57.13962404,1.94059393
MJH_0924,10,0,2024-06-16T01:23:55.170Z,english_709.wav,0,1,2198,,,,,6,0.6,-5.37289715,0.52219194
MJH_0924,10,0,2024-06-16T01:23:55.170Z,english_709.wav,0,1,2198,,,,,7,0.7,27.40236622,0.9142424
MJH_0924,10,0,2024-06-16T01:23:55.170Z,english_709.wav,0,1,2198,,,,,8,0.8,12.19670027,1.75067757
MJH_0924,10,0,2024-06-16T01:23:55.170Z,english_709.wav,0,1,2198,,,,,9,0.9,91.20271112,0.7385059
MJH_0924,10,0,2024-06-16T01:23:55.170Z,english_709.wav,0,1,2198,,,,,10,1,89.17036871,1.92412986
MJH_0924,10,0,2024-06-16T01:23:55.170Z,english_709.wav,0,1,2198,,,,,11,1.09391667,50.36439179,0.79240238
MJH_0924,11,0,2024-06-16T01:23:55.170Z,english_431.wav,0,1,1289,,,,,0,0,80.69254561,1.28844059
MJH_0924,11,0,2024-06-16T01:23:55.170Z,english_431.wav,0,1,1289,,,,,1,0.1,-59.39729579,0.02904499
MJH_0924,11,0,2024-06-16T01:23:55.170Z,english_431.wav,0,1,1289,,,,,2,0.2,32.8562558,0.95132877
MJH_0924,11,0,2024-06-16T01:23:55.170Z,english_431.wav,0,1,1289,,,,,3,0.3,-22.29744676,1.51616745
MJH_0924,11,0,2024-06-16T01:23:55.170Z,english_431.wav,0,1,1289,,,,,4,0.4,31.71546531,1.13295381
MJH_0924,11,0,2024-06-16T01:23:55.170Z,english_431.wav,0,1,1289,,,,,5,0.5,26.68689131,0.76516543
MJH_0924,11,0,2024-06-16T01:23:55.170Z,english_431.wav,0,1,1289,,,,,6,0.6,-67.6485219,0.83201004
MJH_0924,11,0,2024-06-16T01:23:55.170Z,english_431.wav,0,1,1289,,,,,7,0.7,27.20384073,0.376561
MJH_0924,11,0,2024-06-16T01:23:55.170Z,english_431.wav,0,1,1289,,,,,8,0.8,-89.82269949,1.59621374
MJH_0924,11,0,2024-06-16T01:23:55.170Z,english_431.wav,0,1,1289,,,,,9,0.9,-57.22282633,0.7949968
MJH_0924,11,0,2024-06-16T01:23:55.170Z,english_431.wav,0,1,1289,,,,,10,1,66.80474658,1.43069985
MJH_0924,11,0,2024-06-16T01:23:55.170Z,english_431.wav,0,1,1289,,,,,11,1.09391667,-8.50085654,0.47836789
MJH_0924,12,0,2024-06-16T01:23:55.170Z,english_888.wav,0,0,910,,,,,0,0,-39.7925546,0.13458958
MJH_0924,12,0,2024-06-16T01:23:55.170Z,english_888.wav,0,0,910,,,,,1,0.1,-49.30113257,1.48324952
MJH_0924,12,0,2024-06-16T01:23:55.170Z,english_888.wav,0,0,910,,,,,2,0.2,5.97243806,0.77423602
MJH_0924,12,0,2024-06-16T01:23:55.170Z,english_888.wav,0,0,910,,,,,3,0.3,16.41276851,0.11110742
MJH_0924,12,0,2024-06-16T01:23:55.170Z,english_888.wav,0,0,910,,,,,4,0.4,72.72751695,0.50050507
MJH_0924,12,0,2024-06-16T01:23:55.170Z,english_888.wav,0,0,910,,,,,5,0.5,30.43059144,1.62800327
MJH_0924,12,0,2024-06-16T01:23:55.170Z,english_888.wav,0,0,910,,,,,6,0.6,-50.61460993,0.52150538
MJH_0924,12,0,2024-06-16T01:23:55.170Z,english_888.wav,0,0,910,,,,,7,0.7,27.35581245,1.33185555
MJH_0924,12,0,2024-06-16T01:23:55.170Z,english_888.wav,0,0,910,,,,,8,0.8,-42.43293374,1.57744059
MJH_0924,12,0,2024-06-16T01:23:55.170Z,english_888.wav,0,0,910,,,,,9,0.9,65.78948432,0.93033448
MJH_0924,12,0,2024-06-16T01:23:55.170Z,english_888.wav,0,0,910,,,,,10,1,10.78660964,1.1520653
MJH_0924,12,0,2024-06-16T01:23:55.170Z,english_888.wav,0,0,910,,,,,11,1.09391667,-21.51817703,1.84815249
MJH_0924,13,0,2024-06-16T01:23:55.170Z,english_603.wav,0,1,1011,,,,,0,0,-92.82127988,0.46202599
MJH_0924,13,0,2024-06-16T01:23:55.170Z,english_603.wav,0,1,1011,,,,,1,0.1,-10.8879853,0.04069155
MJH_0924,13,0,2024-06-16T01:23:55.170Z,english_603.wav,0,1,1011,,,,,2,0.2,87.07339117,0.53206278
MJH_0924,13,0,2024-06-16T01:23:55.170Z,english_603.wav,0,1,1011,,,,,3,0.3,94.16233181,1.44505889
MJH_0924,13,0,2024-06-16T01:23:55.170Z,english_603.wav,0,1,1011,,,,,4,0.4,41.70993127,1.73804989
MJH_0924,13,0,2024-06-16T01:23:55.170Z,english_603.wav,0,1,1011,,,,,5,0.5,-9.49662532,0.79060569
MJH_0924,13,0,2024-06-16T01:23:55.170Z,english_603.wav,0,1,1011,,,,,6,0.6,0.93436069,1.79017292
MJH_0924,13,0,2024-06-16T01:23:55.170Z,english_603.wav,0,1,1011,,,,,7,0.7,-31.16965002,1.60375186
MJH_0924,13,0,2024-06-16T01:23:55.170Z,english_603.wav,0,1,1011,,,,,8,0.8,22.515306,1.61763715
MJH_0924,13,0,2024-06-16T01:23:55.170Z,english_603.wav,0,1,1011,,,,,9,0.9,39.07324,1.44528026
MJH_0924,13,0,2024-06-16T01:23:55.170Z,english_603.wav,0,1,1011,,,,,10,1,-34.19262646,0.82648617
MJH_0924,13,0,2024-06-16T01:23:55.170Z,english_603.wav,0,1,1011,,,,,11,1.09391667,7.30050377,1.94101738
MJH_0924,14,0,2024-06-16T01:23:55.170Z,english_655.wav,0,0,770,,,,,0,0,-90.05217159,1.15438405
MJH_0924,14,0,2024-06-16T01:23:55.170Z,english_655.wav,0,0,770,,,,,1,0.1,-51.53203878,1.12188764
MJH_0924,14,0,2024-06-16T01:23:55.170Z,english_655.wav,0,0,770,,,,,2,0.2,-18.56413276,0.95676367
MJH_0924,14,0,2024-06-16T01:23:55.170Z,english_655.wav,0,0,770,,,,,3,0.3,-32.31488117,0.61420414
MJH_0924,14,0,2024-06-16T01:23:55.170Z,english_655.wav,0,0,770,,,,,4,0.4,49.43339315,0.76264188
MJH_0924,14,0,2024-06-16T01:23:55.170Z,english_655.wav,0,0,770,,,,,5,0.5,-67.53322914,1.45400352
MJH_0924,14,0,2024-06-16T01:23:55.170Z,english_655.wav,0,0,770,,,,,6,0.6,90.11454302,0.06830652
MJH_0924,14,0,2024-06-16T01:23:55.170Z,english_655.wav,0,0,770,,,,,7,0.7,98.57977716,0.91955523
MJH_0924,14,0,2024-06-16T01:23:55.170Z,english_655.wav,0,0,770,,,,,8,0.8,29.43352269,0.33519017
MJH_0924,14,0,2024-06-16T01:23:55.170Z,english_655.wav,0,0,770,,,,,9,0.9,91.08820104,0.7797243
MJH_0924,14,0,2024-06-16T01:23:55.170Z,english_655.wav,0,0,770,,,,,10,1,-3.70059628,1.01878467
MJH_0924,14,0,2024-06-16T01:23:55.170Z,english_655.wav,0,0,770,,,,,11,1.09391667,30.30784512,1.55349389
MJH_0924,15,0,2024-06-16T01:23:55.170Z,english_380.wav,0,1,2018,,,,,0,0,-98.28114878,1.65071685
MJH_0924,15,0,2024-06-16T01:23:55.170Z,english_380.wav,0,1,2018,,,,,1,0.1,56.78361718,0.83910099
MJH_0924,15,0,2024-06-16T01:23:55.170Z,english_380.wav,0,1,2018,,,,,2,0.2,85.44160667,0.37505411
MJH_0924,15,0,2024-06-16T01:23:55.170Z,english_380.wav,0,1,2018,,,,,3,0.3,-84.55731912,1.88837589
MJH_0924,15,0,2024-06-16T01:23:55.170Z,english_380.wav,0,1,2018,,,,,4,0.4,49.20342555,1.08728138
MJH_0924,15,0,2024-06-16T01:23:55.170Z,english_380.wav,0,1,2018,,,,,5,0.5,-52.595959,1.97160724
MJH_0924,15,0,2024-06-16T01:23:55.170Z,english_380.wav,0,1,2018,,,,,6,0.6,98.42131641,1.47544821
MJH_0924,15,0,2024-06-16T01:23:55.170Z,english_380.wav,0,1,2018,,,,,7,0.7,9.72308327,1.24926611
MJH_0924,15,0,2024-06-16T01:23:55.170Z,english_380.wav,0,1,2018,,,,,8,0.8,12.04937736,0.22244064
MJH_0924,15,0,2024-06-16T01:23:55.170Z,english_380.wav,0,1,2018,,,,,9,0.9,-39.23819918,0.47451493
MJH_0924,15,0,2024-06-16T01:23:55.170Z,english_380.wav,0,1,2018,,,,,10,1,44.86165429,1.20182695
MJH_0924,15,0,2024-06-16T01:23:55.170Z,english_380.wav,0,1,2018,,,,,11,1.09391667,-9.34942597,1.47839352
MJH_0924,16,0,2024-06-16T01:23:55.170Z,english_529.wav,0,0,645,,,,,0,0,-75.44052411,0.27425441
MJH_0924,16,0,2024-06-16T01:23:55.170Z,english_529.wav,0,0,645,,,,,1,0.1,73.68823703,1.79894556
MJH_0924,16,0,2024-06-16T01:23:55.170Z,english_529.wav,0,0,645,,,,,2,0.2,35.88983091,1.38498362
MJH_0924,16,0,2024-06-16T01:23:55.170Z,english_529.wav,0,0,645,,,,,3,0.3,74.9860534,1.12136542
MJH_0924,16,0,2024-06-16T01:23:55.170Z,english_529.wav,0,0,645,,,,,4,0.4,39.79761308,0.69021564
MJH_0924,16,0,2024-06-16T01:23:55.170Z,english_529.wav,0,0,645,,,,,5,0.5,87.56894365,1.32432139
MJH_0924,16,0,2024-06-16T01:23:55.170Z,english_529.wav,0,0,645,,,,,6,0.6,-70.18354505,0.62496123
MJH_0924,16,0,2024-06-16T01:23:55.170Z,english_529.wav,0,0,645,,,,,7,0.7,30.14757838,0.16694554
MJH_0924,16,0,2024-06-16T01:23:55.170Z,english_529.wav,0,0,645,,,,,8,0.8,-85.67720686,1.72485798
MJH_0924,16,0,2024-06-16T01:23:55.170Z,english_529.wav,0,0,645,,,,,9,0.9,-5.22909547,0.11317639
MJH_0924,16,0,2024-06-16T01:23:55.170Z,english_529.wav,0,0,645,,,,,10,1,-29.17041088,1.97903266
MJH_0924,16,0,2024-06-16T01:23:55.170Z,english_529.wav,0,0,645,,,,,11,1.09391667,91.40497623,0.92289832
MJH_0924,17,0,2024-06-16T01:23:55.170Z,english_245.wav,0,1,1004,,,,,0,0,-3.94489453,1.87262136
MJH_0924,17,0,2024-06-16T01:23:55.170Z,english_245.wav,0,1,1004,,,,,1,0.1,93.78845114,1.5911659
MJH_0924,17,0,2024-06-16T01:23:55.170Z,english_245.wav,0,1,1004,,,,,2,0.2,-15.4175353,0.77224849
MJH_0924,17,0,2024-06-16T01:23:55.170Z,english_245.wav,0,1,1004,,,,,3,0.3,69.96206512,1.66276975
MJH_0924,17,0,2024-06-16T01:23:55.170Z,english_245.wav,0,1,1004,,,,,4,0.4,-2.81275051,0.59757366
MJH_0924,17,0,2024-06-16T01:23:55.170Z,english_245.wav,0,1,1004,,,,,5,0.5,-99.06344561,1.2271396
MJH_0924,17,0,2024-06-16T01:23:55.170Z,english_245.wav,0,1,1004,,,,,6,0.6,93.3644365,0.27105927
MJH_0924,17,0,2024-06-16T01:23:55.170Z,english_245.wav,0,1,1004,,,,,7,0.7,38.15823311,1.13207073
MJH_0924,17,0,2024-06-16T01:23:55.170Z,english_245.wav,0,1,1004,,,,,8,0.8,51.44383365,0.42497597
MJH_0924,17,0,2024-06-16T01:23:55.170Z,english_245.wav,0,1,1004,,,,,9,0.9,19.95795113,0.54403667
MJH_0924,17,0,2024-06-16T01:23:55.170Z,english_245.wav,0,1,1004,,,,,10,1,-68.88770698,0.3131135
MJH_0924,17,0,2024-06-16T01:23:55.170Z,english_245.wav,0,1,1004,,,,,11,1.09391667,99.45926262,1.0229568
MJH_0924,18,0,2024-06-16T01:23:55.170Z,english_999.wav,0,0,6487,,,,,0,0,-8.27619319,0.000148642599
MJH_0924,18,0,2024-06-16T01:23:55.170Z,english_999.wav,0,0,6487,,,,,1,0.1,-49.3883822,1.22232627
MJH_0924,18,0,2024-06-16T01:23:55.170Z,english_999.wav,0,0,6487,,,,,2,0.2,97.54217101,1.1174933
MJH_0924,18,0,2024-06-16T01:23:55.170Z,english_999.wav,0,0,6487,,,,,3,0.3,-49.81406735,1.80111229
MJH_0924,18,0,2024-06-16T01:23:55.170Z,english_999.wav,0,0,6487,,,,,4,0.4,46.43683506,0.552807392
MJH_0924,18,0,2024-06-16T01:23:55.170Z,english_999.wav,0,0,6487,,,,,5,0.5,89.32784762,1.53319988
MJH_0924,18,0,2024-06-16T01:23:55.170Z,english_999.wav,0,0,6487,,,,,6,0.6,-55.73277594,1.7616442
MJH_0924,18,0,2024-06-16T01:23:55.170Z,english_999.wav,0,0,6487,,,,,7,0.7,49.38462906,0.0772486607
MJH_0924,18,0,2024-06-16T01:23:55.170Z,english_999.wav,0,0,6487,,,,,8,0.8,85.41123264,1.0025863
MJH_0924,18,0,2024-06-16T01:23:55.170Z,english_999.wav,0,0,6487,,,,,9,0.9,-58.86557708,0.329932429
MJH_0924,18,0,2024-06-16T01:23:55.170Z,english_999.wav,0,0,6487,,,,,10,1,99.11766896,1.88826288
MJH_0924,18,0,2024-06-16T01:23:55.170Z,english_999.wav,0,0,6487,,,,,11,1.09391667,28.82385918,1.88223689
MJH_0924,19,0,2024-06-16T01:23:55.170Z,english_917.wav,0,0,2587,,,,,0,0,-35.3182661,1.27669121
MJH_0924,19,0,2024-06-16T01:23:55.170Z,english_917.wav,0,0,2587,,,,,1,0.1,-21.7738587,1.4602349
MJH_0924,19,0,2024-06-16T01:23:55.170Z,english_917.wav,0,0,2587,,,,,2,0.2,82.1428169,0.09750383
MJH_0924,19,0,2024-06-16T01:23:55.170Z,english_917.wav,0,0,2587,,,,,3,0.3,-12.2731677,0.51655458
MJH_0924,19,0,2024-06-16T01:23:55.170Z,english_917.wav,0,0,2587,,,,,4,0.4,4.83424811,1.15347497
MJH_0924,19,0,2024-06-16T01:23:55.170Z,english_917.wav,0,0,2587,,,,,5,0.5,-0.0854945092,1.01469442
MJH_0924,19,0,2024-06-16T01:23:55.170Z,english_917.wav,0,0,2587,,,,,6,0.6,-92.693816,0.31102011
MJH_0924,19,0,2024-06-16T01:23:55.170Z,english_917.wav,0,0,2587,,,,,7,0.7,-91.5131295,1.44230515
MJH_0924,19,0,2024-06-16T01:23:55.170Z,english_917.wav,0,0,2587,,,,,8,0.8,58.0373061,0.03377485
MJH_0924,19,0,2024-06-16T01:23:55.170Z,english_917.wav,0,0,2587,,,,,9,0.9,-28.6534312,0.48994194
MJH_0924,19,0,2024-06-16T01:23:55.170Z,english_917.wav,0,0,2587,,,,,10,1,45.4510696,0.17679016
MJH_0924,19,0,2024-06-16T01:23:55.170Z,english_917.wav,0,0,2587,,,,,11,1.09391667,48.3165221,0.94650881
MJH_0924,20,0,2024-06-16T01:23:55.170Z,english_329.wav,0,1,2074,,,,,0,0,-73.5267518,0.87153309
MJH_0924,20,0,2024-06-16T01:23:55.170Z,english_329.wav,0,1,2074,,,,,1,0.1,26.40936661,1.24873758
MJH_0924,20,0,2024-06-16T01:23:55.170Z,english_329.wav,0,1,2074,,,,,2,0.2,95.94954551,0.87594124
MJH_0924,20,0,2024-06-16T01:23:55.170Z,english_329.wav,0,1,2074,,,,,3,0.3,-92.18268605,0.88012103
MJH_0924,20,0,2024-06-16T01:23:55.170Z,english_329.wav,0,1,2074,,,,,4,0.4,-98.10910069,1.62824367
MJH_0924,20,0,2024-06-16T01:23:55.170Z,english_329.wav,0,1,2074,,,,,5,0.5,-61.34103681,1.41725229
MJH_0924,20,0,2024-06-16T01:23:55.170Z,english_329.wav,0,1,2074,,,,,6,0.6,34.88723994,1.27607992
MJH_0924,20,0,2024-06-16T01:23:55.170Z,english_329.wav,0,1,2074,,,,,7,0.7,66.83835425,0.30685243
MJH_0924,20,0,2024-06-16T01:23:55.170Z,english_329.wav,0,1,2074,,,,,8,0.8,-67.43059972,0.43279956
MJH_0924,20,0,2024-06-16T01:23:55.170Z,english_329.wav,0,1,2074,,,,,9,0.9,51.12526405,0.74557381
MJH_0924,20,0,2024-06-16T01:23:55.170Z,english_329.wav,0,1,2074,,,,,10,1,-25.5134348,0.84179224
MJH_0924,20,0,2024-06-16T01:23:55.170Z,english_329.wav,0,1,2074,,,,,11,1.09391667,-82.24978729,0.84260005
MJH_0924,21,0,2024-06-16T01:23:55.170Z,english_843.wav,0,1,1360,,,,,0,0,13.87584617,1.27519345
MJH_0924,21,0,2024-06-16T01:23:55.170Z,english_843.wav,0,1,1360,,,,,1,0.1,17.53714881,0.4999323
MJH_0924,21,0,2024-06-16T01:23:55.170Z,english_843.wav,0,1,1360,,,,,2,0.2,70.72069662,1.20187255
MJH_0924,21,0,2024-06-16T01:23:55.170Z,english_843.wav,0,1,1360,,,,,3,0.3,14.49652428,0.99598265
MJH_0924,21,0,2024-06-16T01:23:55.170Z,english_843.wav,0,1,1360,,,,,4,0.4,-65.08259112,1.86186318
MJH_0924,21,0,2024-06-16T01:23:55.170Z,english_843.wav,0,1,1360,,,,,5,0.5,26.6308795,0.44944471
MJH_0924,21,0,2024-06-16T01:23:55.170Z,english_843.wav,0,1,1360,,,,,6,0.6,-80.57084842,0.60839379
MJH_0924,21,0,2024-06-16T01:23:55.170Z,english_843.wav,0,1,1360,,,,,7,0.7,-48.22210442,1.68983896
MJH_0924,21,0,2024-06-16T01:23:55.170Z,english_843.wav,0,1,1360,,,,,8,0.8,-90.5256354,1.90866012
MJH_0924,21,0,2024-06-16T01:23:55.170Z,english_843.wav,0,1,1360,,,,,9,0.9,39.07951266,0.50710565
MJH_0924,21,0,2024-06-16T01:23:55.170Z,english_843.wav,0,1,1360,,,,,10,1,-12.6282176,1.80732727
MJH_0924,21,0,2024-06-16T01:23:55.170Z,english_843.wav,0,1,1360,,,,,11,1.09391667,-11.67818775,0.54311362
MJH_0924,22,0,2024-06-16T01:23:55.170Z,english_601.wav,0,1,1196,,,,,0,0,-27.72780098,0.09196254
MJH_0924,22,0,2024-06-16T01:23:55.170Z,english_601.wav,0,1,1196,,,,,1,0.1,51.56349227,1.85324858
MJH_0924,22,0,2024-06-16T01:23:55.170Z,english_601.wav,0,1,1196,,,,,2,0.2,-30.24590837,0.5611499
MJH_0924,22,0,2024-06-16T01:23:55.170Z,english_601.wav,0,1,1196,,,,,3,0.3,-73.97880656,0.48638388
MJH_0924,22,0,2024-06-16T01:23:55.170Z,english_601.wav,0,1,1196,,,,,4,0.4,-2.25523595,0.72682426
MJH_0924,22,0,2024-06-16T01:23:55.170Z,english_601.wav,0,1,1196,,,,,5,0.5,-30.15739329,0.02882605
MJH_0924,22,0,2024-06-16T01:23:55.170Z,english_601.wav,0,1,1196,,,,,6,0.6,-26.45428241,0.44853458
MJH_0924,22,0,2024-06-16T01:23:55.170Z,english_601.wav,0,1,1196,,,,,7,0.7,-98.06133759,1.63868559
MJH_0924,22,0,2024-06-16T01:23:55.170Z,english_601.wav,0,1,1196,,,,,8,0.8,5.27582611,1.86240344
MJH_0924,22,0,2024-06-16T01:23:55.170Z,english_601.wav,0,1,1196,,,,,9,0.9,81.45966426,0.90381109
MJH_0924,22,0,2024-06-16T01:23:55.170Z,english_601.wav,0,1,1196,,,,,10,1,21.92696124,1.07749357
MJH_0924,22,0,2024-06-16T01:23:55.170Z,english_601.wav,0,1,1196,,,,,11,1.09391667,-86.33242355,0.98518899
MJH_0924,23,0,2024-06-16T01:23:55.170Z,english_81.wav,0,0,3157,,,,,0,0,71.09666265,1.09569192
MJH_0924,23,0,2024-06-16T01:23:55.170Z,english_81.wav,0,0,3157,,,,,1,0.1,-38.93956525,1.65684188
MJH_0924,23,0,2024-06-16T01:23:55.170Z,english_81.wav,0,0,3157,,,,,2,0.2,-48.61950395,0.44216952
MJH_0924,23,0,2024-06-16T01:23:55.170Z,english_81.wav,0,0,3157,,,,,3,0.3,33.39514041,1.72758961
MJH_0924,23,0,2024-06-16T01:23:55.170Z,english_81.wav,0,0,3157,,,,,4,0.4,18.24180048,1.46257927
MJH_0924,23,0,2024-06-16T01:23:55.170Z,english_81.wav,0,0,3157,,,,,5,0.5,-45.85953695,1.53730542
MJH_0924,23,0,2024-06-16T01:23:55.170Z,english_81.wav,0,0,3157,,,,,6,0.6,-0.32699599,1.28818555
MJH_0924,23,0,2024-06-16T01:23:55.170Z,english_81.wav,0,0,3157,,,,,7,0.7,-32.78716597,1.19414744
MJH_0924,23,0,2024-06-16T01:23:55.170Z,english_81.wav,0,0,3157,,,,,8,0.8,-37.9267269,1.01923165
MJH_0924,23,0,2024-06-16T01:23:55.170Z,english_81.wav,0,0,3157,,,,,9,0.9,24.21331247,1.67441048
MJH_0924,23,0,2024-06-16T01:23:55.170Z,english_81.wav,0,0,3157,,,,,10,1,-31.33871225,1.88948336
MJH_0924,23,0,2024-06-16T01:23:55.170Z,english_81.wav,0,0,3157,,,,,11,1.09391667,-77.74283174,1.81428343
MJH_0924,24,0,2024-06-16T01:23:55.170Z,english_433.wav,0,1,3453,,,,,0,0,-74.5918135,1.01979496
MJH_0924,24,0,2024-06-16T01:23:55.170Z,english_433.wav,0,1,3453,,,,,1,0.1,28.79821434,0.80806248
MJH_0924,24,0,2024-06-16T01:23:55.170Z,english_433.wav,0,1,3453,,,,,2,0.2,97.27836698,0.68923441
MJH_0924,24,0,2024-06-16T01:23:55.170Z,english_433.wav,0,1,3453,,,,,3,0.3,70.33680468,0.29842911
MJH_0924,24,0,2024-06-16T01:23:55.170Z,english_433.wav,0,1,3453,,,,,4,0.4,14.06818155,1.28851822
MJH_0924,24,0,2024-06-16T01:23:55.170Z,english_433.wav,0,1,3453,,,,,5,0.5,-16.97736982,0.93328677
MJH_0924,24,0,2024-06-16T01:23:55.170Z,english_433.wav,0,1,3453,,,,,6,0.6,75.14922554,0.10219622
MJH_0924,24,0,2024-06-16T01:23:55.170Z,english_433.wav,0,1,3453,,,,,7,0.7,23.29055894,1.41929067
MJH_0924,24,0,2024-06-16T01:23:55.170Z,english_433.wav,0,1,3453,,,,,8,0.8,-26.03253211,0.8010075
MJH_0924,24,0,2024-06-16T01:23:55.170Z,english_433.wav,0,1,3453,,,,,9,0.9,28.95520226,0.76563128
MJH_0924,24,0,2024-06-16T01:23:55.170Z,english_433.wav,0,1,3453,,,,,10,1,-61.82682237,0.36703777
MJH_0924,24,0,2024-06-16T01:23:55.170Z,english_433.wav,0,1,3453,,,,,11,1.09391667,47.27585079,0.80268974
MJH_0924,25,0,2024-06-16T01:23:55.170Z,english_650.wav,0,1,1350,,,,,0,0,84.72208984,1.44671944
MJH_0924,25,0,2024-06-16T01:23:55.170Z,english_650.wav,0,1,1350,,,,,1,0.1,-25.46570276,0.96213955
MJH_0924,25,0,2024-06-16T01:23:55.170Z,english_650.wav,0,1,1350,,,,,2,0.2,-14.49877792,0.60880641
MJH_0924,25,0,2024-06-16T01:23:55.170Z,english_650.wav,0,1,1350,,,,,3,0.3,92.39693734,0.82954369
MJH_0924,25,0,2024-06-16T01:23:55.170Z,english_650.wav,0,1,1350,,,,,4,0.4,-32.47071196,0.31003161
MJH_0924,25,0,2024-06-16T01:23:55.170Z,english_650.wav,0,1,1350,,,,,5,0.5,57.90191837,1.04774221
MJH_0924,25,0,2024-06-16T01:23:55.170Z,english_650.wav,0,1,1350,,,,,6,0.6,-80.89557153,1.35433017
MJH_0924,25,0,2024-06-16T01:23:55.170Z,english_650.wav,0,1,1350,,,,,7,0.7,-42.41945014,0.91007785
MJH_0924,25,0,2024-06-16T01:23:55.170Z,english_650.wav,0,1,1350,,,,,8,0.8,-93.95714217,1.66906144
MJH_0924,25,0,2024-06-16T01:23:55.170Z,english_650.wav,0,1,1350,,,,,9,0.9,72.90615392,0.82431
MJH_0924,25,0,2024-06-16T01:23:55.170Z,english_650.wav,0,1,1350,,,,,10,1,69.05005157,0.70002504
MJH_0924,25,0,2024-06-16T01:23:55.170Z,english_650.wav,0,1,1350,,,,,11,1.09391667,82.64627583,0.57122533
MJH_0924,26,0,2024-06-16T01:23:55.170Z,english_403.wav,0,1,2793,,,,,0,0,0.0155370236,1.50775741
MJH_0924,26,0,2024-06-16T01:23:55.170Z,english_403.wav,0,1,2793,,,,,1,0.1,-4.64270355,1.88632048
MJH_0924,26,0,2024-06-16T01:23:55.170Z,english_403.wav,0,1,2793,,,,,2,0.2,-86.7611077,1.79027228
MJH_0924,26,0,2024-06-16T01:23:55.170Z,english_403.wav,0,1,2793,,,,,3,0.3,-86.6854854,0.9708058
MJH_0924,26,0,2024-06-16T01:23:55.170Z,english_403.wav,0,1,2793,,,,,4,0.4,-74.3205589,1.26833926
MJH_0924,26,0,2024-06-16T01:23:55.170Z,english_403.wav,0,1,2793,,,,,5,0.5,56.1207621,0.98662828
MJH_0924,26,0,2024-06-16T01:23:55.170Z,english_403.wav,0,1,2793,,,,,6,0.6,15.0235235,1.65364002
MJH_0924,26,0,2024-06-16T01:23:55.170Z,english_403.wav,0,1,2793,,,,,7,0.7,25.8783198,1.52514764
MJH_0924,26,0,2024-06-16T01:23:55.170Z,english_403.wav,0,1,2793,,,,,8,0.8,21.3726461,1.10599603
MJH_0924,26,0,2024-06-16T01:23:55.170Z,english_403.wav,0,1,2793,,,,,9,0.9,86.9816794,1.01372586
MJH_0924,26,0,2024-06-16T01:23:55.170Z,english_403.wav,0,1,2793,,,,,10,1,-56.1900631,1.1928159
MJH_0924,26,0,2024-06-16T01:23:55.170Z,english_403.wav,0,1,2793,,,,,11,1.09391667,59.2986673,0.36234179
MJH_0924,27,0,2024-06-16T01:23:55.170Z,english_924.wav,0,0,1763,,,,,0,0,-34.16359775,0.79366522
MJH_0924,27,0,2024-06-16T01:23:55.170Z,english_924.wav,0,0,1763,,,,,1,0.1,95.89868764,0.73795008
MJH_0924,27,0,2024-06-16T01:23:55.170Z,english_924.wav,0,0,1763,,,,,2,0.2,-7.67474925,0.39139015
MJH_0924,27,0,2024-06-16T01:23:55.170Z,english_924.wav,0,0,1763,,,,,3,0.3,-21.77911834,0.47707552
MJH_0924,27,0,2024-06-16T01:23:55.170Z,english_924.wav,0,0,1763,,,,,4,0.4,31.17946122,0.09637783
MJH_0924,27,0,2024-06-16T01:23:55.170Z,english_924.wav,0,0,1763,,,,,5,0.5,0.48616436,1.58696559
MJH_0924,27,0,2024-06-16T01:23:55.170Z,english_924.wav,0,0,1763,,,,,6,0.6,56.04156449,1.87427133
MJH_0924,27,0,2024-06-16T01:23:55.170Z,english_924.wav,0,0,1763,,,,,7,0.7,79.12331334,0.57578157
MJH_0924,27,0,2024-06-16T01:23:55.170Z,english_924.wav,0,0,1763,,,,,8,0.8,58.34446187,1.11639403
MJH_0924,27,0,2024-06-16T01:23:55.170Z,english_924.wav,0,0,1763,,,,,9,0.9,51.02751352,1.98577552
MJH_0924,27,0,2024-06-16T01:23:55.170Z,english_924.wav,0,0,1763,,,,,10,1,59.10490512,0.22580189
MJH_0924,27,0,2024-06-16T01:23:55.170Z,english_924.wav,0,0,1763,,,,,11,1.09391667,60.06487251,1.66820152
MJH_0924,28,0,2024-06-16T01:23:55.170Z,english_690.wav,0,0,713,,,,,0,0,17.55747423,0.76835561
MJH_0924,28,0,2024-06-16T01:23:55.170Z,english_690.wav,0,0,713,,,,,1,0.1,23.93305712,0.92260391
MJH_0924,28,0,2024-06-16T01:23:55.170Z,english_690.wav,0,0,713,,,,,2,0.2,64.00076059,1.35078007
MJH_0924,28,0,2024-06-16T01:23:55.170Z,english_690.wav,0,0,713,,,,,3,0.3,-94.30848537,0.66724341
MJH_0924,28,0,2024-06-16T01:23:55.170Z,english_690.wav,0,0,713,,,,,4,0.4,6.99210774,0.90703794
MJH_0924,28,0,2024-06-16T01:23:55.170Z,english_690.wav,0,0,713,,,,,5,0.5,85.90585052,0.64408178
MJH_0924,28,0,2024-06-16T01:23:55.170Z,english_690.wav,0,0,713,,,,,6,0.6,87.05779363,0.93697695
MJH_0924,28,0,2024-06-16T01:23:55.170Z,english_690.wav,0,0,713,,,,,7,0.7,-33.56142867,1.7663892
MJH_0924,28,0,2024-06-16T01:23:55.170Z,english_690.wav,0,0,713,,,,,8,0.8,3.23139144,0.87547527
MJH_0924,28,0,2024-06-16T01:23:55.170Z,english_690.wav,0,0,713,,,,,9,0.9,-81.40386669,1.67132801
MJH_0924,28,0,2024-06-16T01:23:55.170Z,english_690.wav,0,0,713,,,,,10,1,-73.94182177,1.67691306
MJH_0924,28,0,2024-06-16T01:23:55.170Z,english_690.wav,0,0,713,,,,,11,1.09391667,93.27821127,1.90511297
MJH_0924,29,0,2024-06-16T01:23:55.170Z,english_238.wav,0,1,5738,,,,,0,0,-25.3614735,1.74975572
MJH_0924,29,0,2024-06-16T01:23:55.170Z,english_238.wav,0,1,5738,,,,,1,0.1,13.63610574,0.46955084
MJH_0924,29,0,2024-06-16T01:23:55.170Z,english_238.wav,0,1,5738,,,,,2,0.2,47.68455174,0.90849847
MJH_0924,29,0,2024-06-16T01:23:55.170Z,english_238.wav,0,1,5738,,,,,3,0.3,-45.84662584,1.75842807
MJH_0924,29,0,2024-06-16T01:23:55.170Z,english_238.wav,0,1,5738,,,,,4,0.4,-24.72789326,0.8348983
MJH_0924,29,0,2024-06-16T01:23:55.170Z,english_238.wav,0,1,5738,,,,,5,0.5,64.94752312,0.09811013
MJH_0924,29,0,2024-06-16T01:23:55.170Z,english_238.wav,0,1,5738,,,,,6,0.6,91.26767563,0.01897595
MJH_0924,29,0,2024-06-16T01:23:55.170Z,english_238.wav,0,1,5738,,,,,7,0.7,39.1185383,1.47798962
MJH_0924,29,0,2024-06-16T01:23:55.170Z,english_238.wav,0,1,5738,,,,,8,0.8,-79.79663189,0.10732885
MJH_0924,29,0,2024-06-16T01:23:55.170Z,english_238.wav,0,1,5738,,,,,9,0.9,82.76131323,1.36210441
MJH_0924,29,0,2024-06-16T01:23:55.170Z,english_238.wav,0,1,5738,,,,,10,1,-67.84724973,1.46345611
MJH_0924,29,0,2024-06-16T01:23:55.170Z,english_238.wav,0,1,5738,,,,,11,1.09391667,10.72336038,1.19403649
MJH_0924,30,0,2024-06-16T01:23:55.170Z,english_586.wav,0,0,765,,,,,0,0,19.9692207,1.34383916
MJH_0924,30,0,2024-06-16T01:23:55.170Z,english_586.wav,0,0,765,,,,,1,0.1,22.22606315,0.0196847498
MJH_0924,30,0,2024-06-16T01:23:55.170Z,english_586.wav,0,0,765,,,,,2,0.2,44.76083147,1.32604329
MJH_0924,30,0,2024-06-16T01:23:55.170Z,english_586.wav,0,0,765,,,,,3,0.3,30.56518658,0.457164903
MJH_0924,30,0,2024-06-16T01:23:55.170Z,english_586.wav,0,0,765,,,,,4,0.4,70.50807044,0.862218031
MJH_0924,30,0,2024-06-16T01:23:55.170Z,english_586.wav,0,0,765,,,,,5,0.5,-99.40073456,1.19900353
MJH_0924,30,0,2024-06-16T01:23:55.170Z,english_586.wav,0,0,765,,,,,6,0.6,-34.76596453,1.85917609
MJH_0924,30,0,2024-06-16T01:23:55.170Z,english_586.wav,0,0,765,,,,,7,0.7,-7.2574162,0.599282433
MJH_0924,30,0,2024-06-16T01:23:55.170Z,english_586.wav,0,0,765,,,,,8,0.8,-34.51491792,0.420457526
MJH_0924,30,0,2024-06-16T01:23:55.170Z,english_586.wav,0,0,765,,,,,9,0.9,40.55984504,1.44903206
MJH_0924,30,0,2024-06-16T01:23:55.170Z,english_586.wav,0,0,765,,,,,10,1,43.92860722,0.00056977348
MJH_0924,30,0,2024-06-16T01:23:55.170Z,english_586.wav,0,0,765,,,,,11,1.09391667,97.81958787,1.67148022
MJH_0924,31,0,2024-06-16T01:23:55.170Z,english_930.wav,0,0,962,,,,,0,0,19.45977217,0.84483281
MJH_0924,31,0,2024-06-16T01:23:55.170Z,english_930.wav,0,0,962,,,,,1,0.1,-80.07863209,1.28415243
MJH_0924,31,0,2024-06-16T01:23:55.170Z,english_930.wav,0,0,962,,,,,2,0.2,45.52554026,0.42013726
MJH_0924,31,0,2024-06-16T01:23:55.170Z,english_930.wav,0,0,962,,,,,3,0.3,15.52716044,0.73216184
MJH_0924,31,0,2024-06-16T01:23:55.170Z,english_930.wav,0,0,962,,,,,4,0.4,-83.05812581,0.68838287
MJH_0924,31,0,2024-06-16T01:23:55.170Z,english_930.wav,0,0,962,,,,,5,0.5,-71.84540183,1.12855875
MJH_0924,31,0,2024-06-16T01:23:55.170Z,english_930.wav,0,0,962,,,,,6,0.6,-43.21972941,1.19871165
MJH_0924,31,0,2024-06-16T01:23:55.170Z,english_930.wav,0,0,962,,,,,7,0.7,24.79128716,1.34030412
MJH_0924,31,0,2024-06-16T01:23:55.170Z,english_930.wav,0,0,962,,,,,8,0.8,-16.02759849,0.99943393
MJH_0924,31,0,2024-06-16T01:23:55.170Z,english_930.wav,0,0,962,,,,,9,0.9,5.32070927,1.01667004
MJH_0924,31,0,2024-06-16T01:23:55.170Z,english_930.wav,0,0,962,,,,,10,1,41.16408732,1.52152501
MJH_0924,31,0,2024-06-16T01:23:55.170Z,english_930.wav,0,0,962,,,,,11,1.09391667,45.49028899,0.12802686
MJH_0924,32,0,2024-06-16T01:23:55.170Z,english_138.wav,0,1,1012,,,,,0,0,84.66208912,1.51830246
MJH_0924,32,0,2024-06-16T01:23:55.170Z,english_138.wav,0,1,1012,,,,,1,0.1,-96.9061077,0.02156416
MJH_0924,32,0,2024-06-16T01:23:55.170Z,english_138.wav,0,1,1012,,,,,2,0.2,56.17770157,1.9703834
MJH_0924,32,0,2024-06-16T01:23:55.170Z,english_138.wav,0,1,1012,,,,,3,0.3,-78.07946429,1.25545273
MJH_0924,32,0,2024-06-16T01:23:55.170Z,english_138.wav,0,1,1012,,,,,4,0.4,91.20181194,0.91568969
MJH_0924,32,0,2024-06-16T01:23:55.170Z,english_138.wav,0,1,1012,,,,,5,0.5,-30.87660198,1.83228794
MJH_0924,32,0,2024-06-16T01:23:55.170Z,english_138.wav,0,1,1012,,,,,6,0.6,27.3117693,1.04000857
MJH_0924,32,0,2024-06-16T01:23:55.170Z,english_138.wav,0,1,1012,,,,,7,0.7,-99.12692265,1.75318047
MJH_0924,32,0,2024-06-16T01:23:55.170Z,english_138.wav,0,1,1012,,,,,8,0.8,-51.46520236,0.69204702
MJH_0924,32,0,2024-06-16T01:23:55.170Z,english_138.wav,0,1,1012,,,,,9,0.9,-3.34321361,0.65368484
MJH_0924,32,0,2024-06-16T01:23:55.170Z,english_138.wav,0,1,1012,,,,,10,1,-7.25861447,0.00684889
MJH_0924,32,0,2024-06-16T01:23:55.170Z,english_138.wav,0,1,1012,,,,,11,1.09391667,-2.49487658,0.43470638
MJH_0924,33,0,2024-06-16T01:23:55.170Z,english_636.wav,0,1,2108,,,,,0,0,67.71914356,0.71351394
MJH_0924,33,0,2024-06-16T01:23:55.170Z,english_636.wav,0,1,2108,,,,,1,0.1,73.23750135,0.58810626
MJH_0924,33,0,2024-06-16T01:23:55.170Z,english_636.wav,0,1,2108,,,,,2,0.2,-94.77637622,0.12310704
MJH_0924,33,0,2024-06-16T01:23:55.170Z,english_636.wav,0,1,2108,,,,,3,0.3,41.8095849,0.24518537
MJH_0924,33,0,2024-06-16T01:23:55.170Z,english_636.wav,0,1,2108,,,,,4,0.4,44.54848263,1.96939905
MJH_0924,33,0,2024-06-16T01:23:55.170Z,english_636.wav,0,1,2108,,,,,5,0.5,-87.10854597,1.82615159
MJH_0924,33,0,2024-06-16T01:23:55.170Z,english_636.wav,0,1,2108,,,,,6,0.6,12.76932042,0.20211228
MJH_0924,33,0,2024-06-16T01:23:55.170Z,english_636.wav,0,1,2108,,,,,7,0.7,-15.47844842,0.69598299
MJH_0924,33,0,2024-06-16T01:23:55.170Z,english_636.wav,0,1,2108,,,,,8,0.8,-27.08826091,0.43499073
MJH_0924,33,0,2024-06-16T01:23:55.170Z,english_636.wav,0,1,2108,,,,,9,0.9,-8.55837042,1.83264506
MJH_0924,33,0,2024-06-16T01:23:55.170Z,english_636.wav,0,1,2108,,,,,10,1,62.11399846,0.36387194
MJH_0924,33,0,2024-06-16T01:23:55.170Z,english_636.wav,0,1,2108,,,,,11,1.09391667,1.57014334,0.65195864
MJH_0924,34,0,2024-06-16T01:23:55.170Z,english_499.wav,0,0,542,,,,,0,0,-7.75302897,0.29368166
MJH_0924,34,0,2024-06-16T01:23:55.170Z,english_499.wav,0,0,542,,,,,1,0.1,23.88086762,1.58141682
MJH_0924,34,0,2024-06-16T01:23:55.170Z,english_499.wav,0,0,542,,,,,2,0.2,-0.54854112,0.68322719
MJH_0924,34,0,2024-06-16T01:23:55.170Z,english_499.wav,0,0,542,,,,,3,0.3,11.38417001,1.0607803
MJH_0924,34,0,2024-06-16T01:23:55.170Z,english_499.wav,0,0,542,,,,,4,0.4,76.48373601,0.5459371
MJH_0924,34,0,2024-06-16T01:23:55.170Z,english_499.wav,0,0,542,,,,,5,0.5,34.68075028,1.82829661
MJH_0924,34,0,2024-06-16T01:23:55.170Z,english_499.wav,0,0,542,,,,,6,0.6,-14.34298834,1.23009433
MJH_0924,34,0,2024-06-16T01:23:55.170Z,english_499.wav,0,0,542,,,,,7,0.7,26.82043511,1.38131853
MJH_0924,34,0,2024-06-16T01:23:55.170Z,english_499.wav,0,0,542,,,,,8,0.8,60.32593039,0.45099226
MJH_0924,34,0,2024-06-16T01:23:55.170Z,english_499.wav,0,0,542,,,,,9,0.9,-38.40765739,1.79672484
MJH_0924,34,0,2024-06-16T01:23:55.170Z,english_499.wav,0,0,542,,,,,10,1,7.55243951,0.11050545
MJH_0924,34,0,2024-06-16T01:23:55.170Z,english_499.wav,0,0,542,,,,,11,1.09391667,-96.29085545,0.98124995
MJH_0924,35,0,2024-06-16T01:23:55.170Z,english_951.wav,0,0,627,,,,,0,0,-36.21368885,0.73102916
MJH_0924,35,0,2024-06-16T01:23:55.170Z,english_951.wav,0,0,627,,,,,1,0.1,-21.58887728,1.91789337
MJH_0924,35,0,2024-06-16T01:23:55.170Z,english_951.wav,0,0,627,,,,,2,0.2,13.41790132,0.21798818
MJH_0924,35,0,2024-06-16T01:23:55.170Z,english_951.wav,0,0,627,,,,,3,0.3,54.14984422,1.25250258
MJH_0924,35,0,2024-06-16T01:23:55.170Z,english_951.wav,0,0,627,,,,,4,0.4,-14.70759229,1.17100168
MJH_0924,35,0,2024-06-16T01:23:55.170Z,english_951.wav,0,0,627,,,,,5,0.5,-89.28721174,0.37038944
MJH_0924,35,0,2024-06-16T01:23:55.170Z,english_951.wav,0,0,627,,,,,6,0.6,-44.90139169,0.22313149
MJH_0924,35,0,2024-06-16T01:23:55.170Z,english_951.wav,0,0,627,,,,,7,0.7,31.96128506,1.88317087
MJH_0924,35,0,2024-06-16T01:23:55.170Z,english_951.wav,0,0,627,,,,,8,0.8,15.8351581,0.03386618
MJH_0924,35,0,2024-06-16T01:23:55.170Z,english_951.wav,0,0,627,,,,,9,0.9,-35.27402609,1.29108959
MJH_0924,35,0,2024-06-16T01:23:55.170Z,english_951.wav,0,0,627,,,,,10,1,-2.7577194,0.69196657
MJH_0924,35,0,2024-06-16T01:23:55.170Z,english_951.wav,0,0,627,,,,,11,1.09391667,-33.63227805,1.7463571
MJH_0924,36,0,2024-06-16T01:23:55.170Z,english_93.wav,0,1,936,,,,,0,0,-5.64044051,0.93985767
MJH_0924,36,0,2024-06-16T01:23:55.170Z,english_93.wav,0,1,936,,,,,1,0.1,-71.62427253,1.9578989
MJH_0924,36,0,2024-06-16T01:23:55.170Z,english_93.wav,0,1,936,,,,,2,0.2,44.8568839,1.04309205
MJH_0924,36,0,2024-06-16T01:23:55.170Z,english_93.wav,0,1,936,,,,,3,0.3,13.73699883,1.22075438
MJH_0924,36,0,2024-06-16T01:23:55.170Z,english_93.wav,0,1,936,,,,,4,0.4,-9.51130818,1.24468343
MJH_0924,36,0,2024-06-16T01:23:55.170Z,english_93.wav,0,1,936,,,,,5,0.5,25.73719345,1.1802762
MJH_0924,36,0,2024-06-16T01:23:55.170Z,english_93.wav,0,1,936,,,,,6,0.6,-9.54816374,1.78615262
MJH_0924,36,0,2024-06-16T01:23:55.170Z,english_93.wav,0,1,936,,,,,7,0.7,-99.85495199,1.82361192
MJH_0924,36,0,2024-06-16T01:23:55.170Z,english_93.wav,0,1,936,,,,,8,0.8,26.311999,0.83873706
MJH_0924,36,0,2024-06-16T01:23:55.170Z,english_93.wav,0,1,936,,,,,9,0.9,37.40170351,1.41980792
MJH_0924,36,0,2024-06-16T01:23:55.170Z,english_93.wav,0,1,936,,,,,10,1,-54.32300287,0.16266534
MJH_0924,36,0,2024-06-16T01:23:55.170Z,english_93.wav,0,1,936,,,,,11,1.09391667,-13.38941708,1.86742119
MJH_0924,37,0,2024-06-16T01:23:55.170Z,english_822.wav,0,1,1416,,,,,0,0,-57.24532264,1.07162112
MJH_0924,37,0,2024-06-16T01:23:55.170Z,english_822.wav,0,1,1416,,,,,1,0.1,-0.6561153,1.88043926
MJH_0924,37,0,2024-06-16T01:23:55.170Z,english_822.wav,0,1,1416,,,,,2,0.2,20.41316559,0.90199971
MJH_0924,37,0,2024-06-16T01:23:55.170Z,english_822.wav,0,1,1416,,,,,3,0.3,41.70802905,0.26893632
MJH_0924,37,0,2024-06-16T01:23:55.170Z,english_822.wav,0,1,1416,,,,,4,0.4,-77.9443686,1.26571685
MJH_0924,37,0,2024-06-16T01:23:55.170Z,english_822.wav,0,1,1416,,,,,5,0.5,63.06825284,1.37105199
MJH_0924,37,0,2024-06-16T01:23:55.170Z,english_822.wav,0,1,1416,,,,,6,0.6,-26.82945761,1.3296767
MJH_0924,37,0,2024-06-16T01:23:55.170Z,english_822.wav,0,1,1416,,,,,7,0.7,-92.61277401,1.89258001
MJH_0924,37,0,2024-06-16T01:23:55.170Z,english_822.wav,0,1,1416,,,,,8,0.8,-55.75237854,1.15705119
MJH_0924,37,0,2024-06-16T01:23:55.170Z,english_822.wav,0,1,1416,,,,,9,0.9,-53.36958595,0.11001008
MJH_0924,37,0,2024-06-16T01:23:55.170Z,english_822.wav,0,1,1416,,,,,10,1,65.67162204,0.72053282
MJH_0924,37,0,2024-06-16T01:23:55.170Z,english_822.wav,0,1,1416,,,,,11,1.09391667,97.68319671,1.63006682
MJH_0924,38,0,2024-06-16T01:23:55.170Z,english_611.wav,0,0,665,,,,,0,0,-44.03154286,0.78645575
MJH_0924,38,0,2024-06-16T01:23:55.170Z,english_611.wav,0,0,665,,,,,1,0.1,43.53292368,1.64980838
MJH_0924,38,0,2024-06-16T01:23:55.170Z,english_611.wav,0,0,665,,,,,2,0.2,-39.32029451,0.9179457
MJH_0924,38,0,2024-06-16T01:23:55.170Z,english_611.wav,0,0,665,,,,,3,0.3,56.48937501,1.56943765
MJH_0924,38,0,2024-06-16T01:23:55.170Z,english_611.wav,0,0,665,,,,,4,0.4,79.97019062,0.89618619
MJH_0924,38,0,2024-06-16T01:23:55.170Z,english_611.wav,0,0,665,,,,,5,0.5,-25.23129683,1.22477339
MJH_0924,38,0,2024-06-16T01:23:55.170Z,english_611.wav,0,0,665,,,,,6,0.6,14.98640169,1.05903803
MJH_0924,38,0,2024-06-16T01:23:55.170Z,english_611.wav,0,0,665,,,,,7,0.7,23.2049895,0.37835505
MJH_0924,38,0,2024-06-16T01:23:55.170Z,english_611.wav,0,0,665,,,,,8,0.8,-71.91072082,1.6139649
MJH_0924,38,0,2024-06-16T01:23:55.170Z,english_611.wav,0,0,665,,,,,9,0.9,-47.29216682,1.9176564
MJH_0924,38,0,2024-06-16T01:23:55.170Z,english_611.wav,0,0,665,,,,,10,1,71.77208334,1.62142696
MJH_0924,38,0,2024-06-16T01:23:55.170Z,english_611.wav,0,0,665,,,,,11,1.09391667,-64.89664383,1.10334919
MJH_0924,39,0,2024-06-16T01:23:55.170Z,english_209.wav,0,1,1011,,,,,0,0,-69.97643607,1.01752059
MJH_0924,39,0,2024-06-16T01:23:55.170Z,english_209.wav,0,1,1011,,,,,1,0.1,-88.52393114,0.50741315
MJH_0924,39,0,2024-06-16T01:23:55.170Z,english_209.wav,0,1,1011,,,,,2,0.2,-92.64381406,1.61277815
MJH_0924,39,0,2024-06-16T01:23:55.170Z,english_209.wav,0,1,1011,,,,,3,0.3,-12.19607679,1.4872908
MJH_0924,39,0,2024-06-16T01:23:55.170Z,english_209.wav,0,1,1011,,,,,4,0.4,51.51628924,0.5793757
MJH_0924,39,0,2024-06-16T01:23:55.170Z,english_209.wav,0,1,1011,,,,,5,0.5,-0.64468501,0.52779709
MJH_0924,39,0,2024-06-16T01:23:55.170Z,english_209.wav,0,1,1011,,,,,6,0.6,71.59302863,0.0231703
MJH_0924,39,0,2024-06-16T01:23:55.170Z,english_209.wav,0,1,1011,,,,,7,0.7,-9.81029184,1.34840208
MJH_0924,39,0,2024-06-16T01:23:55.170Z,english_209.wav,0,1,1011,,,,,8,0.8,-24.63818078,0.66467052
MJH_0924,39,0,2024-06-16T01:23:55.170Z,english_209.wav,0,1,1011,,,,,9,0.9,-3.20105403,0.39411628
MJH_0924,39,0,2024-06-16T01:23:55.170Z,english_209.wav,0,1,1011,,,,,10,1,34.64482647,0.07463584
MJH_0924,39,0,2024-06-16T01:23:55.170Z,english_209.wav,0,1,1011,,,,,11,1.09391667,-96.73374827,1.52336413
MJH_0924,40,0,2024-06-16T01:23:55.170Z,english_768.wav,0,0,1728,,,,,0,0,-36.48023157,0.55176247
MJH_0924,40,0,2024-06-16T01:23:55.170Z,english_768.wav,0,0,1728,,,,,1,0.1,-17.61338817,1.65861302
MJH_0924,40,0,2024-06-16T01:23:55.170Z,english_768.wav,0,0,1728,,,,,2,0.2,-51.57524938,0.62782429
MJH_0924,40,0,2024-06-16T01:23:55.170Z,english_768.wav,0,0,1728,,,,,3,0.3,-57.67169634,1.15733197
MJH_0924,40,0,2024-06-16T01:23:55.170Z,english_768.wav,0,0,1728,,,,,4,0.4,-45.04246972,0.58074534
MJH_0924,40,0,2024-06-16T01:23:55.170Z,english_768.wav,0,0,1728,,,,,5,0.5,86.8588591,1.30969463
MJH_0924,40,0,2024-06-16T01:23:55.170Z,english_768.wav,0,0,1728,,,,,6,0.6,-19.62051646,1.74894393
MJH_0924,40,0,2024-06-16T01:23:55.170Z,english_768.wav,0,0,1728,,,,,7,0.7,60.7133964,1.23441546
MJH_0924,40,0,2024-06-16T01:23:55.170Z,english_768.wav,0,0,1728,,,,,8,0.8,52.81660848,1.13072786
MJH_0924,40,0,2024-06-16T01:23:55.170Z,english_768.wav,0,0,1728,,,,,9,0.9,-71.2236391,0.61655986
MJH_0924,40,0,2024-06-16T01:23:55.170Z,english_768.wav,0,0,1728,,,,,10,1,-61.78017138,0.77540725
MJH_0924,40,0,2024-06-16T01:23:55.170Z,english_768.wav,0,0,1728,,,,,11,1.09391667,-60.86782653,0.19180019
MJH_0924,41,0,2024-06-16T01:23:55.170Z,english_104.wav,0,0,1056,,,,,0,0,-44.36265311,0.57549521
MJH_0924,41,0,2024-06-16T01:23:55.170Z,english_104.wav,0,0,1056,,,,,1,0.1,-54.18444724,1.28133407
MJH_0924,41,0,2024-06-16T01:23:55.170Z,english_104.wav,0,0,1056,,,,,2,0.2,85.0725802,1.08596543
MJH_0924,41,0,2024-06-16T01:23:55.170Z,english_104.wav,0,0,1056,,,,,3,0.3,26.58924477,1.95916684
MJH_0924,41,0,2024-06-16T01:23:55.170Z,english_104.wav,0,0,1056,,,,,4,0.4,-12.96639675,0.37544414
MJH_0924,41,0,2024-06-16T01:23:55.170Z,english_104.wav,0,0,1056,,,,,5,0.5,-66.5599203,0.78577569
MJH_0924,41,0,2024-06-16T01:23:55.170Z,english_104.wav,0,0,1056,,,,,6,0.6,21.67855603,0.65129956
MJH_0924,41,0,2024-06-16T01:23:55.170Z,english_104.wav,0,0,1056,,,,,7,0.7,-15.50031997,0.77672945
MJH_0924,41,0,2024-06-16T01:23:55.170Z,english_104.wav,0,0,1056,,,,,8,0.8,-68.33822385,0.45937825
MJH_0924,41,0,2024-06-16T01:23:55.170Z,english_104.wav,0,0,1056,,,,,9,0.9,47.23398252,0.91963539
MJH_0924,41,0,2024-06-16T01:23:55.170Z,english_104.wav,0,0,1056,,,,,10,1,-52.36694839,0.17538168
MJH_0924,41,0,2024-06-16T01:23:55.170Z,english_104.wav,0,0,1056,,,,,11,1.09391667,-55.61838026,1.965861
MJH_0924,42,0,2024-06-16T01:23:55.170Z,english_439.wav,0,0,748,,,,,0,0,65.61179343,0.83700943
MJH_0924,42,0,2024-06-16T01:23:55.170Z,english_439.wav,0,0,748,,,,,1,0.1,-39.97146472,0.2618818
MJH_0924,42,0,2024-06-16T01:23:55.170Z,english_439.wav,0,0,748,,,,,2,0.2,-86.73516171,1.31905662
MJH_0924,42,0,2024-06-16T01:23:55.170Z,english_439.wav,0,0,748,,,,,3,0.3,-74.3506223,1.4582753
MJH_0924,42,0,2024-06-16T01:23:55.170Z,english_439.wav,0,0,748,,,,,4,0.4,-81.32603757,1.31458936
MJH_0924,42,0,2024-06-16T01:23:55.170Z,english_439.wav,0,0,748,,,,,5,0.5,-10.38113119,1.35802682
MJH_0924,42,0,2024-06-16T01:23:55.170Z,english_439.wav,0,0,748,,,,,6,0.6,-69.09018152,0.4851906
MJH_0924,42,0,2024-06-16T01:23:55.170Z,english_439.wav,0,0,748,,,,,7,0.7,-89.25700292,1.37617677
MJH_0924,42,0,2024-06-16T01:23:55.170Z,english_439.wav,0,0,748,,,,,8,0.8,19.63434649,1.69244764
MJH_0924,42,0,2024-06-16T01:23:55.170Z,english_439.wav,0,0,748,,,,,9,0.9,-97.86540823,0.50733375
MJH_0924,42,0,2024-06-16T01:23:55.170Z,english_439.wav,0,0,748,,,,,10,1,14.21326079,1.77327588
MJH_0924,42,0,2024-06-16T01:23:55.170Z,english_439.wav,0,0,748,,,,,11,1.09391667,-79.27637989,0.89651159
MJH_0924,43,0,2024-06-16T01:23:55.170Z,english_569.wav,0,0,1643,,,,,0,0,80.86242067,1.33421849
MJH_0924,43,0,2024-06-16T01:23:55.170Z,english_569.wav,0,0,1643,,,,,1,0.1,-36.85440805,1.5057291
MJH_0924,43,0,2024-06-16T01:23:55.170Z,english_569.wav,0,0,1643,,,,,2,0.2,55.48604093,1.7838276
MJH_0924,43,0,2024-06-16T01:23:55.170Z,english_569.wav,0,0,1643,,,,,3,0.3,-32.48832212,0.34502948
MJH_0924,43,0,2024-06-16T01:23:55.170Z,english_569.wav,0,0,1643,,,,,4,0.4,34.47022209,1.33242051
MJH_0924,43,0,2024-06-16T01:23:55.170Z,english_569.wav,0,0,1643,,,,,5,0.5,23.79827115,0.68239412
MJH_0924,43,0,2024-06-16T01:23:55.170Z,english_569.wav,0,0,1643,,,,,6,0.6,-29.60411728,1.41145095
MJH_0924,43,0,2024-06-16T01:23:55.170Z,english_569.wav,0,0,1643,,,,,7,0.7,-3.34902879,0.70703372
MJH_0924,43,0,2024-06-16T01:23:55.170Z,english_569.wav,0,0,1643,,,,,8,0.8,-24.14207397,0.57539158
MJH_0924,43,0,2024-06-16T01:23:55.170Z,english_569.wav,0,0,1643,,,,,9,0.9,49.40170215,1.31553206
MJH_0924,43,0,2024-06-16T01:23:55.170Z,english_569.wav,0,0,1643,,,,,10,1,34.30113072,0.57675215
MJH_0924,43,0,2024-06-16T01:23:55.170Z,english_569.wav,0,0,1643,,,,,11,1.09391667,-89.06013863,1.91555697
MJH_0924,44,0,2024-06-16T01:23:55.170Z,english_82.wav,0,0,579,,,,,0,0,-50.65944843,0.53695405
MJH_0924,44,0,2024-06-16T01:23:55.170Z,english_82.wav,0,0,579,,,,,1,0.1,-8.30198342,1.68823048
MJH_0924,44,0,2024-06-16T01:23:55.170Z,english_82.wav,0,0,579,,,,,2,0.2,28.238309,0.29560695
MJH_0924,44,0,2024-06-16T01:23:55.170Z,english_82.wav,0,0,579,,,,,3,0.3,-35.80408689,0.83443164
MJH_0924,44,0,2024-06-16T01:23:55.170Z,english_82.wav,0,0,579,,,,,4,0.4,80.50699914,0.87894934
MJH_0924,44,0,2024-06-16T01:23:55.170Z,english_82.wav,0,0,579,,,,,5,0.5,-99.69979401,1.46703122
MJH_0924,44,0,2024-06-16T01:23:55.170Z,english_82.wav,0,0,579,,,,,6,0.6,30.38876845,0.23248639
MJH_0924,44,0,2024-06-16T01:23:55.170Z,english_82.wav,0,0,579,,,,,7,0.7,-2.76434691,1.71572221
MJH_0924,44,0,2024-06-16T01:23:55.170Z,english_82.wav,0,0,579,,,,,8,0.8,-19.59960586,1.24729907
MJH_0924,44,0,2024-06-16T01:23:55.170Z,english_82.wav,0,0,579,,,,,9,0.9,-93.26966696,0.75753981
MJH_0924,44,0,2024-06-16T01:23:55.170Z,english_82.wav,0,0,579,,,,,10,1,64.56379815,1.65214627
MJH_0924,44,0,2024-06-16T01:23:55.170Z,english_82.wav,0,0,579,,,,,11,1.09391667,-59.79308705,0.40383656
MJH_0924,45,0,2024-06-16T01:23:55.170Z,english_567.wav,0,1,1313,,,,,0,0,-50.9933631,1.16123569
MJH_0924,45,0,2024-06-16T01:23:55.170Z,english_567.wav,0,1,1313,,,,,1,0.1,31.36220977,0.07564958
MJH_0924,45,0,2024-06-16T01:23:55.170Z,english_567.wav,0,1,1313,,,,,2,0.2,13.5680641,0.67264934
MJH_0924,45,0,2024-06-16T01:23:55.170Z,english_567.wav,0,1,1313,,,,,3,0.3,-18.75410864,0.76417436
MJH_0924,45,0,2024-06-16T01:23:55.170Z,english_567.wav,0,1,1313,,,,,4,0.4,-57.83772282,0.9716426
MJH_0924,45,0,2024-06-16T01:23:55.170Z,english_567.wav,0,1,1313,,,,,5,0.5,90.76203665,1.19685833
MJH_0924,45,0,2024-06-16T01:23:55.170Z,english_567.wav,0,1,1313,,,,,6,0.6,-98.97367079,0.6509574
MJH_0924,45,0,2024-06-16T01:23:55.170Z,english_567.wav,0,1,1313,,,,,7,0.7,53.61923561,1.78514313
MJH_0924,45,0,2024-06-16T01:23:55.170Z,english_567.wav,0,1,1313,,,,,8,0.8,-3.57099992,1.44408837
MJH_0924,45,0,2024-06-16T01:23:55.170Z,english_567.wav,0,1,1313,,,,,9,0.9,94.7090793,0.5179509
MJH_0924,45,0,2024-06-16T01:23:55.170Z,english_567.wav,0,1,1313,,,,,10,1,93.07088687,1.46519298
MJH_0924,45,0,2024-06-16T01:23:55.170Z,english_567.wav,0,1,1313,,,,,11,1.09391667,-71.18485827,0.55032839
MJH_0924,46,0,2024-06-16T01:23:55.170Z,english_935.wav,0,0,1171,,,,,0,0,-66.017305,0.5568005
MJH_0924,46,0,2024-06-16T01:23:55.170Z,english_935.wav,0,0,1171,,,,,1,0.1,-96.46975552,0.64067821
MJH_0924,46,0,2024-06-16T01:23:55.170Z,english_935.wav,0,0,1171,,,,,2,0.2,41.01490818,1.2239279
MJH_0924,46,0,2024-06-16T01:23:55.170Z,english_935.wav,0,0,1171,,,,,3,0.3,-8.07360152,1.1472743
MJH_0924,46,0,2024-06-16T01:23:55.170Z,english_935.wav,0,0,1171,,,,,4,0.4,43.89693233,0.40023778
MJH_0924,46,0,2024-06-16T01:23:55.170Z,english_935.wav,0,0,1171,,,,,5,0.5,-91.80623652,1.34831364
MJH_0924,46,0,2024-06-16T01:23:55.170Z,english_935.wav,0,0,1171,,,,,6,0.6,20.19515947,1.39566251
MJH_0924,46,0,2024-06-16T01:23:55.170Z,english_935.wav,0,0,1171,,,,,7,0.7,-99.45471076,0.66795844
MJH_0924,46,0,2024-06-16T01:23:55.170Z,english_935.wav,0,0,1171,,,,,8,0.8,15.46433912,1.24993732
MJH_0924,46,0,2024-06-16T01:23:55.170Z,english_935.wav,0,0,1171,,,,,9,0.9,29.18172842,0.82560858
MJH_0924,46,0,2024-06-16T01:23:55.170Z,english_935.wav,0,0,1171,,,,,10,1,64.82314597,1.15031979
MJH_0924,46,0,2024-06-16T01:23:55.170Z,english_935.wav,0,0,1171,,,,,11,1.09391667,43.21629408,1.54604581
MJH_0924,47,0,2024-06-16T01:23:55.170Z,english_284.wav,0,1,3544,,,,,0,0,-64.32327457,0.91308262
MJH_0924,47,0,2024-06-16T01:23:55.170Z,english_284.wav,0,1,3544,,,,,1,0.1,-67.89025783,0.76791564
MJH_0924,47,0,2024-06-16T01:23:55.170Z,english_284.wav,0,1,3544,,,,,2,0.2,63.39804367,0.83095971
MJH_0924,47,0,2024-06-16T01:23:55.170Z,english_284.wav,0,1,3544,,,,,3,0.3,-47.8895651,1.79742446
MJH_0924,47,0,2024-06-16T01:23:55.170Z,english_284.wav,0,1,3544,,,,,4,0.4,27.68105964,1.18503846
MJH_0924,47,0,2024-06-16T01:23:55.170Z,english_284.wav,0,1,3544,,,,,5,0.5,58.35244252,1.29913938
MJH_0924,47,0,2024-06-16T01:23:55.170Z,english_284.wav,0,1,3544,,,,,6,0.6,-24.74070708,1.72192785
MJH_0924,47,0,2024-06-16T01:23:55.170Z,english_284.wav,0,1,3544,,,,,7,0.7,-82.19387926,1.7387844
MJH_0924,47,0,2024-06-16T01:23:55.170Z,english_284.wav,0,1,3544,,,,,8,0.8,-97.32479033,1.05930336
MJH_0924,47,0,2024-06-16T01:23:55.170Z,english_284.wav,0,1,3544,,,,,9,0.9,99.46728609,0.10150249
MJH_0924,47,0,2024-06-16T01:23:55.170Z,english_284.wav,0,1,3544,,,,,10,1,-92.70862536,0.67687392
MJH_0924,47,0,2024-06-16T01:23:55.170Z,english_284.wav,0,1,3544,,,,,11,1.09391667,47.98339035,1.83996488
MJH_0924,48,0,2024-06-16T01:23:55.170Z,english_734.wav,0,1,2370,,,,,0,0,37.80658654,0.89840931
MJH_0924,48,0,2024-06-16T01:23:55.170Z,english_734.wav,0,1,2370,,,,,1,0.1,90.1003789,1.2414915
MJH_0924,48,0,2024-06-16T01:23:55.170Z,english_734.wav,0,1,2370,,,,,2,0.2,-17.90602095,1.52855063
MJH_0924,48,0,2024-06-16T01:23:55.170Z,english_734.wav,0,1,2370,,,,,3,0.3,-31.44385996,0.60902156
MJH_0924,48,0,2024-06-16T01:23:55.170Z,english_734.wav,0,1,2370,,,,,4,0.4,44.9323419,1.0676513
MJH_0924,48,0,2024-06-16T01:23:55.170Z,english_734.wav,0,1,2370,,,,,5,0.5,-31.11774155,0.47732506
MJH_0924,48,0,2024-06-16T01:23:55.170Z,english_734.wav,0,1,2370,,,,,6,0.6,97.37077349,0.01117227
MJH_0924,48,0,2024-06-16T01:23:55.170Z,english_734.wav,0,1,2370,,,,,7,0.7,83.67731812,1.95948527
MJH_0924,48,0,2024-06-16T01:23:55.170Z,english_734.wav,0,1,2370,,,,,8,0.8,-92.96209535,1.72730216
MJH_0924,48,0,2024-06-16T01:23:55.170Z,english_734.wav,0,1,2370,,,,,9,0.9,-86.38679985,0.10005855
MJH_0924,48,0,2024-06-16T01:23:55.170Z,english_734.wav,0,1,2370,,,,,10,1,-15.69243899,1.31074677
MJH_0924,48,0,2024-06-16T01:23:55.170Z,english_734.wav,0,1,2370,,,,,11,1.09391667,-68.67808483,0.47077758
MJH_0924,49,0,2024-06-16T01:23:55.170Z,english_215.wav,0,1,1389,,,,,0,0,-99.5332925,0.28465119
MJH_0924,49,0,2024-06-16T01:23:55.170Z,english_215.wav,0,1,1389,,,,,1,0.1,1.45242975,1.8088146
MJH_0924,49,0,2024-06-16T01:23:55.170Z,english_215.wav,0,1,1389,,,,,2,0.2,-64.33425221,1.50664885
MJH_0924,49,0,2024-06-16T01:23:55.170Z,english_215.wav,0,1,1389,,,,,3,0.3,94.32501829,1.24738647
MJH_0924,49,0,2024-06-16T01:23:55.170Z,english_215.wav,0,1,1389,,,,,4,0.4,-24.96285319,1.99674836
MJH_0924,49,0,2024-06-16T01:23:55.170Z,english_215.wav,0,1,1389,,,,,5,0.5,24.44115024,1.0963611
MJH_0924,49,0,2024-06-16T01:23:55.170Z,english_215.wav,0,1,1389,,,,,6,0.6,88.75353775,1.91027181
MJH_0924,49,0,2024-06-16T01:23:55.170Z,english_215.wav,0,1,1389,,,,,7,0.7,84.15272448,1.87676127
MJH_0924,49,0,2024-06-16T01:23:55.170Z,english_215.wav,0,1,1389,,,,,8,0.8,64.6545326,1.65561874
MJH_0924,49,0,2024-06-16T01:23:55.170Z,english_215.wav,0,1,1389,,,,,9,0.9,-74.06978327,1.63896442
MJH_0924,49,0,2024-06-16T01:23:55.170Z,english_215.wav,0,1,1389,,,,,10,1,-77.05086555,0.85126523
MJH_0924,49,0,2024-06-16T01:23:55.170Z,english_215.wav,0,1,1389,,,,,11,1.09391667,82.12012488,1.4630733
MJH_0924,50,1,2024-06-16T01:23:55.170Z,english_270.wav,0,1,2303,,,,,0,0,-55.81256687,1.62867923
MJH_0924,50,1,2024-06-16T01:23:55.170Z,english_270.wav,0,1,2303,,,,,1,0.1,86.32458749,1.84562159
MJH_0924,50,1,2024-06-16T01:23:55.170Z,english_270.wav,0,1,2303,,,,,2,0.2,13.49455739,0.93167879
MJH_0924,50,1,2024-06-16T01:23:55.170Z,english_270.wav,0,1,2303,,,,,3,0.3,-68.69500359,1.73816361
MJH_0924,50,1,2024-06-16T01:23:55.170Z,english_270.wav,0,1,2303,,,,,4,0.4,-97.00280027,0.08320837
MJH_0924,50,1,2024-06-16T01:23:55.170Z,english_270.wav,0,1,2303,,,,,5,0.5,-69.821637,1.0435143
MJH_0924,50,1,2024-06-16T01:23:55.170Z,english_270.wav,0,1,2303,,,,,6,0.6,1.11664619,1.6211018
MJH_0924,50,1,2024-06-16T01:23:55.170Z,english_270.wav,0,1,2303,,,,,7,0.7,14.10763844,1.15083177
MJH_0924,50,1,2024-06-16T01:23:55.170Z,english_270.wav,0,1,2303,,,,,8,0.8,-34.97611605,0.10335889
MJH_0924,50,1,2024-06-16T01:23:55.170Z,english_270.wav,0,1,2303,,,,,9,0.9,64.83030817,1.46234983
MJH_0924,50,1,2024-06-16T01:23:55.170Z,english_270.wav,0,1,2303,,,,,10,1,-92.12802344,1.54267918
MJH_0924,50,1,2024-06-16T01:23:55.170Z,english_270.wav,0,1,2303,,,,,11,1.09391667,70.2696905,1.13836595
MJH_0924,51,1,2024-06-16T01:23:55.170Z,english_906.wav,0,0,3247,,,,,0,0,64.42168111,1.18257449
MJH_0924,51,1,2024-06-16T01:23:55.170Z,english_906.wav,0,0,3247,,,,,1,0.1,-75.32695158,0.45696721
MJH_0924,51,1,2024-06-16T01:23:55.170Z,english_906.wav,0,0,3247,,,,,2,0.2,-55.78357421,1.62263234
MJH_0924,51,1,2024-06-16T01:23:55.170Z,english_906.wav,0,0,3247,,,,,3,0.3,26.12850677,0.83346952
MJH_0924,51,1,2024-06-16T01:23:55.170Z,english_906.wav,0,0,3247,,,,,4,0.4,29.10012221,0.76465534
MJH_0924,51,1,2024-06-16T01:23:55.170Z,english_906.wav,0,0,3247,,,,,5,0.5,7.95357938,1.66892635
MJH_0924,51,1,2024-06-16T01:23:55.170Z,english_906.wav,0,0,3247,,,,,6,0.6,-42.71112843,1.28815297
MJH_0924,51,1,2024-06-16T01:23:55.170Z,english_906.wav,0,0,3247,,,,,7,0.7,-60.64092572,1.91632775
MJH_0924,51,1,2024-06-16T01:23:55.170Z,english_906.wav,0,0,3247,,,,,8,0.8,-45.42100425,1.00822189
MJH_0924,51,1,2024-06-16T01:23:55.170Z,english_906.wav,0,0,3247,,,,,9,0.9,59.9641991,0.39736855
MJH_0924,51,1,2024-06-16T01:23:55.170Z,english_906.wav,0,0,3247,,,,,10,1,50.66532668,0.09371369
MJH_0924,51,1,2024-06-16T01:23:55.170Z,english_906.wav,0,0,3247,,,,,11,1.09391667,-51.29146387,1.05932382
MJH_0924,52,1,2024-06-16T01:23:55.170Z,english_489.wav,0,1,1477,,,,,0,0,34.87513384,0.04879029
MJH_0924,52,1,2024-06-16T01:23:55.170Z,english_489.wav,0,1,1477,,,,,1,0.1,-56.49709653,0.42206675
MJH_0924,52,1,2024-06-16T01:23:55.170Z,english_489.wav,0,1,1477,,,,,2,0.2,-69.32456338,1.77329015
MJH_0924,52,1,2024-06-16T01:23:55.170Z,english_489.wav,0,1,1477,,,,,3,0.3,53.20706346,0.48934341
MJH_0924,52,1,2024-06-16T01:23:55.170Z,english_489.wav,0,1,1477,,,,,4,0.4,66.8977185,1.53841919
MJH_0924,52,1,2024-06-16T01:23:55.170Z,english_489.wav,0,1,1477,,,,,5,0.5,47.95425842,1.90609151
MJH_0924,52,1,2024-06-16T01:23:55.170Z,english_489.wav,0,1,1477,,,,,6,0.6,18.45634507,1.04648426
MJH_0924,52,1,2024-06-16T01:23:55.170Z,english_489.wav,0,1,1477,,,,,7,0.7,-35.00488862,0.7592551
MJH_0924,52,1,2024-06-16T01:23:55.170Z,english_489.wav,0,1,1477,,,,,8,0.8,41.56892466,1.06956744
MJH_0924,52,1,2024-06-16T01:23:55.170Z,english_489.wav,0,1,1477,,,,,9,0.9,-9.61579481,0.57636466
MJH_0924,52,1,2024-06-16T01:23:55.170Z,english_489.wav,0,1,1477,,,,,10,1,-77.26438838,0.72315176
MJH_0924,52,1,2024-06-16T01:23:55.170Z,english_489.wav,0,1,1477,,,,,11,1.09391667,-34.81016687,0.99781533
MJH_0924,53,1,2024-06-16T01:23:55.170Z,english_876.wav,0,0,588,,,,,0,0,-22.28605272,0.86114571
MJH_0924,53,1,2024-06-16T01:23:55.170Z,english_876.wav,0,0,588,,,,,1,0.1,88.07210504,1.97575965
MJH_0924,53,1,2024-06-16T01:23:55.170Z,english_876.wav,0,0,588,,,,,2,0.2,-49.70957844,0.63948783
MJH_0924,53,1,2024-06-16T01:23:55.170Z,english_876.wav,0,0,588,,,,,3,0.3,-15.12998944,0.79524936
MJH_0924,53,1,2024-06-16T01:23:55.170Z,english_876.wav,0,0,588,,,,,4,0.4,-15.93875253,1.19082012
MJH_0924,53,1,2024-06-16T01:23:55.170Z,english_876.wav,0,0,588,,,,,5,0.5,-25.52637737,0.64746998
MJH_0924,53,1,2024-06-16T01:23:55.170Z,english_876.wav,0,0,588,,,,,6,0.6,-20.7469083,0.40627419
MJH_0924,53,1,2024-06-16T01:23:55.170Z,english_876.wav,0,0,588,,,,,7,0.7,38.24982305,0.95615642
MJH_0924,53,1,2024-06-16T01:23:55.170Z,english_876.wav,0,0,588,,,,,8,0.8,85.21823118,1.23938009
MJH_0924,53,1,2024-06-16T01:23:55.170Z,english_876.wav,0,0,588,,,,,9,0.9,2.48963564,0.97530307
MJH_0924,53,1,2024-06-16T01:23:55.170Z,english_876.wav,0,0,588,,,,,10,1,33.93764026,0.65277391
MJH_0924,53,1,2024-06-16T01:23:55.170Z,english_876.wav,0,0,588,,,,,11,1.09391667,1.12823357,0.77957787
MJH_0924,54,1,2024-06-16T01:23:55.170Z,english_128.wav,0,0,709,,,,,0,0,-22.61942611,1.66721471
MJH_0924,54,1,2024-06-16T01:23:55.170Z,english_128.wav,0,0,709,,,,,1,0.1,68.41227715,1.06525369
MJH_0924,54,1,2024-06-16T01:23:55.170Z,english_128.wav,0,0,709,,,,,2,0.2,-54.10958419,1.55278382
MJH_0924,54,1,2024-06-16T01:23:55.170Z,english_128.wav,0,0,709,,,,,3,0.3,-34.3976761,1.27447121
MJH_0924,54,1,2024-06-16T01:23:55.170Z,english_128.wav,0,0,709,,,,,4,0.4,-80.35189368,1.24533025
MJH_0924,54,1,2024-06-16T01:23:55.170Z,english_128.wav,0,0,709,,,,,5,0.5,-23.21922247,0.40128709
MJH_0924,54,1,2024-06-16T01:23:55.170Z,english_128.wav,0,0,709,,,,,6,0.6,75.93285278,1.08908342
MJH_0924,54,1,2024-06-16T01:23:55.170Z,english_128.wav,0,0,709,,,,,7,0.7,-25.01230628,1.52248699
MJH_0924,54,1,2024-06-16T01:23:55.170Z,english_128.wav,0,0,709,,,,,8,0.8,23.78207095,1.64911831
MJH_0924,54,1,2024-06-16T01:23:55.170Z,english_128.wav,0,0,709,,,,,9,0.9,-74.87827882,0.03473392
MJH_0924,54,1,2024-06-16T01:23:55.170Z,english_128.wav,0,0,709,,,,,10,1,74.39346852,1.99892406
MJH_0924,54,1,2024-06-16T01:23:55.170Z,english_128.wav,0,0,709,,,,,11,1.09391667,30.71976897,1.56565298
MJH_0924,55,1,2024-06-16T01:23:55.170Z,english_596.wav,0,1,1663,,,,,0,0,-42.68859768,1.28071693
MJH_0924,55,1,2024-06-16T01:23:55.170Z,english_596.wav,0,1,1663,,,,,1,0.1,67.29414518,0.77411838
MJH_0924,55,1,2024-06-16T01:23:55.170Z,english_596.wav,0,1,1663,,,,,2,0.2,-56.57562289,1.32627092
MJH_0924,55,1,2024-06-16T01:23:55.170Z,english_596.wav,0,1,1663,,,,,3,0.3,71.30769152,0.49089119
MJH_0924,55,1,2024-06-16T01:23:55.170Z,english_596.wav,0,1,1663,,,,,4,0.4,95.1886681,0.72473062
MJH_0924,55,1,2024-06-16T01:23:55.170Z,english_596.wav,0,1,1663,,,,,5,0.5,72.69751936,1.52798236
MJH_0924,55,1,2024-06-16T01:23:55.170Z,english_596.wav,0,1,1663,,,,,6,0.6,62.43561612,1.79088814
MJH_0924,55,1,2024-06-16T01:23:55.170Z,english_596.wav,0,1,1663,,,,,7,0.7,-87.58634469,1.96984618
MJH_0924,55,1,2024-06-16T01:23:55.170Z,english_596.wav,0,1,1663,,,,,8,0.8,-28.77393345,1.38508216
MJH_0924,55,1,2024-06-16T01:23:55.170Z,english_596.wav,0,1,1663,,,,,9,0.9,-89.27970112,1.05217053
MJH_0924,55,1,2024-06-16T01:23:55.170Z,english_596.wav,0,1,1663,,,,,10,1,-11.13754725,1.15113027
MJH_0924,55,1,2024-06-16T01:23:55.170Z,english_596.wav,0,1,1663,,,,,11,1.09391667,-71.54799937,0.49767302
MJH_0924,56,1,2024-06-16T01:23:55.170Z,english_850.wav,0,1,1175,,,,,0,0,88.4841053,1.0516167
MJH_0924,56,1,2024-06-16T01:23:55.170Z,english_850.wav,0,1,1175,,,,,1,0.1,44.0356076,0.93870726
MJH_0924,56,1,2024-06-16T01:23:55.170Z,english_850.wav,0,1,1175,,,,,2,0.2,36.7211438,0.35713104
MJH_0924,56,1,2024-06-16T01:23:55.170Z,english_850.wav,0,1,1175,,,,,3,0.3,0.0712842206,0.75335241
MJH_0924,56,1,2024-06-16T01:23:55.170Z,english_850.wav,0,1,1175,,,,,4,0.4,-60.510913,0.4836317
MJH_0924,56,1,2024-06-16T01:23:55.170Z,english_850.wav,0,1,1175,,,,,5,0.5,18.6261702,1.19329581
MJH_0924,56,1,2024-06-16T01:23:55.170Z,english_850.wav,0,1,1175,,,,,6,0.6,28.0848248,0.49505096
MJH_0924,56,1,2024-06-16T01:23:55.170Z,english_850.wav,0,1,1175,,,,,7,0.7,77.0757469,0.01443344
MJH_0924,56,1,2024-06-16T01:23:55.170Z,english_850.wav,0,1,1175,,,,,8,0.8,4.44763904,1.44754501
MJH_0924,56,1,2024-06-16T01:23:55.170Z,english_850.wav,0,1,1175,,,,,9,0.9,-78.5523864,1.7444195
MJH_0924,56,1,2024-06-16T01:23:55.170Z,english_850.wav,0,1,1175,,,,,10,1,-47.0846658,1.61305952
MJH_0924,56,1,2024-06-16T01:23:55.170Z,english_850.wav,0,1,1175,,,,,11,1.09391667,98.0288694,0.78368458
MJH_0924,57,1,2024-06-16T01:23:55.170Z,english_5.wav,0,0,642,,,,,0,0,-71.05887053,0.69305634
MJH_0924,57,1,2024-06-16T01:23:55.170Z,english_5.wav,0,0,642,,,,,1,0.1,-36.04846502,1.95331705
MJH_0924,57,1,2024-06-16T01:23:55.170Z,english_5.wav,0,0,642,,,,,2,0.2,68.09307416,0.24939242
MJH_0924,57,1,2024-06-16T01:23:55.170Z,english_5.wav,0,0,642,,,,,3,0.3,-71.61609357,1.30786136
MJH_0924,57,1,2024-06-16T01:23:55.170Z,english_5.wav,0,0,642,,,,,4,0.4,-14.92970524,0.35721873
MJH_0924,57,1,2024-06-16T01:23:55.170Z,english_5.wav,0,0,642,,,,,5,0.5,36.04461977,1.66367269
MJH_0924,57,1,2024-06-16T01:23:55.170Z,english_5.wav,0,0,642,,,,,6,0.6,61.01603353,1.49043319
MJH_0924,57,1,2024-06-16T01:23:55.170Z,english_5.wav,0,0,642,,,,,7,0.7,22.04787058,1.08702194
MJH_0924,57,1,2024-06-16T01:23:55.170Z,english_5.wav,0,0,642,,,,,8,0.8,-76.70141108,0.32363826
MJH_0924,57,1,2024-06-16T01:23:55.170Z,english_5.wav,0,0,642,,,,,9,0.9,72.36411847,0.22271442
MJH_0924,57,1,2024-06-16T01:23:55.170Z,english_5.wav,0,0,642,,,,,10,1,-2.42248121,1.0907403
MJH_0924,57,1,2024-06-16T01:23:55.170Z,english_5.wav,0,0,642,,,,,11,1.09391667,-45.78406478,0.00462457
MJH_0924,58,1,2024-06-16T01:23:55.170Z,english_400.wav,0,1,1451,,,,,0,0,-25.02230777,0.48486425
MJH_0924,58,1,2024-06-16T01:23:55.170Z,english_400.wav,0,1,1451,,,,,1,0.1,49.22110948,0.13954262
MJH_0924,58,1,2024-06-16T01:23:55.170Z,english_400.wav,0,1,1451,,,,,2,0.2,-25.24422823,0.30114108
MJH_0924,58,1,2024-06-16T01:23:55.170Z,english_400.wav,0,1,1451,,,,,3,0.3,-67.45566663,0.1192849
MJH_0924,58,1,2024-06-16T01:23:55.170Z,english_400.wav,0,1,1451,,,,,4,0.4,-45.51948519,1.32093998
MJH_0924,58,1,2024-06-16T01:23:55.170Z,english_400.wav,0,1,1451,,,,,5,0.5,-18.6326315,1.53333364
MJH_0924,58,1,2024-06-16T01:23:55.170Z,english_400.wav,0,1,1451,,,,,6,0.6,39.79801231,1.63066866
MJH_0924,58,1,2024-06-16T01:23:55.170Z,english_400.wav,0,1,1451,,,,,7,0.7,-16.89099315,1.10413319
MJH_0924,58,1,2024-06-16T01:23:55.170Z,english_400.wav,0,1,1451,,,,,8,0.8,73.50338814,1.82884713
MJH_0924,58,1,2024-06-16T01:23:55.170Z,english_400.wav,0,1,1451,,,,,9,0.9,34.20665044,0.24999453
MJH_0924,58,1,2024-06-16T01:23:55.170Z,english_400.wav,0,1,1451,,,,,10,1,43.60884608,0.44753764
MJH_0924,58,1,2024-06-16T01:23:55.170Z,english_400.wav,0,1,1451,,,,,11,1.09391667,-63.62307837,1.09142561
MJH_0924,59,1,2024-06-16T01:23:55.170Z,english_376.wav,0,1,1950,,,,,0,0,-22.52600132,1.13600224
MJH_0924,59,1,2024-06-16T01:23:55.170Z,english_376.wav,0,1,1950,,,,,1,0.1,29.36992487,0.82385101
MJH_0924,59,1,2024-06-16T01:23:55.170Z,english_376.wav,0,1,1950,,,,,2,0.2,26.35975313,0.21812262
MJH_0924,59,1,2024-06-16T01:23:55.170Z,english_376.wav,0,1,1950,,,,,3,0.3,22.46882007,1.22545345
MJH_0924,59,1,2024-06-16T01:23:55.170Z,english_376.wav,0,1,1950,,,,,4,0.4,-26.33536786,0.68217052
MJH_0924,59,1,2024-06-16T01:23:55.170Z,english_376.wav,0,1,1950,,,,,5,0.5,-27.32741376,1.80813558
MJH_0924,59,1,2024-06-16T01:23:55.170Z,english_376.wav,0,1,1950,,,,,6,0.6,4.49813396,0.4048305
MJH_0924,59,1,2024-06-16T01:23:55.170Z,english_376.wav,0,1,1950,,,,,7,0.7,-47.02321994,1.72982043
MJH_0924,59,1,2024-06-16T01:23:55.170Z,english_376.wav,0,1,1950,,,,,8,0.8,-61.17584125,0.03977306
MJH_0924,59,1,2024-06-16T01:23:55.170Z,english_376.wav,0,1,1950,,,,,9,0.9,-52.37587082,0.16832119
MJH_0924,59,1,2024-06-16T01:23:55.170Z,english_376.wav,0,1,1950,,,,,10,1,53.16500273,1.81503166
MJH_0924,59,1,2024-06-16T01:23:55.170Z,english_376.wav,0,1,1950,,,,,11,1.09391667,31.59148057,0.61812074
MJH_0924,60,1,2024-06-16T01:23:55.170Z,english_211.wav,0,1,1436,,,,,0,0,-80.71487731,0.76887991
MJH_0924,60,1,2024-06-16T01:23:55.170Z,english_211.wav,0,1,1436,,,,,1,0.1,-84.93103541,0.20306802
MJH_0924,60,1,2024-06-16T01:23:55.170Z,english_211.wav,0,1,1436,,,,,2,0.2,44.45354712,0.68006184
MJH_0924,60,1,2024-06-16T01:23:55.170Z,english_211.wav,0,1,1436,,,,,3,0.3,93.3584913,1.00051335
MJH_0924,60,1,2024-06-16T01:23:55.170Z,english_211.wav,0,1,1436,,,,,4,0.4,-88.5655354,1.99828121
MJH_0924,60,1,2024-06-16T01:23:55.170Z,english_211.wav,0,1,1436,,,,,5,0.5,58.50265478,0.71004269
MJH_0924,60,1,2024-06-16T01:23:55.170Z,english_211.wav,0,1,1436,,,,,6,0.6,42.72435837,1.91299509
MJH_0924,60,1,2024-06-16T01:23:55.170Z,english_211.wav,0,1,1436,,,,,7,0.7,15.71938112,1.01891246
MJH_0924,60,1,2024-06-16T01:23:55.170Z,english_211.wav,0,1,1436,,,,,8,0.8,7.70597987,1.53959141
MJH_0924,60,1,2024-06-16T01:23:55.170Z,english_211.wav,0,1,1436,,,,,9,0.9,-16.73581283,1.64058726
MJH_0924,60,1,2024-06-16T01:23:55.170Z,english_211.wav,0,1,1436,,,,,10,1,-59.877834,1.4823545
MJH_0924,60,1,2024-06-16T01:23:55.170Z,english_211.wav,0,1,1436,,,,,11,1.09391667,39.92997673,1.39164399
MJH_0924,61,1,2024-06-16T01:23:55.170Z,english_868.wav,0,1,1196,,,,,0,0,8.81168197,0.91928245
MJH_0924,61,1,2024-06-16T01:23:55.170Z,english_868.wav,0,1,1196,,,,,1,0.1,28.82624603,1.1322176
MJH_0924,61,1,2024-06-16T01:23:55.170Z,english_868.wav,0,1,1196,,,,,2,0.2,-13.41860503,0.903902
MJH_0924,61,1,2024-06-16T01:23:55.170Z,english_868.wav,0,1,1196,,,,,3,0.3,-3.78239355,0.85237712
MJH_0924,61,1,2024-06-16T01:23:55.170Z,english_868.wav,0,1,1196,,,,,4,0.4,-99.28888376,0.30528578
MJH_0924,61,1,2024-06-16T01:23:55.170Z,english_868.wav,0,1,1196,,,,,5,0.5,97.17399406,0.73312891
MJH_0924,61,1,2024-06-16T01:23:55.170Z,english_868.wav,0,1,1196,,,,,6,0.6,-7.91387191,1.49247212
MJH_0924,61,1,2024-06-16T01:23:55.170Z,english_868.wav,0,1,1196,,,,,7,0.7,60.9049728,1.20652206
MJH_0924,61,1,2024-06-16T01:23:55.170Z,english_868.wav,0,1,1196,,,,,8,0.8,-11.98639675,1.13523652
MJH_0924,61,1,2024-06-16T01:23:55.170Z,english_868.wav,0,1,1196,,,,,9,0.9,-1.38257528,0.60296342
MJH_0924,61,1,2024-06-16T01:23:55.170Z,english_868.wav,0,1,1196,,,,,10,1,25.89344048,0.75702193
MJH_0924,61,1,2024-06-16T01:23:55.170Z,english_868.wav,0,1,1196,,,,,11,1.09391667,-40.04347975,0.87917509
MJH_0924,62,1,2024-06-16T01:23:55.170Z,english_632.wav,0,1,1096,,,,,0,0,54.27416022,0.37224575
MJH_0924,62,1,2024-06-16T01:23:55.170Z,english_632.wav,0,1,1096,,,,,1,0.1,37.10784124,1.19176423
MJH_0924,62,1,2024-06-16T01:23:55.170Z,english_632.wav,0,1,1096,,,,,2,0.2,-11.42343802,1.11602641
MJH_0924,62,1,2024-06-16T01:23:55.170Z,english_632.wav,0,1,1096,,,,,3,0.3,83.07683271,0.86319718
MJH_0924,62,1,2024-06-16T01:23:55.170Z,english_632.wav,0,1,1096,,,,,4,0.4,-41.86230003,1.45181299
MJH_0924,62,1,2024-06-16T01:23:55.170Z,english_632.wav,0,1,1096,,,,,5,0.5,-65.18909296,0.00810665
MJH_0924,62,1,2024-06-16T01:23:55.170Z,english_632.wav,0,1,1096,,,,,6,0.6,73.88921211,1.82551729
MJH_0924,62,1,2024-06-16T01:23:55.170Z,english_632.wav,0,1,1096,,,,,7,0.7,-78.27421644,0.97441054
MJH_0924,62,1,2024-06-16T01:23:55.170Z,english_632.wav,0,1,1096,,,,,8,0.8,-55.91875918,1.38456518
MJH_0924,62,1,2024-06-16T01:23:55.170Z,english_632.wav,0,1,1096,,,,,9,0.9,38.52779866,1.39025004
MJH_0924,62,1,2024-06-16T01:23:55.170Z,english_632.wav,0,1,1096,,,,,10,1,-63.00995407,0.73323837
MJH_0924,62,1,2024-06-16T01:23:55.170Z,english_632.wav,0,1,1096,,,,,11,1.09391667,-47.01105768,1.12337895
MJH_0924,63,1,2024-06-16T01:23:55.170Z,english_914.wav,0,0,715,,,,,0,0,38.978205,0.35912604
MJH_0924,63,1,2024-06-16T01:23:55.170Z,english_914.wav,0,0,715,,,,,1,0.1,87.18341185,1.3669236
MJH_0924,63,1,2024-06-16T01:23:55.170Z,english_914.wav,0,0,715,,,,,2,0.2,15.47005822,0.84210071
MJH_0924,63,1,2024-06-16T01:23:55.170Z,english_914.wav,0,0,715,,,,,3,0.3,29.25641776,0.05134094
MJH_0924,63,1,2024-06-16T01:23:55.170Z,english_914.wav,0,0,715,,,,,4,0.4,-96.55134364,1.13395744
MJH_0924,63,1,2024-06-16T01:23:55.170Z,english_914.wav,0,0,715,,,,,5,0.5,-89.29155074,0.79197201
MJH_0924,63,1,2024-06-16T01:23:55.170Z,english_914.wav,0,0,715,,,,,6,0.6,-61.94858481,0.91379793
MJH_0924,63,1,2024-06-16T01:23:55.170Z,english_914.wav,0,0,715,,,,,7,0.7,-73.41037345,1.19795288
MJH_0924,63,1,2024-06-16T01:23:55.170Z,english_914.wav,0,0,715,,,,,8,0.8,-99.30720203,1.39899474
MJH_0924,63,1,2024-06-16T01:23:55.170Z,english_914.wav,0,0,715,,,,,9,0.9,81.02685233,0.56128817
MJH_0924,63,1,2024-06-16T01:23:55.170Z,english_914.wav,0,0,715,,,,,10,1,-61.71265148,1.38071697
MJH_0924,63,1,2024-06-16T01:23:55.170Z,english_914.wav,0,0,715,,,,,11,1.09391667,-35.17076378,1.53641314
MJH_0924,64,1,2024-06-16T01:23:55.170Z,english_988.wav,0,0,878,,,,,0,0,41.01121176,1.79508408
MJH_0924,64,1,2024-06-16T01:23:55.170Z,english_988.wav,0,0,878,,,,,1,0.1,-57.00509923,0.91683768
MJH_0924,64,1,2024-06-16T01:23:55.170Z,english_988.wav,0,0,878,,,,,2,0.2,-47.7423933,0.75632301
MJH_0924,64,1,2024-06-16T01:23:55.170Z,english_988.wav,0,0,878,,,,,3,0.3,-45.09224268,0.50123111
MJH_0924,64,1,2024-06-16T01:23:55.170Z,english_988.wav,0,0,878,,,,,4,0.4,-86.23747248,1.43218642
MJH_0924,64,1,2024-06-16T01:23:55.170Z,english_988.wav,0,0,878,,,,,5,0.5,32.23270896,1.02417726
MJH_0924,64,1,2024-06-16T01:23:55.170Z,english_988.wav,0,0,878,,,,,6,0.6,83.03664367,0.26646991
MJH_0924,64,1,2024-06-16T01:23:55.170Z,english_988.wav,0,0,878,,,,,7,0.7,23.13228138,0.55372386
MJH_0924,64,1,2024-06-16T01:23:55.170Z,english_988.wav,0,0,878,,,,,8,0.8,-80.96876175,1.25427564
MJH_0924,64,1,2024-06-16T01:23:55.170Z,english_988.wav,0,0,878,,,,,9,0.9,85.87163391,1.46901823
MJH_0924,64,1,2024-06-16T01:23:55.170Z,english_988.wav,0,0,878,,,,,10,1,65.98257536,1.62105321
MJH_0924,64,1,2024-06-16T01:23:55.170Z,english_988.wav,0,0,878,,,,,11,1.09391667,8.92791605,1.15707193
MJH_0924,65,1,2024-06-16T01:23:55.170Z,english_778.wav,0,1,801,,,,,0,0,82.0288253,1.66099758
MJH_0924,65,1,2024-06-16T01:23:55.170Z,english_778.wav,0,1,801,,,,,1,0.1,-20.3816384,0.6394452
MJH_0924,65,1,2024-06-16T01:23:55.170Z,english_778.wav,0,1,801,,,,,2,0.2,20.1187508,1.73198521
MJH_0924,65,1,2024-06-16T01:23:55.170Z,english_778.wav,0,1,801,,,,,3,0.3,-67.3840406,1.63414449
MJH_0924,65,1,2024-06-16T01:23:55.170Z,english_778.wav,0,1,801,,,,,4,0.4,41.792495,0.91528965
MJH_0924,65,1,2024-06-16T01:23:55.170Z,english_778.wav,0,1,801,,,,,5,0.5,69.2908492,1.84340145
MJH_0924,65,1,2024-06-16T01:23:55.170Z,english_778.wav,0,1,801,,,,,6,0.6,-41.9809295,0.70098427
MJH_0924,65,1,2024-06-16T01:23:55.170Z,english_778.wav,0,1,801,,,,,7,0.7,93.0761369,1.59677801
MJH_0924,65,1,2024-06-16T01:23:55.170Z,english_778.wav,0,1,801,,,,,8,0.8,4.08814008,0.75626513
MJH_0924,65,1,2024-06-16T01:23:55.170Z,english_778.wav,0,1,801,,,,,9,0.9,-0.0375531871,1.05104073
MJH_0924,65,1,2024-06-16T01:23:55.170Z,english_778.wav,0,1,801,,,,,10,1,-79.0647822,0.42401001
MJH_0924,65,1,2024-06-16T01:23:55.170Z,english_778.wav,0,1,801,,,,,11,1.09391667,-53.0664028,1.42241932
MJH_0924,66,1,2024-06-16T01:23:55.170Z,english_732.wav,0,1,1237,,,,,0,0,-6.1655518,1.83743041
MJH_0924,66,1,2024-06-16T01:23:55.170Z,english_732.wav,0,1,1237,,,,,1,0.1,-21.68268247,0.45034165
MJH_0924,66,1,2024-06-16T01:23:55.170Z,english_732.wav,0,1,1237,,,,,2,0.2,-44.18505393,1.43977044
MJH_0924,66,1,2024-06-16T01:23:55.170Z,english_732.wav,0,1,1237,,,,,3,0.3,-99.08787178,1.63276402
MJH_0924,66,1,2024-06-16T01:23:55.170Z,english_732.wav,0,1,1237,,,,,4,0.4,52.69419041,1.14410498
MJH_0924,66,1,2024-06-16T01:23:55.170Z,english_732.wav,0,1,1237,,,,,5,0.5,-22.76801282,0.80499942
MJH_0924,66,1,2024-06-16T01:23:55.170Z,english_732.wav,0,1,1237,,,,,6,0.6,-68.37024344,0.00488355
MJH_0924,66,1,2024-06-16T01:23:55.170Z,english_732.wav,0,1,1237,,,,,7,0.7,99.79862575,1.08087267
MJH_0924,66,1,2024-06-16T01:23:55.170Z,english_732.wav,0,1,1237,,,,,8,0.8,-45.96985204,0.60546967
MJH_0924,66,1,2024-06-16T01:23:55.170Z,english_732.wav,0,1,1237,,,,,9,0.9,34.4904792,1.53964006
MJH_0924,66,1,2024-06-16T01:23:55.170Z,english_732.wav,0,1,1237,,,,,10,1,-81.20928849,0.59388625
MJH_0924,66,1,2024-06-16T01:23:55.170Z,english_732.wav,0,1,1237,,,,,11,1.09391667,-1.26617119,1.72169188
MJH_0924,67,1,2024-06-16T01:23:55.170Z,english_29.wav,0,1,1273,,,,,0,0,26.34165935,1.71213773
MJH_0924,67,1,2024-06-16T01:23:55.170Z,english_29.wav,0,1,1273,,,,,1,0.1,-56.59594866,1.15120834
MJH_0924,67,1,2024-06-16T01:23:55.170Z,english_29.wav,0,1,1273,,,,,2,0.2,55.77264446,0.20532707
MJH_0924,67,1,2024-06-16T01:23:55.170Z,english_29.wav,0,1,1273,,,,,3,0.3,59.58576331,1.44609217
MJH_0924,67,1,2024-06-16T01:23:55.170Z,english_29.wav,0,1,1273,,,,,4,0.4,50.57214918,1.59031005
MJH_0924,67,1,2024-06-16T01:23:55.170Z,english_29.wav,0,1,1273,,,,,5,0.5,-27.64478316,1.08553967
MJH_0924,67,1,2024-06-16T01:23:55.170Z,english_29.wav,0,1,1273,,,,,6,0.6,2.0668356,0.33734673
MJH_0924,67,1,2024-06-16T01:23:55.170Z,english_29.wav,0,1,1273,,,,,7,0.7,16.42838057,1.73819429
MJH_0924,67,1,2024-06-16T01:23:55.170Z,english_29.wav,0,1,1273,,,,,8,0.8,-69.32816756,1.21021958
MJH_0924,67,1,2024-06-16T01:23:55.170Z,english_29.wav,0,1,1273,,,,,9,0.9,-50.9336042,0.40648389
MJH_0924,67,1,2024-06-16T01:23:55.170Z,english_29.wav,0,1,1273,,,,,10,1,-74.04317483,1.02452254
MJH_0924,67,1,2024-06-16T01:23:55.170Z,english_29.wav,0,1,1273,,,,,11,1.09391667,-55.97160762,0.57453433
MJH_0924,68,1,2024-06-16T01:23:55.170Z,english_525.wav,0,1,956,,,,,0,0,-85.30144906,1.21891661
MJH_0924,68,1,2024-06-16T01:23:55.170Z,english_525.wav,0,1,956,,,,,1,0.1,40.69478692,0.63566771
MJH_0924,68,1,2024-06-16T01:23:55.170Z,english_525.wav,0,1,956,,,,,2,0.2,27.58167259,1.09185932
MJH_0924,68,1,2024-06-16T01:23:55.170Z,english_525.wav,0,1,956,,,,,3,0.3,-9.65414258,1.3630453
MJH_0924,68,1,2024-06-16T01:23:55.170Z,english_525.wav,0,1,956,,,,,4,0.4,-92.26214691,0.47547332
MJH_0924,68,1,2024-06-16T01:23:55.170Z,english_525.wav,0,1,956,,,,,5,0.5,1.87368715,0.98334241
MJH_0924,68,1,2024-06-16T01:23:55.170Z,english_525.wav,0,1,956,,,,,6,0.6,84.67723439,1.24273573
MJH_0924,68,1,2024-06-16T01:23:55.170Z,english_525.wav,0,1,956,,,,,7,0.7,-37.99334031,1.29787156
MJH_0924,68,1,2024-06-16T01:23:55.170Z,english_525.wav,0,1,956,,,,,8,0.8,91.90351479,1.39013402
MJH_0924,68,1,2024-06-16T01:23:55.170Z,english_525.wav,0,1,956,,,,,9,0.9,51.5107545,0.19016555
MJH_0924,68,1,2024-06-16T01:23:55.170Z,english_525.wav,0,1,956,,,,,10,1,-23.16743883,0.57102757
MJH_0924,68,1,2024-06-16T01:23:55.170Z,english_525.wav,0,1,956,,,,,11,1.09391667,-40.96893152,0.41777753
MJH_0924,69,1,2024-06-16T01:23:55.170Z,english_845.wav,0,1,766,,,,,0,0,-61.18892781,1.55957949
MJH_0924,69,1,2024-06-16T01:23:55.170Z,english_845.wav,0,1,766,,,,,1,0.1,8.4641668,1.05534156
MJH_0924,69,1,2024-06-16T01:23:55.170Z,english_845.wav,0,1,766,,,,,2,0.2,0.84088791,0.93552033
MJH_0924,69,1,2024-06-16T01:23:55.170Z,english_845.wav,0,1,766,,,,,3,0.3,-9.8412312,0.24777776
MJH_0924,69,1,2024-06-16T01:23:55.170Z,english_845.wav,0,1,766,,,,,4,0.4,-21.11860301,1.606596
MJH_0924,69,1,2024-06-16T01:23:55.170Z,english_845.wav,0,1,766,,,,,5,0.5,34.07912785,0.0797637
MJH_0924,69,1,2024-06-16T01:23:55.170Z,english_845.wav,0,1,766,,,,,6,0.6,64.64422996,1.39069449
MJH_0924,69,1,2024-06-16T01:23:55.170Z,english_845.wav,0,1,766,,,,,7,0.7,81.5282496,1.71426298
MJH_0924,69,1,2024-06-16T01:23:55.170Z,english_845.wav,0,1,766,,,,,8,0.8,-41.49609234,1.5257375
MJH_0924,69,1,2024-06-16T01:23:55.170Z,english_845.wav,0,1,766,,,,,9,0.9,-61.24692635,1.70112136
MJH_0924,69,1,2024-06-16T01:23:55.170Z,english_845.wav,0,1,766,,,,,10,1,-26.75626129,1.79204809
MJH_0924,69,1,2024-06-16T01:23:55.170Z,english_845.wav,0,1,766,,,,,11,1.09391667,-16.60910859,0.33711634
MJH_0924,70,1,2024-06-16T01:23:55.170Z,english_445.wav,0,1,1225,,,,,0,0,76.42112213,1.57802926
MJH_0924,70,1,2024-06-16T01:23:55.170Z,english_445.wav,0,1,1225,,,,,1,0.1,-97.95203426,1.29835175
MJH_0924,70,1,2024-06-16T01:23:55.170Z,english_445.wav,0,1,1225,,,,,2,0.2,-59.82746333,0.53636504
MJH_0924,70,1,2024-06-16T01:23:55.170Z,english_445.wav,0,1,1225,,,,,3,0.3,-13.48573522,1.2021667
MJH_0924,70,1,2024-06-16T01:23:55.170Z,english_445.wav,0,1,1225,,,,,4,0.4,81.29973607,1.41426839
MJH_0924,70,1,2024-06-16T01:23:55.170Z,english_445.wav,0,1,1225,,,,,5,0.5,41.3671656,1.60295296
MJH_0924,70,1,2024-06-16T01:23:55.170Z,english_445.wav,0,1,1225,,,,,6,0.6,-85.98514438,0.58159358
MJH_0924,70,1,2024-06-16T01:23:55.170Z,english_445.wav,0,1,1225,,,,,7,0.7,57.90232239,0.76199649
MJH_0924,70,1,2024-06-16T01:23:55.170Z,english_445.wav,0,1,1225,,,,,8,0.8,-95.60547231,0.54097795
MJH_0924,70,1,2024-06-16T01:23:55.170Z,english_445.wav,0,1,1225,,,,,9,0.9,17.13362758,0.00538706
MJH_0924,70,1,2024-06-16T01:23:55.170Z,english_445.wav,0,1,1225,,,,,10,1,46.54539843,0.3060589
MJH_0924,70,1,2024-06-16T01:23:55.170Z,english_445.wav,0,1,1225,,,,,11,1.09391667,43.78720367,1.39576853
MJH_0924,71,1,2024-06-16T01:23:55.170Z,english_793.wav,0,0,865,,,,,0,0,-39.70617561,0.49970472
MJH_0924,71,1,2024-06-16T01:23:55.170Z,english_793.wav,0,0,865,,,,,1,0.1,-29.28823244,0.64262829
MJH_0924,71,1,2024-06-16T01:23:55.170Z,english_793.wav,0,0,865,,,,,2,0.2,-89.65836103,1.52317209
MJH_0924,71,1,2024-06-16T01:23:55.170Z,english_793.wav,0,0,865,,,,,3,0.3,9.66432805,0.03732268
MJH_0924,71,1,2024-06-16T01:23:55.170Z,english_793.wav,0,0,865,,,,,4,0.4,46.78400104,0.76197013
MJH_0924,71,1,2024-06-16T01:23:55.170Z,english_793.wav,0,0,865,,,,,5,0.5,77.17847788,1.20681543
MJH_0924,71,1,2024-06-16T01:23:55.170Z,english_793.wav,0,0,865,,,,,6,0.6,65.90216738,0.39643945
MJH_0924,71,1,2024-06-16T01:23:55.170Z,english_793.wav,0,0,865,,,,,7,0.7,19.02180402,0.55038392
MJH_0924,71,1,2024-06-16T01:23:55.170Z,english_793.wav,0,0,865,,,,,8,0.8,4.99424524,0.97724905
MJH_0924,71,1,2024-06-16T01:23:55.170Z,english_793.wav,0,0,865,,,,,9,0.9,95.94113908,1.29198989
MJH_0924,71,1,2024-06-16T01:23:55.170Z,english_793.wav,0,0,865,,,,,10,1,5.28849012,1.94187371
MJH_0924,71,1,2024-06-16T01:23:55.170Z,english_793.wav,0,0,865,,,,,11,1.09391667,-28.1855206,0.04726533
MJH_0924,72,1,2024-06-16T01:23:55.170Z,english_146.wav,0,0,1119,,,,,0,0,56.30698685,0.40218926
MJH_0924,72,1,2024-06-16T01:23:55.170Z,english_146.wav,0,0,1119,,,,,1,0.1,33.76808102,1.30498568
MJH_0924,72,1,2024-06-16T01:23:55.170Z,english_146.wav,0,0,1119,,,,,2,0.2,7.3416935,1.88518083
MJH_0924,72,1,2024-06-16T01:23:55.170Z,english_146.wav,0,0,1119,,,,,3,0.3,54.00115317,0.73939723
MJH_0924,72,1,2024-06-16T01:23:55.170Z,english_146.wav,0,0,1119,,,,,4,0.4,60.50079064,1.18416515
MJH_0924,72,1,2024-06-16T01:23:55.170Z,english_146.wav,0,0,1119,,,,,5,0.5,93.58064811,0.74397262
MJH_0924,72,1,2024-06-16T01:23:55.170Z,english_146.wav,0,0,1119,,,,,6,0.6,16.38414301,1.77833366
MJH_0924,72,1,2024-06-16T01:23:55.170Z,english_146.wav,0,0,1119,,,,,7,0.7,53.45076847,0.98273851
MJH_0924,72,1,2024-06-16T01:23:55.170Z,english_146.wav,0,0,1119,,,,,8,0.8,57.56482396,1.41119053
MJH_0924,72,1,2024-06-16T01:23:55.170Z,english_146.wav,0,0,1119,,,,,9,0.9,-28.26782972,0.90766435
MJH_0924,72,1,2024-06-16T01:23:55.170Z,english_146.wav,0,0,1119,,,,,10,1,79.66793606,0.33691203
MJH_0924,72,1,2024-06-16T01:23:55.170Z,english_146.wav,0,0,1119,,,,,11,1.09391667,23.81863578,1.86488134
MJH_0924,73,1,2024-06-16T01:23:55.170Z,english_420.wav,0,0,985,,,,,0,0,66.35781632,1.51060149
MJH_0924,73,1,2024-06-16T01:23:55.170Z,english_420.wav,0,0,985,,,,,1,0.1,-12.06831675,0.86092396
MJH_0924,73,1,2024-06-16T01:23:55.170Z,english_420.wav,0,0,985,,,,,2,0.2,71.12167329,1.98213421
MJH_0924,73,1,2024-06-16T01:23:55.170Z,english_420.wav,0,0,985,,,,,3,0.3,-65.08320496,0.15165496
MJH_0924,73,1,2024-06-16T01:23:55.170Z,english_420.wav,0,0,985,,,,,4,0.4,-82.82301749,1.26926091
MJH_0924,73,1,2024-06-16T01:23:55.170Z,english_420.wav,0,0,985,,,,,5,0.5,32.31625944,1.00523376
MJH_0924,73,1,2024-06-16T01:23:55.170Z,english_420.wav,0,0,985,,,,,6,0.6,68.14197427,1.33555594
MJH_0924,73,1,2024-06-16T01:23:55.170Z,english_420.wav,0,0,985,,,,,7,0.7,69.60296215,1.16834727
MJH_0924,73,1,2024-06-16T01:23:55.170Z,english_420.wav,0,0,985,,,,,8,0.8,38.87135773,0.07961385
MJH_0924,73,1,2024-06-16T01:23:55.170Z,english_420.wav,0,0,985,,,,,9,0.9,55.81325805,0.13061417
MJH_0924,73,1,2024-06-16T01:23:55.170Z,english_420.wav,0,0,985,,,,,10,1,91.56317805,1.16603809
MJH_0924,73,1,2024-06-16T01:23:55.170Z,english_420.wav,0,0,985,,,,,11,1.09391667,58.32530745,1.93332186
MJH_0924,74,1,2024-06-16T01:23:55.170Z,english_92.wav,0,0,595,,,,,0,0,11.31108637,1.92205207
MJH_0924,74,1,2024-06-16T01:23:55.170Z,english_92.wav,0,0,595,,,,,1,0.1,68.41269988,0.65302474
MJH_0924,74,1,2024-06-16T01:23:55.170Z,english_92.wav,0,0,595,,,,,2,0.2,-5.85446567,1.94520229
MJH_0924,74,1,2024-06-16T01:23:55.170Z,english_92.wav,0,0,595,,,,,3,0.3,-56.17314857,1.28044043
MJH_0924,74,1,2024-06-16T01:23:55.170Z,english_92.wav,0,0,595,,,,,4,0.4,-61.8847044,0.6978833
MJH_0924,74,1,2024-06-16T01:23:55.170Z,english_92.wav,0,0,595,,,,,5,0.5,11.37598658,1.39245958
MJH_0924,74,1,2024-06-16T01:23:55.170Z,english_92.wav,0,0,595,,,,,6,0.6,19.4709674,1.41686082
MJH_0924,74,1,2024-06-16T01:23:55.170Z,english_92.wav,0,0,595,,,,,7,0.7,-11.82404326,0.26269969
MJH_0924,74,1,2024-06-16T01:23:55.170Z,english_92.wav,0,0,595,,,,,8,0.8,-12.10341162,0.56613425
MJH_0924,74,1,2024-06-16T01:23:55.170Z,english_92.wav,0,0,595,,,,,9,0.9,2.74595363,0.73944091
MJH_0924,74,1,2024-06-16T01:23:55.170Z,english_92.wav,0,0,595,,,,,10,1,41.36202449,1.55048139
MJH_0924,74,1,2024-06-16T01:23:55.170Z,english_92.wav,0,0,595,,,,,11,1.09391667,-69.11430068,1.16346143
MJH_0924,75,1,2024-06-16T01:23:55.170Z,english_301.wav,0,0,1527,,,,,0,0,20.00084454,0.51149801
MJH_0924,75,1,2024-06-16T01:23:55.170Z,english_301.wav,0,0,1527,,,,,1,0.1,-52.8514029,1.39891418
MJH_0924,75,1,2024-06-16T01:23:55.170Z,english_301.wav,0,0,1527,,,,,2,0.2,18.35573453,1.20064295
MJH_0924,75,1,2024-06-16T01:23:55.170Z,english_301.wav,0,0,1527,,,,,3,0.3,20.24530443,1.16262284
MJH_0924,75,1,2024-06-16T01:23:55.170Z,english_301.wav,0,0,1527,,,,,4,0.4,-31.13596974,0.89189618
MJH_0924,75,1,2024-06-16T01:23:55.170Z,english_301.wav,0,0,1527,,,,,5,0.5,-57.63348461,0.05591257
MJH_0924,75,1,2024-06-16T01:23:55.170Z,english_301.wav,0,0,1527,,,,,6,0.6,-75.64185581,1.65560528
MJH_0924,75,1,2024-06-16T01:23:55.170Z,english_301.wav,0,0,1527,,,,,7,0.7,11.75816268,0.92096294
MJH_0924,75,1,2024-06-16T01:23:55.170Z,english_301.wav,0,0,1527,,,,,8,0.8,94.20607314,0.41490279
MJH_0924,75,1,2024-06-16T01:23:55.170Z,english_301.wav,0,0,1527,,,,,9,0.9,-85.03664705,1.73145538
MJH_0924,75,1,2024-06-16T01:23:55.170Z,english_301.wav,0,0,1527,,,,,10,1,-35.05020918,1.60276464
MJH_0924,75,1,2024-06-16T01:23:55.170Z,english_301.wav,0,0,1527,,,,,11,1.09391667,79.38839228,1.26188471
MJH_0924,76,1,2024-06-16T01:23:55.170Z,english_652.wav,0,0,977,,,,,0,0,-6.47134423,1.78340321
MJH_0924,76,1,2024-06-16T01:23:55.170Z,english_652.wav,0,0,977,,,,,1,0.1,15.08810971,1.37348527
MJH_0924,76,1,2024-06-16T01:23:55.170Z,english_652.wav,0,0,977,,,,,2,0.2,98.29631383,0.90438715
MJH_0924,76,1,2024-06-16T01:23:55.170Z,english_652.wav,0,0,977,,,,,3,0.3,30.58339985,0.90448146
MJH_0924,76,1,2024-06-16T01:23:55.170Z,english_652.wav,0,0,977,,,,,4,0.4,-6.30529528,0.6194213
MJH_0924,76,1,2024-06-16T01:23:55.170Z,english_652.wav,0,0,977,,,,,5,0.5,-44.5601624,1.03986034
MJH_0924,76,1,2024-06-16T01:23:55.170Z,english_652.wav,0,0,977,,,,,6,0.6,4.47931007,0.52762796
MJH_0924,76,1,2024-06-16T01:23:55.170Z,english_652.wav,0,0,977,,,,,7,0.7,-52.28319513,0.92865907
MJH_0924,76,1,2024-06-16T01:23:55.170Z,english_652.wav,0,0,977,,,,,8,0.8,17.6405793,1.28477406
MJH_0924,76,1,2024-06-16T01:23:55.170Z,english_652.wav,0,0,977,,,,,9,0.9,2.7192508,1.34724363
MJH_0924,76,1,2024-06-16T01:23:55.170Z,english_652.wav,0,0,977,,,,,10,1,-8.76412426,1.76490877
MJH_0924,76,1,2024-06-16T01:23:55.170Z,english_652.wav,0,0,977,,,,,11,1.09391667,53.37366327,1.20575877
MJH_0924,77,1,2024-06-16T01:23:55.170Z,english_35.wav,0,1,3134,,,,,0,0,-33.2471352,0.63198815
MJH_0924,77,1,2024-06-16T01:23:55.170Z,english_35.wav,0,1,3134,,,,,1,0.1,-56.9991421,0.43394686
MJH_0924,77,1,2024-06-16T01:23:55.170Z,english_35.wav,0,1,3134,,,,,2,0.2,-53.141025,1.61809769
MJH_0924,77,1,2024-06-16T01:23:55.170Z,english_35.wav,0,1,3134,,,,,3,0.3,-97.470792,0.75167401
MJH_0924,77,1,2024-06-16T01:23:55.170Z,english_35.wav,0,1,3134,,,,,4,0.4,25.2422215,0.72143441
MJH_0924,77,1,2024-06-16T01:23:55.170Z,english_35.wav,0,1,3134,,,,,5,0.5,-39.0524292,1.49847169
MJH_0924,77,1,2024-06-16T01:23:55.170Z,english_35.wav,0,1,3134,,,,,6,0.6,-99.0462998,0.81761607
MJH_0924,77,1,2024-06-16T01:23:55.170Z,english_35.wav,0,1,3134,,,,,7,0.7,48.0059539,1.11392086
MJH_0924,77,1,2024-06-16T01:23:55.170Z,english_35.wav,0,1,3134,,,,,8,0.8,73.4220257,1.25690952
MJH_0924,77,1,2024-06-16T01:23:55.170Z,english_35.wav,0,1,3134,,,,,9,0.9,-41.814313,1.7324837
MJH_0924,77,1,2024-06-16T01:23:55.170Z,english_35.wav,0,1,3134,,,,,10,1,0.040670218,0.64426718
MJH_0924,77,1,2024-06-16T01:23:55.170Z,english_35.wav,0,1,3134,,,,,11,1.09391667,34.2858519,1.0286628
MJH_0924,78,1,2024-06-16T01:23:55.170Z,english_50.wav,0,1,3650,,,,,0,0,-32.36494138,1.37054129
MJH_0924,78,1,2024-06-16T01:23:55.170Z,english_50.wav,0,1,3650,,,,,1,0.1,76.6244439,1.57215181
MJH_0924,78,1,2024-06-16T01:23:55.170Z,english_50.wav,0,1,3650,,,,,2,0.2,-16.62217643,1.07317842
MJH_0924,78,1,2024-06-16T01:23:55.170Z,english_50.wav,0,1,3650,,,,,3,0.3,63.40850527,0.82623857
MJH_0924,78,1,2024-06-16T01:23:55.170Z,english_50.wav,0,1,3650,,,,,4,0.4,68.81783594,0.72038729
MJH_0924,78,1,2024-06-16T01:23:55.170Z,english_50.wav,0,1,3650,,,,,5,0.5,-35.17384088,1.90936147
MJH_0924,78,1,2024-06-16T01:23:55.170Z,english_50.wav,0,1,3650,,,,,6,0.6,42.93688325,0.3744962
MJH_0924,78,1,2024-06-16T01:23:55.170Z,english_50.wav,0,1,3650,,,,,7,0.7,-82.21044816,0.69245834
MJH_0924,78,1,2024-06-16T01:23:55.170Z,english_50.wav,0,1,3650,,,,,8,0.8,-42.73245843,0.60585647
MJH_0924,78,1,2024-06-16T01:23:55.170Z,english_50.wav,0,1,3650,,,,,9,0.9,-3.13393134,1.24840552
MJH_0924,78,1,2024-06-16T01:23:55.170Z,english_50.wav,0,1,3650,,,,,10,1,-86.41078269,0.02488175
MJH_0924,78,1,2024-06-16T01:23:55.170Z,english_50.wav,0,1,3650,,,,,11,1.09391667,14.80187439,1.59728167
MJH_0924,79,1,2024-06-16T01:23:55.170Z,english_482.wav,0,1,1104,,,,,0,0,20.07417146,1.35721439
MJH_0924,79,1,2024-06-16T01:23:55.170Z,english_482.wav,0,1,1104,,,,,1,0.1,-12.82737333,1.71306389
MJH_0924,79,1,2024-06-16T01:23:55.170Z,english_482.wav,0,1,1104,,,,,2,0.2,46.60771192,0.15096255
MJH_0924,79,1,2024-06-16T01:23:55.170Z,english_482.wav,0,1,1104,,,,,3,0.3,92.39920005,1.17077369
MJH_0924,79,1,2024-06-16T01:23:55.170Z,english_482.wav,0,1,1104,,,,,4,0.4,96.99690807,0.74035243
MJH_0924,79,1,2024-06-16T01:23:55.170Z,english_482.wav,0,1,1104,,,,,5,0.5,12.60829295,1.34523093
MJH_0924,79,1,2024-06-16T01:23:55.170Z,english_482.wav,0,1,1104,,,,,6,0.6,-23.92845314,0.96774723
MJH_0924,79,1,2024-06-16T01:23:55.170Z,english_482.wav,0,1,1104,,,,,7,0.7,-47.3765233,1.67491069
MJH_0924,79,1,2024-06-16T01:23:55.170Z,english_482.wav,0,1,1104,,,,,8,0.8,55.97987906,1.90247302
MJH_0924,79,1,2024-06-16T01:23:55.170Z,english_482.wav,0,1,1104,,,,,9,0.9,22.28704579,1.31919575
MJH_0924,79,1,2024-06-16T01:23:55.170Z,english_482.wav,0,1,1104,,,,,10,1,67.15676761,1.48251796
MJH_0924,79,1,2024-06-16T01:23:55.170Z,english_482.wav,0,1,1104,,,,,11,1.09391667,46.69344931,0.85176568
MJH_0924,80,1,2024-06-16T01:23:55.170Z,english_752.wav,0,1,697,,,,,0,0,52.61686216,1.6341758
MJH_0924,80,1,2024-06-16T01:23:55.170Z,english_752.wav,0,1,697,,,,,1,0.1,-18.45204241,0.5397069
MJH_0924,80,1,2024-06-16T01:23:55.170Z,english_752.wav,0,1,697,,,,,2,0.2,-6.44553856,1.4905668
MJH_0924,80,1,2024-06-16T01:23:55.170Z,english_752.wav,0,1,697,,,,,3,0.3,54.48685686,0.49055919
MJH_0924,80,1,2024-06-16T01:23:55.170Z,english_752.wav,0,1,697,,,,,4,0.4,-14.12902415,1.50348136
MJH_0924,80,1,2024-06-16T01:23:55.170Z,english_752.wav,0,1,697,,,,,5,0.5,-68.0514313,0.53453917
MJH_0924,80,1,2024-06-16T01:23:55.170Z,english_752.wav,0,1,697,,,,,6,0.6,-35.48747748,1.00064578
MJH_0924,80,1,2024-06-16T01:23:55.170Z,english_752.wav,0,1,697,,,,,7,0.7,-40.39140323,0.9078798
MJH_0924,80,1,2024-06-16T01:23:55.170Z,english_752.wav,0,1,697,,,,,8,0.8,-44.26325446,1.8374475
MJH_0924,80,1,2024-06-16T01:23:55.170Z,english_752.wav,0,1,697,,,,,9,0.9,18.34874791,0.61675218
MJH_0924,80,1,2024-06-16T01:23:55.170Z,english_752.wav,0,1,697,,,,,10,1,-42.03859304,0.24596276
MJH_0924,80,1,2024-06-16T01:23:55.170Z,english_752.wav,0,1,697,,,,,11,1.09391667,68.7756392,0.85105991
MJH_0924,81,1,2024-06-16T01:23:55.170Z,english_41.wav,0,1,2299,,,,,0,0,94.86935215,0.27348518
MJH_0924,81,1,2024-06-16T01:23:55.170Z,english_41.wav,0,1,2299,,,,,1,0.1,-7.05168928,1.18971652
MJH_0924,81,1,2024-06-16T01:23:55.170Z,english_41.wav,0,1,2299,,,,,2,0.2,83.29541273,1.0683571
MJH_0924,81,1,2024-06-16T01:23:55.170Z,english_41.wav,0,1,2299,,,,,3,0.3,-1.78314142,1.37978433
MJH_0924,81,1,2024-06-16T01:23:55.170Z,english_41.wav,0,1,2299,,,,,4,0.4,48.9333274,0.66104529
MJH_0924,81,1,2024-06-16T01:23:55.170Z,english_41.wav,0,1,2299,,,,,5,0.5,-37.7603382,1.58723319
MJH_0924,81,1,2024-06-16T01:23:55.170Z,english_41.wav,0,1,2299,,,,,6,0.6,-73.18439231,0.96658357
MJH_0924,81,1,2024-06-16T01:23:55.170Z,english_41.wav,0,1,2299,,,,,7,0.7,14.0804343,1.12331941
MJH_0924,81,1,2024-06-16T01:23:55.170Z,english_41.wav,0,1,2299,,,,,8,0.8,-63.54643631,1.41064232
MJH_0924,81,1,2024-06-16T01:23:55.170Z,english_41.wav,0,1,2299,,,,,9,0.9,15.76603415,0.93302581
MJH_0924,81,1,2024-06-16T01:23:55.170Z,english_41.wav,0,1,2299,,,,,10,1,6.93433941,0.83854769
MJH_0924,81,1,2024-06-16T01:23:55.170Z,english_41.wav,0,1,2299,,,,,11,1.09391667,-37.21216737,1.07714606
MJH_0924,82,1,2024-06-16T01:23:55.170Z,english_253.wav,0,0,578,,,,,0,0,-76.54232622,1.69452202
MJH_0924,82,1,2024-06-16T01:23:55.170Z,english_253.wav,0,0,578,,,,,1,0.1,23.75797542,0.94155674
MJH_0924,82,1,2024-06-16T01:23:55.170Z,english_253.wav,0,0,578,,,,,2,0.2,-82.53055468,0.70353207
MJH_0924,82,1,2024-06-16T01:23:55.170Z,english_253.wav,0,0,578,,,,,3,0.3,19.65476927,1.42331271
MJH_0924,82,1,2024-06-16T01:23:55.170Z,english_253.wav,0,0,578,,,,,4,0.4,-55.81107988,1.11334266
MJH_0924,82,1,2024-06-16T01:23:55.170Z,english_253.wav,0,0,578,,,,,5,0.5,73.24574297,1.34927457
MJH_0924,82,1,2024-06-16T01:23:55.170Z,english_253.wav,0,0,578,,,,,6,0.6,-22.29926161,0.26375751
MJH_0924,82,1,2024-06-16T01:23:55.170Z,english_253.wav,0,0,578,,,,,7,0.7,-11.91242057,0.63100518
MJH_0924,82,1,2024-06-16T01:23:55.170Z,english_253.wav,0,0,578,,,,,8,0.8,-33.99896833,0.22145521
MJH_0924,82,1,2024-06-16T01:23:55.170Z,english_253.wav,0,0,578,,,,,9,0.9,32.30473406,0.69052847
MJH_0924,82,1,2024-06-16T01:23:55.170Z,english_253.wav,0,0,578,,,,,10,1,68.10745133,1.32352728
MJH_0924,82,1,2024-06-16T01:23:55.170Z,english_253.wav,0,0,578,,,,,11,1.09391667,-22.82824608,0.79605757
MJH_0924,83,1,2024-06-16T01:23:55.170Z,english_286.wav,0,0,655,,,,,0,0,0.49465201,1.96185882
MJH_0924,83,1,2024-06-16T01:23:55.170Z,english_286.wav,0,0,655,,,,,1,0.1,64.40982078,1.76039517
MJH_0924,83,1,2024-06-16T01:23:55.170Z,english_286.wav,0,0,655,,,,,2,0.2,-93.96239431,1.34043253
MJH_0924,83,1,2024-06-16T01:23:55.170Z,english_286.wav,0,0,655,,,,,3,0.3,54.29050788,0.77251354
MJH_0924,83,1,2024-06-16T01:23:55.170Z,english_286.wav,0,0,655,,,,,4,0.4,-73.71749202,0.68573738
MJH_0924,83,1,2024-06-16T01:23:55.170Z,english_286.wav,0,0,655,,,,,5,0.5,-94.88438502,1.47035372
MJH_0924,83,1,2024-06-16T01:23:55.170Z,english_286.wav,0,0,655,,,,,6,0.6,49.75760882,1.55594088
MJH_0924,83,1,2024-06-16T01:23:55.170Z,english_286.wav,0,0,655,,,,,7,0.7,-11.70467758,0.26425441
MJH_0924,83,1,2024-06-16T01:23:55.170Z,english_286.wav,0,0,655,,,,,8,0.8,-44.05163422,0.00260426
MJH_0924,83,1,2024-06-16T01:23:55.170Z,english_286.wav,0,0,655,,,,,9,0.9,34.33178767,0.41622396
MJH_0924,83,1,2024-06-16T01:23:55.170Z,english_286.wav,0,0,655,,,,,10,1,-45.07278599,1.49433758
MJH_0924,83,1,2024-06-16T01:23:55.170Z,english_286.wav,0,0,655,,,,,11,1.09391667,-7.38383513,1.90052724
MJH_0924,84,1,2024-06-16T01:23:55.170Z,english_129.wav,0,0,542,,,,,0,0,-44.56015923,0.4294496
MJH_0924,84,1,2024-06-16T01:23:55.170Z,english_129.wav,0,0,542,,,,,1,0.1,-58.7339049,1.17691203
MJH_0924,84,1,2024-06-16T01:23:55.170Z,english_129.wav,0,0,542,,,,,2,0.2,4.64427176,0.00792795
MJH_0924,84,1,2024-06-16T01:23:55.170Z,english_129.wav,0,0,542,,,,,3,0.3,36.13533526,1.62066926
MJH_0924,84,1,2024-06-16T01:23:55.170Z,english_129.wav,0,0,542,,,,,4,0.4,49.60525777,0.46131477
MJH_0924,84,1,2024-06-16T01:23:55.170Z,english_129.wav,0,0,542,,,,,5,0.5,66.06381969,0.9562515
MJH_0924,84,1,2024-06-16T01:23:55.170Z,english_129.wav,0,0,542,,,,,6,0.6,-22.87129592,0.58790942
MJH_0924,84,1,2024-06-16T01:23:55.170Z,english_129.wav,0,0,542,,,,,7,0.7,88.56170171,0.99020247
MJH_0924,84,1,2024-06-16T01:23:55.170Z,english_129.wav,0,0,542,,,,,8,0.8,17.84118116,0.9945804
MJH_0924,84,1,2024-06-16T01:23:55.170Z,english_129.wav,0,0,542,,,,,9,0.9,-28.77319114,1.36695424
MJH_0924,84,1,2024-06-16T01:23:55.170Z,english_129.wav,0,0,542,,,,,10,1,86.03376827,0.72564016
MJH_0924,84,1,2024-06-16T01:23:55.170Z,english_129.wav,0,0,542,,,,,11,1.09391667,39.56098905,1.15202696
MJH_0924,85,1,2024-06-16T01:23:55.170Z,english_830.wav,0,1,907,,,,,0,0,-56.43859205,0.48566255
MJH_0924,85,1,2024-06-16T01:23:55.170Z,english_830.wav,0,1,907,,,,,1,0.1,-40.42370878,1.80120887
MJH_0924,85,1,2024-06-16T01:23:55.170Z,english_830.wav,0,1,907,,,,,2,0.2,57.12298771,0.23081218
MJH_0924,85,1,2024-06-16T01:23:55.170Z,english_830.wav,0,1,907,,,,,3,0.3,-17.62232487,1.34466319
MJH_0924,85,1,2024-06-16T01:23:55.170Z,english_830.wav,0,1,907,,,,,4,0.4,68.18956177,1.72981242
MJH_0924,85,1,2024-06-16T01:23:55.170Z,english_830.wav,0,1,907,,,,,5,0.5,87.82671531,1.56597803
MJH_0924,85,1,2024-06-16T01:23:55.170Z,english_830.wav,0,1,907,,,,,6,0.6,47.80958912,0.72011463
MJH_0924,85,1,2024-06-16T01:23:55.170Z,english_830.wav,0,1,907,,,,,7,0.7,90.11134252,1.40332871
MJH_0924,85,1,2024-06-16T01:23:55.170Z,english_830.wav,0,1,907,,,,,8,0.8,-73.11836968,0.88730082
MJH_0924,85,1,2024-06-16T01:23:55.170Z,english_830.wav,0,1,907,,,,,9,0.9,76.91440669,1.45593299
