subj,trial,block,date,stim,stim_order,response,rt,age,english,french,language,sex,param_index,segment,pitch,stretch
6062450c1bb2c6f42298bda8,0,0,2024-02-28T17:47:24.636Z,french_437.wav,0,poule,3669,44,5,4,English,f,0,0.0,41.80320752,0.30954333
6062450c1bb2c6f42298bda8,0,0,2024-02-28T17:47:24.636Z,french_437.wav,0,poule,3669,44,5,4,English,f,1,0.1,-33.81764788,1.22203572
6062450c1bb2c6f42298bda8,0,0,2024-02-28T17:47:24.636Z,french_437.wav,0,poule,3669,44,5,4,English,f,2,0.2,25.70425251,0.04102161
6062450c1bb2c6f42298bda8,0,0,2024-02-28T17:47:24.636Z,french_437.wav,0,poule,3669,44,5,4,English,f,3,0.3,56.97339003,1.19854703
6062450c1bb2c6f42298bda8,0,0,2024-02-28T17:47:24.636Z,french_437.wav,0,poule,3669,44,5,4,English,f,4,0.4,46.8397409,0.8213725
6062450c1bb2c6f42298bda8,0,0,2024-02-28T17:47:24.636Z,french_437.wav,0,poule,3669,44,5,4,English,f,5,0.5,38.78616497,0.20494593
6062450c1bb2c6f42298bda8,0,0,2024-02-28T17:47:24.636Z,french_437.wav,0,poule,3669,44,5,4,English,f,6,0.6,-89.22878547,1.63754544
6062450c1bb2c6f42298bda8,0,0,2024-02-28T17:47:24.636Z,french_437.wav,0,poule,3669,44,5,4,English,f,7,0.7,80.78163583,1.22886157
6062450c1bb2c6f42298bda8,0,0,2024-02-28T17:47:24.636Z,french_437.wav,0,poule,3669,44,5,4,English,f,8,0.8,84.46215373,0.788043
6062450c1bb2c6f42298bda8,0,0,2024-02-28T17:47:24.636Z,french_437.wav,0,poule,3669,44,5,4,English,f,9,0.9,17.21068764,1.05494363
6062450c1bb2c6f42298bda8,0,0,2024-02-28T17:47:24.636Z,french_437.wav,0,poule,3669,44,5,4,English,f,10,1.0,16.06336223,0.71360389
6062450c1bb2c6f42298bda8,0,0,2024-02-28T17:47:24.636Z,french_437.wav,0,poule,3669,44,5,4,English,f,11,1.1,-52.17850038,1.83653188
6062450c1bb2c6f42298bda8,0,0,2024-02-28T17:47:24.636Z,french_437.wav,0,poule,3669,44,5,4,English,f,12,1.14141667,-51.05005354,0.63741841
6062450c1bb2c6f42298bda8,1,0,2024-02-28T17:47:24.636Z,french_289.wav,0,poule,10998,44,5,4,English,f,0,0.0,14.70665442,1.83068481
6062450c1bb2c6f42298bda8,1,0,2024-02-28T17:47:24.636Z,french_289.wav,0,poule,10998,44,5,4,English,f,1,0.1,95.25316321,0.61558809
6062450c1bb2c6f42298bda8,1,0,2024-02-28T17:47:24.636Z,french_289.wav,0,poule,10998,44,5,4,English,f,2,0.2,22.20186217,1.36200616
6062450c1bb2c6f42298bda8,1,0,2024-02-28T17:47:24.636Z,french_289.wav,0,poule,10998,44,5,4,English,f,3,0.3,-17.9137024,1.0791943
6062450c1bb2c6f42298bda8,1,0,2024-02-28T17:47:24.636Z,french_289.wav,0,poule,10998,44,5,4,English,f,4,0.4,-10.1137558,0.20327362
6062450c1bb2c6f42298bda8,1,0,2024-02-28T17:47:24.636Z,french_289.wav,0,poule,10998,44,5,4,English,f,5,0.5,-69.76519391,1.24486775
6062450c1bb2c6f42298bda8,1,0,2024-02-28T17:47:24.636Z,french_289.wav,0,poule,10998,44,5,4,English,f,6,0.6,-29.65482042,1.32936048
6062450c1bb2c6f42298bda8,1,0,2024-02-28T17:47:24.636Z,french_289.wav,0,poule,10998,44,5,4,English,f,7,0.7,65.48072433,1.56831723
6062450c1bb2c6f42298bda8,1,0,2024-02-28T17:47:24.636Z,french_289.wav,0,poule,10998,44,5,4,English,f,8,0.8,60.45691667,1.33915521
6062450c1bb2c6f42298bda8,1,0,2024-02-28T17:47:24.636Z,french_289.wav,0,poule,10998,44,5,4,English,f,9,0.9,-67.68084872,1.39765906
6062450c1bb2c6f42298bda8,1,0,2024-02-28T17:47:24.636Z,french_289.wav,0,poule,10998,44,5,4,English,f,10,1.0,65.70228923,1.14730346
6062450c1bb2c6f42298bda8,1,0,2024-02-28T17:47:24.636Z,french_289.wav,0,poule,10998,44,5,4,English,f,11,1.1,-57.15088735,1.20392446
6062450c1bb2c6f42298bda8,1,0,2024-02-28T17:47:24.636Z,french_289.wav,0,poule,10998,44,5,4,English,f,12,1.14141667,1.39733305,0.91697028
6062450c1bb2c6f42298bda8,2,0,2024-02-28T17:47:24.636Z,french_606.wav,0,poule,1970,44,5,4,English,f,0,0.0,29.70975547,1.48129541
6062450c1bb2c6f42298bda8,2,0,2024-02-28T17:47:24.636Z,french_606.wav,0,poule,1970,44,5,4,English,f,1,0.1,28.42644231,1.50796462
6062450c1bb2c6f42298bda8,2,0,2024-02-28T17:47:24.636Z,french_606.wav,0,poule,1970,44,5,4,English,f,2,0.2,21.59399465,1.95094467
6062450c1bb2c6f42298bda8,2,0,2024-02-28T17:47:24.636Z,french_606.wav,0,poule,1970,44,5,4,English,f,3,0.3,-85.78360108,1.21516633
6062450c1bb2c6f42298bda8,2,0,2024-02-28T17:47:24.636Z,french_606.wav,0,poule,1970,44,5,4,English,f,4,0.4,-86.96471331,1.69229455
6062450c1bb2c6f42298bda8,2,0,2024-02-28T17:47:24.636Z,french_606.wav,0,poule,1970,44,5,4,English,f,5,0.5,-42.98154559,1.09993922
6062450c1bb2c6f42298bda8,2,0,2024-02-28T17:47:24.636Z,french_606.wav,0,poule,1970,44,5,4,English,f,6,0.6,-24.40718185,1.7732578
6062450c1bb2c6f42298bda8,2,0,2024-02-28T17:47:24.636Z,french_606.wav,0,poule,1970,44,5,4,English,f,7,0.7,40.30920649,0.96640662
6062450c1bb2c6f42298bda8,2,0,2024-02-28T17:47:24.636Z,french_606.wav,0,poule,1970,44,5,4,English,f,8,0.8,60.29967336,1.55948905
6062450c1bb2c6f42298bda8,2,0,2024-02-28T17:47:24.636Z,french_606.wav,0,poule,1970,44,5,4,English,f,9,0.9,-28.97197282,0.42676263
6062450c1bb2c6f42298bda8,2,0,2024-02-28T17:47:24.636Z,french_606.wav,0,poule,1970,44,5,4,English,f,10,1.0,20.58306705,1.41137434
6062450c1bb2c6f42298bda8,2,0,2024-02-28T17:47:24.636Z,french_606.wav,0,poule,1970,44,5,4,English,f,11,1.1,36.82833662,1.11539435
6062450c1bb2c6f42298bda8,2,0,2024-02-28T17:47:24.636Z,french_606.wav,0,poule,1970,44,5,4,English,f,12,1.14141667,-96.86148063,1.96267589
6062450c1bb2c6f42298bda8,3,0,2024-02-28T17:47:24.636Z,french_347.wav,0,poule,1409,44,5,4,English,f,0,0.0,57.05528949,1.64220356
6062450c1bb2c6f42298bda8,3,0,2024-02-28T17:47:24.636Z,french_347.wav,0,poule,1409,44,5,4,English,f,1,0.1,-48.19665941,1.82332469
6062450c1bb2c6f42298bda8,3,0,2024-02-28T17:47:24.636Z,french_347.wav,0,poule,1409,44,5,4,English,f,2,0.2,91.45679685,0.22099974
6062450c1bb2c6f42298bda8,3,0,2024-02-28T17:47:24.636Z,french_347.wav,0,poule,1409,44,5,4,English,f,3,0.3,-29.31586745,1.13825501
6062450c1bb2c6f42298bda8,3,0,2024-02-28T17:47:24.636Z,french_347.wav,0,poule,1409,44,5,4,English,f,4,0.4,9.10002374,1.767798
6062450c1bb2c6f42298bda8,3,0,2024-02-28T17:47:24.636Z,french_347.wav,0,poule,1409,44,5,4,English,f,5,0.5,53.01721292,0.7433021
6062450c1bb2c6f42298bda8,3,0,2024-02-28T17:47:24.636Z,french_347.wav,0,poule,1409,44,5,4,English,f,6,0.6,-22.03928677,0.36890647
6062450c1bb2c6f42298bda8,3,0,2024-02-28T17:47:24.636Z,french_347.wav,0,poule,1409,44,5,4,English,f,7,0.7,-73.006405,1.31994173
6062450c1bb2c6f42298bda8,3,0,2024-02-28T17:47:24.636Z,french_347.wav,0,poule,1409,44,5,4,English,f,8,0.8,20.29301957,1.10139997
6062450c1bb2c6f42298bda8,3,0,2024-02-28T17:47:24.636Z,french_347.wav,0,poule,1409,44,5,4,English,f,9,0.9,19.10492943,1.91392068
6062450c1bb2c6f42298bda8,3,0,2024-02-28T17:47:24.636Z,french_347.wav,0,poule,1409,44,5,4,English,f,10,1.0,52.95636206,0.92491324
6062450c1bb2c6f42298bda8,3,0,2024-02-28T17:47:24.636Z,french_347.wav,0,poule,1409,44,5,4,English,f,11,1.1,30.9365932,0.81438983
6062450c1bb2c6f42298bda8,3,0,2024-02-28T17:47:24.636Z,french_347.wav,0,poule,1409,44,5,4,English,f,12,1.14141667,45.55083793,0.15118447
6062450c1bb2c6f42298bda8,4,0,2024-02-28T17:47:24.636Z,french_792.wav,0,pull,647,44,5,4,English,f,0,0.0,-28.77808047,1.01992476
6062450c1bb2c6f42298bda8,4,0,2024-02-28T17:47:24.636Z,french_792.wav,0,pull,647,44,5,4,English,f,1,0.1,-10.00785401,1.96245929
6062450c1bb2c6f42298bda8,4,0,2024-02-28T17:47:24.636Z,french_792.wav,0,pull,647,44,5,4,English,f,2,0.2,-89.03138292,0.33088171
6062450c1bb2c6f42298bda8,4,0,2024-02-28T17:47:24.636Z,french_792.wav,0,pull,647,44,5,4,English,f,3,0.3,60.87015299,0.60882255
6062450c1bb2c6f42298bda8,4,0,2024-02-28T17:47:24.636Z,french_792.wav,0,pull,647,44,5,4,English,f,4,0.4,40.7967025,1.16935641
6062450c1bb2c6f42298bda8,4,0,2024-02-28T17:47:24.636Z,french_792.wav,0,pull,647,44,5,4,English,f,5,0.5,-0.6664258,0.04848989
6062450c1bb2c6f42298bda8,4,0,2024-02-28T17:47:24.636Z,french_792.wav,0,pull,647,44,5,4,English,f,6,0.6,-1.44221122,0.73316645
6062450c1bb2c6f42298bda8,4,0,2024-02-28T17:47:24.636Z,french_792.wav,0,pull,647,44,5,4,English,f,7,0.7,93.39416978,0.70146258
6062450c1bb2c6f42298bda8,4,0,2024-02-28T17:47:24.636Z,french_792.wav,0,pull,647,44,5,4,English,f,8,0.8,13.0860733,0.98613716
6062450c1bb2c6f42298bda8,4,0,2024-02-28T17:47:24.636Z,french_792.wav,0,pull,647,44,5,4,English,f,9,0.9,55.81352435,1.26993889
6062450c1bb2c6f42298bda8,4,0,2024-02-28T17:47:24.636Z,french_792.wav,0,pull,647,44,5,4,English,f,10,1.0,-11.44850175,0.28761661
6062450c1bb2c6f42298bda8,4,0,2024-02-28T17:47:24.636Z,french_792.wav,0,pull,647,44,5,4,English,f,11,1.1,-55.53563546,0.74142596
6062450c1bb2c6f42298bda8,4,0,2024-02-28T17:47:24.636Z,french_792.wav,0,pull,647,44,5,4,English,f,12,1.14141667,28.68629966,1.34329465
6062450c1bb2c6f42298bda8,5,0,2024-02-28T17:47:24.636Z,french_655.wav,0,pull,2135,44,5,4,English,f,0,0.0,22.05732479,1.22083149
6062450c1bb2c6f42298bda8,5,0,2024-02-28T17:47:24.636Z,french_655.wav,0,pull,2135,44,5,4,English,f,1,0.1,-7.34283646,0.90628978
6062450c1bb2c6f42298bda8,5,0,2024-02-28T17:47:24.636Z,french_655.wav,0,pull,2135,44,5,4,English,f,2,0.2,-16.71216694,0.64111829
6062450c1bb2c6f42298bda8,5,0,2024-02-28T17:47:24.636Z,french_655.wav,0,pull,2135,44,5,4,English,f,3,0.3,82.87197114,0.38986932
6062450c1bb2c6f42298bda8,5,0,2024-02-28T17:47:24.636Z,french_655.wav,0,pull,2135,44,5,4,English,f,4,0.4,-13.73801988,0.61791891
6062450c1bb2c6f42298bda8,5,0,2024-02-28T17:47:24.636Z,french_655.wav,0,pull,2135,44,5,4,English,f,5,0.5,78.78238984,1.61257293
6062450c1bb2c6f42298bda8,5,0,2024-02-28T17:47:24.636Z,french_655.wav,0,pull,2135,44,5,4,English,f,6,0.6,15.74802992,1.14120276
6062450c1bb2c6f42298bda8,5,0,2024-02-28T17:47:24.636Z,french_655.wav,0,pull,2135,44,5,4,English,f,7,0.7,7.99289062,1.85994401
6062450c1bb2c6f42298bda8,5,0,2024-02-28T17:47:24.636Z,french_655.wav,0,pull,2135,44,5,4,English,f,8,0.8,64.26189844,0.1773239
6062450c1bb2c6f42298bda8,5,0,2024-02-28T17:47:24.636Z,french_655.wav,0,pull,2135,44,5,4,English,f,9,0.9,-76.33286274,1.26191456
6062450c1bb2c6f42298bda8,5,0,2024-02-28T17:47:24.636Z,french_655.wav,0,pull,2135,44,5,4,English,f,10,1.0,-6.92462562,1.18778905
6062450c1bb2c6f42298bda8,5,0,2024-02-28T17:47:24.636Z,french_655.wav,0,pull,2135,44,5,4,English,f,11,1.1,-66.84426621,1.26114912
6062450c1bb2c6f42298bda8,5,0,2024-02-28T17:47:24.636Z,french_655.wav,0,pull,2135,44,5,4,English,f,12,1.14141667,91.19399293,0.56570488
6062450c1bb2c6f42298bda8,6,0,2024-02-28T17:47:24.636Z,french_814.wav,0,poule,937,44,5,4,English,f,0,0.0,-17.82872371,0.1201677
6062450c1bb2c6f42298bda8,6,0,2024-02-28T17:47:24.636Z,french_814.wav,0,poule,937,44,5,4,English,f,1,0.1,-5.15999345,0.12543564
6062450c1bb2c6f42298bda8,6,0,2024-02-28T17:47:24.636Z,french_814.wav,0,poule,937,44,5,4,English,f,2,0.2,51.2170186,1.67572875
6062450c1bb2c6f42298bda8,6,0,2024-02-28T17:47:24.636Z,french_814.wav,0,poule,937,44,5,4,English,f,3,0.3,-25.21682203,0.4548101
6062450c1bb2c6f42298bda8,6,0,2024-02-28T17:47:24.636Z,french_814.wav,0,poule,937,44,5,4,English,f,4,0.4,25.00290132,0.55179348
6062450c1bb2c6f42298bda8,6,0,2024-02-28T17:47:24.636Z,french_814.wav,0,poule,937,44,5,4,English,f,5,0.5,34.9706051,1.01890588
6062450c1bb2c6f42298bda8,6,0,2024-02-28T17:47:24.636Z,french_814.wav,0,poule,937,44,5,4,English,f,6,0.6,-36.93148575,0.72380392
6062450c1bb2c6f42298bda8,6,0,2024-02-28T17:47:24.636Z,french_814.wav,0,poule,937,44,5,4,English,f,7,0.7,-3.65399932,0.57215837
6062450c1bb2c6f42298bda8,6,0,2024-02-28T17:47:24.636Z,french_814.wav,0,poule,937,44,5,4,English,f,8,0.8,62.69869554,0.78053676
6062450c1bb2c6f42298bda8,6,0,2024-02-28T17:47:24.636Z,french_814.wav,0,poule,937,44,5,4,English,f,9,0.9,-10.08908238,1.39308334
6062450c1bb2c6f42298bda8,6,0,2024-02-28T17:47:24.636Z,french_814.wav,0,poule,937,44,5,4,English,f,10,1.0,-76.59516515,0.59654008
6062450c1bb2c6f42298bda8,6,0,2024-02-28T17:47:24.636Z,french_814.wav,0,poule,937,44,5,4,English,f,11,1.1,56.49123107,1.44217753
6062450c1bb2c6f42298bda8,6,0,2024-02-28T17:47:24.636Z,french_814.wav,0,poule,937,44,5,4,English,f,12,1.14141667,12.2236393,1.73823667
6062450c1bb2c6f42298bda8,7,0,2024-02-28T17:47:24.636Z,french_91.wav,0,poule,1355,44,5,4,English,f,0,0.0,-4.38928225,1.35402237
6062450c1bb2c6f42298bda8,7,0,2024-02-28T17:47:24.636Z,french_91.wav,0,poule,1355,44,5,4,English,f,1,0.1,-4.65746262,0.85910671
6062450c1bb2c6f42298bda8,7,0,2024-02-28T17:47:24.636Z,french_91.wav,0,poule,1355,44,5,4,English,f,2,0.2,38.3551302,1.03408634
6062450c1bb2c6f42298bda8,7,0,2024-02-28T17:47:24.636Z,french_91.wav,0,poule,1355,44,5,4,English,f,3,0.3,32.4405862,1.08579464
6062450c1bb2c6f42298bda8,7,0,2024-02-28T17:47:24.636Z,french_91.wav,0,poule,1355,44,5,4,English,f,4,0.4,81.49673945,0.75561593
6062450c1bb2c6f42298bda8,7,0,2024-02-28T17:47:24.636Z,french_91.wav,0,poule,1355,44,5,4,English,f,5,0.5,81.25342016,1.00495207
6062450c1bb2c6f42298bda8,7,0,2024-02-28T17:47:24.636Z,french_91.wav,0,poule,1355,44,5,4,English,f,6,0.6,56.57176785,1.98726576
6062450c1bb2c6f42298bda8,7,0,2024-02-28T17:47:24.636Z,french_91.wav,0,poule,1355,44,5,4,English,f,7,0.7,75.06735921,1.85537264
6062450c1bb2c6f42298bda8,7,0,2024-02-28T17:47:24.636Z,french_91.wav,0,poule,1355,44,5,4,English,f,8,0.8,-0.66184624,1.75011325
6062450c1bb2c6f42298bda8,7,0,2024-02-28T17:47:24.636Z,french_91.wav,0,poule,1355,44,5,4,English,f,9,0.9,76.72282053,0.48868788
6062450c1bb2c6f42298bda8,7,0,2024-02-28T17:47:24.636Z,french_91.wav,0,poule,1355,44,5,4,English,f,10,1.0,-60.33019501,1.20303721
6062450c1bb2c6f42298bda8,7,0,2024-02-28T17:47:24.636Z,french_91.wav,0,poule,1355,44,5,4,English,f,11,1.1,-28.16928775,0.40883522
6062450c1bb2c6f42298bda8,7,0,2024-02-28T17:47:24.636Z,french_91.wav,0,poule,1355,44,5,4,English,f,12,1.14141667,29.01698887,0.8124878
6062450c1bb2c6f42298bda8,8,0,2024-02-28T17:47:24.636Z,french_69.wav,0,poule,1329,44,5,4,English,f,0,0.0,-36.62351927,0.71535059
6062450c1bb2c6f42298bda8,8,0,2024-02-28T17:47:24.636Z,french_69.wav,0,poule,1329,44,5,4,English,f,1,0.1,4.01465427,1.17148796
6062450c1bb2c6f42298bda8,8,0,2024-02-28T17:47:24.636Z,french_69.wav,0,poule,1329,44,5,4,English,f,2,0.2,27.63080147,0.35560456
6062450c1bb2c6f42298bda8,8,0,2024-02-28T17:47:24.636Z,french_69.wav,0,poule,1329,44,5,4,English,f,3,0.3,-92.04388741,0.7069056
6062450c1bb2c6f42298bda8,8,0,2024-02-28T17:47:24.636Z,french_69.wav,0,poule,1329,44,5,4,English,f,4,0.4,-59.31042768,0.9774701
6062450c1bb2c6f42298bda8,8,0,2024-02-28T17:47:24.636Z,french_69.wav,0,poule,1329,44,5,4,English,f,5,0.5,43.60815293,0.2035579
6062450c1bb2c6f42298bda8,8,0,2024-02-28T17:47:24.636Z,french_69.wav,0,poule,1329,44,5,4,English,f,6,0.6,-63.68314416,0.16150137
6062450c1bb2c6f42298bda8,8,0,2024-02-28T17:47:24.636Z,french_69.wav,0,poule,1329,44,5,4,English,f,7,0.7,-73.22650439,1.58821877
6062450c1bb2c6f42298bda8,8,0,2024-02-28T17:47:24.636Z,french_69.wav,0,poule,1329,44,5,4,English,f,8,0.8,-84.37177593,0.45505702
6062450c1bb2c6f42298bda8,8,0,2024-02-28T17:47:24.636Z,french_69.wav,0,poule,1329,44,5,4,English,f,9,0.9,-63.66539126,1.13448396
6062450c1bb2c6f42298bda8,8,0,2024-02-28T17:47:24.636Z,french_69.wav,0,poule,1329,44,5,4,English,f,10,1.0,-82.4132666,0.20707812
6062450c1bb2c6f42298bda8,8,0,2024-02-28T17:47:24.636Z,french_69.wav,0,poule,1329,44,5,4,English,f,11,1.1,92.98635378,1.81964904
6062450c1bb2c6f42298bda8,8,0,2024-02-28T17:47:24.636Z,french_69.wav,0,poule,1329,44,5,4,English,f,12,1.14141667,19.17845997,1.19989054
6062450c1bb2c6f42298bda8,9,0,2024-02-28T17:47:24.636Z,french_191.wav,0,poule,1731,44,5,4,English,f,0,0.0,-39.99340478,0.51561269
6062450c1bb2c6f42298bda8,9,0,2024-02-28T17:47:24.636Z,french_191.wav,0,poule,1731,44,5,4,English,f,1,0.1,11.63414549,1.02814661
6062450c1bb2c6f42298bda8,9,0,2024-02-28T17:47:24.636Z,french_191.wav,0,poule,1731,44,5,4,English,f,2,0.2,-36.35828588,0.59773473
6062450c1bb2c6f42298bda8,9,0,2024-02-28T17:47:24.636Z,french_191.wav,0,poule,1731,44,5,4,English,f,3,0.3,-98.69172467,0.28838803
6062450c1bb2c6f42298bda8,9,0,2024-02-28T17:47:24.636Z,french_191.wav,0,poule,1731,44,5,4,English,f,4,0.4,45.8146994,0.36122414
6062450c1bb2c6f42298bda8,9,0,2024-02-28T17:47:24.636Z,french_191.wav,0,poule,1731,44,5,4,English,f,5,0.5,-81.34234862,0.73128969
6062450c1bb2c6f42298bda8,9,0,2024-02-28T17:47:24.636Z,french_191.wav,0,poule,1731,44,5,4,English,f,6,0.6,76.85689755,0.79641924
6062450c1bb2c6f42298bda8,9,0,2024-02-28T17:47:24.636Z,french_191.wav,0,poule,1731,44,5,4,English,f,7,0.7,30.77762716,1.01273186
6062450c1bb2c6f42298bda8,9,0,2024-02-28T17:47:24.636Z,french_191.wav,0,poule,1731,44,5,4,English,f,8,0.8,69.05359103,0.26915511
6062450c1bb2c6f42298bda8,9,0,2024-02-28T17:47:24.636Z,french_191.wav,0,poule,1731,44,5,4,English,f,9,0.9,-46.7773051,0.61564868
6062450c1bb2c6f42298bda8,9,0,2024-02-28T17:47:24.636Z,french_191.wav,0,poule,1731,44,5,4,English,f,10,1.0,-87.86133128,0.74101429
6062450c1bb2c6f42298bda8,9,0,2024-02-28T17:47:24.636Z,french_191.wav,0,poule,1731,44,5,4,English,f,11,1.1,49.92457354,1.64291894
6062450c1bb2c6f42298bda8,9,0,2024-02-28T17:47:24.636Z,french_191.wav,0,poule,1731,44,5,4,English,f,12,1.14141667,-23.83679331,1.52790896
6062450c1bb2c6f42298bda8,10,0,2024-02-28T17:47:24.636Z,french_58.wav,0,poule,1373,44,5,4,English,f,0,0.0,94.28482513,1.90438259
6062450c1bb2c6f42298bda8,10,0,2024-02-28T17:47:24.636Z,french_58.wav,0,poule,1373,44,5,4,English,f,1,0.1,-8.41544404,0.61487331
6062450c1bb2c6f42298bda8,10,0,2024-02-28T17:47:24.636Z,french_58.wav,0,poule,1373,44,5,4,English,f,2,0.2,-62.96182624,1.646554
6062450c1bb2c6f42298bda8,10,0,2024-02-28T17:47:24.636Z,french_58.wav,0,poule,1373,44,5,4,English,f,3,0.3,60.34405866,1.52491918
6062450c1bb2c6f42298bda8,10,0,2024-02-28T17:47:24.636Z,french_58.wav,0,poule,1373,44,5,4,English,f,4,0.4,32.40128414,1.13010084
6062450c1bb2c6f42298bda8,10,0,2024-02-28T17:47:24.636Z,french_58.wav,0,poule,1373,44,5,4,English,f,5,0.5,-68.51454301,1.89433528
6062450c1bb2c6f42298bda8,10,0,2024-02-28T17:47:24.636Z,french_58.wav,0,poule,1373,44,5,4,English,f,6,0.6,29.82130445,0.760668
6062450c1bb2c6f42298bda8,10,0,2024-02-28T17:47:24.636Z,french_58.wav,0,poule,1373,44,5,4,English,f,7,0.7,-4.63475932,0.49529271
6062450c1bb2c6f42298bda8,10,0,2024-02-28T17:47:24.636Z,french_58.wav,0,poule,1373,44,5,4,English,f,8,0.8,-63.03753655,0.89196999
6062450c1bb2c6f42298bda8,10,0,2024-02-28T17:47:24.636Z,french_58.wav,0,poule,1373,44,5,4,English,f,9,0.9,88.63401009,0.8973393
6062450c1bb2c6f42298bda8,10,0,2024-02-28T17:47:24.636Z,french_58.wav,0,poule,1373,44,5,4,English,f,10,1.0,21.784489,0.72401301
6062450c1bb2c6f42298bda8,10,0,2024-02-28T17:47:24.636Z,french_58.wav,0,poule,1373,44,5,4,English,f,11,1.1,78.48150349,0.46484617
6062450c1bb2c6f42298bda8,10,0,2024-02-28T17:47:24.636Z,french_58.wav,0,poule,1373,44,5,4,English,f,12,1.14141667,-36.70796852,1.22177947
6062450c1bb2c6f42298bda8,11,0,2024-02-28T17:47:24.636Z,french_424.wav,0,pull,2873,44,5,4,English,f,0,0.0,-71.77866376,0.11874292
6062450c1bb2c6f42298bda8,11,0,2024-02-28T17:47:24.636Z,french_424.wav,0,pull,2873,44,5,4,English,f,1,0.1,31.13888093,1.79573411
6062450c1bb2c6f42298bda8,11,0,2024-02-28T17:47:24.636Z,french_424.wav,0,pull,2873,44,5,4,English,f,2,0.2,6.52825637,0.55389209
6062450c1bb2c6f42298bda8,11,0,2024-02-28T17:47:24.636Z,french_424.wav,0,pull,2873,44,5,4,English,f,3,0.3,-35.38131695,0.66942904
6062450c1bb2c6f42298bda8,11,0,2024-02-28T17:47:24.636Z,french_424.wav,0,pull,2873,44,5,4,English,f,4,0.4,93.73768065,0.69601265
6062450c1bb2c6f42298bda8,11,0,2024-02-28T17:47:24.636Z,french_424.wav,0,pull,2873,44,5,4,English,f,5,0.5,19.60197895,1.68108951
6062450c1bb2c6f42298bda8,11,0,2024-02-28T17:47:24.636Z,french_424.wav,0,pull,2873,44,5,4,English,f,6,0.6,-67.98715438,0.40297353
6062450c1bb2c6f42298bda8,11,0,2024-02-28T17:47:24.636Z,french_424.wav,0,pull,2873,44,5,4,English,f,7,0.7,-23.21490099,0.05630634
6062450c1bb2c6f42298bda8,11,0,2024-02-28T17:47:24.636Z,french_424.wav,0,pull,2873,44,5,4,English,f,8,0.8,50.97427539,0.86039262
6062450c1bb2c6f42298bda8,11,0,2024-02-28T17:47:24.636Z,french_424.wav,0,pull,2873,44,5,4,English,f,9,0.9,-25.4059756,0.0495768
6062450c1bb2c6f42298bda8,11,0,2024-02-28T17:47:24.636Z,french_424.wav,0,pull,2873,44,5,4,English,f,10,1.0,-40.03457553,0.37368801
6062450c1bb2c6f42298bda8,11,0,2024-02-28T17:47:24.636Z,french_424.wav,0,pull,2873,44,5,4,English,f,11,1.1,-86.49108324,0.94382816
6062450c1bb2c6f42298bda8,11,0,2024-02-28T17:47:24.636Z,french_424.wav,0,pull,2873,44,5,4,English,f,12,1.14141667,34.72431922,0.33429857
6062450c1bb2c6f42298bda8,12,0,2024-02-28T17:47:24.636Z,french_285.wav,0,poule,1276,44,5,4,English,f,0,0.0,-67.57072599,0.37904843
6062450c1bb2c6f42298bda8,12,0,2024-02-28T17:47:24.636Z,french_285.wav,0,poule,1276,44,5,4,English,f,1,0.1,84.43540763,0.12399617
6062450c1bb2c6f42298bda8,12,0,2024-02-28T17:47:24.636Z,french_285.wav,0,poule,1276,44,5,4,English,f,2,0.2,85.85677823,0.94810797
6062450c1bb2c6f42298bda8,12,0,2024-02-28T17:47:24.636Z,french_285.wav,0,poule,1276,44,5,4,English,f,3,0.3,-51.1358312,0.32864625
6062450c1bb2c6f42298bda8,12,0,2024-02-28T17:47:24.636Z,french_285.wav,0,poule,1276,44,5,4,English,f,4,0.4,1.86504598,1.19097279
6062450c1bb2c6f42298bda8,12,0,2024-02-28T17:47:24.636Z,french_285.wav,0,poule,1276,44,5,4,English,f,5,0.5,-60.64566772,1.05097031
6062450c1bb2c6f42298bda8,12,0,2024-02-28T17:47:24.636Z,french_285.wav,0,poule,1276,44,5,4,English,f,6,0.6,99.34914542,0.36311382
6062450c1bb2c6f42298bda8,12,0,2024-02-28T17:47:24.636Z,french_285.wav,0,poule,1276,44,5,4,English,f,7,0.7,7.44874037,0.61278289
6062450c1bb2c6f42298bda8,12,0,2024-02-28T17:47:24.636Z,french_285.wav,0,poule,1276,44,5,4,English,f,8,0.8,-82.24182328,1.20299316
6062450c1bb2c6f42298bda8,12,0,2024-02-28T17:47:24.636Z,french_285.wav,0,poule,1276,44,5,4,English,f,9,0.9,24.56172418,1.09809905
6062450c1bb2c6f42298bda8,12,0,2024-02-28T17:47:24.636Z,french_285.wav,0,poule,1276,44,5,4,English,f,10,1.0,8.87987036,1.68130662
6062450c1bb2c6f42298bda8,12,0,2024-02-28T17:47:24.636Z,french_285.wav,0,poule,1276,44,5,4,English,f,11,1.1,12.90602373,0.87422743
6062450c1bb2c6f42298bda8,12,0,2024-02-28T17:47:24.636Z,french_285.wav,0,poule,1276,44,5,4,English,f,12,1.14141667,72.88869787,1.98915228
6062450c1bb2c6f42298bda8,13,0,2024-02-28T17:47:24.636Z,french_37.wav,0,poule,762,44,5,4,English,f,0,0.0,63.67630516,1.47551661
6062450c1bb2c6f42298bda8,13,0,2024-02-28T17:47:24.636Z,french_37.wav,0,poule,762,44,5,4,English,f,1,0.1,-80.80701231,0.84183656
6062450c1bb2c6f42298bda8,13,0,2024-02-28T17:47:24.636Z,french_37.wav,0,poule,762,44,5,4,English,f,2,0.2,25.98612919,1.52781035
6062450c1bb2c6f42298bda8,13,0,2024-02-28T17:47:24.636Z,french_37.wav,0,poule,762,44,5,4,English,f,3,0.3,17.92597917,0.30622052
6062450c1bb2c6f42298bda8,13,0,2024-02-28T17:47:24.636Z,french_37.wav,0,poule,762,44,5,4,English,f,4,0.4,-8.51978646,1.20677631
6062450c1bb2c6f42298bda8,13,0,2024-02-28T17:47:24.636Z,french_37.wav,0,poule,762,44,5,4,English,f,5,0.5,-4.79247593,0.56816716
6062450c1bb2c6f42298bda8,13,0,2024-02-28T17:47:24.636Z,french_37.wav,0,poule,762,44,5,4,English,f,6,0.6,3.37248252,0.21375173
6062450c1bb2c6f42298bda8,13,0,2024-02-28T17:47:24.636Z,french_37.wav,0,poule,762,44,5,4,English,f,7,0.7,-95.81455691,1.84859986
6062450c1bb2c6f42298bda8,13,0,2024-02-28T17:47:24.636Z,french_37.wav,0,poule,762,44,5,4,English,f,8,0.8,-5.6254408,1.46056691
6062450c1bb2c6f42298bda8,13,0,2024-02-28T17:47:24.636Z,french_37.wav,0,poule,762,44,5,4,English,f,9,0.9,-99.5463817,1.16612496
6062450c1bb2c6f42298bda8,13,0,2024-02-28T17:47:24.636Z,french_37.wav,0,poule,762,44,5,4,English,f,10,1.0,85.7151068,1.52913682
6062450c1bb2c6f42298bda8,13,0,2024-02-28T17:47:24.636Z,french_37.wav,0,poule,762,44,5,4,English,f,11,1.1,-70.45522461,0.52230834
6062450c1bb2c6f42298bda8,13,0,2024-02-28T17:47:24.636Z,french_37.wav,0,poule,762,44,5,4,English,f,12,1.14141667,62.39612247,0.23982864
6062450c1bb2c6f42298bda8,14,0,2024-02-28T17:47:24.636Z,french_550.wav,0,poule,928,44,5,4,English,f,0,0.0,72.6201006,1.67033206
6062450c1bb2c6f42298bda8,14,0,2024-02-28T17:47:24.636Z,french_550.wav,0,poule,928,44,5,4,English,f,1,0.1,55.97657534,0.31629047
6062450c1bb2c6f42298bda8,14,0,2024-02-28T17:47:24.636Z,french_550.wav,0,poule,928,44,5,4,English,f,2,0.2,13.52543227,1.6455345
6062450c1bb2c6f42298bda8,14,0,2024-02-28T17:47:24.636Z,french_550.wav,0,poule,928,44,5,4,English,f,3,0.3,-81.349724,0.71516618
6062450c1bb2c6f42298bda8,14,0,2024-02-28T17:47:24.636Z,french_550.wav,0,poule,928,44,5,4,English,f,4,0.4,99.86498811,1.73006106
6062450c1bb2c6f42298bda8,14,0,2024-02-28T17:47:24.636Z,french_550.wav,0,poule,928,44,5,4,English,f,5,0.5,16.87534827,0.0344878
6062450c1bb2c6f42298bda8,14,0,2024-02-28T17:47:24.636Z,french_550.wav,0,poule,928,44,5,4,English,f,6,0.6,66.9812192,0.63862909
6062450c1bb2c6f42298bda8,14,0,2024-02-28T17:47:24.636Z,french_550.wav,0,poule,928,44,5,4,English,f,7,0.7,-75.38343533,1.07196046
6062450c1bb2c6f42298bda8,14,0,2024-02-28T17:47:24.636Z,french_550.wav,0,poule,928,44,5,4,English,f,8,0.8,5.7329485,1.84433576
6062450c1bb2c6f42298bda8,14,0,2024-02-28T17:47:24.636Z,french_550.wav,0,poule,928,44,5,4,English,f,9,0.9,58.05585557,0.95400442
6062450c1bb2c6f42298bda8,14,0,2024-02-28T17:47:24.636Z,french_550.wav,0,poule,928,44,5,4,English,f,10,1.0,-3.33377945,0.19158544
6062450c1bb2c6f42298bda8,14,0,2024-02-28T17:47:24.636Z,french_550.wav,0,poule,928,44,5,4,English,f,11,1.1,-43.74893274,1.26583767
6062450c1bb2c6f42298bda8,14,0,2024-02-28T17:47:24.636Z,french_550.wav,0,poule,928,44,5,4,English,f,12,1.14141667,-86.42154795,0.99784974
6062450c1bb2c6f42298bda8,15,0,2024-02-28T17:47:24.636Z,french_124.wav,0,poule,1156,44,5,4,English,f,0,0.0,-76.45779126,0.84587092
6062450c1bb2c6f42298bda8,15,0,2024-02-28T17:47:24.636Z,french_124.wav,0,poule,1156,44,5,4,English,f,1,0.1,-62.44073346,1.24457807
6062450c1bb2c6f42298bda8,15,0,2024-02-28T17:47:24.636Z,french_124.wav,0,poule,1156,44,5,4,English,f,2,0.2,-62.75149138,0.64584281
6062450c1bb2c6f42298bda8,15,0,2024-02-28T17:47:24.636Z,french_124.wav,0,poule,1156,44,5,4,English,f,3,0.3,-37.91621361,0.25159831
6062450c1bb2c6f42298bda8,15,0,2024-02-28T17:47:24.636Z,french_124.wav,0,poule,1156,44,5,4,English,f,4,0.4,-1.84891931,0.57670271
6062450c1bb2c6f42298bda8,15,0,2024-02-28T17:47:24.636Z,french_124.wav,0,poule,1156,44,5,4,English,f,5,0.5,-2.76461423,0.27282382
6062450c1bb2c6f42298bda8,15,0,2024-02-28T17:47:24.636Z,french_124.wav,0,poule,1156,44,5,4,English,f,6,0.6,48.00626226,0.93393673
6062450c1bb2c6f42298bda8,15,0,2024-02-28T17:47:24.636Z,french_124.wav,0,poule,1156,44,5,4,English,f,7,0.7,-89.0520455,0.95712828
6062450c1bb2c6f42298bda8,15,0,2024-02-28T17:47:24.636Z,french_124.wav,0,poule,1156,44,5,4,English,f,8,0.8,-36.94008954,1.24636556
6062450c1bb2c6f42298bda8,15,0,2024-02-28T17:47:24.636Z,french_124.wav,0,poule,1156,44,5,4,English,f,9,0.9,-82.62391515,0.87746102
6062450c1bb2c6f42298bda8,15,0,2024-02-28T17:47:24.636Z,french_124.wav,0,poule,1156,44,5,4,English,f,10,1.0,-88.37832348,0.59578507
6062450c1bb2c6f42298bda8,15,0,2024-02-28T17:47:24.636Z,french_124.wav,0,poule,1156,44,5,4,English,f,11,1.1,86.13286015,1.45487827
6062450c1bb2c6f42298bda8,15,0,2024-02-28T17:47:24.636Z,french_124.wav,0,poule,1156,44,5,4,English,f,12,1.14141667,-90.07064956,0.90336127
6062450c1bb2c6f42298bda8,16,0,2024-02-28T17:47:24.636Z,french_142.wav,0,poule,564,44,5,4,English,f,0,0.0,97.7536206,1.73195871
6062450c1bb2c6f42298bda8,16,0,2024-02-28T17:47:24.636Z,french_142.wav,0,poule,564,44,5,4,English,f,1,0.1,4.42561942,0.65080557
6062450c1bb2c6f42298bda8,16,0,2024-02-28T17:47:24.636Z,french_142.wav,0,poule,564,44,5,4,English,f,2,0.2,30.66479602,0.56559014
6062450c1bb2c6f42298bda8,16,0,2024-02-28T17:47:24.636Z,french_142.wav,0,poule,564,44,5,4,English,f,3,0.3,45.9358297,1.09548812
6062450c1bb2c6f42298bda8,16,0,2024-02-28T17:47:24.636Z,french_142.wav,0,poule,564,44,5,4,English,f,4,0.4,-27.67703404,1.12986234
6062450c1bb2c6f42298bda8,16,0,2024-02-28T17:47:24.636Z,french_142.wav,0,poule,564,44,5,4,English,f,5,0.5,-76.93961613,0.64023359
6062450c1bb2c6f42298bda8,16,0,2024-02-28T17:47:24.636Z,french_142.wav,0,poule,564,44,5,4,English,f,6,0.6,27.15756236,1.40554415
6062450c1bb2c6f42298bda8,16,0,2024-02-28T17:47:24.636Z,french_142.wav,0,poule,564,44,5,4,English,f,7,0.7,-17.10219694,0.54302872
6062450c1bb2c6f42298bda8,16,0,2024-02-28T17:47:24.636Z,french_142.wav,0,poule,564,44,5,4,English,f,8,0.8,-95.03788422,0.69510387
6062450c1bb2c6f42298bda8,16,0,2024-02-28T17:47:24.636Z,french_142.wav,0,poule,564,44,5,4,English,f,9,0.9,91.87255183,1.07734333
6062450c1bb2c6f42298bda8,16,0,2024-02-28T17:47:24.636Z,french_142.wav,0,poule,564,44,5,4,English,f,10,1.0,44.51009428,1.27461724
6062450c1bb2c6f42298bda8,16,0,2024-02-28T17:47:24.636Z,french_142.wav,0,poule,564,44,5,4,English,f,11,1.1,96.96949092,0.68372614
6062450c1bb2c6f42298bda8,16,0,2024-02-28T17:47:24.636Z,french_142.wav,0,poule,564,44,5,4,English,f,12,1.14141667,-89.9433434,0.29358922
6062450c1bb2c6f42298bda8,17,0,2024-02-28T17:47:24.636Z,french_33.wav,0,poule,752,44,5,4,English,f,0,0.0,-73.97774923,1.19939349
6062450c1bb2c6f42298bda8,17,0,2024-02-28T17:47:24.636Z,french_33.wav,0,poule,752,44,5,4,English,f,1,0.1,-36.06885346,0.62157126
6062450c1bb2c6f42298bda8,17,0,2024-02-28T17:47:24.636Z,french_33.wav,0,poule,752,44,5,4,English,f,2,0.2,-90.19934184,0.91970763
6062450c1bb2c6f42298bda8,17,0,2024-02-28T17:47:24.636Z,french_33.wav,0,poule,752,44,5,4,English,f,3,0.3,0.39936716,1.47370084
6062450c1bb2c6f42298bda8,17,0,2024-02-28T17:47:24.636Z,french_33.wav,0,poule,752,44,5,4,English,f,4,0.4,96.52672865,1.0541108
6062450c1bb2c6f42298bda8,17,0,2024-02-28T17:47:24.636Z,french_33.wav,0,poule,752,44,5,4,English,f,5,0.5,63.74011165,0.90431886
6062450c1bb2c6f42298bda8,17,0,2024-02-28T17:47:24.636Z,french_33.wav,0,poule,752,44,5,4,English,f,6,0.6,31.44503744,1.27813504
6062450c1bb2c6f42298bda8,17,0,2024-02-28T17:47:24.636Z,french_33.wav,0,poule,752,44,5,4,English,f,7,0.7,14.04693027,1.74599993
6062450c1bb2c6f42298bda8,17,0,2024-02-28T17:47:24.636Z,french_33.wav,0,poule,752,44,5,4,English,f,8,0.8,-77.85077502,1.73098361
6062450c1bb2c6f42298bda8,17,0,2024-02-28T17:47:24.636Z,french_33.wav,0,poule,752,44,5,4,English,f,9,0.9,68.67883666,1.17206891
6062450c1bb2c6f42298bda8,17,0,2024-02-28T17:47:24.636Z,french_33.wav,0,poule,752,44,5,4,English,f,10,1.0,74.94832397,1.57344571
6062450c1bb2c6f42298bda8,17,0,2024-02-28T17:47:24.636Z,french_33.wav,0,poule,752,44,5,4,English,f,11,1.1,69.92169069,0.28570847
6062450c1bb2c6f42298bda8,17,0,2024-02-28T17:47:24.636Z,french_33.wav,0,poule,752,44,5,4,English,f,12,1.14141667,18.14392296,1.15456632
6062450c1bb2c6f42298bda8,18,0,2024-02-28T17:47:24.636Z,french_765.wav,0,poule,945,44,5,4,English,f,0,0.0,-21.76223445,1.58709165
6062450c1bb2c6f42298bda8,18,0,2024-02-28T17:47:24.636Z,french_765.wav,0,poule,945,44,5,4,English,f,1,0.1,-69.88378146,1.30096868
6062450c1bb2c6f42298bda8,18,0,2024-02-28T17:47:24.636Z,french_765.wav,0,poule,945,44,5,4,English,f,2,0.2,-54.62116144,0.79134487
6062450c1bb2c6f42298bda8,18,0,2024-02-28T17:47:24.636Z,french_765.wav,0,poule,945,44,5,4,English,f,3,0.3,80.40698851,1.38985141
6062450c1bb2c6f42298bda8,18,0,2024-02-28T17:47:24.636Z,french_765.wav,0,poule,945,44,5,4,English,f,4,0.4,44.49094145,1.16396661
6062450c1bb2c6f42298bda8,18,0,2024-02-28T17:47:24.636Z,french_765.wav,0,poule,945,44,5,4,English,f,5,0.5,-34.58786744,0.50418915
6062450c1bb2c6f42298bda8,18,0,2024-02-28T17:47:24.636Z,french_765.wav,0,poule,945,44,5,4,English,f,6,0.6,-82.72511393,0.66043503
6062450c1bb2c6f42298bda8,18,0,2024-02-28T17:47:24.636Z,french_765.wav,0,poule,945,44,5,4,English,f,7,0.7,-17.30470796,0.90266971
6062450c1bb2c6f42298bda8,18,0,2024-02-28T17:47:24.636Z,french_765.wav,0,poule,945,44,5,4,English,f,8,0.8,-3.21936287,0.65632044
6062450c1bb2c6f42298bda8,18,0,2024-02-28T17:47:24.636Z,french_765.wav,0,poule,945,44,5,4,English,f,9,0.9,34.09717353,1.38813555
6062450c1bb2c6f42298bda8,18,0,2024-02-28T17:47:24.636Z,french_765.wav,0,poule,945,44,5,4,English,f,10,1.0,-34.0267679,1.56070696
6062450c1bb2c6f42298bda8,18,0,2024-02-28T17:47:24.636Z,french_765.wav,0,poule,945,44,5,4,English,f,11,1.1,91.79101104,1.04399467
6062450c1bb2c6f42298bda8,18,0,2024-02-28T17:47:24.636Z,french_765.wav,0,poule,945,44,5,4,English,f,12,1.14141667,44.37260858,0.73913352
6062450c1bb2c6f42298bda8,19,0,2024-02-28T17:47:24.636Z,french_425.wav,0,pull,1644,44,5,4,English,f,0,0.0,40.80708737,1.41087106
6062450c1bb2c6f42298bda8,19,0,2024-02-28T17:47:24.636Z,french_425.wav,0,pull,1644,44,5,4,English,f,1,0.1,60.39772417,1.65745633
6062450c1bb2c6f42298bda8,19,0,2024-02-28T17:47:24.636Z,french_425.wav,0,pull,1644,44,5,4,English,f,2,0.2,-30.92752134,0.45777505
6062450c1bb2c6f42298bda8,19,0,2024-02-28T17:47:24.636Z,french_425.wav,0,pull,1644,44,5,4,English,f,3,0.3,2.68286726,1.01895972
6062450c1bb2c6f42298bda8,19,0,2024-02-28T17:47:24.636Z,french_425.wav,0,pull,1644,44,5,4,English,f,4,0.4,17.39949018,1.013591
6062450c1bb2c6f42298bda8,19,0,2024-02-28T17:47:24.636Z,french_425.wav,0,pull,1644,44,5,4,English,f,5,0.5,51.6498397,1.16516661
6062450c1bb2c6f42298bda8,19,0,2024-02-28T17:47:24.636Z,french_425.wav,0,pull,1644,44,5,4,English,f,6,0.6,89.07176273,0.74158204
6062450c1bb2c6f42298bda8,19,0,2024-02-28T17:47:24.636Z,french_425.wav,0,pull,1644,44,5,4,English,f,7,0.7,-59.50926562,0.74893466
6062450c1bb2c6f42298bda8,19,0,2024-02-28T17:47:24.636Z,french_425.wav,0,pull,1644,44,5,4,English,f,8,0.8,44.57255827,0.322155
6062450c1bb2c6f42298bda8,19,0,2024-02-28T17:47:24.636Z,french_425.wav,0,pull,1644,44,5,4,English,f,9,0.9,18.71725485,0.8403819
6062450c1bb2c6f42298bda8,19,0,2024-02-28T17:47:24.636Z,french_425.wav,0,pull,1644,44,5,4,English,f,10,1.0,-67.0298998,0.41738082
6062450c1bb2c6f42298bda8,19,0,2024-02-28T17:47:24.636Z,french_425.wav,0,pull,1644,44,5,4,English,f,11,1.1,-15.30442624,0.70327016
6062450c1bb2c6f42298bda8,19,0,2024-02-28T17:47:24.636Z,french_425.wav,0,pull,1644,44,5,4,English,f,12,1.14141667,69.53078356,1.53973882
6062450c1bb2c6f42298bda8,20,0,2024-02-28T17:47:24.636Z,french_282.wav,0,pull,827,44,5,4,English,f,0,0.0,28.02282509,1.0912119
6062450c1bb2c6f42298bda8,20,0,2024-02-28T17:47:24.636Z,french_282.wav,0,pull,827,44,5,4,English,f,1,0.1,67.2501468,0.20405477
6062450c1bb2c6f42298bda8,20,0,2024-02-28T17:47:24.636Z,french_282.wav,0,pull,827,44,5,4,English,f,2,0.2,93.9816164,1.91146091
6062450c1bb2c6f42298bda8,20,0,2024-02-28T17:47:24.636Z,french_282.wav,0,pull,827,44,5,4,English,f,3,0.3,-97.54085303,1.80081272
6062450c1bb2c6f42298bda8,20,0,2024-02-28T17:47:24.636Z,french_282.wav,0,pull,827,44,5,4,English,f,4,0.4,33.49018191,1.44786669
6062450c1bb2c6f42298bda8,20,0,2024-02-28T17:47:24.636Z,french_282.wav,0,pull,827,44,5,4,English,f,5,0.5,17.0509321,1.13344756
6062450c1bb2c6f42298bda8,20,0,2024-02-28T17:47:24.636Z,french_282.wav,0,pull,827,44,5,4,English,f,6,0.6,26.45613826,0.31385296
6062450c1bb2c6f42298bda8,20,0,2024-02-28T17:47:24.636Z,french_282.wav,0,pull,827,44,5,4,English,f,7,0.7,51.40945909,1.39043822
6062450c1bb2c6f42298bda8,20,0,2024-02-28T17:47:24.636Z,french_282.wav,0,pull,827,44,5,4,English,f,8,0.8,17.98116381,0.22424719
6062450c1bb2c6f42298bda8,20,0,2024-02-28T17:47:24.636Z,french_282.wav,0,pull,827,44,5,4,English,f,9,0.9,51.09259465,0.50632788
6062450c1bb2c6f42298bda8,20,0,2024-02-28T17:47:24.636Z,french_282.wav,0,pull,827,44,5,4,English,f,10,1.0,64.32650722,0.63678076
6062450c1bb2c6f42298bda8,20,0,2024-02-28T17:47:24.636Z,french_282.wav,0,pull,827,44,5,4,English,f,11,1.1,85.88377636,1.37629793
6062450c1bb2c6f42298bda8,20,0,2024-02-28T17:47:24.636Z,french_282.wav,0,pull,827,44,5,4,English,f,12,1.14141667,-27.47476,1.78255014
6062450c1bb2c6f42298bda8,21,0,2024-02-28T17:47:24.636Z,french_70.wav,0,poule,478,44,5,4,English,f,0,0.0,68.41479291,0.92661768
6062450c1bb2c6f42298bda8,21,0,2024-02-28T17:47:24.636Z,french_70.wav,0,poule,478,44,5,4,English,f,1,0.1,-31.57074258,1.34654012
6062450c1bb2c6f42298bda8,21,0,2024-02-28T17:47:24.636Z,french_70.wav,0,poule,478,44,5,4,English,f,2,0.2,54.18509107,1.48916953
6062450c1bb2c6f42298bda8,21,0,2024-02-28T17:47:24.636Z,french_70.wav,0,poule,478,44,5,4,English,f,3,0.3,-27.61159617,1.1176716
6062450c1bb2c6f42298bda8,21,0,2024-02-28T17:47:24.636Z,french_70.wav,0,poule,478,44,5,4,English,f,4,0.4,9.88541267,0.7045852
6062450c1bb2c6f42298bda8,21,0,2024-02-28T17:47:24.636Z,french_70.wav,0,poule,478,44,5,4,English,f,5,0.5,-66.17038178,1.36995745
6062450c1bb2c6f42298bda8,21,0,2024-02-28T17:47:24.636Z,french_70.wav,0,poule,478,44,5,4,English,f,6,0.6,16.79110143,1.75041761
6062450c1bb2c6f42298bda8,21,0,2024-02-28T17:47:24.636Z,french_70.wav,0,poule,478,44,5,4,English,f,7,0.7,-71.29172846,1.65540967
6062450c1bb2c6f42298bda8,21,0,2024-02-28T17:47:24.636Z,french_70.wav,0,poule,478,44,5,4,English,f,8,0.8,-78.6433042,0.08362863
6062450c1bb2c6f42298bda8,21,0,2024-02-28T17:47:24.636Z,french_70.wav,0,poule,478,44,5,4,English,f,9,0.9,65.673143,1.74250385
6062450c1bb2c6f42298bda8,21,0,2024-02-28T17:47:24.636Z,french_70.wav,0,poule,478,44,5,4,English,f,10,1.0,-39.65305515,1.28772167
6062450c1bb2c6f42298bda8,21,0,2024-02-28T17:47:24.636Z,french_70.wav,0,poule,478,44,5,4,English,f,11,1.1,60.42476441,1.44177421
6062450c1bb2c6f42298bda8,21,0,2024-02-28T17:47:24.636Z,french_70.wav,0,poule,478,44,5,4,English,f,12,1.14141667,30.88064967,0.77305231
6062450c1bb2c6f42298bda8,22,0,2024-02-28T17:47:24.636Z,french_41.wav,0,pull,844,44,5,4,English,f,0,0.0,-77.45792826,1.32725749
6062450c1bb2c6f42298bda8,22,0,2024-02-28T17:47:24.636Z,french_41.wav,0,pull,844,44,5,4,English,f,1,0.1,-76.73008719,0.86869005
6062450c1bb2c6f42298bda8,22,0,2024-02-28T17:47:24.636Z,french_41.wav,0,pull,844,44,5,4,English,f,2,0.2,67.62637109,0.89538939
6062450c1bb2c6f42298bda8,22,0,2024-02-28T17:47:24.636Z,french_41.wav,0,pull,844,44,5,4,English,f,3,0.3,-25.44073719,0.38265383
6062450c1bb2c6f42298bda8,22,0,2024-02-28T17:47:24.636Z,french_41.wav,0,pull,844,44,5,4,English,f,4,0.4,62.7898726,0.99213748
6062450c1bb2c6f42298bda8,22,0,2024-02-28T17:47:24.636Z,french_41.wav,0,pull,844,44,5,4,English,f,5,0.5,48.38061814,1.78775931
6062450c1bb2c6f42298bda8,22,0,2024-02-28T17:47:24.636Z,french_41.wav,0,pull,844,44,5,4,English,f,6,0.6,27.42076403,0.02692299
6062450c1bb2c6f42298bda8,22,0,2024-02-28T17:47:24.636Z,french_41.wav,0,pull,844,44,5,4,English,f,7,0.7,51.49896077,1.16567079
6062450c1bb2c6f42298bda8,22,0,2024-02-28T17:47:24.636Z,french_41.wav,0,pull,844,44,5,4,English,f,8,0.8,56.60209014,0.37909692
6062450c1bb2c6f42298bda8,22,0,2024-02-28T17:47:24.636Z,french_41.wav,0,pull,844,44,5,4,English,f,9,0.9,21.23653766,0.53149131
6062450c1bb2c6f42298bda8,22,0,2024-02-28T17:47:24.636Z,french_41.wav,0,pull,844,44,5,4,English,f,10,1.0,-50.41834938,0.19881118
6062450c1bb2c6f42298bda8,22,0,2024-02-28T17:47:24.636Z,french_41.wav,0,pull,844,44,5,4,English,f,11,1.1,9.60830124,1.41835069
6062450c1bb2c6f42298bda8,22,0,2024-02-28T17:47:24.636Z,french_41.wav,0,pull,844,44,5,4,English,f,12,1.14141667,24.16174925,1.88839295
6062450c1bb2c6f42298bda8,23,0,2024-02-28T17:47:24.636Z,french_768.wav,0,poule,805,44,5,4,English,f,0,0.0,-90.25998479,0.74075575
6062450c1bb2c6f42298bda8,23,0,2024-02-28T17:47:24.636Z,french_768.wav,0,poule,805,44,5,4,English,f,1,0.1,34.21415615,0.17866259
6062450c1bb2c6f42298bda8,23,0,2024-02-28T17:47:24.636Z,french_768.wav,0,poule,805,44,5,4,English,f,2,0.2,-52.71140353,1.12012438
6062450c1bb2c6f42298bda8,23,0,2024-02-28T17:47:24.636Z,french_768.wav,0,poule,805,44,5,4,English,f,3,0.3,-0.87917212,1.6540895
6062450c1bb2c6f42298bda8,23,0,2024-02-28T17:47:24.636Z,french_768.wav,0,poule,805,44,5,4,English,f,4,0.4,16.13384172,0.5612472
6062450c1bb2c6f42298bda8,23,0,2024-02-28T17:47:24.636Z,french_768.wav,0,poule,805,44,5,4,English,f,5,0.5,40.42476131,0.6068206
6062450c1bb2c6f42298bda8,23,0,2024-02-28T17:47:24.636Z,french_768.wav,0,poule,805,44,5,4,English,f,6,0.6,89.24687933,0.74654886
6062450c1bb2c6f42298bda8,23,0,2024-02-28T17:47:24.636Z,french_768.wav,0,poule,805,44,5,4,English,f,7,0.7,-96.15596273,0.53936952
6062450c1bb2c6f42298bda8,23,0,2024-02-28T17:47:24.636Z,french_768.wav,0,poule,805,44,5,4,English,f,8,0.8,-38.29186897,1.70646715
6062450c1bb2c6f42298bda8,23,0,2024-02-28T17:47:24.636Z,french_768.wav,0,poule,805,44,5,4,English,f,9,0.9,-17.48626228,0.70300524
6062450c1bb2c6f42298bda8,23,0,2024-02-28T17:47:24.636Z,french_768.wav,0,poule,805,44,5,4,English,f,10,1.0,19.34641069,1.33185606
6062450c1bb2c6f42298bda8,23,0,2024-02-28T17:47:24.636Z,french_768.wav,0,poule,805,44,5,4,English,f,11,1.1,11.56546597,0.71915286
6062450c1bb2c6f42298bda8,23,0,2024-02-28T17:47:24.636Z,french_768.wav,0,poule,805,44,5,4,English,f,12,1.14141667,81.99709235,0.49042586
6062450c1bb2c6f42298bda8,24,0,2024-02-28T17:47:24.636Z,french_587.wav,0,poule,506,44,5,4,English,f,0,0.0,-23.10151834,0.66297152
6062450c1bb2c6f42298bda8,24,0,2024-02-28T17:47:24.636Z,french_587.wav,0,poule,506,44,5,4,English,f,1,0.1,73.96187404,0.83081239
6062450c1bb2c6f42298bda8,24,0,2024-02-28T17:47:24.636Z,french_587.wav,0,poule,506,44,5,4,English,f,2,0.2,-36.92313799,1.04778095
6062450c1bb2c6f42298bda8,24,0,2024-02-28T17:47:24.636Z,french_587.wav,0,poule,506,44,5,4,English,f,3,0.3,-49.18419378,0.81483732
6062450c1bb2c6f42298bda8,24,0,2024-02-28T17:47:24.636Z,french_587.wav,0,poule,506,44,5,4,English,f,4,0.4,62.41576627,1.5428737
6062450c1bb2c6f42298bda8,24,0,2024-02-28T17:47:24.636Z,french_587.wav,0,poule,506,44,5,4,English,f,5,0.5,50.48984241,0.5491045
6062450c1bb2c6f42298bda8,24,0,2024-02-28T17:47:24.636Z,french_587.wav,0,poule,506,44,5,4,English,f,6,0.6,-36.48125396,0.38093132
6062450c1bb2c6f42298bda8,24,0,2024-02-28T17:47:24.636Z,french_587.wav,0,poule,506,44,5,4,English,f,7,0.7,49.40629833,0.06101614
6062450c1bb2c6f42298bda8,24,0,2024-02-28T17:47:24.636Z,french_587.wav,0,poule,506,44,5,4,English,f,8,0.8,9.88525734,0.87218615
6062450c1bb2c6f42298bda8,24,0,2024-02-28T17:47:24.636Z,french_587.wav,0,poule,506,44,5,4,English,f,9,0.9,3.79133085,1.80491798
6062450c1bb2c6f42298bda8,24,0,2024-02-28T17:47:24.636Z,french_587.wav,0,poule,506,44,5,4,English,f,10,1.0,26.22699337,1.12003779
6062450c1bb2c6f42298bda8,24,0,2024-02-28T17:47:24.636Z,french_587.wav,0,poule,506,44,5,4,English,f,11,1.1,38.90906104,1.11770584
6062450c1bb2c6f42298bda8,24,0,2024-02-28T17:47:24.636Z,french_587.wav,0,poule,506,44,5,4,English,f,12,1.14141667,68.80148374,1.81736967
6062450c1bb2c6f42298bda8,25,0,2024-02-28T17:47:24.636Z,french_245.wav,0,poule,565,44,5,4,English,f,0,0.0,-32.65946157,0.88127163
6062450c1bb2c6f42298bda8,25,0,2024-02-28T17:47:24.636Z,french_245.wav,0,poule,565,44,5,4,English,f,1,0.1,-91.34414589,0.39712506
6062450c1bb2c6f42298bda8,25,0,2024-02-28T17:47:24.636Z,french_245.wav,0,poule,565,44,5,4,English,f,2,0.2,20.76427352,1.80102862
6062450c1bb2c6f42298bda8,25,0,2024-02-28T17:47:24.636Z,french_245.wav,0,poule,565,44,5,4,English,f,3,0.3,-95.58645124,1.05649218
6062450c1bb2c6f42298bda8,25,0,2024-02-28T17:47:24.636Z,french_245.wav,0,poule,565,44,5,4,English,f,4,0.4,-66.19056055,0.46999531
6062450c1bb2c6f42298bda8,25,0,2024-02-28T17:47:24.636Z,french_245.wav,0,poule,565,44,5,4,English,f,5,0.5,49.19473098,1.20747474
6062450c1bb2c6f42298bda8,25,0,2024-02-28T17:47:24.636Z,french_245.wav,0,poule,565,44,5,4,English,f,6,0.6,81.42926779,0.59003214
6062450c1bb2c6f42298bda8,25,0,2024-02-28T17:47:24.636Z,french_245.wav,0,poule,565,44,5,4,English,f,7,0.7,65.80631096,1.12088878
6062450c1bb2c6f42298bda8,25,0,2024-02-28T17:47:24.636Z,french_245.wav,0,poule,565,44,5,4,English,f,8,0.8,-57.42028442,1.50034126
6062450c1bb2c6f42298bda8,25,0,2024-02-28T17:47:24.636Z,french_245.wav,0,poule,565,44,5,4,English,f,9,0.9,-85.65499007,1.79720209
6062450c1bb2c6f42298bda8,25,0,2024-02-28T17:47:24.636Z,french_245.wav,0,poule,565,44,5,4,English,f,10,1.0,-34.33028766,1.3179064
6062450c1bb2c6f42298bda8,25,0,2024-02-28T17:47:24.636Z,french_245.wav,0,poule,565,44,5,4,English,f,11,1.1,43.77204938,1.83502919
6062450c1bb2c6f42298bda8,25,0,2024-02-28T17:47:24.636Z,french_245.wav,0,poule,565,44,5,4,English,f,12,1.14141667,-47.4172931,1.05306136
6062450c1bb2c6f42298bda8,26,0,2024-02-28T17:47:24.636Z,french_312.wav,0,pull,967,44,5,4,English,f,0,0.0,69.30449707,0.68235651
6062450c1bb2c6f42298bda8,26,0,2024-02-28T17:47:24.636Z,french_312.wav,0,pull,967,44,5,4,English,f,1,0.1,28.8122594,0.49968612
6062450c1bb2c6f42298bda8,26,0,2024-02-28T17:47:24.636Z,french_312.wav,0,pull,967,44,5,4,English,f,2,0.2,79.52564985,0.10826386
6062450c1bb2c6f42298bda8,26,0,2024-02-28T17:47:24.636Z,french_312.wav,0,pull,967,44,5,4,English,f,3,0.3,23.03240233,1.87669154
6062450c1bb2c6f42298bda8,26,0,2024-02-28T17:47:24.636Z,french_312.wav,0,pull,967,44,5,4,English,f,4,0.4,-48.5690178,1.01808413
6062450c1bb2c6f42298bda8,26,0,2024-02-28T17:47:24.636Z,french_312.wav,0,pull,967,44,5,4,English,f,5,0.5,61.96316276,1.08622218
6062450c1bb2c6f42298bda8,26,0,2024-02-28T17:47:24.636Z,french_312.wav,0,pull,967,44,5,4,English,f,6,0.6,-40.84069724,0.31784093
6062450c1bb2c6f42298bda8,26,0,2024-02-28T17:47:24.636Z,french_312.wav,0,pull,967,44,5,4,English,f,7,0.7,-21.82800046,0.771822
6062450c1bb2c6f42298bda8,26,0,2024-02-28T17:47:24.636Z,french_312.wav,0,pull,967,44,5,4,English,f,8,0.8,-77.10722565,0.59210928
6062450c1bb2c6f42298bda8,26,0,2024-02-28T17:47:24.636Z,french_312.wav,0,pull,967,44,5,4,English,f,9,0.9,18.67755044,0.28258662
6062450c1bb2c6f42298bda8,26,0,2024-02-28T17:47:24.636Z,french_312.wav,0,pull,967,44,5,4,English,f,10,1.0,0.10322115,0.93032185
6062450c1bb2c6f42298bda8,26,0,2024-02-28T17:47:24.636Z,french_312.wav,0,pull,967,44,5,4,English,f,11,1.1,38.28305127,0.32298369
6062450c1bb2c6f42298bda8,26,0,2024-02-28T17:47:24.636Z,french_312.wav,0,pull,967,44,5,4,English,f,12,1.14141667,17.56298431,1.36564277
6062450c1bb2c6f42298bda8,27,0,2024-02-28T17:47:24.636Z,french_795.wav,0,poule,914,44,5,4,English,f,0,0.0,-21.08309892,1.78240197
6062450c1bb2c6f42298bda8,27,0,2024-02-28T17:47:24.636Z,french_795.wav,0,poule,914,44,5,4,English,f,1,0.1,59.58252322,0.19872183
6062450c1bb2c6f42298bda8,27,0,2024-02-28T17:47:24.636Z,french_795.wav,0,poule,914,44,5,4,English,f,2,0.2,6.11237041,0.3294255
6062450c1bb2c6f42298bda8,27,0,2024-02-28T17:47:24.636Z,french_795.wav,0,poule,914,44,5,4,English,f,3,0.3,58.03369212,1.38018168
6062450c1bb2c6f42298bda8,27,0,2024-02-28T17:47:24.636Z,french_795.wav,0,poule,914,44,5,4,English,f,4,0.4,-28.03684828,1.88529857
6062450c1bb2c6f42298bda8,27,0,2024-02-28T17:47:24.636Z,french_795.wav,0,poule,914,44,5,4,English,f,5,0.5,44.29336732,0.85268849
6062450c1bb2c6f42298bda8,27,0,2024-02-28T17:47:24.636Z,french_795.wav,0,poule,914,44,5,4,English,f,6,0.6,68.51544354,1.95230834
6062450c1bb2c6f42298bda8,27,0,2024-02-28T17:47:24.636Z,french_795.wav,0,poule,914,44,5,4,English,f,7,0.7,74.11361363,1.0063729
6062450c1bb2c6f42298bda8,27,0,2024-02-28T17:47:24.636Z,french_795.wav,0,poule,914,44,5,4,English,f,8,0.8,-2.59593741,0.66346158
6062450c1bb2c6f42298bda8,27,0,2024-02-28T17:47:24.636Z,french_795.wav,0,poule,914,44,5,4,English,f,9,0.9,59.06123197,0.75463723
6062450c1bb2c6f42298bda8,27,0,2024-02-28T17:47:24.636Z,french_795.wav,0,poule,914,44,5,4,English,f,10,1.0,-53.1439491,1.27497419
6062450c1bb2c6f42298bda8,27,0,2024-02-28T17:47:24.636Z,french_795.wav,0,poule,914,44,5,4,English,f,11,1.1,-19.26569935,0.26186886
6062450c1bb2c6f42298bda8,27,0,2024-02-28T17:47:24.636Z,french_795.wav,0,poule,914,44,5,4,English,f,12,1.14141667,-83.8743413,1.40979019
6062450c1bb2c6f42298bda8,28,0,2024-02-28T17:47:24.636Z,french_540.wav,0,pull,843,44,5,4,English,f,0,0.0,31.52597312,1.25975377
6062450c1bb2c6f42298bda8,28,0,2024-02-28T17:47:24.636Z,french_540.wav,0,pull,843,44,5,4,English,f,1,0.1,-1.25149155,1.40968559
6062450c1bb2c6f42298bda8,28,0,2024-02-28T17:47:24.636Z,french_540.wav,0,pull,843,44,5,4,English,f,2,0.2,-73.66629191,0.44233903
6062450c1bb2c6f42298bda8,28,0,2024-02-28T17:47:24.636Z,french_540.wav,0,pull,843,44,5,4,English,f,3,0.3,-22.64766564,0.80840944
6062450c1bb2c6f42298bda8,28,0,2024-02-28T17:47:24.636Z,french_540.wav,0,pull,843,44,5,4,English,f,4,0.4,-99.62555954,0.2410145
6062450c1bb2c6f42298bda8,28,0,2024-02-28T17:47:24.636Z,french_540.wav,0,pull,843,44,5,4,English,f,5,0.5,16.96824428,0.92564841
6062450c1bb2c6f42298bda8,28,0,2024-02-28T17:47:24.636Z,french_540.wav,0,pull,843,44,5,4,English,f,6,0.6,87.0103995,1.23012294
6062450c1bb2c6f42298bda8,28,0,2024-02-28T17:47:24.636Z,french_540.wav,0,pull,843,44,5,4,English,f,7,0.7,40.33133886,1.75550661
6062450c1bb2c6f42298bda8,28,0,2024-02-28T17:47:24.636Z,french_540.wav,0,pull,843,44,5,4,English,f,8,0.8,20.73958679,1.48031201
6062450c1bb2c6f42298bda8,28,0,2024-02-28T17:47:24.636Z,french_540.wav,0,pull,843,44,5,4,English,f,9,0.9,42.51308569,0.50269543
6062450c1bb2c6f42298bda8,28,0,2024-02-28T17:47:24.636Z,french_540.wav,0,pull,843,44,5,4,English,f,10,1.0,-2.19499318,0.37203423
6062450c1bb2c6f42298bda8,28,0,2024-02-28T17:47:24.636Z,french_540.wav,0,pull,843,44,5,4,English,f,11,1.1,-32.36810626,0.07986375
6062450c1bb2c6f42298bda8,28,0,2024-02-28T17:47:24.636Z,french_540.wav,0,pull,843,44,5,4,English,f,12,1.14141667,-26.20670126,1.98266687
6062450c1bb2c6f42298bda8,29,0,2024-02-28T17:47:24.636Z,french_92.wav,0,pull,1890,44,5,4,English,f,0,0.0,-38.62866976,1.21475255
6062450c1bb2c6f42298bda8,29,0,2024-02-28T17:47:24.636Z,french_92.wav,0,pull,1890,44,5,4,English,f,1,0.1,74.09649373,1.42515073
6062450c1bb2c6f42298bda8,29,0,2024-02-28T17:47:24.636Z,french_92.wav,0,pull,1890,44,5,4,English,f,2,0.2,-77.49747828,1.22478841
6062450c1bb2c6f42298bda8,29,0,2024-02-28T17:47:24.636Z,french_92.wav,0,pull,1890,44,5,4,English,f,3,0.3,-67.83250137,1.9436179
6062450c1bb2c6f42298bda8,29,0,2024-02-28T17:47:24.636Z,french_92.wav,0,pull,1890,44,5,4,English,f,4,0.4,-38.21561334,1.88893829
6062450c1bb2c6f42298bda8,29,0,2024-02-28T17:47:24.636Z,french_92.wav,0,pull,1890,44,5,4,English,f,5,0.5,29.85685748,1.72074801
6062450c1bb2c6f42298bda8,29,0,2024-02-28T17:47:24.636Z,french_92.wav,0,pull,1890,44,5,4,English,f,6,0.6,-66.83919125,0.28801836
6062450c1bb2c6f42298bda8,29,0,2024-02-28T17:47:24.636Z,french_92.wav,0,pull,1890,44,5,4,English,f,7,0.7,-14.49310903,0.74643431
6062450c1bb2c6f42298bda8,29,0,2024-02-28T17:47:24.636Z,french_92.wav,0,pull,1890,44,5,4,English,f,8,0.8,-75.05904534,0.44373966
6062450c1bb2c6f42298bda8,29,0,2024-02-28T17:47:24.636Z,french_92.wav,0,pull,1890,44,5,4,English,f,9,0.9,23.49627292,0.28929296
6062450c1bb2c6f42298bda8,29,0,2024-02-28T17:47:24.636Z,french_92.wav,0,pull,1890,44,5,4,English,f,10,1.0,-68.29185914,1.00467442
6062450c1bb2c6f42298bda8,29,0,2024-02-28T17:47:24.636Z,french_92.wav,0,pull,1890,44,5,4,English,f,11,1.1,-10.50760157,0.34100933
6062450c1bb2c6f42298bda8,29,0,2024-02-28T17:47:24.636Z,french_92.wav,0,pull,1890,44,5,4,English,f,12,1.14141667,75.25363483,0.26449359
6062450c1bb2c6f42298bda8,30,0,2024-02-28T17:47:24.636Z,french_835.wav,0,poule,716,44,5,4,English,f,0,0.0,91.17156261,0.94497771
6062450c1bb2c6f42298bda8,30,0,2024-02-28T17:47:24.636Z,french_835.wav,0,poule,716,44,5,4,English,f,1,0.1,25.08688283,1.50226129
6062450c1bb2c6f42298bda8,30,0,2024-02-28T17:47:24.636Z,french_835.wav,0,poule,716,44,5,4,English,f,2,0.2,48.2450029,1.19715806
6062450c1bb2c6f42298bda8,30,0,2024-02-28T17:47:24.636Z,french_835.wav,0,poule,716,44,5,4,English,f,3,0.3,90.12216344,1.34954449
6062450c1bb2c6f42298bda8,30,0,2024-02-28T17:47:24.636Z,french_835.wav,0,poule,716,44,5,4,English,f,4,0.4,-40.18882143,0.59579265
6062450c1bb2c6f42298bda8,30,0,2024-02-28T17:47:24.636Z,french_835.wav,0,poule,716,44,5,4,English,f,5,0.5,-54.27954375,1.80504859
6062450c1bb2c6f42298bda8,30,0,2024-02-28T17:47:24.636Z,french_835.wav,0,poule,716,44,5,4,English,f,6,0.6,-68.4756581,0.24555797
6062450c1bb2c6f42298bda8,30,0,2024-02-28T17:47:24.636Z,french_835.wav,0,poule,716,44,5,4,English,f,7,0.7,-53.08534738,0.70333343
6062450c1bb2c6f42298bda8,30,0,2024-02-28T17:47:24.636Z,french_835.wav,0,poule,716,44,5,4,English,f,8,0.8,-46.88967441,0.47518266
6062450c1bb2c6f42298bda8,30,0,2024-02-28T17:47:24.636Z,french_835.wav,0,poule,716,44,5,4,English,f,9,0.9,-31.87646129,1.46400156
6062450c1bb2c6f42298bda8,30,0,2024-02-28T17:47:24.636Z,french_835.wav,0,poule,716,44,5,4,English,f,10,1.0,35.54298867,1.13067654
6062450c1bb2c6f42298bda8,30,0,2024-02-28T17:47:24.636Z,french_835.wav,0,poule,716,44,5,4,English,f,11,1.1,77.25630657,0.43563769
6062450c1bb2c6f42298bda8,30,0,2024-02-28T17:47:24.636Z,french_835.wav,0,poule,716,44,5,4,English,f,12,1.14141667,70.60272191,1.31798111
6062450c1bb2c6f42298bda8,31,0,2024-02-28T17:47:24.636Z,french_880.wav,0,pull,1278,44,5,4,English,f,0,0.0,-67.35692913,0.36791897
6062450c1bb2c6f42298bda8,31,0,2024-02-28T17:47:24.636Z,french_880.wav,0,pull,1278,44,5,4,English,f,1,0.1,9.22345267,1.77506302
6062450c1bb2c6f42298bda8,31,0,2024-02-28T17:47:24.636Z,french_880.wav,0,pull,1278,44,5,4,English,f,2,0.2,52.54105012,1.73468734
6062450c1bb2c6f42298bda8,31,0,2024-02-28T17:47:24.636Z,french_880.wav,0,pull,1278,44,5,4,English,f,3,0.3,15.27163376,0.75550343
6062450c1bb2c6f42298bda8,31,0,2024-02-28T17:47:24.636Z,french_880.wav,0,pull,1278,44,5,4,English,f,4,0.4,-27.32325081,1.37515568
6062450c1bb2c6f42298bda8,31,0,2024-02-28T17:47:24.636Z,french_880.wav,0,pull,1278,44,5,4,English,f,5,0.5,-96.57236705,1.43927044
6062450c1bb2c6f42298bda8,31,0,2024-02-28T17:47:24.636Z,french_880.wav,0,pull,1278,44,5,4,English,f,6,0.6,-52.11401853,1.08444969
6062450c1bb2c6f42298bda8,31,0,2024-02-28T17:47:24.636Z,french_880.wav,0,pull,1278,44,5,4,English,f,7,0.7,60.68518633,0.8170541
6062450c1bb2c6f42298bda8,31,0,2024-02-28T17:47:24.636Z,french_880.wav,0,pull,1278,44,5,4,English,f,8,0.8,75.12013331,1.80955492
6062450c1bb2c6f42298bda8,31,0,2024-02-28T17:47:24.636Z,french_880.wav,0,pull,1278,44,5,4,English,f,9,0.9,78.01511268,0.10737949
6062450c1bb2c6f42298bda8,31,0,2024-02-28T17:47:24.636Z,french_880.wav,0,pull,1278,44,5,4,English,f,10,1.0,16.78714456,1.29858287
6062450c1bb2c6f42298bda8,31,0,2024-02-28T17:47:24.636Z,french_880.wav,0,pull,1278,44,5,4,English,f,11,1.1,68.14454482,0.38347949
6062450c1bb2c6f42298bda8,31,0,2024-02-28T17:47:24.636Z,french_880.wav,0,pull,1278,44,5,4,English,f,12,1.14141667,-20.22553044,1.87612987
6062450c1bb2c6f42298bda8,32,0,2024-02-28T17:47:24.636Z,french_568.wav,0,poule,839,44,5,4,English,f,0,0.0,-19.1846252,1.39555406
6062450c1bb2c6f42298bda8,32,0,2024-02-28T17:47:24.636Z,french_568.wav,0,poule,839,44,5,4,English,f,1,0.1,99.622552,0.82188043
6062450c1bb2c6f42298bda8,32,0,2024-02-28T17:47:24.636Z,french_568.wav,0,poule,839,44,5,4,English,f,2,0.2,37.3998315,0.47747641
6062450c1bb2c6f42298bda8,32,0,2024-02-28T17:47:24.636Z,french_568.wav,0,poule,839,44,5,4,English,f,3,0.3,50.6611477,0.85657267
6062450c1bb2c6f42298bda8,32,0,2024-02-28T17:47:24.636Z,french_568.wav,0,poule,839,44,5,4,English,f,4,0.4,-41.739615,1.18677841
6062450c1bb2c6f42298bda8,32,0,2024-02-28T17:47:24.636Z,french_568.wav,0,poule,839,44,5,4,English,f,5,0.5,-20.4713766,0.27067874
6062450c1bb2c6f42298bda8,32,0,2024-02-28T17:47:24.636Z,french_568.wav,0,poule,839,44,5,4,English,f,6,0.6,-60.5267324,1.01580547
6062450c1bb2c6f42298bda8,32,0,2024-02-28T17:47:24.636Z,french_568.wav,0,poule,839,44,5,4,English,f,7,0.7,-3.05790796,1.88258485
6062450c1bb2c6f42298bda8,32,0,2024-02-28T17:47:24.636Z,french_568.wav,0,poule,839,44,5,4,English,f,8,0.8,-0.0194333881,1.54499722
6062450c1bb2c6f42298bda8,32,0,2024-02-28T17:47:24.636Z,french_568.wav,0,poule,839,44,5,4,English,f,9,0.9,-43.2141855,1.96475796
6062450c1bb2c6f42298bda8,32,0,2024-02-28T17:47:24.636Z,french_568.wav,0,poule,839,44,5,4,English,f,10,1.0,-71.49699,1.68647767
6062450c1bb2c6f42298bda8,32,0,2024-02-28T17:47:24.636Z,french_568.wav,0,poule,839,44,5,4,English,f,11,1.1,59.4482406,1.5210489
6062450c1bb2c6f42298bda8,32,0,2024-02-28T17:47:24.636Z,french_568.wav,0,poule,839,44,5,4,English,f,12,1.14141667,-64.2949054,1.34194102
6062450c1bb2c6f42298bda8,33,0,2024-02-28T17:47:24.636Z,french_624.wav,0,pull,4025,44,5,4,English,f,0,0.0,-28.52871293,1.16992623
6062450c1bb2c6f42298bda8,33,0,2024-02-28T17:47:24.636Z,french_624.wav,0,pull,4025,44,5,4,English,f,1,0.1,-15.13108141,1.22361764
6062450c1bb2c6f42298bda8,33,0,2024-02-28T17:47:24.636Z,french_624.wav,0,pull,4025,44,5,4,English,f,2,0.2,-13.04094112,0.99709028
6062450c1bb2c6f42298bda8,33,0,2024-02-28T17:47:24.636Z,french_624.wav,0,pull,4025,44,5,4,English,f,3,0.3,-84.4775762,0.23255509
6062450c1bb2c6f42298bda8,33,0,2024-02-28T17:47:24.636Z,french_624.wav,0,pull,4025,44,5,4,English,f,4,0.4,73.47903794,0.62966649
6062450c1bb2c6f42298bda8,33,0,2024-02-28T17:47:24.636Z,french_624.wav,0,pull,4025,44,5,4,English,f,5,0.5,73.99412675,1.32731618
6062450c1bb2c6f42298bda8,33,0,2024-02-28T17:47:24.636Z,french_624.wav,0,pull,4025,44,5,4,English,f,6,0.6,-17.18727504,0.23490629
6062450c1bb2c6f42298bda8,33,0,2024-02-28T17:47:24.636Z,french_624.wav,0,pull,4025,44,5,4,English,f,7,0.7,23.00277233,0.63487472
6062450c1bb2c6f42298bda8,33,0,2024-02-28T17:47:24.636Z,french_624.wav,0,pull,4025,44,5,4,English,f,8,0.8,-62.7599991,0.6717251
6062450c1bb2c6f42298bda8,33,0,2024-02-28T17:47:24.636Z,french_624.wav,0,pull,4025,44,5,4,English,f,9,0.9,84.35585855,0.0253544
6062450c1bb2c6f42298bda8,33,0,2024-02-28T17:47:24.636Z,french_624.wav,0,pull,4025,44,5,4,English,f,10,1.0,-54.54055343,0.88305135
6062450c1bb2c6f42298bda8,33,0,2024-02-28T17:47:24.636Z,french_624.wav,0,pull,4025,44,5,4,English,f,11,1.1,-26.24402566,1.31611795
6062450c1bb2c6f42298bda8,33,0,2024-02-28T17:47:24.636Z,french_624.wav,0,pull,4025,44,5,4,English,f,12,1.14141667,31.89715649,1.72432966
6062450c1bb2c6f42298bda8,34,0,2024-02-28T17:47:24.636Z,french_580.wav,0,poule,878,44,5,4,English,f,0,0.0,25.72367309,0.83672034
6062450c1bb2c6f42298bda8,34,0,2024-02-28T17:47:24.636Z,french_580.wav,0,poule,878,44,5,4,English,f,1,0.1,-90.22264513,1.17700555
6062450c1bb2c6f42298bda8,34,0,2024-02-28T17:47:24.636Z,french_580.wav,0,poule,878,44,5,4,English,f,2,0.2,-41.00446139,0.86031616
6062450c1bb2c6f42298bda8,34,0,2024-02-28T17:47:24.636Z,french_580.wav,0,poule,878,44,5,4,English,f,3,0.3,-5.68850956,1.31884624
6062450c1bb2c6f42298bda8,34,0,2024-02-28T17:47:24.636Z,french_580.wav,0,poule,878,44,5,4,English,f,4,0.4,73.58502836,0.50096962
6062450c1bb2c6f42298bda8,34,0,2024-02-28T17:47:24.636Z,french_580.wav,0,poule,878,44,5,4,English,f,5,0.5,-21.93392185,1.67954592
6062450c1bb2c6f42298bda8,34,0,2024-02-28T17:47:24.636Z,french_580.wav,0,poule,878,44,5,4,English,f,6,0.6,22.10254243,1.67101568
6062450c1bb2c6f42298bda8,34,0,2024-02-28T17:47:24.636Z,french_580.wav,0,poule,878,44,5,4,English,f,7,0.7,-79.6738306,0.19873264
6062450c1bb2c6f42298bda8,34,0,2024-02-28T17:47:24.636Z,french_580.wav,0,poule,878,44,5,4,English,f,8,0.8,-14.71861733,1.68323733
6062450c1bb2c6f42298bda8,34,0,2024-02-28T17:47:24.636Z,french_580.wav,0,poule,878,44,5,4,English,f,9,0.9,-0.72546407,0.50457607
6062450c1bb2c6f42298bda8,34,0,2024-02-28T17:47:24.636Z,french_580.wav,0,poule,878,44,5,4,English,f,10,1.0,14.32622757,1.32157054
6062450c1bb2c6f42298bda8,34,0,2024-02-28T17:47:24.636Z,french_580.wav,0,poule,878,44,5,4,English,f,11,1.1,-17.22514553,0.77895262
6062450c1bb2c6f42298bda8,34,0,2024-02-28T17:47:24.636Z,french_580.wav,0,poule,878,44,5,4,English,f,12,1.14141667,91.12485479,0.13067195
6062450c1bb2c6f42298bda8,35,0,2024-02-28T17:47:24.636Z,french_665.wav,0,poule,701,44,5,4,English,f,0,0.0,40.10949249,1.54602454
6062450c1bb2c6f42298bda8,35,0,2024-02-28T17:47:24.636Z,french_665.wav,0,poule,701,44,5,4,English,f,1,0.1,-62.11772623,0.85820789
6062450c1bb2c6f42298bda8,35,0,2024-02-28T17:47:24.636Z,french_665.wav,0,poule,701,44,5,4,English,f,2,0.2,10.37983959,1.54593526
6062450c1bb2c6f42298bda8,35,0,2024-02-28T17:47:24.636Z,french_665.wav,0,poule,701,44,5,4,English,f,3,0.3,-90.96267468,1.66779558
6062450c1bb2c6f42298bda8,35,0,2024-02-28T17:47:24.636Z,french_665.wav,0,poule,701,44,5,4,English,f,4,0.4,-82.59415996,1.76178738
6062450c1bb2c6f42298bda8,35,0,2024-02-28T17:47:24.636Z,french_665.wav,0,poule,701,44,5,4,English,f,5,0.5,72.10201259,0.44098313
6062450c1bb2c6f42298bda8,35,0,2024-02-28T17:47:24.636Z,french_665.wav,0,poule,701,44,5,4,English,f,6,0.6,7.07517584,1.49710418
6062450c1bb2c6f42298bda8,35,0,2024-02-28T17:47:24.636Z,french_665.wav,0,poule,701,44,5,4,English,f,7,0.7,17.81948605,1.04266642
6062450c1bb2c6f42298bda8,35,0,2024-02-28T17:47:24.636Z,french_665.wav,0,poule,701,44,5,4,English,f,8,0.8,-75.16725794,1.09545449
6062450c1bb2c6f42298bda8,35,0,2024-02-28T17:47:24.636Z,french_665.wav,0,poule,701,44,5,4,English,f,9,0.9,86.62263138,0.00262512
6062450c1bb2c6f42298bda8,35,0,2024-02-28T17:47:24.636Z,french_665.wav,0,poule,701,44,5,4,English,f,10,1.0,-39.56803586,1.93103182
6062450c1bb2c6f42298bda8,35,0,2024-02-28T17:47:24.636Z,french_665.wav,0,poule,701,44,5,4,English,f,11,1.1,-92.62860056,1.53232008
6062450c1bb2c6f42298bda8,35,0,2024-02-28T17:47:24.636Z,french_665.wav,0,poule,701,44,5,4,English,f,12,1.14141667,37.86117833,1.33107791
6062450c1bb2c6f42298bda8,36,0,2024-02-28T17:47:24.636Z,french_164.wav,0,pull,1389,44,5,4,English,f,0,0.0,-73.61219947,0.64751098
6062450c1bb2c6f42298bda8,36,0,2024-02-28T17:47:24.636Z,french_164.wav,0,pull,1389,44,5,4,English,f,1,0.1,73.83741842,0.99835886
6062450c1bb2c6f42298bda8,36,0,2024-02-28T17:47:24.636Z,french_164.wav,0,pull,1389,44,5,4,English,f,2,0.2,-86.96600918,1.84552202
6062450c1bb2c6f42298bda8,36,0,2024-02-28T17:47:24.636Z,french_164.wav,0,pull,1389,44,5,4,English,f,3,0.3,-44.35897319,0.42506167
6062450c1bb2c6f42298bda8,36,0,2024-02-28T17:47:24.636Z,french_164.wav,0,pull,1389,44,5,4,English,f,4,0.4,-5.93602562,1.56944318
6062450c1bb2c6f42298bda8,36,0,2024-02-28T17:47:24.636Z,french_164.wav,0,pull,1389,44,5,4,English,f,5,0.5,31.57605376,0.50981351
6062450c1bb2c6f42298bda8,36,0,2024-02-28T17:47:24.636Z,french_164.wav,0,pull,1389,44,5,4,English,f,6,0.6,-28.19328213,0.22106919
6062450c1bb2c6f42298bda8,36,0,2024-02-28T17:47:24.636Z,french_164.wav,0,pull,1389,44,5,4,English,f,7,0.7,-59.59617703,0.06179354
6062450c1bb2c6f42298bda8,36,0,2024-02-28T17:47:24.636Z,french_164.wav,0,pull,1389,44,5,4,English,f,8,0.8,-96.4618976,0.63396718
6062450c1bb2c6f42298bda8,36,0,2024-02-28T17:47:24.636Z,french_164.wav,0,pull,1389,44,5,4,English,f,9,0.9,-81.92942934,0.06967389
6062450c1bb2c6f42298bda8,36,0,2024-02-28T17:47:24.636Z,french_164.wav,0,pull,1389,44,5,4,English,f,10,1.0,-44.43943419,1.02865239
6062450c1bb2c6f42298bda8,36,0,2024-02-28T17:47:24.636Z,french_164.wav,0,pull,1389,44,5,4,English,f,11,1.1,-71.04804832,0.75894675
6062450c1bb2c6f42298bda8,36,0,2024-02-28T17:47:24.636Z,french_164.wav,0,pull,1389,44,5,4,English,f,12,1.14141667,-80.61769167,1.53790101
6062450c1bb2c6f42298bda8,37,0,2024-02-28T17:47:24.636Z,french_691.wav,0,poule,639,44,5,4,English,f,0,0.0,-53.29117551,1.10181202
6062450c1bb2c6f42298bda8,37,0,2024-02-28T17:47:24.636Z,french_691.wav,0,poule,639,44,5,4,English,f,1,0.1,-43.12784614,0.28907205
6062450c1bb2c6f42298bda8,37,0,2024-02-28T17:47:24.636Z,french_691.wav,0,poule,639,44,5,4,English,f,2,0.2,-84.82989966,1.7388292
6062450c1bb2c6f42298bda8,37,0,2024-02-28T17:47:24.636Z,french_691.wav,0,poule,639,44,5,4,English,f,3,0.3,39.71227421,1.78666224
6062450c1bb2c6f42298bda8,37,0,2024-02-28T17:47:24.636Z,french_691.wav,0,poule,639,44,5,4,English,f,4,0.4,59.63865094,1.87776175
6062450c1bb2c6f42298bda8,37,0,2024-02-28T17:47:24.636Z,french_691.wav,0,poule,639,44,5,4,English,f,5,0.5,-32.9711098,1.68554567
6062450c1bb2c6f42298bda8,37,0,2024-02-28T17:47:24.636Z,french_691.wav,0,poule,639,44,5,4,English,f,6,0.6,1.3247472,1.64523099
6062450c1bb2c6f42298bda8,37,0,2024-02-28T17:47:24.636Z,french_691.wav,0,poule,639,44,5,4,English,f,7,0.7,-50.55695338,1.0611099
6062450c1bb2c6f42298bda8,37,0,2024-02-28T17:47:24.636Z,french_691.wav,0,poule,639,44,5,4,English,f,8,0.8,53.24371519,0.7419427
6062450c1bb2c6f42298bda8,37,0,2024-02-28T17:47:24.636Z,french_691.wav,0,poule,639,44,5,4,English,f,9,0.9,30.60584544,1.06726815
6062450c1bb2c6f42298bda8,37,0,2024-02-28T17:47:24.636Z,french_691.wav,0,poule,639,44,5,4,English,f,10,1.0,-22.917909,1.56845074
6062450c1bb2c6f42298bda8,37,0,2024-02-28T17:47:24.636Z,french_691.wav,0,poule,639,44,5,4,English,f,11,1.1,-32.41553069,0.51496565
6062450c1bb2c6f42298bda8,37,0,2024-02-28T17:47:24.636Z,french_691.wav,0,poule,639,44,5,4,English,f,12,1.14141667,-51.47885944,1.22953203
6062450c1bb2c6f42298bda8,38,0,2024-02-28T17:47:24.636Z,french_204.wav,0,poule,1148,44,5,4,English,f,0,0.0,-97.54424604,0.84357782
6062450c1bb2c6f42298bda8,38,0,2024-02-28T17:47:24.636Z,french_204.wav,0,poule,1148,44,5,4,English,f,1,0.1,-75.45987253,1.86814554
6062450c1bb2c6f42298bda8,38,0,2024-02-28T17:47:24.636Z,french_204.wav,0,poule,1148,44,5,4,English,f,2,0.2,-45.23023412,0.72033873
6062450c1bb2c6f42298bda8,38,0,2024-02-28T17:47:24.636Z,french_204.wav,0,poule,1148,44,5,4,English,f,3,0.3,-36.48297354,0.94694734
6062450c1bb2c6f42298bda8,38,0,2024-02-28T17:47:24.636Z,french_204.wav,0,poule,1148,44,5,4,English,f,4,0.4,90.93714811,1.41055146
6062450c1bb2c6f42298bda8,38,0,2024-02-28T17:47:24.636Z,french_204.wav,0,poule,1148,44,5,4,English,f,5,0.5,8.51204829,1.86444056
6062450c1bb2c6f42298bda8,38,0,2024-02-28T17:47:24.636Z,french_204.wav,0,poule,1148,44,5,4,English,f,6,0.6,-18.08952278,0.86787291
6062450c1bb2c6f42298bda8,38,0,2024-02-28T17:47:24.636Z,french_204.wav,0,poule,1148,44,5,4,English,f,7,0.7,-30.86608274,0.05470733
6062450c1bb2c6f42298bda8,38,0,2024-02-28T17:47:24.636Z,french_204.wav,0,poule,1148,44,5,4,English,f,8,0.8,9.52121427,0.89406548
6062450c1bb2c6f42298bda8,38,0,2024-02-28T17:47:24.636Z,french_204.wav,0,poule,1148,44,5,4,English,f,9,0.9,32.93587108,0.95464127
6062450c1bb2c6f42298bda8,38,0,2024-02-28T17:47:24.636Z,french_204.wav,0,poule,1148,44,5,4,English,f,10,1.0,4.3572217,1.5370853
6062450c1bb2c6f42298bda8,38,0,2024-02-28T17:47:24.636Z,french_204.wav,0,poule,1148,44,5,4,English,f,11,1.1,48.01606994,0.95273062
6062450c1bb2c6f42298bda8,38,0,2024-02-28T17:47:24.636Z,french_204.wav,0,poule,1148,44,5,4,English,f,12,1.14141667,-31.34314553,1.18622343
6062450c1bb2c6f42298bda8,39,0,2024-02-28T17:47:24.636Z,french_725.wav,0,poule,576,44,5,4,English,f,0,0.0,6.35773429,0.33586519
6062450c1bb2c6f42298bda8,39,0,2024-02-28T17:47:24.636Z,french_725.wav,0,poule,576,44,5,4,English,f,1,0.1,43.70894135,1.09244635
6062450c1bb2c6f42298bda8,39,0,2024-02-28T17:47:24.636Z,french_725.wav,0,poule,576,44,5,4,English,f,2,0.2,22.90719147,1.28834014
6062450c1bb2c6f42298bda8,39,0,2024-02-28T17:47:24.636Z,french_725.wav,0,poule,576,44,5,4,English,f,3,0.3,77.83150395,1.7742292
6062450c1bb2c6f42298bda8,39,0,2024-02-28T17:47:24.636Z,french_725.wav,0,poule,576,44,5,4,English,f,4,0.4,8.06655205,0.13845401
6062450c1bb2c6f42298bda8,39,0,2024-02-28T17:47:24.636Z,french_725.wav,0,poule,576,44,5,4,English,f,5,0.5,-92.02564179,1.68229188
6062450c1bb2c6f42298bda8,39,0,2024-02-28T17:47:24.636Z,french_725.wav,0,poule,576,44,5,4,English,f,6,0.6,-0.94151394,1.36391947
6062450c1bb2c6f42298bda8,39,0,2024-02-28T17:47:24.636Z,french_725.wav,0,poule,576,44,5,4,English,f,7,0.7,-43.43116172,1.13588382
6062450c1bb2c6f42298bda8,39,0,2024-02-28T17:47:24.636Z,french_725.wav,0,poule,576,44,5,4,English,f,8,0.8,25.37203063,1.69588373
6062450c1bb2c6f42298bda8,39,0,2024-02-28T17:47:24.636Z,french_725.wav,0,poule,576,44,5,4,English,f,9,0.9,-10.8941145,0.78478635
6062450c1bb2c6f42298bda8,39,0,2024-02-28T17:47:24.636Z,french_725.wav,0,poule,576,44,5,4,English,f,10,1.0,87.02180765,1.06725008
6062450c1bb2c6f42298bda8,39,0,2024-02-28T17:47:24.636Z,french_725.wav,0,poule,576,44,5,4,English,f,11,1.1,-29.98720343,0.9920546
6062450c1bb2c6f42298bda8,39,0,2024-02-28T17:47:24.636Z,french_725.wav,0,poule,576,44,5,4,English,f,12,1.14141667,85.40182929,1.23288415
6062450c1bb2c6f42298bda8,40,0,2024-02-28T17:47:24.636Z,french_541.wav,0,poule,685,44,5,4,English,f,0,0.0,2.74676595,1.22388571
6062450c1bb2c6f42298bda8,40,0,2024-02-28T17:47:24.636Z,french_541.wav,0,poule,685,44,5,4,English,f,1,0.1,83.23215627,0.59489091
6062450c1bb2c6f42298bda8,40,0,2024-02-28T17:47:24.636Z,french_541.wav,0,poule,685,44,5,4,English,f,2,0.2,-19.5310813,0.0302362
6062450c1bb2c6f42298bda8,40,0,2024-02-28T17:47:24.636Z,french_541.wav,0,poule,685,44,5,4,English,f,3,0.3,-37.06653527,1.44440055
6062450c1bb2c6f42298bda8,40,0,2024-02-28T17:47:24.636Z,french_541.wav,0,poule,685,44,5,4,English,f,4,0.4,10.34316696,0.76671296
6062450c1bb2c6f42298bda8,40,0,2024-02-28T17:47:24.636Z,french_541.wav,0,poule,685,44,5,4,English,f,5,0.5,-44.77981601,1.21683481
6062450c1bb2c6f42298bda8,40,0,2024-02-28T17:47:24.636Z,french_541.wav,0,poule,685,44,5,4,English,f,6,0.6,-15.46722486,0.28594328
6062450c1bb2c6f42298bda8,40,0,2024-02-28T17:47:24.636Z,french_541.wav,0,poule,685,44,5,4,English,f,7,0.7,-30.03274479,1.70659675
6062450c1bb2c6f42298bda8,40,0,2024-02-28T17:47:24.636Z,french_541.wav,0,poule,685,44,5,4,English,f,8,0.8,32.22050065,0.5056851
6062450c1bb2c6f42298bda8,40,0,2024-02-28T17:47:24.636Z,french_541.wav,0,poule,685,44,5,4,English,f,9,0.9,-28.45977879,1.08036446
6062450c1bb2c6f42298bda8,40,0,2024-02-28T17:47:24.636Z,french_541.wav,0,poule,685,44,5,4,English,f,10,1.0,-97.18959003,1.82748837
6062450c1bb2c6f42298bda8,40,0,2024-02-28T17:47:24.636Z,french_541.wav,0,poule,685,44,5,4,English,f,11,1.1,46.93949027,1.15452478
6062450c1bb2c6f42298bda8,40,0,2024-02-28T17:47:24.636Z,french_541.wav,0,poule,685,44,5,4,English,f,12,1.14141667,51.98067408,0.582253
6062450c1bb2c6f42298bda8,41,0,2024-02-28T17:47:24.636Z,french_680.wav,0,poule,703,44,5,4,English,f,0,0.0,54.30694394,1.15211559
6062450c1bb2c6f42298bda8,41,0,2024-02-28T17:47:24.636Z,french_680.wav,0,poule,703,44,5,4,English,f,1,0.1,-41.5272764,0.87340138
6062450c1bb2c6f42298bda8,41,0,2024-02-28T17:47:24.636Z,french_680.wav,0,poule,703,44,5,4,English,f,2,0.2,-38.88597906,1.68062495
6062450c1bb2c6f42298bda8,41,0,2024-02-28T17:47:24.636Z,french_680.wav,0,poule,703,44,5,4,English,f,3,0.3,-49.52685889,0.30209983
6062450c1bb2c6f42298bda8,41,0,2024-02-28T17:47:24.636Z,french_680.wav,0,poule,703,44,5,4,English,f,4,0.4,44.72087894,0.50857504
6062450c1bb2c6f42298bda8,41,0,2024-02-28T17:47:24.636Z,french_680.wav,0,poule,703,44,5,4,English,f,5,0.5,-10.12676544,1.91316925
6062450c1bb2c6f42298bda8,41,0,2024-02-28T17:47:24.636Z,french_680.wav,0,poule,703,44,5,4,English,f,6,0.6,-77.5421686,1.9075382
6062450c1bb2c6f42298bda8,41,0,2024-02-28T17:47:24.636Z,french_680.wav,0,poule,703,44,5,4,English,f,7,0.7,58.76328726,0.67384567
6062450c1bb2c6f42298bda8,41,0,2024-02-28T17:47:24.636Z,french_680.wav,0,poule,703,44,5,4,English,f,8,0.8,-86.31399478,0.03846657
6062450c1bb2c6f42298bda8,41,0,2024-02-28T17:47:24.636Z,french_680.wav,0,poule,703,44,5,4,English,f,9,0.9,-12.04790726,1.94476972
6062450c1bb2c6f42298bda8,41,0,2024-02-28T17:47:24.636Z,french_680.wav,0,poule,703,44,5,4,English,f,10,1.0,-19.59492269,1.59177026
6062450c1bb2c6f42298bda8,41,0,2024-02-28T17:47:24.636Z,french_680.wav,0,poule,703,44,5,4,English,f,11,1.1,21.11703797,0.77201621
6062450c1bb2c6f42298bda8,41,0,2024-02-28T17:47:24.636Z,french_680.wav,0,poule,703,44,5,4,English,f,12,1.14141667,-79.69552217,0.82441706
6062450c1bb2c6f42298bda8,42,0,2024-02-28T17:47:24.636Z,french_366.wav,0,poule,537,44,5,4,English,f,0,0.0,-14.82855427,1.76609292
6062450c1bb2c6f42298bda8,42,0,2024-02-28T17:47:24.636Z,french_366.wav,0,poule,537,44,5,4,English,f,1,0.1,6.72271479,1.92050992
6062450c1bb2c6f42298bda8,42,0,2024-02-28T17:47:24.636Z,french_366.wav,0,poule,537,44,5,4,English,f,2,0.2,20.98041557,1.73177778
6062450c1bb2c6f42298bda8,42,0,2024-02-28T17:47:24.636Z,french_366.wav,0,poule,537,44,5,4,English,f,3,0.3,-60.55291721,1.26737092
6062450c1bb2c6f42298bda8,42,0,2024-02-28T17:47:24.636Z,french_366.wav,0,poule,537,44,5,4,English,f,4,0.4,-24.10338385,0.4259994
6062450c1bb2c6f42298bda8,42,0,2024-02-28T17:47:24.636Z,french_366.wav,0,poule,537,44,5,4,English,f,5,0.5,-69.76829459,1.00032811
6062450c1bb2c6f42298bda8,42,0,2024-02-28T17:47:24.636Z,french_366.wav,0,poule,537,44,5,4,English,f,6,0.6,50.41424091,0.65568415
6062450c1bb2c6f42298bda8,42,0,2024-02-28T17:47:24.636Z,french_366.wav,0,poule,537,44,5,4,English,f,7,0.7,41.13803583,1.05912354
6062450c1bb2c6f42298bda8,42,0,2024-02-28T17:47:24.636Z,french_366.wav,0,poule,537,44,5,4,English,f,8,0.8,-66.63492444,1.41038374
6062450c1bb2c6f42298bda8,42,0,2024-02-28T17:47:24.636Z,french_366.wav,0,poule,537,44,5,4,English,f,9,0.9,32.77552682,1.87071781
6062450c1bb2c6f42298bda8,42,0,2024-02-28T17:47:24.636Z,french_366.wav,0,poule,537,44,5,4,English,f,10,1.0,-61.45161975,0.72148135
6062450c1bb2c6f42298bda8,42,0,2024-02-28T17:47:24.636Z,french_366.wav,0,poule,537,44,5,4,English,f,11,1.1,16.76057171,1.47966224
6062450c1bb2c6f42298bda8,42,0,2024-02-28T17:47:24.636Z,french_366.wav,0,poule,537,44,5,4,English,f,12,1.14141667,47.11341698,1.22067671
6062450c1bb2c6f42298bda8,43,0,2024-02-28T17:47:24.636Z,french_746.wav,0,pull,1006,44,5,4,English,f,0,0.0,90.23256386,1.50268963
6062450c1bb2c6f42298bda8,43,0,2024-02-28T17:47:24.636Z,french_746.wav,0,pull,1006,44,5,4,English,f,1,0.1,-88.22192177,1.93803066
6062450c1bb2c6f42298bda8,43,0,2024-02-28T17:47:24.636Z,french_746.wav,0,pull,1006,44,5,4,English,f,2,0.2,36.08058207,0.38306992
6062450c1bb2c6f42298bda8,43,0,2024-02-28T17:47:24.636Z,french_746.wav,0,pull,1006,44,5,4,English,f,3,0.3,53.20574484,0.27079159
6062450c1bb2c6f42298bda8,43,0,2024-02-28T17:47:24.636Z,french_746.wav,0,pull,1006,44,5,4,English,f,4,0.4,-53.48533356,1.49666029
6062450c1bb2c6f42298bda8,43,0,2024-02-28T17:47:24.636Z,french_746.wav,0,pull,1006,44,5,4,English,f,5,0.5,-12.04471186,1.04483491
6062450c1bb2c6f42298bda8,43,0,2024-02-28T17:47:24.636Z,french_746.wav,0,pull,1006,44,5,4,English,f,6,0.6,95.49693434,0.40549233
6062450c1bb2c6f42298bda8,43,0,2024-02-28T17:47:24.636Z,french_746.wav,0,pull,1006,44,5,4,English,f,7,0.7,95.81637856,1.4005816
6062450c1bb2c6f42298bda8,43,0,2024-02-28T17:47:24.636Z,french_746.wav,0,pull,1006,44,5,4,English,f,8,0.8,47.59417509,1.55234369
6062450c1bb2c6f42298bda8,43,0,2024-02-28T17:47:24.636Z,french_746.wav,0,pull,1006,44,5,4,English,f,9,0.9,46.98416357,0.7227623
6062450c1bb2c6f42298bda8,43,0,2024-02-28T17:47:24.636Z,french_746.wav,0,pull,1006,44,5,4,English,f,10,1.0,-29.62731829,0.07092525
6062450c1bb2c6f42298bda8,43,0,2024-02-28T17:47:24.636Z,french_746.wav,0,pull,1006,44,5,4,English,f,11,1.1,-23.23692929,1.38353686
6062450c1bb2c6f42298bda8,43,0,2024-02-28T17:47:24.636Z,french_746.wav,0,pull,1006,44,5,4,English,f,12,1.14141667,-48.70417272,1.86039409
6062450c1bb2c6f42298bda8,44,0,2024-02-28T17:47:24.636Z,french_492.wav,0,poule,719,44,5,4,English,f,0,0.0,62.67168513,0.43911588
6062450c1bb2c6f42298bda8,44,0,2024-02-28T17:47:24.636Z,french_492.wav,0,poule,719,44,5,4,English,f,1,0.1,94.72344934,1.05025764
6062450c1bb2c6f42298bda8,44,0,2024-02-28T17:47:24.636Z,french_492.wav,0,poule,719,44,5,4,English,f,2,0.2,-60.35828135,1.43296606
6062450c1bb2c6f42298bda8,44,0,2024-02-28T17:47:24.636Z,french_492.wav,0,poule,719,44,5,4,English,f,3,0.3,-88.06504121,1.08587419
6062450c1bb2c6f42298bda8,44,0,2024-02-28T17:47:24.636Z,french_492.wav,0,poule,719,44,5,4,English,f,4,0.4,-6.78932349,1.96972539
6062450c1bb2c6f42298bda8,44,0,2024-02-28T17:47:24.636Z,french_492.wav,0,poule,719,44,5,4,English,f,5,0.5,-47.82180806,1.20621652
6062450c1bb2c6f42298bda8,44,0,2024-02-28T17:47:24.636Z,french_492.wav,0,poule,719,44,5,4,English,f,6,0.6,-8.91064001,1.316574
6062450c1bb2c6f42298bda8,44,0,2024-02-28T17:47:24.636Z,french_492.wav,0,poule,719,44,5,4,English,f,7,0.7,-28.60266993,0.03749259
6062450c1bb2c6f42298bda8,44,0,2024-02-28T17:47:24.636Z,french_492.wav,0,poule,719,44,5,4,English,f,8,0.8,-48.68723624,1.11329037
6062450c1bb2c6f42298bda8,44,0,2024-02-28T17:47:24.636Z,french_492.wav,0,poule,719,44,5,4,English,f,9,0.9,18.57877233,1.67425831
6062450c1bb2c6f42298bda8,44,0,2024-02-28T17:47:24.636Z,french_492.wav,0,poule,719,44,5,4,English,f,10,1.0,39.49699981,0.64760106
6062450c1bb2c6f42298bda8,44,0,2024-02-28T17:47:24.636Z,french_492.wav,0,poule,719,44,5,4,English,f,11,1.1,-66.80023278,1.35920659
6062450c1bb2c6f42298bda8,44,0,2024-02-28T17:47:24.636Z,french_492.wav,0,poule,719,44,5,4,English,f,12,1.14141667,52.77539511,1.38166489
6062450c1bb2c6f42298bda8,45,0,2024-02-28T17:47:24.636Z,french_992.wav,0,poule,669,44,5,4,English,f,0,0.0,-12.15353666,1.63036785
6062450c1bb2c6f42298bda8,45,0,2024-02-28T17:47:24.636Z,french_992.wav,0,poule,669,44,5,4,English,f,1,0.1,-16.76346839,1.21725169
6062450c1bb2c6f42298bda8,45,0,2024-02-28T17:47:24.636Z,french_992.wav,0,poule,669,44,5,4,English,f,2,0.2,-30.99031514,1.01032608
6062450c1bb2c6f42298bda8,45,0,2024-02-28T17:47:24.636Z,french_992.wav,0,poule,669,44,5,4,English,f,3,0.3,-61.11543066,0.71979977
6062450c1bb2c6f42298bda8,45,0,2024-02-28T17:47:24.636Z,french_992.wav,0,poule,669,44,5,4,English,f,4,0.4,-30.89876813,0.85601455
6062450c1bb2c6f42298bda8,45,0,2024-02-28T17:47:24.636Z,french_992.wav,0,poule,669,44,5,4,English,f,5,0.5,28.25498692,1.6899119
6062450c1bb2c6f42298bda8,45,0,2024-02-28T17:47:24.636Z,french_992.wav,0,poule,669,44,5,4,English,f,6,0.6,-72.49617554,1.25116451
6062450c1bb2c6f42298bda8,45,0,2024-02-28T17:47:24.636Z,french_992.wav,0,poule,669,44,5,4,English,f,7,0.7,48.73771299,0.54341231
6062450c1bb2c6f42298bda8,45,0,2024-02-28T17:47:24.636Z,french_992.wav,0,poule,669,44,5,4,English,f,8,0.8,-15.27377936,0.19253517
6062450c1bb2c6f42298bda8,45,0,2024-02-28T17:47:24.636Z,french_992.wav,0,poule,669,44,5,4,English,f,9,0.9,-61.51587323,0.47864211
6062450c1bb2c6f42298bda8,45,0,2024-02-28T17:47:24.636Z,french_992.wav,0,poule,669,44,5,4,English,f,10,1.0,81.61890305,1.73173346
6062450c1bb2c6f42298bda8,45,0,2024-02-28T17:47:24.636Z,french_992.wav,0,poule,669,44,5,4,English,f,11,1.1,-34.31279769,1.37721075
6062450c1bb2c6f42298bda8,45,0,2024-02-28T17:47:24.636Z,french_992.wav,0,poule,669,44,5,4,English,f,12,1.14141667,-13.01382433,1.88742644
6062450c1bb2c6f42298bda8,46,0,2024-02-28T17:47:24.636Z,french_119.wav,0,poule,534,44,5,4,English,f,0,0.0,-46.46293881,1.20748333
6062450c1bb2c6f42298bda8,46,0,2024-02-28T17:47:24.636Z,french_119.wav,0,poule,534,44,5,4,English,f,1,0.1,36.58591631,0.93241829
6062450c1bb2c6f42298bda8,46,0,2024-02-28T17:47:24.636Z,french_119.wav,0,poule,534,44,5,4,English,f,2,0.2,50.38502511,0.66065298
6062450c1bb2c6f42298bda8,46,0,2024-02-28T17:47:24.636Z,french_119.wav,0,poule,534,44,5,4,English,f,3,0.3,-66.12823015,0.45259025
6062450c1bb2c6f42298bda8,46,0,2024-02-28T17:47:24.636Z,french_119.wav,0,poule,534,44,5,4,English,f,4,0.4,-77.21600754,0.97197432
6062450c1bb2c6f42298bda8,46,0,2024-02-28T17:47:24.636Z,french_119.wav,0,poule,534,44,5,4,English,f,5,0.5,6.000212,0.91187225
6062450c1bb2c6f42298bda8,46,0,2024-02-28T17:47:24.636Z,french_119.wav,0,poule,534,44,5,4,English,f,6,0.6,-4.76341262,1.2216298
6062450c1bb2c6f42298bda8,46,0,2024-02-28T17:47:24.636Z,french_119.wav,0,poule,534,44,5,4,English,f,7,0.7,7.45357195,1.53033872
6062450c1bb2c6f42298bda8,46,0,2024-02-28T17:47:24.636Z,french_119.wav,0,poule,534,44,5,4,English,f,8,0.8,-26.58843139,0.74678716
6062450c1bb2c6f42298bda8,46,0,2024-02-28T17:47:24.636Z,french_119.wav,0,poule,534,44,5,4,English,f,9,0.9,31.49724547,1.79882331
6062450c1bb2c6f42298bda8,46,0,2024-02-28T17:47:24.636Z,french_119.wav,0,poule,534,44,5,4,English,f,10,1.0,28.64688836,0.9366063
6062450c1bb2c6f42298bda8,46,0,2024-02-28T17:47:24.636Z,french_119.wav,0,poule,534,44,5,4,English,f,11,1.1,-76.72305376,1.21120155
6062450c1bb2c6f42298bda8,46,0,2024-02-28T17:47:24.636Z,french_119.wav,0,poule,534,44,5,4,English,f,12,1.14141667,-86.52721647,0.65657425
6062450c1bb2c6f42298bda8,47,0,2024-02-28T17:47:24.636Z,french_175.wav,0,poule,417,44,5,4,English,f,0,0.0,-86.0971082,0.20418882
6062450c1bb2c6f42298bda8,47,0,2024-02-28T17:47:24.636Z,french_175.wav,0,poule,417,44,5,4,English,f,1,0.1,-2.3053728,1.54727449
6062450c1bb2c6f42298bda8,47,0,2024-02-28T17:47:24.636Z,french_175.wav,0,poule,417,44,5,4,English,f,2,0.2,91.03775422,0.94711427
6062450c1bb2c6f42298bda8,47,0,2024-02-28T17:47:24.636Z,french_175.wav,0,poule,417,44,5,4,English,f,3,0.3,-72.92322202,0.51689232
6062450c1bb2c6f42298bda8,47,0,2024-02-28T17:47:24.636Z,french_175.wav,0,poule,417,44,5,4,English,f,4,0.4,19.26304209,1.57615447
6062450c1bb2c6f42298bda8,47,0,2024-02-28T17:47:24.636Z,french_175.wav,0,poule,417,44,5,4,English,f,5,0.5,22.762125,1.15863709
6062450c1bb2c6f42298bda8,47,0,2024-02-28T17:47:24.636Z,french_175.wav,0,poule,417,44,5,4,English,f,6,0.6,89.08499151,1.47271781
6062450c1bb2c6f42298bda8,47,0,2024-02-28T17:47:24.636Z,french_175.wav,0,poule,417,44,5,4,English,f,7,0.7,30.86228211,1.58184422
6062450c1bb2c6f42298bda8,47,0,2024-02-28T17:47:24.636Z,french_175.wav,0,poule,417,44,5,4,English,f,8,0.8,-20.38362491,1.71939633
6062450c1bb2c6f42298bda8,47,0,2024-02-28T17:47:24.636Z,french_175.wav,0,poule,417,44,5,4,English,f,9,0.9,30.33990578,1.50494596
6062450c1bb2c6f42298bda8,47,0,2024-02-28T17:47:24.636Z,french_175.wav,0,poule,417,44,5,4,English,f,10,1.0,40.44951768,0.66724973
6062450c1bb2c6f42298bda8,47,0,2024-02-28T17:47:24.636Z,french_175.wav,0,poule,417,44,5,4,English,f,11,1.1,-74.03551827,1.94775923
6062450c1bb2c6f42298bda8,47,0,2024-02-28T17:47:24.636Z,french_175.wav,0,poule,417,44,5,4,English,f,12,1.14141667,8.34335903,1.32591679
6062450c1bb2c6f42298bda8,48,0,2024-02-28T17:47:24.636Z,french_416.wav,0,poule,3837,44,5,4,English,f,0,0.0,-24.5917535,1.72074826
6062450c1bb2c6f42298bda8,48,0,2024-02-28T17:47:24.636Z,french_416.wav,0,poule,3837,44,5,4,English,f,1,0.1,92.93920815,1.31311704
6062450c1bb2c6f42298bda8,48,0,2024-02-28T17:47:24.636Z,french_416.wav,0,poule,3837,44,5,4,English,f,2,0.2,-43.48613044,1.22529817
6062450c1bb2c6f42298bda8,48,0,2024-02-28T17:47:24.636Z,french_416.wav,0,poule,3837,44,5,4,English,f,3,0.3,22.34438272,0.96386937
6062450c1bb2c6f42298bda8,48,0,2024-02-28T17:47:24.636Z,french_416.wav,0,poule,3837,44,5,4,English,f,4,0.4,-55.5062491,0.05298251
6062450c1bb2c6f42298bda8,48,0,2024-02-28T17:47:24.636Z,french_416.wav,0,poule,3837,44,5,4,English,f,5,0.5,-33.7407387,1.64478666
6062450c1bb2c6f42298bda8,48,0,2024-02-28T17:47:24.636Z,french_416.wav,0,poule,3837,44,5,4,English,f,6,0.6,13.55088473,0.56907947
6062450c1bb2c6f42298bda8,48,0,2024-02-28T17:47:24.636Z,french_416.wav,0,poule,3837,44,5,4,English,f,7,0.7,-86.82043412,1.73567671
6062450c1bb2c6f42298bda8,48,0,2024-02-28T17:47:24.636Z,french_416.wav,0,poule,3837,44,5,4,English,f,8,0.8,-64.82507768,0.1378672
6062450c1bb2c6f42298bda8,48,0,2024-02-28T17:47:24.636Z,french_416.wav,0,poule,3837,44,5,4,English,f,9,0.9,-58.57710626,1.13864961
6062450c1bb2c6f42298bda8,48,0,2024-02-28T17:47:24.636Z,french_416.wav,0,poule,3837,44,5,4,English,f,10,1.0,-0.79294086,0.67164702
6062450c1bb2c6f42298bda8,48,0,2024-02-28T17:47:24.636Z,french_416.wav,0,poule,3837,44,5,4,English,f,11,1.1,60.59997743,1.79788086
6062450c1bb2c6f42298bda8,48,0,2024-02-28T17:47:24.636Z,french_416.wav,0,poule,3837,44,5,4,English,f,12,1.14141667,99.27045787,0.3532116
6062450c1bb2c6f42298bda8,49,0,2024-02-28T17:47:24.636Z,french_859.wav,0,poule,410,44,5,4,English,f,0,0.0,1.3379516,1.36958818
6062450c1bb2c6f42298bda8,49,0,2024-02-28T17:47:24.636Z,french_859.wav,0,poule,410,44,5,4,English,f,1,0.1,-77.14988891,0.72000045
6062450c1bb2c6f42298bda8,49,0,2024-02-28T17:47:24.636Z,french_859.wav,0,poule,410,44,5,4,English,f,2,0.2,78.55525238,0.35438615
6062450c1bb2c6f42298bda8,49,0,2024-02-28T17:47:24.636Z,french_859.wav,0,poule,410,44,5,4,English,f,3,0.3,48.96351303,1.87808106
6062450c1bb2c6f42298bda8,49,0,2024-02-28T17:47:24.636Z,french_859.wav,0,poule,410,44,5,4,English,f,4,0.4,-79.69152109,0.09661352
6062450c1bb2c6f42298bda8,49,0,2024-02-28T17:47:24.636Z,french_859.wav,0,poule,410,44,5,4,English,f,5,0.5,-84.80889232,0.77016697
6062450c1bb2c6f42298bda8,49,0,2024-02-28T17:47:24.636Z,french_859.wav,0,poule,410,44,5,4,English,f,6,0.6,51.82772479,1.09697533
6062450c1bb2c6f42298bda8,49,0,2024-02-28T17:47:24.636Z,french_859.wav,0,poule,410,44,5,4,English,f,7,0.7,44.24285845,1.53057635
6062450c1bb2c6f42298bda8,49,0,2024-02-28T17:47:24.636Z,french_859.wav,0,poule,410,44,5,4,English,f,8,0.8,-23.46330426,0.58688687
6062450c1bb2c6f42298bda8,49,0,2024-02-28T17:47:24.636Z,french_859.wav,0,poule,410,44,5,4,English,f,9,0.9,71.97448193,1.83686528
6062450c1bb2c6f42298bda8,49,0,2024-02-28T17:47:24.636Z,french_859.wav,0,poule,410,44,5,4,English,f,10,1.0,66.15659707,1.24721253
6062450c1bb2c6f42298bda8,49,0,2024-02-28T17:47:24.636Z,french_859.wav,0,poule,410,44,5,4,English,f,11,1.1,-96.85014514,1.51912792
6062450c1bb2c6f42298bda8,49,0,2024-02-28T17:47:24.636Z,french_859.wav,0,poule,410,44,5,4,English,f,12,1.14141667,30.23995933,1.23413117
6062450c1bb2c6f42298bda8,50,1,2024-02-28T18:04:23.532Z,french_423.wav,0,poule,937,44,5,4,English,f,0,0.0,28.73087971,0.32492293
6062450c1bb2c6f42298bda8,50,1,2024-02-28T18:04:23.532Z,french_423.wav,0,poule,937,44,5,4,English,f,1,0.1,-27.11331038,1.97824147
6062450c1bb2c6f42298bda8,50,1,2024-02-28T18:04:23.532Z,french_423.wav,0,poule,937,44,5,4,English,f,2,0.2,13.5133657,1.46204006
6062450c1bb2c6f42298bda8,50,1,2024-02-28T18:04:23.532Z,french_423.wav,0,poule,937,44,5,4,English,f,3,0.3,-59.33175602,1.75401387
6062450c1bb2c6f42298bda8,50,1,2024-02-28T18:04:23.532Z,french_423.wav,0,poule,937,44,5,4,English,f,4,0.4,40.20716764,0.34583971
6062450c1bb2c6f42298bda8,50,1,2024-02-28T18:04:23.532Z,french_423.wav,0,poule,937,44,5,4,English,f,5,0.5,17.77914232,0.74752054
6062450c1bb2c6f42298bda8,50,1,2024-02-28T18:04:23.532Z,french_423.wav,0,poule,937,44,5,4,English,f,6,0.6,8.74509024,0.09109889
6062450c1bb2c6f42298bda8,50,1,2024-02-28T18:04:23.532Z,french_423.wav,0,poule,937,44,5,4,English,f,7,0.7,35.8225074,1.40612117
6062450c1bb2c6f42298bda8,50,1,2024-02-28T18:04:23.532Z,french_423.wav,0,poule,937,44,5,4,English,f,8,0.8,56.6713151,1.23903719
6062450c1bb2c6f42298bda8,50,1,2024-02-28T18:04:23.532Z,french_423.wav,0,poule,937,44,5,4,English,f,9,0.9,-81.2259765,1.96913751
6062450c1bb2c6f42298bda8,50,1,2024-02-28T18:04:23.532Z,french_423.wav,0,poule,937,44,5,4,English,f,10,1.0,71.576048,0.35667904
6062450c1bb2c6f42298bda8,50,1,2024-02-28T18:04:23.532Z,french_423.wav,0,poule,937,44,5,4,English,f,11,1.1,-90.10734063,0.95482335
6062450c1bb2c6f42298bda8,50,1,2024-02-28T18:04:23.532Z,french_423.wav,0,poule,937,44,5,4,English,f,12,1.14141667,62.7755843,1.55174946
6062450c1bb2c6f42298bda8,51,1,2024-02-28T18:04:23.532Z,french_386.wav,0,poule,382,44,5,4,English,f,0,0.0,0.78430489,0.59169825
6062450c1bb2c6f42298bda8,51,1,2024-02-28T18:04:23.532Z,french_386.wav,0,poule,382,44,5,4,English,f,1,0.1,13.87766625,1.1288047
6062450c1bb2c6f42298bda8,51,1,2024-02-28T18:04:23.532Z,french_386.wav,0,poule,382,44,5,4,English,f,2,0.2,-53.9186669,1.52123219
6062450c1bb2c6f42298bda8,51,1,2024-02-28T18:04:23.532Z,french_386.wav,0,poule,382,44,5,4,English,f,3,0.3,-0.65622809,0.54949769
6062450c1bb2c6f42298bda8,51,1,2024-02-28T18:04:23.532Z,french_386.wav,0,poule,382,44,5,4,English,f,4,0.4,-79.12810333,0.20623394
6062450c1bb2c6f42298bda8,51,1,2024-02-28T18:04:23.532Z,french_386.wav,0,poule,382,44,5,4,English,f,5,0.5,84.24951195,1.13251054
6062450c1bb2c6f42298bda8,51,1,2024-02-28T18:04:23.532Z,french_386.wav,0,poule,382,44,5,4,English,f,6,0.6,-76.27796842,0.81791972
6062450c1bb2c6f42298bda8,51,1,2024-02-28T18:04:23.532Z,french_386.wav,0,poule,382,44,5,4,English,f,7,0.7,-35.34111523,1.23104671
6062450c1bb2c6f42298bda8,51,1,2024-02-28T18:04:23.532Z,french_386.wav,0,poule,382,44,5,4,English,f,8,0.8,11.2375659,1.83380782
6062450c1bb2c6f42298bda8,51,1,2024-02-28T18:04:23.532Z,french_386.wav,0,poule,382,44,5,4,English,f,9,0.9,58.35016227,1.80502663
6062450c1bb2c6f42298bda8,51,1,2024-02-28T18:04:23.532Z,french_386.wav,0,poule,382,44,5,4,English,f,10,1.0,-48.14486205,1.74198324
6062450c1bb2c6f42298bda8,51,1,2024-02-28T18:04:23.532Z,french_386.wav,0,poule,382,44,5,4,English,f,11,1.1,32.95340606,0.89805375
6062450c1bb2c6f42298bda8,51,1,2024-02-28T18:04:23.532Z,french_386.wav,0,poule,382,44,5,4,English,f,12,1.14141667,8.70227109,1.16860367
6062450c1bb2c6f42298bda8,52,1,2024-02-28T18:04:23.532Z,french_38.wav,0,poule,356,44,5,4,English,f,0,0.0,40.69692625,0.35088988
6062450c1bb2c6f42298bda8,52,1,2024-02-28T18:04:23.532Z,french_38.wav,0,poule,356,44,5,4,English,f,1,0.1,83.11806361,0.52815391
6062450c1bb2c6f42298bda8,52,1,2024-02-28T18:04:23.532Z,french_38.wav,0,poule,356,44,5,4,English,f,2,0.2,18.12214919,0.42903125
6062450c1bb2c6f42298bda8,52,1,2024-02-28T18:04:23.532Z,french_38.wav,0,poule,356,44,5,4,English,f,3,0.3,-19.25038889,1.56660171
6062450c1bb2c6f42298bda8,52,1,2024-02-28T18:04:23.532Z,french_38.wav,0,poule,356,44,5,4,English,f,4,0.4,76.29170631,1.50314168
6062450c1bb2c6f42298bda8,52,1,2024-02-28T18:04:23.532Z,french_38.wav,0,poule,356,44,5,4,English,f,5,0.5,-93.04323891,0.64027928
6062450c1bb2c6f42298bda8,52,1,2024-02-28T18:04:23.532Z,french_38.wav,0,poule,356,44,5,4,English,f,6,0.6,29.67195094,1.95048915
6062450c1bb2c6f42298bda8,52,1,2024-02-28T18:04:23.532Z,french_38.wav,0,poule,356,44,5,4,English,f,7,0.7,-14.70137235,1.01169212
6062450c1bb2c6f42298bda8,52,1,2024-02-28T18:04:23.532Z,french_38.wav,0,poule,356,44,5,4,English,f,8,0.8,85.48410819,0.30617126
6062450c1bb2c6f42298bda8,52,1,2024-02-28T18:04:23.532Z,french_38.wav,0,poule,356,44,5,4,English,f,9,0.9,68.26582685,1.37718683
6062450c1bb2c6f42298bda8,52,1,2024-02-28T18:04:23.532Z,french_38.wav,0,poule,356,44,5,4,English,f,10,1.0,-29.21602996,1.41030957
6062450c1bb2c6f42298bda8,52,1,2024-02-28T18:04:23.532Z,french_38.wav,0,poule,356,44,5,4,English,f,11,1.1,-39.50968765,1.24571364
6062450c1bb2c6f42298bda8,52,1,2024-02-28T18:04:23.532Z,french_38.wav,0,poule,356,44,5,4,English,f,12,1.14141667,48.64216134,1.9075345
6062450c1bb2c6f42298bda8,53,1,2024-02-28T18:04:23.532Z,french_989.wav,0,poule,752,44,5,4,English,f,0,0.0,-44.41097931,1.1786245
6062450c1bb2c6f42298bda8,53,1,2024-02-28T18:04:23.532Z,french_989.wav,0,poule,752,44,5,4,English,f,1,0.1,66.6460462,1.67818399
6062450c1bb2c6f42298bda8,53,1,2024-02-28T18:04:23.532Z,french_989.wav,0,poule,752,44,5,4,English,f,2,0.2,-12.00930919,1.77767188
6062450c1bb2c6f42298bda8,53,1,2024-02-28T18:04:23.532Z,french_989.wav,0,poule,752,44,5,4,English,f,3,0.3,18.31928104,0.42466345
6062450c1bb2c6f42298bda8,53,1,2024-02-28T18:04:23.532Z,french_989.wav,0,poule,752,44,5,4,English,f,4,0.4,42.84827908,1.98594194
6062450c1bb2c6f42298bda8,53,1,2024-02-28T18:04:23.532Z,french_989.wav,0,poule,752,44,5,4,English,f,5,0.5,39.43988164,0.94788839
6062450c1bb2c6f42298bda8,53,1,2024-02-28T18:04:23.532Z,french_989.wav,0,poule,752,44,5,4,English,f,6,0.6,98.0897031,0.65021646
6062450c1bb2c6f42298bda8,53,1,2024-02-28T18:04:23.532Z,french_989.wav,0,poule,752,44,5,4,English,f,7,0.7,73.07759931,1.41735588
6062450c1bb2c6f42298bda8,53,1,2024-02-28T18:04:23.532Z,french_989.wav,0,poule,752,44,5,4,English,f,8,0.8,88.83528455,0.23014767
6062450c1bb2c6f42298bda8,53,1,2024-02-28T18:04:23.532Z,french_989.wav,0,poule,752,44,5,4,English,f,9,0.9,-62.07438452,0.393141
6062450c1bb2c6f42298bda8,53,1,2024-02-28T18:04:23.532Z,french_989.wav,0,poule,752,44,5,4,English,f,10,1.0,95.3416321,1.54796878
6062450c1bb2c6f42298bda8,53,1,2024-02-28T18:04:23.532Z,french_989.wav,0,poule,752,44,5,4,English,f,11,1.1,72.09965955,0.59500938
6062450c1bb2c6f42298bda8,53,1,2024-02-28T18:04:23.532Z,french_989.wav,0,poule,752,44,5,4,English,f,12,1.14141667,32.11352747,0.56774679
6062450c1bb2c6f42298bda8,54,1,2024-02-28T18:04:23.532Z,french_664.wav,0,poule,604,44,5,4,English,f,0,0.0,-91.74200012,1.5436769
6062450c1bb2c6f42298bda8,54,1,2024-02-28T18:04:23.532Z,french_664.wav,0,poule,604,44,5,4,English,f,1,0.1,67.3163071,1.28396624
6062450c1bb2c6f42298bda8,54,1,2024-02-28T18:04:23.532Z,french_664.wav,0,poule,604,44,5,4,English,f,2,0.2,-14.92110663,0.86320374
6062450c1bb2c6f42298bda8,54,1,2024-02-28T18:04:23.532Z,french_664.wav,0,poule,604,44,5,4,English,f,3,0.3,-15.00532605,1.18530683
6062450c1bb2c6f42298bda8,54,1,2024-02-28T18:04:23.532Z,french_664.wav,0,poule,604,44,5,4,English,f,4,0.4,-71.83608899,0.7104349
6062450c1bb2c6f42298bda8,54,1,2024-02-28T18:04:23.532Z,french_664.wav,0,poule,604,44,5,4,English,f,5,0.5,60.19723794,0.80286179
6062450c1bb2c6f42298bda8,54,1,2024-02-28T18:04:23.532Z,french_664.wav,0,poule,604,44,5,4,English,f,6,0.6,-88.50711363,0.79382779
6062450c1bb2c6f42298bda8,54,1,2024-02-28T18:04:23.532Z,french_664.wav,0,poule,604,44,5,4,English,f,7,0.7,29.2172503,0.16919782
6062450c1bb2c6f42298bda8,54,1,2024-02-28T18:04:23.532Z,french_664.wav,0,poule,604,44,5,4,English,f,8,0.8,46.83116703,1.5381824
6062450c1bb2c6f42298bda8,54,1,2024-02-28T18:04:23.532Z,french_664.wav,0,poule,604,44,5,4,English,f,9,0.9,-16.00706746,1.94367969
6062450c1bb2c6f42298bda8,54,1,2024-02-28T18:04:23.532Z,french_664.wav,0,poule,604,44,5,4,English,f,10,1.0,0.77059242,1.56397286
6062450c1bb2c6f42298bda8,54,1,2024-02-28T18:04:23.532Z,french_664.wav,0,poule,604,44,5,4,English,f,11,1.1,-11.58487906,0.83434339
6062450c1bb2c6f42298bda8,54,1,2024-02-28T18:04:23.532Z,french_664.wav,0,poule,604,44,5,4,English,f,12,1.14141667,-15.46228134,1.77198089
6062450c1bb2c6f42298bda8,55,1,2024-02-28T18:04:23.532Z,french_695.wav,0,poule,749,44,5,4,English,f,0,0.0,91.03645015,1.97576794
6062450c1bb2c6f42298bda8,55,1,2024-02-28T18:04:23.532Z,french_695.wav,0,poule,749,44,5,4,English,f,1,0.1,-17.31714147,1.557192
6062450c1bb2c6f42298bda8,55,1,2024-02-28T18:04:23.532Z,french_695.wav,0,poule,749,44,5,4,English,f,2,0.2,-14.58014364,1.20817895
6062450c1bb2c6f42298bda8,55,1,2024-02-28T18:04:23.532Z,french_695.wav,0,poule,749,44,5,4,English,f,3,0.3,-18.9204461,0.21789238
6062450c1bb2c6f42298bda8,55,1,2024-02-28T18:04:23.532Z,french_695.wav,0,poule,749,44,5,4,English,f,4,0.4,46.57979365,1.60794008
6062450c1bb2c6f42298bda8,55,1,2024-02-28T18:04:23.532Z,french_695.wav,0,poule,749,44,5,4,English,f,5,0.5,-90.24090986,0.78145158
6062450c1bb2c6f42298bda8,55,1,2024-02-28T18:04:23.532Z,french_695.wav,0,poule,749,44,5,4,English,f,6,0.6,-0.59110837,1.16957278
6062450c1bb2c6f42298bda8,55,1,2024-02-28T18:04:23.532Z,french_695.wav,0,poule,749,44,5,4,English,f,7,0.7,-10.88951476,0.74913415
6062450c1bb2c6f42298bda8,55,1,2024-02-28T18:04:23.532Z,french_695.wav,0,poule,749,44,5,4,English,f,8,0.8,-12.64634725,0.14772287
6062450c1bb2c6f42298bda8,55,1,2024-02-28T18:04:23.532Z,french_695.wav,0,poule,749,44,5,4,English,f,9,0.9,93.12439983,1.44178523
6062450c1bb2c6f42298bda8,55,1,2024-02-28T18:04:23.532Z,french_695.wav,0,poule,749,44,5,4,English,f,10,1.0,-53.03412878,1.23628709
6062450c1bb2c6f42298bda8,55,1,2024-02-28T18:04:23.532Z,french_695.wav,0,poule,749,44,5,4,English,f,11,1.1,-32.6093433,1.71888582
6062450c1bb2c6f42298bda8,55,1,2024-02-28T18:04:23.532Z,french_695.wav,0,poule,749,44,5,4,English,f,12,1.14141667,-33.49594962,0.08672386
6062450c1bb2c6f42298bda8,56,1,2024-02-28T18:04:23.532Z,french_445.wav,0,pull,1081,44,5,4,English,f,0,0.0,-13.69643402,0.73484181
6062450c1bb2c6f42298bda8,56,1,2024-02-28T18:04:23.532Z,french_445.wav,0,pull,1081,44,5,4,English,f,1,0.1,36.92445062,1.41360661
6062450c1bb2c6f42298bda8,56,1,2024-02-28T18:04:23.532Z,french_445.wav,0,pull,1081,44,5,4,English,f,2,0.2,21.43114689,0.52466555
6062450c1bb2c6f42298bda8,56,1,2024-02-28T18:04:23.532Z,french_445.wav,0,pull,1081,44,5,4,English,f,3,0.3,24.77090101,1.58726839
6062450c1bb2c6f42298bda8,56,1,2024-02-28T18:04:23.532Z,french_445.wav,0,pull,1081,44,5,4,English,f,4,0.4,77.265015,1.42575361
6062450c1bb2c6f42298bda8,56,1,2024-02-28T18:04:23.532Z,french_445.wav,0,pull,1081,44,5,4,English,f,5,0.5,28.30807518,1.55292683
6062450c1bb2c6f42298bda8,56,1,2024-02-28T18:04:23.532Z,french_445.wav,0,pull,1081,44,5,4,English,f,6,0.6,18.43259479,0.02964328
6062450c1bb2c6f42298bda8,56,1,2024-02-28T18:04:23.532Z,french_445.wav,0,pull,1081,44,5,4,English,f,7,0.7,-79.61204071,1.36780768
6062450c1bb2c6f42298bda8,56,1,2024-02-28T18:04:23.532Z,french_445.wav,0,pull,1081,44,5,4,English,f,8,0.8,80.96656343,0.02073761
6062450c1bb2c6f42298bda8,56,1,2024-02-28T18:04:23.532Z,french_445.wav,0,pull,1081,44,5,4,English,f,9,0.9,-8.33056755,0.3007781
6062450c1bb2c6f42298bda8,56,1,2024-02-28T18:04:23.532Z,french_445.wav,0,pull,1081,44,5,4,English,f,10,1.0,-7.46638384,0.17343981
6062450c1bb2c6f42298bda8,56,1,2024-02-28T18:04:23.532Z,french_445.wav,0,pull,1081,44,5,4,English,f,11,1.1,-0.65732392,0.65758319
6062450c1bb2c6f42298bda8,56,1,2024-02-28T18:04:23.532Z,french_445.wav,0,pull,1081,44,5,4,English,f,12,1.14141667,-17.80379885,0.41522681
6062450c1bb2c6f42298bda8,57,1,2024-02-28T18:04:23.532Z,french_458.wav,0,pull,1690,44,5,4,English,f,0,0.0,-9.50766831,1.22883205
6062450c1bb2c6f42298bda8,57,1,2024-02-28T18:04:23.532Z,french_458.wav,0,pull,1690,44,5,4,English,f,1,0.1,42.93423473,1.97283167
6062450c1bb2c6f42298bda8,57,1,2024-02-28T18:04:23.532Z,french_458.wav,0,pull,1690,44,5,4,English,f,2,0.2,-35.25099644,0.2630832
6062450c1bb2c6f42298bda8,57,1,2024-02-28T18:04:23.532Z,french_458.wav,0,pull,1690,44,5,4,English,f,3,0.3,-21.12424967,1.57587361
6062450c1bb2c6f42298bda8,57,1,2024-02-28T18:04:23.532Z,french_458.wav,0,pull,1690,44,5,4,English,f,4,0.4,88.8263871,1.57260938
6062450c1bb2c6f42298bda8,57,1,2024-02-28T18:04:23.532Z,french_458.wav,0,pull,1690,44,5,4,English,f,5,0.5,-40.0858464,1.32200512
6062450c1bb2c6f42298bda8,57,1,2024-02-28T18:04:23.532Z,french_458.wav,0,pull,1690,44,5,4,English,f,6,0.6,47.86966009,0.7357165
6062450c1bb2c6f42298bda8,57,1,2024-02-28T18:04:23.532Z,french_458.wav,0,pull,1690,44,5,4,English,f,7,0.7,4.01017738,0.40421915
6062450c1bb2c6f42298bda8,57,1,2024-02-28T18:04:23.532Z,french_458.wav,0,pull,1690,44,5,4,English,f,8,0.8,39.64619026,0.89504993
6062450c1bb2c6f42298bda8,57,1,2024-02-28T18:04:23.532Z,french_458.wav,0,pull,1690,44,5,4,English,f,9,0.9,-44.5526031,1.47670046
6062450c1bb2c6f42298bda8,57,1,2024-02-28T18:04:23.532Z,french_458.wav,0,pull,1690,44,5,4,English,f,10,1.0,99.06586971,0.22243202
6062450c1bb2c6f42298bda8,57,1,2024-02-28T18:04:23.532Z,french_458.wav,0,pull,1690,44,5,4,English,f,11,1.1,-77.88778656,0.95591191
6062450c1bb2c6f42298bda8,57,1,2024-02-28T18:04:23.532Z,french_458.wav,0,pull,1690,44,5,4,English,f,12,1.14141667,-50.98752312,0.35484095
6062450c1bb2c6f42298bda8,58,1,2024-02-28T18:04:23.532Z,french_915.wav,0,pull,865,44,5,4,English,f,0,0.0,24.97229927,0.29650111
6062450c1bb2c6f42298bda8,58,1,2024-02-28T18:04:23.532Z,french_915.wav,0,pull,865,44,5,4,English,f,1,0.1,9.55755976,1.7574547
6062450c1bb2c6f42298bda8,58,1,2024-02-28T18:04:23.532Z,french_915.wav,0,pull,865,44,5,4,English,f,2,0.2,-36.73982377,1.09391109
6062450c1bb2c6f42298bda8,58,1,2024-02-28T18:04:23.532Z,french_915.wav,0,pull,865,44,5,4,English,f,3,0.3,16.36164394,0.1335892
6062450c1bb2c6f42298bda8,58,1,2024-02-28T18:04:23.532Z,french_915.wav,0,pull,865,44,5,4,English,f,4,0.4,18.89549827,1.43122832
6062450c1bb2c6f42298bda8,58,1,2024-02-28T18:04:23.532Z,french_915.wav,0,pull,865,44,5,4,English,f,5,0.5,29.58178959,1.80794112
6062450c1bb2c6f42298bda8,58,1,2024-02-28T18:04:23.532Z,french_915.wav,0,pull,865,44,5,4,English,f,6,0.6,67.00984201,1.50463968
6062450c1bb2c6f42298bda8,58,1,2024-02-28T18:04:23.532Z,french_915.wav,0,pull,865,44,5,4,English,f,7,0.7,69.33436498,1.3294998
6062450c1bb2c6f42298bda8,58,1,2024-02-28T18:04:23.532Z,french_915.wav,0,pull,865,44,5,4,English,f,8,0.8,-68.5567505,1.58149329
6062450c1bb2c6f42298bda8,58,1,2024-02-28T18:04:23.532Z,french_915.wav,0,pull,865,44,5,4,English,f,9,0.9,-82.82111497,1.17041831
6062450c1bb2c6f42298bda8,58,1,2024-02-28T18:04:23.532Z,french_915.wav,0,pull,865,44,5,4,English,f,10,1.0,-19.3056594,0.93306192
6062450c1bb2c6f42298bda8,58,1,2024-02-28T18:04:23.532Z,french_915.wav,0,pull,865,44,5,4,English,f,11,1.1,46.67656137,0.84227441
6062450c1bb2c6f42298bda8,58,1,2024-02-28T18:04:23.532Z,french_915.wav,0,pull,865,44,5,4,English,f,12,1.14141667,-49.01815879,1.06379674
6062450c1bb2c6f42298bda8,59,1,2024-02-28T18:04:23.532Z,french_715.wav,0,poule,455,44,5,4,English,f,0,0.0,29.09235338,0.68387868
6062450c1bb2c6f42298bda8,59,1,2024-02-28T18:04:23.532Z,french_715.wav,0,poule,455,44,5,4,English,f,1,0.1,61.36228021,0.41187782
6062450c1bb2c6f42298bda8,59,1,2024-02-28T18:04:23.532Z,french_715.wav,0,poule,455,44,5,4,English,f,2,0.2,10.6031568,0.00341507
6062450c1bb2c6f42298bda8,59,1,2024-02-28T18:04:23.532Z,french_715.wav,0,poule,455,44,5,4,English,f,3,0.3,56.69704228,1.41549819
6062450c1bb2c6f42298bda8,59,1,2024-02-28T18:04:23.532Z,french_715.wav,0,poule,455,44,5,4,English,f,4,0.4,27.32467936,1.88841919
6062450c1bb2c6f42298bda8,59,1,2024-02-28T18:04:23.532Z,french_715.wav,0,poule,455,44,5,4,English,f,5,0.5,-48.62858271,0.8974375
6062450c1bb2c6f42298bda8,59,1,2024-02-28T18:04:23.532Z,french_715.wav,0,poule,455,44,5,4,English,f,6,0.6,-3.68134428,1.39682713
6062450c1bb2c6f42298bda8,59,1,2024-02-28T18:04:23.532Z,french_715.wav,0,poule,455,44,5,4,English,f,7,0.7,-64.08054683,1.82228558
6062450c1bb2c6f42298bda8,59,1,2024-02-28T18:04:23.532Z,french_715.wav,0,poule,455,44,5,4,English,f,8,0.8,-70.8412554,1.0908324
