subj,trial,block,date,stim,stim_order,response,rt,age,english,french,language,sex,param_index,segment,pitch,stretch
5c2b9ce5b337310001996c05,0,0,2024-02-28T19:29:14.866Z,french_362.wav,0,poule,6605,36,5,5,English,M,0,0.0,41.03273498,1.17434259
5c2b9ce5b337310001996c05,0,0,2024-02-28T19:29:14.866Z,french_362.wav,0,poule,6605,36,5,5,English,M,1,0.1,9.58147449,1.0161357
5c2b9ce5b337310001996c05,0,0,2024-02-28T19:29:14.866Z,french_362.wav,0,poule,6605,36,5,5,English,M,2,0.2,-32.18625516,1.58908251
5c2b9ce5b337310001996c05,0,0,2024-02-28T19:29:14.866Z,french_362.wav,0,poule,6605,36,5,5,English,M,3,0.3,28.50669793,0.746627
5c2b9ce5b337310001996c05,0,0,2024-02-28T19:29:14.866Z,french_362.wav,0,poule,6605,36,5,5,English,M,4,0.4,-88.53670297,0.02412489
5c2b9ce5b337310001996c05,0,0,2024-02-28T19:29:14.866Z,french_362.wav,0,poule,6605,36,5,5,English,M,5,0.5,-15.43899097,0.5408358
5c2b9ce5b337310001996c05,0,0,2024-02-28T19:29:14.866Z,french_362.wav,0,poule,6605,36,5,5,English,M,6,0.6,-14.99208648,1.97473796
5c2b9ce5b337310001996c05,0,0,2024-02-28T19:29:14.866Z,french_362.wav,0,poule,6605,36,5,5,English,M,7,0.7,30.73544721,0.60459965
5c2b9ce5b337310001996c05,0,0,2024-02-28T19:29:14.866Z,french_362.wav,0,poule,6605,36,5,5,English,M,8,0.8,-77.16176604,1.44502859
5c2b9ce5b337310001996c05,0,0,2024-02-28T19:29:14.866Z,french_362.wav,0,poule,6605,36,5,5,English,M,9,0.9,-8.39157052,1.27495293
5c2b9ce5b337310001996c05,0,0,2024-02-28T19:29:14.866Z,french_362.wav,0,poule,6605,36,5,5,English,M,10,1.0,-0.4008465,0.65103499
5c2b9ce5b337310001996c05,0,0,2024-02-28T19:29:14.866Z,french_362.wav,0,poule,6605,36,5,5,English,M,11,1.1,4.11299021,0.57126771
5c2b9ce5b337310001996c05,0,0,2024-02-28T19:29:14.866Z,french_362.wav,0,poule,6605,36,5,5,English,M,12,1.14141667,49.09310712,1.60326381
5c2b9ce5b337310001996c05,1,0,2024-02-28T19:29:14.866Z,french_576.wav,0,pull,1210,36,5,5,English,M,0,0.0,-35.22249623,0.53434723
5c2b9ce5b337310001996c05,1,0,2024-02-28T19:29:14.866Z,french_576.wav,0,pull,1210,36,5,5,English,M,1,0.1,92.91804811,1.6832489
5c2b9ce5b337310001996c05,1,0,2024-02-28T19:29:14.866Z,french_576.wav,0,pull,1210,36,5,5,English,M,2,0.2,14.59888727,0.18828374
5c2b9ce5b337310001996c05,1,0,2024-02-28T19:29:14.866Z,french_576.wav,0,pull,1210,36,5,5,English,M,3,0.3,-68.19590077,1.37837483
5c2b9ce5b337310001996c05,1,0,2024-02-28T19:29:14.866Z,french_576.wav,0,pull,1210,36,5,5,English,M,4,0.4,52.21316696,1.79475925
5c2b9ce5b337310001996c05,1,0,2024-02-28T19:29:14.866Z,french_576.wav,0,pull,1210,36,5,5,English,M,5,0.5,14.92193752,1.60751943
5c2b9ce5b337310001996c05,1,0,2024-02-28T19:29:14.866Z,french_576.wav,0,pull,1210,36,5,5,English,M,6,0.6,-2.54989891,1.27401164
5c2b9ce5b337310001996c05,1,0,2024-02-28T19:29:14.866Z,french_576.wav,0,pull,1210,36,5,5,English,M,7,0.7,-61.75801356,1.12679718
5c2b9ce5b337310001996c05,1,0,2024-02-28T19:29:14.866Z,french_576.wav,0,pull,1210,36,5,5,English,M,8,0.8,-64.3663367,0.78491819
5c2b9ce5b337310001996c05,1,0,2024-02-28T19:29:14.866Z,french_576.wav,0,pull,1210,36,5,5,English,M,9,0.9,-54.016617,0.78342671
5c2b9ce5b337310001996c05,1,0,2024-02-28T19:29:14.866Z,french_576.wav,0,pull,1210,36,5,5,English,M,10,1.0,23.77391071,0.50591009
5c2b9ce5b337310001996c05,1,0,2024-02-28T19:29:14.866Z,french_576.wav,0,pull,1210,36,5,5,English,M,11,1.1,16.13387818,1.89137454
5c2b9ce5b337310001996c05,1,0,2024-02-28T19:29:14.866Z,french_576.wav,0,pull,1210,36,5,5,English,M,12,1.14141667,16.53892652,1.34464609
5c2b9ce5b337310001996c05,2,0,2024-02-28T19:29:14.866Z,french_692.wav,0,poule,1084,36,5,5,English,M,0,0.0,-3.63018758,1.78860692
5c2b9ce5b337310001996c05,2,0,2024-02-28T19:29:14.866Z,french_692.wav,0,poule,1084,36,5,5,English,M,1,0.1,-68.16293379,0.86300874
5c2b9ce5b337310001996c05,2,0,2024-02-28T19:29:14.866Z,french_692.wav,0,poule,1084,36,5,5,English,M,2,0.2,94.54361928,1.08735966
5c2b9ce5b337310001996c05,2,0,2024-02-28T19:29:14.866Z,french_692.wav,0,poule,1084,36,5,5,English,M,3,0.3,25.0958546,0.96562877
5c2b9ce5b337310001996c05,2,0,2024-02-28T19:29:14.866Z,french_692.wav,0,poule,1084,36,5,5,English,M,4,0.4,-99.12905949,1.65441916
5c2b9ce5b337310001996c05,2,0,2024-02-28T19:29:14.866Z,french_692.wav,0,poule,1084,36,5,5,English,M,5,0.5,-47.00596257,1.19889603
5c2b9ce5b337310001996c05,2,0,2024-02-28T19:29:14.866Z,french_692.wav,0,poule,1084,36,5,5,English,M,6,0.6,-38.46033818,0.04010608
5c2b9ce5b337310001996c05,2,0,2024-02-28T19:29:14.866Z,french_692.wav,0,poule,1084,36,5,5,English,M,7,0.7,-52.37005629,0.99288232
5c2b9ce5b337310001996c05,2,0,2024-02-28T19:29:14.866Z,french_692.wav,0,poule,1084,36,5,5,English,M,8,0.8,29.27180561,1.70634134
5c2b9ce5b337310001996c05,2,0,2024-02-28T19:29:14.866Z,french_692.wav,0,poule,1084,36,5,5,English,M,9,0.9,-18.83326647,0.96715022
5c2b9ce5b337310001996c05,2,0,2024-02-28T19:29:14.866Z,french_692.wav,0,poule,1084,36,5,5,English,M,10,1.0,-60.91466225,1.75736357
5c2b9ce5b337310001996c05,2,0,2024-02-28T19:29:14.866Z,french_692.wav,0,poule,1084,36,5,5,English,M,11,1.1,-20.82797719,1.93453934
5c2b9ce5b337310001996c05,2,0,2024-02-28T19:29:14.866Z,french_692.wav,0,poule,1084,36,5,5,English,M,12,1.14141667,-55.17315813,0.43289188
5c2b9ce5b337310001996c05,3,0,2024-02-28T19:29:14.866Z,french_52.wav,0,pull,657,36,5,5,English,M,0,0.0,93.38164969,0.21743143
5c2b9ce5b337310001996c05,3,0,2024-02-28T19:29:14.866Z,french_52.wav,0,pull,657,36,5,5,English,M,1,0.1,-4.17463196,1.66269787
5c2b9ce5b337310001996c05,3,0,2024-02-28T19:29:14.866Z,french_52.wav,0,pull,657,36,5,5,English,M,2,0.2,43.01045584,0.38714673
5c2b9ce5b337310001996c05,3,0,2024-02-28T19:29:14.866Z,french_52.wav,0,pull,657,36,5,5,English,M,3,0.3,79.89764716,1.29835481
5c2b9ce5b337310001996c05,3,0,2024-02-28T19:29:14.866Z,french_52.wav,0,pull,657,36,5,5,English,M,4,0.4,89.53615732,1.7255644
5c2b9ce5b337310001996c05,3,0,2024-02-28T19:29:14.866Z,french_52.wav,0,pull,657,36,5,5,English,M,5,0.5,-1.91048344,0.55155407
5c2b9ce5b337310001996c05,3,0,2024-02-28T19:29:14.866Z,french_52.wav,0,pull,657,36,5,5,English,M,6,0.6,-9.63392165,0.27578942
5c2b9ce5b337310001996c05,3,0,2024-02-28T19:29:14.866Z,french_52.wav,0,pull,657,36,5,5,English,M,7,0.7,-91.20147798,1.40308441
5c2b9ce5b337310001996c05,3,0,2024-02-28T19:29:14.866Z,french_52.wav,0,pull,657,36,5,5,English,M,8,0.8,-22.16876699,1.87234948
5c2b9ce5b337310001996c05,3,0,2024-02-28T19:29:14.866Z,french_52.wav,0,pull,657,36,5,5,English,M,9,0.9,26.46243178,1.88038075
5c2b9ce5b337310001996c05,3,0,2024-02-28T19:29:14.866Z,french_52.wav,0,pull,657,36,5,5,English,M,10,1.0,-96.25408509,1.06731664
5c2b9ce5b337310001996c05,3,0,2024-02-28T19:29:14.866Z,french_52.wav,0,pull,657,36,5,5,English,M,11,1.1,-45.87026752,1.74934034
5c2b9ce5b337310001996c05,3,0,2024-02-28T19:29:14.866Z,french_52.wav,0,pull,657,36,5,5,English,M,12,1.14141667,-15.0624862,1.38742842
5c2b9ce5b337310001996c05,4,0,2024-02-28T19:29:14.866Z,french_632.wav,0,pull,1321,36,5,5,English,M,0,0.0,-61.06763991,1.6452416
5c2b9ce5b337310001996c05,4,0,2024-02-28T19:29:14.866Z,french_632.wav,0,pull,1321,36,5,5,English,M,1,0.1,-57.8130529,0.41885381
5c2b9ce5b337310001996c05,4,0,2024-02-28T19:29:14.866Z,french_632.wav,0,pull,1321,36,5,5,English,M,2,0.2,54.35735824,1.5481505
5c2b9ce5b337310001996c05,4,0,2024-02-28T19:29:14.866Z,french_632.wav,0,pull,1321,36,5,5,English,M,3,0.3,-58.91236726,1.62022086
5c2b9ce5b337310001996c05,4,0,2024-02-28T19:29:14.866Z,french_632.wav,0,pull,1321,36,5,5,English,M,4,0.4,-64.13325835,0.90453309
5c2b9ce5b337310001996c05,4,0,2024-02-28T19:29:14.866Z,french_632.wav,0,pull,1321,36,5,5,English,M,5,0.5,1.3996077,1.75325833
5c2b9ce5b337310001996c05,4,0,2024-02-28T19:29:14.866Z,french_632.wav,0,pull,1321,36,5,5,English,M,6,0.6,96.59752588,1.95765898
5c2b9ce5b337310001996c05,4,0,2024-02-28T19:29:14.866Z,french_632.wav,0,pull,1321,36,5,5,English,M,7,0.7,43.3805339,1.0798425
5c2b9ce5b337310001996c05,4,0,2024-02-28T19:29:14.866Z,french_632.wav,0,pull,1321,36,5,5,English,M,8,0.8,-5.42806786,1.87572571
5c2b9ce5b337310001996c05,4,0,2024-02-28T19:29:14.866Z,french_632.wav,0,pull,1321,36,5,5,English,M,9,0.9,-58.66284966,0.40799894
5c2b9ce5b337310001996c05,4,0,2024-02-28T19:29:14.866Z,french_632.wav,0,pull,1321,36,5,5,English,M,10,1.0,-47.33386135,1.4956973
5c2b9ce5b337310001996c05,4,0,2024-02-28T19:29:14.866Z,french_632.wav,0,pull,1321,36,5,5,English,M,11,1.1,-21.19098869,1.53768765
5c2b9ce5b337310001996c05,4,0,2024-02-28T19:29:14.866Z,french_632.wav,0,pull,1321,36,5,5,English,M,12,1.14141667,97.6648062,1.52822814
5c2b9ce5b337310001996c05,5,0,2024-02-28T19:29:14.866Z,french_863.wav,0,poule,1666,36,5,5,English,M,0,0.0,50.77342544,0.93550892
5c2b9ce5b337310001996c05,5,0,2024-02-28T19:29:14.866Z,french_863.wav,0,poule,1666,36,5,5,English,M,1,0.1,-97.70321946,0.64505388
5c2b9ce5b337310001996c05,5,0,2024-02-28T19:29:14.866Z,french_863.wav,0,poule,1666,36,5,5,English,M,2,0.2,-1.18541723,0.94585453
5c2b9ce5b337310001996c05,5,0,2024-02-28T19:29:14.866Z,french_863.wav,0,poule,1666,36,5,5,English,M,3,0.3,-45.09950091,0.69723049
5c2b9ce5b337310001996c05,5,0,2024-02-28T19:29:14.866Z,french_863.wav,0,poule,1666,36,5,5,English,M,4,0.4,-69.59494908,0.77036715
5c2b9ce5b337310001996c05,5,0,2024-02-28T19:29:14.866Z,french_863.wav,0,poule,1666,36,5,5,English,M,5,0.5,86.27470407,0.28013797
5c2b9ce5b337310001996c05,5,0,2024-02-28T19:29:14.866Z,french_863.wav,0,poule,1666,36,5,5,English,M,6,0.6,-28.73893601,1.05013391
5c2b9ce5b337310001996c05,5,0,2024-02-28T19:29:14.866Z,french_863.wav,0,poule,1666,36,5,5,English,M,7,0.7,-52.09259609,1.91965154
5c2b9ce5b337310001996c05,5,0,2024-02-28T19:29:14.866Z,french_863.wav,0,poule,1666,36,5,5,English,M,8,0.8,36.31844789,0.72883716
5c2b9ce5b337310001996c05,5,0,2024-02-28T19:29:14.866Z,french_863.wav,0,poule,1666,36,5,5,English,M,9,0.9,-73.2210636,0.81903439
5c2b9ce5b337310001996c05,5,0,2024-02-28T19:29:14.866Z,french_863.wav,0,poule,1666,36,5,5,English,M,10,1.0,90.73733334,0.23587725
5c2b9ce5b337310001996c05,5,0,2024-02-28T19:29:14.866Z,french_863.wav,0,poule,1666,36,5,5,English,M,11,1.1,58.21757398,1.52886581
5c2b9ce5b337310001996c05,5,0,2024-02-28T19:29:14.866Z,french_863.wav,0,poule,1666,36,5,5,English,M,12,1.14141667,56.00262149,1.3743652
5c2b9ce5b337310001996c05,6,0,2024-02-28T19:29:14.866Z,french_410.wav,0,pull,740,36,5,5,English,M,0,0.0,-13.61010892,0.12499196
5c2b9ce5b337310001996c05,6,0,2024-02-28T19:29:14.866Z,french_410.wav,0,pull,740,36,5,5,English,M,1,0.1,77.81547095,1.21899276
5c2b9ce5b337310001996c05,6,0,2024-02-28T19:29:14.866Z,french_410.wav,0,pull,740,36,5,5,English,M,2,0.2,82.13695373,1.54170327
5c2b9ce5b337310001996c05,6,0,2024-02-28T19:29:14.866Z,french_410.wav,0,pull,740,36,5,5,English,M,3,0.3,-16.93458416,0.12135823
5c2b9ce5b337310001996c05,6,0,2024-02-28T19:29:14.866Z,french_410.wav,0,pull,740,36,5,5,English,M,4,0.4,-8.61826003,0.17314322
5c2b9ce5b337310001996c05,6,0,2024-02-28T19:29:14.866Z,french_410.wav,0,pull,740,36,5,5,English,M,5,0.5,-33.26612631,0.58788453
5c2b9ce5b337310001996c05,6,0,2024-02-28T19:29:14.866Z,french_410.wav,0,pull,740,36,5,5,English,M,6,0.6,40.79154832,1.09892225
5c2b9ce5b337310001996c05,6,0,2024-02-28T19:29:14.866Z,french_410.wav,0,pull,740,36,5,5,English,M,7,0.7,66.55884445,0.15132796
5c2b9ce5b337310001996c05,6,0,2024-02-28T19:29:14.866Z,french_410.wav,0,pull,740,36,5,5,English,M,8,0.8,86.34165637,0.64125421
5c2b9ce5b337310001996c05,6,0,2024-02-28T19:29:14.866Z,french_410.wav,0,pull,740,36,5,5,English,M,9,0.9,91.11355202,0.30485539
5c2b9ce5b337310001996c05,6,0,2024-02-28T19:29:14.866Z,french_410.wav,0,pull,740,36,5,5,English,M,10,1.0,-30.27955269,0.74953125
5c2b9ce5b337310001996c05,6,0,2024-02-28T19:29:14.866Z,french_410.wav,0,pull,740,36,5,5,English,M,11,1.1,52.51274623,1.17085768
5c2b9ce5b337310001996c05,6,0,2024-02-28T19:29:14.866Z,french_410.wav,0,pull,740,36,5,5,English,M,12,1.14141667,95.54585368,1.8491146
5c2b9ce5b337310001996c05,7,0,2024-02-28T19:29:14.866Z,french_835.wav,0,pull,1409,36,5,5,English,M,0,0.0,91.17156261,0.94497771
5c2b9ce5b337310001996c05,7,0,2024-02-28T19:29:14.866Z,french_835.wav,0,pull,1409,36,5,5,English,M,1,0.1,25.08688283,1.50226129
5c2b9ce5b337310001996c05,7,0,2024-02-28T19:29:14.866Z,french_835.wav,0,pull,1409,36,5,5,English,M,2,0.2,48.2450029,1.19715806
5c2b9ce5b337310001996c05,7,0,2024-02-28T19:29:14.866Z,french_835.wav,0,pull,1409,36,5,5,English,M,3,0.3,90.12216344,1.34954449
5c2b9ce5b337310001996c05,7,0,2024-02-28T19:29:14.866Z,french_835.wav,0,pull,1409,36,5,5,English,M,4,0.4,-40.18882143,0.59579265
5c2b9ce5b337310001996c05,7,0,2024-02-28T19:29:14.866Z,french_835.wav,0,pull,1409,36,5,5,English,M,5,0.5,-54.27954375,1.80504859
5c2b9ce5b337310001996c05,7,0,2024-02-28T19:29:14.866Z,french_835.wav,0,pull,1409,36,5,5,English,M,6,0.6,-68.4756581,0.24555797
5c2b9ce5b337310001996c05,7,0,2024-02-28T19:29:14.866Z,french_835.wav,0,pull,1409,36,5,5,English,M,7,0.7,-53.08534738,0.70333343
5c2b9ce5b337310001996c05,7,0,2024-02-28T19:29:14.866Z,french_835.wav,0,pull,1409,36,5,5,English,M,8,0.8,-46.88967441,0.47518266
5c2b9ce5b337310001996c05,7,0,2024-02-28T19:29:14.866Z,french_835.wav,0,pull,1409,36,5,5,English,M,9,0.9,-31.87646129,1.46400156
5c2b9ce5b337310001996c05,7,0,2024-02-28T19:29:14.866Z,french_835.wav,0,pull,1409,36,5,5,English,M,10,1.0,35.54298867,1.13067654
5c2b9ce5b337310001996c05,7,0,2024-02-28T19:29:14.866Z,french_835.wav,0,pull,1409,36,5,5,English,M,11,1.1,77.25630657,0.43563769
5c2b9ce5b337310001996c05,7,0,2024-02-28T19:29:14.866Z,french_835.wav,0,pull,1409,36,5,5,English,M,12,1.14141667,70.60272191,1.31798111
5c2b9ce5b337310001996c05,8,0,2024-02-28T19:29:14.866Z,french_694.wav,0,poule,579,36,5,5,English,M,0,0.0,38.99787115,0.20721435
5c2b9ce5b337310001996c05,8,0,2024-02-28T19:29:14.866Z,french_694.wav,0,poule,579,36,5,5,English,M,1,0.1,0.3424969,1.58395988
5c2b9ce5b337310001996c05,8,0,2024-02-28T19:29:14.866Z,french_694.wav,0,poule,579,36,5,5,English,M,2,0.2,91.92611382,1.87076578
5c2b9ce5b337310001996c05,8,0,2024-02-28T19:29:14.866Z,french_694.wav,0,poule,579,36,5,5,English,M,3,0.3,-46.15983558,0.36792232
5c2b9ce5b337310001996c05,8,0,2024-02-28T19:29:14.866Z,french_694.wav,0,poule,579,36,5,5,English,M,4,0.4,9.95779273,1.45579825
5c2b9ce5b337310001996c05,8,0,2024-02-28T19:29:14.866Z,french_694.wav,0,poule,579,36,5,5,English,M,5,0.5,-28.14886833,1.07541558
5c2b9ce5b337310001996c05,8,0,2024-02-28T19:29:14.866Z,french_694.wav,0,poule,579,36,5,5,English,M,6,0.6,-10.24338438,0.68903895
5c2b9ce5b337310001996c05,8,0,2024-02-28T19:29:14.866Z,french_694.wav,0,poule,579,36,5,5,English,M,7,0.7,82.44156255,1.47560962
5c2b9ce5b337310001996c05,8,0,2024-02-28T19:29:14.866Z,french_694.wav,0,poule,579,36,5,5,English,M,8,0.8,3.18416094,0.17467993
5c2b9ce5b337310001996c05,8,0,2024-02-28T19:29:14.866Z,french_694.wav,0,poule,579,36,5,5,English,M,9,0.9,-12.03680223,1.91027527
5c2b9ce5b337310001996c05,8,0,2024-02-28T19:29:14.866Z,french_694.wav,0,poule,579,36,5,5,English,M,10,1.0,-74.38114488,1.86009042
5c2b9ce5b337310001996c05,8,0,2024-02-28T19:29:14.866Z,french_694.wav,0,poule,579,36,5,5,English,M,11,1.1,28.9144884,1.13498103
5c2b9ce5b337310001996c05,8,0,2024-02-28T19:29:14.866Z,french_694.wav,0,poule,579,36,5,5,English,M,12,1.14141667,3.07264382,1.77706901
5c2b9ce5b337310001996c05,9,0,2024-02-28T19:29:14.866Z,french_212.wav,0,pull,647,36,5,5,English,M,0,0.0,90.88102294,1.19203637
5c2b9ce5b337310001996c05,9,0,2024-02-28T19:29:14.866Z,french_212.wav,0,pull,647,36,5,5,English,M,1,0.1,-35.14561703,1.89782901
5c2b9ce5b337310001996c05,9,0,2024-02-28T19:29:14.866Z,french_212.wav,0,pull,647,36,5,5,English,M,2,0.2,14.79271583,1.86865655
5c2b9ce5b337310001996c05,9,0,2024-02-28T19:29:14.866Z,french_212.wav,0,pull,647,36,5,5,English,M,3,0.3,-88.21899913,1.6473075
5c2b9ce5b337310001996c05,9,0,2024-02-28T19:29:14.866Z,french_212.wav,0,pull,647,36,5,5,English,M,4,0.4,92.67503614,1.53763625
5c2b9ce5b337310001996c05,9,0,2024-02-28T19:29:14.866Z,french_212.wav,0,pull,647,36,5,5,English,M,5,0.5,23.16298662,0.83064548
5c2b9ce5b337310001996c05,9,0,2024-02-28T19:29:14.866Z,french_212.wav,0,pull,647,36,5,5,English,M,6,0.6,48.09904427,0.60296104
5c2b9ce5b337310001996c05,9,0,2024-02-28T19:29:14.866Z,french_212.wav,0,pull,647,36,5,5,English,M,7,0.7,21.94712123,1.07417589
5c2b9ce5b337310001996c05,9,0,2024-02-28T19:29:14.866Z,french_212.wav,0,pull,647,36,5,5,English,M,8,0.8,-62.00364596,1.14958956
5c2b9ce5b337310001996c05,9,0,2024-02-28T19:29:14.866Z,french_212.wav,0,pull,647,36,5,5,English,M,9,0.9,-26.3637586,0.04243199
5c2b9ce5b337310001996c05,9,0,2024-02-28T19:29:14.866Z,french_212.wav,0,pull,647,36,5,5,English,M,10,1.0,-48.35693482,0.92355121
5c2b9ce5b337310001996c05,9,0,2024-02-28T19:29:14.866Z,french_212.wav,0,pull,647,36,5,5,English,M,11,1.1,41.70852202,0.52672923
5c2b9ce5b337310001996c05,9,0,2024-02-28T19:29:14.866Z,french_212.wav,0,pull,647,36,5,5,English,M,12,1.14141667,38.71450678,1.31846494
5c2b9ce5b337310001996c05,10,0,2024-02-28T19:29:14.866Z,french_754.wav,0,pull,1585,36,5,5,English,M,0,0.0,-84.307761,1.73493973
5c2b9ce5b337310001996c05,10,0,2024-02-28T19:29:14.866Z,french_754.wav,0,pull,1585,36,5,5,English,M,1,0.1,-47.62124767,1.3102964
5c2b9ce5b337310001996c05,10,0,2024-02-28T19:29:14.866Z,french_754.wav,0,pull,1585,36,5,5,English,M,2,0.2,-12.79145766,0.59352597
5c2b9ce5b337310001996c05,10,0,2024-02-28T19:29:14.866Z,french_754.wav,0,pull,1585,36,5,5,English,M,3,0.3,-31.8164057,1.7032681
5c2b9ce5b337310001996c05,10,0,2024-02-28T19:29:14.866Z,french_754.wav,0,pull,1585,36,5,5,English,M,4,0.4,-8.66758057,0.18685858
5c2b9ce5b337310001996c05,10,0,2024-02-28T19:29:14.866Z,french_754.wav,0,pull,1585,36,5,5,English,M,5,0.5,-39.98987583,0.87140851
5c2b9ce5b337310001996c05,10,0,2024-02-28T19:29:14.866Z,french_754.wav,0,pull,1585,36,5,5,English,M,6,0.6,85.58862918,1.09552436
5c2b9ce5b337310001996c05,10,0,2024-02-28T19:29:14.866Z,french_754.wav,0,pull,1585,36,5,5,English,M,7,0.7,28.85356743,0.38483895
5c2b9ce5b337310001996c05,10,0,2024-02-28T19:29:14.866Z,french_754.wav,0,pull,1585,36,5,5,English,M,8,0.8,8.72964996,1.64570353
5c2b9ce5b337310001996c05,10,0,2024-02-28T19:29:14.866Z,french_754.wav,0,pull,1585,36,5,5,English,M,9,0.9,-60.08793264,1.67708663
5c2b9ce5b337310001996c05,10,0,2024-02-28T19:29:14.866Z,french_754.wav,0,pull,1585,36,5,5,English,M,10,1.0,51.79044132,0.3181758
5c2b9ce5b337310001996c05,10,0,2024-02-28T19:29:14.866Z,french_754.wav,0,pull,1585,36,5,5,English,M,11,1.1,91.281273,0.66657575
5c2b9ce5b337310001996c05,10,0,2024-02-28T19:29:14.866Z,french_754.wav,0,pull,1585,36,5,5,English,M,12,1.14141667,-82.03639439,1.25795178
5c2b9ce5b337310001996c05,11,0,2024-02-28T19:29:14.866Z,french_159.wav,0,poule,514,36,5,5,English,M,0,0.0,-75.26707913,1.42182251
5c2b9ce5b337310001996c05,11,0,2024-02-28T19:29:14.866Z,french_159.wav,0,poule,514,36,5,5,English,M,1,0.1,24.36236862,1.44721174
5c2b9ce5b337310001996c05,11,0,2024-02-28T19:29:14.866Z,french_159.wav,0,poule,514,36,5,5,English,M,2,0.2,57.04083772,1.15596856
5c2b9ce5b337310001996c05,11,0,2024-02-28T19:29:14.866Z,french_159.wav,0,poule,514,36,5,5,English,M,3,0.3,86.28397832,1.33799884
5c2b9ce5b337310001996c05,11,0,2024-02-28T19:29:14.866Z,french_159.wav,0,poule,514,36,5,5,English,M,4,0.4,99.16850794,0.6870117
5c2b9ce5b337310001996c05,11,0,2024-02-28T19:29:14.866Z,french_159.wav,0,poule,514,36,5,5,English,M,5,0.5,-28.81536698,0.7829488
5c2b9ce5b337310001996c05,11,0,2024-02-28T19:29:14.866Z,french_159.wav,0,poule,514,36,5,5,English,M,6,0.6,-21.67334244,1.95382977
5c2b9ce5b337310001996c05,11,0,2024-02-28T19:29:14.866Z,french_159.wav,0,poule,514,36,5,5,English,M,7,0.7,-12.75520878,1.06661863
5c2b9ce5b337310001996c05,11,0,2024-02-28T19:29:14.866Z,french_159.wav,0,poule,514,36,5,5,English,M,8,0.8,-19.64335039,1.17304922
5c2b9ce5b337310001996c05,11,0,2024-02-28T19:29:14.866Z,french_159.wav,0,poule,514,36,5,5,English,M,9,0.9,1.35904981,1.62643454
5c2b9ce5b337310001996c05,11,0,2024-02-28T19:29:14.866Z,french_159.wav,0,poule,514,36,5,5,English,M,10,1.0,-65.86832752,0.23889029
5c2b9ce5b337310001996c05,11,0,2024-02-28T19:29:14.866Z,french_159.wav,0,poule,514,36,5,5,English,M,11,1.1,2.6789327,0.74888657
5c2b9ce5b337310001996c05,11,0,2024-02-28T19:29:14.866Z,french_159.wav,0,poule,514,36,5,5,English,M,12,1.14141667,-93.36606105,0.44007072
5c2b9ce5b337310001996c05,12,0,2024-02-28T19:29:14.866Z,french_542.wav,0,pull,686,36,5,5,English,M,0,0.0,-51.06988227,1.35657216
5c2b9ce5b337310001996c05,12,0,2024-02-28T19:29:14.866Z,french_542.wav,0,pull,686,36,5,5,English,M,1,0.1,85.49879696,1.49253391
5c2b9ce5b337310001996c05,12,0,2024-02-28T19:29:14.866Z,french_542.wav,0,pull,686,36,5,5,English,M,2,0.2,63.15700412,1.82410023
5c2b9ce5b337310001996c05,12,0,2024-02-28T19:29:14.866Z,french_542.wav,0,pull,686,36,5,5,English,M,3,0.3,-36.64736247,0.95543685
5c2b9ce5b337310001996c05,12,0,2024-02-28T19:29:14.866Z,french_542.wav,0,pull,686,36,5,5,English,M,4,0.4,75.15639634,1.06162419
5c2b9ce5b337310001996c05,12,0,2024-02-28T19:29:14.866Z,french_542.wav,0,pull,686,36,5,5,English,M,5,0.5,-9.43778213,1.1121259
5c2b9ce5b337310001996c05,12,0,2024-02-28T19:29:14.866Z,french_542.wav,0,pull,686,36,5,5,English,M,6,0.6,22.73785565,1.53646916
5c2b9ce5b337310001996c05,12,0,2024-02-28T19:29:14.866Z,french_542.wav,0,pull,686,36,5,5,English,M,7,0.7,38.92400765,1.27623094
5c2b9ce5b337310001996c05,12,0,2024-02-28T19:29:14.866Z,french_542.wav,0,pull,686,36,5,5,English,M,8,0.8,-17.14219802,0.95680642
5c2b9ce5b337310001996c05,12,0,2024-02-28T19:29:14.866Z,french_542.wav,0,pull,686,36,5,5,English,M,9,0.9,61.69992383,0.19635283
5c2b9ce5b337310001996c05,12,0,2024-02-28T19:29:14.866Z,french_542.wav,0,pull,686,36,5,5,English,M,10,1.0,-24.75082228,1.5746935
5c2b9ce5b337310001996c05,12,0,2024-02-28T19:29:14.866Z,french_542.wav,0,pull,686,36,5,5,English,M,11,1.1,5.64044157,0.60238521
5c2b9ce5b337310001996c05,12,0,2024-02-28T19:29:14.866Z,french_542.wav,0,pull,686,36,5,5,English,M,12,1.14141667,-85.77081832,0.8477855
5c2b9ce5b337310001996c05,13,0,2024-02-28T19:29:14.866Z,french_428.wav,0,pull,733,36,5,5,English,M,0,0.0,-21.91967555,1.68245119
5c2b9ce5b337310001996c05,13,0,2024-02-28T19:29:14.866Z,french_428.wav,0,pull,733,36,5,5,English,M,1,0.1,91.57394563,1.59408112
5c2b9ce5b337310001996c05,13,0,2024-02-28T19:29:14.866Z,french_428.wav,0,pull,733,36,5,5,English,M,2,0.2,36.69639527,1.87320817
5c2b9ce5b337310001996c05,13,0,2024-02-28T19:29:14.866Z,french_428.wav,0,pull,733,36,5,5,English,M,3,0.3,49.32913832,0.9971053
5c2b9ce5b337310001996c05,13,0,2024-02-28T19:29:14.866Z,french_428.wav,0,pull,733,36,5,5,English,M,4,0.4,-66.50012676,1.23937568
5c2b9ce5b337310001996c05,13,0,2024-02-28T19:29:14.866Z,french_428.wav,0,pull,733,36,5,5,English,M,5,0.5,-22.18417908,0.78790083
5c2b9ce5b337310001996c05,13,0,2024-02-28T19:29:14.866Z,french_428.wav,0,pull,733,36,5,5,English,M,6,0.6,-11.64747799,1.45514656
5c2b9ce5b337310001996c05,13,0,2024-02-28T19:29:14.866Z,french_428.wav,0,pull,733,36,5,5,English,M,7,0.7,16.78402924,1.30242105
5c2b9ce5b337310001996c05,13,0,2024-02-28T19:29:14.866Z,french_428.wav,0,pull,733,36,5,5,English,M,8,0.8,-35.07680491,0.24404159
5c2b9ce5b337310001996c05,13,0,2024-02-28T19:29:14.866Z,french_428.wav,0,pull,733,36,5,5,English,M,9,0.9,-47.13966378,1.54963109
5c2b9ce5b337310001996c05,13,0,2024-02-28T19:29:14.866Z,french_428.wav,0,pull,733,36,5,5,English,M,10,1.0,-56.86354315,0.08757984
5c2b9ce5b337310001996c05,13,0,2024-02-28T19:29:14.866Z,french_428.wav,0,pull,733,36,5,5,English,M,11,1.1,55.93889528,0.36331554
5c2b9ce5b337310001996c05,13,0,2024-02-28T19:29:14.866Z,french_428.wav,0,pull,733,36,5,5,English,M,12,1.14141667,-72.65806652,1.16103238
5c2b9ce5b337310001996c05,14,0,2024-02-28T19:29:14.866Z,french_227.wav,0,pull,1986,36,5,5,English,M,0,0.0,-63.98497533,1.5363518
5c2b9ce5b337310001996c05,14,0,2024-02-28T19:29:14.866Z,french_227.wav,0,pull,1986,36,5,5,English,M,1,0.1,7.89700286,1.08409133
5c2b9ce5b337310001996c05,14,0,2024-02-28T19:29:14.866Z,french_227.wav,0,pull,1986,36,5,5,English,M,2,0.2,-85.89039473,1.90427543
5c2b9ce5b337310001996c05,14,0,2024-02-28T19:29:14.866Z,french_227.wav,0,pull,1986,36,5,5,English,M,3,0.3,-30.72420198,0.75696463
5c2b9ce5b337310001996c05,14,0,2024-02-28T19:29:14.866Z,french_227.wav,0,pull,1986,36,5,5,English,M,4,0.4,54.13251522,1.27414783
5c2b9ce5b337310001996c05,14,0,2024-02-28T19:29:14.866Z,french_227.wav,0,pull,1986,36,5,5,English,M,5,0.5,50.29868002,0.17571721
5c2b9ce5b337310001996c05,14,0,2024-02-28T19:29:14.866Z,french_227.wav,0,pull,1986,36,5,5,English,M,6,0.6,17.89842047,0.16810735
5c2b9ce5b337310001996c05,14,0,2024-02-28T19:29:14.866Z,french_227.wav,0,pull,1986,36,5,5,English,M,7,0.7,76.60204514,0.96568279
5c2b9ce5b337310001996c05,14,0,2024-02-28T19:29:14.866Z,french_227.wav,0,pull,1986,36,5,5,English,M,8,0.8,-7.82280605,1.34957529
5c2b9ce5b337310001996c05,14,0,2024-02-28T19:29:14.866Z,french_227.wav,0,pull,1986,36,5,5,English,M,9,0.9,44.17966564,1.044977
5c2b9ce5b337310001996c05,14,0,2024-02-28T19:29:14.866Z,french_227.wav,0,pull,1986,36,5,5,English,M,10,1.0,35.62117152,1.59072319
5c2b9ce5b337310001996c05,14,0,2024-02-28T19:29:14.866Z,french_227.wav,0,pull,1986,36,5,5,English,M,11,1.1,-1.37417446,0.18742296
5c2b9ce5b337310001996c05,14,0,2024-02-28T19:29:14.866Z,french_227.wav,0,pull,1986,36,5,5,English,M,12,1.14141667,-40.20349559,1.71340792
5c2b9ce5b337310001996c05,15,0,2024-02-28T19:29:14.866Z,french_750.wav,0,poule,1354,36,5,5,English,M,0,0.0,68.384864,0.88761123
5c2b9ce5b337310001996c05,15,0,2024-02-28T19:29:14.866Z,french_750.wav,0,poule,1354,36,5,5,English,M,1,0.1,-12.54054232,0.48802278
5c2b9ce5b337310001996c05,15,0,2024-02-28T19:29:14.866Z,french_750.wav,0,poule,1354,36,5,5,English,M,2,0.2,38.20542066,1.39577597
5c2b9ce5b337310001996c05,15,0,2024-02-28T19:29:14.866Z,french_750.wav,0,poule,1354,36,5,5,English,M,3,0.3,-13.65587965,0.86182701
5c2b9ce5b337310001996c05,15,0,2024-02-28T19:29:14.866Z,french_750.wav,0,poule,1354,36,5,5,English,M,4,0.4,-87.20869433,0.59248942
5c2b9ce5b337310001996c05,15,0,2024-02-28T19:29:14.866Z,french_750.wav,0,poule,1354,36,5,5,English,M,5,0.5,-32.62716093,1.00273613
5c2b9ce5b337310001996c05,15,0,2024-02-28T19:29:14.866Z,french_750.wav,0,poule,1354,36,5,5,English,M,6,0.6,10.94806249,1.78150364
5c2b9ce5b337310001996c05,15,0,2024-02-28T19:29:14.866Z,french_750.wav,0,poule,1354,36,5,5,English,M,7,0.7,50.06911145,1.71651432
5c2b9ce5b337310001996c05,15,0,2024-02-28T19:29:14.866Z,french_750.wav,0,poule,1354,36,5,5,English,M,8,0.8,99.00831247,1.81026364
5c2b9ce5b337310001996c05,15,0,2024-02-28T19:29:14.866Z,french_750.wav,0,poule,1354,36,5,5,English,M,9,0.9,-53.01326403,1.46265358
5c2b9ce5b337310001996c05,15,0,2024-02-28T19:29:14.866Z,french_750.wav,0,poule,1354,36,5,5,English,M,10,1.0,-76.4591149,0.3188175
5c2b9ce5b337310001996c05,15,0,2024-02-28T19:29:14.866Z,french_750.wav,0,poule,1354,36,5,5,English,M,11,1.1,-55.31028242,1.15839447
5c2b9ce5b337310001996c05,15,0,2024-02-28T19:29:14.866Z,french_750.wav,0,poule,1354,36,5,5,English,M,12,1.14141667,-22.75078549,1.38940907
5c2b9ce5b337310001996c05,16,0,2024-02-28T19:29:14.866Z,french_216.wav,0,pull,820,36,5,5,English,M,0,0.0,-60.17810311,1.55322104
5c2b9ce5b337310001996c05,16,0,2024-02-28T19:29:14.866Z,french_216.wav,0,pull,820,36,5,5,English,M,1,0.1,11.42252773,1.00304409
5c2b9ce5b337310001996c05,16,0,2024-02-28T19:29:14.866Z,french_216.wav,0,pull,820,36,5,5,English,M,2,0.2,-56.55439893,0.02981525
5c2b9ce5b337310001996c05,16,0,2024-02-28T19:29:14.866Z,french_216.wav,0,pull,820,36,5,5,English,M,3,0.3,-80.03421186,1.36759869
5c2b9ce5b337310001996c05,16,0,2024-02-28T19:29:14.866Z,french_216.wav,0,pull,820,36,5,5,English,M,4,0.4,-80.18888981,0.05691451
5c2b9ce5b337310001996c05,16,0,2024-02-28T19:29:14.866Z,french_216.wav,0,pull,820,36,5,5,English,M,5,0.5,5.79858175,1.70282351
5c2b9ce5b337310001996c05,16,0,2024-02-28T19:29:14.866Z,french_216.wav,0,pull,820,36,5,5,English,M,6,0.6,13.53577994,0.34437275
5c2b9ce5b337310001996c05,16,0,2024-02-28T19:29:14.866Z,french_216.wav,0,pull,820,36,5,5,English,M,7,0.7,-40.39198044,1.08997785
5c2b9ce5b337310001996c05,16,0,2024-02-28T19:29:14.866Z,french_216.wav,0,pull,820,36,5,5,English,M,8,0.8,92.2878797,0.90763246
5c2b9ce5b337310001996c05,16,0,2024-02-28T19:29:14.866Z,french_216.wav,0,pull,820,36,5,5,English,M,9,0.9,-9.2786245,0.73661202
5c2b9ce5b337310001996c05,16,0,2024-02-28T19:29:14.866Z,french_216.wav,0,pull,820,36,5,5,English,M,10,1.0,74.67011589,0.85986577
5c2b9ce5b337310001996c05,16,0,2024-02-28T19:29:14.866Z,french_216.wav,0,pull,820,36,5,5,English,M,11,1.1,-31.97031309,1.06794363
5c2b9ce5b337310001996c05,16,0,2024-02-28T19:29:14.866Z,french_216.wav,0,pull,820,36,5,5,English,M,12,1.14141667,-30.83960704,1.05869648
5c2b9ce5b337310001996c05,17,0,2024-02-28T19:29:14.866Z,french_637.wav,0,poule,445,36,5,5,English,M,0,0.0,-31.08892402,0.60198854
5c2b9ce5b337310001996c05,17,0,2024-02-28T19:29:14.866Z,french_637.wav,0,poule,445,36,5,5,English,M,1,0.1,15.25602459,1.14825728
5c2b9ce5b337310001996c05,17,0,2024-02-28T19:29:14.866Z,french_637.wav,0,poule,445,36,5,5,English,M,2,0.2,-3.15023114,1.87909586
5c2b9ce5b337310001996c05,17,0,2024-02-28T19:29:14.866Z,french_637.wav,0,poule,445,36,5,5,English,M,3,0.3,40.81887351,0.13625986
5c2b9ce5b337310001996c05,17,0,2024-02-28T19:29:14.866Z,french_637.wav,0,poule,445,36,5,5,English,M,4,0.4,32.81586387,1.66395473
5c2b9ce5b337310001996c05,17,0,2024-02-28T19:29:14.866Z,french_637.wav,0,poule,445,36,5,5,English,M,5,0.5,21.08421584,0.72202939
5c2b9ce5b337310001996c05,17,0,2024-02-28T19:29:14.866Z,french_637.wav,0,poule,445,36,5,5,English,M,6,0.6,93.16874519,1.63866702
5c2b9ce5b337310001996c05,17,0,2024-02-28T19:29:14.866Z,french_637.wav,0,poule,445,36,5,5,English,M,7,0.7,-69.92672839,1.06181355
5c2b9ce5b337310001996c05,17,0,2024-02-28T19:29:14.866Z,french_637.wav,0,poule,445,36,5,5,English,M,8,0.8,-46.04583787,1.62661878
5c2b9ce5b337310001996c05,17,0,2024-02-28T19:29:14.866Z,french_637.wav,0,poule,445,36,5,5,English,M,9,0.9,22.60400214,1.30866952
5c2b9ce5b337310001996c05,17,0,2024-02-28T19:29:14.866Z,french_637.wav,0,poule,445,36,5,5,English,M,10,1.0,2.02681017,1.56125129
5c2b9ce5b337310001996c05,17,0,2024-02-28T19:29:14.866Z,french_637.wav,0,poule,445,36,5,5,English,M,11,1.1,5.86348535,1.66673134
5c2b9ce5b337310001996c05,17,0,2024-02-28T19:29:14.866Z,french_637.wav,0,poule,445,36,5,5,English,M,12,1.14141667,81.93949942,1.21110633
5c2b9ce5b337310001996c05,18,0,2024-02-28T19:29:14.866Z,french_374.wav,0,pull,1131,36,5,5,English,M,0,0.0,-73.36770619,1.8243985
5c2b9ce5b337310001996c05,18,0,2024-02-28T19:29:14.866Z,french_374.wav,0,pull,1131,36,5,5,English,M,1,0.1,36.09124315,0.19967439
5c2b9ce5b337310001996c05,18,0,2024-02-28T19:29:14.866Z,french_374.wav,0,pull,1131,36,5,5,English,M,2,0.2,30.41930424,0.45303578
5c2b9ce5b337310001996c05,18,0,2024-02-28T19:29:14.866Z,french_374.wav,0,pull,1131,36,5,5,English,M,3,0.3,3.27623503,0.80405214
5c2b9ce5b337310001996c05,18,0,2024-02-28T19:29:14.866Z,french_374.wav,0,pull,1131,36,5,5,English,M,4,0.4,-73.34149579,1.42028051
5c2b9ce5b337310001996c05,18,0,2024-02-28T19:29:14.866Z,french_374.wav,0,pull,1131,36,5,5,English,M,5,0.5,86.86435605,1.98711767
5c2b9ce5b337310001996c05,18,0,2024-02-28T19:29:14.866Z,french_374.wav,0,pull,1131,36,5,5,English,M,6,0.6,24.4857118,1.99384715
5c2b9ce5b337310001996c05,18,0,2024-02-28T19:29:14.866Z,french_374.wav,0,pull,1131,36,5,5,English,M,7,0.7,-69.31227427,1.54038495
5c2b9ce5b337310001996c05,18,0,2024-02-28T19:29:14.866Z,french_374.wav,0,pull,1131,36,5,5,English,M,8,0.8,-24.89700854,1.02830185
5c2b9ce5b337310001996c05,18,0,2024-02-28T19:29:14.866Z,french_374.wav,0,pull,1131,36,5,5,English,M,9,0.9,-28.99159538,1.86032293
5c2b9ce5b337310001996c05,18,0,2024-02-28T19:29:14.866Z,french_374.wav,0,pull,1131,36,5,5,English,M,10,1.0,90.51139416,0.94233535
5c2b9ce5b337310001996c05,18,0,2024-02-28T19:29:14.866Z,french_374.wav,0,pull,1131,36,5,5,English,M,11,1.1,-31.91151107,1.17580502
5c2b9ce5b337310001996c05,18,0,2024-02-28T19:29:14.866Z,french_374.wav,0,pull,1131,36,5,5,English,M,12,1.14141667,-3.72146175,0.33217699
5c2b9ce5b337310001996c05,19,0,2024-02-28T19:29:14.866Z,french_266.wav,0,pull,365,36,5,5,English,M,0,0.0,62.50241255,0.93840708
5c2b9ce5b337310001996c05,19,0,2024-02-28T19:29:14.866Z,french_266.wav,0,pull,365,36,5,5,English,M,1,0.1,-80.45225804,1.11812108
5c2b9ce5b337310001996c05,19,0,2024-02-28T19:29:14.866Z,french_266.wav,0,pull,365,36,5,5,English,M,2,0.2,99.9367927,0.26660891
5c2b9ce5b337310001996c05,19,0,2024-02-28T19:29:14.866Z,french_266.wav,0,pull,365,36,5,5,English,M,3,0.3,25.84200308,0.17403162
5c2b9ce5b337310001996c05,19,0,2024-02-28T19:29:14.866Z,french_266.wav,0,pull,365,36,5,5,English,M,4,0.4,3.00063379,0.79325238
5c2b9ce5b337310001996c05,19,0,2024-02-28T19:29:14.866Z,french_266.wav,0,pull,365,36,5,5,English,M,5,0.5,81.08001176,0.88590027
5c2b9ce5b337310001996c05,19,0,2024-02-28T19:29:14.866Z,french_266.wav,0,pull,365,36,5,5,English,M,6,0.6,-95.83385783,1.71394363
5c2b9ce5b337310001996c05,19,0,2024-02-28T19:29:14.866Z,french_266.wav,0,pull,365,36,5,5,English,M,7,0.7,-79.07600331,0.61606385
5c2b9ce5b337310001996c05,19,0,2024-02-28T19:29:14.866Z,french_266.wav,0,pull,365,36,5,5,English,M,8,0.8,-11.28199515,1.85993339
5c2b9ce5b337310001996c05,19,0,2024-02-28T19:29:14.866Z,french_266.wav,0,pull,365,36,5,5,English,M,9,0.9,57.49444579,1.14234551
5c2b9ce5b337310001996c05,19,0,2024-02-28T19:29:14.866Z,french_266.wav,0,pull,365,36,5,5,English,M,10,1.0,99.18608096,1.34332999
5c2b9ce5b337310001996c05,19,0,2024-02-28T19:29:14.866Z,french_266.wav,0,pull,365,36,5,5,English,M,11,1.1,-92.12178731,1.65260759
5c2b9ce5b337310001996c05,19,0,2024-02-28T19:29:14.866Z,french_266.wav,0,pull,365,36,5,5,English,M,12,1.14141667,-44.20618078,0.36778532
5c2b9ce5b337310001996c05,20,0,2024-02-28T19:29:14.866Z,french_357.wav,0,pull,703,36,5,5,English,M,0,0.0,86.82276174,1.92268893
5c2b9ce5b337310001996c05,20,0,2024-02-28T19:29:14.866Z,french_357.wav,0,pull,703,36,5,5,English,M,1,0.1,61.01952575,0.3802524
5c2b9ce5b337310001996c05,20,0,2024-02-28T19:29:14.866Z,french_357.wav,0,pull,703,36,5,5,English,M,2,0.2,-60.75226359,0.64366911
5c2b9ce5b337310001996c05,20,0,2024-02-28T19:29:14.866Z,french_357.wav,0,pull,703,36,5,5,English,M,3,0.3,85.98471719,0.42839795
5c2b9ce5b337310001996c05,20,0,2024-02-28T19:29:14.866Z,french_357.wav,0,pull,703,36,5,5,English,M,4,0.4,-69.86147068,0.00748054
5c2b9ce5b337310001996c05,20,0,2024-02-28T19:29:14.866Z,french_357.wav,0,pull,703,36,5,5,English,M,5,0.5,9.94695166,1.08678504
5c2b9ce5b337310001996c05,20,0,2024-02-28T19:29:14.866Z,french_357.wav,0,pull,703,36,5,5,English,M,6,0.6,18.79769535,1.81857945
5c2b9ce5b337310001996c05,20,0,2024-02-28T19:29:14.866Z,french_357.wav,0,pull,703,36,5,5,English,M,7,0.7,32.56379866,0.88876944
5c2b9ce5b337310001996c05,20,0,2024-02-28T19:29:14.866Z,french_357.wav,0,pull,703,36,5,5,English,M,8,0.8,-63.36176939,0.00755284
5c2b9ce5b337310001996c05,20,0,2024-02-28T19:29:14.866Z,french_357.wav,0,pull,703,36,5,5,English,M,9,0.9,-52.11840686,1.32717317
5c2b9ce5b337310001996c05,20,0,2024-02-28T19:29:14.866Z,french_357.wav,0,pull,703,36,5,5,English,M,10,1.0,-62.81838888,1.11144187
5c2b9ce5b337310001996c05,20,0,2024-02-28T19:29:14.866Z,french_357.wav,0,pull,703,36,5,5,English,M,11,1.1,-46.10611579,1.48923739
5c2b9ce5b337310001996c05,20,0,2024-02-28T19:29:14.866Z,french_357.wav,0,pull,703,36,5,5,English,M,12,1.14141667,30.76289331,0.80153076
5c2b9ce5b337310001996c05,21,0,2024-02-28T19:29:14.866Z,french_780.wav,0,pull,460,36,5,5,English,M,0,0.0,1.6361827,0.91275893
5c2b9ce5b337310001996c05,21,0,2024-02-28T19:29:14.866Z,french_780.wav,0,pull,460,36,5,5,English,M,1,0.1,65.3259988,0.6923682
5c2b9ce5b337310001996c05,21,0,2024-02-28T19:29:14.866Z,french_780.wav,0,pull,460,36,5,5,English,M,2,0.2,-9.10284964,0.91492024
5c2b9ce5b337310001996c05,21,0,2024-02-28T19:29:14.866Z,french_780.wav,0,pull,460,36,5,5,English,M,3,0.3,71.37936618,0.74961563
5c2b9ce5b337310001996c05,21,0,2024-02-28T19:29:14.866Z,french_780.wav,0,pull,460,36,5,5,English,M,4,0.4,-61.83005099,1.83666104
5c2b9ce5b337310001996c05,21,0,2024-02-28T19:29:14.866Z,french_780.wav,0,pull,460,36,5,5,English,M,5,0.5,64.1925332,1.59808961
5c2b9ce5b337310001996c05,21,0,2024-02-28T19:29:14.866Z,french_780.wav,0,pull,460,36,5,5,English,M,6,0.6,-73.78104882,0.06025733
5c2b9ce5b337310001996c05,21,0,2024-02-28T19:29:14.866Z,french_780.wav,0,pull,460,36,5,5,English,M,7,0.7,-75.04579524,0.97352889
5c2b9ce5b337310001996c05,21,0,2024-02-28T19:29:14.866Z,french_780.wav,0,pull,460,36,5,5,English,M,8,0.8,94.52941368,0.3343283
5c2b9ce5b337310001996c05,21,0,2024-02-28T19:29:14.866Z,french_780.wav,0,pull,460,36,5,5,English,M,9,0.9,-40.24958263,1.19408747
5c2b9ce5b337310001996c05,21,0,2024-02-28T19:29:14.866Z,french_780.wav,0,pull,460,36,5,5,English,M,10,1.0,70.56248905,1.41158065
5c2b9ce5b337310001996c05,21,0,2024-02-28T19:29:14.866Z,french_780.wav,0,pull,460,36,5,5,English,M,11,1.1,-94.2422388,0.89941942
5c2b9ce5b337310001996c05,21,0,2024-02-28T19:29:14.866Z,french_780.wav,0,pull,460,36,5,5,English,M,12,1.14141667,38.81083767,0.47183897
5c2b9ce5b337310001996c05,22,0,2024-02-28T19:29:14.866Z,french_966.wav,0,pull,794,36,5,5,English,M,0,0.0,-10.57377166,1.56095525
5c2b9ce5b337310001996c05,22,0,2024-02-28T19:29:14.866Z,french_966.wav,0,pull,794,36,5,5,English,M,1,0.1,16.31629355,1.09354941
5c2b9ce5b337310001996c05,22,0,2024-02-28T19:29:14.866Z,french_966.wav,0,pull,794,36,5,5,English,M,2,0.2,66.58695559,1.38098283
5c2b9ce5b337310001996c05,22,0,2024-02-28T19:29:14.866Z,french_966.wav,0,pull,794,36,5,5,English,M,3,0.3,-61.61739079,0.55606853
5c2b9ce5b337310001996c05,22,0,2024-02-28T19:29:14.866Z,french_966.wav,0,pull,794,36,5,5,English,M,4,0.4,-41.37821766,1.34826297
5c2b9ce5b337310001996c05,22,0,2024-02-28T19:29:14.866Z,french_966.wav,0,pull,794,36,5,5,English,M,5,0.5,88.06115482,0.44785703
5c2b9ce5b337310001996c05,22,0,2024-02-28T19:29:14.866Z,french_966.wav,0,pull,794,36,5,5,English,M,6,0.6,-4.87023383,0.15735512
5c2b9ce5b337310001996c05,22,0,2024-02-28T19:29:14.866Z,french_966.wav,0,pull,794,36,5,5,English,M,7,0.7,31.63809868,1.16220619
5c2b9ce5b337310001996c05,22,0,2024-02-28T19:29:14.866Z,french_966.wav,0,pull,794,36,5,5,English,M,8,0.8,-38.6673981,1.58182779
5c2b9ce5b337310001996c05,22,0,2024-02-28T19:29:14.866Z,french_966.wav,0,pull,794,36,5,5,English,M,9,0.9,-66.27416683,1.19689558
5c2b9ce5b337310001996c05,22,0,2024-02-28T19:29:14.866Z,french_966.wav,0,pull,794,36,5,5,English,M,10,1.0,41.48122115,1.36559002
5c2b9ce5b337310001996c05,22,0,2024-02-28T19:29:14.866Z,french_966.wav,0,pull,794,36,5,5,English,M,11,1.1,80.76921646,0.9687158
5c2b9ce5b337310001996c05,22,0,2024-02-28T19:29:14.866Z,french_966.wav,0,pull,794,36,5,5,English,M,12,1.14141667,52.47266676,0.80624273
5c2b9ce5b337310001996c05,23,0,2024-02-28T19:29:14.866Z,french_270.wav,0,poule,392,36,5,5,English,M,0,0.0,-97.04983101,1.00266553
5c2b9ce5b337310001996c05,23,0,2024-02-28T19:29:14.866Z,french_270.wav,0,poule,392,36,5,5,English,M,1,0.1,60.00565708,1.57824115
5c2b9ce5b337310001996c05,23,0,2024-02-28T19:29:14.866Z,french_270.wav,0,poule,392,36,5,5,English,M,2,0.2,76.40876054,0.26882086
5c2b9ce5b337310001996c05,23,0,2024-02-28T19:29:14.866Z,french_270.wav,0,poule,392,36,5,5,English,M,3,0.3,-1.09114821,1.94280474
5c2b9ce5b337310001996c05,23,0,2024-02-28T19:29:14.866Z,french_270.wav,0,poule,392,36,5,5,English,M,4,0.4,-55.42967624,0.12401985
5c2b9ce5b337310001996c05,23,0,2024-02-28T19:29:14.866Z,french_270.wav,0,poule,392,36,5,5,English,M,5,0.5,76.10190696,0.90937014
5c2b9ce5b337310001996c05,23,0,2024-02-28T19:29:14.866Z,french_270.wav,0,poule,392,36,5,5,English,M,6,0.6,-14.49000559,1.06197606
5c2b9ce5b337310001996c05,23,0,2024-02-28T19:29:14.866Z,french_270.wav,0,poule,392,36,5,5,English,M,7,0.7,-18.39436764,0.84568666
5c2b9ce5b337310001996c05,23,0,2024-02-28T19:29:14.866Z,french_270.wav,0,poule,392,36,5,5,English,M,8,0.8,6.68432626,1.76648668
5c2b9ce5b337310001996c05,23,0,2024-02-28T19:29:14.866Z,french_270.wav,0,poule,392,36,5,5,English,M,9,0.9,44.25222183,1.73433415
5c2b9ce5b337310001996c05,23,0,2024-02-28T19:29:14.866Z,french_270.wav,0,poule,392,36,5,5,English,M,10,1.0,-22.5745957,1.92314935
5c2b9ce5b337310001996c05,23,0,2024-02-28T19:29:14.866Z,french_270.wav,0,poule,392,36,5,5,English,M,11,1.1,89.38743266,1.47806691
5c2b9ce5b337310001996c05,23,0,2024-02-28T19:29:14.866Z,french_270.wav,0,poule,392,36,5,5,English,M,12,1.14141667,34.53807187,0.01067189
5c2b9ce5b337310001996c05,24,0,2024-02-28T19:29:14.866Z,french_280.wav,0,poule,957,36,5,5,English,M,0,0.0,63.30706177,0.51067849
5c2b9ce5b337310001996c05,24,0,2024-02-28T19:29:14.866Z,french_280.wav,0,poule,957,36,5,5,English,M,1,0.1,92.39258817,0.94358364
5c2b9ce5b337310001996c05,24,0,2024-02-28T19:29:14.866Z,french_280.wav,0,poule,957,36,5,5,English,M,2,0.2,-13.48987657,0.25640873
5c2b9ce5b337310001996c05,24,0,2024-02-28T19:29:14.866Z,french_280.wav,0,poule,957,36,5,5,English,M,3,0.3,-67.72828589,0.58771016
5c2b9ce5b337310001996c05,24,0,2024-02-28T19:29:14.866Z,french_280.wav,0,poule,957,36,5,5,English,M,4,0.4,-32.88602624,1.52289813
5c2b9ce5b337310001996c05,24,0,2024-02-28T19:29:14.866Z,french_280.wav,0,poule,957,36,5,5,English,M,5,0.5,-21.74757727,1.41394509
5c2b9ce5b337310001996c05,24,0,2024-02-28T19:29:14.866Z,french_280.wav,0,poule,957,36,5,5,English,M,6,0.6,-67.91477632,1.11303104
5c2b9ce5b337310001996c05,24,0,2024-02-28T19:29:14.866Z,french_280.wav,0,poule,957,36,5,5,English,M,7,0.7,-71.89099465,1.98467364
5c2b9ce5b337310001996c05,24,0,2024-02-28T19:29:14.866Z,french_280.wav,0,poule,957,36,5,5,English,M,8,0.8,-96.77863544,0.54349304
5c2b9ce5b337310001996c05,24,0,2024-02-28T19:29:14.866Z,french_280.wav,0,poule,957,36,5,5,English,M,9,0.9,-70.31079297,0.98875815
5c2b9ce5b337310001996c05,24,0,2024-02-28T19:29:14.866Z,french_280.wav,0,poule,957,36,5,5,English,M,10,1.0,-73.46248332,1.32929539
5c2b9ce5b337310001996c05,24,0,2024-02-28T19:29:14.866Z,french_280.wav,0,poule,957,36,5,5,English,M,11,1.1,-28.24261777,0.86616119
5c2b9ce5b337310001996c05,24,0,2024-02-28T19:29:14.866Z,french_280.wav,0,poule,957,36,5,5,English,M,12,1.14141667,19.33217049,0.54483998
5c2b9ce5b337310001996c05,25,0,2024-02-28T19:29:14.866Z,french_701.wav,0,poule,621,36,5,5,English,M,0,0.0,13.86918761,0.63182109
5c2b9ce5b337310001996c05,25,0,2024-02-28T19:29:14.866Z,french_701.wav,0,poule,621,36,5,5,English,M,1,0.1,25.98390225,1.85758869
5c2b9ce5b337310001996c05,25,0,2024-02-28T19:29:14.866Z,french_701.wav,0,poule,621,36,5,5,English,M,2,0.2,62.79635394,1.68485958
5c2b9ce5b337310001996c05,25,0,2024-02-28T19:29:14.866Z,french_701.wav,0,poule,621,36,5,5,English,M,3,0.3,67.80376008,0.50866318
5c2b9ce5b337310001996c05,25,0,2024-02-28T19:29:14.866Z,french_701.wav,0,poule,621,36,5,5,English,M,4,0.4,-54.23175366,1.37500116
5c2b9ce5b337310001996c05,25,0,2024-02-28T19:29:14.866Z,french_701.wav,0,poule,621,36,5,5,English,M,5,0.5,-42.04160911,0.8503416
5c2b9ce5b337310001996c05,25,0,2024-02-28T19:29:14.866Z,french_701.wav,0,poule,621,36,5,5,English,M,6,0.6,-58.41766146,0.53241727
5c2b9ce5b337310001996c05,25,0,2024-02-28T19:29:14.866Z,french_701.wav,0,poule,621,36,5,5,English,M,7,0.7,90.23612499,1.86464457
5c2b9ce5b337310001996c05,25,0,2024-02-28T19:29:14.866Z,french_701.wav,0,poule,621,36,5,5,English,M,8,0.8,80.19297104,1.8007814
5c2b9ce5b337310001996c05,25,0,2024-02-28T19:29:14.866Z,french_701.wav,0,poule,621,36,5,5,English,M,9,0.9,-45.72951024,1.24365205
5c2b9ce5b337310001996c05,25,0,2024-02-28T19:29:14.866Z,french_701.wav,0,poule,621,36,5,5,English,M,10,1.0,35.47554357,1.16086821
5c2b9ce5b337310001996c05,25,0,2024-02-28T19:29:14.866Z,french_701.wav,0,poule,621,36,5,5,English,M,11,1.1,25.09086311,0.27592984
5c2b9ce5b337310001996c05,25,0,2024-02-28T19:29:14.866Z,french_701.wav,0,poule,621,36,5,5,English,M,12,1.14141667,-71.61211297,0.34423902
5c2b9ce5b337310001996c05,26,0,2024-02-28T19:29:14.866Z,french_861.wav,0,poule,879,36,5,5,English,M,0,0.0,-29.59207834,1.26213784
5c2b9ce5b337310001996c05,26,0,2024-02-28T19:29:14.866Z,french_861.wav,0,poule,879,36,5,5,English,M,1,0.1,-3.20070046,1.09688129
5c2b9ce5b337310001996c05,26,0,2024-02-28T19:29:14.866Z,french_861.wav,0,poule,879,36,5,5,English,M,2,0.2,-58.32537362,1.67288948
5c2b9ce5b337310001996c05,26,0,2024-02-28T19:29:14.866Z,french_861.wav,0,poule,879,36,5,5,English,M,3,0.3,-24.52531727,1.55651392
5c2b9ce5b337310001996c05,26,0,2024-02-28T19:29:14.866Z,french_861.wav,0,poule,879,36,5,5,English,M,4,0.4,4.47991904,0.60089382
5c2b9ce5b337310001996c05,26,0,2024-02-28T19:29:14.866Z,french_861.wav,0,poule,879,36,5,5,English,M,5,0.5,77.73095921,1.00142535
5c2b9ce5b337310001996c05,26,0,2024-02-28T19:29:14.866Z,french_861.wav,0,poule,879,36,5,5,English,M,6,0.6,-9.72754814,1.64754174
5c2b9ce5b337310001996c05,26,0,2024-02-28T19:29:14.866Z,french_861.wav,0,poule,879,36,5,5,English,M,7,0.7,78.69297703,1.0190621
5c2b9ce5b337310001996c05,26,0,2024-02-28T19:29:14.866Z,french_861.wav,0,poule,879,36,5,5,English,M,8,0.8,89.59895789,1.92978713
5c2b9ce5b337310001996c05,26,0,2024-02-28T19:29:14.866Z,french_861.wav,0,poule,879,36,5,5,English,M,9,0.9,-74.88966418,1.64032652
5c2b9ce5b337310001996c05,26,0,2024-02-28T19:29:14.866Z,french_861.wav,0,poule,879,36,5,5,English,M,10,1.0,-8.41302054,1.1947634
5c2b9ce5b337310001996c05,26,0,2024-02-28T19:29:14.866Z,french_861.wav,0,poule,879,36,5,5,English,M,11,1.1,-83.1329049,1.60781283
5c2b9ce5b337310001996c05,26,0,2024-02-28T19:29:14.866Z,french_861.wav,0,poule,879,36,5,5,English,M,12,1.14141667,45.5691638,0.53617129
5c2b9ce5b337310001996c05,27,0,2024-02-28T19:29:14.866Z,french_309.wav,0,pull,348,36,5,5,English,M,0,0.0,88.86072846,0.49259138
5c2b9ce5b337310001996c05,27,0,2024-02-28T19:29:14.866Z,french_309.wav,0,pull,348,36,5,5,English,M,1,0.1,-92.30784176,1.03565122
5c2b9ce5b337310001996c05,27,0,2024-02-28T19:29:14.866Z,french_309.wav,0,pull,348,36,5,5,English,M,2,0.2,82.47612196,1.68879094
5c2b9ce5b337310001996c05,27,0,2024-02-28T19:29:14.866Z,french_309.wav,0,pull,348,36,5,5,English,M,3,0.3,57.0914166,0.15996054
5c2b9ce5b337310001996c05,27,0,2024-02-28T19:29:14.866Z,french_309.wav,0,pull,348,36,5,5,English,M,4,0.4,66.45676368,0.58460838
5c2b9ce5b337310001996c05,27,0,2024-02-28T19:29:14.866Z,french_309.wav,0,pull,348,36,5,5,English,M,5,0.5,72.19100472,1.83489212
5c2b9ce5b337310001996c05,27,0,2024-02-28T19:29:14.866Z,french_309.wav,0,pull,348,36,5,5,English,M,6,0.6,35.35255388,0.91773079
5c2b9ce5b337310001996c05,27,0,2024-02-28T19:29:14.866Z,french_309.wav,0,pull,348,36,5,5,English,M,7,0.7,-77.76741336,1.18228681
5c2b9ce5b337310001996c05,27,0,2024-02-28T19:29:14.866Z,french_309.wav,0,pull,348,36,5,5,English,M,8,0.8,54.34179283,1.82634316
5c2b9ce5b337310001996c05,27,0,2024-02-28T19:29:14.866Z,french_309.wav,0,pull,348,36,5,5,English,M,9,0.9,-68.94607686,1.45479271
5c2b9ce5b337310001996c05,27,0,2024-02-28T19:29:14.866Z,french_309.wav,0,pull,348,36,5,5,English,M,10,1.0,31.97810202,1.70391198
5c2b9ce5b337310001996c05,27,0,2024-02-28T19:29:14.866Z,french_309.wav,0,pull,348,36,5,5,English,M,11,1.1,-11.94966658,1.08327525
5c2b9ce5b337310001996c05,27,0,2024-02-28T19:29:14.866Z,french_309.wav,0,pull,348,36,5,5,English,M,12,1.14141667,53.65953482,1.25779548
5c2b9ce5b337310001996c05,28,0,2024-02-28T19:29:14.866Z,french_200.wav,0,poule,1226,36,5,5,English,M,0,0.0,10.66473812,1.15832736
5c2b9ce5b337310001996c05,28,0,2024-02-28T19:29:14.866Z,french_200.wav,0,poule,1226,36,5,5,English,M,1,0.1,-23.10865754,0.48233726
5c2b9ce5b337310001996c05,28,0,2024-02-28T19:29:14.866Z,french_200.wav,0,poule,1226,36,5,5,English,M,2,0.2,-26.94851482,0.16521916
5c2b9ce5b337310001996c05,28,0,2024-02-28T19:29:14.866Z,french_200.wav,0,poule,1226,36,5,5,English,M,3,0.3,-33.10340519,0.50966441
5c2b9ce5b337310001996c05,28,0,2024-02-28T19:29:14.866Z,french_200.wav,0,poule,1226,36,5,5,English,M,4,0.4,49.54751917,0.60857897
5c2b9ce5b337310001996c05,28,0,2024-02-28T19:29:14.866Z,french_200.wav,0,poule,1226,36,5,5,English,M,5,0.5,-36.16101415,0.8415653
5c2b9ce5b337310001996c05,28,0,2024-02-28T19:29:14.866Z,french_200.wav,0,poule,1226,36,5,5,English,M,6,0.6,69.93456636,1.89309681
5c2b9ce5b337310001996c05,28,0,2024-02-28T19:29:14.866Z,french_200.wav,0,poule,1226,36,5,5,English,M,7,0.7,-11.46588409,1.76792236
5c2b9ce5b337310001996c05,28,0,2024-02-28T19:29:14.866Z,french_200.wav,0,poule,1226,36,5,5,English,M,8,0.8,-34.69840246,0.32179511
5c2b9ce5b337310001996c05,28,0,2024-02-28T19:29:14.866Z,french_200.wav,0,poule,1226,36,5,5,English,M,9,0.9,30.23959847,1.57618572
5c2b9ce5b337310001996c05,28,0,2024-02-28T19:29:14.866Z,french_200.wav,0,poule,1226,36,5,5,English,M,10,1.0,-25.32995204,1.69305609
5c2b9ce5b337310001996c05,28,0,2024-02-28T19:29:14.866Z,french_200.wav,0,poule,1226,36,5,5,English,M,11,1.1,23.48875346,0.93398883
5c2b9ce5b337310001996c05,28,0,2024-02-28T19:29:14.866Z,french_200.wav,0,poule,1226,36,5,5,English,M,12,1.14141667,-45.42969725,0.80903223
5c2b9ce5b337310001996c05,29,0,2024-02-28T19:29:14.866Z,french_635.wav,0,pull,630,36,5,5,English,M,0,0.0,-32.006425,0.3460517
5c2b9ce5b337310001996c05,29,0,2024-02-28T19:29:14.866Z,french_635.wav,0,pull,630,36,5,5,English,M,1,0.1,98.74707192,1.36854871
5c2b9ce5b337310001996c05,29,0,2024-02-28T19:29:14.866Z,french_635.wav,0,pull,630,36,5,5,English,M,2,0.2,19.43104605,0.57268428
5c2b9ce5b337310001996c05,29,0,2024-02-28T19:29:14.866Z,french_635.wav,0,pull,630,36,5,5,English,M,3,0.3,-83.9130263,1.65457572
5c2b9ce5b337310001996c05,29,0,2024-02-28T19:29:14.866Z,french_635.wav,0,pull,630,36,5,5,English,M,4,0.4,-14.55275882,1.20009912
5c2b9ce5b337310001996c05,29,0,2024-02-28T19:29:14.866Z,french_635.wav,0,pull,630,36,5,5,English,M,5,0.5,-34.15529229,0.09946247
5c2b9ce5b337310001996c05,29,0,2024-02-28T19:29:14.866Z,french_635.wav,0,pull,630,36,5,5,English,M,6,0.6,22.38890545,0.27678562
5c2b9ce5b337310001996c05,29,0,2024-02-28T19:29:14.866Z,french_635.wav,0,pull,630,36,5,5,English,M,7,0.7,-11.42027576,0.68226029
5c2b9ce5b337310001996c05,29,0,2024-02-28T19:29:14.866Z,french_635.wav,0,pull,630,36,5,5,English,M,8,0.8,88.98766127,0.27295014
5c2b9ce5b337310001996c05,29,0,2024-02-28T19:29:14.866Z,french_635.wav,0,pull,630,36,5,5,English,M,9,0.9,-94.51548481,1.75198478
5c2b9ce5b337310001996c05,29,0,2024-02-28T19:29:14.866Z,french_635.wav,0,pull,630,36,5,5,English,M,10,1.0,-45.63563989,0.9844266
5c2b9ce5b337310001996c05,29,0,2024-02-28T19:29:14.866Z,french_635.wav,0,pull,630,36,5,5,English,M,11,1.1,27.73920543,0.17766763
5c2b9ce5b337310001996c05,29,0,2024-02-28T19:29:14.866Z,french_635.wav,0,pull,630,36,5,5,English,M,12,1.14141667,-59.05501484,0.29826397
5c2b9ce5b337310001996c05,30,0,2024-02-28T19:29:14.866Z,french_282.wav,0,pull,725,36,5,5,English,M,0,0.0,28.02282509,1.0912119
5c2b9ce5b337310001996c05,30,0,2024-02-28T19:29:14.866Z,french_282.wav,0,pull,725,36,5,5,English,M,1,0.1,67.2501468,0.20405477
5c2b9ce5b337310001996c05,30,0,2024-02-28T19:29:14.866Z,french_282.wav,0,pull,725,36,5,5,English,M,2,0.2,93.9816164,1.91146091
5c2b9ce5b337310001996c05,30,0,2024-02-28T19:29:14.866Z,french_282.wav,0,pull,725,36,5,5,English,M,3,0.3,-97.54085303,1.80081272
5c2b9ce5b337310001996c05,30,0,2024-02-28T19:29:14.866Z,french_282.wav,0,pull,725,36,5,5,English,M,4,0.4,33.49018191,1.44786669
5c2b9ce5b337310001996c05,30,0,2024-02-28T19:29:14.866Z,french_282.wav,0,pull,725,36,5,5,English,M,5,0.5,17.0509321,1.13344756
5c2b9ce5b337310001996c05,30,0,2024-02-28T19:29:14.866Z,french_282.wav,0,pull,725,36,5,5,English,M,6,0.6,26.45613826,0.31385296
5c2b9ce5b337310001996c05,30,0,2024-02-28T19:29:14.866Z,french_282.wav,0,pull,725,36,5,5,English,M,7,0.7,51.40945909,1.39043822
5c2b9ce5b337310001996c05,30,0,2024-02-28T19:29:14.866Z,french_282.wav,0,pull,725,36,5,5,English,M,8,0.8,17.98116381,0.22424719
5c2b9ce5b337310001996c05,30,0,2024-02-28T19:29:14.866Z,french_282.wav,0,pull,725,36,5,5,English,M,9,0.9,51.09259465,0.50632788
5c2b9ce5b337310001996c05,30,0,2024-02-28T19:29:14.866Z,french_282.wav,0,pull,725,36,5,5,English,M,10,1.0,64.32650722,0.63678076
5c2b9ce5b337310001996c05,30,0,2024-02-28T19:29:14.866Z,french_282.wav,0,pull,725,36,5,5,English,M,11,1.1,85.88377636,1.37629793
5c2b9ce5b337310001996c05,30,0,2024-02-28T19:29:14.866Z,french_282.wav,0,pull,725,36,5,5,English,M,12,1.14141667,-27.47476,1.78255014
5c2b9ce5b337310001996c05,31,0,2024-02-28T19:29:14.866Z,french_136.wav,0,pull,611,36,5,5,English,M,0,0.0,-0.93982829,1.18112725
5c2b9ce5b337310001996c05,31,0,2024-02-28T19:29:14.866Z,french_136.wav,0,pull,611,36,5,5,English,M,1,0.1,-11.50989173,1.4876912
5c2b9ce5b337310001996c05,31,0,2024-02-28T19:29:14.866Z,french_136.wav,0,pull,611,36,5,5,English,M,2,0.2,-44.36955216,1.55378385
5c2b9ce5b337310001996c05,31,0,2024-02-28T19:29:14.866Z,french_136.wav,0,pull,611,36,5,5,English,M,3,0.3,66.25490653,0.32679305
5c2b9ce5b337310001996c05,31,0,2024-02-28T19:29:14.866Z,french_136.wav,0,pull,611,36,5,5,English,M,4,0.4,76.3056731,0.30628123
5c2b9ce5b337310001996c05,31,0,2024-02-28T19:29:14.866Z,french_136.wav,0,pull,611,36,5,5,English,M,5,0.5,-53.64019494,1.28210854
5c2b9ce5b337310001996c05,31,0,2024-02-28T19:29:14.866Z,french_136.wav,0,pull,611,36,5,5,English,M,6,0.6,72.7758556,0.14420429
5c2b9ce5b337310001996c05,31,0,2024-02-28T19:29:14.866Z,french_136.wav,0,pull,611,36,5,5,English,M,7,0.7,-38.40056364,0.03042669
5c2b9ce5b337310001996c05,31,0,2024-02-28T19:29:14.866Z,french_136.wav,0,pull,611,36,5,5,English,M,8,0.8,-83.94600904,1.12471325
5c2b9ce5b337310001996c05,31,0,2024-02-28T19:29:14.866Z,french_136.wav,0,pull,611,36,5,5,English,M,9,0.9,60.40561717,1.12043075
5c2b9ce5b337310001996c05,31,0,2024-02-28T19:29:14.866Z,french_136.wav,0,pull,611,36,5,5,English,M,10,1.0,72.86364806,0.82934503
5c2b9ce5b337310001996c05,31,0,2024-02-28T19:29:14.866Z,french_136.wav,0,pull,611,36,5,5,English,M,11,1.1,-58.86585407,1.5410961
5c2b9ce5b337310001996c05,31,0,2024-02-28T19:29:14.866Z,french_136.wav,0,pull,611,36,5,5,English,M,12,1.14141667,-45.29061382,0.1982647
5c2b9ce5b337310001996c05,32,0,2024-02-28T19:29:14.866Z,french_83.wav,0,pull,705,36,5,5,English,M,0,0.0,30.44967783,0.42165273
5c2b9ce5b337310001996c05,32,0,2024-02-28T19:29:14.866Z,french_83.wav,0,pull,705,36,5,5,English,M,1,0.1,32.59822127,0.3238076
5c2b9ce5b337310001996c05,32,0,2024-02-28T19:29:14.866Z,french_83.wav,0,pull,705,36,5,5,English,M,2,0.2,50.8682146,0.37913611
5c2b9ce5b337310001996c05,32,0,2024-02-28T19:29:14.866Z,french_83.wav,0,pull,705,36,5,5,English,M,3,0.3,0.11779037,0.78724258
5c2b9ce5b337310001996c05,32,0,2024-02-28T19:29:14.866Z,french_83.wav,0,pull,705,36,5,5,English,M,4,0.4,16.37029834,1.0594663
5c2b9ce5b337310001996c05,32,0,2024-02-28T19:29:14.866Z,french_83.wav,0,pull,705,36,5,5,English,M,5,0.5,90.79022832,0.48377765
5c2b9ce5b337310001996c05,32,0,2024-02-28T19:29:14.866Z,french_83.wav,0,pull,705,36,5,5,English,M,6,0.6,-75.94380669,0.29353951
5c2b9ce5b337310001996c05,32,0,2024-02-28T19:29:14.866Z,french_83.wav,0,pull,705,36,5,5,English,M,7,0.7,34.13478403,1.31767934
5c2b9ce5b337310001996c05,32,0,2024-02-28T19:29:14.866Z,french_83.wav,0,pull,705,36,5,5,English,M,8,0.8,-27.50152867,0.23770737
5c2b9ce5b337310001996c05,32,0,2024-02-28T19:29:14.866Z,french_83.wav,0,pull,705,36,5,5,English,M,9,0.9,9.93495342,0.58296712
5c2b9ce5b337310001996c05,32,0,2024-02-28T19:29:14.866Z,french_83.wav,0,pull,705,36,5,5,English,M,10,1.0,58.3619145,0.64820026
5c2b9ce5b337310001996c05,32,0,2024-02-28T19:29:14.866Z,french_83.wav,0,pull,705,36,5,5,English,M,11,1.1,15.44979308,0.12158815
5c2b9ce5b337310001996c05,32,0,2024-02-28T19:29:14.866Z,french_83.wav,0,pull,705,36,5,5,English,M,12,1.14141667,13.85594834,0.38899467
5c2b9ce5b337310001996c05,33,0,2024-02-28T19:29:14.866Z,french_311.wav,0,poule,458,36,5,5,English,M,0,0.0,-86.52864585,1.86196992
5c2b9ce5b337310001996c05,33,0,2024-02-28T19:29:14.866Z,french_311.wav,0,poule,458,36,5,5,English,M,1,0.1,62.66288601,1.8926505
5c2b9ce5b337310001996c05,33,0,2024-02-28T19:29:14.866Z,french_311.wav,0,poule,458,36,5,5,English,M,2,0.2,-36.77610058,1.91332722
5c2b9ce5b337310001996c05,33,0,2024-02-28T19:29:14.866Z,french_311.wav,0,poule,458,36,5,5,English,M,3,0.3,78.93138724,1.07444311
5c2b9ce5b337310001996c05,33,0,2024-02-28T19:29:14.866Z,french_311.wav,0,poule,458,36,5,5,English,M,4,0.4,-51.39513666,1.07416933
5c2b9ce5b337310001996c05,33,0,2024-02-28T19:29:14.866Z,french_311.wav,0,poule,458,36,5,5,English,M,5,0.5,56.34952921,0.12961207
5c2b9ce5b337310001996c05,33,0,2024-02-28T19:29:14.866Z,french_311.wav,0,poule,458,36,5,5,English,M,6,0.6,-69.85672492,1.17699672
5c2b9ce5b337310001996c05,33,0,2024-02-28T19:29:14.866Z,french_311.wav,0,poule,458,36,5,5,English,M,7,0.7,24.5156499,1.53343293
5c2b9ce5b337310001996c05,33,0,2024-02-28T19:29:14.866Z,french_311.wav,0,poule,458,36,5,5,English,M,8,0.8,-26.74412765,1.46760667
5c2b9ce5b337310001996c05,33,0,2024-02-28T19:29:14.866Z,french_311.wav,0,poule,458,36,5,5,English,M,9,0.9,-62.82934115,0.88003625
5c2b9ce5b337310001996c05,33,0,2024-02-28T19:29:14.866Z,french_311.wav,0,poule,458,36,5,5,English,M,10,1.0,-28.92551631,1.92230911
5c2b9ce5b337310001996c05,33,0,2024-02-28T19:29:14.866Z,french_311.wav,0,poule,458,36,5,5,English,M,11,1.1,-90.71218946,1.24404618
5c2b9ce5b337310001996c05,33,0,2024-02-28T19:29:14.866Z,french_311.wav,0,poule,458,36,5,5,English,M,12,1.14141667,-18.84584076,1.69798196
5c2b9ce5b337310001996c05,34,0,2024-02-28T19:29:14.866Z,french_67.wav,0,pull,438,36,5,5,English,M,0,0.0,-8.80419895,1.71520909
5c2b9ce5b337310001996c05,34,0,2024-02-28T19:29:14.866Z,french_67.wav,0,pull,438,36,5,5,English,M,1,0.1,-89.09971713,1.65194622
5c2b9ce5b337310001996c05,34,0,2024-02-28T19:29:14.866Z,french_67.wav,0,pull,438,36,5,5,English,M,2,0.2,52.16664129,1.05692719
5c2b9ce5b337310001996c05,34,0,2024-02-28T19:29:14.866Z,french_67.wav,0,pull,438,36,5,5,English,M,3,0.3,75.50765895,0.39640522
5c2b9ce5b337310001996c05,34,0,2024-02-28T19:29:14.866Z,french_67.wav,0,pull,438,36,5,5,English,M,4,0.4,-50.4048012,1.79941734
5c2b9ce5b337310001996c05,34,0,2024-02-28T19:29:14.866Z,french_67.wav,0,pull,438,36,5,5,English,M,5,0.5,2.92186318,1.20893726
5c2b9ce5b337310001996c05,34,0,2024-02-28T19:29:14.866Z,french_67.wav,0,pull,438,36,5,5,English,M,6,0.6,-2.99274005,1.83305713
5c2b9ce5b337310001996c05,34,0,2024-02-28T19:29:14.866Z,french_67.wav,0,pull,438,36,5,5,English,M,7,0.7,-60.68394197,0.33461142
5c2b9ce5b337310001996c05,34,0,2024-02-28T19:29:14.866Z,french_67.wav,0,pull,438,36,5,5,English,M,8,0.8,84.35232492,0.31328661
5c2b9ce5b337310001996c05,34,0,2024-02-28T19:29:14.866Z,french_67.wav,0,pull,438,36,5,5,English,M,9,0.9,-25.72248864,0.81923703
5c2b9ce5b337310001996c05,34,0,2024-02-28T19:29:14.866Z,french_67.wav,0,pull,438,36,5,5,English,M,10,1.0,11.86313501,0.47881167
5c2b9ce5b337310001996c05,34,0,2024-02-28T19:29:14.866Z,french_67.wav,0,pull,438,36,5,5,English,M,11,1.1,19.03354401,1.95724467
5c2b9ce5b337310001996c05,34,0,2024-02-28T19:29:14.866Z,french_67.wav,0,pull,438,36,5,5,English,M,12,1.14141667,81.65120736,0.25508289
5c2b9ce5b337310001996c05,35,0,2024-02-28T19:29:14.866Z,french_740.wav,0,poule,581,36,5,5,English,M,0,0.0,-23.8561275,1.38106788
5c2b9ce5b337310001996c05,35,0,2024-02-28T19:29:14.866Z,french_740.wav,0,poule,581,36,5,5,English,M,1,0.1,12.41197017,0.96449807
5c2b9ce5b337310001996c05,35,0,2024-02-28T19:29:14.866Z,french_740.wav,0,poule,581,36,5,5,English,M,2,0.2,-75.22373784,1.81317808
5c2b9ce5b337310001996c05,35,0,2024-02-28T19:29:14.866Z,french_740.wav,0,poule,581,36,5,5,English,M,3,0.3,13.95432459,0.48903687
5c2b9ce5b337310001996c05,35,0,2024-02-28T19:29:14.866Z,french_740.wav,0,poule,581,36,5,5,English,M,4,0.4,86.43925379,0.89209498
5c2b9ce5b337310001996c05,35,0,2024-02-28T19:29:14.866Z,french_740.wav,0,poule,581,36,5,5,English,M,5,0.5,-59.06853257,0.79820054
5c2b9ce5b337310001996c05,35,0,2024-02-28T19:29:14.866Z,french_740.wav,0,poule,581,36,5,5,English,M,6,0.6,8.7812543,1.20695925
5c2b9ce5b337310001996c05,35,0,2024-02-28T19:29:14.866Z,french_740.wav,0,poule,581,36,5,5,English,M,7,0.7,-81.4658243,0.55003693
5c2b9ce5b337310001996c05,35,0,2024-02-28T19:29:14.866Z,french_740.wav,0,poule,581,36,5,5,English,M,8,0.8,-37.53161999,0.44955963
5c2b9ce5b337310001996c05,35,0,2024-02-28T19:29:14.866Z,french_740.wav,0,poule,581,36,5,5,English,M,9,0.9,-71.6710365,1.78000651
5c2b9ce5b337310001996c05,35,0,2024-02-28T19:29:14.866Z,french_740.wav,0,poule,581,36,5,5,English,M,10,1.0,31.54551497,1.38553911
5c2b9ce5b337310001996c05,35,0,2024-02-28T19:29:14.866Z,french_740.wav,0,poule,581,36,5,5,English,M,11,1.1,73.9548309,0.82064893
5c2b9ce5b337310001996c05,35,0,2024-02-28T19:29:14.866Z,french_740.wav,0,poule,581,36,5,5,English,M,12,1.14141667,48.2786376,1.09253076
5c2b9ce5b337310001996c05,36,0,2024-02-28T19:29:14.866Z,french_369.wav,0,poule,803,36,5,5,English,M,0,0.0,69.75074481,1.46736973
5c2b9ce5b337310001996c05,36,0,2024-02-28T19:29:14.866Z,french_369.wav,0,poule,803,36,5,5,English,M,1,0.1,-10.40899833,0.13737814
5c2b9ce5b337310001996c05,36,0,2024-02-28T19:29:14.866Z,french_369.wav,0,poule,803,36,5,5,English,M,2,0.2,85.57878117,1.34631707
5c2b9ce5b337310001996c05,36,0,2024-02-28T19:29:14.866Z,french_369.wav,0,poule,803,36,5,5,English,M,3,0.3,15.39701213,0.46028441
5c2b9ce5b337310001996c05,36,0,2024-02-28T19:29:14.866Z,french_369.wav,0,poule,803,36,5,5,English,M,4,0.4,83.19518913,0.141543
5c2b9ce5b337310001996c05,36,0,2024-02-28T19:29:14.866Z,french_369.wav,0,poule,803,36,5,5,English,M,5,0.5,20.33595166,0.46259405
5c2b9ce5b337310001996c05,36,0,2024-02-28T19:29:14.866Z,french_369.wav,0,poule,803,36,5,5,English,M,6,0.6,10.594299,0.96314063
5c2b9ce5b337310001996c05,36,0,2024-02-28T19:29:14.866Z,french_369.wav,0,poule,803,36,5,5,English,M,7,0.7,-65.1676687,0.97877892
5c2b9ce5b337310001996c05,36,0,2024-02-28T19:29:14.866Z,french_369.wav,0,poule,803,36,5,5,English,M,8,0.8,49.76363472,1.10716642
5c2b9ce5b337310001996c05,36,0,2024-02-28T19:29:14.866Z,french_369.wav,0,poule,803,36,5,5,English,M,9,0.9,-78.66253889,0.40650809
5c2b9ce5b337310001996c05,36,0,2024-02-28T19:29:14.866Z,french_369.wav,0,poule,803,36,5,5,English,M,10,1.0,4.39215728,1.82064787
5c2b9ce5b337310001996c05,36,0,2024-02-28T19:29:14.866Z,french_369.wav,0,poule,803,36,5,5,English,M,11,1.1,-85.73946609,1.61141022
5c2b9ce5b337310001996c05,36,0,2024-02-28T19:29:14.866Z,french_369.wav,0,poule,803,36,5,5,English,M,12,1.14141667,53.02267255,0.46038383
5c2b9ce5b337310001996c05,37,0,2024-02-28T19:29:14.866Z,french_105.wav,0,poule,601,36,5,5,English,M,0,0.0,-17.41639598,1.0696772
5c2b9ce5b337310001996c05,37,0,2024-02-28T19:29:14.866Z,french_105.wav,0,poule,601,36,5,5,English,M,1,0.1,-51.05987978,1.85057485
5c2b9ce5b337310001996c05,37,0,2024-02-28T19:29:14.866Z,french_105.wav,0,poule,601,36,5,5,English,M,2,0.2,-50.86415714,1.17092256
5c2b9ce5b337310001996c05,37,0,2024-02-28T19:29:14.866Z,french_105.wav,0,poule,601,36,5,5,English,M,3,0.3,36.13678641,1.78310138
5c2b9ce5b337310001996c05,37,0,2024-02-28T19:29:14.866Z,french_105.wav,0,poule,601,36,5,5,English,M,4,0.4,-44.37916814,1.56265936
5c2b9ce5b337310001996c05,37,0,2024-02-28T19:29:14.866Z,french_105.wav,0,poule,601,36,5,5,English,M,5,0.5,-26.18268216,0.85551974
5c2b9ce5b337310001996c05,37,0,2024-02-28T19:29:14.866Z,french_105.wav,0,poule,601,36,5,5,English,M,6,0.6,77.65644826,1.45347176
5c2b9ce5b337310001996c05,37,0,2024-02-28T19:29:14.866Z,french_105.wav,0,poule,601,36,5,5,English,M,7,0.7,-48.15616173,1.38762172
5c2b9ce5b337310001996c05,37,0,2024-02-28T19:29:14.866Z,french_105.wav,0,poule,601,36,5,5,English,M,8,0.8,-76.33989735,1.74923504
5c2b9ce5b337310001996c05,37,0,2024-02-28T19:29:14.866Z,french_105.wav,0,poule,601,36,5,5,English,M,9,0.9,-14.96957066,1.36496243
5c2b9ce5b337310001996c05,37,0,2024-02-28T19:29:14.866Z,french_105.wav,0,poule,601,36,5,5,English,M,10,1.0,41.40508421,0.66444933
5c2b9ce5b337310001996c05,37,0,2024-02-28T19:29:14.866Z,french_105.wav,0,poule,601,36,5,5,English,M,11,1.1,-59.17997239,1.29070267
5c2b9ce5b337310001996c05,37,0,2024-02-28T19:29:14.866Z,french_105.wav,0,poule,601,36,5,5,English,M,12,1.14141667,89.00654199,0.50298451
5c2b9ce5b337310001996c05,38,0,2024-02-28T19:29:14.866Z,french_581.wav,0,pull,668,36,5,5,English,M,0,0.0,43.38365337,0.41567672
5c2b9ce5b337310001996c05,38,0,2024-02-28T19:29:14.866Z,french_581.wav,0,pull,668,36,5,5,English,M,1,0.1,-0.22643789,0.87895889
5c2b9ce5b337310001996c05,38,0,2024-02-28T19:29:14.866Z,french_581.wav,0,pull,668,36,5,5,English,M,2,0.2,-34.5083162,1.05937657
5c2b9ce5b337310001996c05,38,0,2024-02-28T19:29:14.866Z,french_581.wav,0,pull,668,36,5,5,English,M,3,0.3,-53.1275403,0.23340752
5c2b9ce5b337310001996c05,38,0,2024-02-28T19:29:14.866Z,french_581.wav,0,pull,668,36,5,5,English,M,4,0.4,-24.27049396,1.36506565
5c2b9ce5b337310001996c05,38,0,2024-02-28T19:29:14.866Z,french_581.wav,0,pull,668,36,5,5,English,M,5,0.5,27.70479848,1.54429013
5c2b9ce5b337310001996c05,38,0,2024-02-28T19:29:14.866Z,french_581.wav,0,pull,668,36,5,5,English,M,6,0.6,48.82569982,1.55961551
5c2b9ce5b337310001996c05,38,0,2024-02-28T19:29:14.866Z,french_581.wav,0,pull,668,36,5,5,English,M,7,0.7,-53.35719693,0.31113875
5c2b9ce5b337310001996c05,38,0,2024-02-28T19:29:14.866Z,french_581.wav,0,pull,668,36,5,5,English,M,8,0.8,74.55256708,0.08017685
5c2b9ce5b337310001996c05,38,0,2024-02-28T19:29:14.866Z,french_581.wav,0,pull,668,36,5,5,English,M,9,0.9,70.29025897,0.98976323
5c2b9ce5b337310001996c05,38,0,2024-02-28T19:29:14.866Z,french_581.wav,0,pull,668,36,5,5,English,M,10,1.0,-42.93252277,1.41346884
5c2b9ce5b337310001996c05,38,0,2024-02-28T19:29:14.866Z,french_581.wav,0,pull,668,36,5,5,English,M,11,1.1,72.0501082,1.33841566
5c2b9ce5b337310001996c05,38,0,2024-02-28T19:29:14.866Z,french_581.wav,0,pull,668,36,5,5,English,M,12,1.14141667,70.1097379,0.36889697
5c2b9ce5b337310001996c05,39,0,2024-02-28T19:29:14.866Z,french_849.wav,0,pull,458,36,5,5,English,M,0,0.0,69.87521171,0.30931104
5c2b9ce5b337310001996c05,39,0,2024-02-28T19:29:14.866Z,french_849.wav,0,pull,458,36,5,5,English,M,1,0.1,60.55609477,1.36852657
5c2b9ce5b337310001996c05,39,0,2024-02-28T19:29:14.866Z,french_849.wav,0,pull,458,36,5,5,English,M,2,0.2,-65.31065089,1.17344814
5c2b9ce5b337310001996c05,39,0,2024-02-28T19:29:14.866Z,french_849.wav,0,pull,458,36,5,5,English,M,3,0.3,-19.68241849,0.60836169
5c2b9ce5b337310001996c05,39,0,2024-02-28T19:29:14.866Z,french_849.wav,0,pull,458,36,5,5,English,M,4,0.4,-67.97317677,1.01541635
5c2b9ce5b337310001996c05,39,0,2024-02-28T19:29:14.866Z,french_849.wav,0,pull,458,36,5,5,English,M,5,0.5,17.50031022,1.67991586
5c2b9ce5b337310001996c05,39,0,2024-02-28T19:29:14.866Z,french_849.wav,0,pull,458,36,5,5,English,M,6,0.6,35.72432224,0.91591025
5c2b9ce5b337310001996c05,39,0,2024-02-28T19:29:14.866Z,french_849.wav,0,pull,458,36,5,5,English,M,7,0.7,94.17947116,0.34261247
5c2b9ce5b337310001996c05,39,0,2024-02-28T19:29:14.866Z,french_849.wav,0,pull,458,36,5,5,English,M,8,0.8,6.65143733,0.90885816
5c2b9ce5b337310001996c05,39,0,2024-02-28T19:29:14.866Z,french_849.wav,0,pull,458,36,5,5,English,M,9,0.9,25.76932765,0.23510679
5c2b9ce5b337310001996c05,39,0,2024-02-28T19:29:14.866Z,french_849.wav,0,pull,458,36,5,5,English,M,10,1.0,-86.9444091,1.23669331
5c2b9ce5b337310001996c05,39,0,2024-02-28T19:29:14.866Z,french_849.wav,0,pull,458,36,5,5,English,M,11,1.1,42.49009612,0.98799619
5c2b9ce5b337310001996c05,39,0,2024-02-28T19:29:14.866Z,french_849.wav,0,pull,458,36,5,5,English,M,12,1.14141667,37.61302549,0.11471461
5c2b9ce5b337310001996c05,40,0,2024-02-28T19:29:14.866Z,french_453.wav,0,pull,414,36,5,5,English,M,0,0.0,-23.12360245,0.90227617
5c2b9ce5b337310001996c05,40,0,2024-02-28T19:29:14.866Z,french_453.wav,0,pull,414,36,5,5,English,M,1,0.1,29.79054149,0.21120058
5c2b9ce5b337310001996c05,40,0,2024-02-28T19:29:14.866Z,french_453.wav,0,pull,414,36,5,5,English,M,2,0.2,-61.88371212,0.51262885
5c2b9ce5b337310001996c05,40,0,2024-02-28T19:29:14.866Z,french_453.wav,0,pull,414,36,5,5,English,M,3,0.3,24.4476251,1.10207476
5c2b9ce5b337310001996c05,40,0,2024-02-28T19:29:14.866Z,french_453.wav,0,pull,414,36,5,5,English,M,4,0.4,74.62873842,0.01288431
5c2b9ce5b337310001996c05,40,0,2024-02-28T19:29:14.866Z,french_453.wav,0,pull,414,36,5,5,English,M,5,0.5,12.37672846,0.02891067
5c2b9ce5b337310001996c05,40,0,2024-02-28T19:29:14.866Z,french_453.wav,0,pull,414,36,5,5,English,M,6,0.6,-70.00186754,0.10282501
5c2b9ce5b337310001996c05,40,0,2024-02-28T19:29:14.866Z,french_453.wav,0,pull,414,36,5,5,English,M,7,0.7,11.74973885,0.68270454
5c2b9ce5b337310001996c05,40,0,2024-02-28T19:29:14.866Z,french_453.wav,0,pull,414,36,5,5,English,M,8,0.8,-80.88572625,0.50027224
5c2b9ce5b337310001996c05,40,0,2024-02-28T19:29:14.866Z,french_453.wav,0,pull,414,36,5,5,English,M,9,0.9,66.25216979,1.17966042
5c2b9ce5b337310001996c05,40,0,2024-02-28T19:29:14.866Z,french_453.wav,0,pull,414,36,5,5,English,M,10,1.0,-23.72864128,1.91038714
5c2b9ce5b337310001996c05,40,0,2024-02-28T19:29:14.866Z,french_453.wav,0,pull,414,36,5,5,English,M,11,1.1,33.84760067,1.13795736
5c2b9ce5b337310001996c05,40,0,2024-02-28T19:29:14.866Z,french_453.wav,0,pull,414,36,5,5,English,M,12,1.14141667,-62.79214688,0.6421682
5c2b9ce5b337310001996c05,41,0,2024-02-28T19:29:14.866Z,french_169.wav,0,poule,670,36,5,5,English,M,0,0.0,59.42185537,0.83159375
5c2b9ce5b337310001996c05,41,0,2024-02-28T19:29:14.866Z,french_169.wav,0,poule,670,36,5,5,English,M,1,0.1,88.63481017,1.38556946
5c2b9ce5b337310001996c05,41,0,2024-02-28T19:29:14.866Z,french_169.wav,0,poule,670,36,5,5,English,M,2,0.2,-30.81317289,0.96575103
5c2b9ce5b337310001996c05,41,0,2024-02-28T19:29:14.866Z,french_169.wav,0,poule,670,36,5,5,English,M,3,0.3,8.8361544,1.88843059
5c2b9ce5b337310001996c05,41,0,2024-02-28T19:29:14.866Z,french_169.wav,0,poule,670,36,5,5,English,M,4,0.4,33.34891954,1.15602215
5c2b9ce5b337310001996c05,41,0,2024-02-28T19:29:14.866Z,french_169.wav,0,poule,670,36,5,5,English,M,5,0.5,19.12772392,1.03022827
5c2b9ce5b337310001996c05,41,0,2024-02-28T19:29:14.866Z,french_169.wav,0,poule,670,36,5,5,English,M,6,0.6,-29.4196349,1.76601862
5c2b9ce5b337310001996c05,41,0,2024-02-28T19:29:14.866Z,french_169.wav,0,poule,670,36,5,5,English,M,7,0.7,-66.8991604,0.44859055
5c2b9ce5b337310001996c05,41,0,2024-02-28T19:29:14.866Z,french_169.wav,0,poule,670,36,5,5,English,M,8,0.8,-49.84424897,0.70503729
5c2b9ce5b337310001996c05,41,0,2024-02-28T19:29:14.866Z,french_169.wav,0,poule,670,36,5,5,English,M,9,0.9,55.00508098,1.09617092
5c2b9ce5b337310001996c05,41,0,2024-02-28T19:29:14.866Z,french_169.wav,0,poule,670,36,5,5,English,M,10,1.0,-98.33346696,1.2567147
5c2b9ce5b337310001996c05,41,0,2024-02-28T19:29:14.866Z,french_169.wav,0,poule,670,36,5,5,English,M,11,1.1,3.91350931,1.30128277
5c2b9ce5b337310001996c05,41,0,2024-02-28T19:29:14.866Z,french_169.wav,0,poule,670,36,5,5,English,M,12,1.14141667,24.90935392,0.9045641
5c2b9ce5b337310001996c05,42,0,2024-02-28T19:29:14.866Z,french_86.wav,0,poule,915,36,5,5,English,M,0,0.0,90.66907536,1.99403643
5c2b9ce5b337310001996c05,42,0,2024-02-28T19:29:14.866Z,french_86.wav,0,poule,915,36,5,5,English,M,1,0.1,72.1103631,1.04548327
5c2b9ce5b337310001996c05,42,0,2024-02-28T19:29:14.866Z,french_86.wav,0,poule,915,36,5,5,English,M,2,0.2,26.87452534,1.50586628
5c2b9ce5b337310001996c05,42,0,2024-02-28T19:29:14.866Z,french_86.wav,0,poule,915,36,5,5,English,M,3,0.3,6.75702651,0.53204978
5c2b9ce5b337310001996c05,42,0,2024-02-28T19:29:14.866Z,french_86.wav,0,poule,915,36,5,5,English,M,4,0.4,23.23177759,1.50109817
5c2b9ce5b337310001996c05,42,0,2024-02-28T19:29:14.866Z,french_86.wav,0,poule,915,36,5,5,English,M,5,0.5,30.56866271,1.68700691
5c2b9ce5b337310001996c05,42,0,2024-02-28T19:29:14.866Z,french_86.wav,0,poule,915,36,5,5,English,M,6,0.6,57.20013944,1.22814782
5c2b9ce5b337310001996c05,42,0,2024-02-28T19:29:14.866Z,french_86.wav,0,poule,915,36,5,5,English,M,7,0.7,-0.22903735,0.68677654
5c2b9ce5b337310001996c05,42,0,2024-02-28T19:29:14.866Z,french_86.wav,0,poule,915,36,5,5,English,M,8,0.8,-52.83374868,0.16935265
5c2b9ce5b337310001996c05,42,0,2024-02-28T19:29:14.866Z,french_86.wav,0,poule,915,36,5,5,English,M,9,0.9,17.90238633,1.6413624
5c2b9ce5b337310001996c05,42,0,2024-02-28T19:29:14.866Z,french_86.wav,0,poule,915,36,5,5,English,M,10,1.0,-5.19579317,0.78947627
5c2b9ce5b337310001996c05,42,0,2024-02-28T19:29:14.866Z,french_86.wav,0,poule,915,36,5,5,English,M,11,1.1,32.18274643,1.67130665
5c2b9ce5b337310001996c05,42,0,2024-02-28T19:29:14.866Z,french_86.wav,0,poule,915,36,5,5,English,M,12,1.14141667,-41.41608864,0.60178735
5c2b9ce5b337310001996c05,43,0,2024-02-28T19:29:14.866Z,french_193.wav,0,pull,665,36,5,5,English,M,0,0.0,55.86434558,1.84623427
5c2b9ce5b337310001996c05,43,0,2024-02-28T19:29:14.866Z,french_193.wav,0,pull,665,36,5,5,English,M,1,0.1,35.17438078,1.45871927
5c2b9ce5b337310001996c05,43,0,2024-02-28T19:29:14.866Z,french_193.wav,0,pull,665,36,5,5,English,M,2,0.2,64.94693253,1.31961654
5c2b9ce5b337310001996c05,43,0,2024-02-28T19:29:14.866Z,french_193.wav,0,pull,665,36,5,5,English,M,3,0.3,-11.0808931,0.19803525
5c2b9ce5b337310001996c05,43,0,2024-02-28T19:29:14.866Z,french_193.wav,0,pull,665,36,5,5,English,M,4,0.4,17.49954283,0.24071709
5c2b9ce5b337310001996c05,43,0,2024-02-28T19:29:14.866Z,french_193.wav,0,pull,665,36,5,5,English,M,5,0.5,51.1230799,0.12833577
5c2b9ce5b337310001996c05,43,0,2024-02-28T19:29:14.866Z,french_193.wav,0,pull,665,36,5,5,English,M,6,0.6,91.81738107,0.47445089
5c2b9ce5b337310001996c05,43,0,2024-02-28T19:29:14.866Z,french_193.wav,0,pull,665,36,5,5,English,M,7,0.7,-33.71615966,0.83124863
5c2b9ce5b337310001996c05,43,0,2024-02-28T19:29:14.866Z,french_193.wav,0,pull,665,36,5,5,English,M,8,0.8,-99.34494989,0.32718168
5c2b9ce5b337310001996c05,43,0,2024-02-28T19:29:14.866Z,french_193.wav,0,pull,665,36,5,5,English,M,9,0.9,-99.91903914,0.67506289
5c2b9ce5b337310001996c05,43,0,2024-02-28T19:29:14.866Z,french_193.wav,0,pull,665,36,5,5,English,M,10,1.0,-40.8900896,1.64349132
5c2b9ce5b337310001996c05,43,0,2024-02-28T19:29:14.866Z,french_193.wav,0,pull,665,36,5,5,English,M,11,1.1,9.96341327,1.39601753
5c2b9ce5b337310001996c05,43,0,2024-02-28T19:29:14.866Z,french_193.wav,0,pull,665,36,5,5,English,M,12,1.14141667,62.22902788,0.95131389
5c2b9ce5b337310001996c05,44,0,2024-02-28T19:29:14.866Z,french_154.wav,0,pull,577,36,5,5,English,M,0,0.0,-62.71695014,0.91471161
5c2b9ce5b337310001996c05,44,0,2024-02-28T19:29:14.866Z,french_154.wav,0,pull,577,36,5,5,English,M,1,0.1,11.76696999,0.62594341
5c2b9ce5b337310001996c05,44,0,2024-02-28T19:29:14.866Z,french_154.wav,0,pull,577,36,5,5,English,M,2,0.2,89.09000975,1.0457949
5c2b9ce5b337310001996c05,44,0,2024-02-28T19:29:14.866Z,french_154.wav,0,pull,577,36,5,5,English,M,3,0.3,55.482511,0.32994818
5c2b9ce5b337310001996c05,44,0,2024-02-28T19:29:14.866Z,french_154.wav,0,pull,577,36,5,5,English,M,4,0.4,48.82512352,0.38624098
5c2b9ce5b337310001996c05,44,0,2024-02-28T19:29:14.866Z,french_154.wav,0,pull,577,36,5,5,English,M,5,0.5,72.58324687,0.16529193
5c2b9ce5b337310001996c05,44,0,2024-02-28T19:29:14.866Z,french_154.wav,0,pull,577,36,5,5,English,M,6,0.6,-72.31376073,0.35654306
5c2b9ce5b337310001996c05,44,0,2024-02-28T19:29:14.866Z,french_154.wav,0,pull,577,36,5,5,English,M,7,0.7,26.97262417,0.03013993
5c2b9ce5b337310001996c05,44,0,2024-02-28T19:29:14.866Z,french_154.wav,0,pull,577,36,5,5,English,M,8,0.8,25.0060358,0.71479537
5c2b9ce5b337310001996c05,44,0,2024-02-28T19:29:14.866Z,french_154.wav,0,pull,577,36,5,5,English,M,9,0.9,96.65829409,0.87549993
5c2b9ce5b337310001996c05,44,0,2024-02-28T19:29:14.866Z,french_154.wav,0,pull,577,36,5,5,English,M,10,1.0,-53.01793566,0.67316638
5c2b9ce5b337310001996c05,44,0,2024-02-28T19:29:14.866Z,french_154.wav,0,pull,577,36,5,5,English,M,11,1.1,-28.38672299,0.16537435
5c2b9ce5b337310001996c05,44,0,2024-02-28T19:29:14.866Z,french_154.wav,0,pull,577,36,5,5,English,M,12,1.14141667,-13.65079038,0.43572368
5c2b9ce5b337310001996c05,45,0,2024-02-28T19:29:14.866Z,french_891.wav,0,poule,640,36,5,5,English,M,0,0.0,-99.04712605,1.87208337
5c2b9ce5b337310001996c05,45,0,2024-02-28T19:29:14.866Z,french_891.wav,0,poule,640,36,5,5,English,M,1,0.1,17.3799724,1.3828509
5c2b9ce5b337310001996c05,45,0,2024-02-28T19:29:14.866Z,french_891.wav,0,poule,640,36,5,5,English,M,2,0.2,-1.30355006,1.47231184
5c2b9ce5b337310001996c05,45,0,2024-02-28T19:29:14.866Z,french_891.wav,0,poule,640,36,5,5,English,M,3,0.3,11.66108417,1.45618748
5c2b9ce5b337310001996c05,45,0,2024-02-28T19:29:14.866Z,french_891.wav,0,poule,640,36,5,5,English,M,4,0.4,6.35761676,1.81540908
5c2b9ce5b337310001996c05,45,0,2024-02-28T19:29:14.866Z,french_891.wav,0,poule,640,36,5,5,English,M,5,0.5,-71.86971473,0.63041518
5c2b9ce5b337310001996c05,45,0,2024-02-28T19:29:14.866Z,french_891.wav,0,poule,640,36,5,5,English,M,6,0.6,20.94588527,0.92124801
5c2b9ce5b337310001996c05,45,0,2024-02-28T19:29:14.866Z,french_891.wav,0,poule,640,36,5,5,English,M,7,0.7,-13.59137079,0.65821591
5c2b9ce5b337310001996c05,45,0,2024-02-28T19:29:14.866Z,french_891.wav,0,poule,640,36,5,5,English,M,8,0.8,62.37473981,0.6468689
5c2b9ce5b337310001996c05,45,0,2024-02-28T19:29:14.866Z,french_891.wav,0,poule,640,36,5,5,English,M,9,0.9,64.47380957,0.86634815
5c2b9ce5b337310001996c05,45,0,2024-02-28T19:29:14.866Z,french_891.wav,0,poule,640,36,5,5,English,M,10,1.0,-7.95126825,0.44006572
5c2b9ce5b337310001996c05,45,0,2024-02-28T19:29:14.866Z,french_891.wav,0,poule,640,36,5,5,English,M,11,1.1,-34.88253316,1.52894565
5c2b9ce5b337310001996c05,45,0,2024-02-28T19:29:14.866Z,french_891.wav,0,poule,640,36,5,5,English,M,12,1.14141667,95.31191198,0.84584339
5c2b9ce5b337310001996c05,46,0,2024-02-28T19:29:14.866Z,french_489.wav,0,pull,748,36,5,5,English,M,0,0.0,84.44889922,0.4324461
5c2b9ce5b337310001996c05,46,0,2024-02-28T19:29:14.866Z,french_489.wav,0,pull,748,36,5,5,English,M,1,0.1,76.96445942,0.85727213
5c2b9ce5b337310001996c05,46,0,2024-02-28T19:29:14.866Z,french_489.wav,0,pull,748,36,5,5,English,M,2,0.2,8.54698853,0.54736057
5c2b9ce5b337310001996c05,46,0,2024-02-28T19:29:14.866Z,french_489.wav,0,pull,748,36,5,5,English,M,3,0.3,-59.91285247,0.94180877
5c2b9ce5b337310001996c05,46,0,2024-02-28T19:29:14.866Z,french_489.wav,0,pull,748,36,5,5,English,M,4,0.4,27.32007088,1.44274385
5c2b9ce5b337310001996c05,46,0,2024-02-28T19:29:14.866Z,french_489.wav,0,pull,748,36,5,5,English,M,5,0.5,6.79605694,0.58088487
5c2b9ce5b337310001996c05,46,0,2024-02-28T19:29:14.866Z,french_489.wav,0,pull,748,36,5,5,English,M,6,0.6,-17.55996402,1.38647936
5c2b9ce5b337310001996c05,46,0,2024-02-28T19:29:14.866Z,french_489.wav,0,pull,748,36,5,5,English,M,7,0.7,82.31401574,1.65271142
5c2b9ce5b337310001996c05,46,0,2024-02-28T19:29:14.866Z,french_489.wav,0,pull,748,36,5,5,English,M,8,0.8,84.94935876,1.895289
5c2b9ce5b337310001996c05,46,0,2024-02-28T19:29:14.866Z,french_489.wav,0,pull,748,36,5,5,English,M,9,0.9,-82.28492461,1.38057617
5c2b9ce5b337310001996c05,46,0,2024-02-28T19:29:14.866Z,french_489.wav,0,pull,748,36,5,5,English,M,10,1.0,-88.52112303,0.26964653
5c2b9ce5b337310001996c05,46,0,2024-02-28T19:29:14.866Z,french_489.wav,0,pull,748,36,5,5,English,M,11,1.1,17.07609433,0.78257825
5c2b9ce5b337310001996c05,46,0,2024-02-28T19:29:14.866Z,french_489.wav,0,pull,748,36,5,5,English,M,12,1.14141667,-30.14347884,1.39946556
5c2b9ce5b337310001996c05,47,0,2024-02-28T19:29:14.866Z,french_77.wav,0,poule,345,36,5,5,English,M,0,0.0,84.11414351,1.75422575
5c2b9ce5b337310001996c05,47,0,2024-02-28T19:29:14.866Z,french_77.wav,0,poule,345,36,5,5,English,M,1,0.1,-37.19083942,0.18377725
5c2b9ce5b337310001996c05,47,0,2024-02-28T19:29:14.866Z,french_77.wav,0,poule,345,36,5,5,English,M,2,0.2,-88.97309573,1.79563145
5c2b9ce5b337310001996c05,47,0,2024-02-28T19:29:14.866Z,french_77.wav,0,poule,345,36,5,5,English,M,3,0.3,-95.03979249,0.75116623
5c2b9ce5b337310001996c05,47,0,2024-02-28T19:29:14.866Z,french_77.wav,0,poule,345,36,5,5,English,M,4,0.4,41.3735366,0.40681435
5c2b9ce5b337310001996c05,47,0,2024-02-28T19:29:14.866Z,french_77.wav,0,poule,345,36,5,5,English,M,5,0.5,27.6706881,0.97594444
5c2b9ce5b337310001996c05,47,0,2024-02-28T19:29:14.866Z,french_77.wav,0,poule,345,36,5,5,English,M,6,0.6,-36.0397327,1.32678044
5c2b9ce5b337310001996c05,47,0,2024-02-28T19:29:14.866Z,french_77.wav,0,poule,345,36,5,5,English,M,7,0.7,1.46151105,0.25922475
5c2b9ce5b337310001996c05,47,0,2024-02-28T19:29:14.866Z,french_77.wav,0,poule,345,36,5,5,English,M,8,0.8,34.44716143,1.63656011
5c2b9ce5b337310001996c05,47,0,2024-02-28T19:29:14.866Z,french_77.wav,0,poule,345,36,5,5,English,M,9,0.9,70.8561762,1.26331981
5c2b9ce5b337310001996c05,47,0,2024-02-28T19:29:14.866Z,french_77.wav,0,poule,345,36,5,5,English,M,10,1.0,-35.3308977,0.78357408
5c2b9ce5b337310001996c05,47,0,2024-02-28T19:29:14.866Z,french_77.wav,0,poule,345,36,5,5,English,M,11,1.1,58.18645208,1.84376428
5c2b9ce5b337310001996c05,47,0,2024-02-28T19:29:14.866Z,french_77.wav,0,poule,345,36,5,5,English,M,12,1.14141667,5.76184625,1.26865568
5c2b9ce5b337310001996c05,48,0,2024-02-28T19:29:14.866Z,french_608.wav,0,poule,344,36,5,5,English,M,0,0.0,-30.86247379,1.5835974
5c2b9ce5b337310001996c05,48,0,2024-02-28T19:29:14.866Z,french_608.wav,0,poule,344,36,5,5,English,M,1,0.1,72.26893528,1.06170467
5c2b9ce5b337310001996c05,48,0,2024-02-28T19:29:14.866Z,french_608.wav,0,poule,344,36,5,5,English,M,2,0.2,28.06407444,1.27495408
5c2b9ce5b337310001996c05,48,0,2024-02-28T19:29:14.866Z,french_608.wav,0,poule,344,36,5,5,English,M,3,0.3,5.69112166,0.05673097
5c2b9ce5b337310001996c05,48,0,2024-02-28T19:29:14.866Z,french_608.wav,0,poule,344,36,5,5,English,M,4,0.4,-89.82873455,1.69011547
5c2b9ce5b337310001996c05,48,0,2024-02-28T19:29:14.866Z,french_608.wav,0,poule,344,36,5,5,English,M,5,0.5,-94.47368142,1.30432872
5c2b9ce5b337310001996c05,48,0,2024-02-28T19:29:14.866Z,french_608.wav,0,poule,344,36,5,5,English,M,6,0.6,87.02077085,0.95720889
5c2b9ce5b337310001996c05,48,0,2024-02-28T19:29:14.866Z,french_608.wav,0,poule,344,36,5,5,English,M,7,0.7,45.62068099,1.61346479
5c2b9ce5b337310001996c05,48,0,2024-02-28T19:29:14.866Z,french_608.wav,0,poule,344,36,5,5,English,M,8,0.8,17.9702258,1.94079828
5c2b9ce5b337310001996c05,48,0,2024-02-28T19:29:14.866Z,french_608.wav,0,poule,344,36,5,5,English,M,9,0.9,-83.67929995,1.39950728
5c2b9ce5b337310001996c05,48,0,2024-02-28T19:29:14.866Z,french_608.wav,0,poule,344,36,5,5,English,M,10,1.0,11.26047712,1.54288228
5c2b9ce5b337310001996c05,48,0,2024-02-28T19:29:14.866Z,french_608.wav,0,poule,344,36,5,5,English,M,11,1.1,-17.34118799,1.65188017
5c2b9ce5b337310001996c05,48,0,2024-02-28T19:29:14.866Z,french_608.wav,0,poule,344,36,5,5,English,M,12,1.14141667,58.61545887,0.6480034
5c2b9ce5b337310001996c05,49,0,2024-02-28T19:29:14.866Z,french_517.wav,0,pull,361,36,5,5,English,M,0,0.0,2.38244996,1.32997903
5c2b9ce5b337310001996c05,49,0,2024-02-28T19:29:14.866Z,french_517.wav,0,pull,361,36,5,5,English,M,1,0.1,-37.81840567,1.68452587
5c2b9ce5b337310001996c05,49,0,2024-02-28T19:29:14.866Z,french_517.wav,0,pull,361,36,5,5,English,M,2,0.2,-78.33811602,0.83936606
5c2b9ce5b337310001996c05,49,0,2024-02-28T19:29:14.866Z,french_517.wav,0,pull,361,36,5,5,English,M,3,0.3,50.26182329,0.89015853
5c2b9ce5b337310001996c05,49,0,2024-02-28T19:29:14.866Z,french_517.wav,0,pull,361,36,5,5,English,M,4,0.4,84.91055303,1.37002303
5c2b9ce5b337310001996c05,49,0,2024-02-28T19:29:14.866Z,french_517.wav,0,pull,361,36,5,5,English,M,5,0.5,89.35919119,0.14366637
5c2b9ce5b337310001996c05,49,0,2024-02-28T19:29:14.866Z,french_517.wav,0,pull,361,36,5,5,English,M,6,0.6,10.55033556,0.91107546
5c2b9ce5b337310001996c05,49,0,2024-02-28T19:29:14.866Z,french_517.wav,0,pull,361,36,5,5,English,M,7,0.7,-62.97285269,1.31587642
5c2b9ce5b337310001996c05,49,0,2024-02-28T19:29:14.866Z,french_517.wav,0,pull,361,36,5,5,English,M,8,0.8,27.87021553,0.94330464
5c2b9ce5b337310001996c05,49,0,2024-02-28T19:29:14.866Z,french_517.wav,0,pull,361,36,5,5,English,M,9,0.9,64.04470315,0.26569161
5c2b9ce5b337310001996c05,49,0,2024-02-28T19:29:14.866Z,french_517.wav,0,pull,361,36,5,5,English,M,10,1.0,53.97064719,0.58019556
5c2b9ce5b337310001996c05,49,0,2024-02-28T19:29:14.866Z,french_517.wav,0,pull,361,36,5,5,English,M,11,1.1,32.82263519,1.20336752
5c2b9ce5b337310001996c05,49,0,2024-02-28T19:29:14.866Z,french_517.wav,0,pull,361,36,5,5,English,M,12,1.14141667,-0.48515027,0.66075611
5c2b9ce5b337310001996c05,50,1,2024-02-28T19:33:45.761Z,french_472.wav,0,pull,672,36,5,5,English,M,0,0.0,-31.33353593,0.89232459
5c2b9ce5b337310001996c05,50,1,2024-02-28T19:33:45.761Z,french_472.wav,0,pull,672,36,5,5,English,M,1,0.1,-49.49917903,0.0337069
5c2b9ce5b337310001996c05,50,1,2024-02-28T19:33:45.761Z,french_472.wav,0,pull,672,36,5,5,English,M,2,0.2,-71.21753347,1.85491701
5c2b9ce5b337310001996c05,50,1,2024-02-28T19:33:45.761Z,french_472.wav,0,pull,672,36,5,5,English,M,3,0.3,93.90241079,1.04793629
5c2b9ce5b337310001996c05,50,1,2024-02-28T19:33:45.761Z,french_472.wav,0,pull,672,36,5,5,English,M,4,0.4,-15.9291914,0.66120859
5c2b9ce5b337310001996c05,50,1,2024-02-28T19:33:45.761Z,french_472.wav,0,pull,672,36,5,5,English,M,5,0.5,-17.91277509,1.31546264
5c2b9ce5b337310001996c05,50,1,2024-02-28T19:33:45.761Z,french_472.wav,0,pull,672,36,5,5,English,M,6,0.6,-92.82206414,0.75122354
5c2b9ce5b337310001996c05,50,1,2024-02-28T19:33:45.761Z,french_472.wav,0,pull,672,36,5,5,English,M,7,0.7,9.95802513,0.85681732
5c2b9ce5b337310001996c05,50,1,2024-02-28T19:33:45.761Z,french_472.wav,0,pull,672,36,5,5,English,M,8,0.8,2.63305448,1.03382488
5c2b9ce5b337310001996c05,50,1,2024-02-28T19:33:45.761Z,french_472.wav,0,pull,672,36,5,5,English,M,9,0.9,-21.84239236,0.59134372
5c2b9ce5b337310001996c05,50,1,2024-02-28T19:33:45.761Z,french_472.wav,0,pull,672,36,5,5,English,M,10,1.0,8.18231827,1.03865283
5c2b9ce5b337310001996c05,50,1,2024-02-28T19:33:45.761Z,french_472.wav,0,pull,672,36,5,5,English,M,11,1.1,-31.98207743,0.08528466
5c2b9ce5b337310001996c05,50,1,2024-02-28T19:33:45.761Z,french_472.wav,0,pull,672,36,5,5,English,M,12,1.14141667,-51.9330912,1.61155129
5c2b9ce5b337310001996c05,51,1,2024-02-28T19:33:45.761Z,french_237.wav,0,poule,544,36,5,5,English,M,0,0.0,31.70987786,1.31590513
5c2b9ce5b337310001996c05,51,1,2024-02-28T19:33:45.761Z,french_237.wav,0,poule,544,36,5,5,English,M,1,0.1,44.65820907,0.84112054
5c2b9ce5b337310001996c05,51,1,2024-02-28T19:33:45.761Z,french_237.wav,0,poule,544,36,5,5,English,M,2,0.2,13.3186434,0.69527524
5c2b9ce5b337310001996c05,51,1,2024-02-28T19:33:45.761Z,french_237.wav,0,poule,544,36,5,5,English,M,3,0.3,66.1783484,1.26135679
5c2b9ce5b337310001996c05,51,1,2024-02-28T19:33:45.761Z,french_237.wav,0,poule,544,36,5,5,English,M,4,0.4,9.82166226,1.98640285
5c2b9ce5b337310001996c05,51,1,2024-02-28T19:33:45.761Z,french_237.wav,0,poule,544,36,5,5,English,M,5,0.5,-28.83229096,0.12218975
5c2b9ce5b337310001996c05,51,1,2024-02-28T19:33:45.761Z,french_237.wav,0,poule,544,36,5,5,English,M,6,0.6,76.24548925,0.73409952
5c2b9ce5b337310001996c05,51,1,2024-02-28T19:33:45.761Z,french_237.wav,0,poule,544,36,5,5,English,M,7,0.7,34.63949689,1.11406015
5c2b9ce5b337310001996c05,51,1,2024-02-28T19:33:45.761Z,french_237.wav,0,poule,544,36,5,5,English,M,8,0.8,-48.33331205,1.16947058
5c2b9ce5b337310001996c05,51,1,2024-02-28T19:33:45.761Z,french_237.wav,0,poule,544,36,5,5,English,M,9,0.9,50.34000449,0.6556194
5c2b9ce5b337310001996c05,51,1,2024-02-28T19:33:45.761Z,french_237.wav,0,poule,544,36,5,5,English,M,10,1.0,49.76225002,1.40941557
5c2b9ce5b337310001996c05,51,1,2024-02-28T19:33:45.761Z,french_237.wav,0,poule,544,36,5,5,English,M,11,1.1,67.38211301,0.44515823
5c2b9ce5b337310001996c05,51,1,2024-02-28T19:33:45.761Z,french_237.wav,0,poule,544,36,5,5,English,M,12,1.14141667,80.88052333,0.0317855
5c2b9ce5b337310001996c05,52,1,2024-02-28T19:33:45.761Z,french_483.wav,0,poule,553,36,5,5,English,M,0,0.0,50.89359321,0.2476649
5c2b9ce5b337310001996c05,52,1,2024-02-28T19:33:45.761Z,french_483.wav,0,poule,553,36,5,5,English,M,1,0.1,67.76879412,1.0854265
5c2b9ce5b337310001996c05,52,1,2024-02-28T19:33:45.761Z,french_483.wav,0,poule,553,36,5,5,English,M,2,0.2,-81.54654368,0.81961479
5c2b9ce5b337310001996c05,52,1,2024-02-28T19:33:45.761Z,french_483.wav,0,poule,553,36,5,5,English,M,3,0.3,43.01535886,0.19337372
5c2b9ce5b337310001996c05,52,1,2024-02-28T19:33:45.761Z,french_483.wav,0,poule,553,36,5,5,English,M,4,0.4,70.5994589,1.4133999
5c2b9ce5b337310001996c05,52,1,2024-02-28T19:33:45.761Z,french_483.wav,0,poule,553,36,5,5,English,M,5,0.5,54.22966785,1.87052434
5c2b9ce5b337310001996c05,52,1,2024-02-28T19:33:45.761Z,french_483.wav,0,poule,553,36,5,5,English,M,6,0.6,63.66278597,1.18003603
5c2b9ce5b337310001996c05,52,1,2024-02-28T19:33:45.761Z,french_483.wav,0,poule,553,36,5,5,English,M,7,0.7,54.80881275,0.71997381
5c2b9ce5b337310001996c05,52,1,2024-02-28T19:33:45.761Z,french_483.wav,0,poule,553,36,5,5,English,M,8,0.8,-36.8716549,1.84179943
5c2b9ce5b337310001996c05,52,1,2024-02-28T19:33:45.761Z,french_483.wav,0,poule,553,36,5,5,English,M,9,0.9,-16.05414027,1.80548829
5c2b9ce5b337310001996c05,52,1,2024-02-28T19:33:45.761Z,french_483.wav,0,poule,553,36,5,5,English,M,10,1.0,26.79902818,1.35265762
5c2b9ce5b337310001996c05,52,1,2024-02-28T19:33:45.761Z,french_483.wav,0,poule,553,36,5,5,English,M,11,1.1,42.00785038,1.5454492
5c2b9ce5b337310001996c05,52,1,2024-02-28T19:33:45.761Z,french_483.wav,0,poule,553,36,5,5,English,M,12,1.14141667,-97.97546667,1.76672178
5c2b9ce5b337310001996c05,53,1,2024-02-28T19:33:45.761Z,french_640.wav,0,poule,631,36,5,5,English,M,0,0.0,-23.23499115,0.51826373
5c2b9ce5b337310001996c05,53,1,2024-02-28T19:33:45.761Z,french_640.wav,0,poule,631,36,5,5,English,M,1,0.1,-5.32274666,0.48541717
5c2b9ce5b337310001996c05,53,1,2024-02-28T19:33:45.761Z,french_640.wav,0,poule,631,36,5,5,English,M,2,0.2,-26.96491629,0.32572671
5c2b9ce5b337310001996c05,53,1,2024-02-28T19:33:45.761Z,french_640.wav,0,poule,631,36,5,5,English,M,3,0.3,-24.71578064,0.87356407
5c2b9ce5b337310001996c05,53,1,2024-02-28T19:33:45.761Z,french_640.wav,0,poule,631,36,5,5,English,M,4,0.4,4.92396133,0.06333599
5c2b9ce5b337310001996c05,53,1,2024-02-28T19:33:45.761Z,french_640.wav,0,poule,631,36,5,5,English,M,5,0.5,79.3437843,0.63173489
5c2b9ce5b337310001996c05,53,1,2024-02-28T19:33:45.761Z,french_640.wav,0,poule,631,36,5,5,English,M,6,0.6,-37.35644985,0.49522912
5c2b9ce5b337310001996c05,53,1,2024-02-28T19:33:45.761Z,french_640.wav,0,poule,631,36,5,5,English,M,7,0.7,90.7866094,1.48986997
5c2b9ce5b337310001996c05,53,1,2024-02-28T19:33:45.761Z,french_640.wav,0,poule,631,36,5,5,English,M,8,0.8,-21.5684971,1.18308083
5c2b9ce5b337310001996c05,53,1,2024-02-28T19:33:45.761Z,french_640.wav,0,poule,631,36,5,5,English,M,9,0.9,-3.17217866,1.04898469
5c2b9ce5b337310001996c05,53,1,2024-02-28T19:33:45.761Z,french_640.wav,0,poule,631,36,5,5,English,M,10,1.0,-53.51075281,1.09208336
5c2b9ce5b337310001996c05,53,1,2024-02-28T19:33:45.761Z,french_640.wav,0,poule,631,36,5,5,English,M,11,1.1,23.72364294,0.03972765
5c2b9ce5b337310001996c05,53,1,2024-02-28T19:33:45.761Z,french_640.wav,0,poule,631,36,5,5,English,M,12,1.14141667,-59.96309897,0.83305144
5c2b9ce5b337310001996c05,54,1,2024-02-28T19:33:45.761Z,french_518.wav,0,poule,631,36,5,5,English,M,0,0.0,27.38004062,1.68655308
5c2b9ce5b337310001996c05,54,1,2024-02-28T19:33:45.761Z,french_518.wav,0,poule,631,36,5,5,English,M,1,0.1,-45.86745423,0.51451051
5c2b9ce5b337310001996c05,54,1,2024-02-28T19:33:45.761Z,french_518.wav,0,poule,631,36,5,5,English,M,2,0.2,78.3464934,1.5831582
5c2b9ce5b337310001996c05,54,1,2024-02-28T19:33:45.761Z,french_518.wav,0,poule,631,36,5,5,English,M,3,0.3,-70.29897964,1.25854148
5c2b9ce5b337310001996c05,54,1,2024-02-28T19:33:45.761Z,french_518.wav,0,poule,631,36,5,5,English,M,4,0.4,86.14880636,0.9585938
5c2b9ce5b337310001996c05,54,1,2024-02-28T19:33:45.761Z,french_518.wav,0,poule,631,36,5,5,English,M,5,0.5,23.29865709,1.97703797
5c2b9ce5b337310001996c05,54,1,2024-02-28T19:33:45.761Z,french_518.wav,0,poule,631,36,5,5,English,M,6,0.6,-3.75390224,0.56549826
5c2b9ce5b337310001996c05,54,1,2024-02-28T19:33:45.761Z,french_518.wav,0,poule,631,36,5,5,English,M,7,0.7,83.8158198,0.40821292
5c2b9ce5b337310001996c05,54,1,2024-02-28T19:33:45.761Z,french_518.wav,0,poule,631,36,5,5,English,M,8,0.8,-21.16138564,1.37304062
5c2b9ce5b337310001996c05,54,1,2024-02-28T19:33:45.761Z,french_518.wav,0,poule,631,36,5,5,English,M,9,0.9,34.2611002,0.76155801
5c2b9ce5b337310001996c05,54,1,2024-02-28T19:33:45.761Z,french_518.wav,0,poule,631,36,5,5,English,M,10,1.0,41.52159769,0.54635275
5c2b9ce5b337310001996c05,54,1,2024-02-28T19:33:45.761Z,french_518.wav,0,poule,631,36,5,5,English,M,11,1.1,4.93006595,1.0861576
5c2b9ce5b337310001996c05,54,1,2024-02-28T19:33:45.761Z,french_518.wav,0,poule,631,36,5,5,English,M,12,1.14141667,78.89452488,1.48497475
5c2b9ce5b337310001996c05,55,1,2024-02-28T19:33:45.761Z,french_866.wav,0,pull,428,36,5,5,English,M,0,0.0,-74.48272892,0.05604521
5c2b9ce5b337310001996c05,55,1,2024-02-28T19:33:45.761Z,french_866.wav,0,pull,428,36,5,5,English,M,1,0.1,-3.325332,0.3442437
5c2b9ce5b337310001996c05,55,1,2024-02-28T19:33:45.761Z,french_866.wav,0,pull,428,36,5,5,English,M,2,0.2,44.03556359,0.52317916
5c2b9ce5b337310001996c05,55,1,2024-02-28T19:33:45.761Z,french_866.wav,0,pull,428,36,5,5,English,M,3,0.3,-90.00855988,1.52290836
5c2b9ce5b337310001996c05,55,1,2024-02-28T19:33:45.761Z,french_866.wav,0,pull,428,36,5,5,English,M,4,0.4,95.4115093,0.47551036
5c2b9ce5b337310001996c05,55,1,2024-02-28T19:33:45.761Z,french_866.wav,0,pull,428,36,5,5,English,M,5,0.5,48.47873323,0.56031323
5c2b9ce5b337310001996c05,55,1,2024-02-28T19:33:45.761Z,french_866.wav,0,pull,428,36,5,5,English,M,6,0.6,7.86523273,0.63842577
5c2b9ce5b337310001996c05,55,1,2024-02-28T19:33:45.761Z,french_866.wav,0,pull,428,36,5,5,English,M,7,0.7,78.21260838,1.48152306
5c2b9ce5b337310001996c05,55,1,2024-02-28T19:33:45.761Z,french_866.wav,0,pull,428,36,5,5,English,M,8,0.8,66.91391565,0.38501329
5c2b9ce5b337310001996c05,55,1,2024-02-28T19:33:45.761Z,french_866.wav,0,pull,428,36,5,5,English,M,9,0.9,21.69873169,0.68635955
5c2b9ce5b337310001996c05,55,1,2024-02-28T19:33:45.761Z,french_866.wav,0,pull,428,36,5,5,English,M,10,1.0,-58.03775714,1.77227289
5c2b9ce5b337310001996c05,55,1,2024-02-28T19:33:45.761Z,french_866.wav,0,pull,428,36,5,5,English,M,11,1.1,99.81207273,0.24826514
5c2b9ce5b337310001996c05,55,1,2024-02-28T19:33:45.761Z,french_866.wav,0,pull,428,36,5,5,English,M,12,1.14141667,-30.83024602,1.76047341
5c2b9ce5b337310001996c05,56,1,2024-02-28T19:33:45.761Z,french_436.wav,0,pull,1083,36,5,5,English,M,0,0.0,-88.6105585,1.07573924
5c2b9ce5b337310001996c05,56,1,2024-02-28T19:33:45.761Z,french_436.wav,0,pull,1083,36,5,5,English,M,1,0.1,-16.22122401,1.88781057
5c2b9ce5b337310001996c05,56,1,2024-02-28T19:33:45.761Z,french_436.wav,0,pull,1083,36,5,5,English,M,2,0.2,-3.49923583,1.26933634
5c2b9ce5b337310001996c05,56,1,2024-02-28T19:33:45.761Z,french_436.wav,0,pull,1083,36,5,5,English,M,3,0.3,-16.01802375,0.08671344
5c2b9ce5b337310001996c05,56,1,2024-02-28T19:33:45.761Z,french_436.wav,0,pull,1083,36,5,5,English,M,4,0.4,-58.39418693,0.65535741
5c2b9ce5b337310001996c05,56,1,2024-02-28T19:33:45.761Z,french_436.wav,0,pull,1083,36,5,5,English,M,5,0.5,-53.8564813,1.05284505
5c2b9ce5b337310001996c05,56,1,2024-02-28T19:33:45.761Z,french_436.wav,0,pull,1083,36,5,5,English,M,6,0.6,24.35754888,0.14070405
5c2b9ce5b337310001996c05,56,1,2024-02-28T19:33:45.761Z,french_436.wav,0,pull,1083,36,5,5,English,M,7,0.7,-50.18804261,0.38482967
5c2b9ce5b337310001996c05,56,1,2024-02-28T19:33:45.761Z,french_436.wav,0,pull,1083,36,5,5,English,M,8,0.8,55.18515934,1.2504881
5c2b9ce5b337310001996c05,56,1,2024-02-28T19:33:45.761Z,french_436.wav,0,pull,1083,36,5,5,English,M,9,0.9,-65.43663779,0.44304844
5c2b9ce5b337310001996c05,56,1,2024-02-28T19:33:45.761Z,french_436.wav,0,pull,1083,36,5,5,English,M,10,1.0,44.03721159,1.10568067
5c2b9ce5b337310001996c05,56,1,2024-02-28T19:33:45.761Z,french_436.wav,0,pull,1083,36,5,5,English,M,11,1.1,73.79038044,0.33165054
5c2b9ce5b337310001996c05,56,1,2024-02-28T19:33:45.761Z,french_436.wav,0,pull,1083,36,5,5,English,M,12,1.14141667,28.76066382,1.91057616
5c2b9ce5b337310001996c05,57,1,2024-02-28T19:33:45.761Z,french_924.wav,0,pull,704,36,5,5,English,M,0,0.0,72.37800689,0.62770252
5c2b9ce5b337310001996c05,57,1,2024-02-28T19:33:45.761Z,french_924.wav,0,pull,704,36,5,5,English,M,1,0.1,-27.48554384,0.98346343
5c2b9ce5b337310001996c05,57,1,2024-02-28T19:33:45.761Z,french_924.wav,0,pull,704,36,5,5,English,M,2,0.2,82.62685791,0.08960606
5c2b9ce5b337310001996c05,57,1,2024-02-28T19:33:45.761Z,french_924.wav,0,pull,704,36,5,5,English,M,3,0.3,4.6552297,0.6486922
5c2b9ce5b337310001996c05,57,1,2024-02-28T19:33:45.761Z,french_924.wav,0,pull,704,36,5,5,English,M,4,0.4,1.0091604,0.42903693
5c2b9ce5b337310001996c05,57,1,2024-02-28T19:33:45.761Z,french_924.wav,0,pull,704,36,5,5,English,M,5,0.5,9.77145997,0.5259433
5c2b9ce5b337310001996c05,57,1,2024-02-28T19:33:45.761Z,french_924.wav,0,pull,704,36,5,5,English,M,6,0.6,-30.30504644,0.95437601
5c2b9ce5b337310001996c05,57,1,2024-02-28T19:33:45.761Z,french_924.wav,0,pull,704,36,5,5,English,M,7,0.7,18.66076105,0.09270485
5c2b9ce5b337310001996c05,57,1,2024-02-28T19:33:45.761Z,french_924.wav,0,pull,704,36,5,5,English,M,8,0.8,87.54001747,1.04155974
5c2b9ce5b337310001996c05,57,1,2024-02-28T19:33:45.761Z,french_924.wav,0,pull,704,36,5,5,English,M,9,0.9,69.69438749,0.34754459
5c2b9ce5b337310001996c05,57,1,2024-02-28T19:33:45.761Z,french_924.wav,0,pull,704,36,5,5,English,M,10,1.0,-86.17437313,0.73375696
5c2b9ce5b337310001996c05,57,1,2024-02-28T19:33:45.761Z,french_924.wav,0,pull,704,36,5,5,English,M,11,1.1,50.9950292,1.64081341
5c2b9ce5b337310001996c05,57,1,2024-02-28T19:33:45.761Z,french_924.wav,0,pull,704,36,5,5,English,M,12,1.14141667,-65.22093317,0.11736926
5c2b9ce5b337310001996c05,58,1,2024-02-28T19:33:45.761Z,french_928.wav,0,pull,429,36,5,5,English,M,0,0.0,77.65399843,1.03949078
5c2b9ce5b337310001996c05,58,1,2024-02-28T19:33:45.761Z,french_928.wav,0,pull,429,36,5,5,English,M,1,0.1,-97.72027015,1.92124203
5c2b9ce5b337310001996c05,58,1,2024-02-28T19:33:45.761Z,french_928.wav,0,pull,429,36,5,5,English,M,2,0.2,15.0757151,1.05294339
5c2b9ce5b337310001996c05,58,1,2024-02-28T19:33:45.761Z,french_928.wav,0,pull,429,36,5,5,English,M,3,0.3,15.26895504,0.59065495
5c2b9ce5b337310001996c05,58,1,2024-02-28T19:33:45.761Z,french_928.wav,0,pull,429,36,5,5,English,M,4,0.4,92.50858123,1.60035035
5c2b9ce5b337310001996c05,58,1,2024-02-28T19:33:45.761Z,french_928.wav,0,pull,429,36,5,5,English,M,5,0.5,65.09104424,1.36447781
5c2b9ce5b337310001996c05,58,1,2024-02-28T19:33:45.761Z,french_928.wav,0,pull,429,36,5,5,English,M,6,0.6,-24.67043346,0.80047478
5c2b9ce5b337310001996c05,58,1,2024-02-28T19:33:45.761Z,french_928.wav,0,pull,429,36,5,5,English,M,7,0.7,66.07550104,1.4779592
5c2b9ce5b337310001996c05,58,1,2024-02-28T19:33:45.761Z,french_928.wav,0,pull,429,36,5,5,English,M,8,0.8,65.67415522,0.56691074
5c2b9ce5b337310001996c05,58,1,2024-02-28T19:33:45.761Z,french_928.wav,0,pull,429,36,5,5,English,M,9,0.9,43.73911132,1.10790743
5c2b9ce5b337310001996c05,58,1,2024-02-28T19:33:45.761Z,french_928.wav,0,pull,429,36,5,5,English,M,10,1.0,8.31494364,1.64403799
5c2b9ce5b337310001996c05,58,1,2024-02-28T19:33:45.761Z,french_928.wav,0,pull,429,36,5,5,English,M,11,1.1,88.37046435,1.51641494
5c2b9ce5b337310001996c05,58,1,2024-02-28T19:33:45.761Z,french_928.wav,0,pull,429,36,5,5,English,M,12,1.14141667,-13.7286056,1.14951782
5c2b9ce5b337310001996c05,59,1,2024-02-28T19:33:45.761Z,french_494.wav,0,pull,573,36,5,5,English,M,0,0.0,-63.06404362,1.09976962
5c2b9ce5b337310001996c05,59,1,2024-02-28T19:33:45.761Z,french_494.wav,0,pull,573,36,5,5,English,M,1,0.1,96.51347021,1.87842448
5c2b9ce5b337310001996c05,59,1,2024-02-28T19:33:45.761Z,french_494.wav,0,pull,573,36,5,5,English,M,2,0.2,-2.42253065,1.92383282
5c2b9ce5b337310001996c05,59,1,2024-02-28T19:33:45.761Z,french_494.wav,0,pull,573,36,5,5,English,M,3,0.3,-48.75339143,1.77831814
5c2b9ce5b337310001996c05,59,1,2024-02-28T19:33:45.761Z,french_494.wav,0,pull,573,36,5,5,English,M,4,0.4,-24.81746908,0.55991085
5c2b9ce5b337310001996c05,59,1,2024-02-28T19:33:45.761Z,french_494.wav,0,pull,573,36,5,5,English,M,5,0.5,48.2850129,1.16635493
5c2b9ce5b337310001996c05,59,1,2024-02-28T19:33:45.761Z,french_494.wav,0,pull,573,36,5,5,English,M,6,0.6,54.45085632,1.39460853
5c2b9ce5b337310001996c05,59,1,2024-02-28T19:33:45.761Z,french_494.wav,0,pull,573,36,5,5,English,M,7,0.7,-83.01359294,1.30103041
5c2b9ce5b337310001996c05,59,1,2024-02-28T19:33:45.761Z,french_494.wav,0,pull,573,36,5,5,English,M,8,0.8,-84.59229686,1.62563762
5c2b9ce5b337310001996c05,59,1,2024-02-28T19:33:45.761Z,french_494.wav,0,pull,573,36,5,5,English,M,9,0.9,-65.14189239,0.22506805
5c2b9ce5b337310001996c05,59,1,2024-02-28T19:33:45.761Z,french_494.wav,0,pull,573,36,5,5,English,M,10,1.0,-11.3391069,0.45947007
