subj,trial,block,date,stim,stim_order,response,rt,age,english,french,language,sex,param_index,segment,pitch,stretch
60fcd1e550bc02fc6cdef30e,0,0,2024-02-28T17:49:32.455Z,french_470.wav,0,poule,9979,23,5,3,English,f,0,0.0,-35.19014481,1.94208233
60fcd1e550bc02fc6cdef30e,0,0,2024-02-28T17:49:32.455Z,french_470.wav,0,poule,9979,23,5,3,English,f,1,0.1,-11.1101007,1.24726807
60fcd1e550bc02fc6cdef30e,0,0,2024-02-28T17:49:32.455Z,french_470.wav,0,poule,9979,23,5,3,English,f,2,0.2,-73.86570158,1.04117415
60fcd1e550bc02fc6cdef30e,0,0,2024-02-28T17:49:32.455Z,french_470.wav,0,poule,9979,23,5,3,English,f,3,0.3,-1.44470238,1.14948121
60fcd1e550bc02fc6cdef30e,0,0,2024-02-28T17:49:32.455Z,french_470.wav,0,poule,9979,23,5,3,English,f,4,0.4,-96.07839084,0.66081228
60fcd1e550bc02fc6cdef30e,0,0,2024-02-28T17:49:32.455Z,french_470.wav,0,poule,9979,23,5,3,English,f,5,0.5,70.99649813,0.84071929
60fcd1e550bc02fc6cdef30e,0,0,2024-02-28T17:49:32.455Z,french_470.wav,0,poule,9979,23,5,3,English,f,6,0.6,55.77361877,1.10459164
60fcd1e550bc02fc6cdef30e,0,0,2024-02-28T17:49:32.455Z,french_470.wav,0,poule,9979,23,5,3,English,f,7,0.7,-22.19728159,0.42902866
60fcd1e550bc02fc6cdef30e,0,0,2024-02-28T17:49:32.455Z,french_470.wav,0,poule,9979,23,5,3,English,f,8,0.8,-72.44437958,1.72163831
60fcd1e550bc02fc6cdef30e,0,0,2024-02-28T17:49:32.455Z,french_470.wav,0,poule,9979,23,5,3,English,f,9,0.9,80.41886886,1.68101907
60fcd1e550bc02fc6cdef30e,0,0,2024-02-28T17:49:32.455Z,french_470.wav,0,poule,9979,23,5,3,English,f,10,1.0,-11.71477961,0.03811178
60fcd1e550bc02fc6cdef30e,0,0,2024-02-28T17:49:32.455Z,french_470.wav,0,poule,9979,23,5,3,English,f,11,1.1,-62.42849441,1.9717108
60fcd1e550bc02fc6cdef30e,0,0,2024-02-28T17:49:32.455Z,french_470.wav,0,poule,9979,23,5,3,English,f,12,1.14141667,98.36646491,0.38277799
60fcd1e550bc02fc6cdef30e,1,0,2024-02-28T17:49:32.455Z,french_561.wav,0,pull,6911,23,5,3,English,f,0,0.0,67.40101017,0.645078
60fcd1e550bc02fc6cdef30e,1,0,2024-02-28T17:49:32.455Z,french_561.wav,0,pull,6911,23,5,3,English,f,1,0.1,36.60368445,0.26756066
60fcd1e550bc02fc6cdef30e,1,0,2024-02-28T17:49:32.455Z,french_561.wav,0,pull,6911,23,5,3,English,f,2,0.2,39.55672366,0.69254265
60fcd1e550bc02fc6cdef30e,1,0,2024-02-28T17:49:32.455Z,french_561.wav,0,pull,6911,23,5,3,English,f,3,0.3,54.30102721,1.32198922
60fcd1e550bc02fc6cdef30e,1,0,2024-02-28T17:49:32.455Z,french_561.wav,0,pull,6911,23,5,3,English,f,4,0.4,20.03392426,1.02700149
60fcd1e550bc02fc6cdef30e,1,0,2024-02-28T17:49:32.455Z,french_561.wav,0,pull,6911,23,5,3,English,f,5,0.5,-29.68246873,0.98226919
60fcd1e550bc02fc6cdef30e,1,0,2024-02-28T17:49:32.455Z,french_561.wav,0,pull,6911,23,5,3,English,f,6,0.6,22.40430281,0.81279805
60fcd1e550bc02fc6cdef30e,1,0,2024-02-28T17:49:32.455Z,french_561.wav,0,pull,6911,23,5,3,English,f,7,0.7,-74.48697664,0.24367369
60fcd1e550bc02fc6cdef30e,1,0,2024-02-28T17:49:32.455Z,french_561.wav,0,pull,6911,23,5,3,English,f,8,0.8,13.2806252,0.57451136
60fcd1e550bc02fc6cdef30e,1,0,2024-02-28T17:49:32.455Z,french_561.wav,0,pull,6911,23,5,3,English,f,9,0.9,44.09035723,0.58440629
60fcd1e550bc02fc6cdef30e,1,0,2024-02-28T17:49:32.455Z,french_561.wav,0,pull,6911,23,5,3,English,f,10,1.0,-8.48015654,1.65336997
60fcd1e550bc02fc6cdef30e,1,0,2024-02-28T17:49:32.455Z,french_561.wav,0,pull,6911,23,5,3,English,f,11,1.1,45.0458021,1.04192986
60fcd1e550bc02fc6cdef30e,1,0,2024-02-28T17:49:32.455Z,french_561.wav,0,pull,6911,23,5,3,English,f,12,1.14141667,-93.39742635,0.23712889
60fcd1e550bc02fc6cdef30e,2,0,2024-02-28T17:49:32.455Z,french_363.wav,0,poule,2730,23,5,3,English,f,0,0.0,-10.90000223,0.01988505
60fcd1e550bc02fc6cdef30e,2,0,2024-02-28T17:49:32.455Z,french_363.wav,0,poule,2730,23,5,3,English,f,1,0.1,-17.77890753,0.4157118
60fcd1e550bc02fc6cdef30e,2,0,2024-02-28T17:49:32.455Z,french_363.wav,0,poule,2730,23,5,3,English,f,2,0.2,88.87263959,1.34213765
60fcd1e550bc02fc6cdef30e,2,0,2024-02-28T17:49:32.455Z,french_363.wav,0,poule,2730,23,5,3,English,f,3,0.3,-43.08200188,1.89153857
60fcd1e550bc02fc6cdef30e,2,0,2024-02-28T17:49:32.455Z,french_363.wav,0,poule,2730,23,5,3,English,f,4,0.4,-3.71858938,0.45840361
60fcd1e550bc02fc6cdef30e,2,0,2024-02-28T17:49:32.455Z,french_363.wav,0,poule,2730,23,5,3,English,f,5,0.5,-38.27799499,1.00482351
60fcd1e550bc02fc6cdef30e,2,0,2024-02-28T17:49:32.455Z,french_363.wav,0,poule,2730,23,5,3,English,f,6,0.6,-45.64383698,1.53498487
60fcd1e550bc02fc6cdef30e,2,0,2024-02-28T17:49:32.455Z,french_363.wav,0,poule,2730,23,5,3,English,f,7,0.7,-33.85105354,0.84744486
60fcd1e550bc02fc6cdef30e,2,0,2024-02-28T17:49:32.455Z,french_363.wav,0,poule,2730,23,5,3,English,f,8,0.8,56.31466728,1.23553797
60fcd1e550bc02fc6cdef30e,2,0,2024-02-28T17:49:32.455Z,french_363.wav,0,poule,2730,23,5,3,English,f,9,0.9,-49.59267572,1.89573533
60fcd1e550bc02fc6cdef30e,2,0,2024-02-28T17:49:32.455Z,french_363.wav,0,poule,2730,23,5,3,English,f,10,1.0,-7.69975981,1.67231577
60fcd1e550bc02fc6cdef30e,2,0,2024-02-28T17:49:32.455Z,french_363.wav,0,poule,2730,23,5,3,English,f,11,1.1,62.19506455,0.727209
60fcd1e550bc02fc6cdef30e,2,0,2024-02-28T17:49:32.455Z,french_363.wav,0,poule,2730,23,5,3,English,f,12,1.14141667,75.53080132,1.05404819
60fcd1e550bc02fc6cdef30e,3,0,2024-02-28T17:49:32.455Z,french_241.wav,0,pull,1806,23,5,3,English,f,0,0.0,98.04166171,0.32485673
60fcd1e550bc02fc6cdef30e,3,0,2024-02-28T17:49:32.455Z,french_241.wav,0,pull,1806,23,5,3,English,f,1,0.1,6.16764543,1.24402989
60fcd1e550bc02fc6cdef30e,3,0,2024-02-28T17:49:32.455Z,french_241.wav,0,pull,1806,23,5,3,English,f,2,0.2,-42.8608234,0.94649821
60fcd1e550bc02fc6cdef30e,3,0,2024-02-28T17:49:32.455Z,french_241.wav,0,pull,1806,23,5,3,English,f,3,0.3,54.21216242,1.15369043
60fcd1e550bc02fc6cdef30e,3,0,2024-02-28T17:49:32.455Z,french_241.wav,0,pull,1806,23,5,3,English,f,4,0.4,-1.78367985,0.47784039
60fcd1e550bc02fc6cdef30e,3,0,2024-02-28T17:49:32.455Z,french_241.wav,0,pull,1806,23,5,3,English,f,5,0.5,-5.66820407,0.56378862
60fcd1e550bc02fc6cdef30e,3,0,2024-02-28T17:49:32.455Z,french_241.wav,0,pull,1806,23,5,3,English,f,6,0.6,54.13943684,0.47159963
60fcd1e550bc02fc6cdef30e,3,0,2024-02-28T17:49:32.455Z,french_241.wav,0,pull,1806,23,5,3,English,f,7,0.7,-80.00679133,1.76255958
60fcd1e550bc02fc6cdef30e,3,0,2024-02-28T17:49:32.455Z,french_241.wav,0,pull,1806,23,5,3,English,f,8,0.8,-44.25002722,0.64662376
60fcd1e550bc02fc6cdef30e,3,0,2024-02-28T17:49:32.455Z,french_241.wav,0,pull,1806,23,5,3,English,f,9,0.9,-63.06102871,1.1795317
60fcd1e550bc02fc6cdef30e,3,0,2024-02-28T17:49:32.455Z,french_241.wav,0,pull,1806,23,5,3,English,f,10,1.0,80.68342045,1.4030233
60fcd1e550bc02fc6cdef30e,3,0,2024-02-28T17:49:32.455Z,french_241.wav,0,pull,1806,23,5,3,English,f,11,1.1,4.33426609,0.53258498
60fcd1e550bc02fc6cdef30e,3,0,2024-02-28T17:49:32.455Z,french_241.wav,0,pull,1806,23,5,3,English,f,12,1.14141667,89.08058854,0.85759255
60fcd1e550bc02fc6cdef30e,4,0,2024-02-28T17:49:32.455Z,french_284.wav,0,pull,1869,23,5,3,English,f,0,0.0,16.48622703,0.51717934
60fcd1e550bc02fc6cdef30e,4,0,2024-02-28T17:49:32.455Z,french_284.wav,0,pull,1869,23,5,3,English,f,1,0.1,2.26495014,1.60229173
60fcd1e550bc02fc6cdef30e,4,0,2024-02-28T17:49:32.455Z,french_284.wav,0,pull,1869,23,5,3,English,f,2,0.2,18.12009667,1.8758053
60fcd1e550bc02fc6cdef30e,4,0,2024-02-28T17:49:32.455Z,french_284.wav,0,pull,1869,23,5,3,English,f,3,0.3,62.57261775,1.66078305
60fcd1e550bc02fc6cdef30e,4,0,2024-02-28T17:49:32.455Z,french_284.wav,0,pull,1869,23,5,3,English,f,4,0.4,38.21878831,0.36271544
60fcd1e550bc02fc6cdef30e,4,0,2024-02-28T17:49:32.455Z,french_284.wav,0,pull,1869,23,5,3,English,f,5,0.5,-10.58729406,0.67338252
60fcd1e550bc02fc6cdef30e,4,0,2024-02-28T17:49:32.455Z,french_284.wav,0,pull,1869,23,5,3,English,f,6,0.6,-28.71227124,0.95589202
60fcd1e550bc02fc6cdef30e,4,0,2024-02-28T17:49:32.455Z,french_284.wav,0,pull,1869,23,5,3,English,f,7,0.7,33.18992905,0.48081388
60fcd1e550bc02fc6cdef30e,4,0,2024-02-28T17:49:32.455Z,french_284.wav,0,pull,1869,23,5,3,English,f,8,0.8,42.51171858,1.37144398
60fcd1e550bc02fc6cdef30e,4,0,2024-02-28T17:49:32.455Z,french_284.wav,0,pull,1869,23,5,3,English,f,9,0.9,-0.53891245,0.67164097
60fcd1e550bc02fc6cdef30e,4,0,2024-02-28T17:49:32.455Z,french_284.wav,0,pull,1869,23,5,3,English,f,10,1.0,-90.42609214,0.62108777
60fcd1e550bc02fc6cdef30e,4,0,2024-02-28T17:49:32.455Z,french_284.wav,0,pull,1869,23,5,3,English,f,11,1.1,29.69063186,0.42350623
60fcd1e550bc02fc6cdef30e,4,0,2024-02-28T17:49:32.455Z,french_284.wav,0,pull,1869,23,5,3,English,f,12,1.14141667,74.07567772,1.43401958
60fcd1e550bc02fc6cdef30e,5,0,2024-02-28T17:49:32.455Z,french_900.wav,0,poule,2050,23,5,3,English,f,0,0.0,17.12559696,0.28086039
60fcd1e550bc02fc6cdef30e,5,0,2024-02-28T17:49:32.455Z,french_900.wav,0,poule,2050,23,5,3,English,f,1,0.1,-56.5671441,0.25898492
60fcd1e550bc02fc6cdef30e,5,0,2024-02-28T17:49:32.455Z,french_900.wav,0,poule,2050,23,5,3,English,f,2,0.2,14.51884338,0.73738281
60fcd1e550bc02fc6cdef30e,5,0,2024-02-28T17:49:32.455Z,french_900.wav,0,poule,2050,23,5,3,English,f,3,0.3,-18.58724125,0.53194872
60fcd1e550bc02fc6cdef30e,5,0,2024-02-28T17:49:32.455Z,french_900.wav,0,poule,2050,23,5,3,English,f,4,0.4,60.24825847,1.1731198
60fcd1e550bc02fc6cdef30e,5,0,2024-02-28T17:49:32.455Z,french_900.wav,0,poule,2050,23,5,3,English,f,5,0.5,37.11732505,1.44096814
60fcd1e550bc02fc6cdef30e,5,0,2024-02-28T17:49:32.455Z,french_900.wav,0,poule,2050,23,5,3,English,f,6,0.6,64.67645387,1.04426766
60fcd1e550bc02fc6cdef30e,5,0,2024-02-28T17:49:32.455Z,french_900.wav,0,poule,2050,23,5,3,English,f,7,0.7,-71.32739236,1.30561608
60fcd1e550bc02fc6cdef30e,5,0,2024-02-28T17:49:32.455Z,french_900.wav,0,poule,2050,23,5,3,English,f,8,0.8,-29.12352211,0.38583175
60fcd1e550bc02fc6cdef30e,5,0,2024-02-28T17:49:32.455Z,french_900.wav,0,poule,2050,23,5,3,English,f,9,0.9,-23.92624308,1.06522554
60fcd1e550bc02fc6cdef30e,5,0,2024-02-28T17:49:32.455Z,french_900.wav,0,poule,2050,23,5,3,English,f,10,1.0,-44.03405283,1.24631605
60fcd1e550bc02fc6cdef30e,5,0,2024-02-28T17:49:32.455Z,french_900.wav,0,poule,2050,23,5,3,English,f,11,1.1,-24.43123867,0.11257647
60fcd1e550bc02fc6cdef30e,5,0,2024-02-28T17:49:32.455Z,french_900.wav,0,poule,2050,23,5,3,English,f,12,1.14141667,85.71719888,1.16173008
60fcd1e550bc02fc6cdef30e,6,0,2024-02-28T17:49:32.455Z,french_657.wav,0,pull,1412,23,5,3,English,f,0,0.0,50.77155,0.21857213
60fcd1e550bc02fc6cdef30e,6,0,2024-02-28T17:49:32.455Z,french_657.wav,0,pull,1412,23,5,3,English,f,1,0.1,-88.44032236,0.77478754
60fcd1e550bc02fc6cdef30e,6,0,2024-02-28T17:49:32.455Z,french_657.wav,0,pull,1412,23,5,3,English,f,2,0.2,-16.35056241,1.07560701
60fcd1e550bc02fc6cdef30e,6,0,2024-02-28T17:49:32.455Z,french_657.wav,0,pull,1412,23,5,3,English,f,3,0.3,93.40705596,1.87026108
60fcd1e550bc02fc6cdef30e,6,0,2024-02-28T17:49:32.455Z,french_657.wav,0,pull,1412,23,5,3,English,f,4,0.4,-74.6789326,0.69300558
60fcd1e550bc02fc6cdef30e,6,0,2024-02-28T17:49:32.455Z,french_657.wav,0,pull,1412,23,5,3,English,f,5,0.5,-38.29324704,0.52433596
60fcd1e550bc02fc6cdef30e,6,0,2024-02-28T17:49:32.455Z,french_657.wav,0,pull,1412,23,5,3,English,f,6,0.6,32.78215282,1.52144011
60fcd1e550bc02fc6cdef30e,6,0,2024-02-28T17:49:32.455Z,french_657.wav,0,pull,1412,23,5,3,English,f,7,0.7,29.62203909,1.14086256
60fcd1e550bc02fc6cdef30e,6,0,2024-02-28T17:49:32.455Z,french_657.wav,0,pull,1412,23,5,3,English,f,8,0.8,-11.53531476,1.26545396
60fcd1e550bc02fc6cdef30e,6,0,2024-02-28T17:49:32.455Z,french_657.wav,0,pull,1412,23,5,3,English,f,9,0.9,57.1082223,1.92266532
60fcd1e550bc02fc6cdef30e,6,0,2024-02-28T17:49:32.455Z,french_657.wav,0,pull,1412,23,5,3,English,f,10,1.0,57.55501293,0.47482447
60fcd1e550bc02fc6cdef30e,6,0,2024-02-28T17:49:32.455Z,french_657.wav,0,pull,1412,23,5,3,English,f,11,1.1,34.6835129,0.15103677
60fcd1e550bc02fc6cdef30e,6,0,2024-02-28T17:49:32.455Z,french_657.wav,0,pull,1412,23,5,3,English,f,12,1.14141667,-93.64179673,1.64505221
60fcd1e550bc02fc6cdef30e,7,0,2024-02-28T17:49:32.455Z,french_173.wav,0,poule,1501,23,5,3,English,f,0,0.0,-46.66919298,1.63776861
60fcd1e550bc02fc6cdef30e,7,0,2024-02-28T17:49:32.455Z,french_173.wav,0,poule,1501,23,5,3,English,f,1,0.1,4.67484005,1.1956952
60fcd1e550bc02fc6cdef30e,7,0,2024-02-28T17:49:32.455Z,french_173.wav,0,poule,1501,23,5,3,English,f,2,0.2,80.83385661,0.9812403
60fcd1e550bc02fc6cdef30e,7,0,2024-02-28T17:49:32.455Z,french_173.wav,0,poule,1501,23,5,3,English,f,3,0.3,-50.45685435,0.93944254
60fcd1e550bc02fc6cdef30e,7,0,2024-02-28T17:49:32.455Z,french_173.wav,0,poule,1501,23,5,3,English,f,4,0.4,-62.49251948,1.366728
60fcd1e550bc02fc6cdef30e,7,0,2024-02-28T17:49:32.455Z,french_173.wav,0,poule,1501,23,5,3,English,f,5,0.5,-50.73769737,0.90395124
60fcd1e550bc02fc6cdef30e,7,0,2024-02-28T17:49:32.455Z,french_173.wav,0,poule,1501,23,5,3,English,f,6,0.6,97.55947113,0.64609469
60fcd1e550bc02fc6cdef30e,7,0,2024-02-28T17:49:32.455Z,french_173.wav,0,poule,1501,23,5,3,English,f,7,0.7,-68.25637207,1.42709177
60fcd1e550bc02fc6cdef30e,7,0,2024-02-28T17:49:32.455Z,french_173.wav,0,poule,1501,23,5,3,English,f,8,0.8,-22.42955904,1.40693544
60fcd1e550bc02fc6cdef30e,7,0,2024-02-28T17:49:32.455Z,french_173.wav,0,poule,1501,23,5,3,English,f,9,0.9,15.09984102,1.93881322
60fcd1e550bc02fc6cdef30e,7,0,2024-02-28T17:49:32.455Z,french_173.wav,0,poule,1501,23,5,3,English,f,10,1.0,-86.7117515,0.05946756
60fcd1e550bc02fc6cdef30e,7,0,2024-02-28T17:49:32.455Z,french_173.wav,0,poule,1501,23,5,3,English,f,11,1.1,-74.37334759,1.20565839
60fcd1e550bc02fc6cdef30e,7,0,2024-02-28T17:49:32.455Z,french_173.wav,0,poule,1501,23,5,3,English,f,12,1.14141667,71.31940753,1.30938607
60fcd1e550bc02fc6cdef30e,8,0,2024-02-28T17:49:32.455Z,french_659.wav,0,poule,1103,23,5,3,English,f,0,0.0,48.90062575,0.78276201
60fcd1e550bc02fc6cdef30e,8,0,2024-02-28T17:49:32.455Z,french_659.wav,0,poule,1103,23,5,3,English,f,1,0.1,-69.07148134,0.68861519
60fcd1e550bc02fc6cdef30e,8,0,2024-02-28T17:49:32.455Z,french_659.wav,0,poule,1103,23,5,3,English,f,2,0.2,-3.79784226,1.39122564
60fcd1e550bc02fc6cdef30e,8,0,2024-02-28T17:49:32.455Z,french_659.wav,0,poule,1103,23,5,3,English,f,3,0.3,-19.68077466,1.3824081
60fcd1e550bc02fc6cdef30e,8,0,2024-02-28T17:49:32.455Z,french_659.wav,0,poule,1103,23,5,3,English,f,4,0.4,-75.20346612,0.76200862
60fcd1e550bc02fc6cdef30e,8,0,2024-02-28T17:49:32.455Z,french_659.wav,0,poule,1103,23,5,3,English,f,5,0.5,-0.60792706,0.97964197
60fcd1e550bc02fc6cdef30e,8,0,2024-02-28T17:49:32.455Z,french_659.wav,0,poule,1103,23,5,3,English,f,6,0.6,-47.33415621,0.23275502
60fcd1e550bc02fc6cdef30e,8,0,2024-02-28T17:49:32.455Z,french_659.wav,0,poule,1103,23,5,3,English,f,7,0.7,16.4811279,0.02741707
60fcd1e550bc02fc6cdef30e,8,0,2024-02-28T17:49:32.455Z,french_659.wav,0,poule,1103,23,5,3,English,f,8,0.8,-17.31210465,0.38511578
60fcd1e550bc02fc6cdef30e,8,0,2024-02-28T17:49:32.455Z,french_659.wav,0,poule,1103,23,5,3,English,f,9,0.9,20.64222746,0.30541253
60fcd1e550bc02fc6cdef30e,8,0,2024-02-28T17:49:32.455Z,french_659.wav,0,poule,1103,23,5,3,English,f,10,1.0,-84.81869406,1.78035006
60fcd1e550bc02fc6cdef30e,8,0,2024-02-28T17:49:32.455Z,french_659.wav,0,poule,1103,23,5,3,English,f,11,1.1,51.19867418,1.15663372
60fcd1e550bc02fc6cdef30e,8,0,2024-02-28T17:49:32.455Z,french_659.wav,0,poule,1103,23,5,3,English,f,12,1.14141667,-21.12219149,0.69322275
60fcd1e550bc02fc6cdef30e,9,0,2024-02-28T17:49:32.455Z,french_978.wav,0,poule,1105,23,5,3,English,f,0,0.0,40.36214047,1.71110023
60fcd1e550bc02fc6cdef30e,9,0,2024-02-28T17:49:32.455Z,french_978.wav,0,poule,1105,23,5,3,English,f,1,0.1,27.48362985,0.87420818
60fcd1e550bc02fc6cdef30e,9,0,2024-02-28T17:49:32.455Z,french_978.wav,0,poule,1105,23,5,3,English,f,2,0.2,40.29852831,1.60194799
60fcd1e550bc02fc6cdef30e,9,0,2024-02-28T17:49:32.455Z,french_978.wav,0,poule,1105,23,5,3,English,f,3,0.3,-43.85061163,1.28609491
60fcd1e550bc02fc6cdef30e,9,0,2024-02-28T17:49:32.455Z,french_978.wav,0,poule,1105,23,5,3,English,f,4,0.4,67.88325766,1.65987261
60fcd1e550bc02fc6cdef30e,9,0,2024-02-28T17:49:32.455Z,french_978.wav,0,poule,1105,23,5,3,English,f,5,0.5,-16.70318953,1.36246258
60fcd1e550bc02fc6cdef30e,9,0,2024-02-28T17:49:32.455Z,french_978.wav,0,poule,1105,23,5,3,English,f,6,0.6,-33.19947882,1.20639467
60fcd1e550bc02fc6cdef30e,9,0,2024-02-28T17:49:32.455Z,french_978.wav,0,poule,1105,23,5,3,English,f,7,0.7,50.84300547,0.49083377
60fcd1e550bc02fc6cdef30e,9,0,2024-02-28T17:49:32.455Z,french_978.wav,0,poule,1105,23,5,3,English,f,8,0.8,85.59312257,0.35642981
60fcd1e550bc02fc6cdef30e,9,0,2024-02-28T17:49:32.455Z,french_978.wav,0,poule,1105,23,5,3,English,f,9,0.9,-72.45512146,1.25854162
60fcd1e550bc02fc6cdef30e,9,0,2024-02-28T17:49:32.455Z,french_978.wav,0,poule,1105,23,5,3,English,f,10,1.0,-13.92502552,1.89656772
60fcd1e550bc02fc6cdef30e,9,0,2024-02-28T17:49:32.455Z,french_978.wav,0,poule,1105,23,5,3,English,f,11,1.1,24.95517316,1.25997973
60fcd1e550bc02fc6cdef30e,9,0,2024-02-28T17:49:32.455Z,french_978.wav,0,poule,1105,23,5,3,English,f,12,1.14141667,-51.28447362,1.23391695
60fcd1e550bc02fc6cdef30e,10,0,2024-02-28T17:49:32.455Z,french_735.wav,0,poule,542,23,5,3,English,f,0,0.0,60.52400958,1.5599289
60fcd1e550bc02fc6cdef30e,10,0,2024-02-28T17:49:32.455Z,french_735.wav,0,poule,542,23,5,3,English,f,1,0.1,-17.91600836,0.29111111
60fcd1e550bc02fc6cdef30e,10,0,2024-02-28T17:49:32.455Z,french_735.wav,0,poule,542,23,5,3,English,f,2,0.2,-46.91299441,0.33864527
60fcd1e550bc02fc6cdef30e,10,0,2024-02-28T17:49:32.455Z,french_735.wav,0,poule,542,23,5,3,English,f,3,0.3,-30.29267527,1.13979288
60fcd1e550bc02fc6cdef30e,10,0,2024-02-28T17:49:32.455Z,french_735.wav,0,poule,542,23,5,3,English,f,4,0.4,83.45572609,1.3417947
60fcd1e550bc02fc6cdef30e,10,0,2024-02-28T17:49:32.455Z,french_735.wav,0,poule,542,23,5,3,English,f,5,0.5,18.59891183,0.20120288
60fcd1e550bc02fc6cdef30e,10,0,2024-02-28T17:49:32.455Z,french_735.wav,0,poule,542,23,5,3,English,f,6,0.6,-0.20062731,0.67247106
60fcd1e550bc02fc6cdef30e,10,0,2024-02-28T17:49:32.455Z,french_735.wav,0,poule,542,23,5,3,English,f,7,0.7,57.94821105,1.77306787
60fcd1e550bc02fc6cdef30e,10,0,2024-02-28T17:49:32.455Z,french_735.wav,0,poule,542,23,5,3,English,f,8,0.8,-62.87783799,0.23048887
60fcd1e550bc02fc6cdef30e,10,0,2024-02-28T17:49:32.455Z,french_735.wav,0,poule,542,23,5,3,English,f,9,0.9,58.4025126,1.53469278
60fcd1e550bc02fc6cdef30e,10,0,2024-02-28T17:49:32.455Z,french_735.wav,0,poule,542,23,5,3,English,f,10,1.0,41.21120949,1.04962427
60fcd1e550bc02fc6cdef30e,10,0,2024-02-28T17:49:32.455Z,french_735.wav,0,poule,542,23,5,3,English,f,11,1.1,-35.08644508,1.07883208
60fcd1e550bc02fc6cdef30e,10,0,2024-02-28T17:49:32.455Z,french_735.wav,0,poule,542,23,5,3,English,f,12,1.14141667,70.16707056,0.16131969
60fcd1e550bc02fc6cdef30e,11,0,2024-02-28T17:49:32.455Z,french_754.wav,0,pull,1103,23,5,3,English,f,0,0.0,-84.307761,1.73493973
60fcd1e550bc02fc6cdef30e,11,0,2024-02-28T17:49:32.455Z,french_754.wav,0,pull,1103,23,5,3,English,f,1,0.1,-47.62124767,1.3102964
60fcd1e550bc02fc6cdef30e,11,0,2024-02-28T17:49:32.455Z,french_754.wav,0,pull,1103,23,5,3,English,f,2,0.2,-12.79145766,0.59352597
60fcd1e550bc02fc6cdef30e,11,0,2024-02-28T17:49:32.455Z,french_754.wav,0,pull,1103,23,5,3,English,f,3,0.3,-31.8164057,1.7032681
60fcd1e550bc02fc6cdef30e,11,0,2024-02-28T17:49:32.455Z,french_754.wav,0,pull,1103,23,5,3,English,f,4,0.4,-8.66758057,0.18685858
60fcd1e550bc02fc6cdef30e,11,0,2024-02-28T17:49:32.455Z,french_754.wav,0,pull,1103,23,5,3,English,f,5,0.5,-39.98987583,0.87140851
60fcd1e550bc02fc6cdef30e,11,0,2024-02-28T17:49:32.455Z,french_754.wav,0,pull,1103,23,5,3,English,f,6,0.6,85.58862918,1.09552436
60fcd1e550bc02fc6cdef30e,11,0,2024-02-28T17:49:32.455Z,french_754.wav,0,pull,1103,23,5,3,English,f,7,0.7,28.85356743,0.38483895
60fcd1e550bc02fc6cdef30e,11,0,2024-02-28T17:49:32.455Z,french_754.wav,0,pull,1103,23,5,3,English,f,8,0.8,8.72964996,1.64570353
60fcd1e550bc02fc6cdef30e,11,0,2024-02-28T17:49:32.455Z,french_754.wav,0,pull,1103,23,5,3,English,f,9,0.9,-60.08793264,1.67708663
60fcd1e550bc02fc6cdef30e,11,0,2024-02-28T17:49:32.455Z,french_754.wav,0,pull,1103,23,5,3,English,f,10,1.0,51.79044132,0.3181758
60fcd1e550bc02fc6cdef30e,11,0,2024-02-28T17:49:32.455Z,french_754.wav,0,pull,1103,23,5,3,English,f,11,1.1,91.281273,0.66657575
60fcd1e550bc02fc6cdef30e,11,0,2024-02-28T17:49:32.455Z,french_754.wav,0,pull,1103,23,5,3,English,f,12,1.14141667,-82.03639439,1.25795178
60fcd1e550bc02fc6cdef30e,12,0,2024-02-28T17:49:32.455Z,french_84.wav,0,pull,1326,23,5,3,English,f,0,0.0,-96.37151913,0.66956982
60fcd1e550bc02fc6cdef30e,12,0,2024-02-28T17:49:32.455Z,french_84.wav,0,pull,1326,23,5,3,English,f,1,0.1,-51.32047359,0.87788838
60fcd1e550bc02fc6cdef30e,12,0,2024-02-28T17:49:32.455Z,french_84.wav,0,pull,1326,23,5,3,English,f,2,0.2,6.16674673,1.80968749
60fcd1e550bc02fc6cdef30e,12,0,2024-02-28T17:49:32.455Z,french_84.wav,0,pull,1326,23,5,3,English,f,3,0.3,-74.79812615,1.92619873
60fcd1e550bc02fc6cdef30e,12,0,2024-02-28T17:49:32.455Z,french_84.wav,0,pull,1326,23,5,3,English,f,4,0.4,72.70338153,0.19629773
60fcd1e550bc02fc6cdef30e,12,0,2024-02-28T17:49:32.455Z,french_84.wav,0,pull,1326,23,5,3,English,f,5,0.5,73.29646829,1.83630482
60fcd1e550bc02fc6cdef30e,12,0,2024-02-28T17:49:32.455Z,french_84.wav,0,pull,1326,23,5,3,English,f,6,0.6,58.46115838,1.73731066
60fcd1e550bc02fc6cdef30e,12,0,2024-02-28T17:49:32.455Z,french_84.wav,0,pull,1326,23,5,3,English,f,7,0.7,-88.22895489,0.02437314
60fcd1e550bc02fc6cdef30e,12,0,2024-02-28T17:49:32.455Z,french_84.wav,0,pull,1326,23,5,3,English,f,8,0.8,96.14628935,0.0262643
60fcd1e550bc02fc6cdef30e,12,0,2024-02-28T17:49:32.455Z,french_84.wav,0,pull,1326,23,5,3,English,f,9,0.9,-22.0220861,1.01003676
60fcd1e550bc02fc6cdef30e,12,0,2024-02-28T17:49:32.455Z,french_84.wav,0,pull,1326,23,5,3,English,f,10,1.0,-17.5351727,0.76011071
60fcd1e550bc02fc6cdef30e,12,0,2024-02-28T17:49:32.455Z,french_84.wav,0,pull,1326,23,5,3,English,f,11,1.1,70.12401617,1.03268267
60fcd1e550bc02fc6cdef30e,12,0,2024-02-28T17:49:32.455Z,french_84.wav,0,pull,1326,23,5,3,English,f,12,1.14141667,19.58806578,0.54269981
60fcd1e550bc02fc6cdef30e,13,0,2024-02-28T17:49:32.455Z,french_326.wav,0,pull,934,23,5,3,English,f,0,0.0,33.2240673,1.57377142
60fcd1e550bc02fc6cdef30e,13,0,2024-02-28T17:49:32.455Z,french_326.wav,0,pull,934,23,5,3,English,f,1,0.1,4.22517174,0.8823726
60fcd1e550bc02fc6cdef30e,13,0,2024-02-28T17:49:32.455Z,french_326.wav,0,pull,934,23,5,3,English,f,2,0.2,-40.15802905,1.03253402
60fcd1e550bc02fc6cdef30e,13,0,2024-02-28T17:49:32.455Z,french_326.wav,0,pull,934,23,5,3,English,f,3,0.3,76.34436149,1.1469021
60fcd1e550bc02fc6cdef30e,13,0,2024-02-28T17:49:32.455Z,french_326.wav,0,pull,934,23,5,3,English,f,4,0.4,79.59228699,0.89908004
60fcd1e550bc02fc6cdef30e,13,0,2024-02-28T17:49:32.455Z,french_326.wav,0,pull,934,23,5,3,English,f,5,0.5,62.60308162,1.27653111
60fcd1e550bc02fc6cdef30e,13,0,2024-02-28T17:49:32.455Z,french_326.wav,0,pull,934,23,5,3,English,f,6,0.6,-43.24864807,1.49634374
60fcd1e550bc02fc6cdef30e,13,0,2024-02-28T17:49:32.455Z,french_326.wav,0,pull,934,23,5,3,English,f,7,0.7,-34.58226958,1.09554095
60fcd1e550bc02fc6cdef30e,13,0,2024-02-28T17:49:32.455Z,french_326.wav,0,pull,934,23,5,3,English,f,8,0.8,94.59063038,1.19566866
60fcd1e550bc02fc6cdef30e,13,0,2024-02-28T17:49:32.455Z,french_326.wav,0,pull,934,23,5,3,English,f,9,0.9,89.37349944,0.827427
60fcd1e550bc02fc6cdef30e,13,0,2024-02-28T17:49:32.455Z,french_326.wav,0,pull,934,23,5,3,English,f,10,1.0,-44.64831514,0.30385796
60fcd1e550bc02fc6cdef30e,13,0,2024-02-28T17:49:32.455Z,french_326.wav,0,pull,934,23,5,3,English,f,11,1.1,-36.56024871,0.62284344
60fcd1e550bc02fc6cdef30e,13,0,2024-02-28T17:49:32.455Z,french_326.wav,0,pull,934,23,5,3,English,f,12,1.14141667,65.3737617,1.01572262
60fcd1e550bc02fc6cdef30e,14,0,2024-02-28T17:49:32.455Z,french_711.wav,0,pull,405,23,5,3,English,f,0,0.0,-57.68537639,1.14128003
60fcd1e550bc02fc6cdef30e,14,0,2024-02-28T17:49:32.455Z,french_711.wav,0,pull,405,23,5,3,English,f,1,0.1,80.50678374,0.65499836
60fcd1e550bc02fc6cdef30e,14,0,2024-02-28T17:49:32.455Z,french_711.wav,0,pull,405,23,5,3,English,f,2,0.2,62.08623359,0.36935793
60fcd1e550bc02fc6cdef30e,14,0,2024-02-28T17:49:32.455Z,french_711.wav,0,pull,405,23,5,3,English,f,3,0.3,-62.11963136,0.45944127
60fcd1e550bc02fc6cdef30e,14,0,2024-02-28T17:49:32.455Z,french_711.wav,0,pull,405,23,5,3,English,f,4,0.4,40.40813482,1.32957836
60fcd1e550bc02fc6cdef30e,14,0,2024-02-28T17:49:32.455Z,french_711.wav,0,pull,405,23,5,3,English,f,5,0.5,-1.99659726,1.01029199
60fcd1e550bc02fc6cdef30e,14,0,2024-02-28T17:49:32.455Z,french_711.wav,0,pull,405,23,5,3,English,f,6,0.6,-98.85876462,0.23624425
60fcd1e550bc02fc6cdef30e,14,0,2024-02-28T17:49:32.455Z,french_711.wav,0,pull,405,23,5,3,English,f,7,0.7,-17.60870607,0.5152401
60fcd1e550bc02fc6cdef30e,14,0,2024-02-28T17:49:32.455Z,french_711.wav,0,pull,405,23,5,3,English,f,8,0.8,-73.6406844,0.82690989
60fcd1e550bc02fc6cdef30e,14,0,2024-02-28T17:49:32.455Z,french_711.wav,0,pull,405,23,5,3,English,f,9,0.9,0.13542401,0.52689837
60fcd1e550bc02fc6cdef30e,14,0,2024-02-28T17:49:32.455Z,french_711.wav,0,pull,405,23,5,3,English,f,10,1.0,58.10369401,1.52596161
60fcd1e550bc02fc6cdef30e,14,0,2024-02-28T17:49:32.455Z,french_711.wav,0,pull,405,23,5,3,English,f,11,1.1,-38.91466215,1.06260355
60fcd1e550bc02fc6cdef30e,14,0,2024-02-28T17:49:32.455Z,french_711.wav,0,pull,405,23,5,3,English,f,12,1.14141667,22.73847208,0.37076623
60fcd1e550bc02fc6cdef30e,15,0,2024-02-28T17:49:32.455Z,french_450.wav,0,pull,522,23,5,3,English,f,0,0.0,4.70184188,1.04621454
60fcd1e550bc02fc6cdef30e,15,0,2024-02-28T17:49:32.455Z,french_450.wav,0,pull,522,23,5,3,English,f,1,0.1,-11.95880563,1.88376194
60fcd1e550bc02fc6cdef30e,15,0,2024-02-28T17:49:32.455Z,french_450.wav,0,pull,522,23,5,3,English,f,2,0.2,53.61985122,0.0064492
60fcd1e550bc02fc6cdef30e,15,0,2024-02-28T17:49:32.455Z,french_450.wav,0,pull,522,23,5,3,English,f,3,0.3,-85.38293737,1.74804206
60fcd1e550bc02fc6cdef30e,15,0,2024-02-28T17:49:32.455Z,french_450.wav,0,pull,522,23,5,3,English,f,4,0.4,81.03787429,1.15618938
60fcd1e550bc02fc6cdef30e,15,0,2024-02-28T17:49:32.455Z,french_450.wav,0,pull,522,23,5,3,English,f,5,0.5,60.88142029,0.18145745
60fcd1e550bc02fc6cdef30e,15,0,2024-02-28T17:49:32.455Z,french_450.wav,0,pull,522,23,5,3,English,f,6,0.6,51.15998741,0.89151946
60fcd1e550bc02fc6cdef30e,15,0,2024-02-28T17:49:32.455Z,french_450.wav,0,pull,522,23,5,3,English,f,7,0.7,2.81982788,0.09457117
60fcd1e550bc02fc6cdef30e,15,0,2024-02-28T17:49:32.455Z,french_450.wav,0,pull,522,23,5,3,English,f,8,0.8,-20.49721325,1.37408158
60fcd1e550bc02fc6cdef30e,15,0,2024-02-28T17:49:32.455Z,french_450.wav,0,pull,522,23,5,3,English,f,9,0.9,53.84768168,0.40754462
60fcd1e550bc02fc6cdef30e,15,0,2024-02-28T17:49:32.455Z,french_450.wav,0,pull,522,23,5,3,English,f,10,1.0,98.5663088,0.43615901
60fcd1e550bc02fc6cdef30e,15,0,2024-02-28T17:49:32.455Z,french_450.wav,0,pull,522,23,5,3,English,f,11,1.1,-49.53483504,0.56531873
60fcd1e550bc02fc6cdef30e,15,0,2024-02-28T17:49:32.455Z,french_450.wav,0,pull,522,23,5,3,English,f,12,1.14141667,-65.90212965,0.12479989
60fcd1e550bc02fc6cdef30e,16,0,2024-02-28T17:49:32.455Z,french_588.wav,0,poule,609,23,5,3,English,f,0,0.0,80.11124336,0.91903139
60fcd1e550bc02fc6cdef30e,16,0,2024-02-28T17:49:32.455Z,french_588.wav,0,poule,609,23,5,3,English,f,1,0.1,-9.60415228,1.75302379
60fcd1e550bc02fc6cdef30e,16,0,2024-02-28T17:49:32.455Z,french_588.wav,0,poule,609,23,5,3,English,f,2,0.2,-98.33491382,1.95019279
60fcd1e550bc02fc6cdef30e,16,0,2024-02-28T17:49:32.455Z,french_588.wav,0,poule,609,23,5,3,English,f,3,0.3,-16.26514488,0.86486634
60fcd1e550bc02fc6cdef30e,16,0,2024-02-28T17:49:32.455Z,french_588.wav,0,poule,609,23,5,3,English,f,4,0.4,-90.16609663,0.04555032
60fcd1e550bc02fc6cdef30e,16,0,2024-02-28T17:49:32.455Z,french_588.wav,0,poule,609,23,5,3,English,f,5,0.5,-6.08584828,0.65069663
60fcd1e550bc02fc6cdef30e,16,0,2024-02-28T17:49:32.455Z,french_588.wav,0,poule,609,23,5,3,English,f,6,0.6,-25.80594889,0.87516436
60fcd1e550bc02fc6cdef30e,16,0,2024-02-28T17:49:32.455Z,french_588.wav,0,poule,609,23,5,3,English,f,7,0.7,-25.08652089,0.98178697
60fcd1e550bc02fc6cdef30e,16,0,2024-02-28T17:49:32.455Z,french_588.wav,0,poule,609,23,5,3,English,f,8,0.8,-98.80611815,1.45894707
60fcd1e550bc02fc6cdef30e,16,0,2024-02-28T17:49:32.455Z,french_588.wav,0,poule,609,23,5,3,English,f,9,0.9,17.08532713,1.15328594
60fcd1e550bc02fc6cdef30e,16,0,2024-02-28T17:49:32.455Z,french_588.wav,0,poule,609,23,5,3,English,f,10,1.0,0.80863561,0.14560994
60fcd1e550bc02fc6cdef30e,16,0,2024-02-28T17:49:32.455Z,french_588.wav,0,poule,609,23,5,3,English,f,11,1.1,-86.5783891,1.58594883
60fcd1e550bc02fc6cdef30e,16,0,2024-02-28T17:49:32.455Z,french_588.wav,0,poule,609,23,5,3,English,f,12,1.14141667,-56.09457121,1.71291016
60fcd1e550bc02fc6cdef30e,17,0,2024-02-28T17:49:32.455Z,french_520.wav,0,poule,598,23,5,3,English,f,0,0.0,54.59631185,1.78597268
60fcd1e550bc02fc6cdef30e,17,0,2024-02-28T17:49:32.455Z,french_520.wav,0,poule,598,23,5,3,English,f,1,0.1,-18.71306674,0.74285754
60fcd1e550bc02fc6cdef30e,17,0,2024-02-28T17:49:32.455Z,french_520.wav,0,poule,598,23,5,3,English,f,2,0.2,71.20328592,1.19325047
60fcd1e550bc02fc6cdef30e,17,0,2024-02-28T17:49:32.455Z,french_520.wav,0,poule,598,23,5,3,English,f,3,0.3,-11.6397205,0.1474075
60fcd1e550bc02fc6cdef30e,17,0,2024-02-28T17:49:32.455Z,french_520.wav,0,poule,598,23,5,3,English,f,4,0.4,16.59314513,0.42865605
60fcd1e550bc02fc6cdef30e,17,0,2024-02-28T17:49:32.455Z,french_520.wav,0,poule,598,23,5,3,English,f,5,0.5,89.51821443,0.10037667
60fcd1e550bc02fc6cdef30e,17,0,2024-02-28T17:49:32.455Z,french_520.wav,0,poule,598,23,5,3,English,f,6,0.6,8.22538685,0.90555866
60fcd1e550bc02fc6cdef30e,17,0,2024-02-28T17:49:32.455Z,french_520.wav,0,poule,598,23,5,3,English,f,7,0.7,99.6824518,0.8436254
60fcd1e550bc02fc6cdef30e,17,0,2024-02-28T17:49:32.455Z,french_520.wav,0,poule,598,23,5,3,English,f,8,0.8,6.88409597,0.04116239
60fcd1e550bc02fc6cdef30e,17,0,2024-02-28T17:49:32.455Z,french_520.wav,0,poule,598,23,5,3,English,f,9,0.9,-67.19157404,1.43483218
60fcd1e550bc02fc6cdef30e,17,0,2024-02-28T17:49:32.455Z,french_520.wav,0,poule,598,23,5,3,English,f,10,1.0,72.30648841,0.75741096
60fcd1e550bc02fc6cdef30e,17,0,2024-02-28T17:49:32.455Z,french_520.wav,0,poule,598,23,5,3,English,f,11,1.1,-93.79261589,1.45404445
60fcd1e550bc02fc6cdef30e,17,0,2024-02-28T17:49:32.455Z,french_520.wav,0,poule,598,23,5,3,English,f,12,1.14141667,-78.36877444,0.95774315
60fcd1e550bc02fc6cdef30e,18,0,2024-02-28T17:49:32.455Z,french_426.wav,0,poule,280,23,5,3,English,f,0,0.0,-6.32763113,1.69747545
60fcd1e550bc02fc6cdef30e,18,0,2024-02-28T17:49:32.455Z,french_426.wav,0,poule,280,23,5,3,English,f,1,0.1,52.57695115,0.44356632
60fcd1e550bc02fc6cdef30e,18,0,2024-02-28T17:49:32.455Z,french_426.wav,0,poule,280,23,5,3,English,f,2,0.2,41.60389797,0.19149228
60fcd1e550bc02fc6cdef30e,18,0,2024-02-28T17:49:32.455Z,french_426.wav,0,poule,280,23,5,3,English,f,3,0.3,-8.66153644,0.04934427
60fcd1e550bc02fc6cdef30e,18,0,2024-02-28T17:49:32.455Z,french_426.wav,0,poule,280,23,5,3,English,f,4,0.4,21.98741159,1.95400703
60fcd1e550bc02fc6cdef30e,18,0,2024-02-28T17:49:32.455Z,french_426.wav,0,poule,280,23,5,3,English,f,5,0.5,7.59234245,0.49820864
60fcd1e550bc02fc6cdef30e,18,0,2024-02-28T17:49:32.455Z,french_426.wav,0,poule,280,23,5,3,English,f,6,0.6,70.82755328,0.51266747
60fcd1e550bc02fc6cdef30e,18,0,2024-02-28T17:49:32.455Z,french_426.wav,0,poule,280,23,5,3,English,f,7,0.7,17.66979404,1.86795174
60fcd1e550bc02fc6cdef30e,18,0,2024-02-28T17:49:32.455Z,french_426.wav,0,poule,280,23,5,3,English,f,8,0.8,-65.60181314,1.30935529
60fcd1e550bc02fc6cdef30e,18,0,2024-02-28T17:49:32.455Z,french_426.wav,0,poule,280,23,5,3,English,f,9,0.9,-44.40728826,0.05861012
60fcd1e550bc02fc6cdef30e,18,0,2024-02-28T17:49:32.455Z,french_426.wav,0,poule,280,23,5,3,English,f,10,1.0,-52.60669598,1.40782227
60fcd1e550bc02fc6cdef30e,18,0,2024-02-28T17:49:32.455Z,french_426.wav,0,poule,280,23,5,3,English,f,11,1.1,-70.77145759,1.0203891
60fcd1e550bc02fc6cdef30e,18,0,2024-02-28T17:49:32.455Z,french_426.wav,0,poule,280,23,5,3,English,f,12,1.14141667,-30.0338136,1.4169691
60fcd1e550bc02fc6cdef30e,19,0,2024-02-28T17:49:32.455Z,french_436.wav,0,pull,316,23,5,3,English,f,0,0.0,-88.6105585,1.07573924
60fcd1e550bc02fc6cdef30e,19,0,2024-02-28T17:49:32.455Z,french_436.wav,0,pull,316,23,5,3,English,f,1,0.1,-16.22122401,1.88781057
60fcd1e550bc02fc6cdef30e,19,0,2024-02-28T17:49:32.455Z,french_436.wav,0,pull,316,23,5,3,English,f,2,0.2,-3.49923583,1.26933634
60fcd1e550bc02fc6cdef30e,19,0,2024-02-28T17:49:32.455Z,french_436.wav,0,pull,316,23,5,3,English,f,3,0.3,-16.01802375,0.08671344
60fcd1e550bc02fc6cdef30e,19,0,2024-02-28T17:49:32.455Z,french_436.wav,0,pull,316,23,5,3,English,f,4,0.4,-58.39418693,0.65535741
60fcd1e550bc02fc6cdef30e,19,0,2024-02-28T17:49:32.455Z,french_436.wav,0,pull,316,23,5,3,English,f,5,0.5,-53.8564813,1.05284505
60fcd1e550bc02fc6cdef30e,19,0,2024-02-28T17:49:32.455Z,french_436.wav,0,pull,316,23,5,3,English,f,6,0.6,24.35754888,0.14070405
60fcd1e550bc02fc6cdef30e,19,0,2024-02-28T17:49:32.455Z,french_436.wav,0,pull,316,23,5,3,English,f,7,0.7,-50.18804261,0.38482967
60fcd1e550bc02fc6cdef30e,19,0,2024-02-28T17:49:32.455Z,french_436.wav,0,pull,316,23,5,3,English,f,8,0.8,55.18515934,1.2504881
60fcd1e550bc02fc6cdef30e,19,0,2024-02-28T17:49:32.455Z,french_436.wav,0,pull,316,23,5,3,English,f,9,0.9,-65.43663779,0.44304844
60fcd1e550bc02fc6cdef30e,19,0,2024-02-28T17:49:32.455Z,french_436.wav,0,pull,316,23,5,3,English,f,10,1.0,44.03721159,1.10568067
60fcd1e550bc02fc6cdef30e,19,0,2024-02-28T17:49:32.455Z,french_436.wav,0,pull,316,23,5,3,English,f,11,1.1,73.79038044,0.33165054
60fcd1e550bc02fc6cdef30e,19,0,2024-02-28T17:49:32.455Z,french_436.wav,0,pull,316,23,5,3,English,f,12,1.14141667,28.76066382,1.91057616
60fcd1e550bc02fc6cdef30e,20,0,2024-02-28T17:49:32.455Z,french_419.wav,0,poule,473,23,5,3,English,f,0,0.0,40.58520075,0.58190194
60fcd1e550bc02fc6cdef30e,20,0,2024-02-28T17:49:32.455Z,french_419.wav,0,poule,473,23,5,3,English,f,1,0.1,70.57222365,0.48424411
60fcd1e550bc02fc6cdef30e,20,0,2024-02-28T17:49:32.455Z,french_419.wav,0,poule,473,23,5,3,English,f,2,0.2,69.27547246,1.14946849
60fcd1e550bc02fc6cdef30e,20,0,2024-02-28T17:49:32.455Z,french_419.wav,0,poule,473,23,5,3,English,f,3,0.3,13.01026316,1.05002848
60fcd1e550bc02fc6cdef30e,20,0,2024-02-28T17:49:32.455Z,french_419.wav,0,poule,473,23,5,3,English,f,4,0.4,-86.96432775,0.56529053
60fcd1e550bc02fc6cdef30e,20,0,2024-02-28T17:49:32.455Z,french_419.wav,0,poule,473,23,5,3,English,f,5,0.5,-28.12777227,1.42245746
60fcd1e550bc02fc6cdef30e,20,0,2024-02-28T17:49:32.455Z,french_419.wav,0,poule,473,23,5,3,English,f,6,0.6,-77.3052971,0.39921231
60fcd1e550bc02fc6cdef30e,20,0,2024-02-28T17:49:32.455Z,french_419.wav,0,poule,473,23,5,3,English,f,7,0.7,-4.39988688,0.67389644
60fcd1e550bc02fc6cdef30e,20,0,2024-02-28T17:49:32.455Z,french_419.wav,0,poule,473,23,5,3,English,f,8,0.8,-13.43420627,0.69782841
60fcd1e550bc02fc6cdef30e,20,0,2024-02-28T17:49:32.455Z,french_419.wav,0,poule,473,23,5,3,English,f,9,0.9,-18.15540347,1.51600011
60fcd1e550bc02fc6cdef30e,20,0,2024-02-28T17:49:32.455Z,french_419.wav,0,poule,473,23,5,3,English,f,10,1.0,-15.3428643,0.91352501
60fcd1e550bc02fc6cdef30e,20,0,2024-02-28T17:49:32.455Z,french_419.wav,0,poule,473,23,5,3,English,f,11,1.1,-79.03113674,1.39266727
60fcd1e550bc02fc6cdef30e,20,0,2024-02-28T17:49:32.455Z,french_419.wav,0,poule,473,23,5,3,English,f,12,1.14141667,-15.39593272,0.36520872
60fcd1e550bc02fc6cdef30e,21,0,2024-02-28T17:49:32.455Z,french_280.wav,0,poule,123,23,5,3,English,f,0,0.0,63.30706177,0.51067849
60fcd1e550bc02fc6cdef30e,21,0,2024-02-28T17:49:32.455Z,french_280.wav,0,poule,123,23,5,3,English,f,1,0.1,92.39258817,0.94358364
60fcd1e550bc02fc6cdef30e,21,0,2024-02-28T17:49:32.455Z,french_280.wav,0,poule,123,23,5,3,English,f,2,0.2,-13.48987657,0.25640873
60fcd1e550bc02fc6cdef30e,21,0,2024-02-28T17:49:32.455Z,french_280.wav,0,poule,123,23,5,3,English,f,3,0.3,-67.72828589,0.58771016
60fcd1e550bc02fc6cdef30e,21,0,2024-02-28T17:49:32.455Z,french_280.wav,0,poule,123,23,5,3,English,f,4,0.4,-32.88602624,1.52289813
60fcd1e550bc02fc6cdef30e,21,0,2024-02-28T17:49:32.455Z,french_280.wav,0,poule,123,23,5,3,English,f,5,0.5,-21.74757727,1.41394509
60fcd1e550bc02fc6cdef30e,21,0,2024-02-28T17:49:32.455Z,french_280.wav,0,poule,123,23,5,3,English,f,6,0.6,-67.91477632,1.11303104
60fcd1e550bc02fc6cdef30e,21,0,2024-02-28T17:49:32.455Z,french_280.wav,0,poule,123,23,5,3,English,f,7,0.7,-71.89099465,1.98467364
60fcd1e550bc02fc6cdef30e,21,0,2024-02-28T17:49:32.455Z,french_280.wav,0,poule,123,23,5,3,English,f,8,0.8,-96.77863544,0.54349304
60fcd1e550bc02fc6cdef30e,21,0,2024-02-28T17:49:32.455Z,french_280.wav,0,poule,123,23,5,3,English,f,9,0.9,-70.31079297,0.98875815
60fcd1e550bc02fc6cdef30e,21,0,2024-02-28T17:49:32.455Z,french_280.wav,0,poule,123,23,5,3,English,f,10,1.0,-73.46248332,1.32929539
60fcd1e550bc02fc6cdef30e,21,0,2024-02-28T17:49:32.455Z,french_280.wav,0,poule,123,23,5,3,English,f,11,1.1,-28.24261777,0.86616119
60fcd1e550bc02fc6cdef30e,21,0,2024-02-28T17:49:32.455Z,french_280.wav,0,poule,123,23,5,3,English,f,12,1.14141667,19.33217049,0.54483998
60fcd1e550bc02fc6cdef30e,22,0,2024-02-28T17:51:32.283Z,french_483.wav,0,poule,294,23,5,3,English,f,0,0.0,50.89359321,0.2476649
60fcd1e550bc02fc6cdef30e,22,0,2024-02-28T17:51:32.283Z,french_483.wav,0,poule,294,23,5,3,English,f,1,0.1,67.76879412,1.0854265
60fcd1e550bc02fc6cdef30e,22,0,2024-02-28T17:51:32.283Z,french_483.wav,0,poule,294,23,5,3,English,f,2,0.2,-81.54654368,0.81961479
60fcd1e550bc02fc6cdef30e,22,0,2024-02-28T17:51:32.283Z,french_483.wav,0,poule,294,23,5,3,English,f,3,0.3,43.01535886,0.19337372
60fcd1e550bc02fc6cdef30e,22,0,2024-02-28T17:51:32.283Z,french_483.wav,0,poule,294,23,5,3,English,f,4,0.4,70.5994589,1.4133999
60fcd1e550bc02fc6cdef30e,22,0,2024-02-28T17:51:32.283Z,french_483.wav,0,poule,294,23,5,3,English,f,5,0.5,54.22966785,1.87052434
60fcd1e550bc02fc6cdef30e,22,0,2024-02-28T17:51:32.283Z,french_483.wav,0,poule,294,23,5,3,English,f,6,0.6,63.66278597,1.18003603
60fcd1e550bc02fc6cdef30e,22,0,2024-02-28T17:51:32.283Z,french_483.wav,0,poule,294,23,5,3,English,f,7,0.7,54.80881275,0.71997381
60fcd1e550bc02fc6cdef30e,22,0,2024-02-28T17:51:32.283Z,french_483.wav,0,poule,294,23,5,3,English,f,8,0.8,-36.8716549,1.84179943
60fcd1e550bc02fc6cdef30e,22,0,2024-02-28T17:51:32.283Z,french_483.wav,0,poule,294,23,5,3,English,f,9,0.9,-16.05414027,1.80548829
60fcd1e550bc02fc6cdef30e,22,0,2024-02-28T17:51:32.283Z,french_483.wav,0,poule,294,23,5,3,English,f,10,1.0,26.79902818,1.35265762
60fcd1e550bc02fc6cdef30e,22,0,2024-02-28T17:51:32.283Z,french_483.wav,0,poule,294,23,5,3,English,f,11,1.1,42.00785038,1.5454492
60fcd1e550bc02fc6cdef30e,22,0,2024-02-28T17:51:32.283Z,french_483.wav,0,poule,294,23,5,3,English,f,12,1.14141667,-97.97546667,1.76672178
60fcd1e550bc02fc6cdef30e,23,0,2024-02-28T17:51:32.283Z,french_708.wav,0,pull,1039,23,5,3,English,f,0,0.0,-84.32075665,0.145315
60fcd1e550bc02fc6cdef30e,23,0,2024-02-28T17:51:32.283Z,french_708.wav,0,pull,1039,23,5,3,English,f,1,0.1,-90.17684716,0.08552736
60fcd1e550bc02fc6cdef30e,23,0,2024-02-28T17:51:32.283Z,french_708.wav,0,pull,1039,23,5,3,English,f,2,0.2,-72.90155055,1.2667449
60fcd1e550bc02fc6cdef30e,23,0,2024-02-28T17:51:32.283Z,french_708.wav,0,pull,1039,23,5,3,English,f,3,0.3,-65.4180474,0.89572221
60fcd1e550bc02fc6cdef30e,23,0,2024-02-28T17:51:32.283Z,french_708.wav,0,pull,1039,23,5,3,English,f,4,0.4,-30.04110866,0.95885194
60fcd1e550bc02fc6cdef30e,23,0,2024-02-28T17:51:32.283Z,french_708.wav,0,pull,1039,23,5,3,English,f,5,0.5,39.18281852,0.7904969
60fcd1e550bc02fc6cdef30e,23,0,2024-02-28T17:51:32.283Z,french_708.wav,0,pull,1039,23,5,3,English,f,6,0.6,48.81909862,0.45133511
60fcd1e550bc02fc6cdef30e,23,0,2024-02-28T17:51:32.283Z,french_708.wav,0,pull,1039,23,5,3,English,f,7,0.7,17.72071727,0.98870688
60fcd1e550bc02fc6cdef30e,23,0,2024-02-28T17:51:32.283Z,french_708.wav,0,pull,1039,23,5,3,English,f,8,0.8,58.29409041,0.58111582
60fcd1e550bc02fc6cdef30e,23,0,2024-02-28T17:51:32.283Z,french_708.wav,0,pull,1039,23,5,3,English,f,9,0.9,47.29598888,0.53990602
60fcd1e550bc02fc6cdef30e,23,0,2024-02-28T17:51:32.283Z,french_708.wav,0,pull,1039,23,5,3,English,f,10,1.0,34.02381028,0.73597457
60fcd1e550bc02fc6cdef30e,23,0,2024-02-28T17:51:32.283Z,french_708.wav,0,pull,1039,23,5,3,English,f,11,1.1,-77.84616196,0.61967524
60fcd1e550bc02fc6cdef30e,23,0,2024-02-28T17:51:32.283Z,french_708.wav,0,pull,1039,23,5,3,English,f,12,1.14141667,40.78872619,0.80423968
60fcd1e550bc02fc6cdef30e,24,0,2024-02-28T17:51:32.283Z,french_471.wav,0,poule,171,23,5,3,English,f,0,0.0,41.83391715,1.67349399
60fcd1e550bc02fc6cdef30e,24,0,2024-02-28T17:51:32.283Z,french_471.wav,0,poule,171,23,5,3,English,f,1,0.1,-76.96843168,0.59594788
60fcd1e550bc02fc6cdef30e,24,0,2024-02-28T17:51:32.283Z,french_471.wav,0,poule,171,23,5,3,English,f,2,0.2,-8.95205146,0.21651802
60fcd1e550bc02fc6cdef30e,24,0,2024-02-28T17:51:32.283Z,french_471.wav,0,poule,171,23,5,3,English,f,3,0.3,23.54279346,1.46166629
60fcd1e550bc02fc6cdef30e,24,0,2024-02-28T17:51:32.283Z,french_471.wav,0,poule,171,23,5,3,English,f,4,0.4,-15.91458067,0.64159162
60fcd1e550bc02fc6cdef30e,24,0,2024-02-28T17:51:32.283Z,french_471.wav,0,poule,171,23,5,3,English,f,5,0.5,-62.29566062,1.70672832
60fcd1e550bc02fc6cdef30e,24,0,2024-02-28T17:51:32.283Z,french_471.wav,0,poule,171,23,5,3,English,f,6,0.6,-10.03907701,1.06314921
60fcd1e550bc02fc6cdef30e,24,0,2024-02-28T17:51:32.283Z,french_471.wav,0,poule,171,23,5,3,English,f,7,0.7,28.86778795,0.77270182
60fcd1e550bc02fc6cdef30e,24,0,2024-02-28T17:51:32.283Z,french_471.wav,0,poule,171,23,5,3,English,f,8,0.8,41.41175946,1.60583208
60fcd1e550bc02fc6cdef30e,24,0,2024-02-28T17:51:32.283Z,french_471.wav,0,poule,171,23,5,3,English,f,9,0.9,-29.16663325,0.6103897
60fcd1e550bc02fc6cdef30e,24,0,2024-02-28T17:51:32.283Z,french_471.wav,0,poule,171,23,5,3,English,f,10,1.0,-67.59158679,1.4211614
60fcd1e550bc02fc6cdef30e,24,0,2024-02-28T17:51:32.283Z,french_471.wav,0,poule,171,23,5,3,English,f,11,1.1,-87.94197707,0.92479557
60fcd1e550bc02fc6cdef30e,24,0,2024-02-28T17:51:32.283Z,french_471.wav,0,poule,171,23,5,3,English,f,12,1.14141667,-62.10245378,0.63214451
60fcd1e550bc02fc6cdef30e,25,0,2024-02-28T17:51:32.283Z,french_934.wav,0,pull,370,23,5,3,English,f,0,0.0,40.53181797,0.21292602
60fcd1e550bc02fc6cdef30e,25,0,2024-02-28T17:51:32.283Z,french_934.wav,0,pull,370,23,5,3,English,f,1,0.1,-79.79622597,0.44319206
60fcd1e550bc02fc6cdef30e,25,0,2024-02-28T17:51:32.283Z,french_934.wav,0,pull,370,23,5,3,English,f,2,0.2,21.49735674,1.24358812
60fcd1e550bc02fc6cdef30e,25,0,2024-02-28T17:51:32.283Z,french_934.wav,0,pull,370,23,5,3,English,f,3,0.3,-55.73934916,1.8690662
60fcd1e550bc02fc6cdef30e,25,0,2024-02-28T17:51:32.283Z,french_934.wav,0,pull,370,23,5,3,English,f,4,0.4,23.20661572,0.54697535
60fcd1e550bc02fc6cdef30e,25,0,2024-02-28T17:51:32.283Z,french_934.wav,0,pull,370,23,5,3,English,f,5,0.5,41.97074765,1.30478826
60fcd1e550bc02fc6cdef30e,25,0,2024-02-28T17:51:32.283Z,french_934.wav,0,pull,370,23,5,3,English,f,6,0.6,52.27145184,0.63048123
60fcd1e550bc02fc6cdef30e,25,0,2024-02-28T17:51:32.283Z,french_934.wav,0,pull,370,23,5,3,English,f,7,0.7,93.05733645,0.02951906
60fcd1e550bc02fc6cdef30e,25,0,2024-02-28T17:51:32.283Z,french_934.wav,0,pull,370,23,5,3,English,f,8,0.8,-66.29005128,0.85764237
60fcd1e550bc02fc6cdef30e,25,0,2024-02-28T17:51:32.283Z,french_934.wav,0,pull,370,23,5,3,English,f,9,0.9,33.10891926,0.24417151
60fcd1e550bc02fc6cdef30e,25,0,2024-02-28T17:51:32.283Z,french_934.wav,0,pull,370,23,5,3,English,f,10,1.0,32.34405322,0.30221595
60fcd1e550bc02fc6cdef30e,25,0,2024-02-28T17:51:32.283Z,french_934.wav,0,pull,370,23,5,3,English,f,11,1.1,-79.37829408,0.36799269
60fcd1e550bc02fc6cdef30e,25,0,2024-02-28T17:51:32.283Z,french_934.wav,0,pull,370,23,5,3,English,f,12,1.14141667,-10.98356943,0.09235364
60fcd1e550bc02fc6cdef30e,26,0,2024-02-28T17:51:32.283Z,french_427.wav,0,pull,299,23,5,3,English,f,0,0.0,-48.41701503,1.56219766
60fcd1e550bc02fc6cdef30e,26,0,2024-02-28T17:51:32.283Z,french_427.wav,0,pull,299,23,5,3,English,f,1,0.1,-28.57986094,0.39739554
60fcd1e550bc02fc6cdef30e,26,0,2024-02-28T17:51:32.283Z,french_427.wav,0,pull,299,23,5,3,English,f,2,0.2,0.90581005,1.12963232
60fcd1e550bc02fc6cdef30e,26,0,2024-02-28T17:51:32.283Z,french_427.wav,0,pull,299,23,5,3,English,f,3,0.3,19.09912814,0.41932749
60fcd1e550bc02fc6cdef30e,26,0,2024-02-28T17:51:32.283Z,french_427.wav,0,pull,299,23,5,3,English,f,4,0.4,82.05766861,1.84938579
60fcd1e550bc02fc6cdef30e,26,0,2024-02-28T17:51:32.283Z,french_427.wav,0,pull,299,23,5,3,English,f,5,0.5,24.08835826,0.65577454
60fcd1e550bc02fc6cdef30e,26,0,2024-02-28T17:51:32.283Z,french_427.wav,0,pull,299,23,5,3,English,f,6,0.6,-34.07004387,0.57976152
60fcd1e550bc02fc6cdef30e,26,0,2024-02-28T17:51:32.283Z,french_427.wav,0,pull,299,23,5,3,English,f,7,0.7,8.41664997,0.37472164
60fcd1e550bc02fc6cdef30e,26,0,2024-02-28T17:51:32.283Z,french_427.wav,0,pull,299,23,5,3,English,f,8,0.8,-13.86702556,1.58587157
60fcd1e550bc02fc6cdef30e,26,0,2024-02-28T17:51:32.283Z,french_427.wav,0,pull,299,23,5,3,English,f,9,0.9,-78.75947492,1.60768303
60fcd1e550bc02fc6cdef30e,26,0,2024-02-28T17:51:32.283Z,french_427.wav,0,pull,299,23,5,3,English,f,10,1.0,-67.25519612,1.23344585
60fcd1e550bc02fc6cdef30e,26,0,2024-02-28T17:51:32.283Z,french_427.wav,0,pull,299,23,5,3,English,f,11,1.1,33.54583234,0.58083121
60fcd1e550bc02fc6cdef30e,26,0,2024-02-28T17:51:32.283Z,french_427.wav,0,pull,299,23,5,3,English,f,12,1.14141667,98.61757136,0.87170503
60fcd1e550bc02fc6cdef30e,27,0,2024-02-28T17:51:32.283Z,french_524.wav,0,poule,407,23,5,3,English,f,0,0.0,55.00709732,0.25824769
60fcd1e550bc02fc6cdef30e,27,0,2024-02-28T17:51:32.283Z,french_524.wav,0,poule,407,23,5,3,English,f,1,0.1,-23.89661715,0.7249448
60fcd1e550bc02fc6cdef30e,27,0,2024-02-28T17:51:32.283Z,french_524.wav,0,poule,407,23,5,3,English,f,2,0.2,-10.76576396,0.42763347
60fcd1e550bc02fc6cdef30e,27,0,2024-02-28T17:51:32.283Z,french_524.wav,0,poule,407,23,5,3,English,f,3,0.3,-89.98073457,1.41980414
60fcd1e550bc02fc6cdef30e,27,0,2024-02-28T17:51:32.283Z,french_524.wav,0,poule,407,23,5,3,English,f,4,0.4,90.47688198,1.5691433
60fcd1e550bc02fc6cdef30e,27,0,2024-02-28T17:51:32.283Z,french_524.wav,0,poule,407,23,5,3,English,f,5,0.5,-26.69479883,0.22636254
60fcd1e550bc02fc6cdef30e,27,0,2024-02-28T17:51:32.283Z,french_524.wav,0,poule,407,23,5,3,English,f,6,0.6,-13.51692626,1.34650289
60fcd1e550bc02fc6cdef30e,27,0,2024-02-28T17:51:32.283Z,french_524.wav,0,poule,407,23,5,3,English,f,7,0.7,46.79530299,0.32537739
60fcd1e550bc02fc6cdef30e,27,0,2024-02-28T17:51:32.283Z,french_524.wav,0,poule,407,23,5,3,English,f,8,0.8,46.57964201,1.48093397
60fcd1e550bc02fc6cdef30e,27,0,2024-02-28T17:51:32.283Z,french_524.wav,0,poule,407,23,5,3,English,f,9,0.9,-91.36020491,0.90980305
60fcd1e550bc02fc6cdef30e,27,0,2024-02-28T17:51:32.283Z,french_524.wav,0,poule,407,23,5,3,English,f,10,1.0,-81.359929,1.68039469
60fcd1e550bc02fc6cdef30e,27,0,2024-02-28T17:51:32.283Z,french_524.wav,0,poule,407,23,5,3,English,f,11,1.1,91.07291396,0.19928147
60fcd1e550bc02fc6cdef30e,27,0,2024-02-28T17:51:32.283Z,french_524.wav,0,poule,407,23,5,3,English,f,12,1.14141667,40.78169996,0.80241369
60fcd1e550bc02fc6cdef30e,28,0,2024-02-28T17:51:32.283Z,french_584.wav,0,poule,337,23,5,3,English,f,0,0.0,-53.64248655,1.38891122
60fcd1e550bc02fc6cdef30e,28,0,2024-02-28T17:51:32.283Z,french_584.wav,0,poule,337,23,5,3,English,f,1,0.1,87.73837185,0.52599003
60fcd1e550bc02fc6cdef30e,28,0,2024-02-28T17:51:32.283Z,french_584.wav,0,poule,337,23,5,3,English,f,2,0.2,-76.07432913,0.86644444
60fcd1e550bc02fc6cdef30e,28,0,2024-02-28T17:51:32.283Z,french_584.wav,0,poule,337,23,5,3,English,f,3,0.3,-82.64271669,0.7067956
60fcd1e550bc02fc6cdef30e,28,0,2024-02-28T17:51:32.283Z,french_584.wav,0,poule,337,23,5,3,English,f,4,0.4,95.13100452,0.85039222
60fcd1e550bc02fc6cdef30e,28,0,2024-02-28T17:51:32.283Z,french_584.wav,0,poule,337,23,5,3,English,f,5,0.5,0.46314255,1.91311542
60fcd1e550bc02fc6cdef30e,28,0,2024-02-28T17:51:32.283Z,french_584.wav,0,poule,337,23,5,3,English,f,6,0.6,84.32306812,1.87701513
60fcd1e550bc02fc6cdef30e,28,0,2024-02-28T17:51:32.283Z,french_584.wav,0,poule,337,23,5,3,English,f,7,0.7,-11.04836818,0.4258787
60fcd1e550bc02fc6cdef30e,28,0,2024-02-28T17:51:32.283Z,french_584.wav,0,poule,337,23,5,3,English,f,8,0.8,-2.39275169,1.64061013
60fcd1e550bc02fc6cdef30e,28,0,2024-02-28T17:51:32.283Z,french_584.wav,0,poule,337,23,5,3,English,f,9,0.9,-87.18946495,0.64403551
60fcd1e550bc02fc6cdef30e,28,0,2024-02-28T17:51:32.283Z,french_584.wav,0,poule,337,23,5,3,English,f,10,1.0,31.75007249,0.40232597
60fcd1e550bc02fc6cdef30e,28,0,2024-02-28T17:51:32.283Z,french_584.wav,0,poule,337,23,5,3,English,f,11,1.1,-75.12996198,1.36523835
60fcd1e550bc02fc6cdef30e,28,0,2024-02-28T17:51:32.283Z,french_584.wav,0,poule,337,23,5,3,English,f,12,1.14141667,89.37224699,1.64588011
60fcd1e550bc02fc6cdef30e,29,0,2024-02-28T17:51:32.283Z,french_587.wav,0,poule,397,23,5,3,English,f,0,0.0,-23.10151834,0.66297152
60fcd1e550bc02fc6cdef30e,29,0,2024-02-28T17:51:32.283Z,french_587.wav,0,poule,397,23,5,3,English,f,1,0.1,73.96187404,0.83081239
60fcd1e550bc02fc6cdef30e,29,0,2024-02-28T17:51:32.283Z,french_587.wav,0,poule,397,23,5,3,English,f,2,0.2,-36.92313799,1.04778095
60fcd1e550bc02fc6cdef30e,29,0,2024-02-28T17:51:32.283Z,french_587.wav,0,poule,397,23,5,3,English,f,3,0.3,-49.18419378,0.81483732
60fcd1e550bc02fc6cdef30e,29,0,2024-02-28T17:51:32.283Z,french_587.wav,0,poule,397,23,5,3,English,f,4,0.4,62.41576627,1.5428737
60fcd1e550bc02fc6cdef30e,29,0,2024-02-28T17:51:32.283Z,french_587.wav,0,poule,397,23,5,3,English,f,5,0.5,50.48984241,0.5491045
60fcd1e550bc02fc6cdef30e,29,0,2024-02-28T17:51:32.283Z,french_587.wav,0,poule,397,23,5,3,English,f,6,0.6,-36.48125396,0.38093132
60fcd1e550bc02fc6cdef30e,29,0,2024-02-28T17:51:32.283Z,french_587.wav,0,poule,397,23,5,3,English,f,7,0.7,49.40629833,0.06101614
60fcd1e550bc02fc6cdef30e,29,0,2024-02-28T17:51:32.283Z,french_587.wav,0,poule,397,23,5,3,English,f,8,0.8,9.88525734,0.87218615
60fcd1e550bc02fc6cdef30e,29,0,2024-02-28T17:51:32.283Z,french_587.wav,0,poule,397,23,5,3,English,f,9,0.9,3.79133085,1.80491798
60fcd1e550bc02fc6cdef30e,29,0,2024-02-28T17:51:32.283Z,french_587.wav,0,poule,397,23,5,3,English,f,10,1.0,26.22699337,1.12003779
60fcd1e550bc02fc6cdef30e,29,0,2024-02-28T17:51:32.283Z,french_587.wav,0,poule,397,23,5,3,English,f,11,1.1,38.90906104,1.11770584
60fcd1e550bc02fc6cdef30e,29,0,2024-02-28T17:51:32.283Z,french_587.wav,0,poule,397,23,5,3,English,f,12,1.14141667,68.80148374,1.81736967
60fcd1e550bc02fc6cdef30e,30,0,2024-02-28T17:51:32.283Z,french_114.wav,0,poule,354,23,5,3,English,f,0,0.0,-35.09107546,1.64361874
60fcd1e550bc02fc6cdef30e,30,0,2024-02-28T17:51:32.283Z,french_114.wav,0,poule,354,23,5,3,English,f,1,0.1,-5.47329432,1.29823223
60fcd1e550bc02fc6cdef30e,30,0,2024-02-28T17:51:32.283Z,french_114.wav,0,poule,354,23,5,3,English,f,2,0.2,3.98573797,0.36696172
60fcd1e550bc02fc6cdef30e,30,0,2024-02-28T17:51:32.283Z,french_114.wav,0,poule,354,23,5,3,English,f,3,0.3,-47.62284681,1.16226127
60fcd1e550bc02fc6cdef30e,30,0,2024-02-28T17:51:32.283Z,french_114.wav,0,poule,354,23,5,3,English,f,4,0.4,82.14364966,0.10053768
60fcd1e550bc02fc6cdef30e,30,0,2024-02-28T17:51:32.283Z,french_114.wav,0,poule,354,23,5,3,English,f,5,0.5,-32.65904716,0.87309344
60fcd1e550bc02fc6cdef30e,30,0,2024-02-28T17:51:32.283Z,french_114.wav,0,poule,354,23,5,3,English,f,6,0.6,-22.23511926,0.71903263
60fcd1e550bc02fc6cdef30e,30,0,2024-02-28T17:51:32.283Z,french_114.wav,0,poule,354,23,5,3,English,f,7,0.7,-23.16234577,1.41784103
60fcd1e550bc02fc6cdef30e,30,0,2024-02-28T17:51:32.283Z,french_114.wav,0,poule,354,23,5,3,English,f,8,0.8,-96.52187538,0.12726315
60fcd1e550bc02fc6cdef30e,30,0,2024-02-28T17:51:32.283Z,french_114.wav,0,poule,354,23,5,3,English,f,9,0.9,64.66721217,1.64513167
60fcd1e550bc02fc6cdef30e,30,0,2024-02-28T17:51:32.283Z,french_114.wav,0,poule,354,23,5,3,English,f,10,1.0,-55.15761345,1.50029657
60fcd1e550bc02fc6cdef30e,30,0,2024-02-28T17:51:32.283Z,french_114.wav,0,poule,354,23,5,3,English,f,11,1.1,-25.58064499,0.27707799
60fcd1e550bc02fc6cdef30e,30,0,2024-02-28T17:51:32.283Z,french_114.wav,0,poule,354,23,5,3,English,f,12,1.14141667,0.78156721,0.38617878
60fcd1e550bc02fc6cdef30e,31,0,2024-02-28T17:51:32.283Z,french_455.wav,0,pull,635,23,5,3,English,f,0,0.0,97.23318518,1.42070847
60fcd1e550bc02fc6cdef30e,31,0,2024-02-28T17:51:32.283Z,french_455.wav,0,pull,635,23,5,3,English,f,1,0.1,48.08639517,1.64728295
60fcd1e550bc02fc6cdef30e,31,0,2024-02-28T17:51:32.283Z,french_455.wav,0,pull,635,23,5,3,English,f,2,0.2,61.8031045,0.52625226
60fcd1e550bc02fc6cdef30e,31,0,2024-02-28T17:51:32.283Z,french_455.wav,0,pull,635,23,5,3,English,f,3,0.3,44.32636259,1.94807365
60fcd1e550bc02fc6cdef30e,31,0,2024-02-28T17:51:32.283Z,french_455.wav,0,pull,635,23,5,3,English,f,4,0.4,63.17767598,1.27082443
60fcd1e550bc02fc6cdef30e,31,0,2024-02-28T17:51:32.283Z,french_455.wav,0,pull,635,23,5,3,English,f,5,0.5,-54.41448708,0.79589507
60fcd1e550bc02fc6cdef30e,31,0,2024-02-28T17:51:32.283Z,french_455.wav,0,pull,635,23,5,3,English,f,6,0.6,-53.53900017,1.19859135
60fcd1e550bc02fc6cdef30e,31,0,2024-02-28T17:51:32.283Z,french_455.wav,0,pull,635,23,5,3,English,f,7,0.7,-49.92334627,0.85657153
60fcd1e550bc02fc6cdef30e,31,0,2024-02-28T17:51:32.283Z,french_455.wav,0,pull,635,23,5,3,English,f,8,0.8,90.53366068,0.02054138
60fcd1e550bc02fc6cdef30e,31,0,2024-02-28T17:51:32.283Z,french_455.wav,0,pull,635,23,5,3,English,f,9,0.9,-49.34840938,0.22486809
60fcd1e550bc02fc6cdef30e,31,0,2024-02-28T17:51:32.283Z,french_455.wav,0,pull,635,23,5,3,English,f,10,1.0,-93.62757111,0.86410151
60fcd1e550bc02fc6cdef30e,31,0,2024-02-28T17:51:32.283Z,french_455.wav,0,pull,635,23,5,3,English,f,11,1.1,76.94440904,0.57262843
60fcd1e550bc02fc6cdef30e,31,0,2024-02-28T17:51:32.283Z,french_455.wav,0,pull,635,23,5,3,English,f,12,1.14141667,-12.7256322,1.52956366
60fcd1e550bc02fc6cdef30e,32,0,2024-02-28T17:51:32.283Z,french_655.wav,0,poule,265,23,5,3,English,f,0,0.0,22.05732479,1.22083149
60fcd1e550bc02fc6cdef30e,32,0,2024-02-28T17:51:32.283Z,french_655.wav,0,poule,265,23,5,3,English,f,1,0.1,-7.34283646,0.90628978
60fcd1e550bc02fc6cdef30e,32,0,2024-02-28T17:51:32.283Z,french_655.wav,0,poule,265,23,5,3,English,f,2,0.2,-16.71216694,0.64111829
60fcd1e550bc02fc6cdef30e,32,0,2024-02-28T17:51:32.283Z,french_655.wav,0,poule,265,23,5,3,English,f,3,0.3,82.87197114,0.38986932
60fcd1e550bc02fc6cdef30e,32,0,2024-02-28T17:51:32.283Z,french_655.wav,0,poule,265,23,5,3,English,f,4,0.4,-13.73801988,0.61791891
60fcd1e550bc02fc6cdef30e,32,0,2024-02-28T17:51:32.283Z,french_655.wav,0,poule,265,23,5,3,English,f,5,0.5,78.78238984,1.61257293
60fcd1e550bc02fc6cdef30e,32,0,2024-02-28T17:51:32.283Z,french_655.wav,0,poule,265,23,5,3,English,f,6,0.6,15.74802992,1.14120276
60fcd1e550bc02fc6cdef30e,32,0,2024-02-28T17:51:32.283Z,french_655.wav,0,poule,265,23,5,3,English,f,7,0.7,7.99289062,1.85994401
60fcd1e550bc02fc6cdef30e,32,0,2024-02-28T17:51:32.283Z,french_655.wav,0,poule,265,23,5,3,English,f,8,0.8,64.26189844,0.1773239
60fcd1e550bc02fc6cdef30e,32,0,2024-02-28T17:51:32.283Z,french_655.wav,0,poule,265,23,5,3,English,f,9,0.9,-76.33286274,1.26191456
60fcd1e550bc02fc6cdef30e,32,0,2024-02-28T17:51:32.283Z,french_655.wav,0,poule,265,23,5,3,English,f,10,1.0,-6.92462562,1.18778905
60fcd1e550bc02fc6cdef30e,32,0,2024-02-28T17:51:32.283Z,french_655.wav,0,poule,265,23,5,3,English,f,11,1.1,-66.84426621,1.26114912
60fcd1e550bc02fc6cdef30e,32,0,2024-02-28T17:51:32.283Z,french_655.wav,0,poule,265,23,5,3,English,f,12,1.14141667,91.19399293,0.56570488
60fcd1e550bc02fc6cdef30e,33,0,2024-02-28T17:51:32.283Z,french_724.wav,0,poule,402,23,5,3,English,f,0,0.0,-42.7356975,0.85167994
60fcd1e550bc02fc6cdef30e,33,0,2024-02-28T17:51:32.283Z,french_724.wav,0,poule,402,23,5,3,English,f,1,0.1,79.1515089,1.58951064
60fcd1e550bc02fc6cdef30e,33,0,2024-02-28T17:51:32.283Z,french_724.wav,0,poule,402,23,5,3,English,f,2,0.2,64.9302742,0.60770722
60fcd1e550bc02fc6cdef30e,33,0,2024-02-28T17:51:32.283Z,french_724.wav,0,poule,402,23,5,3,English,f,3,0.3,-85.1878267,0.75189335
60fcd1e550bc02fc6cdef30e,33,0,2024-02-28T17:51:32.283Z,french_724.wav,0,poule,402,23,5,3,English,f,4,0.4,-34.3526203,0.90807039
60fcd1e550bc02fc6cdef30e,33,0,2024-02-28T17:51:32.283Z,french_724.wav,0,poule,402,23,5,3,English,f,5,0.5,-4.99910648,0.50960695
60fcd1e550bc02fc6cdef30e,33,0,2024-02-28T17:51:32.283Z,french_724.wav,0,poule,402,23,5,3,English,f,6,0.6,0.044891932,0.49994716
60fcd1e550bc02fc6cdef30e,33,0,2024-02-28T17:51:32.283Z,french_724.wav,0,poule,402,23,5,3,English,f,7,0.7,7.78511592,1.52976277
60fcd1e550bc02fc6cdef30e,33,0,2024-02-28T17:51:32.283Z,french_724.wav,0,poule,402,23,5,3,English,f,8,0.8,20.6697314,1.0388534
60fcd1e550bc02fc6cdef30e,33,0,2024-02-28T17:51:32.283Z,french_724.wav,0,poule,402,23,5,3,English,f,9,0.9,94.4830377,1.27328061
60fcd1e550bc02fc6cdef30e,33,0,2024-02-28T17:51:32.283Z,french_724.wav,0,poule,402,23,5,3,English,f,10,1.0,1.93406873,1.00280062
60fcd1e550bc02fc6cdef30e,33,0,2024-02-28T17:51:32.283Z,french_724.wav,0,poule,402,23,5,3,English,f,11,1.1,65.5163276,1.51647705
60fcd1e550bc02fc6cdef30e,33,0,2024-02-28T17:51:32.283Z,french_724.wav,0,poule,402,23,5,3,English,f,12,1.14141667,36.432613,1.50732266
60fcd1e550bc02fc6cdef30e,34,0,2024-02-28T17:51:32.283Z,french_331.wav,0,pull,544,23,5,3,English,f,0,0.0,-5.76763244,0.44927082
60fcd1e550bc02fc6cdef30e,34,0,2024-02-28T17:51:32.283Z,french_331.wav,0,pull,544,23,5,3,English,f,1,0.1,-52.64550288,0.18129642
60fcd1e550bc02fc6cdef30e,34,0,2024-02-28T17:51:32.283Z,french_331.wav,0,pull,544,23,5,3,English,f,2,0.2,33.91369618,1.34006101
60fcd1e550bc02fc6cdef30e,34,0,2024-02-28T17:51:32.283Z,french_331.wav,0,pull,544,23,5,3,English,f,3,0.3,2.76494439,1.82406292
60fcd1e550bc02fc6cdef30e,34,0,2024-02-28T17:51:32.283Z,french_331.wav,0,pull,544,23,5,3,English,f,4,0.4,28.25566851,0.80324024
60fcd1e550bc02fc6cdef30e,34,0,2024-02-28T17:51:32.283Z,french_331.wav,0,pull,544,23,5,3,English,f,5,0.5,-26.62339469,0.48532471
60fcd1e550bc02fc6cdef30e,34,0,2024-02-28T17:51:32.283Z,french_331.wav,0,pull,544,23,5,3,English,f,6,0.6,-38.99536657,0.16806237
60fcd1e550bc02fc6cdef30e,34,0,2024-02-28T17:51:32.283Z,french_331.wav,0,pull,544,23,5,3,English,f,7,0.7,-41.39460314,1.79111184
60fcd1e550bc02fc6cdef30e,34,0,2024-02-28T17:51:32.283Z,french_331.wav,0,pull,544,23,5,3,English,f,8,0.8,-52.63700737,0.66376549
60fcd1e550bc02fc6cdef30e,34,0,2024-02-28T17:51:32.283Z,french_331.wav,0,pull,544,23,5,3,English,f,9,0.9,-41.88182254,0.25387795
60fcd1e550bc02fc6cdef30e,34,0,2024-02-28T17:51:32.283Z,french_331.wav,0,pull,544,23,5,3,English,f,10,1.0,28.65752822,0.21815643
60fcd1e550bc02fc6cdef30e,34,0,2024-02-28T17:51:32.283Z,french_331.wav,0,pull,544,23,5,3,English,f,11,1.1,11.07498327,1.03351958
60fcd1e550bc02fc6cdef30e,34,0,2024-02-28T17:51:32.283Z,french_331.wav,0,pull,544,23,5,3,English,f,12,1.14141667,-55.36680151,0.55793758
60fcd1e550bc02fc6cdef30e,35,0,2024-02-28T17:51:32.283Z,french_569.wav,0,poule,357,23,5,3,English,f,0,0.0,40.60139036,1.33844242
60fcd1e550bc02fc6cdef30e,35,0,2024-02-28T17:51:32.283Z,french_569.wav,0,poule,357,23,5,3,English,f,1,0.1,-15.15147128,1.76501112
60fcd1e550bc02fc6cdef30e,35,0,2024-02-28T17:51:32.283Z,french_569.wav,0,poule,357,23,5,3,English,f,2,0.2,-0.95888134,0.94211994
60fcd1e550bc02fc6cdef30e,35,0,2024-02-28T17:51:32.283Z,french_569.wav,0,poule,357,23,5,3,English,f,3,0.3,44.12601478,0.15427666
60fcd1e550bc02fc6cdef30e,35,0,2024-02-28T17:51:32.283Z,french_569.wav,0,poule,357,23,5,3,English,f,4,0.4,-57.82031804,1.07164182
60fcd1e550bc02fc6cdef30e,35,0,2024-02-28T17:51:32.283Z,french_569.wav,0,poule,357,23,5,3,English,f,5,0.5,64.27680708,1.5909132
60fcd1e550bc02fc6cdef30e,35,0,2024-02-28T17:51:32.283Z,french_569.wav,0,poule,357,23,5,3,English,f,6,0.6,-63.61731308,1.21963001
60fcd1e550bc02fc6cdef30e,35,0,2024-02-28T17:51:32.283Z,french_569.wav,0,poule,357,23,5,3,English,f,7,0.7,77.98248538,0.17925278
60fcd1e550bc02fc6cdef30e,35,0,2024-02-28T17:51:32.283Z,french_569.wav,0,poule,357,23,5,3,English,f,8,0.8,-85.02373468,1.54369257
60fcd1e550bc02fc6cdef30e,35,0,2024-02-28T17:51:32.283Z,french_569.wav,0,poule,357,23,5,3,English,f,9,0.9,23.7771992,1.35763688
60fcd1e550bc02fc6cdef30e,35,0,2024-02-28T17:51:32.283Z,french_569.wav,0,poule,357,23,5,3,English,f,10,1.0,61.80066761,1.46111522
60fcd1e550bc02fc6cdef30e,35,0,2024-02-28T17:51:32.283Z,french_569.wav,0,poule,357,23,5,3,English,f,11,1.1,-41.94387,0.95375882
60fcd1e550bc02fc6cdef30e,35,0,2024-02-28T17:51:32.283Z,french_569.wav,0,poule,357,23,5,3,English,f,12,1.14141667,60.59433976,0.23927558
60fcd1e550bc02fc6cdef30e,36,0,2024-02-28T17:51:32.283Z,french_736.wav,0,pull,497,23,5,3,English,f,0,0.0,29.19044659,0.82932946
60fcd1e550bc02fc6cdef30e,36,0,2024-02-28T17:51:32.283Z,french_736.wav,0,pull,497,23,5,3,English,f,1,0.1,94.52247297,1.66313151
60fcd1e550bc02fc6cdef30e,36,0,2024-02-28T17:51:32.283Z,french_736.wav,0,pull,497,23,5,3,English,f,2,0.2,-72.96770024,0.36554626
60fcd1e550bc02fc6cdef30e,36,0,2024-02-28T17:51:32.283Z,french_736.wav,0,pull,497,23,5,3,English,f,3,0.3,70.71289407,1.74989063
60fcd1e550bc02fc6cdef30e,36,0,2024-02-28T17:51:32.283Z,french_736.wav,0,pull,497,23,5,3,English,f,4,0.4,45.03413415,0.9882108
60fcd1e550bc02fc6cdef30e,36,0,2024-02-28T17:51:32.283Z,french_736.wav,0,pull,497,23,5,3,English,f,5,0.5,87.71902001,1.47173682
60fcd1e550bc02fc6cdef30e,36,0,2024-02-28T17:51:32.283Z,french_736.wav,0,pull,497,23,5,3,English,f,6,0.6,34.52398269,1.37692786
60fcd1e550bc02fc6cdef30e,36,0,2024-02-28T17:51:32.283Z,french_736.wav,0,pull,497,23,5,3,English,f,7,0.7,-6.6862016,1.12519684
60fcd1e550bc02fc6cdef30e,36,0,2024-02-28T17:51:32.283Z,french_736.wav,0,pull,497,23,5,3,English,f,8,0.8,-55.71883693,1.21800838
60fcd1e550bc02fc6cdef30e,36,0,2024-02-28T17:51:32.283Z,french_736.wav,0,pull,497,23,5,3,English,f,9,0.9,64.69961034,1.48170462
60fcd1e550bc02fc6cdef30e,36,0,2024-02-28T17:51:32.283Z,french_736.wav,0,pull,497,23,5,3,English,f,10,1.0,-24.41156684,0.01863253
60fcd1e550bc02fc6cdef30e,36,0,2024-02-28T17:51:32.283Z,french_736.wav,0,pull,497,23,5,3,English,f,11,1.1,-94.31655203,0.07239007
60fcd1e550bc02fc6cdef30e,36,0,2024-02-28T17:51:32.283Z,french_736.wav,0,pull,497,23,5,3,English,f,12,1.14141667,38.28357573,0.12022727
60fcd1e550bc02fc6cdef30e,37,0,2024-02-28T17:51:32.283Z,french_204.wav,0,poule,410,23,5,3,English,f,0,0.0,-97.54424604,0.84357782
60fcd1e550bc02fc6cdef30e,37,0,2024-02-28T17:51:32.283Z,french_204.wav,0,poule,410,23,5,3,English,f,1,0.1,-75.45987253,1.86814554
60fcd1e550bc02fc6cdef30e,37,0,2024-02-28T17:51:32.283Z,french_204.wav,0,poule,410,23,5,3,English,f,2,0.2,-45.23023412,0.72033873
60fcd1e550bc02fc6cdef30e,37,0,2024-02-28T17:51:32.283Z,french_204.wav,0,poule,410,23,5,3,English,f,3,0.3,-36.48297354,0.94694734
60fcd1e550bc02fc6cdef30e,37,0,2024-02-28T17:51:32.283Z,french_204.wav,0,poule,410,23,5,3,English,f,4,0.4,90.93714811,1.41055146
60fcd1e550bc02fc6cdef30e,37,0,2024-02-28T17:51:32.283Z,french_204.wav,0,poule,410,23,5,3,English,f,5,0.5,8.51204829,1.86444056
60fcd1e550bc02fc6cdef30e,37,0,2024-02-28T17:51:32.283Z,french_204.wav,0,poule,410,23,5,3,English,f,6,0.6,-18.08952278,0.86787291
60fcd1e550bc02fc6cdef30e,37,0,2024-02-28T17:51:32.283Z,french_204.wav,0,poule,410,23,5,3,English,f,7,0.7,-30.86608274,0.05470733
60fcd1e550bc02fc6cdef30e,37,0,2024-02-28T17:51:32.283Z,french_204.wav,0,poule,410,23,5,3,English,f,8,0.8,9.52121427,0.89406548
60fcd1e550bc02fc6cdef30e,37,0,2024-02-28T17:51:32.283Z,french_204.wav,0,poule,410,23,5,3,English,f,9,0.9,32.93587108,0.95464127
60fcd1e550bc02fc6cdef30e,37,0,2024-02-28T17:51:32.283Z,french_204.wav,0,poule,410,23,5,3,English,f,10,1.0,4.3572217,1.5370853
60fcd1e550bc02fc6cdef30e,37,0,2024-02-28T17:51:32.283Z,french_204.wav,0,poule,410,23,5,3,English,f,11,1.1,48.01606994,0.95273062
60fcd1e550bc02fc6cdef30e,37,0,2024-02-28T17:51:32.283Z,french_204.wav,0,poule,410,23,5,3,English,f,12,1.14141667,-31.34314553,1.18622343
60fcd1e550bc02fc6cdef30e,38,0,2024-02-28T17:51:32.283Z,french_796.wav,0,poule,452,23,5,3,English,f,0,0.0,-21.64188846,1.54395317
60fcd1e550bc02fc6cdef30e,38,0,2024-02-28T17:51:32.283Z,french_796.wav,0,poule,452,23,5,3,English,f,1,0.1,-7.10945612,0.2941661
60fcd1e550bc02fc6cdef30e,38,0,2024-02-28T17:51:32.283Z,french_796.wav,0,poule,452,23,5,3,English,f,2,0.2,-74.39719325,0.97343698
60fcd1e550bc02fc6cdef30e,38,0,2024-02-28T17:51:32.283Z,french_796.wav,0,poule,452,23,5,3,English,f,3,0.3,-54.61530314,0.96871079
60fcd1e550bc02fc6cdef30e,38,0,2024-02-28T17:51:32.283Z,french_796.wav,0,poule,452,23,5,3,English,f,4,0.4,-80.73225718,1.80485159
60fcd1e550bc02fc6cdef30e,38,0,2024-02-28T17:51:32.283Z,french_796.wav,0,poule,452,23,5,3,English,f,5,0.5,9.91679823,0.56868061
60fcd1e550bc02fc6cdef30e,38,0,2024-02-28T17:51:32.283Z,french_796.wav,0,poule,452,23,5,3,English,f,6,0.6,-97.91364168,1.75772708
60fcd1e550bc02fc6cdef30e,38,0,2024-02-28T17:51:32.283Z,french_796.wav,0,poule,452,23,5,3,English,f,7,0.7,49.57079751,1.73544483
60fcd1e550bc02fc6cdef30e,38,0,2024-02-28T17:51:32.283Z,french_796.wav,0,poule,452,23,5,3,English,f,8,0.8,70.95125658,0.94432617
60fcd1e550bc02fc6cdef30e,38,0,2024-02-28T17:51:32.283Z,french_796.wav,0,poule,452,23,5,3,English,f,9,0.9,31.08280056,1.12597758
60fcd1e550bc02fc6cdef30e,38,0,2024-02-28T17:51:32.283Z,french_796.wav,0,poule,452,23,5,3,English,f,10,1.0,-13.33346658,0.53392858
60fcd1e550bc02fc6cdef30e,38,0,2024-02-28T17:51:32.283Z,french_796.wav,0,poule,452,23,5,3,English,f,11,1.1,3.95596596,0.6803009
60fcd1e550bc02fc6cdef30e,38,0,2024-02-28T17:51:32.283Z,french_796.wav,0,poule,452,23,5,3,English,f,12,1.14141667,-13.99518271,1.42581525
60fcd1e550bc02fc6cdef30e,39,0,2024-02-28T17:51:32.283Z,french_42.wav,0,poule,376,23,5,3,English,f,0,0.0,-33.44516667,1.55856446
60fcd1e550bc02fc6cdef30e,39,0,2024-02-28T17:51:32.283Z,french_42.wav,0,poule,376,23,5,3,English,f,1,0.1,-18.2362548,1.2097728
60fcd1e550bc02fc6cdef30e,39,0,2024-02-28T17:51:32.283Z,french_42.wav,0,poule,376,23,5,3,English,f,2,0.2,70.60331137,0.78889557
60fcd1e550bc02fc6cdef30e,39,0,2024-02-28T17:51:32.283Z,french_42.wav,0,poule,376,23,5,3,English,f,3,0.3,15.02229491,0.44641372
60fcd1e550bc02fc6cdef30e,39,0,2024-02-28T17:51:32.283Z,french_42.wav,0,poule,376,23,5,3,English,f,4,0.4,13.99889807,0.084883
60fcd1e550bc02fc6cdef30e,39,0,2024-02-28T17:51:32.283Z,french_42.wav,0,poule,376,23,5,3,English,f,5,0.5,8.49741074,0.91437331
60fcd1e550bc02fc6cdef30e,39,0,2024-02-28T17:51:32.283Z,french_42.wav,0,poule,376,23,5,3,English,f,6,0.6,-62.69867685,0.35744041
60fcd1e550bc02fc6cdef30e,39,0,2024-02-28T17:51:32.283Z,french_42.wav,0,poule,376,23,5,3,English,f,7,0.7,-88.15009816,1.68547632
60fcd1e550bc02fc6cdef30e,39,0,2024-02-28T17:51:32.283Z,french_42.wav,0,poule,376,23,5,3,English,f,8,0.8,-56.36247825,0.07992016
60fcd1e550bc02fc6cdef30e,39,0,2024-02-28T17:51:32.283Z,french_42.wav,0,poule,376,23,5,3,English,f,9,0.9,-57.25753142,0.30520065
60fcd1e550bc02fc6cdef30e,39,0,2024-02-28T17:51:32.283Z,french_42.wav,0,poule,376,23,5,3,English,f,10,1.0,79.34275566,1.86650183
60fcd1e550bc02fc6cdef30e,39,0,2024-02-28T17:51:32.283Z,french_42.wav,0,poule,376,23,5,3,English,f,11,1.1,-83.70982002,1.79164729
60fcd1e550bc02fc6cdef30e,39,0,2024-02-28T17:51:32.283Z,french_42.wav,0,poule,376,23,5,3,English,f,12,1.14141667,63.35287438,0.80936933
60fcd1e550bc02fc6cdef30e,40,0,2024-02-28T17:51:32.283Z,french_370.wav,0,poule,184,23,5,3,English,f,0,0.0,94.69193791,1.31620058
60fcd1e550bc02fc6cdef30e,40,0,2024-02-28T17:51:32.283Z,french_370.wav,0,poule,184,23,5,3,English,f,1,0.1,-34.36771105,1.0910653
60fcd1e550bc02fc6cdef30e,40,0,2024-02-28T17:51:32.283Z,french_370.wav,0,poule,184,23,5,3,English,f,2,0.2,55.68663638,1.59108786
60fcd1e550bc02fc6cdef30e,40,0,2024-02-28T17:51:32.283Z,french_370.wav,0,poule,184,23,5,3,English,f,3,0.3,86.0282476,0.66651246
60fcd1e550bc02fc6cdef30e,40,0,2024-02-28T17:51:32.283Z,french_370.wav,0,poule,184,23,5,3,English,f,4,0.4,-27.64418732,0.77217464
60fcd1e550bc02fc6cdef30e,40,0,2024-02-28T17:51:32.283Z,french_370.wav,0,poule,184,23,5,3,English,f,5,0.5,2.79773792,1.2458794
60fcd1e550bc02fc6cdef30e,40,0,2024-02-28T17:51:32.283Z,french_370.wav,0,poule,184,23,5,3,English,f,6,0.6,23.29524749,0.78783747
60fcd1e550bc02fc6cdef30e,40,0,2024-02-28T17:51:32.283Z,french_370.wav,0,poule,184,23,5,3,English,f,7,0.7,19.50655052,1.5969386
60fcd1e550bc02fc6cdef30e,40,0,2024-02-28T17:51:32.283Z,french_370.wav,0,poule,184,23,5,3,English,f,8,0.8,27.94648957,0.07582998
60fcd1e550bc02fc6cdef30e,40,0,2024-02-28T17:51:32.283Z,french_370.wav,0,poule,184,23,5,3,English,f,9,0.9,-49.49366589,1.5026642
60fcd1e550bc02fc6cdef30e,40,0,2024-02-28T17:51:32.283Z,french_370.wav,0,poule,184,23,5,3,English,f,10,1.0,76.55940537,1.33889054
60fcd1e550bc02fc6cdef30e,40,0,2024-02-28T17:51:32.283Z,french_370.wav,0,poule,184,23,5,3,English,f,11,1.1,64.74077084,1.0242803
60fcd1e550bc02fc6cdef30e,40,0,2024-02-28T17:51:32.283Z,french_370.wav,0,poule,184,23,5,3,English,f,12,1.14141667,-14.36009756,1.81581141
60fcd1e550bc02fc6cdef30e,41,0,2024-02-28T17:51:32.283Z,french_215.wav,0,poule,183,23,5,3,English,f,0,0.0,25.06649138,0.73263287
60fcd1e550bc02fc6cdef30e,41,0,2024-02-28T17:51:32.283Z,french_215.wav,0,poule,183,23,5,3,English,f,1,0.1,-75.62802154,0.44309032
60fcd1e550bc02fc6cdef30e,41,0,2024-02-28T17:51:32.283Z,french_215.wav,0,poule,183,23,5,3,English,f,2,0.2,-55.29126892,0.69551141
60fcd1e550bc02fc6cdef30e,41,0,2024-02-28T17:51:32.283Z,french_215.wav,0,poule,183,23,5,3,English,f,3,0.3,-31.13502895,0.38506305
60fcd1e550bc02fc6cdef30e,41,0,2024-02-28T17:51:32.283Z,french_215.wav,0,poule,183,23,5,3,English,f,4,0.4,99.96854364,0.52359658
60fcd1e550bc02fc6cdef30e,41,0,2024-02-28T17:51:32.283Z,french_215.wav,0,poule,183,23,5,3,English,f,5,0.5,-39.05274208,1.76965852
60fcd1e550bc02fc6cdef30e,41,0,2024-02-28T17:51:32.283Z,french_215.wav,0,poule,183,23,5,3,English,f,6,0.6,-48.65324171,1.14560288
60fcd1e550bc02fc6cdef30e,41,0,2024-02-28T17:51:32.283Z,french_215.wav,0,poule,183,23,5,3,English,f,7,0.7,-29.47734718,0.88778636
60fcd1e550bc02fc6cdef30e,41,0,2024-02-28T17:51:32.283Z,french_215.wav,0,poule,183,23,5,3,English,f,8,0.8,33.80663658,1.18058041
60fcd1e550bc02fc6cdef30e,41,0,2024-02-28T17:51:32.283Z,french_215.wav,0,poule,183,23,5,3,English,f,9,0.9,-21.30312991,1.84333153
60fcd1e550bc02fc6cdef30e,41,0,2024-02-28T17:51:32.283Z,french_215.wav,0,poule,183,23,5,3,English,f,10,1.0,38.90898009,0.25005538
60fcd1e550bc02fc6cdef30e,41,0,2024-02-28T17:51:32.283Z,french_215.wav,0,poule,183,23,5,3,English,f,11,1.1,56.3377574,1.84007576
60fcd1e550bc02fc6cdef30e,41,0,2024-02-28T17:51:32.283Z,french_215.wav,0,poule,183,23,5,3,English,f,12,1.14141667,88.63688248,1.00047255
60fcd1e550bc02fc6cdef30e,42,0,2024-02-28T17:51:32.283Z,french_567.wav,0,poule,389,23,5,3,English,f,0,0.0,12.78083509,0.16001967
60fcd1e550bc02fc6cdef30e,42,0,2024-02-28T17:51:32.283Z,french_567.wav,0,poule,389,23,5,3,English,f,1,0.1,-79.40204938,1.24238911
60fcd1e550bc02fc6cdef30e,42,0,2024-02-28T17:51:32.283Z,french_567.wav,0,poule,389,23,5,3,English,f,2,0.2,-50.21372302,0.06712512
60fcd1e550bc02fc6cdef30e,42,0,2024-02-28T17:51:32.283Z,french_567.wav,0,poule,389,23,5,3,English,f,3,0.3,-51.67969251,0.66368024
60fcd1e550bc02fc6cdef30e,42,0,2024-02-28T17:51:32.283Z,french_567.wav,0,poule,389,23,5,3,English,f,4,0.4,-27.99822561,1.43491088
60fcd1e550bc02fc6cdef30e,42,0,2024-02-28T17:51:32.283Z,french_567.wav,0,poule,389,23,5,3,English,f,5,0.5,-28.39039693,0.56139293
60fcd1e550bc02fc6cdef30e,42,0,2024-02-28T17:51:32.283Z,french_567.wav,0,poule,389,23,5,3,English,f,6,0.6,74.76233232,0.46919017
60fcd1e550bc02fc6cdef30e,42,0,2024-02-28T17:51:32.283Z,french_567.wav,0,poule,389,23,5,3,English,f,7,0.7,13.04004868,0.06468162
60fcd1e550bc02fc6cdef30e,42,0,2024-02-28T17:51:32.283Z,french_567.wav,0,poule,389,23,5,3,English,f,8,0.8,-6.41363519,1.61538363
60fcd1e550bc02fc6cdef30e,42,0,2024-02-28T17:51:32.283Z,french_567.wav,0,poule,389,23,5,3,English,f,9,0.9,14.9406952,0.93302824
60fcd1e550bc02fc6cdef30e,42,0,2024-02-28T17:51:32.283Z,french_567.wav,0,poule,389,23,5,3,English,f,10,1.0,-62.25200395,0.94697181
60fcd1e550bc02fc6cdef30e,42,0,2024-02-28T17:51:32.283Z,french_567.wav,0,poule,389,23,5,3,English,f,11,1.1,-27.15225242,1.360707
60fcd1e550bc02fc6cdef30e,42,0,2024-02-28T17:51:32.283Z,french_567.wav,0,poule,389,23,5,3,English,f,12,1.14141667,-25.69527266,0.18426709
60fcd1e550bc02fc6cdef30e,43,0,2024-02-28T17:51:32.283Z,french_764.wav,0,poule,388,23,5,3,English,f,0,0.0,87.12745751,1.90120805
60fcd1e550bc02fc6cdef30e,43,0,2024-02-28T17:51:32.283Z,french_764.wav,0,poule,388,23,5,3,English,f,1,0.1,-24.35371008,0.69347586
60fcd1e550bc02fc6cdef30e,43,0,2024-02-28T17:51:32.283Z,french_764.wav,0,poule,388,23,5,3,English,f,2,0.2,96.19284839,1.54393822
60fcd1e550bc02fc6cdef30e,43,0,2024-02-28T17:51:32.283Z,french_764.wav,0,poule,388,23,5,3,English,f,3,0.3,-63.91440184,0.58835551
60fcd1e550bc02fc6cdef30e,43,0,2024-02-28T17:51:32.283Z,french_764.wav,0,poule,388,23,5,3,English,f,4,0.4,84.55261443,0.17117139
60fcd1e550bc02fc6cdef30e,43,0,2024-02-28T17:51:32.283Z,french_764.wav,0,poule,388,23,5,3,English,f,5,0.5,-92.65972106,1.33331876
60fcd1e550bc02fc6cdef30e,43,0,2024-02-28T17:51:32.283Z,french_764.wav,0,poule,388,23,5,3,English,f,6,0.6,42.41135529,0.74738351
60fcd1e550bc02fc6cdef30e,43,0,2024-02-28T17:51:32.283Z,french_764.wav,0,poule,388,23,5,3,English,f,7,0.7,-52.22534775,0.83508091
60fcd1e550bc02fc6cdef30e,43,0,2024-02-28T17:51:32.283Z,french_764.wav,0,poule,388,23,5,3,English,f,8,0.8,15.59025374,0.71569615
60fcd1e550bc02fc6cdef30e,43,0,2024-02-28T17:51:32.283Z,french_764.wav,0,poule,388,23,5,3,English,f,9,0.9,2.98657975,0.73784714
60fcd1e550bc02fc6cdef30e,43,0,2024-02-28T17:51:32.283Z,french_764.wav,0,poule,388,23,5,3,English,f,10,1.0,-1.73502866,0.16421884
60fcd1e550bc02fc6cdef30e,43,0,2024-02-28T17:51:32.283Z,french_764.wav,0,poule,388,23,5,3,English,f,11,1.1,53.10245594,0.76749541
60fcd1e550bc02fc6cdef30e,43,0,2024-02-28T17:51:32.283Z,french_764.wav,0,poule,388,23,5,3,English,f,12,1.14141667,-47.5333567,0.26920711
60fcd1e550bc02fc6cdef30e,44,0,2024-02-28T17:51:32.283Z,french_320.wav,0,poule,345,23,5,3,English,f,0,0.0,29.0077802,1.65272351
60fcd1e550bc02fc6cdef30e,44,0,2024-02-28T17:51:32.283Z,french_320.wav,0,poule,345,23,5,3,English,f,1,0.1,57.10058807,1.38707965
60fcd1e550bc02fc6cdef30e,44,0,2024-02-28T17:51:32.283Z,french_320.wav,0,poule,345,23,5,3,English,f,2,0.2,-58.71455915,0.9425519
60fcd1e550bc02fc6cdef30e,44,0,2024-02-28T17:51:32.283Z,french_320.wav,0,poule,345,23,5,3,English,f,3,0.3,9.47208013,1.24337659
60fcd1e550bc02fc6cdef30e,44,0,2024-02-28T17:51:32.283Z,french_320.wav,0,poule,345,23,5,3,English,f,4,0.4,33.55679918,0.6156105
60fcd1e550bc02fc6cdef30e,44,0,2024-02-28T17:51:32.283Z,french_320.wav,0,poule,345,23,5,3,English,f,5,0.5,30.29342924,0.19227327
60fcd1e550bc02fc6cdef30e,44,0,2024-02-28T17:51:32.283Z,french_320.wav,0,poule,345,23,5,3,English,f,6,0.6,35.793456,1.76797578
60fcd1e550bc02fc6cdef30e,44,0,2024-02-28T17:51:32.283Z,french_320.wav,0,poule,345,23,5,3,English,f,7,0.7,48.27550343,1.38419028
60fcd1e550bc02fc6cdef30e,44,0,2024-02-28T17:51:32.283Z,french_320.wav,0,poule,345,23,5,3,English,f,8,0.8,2.54884744,0.97487745
60fcd1e550bc02fc6cdef30e,44,0,2024-02-28T17:51:32.283Z,french_320.wav,0,poule,345,23,5,3,English,f,9,0.9,11.92843599,1.02395527
60fcd1e550bc02fc6cdef30e,44,0,2024-02-28T17:51:32.283Z,french_320.wav,0,poule,345,23,5,3,English,f,10,1.0,-58.08388318,1.53932166
60fcd1e550bc02fc6cdef30e,44,0,2024-02-28T17:51:32.283Z,french_320.wav,0,poule,345,23,5,3,English,f,11,1.1,-15.70500576,1.67437481
60fcd1e550bc02fc6cdef30e,44,0,2024-02-28T17:51:32.283Z,french_320.wav,0,poule,345,23,5,3,English,f,12,1.14141667,2.2106655,0.12258709
60fcd1e550bc02fc6cdef30e,45,0,2024-02-28T17:51:32.283Z,french_756.wav,0,poule,345,23,5,3,English,f,0,0.0,-40.89918264,0.22647067
60fcd1e550bc02fc6cdef30e,45,0,2024-02-28T17:51:32.283Z,french_756.wav,0,poule,345,23,5,3,English,f,1,0.1,-99.52464367,0.83190688
60fcd1e550bc02fc6cdef30e,45,0,2024-02-28T17:51:32.283Z,french_756.wav,0,poule,345,23,5,3,English,f,2,0.2,-21.65080484,1.47884544
60fcd1e550bc02fc6cdef30e,45,0,2024-02-28T17:51:32.283Z,french_756.wav,0,poule,345,23,5,3,English,f,3,0.3,61.04267157,0.7217285
60fcd1e550bc02fc6cdef30e,45,0,2024-02-28T17:51:32.283Z,french_756.wav,0,poule,345,23,5,3,English,f,4,0.4,-86.7981673,1.67647658
60fcd1e550bc02fc6cdef30e,45,0,2024-02-28T17:51:32.283Z,french_756.wav,0,poule,345,23,5,3,English,f,5,0.5,-52.98495971,1.95635738
60fcd1e550bc02fc6cdef30e,45,0,2024-02-28T17:51:32.283Z,french_756.wav,0,poule,345,23,5,3,English,f,6,0.6,-62.5926211,1.04454085
60fcd1e550bc02fc6cdef30e,45,0,2024-02-28T17:51:32.283Z,french_756.wav,0,poule,345,23,5,3,English,f,7,0.7,93.58331773,1.38664818
60fcd1e550bc02fc6cdef30e,45,0,2024-02-28T17:51:32.283Z,french_756.wav,0,poule,345,23,5,3,English,f,8,0.8,-85.69814582,1.57780238
60fcd1e550bc02fc6cdef30e,45,0,2024-02-28T17:51:32.283Z,french_756.wav,0,poule,345,23,5,3,English,f,9,0.9,79.03573852,1.00453441
60fcd1e550bc02fc6cdef30e,45,0,2024-02-28T17:51:32.283Z,french_756.wav,0,poule,345,23,5,3,English,f,10,1.0,-77.37187744,1.82221754
60fcd1e550bc02fc6cdef30e,45,0,2024-02-28T17:51:32.283Z,french_756.wav,0,poule,345,23,5,3,English,f,11,1.1,78.34862084,0.38536838
60fcd1e550bc02fc6cdef30e,45,0,2024-02-28T17:51:32.283Z,french_756.wav,0,poule,345,23,5,3,English,f,12,1.14141667,-65.43844249,0.09429914
60fcd1e550bc02fc6cdef30e,46,0,2024-02-28T17:51:32.283Z,french_343.wav,0,poule,381,23,5,3,English,f,0,0.0,55.30820306,1.58034267
60fcd1e550bc02fc6cdef30e,46,0,2024-02-28T17:51:32.283Z,french_343.wav,0,poule,381,23,5,3,English,f,1,0.1,-11.48156173,1.0596038
60fcd1e550bc02fc6cdef30e,46,0,2024-02-28T17:51:32.283Z,french_343.wav,0,poule,381,23,5,3,English,f,2,0.2,-61.33934281,1.28163155
60fcd1e550bc02fc6cdef30e,46,0,2024-02-28T17:51:32.283Z,french_343.wav,0,poule,381,23,5,3,English,f,3,0.3,-78.79796184,0.20032202
60fcd1e550bc02fc6cdef30e,46,0,2024-02-28T17:51:32.283Z,french_343.wav,0,poule,381,23,5,3,English,f,4,0.4,-3.55277636,1.05316587
60fcd1e550bc02fc6cdef30e,46,0,2024-02-28T17:51:32.283Z,french_343.wav,0,poule,381,23,5,3,English,f,5,0.5,40.8675343,0.79348198
60fcd1e550bc02fc6cdef30e,46,0,2024-02-28T17:51:32.283Z,french_343.wav,0,poule,381,23,5,3,English,f,6,0.6,88.78635161,0.11297715
60fcd1e550bc02fc6cdef30e,46,0,2024-02-28T17:51:32.283Z,french_343.wav,0,poule,381,23,5,3,English,f,7,0.7,-70.07472114,1.23835329
60fcd1e550bc02fc6cdef30e,46,0,2024-02-28T17:51:32.283Z,french_343.wav,0,poule,381,23,5,3,English,f,8,0.8,-79.01069817,1.37036254
60fcd1e550bc02fc6cdef30e,46,0,2024-02-28T17:51:32.283Z,french_343.wav,0,poule,381,23,5,3,English,f,9,0.9,-38.36075722,1.08523433
60fcd1e550bc02fc6cdef30e,46,0,2024-02-28T17:51:32.283Z,french_343.wav,0,poule,381,23,5,3,English,f,10,1.0,-74.7385536,0.49176562
60fcd1e550bc02fc6cdef30e,46,0,2024-02-28T17:51:32.283Z,french_343.wav,0,poule,381,23,5,3,English,f,11,1.1,67.32009961,1.89620137
60fcd1e550bc02fc6cdef30e,46,0,2024-02-28T17:51:32.283Z,french_343.wav,0,poule,381,23,5,3,English,f,12,1.14141667,18.80940086,0.66544547
60fcd1e550bc02fc6cdef30e,47,0,2024-02-28T17:51:32.283Z,french_38.wav,0,poule,274,23,5,3,English,f,0,0.0,40.69692625,0.35088988
60fcd1e550bc02fc6cdef30e,47,0,2024-02-28T17:51:32.283Z,french_38.wav,0,poule,274,23,5,3,English,f,1,0.1,83.11806361,0.52815391
60fcd1e550bc02fc6cdef30e,47,0,2024-02-28T17:51:32.283Z,french_38.wav,0,poule,274,23,5,3,English,f,2,0.2,18.12214919,0.42903125
60fcd1e550bc02fc6cdef30e,47,0,2024-02-28T17:51:32.283Z,french_38.wav,0,poule,274,23,5,3,English,f,3,0.3,-19.25038889,1.56660171
60fcd1e550bc02fc6cdef30e,47,0,2024-02-28T17:51:32.283Z,french_38.wav,0,poule,274,23,5,3,English,f,4,0.4,76.29170631,1.50314168
60fcd1e550bc02fc6cdef30e,47,0,2024-02-28T17:51:32.283Z,french_38.wav,0,poule,274,23,5,3,English,f,5,0.5,-93.04323891,0.64027928
60fcd1e550bc02fc6cdef30e,47,0,2024-02-28T17:51:32.283Z,french_38.wav,0,poule,274,23,5,3,English,f,6,0.6,29.67195094,1.95048915
60fcd1e550bc02fc6cdef30e,47,0,2024-02-28T17:51:32.283Z,french_38.wav,0,poule,274,23,5,3,English,f,7,0.7,-14.70137235,1.01169212
60fcd1e550bc02fc6cdef30e,47,0,2024-02-28T17:51:32.283Z,french_38.wav,0,poule,274,23,5,3,English,f,8,0.8,85.48410819,0.30617126
60fcd1e550bc02fc6cdef30e,47,0,2024-02-28T17:51:32.283Z,french_38.wav,0,poule,274,23,5,3,English,f,9,0.9,68.26582685,1.37718683
60fcd1e550bc02fc6cdef30e,47,0,2024-02-28T17:51:32.283Z,french_38.wav,0,poule,274,23,5,3,English,f,10,1.0,-29.21602996,1.41030957
60fcd1e550bc02fc6cdef30e,47,0,2024-02-28T17:51:32.283Z,french_38.wav,0,poule,274,23,5,3,English,f,11,1.1,-39.50968765,1.24571364
60fcd1e550bc02fc6cdef30e,47,0,2024-02-28T17:51:32.283Z,french_38.wav,0,poule,274,23,5,3,English,f,12,1.14141667,48.64216134,1.9075345
60fcd1e550bc02fc6cdef30e,48,0,2024-02-28T17:51:32.283Z,french_442.wav,0,poule,778,23,5,3,English,f,0,0.0,59.89348182,1.93338354
60fcd1e550bc02fc6cdef30e,48,0,2024-02-28T17:51:32.283Z,french_442.wav,0,poule,778,23,5,3,English,f,1,0.1,-90.19745983,0.1221368
60fcd1e550bc02fc6cdef30e,48,0,2024-02-28T17:51:32.283Z,french_442.wav,0,poule,778,23,5,3,English,f,2,0.2,34.97525188,1.40375233
60fcd1e550bc02fc6cdef30e,48,0,2024-02-28T17:51:32.283Z,french_442.wav,0,poule,778,23,5,3,English,f,3,0.3,-60.10498495,0.23715052
60fcd1e550bc02fc6cdef30e,48,0,2024-02-28T17:51:32.283Z,french_442.wav,0,poule,778,23,5,3,English,f,4,0.4,-52.20535883,0.86935067
60fcd1e550bc02fc6cdef30e,48,0,2024-02-28T17:51:32.283Z,french_442.wav,0,poule,778,23,5,3,English,f,5,0.5,33.32923329,1.40007492
60fcd1e550bc02fc6cdef30e,48,0,2024-02-28T17:51:32.283Z,french_442.wav,0,poule,778,23,5,3,English,f,6,0.6,-72.02089693,1.87875592
60fcd1e550bc02fc6cdef30e,48,0,2024-02-28T17:51:32.283Z,french_442.wav,0,poule,778,23,5,3,English,f,7,0.7,15.91732192,1.15703728
60fcd1e550bc02fc6cdef30e,48,0,2024-02-28T17:51:32.283Z,french_442.wav,0,poule,778,23,5,3,English,f,8,0.8,49.50947125,1.45583236
60fcd1e550bc02fc6cdef30e,48,0,2024-02-28T17:51:32.283Z,french_442.wav,0,poule,778,23,5,3,English,f,9,0.9,-96.72595223,0.52053121
60fcd1e550bc02fc6cdef30e,48,0,2024-02-28T17:51:32.283Z,french_442.wav,0,poule,778,23,5,3,English,f,10,1.0,12.6942829,0.18849311
60fcd1e550bc02fc6cdef30e,48,0,2024-02-28T17:51:32.283Z,french_442.wav,0,poule,778,23,5,3,English,f,11,1.1,-57.11899111,1.67578542
60fcd1e550bc02fc6cdef30e,48,0,2024-02-28T17:51:32.283Z,french_442.wav,0,poule,778,23,5,3,English,f,12,1.14141667,36.89213251,0.36635536
60fcd1e550bc02fc6cdef30e,49,0,2024-02-28T17:51:32.283Z,french_912.wav,0,pull,438,23,5,3,English,f,0,0.0,80.68071625,0.60833614
60fcd1e550bc02fc6cdef30e,49,0,2024-02-28T17:51:32.283Z,french_912.wav,0,pull,438,23,5,3,English,f,1,0.1,-74.6096102,1.31673181
60fcd1e550bc02fc6cdef30e,49,0,2024-02-28T17:51:32.283Z,french_912.wav,0,pull,438,23,5,3,English,f,2,0.2,73.86411106,0.17478281
60fcd1e550bc02fc6cdef30e,49,0,2024-02-28T17:51:32.283Z,french_912.wav,0,pull,438,23,5,3,English,f,3,0.3,64.55158236,0.08969123
60fcd1e550bc02fc6cdef30e,49,0,2024-02-28T17:51:32.283Z,french_912.wav,0,pull,438,23,5,3,English,f,4,0.4,65.90025627,1.187561
60fcd1e550bc02fc6cdef30e,49,0,2024-02-28T17:51:32.283Z,french_912.wav,0,pull,438,23,5,3,English,f,5,0.5,50.81800611,1.86233101
60fcd1e550bc02fc6cdef30e,49,0,2024-02-28T17:51:32.283Z,french_912.wav,0,pull,438,23,5,3,English,f,6,0.6,47.81573035,0.98705671
60fcd1e550bc02fc6cdef30e,49,0,2024-02-28T17:51:32.283Z,french_912.wav,0,pull,438,23,5,3,English,f,7,0.7,62.25019961,0.81508534
60fcd1e550bc02fc6cdef30e,49,0,2024-02-28T17:51:32.283Z,french_912.wav,0,pull,438,23,5,3,English,f,8,0.8,-33.502047,0.24174061
60fcd1e550bc02fc6cdef30e,49,0,2024-02-28T17:51:32.283Z,french_912.wav,0,pull,438,23,5,3,English,f,9,0.9,54.29227419,0.06561792
60fcd1e550bc02fc6cdef30e,49,0,2024-02-28T17:51:32.283Z,french_912.wav,0,pull,438,23,5,3,English,f,10,1.0,-31.85955495,1.83275675
60fcd1e550bc02fc6cdef30e,49,0,2024-02-28T17:51:32.283Z,french_912.wav,0,pull,438,23,5,3,English,f,11,1.1,-34.2401342,0.04646604
60fcd1e550bc02fc6cdef30e,49,0,2024-02-28T17:51:32.283Z,french_912.wav,0,pull,438,23,5,3,English,f,12,1.14141667,83.50219834,1.51289562
60fcd1e550bc02fc6cdef30e,50,1,2024-02-28T17:51:32.283Z,french_214.wav,0,pull,509,23,5,3,English,f,0,0.0,-79.72583695,1.62139429
60fcd1e550bc02fc6cdef30e,50,1,2024-02-28T17:51:32.283Z,french_214.wav,0,pull,509,23,5,3,English,f,1,0.1,-68.16335949,1.4901457
60fcd1e550bc02fc6cdef30e,50,1,2024-02-28T17:51:32.283Z,french_214.wav,0,pull,509,23,5,3,English,f,2,0.2,12.7031491,1.78274672
60fcd1e550bc02fc6cdef30e,50,1,2024-02-28T17:51:32.283Z,french_214.wav,0,pull,509,23,5,3,English,f,3,0.3,-73.51726197,0.35151464
60fcd1e550bc02fc6cdef30e,50,1,2024-02-28T17:51:32.283Z,french_214.wav,0,pull,509,23,5,3,English,f,4,0.4,14.53718817,0.87795234
60fcd1e550bc02fc6cdef30e,50,1,2024-02-28T17:51:32.283Z,french_214.wav,0,pull,509,23,5,3,English,f,5,0.5,-35.7865464,1.14461815
60fcd1e550bc02fc6cdef30e,50,1,2024-02-28T17:51:32.283Z,french_214.wav,0,pull,509,23,5,3,English,f,6,0.6,-20.4344568,1.91768043
60fcd1e550bc02fc6cdef30e,50,1,2024-02-28T17:51:32.283Z,french_214.wav,0,pull,509,23,5,3,English,f,7,0.7,-99.35771384,0.9470318
60fcd1e550bc02fc6cdef30e,50,1,2024-02-28T17:51:32.283Z,french_214.wav,0,pull,509,23,5,3,English,f,8,0.8,86.91939497,1.04643305
60fcd1e550bc02fc6cdef30e,50,1,2024-02-28T17:51:32.283Z,french_214.wav,0,pull,509,23,5,3,English,f,9,0.9,-25.24426974,1.3223723
60fcd1e550bc02fc6cdef30e,50,1,2024-02-28T17:51:32.283Z,french_214.wav,0,pull,509,23,5,3,English,f,10,1.0,-60.56392666,0.5907476
60fcd1e550bc02fc6cdef30e,50,1,2024-02-28T17:51:32.283Z,french_214.wav,0,pull,509,23,5,3,English,f,11,1.1,64.39502353,0.28658765
60fcd1e550bc02fc6cdef30e,50,1,2024-02-28T17:51:32.283Z,french_214.wav,0,pull,509,23,5,3,English,f,12,1.14141667,77.69133565,0.25263984
60fcd1e550bc02fc6cdef30e,51,1,2024-02-28T17:51:32.283Z,french_453.wav,0,poule,457,23,5,3,English,f,0,0.0,-23.12360245,0.90227617
60fcd1e550bc02fc6cdef30e,51,1,2024-02-28T17:51:32.283Z,french_453.wav,0,poule,457,23,5,3,English,f,1,0.1,29.79054149,0.21120058
60fcd1e550bc02fc6cdef30e,51,1,2024-02-28T17:51:32.283Z,french_453.wav,0,poule,457,23,5,3,English,f,2,0.2,-61.88371212,0.51262885
60fcd1e550bc02fc6cdef30e,51,1,2024-02-28T17:51:32.283Z,french_453.wav,0,poule,457,23,5,3,English,f,3,0.3,24.4476251,1.10207476
60fcd1e550bc02fc6cdef30e,51,1,2024-02-28T17:51:32.283Z,french_453.wav,0,poule,457,23,5,3,English,f,4,0.4,74.62873842,0.01288431
60fcd1e550bc02fc6cdef30e,51,1,2024-02-28T17:51:32.283Z,french_453.wav,0,poule,457,23,5,3,English,f,5,0.5,12.37672846,0.02891067
60fcd1e550bc02fc6cdef30e,51,1,2024-02-28T17:51:32.283Z,french_453.wav,0,poule,457,23,5,3,English,f,6,0.6,-70.00186754,0.10282501
60fcd1e550bc02fc6cdef30e,51,1,2024-02-28T17:51:32.283Z,french_453.wav,0,poule,457,23,5,3,English,f,7,0.7,11.74973885,0.68270454
60fcd1e550bc02fc6cdef30e,51,1,2024-02-28T17:51:32.283Z,french_453.wav,0,poule,457,23,5,3,English,f,8,0.8,-80.88572625,0.50027224
60fcd1e550bc02fc6cdef30e,51,1,2024-02-28T17:51:32.283Z,french_453.wav,0,poule,457,23,5,3,English,f,9,0.9,66.25216979,1.17966042
60fcd1e550bc02fc6cdef30e,51,1,2024-02-28T17:51:32.283Z,french_453.wav,0,poule,457,23,5,3,English,f,10,1.0,-23.72864128,1.91038714
60fcd1e550bc02fc6cdef30e,51,1,2024-02-28T17:51:32.283Z,french_453.wav,0,poule,457,23,5,3,English,f,11,1.1,33.84760067,1.13795736
60fcd1e550bc02fc6cdef30e,51,1,2024-02-28T17:51:32.283Z,french_453.wav,0,poule,457,23,5,3,English,f,12,1.14141667,-62.79214688,0.6421682
60fcd1e550bc02fc6cdef30e,52,1,2024-02-28T17:51:32.283Z,french_51.wav,0,pull,622,23,5,3,English,f,0,0.0,62.4944225,0.56001198
60fcd1e550bc02fc6cdef30e,52,1,2024-02-28T17:51:32.283Z,french_51.wav,0,pull,622,23,5,3,English,f,1,0.1,61.10498272,1.54758202
60fcd1e550bc02fc6cdef30e,52,1,2024-02-28T17:51:32.283Z,french_51.wav,0,pull,622,23,5,3,English,f,2,0.2,-42.55198692,0.60904928
60fcd1e550bc02fc6cdef30e,52,1,2024-02-28T17:51:32.283Z,french_51.wav,0,pull,622,23,5,3,English,f,3,0.3,-72.35169931,1.71890081
60fcd1e550bc02fc6cdef30e,52,1,2024-02-28T17:51:32.283Z,french_51.wav,0,pull,622,23,5,3,English,f,4,0.4,-39.72934283,0.5014883
60fcd1e550bc02fc6cdef30e,52,1,2024-02-28T17:51:32.283Z,french_51.wav,0,pull,622,23,5,3,English,f,5,0.5,-0.87762192,1.02109286
60fcd1e550bc02fc6cdef30e,52,1,2024-02-28T17:51:32.283Z,french_51.wav,0,pull,622,23,5,3,English,f,6,0.6,7.66993076,1.51415411
60fcd1e550bc02fc6cdef30e,52,1,2024-02-28T17:51:32.283Z,french_51.wav,0,pull,622,23,5,3,English,f,7,0.7,-6.36433464,1.90557728
60fcd1e550bc02fc6cdef30e,52,1,2024-02-28T17:51:32.283Z,french_51.wav,0,pull,622,23,5,3,English,f,8,0.8,-39.73719786,0.23887444
60fcd1e550bc02fc6cdef30e,52,1,2024-02-28T17:51:32.283Z,french_51.wav,0,pull,622,23,5,3,English,f,9,0.9,-64.33065086,0.05375229
60fcd1e550bc02fc6cdef30e,52,1,2024-02-28T17:51:32.283Z,french_51.wav,0,pull,622,23,5,3,English,f,10,1.0,34.09936964,0.21145589
60fcd1e550bc02fc6cdef30e,52,1,2024-02-28T17:51:32.283Z,french_51.wav,0,pull,622,23,5,3,English,f,11,1.1,93.5102441,0.42199399
60fcd1e550bc02fc6cdef30e,52,1,2024-02-28T17:51:32.283Z,french_51.wav,0,pull,622,23,5,3,English,f,12,1.14141667,81.02465116,0.67338837
60fcd1e550bc02fc6cdef30e,53,1,2024-02-28T17:51:32.283Z,french_379.wav,0,pull,152,23,5,3,English,f,0,0.0,92.35208151,0.11616284
60fcd1e550bc02fc6cdef30e,53,1,2024-02-28T17:51:32.283Z,french_379.wav,0,pull,152,23,5,3,English,f,1,0.1,-25.91567626,0.27217006
60fcd1e550bc02fc6cdef30e,53,1,2024-02-28T17:51:32.283Z,french_379.wav,0,pull,152,23,5,3,English,f,2,0.2,-77.118008,0.89509921
60fcd1e550bc02fc6cdef30e,53,1,2024-02-28T17:51:32.283Z,french_379.wav,0,pull,152,23,5,3,English,f,3,0.3,29.86283118,0.0899849
60fcd1e550bc02fc6cdef30e,53,1,2024-02-28T17:51:32.283Z,french_379.wav,0,pull,152,23,5,3,English,f,4,0.4,-82.08951689,1.97506173
60fcd1e550bc02fc6cdef30e,53,1,2024-02-28T17:51:32.283Z,french_379.wav,0,pull,152,23,5,3,English,f,5,0.5,-83.67767675,1.23110802
60fcd1e550bc02fc6cdef30e,53,1,2024-02-28T17:51:32.283Z,french_379.wav,0,pull,152,23,5,3,English,f,6,0.6,-86.47421564,1.35680108
60fcd1e550bc02fc6cdef30e,53,1,2024-02-28T17:51:32.283Z,french_379.wav,0,pull,152,23,5,3,English,f,7,0.7,-6.33610425,0.07151016
60fcd1e550bc02fc6cdef30e,53,1,2024-02-28T17:51:32.283Z,french_379.wav,0,pull,152,23,5,3,English,f,8,0.8,1.07303098,1.17075437
60fcd1e550bc02fc6cdef30e,53,1,2024-02-28T17:51:32.283Z,french_379.wav,0,pull,152,23,5,3,English,f,9,0.9,-96.07937115,1.73539261
60fcd1e550bc02fc6cdef30e,53,1,2024-02-28T17:51:32.283Z,french_379.wav,0,pull,152,23,5,3,English,f,10,1.0,-53.89727413,0.96881955
60fcd1e550bc02fc6cdef30e,53,1,2024-02-28T17:51:32.283Z,french_379.wav,0,pull,152,23,5,3,English,f,11,1.1,72.38399251,1.26167389
60fcd1e550bc02fc6cdef30e,53,1,2024-02-28T17:51:32.283Z,french_379.wav,0,pull,152,23,5,3,English,f,12,1.14141667,18.55821878,1.82038754
60fcd1e550bc02fc6cdef30e,54,1,2024-02-28T17:51:32.283Z,french_333.wav,0,pull,461,23,5,3,English,f,0,0.0,-20.77044182,1.43629895
60fcd1e550bc02fc6cdef30e,54,1,2024-02-28T17:51:32.283Z,french_333.wav,0,pull,461,23,5,3,English,f,1,0.1,26.03274788,0.14363016
60fcd1e550bc02fc6cdef30e,54,1,2024-02-28T17:51:32.283Z,french_333.wav,0,pull,461,23,5,3,English,f,2,0.2,44.25680739,0.99533055
60fcd1e550bc02fc6cdef30e,54,1,2024-02-28T17:51:32.283Z,french_333.wav,0,pull,461,23,5,3,English,f,3,0.3,54.84607734,1.58313255
60fcd1e550bc02fc6cdef30e,54,1,2024-02-28T17:51:32.283Z,french_333.wav,0,pull,461,23,5,3,English,f,4,0.4,-84.70319837,0.87601018
60fcd1e550bc02fc6cdef30e,54,1,2024-02-28T17:51:32.283Z,french_333.wav,0,pull,461,23,5,3,English,f,5,0.5,50.88930926,1.3608632
60fcd1e550bc02fc6cdef30e,54,1,2024-02-28T17:51:32.283Z,french_333.wav,0,pull,461,23,5,3,English,f,6,0.6,91.49561161,1.05674693
60fcd1e550bc02fc6cdef30e,54,1,2024-02-28T17:51:32.283Z,french_333.wav,0,pull,461,23,5,3,English,f,7,0.7,-79.27192118,0.56286184
60fcd1e550bc02fc6cdef30e,54,1,2024-02-28T17:51:32.283Z,french_333.wav,0,pull,461,23,5,3,English,f,8,0.8,-16.30652355,1.24047364
60fcd1e550bc02fc6cdef30e,54,1,2024-02-28T17:51:32.283Z,french_333.wav,0,pull,461,23,5,3,English,f,9,0.9,-46.58669152,0.80209834
60fcd1e550bc02fc6cdef30e,54,1,2024-02-28T17:51:32.283Z,french_333.wav,0,pull,461,23,5,3,English,f,10,1.0,92.33152656,0.198323
60fcd1e550bc02fc6cdef30e,54,1,2024-02-28T17:51:32.283Z,french_333.wav,0,pull,461,23,5,3,English,f,11,1.1,53.35128711,1.38035768
60fcd1e550bc02fc6cdef30e,54,1,2024-02-28T17:51:32.283Z,french_333.wav,0,pull,461,23,5,3,English,f,12,1.14141667,-31.95559671,0.94952553
60fcd1e550bc02fc6cdef30e,55,1,2024-02-28T17:51:32.283Z,french_328.wav,0,pull,513,23,5,3,English,f,0,0.0,70.39281279,1.11868874
60fcd1e550bc02fc6cdef30e,55,1,2024-02-28T17:51:32.283Z,french_328.wav,0,pull,513,23,5,3,English,f,1,0.1,-62.4365066,1.7831523
60fcd1e550bc02fc6cdef30e,55,1,2024-02-28T17:51:32.283Z,french_328.wav,0,pull,513,23,5,3,English,f,2,0.2,74.18889281,0.37694606
60fcd1e550bc02fc6cdef30e,55,1,2024-02-28T17:51:32.283Z,french_328.wav,0,pull,513,23,5,3,English,f,3,0.3,6.08253947,0.30173154
60fcd1e550bc02fc6cdef30e,55,1,2024-02-28T17:51:32.283Z,french_328.wav,0,pull,513,23,5,3,English,f,4,0.4,14.94897536,1.08259473
60fcd1e550bc02fc6cdef30e,55,1,2024-02-28T17:51:32.283Z,french_328.wav,0,pull,513,23,5,3,English,f,5,0.5,-45.91689169,0.83879107
60fcd1e550bc02fc6cdef30e,55,1,2024-02-28T17:51:32.283Z,french_328.wav,0,pull,513,23,5,3,English,f,6,0.6,51.00614237,0.64036349
60fcd1e550bc02fc6cdef30e,55,1,2024-02-28T17:51:32.283Z,french_328.wav,0,pull,513,23,5,3,English,f,7,0.7,-68.53703239,1.67880376
60fcd1e550bc02fc6cdef30e,55,1,2024-02-28T17:51:32.283Z,french_328.wav,0,pull,513,23,5,3,English,f,8,0.8,93.58528924,1.29419858
60fcd1e550bc02fc6cdef30e,55,1,2024-02-28T17:51:32.283Z,french_328.wav,0,pull,513,23,5,3,English,f,9,0.9,51.46046525,0.63702013
60fcd1e550bc02fc6cdef30e,55,1,2024-02-28T17:51:32.283Z,french_328.wav,0,pull,513,23,5,3,English,f,10,1.0,-77.58470521,0.88742502
60fcd1e550bc02fc6cdef30e,55,1,2024-02-28T17:51:32.283Z,french_328.wav,0,pull,513,23,5,3,English,f,11,1.1,-72.45732105,0.08384723
60fcd1e550bc02fc6cdef30e,55,1,2024-02-28T17:51:32.283Z,french_328.wav,0,pull,513,23,5,3,English,f,12,1.14141667,-40.05577785,0.80959776
60fcd1e550bc02fc6cdef30e,56,1,2024-02-28T17:51:32.283Z,french_905.wav,0,poule,279,23,5,3,English,f,0,0.0,-38.71328765,0.16851996
60fcd1e550bc02fc6cdef30e,56,1,2024-02-28T17:51:32.283Z,french_905.wav,0,poule,279,23,5,3,English,f,1,0.1,-13.25441968,0.90731449
60fcd1e550bc02fc6cdef30e,56,1,2024-02-28T17:51:32.283Z,french_905.wav,0,poule,279,23,5,3,English,f,2,0.2,68.23042526,1.02086119
60fcd1e550bc02fc6cdef30e,56,1,2024-02-28T17:51:32.283Z,french_905.wav,0,poule,279,23,5,3,English,f,3,0.3,-9.07899561,1.91741767
60fcd1e550bc02fc6cdef30e,56,1,2024-02-28T17:51:32.283Z,french_905.wav,0,poule,279,23,5,3,English,f,4,0.4,23.04374358,0.92707997
60fcd1e550bc02fc6cdef30e,56,1,2024-02-28T17:51:32.283Z,french_905.wav,0,poule,279,23,5,3,English,f,5,0.5,-34.50239331,0.34846439
60fcd1e550bc02fc6cdef30e,56,1,2024-02-28T17:51:32.283Z,french_905.wav,0,poule,279,23,5,3,English,f,6,0.6,-88.44622923,1.28024377
60fcd1e550bc02fc6cdef30e,56,1,2024-02-28T17:51:32.283Z,french_905.wav,0,poule,279,23,5,3,English,f,7,0.7,1.86512392,0.9406567
60fcd1e550bc02fc6cdef30e,56,1,2024-02-28T17:51:32.283Z,french_905.wav,0,poule,279,23,5,3,English,f,8,0.8,49.982607,0.97954408
60fcd1e550bc02fc6cdef30e,56,1,2024-02-28T17:51:32.283Z,french_905.wav,0,poule,279,23,5,3,English,f,9,0.9,-74.6664717,1.64343683
60fcd1e550bc02fc6cdef30e,56,1,2024-02-28T17:51:32.283Z,french_905.wav,0,poule,279,23,5,3,English,f,10,1.0,25.28695903,1.08233256
60fcd1e550bc02fc6cdef30e,56,1,2024-02-28T17:51:32.283Z,french_905.wav,0,poule,279,23,5,3,English,f,11,1.1,-11.94855431,0.01276583
60fcd1e550bc02fc6cdef30e,56,1,2024-02-28T17:51:32.283Z,french_905.wav,0,poule,279,23,5,3,English,f,12,1.14141667,83.46177553,0.02193146
60fcd1e550bc02fc6cdef30e,57,1,2024-02-28T17:51:32.283Z,french_263.wav,0,poule,375,23,5,3,English,f,0,0.0,-35.6234396,0.41942748
60fcd1e550bc02fc6cdef30e,57,1,2024-02-28T17:51:32.283Z,french_263.wav,0,poule,375,23,5,3,English,f,1,0.1,80.58342714,0.86466593
60fcd1e550bc02fc6cdef30e,57,1,2024-02-28T17:51:32.283Z,french_263.wav,0,poule,375,23,5,3,English,f,2,0.2,26.9247896,0.90258842
60fcd1e550bc02fc6cdef30e,57,1,2024-02-28T17:51:32.283Z,french_263.wav,0,poule,375,23,5,3,English,f,3,0.3,-64.28881536,0.30940464
60fcd1e550bc02fc6cdef30e,57,1,2024-02-28T17:51:32.283Z,french_263.wav,0,poule,375,23,5,3,English,f,4,0.4,71.8745562,0.49132319
60fcd1e550bc02fc6cdef30e,57,1,2024-02-28T17:51:32.283Z,french_263.wav,0,poule,375,23,5,3,English,f,5,0.5,-24.24365063,0.18866759
60fcd1e550bc02fc6cdef30e,57,1,2024-02-28T17:51:32.283Z,french_263.wav,0,poule,375,23,5,3,English,f,6,0.6,67.89663748,1.09978722
60fcd1e550bc02fc6cdef30e,57,1,2024-02-28T17:51:32.283Z,french_263.wav,0,poule,375,23,5,3,English,f,7,0.7,5.62822954,0.81261586
60fcd1e550bc02fc6cdef30e,57,1,2024-02-28T17:51:32.283Z,french_263.wav,0,poule,375,23,5,3,English,f,8,0.8,8.21920478,0.42151921
60fcd1e550bc02fc6cdef30e,57,1,2024-02-28T17:51:32.283Z,french_263.wav,0,poule,375,23,5,3,English,f,9,0.9,-4.84660323,0.86223793
60fcd1e550bc02fc6cdef30e,57,1,2024-02-28T17:51:32.283Z,french_263.wav,0,poule,375,23,5,3,English,f,10,1.0,92.2995778,0.83361364
60fcd1e550bc02fc6cdef30e,57,1,2024-02-28T17:51:32.283Z,french_263.wav,0,poule,375,23,5,3,English,f,11,1.1,5.29993653,0.95375213
60fcd1e550bc02fc6cdef30e,57,1,2024-02-28T17:51:32.283Z,french_263.wav,0,poule,375,23,5,3,English,f,12,1.14141667,-11.24406753,0.43274193
60fcd1e550bc02fc6cdef30e,58,1,2024-02-28T17:51:32.283Z,french_81.wav,0,poule,778,23,5,3,English,f,0,0.0,67.6847266,1.81460428
60fcd1e550bc02fc6cdef30e,58,1,2024-02-28T17:51:32.283Z,french_81.wav,0,poule,778,23,5,3,English,f,1,0.1,-58.3581712,1.73405123
60fcd1e550bc02fc6cdef30e,58,1,2024-02-28T17:51:32.283Z,french_81.wav,0,poule,778,23,5,3,English,f,2,0.2,32.9541847,1.57189037
60fcd1e550bc02fc6cdef30e,58,1,2024-02-28T17:51:32.283Z,french_81.wav,0,poule,778,23,5,3,English,f,3,0.3,6.29425878,1.70078164
60fcd1e550bc02fc6cdef30e,58,1,2024-02-28T17:51:32.283Z,french_81.wav,0,poule,778,23,5,3,English,f,4,0.4,-86.2881706,1.17783701
60fcd1e550bc02fc6cdef30e,58,1,2024-02-28T17:51:32.283Z,french_81.wav,0,poule,778,23,5,3,English,f,5,0.5,12.2464963,1.20141313
60fcd1e550bc02fc6cdef30e,58,1,2024-02-28T17:51:32.283Z,french_81.wav,0,poule,778,23,5,3,English,f,6,0.6,-8.0116786,0.76040054
60fcd1e550bc02fc6cdef30e,58,1,2024-02-28T17:51:32.283Z,french_81.wav,0,poule,778,23,5,3,English,f,7,0.7,-81.7805605,0.61904183
60fcd1e550bc02fc6cdef30e,58,1,2024-02-28T17:51:32.283Z,french_81.wav,0,poule,778,23,5,3,English,f,8,0.8,-26.6703715,0.14117463
60fcd1e550bc02fc6cdef30e,58,1,2024-02-28T17:51:32.283Z,french_81.wav,0,poule,778,23,5,3,English,f,9,0.9,0.00583519665,0.42043152
60fcd1e550bc02fc6cdef30e,58,1,2024-02-28T17:51:32.283Z,french_81.wav,0,poule,778,23,5,3,English,f,10,1.0,40.7172767,0.44958537
60fcd1e550bc02fc6cdef30e,58,1,2024-02-28T17:51:32.283Z,french_81.wav,0,poule,778,23,5,3,English,f,11,1.1,-82.2964273,0.90894384
60fcd1e550bc02fc6cdef30e,58,1,2024-02-28T17:51:32.283Z,french_81.wav,0,poule,778,23,5,3,English,f,12,1.14141667,-70.2645664,0.31630246
60fcd1e550bc02fc6cdef30e,59,1,2024-02-28T17:51:32.283Z,french_156.wav,0,pull,609,23,5,3,English,f,0,0.0,6.24973356,0.42853185
60fcd1e550bc02fc6cdef30e,59,1,2024-02-28T17:51:32.283Z,french_156.wav,0,pull,609,23,5,3,English,f,1,0.1,-59.28869938,0.11783084
60fcd1e550bc02fc6cdef30e,59,1,2024-02-28T17:51:32.283Z,french_156.wav,0,pull,609,23,5,3,English,f,2,0.2,-54.93017369,0.30000134
60fcd1e550bc02fc6cdef30e,59,1,2024-02-28T17:51:32.283Z,french_156.wav,0,pull,609,23,5,3,English,f,3,0.3,70.45865659,1.53849502
60fcd1e550bc02fc6cdef30e,59,1,2024-02-28T17:51:32.283Z,french_156.wav,0,pull,609,23,5,3,English,f,4,0.4,34.41093143,1.35848197
60fcd1e550bc02fc6cdef30e,59,1,2024-02-28T17:51:32.283Z,french_156.wav,0,pull,609,23,5,3,English,f,5,0.5,-22.64644682,1.2667626
60fcd1e550bc02fc6cdef30e,59,1,2024-02-28T17:51:32.283Z,french_156.wav,0,pull,609,23,5,3,English,f,6,0.6,37.82984887,1.77001246
60fcd1e550bc02fc6cdef30e,59,1,2024-02-28T17:51:32.283Z,french_156.wav,0,pull,609,23,5,3,English,f,7,0.7,-84.29242808,0.71439786
60fcd1e550bc02fc6cdef30e,59,1,2024-02-28T17:51:32.283Z,french_156.wav,0,pull,609,23,5,3,English,f,8,0.8,97.70285322,0.64267275
60fcd1e550bc02fc6cdef30e,59,1,2024-02-28T17:51:32.283Z,french_156.wav,0,pull,609,23,5,3,English,f,9,0.9,-99.58855667,0.57389872
