subj,trial,block,date,stim,stim_order,response,rt,age,english,french,language,sex,param_index,segment,pitch,stretch
65be8fd402043b3040826d6b,0,0,2024-02-28T19:29:08.012Z,french_462.wav,0,poule,4979,19,5,4,english,f,0,0.0,84.3369576,1.25832813
65be8fd402043b3040826d6b,0,0,2024-02-28T19:29:08.012Z,french_462.wav,0,poule,4979,19,5,4,english,f,1,0.1,36.79048727,1.27617891
65be8fd402043b3040826d6b,0,0,2024-02-28T19:29:08.012Z,french_462.wav,0,poule,4979,19,5,4,english,f,2,0.2,97.87832592,0.34943573
65be8fd402043b3040826d6b,0,0,2024-02-28T19:29:08.012Z,french_462.wav,0,poule,4979,19,5,4,english,f,3,0.3,-59.30260184,0.84539824
65be8fd402043b3040826d6b,0,0,2024-02-28T19:29:08.012Z,french_462.wav,0,poule,4979,19,5,4,english,f,4,0.4,-3.27952494,1.57318103
65be8fd402043b3040826d6b,0,0,2024-02-28T19:29:08.012Z,french_462.wav,0,poule,4979,19,5,4,english,f,5,0.5,68.21893327,0.94682889
65be8fd402043b3040826d6b,0,0,2024-02-28T19:29:08.012Z,french_462.wav,0,poule,4979,19,5,4,english,f,6,0.6,-69.29684535,0.71247574
65be8fd402043b3040826d6b,0,0,2024-02-28T19:29:08.012Z,french_462.wav,0,poule,4979,19,5,4,english,f,7,0.7,-13.15553229,0.50326288
65be8fd402043b3040826d6b,0,0,2024-02-28T19:29:08.012Z,french_462.wav,0,poule,4979,19,5,4,english,f,8,0.8,86.11314581,1.73607664
65be8fd402043b3040826d6b,0,0,2024-02-28T19:29:08.012Z,french_462.wav,0,poule,4979,19,5,4,english,f,9,0.9,57.06361677,1.1928267
65be8fd402043b3040826d6b,0,0,2024-02-28T19:29:08.012Z,french_462.wav,0,poule,4979,19,5,4,english,f,10,1.0,-29.41015559,0.97251074
65be8fd402043b3040826d6b,0,0,2024-02-28T19:29:08.012Z,french_462.wav,0,poule,4979,19,5,4,english,f,11,1.1,16.3701653,0.13741037
65be8fd402043b3040826d6b,0,0,2024-02-28T19:29:08.012Z,french_462.wav,0,poule,4979,19,5,4,english,f,12,1.14141667,72.14553851,0.73566388
65be8fd402043b3040826d6b,1,0,2024-02-28T19:29:08.012Z,french_493.wav,0,pull,1406,19,5,4,english,f,0,0.0,60.87043757,1.40554211
65be8fd402043b3040826d6b,1,0,2024-02-28T19:29:08.012Z,french_493.wav,0,pull,1406,19,5,4,english,f,1,0.1,32.48463857,1.66457085
65be8fd402043b3040826d6b,1,0,2024-02-28T19:29:08.012Z,french_493.wav,0,pull,1406,19,5,4,english,f,2,0.2,-22.70234149,0.98125391
65be8fd402043b3040826d6b,1,0,2024-02-28T19:29:08.012Z,french_493.wav,0,pull,1406,19,5,4,english,f,3,0.3,50.40796262,0.90333754
65be8fd402043b3040826d6b,1,0,2024-02-28T19:29:08.012Z,french_493.wav,0,pull,1406,19,5,4,english,f,4,0.4,-78.7388222,1.39408007
65be8fd402043b3040826d6b,1,0,2024-02-28T19:29:08.012Z,french_493.wav,0,pull,1406,19,5,4,english,f,5,0.5,84.40256274,0.50123737
65be8fd402043b3040826d6b,1,0,2024-02-28T19:29:08.012Z,french_493.wav,0,pull,1406,19,5,4,english,f,6,0.6,-34.18666035,1.84289139
65be8fd402043b3040826d6b,1,0,2024-02-28T19:29:08.012Z,french_493.wav,0,pull,1406,19,5,4,english,f,7,0.7,-64.74461958,0.68636344
65be8fd402043b3040826d6b,1,0,2024-02-28T19:29:08.012Z,french_493.wav,0,pull,1406,19,5,4,english,f,8,0.8,-49.62372235,0.94996692
65be8fd402043b3040826d6b,1,0,2024-02-28T19:29:08.012Z,french_493.wav,0,pull,1406,19,5,4,english,f,9,0.9,78.29908118,1.99629326
65be8fd402043b3040826d6b,1,0,2024-02-28T19:29:08.012Z,french_493.wav,0,pull,1406,19,5,4,english,f,10,1.0,35.51073391,0.05507168
65be8fd402043b3040826d6b,1,0,2024-02-28T19:29:08.012Z,french_493.wav,0,pull,1406,19,5,4,english,f,11,1.1,-58.37579915,1.95320668
65be8fd402043b3040826d6b,1,0,2024-02-28T19:29:08.012Z,french_493.wav,0,pull,1406,19,5,4,english,f,12,1.14141667,94.1178709,0.03741916
65be8fd402043b3040826d6b,2,0,2024-02-28T19:29:08.012Z,french_930.wav,0,poule,1306,19,5,4,english,f,0,0.0,-19.87682244,1.26137433
65be8fd402043b3040826d6b,2,0,2024-02-28T19:29:08.012Z,french_930.wav,0,poule,1306,19,5,4,english,f,1,0.1,33.32374643,1.39217721
65be8fd402043b3040826d6b,2,0,2024-02-28T19:29:08.012Z,french_930.wav,0,poule,1306,19,5,4,english,f,2,0.2,-3.87894318,0.64379498
65be8fd402043b3040826d6b,2,0,2024-02-28T19:29:08.012Z,french_930.wav,0,poule,1306,19,5,4,english,f,3,0.3,29.76228245,0.20991032
65be8fd402043b3040826d6b,2,0,2024-02-28T19:29:08.012Z,french_930.wav,0,poule,1306,19,5,4,english,f,4,0.4,51.30696026,0.92641495
65be8fd402043b3040826d6b,2,0,2024-02-28T19:29:08.012Z,french_930.wav,0,poule,1306,19,5,4,english,f,5,0.5,-78.80141905,1.10165323
65be8fd402043b3040826d6b,2,0,2024-02-28T19:29:08.012Z,french_930.wav,0,poule,1306,19,5,4,english,f,6,0.6,-63.85822427,0.79329942
65be8fd402043b3040826d6b,2,0,2024-02-28T19:29:08.012Z,french_930.wav,0,poule,1306,19,5,4,english,f,7,0.7,42.50280172,1.85994667
65be8fd402043b3040826d6b,2,0,2024-02-28T19:29:08.012Z,french_930.wav,0,poule,1306,19,5,4,english,f,8,0.8,-6.05328021,0.58419589
65be8fd402043b3040826d6b,2,0,2024-02-28T19:29:08.012Z,french_930.wav,0,poule,1306,19,5,4,english,f,9,0.9,-43.35461535,0.82252221
65be8fd402043b3040826d6b,2,0,2024-02-28T19:29:08.012Z,french_930.wav,0,poule,1306,19,5,4,english,f,10,1.0,-40.42814,0.37530869
65be8fd402043b3040826d6b,2,0,2024-02-28T19:29:08.012Z,french_930.wav,0,poule,1306,19,5,4,english,f,11,1.1,43.1107058,1.62426313
65be8fd402043b3040826d6b,2,0,2024-02-28T19:29:08.012Z,french_930.wav,0,poule,1306,19,5,4,english,f,12,1.14141667,48.8884653,0.25399184
65be8fd402043b3040826d6b,3,0,2024-02-28T19:29:08.012Z,french_49.wav,0,pull,608,19,5,4,english,f,0,0.0,34.21091053,1.13592166
65be8fd402043b3040826d6b,3,0,2024-02-28T19:29:08.012Z,french_49.wav,0,pull,608,19,5,4,english,f,1,0.1,-12.94242268,0.4905038
65be8fd402043b3040826d6b,3,0,2024-02-28T19:29:08.012Z,french_49.wav,0,pull,608,19,5,4,english,f,2,0.2,-38.75700808,0.38893826
65be8fd402043b3040826d6b,3,0,2024-02-28T19:29:08.012Z,french_49.wav,0,pull,608,19,5,4,english,f,3,0.3,48.08306047,1.24492594
65be8fd402043b3040826d6b,3,0,2024-02-28T19:29:08.012Z,french_49.wav,0,pull,608,19,5,4,english,f,4,0.4,31.71568496,0.89198724
65be8fd402043b3040826d6b,3,0,2024-02-28T19:29:08.012Z,french_49.wav,0,pull,608,19,5,4,english,f,5,0.5,-78.74497046,1.00913594
65be8fd402043b3040826d6b,3,0,2024-02-28T19:29:08.012Z,french_49.wav,0,pull,608,19,5,4,english,f,6,0.6,-55.27969049,1.48457037
65be8fd402043b3040826d6b,3,0,2024-02-28T19:29:08.012Z,french_49.wav,0,pull,608,19,5,4,english,f,7,0.7,-83.02012222,0.96455629
65be8fd402043b3040826d6b,3,0,2024-02-28T19:29:08.012Z,french_49.wav,0,pull,608,19,5,4,english,f,8,0.8,-46.98717743,0.84518
65be8fd402043b3040826d6b,3,0,2024-02-28T19:29:08.012Z,french_49.wav,0,pull,608,19,5,4,english,f,9,0.9,37.86593938,1.17639224
65be8fd402043b3040826d6b,3,0,2024-02-28T19:29:08.012Z,french_49.wav,0,pull,608,19,5,4,english,f,10,1.0,-5.78985665,1.3841566
65be8fd402043b3040826d6b,3,0,2024-02-28T19:29:08.012Z,french_49.wav,0,pull,608,19,5,4,english,f,11,1.1,34.38441762,1.43637848
65be8fd402043b3040826d6b,3,0,2024-02-28T19:29:08.012Z,french_49.wav,0,pull,608,19,5,4,english,f,12,1.14141667,-87.14259119,0.6107386
65be8fd402043b3040826d6b,4,0,2024-02-28T19:29:08.012Z,french_234.wav,0,poule,2571,19,5,4,english,f,0,0.0,88.22307588,1.89855189
65be8fd402043b3040826d6b,4,0,2024-02-28T19:29:08.012Z,french_234.wav,0,poule,2571,19,5,4,english,f,1,0.1,57.26575683,1.27116008
65be8fd402043b3040826d6b,4,0,2024-02-28T19:29:08.012Z,french_234.wav,0,poule,2571,19,5,4,english,f,2,0.2,25.52563425,1.59337458
65be8fd402043b3040826d6b,4,0,2024-02-28T19:29:08.012Z,french_234.wav,0,poule,2571,19,5,4,english,f,3,0.3,-25.05527829,0.76927451
65be8fd402043b3040826d6b,4,0,2024-02-28T19:29:08.012Z,french_234.wav,0,poule,2571,19,5,4,english,f,4,0.4,-99.71798475,1.24054911
65be8fd402043b3040826d6b,4,0,2024-02-28T19:29:08.012Z,french_234.wav,0,poule,2571,19,5,4,english,f,5,0.5,-43.38981996,0.19501713
65be8fd402043b3040826d6b,4,0,2024-02-28T19:29:08.012Z,french_234.wav,0,poule,2571,19,5,4,english,f,6,0.6,-62.87626662,0.83885203
65be8fd402043b3040826d6b,4,0,2024-02-28T19:29:08.012Z,french_234.wav,0,poule,2571,19,5,4,english,f,7,0.7,-4.76781776,0.58437892
65be8fd402043b3040826d6b,4,0,2024-02-28T19:29:08.012Z,french_234.wav,0,poule,2571,19,5,4,english,f,8,0.8,56.90959429,0.42895921
65be8fd402043b3040826d6b,4,0,2024-02-28T19:29:08.012Z,french_234.wav,0,poule,2571,19,5,4,english,f,9,0.9,88.67981641,1.25749201
65be8fd402043b3040826d6b,4,0,2024-02-28T19:29:08.012Z,french_234.wav,0,poule,2571,19,5,4,english,f,10,1.0,-76.52776347,1.61503786
65be8fd402043b3040826d6b,4,0,2024-02-28T19:29:08.012Z,french_234.wav,0,poule,2571,19,5,4,english,f,11,1.1,-30.37754575,0.54685298
65be8fd402043b3040826d6b,4,0,2024-02-28T19:29:08.012Z,french_234.wav,0,poule,2571,19,5,4,english,f,12,1.14141667,5.71933253,1.35699627
65be8fd402043b3040826d6b,5,0,2024-02-28T19:29:08.012Z,french_390.wav,0,pull,1506,19,5,4,english,f,0,0.0,8.11578958,0.20844883
65be8fd402043b3040826d6b,5,0,2024-02-28T19:29:08.012Z,french_390.wav,0,pull,1506,19,5,4,english,f,1,0.1,39.94171881,1.32391978
65be8fd402043b3040826d6b,5,0,2024-02-28T19:29:08.012Z,french_390.wav,0,pull,1506,19,5,4,english,f,2,0.2,80.57609744,1.70464672
65be8fd402043b3040826d6b,5,0,2024-02-28T19:29:08.012Z,french_390.wav,0,pull,1506,19,5,4,english,f,3,0.3,-13.82348855,0.17193423
65be8fd402043b3040826d6b,5,0,2024-02-28T19:29:08.012Z,french_390.wav,0,pull,1506,19,5,4,english,f,4,0.4,-26.98289084,1.3879851
65be8fd402043b3040826d6b,5,0,2024-02-28T19:29:08.012Z,french_390.wav,0,pull,1506,19,5,4,english,f,5,0.5,-5.81404193,1.24417137
65be8fd402043b3040826d6b,5,0,2024-02-28T19:29:08.012Z,french_390.wav,0,pull,1506,19,5,4,english,f,6,0.6,52.64589619,0.90764787
65be8fd402043b3040826d6b,5,0,2024-02-28T19:29:08.012Z,french_390.wav,0,pull,1506,19,5,4,english,f,7,0.7,62.15943338,1.32078245
65be8fd402043b3040826d6b,5,0,2024-02-28T19:29:08.012Z,french_390.wav,0,pull,1506,19,5,4,english,f,8,0.8,-17.56819824,0.83829635
65be8fd402043b3040826d6b,5,0,2024-02-28T19:29:08.012Z,french_390.wav,0,pull,1506,19,5,4,english,f,9,0.9,-76.63953122,0.35252059
65be8fd402043b3040826d6b,5,0,2024-02-28T19:29:08.012Z,french_390.wav,0,pull,1506,19,5,4,english,f,10,1.0,-64.36193894,0.30961676
65be8fd402043b3040826d6b,5,0,2024-02-28T19:29:08.012Z,french_390.wav,0,pull,1506,19,5,4,english,f,11,1.1,-78.09182739,0.82109579
65be8fd402043b3040826d6b,5,0,2024-02-28T19:29:08.012Z,french_390.wav,0,pull,1506,19,5,4,english,f,12,1.14141667,-14.8487849,1.78955346
65be8fd402043b3040826d6b,6,0,2024-02-28T19:29:08.012Z,french_683.wav,0,pull,993,19,5,4,english,f,0,0.0,-22.25204531,0.10316623
65be8fd402043b3040826d6b,6,0,2024-02-28T19:29:08.012Z,french_683.wav,0,pull,993,19,5,4,english,f,1,0.1,81.71927807,0.47792981
65be8fd402043b3040826d6b,6,0,2024-02-28T19:29:08.012Z,french_683.wav,0,pull,993,19,5,4,english,f,2,0.2,-98.89480532,0.12707729
65be8fd402043b3040826d6b,6,0,2024-02-28T19:29:08.012Z,french_683.wav,0,pull,993,19,5,4,english,f,3,0.3,85.4566245,0.7208162
65be8fd402043b3040826d6b,6,0,2024-02-28T19:29:08.012Z,french_683.wav,0,pull,993,19,5,4,english,f,4,0.4,-82.68795994,0.12906086
65be8fd402043b3040826d6b,6,0,2024-02-28T19:29:08.012Z,french_683.wav,0,pull,993,19,5,4,english,f,5,0.5,10.69202358,1.87068598
65be8fd402043b3040826d6b,6,0,2024-02-28T19:29:08.012Z,french_683.wav,0,pull,993,19,5,4,english,f,6,0.6,18.38320013,1.19195283
65be8fd402043b3040826d6b,6,0,2024-02-28T19:29:08.012Z,french_683.wav,0,pull,993,19,5,4,english,f,7,0.7,69.93459203,1.81323994
65be8fd402043b3040826d6b,6,0,2024-02-28T19:29:08.012Z,french_683.wav,0,pull,993,19,5,4,english,f,8,0.8,-27.4597304,0.51750644
65be8fd402043b3040826d6b,6,0,2024-02-28T19:29:08.012Z,french_683.wav,0,pull,993,19,5,4,english,f,9,0.9,-9.36632986,0.9271707
65be8fd402043b3040826d6b,6,0,2024-02-28T19:29:08.012Z,french_683.wav,0,pull,993,19,5,4,english,f,10,1.0,-17.95152631,0.88909619
65be8fd402043b3040826d6b,6,0,2024-02-28T19:29:08.012Z,french_683.wav,0,pull,993,19,5,4,english,f,11,1.1,-74.29185784,1.51432158
65be8fd402043b3040826d6b,6,0,2024-02-28T19:29:08.012Z,french_683.wav,0,pull,993,19,5,4,english,f,12,1.14141667,17.19346793,0.6228548
65be8fd402043b3040826d6b,7,0,2024-02-28T19:29:08.012Z,french_427.wav,0,pull,778,19,5,4,english,f,0,0.0,-48.41701503,1.56219766
65be8fd402043b3040826d6b,7,0,2024-02-28T19:29:08.012Z,french_427.wav,0,pull,778,19,5,4,english,f,1,0.1,-28.57986094,0.39739554
65be8fd402043b3040826d6b,7,0,2024-02-28T19:29:08.012Z,french_427.wav,0,pull,778,19,5,4,english,f,2,0.2,0.90581005,1.12963232
65be8fd402043b3040826d6b,7,0,2024-02-28T19:29:08.012Z,french_427.wav,0,pull,778,19,5,4,english,f,3,0.3,19.09912814,0.41932749
65be8fd402043b3040826d6b,7,0,2024-02-28T19:29:08.012Z,french_427.wav,0,pull,778,19,5,4,english,f,4,0.4,82.05766861,1.84938579
65be8fd402043b3040826d6b,7,0,2024-02-28T19:29:08.012Z,french_427.wav,0,pull,778,19,5,4,english,f,5,0.5,24.08835826,0.65577454
65be8fd402043b3040826d6b,7,0,2024-02-28T19:29:08.012Z,french_427.wav,0,pull,778,19,5,4,english,f,6,0.6,-34.07004387,0.57976152
65be8fd402043b3040826d6b,7,0,2024-02-28T19:29:08.012Z,french_427.wav,0,pull,778,19,5,4,english,f,7,0.7,8.41664997,0.37472164
65be8fd402043b3040826d6b,7,0,2024-02-28T19:29:08.012Z,french_427.wav,0,pull,778,19,5,4,english,f,8,0.8,-13.86702556,1.58587157
65be8fd402043b3040826d6b,7,0,2024-02-28T19:29:08.012Z,french_427.wav,0,pull,778,19,5,4,english,f,9,0.9,-78.75947492,1.60768303
65be8fd402043b3040826d6b,7,0,2024-02-28T19:29:08.012Z,french_427.wav,0,pull,778,19,5,4,english,f,10,1.0,-67.25519612,1.23344585
65be8fd402043b3040826d6b,7,0,2024-02-28T19:29:08.012Z,french_427.wav,0,pull,778,19,5,4,english,f,11,1.1,33.54583234,0.58083121
65be8fd402043b3040826d6b,7,0,2024-02-28T19:29:08.012Z,french_427.wav,0,pull,778,19,5,4,english,f,12,1.14141667,98.61757136,0.87170503
65be8fd402043b3040826d6b,8,0,2024-02-28T19:29:08.012Z,french_583.wav,0,pull,750,19,5,4,english,f,0,0.0,26.44085031,0.31061179
65be8fd402043b3040826d6b,8,0,2024-02-28T19:29:08.012Z,french_583.wav,0,pull,750,19,5,4,english,f,1,0.1,14.41399243,0.85478015
65be8fd402043b3040826d6b,8,0,2024-02-28T19:29:08.012Z,french_583.wav,0,pull,750,19,5,4,english,f,2,0.2,-44.04798398,0.56023647
65be8fd402043b3040826d6b,8,0,2024-02-28T19:29:08.012Z,french_583.wav,0,pull,750,19,5,4,english,f,3,0.3,50.00895276,0.81245
65be8fd402043b3040826d6b,8,0,2024-02-28T19:29:08.012Z,french_583.wav,0,pull,750,19,5,4,english,f,4,0.4,19.39525308,1.75738507
65be8fd402043b3040826d6b,8,0,2024-02-28T19:29:08.012Z,french_583.wav,0,pull,750,19,5,4,english,f,5,0.5,-25.1077287,0.57873184
65be8fd402043b3040826d6b,8,0,2024-02-28T19:29:08.012Z,french_583.wav,0,pull,750,19,5,4,english,f,6,0.6,78.46877294,0.13356268
65be8fd402043b3040826d6b,8,0,2024-02-28T19:29:08.012Z,french_583.wav,0,pull,750,19,5,4,english,f,7,0.7,9.01865163,0.57025844
65be8fd402043b3040826d6b,8,0,2024-02-28T19:29:08.012Z,french_583.wav,0,pull,750,19,5,4,english,f,8,0.8,53.79896315,0.66409288
65be8fd402043b3040826d6b,8,0,2024-02-28T19:29:08.012Z,french_583.wav,0,pull,750,19,5,4,english,f,9,0.9,-34.8052192,0.72593729
65be8fd402043b3040826d6b,8,0,2024-02-28T19:29:08.012Z,french_583.wav,0,pull,750,19,5,4,english,f,10,1.0,-44.31336501,1.39487215
65be8fd402043b3040826d6b,8,0,2024-02-28T19:29:08.012Z,french_583.wav,0,pull,750,19,5,4,english,f,11,1.1,39.98165615,1.47926175
65be8fd402043b3040826d6b,8,0,2024-02-28T19:29:08.012Z,french_583.wav,0,pull,750,19,5,4,english,f,12,1.14141667,86.9176988,1.39400974
65be8fd402043b3040826d6b,9,0,2024-02-28T19:29:08.012Z,french_550.wav,0,pull,723,19,5,4,english,f,0,0.0,72.6201006,1.67033206
65be8fd402043b3040826d6b,9,0,2024-02-28T19:29:08.012Z,french_550.wav,0,pull,723,19,5,4,english,f,1,0.1,55.97657534,0.31629047
65be8fd402043b3040826d6b,9,0,2024-02-28T19:29:08.012Z,french_550.wav,0,pull,723,19,5,4,english,f,2,0.2,13.52543227,1.6455345
65be8fd402043b3040826d6b,9,0,2024-02-28T19:29:08.012Z,french_550.wav,0,pull,723,19,5,4,english,f,3,0.3,-81.349724,0.71516618
65be8fd402043b3040826d6b,9,0,2024-02-28T19:29:08.012Z,french_550.wav,0,pull,723,19,5,4,english,f,4,0.4,99.86498811,1.73006106
65be8fd402043b3040826d6b,9,0,2024-02-28T19:29:08.012Z,french_550.wav,0,pull,723,19,5,4,english,f,5,0.5,16.87534827,0.0344878
65be8fd402043b3040826d6b,9,0,2024-02-28T19:29:08.012Z,french_550.wav,0,pull,723,19,5,4,english,f,6,0.6,66.9812192,0.63862909
65be8fd402043b3040826d6b,9,0,2024-02-28T19:29:08.012Z,french_550.wav,0,pull,723,19,5,4,english,f,7,0.7,-75.38343533,1.07196046
65be8fd402043b3040826d6b,9,0,2024-02-28T19:29:08.012Z,french_550.wav,0,pull,723,19,5,4,english,f,8,0.8,5.7329485,1.84433576
65be8fd402043b3040826d6b,9,0,2024-02-28T19:29:08.012Z,french_550.wav,0,pull,723,19,5,4,english,f,9,0.9,58.05585557,0.95400442
65be8fd402043b3040826d6b,9,0,2024-02-28T19:29:08.012Z,french_550.wav,0,pull,723,19,5,4,english,f,10,1.0,-3.33377945,0.19158544
65be8fd402043b3040826d6b,9,0,2024-02-28T19:29:08.012Z,french_550.wav,0,pull,723,19,5,4,english,f,11,1.1,-43.74893274,1.26583767
65be8fd402043b3040826d6b,9,0,2024-02-28T19:29:08.012Z,french_550.wav,0,pull,723,19,5,4,english,f,12,1.14141667,-86.42154795,0.99784974
65be8fd402043b3040826d6b,10,0,2024-02-28T19:29:08.012Z,french_515.wav,0,pull,689,19,5,4,english,f,0,0.0,-4.32286311,1.75814959
65be8fd402043b3040826d6b,10,0,2024-02-28T19:29:08.012Z,french_515.wav,0,pull,689,19,5,4,english,f,1,0.1,-44.33537701,1.20576492
65be8fd402043b3040826d6b,10,0,2024-02-28T19:29:08.012Z,french_515.wav,0,pull,689,19,5,4,english,f,2,0.2,15.78127792,1.64200762
65be8fd402043b3040826d6b,10,0,2024-02-28T19:29:08.012Z,french_515.wav,0,pull,689,19,5,4,english,f,3,0.3,-89.02885546,0.90394207
65be8fd402043b3040826d6b,10,0,2024-02-28T19:29:08.012Z,french_515.wav,0,pull,689,19,5,4,english,f,4,0.4,79.00729914,1.94318296
65be8fd402043b3040826d6b,10,0,2024-02-28T19:29:08.012Z,french_515.wav,0,pull,689,19,5,4,english,f,5,0.5,-35.30094338,1.3687061
65be8fd402043b3040826d6b,10,0,2024-02-28T19:29:08.012Z,french_515.wav,0,pull,689,19,5,4,english,f,6,0.6,62.21827851,1.17175752
65be8fd402043b3040826d6b,10,0,2024-02-28T19:29:08.012Z,french_515.wav,0,pull,689,19,5,4,english,f,7,0.7,-89.96956463,0.52620308
65be8fd402043b3040826d6b,10,0,2024-02-28T19:29:08.012Z,french_515.wav,0,pull,689,19,5,4,english,f,8,0.8,-47.13344598,1.4204562
65be8fd402043b3040826d6b,10,0,2024-02-28T19:29:08.012Z,french_515.wav,0,pull,689,19,5,4,english,f,9,0.9,36.11915177,0.03677736
65be8fd402043b3040826d6b,10,0,2024-02-28T19:29:08.012Z,french_515.wav,0,pull,689,19,5,4,english,f,10,1.0,91.92450568,0.6940855
65be8fd402043b3040826d6b,10,0,2024-02-28T19:29:08.012Z,french_515.wav,0,pull,689,19,5,4,english,f,11,1.1,-64.59862943,1.106084
65be8fd402043b3040826d6b,10,0,2024-02-28T19:29:08.012Z,french_515.wav,0,pull,689,19,5,4,english,f,12,1.14141667,-64.9632151,1.16695411
65be8fd402043b3040826d6b,11,0,2024-02-28T19:29:08.012Z,french_249.wav,0,poule,983,19,5,4,english,f,0,0.0,60.2084808,0.86559925
65be8fd402043b3040826d6b,11,0,2024-02-28T19:29:08.012Z,french_249.wav,0,poule,983,19,5,4,english,f,1,0.1,33.79766745,1.55064503
65be8fd402043b3040826d6b,11,0,2024-02-28T19:29:08.012Z,french_249.wav,0,poule,983,19,5,4,english,f,2,0.2,-67.19130294,1.44078258
65be8fd402043b3040826d6b,11,0,2024-02-28T19:29:08.012Z,french_249.wav,0,poule,983,19,5,4,english,f,3,0.3,-89.07860563,1.18134184
65be8fd402043b3040826d6b,11,0,2024-02-28T19:29:08.012Z,french_249.wav,0,poule,983,19,5,4,english,f,4,0.4,55.46525036,1.70386756
65be8fd402043b3040826d6b,11,0,2024-02-28T19:29:08.012Z,french_249.wav,0,poule,983,19,5,4,english,f,5,0.5,-26.3415238,0.52002409
65be8fd402043b3040826d6b,11,0,2024-02-28T19:29:08.012Z,french_249.wav,0,poule,983,19,5,4,english,f,6,0.6,51.34404516,1.32158866
65be8fd402043b3040826d6b,11,0,2024-02-28T19:29:08.012Z,french_249.wav,0,poule,983,19,5,4,english,f,7,0.7,-29.32821096,1.15452897
65be8fd402043b3040826d6b,11,0,2024-02-28T19:29:08.012Z,french_249.wav,0,poule,983,19,5,4,english,f,8,0.8,50.27991968,0.19271394
65be8fd402043b3040826d6b,11,0,2024-02-28T19:29:08.012Z,french_249.wav,0,poule,983,19,5,4,english,f,9,0.9,-10.43676988,1.46688151
65be8fd402043b3040826d6b,11,0,2024-02-28T19:29:08.012Z,french_249.wav,0,poule,983,19,5,4,english,f,10,1.0,5.00839112,0.5650028
65be8fd402043b3040826d6b,11,0,2024-02-28T19:29:08.012Z,french_249.wav,0,poule,983,19,5,4,english,f,11,1.1,24.89196533,0.4009333
65be8fd402043b3040826d6b,11,0,2024-02-28T19:29:08.012Z,french_249.wav,0,poule,983,19,5,4,english,f,12,1.14141667,1.54565791,0.66216287
65be8fd402043b3040826d6b,12,0,2024-02-28T19:29:08.012Z,french_314.wav,0,poule,508,19,5,4,english,f,0,0.0,98.47852425,0.84050002
65be8fd402043b3040826d6b,12,0,2024-02-28T19:29:08.012Z,french_314.wav,0,poule,508,19,5,4,english,f,1,0.1,-4.76765087,1.9178096
65be8fd402043b3040826d6b,12,0,2024-02-28T19:29:08.012Z,french_314.wav,0,poule,508,19,5,4,english,f,2,0.2,98.99563551,1.48544664
65be8fd402043b3040826d6b,12,0,2024-02-28T19:29:08.012Z,french_314.wav,0,poule,508,19,5,4,english,f,3,0.3,-26.02974157,0.28338038
65be8fd402043b3040826d6b,12,0,2024-02-28T19:29:08.012Z,french_314.wav,0,poule,508,19,5,4,english,f,4,0.4,3.57072729,1.67118839
65be8fd402043b3040826d6b,12,0,2024-02-28T19:29:08.012Z,french_314.wav,0,poule,508,19,5,4,english,f,5,0.5,-27.39105802,0.9666753
65be8fd402043b3040826d6b,12,0,2024-02-28T19:29:08.012Z,french_314.wav,0,poule,508,19,5,4,english,f,6,0.6,-34.46329074,0.67276738
65be8fd402043b3040826d6b,12,0,2024-02-28T19:29:08.012Z,french_314.wav,0,poule,508,19,5,4,english,f,7,0.7,-19.61563284,1.19975177
65be8fd402043b3040826d6b,12,0,2024-02-28T19:29:08.012Z,french_314.wav,0,poule,508,19,5,4,english,f,8,0.8,86.50042899,0.06283499
65be8fd402043b3040826d6b,12,0,2024-02-28T19:29:08.012Z,french_314.wav,0,poule,508,19,5,4,english,f,9,0.9,-30.62380752,0.69763895
65be8fd402043b3040826d6b,12,0,2024-02-28T19:29:08.012Z,french_314.wav,0,poule,508,19,5,4,english,f,10,1.0,68.66999994,1.73674877
65be8fd402043b3040826d6b,12,0,2024-02-28T19:29:08.012Z,french_314.wav,0,poule,508,19,5,4,english,f,11,1.1,18.64968658,1.35552755
65be8fd402043b3040826d6b,12,0,2024-02-28T19:29:08.012Z,french_314.wav,0,poule,508,19,5,4,english,f,12,1.14141667,83.99037415,1.19565214
65be8fd402043b3040826d6b,13,0,2024-02-28T19:29:08.012Z,french_592.wav,0,poule,806,19,5,4,english,f,0,0.0,70.81103316,0.54665666
65be8fd402043b3040826d6b,13,0,2024-02-28T19:29:08.012Z,french_592.wav,0,poule,806,19,5,4,english,f,1,0.1,-26.4080383,0.88508354
65be8fd402043b3040826d6b,13,0,2024-02-28T19:29:08.012Z,french_592.wav,0,poule,806,19,5,4,english,f,2,0.2,-0.21646814,1.19588417
65be8fd402043b3040826d6b,13,0,2024-02-28T19:29:08.012Z,french_592.wav,0,poule,806,19,5,4,english,f,3,0.3,5.07209888,0.17214274
65be8fd402043b3040826d6b,13,0,2024-02-28T19:29:08.012Z,french_592.wav,0,poule,806,19,5,4,english,f,4,0.4,0.60727661,0.84375355
65be8fd402043b3040826d6b,13,0,2024-02-28T19:29:08.012Z,french_592.wav,0,poule,806,19,5,4,english,f,5,0.5,-4.25807997,1.80777341
65be8fd402043b3040826d6b,13,0,2024-02-28T19:29:08.012Z,french_592.wav,0,poule,806,19,5,4,english,f,6,0.6,-57.11909805,0.71388549
65be8fd402043b3040826d6b,13,0,2024-02-28T19:29:08.012Z,french_592.wav,0,poule,806,19,5,4,english,f,7,0.7,-40.92130442,1.31000832
65be8fd402043b3040826d6b,13,0,2024-02-28T19:29:08.012Z,french_592.wav,0,poule,806,19,5,4,english,f,8,0.8,57.21863493,0.43276947
65be8fd402043b3040826d6b,13,0,2024-02-28T19:29:08.012Z,french_592.wav,0,poule,806,19,5,4,english,f,9,0.9,70.04761432,1.73827866
65be8fd402043b3040826d6b,13,0,2024-02-28T19:29:08.012Z,french_592.wav,0,poule,806,19,5,4,english,f,10,1.0,-50.9301359,0.70932726
65be8fd402043b3040826d6b,13,0,2024-02-28T19:29:08.012Z,french_592.wav,0,poule,806,19,5,4,english,f,11,1.1,-84.24132436,0.23430707
65be8fd402043b3040826d6b,13,0,2024-02-28T19:29:08.012Z,french_592.wav,0,poule,806,19,5,4,english,f,12,1.14141667,-46.29341041,1.11453021
65be8fd402043b3040826d6b,14,0,2024-02-28T19:29:08.012Z,french_628.wav,0,pull,585,19,5,4,english,f,0,0.0,28.98064776,0.98418997
65be8fd402043b3040826d6b,14,0,2024-02-28T19:29:08.012Z,french_628.wav,0,pull,585,19,5,4,english,f,1,0.1,97.12286429,0.16344307
65be8fd402043b3040826d6b,14,0,2024-02-28T19:29:08.012Z,french_628.wav,0,pull,585,19,5,4,english,f,2,0.2,-80.73889599,1.6205545
65be8fd402043b3040826d6b,14,0,2024-02-28T19:29:08.012Z,french_628.wav,0,pull,585,19,5,4,english,f,3,0.3,-34.13229865,0.04211558
65be8fd402043b3040826d6b,14,0,2024-02-28T19:29:08.012Z,french_628.wav,0,pull,585,19,5,4,english,f,4,0.4,-28.25789245,0.29146504
65be8fd402043b3040826d6b,14,0,2024-02-28T19:29:08.012Z,french_628.wav,0,pull,585,19,5,4,english,f,5,0.5,30.74174251,1.00822946
65be8fd402043b3040826d6b,14,0,2024-02-28T19:29:08.012Z,french_628.wav,0,pull,585,19,5,4,english,f,6,0.6,-70.42701558,0.99852998
65be8fd402043b3040826d6b,14,0,2024-02-28T19:29:08.012Z,french_628.wav,0,pull,585,19,5,4,english,f,7,0.7,-79.42848468,0.12148108
65be8fd402043b3040826d6b,14,0,2024-02-28T19:29:08.012Z,french_628.wav,0,pull,585,19,5,4,english,f,8,0.8,-11.29296583,1.58757857
65be8fd402043b3040826d6b,14,0,2024-02-28T19:29:08.012Z,french_628.wav,0,pull,585,19,5,4,english,f,9,0.9,56.44608255,1.131434
65be8fd402043b3040826d6b,14,0,2024-02-28T19:29:08.012Z,french_628.wav,0,pull,585,19,5,4,english,f,10,1.0,-50.79678899,1.07078584
65be8fd402043b3040826d6b,14,0,2024-02-28T19:29:08.012Z,french_628.wav,0,pull,585,19,5,4,english,f,11,1.1,36.60975174,0.65492456
65be8fd402043b3040826d6b,14,0,2024-02-28T19:29:08.012Z,french_628.wav,0,pull,585,19,5,4,english,f,12,1.14141667,2.28400586,1.36384742
65be8fd402043b3040826d6b,15,0,2024-02-28T19:29:08.012Z,french_18.wav,0,pull,513,19,5,4,english,f,0,0.0,93.52743688,0.76387958
65be8fd402043b3040826d6b,15,0,2024-02-28T19:29:08.012Z,french_18.wav,0,pull,513,19,5,4,english,f,1,0.1,75.80838578,1.75297182
65be8fd402043b3040826d6b,15,0,2024-02-28T19:29:08.012Z,french_18.wav,0,pull,513,19,5,4,english,f,2,0.2,-9.29580861,0.15580834
65be8fd402043b3040826d6b,15,0,2024-02-28T19:29:08.012Z,french_18.wav,0,pull,513,19,5,4,english,f,3,0.3,-14.85608386,1.56760651
65be8fd402043b3040826d6b,15,0,2024-02-28T19:29:08.012Z,french_18.wav,0,pull,513,19,5,4,english,f,4,0.4,47.7084462,0.03729265
65be8fd402043b3040826d6b,15,0,2024-02-28T19:29:08.012Z,french_18.wav,0,pull,513,19,5,4,english,f,5,0.5,-86.34780257,1.22925424
65be8fd402043b3040826d6b,15,0,2024-02-28T19:29:08.012Z,french_18.wav,0,pull,513,19,5,4,english,f,6,0.6,56.10837569,0.55659065
65be8fd402043b3040826d6b,15,0,2024-02-28T19:29:08.012Z,french_18.wav,0,pull,513,19,5,4,english,f,7,0.7,-52.07621897,1.75613793
65be8fd402043b3040826d6b,15,0,2024-02-28T19:29:08.012Z,french_18.wav,0,pull,513,19,5,4,english,f,8,0.8,35.05417357,0.81523904
65be8fd402043b3040826d6b,15,0,2024-02-28T19:29:08.012Z,french_18.wav,0,pull,513,19,5,4,english,f,9,0.9,46.67766368,0.36189217
65be8fd402043b3040826d6b,15,0,2024-02-28T19:29:08.012Z,french_18.wav,0,pull,513,19,5,4,english,f,10,1.0,-74.34797605,1.53764015
65be8fd402043b3040826d6b,15,0,2024-02-28T19:29:08.012Z,french_18.wav,0,pull,513,19,5,4,english,f,11,1.1,-14.43524118,1.56618903
65be8fd402043b3040826d6b,15,0,2024-02-28T19:29:08.012Z,french_18.wav,0,pull,513,19,5,4,english,f,12,1.14141667,27.72939281,1.06338948
65be8fd402043b3040826d6b,16,0,2024-02-28T19:29:08.012Z,french_101.wav,0,pull,492,19,5,4,english,f,0,0.0,-65.46087388,1.12241829
65be8fd402043b3040826d6b,16,0,2024-02-28T19:29:08.012Z,french_101.wav,0,pull,492,19,5,4,english,f,1,0.1,63.59656018,0.33793213
65be8fd402043b3040826d6b,16,0,2024-02-28T19:29:08.012Z,french_101.wav,0,pull,492,19,5,4,english,f,2,0.2,54.14288835,1.19927572
65be8fd402043b3040826d6b,16,0,2024-02-28T19:29:08.012Z,french_101.wav,0,pull,492,19,5,4,english,f,3,0.3,22.15338449,1.19891661
65be8fd402043b3040826d6b,16,0,2024-02-28T19:29:08.012Z,french_101.wav,0,pull,492,19,5,4,english,f,4,0.4,9.44966108,1.16356615
65be8fd402043b3040826d6b,16,0,2024-02-28T19:29:08.012Z,french_101.wav,0,pull,492,19,5,4,english,f,5,0.5,62.3405883,1.8094662
65be8fd402043b3040826d6b,16,0,2024-02-28T19:29:08.012Z,french_101.wav,0,pull,492,19,5,4,english,f,6,0.6,35.08854145,1.21572763
65be8fd402043b3040826d6b,16,0,2024-02-28T19:29:08.012Z,french_101.wav,0,pull,492,19,5,4,english,f,7,0.7,90.28352707,1.20829502
65be8fd402043b3040826d6b,16,0,2024-02-28T19:29:08.012Z,french_101.wav,0,pull,492,19,5,4,english,f,8,0.8,32.40917648,0.2048106
65be8fd402043b3040826d6b,16,0,2024-02-28T19:29:08.012Z,french_101.wav,0,pull,492,19,5,4,english,f,9,0.9,45.65146214,0.15870555
65be8fd402043b3040826d6b,16,0,2024-02-28T19:29:08.012Z,french_101.wav,0,pull,492,19,5,4,english,f,10,1.0,26.68572675,0.85858703
65be8fd402043b3040826d6b,16,0,2024-02-28T19:29:08.012Z,french_101.wav,0,pull,492,19,5,4,english,f,11,1.1,-28.95615297,0.96045603
65be8fd402043b3040826d6b,16,0,2024-02-28T19:29:08.012Z,french_101.wav,0,pull,492,19,5,4,english,f,12,1.14141667,65.42086227,0.41262817
65be8fd402043b3040826d6b,17,0,2024-02-28T19:29:08.012Z,french_972.wav,0,poule,584,19,5,4,english,f,0,0.0,-58.81822017,1.66981598
65be8fd402043b3040826d6b,17,0,2024-02-28T19:29:08.012Z,french_972.wav,0,poule,584,19,5,4,english,f,1,0.1,34.2814858,0.83771232
65be8fd402043b3040826d6b,17,0,2024-02-28T19:29:08.012Z,french_972.wav,0,poule,584,19,5,4,english,f,2,0.2,43.99607496,1.84031443
65be8fd402043b3040826d6b,17,0,2024-02-28T19:29:08.012Z,french_972.wav,0,poule,584,19,5,4,english,f,3,0.3,33.10738459,0.59134414
65be8fd402043b3040826d6b,17,0,2024-02-28T19:29:08.012Z,french_972.wav,0,poule,584,19,5,4,english,f,4,0.4,97.56823967,0.79653586
65be8fd402043b3040826d6b,17,0,2024-02-28T19:29:08.012Z,french_972.wav,0,poule,584,19,5,4,english,f,5,0.5,55.48509594,0.79909451
65be8fd402043b3040826d6b,17,0,2024-02-28T19:29:08.012Z,french_972.wav,0,poule,584,19,5,4,english,f,6,0.6,8.26795873,0.62568008
65be8fd402043b3040826d6b,17,0,2024-02-28T19:29:08.012Z,french_972.wav,0,poule,584,19,5,4,english,f,7,0.7,-94.62638325,1.95315118
65be8fd402043b3040826d6b,17,0,2024-02-28T19:29:08.012Z,french_972.wav,0,poule,584,19,5,4,english,f,8,0.8,-5.39482949,1.30361038
65be8fd402043b3040826d6b,17,0,2024-02-28T19:29:08.012Z,french_972.wav,0,poule,584,19,5,4,english,f,9,0.9,86.45351621,1.20040606
65be8fd402043b3040826d6b,17,0,2024-02-28T19:29:08.012Z,french_972.wav,0,poule,584,19,5,4,english,f,10,1.0,5.06049595,1.77234817
65be8fd402043b3040826d6b,17,0,2024-02-28T19:29:08.012Z,french_972.wav,0,poule,584,19,5,4,english,f,11,1.1,53.29420755,0.02841743
65be8fd402043b3040826d6b,17,0,2024-02-28T19:29:08.012Z,french_972.wav,0,poule,584,19,5,4,english,f,12,1.14141667,35.21157931,0.93331201
65be8fd402043b3040826d6b,18,0,2024-02-28T19:29:08.012Z,french_279.wav,0,poule,499,19,5,4,english,f,0,0.0,-91.71642023,0.17583363
65be8fd402043b3040826d6b,18,0,2024-02-28T19:29:08.012Z,french_279.wav,0,poule,499,19,5,4,english,f,1,0.1,76.60374466,1.80297447
65be8fd402043b3040826d6b,18,0,2024-02-28T19:29:08.012Z,french_279.wav,0,poule,499,19,5,4,english,f,2,0.2,-79.20287469,0.03779617
65be8fd402043b3040826d6b,18,0,2024-02-28T19:29:08.012Z,french_279.wav,0,poule,499,19,5,4,english,f,3,0.3,-93.80806914,0.62702853
65be8fd402043b3040826d6b,18,0,2024-02-28T19:29:08.012Z,french_279.wav,0,poule,499,19,5,4,english,f,4,0.4,30.74870714,1.94363581
65be8fd402043b3040826d6b,18,0,2024-02-28T19:29:08.012Z,french_279.wav,0,poule,499,19,5,4,english,f,5,0.5,-44.65493672,0.80705141
65be8fd402043b3040826d6b,18,0,2024-02-28T19:29:08.012Z,french_279.wav,0,poule,499,19,5,4,english,f,6,0.6,-17.93028223,1.06056317
65be8fd402043b3040826d6b,18,0,2024-02-28T19:29:08.012Z,french_279.wav,0,poule,499,19,5,4,english,f,7,0.7,66.50862207,0.16633528
65be8fd402043b3040826d6b,18,0,2024-02-28T19:29:08.012Z,french_279.wav,0,poule,499,19,5,4,english,f,8,0.8,-46.72060919,1.76936946
65be8fd402043b3040826d6b,18,0,2024-02-28T19:29:08.012Z,french_279.wav,0,poule,499,19,5,4,english,f,9,0.9,26.44083851,0.44742287
65be8fd402043b3040826d6b,18,0,2024-02-28T19:29:08.012Z,french_279.wav,0,poule,499,19,5,4,english,f,10,1.0,-38.70123146,1.71685996
65be8fd402043b3040826d6b,18,0,2024-02-28T19:29:08.012Z,french_279.wav,0,poule,499,19,5,4,english,f,11,1.1,-0.14852688,1.04972879
65be8fd402043b3040826d6b,18,0,2024-02-28T19:29:08.012Z,french_279.wav,0,poule,499,19,5,4,english,f,12,1.14141667,76.49421083,1.48972813
65be8fd402043b3040826d6b,19,0,2024-02-28T19:29:08.012Z,french_271.wav,0,pull,873,19,5,4,english,f,0,0.0,-4.26084728,0.95664408
65be8fd402043b3040826d6b,19,0,2024-02-28T19:29:08.012Z,french_271.wav,0,pull,873,19,5,4,english,f,1,0.1,-66.22674374,1.64199905
65be8fd402043b3040826d6b,19,0,2024-02-28T19:29:08.012Z,french_271.wav,0,pull,873,19,5,4,english,f,2,0.2,50.59493008,0.62402053
65be8fd402043b3040826d6b,19,0,2024-02-28T19:29:08.012Z,french_271.wav,0,pull,873,19,5,4,english,f,3,0.3,93.97669366,1.98710423
65be8fd402043b3040826d6b,19,0,2024-02-28T19:29:08.012Z,french_271.wav,0,pull,873,19,5,4,english,f,4,0.4,59.96084063,0.39456056
65be8fd402043b3040826d6b,19,0,2024-02-28T19:29:08.012Z,french_271.wav,0,pull,873,19,5,4,english,f,5,0.5,-86.11772004,1.16329707
65be8fd402043b3040826d6b,19,0,2024-02-28T19:29:08.012Z,french_271.wav,0,pull,873,19,5,4,english,f,6,0.6,-2.09396449,0.57946499
65be8fd402043b3040826d6b,19,0,2024-02-28T19:29:08.012Z,french_271.wav,0,pull,873,19,5,4,english,f,7,0.7,-84.13135866,1.05634416
65be8fd402043b3040826d6b,19,0,2024-02-28T19:29:08.012Z,french_271.wav,0,pull,873,19,5,4,english,f,8,0.8,23.5667552,1.20321017
65be8fd402043b3040826d6b,19,0,2024-02-28T19:29:08.012Z,french_271.wav,0,pull,873,19,5,4,english,f,9,0.9,-21.96388567,0.23833217
65be8fd402043b3040826d6b,19,0,2024-02-28T19:29:08.012Z,french_271.wav,0,pull,873,19,5,4,english,f,10,1.0,6.84620378,0.26201816
65be8fd402043b3040826d6b,19,0,2024-02-28T19:29:08.012Z,french_271.wav,0,pull,873,19,5,4,english,f,11,1.1,-67.33014585,0.15969444
65be8fd402043b3040826d6b,19,0,2024-02-28T19:29:08.012Z,french_271.wav,0,pull,873,19,5,4,english,f,12,1.14141667,5.99974644,1.56436883
65be8fd402043b3040826d6b,20,0,2024-02-28T19:29:08.012Z,french_874.wav,0,pull,1047,19,5,4,english,f,0,0.0,24.82218591,0.93385532
65be8fd402043b3040826d6b,20,0,2024-02-28T19:29:08.012Z,french_874.wav,0,pull,1047,19,5,4,english,f,1,0.1,31.97554255,0.52068193
65be8fd402043b3040826d6b,20,0,2024-02-28T19:29:08.012Z,french_874.wav,0,pull,1047,19,5,4,english,f,2,0.2,2.67321332,1.97452011
65be8fd402043b3040826d6b,20,0,2024-02-28T19:29:08.012Z,french_874.wav,0,pull,1047,19,5,4,english,f,3,0.3,59.14891992,1.89922471
65be8fd402043b3040826d6b,20,0,2024-02-28T19:29:08.012Z,french_874.wav,0,pull,1047,19,5,4,english,f,4,0.4,43.38272278,1.65471555
65be8fd402043b3040826d6b,20,0,2024-02-28T19:29:08.012Z,french_874.wav,0,pull,1047,19,5,4,english,f,5,0.5,-74.72104069,0.60790691
65be8fd402043b3040826d6b,20,0,2024-02-28T19:29:08.012Z,french_874.wav,0,pull,1047,19,5,4,english,f,6,0.6,-8.80505474,1.28029407
65be8fd402043b3040826d6b,20,0,2024-02-28T19:29:08.012Z,french_874.wav,0,pull,1047,19,5,4,english,f,7,0.7,-25.97945718,0.93899149
65be8fd402043b3040826d6b,20,0,2024-02-28T19:29:08.012Z,french_874.wav,0,pull,1047,19,5,4,english,f,8,0.8,1.17125942,1.17717124
65be8fd402043b3040826d6b,20,0,2024-02-28T19:29:08.012Z,french_874.wav,0,pull,1047,19,5,4,english,f,9,0.9,33.37054961,0.6185284
65be8fd402043b3040826d6b,20,0,2024-02-28T19:29:08.012Z,french_874.wav,0,pull,1047,19,5,4,english,f,10,1.0,-11.11162277,0.02478248
65be8fd402043b3040826d6b,20,0,2024-02-28T19:29:08.012Z,french_874.wav,0,pull,1047,19,5,4,english,f,11,1.1,-2.67830525,1.255922
65be8fd402043b3040826d6b,20,0,2024-02-28T19:29:08.012Z,french_874.wav,0,pull,1047,19,5,4,english,f,12,1.14141667,31.54441533,0.93433181
65be8fd402043b3040826d6b,21,0,2024-02-28T19:29:08.012Z,french_149.wav,0,pull,831,19,5,4,english,f,0,0.0,-39.24757442,0.32520083
65be8fd402043b3040826d6b,21,0,2024-02-28T19:29:08.012Z,french_149.wav,0,pull,831,19,5,4,english,f,1,0.1,-86.18219657,0.94148503
65be8fd402043b3040826d6b,21,0,2024-02-28T19:29:08.012Z,french_149.wav,0,pull,831,19,5,4,english,f,2,0.2,-13.61536358,0.80565461
65be8fd402043b3040826d6b,21,0,2024-02-28T19:29:08.012Z,french_149.wav,0,pull,831,19,5,4,english,f,3,0.3,-24.98862495,1.81554076
65be8fd402043b3040826d6b,21,0,2024-02-28T19:29:08.012Z,french_149.wav,0,pull,831,19,5,4,english,f,4,0.4,-41.39150035,0.11227969
65be8fd402043b3040826d6b,21,0,2024-02-28T19:29:08.012Z,french_149.wav,0,pull,831,19,5,4,english,f,5,0.5,-47.18477201,0.07859168
65be8fd402043b3040826d6b,21,0,2024-02-28T19:29:08.012Z,french_149.wav,0,pull,831,19,5,4,english,f,6,0.6,-50.56052992,1.79560045
65be8fd402043b3040826d6b,21,0,2024-02-28T19:29:08.012Z,french_149.wav,0,pull,831,19,5,4,english,f,7,0.7,3.25241095,1.45138785
65be8fd402043b3040826d6b,21,0,2024-02-28T19:29:08.012Z,french_149.wav,0,pull,831,19,5,4,english,f,8,0.8,62.92939976,0.63051937
65be8fd402043b3040826d6b,21,0,2024-02-28T19:29:08.012Z,french_149.wav,0,pull,831,19,5,4,english,f,9,0.9,27.80744465,1.00831203
65be8fd402043b3040826d6b,21,0,2024-02-28T19:29:08.012Z,french_149.wav,0,pull,831,19,5,4,english,f,10,1.0,16.1564755,1.89158982
65be8fd402043b3040826d6b,21,0,2024-02-28T19:29:08.012Z,french_149.wav,0,pull,831,19,5,4,english,f,11,1.1,-49.86608269,1.26890157
65be8fd402043b3040826d6b,21,0,2024-02-28T19:29:08.012Z,french_149.wav,0,pull,831,19,5,4,english,f,12,1.14141667,76.57182651,0.76086528
65be8fd402043b3040826d6b,22,0,2024-02-28T19:29:08.012Z,french_539.wav,0,pull,756,19,5,4,english,f,0,0.0,48.58834425,0.55713702
65be8fd402043b3040826d6b,22,0,2024-02-28T19:29:08.012Z,french_539.wav,0,pull,756,19,5,4,english,f,1,0.1,-56.64619482,0.83408519
65be8fd402043b3040826d6b,22,0,2024-02-28T19:29:08.012Z,french_539.wav,0,pull,756,19,5,4,english,f,2,0.2,12.72257351,0.22105139
65be8fd402043b3040826d6b,22,0,2024-02-28T19:29:08.012Z,french_539.wav,0,pull,756,19,5,4,english,f,3,0.3,14.57779112,1.24631237
65be8fd402043b3040826d6b,22,0,2024-02-28T19:29:08.012Z,french_539.wav,0,pull,756,19,5,4,english,f,4,0.4,-53.79115146,1.80108834
65be8fd402043b3040826d6b,22,0,2024-02-28T19:29:08.012Z,french_539.wav,0,pull,756,19,5,4,english,f,5,0.5,-9.39809755,0.10826692
65be8fd402043b3040826d6b,22,0,2024-02-28T19:29:08.012Z,french_539.wav,0,pull,756,19,5,4,english,f,6,0.6,67.43376648,1.35746598
65be8fd402043b3040826d6b,22,0,2024-02-28T19:29:08.012Z,french_539.wav,0,pull,756,19,5,4,english,f,7,0.7,-72.51273076,0.14156413
65be8fd402043b3040826d6b,22,0,2024-02-28T19:29:08.012Z,french_539.wav,0,pull,756,19,5,4,english,f,8,0.8,3.43276355,0.59340931
65be8fd402043b3040826d6b,22,0,2024-02-28T19:29:08.012Z,french_539.wav,0,pull,756,19,5,4,english,f,9,0.9,40.14425687,0.46199534
65be8fd402043b3040826d6b,22,0,2024-02-28T19:29:08.012Z,french_539.wav,0,pull,756,19,5,4,english,f,10,1.0,54.85231258,1.89990392
65be8fd402043b3040826d6b,22,0,2024-02-28T19:29:08.012Z,french_539.wav,0,pull,756,19,5,4,english,f,11,1.1,-17.29716808,0.79928212
65be8fd402043b3040826d6b,22,0,2024-02-28T19:29:08.012Z,french_539.wav,0,pull,756,19,5,4,english,f,12,1.14141667,36.80649937,0.04454349
65be8fd402043b3040826d6b,23,0,2024-02-28T19:29:08.012Z,french_839.wav,0,pull,696,19,5,4,english,f,0,0.0,49.50399578,0.74314755
65be8fd402043b3040826d6b,23,0,2024-02-28T19:29:08.012Z,french_839.wav,0,pull,696,19,5,4,english,f,1,0.1,91.01625148,1.29965046
65be8fd402043b3040826d6b,23,0,2024-02-28T19:29:08.012Z,french_839.wav,0,pull,696,19,5,4,english,f,2,0.2,37.22706597,1.02528642
65be8fd402043b3040826d6b,23,0,2024-02-28T19:29:08.012Z,french_839.wav,0,pull,696,19,5,4,english,f,3,0.3,-34.04573315,0.77586495
65be8fd402043b3040826d6b,23,0,2024-02-28T19:29:08.012Z,french_839.wav,0,pull,696,19,5,4,english,f,4,0.4,55.19747574,1.77200205
65be8fd402043b3040826d6b,23,0,2024-02-28T19:29:08.012Z,french_839.wav,0,pull,696,19,5,4,english,f,5,0.5,-84.17398085,1.902392
65be8fd402043b3040826d6b,23,0,2024-02-28T19:29:08.012Z,french_839.wav,0,pull,696,19,5,4,english,f,6,0.6,72.99555996,1.76361586
65be8fd402043b3040826d6b,23,0,2024-02-28T19:29:08.012Z,french_839.wav,0,pull,696,19,5,4,english,f,7,0.7,-98.9210051,1.61809451
65be8fd402043b3040826d6b,23,0,2024-02-28T19:29:08.012Z,french_839.wav,0,pull,696,19,5,4,english,f,8,0.8,87.44908066,0.34376188
65be8fd402043b3040826d6b,23,0,2024-02-28T19:29:08.012Z,french_839.wav,0,pull,696,19,5,4,english,f,9,0.9,-13.3448565,1.38670574
65be8fd402043b3040826d6b,23,0,2024-02-28T19:29:08.012Z,french_839.wav,0,pull,696,19,5,4,english,f,10,1.0,20.99325898,0.74522787
65be8fd402043b3040826d6b,23,0,2024-02-28T19:29:08.012Z,french_839.wav,0,pull,696,19,5,4,english,f,11,1.1,-14.05251357,0.94098596
65be8fd402043b3040826d6b,23,0,2024-02-28T19:29:08.012Z,french_839.wav,0,pull,696,19,5,4,english,f,12,1.14141667,35.03237465,1.35216649
65be8fd402043b3040826d6b,24,0,2024-02-28T19:29:08.012Z,french_148.wav,0,poule,389,19,5,4,english,f,0,0.0,35.03992427,0.51574751
65be8fd402043b3040826d6b,24,0,2024-02-28T19:29:08.012Z,french_148.wav,0,poule,389,19,5,4,english,f,1,0.1,-26.56645319,0.44602423
65be8fd402043b3040826d6b,24,0,2024-02-28T19:29:08.012Z,french_148.wav,0,poule,389,19,5,4,english,f,2,0.2,1.54735612,1.29890337
65be8fd402043b3040826d6b,24,0,2024-02-28T19:29:08.012Z,french_148.wav,0,poule,389,19,5,4,english,f,3,0.3,43.90273661,1.35071288
65be8fd402043b3040826d6b,24,0,2024-02-28T19:29:08.012Z,french_148.wav,0,poule,389,19,5,4,english,f,4,0.4,20.15863223,1.88468446
65be8fd402043b3040826d6b,24,0,2024-02-28T19:29:08.012Z,french_148.wav,0,poule,389,19,5,4,english,f,5,0.5,40.21769113,0.68922645
65be8fd402043b3040826d6b,24,0,2024-02-28T19:29:08.012Z,french_148.wav,0,poule,389,19,5,4,english,f,6,0.6,-45.48330671,0.29500086
65be8fd402043b3040826d6b,24,0,2024-02-28T19:29:08.012Z,french_148.wav,0,poule,389,19,5,4,english,f,7,0.7,37.84515717,1.13623745
65be8fd402043b3040826d6b,24,0,2024-02-28T19:29:08.012Z,french_148.wav,0,poule,389,19,5,4,english,f,8,0.8,70.85795378,1.93028729
65be8fd402043b3040826d6b,24,0,2024-02-28T19:29:08.012Z,french_148.wav,0,poule,389,19,5,4,english,f,9,0.9,-8.50916841,1.29954979
65be8fd402043b3040826d6b,24,0,2024-02-28T19:29:08.012Z,french_148.wav,0,poule,389,19,5,4,english,f,10,1.0,74.51689941,1.64717937
65be8fd402043b3040826d6b,24,0,2024-02-28T19:29:08.012Z,french_148.wav,0,poule,389,19,5,4,english,f,11,1.1,-29.84970963,0.6962146
65be8fd402043b3040826d6b,24,0,2024-02-28T19:29:08.012Z,french_148.wav,0,poule,389,19,5,4,english,f,12,1.14141667,-16.19564709,1.34875208
65be8fd402043b3040826d6b,25,0,2024-02-28T19:29:08.012Z,french_877.wav,0,pull,589,19,5,4,english,f,0,0.0,35.01358719,1.80553919
65be8fd402043b3040826d6b,25,0,2024-02-28T19:29:08.012Z,french_877.wav,0,pull,589,19,5,4,english,f,1,0.1,44.86740008,1.10205229
65be8fd402043b3040826d6b,25,0,2024-02-28T19:29:08.012Z,french_877.wav,0,pull,589,19,5,4,english,f,2,0.2,-79.59292407,1.66583823
65be8fd402043b3040826d6b,25,0,2024-02-28T19:29:08.012Z,french_877.wav,0,pull,589,19,5,4,english,f,3,0.3,-7.22750522,0.82975553
65be8fd402043b3040826d6b,25,0,2024-02-28T19:29:08.012Z,french_877.wav,0,pull,589,19,5,4,english,f,4,0.4,-2.5216875,1.38376145
65be8fd402043b3040826d6b,25,0,2024-02-28T19:29:08.012Z,french_877.wav,0,pull,589,19,5,4,english,f,5,0.5,-30.65077741,0.89494766
65be8fd402043b3040826d6b,25,0,2024-02-28T19:29:08.012Z,french_877.wav,0,pull,589,19,5,4,english,f,6,0.6,-4.86146078,0.02389059
65be8fd402043b3040826d6b,25,0,2024-02-28T19:29:08.012Z,french_877.wav,0,pull,589,19,5,4,english,f,7,0.7,-89.51285107,1.19273137
65be8fd402043b3040826d6b,25,0,2024-02-28T19:29:08.012Z,french_877.wav,0,pull,589,19,5,4,english,f,8,0.8,-40.02073069,0.7956871
65be8fd402043b3040826d6b,25,0,2024-02-28T19:29:08.012Z,french_877.wav,0,pull,589,19,5,4,english,f,9,0.9,96.12185009,1.13306
65be8fd402043b3040826d6b,25,0,2024-02-28T19:29:08.012Z,french_877.wav,0,pull,589,19,5,4,english,f,10,1.0,90.68588052,0.93972062
65be8fd402043b3040826d6b,25,0,2024-02-28T19:29:08.012Z,french_877.wav,0,pull,589,19,5,4,english,f,11,1.1,18.23570323,0.41860884
65be8fd402043b3040826d6b,25,0,2024-02-28T19:29:08.012Z,french_877.wav,0,pull,589,19,5,4,english,f,12,1.14141667,-87.75305818,1.12017052
65be8fd402043b3040826d6b,26,0,2024-02-28T19:29:08.012Z,french_421.wav,0,poule,561,19,5,4,english,f,0,0.0,45.68225875,1.9538806
65be8fd402043b3040826d6b,26,0,2024-02-28T19:29:08.012Z,french_421.wav,0,poule,561,19,5,4,english,f,1,0.1,20.77412009,0.51850619
65be8fd402043b3040826d6b,26,0,2024-02-28T19:29:08.012Z,french_421.wav,0,poule,561,19,5,4,english,f,2,0.2,12.9169451,0.76737597
65be8fd402043b3040826d6b,26,0,2024-02-28T19:29:08.012Z,french_421.wav,0,poule,561,19,5,4,english,f,3,0.3,53.02430198,0.87704264
65be8fd402043b3040826d6b,26,0,2024-02-28T19:29:08.012Z,french_421.wav,0,poule,561,19,5,4,english,f,4,0.4,83.41126646,0.09013343
65be8fd402043b3040826d6b,26,0,2024-02-28T19:29:08.012Z,french_421.wav,0,poule,561,19,5,4,english,f,5,0.5,27.70162445,1.84345299
65be8fd402043b3040826d6b,26,0,2024-02-28T19:29:08.012Z,french_421.wav,0,poule,561,19,5,4,english,f,6,0.6,-9.39660641,1.84276428
65be8fd402043b3040826d6b,26,0,2024-02-28T19:29:08.012Z,french_421.wav,0,poule,561,19,5,4,english,f,7,0.7,75.75645777,1.09011778
65be8fd402043b3040826d6b,26,0,2024-02-28T19:29:08.012Z,french_421.wav,0,poule,561,19,5,4,english,f,8,0.8,24.8906921,1.12131544
65be8fd402043b3040826d6b,26,0,2024-02-28T19:29:08.012Z,french_421.wav,0,poule,561,19,5,4,english,f,9,0.9,25.41289802,1.94516148
65be8fd402043b3040826d6b,26,0,2024-02-28T19:29:08.012Z,french_421.wav,0,poule,561,19,5,4,english,f,10,1.0,27.36402577,0.42837326
65be8fd402043b3040826d6b,26,0,2024-02-28T19:29:08.012Z,french_421.wav,0,poule,561,19,5,4,english,f,11,1.1,-7.62413192,0.5442249
65be8fd402043b3040826d6b,26,0,2024-02-28T19:29:08.012Z,french_421.wav,0,poule,561,19,5,4,english,f,12,1.14141667,-0.69383243,1.37977126
65be8fd402043b3040826d6b,27,0,2024-02-28T19:29:08.012Z,french_443.wav,0,poule,400,19,5,4,english,f,0,0.0,1.55146675,1.15318265
65be8fd402043b3040826d6b,27,0,2024-02-28T19:29:08.012Z,french_443.wav,0,poule,400,19,5,4,english,f,1,0.1,-29.71123702,1.04271399
65be8fd402043b3040826d6b,27,0,2024-02-28T19:29:08.012Z,french_443.wav,0,poule,400,19,5,4,english,f,2,0.2,50.79172413,0.24223392
65be8fd402043b3040826d6b,27,0,2024-02-28T19:29:08.012Z,french_443.wav,0,poule,400,19,5,4,english,f,3,0.3,44.73482839,0.59878614
65be8fd402043b3040826d6b,27,0,2024-02-28T19:29:08.012Z,french_443.wav,0,poule,400,19,5,4,english,f,4,0.4,-35.41973696,0.95519556
65be8fd402043b3040826d6b,27,0,2024-02-28T19:29:08.012Z,french_443.wav,0,poule,400,19,5,4,english,f,5,0.5,-43.67393287,1.12781239
65be8fd402043b3040826d6b,27,0,2024-02-28T19:29:08.012Z,french_443.wav,0,poule,400,19,5,4,english,f,6,0.6,-65.50744762,0.2581934
65be8fd402043b3040826d6b,27,0,2024-02-28T19:29:08.012Z,french_443.wav,0,poule,400,19,5,4,english,f,7,0.7,-33.99368888,1.25308151
65be8fd402043b3040826d6b,27,0,2024-02-28T19:29:08.012Z,french_443.wav,0,poule,400,19,5,4,english,f,8,0.8,-50.19160943,1.4777339
65be8fd402043b3040826d6b,27,0,2024-02-28T19:29:08.012Z,french_443.wav,0,poule,400,19,5,4,english,f,9,0.9,2.05473959,1.32843216
65be8fd402043b3040826d6b,27,0,2024-02-28T19:29:08.012Z,french_443.wav,0,poule,400,19,5,4,english,f,10,1.0,-45.90273829,1.76592734
65be8fd402043b3040826d6b,27,0,2024-02-28T19:29:08.012Z,french_443.wav,0,poule,400,19,5,4,english,f,11,1.1,-8.29084392,1.67005578
65be8fd402043b3040826d6b,27,0,2024-02-28T19:29:08.012Z,french_443.wav,0,poule,400,19,5,4,english,f,12,1.14141667,50.36165798,1.49911525
65be8fd402043b3040826d6b,28,0,2024-02-28T19:29:08.012Z,french_81.wav,0,pull,626,19,5,4,english,f,0,0.0,67.6847266,1.81460428
65be8fd402043b3040826d6b,28,0,2024-02-28T19:29:08.012Z,french_81.wav,0,pull,626,19,5,4,english,f,1,0.1,-58.3581712,1.73405123
65be8fd402043b3040826d6b,28,0,2024-02-28T19:29:08.012Z,french_81.wav,0,pull,626,19,5,4,english,f,2,0.2,32.9541847,1.57189037
65be8fd402043b3040826d6b,28,0,2024-02-28T19:29:08.012Z,french_81.wav,0,pull,626,19,5,4,english,f,3,0.3,6.29425878,1.70078164
65be8fd402043b3040826d6b,28,0,2024-02-28T19:29:08.012Z,french_81.wav,0,pull,626,19,5,4,english,f,4,0.4,-86.2881706,1.17783701
65be8fd402043b3040826d6b,28,0,2024-02-28T19:29:08.012Z,french_81.wav,0,pull,626,19,5,4,english,f,5,0.5,12.2464963,1.20141313
65be8fd402043b3040826d6b,28,0,2024-02-28T19:29:08.012Z,french_81.wav,0,pull,626,19,5,4,english,f,6,0.6,-8.0116786,0.76040054
65be8fd402043b3040826d6b,28,0,2024-02-28T19:29:08.012Z,french_81.wav,0,pull,626,19,5,4,english,f,7,0.7,-81.7805605,0.61904183
65be8fd402043b3040826d6b,28,0,2024-02-28T19:29:08.012Z,french_81.wav,0,pull,626,19,5,4,english,f,8,0.8,-26.6703715,0.14117463
65be8fd402043b3040826d6b,28,0,2024-02-28T19:29:08.012Z,french_81.wav,0,pull,626,19,5,4,english,f,9,0.9,0.00583519665,0.42043152
65be8fd402043b3040826d6b,28,0,2024-02-28T19:29:08.012Z,french_81.wav,0,pull,626,19,5,4,english,f,10,1.0,40.7172767,0.44958537
65be8fd402043b3040826d6b,28,0,2024-02-28T19:29:08.012Z,french_81.wav,0,pull,626,19,5,4,english,f,11,1.1,-82.2964273,0.90894384
65be8fd402043b3040826d6b,28,0,2024-02-28T19:29:08.012Z,french_81.wav,0,pull,626,19,5,4,english,f,12,1.14141667,-70.2645664,0.31630246
65be8fd402043b3040826d6b,29,0,2024-02-28T19:29:08.012Z,french_124.wav,0,poule,454,19,5,4,english,f,0,0.0,-76.45779126,0.84587092
65be8fd402043b3040826d6b,29,0,2024-02-28T19:29:08.012Z,french_124.wav,0,poule,454,19,5,4,english,f,1,0.1,-62.44073346,1.24457807
65be8fd402043b3040826d6b,29,0,2024-02-28T19:29:08.012Z,french_124.wav,0,poule,454,19,5,4,english,f,2,0.2,-62.75149138,0.64584281
65be8fd402043b3040826d6b,29,0,2024-02-28T19:29:08.012Z,french_124.wav,0,poule,454,19,5,4,english,f,3,0.3,-37.91621361,0.25159831
65be8fd402043b3040826d6b,29,0,2024-02-28T19:29:08.012Z,french_124.wav,0,poule,454,19,5,4,english,f,4,0.4,-1.84891931,0.57670271
65be8fd402043b3040826d6b,29,0,2024-02-28T19:29:08.012Z,french_124.wav,0,poule,454,19,5,4,english,f,5,0.5,-2.76461423,0.27282382
65be8fd402043b3040826d6b,29,0,2024-02-28T19:29:08.012Z,french_124.wav,0,poule,454,19,5,4,english,f,6,0.6,48.00626226,0.93393673
65be8fd402043b3040826d6b,29,0,2024-02-28T19:29:08.012Z,french_124.wav,0,poule,454,19,5,4,english,f,7,0.7,-89.0520455,0.95712828
65be8fd402043b3040826d6b,29,0,2024-02-28T19:29:08.012Z,french_124.wav,0,poule,454,19,5,4,english,f,8,0.8,-36.94008954,1.24636556
65be8fd402043b3040826d6b,29,0,2024-02-28T19:29:08.012Z,french_124.wav,0,poule,454,19,5,4,english,f,9,0.9,-82.62391515,0.87746102
65be8fd402043b3040826d6b,29,0,2024-02-28T19:29:08.012Z,french_124.wav,0,poule,454,19,5,4,english,f,10,1.0,-88.37832348,0.59578507
65be8fd402043b3040826d6b,29,0,2024-02-28T19:29:08.012Z,french_124.wav,0,poule,454,19,5,4,english,f,11,1.1,86.13286015,1.45487827
65be8fd402043b3040826d6b,29,0,2024-02-28T19:29:08.012Z,french_124.wav,0,poule,454,19,5,4,english,f,12,1.14141667,-90.07064956,0.90336127
65be8fd402043b3040826d6b,30,0,2024-02-28T19:29:08.012Z,french_611.wav,0,poule,310,19,5,4,english,f,0,0.0,27.54692735,0.7451578
65be8fd402043b3040826d6b,30,0,2024-02-28T19:29:08.012Z,french_611.wav,0,poule,310,19,5,4,english,f,1,0.1,-96.2127233,0.59678104
65be8fd402043b3040826d6b,30,0,2024-02-28T19:29:08.012Z,french_611.wav,0,poule,310,19,5,4,english,f,2,0.2,43.54084756,0.93535243
65be8fd402043b3040826d6b,30,0,2024-02-28T19:29:08.012Z,french_611.wav,0,poule,310,19,5,4,english,f,3,0.3,50.94582254,0.78372242
65be8fd402043b3040826d6b,30,0,2024-02-28T19:29:08.012Z,french_611.wav,0,poule,310,19,5,4,english,f,4,0.4,-43.15848463,0.88792907
65be8fd402043b3040826d6b,30,0,2024-02-28T19:29:08.012Z,french_611.wav,0,poule,310,19,5,4,english,f,5,0.5,-50.66220426,0.42171327
65be8fd402043b3040826d6b,30,0,2024-02-28T19:29:08.012Z,french_611.wav,0,poule,310,19,5,4,english,f,6,0.6,69.56527171,0.70649712
65be8fd402043b3040826d6b,30,0,2024-02-28T19:29:08.012Z,french_611.wav,0,poule,310,19,5,4,english,f,7,0.7,-11.37808001,1.43646296
65be8fd402043b3040826d6b,30,0,2024-02-28T19:29:08.012Z,french_611.wav,0,poule,310,19,5,4,english,f,8,0.8,45.13793263,1.45654876
65be8fd402043b3040826d6b,30,0,2024-02-28T19:29:08.012Z,french_611.wav,0,poule,310,19,5,4,english,f,9,0.9,96.10669883,1.37339169
65be8fd402043b3040826d6b,30,0,2024-02-28T19:29:08.012Z,french_611.wav,0,poule,310,19,5,4,english,f,10,1.0,-3.26574927,1.82405735
65be8fd402043b3040826d6b,30,0,2024-02-28T19:29:08.012Z,french_611.wav,0,poule,310,19,5,4,english,f,11,1.1,-48.82710358,1.66591353
65be8fd402043b3040826d6b,30,0,2024-02-28T19:29:08.012Z,french_611.wav,0,poule,310,19,5,4,english,f,12,1.14141667,63.81362106,1.48395862
65be8fd402043b3040826d6b,31,0,2024-02-28T19:29:08.012Z,french_637.wav,0,poule,614,19,5,4,english,f,0,0.0,-31.08892402,0.60198854
65be8fd402043b3040826d6b,31,0,2024-02-28T19:29:08.012Z,french_637.wav,0,poule,614,19,5,4,english,f,1,0.1,15.25602459,1.14825728
65be8fd402043b3040826d6b,31,0,2024-02-28T19:29:08.012Z,french_637.wav,0,poule,614,19,5,4,english,f,2,0.2,-3.15023114,1.87909586
65be8fd402043b3040826d6b,31,0,2024-02-28T19:29:08.012Z,french_637.wav,0,poule,614,19,5,4,english,f,3,0.3,40.81887351,0.13625986
65be8fd402043b3040826d6b,31,0,2024-02-28T19:29:08.012Z,french_637.wav,0,poule,614,19,5,4,english,f,4,0.4,32.81586387,1.66395473
65be8fd402043b3040826d6b,31,0,2024-02-28T19:29:08.012Z,french_637.wav,0,poule,614,19,5,4,english,f,5,0.5,21.08421584,0.72202939
65be8fd402043b3040826d6b,31,0,2024-02-28T19:29:08.012Z,french_637.wav,0,poule,614,19,5,4,english,f,6,0.6,93.16874519,1.63866702
65be8fd402043b3040826d6b,31,0,2024-02-28T19:29:08.012Z,french_637.wav,0,poule,614,19,5,4,english,f,7,0.7,-69.92672839,1.06181355
65be8fd402043b3040826d6b,31,0,2024-02-28T19:29:08.012Z,french_637.wav,0,poule,614,19,5,4,english,f,8,0.8,-46.04583787,1.62661878
65be8fd402043b3040826d6b,31,0,2024-02-28T19:29:08.012Z,french_637.wav,0,poule,614,19,5,4,english,f,9,0.9,22.60400214,1.30866952
65be8fd402043b3040826d6b,31,0,2024-02-28T19:29:08.012Z,french_637.wav,0,poule,614,19,5,4,english,f,10,1.0,2.02681017,1.56125129
65be8fd402043b3040826d6b,31,0,2024-02-28T19:29:08.012Z,french_637.wav,0,poule,614,19,5,4,english,f,11,1.1,5.86348535,1.66673134
65be8fd402043b3040826d6b,31,0,2024-02-28T19:29:08.012Z,french_637.wav,0,poule,614,19,5,4,english,f,12,1.14141667,81.93949942,1.21110633
65be8fd402043b3040826d6b,32,0,2024-02-28T19:29:08.012Z,french_998.wav,0,pull,407,19,5,4,english,f,0,0.0,-52.53289143,0.42248422
65be8fd402043b3040826d6b,32,0,2024-02-28T19:29:08.012Z,french_998.wav,0,pull,407,19,5,4,english,f,1,0.1,-41.80176958,1.03050206
65be8fd402043b3040826d6b,32,0,2024-02-28T19:29:08.012Z,french_998.wav,0,pull,407,19,5,4,english,f,2,0.2,3.72170139,0.31111333
65be8fd402043b3040826d6b,32,0,2024-02-28T19:29:08.012Z,french_998.wav,0,pull,407,19,5,4,english,f,3,0.3,-31.81405271,0.62895415
65be8fd402043b3040826d6b,32,0,2024-02-28T19:29:08.012Z,french_998.wav,0,pull,407,19,5,4,english,f,4,0.4,20.38465129,0.7164794
65be8fd402043b3040826d6b,32,0,2024-02-28T19:29:08.012Z,french_998.wav,0,pull,407,19,5,4,english,f,5,0.5,-74.58331207,1.22207314
65be8fd402043b3040826d6b,32,0,2024-02-28T19:29:08.012Z,french_998.wav,0,pull,407,19,5,4,english,f,6,0.6,55.77574349,0.23208486
65be8fd402043b3040826d6b,32,0,2024-02-28T19:29:08.012Z,french_998.wav,0,pull,407,19,5,4,english,f,7,0.7,-22.51086967,0.21961927
65be8fd402043b3040826d6b,32,0,2024-02-28T19:29:08.012Z,french_998.wav,0,pull,407,19,5,4,english,f,8,0.8,26.26002623,1.78719283
65be8fd402043b3040826d6b,32,0,2024-02-28T19:29:08.012Z,french_998.wav,0,pull,407,19,5,4,english,f,9,0.9,12.58416669,1.26015455
65be8fd402043b3040826d6b,32,0,2024-02-28T19:29:08.012Z,french_998.wav,0,pull,407,19,5,4,english,f,10,1.0,-12.30572558,0.15338113
65be8fd402043b3040826d6b,32,0,2024-02-28T19:29:08.012Z,french_998.wav,0,pull,407,19,5,4,english,f,11,1.1,64.28435908,0.40231788
65be8fd402043b3040826d6b,32,0,2024-02-28T19:29:08.012Z,french_998.wav,0,pull,407,19,5,4,english,f,12,1.14141667,-52.09495809,0.89140011
65be8fd402043b3040826d6b,33,0,2024-02-28T19:29:08.012Z,french_588.wav,0,pull,480,19,5,4,english,f,0,0.0,80.11124336,0.91903139
65be8fd402043b3040826d6b,33,0,2024-02-28T19:29:08.012Z,french_588.wav,0,pull,480,19,5,4,english,f,1,0.1,-9.60415228,1.75302379
65be8fd402043b3040826d6b,33,0,2024-02-28T19:29:08.012Z,french_588.wav,0,pull,480,19,5,4,english,f,2,0.2,-98.33491382,1.95019279
65be8fd402043b3040826d6b,33,0,2024-02-28T19:29:08.012Z,french_588.wav,0,pull,480,19,5,4,english,f,3,0.3,-16.26514488,0.86486634
65be8fd402043b3040826d6b,33,0,2024-02-28T19:29:08.012Z,french_588.wav,0,pull,480,19,5,4,english,f,4,0.4,-90.16609663,0.04555032
65be8fd402043b3040826d6b,33,0,2024-02-28T19:29:08.012Z,french_588.wav,0,pull,480,19,5,4,english,f,5,0.5,-6.08584828,0.65069663
65be8fd402043b3040826d6b,33,0,2024-02-28T19:29:08.012Z,french_588.wav,0,pull,480,19,5,4,english,f,6,0.6,-25.80594889,0.87516436
65be8fd402043b3040826d6b,33,0,2024-02-28T19:29:08.012Z,french_588.wav,0,pull,480,19,5,4,english,f,7,0.7,-25.08652089,0.98178697
65be8fd402043b3040826d6b,33,0,2024-02-28T19:29:08.012Z,french_588.wav,0,pull,480,19,5,4,english,f,8,0.8,-98.80611815,1.45894707
65be8fd402043b3040826d6b,33,0,2024-02-28T19:29:08.012Z,french_588.wav,0,pull,480,19,5,4,english,f,9,0.9,17.08532713,1.15328594
65be8fd402043b3040826d6b,33,0,2024-02-28T19:29:08.012Z,french_588.wav,0,pull,480,19,5,4,english,f,10,1.0,0.80863561,0.14560994
65be8fd402043b3040826d6b,33,0,2024-02-28T19:29:08.012Z,french_588.wav,0,pull,480,19,5,4,english,f,11,1.1,-86.5783891,1.58594883
65be8fd402043b3040826d6b,33,0,2024-02-28T19:29:08.012Z,french_588.wav,0,pull,480,19,5,4,english,f,12,1.14141667,-56.09457121,1.71291016
65be8fd402043b3040826d6b,34,0,2024-02-28T19:29:08.012Z,french_810.wav,0,poule,363,19,5,4,english,f,0,0.0,-11.15684924,0.93665217
65be8fd402043b3040826d6b,34,0,2024-02-28T19:29:08.012Z,french_810.wav,0,poule,363,19,5,4,english,f,1,0.1,19.7802092,1.74097492
65be8fd402043b3040826d6b,34,0,2024-02-28T19:29:08.012Z,french_810.wav,0,poule,363,19,5,4,english,f,2,0.2,-30.04059815,0.51520892
65be8fd402043b3040826d6b,34,0,2024-02-28T19:29:08.012Z,french_810.wav,0,poule,363,19,5,4,english,f,3,0.3,-95.70769325,0.6750365
65be8fd402043b3040826d6b,34,0,2024-02-28T19:29:08.012Z,french_810.wav,0,poule,363,19,5,4,english,f,4,0.4,-85.83375083,1.81202687
65be8fd402043b3040826d6b,34,0,2024-02-28T19:29:08.012Z,french_810.wav,0,poule,363,19,5,4,english,f,5,0.5,-37.45895339,1.65594006
65be8fd402043b3040826d6b,34,0,2024-02-28T19:29:08.012Z,french_810.wav,0,poule,363,19,5,4,english,f,6,0.6,-92.99313722,0.4118564
65be8fd402043b3040826d6b,34,0,2024-02-28T19:29:08.012Z,french_810.wav,0,poule,363,19,5,4,english,f,7,0.7,-10.59807412,1.49052065
65be8fd402043b3040826d6b,34,0,2024-02-28T19:29:08.012Z,french_810.wav,0,poule,363,19,5,4,english,f,8,0.8,-53.30222584,1.68710618
65be8fd402043b3040826d6b,34,0,2024-02-28T19:29:08.012Z,french_810.wav,0,poule,363,19,5,4,english,f,9,0.9,44.39304862,0.87014505
65be8fd402043b3040826d6b,34,0,2024-02-28T19:29:08.012Z,french_810.wav,0,poule,363,19,5,4,english,f,10,1.0,21.84097508,1.52543632
65be8fd402043b3040826d6b,34,0,2024-02-28T19:29:08.012Z,french_810.wav,0,poule,363,19,5,4,english,f,11,1.1,-95.99608971,1.72886846
65be8fd402043b3040826d6b,34,0,2024-02-28T19:29:08.012Z,french_810.wav,0,poule,363,19,5,4,english,f,12,1.14141667,89.10365484,1.0642508
65be8fd402043b3040826d6b,35,0,2024-02-28T19:29:08.012Z,french_217.wav,0,pull,809,19,5,4,english,f,0,0.0,84.06526656,0.64894292
65be8fd402043b3040826d6b,35,0,2024-02-28T19:29:08.012Z,french_217.wav,0,pull,809,19,5,4,english,f,1,0.1,-46.35743075,1.09249026
65be8fd402043b3040826d6b,35,0,2024-02-28T19:29:08.012Z,french_217.wav,0,pull,809,19,5,4,english,f,2,0.2,-53.95171452,1.10478021
65be8fd402043b3040826d6b,35,0,2024-02-28T19:29:08.012Z,french_217.wav,0,pull,809,19,5,4,english,f,3,0.3,59.83825827,1.53269109
65be8fd402043b3040826d6b,35,0,2024-02-28T19:29:08.012Z,french_217.wav,0,pull,809,19,5,4,english,f,4,0.4,-26.88805114,0.4736561
65be8fd402043b3040826d6b,35,0,2024-02-28T19:29:08.012Z,french_217.wav,0,pull,809,19,5,4,english,f,5,0.5,81.94609504,1.78871286
65be8fd402043b3040826d6b,35,0,2024-02-28T19:29:08.012Z,french_217.wav,0,pull,809,19,5,4,english,f,6,0.6,31.29853371,0.02195498
65be8fd402043b3040826d6b,35,0,2024-02-28T19:29:08.012Z,french_217.wav,0,pull,809,19,5,4,english,f,7,0.7,48.3535035,0.5845576
65be8fd402043b3040826d6b,35,0,2024-02-28T19:29:08.012Z,french_217.wav,0,pull,809,19,5,4,english,f,8,0.8,-35.90836063,0.61325304
65be8fd402043b3040826d6b,35,0,2024-02-28T19:29:08.012Z,french_217.wav,0,pull,809,19,5,4,english,f,9,0.9,17.81787017,1.47126121
65be8fd402043b3040826d6b,35,0,2024-02-28T19:29:08.012Z,french_217.wav,0,pull,809,19,5,4,english,f,10,1.0,-25.31347858,0.01504833
65be8fd402043b3040826d6b,35,0,2024-02-28T19:29:08.012Z,french_217.wav,0,pull,809,19,5,4,english,f,11,1.1,63.89770725,0.61680726
65be8fd402043b3040826d6b,35,0,2024-02-28T19:29:08.012Z,french_217.wav,0,pull,809,19,5,4,english,f,12,1.14141667,1.46911639,0.99417778
65be8fd402043b3040826d6b,36,0,2024-02-28T19:29:08.012Z,french_961.wav,0,pull,641,19,5,4,english,f,0,0.0,-57.76361631,0.10893139
65be8fd402043b3040826d6b,36,0,2024-02-28T19:29:08.012Z,french_961.wav,0,pull,641,19,5,4,english,f,1,0.1,25.39331568,1.43252878
65be8fd402043b3040826d6b,36,0,2024-02-28T19:29:08.012Z,french_961.wav,0,pull,641,19,5,4,english,f,2,0.2,12.35143873,0.92444386
65be8fd402043b3040826d6b,36,0,2024-02-28T19:29:08.012Z,french_961.wav,0,pull,641,19,5,4,english,f,3,0.3,22.75517226,1.05401088
65be8fd402043b3040826d6b,36,0,2024-02-28T19:29:08.012Z,french_961.wav,0,pull,641,19,5,4,english,f,4,0.4,-18.00705604,0.76286408
65be8fd402043b3040826d6b,36,0,2024-02-28T19:29:08.012Z,french_961.wav,0,pull,641,19,5,4,english,f,5,0.5,-39.89863119,0.39968066
65be8fd402043b3040826d6b,36,0,2024-02-28T19:29:08.012Z,french_961.wav,0,pull,641,19,5,4,english,f,6,0.6,-14.96300277,1.49971695
65be8fd402043b3040826d6b,36,0,2024-02-28T19:29:08.012Z,french_961.wav,0,pull,641,19,5,4,english,f,7,0.7,-94.00933824,0.233123
65be8fd402043b3040826d6b,36,0,2024-02-28T19:29:08.012Z,french_961.wav,0,pull,641,19,5,4,english,f,8,0.8,3.75296714,0.79401243
65be8fd402043b3040826d6b,36,0,2024-02-28T19:29:08.012Z,french_961.wav,0,pull,641,19,5,4,english,f,9,0.9,-65.25681875,0.70841327
65be8fd402043b3040826d6b,36,0,2024-02-28T19:29:08.012Z,french_961.wav,0,pull,641,19,5,4,english,f,10,1.0,-36.72733908,0.02300455
65be8fd402043b3040826d6b,36,0,2024-02-28T19:29:08.012Z,french_961.wav,0,pull,641,19,5,4,english,f,11,1.1,-39.85327237,1.99640547
65be8fd402043b3040826d6b,36,0,2024-02-28T19:29:08.012Z,french_961.wav,0,pull,641,19,5,4,english,f,12,1.14141667,88.04121989,1.78012452
65be8fd402043b3040826d6b,37,0,2024-02-28T19:29:08.012Z,french_324.wav,0,poule,837,19,5,4,english,f,0,0.0,29.48435579,0.24977075
65be8fd402043b3040826d6b,37,0,2024-02-28T19:29:08.012Z,french_324.wav,0,poule,837,19,5,4,english,f,1,0.1,-12.86077023,0.60660691
65be8fd402043b3040826d6b,37,0,2024-02-28T19:29:08.012Z,french_324.wav,0,poule,837,19,5,4,english,f,2,0.2,46.37578497,0.99456154
65be8fd402043b3040826d6b,37,0,2024-02-28T19:29:08.012Z,french_324.wav,0,poule,837,19,5,4,english,f,3,0.3,-59.94288497,0.72384829
65be8fd402043b3040826d6b,37,0,2024-02-28T19:29:08.012Z,french_324.wav,0,poule,837,19,5,4,english,f,4,0.4,-53.99559511,1.72248011
65be8fd402043b3040826d6b,37,0,2024-02-28T19:29:08.012Z,french_324.wav,0,poule,837,19,5,4,english,f,5,0.5,45.88563697,1.3825471
65be8fd402043b3040826d6b,37,0,2024-02-28T19:29:08.012Z,french_324.wav,0,poule,837,19,5,4,english,f,6,0.6,-44.14854504,1.83694132
65be8fd402043b3040826d6b,37,0,2024-02-28T19:29:08.012Z,french_324.wav,0,poule,837,19,5,4,english,f,7,0.7,-61.31230077,1.25302686
65be8fd402043b3040826d6b,37,0,2024-02-28T19:29:08.012Z,french_324.wav,0,poule,837,19,5,4,english,f,8,0.8,44.45043245,0.61220659
65be8fd402043b3040826d6b,37,0,2024-02-28T19:29:08.012Z,french_324.wav,0,poule,837,19,5,4,english,f,9,0.9,-5.57853866,1.12870649
65be8fd402043b3040826d6b,37,0,2024-02-28T19:29:08.012Z,french_324.wav,0,poule,837,19,5,4,english,f,10,1.0,59.99037779,1.29442933
65be8fd402043b3040826d6b,37,0,2024-02-28T19:29:08.012Z,french_324.wav,0,poule,837,19,5,4,english,f,11,1.1,-49.32219251,1.14424628
65be8fd402043b3040826d6b,37,0,2024-02-28T19:29:08.012Z,french_324.wav,0,poule,837,19,5,4,english,f,12,1.14141667,81.26576792,1.85932034
65be8fd402043b3040826d6b,38,0,2024-02-28T19:29:08.012Z,french_277.wav,0,pull,1013,19,5,4,english,f,0,0.0,41.08697403,1.6200344
65be8fd402043b3040826d6b,38,0,2024-02-28T19:29:08.012Z,french_277.wav,0,pull,1013,19,5,4,english,f,1,0.1,73.08255676,1.77085985
65be8fd402043b3040826d6b,38,0,2024-02-28T19:29:08.012Z,french_277.wav,0,pull,1013,19,5,4,english,f,2,0.2,43.08380993,1.23064254
65be8fd402043b3040826d6b,38,0,2024-02-28T19:29:08.012Z,french_277.wav,0,pull,1013,19,5,4,english,f,3,0.3,21.02518819,0.65610838
65be8fd402043b3040826d6b,38,0,2024-02-28T19:29:08.012Z,french_277.wav,0,pull,1013,19,5,4,english,f,4,0.4,37.78172954,0.97608822
65be8fd402043b3040826d6b,38,0,2024-02-28T19:29:08.012Z,french_277.wav,0,pull,1013,19,5,4,english,f,5,0.5,23.93679705,1.2635416
65be8fd402043b3040826d6b,38,0,2024-02-28T19:29:08.012Z,french_277.wav,0,pull,1013,19,5,4,english,f,6,0.6,-67.69710766,0.50594858
65be8fd402043b3040826d6b,38,0,2024-02-28T19:29:08.012Z,french_277.wav,0,pull,1013,19,5,4,english,f,7,0.7,13.42536336,1.65502646
65be8fd402043b3040826d6b,38,0,2024-02-28T19:29:08.012Z,french_277.wav,0,pull,1013,19,5,4,english,f,8,0.8,51.4556767,0.51878313
65be8fd402043b3040826d6b,38,0,2024-02-28T19:29:08.012Z,french_277.wav,0,pull,1013,19,5,4,english,f,9,0.9,-56.6842947,0.73572105
65be8fd402043b3040826d6b,38,0,2024-02-28T19:29:08.012Z,french_277.wav,0,pull,1013,19,5,4,english,f,10,1.0,28.39117481,0.30914429
65be8fd402043b3040826d6b,38,0,2024-02-28T19:29:08.012Z,french_277.wav,0,pull,1013,19,5,4,english,f,11,1.1,34.75019827,1.8798641
65be8fd402043b3040826d6b,38,0,2024-02-28T19:29:08.012Z,french_277.wav,0,pull,1013,19,5,4,english,f,12,1.14141667,-68.6754391,1.7546161
65be8fd402043b3040826d6b,39,0,2024-02-28T19:29:08.012Z,french_693.wav,0,pull,1728,19,5,4,english,f,0,0.0,85.06863742,1.43800555
65be8fd402043b3040826d6b,39,0,2024-02-28T19:29:08.012Z,french_693.wav,0,pull,1728,19,5,4,english,f,1,0.1,68.65637618,1.1319261
65be8fd402043b3040826d6b,39,0,2024-02-28T19:29:08.012Z,french_693.wav,0,pull,1728,19,5,4,english,f,2,0.2,-64.93166306,1.31376129
65be8fd402043b3040826d6b,39,0,2024-02-28T19:29:08.012Z,french_693.wav,0,pull,1728,19,5,4,english,f,3,0.3,9.02094246,1.44469297
65be8fd402043b3040826d6b,39,0,2024-02-28T19:29:08.012Z,french_693.wav,0,pull,1728,19,5,4,english,f,4,0.4,30.21577577,0.25926005
65be8fd402043b3040826d6b,39,0,2024-02-28T19:29:08.012Z,french_693.wav,0,pull,1728,19,5,4,english,f,5,0.5,-45.55013979,1.97890068
65be8fd402043b3040826d6b,39,0,2024-02-28T19:29:08.012Z,french_693.wav,0,pull,1728,19,5,4,english,f,6,0.6,-22.45894718,0.76035239
65be8fd402043b3040826d6b,39,0,2024-02-28T19:29:08.012Z,french_693.wav,0,pull,1728,19,5,4,english,f,7,0.7,-22.03690569,0.26797463
65be8fd402043b3040826d6b,39,0,2024-02-28T19:29:08.012Z,french_693.wav,0,pull,1728,19,5,4,english,f,8,0.8,-72.74256114,0.09379237
65be8fd402043b3040826d6b,39,0,2024-02-28T19:29:08.012Z,french_693.wav,0,pull,1728,19,5,4,english,f,9,0.9,79.55542456,1.21622186
65be8fd402043b3040826d6b,39,0,2024-02-28T19:29:08.012Z,french_693.wav,0,pull,1728,19,5,4,english,f,10,1.0,3.37293032,0.59723312
65be8fd402043b3040826d6b,39,0,2024-02-28T19:29:08.012Z,french_693.wav,0,pull,1728,19,5,4,english,f,11,1.1,-26.61524733,1.86545966
65be8fd402043b3040826d6b,39,0,2024-02-28T19:29:08.012Z,french_693.wav,0,pull,1728,19,5,4,english,f,12,1.14141667,-12.67054895,1.32223551
65be8fd402043b3040826d6b,40,0,2024-02-28T19:29:08.012Z,french_315.wav,0,pull,899,19,5,4,english,f,0,0.0,-57.99380713,1.27596122
65be8fd402043b3040826d6b,40,0,2024-02-28T19:29:08.012Z,french_315.wav,0,pull,899,19,5,4,english,f,1,0.1,-29.42522233,0.75622444
65be8fd402043b3040826d6b,40,0,2024-02-28T19:29:08.012Z,french_315.wav,0,pull,899,19,5,4,english,f,2,0.2,-91.96432946,1.60227253
65be8fd402043b3040826d6b,40,0,2024-02-28T19:29:08.012Z,french_315.wav,0,pull,899,19,5,4,english,f,3,0.3,-22.65210092,1.19328355
65be8fd402043b3040826d6b,40,0,2024-02-28T19:29:08.012Z,french_315.wav,0,pull,899,19,5,4,english,f,4,0.4,3.04174071,1.37321416
65be8fd402043b3040826d6b,40,0,2024-02-28T19:29:08.012Z,french_315.wav,0,pull,899,19,5,4,english,f,5,0.5,1.08298466,0.56030576
65be8fd402043b3040826d6b,40,0,2024-02-28T19:29:08.012Z,french_315.wav,0,pull,899,19,5,4,english,f,6,0.6,-92.85305088,1.96333661
65be8fd402043b3040826d6b,40,0,2024-02-28T19:29:08.012Z,french_315.wav,0,pull,899,19,5,4,english,f,7,0.7,52.63200379,0.7652546
65be8fd402043b3040826d6b,40,0,2024-02-28T19:29:08.012Z,french_315.wav,0,pull,899,19,5,4,english,f,8,0.8,97.19945099,0.61561587
65be8fd402043b3040826d6b,40,0,2024-02-28T19:29:08.012Z,french_315.wav,0,pull,899,19,5,4,english,f,9,0.9,-1.29037543,0.24933363
65be8fd402043b3040826d6b,40,0,2024-02-28T19:29:08.012Z,french_315.wav,0,pull,899,19,5,4,english,f,10,1.0,26.84711098,1.10007309
65be8fd402043b3040826d6b,40,0,2024-02-28T19:29:08.012Z,french_315.wav,0,pull,899,19,5,4,english,f,11,1.1,-54.11592076,1.49808802
65be8fd402043b3040826d6b,40,0,2024-02-28T19:29:08.012Z,french_315.wav,0,pull,899,19,5,4,english,f,12,1.14141667,-87.89598751,0.97036692
65be8fd402043b3040826d6b,41,0,2024-02-28T19:29:08.012Z,french_366.wav,0,pull,1941,19,5,4,english,f,0,0.0,-14.82855427,1.76609292
65be8fd402043b3040826d6b,41,0,2024-02-28T19:29:08.012Z,french_366.wav,0,pull,1941,19,5,4,english,f,1,0.1,6.72271479,1.92050992
65be8fd402043b3040826d6b,41,0,2024-02-28T19:29:08.012Z,french_366.wav,0,pull,1941,19,5,4,english,f,2,0.2,20.98041557,1.73177778
65be8fd402043b3040826d6b,41,0,2024-02-28T19:29:08.012Z,french_366.wav,0,pull,1941,19,5,4,english,f,3,0.3,-60.55291721,1.26737092
65be8fd402043b3040826d6b,41,0,2024-02-28T19:29:08.012Z,french_366.wav,0,pull,1941,19,5,4,english,f,4,0.4,-24.10338385,0.4259994
65be8fd402043b3040826d6b,41,0,2024-02-28T19:29:08.012Z,french_366.wav,0,pull,1941,19,5,4,english,f,5,0.5,-69.76829459,1.00032811
65be8fd402043b3040826d6b,41,0,2024-02-28T19:29:08.012Z,french_366.wav,0,pull,1941,19,5,4,english,f,6,0.6,50.41424091,0.65568415
65be8fd402043b3040826d6b,41,0,2024-02-28T19:29:08.012Z,french_366.wav,0,pull,1941,19,5,4,english,f,7,0.7,41.13803583,1.05912354
65be8fd402043b3040826d6b,41,0,2024-02-28T19:29:08.012Z,french_366.wav,0,pull,1941,19,5,4,english,f,8,0.8,-66.63492444,1.41038374
65be8fd402043b3040826d6b,41,0,2024-02-28T19:29:08.012Z,french_366.wav,0,pull,1941,19,5,4,english,f,9,0.9,32.77552682,1.87071781
65be8fd402043b3040826d6b,41,0,2024-02-28T19:29:08.012Z,french_366.wav,0,pull,1941,19,5,4,english,f,10,1.0,-61.45161975,0.72148135
65be8fd402043b3040826d6b,41,0,2024-02-28T19:29:08.012Z,french_366.wav,0,pull,1941,19,5,4,english,f,11,1.1,16.76057171,1.47966224
65be8fd402043b3040826d6b,41,0,2024-02-28T19:29:08.012Z,french_366.wav,0,pull,1941,19,5,4,english,f,12,1.14141667,47.11341698,1.22067671
65be8fd402043b3040826d6b,42,0,2024-02-28T19:29:08.012Z,french_800.wav,0,poule,771,19,5,4,english,f,0,0.0,-4.25631197,0.80468249
65be8fd402043b3040826d6b,42,0,2024-02-28T19:29:08.012Z,french_800.wav,0,poule,771,19,5,4,english,f,1,0.1,22.66632576,1.14959191
65be8fd402043b3040826d6b,42,0,2024-02-28T19:29:08.012Z,french_800.wav,0,poule,771,19,5,4,english,f,2,0.2,10.28900554,1.74323515
65be8fd402043b3040826d6b,42,0,2024-02-28T19:29:08.012Z,french_800.wav,0,poule,771,19,5,4,english,f,3,0.3,38.91231447,0.77183711
65be8fd402043b3040826d6b,42,0,2024-02-28T19:29:08.012Z,french_800.wav,0,poule,771,19,5,4,english,f,4,0.4,-12.27796799,1.35051127
65be8fd402043b3040826d6b,42,0,2024-02-28T19:29:08.012Z,french_800.wav,0,poule,771,19,5,4,english,f,5,0.5,-44.30581187,1.94130964
65be8fd402043b3040826d6b,42,0,2024-02-28T19:29:08.012Z,french_800.wav,0,poule,771,19,5,4,english,f,6,0.6,-22.88012932,1.17392808
65be8fd402043b3040826d6b,42,0,2024-02-28T19:29:08.012Z,french_800.wav,0,poule,771,19,5,4,english,f,7,0.7,-52.86195267,1.52994111
65be8fd402043b3040826d6b,42,0,2024-02-28T19:29:08.012Z,french_800.wav,0,poule,771,19,5,4,english,f,8,0.8,54.71772215,1.58058267
65be8fd402043b3040826d6b,42,0,2024-02-28T19:29:08.012Z,french_800.wav,0,poule,771,19,5,4,english,f,9,0.9,-51.65672109,1.58832666
65be8fd402043b3040826d6b,42,0,2024-02-28T19:29:08.012Z,french_800.wav,0,poule,771,19,5,4,english,f,10,1.0,-51.77252424,1.09850348
65be8fd402043b3040826d6b,42,0,2024-02-28T19:29:08.012Z,french_800.wav,0,poule,771,19,5,4,english,f,11,1.1,7.38633242,0.30985734
65be8fd402043b3040826d6b,42,0,2024-02-28T19:29:08.012Z,french_800.wav,0,poule,771,19,5,4,english,f,12,1.14141667,17.65920114,1.66023428
65be8fd402043b3040826d6b,43,0,2024-02-28T19:29:08.012Z,french_584.wav,0,poule,878,19,5,4,english,f,0,0.0,-53.64248655,1.38891122
65be8fd402043b3040826d6b,43,0,2024-02-28T19:29:08.012Z,french_584.wav,0,poule,878,19,5,4,english,f,1,0.1,87.73837185,0.52599003
65be8fd402043b3040826d6b,43,0,2024-02-28T19:29:08.012Z,french_584.wav,0,poule,878,19,5,4,english,f,2,0.2,-76.07432913,0.86644444
65be8fd402043b3040826d6b,43,0,2024-02-28T19:29:08.012Z,french_584.wav,0,poule,878,19,5,4,english,f,3,0.3,-82.64271669,0.7067956
65be8fd402043b3040826d6b,43,0,2024-02-28T19:29:08.012Z,french_584.wav,0,poule,878,19,5,4,english,f,4,0.4,95.13100452,0.85039222
65be8fd402043b3040826d6b,43,0,2024-02-28T19:29:08.012Z,french_584.wav,0,poule,878,19,5,4,english,f,5,0.5,0.46314255,1.91311542
65be8fd402043b3040826d6b,43,0,2024-02-28T19:29:08.012Z,french_584.wav,0,poule,878,19,5,4,english,f,6,0.6,84.32306812,1.87701513
65be8fd402043b3040826d6b,43,0,2024-02-28T19:29:08.012Z,french_584.wav,0,poule,878,19,5,4,english,f,7,0.7,-11.04836818,0.4258787
65be8fd402043b3040826d6b,43,0,2024-02-28T19:29:08.012Z,french_584.wav,0,poule,878,19,5,4,english,f,8,0.8,-2.39275169,1.64061013
65be8fd402043b3040826d6b,43,0,2024-02-28T19:29:08.012Z,french_584.wav,0,poule,878,19,5,4,english,f,9,0.9,-87.18946495,0.64403551
65be8fd402043b3040826d6b,43,0,2024-02-28T19:29:08.012Z,french_584.wav,0,poule,878,19,5,4,english,f,10,1.0,31.75007249,0.40232597
65be8fd402043b3040826d6b,43,0,2024-02-28T19:29:08.012Z,french_584.wav,0,poule,878,19,5,4,english,f,11,1.1,-75.12996198,1.36523835
65be8fd402043b3040826d6b,43,0,2024-02-28T19:29:08.012Z,french_584.wav,0,poule,878,19,5,4,english,f,12,1.14141667,89.37224699,1.64588011
65be8fd402043b3040826d6b,44,0,2024-02-28T19:29:08.012Z,french_437.wav,0,pull,1950,19,5,4,english,f,0,0.0,41.80320752,0.30954333
65be8fd402043b3040826d6b,44,0,2024-02-28T19:29:08.012Z,french_437.wav,0,pull,1950,19,5,4,english,f,1,0.1,-33.81764788,1.22203572
65be8fd402043b3040826d6b,44,0,2024-02-28T19:29:08.012Z,french_437.wav,0,pull,1950,19,5,4,english,f,2,0.2,25.70425251,0.04102161
65be8fd402043b3040826d6b,44,0,2024-02-28T19:29:08.012Z,french_437.wav,0,pull,1950,19,5,4,english,f,3,0.3,56.97339003,1.19854703
65be8fd402043b3040826d6b,44,0,2024-02-28T19:29:08.012Z,french_437.wav,0,pull,1950,19,5,4,english,f,4,0.4,46.8397409,0.8213725
65be8fd402043b3040826d6b,44,0,2024-02-28T19:29:08.012Z,french_437.wav,0,pull,1950,19,5,4,english,f,5,0.5,38.78616497,0.20494593
65be8fd402043b3040826d6b,44,0,2024-02-28T19:29:08.012Z,french_437.wav,0,pull,1950,19,5,4,english,f,6,0.6,-89.22878547,1.63754544
65be8fd402043b3040826d6b,44,0,2024-02-28T19:29:08.012Z,french_437.wav,0,pull,1950,19,5,4,english,f,7,0.7,80.78163583,1.22886157
65be8fd402043b3040826d6b,44,0,2024-02-28T19:29:08.012Z,french_437.wav,0,pull,1950,19,5,4,english,f,8,0.8,84.46215373,0.788043
65be8fd402043b3040826d6b,44,0,2024-02-28T19:29:08.012Z,french_437.wav,0,pull,1950,19,5,4,english,f,9,0.9,17.21068764,1.05494363
65be8fd402043b3040826d6b,44,0,2024-02-28T19:29:08.012Z,french_437.wav,0,pull,1950,19,5,4,english,f,10,1.0,16.06336223,0.71360389
65be8fd402043b3040826d6b,44,0,2024-02-28T19:29:08.012Z,french_437.wav,0,pull,1950,19,5,4,english,f,11,1.1,-52.17850038,1.83653188
65be8fd402043b3040826d6b,44,0,2024-02-28T19:29:08.012Z,french_437.wav,0,pull,1950,19,5,4,english,f,12,1.14141667,-51.05005354,0.63741841
65be8fd402043b3040826d6b,45,0,2024-02-28T19:29:08.012Z,french_635.wav,0,poule,1007,19,5,4,english,f,0,0.0,-32.006425,0.3460517
65be8fd402043b3040826d6b,45,0,2024-02-28T19:29:08.012Z,french_635.wav,0,poule,1007,19,5,4,english,f,1,0.1,98.74707192,1.36854871
65be8fd402043b3040826d6b,45,0,2024-02-28T19:29:08.012Z,french_635.wav,0,poule,1007,19,5,4,english,f,2,0.2,19.43104605,0.57268428
65be8fd402043b3040826d6b,45,0,2024-02-28T19:29:08.012Z,french_635.wav,0,poule,1007,19,5,4,english,f,3,0.3,-83.9130263,1.65457572
65be8fd402043b3040826d6b,45,0,2024-02-28T19:29:08.012Z,french_635.wav,0,poule,1007,19,5,4,english,f,4,0.4,-14.55275882,1.20009912
65be8fd402043b3040826d6b,45,0,2024-02-28T19:29:08.012Z,french_635.wav,0,poule,1007,19,5,4,english,f,5,0.5,-34.15529229,0.09946247
65be8fd402043b3040826d6b,45,0,2024-02-28T19:29:08.012Z,french_635.wav,0,poule,1007,19,5,4,english,f,6,0.6,22.38890545,0.27678562
65be8fd402043b3040826d6b,45,0,2024-02-28T19:29:08.012Z,french_635.wav,0,poule,1007,19,5,4,english,f,7,0.7,-11.42027576,0.68226029
65be8fd402043b3040826d6b,45,0,2024-02-28T19:29:08.012Z,french_635.wav,0,poule,1007,19,5,4,english,f,8,0.8,88.98766127,0.27295014
65be8fd402043b3040826d6b,45,0,2024-02-28T19:29:08.012Z,french_635.wav,0,poule,1007,19,5,4,english,f,9,0.9,-94.51548481,1.75198478
65be8fd402043b3040826d6b,45,0,2024-02-28T19:29:08.012Z,french_635.wav,0,poule,1007,19,5,4,english,f,10,1.0,-45.63563989,0.9844266
65be8fd402043b3040826d6b,45,0,2024-02-28T19:29:08.012Z,french_635.wav,0,poule,1007,19,5,4,english,f,11,1.1,27.73920543,0.17766763
65be8fd402043b3040826d6b,45,0,2024-02-28T19:29:08.012Z,french_635.wav,0,poule,1007,19,5,4,english,f,12,1.14141667,-59.05501484,0.29826397
65be8fd402043b3040826d6b,46,0,2024-02-28T19:29:08.012Z,french_821.wav,0,poule,502,19,5,4,english,f,0,0.0,29.40484442,0.95426299
65be8fd402043b3040826d6b,46,0,2024-02-28T19:29:08.012Z,french_821.wav,0,poule,502,19,5,4,english,f,1,0.1,-82.9706924,1.5819304
65be8fd402043b3040826d6b,46,0,2024-02-28T19:29:08.012Z,french_821.wav,0,poule,502,19,5,4,english,f,2,0.2,-20.36055848,0.87869467
65be8fd402043b3040826d6b,46,0,2024-02-28T19:29:08.012Z,french_821.wav,0,poule,502,19,5,4,english,f,3,0.3,70.67916019,1.08099797
65be8fd402043b3040826d6b,46,0,2024-02-28T19:29:08.012Z,french_821.wav,0,poule,502,19,5,4,english,f,4,0.4,97.39088207,0.67073914
65be8fd402043b3040826d6b,46,0,2024-02-28T19:29:08.012Z,french_821.wav,0,poule,502,19,5,4,english,f,5,0.5,-30.70591252,0.41474844
65be8fd402043b3040826d6b,46,0,2024-02-28T19:29:08.012Z,french_821.wav,0,poule,502,19,5,4,english,f,6,0.6,-3.37730477,1.79777915
65be8fd402043b3040826d6b,46,0,2024-02-28T19:29:08.012Z,french_821.wav,0,poule,502,19,5,4,english,f,7,0.7,-0.47603145,0.30685212
65be8fd402043b3040826d6b,46,0,2024-02-28T19:29:08.012Z,french_821.wav,0,poule,502,19,5,4,english,f,8,0.8,-91.88596282,1.93131035
65be8fd402043b3040826d6b,46,0,2024-02-28T19:29:08.012Z,french_821.wav,0,poule,502,19,5,4,english,f,9,0.9,98.16537349,0.96154714
65be8fd402043b3040826d6b,46,0,2024-02-28T19:29:08.012Z,french_821.wav,0,poule,502,19,5,4,english,f,10,1.0,-18.87996809,1.35337515
65be8fd402043b3040826d6b,46,0,2024-02-28T19:29:08.012Z,french_821.wav,0,poule,502,19,5,4,english,f,11,1.1,-47.32913681,1.56630163
65be8fd402043b3040826d6b,46,0,2024-02-28T19:29:08.012Z,french_821.wav,0,poule,502,19,5,4,english,f,12,1.14141667,-49.13726548,0.77030274
65be8fd402043b3040826d6b,47,0,2024-02-28T19:29:08.012Z,french_296.wav,0,poule,438,19,5,4,english,f,0,0.0,5.2871598,1.49161507
65be8fd402043b3040826d6b,47,0,2024-02-28T19:29:08.012Z,french_296.wav,0,poule,438,19,5,4,english,f,1,0.1,-48.61067267,1.35547964
65be8fd402043b3040826d6b,47,0,2024-02-28T19:29:08.012Z,french_296.wav,0,poule,438,19,5,4,english,f,2,0.2,-20.76740992,0.83001431
65be8fd402043b3040826d6b,47,0,2024-02-28T19:29:08.012Z,french_296.wav,0,poule,438,19,5,4,english,f,3,0.3,-35.50442874,0.15289187
65be8fd402043b3040826d6b,47,0,2024-02-28T19:29:08.012Z,french_296.wav,0,poule,438,19,5,4,english,f,4,0.4,-35.53990327,0.1914254
65be8fd402043b3040826d6b,47,0,2024-02-28T19:29:08.012Z,french_296.wav,0,poule,438,19,5,4,english,f,5,0.5,20.53355283,1.48451111
65be8fd402043b3040826d6b,47,0,2024-02-28T19:29:08.012Z,french_296.wav,0,poule,438,19,5,4,english,f,6,0.6,12.20867078,1.26246457
65be8fd402043b3040826d6b,47,0,2024-02-28T19:29:08.012Z,french_296.wav,0,poule,438,19,5,4,english,f,7,0.7,-1.23368306,1.23141276
65be8fd402043b3040826d6b,47,0,2024-02-28T19:29:08.012Z,french_296.wav,0,poule,438,19,5,4,english,f,8,0.8,56.93816681,0.38877565
65be8fd402043b3040826d6b,47,0,2024-02-28T19:29:08.012Z,french_296.wav,0,poule,438,19,5,4,english,f,9,0.9,-72.46364669,1.84186953
65be8fd402043b3040826d6b,47,0,2024-02-28T19:29:08.012Z,french_296.wav,0,poule,438,19,5,4,english,f,10,1.0,11.78008614,0.37442511
65be8fd402043b3040826d6b,47,0,2024-02-28T19:29:08.012Z,french_296.wav,0,poule,438,19,5,4,english,f,11,1.1,-0.25420926,1.6971742
65be8fd402043b3040826d6b,47,0,2024-02-28T19:29:08.012Z,french_296.wav,0,poule,438,19,5,4,english,f,12,1.14141667,-64.24241885,0.23672818
65be8fd402043b3040826d6b,48,0,2024-02-28T19:29:08.012Z,french_668.wav,0,pull,561,19,5,4,english,f,0,0.0,29.27228259,0.3188214
65be8fd402043b3040826d6b,48,0,2024-02-28T19:29:08.012Z,french_668.wav,0,pull,561,19,5,4,english,f,1,0.1,44.61886338,0.83567332
65be8fd402043b3040826d6b,48,0,2024-02-28T19:29:08.012Z,french_668.wav,0,pull,561,19,5,4,english,f,2,0.2,-99.37151223,1.37479397
65be8fd402043b3040826d6b,48,0,2024-02-28T19:29:08.012Z,french_668.wav,0,pull,561,19,5,4,english,f,3,0.3,-43.50012214,1.52422833
65be8fd402043b3040826d6b,48,0,2024-02-28T19:29:08.012Z,french_668.wav,0,pull,561,19,5,4,english,f,4,0.4,-59.48264573,1.47592496
65be8fd402043b3040826d6b,48,0,2024-02-28T19:29:08.012Z,french_668.wav,0,pull,561,19,5,4,english,f,5,0.5,-9.75520018,0.98185706
65be8fd402043b3040826d6b,48,0,2024-02-28T19:29:08.012Z,french_668.wav,0,pull,561,19,5,4,english,f,6,0.6,-11.86740044,0.8144327
65be8fd402043b3040826d6b,48,0,2024-02-28T19:29:08.012Z,french_668.wav,0,pull,561,19,5,4,english,f,7,0.7,74.75745741,0.15769834
65be8fd402043b3040826d6b,48,0,2024-02-28T19:29:08.012Z,french_668.wav,0,pull,561,19,5,4,english,f,8,0.8,57.50233643,0.61225333
65be8fd402043b3040826d6b,48,0,2024-02-28T19:29:08.012Z,french_668.wav,0,pull,561,19,5,4,english,f,9,0.9,-23.1818058,0.30532124
65be8fd402043b3040826d6b,48,0,2024-02-28T19:29:08.012Z,french_668.wav,0,pull,561,19,5,4,english,f,10,1.0,30.6351759,0.84973926
65be8fd402043b3040826d6b,48,0,2024-02-28T19:29:08.012Z,french_668.wav,0,pull,561,19,5,4,english,f,11,1.1,-64.15483503,1.73680039
65be8fd402043b3040826d6b,48,0,2024-02-28T19:29:08.012Z,french_668.wav,0,pull,561,19,5,4,english,f,12,1.14141667,-17.76472581,1.07000134
65be8fd402043b3040826d6b,49,0,2024-02-28T19:29:08.012Z,french_734.wav,0,pull,579,19,5,4,english,f,0,0.0,-32.93654262,0.60836272
65be8fd402043b3040826d6b,49,0,2024-02-28T19:29:08.012Z,french_734.wav,0,pull,579,19,5,4,english,f,1,0.1,72.79608102,0.03991841
65be8fd402043b3040826d6b,49,0,2024-02-28T19:29:08.012Z,french_734.wav,0,pull,579,19,5,4,english,f,2,0.2,-50.40071999,1.2364671
65be8fd402043b3040826d6b,49,0,2024-02-28T19:29:08.012Z,french_734.wav,0,pull,579,19,5,4,english,f,3,0.3,90.69974695,0.40854822
65be8fd402043b3040826d6b,49,0,2024-02-28T19:29:08.012Z,french_734.wav,0,pull,579,19,5,4,english,f,4,0.4,37.06775667,0.42768432
65be8fd402043b3040826d6b,49,0,2024-02-28T19:29:08.012Z,french_734.wav,0,pull,579,19,5,4,english,f,5,0.5,49.52329957,0.67619941
65be8fd402043b3040826d6b,49,0,2024-02-28T19:29:08.012Z,french_734.wav,0,pull,579,19,5,4,english,f,6,0.6,-9.85142624,0.85456146
65be8fd402043b3040826d6b,49,0,2024-02-28T19:29:08.012Z,french_734.wav,0,pull,579,19,5,4,english,f,7,0.7,-27.6925888,0.80405121
65be8fd402043b3040826d6b,49,0,2024-02-28T19:29:08.012Z,french_734.wav,0,pull,579,19,5,4,english,f,8,0.8,-15.44600324,0.97354212
65be8fd402043b3040826d6b,49,0,2024-02-28T19:29:08.012Z,french_734.wav,0,pull,579,19,5,4,english,f,9,0.9,89.85582039,0.56230459
65be8fd402043b3040826d6b,49,0,2024-02-28T19:29:08.012Z,french_734.wav,0,pull,579,19,5,4,english,f,10,1.0,80.64551884,0.25036131
65be8fd402043b3040826d6b,49,0,2024-02-28T19:29:08.012Z,french_734.wav,0,pull,579,19,5,4,english,f,11,1.1,-45.93519871,0.00393516
65be8fd402043b3040826d6b,49,0,2024-02-28T19:29:08.012Z,french_734.wav,0,pull,579,19,5,4,english,f,12,1.14141667,-39.52142082,1.59555679
65be8fd402043b3040826d6b,50,1,2024-02-28T19:32:34.664Z,french_426.wav,0,poule,1266,19,5,4,english,f,0,0.0,-6.32763113,1.69747545
65be8fd402043b3040826d6b,50,1,2024-02-28T19:32:34.664Z,french_426.wav,0,poule,1266,19,5,4,english,f,1,0.1,52.57695115,0.44356632
65be8fd402043b3040826d6b,50,1,2024-02-28T19:32:34.664Z,french_426.wav,0,poule,1266,19,5,4,english,f,2,0.2,41.60389797,0.19149228
65be8fd402043b3040826d6b,50,1,2024-02-28T19:32:34.664Z,french_426.wav,0,poule,1266,19,5,4,english,f,3,0.3,-8.66153644,0.04934427
65be8fd402043b3040826d6b,50,1,2024-02-28T19:32:34.664Z,french_426.wav,0,poule,1266,19,5,4,english,f,4,0.4,21.98741159,1.95400703
65be8fd402043b3040826d6b,50,1,2024-02-28T19:32:34.664Z,french_426.wav,0,poule,1266,19,5,4,english,f,5,0.5,7.59234245,0.49820864
65be8fd402043b3040826d6b,50,1,2024-02-28T19:32:34.664Z,french_426.wav,0,poule,1266,19,5,4,english,f,6,0.6,70.82755328,0.51266747
65be8fd402043b3040826d6b,50,1,2024-02-28T19:32:34.664Z,french_426.wav,0,poule,1266,19,5,4,english,f,7,0.7,17.66979404,1.86795174
65be8fd402043b3040826d6b,50,1,2024-02-28T19:32:34.664Z,french_426.wav,0,poule,1266,19,5,4,english,f,8,0.8,-65.60181314,1.30935529
65be8fd402043b3040826d6b,50,1,2024-02-28T19:32:34.664Z,french_426.wav,0,poule,1266,19,5,4,english,f,9,0.9,-44.40728826,0.05861012
65be8fd402043b3040826d6b,50,1,2024-02-28T19:32:34.664Z,french_426.wav,0,poule,1266,19,5,4,english,f,10,1.0,-52.60669598,1.40782227
65be8fd402043b3040826d6b,50,1,2024-02-28T19:32:34.664Z,french_426.wav,0,poule,1266,19,5,4,english,f,11,1.1,-70.77145759,1.0203891
65be8fd402043b3040826d6b,50,1,2024-02-28T19:32:34.664Z,french_426.wav,0,poule,1266,19,5,4,english,f,12,1.14141667,-30.0338136,1.4169691
65be8fd402043b3040826d6b,51,1,2024-02-28T19:32:34.664Z,french_362.wav,0,poule,564,19,5,4,english,f,0,0.0,41.03273498,1.17434259
65be8fd402043b3040826d6b,51,1,2024-02-28T19:32:34.664Z,french_362.wav,0,poule,564,19,5,4,english,f,1,0.1,9.58147449,1.0161357
65be8fd402043b3040826d6b,51,1,2024-02-28T19:32:34.664Z,french_362.wav,0,poule,564,19,5,4,english,f,2,0.2,-32.18625516,1.58908251
65be8fd402043b3040826d6b,51,1,2024-02-28T19:32:34.664Z,french_362.wav,0,poule,564,19,5,4,english,f,3,0.3,28.50669793,0.746627
65be8fd402043b3040826d6b,51,1,2024-02-28T19:32:34.664Z,french_362.wav,0,poule,564,19,5,4,english,f,4,0.4,-88.53670297,0.02412489
65be8fd402043b3040826d6b,51,1,2024-02-28T19:32:34.664Z,french_362.wav,0,poule,564,19,5,4,english,f,5,0.5,-15.43899097,0.5408358
65be8fd402043b3040826d6b,51,1,2024-02-28T19:32:34.664Z,french_362.wav,0,poule,564,19,5,4,english,f,6,0.6,-14.99208648,1.97473796
65be8fd402043b3040826d6b,51,1,2024-02-28T19:32:34.664Z,french_362.wav,0,poule,564,19,5,4,english,f,7,0.7,30.73544721,0.60459965
65be8fd402043b3040826d6b,51,1,2024-02-28T19:32:34.664Z,french_362.wav,0,poule,564,19,5,4,english,f,8,0.8,-77.16176604,1.44502859
65be8fd402043b3040826d6b,51,1,2024-02-28T19:32:34.664Z,french_362.wav,0,poule,564,19,5,4,english,f,9,0.9,-8.39157052,1.27495293
65be8fd402043b3040826d6b,51,1,2024-02-28T19:32:34.664Z,french_362.wav,0,poule,564,19,5,4,english,f,10,1.0,-0.4008465,0.65103499
65be8fd402043b3040826d6b,51,1,2024-02-28T19:32:34.664Z,french_362.wav,0,poule,564,19,5,4,english,f,11,1.1,4.11299021,0.57126771
65be8fd402043b3040826d6b,51,1,2024-02-28T19:32:34.664Z,french_362.wav,0,poule,564,19,5,4,english,f,12,1.14141667,49.09310712,1.60326381
65be8fd402043b3040826d6b,52,1,2024-02-28T19:32:34.664Z,french_561.wav,0,pull,585,19,5,4,english,f,0,0.0,67.40101017,0.645078
65be8fd402043b3040826d6b,52,1,2024-02-28T19:32:34.664Z,french_561.wav,0,pull,585,19,5,4,english,f,1,0.1,36.60368445,0.26756066
65be8fd402043b3040826d6b,52,1,2024-02-28T19:32:34.664Z,french_561.wav,0,pull,585,19,5,4,english,f,2,0.2,39.55672366,0.69254265
65be8fd402043b3040826d6b,52,1,2024-02-28T19:32:34.664Z,french_561.wav,0,pull,585,19,5,4,english,f,3,0.3,54.30102721,1.32198922
65be8fd402043b3040826d6b,52,1,2024-02-28T19:32:34.664Z,french_561.wav,0,pull,585,19,5,4,english,f,4,0.4,20.03392426,1.02700149
65be8fd402043b3040826d6b,52,1,2024-02-28T19:32:34.664Z,french_561.wav,0,pull,585,19,5,4,english,f,5,0.5,-29.68246873,0.98226919
65be8fd402043b3040826d6b,52,1,2024-02-28T19:32:34.664Z,french_561.wav,0,pull,585,19,5,4,english,f,6,0.6,22.40430281,0.81279805
65be8fd402043b3040826d6b,52,1,2024-02-28T19:32:34.664Z,french_561.wav,0,pull,585,19,5,4,english,f,7,0.7,-74.48697664,0.24367369
65be8fd402043b3040826d6b,52,1,2024-02-28T19:32:34.664Z,french_561.wav,0,pull,585,19,5,4,english,f,8,0.8,13.2806252,0.57451136
65be8fd402043b3040826d6b,52,1,2024-02-28T19:32:34.664Z,french_561.wav,0,pull,585,19,5,4,english,f,9,0.9,44.09035723,0.58440629
65be8fd402043b3040826d6b,52,1,2024-02-28T19:32:34.664Z,french_561.wav,0,pull,585,19,5,4,english,f,10,1.0,-8.48015654,1.65336997
65be8fd402043b3040826d6b,52,1,2024-02-28T19:32:34.664Z,french_561.wav,0,pull,585,19,5,4,english,f,11,1.1,45.0458021,1.04192986
65be8fd402043b3040826d6b,52,1,2024-02-28T19:32:34.664Z,french_561.wav,0,pull,585,19,5,4,english,f,12,1.14141667,-93.39742635,0.23712889
65be8fd402043b3040826d6b,53,1,2024-02-28T19:32:34.664Z,french_246.wav,0,pull,509,19,5,4,english,f,0,0.0,-30.47504576,0.47785651
65be8fd402043b3040826d6b,53,1,2024-02-28T19:32:34.664Z,french_246.wav,0,pull,509,19,5,4,english,f,1,0.1,-83.06405686,1.85614621
65be8fd402043b3040826d6b,53,1,2024-02-28T19:32:34.664Z,french_246.wav,0,pull,509,19,5,4,english,f,2,0.2,62.50778564,0.28079339
65be8fd402043b3040826d6b,53,1,2024-02-28T19:32:34.664Z,french_246.wav,0,pull,509,19,5,4,english,f,3,0.3,8.87266429,1.15467711
65be8fd402043b3040826d6b,53,1,2024-02-28T19:32:34.664Z,french_246.wav,0,pull,509,19,5,4,english,f,4,0.4,44.6949174,1.29610326
65be8fd402043b3040826d6b,53,1,2024-02-28T19:32:34.664Z,french_246.wav,0,pull,509,19,5,4,english,f,5,0.5,38.79182234,0.14147162
65be8fd402043b3040826d6b,53,1,2024-02-28T19:32:34.664Z,french_246.wav,0,pull,509,19,5,4,english,f,6,0.6,-98.97339248,0.92649122
65be8fd402043b3040826d6b,53,1,2024-02-28T19:32:34.664Z,french_246.wav,0,pull,509,19,5,4,english,f,7,0.7,-24.61405849,0.74752986
65be8fd402043b3040826d6b,53,1,2024-02-28T19:32:34.664Z,french_246.wav,0,pull,509,19,5,4,english,f,8,0.8,0.11664969,1.75089992
65be8fd402043b3040826d6b,53,1,2024-02-28T19:32:34.664Z,french_246.wav,0,pull,509,19,5,4,english,f,9,0.9,41.40110598,0.0989963
65be8fd402043b3040826d6b,53,1,2024-02-28T19:32:34.664Z,french_246.wav,0,pull,509,19,5,4,english,f,10,1.0,-40.48516798,0.24181159
65be8fd402043b3040826d6b,53,1,2024-02-28T19:32:34.664Z,french_246.wav,0,pull,509,19,5,4,english,f,11,1.1,70.26355015,1.60406525
65be8fd402043b3040826d6b,53,1,2024-02-28T19:32:34.664Z,french_246.wav,0,pull,509,19,5,4,english,f,12,1.14141667,92.29981678,0.31046435
65be8fd402043b3040826d6b,54,1,2024-02-28T19:32:34.664Z,french_369.wav,0,poule,551,19,5,4,english,f,0,0.0,69.75074481,1.46736973
65be8fd402043b3040826d6b,54,1,2024-02-28T19:32:34.664Z,french_369.wav,0,poule,551,19,5,4,english,f,1,0.1,-10.40899833,0.13737814
65be8fd402043b3040826d6b,54,1,2024-02-28T19:32:34.664Z,french_369.wav,0,poule,551,19,5,4,english,f,2,0.2,85.57878117,1.34631707
65be8fd402043b3040826d6b,54,1,2024-02-28T19:32:34.664Z,french_369.wav,0,poule,551,19,5,4,english,f,3,0.3,15.39701213,0.46028441
65be8fd402043b3040826d6b,54,1,2024-02-28T19:32:34.664Z,french_369.wav,0,poule,551,19,5,4,english,f,4,0.4,83.19518913,0.141543
65be8fd402043b3040826d6b,54,1,2024-02-28T19:32:34.664Z,french_369.wav,0,poule,551,19,5,4,english,f,5,0.5,20.33595166,0.46259405
65be8fd402043b3040826d6b,54,1,2024-02-28T19:32:34.664Z,french_369.wav,0,poule,551,19,5,4,english,f,6,0.6,10.594299,0.96314063
65be8fd402043b3040826d6b,54,1,2024-02-28T19:32:34.664Z,french_369.wav,0,poule,551,19,5,4,english,f,7,0.7,-65.1676687,0.97877892
65be8fd402043b3040826d6b,54,1,2024-02-28T19:32:34.664Z,french_369.wav,0,poule,551,19,5,4,english,f,8,0.8,49.76363472,1.10716642
65be8fd402043b3040826d6b,54,1,2024-02-28T19:32:34.664Z,french_369.wav,0,poule,551,19,5,4,english,f,9,0.9,-78.66253889,0.40650809
65be8fd402043b3040826d6b,54,1,2024-02-28T19:32:34.664Z,french_369.wav,0,poule,551,19,5,4,english,f,10,1.0,4.39215728,1.82064787
65be8fd402043b3040826d6b,54,1,2024-02-28T19:32:34.664Z,french_369.wav,0,poule,551,19,5,4,english,f,11,1.1,-85.73946609,1.61141022
65be8fd402043b3040826d6b,54,1,2024-02-28T19:32:34.664Z,french_369.wav,0,poule,551,19,5,4,english,f,12,1.14141667,53.02267255,0.46038383
65be8fd402043b3040826d6b,55,1,2024-02-28T19:32:34.664Z,french_381.wav,0,pull,595,19,5,4,english,f,0,0.0,16.77547757,1.57552779
65be8fd402043b3040826d6b,55,1,2024-02-28T19:32:34.664Z,french_381.wav,0,pull,595,19,5,4,english,f,1,0.1,17.23505451,0.79968926
65be8fd402043b3040826d6b,55,1,2024-02-28T19:32:34.664Z,french_381.wav,0,pull,595,19,5,4,english,f,2,0.2,81.55975147,0.97870808
65be8fd402043b3040826d6b,55,1,2024-02-28T19:32:34.664Z,french_381.wav,0,pull,595,19,5,4,english,f,3,0.3,66.33872026,1.32218964
65be8fd402043b3040826d6b,55,1,2024-02-28T19:32:34.664Z,french_381.wav,0,pull,595,19,5,4,english,f,4,0.4,33.03818018,1.91491421
65be8fd402043b3040826d6b,55,1,2024-02-28T19:32:34.664Z,french_381.wav,0,pull,595,19,5,4,english,f,5,0.5,-27.31689891,1.55764182
65be8fd402043b3040826d6b,55,1,2024-02-28T19:32:34.664Z,french_381.wav,0,pull,595,19,5,4,english,f,6,0.6,23.16804454,1.56469583
65be8fd402043b3040826d6b,55,1,2024-02-28T19:32:34.664Z,french_381.wav,0,pull,595,19,5,4,english,f,7,0.7,-22.15418729,0.99557265
65be8fd402043b3040826d6b,55,1,2024-02-28T19:32:34.664Z,french_381.wav,0,pull,595,19,5,4,english,f,8,0.8,17.55346965,0.5982603
65be8fd402043b3040826d6b,55,1,2024-02-28T19:32:34.664Z,french_381.wav,0,pull,595,19,5,4,english,f,9,0.9,-25.58605951,0.02411044
65be8fd402043b3040826d6b,55,1,2024-02-28T19:32:34.664Z,french_381.wav,0,pull,595,19,5,4,english,f,10,1.0,-85.31796448,0.77366774
65be8fd402043b3040826d6b,55,1,2024-02-28T19:32:34.664Z,french_381.wav,0,pull,595,19,5,4,english,f,11,1.1,-83.45042571,0.9088508
65be8fd402043b3040826d6b,55,1,2024-02-28T19:32:34.664Z,french_381.wav,0,pull,595,19,5,4,english,f,12,1.14141667,12.63282515,1.14991204
65be8fd402043b3040826d6b,56,1,2024-02-28T19:32:34.664Z,french_858.wav,0,pull,693,19,5,4,english,f,0,0.0,-53.68453677,1.6757384
65be8fd402043b3040826d6b,56,1,2024-02-28T19:32:34.664Z,french_858.wav,0,pull,693,19,5,4,english,f,1,0.1,-28.94516131,1.30661064
65be8fd402043b3040826d6b,56,1,2024-02-28T19:32:34.664Z,french_858.wav,0,pull,693,19,5,4,english,f,2,0.2,-98.24340487,0.9866685
65be8fd402043b3040826d6b,56,1,2024-02-28T19:32:34.664Z,french_858.wav,0,pull,693,19,5,4,english,f,3,0.3,-99.1252782,0.35735292
65be8fd402043b3040826d6b,56,1,2024-02-28T19:32:34.664Z,french_858.wav,0,pull,693,19,5,4,english,f,4,0.4,-26.26210223,1.10822688
65be8fd402043b3040826d6b,56,1,2024-02-28T19:32:34.664Z,french_858.wav,0,pull,693,19,5,4,english,f,5,0.5,-45.03942581,1.57836245
65be8fd402043b3040826d6b,56,1,2024-02-28T19:32:34.664Z,french_858.wav,0,pull,693,19,5,4,english,f,6,0.6,-66.94086258,1.65767341
65be8fd402043b3040826d6b,56,1,2024-02-28T19:32:34.664Z,french_858.wav,0,pull,693,19,5,4,english,f,7,0.7,82.11998094,1.15727357
65be8fd402043b3040826d6b,56,1,2024-02-28T19:32:34.664Z,french_858.wav,0,pull,693,19,5,4,english,f,8,0.8,26.35770122,1.70991659
65be8fd402043b3040826d6b,56,1,2024-02-28T19:32:34.664Z,french_858.wav,0,pull,693,19,5,4,english,f,9,0.9,30.884295,0.39633264
65be8fd402043b3040826d6b,56,1,2024-02-28T19:32:34.664Z,french_858.wav,0,pull,693,19,5,4,english,f,10,1.0,12.20949493,0.36576693
65be8fd402043b3040826d6b,56,1,2024-02-28T19:32:34.664Z,french_858.wav,0,pull,693,19,5,4,english,f,11,1.1,-39.12104369,1.53765391
65be8fd402043b3040826d6b,56,1,2024-02-28T19:32:34.664Z,french_858.wav,0,pull,693,19,5,4,english,f,12,1.14141667,17.56591415,0.88045647
65be8fd402043b3040826d6b,57,1,2024-02-28T19:32:34.664Z,french_740.wav,0,pull,1125,19,5,4,english,f,0,0.0,-23.8561275,1.38106788
65be8fd402043b3040826d6b,57,1,2024-02-28T19:32:34.664Z,french_740.wav,0,pull,1125,19,5,4,english,f,1,0.1,12.41197017,0.96449807
65be8fd402043b3040826d6b,57,1,2024-02-28T19:32:34.664Z,french_740.wav,0,pull,1125,19,5,4,english,f,2,0.2,-75.22373784,1.81317808
65be8fd402043b3040826d6b,57,1,2024-02-28T19:32:34.664Z,french_740.wav,0,pull,1125,19,5,4,english,f,3,0.3,13.95432459,0.48903687
65be8fd402043b3040826d6b,57,1,2024-02-28T19:32:34.664Z,french_740.wav,0,pull,1125,19,5,4,english,f,4,0.4,86.43925379,0.89209498
65be8fd402043b3040826d6b,57,1,2024-02-28T19:32:34.664Z,french_740.wav,0,pull,1125,19,5,4,english,f,5,0.5,-59.06853257,0.79820054
65be8fd402043b3040826d6b,57,1,2024-02-28T19:32:34.664Z,french_740.wav,0,pull,1125,19,5,4,english,f,6,0.6,8.7812543,1.20695925
65be8fd402043b3040826d6b,57,1,2024-02-28T19:32:34.664Z,french_740.wav,0,pull,1125,19,5,4,english,f,7,0.7,-81.4658243,0.55003693
65be8fd402043b3040826d6b,57,1,2024-02-28T19:32:34.664Z,french_740.wav,0,pull,1125,19,5,4,english,f,8,0.8,-37.53161999,0.44955963
65be8fd402043b3040826d6b,57,1,2024-02-28T19:32:34.664Z,french_740.wav,0,pull,1125,19,5,4,english,f,9,0.9,-71.6710365,1.78000651
65be8fd402043b3040826d6b,57,1,2024-02-28T19:32:34.664Z,french_740.wav,0,pull,1125,19,5,4,english,f,10,1.0,31.54551497,1.38553911
65be8fd402043b3040826d6b,57,1,2024-02-28T19:32:34.664Z,french_740.wav,0,pull,1125,19,5,4,english,f,11,1.1,73.9548309,0.82064893
65be8fd402043b3040826d6b,57,1,2024-02-28T19:32:34.664Z,french_740.wav,0,pull,1125,19,5,4,english,f,12,1.14141667,48.2786376,1.09253076
65be8fd402043b3040826d6b,58,1,2024-02-28T19:32:34.664Z,french_544.wav,0,pull,805,19,5,4,english,f,0,0.0,-47.38697201,1.0177879
65be8fd402043b3040826d6b,58,1,2024-02-28T19:32:34.664Z,french_544.wav,0,pull,805,19,5,4,english,f,1,0.1,-45.74023633,0.424984919
65be8fd402043b3040826d6b,58,1,2024-02-28T19:32:34.664Z,french_544.wav,0,pull,805,19,5,4,english,f,2,0.2,-60.42650725,1.22266415
65be8fd402043b3040826d6b,58,1,2024-02-28T19:32:34.664Z,french_544.wav,0,pull,805,19,5,4,english,f,3,0.3,34.87343661,1.17261044
65be8fd402043b3040826d6b,58,1,2024-02-28T19:32:34.664Z,french_544.wav,0,pull,805,19,5,4,english,f,4,0.4,-38.6627365,0.548694777
65be8fd402043b3040826d6b,58,1,2024-02-28T19:32:34.664Z,french_544.wav,0,pull,805,19,5,4,english,f,5,0.5,58.40491157,0.114745734
65be8fd402043b3040826d6b,58,1,2024-02-28T19:32:34.664Z,french_544.wav,0,pull,805,19,5,4,english,f,6,0.6,82.78266879,1.71917122
65be8fd402043b3040826d6b,58,1,2024-02-28T19:32:34.664Z,french_544.wav,0,pull,805,19,5,4,english,f,7,0.7,-9.1273893,0.765473304
65be8fd402043b3040826d6b,58,1,2024-02-28T19:32:34.664Z,french_544.wav,0,pull,805,19,5,4,english,f,8,0.8,-15.5781982,0.00141609463
65be8fd402043b3040826d6b,58,1,2024-02-28T19:32:34.664Z,french_544.wav,0,pull,805,19,5,4,english,f,9,0.9,-12.87000269,1.43975833
65be8fd402043b3040826d6b,58,1,2024-02-28T19:32:34.664Z,french_544.wav,0,pull,805,19,5,4,english,f,10,1.0,81.09749375,0.252670751
65be8fd402043b3040826d6b,58,1,2024-02-28T19:32:34.664Z,french_544.wav,0,pull,805,19,5,4,english,f,11,1.1,-15.34697207,0.837637717
65be8fd402043b3040826d6b,58,1,2024-02-28T19:32:34.664Z,french_544.wav,0,pull,805,19,5,4,english,f,12,1.14141667,-62.44527871,0.0125502453
65be8fd402043b3040826d6b,59,1,2024-02-28T19:32:34.664Z,french_815.wav,0,pull,462,19,5,4,english,f,0,0.0,43.47811109,1.27638717
65be8fd402043b3040826d6b,59,1,2024-02-28T19:32:34.664Z,french_815.wav,0,pull,462,19,5,4,english,f,1,0.1,-39.69317674,1.25031866
65be8fd402043b3040826d6b,59,1,2024-02-28T19:32:34.664Z,french_815.wav,0,pull,462,19,5,4,english,f,2,0.2,70.70027906,0.78335521
65be8fd402043b3040826d6b,59,1,2024-02-28T19:32:34.664Z,french_815.wav,0,pull,462,19,5,4,english,f,3,0.3,-4.04220679,1.7307952
65be8fd402043b3040826d6b,59,1,2024-02-28T19:32:34.664Z,french_815.wav,0,pull,462,19,5,4,english,f,4,0.4,77.25732101,1.69406415
65be8fd402043b3040826d6b,59,1,2024-02-28T19:32:34.664Z,french_815.wav,0,pull,462,19,5,4,english,f,5,0.5,-48.82932979,1.17209267
65be8fd402043b3040826d6b,59,1,2024-02-28T19:32:34.664Z,french_815.wav,0,pull,462,19,5,4,english,f,6,0.6,14.54543285,1.23520838
65be8fd402043b3040826d6b,59,1,2024-02-28T19:32:34.664Z,french_815.wav,0,pull,462,19,5,4,english,f,7,0.7,23.58613037,0.19395841
65be8fd402043b3040826d6b,59,1,2024-02-28T19:32:34.664Z,french_815.wav,0,pull,462,19,5,4,english,f,8,0.8,11.08048431,1.25730834
65be8fd402043b3040826d6b,59,1,2024-02-28T19:32:34.664Z,french_815.wav,0,pull,462,19,5,4,english,f,9,0.9,11.05185943,1.56641554
65be8fd402043b3040826d6b,59,1,2024-02-28T19:32:34.664Z,french_815.wav,0,pull,462,19,5,4,english,f,10,1.0,49.96011954,0.33329842
