subj,trial,block,date,stim,stim_order,response,rt,age,english,french,language,sex,param_index,segment,pitch,stretch
65a97c769f2db2c7f246e5b5,0,0,2024-02-28T14:56:07.409Z,french_408.wav,0,poule,1626,31,5,4,English,f,0,0.0,57.66287293,0.97919047
65a97c769f2db2c7f246e5b5,0,0,2024-02-28T14:56:07.409Z,french_408.wav,0,poule,1626,31,5,4,English,f,1,0.1,97.93839552,1.75049415
65a97c769f2db2c7f246e5b5,0,0,2024-02-28T14:56:07.409Z,french_408.wav,0,poule,1626,31,5,4,English,f,2,0.2,-36.35390522,0.42601853
65a97c769f2db2c7f246e5b5,0,0,2024-02-28T14:56:07.409Z,french_408.wav,0,poule,1626,31,5,4,English,f,3,0.3,-90.18432496,0.19355807
65a97c769f2db2c7f246e5b5,0,0,2024-02-28T14:56:07.409Z,french_408.wav,0,poule,1626,31,5,4,English,f,4,0.4,77.46855699,0.61301907
65a97c769f2db2c7f246e5b5,0,0,2024-02-28T14:56:07.409Z,french_408.wav,0,poule,1626,31,5,4,English,f,5,0.5,-58.59457593,1.34428146
65a97c769f2db2c7f246e5b5,0,0,2024-02-28T14:56:07.409Z,french_408.wav,0,poule,1626,31,5,4,English,f,6,0.6,17.75527267,0.94860776
65a97c769f2db2c7f246e5b5,0,0,2024-02-28T14:56:07.409Z,french_408.wav,0,poule,1626,31,5,4,English,f,7,0.7,-51.28739939,0.59865159
65a97c769f2db2c7f246e5b5,0,0,2024-02-28T14:56:07.409Z,french_408.wav,0,poule,1626,31,5,4,English,f,8,0.8,-48.80162111,1.44134646
65a97c769f2db2c7f246e5b5,0,0,2024-02-28T14:56:07.409Z,french_408.wav,0,poule,1626,31,5,4,English,f,9,0.9,-72.58398365,0.53845546
65a97c769f2db2c7f246e5b5,0,0,2024-02-28T14:56:07.409Z,french_408.wav,0,poule,1626,31,5,4,English,f,10,1.0,2.3507173,1.04957874
65a97c769f2db2c7f246e5b5,0,0,2024-02-28T14:56:07.409Z,french_408.wav,0,poule,1626,31,5,4,English,f,11,1.1,-12.63030399,1.86480696
65a97c769f2db2c7f246e5b5,0,0,2024-02-28T14:56:07.409Z,french_408.wav,0,poule,1626,31,5,4,English,f,12,1.14141667,70.79914173,0.77055656
65a97c769f2db2c7f246e5b5,1,0,2024-02-28T14:56:07.409Z,french_871.wav,0,pull,2822,31,5,4,English,f,0,0.0,-87.17332431,1.77173176
65a97c769f2db2c7f246e5b5,1,0,2024-02-28T14:56:07.409Z,french_871.wav,0,pull,2822,31,5,4,English,f,1,0.1,-63.09415983,0.67265644
65a97c769f2db2c7f246e5b5,1,0,2024-02-28T14:56:07.409Z,french_871.wav,0,pull,2822,31,5,4,English,f,2,0.2,-5.13692517,0.44902259
65a97c769f2db2c7f246e5b5,1,0,2024-02-28T14:56:07.409Z,french_871.wav,0,pull,2822,31,5,4,English,f,3,0.3,39.71093195,0.63427398
65a97c769f2db2c7f246e5b5,1,0,2024-02-28T14:56:07.409Z,french_871.wav,0,pull,2822,31,5,4,English,f,4,0.4,96.30977603,1.34575671
65a97c769f2db2c7f246e5b5,1,0,2024-02-28T14:56:07.409Z,french_871.wav,0,pull,2822,31,5,4,English,f,5,0.5,25.78038163,1.48044625
65a97c769f2db2c7f246e5b5,1,0,2024-02-28T14:56:07.409Z,french_871.wav,0,pull,2822,31,5,4,English,f,6,0.6,-32.08428471,1.83651266
65a97c769f2db2c7f246e5b5,1,0,2024-02-28T14:56:07.409Z,french_871.wav,0,pull,2822,31,5,4,English,f,7,0.7,-14.27500372,1.53561215
65a97c769f2db2c7f246e5b5,1,0,2024-02-28T14:56:07.409Z,french_871.wav,0,pull,2822,31,5,4,English,f,8,0.8,34.81288679,0.30121489
65a97c769f2db2c7f246e5b5,1,0,2024-02-28T14:56:07.409Z,french_871.wav,0,pull,2822,31,5,4,English,f,9,0.9,-35.6564535,0.27947142
65a97c769f2db2c7f246e5b5,1,0,2024-02-28T14:56:07.409Z,french_871.wav,0,pull,2822,31,5,4,English,f,10,1.0,-22.32235069,1.45080304
65a97c769f2db2c7f246e5b5,1,0,2024-02-28T14:56:07.409Z,french_871.wav,0,pull,2822,31,5,4,English,f,11,1.1,65.75387004,0.99601767
65a97c769f2db2c7f246e5b5,1,0,2024-02-28T14:56:07.409Z,french_871.wav,0,pull,2822,31,5,4,English,f,12,1.14141667,-54.68805411,0.62533647
65a97c769f2db2c7f246e5b5,2,0,2024-02-28T14:56:07.409Z,french_910.wav,0,pull,633,31,5,4,English,f,0,0.0,48.88340935,1.81109224
65a97c769f2db2c7f246e5b5,2,0,2024-02-28T14:56:07.409Z,french_910.wav,0,pull,633,31,5,4,English,f,1,0.1,-0.9314083,0.91261377
65a97c769f2db2c7f246e5b5,2,0,2024-02-28T14:56:07.409Z,french_910.wav,0,pull,633,31,5,4,English,f,2,0.2,10.65492222,0.6391442
65a97c769f2db2c7f246e5b5,2,0,2024-02-28T14:56:07.409Z,french_910.wav,0,pull,633,31,5,4,English,f,3,0.3,53.80361557,1.7256034
65a97c769f2db2c7f246e5b5,2,0,2024-02-28T14:56:07.409Z,french_910.wav,0,pull,633,31,5,4,English,f,4,0.4,-55.5093235,1.10196828
65a97c769f2db2c7f246e5b5,2,0,2024-02-28T14:56:07.409Z,french_910.wav,0,pull,633,31,5,4,English,f,5,0.5,25.35597856,1.92121955
65a97c769f2db2c7f246e5b5,2,0,2024-02-28T14:56:07.409Z,french_910.wav,0,pull,633,31,5,4,English,f,6,0.6,30.25602932,1.45045528
65a97c769f2db2c7f246e5b5,2,0,2024-02-28T14:56:07.409Z,french_910.wav,0,pull,633,31,5,4,English,f,7,0.7,-14.25396351,1.70872625
65a97c769f2db2c7f246e5b5,2,0,2024-02-28T14:56:07.409Z,french_910.wav,0,pull,633,31,5,4,English,f,8,0.8,-99.95037684,0.23726838
65a97c769f2db2c7f246e5b5,2,0,2024-02-28T14:56:07.409Z,french_910.wav,0,pull,633,31,5,4,English,f,9,0.9,-31.56392694,0.64113417
65a97c769f2db2c7f246e5b5,2,0,2024-02-28T14:56:07.409Z,french_910.wav,0,pull,633,31,5,4,English,f,10,1.0,4.49716215,1.46769435
65a97c769f2db2c7f246e5b5,2,0,2024-02-28T14:56:07.409Z,french_910.wav,0,pull,633,31,5,4,English,f,11,1.1,30.67655198,0.95921
65a97c769f2db2c7f246e5b5,2,0,2024-02-28T14:56:07.409Z,french_910.wav,0,pull,633,31,5,4,English,f,12,1.14141667,-27.21370615,0.8849765
65a97c769f2db2c7f246e5b5,3,0,2024-02-28T14:56:07.409Z,french_305.wav,0,pull,460,31,5,4,English,f,0,0.0,-77.20906853,1.73587013
65a97c769f2db2c7f246e5b5,3,0,2024-02-28T14:56:07.409Z,french_305.wav,0,pull,460,31,5,4,English,f,1,0.1,64.89199308,0.77294131
65a97c769f2db2c7f246e5b5,3,0,2024-02-28T14:56:07.409Z,french_305.wav,0,pull,460,31,5,4,English,f,2,0.2,7.69054885,0.32837419
65a97c769f2db2c7f246e5b5,3,0,2024-02-28T14:56:07.409Z,french_305.wav,0,pull,460,31,5,4,English,f,3,0.3,-47.6141874,1.19216591
65a97c769f2db2c7f246e5b5,3,0,2024-02-28T14:56:07.409Z,french_305.wav,0,pull,460,31,5,4,English,f,4,0.4,24.82339494,0.80149681
65a97c769f2db2c7f246e5b5,3,0,2024-02-28T14:56:07.409Z,french_305.wav,0,pull,460,31,5,4,English,f,5,0.5,20.18926417,0.39729394
65a97c769f2db2c7f246e5b5,3,0,2024-02-28T14:56:07.409Z,french_305.wav,0,pull,460,31,5,4,English,f,6,0.6,-54.4743451,0.54085328
65a97c769f2db2c7f246e5b5,3,0,2024-02-28T14:56:07.409Z,french_305.wav,0,pull,460,31,5,4,English,f,7,0.7,41.07397409,0.8068405
65a97c769f2db2c7f246e5b5,3,0,2024-02-28T14:56:07.409Z,french_305.wav,0,pull,460,31,5,4,English,f,8,0.8,-19.05084731,1.23639766
65a97c769f2db2c7f246e5b5,3,0,2024-02-28T14:56:07.409Z,french_305.wav,0,pull,460,31,5,4,English,f,9,0.9,-20.13915126,0.28852647
65a97c769f2db2c7f246e5b5,3,0,2024-02-28T14:56:07.409Z,french_305.wav,0,pull,460,31,5,4,English,f,10,1.0,-3.97340908,1.66872212
65a97c769f2db2c7f246e5b5,3,0,2024-02-28T14:56:07.409Z,french_305.wav,0,pull,460,31,5,4,English,f,11,1.1,88.43102232,1.65649633
65a97c769f2db2c7f246e5b5,3,0,2024-02-28T14:56:07.409Z,french_305.wav,0,pull,460,31,5,4,English,f,12,1.14141667,5.13824531,1.61177863
65a97c769f2db2c7f246e5b5,4,0,2024-02-28T14:56:07.409Z,french_918.wav,0,poule,107,31,5,4,English,f,0,0.0,-2.67893581,1.74350248
65a97c769f2db2c7f246e5b5,4,0,2024-02-28T14:56:07.409Z,french_918.wav,0,poule,107,31,5,4,English,f,1,0.1,-86.66912791,1.24019067
65a97c769f2db2c7f246e5b5,4,0,2024-02-28T14:56:07.409Z,french_918.wav,0,poule,107,31,5,4,English,f,2,0.2,13.19664365,1.00107396
65a97c769f2db2c7f246e5b5,4,0,2024-02-28T14:56:07.409Z,french_918.wav,0,poule,107,31,5,4,English,f,3,0.3,21.91008155,1.28680607
65a97c769f2db2c7f246e5b5,4,0,2024-02-28T14:56:07.409Z,french_918.wav,0,poule,107,31,5,4,English,f,4,0.4,45.19898324,0.62507084
65a97c769f2db2c7f246e5b5,4,0,2024-02-28T14:56:07.409Z,french_918.wav,0,poule,107,31,5,4,English,f,5,0.5,-61.98176128,0.85364819
65a97c769f2db2c7f246e5b5,4,0,2024-02-28T14:56:07.409Z,french_918.wav,0,poule,107,31,5,4,English,f,6,0.6,-32.0210955,0.7136194
65a97c769f2db2c7f246e5b5,4,0,2024-02-28T14:56:07.409Z,french_918.wav,0,poule,107,31,5,4,English,f,7,0.7,-56.67296374,0.47996765
65a97c769f2db2c7f246e5b5,4,0,2024-02-28T14:56:07.409Z,french_918.wav,0,poule,107,31,5,4,English,f,8,0.8,-69.82955016,1.02040943
65a97c769f2db2c7f246e5b5,4,0,2024-02-28T14:56:07.409Z,french_918.wav,0,poule,107,31,5,4,English,f,9,0.9,71.11041844,1.48734385
65a97c769f2db2c7f246e5b5,4,0,2024-02-28T14:56:07.409Z,french_918.wav,0,poule,107,31,5,4,English,f,10,1.0,-91.16742521,1.67065693
65a97c769f2db2c7f246e5b5,4,0,2024-02-28T14:56:07.409Z,french_918.wav,0,poule,107,31,5,4,English,f,11,1.1,-50.98363321,0.14001191
65a97c769f2db2c7f246e5b5,4,0,2024-02-28T14:56:07.409Z,french_918.wav,0,poule,107,31,5,4,English,f,12,1.14141667,10.7461397,0.38979864
65a97c769f2db2c7f246e5b5,5,0,2024-02-28T14:56:07.409Z,french_196.wav,0,pull,443,31,5,4,English,f,0,0.0,19.92156454,1.45115921
65a97c769f2db2c7f246e5b5,5,0,2024-02-28T14:56:07.409Z,french_196.wav,0,pull,443,31,5,4,English,f,1,0.1,50.3730524,1.233132
65a97c769f2db2c7f246e5b5,5,0,2024-02-28T14:56:07.409Z,french_196.wav,0,pull,443,31,5,4,English,f,2,0.2,-54.66048992,0.22337845
65a97c769f2db2c7f246e5b5,5,0,2024-02-28T14:56:07.409Z,french_196.wav,0,pull,443,31,5,4,English,f,3,0.3,-16.36439953,1.17450645
65a97c769f2db2c7f246e5b5,5,0,2024-02-28T14:56:07.409Z,french_196.wav,0,pull,443,31,5,4,English,f,4,0.4,-49.37215717,0.22096997
65a97c769f2db2c7f246e5b5,5,0,2024-02-28T14:56:07.409Z,french_196.wav,0,pull,443,31,5,4,English,f,5,0.5,73.44732269,0.81463121
65a97c769f2db2c7f246e5b5,5,0,2024-02-28T14:56:07.409Z,french_196.wav,0,pull,443,31,5,4,English,f,6,0.6,-10.57047355,0.94935983
65a97c769f2db2c7f246e5b5,5,0,2024-02-28T14:56:07.409Z,french_196.wav,0,pull,443,31,5,4,English,f,7,0.7,-59.11422478,0.41223091
65a97c769f2db2c7f246e5b5,5,0,2024-02-28T14:56:07.409Z,french_196.wav,0,pull,443,31,5,4,English,f,8,0.8,-87.00574954,0.73586656
65a97c769f2db2c7f246e5b5,5,0,2024-02-28T14:56:07.409Z,french_196.wav,0,pull,443,31,5,4,English,f,9,0.9,-41.42714545,0.4661352
65a97c769f2db2c7f246e5b5,5,0,2024-02-28T14:56:07.409Z,french_196.wav,0,pull,443,31,5,4,English,f,10,1.0,-3.65633153,0.31390173
65a97c769f2db2c7f246e5b5,5,0,2024-02-28T14:56:07.409Z,french_196.wav,0,pull,443,31,5,4,English,f,11,1.1,-26.0043808,1.50812992
65a97c769f2db2c7f246e5b5,5,0,2024-02-28T14:56:07.409Z,french_196.wav,0,pull,443,31,5,4,English,f,12,1.14141667,10.36886233,1.08431252
65a97c769f2db2c7f246e5b5,6,0,2024-02-28T14:56:07.409Z,french_796.wav,0,poule,288,31,5,4,English,f,0,0.0,-21.64188846,1.54395317
65a97c769f2db2c7f246e5b5,6,0,2024-02-28T14:56:07.409Z,french_796.wav,0,poule,288,31,5,4,English,f,1,0.1,-7.10945612,0.2941661
65a97c769f2db2c7f246e5b5,6,0,2024-02-28T14:56:07.409Z,french_796.wav,0,poule,288,31,5,4,English,f,2,0.2,-74.39719325,0.97343698
65a97c769f2db2c7f246e5b5,6,0,2024-02-28T14:56:07.409Z,french_796.wav,0,poule,288,31,5,4,English,f,3,0.3,-54.61530314,0.96871079
65a97c769f2db2c7f246e5b5,6,0,2024-02-28T14:56:07.409Z,french_796.wav,0,poule,288,31,5,4,English,f,4,0.4,-80.73225718,1.80485159
65a97c769f2db2c7f246e5b5,6,0,2024-02-28T14:56:07.409Z,french_796.wav,0,poule,288,31,5,4,English,f,5,0.5,9.91679823,0.56868061
65a97c769f2db2c7f246e5b5,6,0,2024-02-28T14:56:07.409Z,french_796.wav,0,poule,288,31,5,4,English,f,6,0.6,-97.91364168,1.75772708
65a97c769f2db2c7f246e5b5,6,0,2024-02-28T14:56:07.409Z,french_796.wav,0,poule,288,31,5,4,English,f,7,0.7,49.57079751,1.73544483
65a97c769f2db2c7f246e5b5,6,0,2024-02-28T14:56:07.409Z,french_796.wav,0,poule,288,31,5,4,English,f,8,0.8,70.95125658,0.94432617
65a97c769f2db2c7f246e5b5,6,0,2024-02-28T14:56:07.409Z,french_796.wav,0,poule,288,31,5,4,English,f,9,0.9,31.08280056,1.12597758
65a97c769f2db2c7f246e5b5,6,0,2024-02-28T14:56:07.409Z,french_796.wav,0,poule,288,31,5,4,English,f,10,1.0,-13.33346658,0.53392858
65a97c769f2db2c7f246e5b5,6,0,2024-02-28T14:56:07.409Z,french_796.wav,0,poule,288,31,5,4,English,f,11,1.1,3.95596596,0.6803009
65a97c769f2db2c7f246e5b5,6,0,2024-02-28T14:56:07.409Z,french_796.wav,0,poule,288,31,5,4,English,f,12,1.14141667,-13.99518271,1.42581525
65a97c769f2db2c7f246e5b5,7,0,2024-02-28T14:56:07.409Z,french_247.wav,0,poule,251,31,5,4,English,f,0,0.0,87.28160699,1.75163706
65a97c769f2db2c7f246e5b5,7,0,2024-02-28T14:56:07.409Z,french_247.wav,0,poule,251,31,5,4,English,f,1,0.1,54.41631338,0.7463051
65a97c769f2db2c7f246e5b5,7,0,2024-02-28T14:56:07.409Z,french_247.wav,0,poule,251,31,5,4,English,f,2,0.2,37.94276377,0.54290341
65a97c769f2db2c7f246e5b5,7,0,2024-02-28T14:56:07.409Z,french_247.wav,0,poule,251,31,5,4,English,f,3,0.3,-67.22196437,0.62982968
65a97c769f2db2c7f246e5b5,7,0,2024-02-28T14:56:07.409Z,french_247.wav,0,poule,251,31,5,4,English,f,4,0.4,-92.34211051,1.66450544
65a97c769f2db2c7f246e5b5,7,0,2024-02-28T14:56:07.409Z,french_247.wav,0,poule,251,31,5,4,English,f,5,0.5,78.48957529,0.11949556
65a97c769f2db2c7f246e5b5,7,0,2024-02-28T14:56:07.409Z,french_247.wav,0,poule,251,31,5,4,English,f,6,0.6,-77.60666308,0.59857061
65a97c769f2db2c7f246e5b5,7,0,2024-02-28T14:56:07.409Z,french_247.wav,0,poule,251,31,5,4,English,f,7,0.7,89.04290108,1.16504801
65a97c769f2db2c7f246e5b5,7,0,2024-02-28T14:56:07.409Z,french_247.wav,0,poule,251,31,5,4,English,f,8,0.8,95.38463118,1.98824202
65a97c769f2db2c7f246e5b5,7,0,2024-02-28T14:56:07.409Z,french_247.wav,0,poule,251,31,5,4,English,f,9,0.9,-13.6171851,1.58326229
65a97c769f2db2c7f246e5b5,7,0,2024-02-28T14:56:07.409Z,french_247.wav,0,poule,251,31,5,4,English,f,10,1.0,-62.96426983,1.7730941
65a97c769f2db2c7f246e5b5,7,0,2024-02-28T14:56:07.409Z,french_247.wav,0,poule,251,31,5,4,English,f,11,1.1,10.74028895,1.01142382
65a97c769f2db2c7f246e5b5,7,0,2024-02-28T14:56:07.409Z,french_247.wav,0,poule,251,31,5,4,English,f,12,1.14141667,30.61570069,1.22213948
65a97c769f2db2c7f246e5b5,8,0,2024-02-28T14:56:07.409Z,french_592.wav,0,poule,721,31,5,4,English,f,0,0.0,70.81103316,0.54665666
65a97c769f2db2c7f246e5b5,8,0,2024-02-28T14:56:07.409Z,french_592.wav,0,poule,721,31,5,4,English,f,1,0.1,-26.4080383,0.88508354
65a97c769f2db2c7f246e5b5,8,0,2024-02-28T14:56:07.409Z,french_592.wav,0,poule,721,31,5,4,English,f,2,0.2,-0.21646814,1.19588417
65a97c769f2db2c7f246e5b5,8,0,2024-02-28T14:56:07.409Z,french_592.wav,0,poule,721,31,5,4,English,f,3,0.3,5.07209888,0.17214274
65a97c769f2db2c7f246e5b5,8,0,2024-02-28T14:56:07.409Z,french_592.wav,0,poule,721,31,5,4,English,f,4,0.4,0.60727661,0.84375355
65a97c769f2db2c7f246e5b5,8,0,2024-02-28T14:56:07.409Z,french_592.wav,0,poule,721,31,5,4,English,f,5,0.5,-4.25807997,1.80777341
65a97c769f2db2c7f246e5b5,8,0,2024-02-28T14:56:07.409Z,french_592.wav,0,poule,721,31,5,4,English,f,6,0.6,-57.11909805,0.71388549
65a97c769f2db2c7f246e5b5,8,0,2024-02-28T14:56:07.409Z,french_592.wav,0,poule,721,31,5,4,English,f,7,0.7,-40.92130442,1.31000832
65a97c769f2db2c7f246e5b5,8,0,2024-02-28T14:56:07.409Z,french_592.wav,0,poule,721,31,5,4,English,f,8,0.8,57.21863493,0.43276947
65a97c769f2db2c7f246e5b5,8,0,2024-02-28T14:56:07.409Z,french_592.wav,0,poule,721,31,5,4,English,f,9,0.9,70.04761432,1.73827866
65a97c769f2db2c7f246e5b5,8,0,2024-02-28T14:56:07.409Z,french_592.wav,0,poule,721,31,5,4,English,f,10,1.0,-50.9301359,0.70932726
65a97c769f2db2c7f246e5b5,8,0,2024-02-28T14:56:07.409Z,french_592.wav,0,poule,721,31,5,4,English,f,11,1.1,-84.24132436,0.23430707
65a97c769f2db2c7f246e5b5,8,0,2024-02-28T14:56:07.409Z,french_592.wav,0,poule,721,31,5,4,English,f,12,1.14141667,-46.29341041,1.11453021
65a97c769f2db2c7f246e5b5,9,0,2024-02-28T14:56:07.409Z,french_715.wav,0,poule,395,31,5,4,English,f,0,0.0,29.09235338,0.68387868
65a97c769f2db2c7f246e5b5,9,0,2024-02-28T14:56:07.409Z,french_715.wav,0,poule,395,31,5,4,English,f,1,0.1,61.36228021,0.41187782
65a97c769f2db2c7f246e5b5,9,0,2024-02-28T14:56:07.409Z,french_715.wav,0,poule,395,31,5,4,English,f,2,0.2,10.6031568,0.00341507
65a97c769f2db2c7f246e5b5,9,0,2024-02-28T14:56:07.409Z,french_715.wav,0,poule,395,31,5,4,English,f,3,0.3,56.69704228,1.41549819
65a97c769f2db2c7f246e5b5,9,0,2024-02-28T14:56:07.409Z,french_715.wav,0,poule,395,31,5,4,English,f,4,0.4,27.32467936,1.88841919
65a97c769f2db2c7f246e5b5,9,0,2024-02-28T14:56:07.409Z,french_715.wav,0,poule,395,31,5,4,English,f,5,0.5,-48.62858271,0.8974375
65a97c769f2db2c7f246e5b5,9,0,2024-02-28T14:56:07.409Z,french_715.wav,0,poule,395,31,5,4,English,f,6,0.6,-3.68134428,1.39682713
65a97c769f2db2c7f246e5b5,9,0,2024-02-28T14:56:07.409Z,french_715.wav,0,poule,395,31,5,4,English,f,7,0.7,-64.08054683,1.82228558
65a97c769f2db2c7f246e5b5,9,0,2024-02-28T14:56:07.409Z,french_715.wav,0,poule,395,31,5,4,English,f,8,0.8,-70.8412554,1.0908324
65a97c769f2db2c7f246e5b5,9,0,2024-02-28T14:56:07.409Z,french_715.wav,0,poule,395,31,5,4,English,f,9,0.9,62.36119478,1.21742769
65a97c769f2db2c7f246e5b5,9,0,2024-02-28T14:56:07.409Z,french_715.wav,0,poule,395,31,5,4,English,f,10,1.0,-44.29367688,1.23238319
65a97c769f2db2c7f246e5b5,9,0,2024-02-28T14:56:07.409Z,french_715.wav,0,poule,395,31,5,4,English,f,11,1.1,-5.43460081,0.68481682
65a97c769f2db2c7f246e5b5,9,0,2024-02-28T14:56:07.409Z,french_715.wav,0,poule,395,31,5,4,English,f,12,1.14141667,43.03867708,1.9656601
65a97c769f2db2c7f246e5b5,10,0,2024-02-28T14:56:07.409Z,french_174.wav,0,poule,389,31,5,4,English,f,0,0.0,-30.56433127,1.42567185
65a97c769f2db2c7f246e5b5,10,0,2024-02-28T14:56:07.409Z,french_174.wav,0,poule,389,31,5,4,English,f,1,0.1,-47.55811777,0.62143253
65a97c769f2db2c7f246e5b5,10,0,2024-02-28T14:56:07.409Z,french_174.wav,0,poule,389,31,5,4,English,f,2,0.2,28.56583207,1.30085658
65a97c769f2db2c7f246e5b5,10,0,2024-02-28T14:56:07.409Z,french_174.wav,0,poule,389,31,5,4,English,f,3,0.3,40.04396067,0.91650531
65a97c769f2db2c7f246e5b5,10,0,2024-02-28T14:56:07.409Z,french_174.wav,0,poule,389,31,5,4,English,f,4,0.4,-28.77006627,0.25461144
65a97c769f2db2c7f246e5b5,10,0,2024-02-28T14:56:07.409Z,french_174.wav,0,poule,389,31,5,4,English,f,5,0.5,10.60896248,1.7210299
65a97c769f2db2c7f246e5b5,10,0,2024-02-28T14:56:07.409Z,french_174.wav,0,poule,389,31,5,4,English,f,6,0.6,-60.55483946,0.59527891
65a97c769f2db2c7f246e5b5,10,0,2024-02-28T14:56:07.409Z,french_174.wav,0,poule,389,31,5,4,English,f,7,0.7,31.94190245,1.66278508
65a97c769f2db2c7f246e5b5,10,0,2024-02-28T14:56:07.409Z,french_174.wav,0,poule,389,31,5,4,English,f,8,0.8,95.12679038,0.30000032
65a97c769f2db2c7f246e5b5,10,0,2024-02-28T14:56:07.409Z,french_174.wav,0,poule,389,31,5,4,English,f,9,0.9,-16.07040974,1.57018269
65a97c769f2db2c7f246e5b5,10,0,2024-02-28T14:56:07.409Z,french_174.wav,0,poule,389,31,5,4,English,f,10,1.0,-80.44609319,1.40831219
65a97c769f2db2c7f246e5b5,10,0,2024-02-28T14:56:07.409Z,french_174.wav,0,poule,389,31,5,4,English,f,11,1.1,-56.80142673,0.60735431
65a97c769f2db2c7f246e5b5,10,0,2024-02-28T14:56:07.409Z,french_174.wav,0,poule,389,31,5,4,English,f,12,1.14141667,-57.21574415,0.91560648
65a97c769f2db2c7f246e5b5,11,0,2024-02-28T14:56:07.409Z,french_420.wav,0,poule,243,31,5,4,English,f,0,0.0,-18.88007076,0.77898817
65a97c769f2db2c7f246e5b5,11,0,2024-02-28T14:56:07.409Z,french_420.wav,0,poule,243,31,5,4,English,f,1,0.1,85.38106336,0.94651873
65a97c769f2db2c7f246e5b5,11,0,2024-02-28T14:56:07.409Z,french_420.wav,0,poule,243,31,5,4,English,f,2,0.2,93.67996173,0.16609342
65a97c769f2db2c7f246e5b5,11,0,2024-02-28T14:56:07.409Z,french_420.wav,0,poule,243,31,5,4,English,f,3,0.3,-59.60168974,1.88772727
65a97c769f2db2c7f246e5b5,11,0,2024-02-28T14:56:07.409Z,french_420.wav,0,poule,243,31,5,4,English,f,4,0.4,-63.09071902,0.52202044
65a97c769f2db2c7f246e5b5,11,0,2024-02-28T14:56:07.409Z,french_420.wav,0,poule,243,31,5,4,English,f,5,0.5,-3.42049192,0.19259521
65a97c769f2db2c7f246e5b5,11,0,2024-02-28T14:56:07.409Z,french_420.wav,0,poule,243,31,5,4,English,f,6,0.6,3.82145816,0.85413524
65a97c769f2db2c7f246e5b5,11,0,2024-02-28T14:56:07.409Z,french_420.wav,0,poule,243,31,5,4,English,f,7,0.7,-46.57323204,0.3417564
65a97c769f2db2c7f246e5b5,11,0,2024-02-28T14:56:07.409Z,french_420.wav,0,poule,243,31,5,4,English,f,8,0.8,43.35773063,1.89293485
65a97c769f2db2c7f246e5b5,11,0,2024-02-28T14:56:07.409Z,french_420.wav,0,poule,243,31,5,4,English,f,9,0.9,-41.3853357,1.49847299
65a97c769f2db2c7f246e5b5,11,0,2024-02-28T14:56:07.409Z,french_420.wav,0,poule,243,31,5,4,English,f,10,1.0,-80.49552294,1.43768421
65a97c769f2db2c7f246e5b5,11,0,2024-02-28T14:56:07.409Z,french_420.wav,0,poule,243,31,5,4,English,f,11,1.1,11.88219307,1.60937112
65a97c769f2db2c7f246e5b5,11,0,2024-02-28T14:56:07.409Z,french_420.wav,0,poule,243,31,5,4,English,f,12,1.14141667,-51.63626854,1.40472667
65a97c769f2db2c7f246e5b5,12,0,2024-02-28T14:56:07.409Z,french_554.wav,0,poule,321,31,5,4,English,f,0,0.0,-63.33551975,1.80292439
65a97c769f2db2c7f246e5b5,12,0,2024-02-28T14:56:07.409Z,french_554.wav,0,poule,321,31,5,4,English,f,1,0.1,-76.57986439,1.19257657
65a97c769f2db2c7f246e5b5,12,0,2024-02-28T14:56:07.409Z,french_554.wav,0,poule,321,31,5,4,English,f,2,0.2,-22.17813556,1.70801265
65a97c769f2db2c7f246e5b5,12,0,2024-02-28T14:56:07.409Z,french_554.wav,0,poule,321,31,5,4,English,f,3,0.3,-68.90025731,0.22316488
65a97c769f2db2c7f246e5b5,12,0,2024-02-28T14:56:07.409Z,french_554.wav,0,poule,321,31,5,4,English,f,4,0.4,-20.79960873,1.5813195
65a97c769f2db2c7f246e5b5,12,0,2024-02-28T14:56:07.409Z,french_554.wav,0,poule,321,31,5,4,English,f,5,0.5,79.3432264,0.09042066
65a97c769f2db2c7f246e5b5,12,0,2024-02-28T14:56:07.409Z,french_554.wav,0,poule,321,31,5,4,English,f,6,0.6,28.49124228,1.08370357
65a97c769f2db2c7f246e5b5,12,0,2024-02-28T14:56:07.409Z,french_554.wav,0,poule,321,31,5,4,English,f,7,0.7,-51.7988221,1.08104
65a97c769f2db2c7f246e5b5,12,0,2024-02-28T14:56:07.409Z,french_554.wav,0,poule,321,31,5,4,English,f,8,0.8,14.88226082,0.69564773
65a97c769f2db2c7f246e5b5,12,0,2024-02-28T14:56:07.409Z,french_554.wav,0,poule,321,31,5,4,English,f,9,0.9,47.41470029,1.14902191
65a97c769f2db2c7f246e5b5,12,0,2024-02-28T14:56:07.409Z,french_554.wav,0,poule,321,31,5,4,English,f,10,1.0,-31.15234452,1.78078558
65a97c769f2db2c7f246e5b5,12,0,2024-02-28T14:56:07.409Z,french_554.wav,0,poule,321,31,5,4,English,f,11,1.1,50.45092822,0.72980641
65a97c769f2db2c7f246e5b5,12,0,2024-02-28T14:56:07.409Z,french_554.wav,0,poule,321,31,5,4,English,f,12,1.14141667,-4.11874255,0.82846414
65a97c769f2db2c7f246e5b5,13,0,2024-02-28T14:56:07.409Z,french_662.wav,0,poule,1620,31,5,4,English,f,0,0.0,-58.41769523,0.17249004
65a97c769f2db2c7f246e5b5,13,0,2024-02-28T14:56:07.409Z,french_662.wav,0,poule,1620,31,5,4,English,f,1,0.1,9.57990173,0.24251521
65a97c769f2db2c7f246e5b5,13,0,2024-02-28T14:56:07.409Z,french_662.wav,0,poule,1620,31,5,4,English,f,2,0.2,-12.85613497,0.0442616
65a97c769f2db2c7f246e5b5,13,0,2024-02-28T14:56:07.409Z,french_662.wav,0,poule,1620,31,5,4,English,f,3,0.3,-2.492249,0.45328164
65a97c769f2db2c7f246e5b5,13,0,2024-02-28T14:56:07.409Z,french_662.wav,0,poule,1620,31,5,4,English,f,4,0.4,81.85022743,0.52406405
65a97c769f2db2c7f246e5b5,13,0,2024-02-28T14:56:07.409Z,french_662.wav,0,poule,1620,31,5,4,English,f,5,0.5,-44.9453707,0.36675154
65a97c769f2db2c7f246e5b5,13,0,2024-02-28T14:56:07.409Z,french_662.wav,0,poule,1620,31,5,4,English,f,6,0.6,-31.2400428,0.00343123
65a97c769f2db2c7f246e5b5,13,0,2024-02-28T14:56:07.409Z,french_662.wav,0,poule,1620,31,5,4,English,f,7,0.7,-0.32495302,0.95062338
65a97c769f2db2c7f246e5b5,13,0,2024-02-28T14:56:07.409Z,french_662.wav,0,poule,1620,31,5,4,English,f,8,0.8,83.47890741,1.83377113
65a97c769f2db2c7f246e5b5,13,0,2024-02-28T14:56:07.409Z,french_662.wav,0,poule,1620,31,5,4,English,f,9,0.9,-3.56204298,0.58479333
65a97c769f2db2c7f246e5b5,13,0,2024-02-28T14:56:07.409Z,french_662.wav,0,poule,1620,31,5,4,English,f,10,1.0,-31.28236846,0.06647959
65a97c769f2db2c7f246e5b5,13,0,2024-02-28T14:56:07.409Z,french_662.wav,0,poule,1620,31,5,4,English,f,11,1.1,29.38972981,0.47496869
65a97c769f2db2c7f246e5b5,13,0,2024-02-28T14:56:07.409Z,french_662.wav,0,poule,1620,31,5,4,English,f,12,1.14141667,56.83170874,1.46968119
65a97c769f2db2c7f246e5b5,14,0,2024-02-28T14:56:07.409Z,french_169.wav,0,poule,353,31,5,4,English,f,0,0.0,59.42185537,0.83159375
65a97c769f2db2c7f246e5b5,14,0,2024-02-28T14:56:07.409Z,french_169.wav,0,poule,353,31,5,4,English,f,1,0.1,88.63481017,1.38556946
65a97c769f2db2c7f246e5b5,14,0,2024-02-28T14:56:07.409Z,french_169.wav,0,poule,353,31,5,4,English,f,2,0.2,-30.81317289,0.96575103
65a97c769f2db2c7f246e5b5,14,0,2024-02-28T14:56:07.409Z,french_169.wav,0,poule,353,31,5,4,English,f,3,0.3,8.8361544,1.88843059
65a97c769f2db2c7f246e5b5,14,0,2024-02-28T14:56:07.409Z,french_169.wav,0,poule,353,31,5,4,English,f,4,0.4,33.34891954,1.15602215
65a97c769f2db2c7f246e5b5,14,0,2024-02-28T14:56:07.409Z,french_169.wav,0,poule,353,31,5,4,English,f,5,0.5,19.12772392,1.03022827
65a97c769f2db2c7f246e5b5,14,0,2024-02-28T14:56:07.409Z,french_169.wav,0,poule,353,31,5,4,English,f,6,0.6,-29.4196349,1.76601862
65a97c769f2db2c7f246e5b5,14,0,2024-02-28T14:56:07.409Z,french_169.wav,0,poule,353,31,5,4,English,f,7,0.7,-66.8991604,0.44859055
65a97c769f2db2c7f246e5b5,14,0,2024-02-28T14:56:07.409Z,french_169.wav,0,poule,353,31,5,4,English,f,8,0.8,-49.84424897,0.70503729
65a97c769f2db2c7f246e5b5,14,0,2024-02-28T14:56:07.409Z,french_169.wav,0,poule,353,31,5,4,English,f,9,0.9,55.00508098,1.09617092
65a97c769f2db2c7f246e5b5,14,0,2024-02-28T14:56:07.409Z,french_169.wav,0,poule,353,31,5,4,English,f,10,1.0,-98.33346696,1.2567147
65a97c769f2db2c7f246e5b5,14,0,2024-02-28T14:56:07.409Z,french_169.wav,0,poule,353,31,5,4,English,f,11,1.1,3.91350931,1.30128277
65a97c769f2db2c7f246e5b5,14,0,2024-02-28T14:56:07.409Z,french_169.wav,0,poule,353,31,5,4,English,f,12,1.14141667,24.90935392,0.9045641
65a97c769f2db2c7f246e5b5,15,0,2024-02-28T14:56:07.409Z,french_441.wav,0,poule,436,31,5,4,English,f,0,0.0,-24.8078558,0.61702354
65a97c769f2db2c7f246e5b5,15,0,2024-02-28T14:56:07.409Z,french_441.wav,0,poule,436,31,5,4,English,f,1,0.1,-84.7413396,1.04353074
65a97c769f2db2c7f246e5b5,15,0,2024-02-28T14:56:07.409Z,french_441.wav,0,poule,436,31,5,4,English,f,2,0.2,-54.57948598,0.65654414
65a97c769f2db2c7f246e5b5,15,0,2024-02-28T14:56:07.409Z,french_441.wav,0,poule,436,31,5,4,English,f,3,0.3,-24.55513399,0.56139446
65a97c769f2db2c7f246e5b5,15,0,2024-02-28T14:56:07.409Z,french_441.wav,0,poule,436,31,5,4,English,f,4,0.4,-45.63119702,1.49104282
65a97c769f2db2c7f246e5b5,15,0,2024-02-28T14:56:07.409Z,french_441.wav,0,poule,436,31,5,4,English,f,5,0.5,65.30634786,1.66162479
65a97c769f2db2c7f246e5b5,15,0,2024-02-28T14:56:07.409Z,french_441.wav,0,poule,436,31,5,4,English,f,6,0.6,-35.529757,0.86040524
65a97c769f2db2c7f246e5b5,15,0,2024-02-28T14:56:07.409Z,french_441.wav,0,poule,436,31,5,4,English,f,7,0.7,-63.71516085,0.85625142
65a97c769f2db2c7f246e5b5,15,0,2024-02-28T14:56:07.409Z,french_441.wav,0,poule,436,31,5,4,English,f,8,0.8,-48.48185805,1.85480785
65a97c769f2db2c7f246e5b5,15,0,2024-02-28T14:56:07.409Z,french_441.wav,0,poule,436,31,5,4,English,f,9,0.9,67.64663354,1.13901036
65a97c769f2db2c7f246e5b5,15,0,2024-02-28T14:56:07.409Z,french_441.wav,0,poule,436,31,5,4,English,f,10,1.0,-70.86473216,0.82407347
65a97c769f2db2c7f246e5b5,15,0,2024-02-28T14:56:07.409Z,french_441.wav,0,poule,436,31,5,4,English,f,11,1.1,-25.16106758,0.60883166
65a97c769f2db2c7f246e5b5,15,0,2024-02-28T14:56:07.409Z,french_441.wav,0,poule,436,31,5,4,English,f,12,1.14141667,11.27004952,0.41277653
65a97c769f2db2c7f246e5b5,16,0,2024-02-28T14:56:07.409Z,french_225.wav,0,pull,1273,31,5,4,English,f,0,0.0,-40.59384573,0.2419631
65a97c769f2db2c7f246e5b5,16,0,2024-02-28T14:56:07.409Z,french_225.wav,0,pull,1273,31,5,4,English,f,1,0.1,-57.4510111,0.90136728
65a97c769f2db2c7f246e5b5,16,0,2024-02-28T14:56:07.409Z,french_225.wav,0,pull,1273,31,5,4,English,f,2,0.2,-66.79314761,1.20342959
65a97c769f2db2c7f246e5b5,16,0,2024-02-28T14:56:07.409Z,french_225.wav,0,pull,1273,31,5,4,English,f,3,0.3,-75.0154935,0.43006495
65a97c769f2db2c7f246e5b5,16,0,2024-02-28T14:56:07.409Z,french_225.wav,0,pull,1273,31,5,4,English,f,4,0.4,48.3932909,1.37338078
65a97c769f2db2c7f246e5b5,16,0,2024-02-28T14:56:07.409Z,french_225.wav,0,pull,1273,31,5,4,English,f,5,0.5,37.53876615,1.72669278
65a97c769f2db2c7f246e5b5,16,0,2024-02-28T14:56:07.409Z,french_225.wav,0,pull,1273,31,5,4,English,f,6,0.6,-34.2954659,0.43130033
65a97c769f2db2c7f246e5b5,16,0,2024-02-28T14:56:07.409Z,french_225.wav,0,pull,1273,31,5,4,English,f,7,0.7,-22.1616571,1.23547292
65a97c769f2db2c7f246e5b5,16,0,2024-02-28T14:56:07.409Z,french_225.wav,0,pull,1273,31,5,4,English,f,8,0.8,44.36773821,1.20612534
65a97c769f2db2c7f246e5b5,16,0,2024-02-28T14:56:07.409Z,french_225.wav,0,pull,1273,31,5,4,English,f,9,0.9,60.3014637,1.68129448
65a97c769f2db2c7f246e5b5,16,0,2024-02-28T14:56:07.409Z,french_225.wav,0,pull,1273,31,5,4,English,f,10,1.0,57.8691924,0.18054319
65a97c769f2db2c7f246e5b5,16,0,2024-02-28T14:56:07.409Z,french_225.wav,0,pull,1273,31,5,4,English,f,11,1.1,5.56623992,0.07993762
65a97c769f2db2c7f246e5b5,16,0,2024-02-28T14:56:07.409Z,french_225.wav,0,pull,1273,31,5,4,English,f,12,1.14141667,25.60737947,1.21559584
65a97c769f2db2c7f246e5b5,17,0,2024-02-28T14:56:07.409Z,french_307.wav,0,pull,672,31,5,4,English,f,0,0.0,-81.2536919,1.33468173
65a97c769f2db2c7f246e5b5,17,0,2024-02-28T14:56:07.409Z,french_307.wav,0,pull,672,31,5,4,English,f,1,0.1,-5.92199646,1.24052459
65a97c769f2db2c7f246e5b5,17,0,2024-02-28T14:56:07.409Z,french_307.wav,0,pull,672,31,5,4,English,f,2,0.2,-70.8440156,0.05751099
65a97c769f2db2c7f246e5b5,17,0,2024-02-28T14:56:07.409Z,french_307.wav,0,pull,672,31,5,4,English,f,3,0.3,-38.8570398,0.0183033
65a97c769f2db2c7f246e5b5,17,0,2024-02-28T14:56:07.409Z,french_307.wav,0,pull,672,31,5,4,English,f,4,0.4,-74.6373028,1.42823854
65a97c769f2db2c7f246e5b5,17,0,2024-02-28T14:56:07.409Z,french_307.wav,0,pull,672,31,5,4,English,f,5,0.5,37.2357881,1.31262623
65a97c769f2db2c7f246e5b5,17,0,2024-02-28T14:56:07.409Z,french_307.wav,0,pull,672,31,5,4,English,f,6,0.6,-2.6113695,1.64307627
65a97c769f2db2c7f246e5b5,17,0,2024-02-28T14:56:07.409Z,french_307.wav,0,pull,672,31,5,4,English,f,7,0.7,40.6769116,1.23311758
65a97c769f2db2c7f246e5b5,17,0,2024-02-28T14:56:07.409Z,french_307.wav,0,pull,672,31,5,4,English,f,8,0.8,66.8191977,1.11809567
65a97c769f2db2c7f246e5b5,17,0,2024-02-28T14:56:07.409Z,french_307.wav,0,pull,672,31,5,4,English,f,9,0.9,89.4255447,1.10385944
65a97c769f2db2c7f246e5b5,17,0,2024-02-28T14:56:07.409Z,french_307.wav,0,pull,672,31,5,4,English,f,10,1.0,-0.0124290818,1.86476593
65a97c769f2db2c7f246e5b5,17,0,2024-02-28T14:56:07.409Z,french_307.wav,0,pull,672,31,5,4,English,f,11,1.1,-94.7277852,1.90945351
65a97c769f2db2c7f246e5b5,17,0,2024-02-28T14:56:07.409Z,french_307.wav,0,pull,672,31,5,4,English,f,12,1.14141667,5.25537701,1.40561689
65a97c769f2db2c7f246e5b5,18,0,2024-02-28T14:56:07.409Z,french_31.wav,0,poule,407,31,5,4,English,f,0,0.0,62.57492675,0.62563008
65a97c769f2db2c7f246e5b5,18,0,2024-02-28T14:56:07.409Z,french_31.wav,0,poule,407,31,5,4,English,f,1,0.1,-58.08231023,0.03942754
65a97c769f2db2c7f246e5b5,18,0,2024-02-28T14:56:07.409Z,french_31.wav,0,poule,407,31,5,4,English,f,2,0.2,-55.72136937,0.40518479
65a97c769f2db2c7f246e5b5,18,0,2024-02-28T14:56:07.409Z,french_31.wav,0,poule,407,31,5,4,English,f,3,0.3,-71.33473232,0.83625103
65a97c769f2db2c7f246e5b5,18,0,2024-02-28T14:56:07.409Z,french_31.wav,0,poule,407,31,5,4,English,f,4,0.4,-4.71968321,1.04296763
65a97c769f2db2c7f246e5b5,18,0,2024-02-28T14:56:07.409Z,french_31.wav,0,poule,407,31,5,4,English,f,5,0.5,-18.8158031,1.30881089
65a97c769f2db2c7f246e5b5,18,0,2024-02-28T14:56:07.409Z,french_31.wav,0,poule,407,31,5,4,English,f,6,0.6,57.81974569,1.24294484
65a97c769f2db2c7f246e5b5,18,0,2024-02-28T14:56:07.409Z,french_31.wav,0,poule,407,31,5,4,English,f,7,0.7,-62.11860801,1.99884765
65a97c769f2db2c7f246e5b5,18,0,2024-02-28T14:56:07.409Z,french_31.wav,0,poule,407,31,5,4,English,f,8,0.8,-40.60816107,1.24785525
65a97c769f2db2c7f246e5b5,18,0,2024-02-28T14:56:07.409Z,french_31.wav,0,poule,407,31,5,4,English,f,9,0.9,65.87873267,0.7861542
65a97c769f2db2c7f246e5b5,18,0,2024-02-28T14:56:07.409Z,french_31.wav,0,poule,407,31,5,4,English,f,10,1.0,-62.031162,0.46276533
65a97c769f2db2c7f246e5b5,18,0,2024-02-28T14:56:07.409Z,french_31.wav,0,poule,407,31,5,4,English,f,11,1.1,23.18328609,1.73009947
65a97c769f2db2c7f246e5b5,18,0,2024-02-28T14:56:07.409Z,french_31.wav,0,poule,407,31,5,4,English,f,12,1.14141667,-73.14382864,1.02235307
65a97c769f2db2c7f246e5b5,19,0,2024-02-28T14:56:07.409Z,french_721.wav,0,poule,370,31,5,4,English,f,0,0.0,71.4664996,0.49308796
65a97c769f2db2c7f246e5b5,19,0,2024-02-28T14:56:07.409Z,french_721.wav,0,poule,370,31,5,4,English,f,1,0.1,-29.81516222,1.93963897
65a97c769f2db2c7f246e5b5,19,0,2024-02-28T14:56:07.409Z,french_721.wav,0,poule,370,31,5,4,English,f,2,0.2,-91.01314813,0.90556613
65a97c769f2db2c7f246e5b5,19,0,2024-02-28T14:56:07.409Z,french_721.wav,0,poule,370,31,5,4,English,f,3,0.3,-6.30659731,1.77056041
65a97c769f2db2c7f246e5b5,19,0,2024-02-28T14:56:07.409Z,french_721.wav,0,poule,370,31,5,4,English,f,4,0.4,-44.23104163,0.67637582
65a97c769f2db2c7f246e5b5,19,0,2024-02-28T14:56:07.409Z,french_721.wav,0,poule,370,31,5,4,English,f,5,0.5,-43.35271237,1.12060168
65a97c769f2db2c7f246e5b5,19,0,2024-02-28T14:56:07.409Z,french_721.wav,0,poule,370,31,5,4,English,f,6,0.6,-49.65472851,0.71280726
65a97c769f2db2c7f246e5b5,19,0,2024-02-28T14:56:07.409Z,french_721.wav,0,poule,370,31,5,4,English,f,7,0.7,-29.63657547,0.31790622
65a97c769f2db2c7f246e5b5,19,0,2024-02-28T14:56:07.409Z,french_721.wav,0,poule,370,31,5,4,English,f,8,0.8,85.39925536,0.19195943
65a97c769f2db2c7f246e5b5,19,0,2024-02-28T14:56:07.409Z,french_721.wav,0,poule,370,31,5,4,English,f,9,0.9,-83.16878764,1.42167074
65a97c769f2db2c7f246e5b5,19,0,2024-02-28T14:56:07.409Z,french_721.wav,0,poule,370,31,5,4,English,f,10,1.0,-25.08819563,1.95663452
65a97c769f2db2c7f246e5b5,19,0,2024-02-28T14:56:07.409Z,french_721.wav,0,poule,370,31,5,4,English,f,11,1.1,38.2926067,1.90504851
65a97c769f2db2c7f246e5b5,19,0,2024-02-28T14:56:07.409Z,french_721.wav,0,poule,370,31,5,4,English,f,12,1.14141667,77.35172581,0.04583032
65a97c769f2db2c7f246e5b5,20,0,2024-02-28T14:56:07.409Z,french_896.wav,0,poule,617,31,5,4,English,f,0,0.0,11.47422231,0.82823049
65a97c769f2db2c7f246e5b5,20,0,2024-02-28T14:56:07.409Z,french_896.wav,0,poule,617,31,5,4,English,f,1,0.1,46.2400026,0.71952712
65a97c769f2db2c7f246e5b5,20,0,2024-02-28T14:56:07.409Z,french_896.wav,0,poule,617,31,5,4,English,f,2,0.2,-24.32057019,0.05991654
65a97c769f2db2c7f246e5b5,20,0,2024-02-28T14:56:07.409Z,french_896.wav,0,poule,617,31,5,4,English,f,3,0.3,-87.2030855,0.82758531
65a97c769f2db2c7f246e5b5,20,0,2024-02-28T14:56:07.409Z,french_896.wav,0,poule,617,31,5,4,English,f,4,0.4,5.78611761,0.66822368
65a97c769f2db2c7f246e5b5,20,0,2024-02-28T14:56:07.409Z,french_896.wav,0,poule,617,31,5,4,English,f,5,0.5,71.23724358,1.72255849
65a97c769f2db2c7f246e5b5,20,0,2024-02-28T14:56:07.409Z,french_896.wav,0,poule,617,31,5,4,English,f,6,0.6,-12.04646094,0.89622967
65a97c769f2db2c7f246e5b5,20,0,2024-02-28T14:56:07.409Z,french_896.wav,0,poule,617,31,5,4,English,f,7,0.7,65.65969456,1.36132994
65a97c769f2db2c7f246e5b5,20,0,2024-02-28T14:56:07.409Z,french_896.wav,0,poule,617,31,5,4,English,f,8,0.8,-71.55601308,0.74243617
65a97c769f2db2c7f246e5b5,20,0,2024-02-28T14:56:07.409Z,french_896.wav,0,poule,617,31,5,4,English,f,9,0.9,-30.47071095,1.96359611
65a97c769f2db2c7f246e5b5,20,0,2024-02-28T14:56:07.409Z,french_896.wav,0,poule,617,31,5,4,English,f,10,1.0,81.31836813,1.07942153
65a97c769f2db2c7f246e5b5,20,0,2024-02-28T14:56:07.409Z,french_896.wav,0,poule,617,31,5,4,English,f,11,1.1,59.00321501,0.72058173
65a97c769f2db2c7f246e5b5,20,0,2024-02-28T14:56:07.409Z,french_896.wav,0,poule,617,31,5,4,English,f,12,1.14141667,-11.27294507,1.33962568
65a97c769f2db2c7f246e5b5,21,0,2024-02-28T14:56:07.409Z,french_850.wav,0,pull,487,31,5,4,English,f,0,0.0,83.89022354,0.75444994
65a97c769f2db2c7f246e5b5,21,0,2024-02-28T14:56:07.409Z,french_850.wav,0,pull,487,31,5,4,English,f,1,0.1,-91.48292869,0.08414002
65a97c769f2db2c7f246e5b5,21,0,2024-02-28T14:56:07.409Z,french_850.wav,0,pull,487,31,5,4,English,f,2,0.2,-85.43257021,1.98876362
65a97c769f2db2c7f246e5b5,21,0,2024-02-28T14:56:07.409Z,french_850.wav,0,pull,487,31,5,4,English,f,3,0.3,33.3216797,0.53734291
65a97c769f2db2c7f246e5b5,21,0,2024-02-28T14:56:07.409Z,french_850.wav,0,pull,487,31,5,4,English,f,4,0.4,-80.91674155,0.86020053
65a97c769f2db2c7f246e5b5,21,0,2024-02-28T14:56:07.409Z,french_850.wav,0,pull,487,31,5,4,English,f,5,0.5,5.50987792,1.84317431
65a97c769f2db2c7f246e5b5,21,0,2024-02-28T14:56:07.409Z,french_850.wav,0,pull,487,31,5,4,English,f,6,0.6,-68.13891682,0.47710357
65a97c769f2db2c7f246e5b5,21,0,2024-02-28T14:56:07.409Z,french_850.wav,0,pull,487,31,5,4,English,f,7,0.7,-59.47143547,0.67931634
65a97c769f2db2c7f246e5b5,21,0,2024-02-28T14:56:07.409Z,french_850.wav,0,pull,487,31,5,4,English,f,8,0.8,47.36151996,0.65720594
65a97c769f2db2c7f246e5b5,21,0,2024-02-28T14:56:07.409Z,french_850.wav,0,pull,487,31,5,4,English,f,9,0.9,77.95447851,0.45182468
65a97c769f2db2c7f246e5b5,21,0,2024-02-28T14:56:07.409Z,french_850.wav,0,pull,487,31,5,4,English,f,10,1.0,-10.13374149,1.62062477
65a97c769f2db2c7f246e5b5,21,0,2024-02-28T14:56:07.409Z,french_850.wav,0,pull,487,31,5,4,English,f,11,1.1,61.1546657,0.64094519
65a97c769f2db2c7f246e5b5,21,0,2024-02-28T14:56:07.409Z,french_850.wav,0,pull,487,31,5,4,English,f,12,1.14141667,81.37081475,0.74789128
65a97c769f2db2c7f246e5b5,22,0,2024-02-28T14:56:07.409Z,french_87.wav,0,poule,1074,31,5,4,English,f,0,0.0,92.4660963,0.46305834
65a97c769f2db2c7f246e5b5,22,0,2024-02-28T14:56:07.409Z,french_87.wav,0,poule,1074,31,5,4,English,f,1,0.1,15.06427617,1.65512059
65a97c769f2db2c7f246e5b5,22,0,2024-02-28T14:56:07.409Z,french_87.wav,0,poule,1074,31,5,4,English,f,2,0.2,19.88587698,1.47687397
65a97c769f2db2c7f246e5b5,22,0,2024-02-28T14:56:07.409Z,french_87.wav,0,poule,1074,31,5,4,English,f,3,0.3,19.16381268,1.98465726
65a97c769f2db2c7f246e5b5,22,0,2024-02-28T14:56:07.409Z,french_87.wav,0,poule,1074,31,5,4,English,f,4,0.4,-43.83456388,0.88568527
65a97c769f2db2c7f246e5b5,22,0,2024-02-28T14:56:07.409Z,french_87.wav,0,poule,1074,31,5,4,English,f,5,0.5,-75.19485474,0.59200872
65a97c769f2db2c7f246e5b5,22,0,2024-02-28T14:56:07.409Z,french_87.wav,0,poule,1074,31,5,4,English,f,6,0.6,-41.9677828,1.00282805
65a97c769f2db2c7f246e5b5,22,0,2024-02-28T14:56:07.409Z,french_87.wav,0,poule,1074,31,5,4,English,f,7,0.7,48.89631163,0.36234637
65a97c769f2db2c7f246e5b5,22,0,2024-02-28T14:56:07.409Z,french_87.wav,0,poule,1074,31,5,4,English,f,8,0.8,59.57141731,1.86287014
65a97c769f2db2c7f246e5b5,22,0,2024-02-28T14:56:07.409Z,french_87.wav,0,poule,1074,31,5,4,English,f,9,0.9,-7.29688456,0.55653028
65a97c769f2db2c7f246e5b5,22,0,2024-02-28T14:56:07.409Z,french_87.wav,0,poule,1074,31,5,4,English,f,10,1.0,-56.30540489,1.69420603
65a97c769f2db2c7f246e5b5,22,0,2024-02-28T14:56:07.409Z,french_87.wav,0,poule,1074,31,5,4,English,f,11,1.1,-92.5665511,0.74268973
65a97c769f2db2c7f246e5b5,22,0,2024-02-28T14:56:07.409Z,french_87.wav,0,poule,1074,31,5,4,English,f,12,1.14141667,7.04899103,0.9328285
65a97c769f2db2c7f246e5b5,23,0,2024-02-28T14:56:07.409Z,french_517.wav,0,pull,559,31,5,4,English,f,0,0.0,2.38244996,1.32997903
65a97c769f2db2c7f246e5b5,23,0,2024-02-28T14:56:07.409Z,french_517.wav,0,pull,559,31,5,4,English,f,1,0.1,-37.81840567,1.68452587
65a97c769f2db2c7f246e5b5,23,0,2024-02-28T14:56:07.409Z,french_517.wav,0,pull,559,31,5,4,English,f,2,0.2,-78.33811602,0.83936606
65a97c769f2db2c7f246e5b5,23,0,2024-02-28T14:56:07.409Z,french_517.wav,0,pull,559,31,5,4,English,f,3,0.3,50.26182329,0.89015853
65a97c769f2db2c7f246e5b5,23,0,2024-02-28T14:56:07.409Z,french_517.wav,0,pull,559,31,5,4,English,f,4,0.4,84.91055303,1.37002303
65a97c769f2db2c7f246e5b5,23,0,2024-02-28T14:56:07.409Z,french_517.wav,0,pull,559,31,5,4,English,f,5,0.5,89.35919119,0.14366637
65a97c769f2db2c7f246e5b5,23,0,2024-02-28T14:56:07.409Z,french_517.wav,0,pull,559,31,5,4,English,f,6,0.6,10.55033556,0.91107546
65a97c769f2db2c7f246e5b5,23,0,2024-02-28T14:56:07.409Z,french_517.wav,0,pull,559,31,5,4,English,f,7,0.7,-62.97285269,1.31587642
65a97c769f2db2c7f246e5b5,23,0,2024-02-28T14:56:07.409Z,french_517.wav,0,pull,559,31,5,4,English,f,8,0.8,27.87021553,0.94330464
65a97c769f2db2c7f246e5b5,23,0,2024-02-28T14:56:07.409Z,french_517.wav,0,pull,559,31,5,4,English,f,9,0.9,64.04470315,0.26569161
65a97c769f2db2c7f246e5b5,23,0,2024-02-28T14:56:07.409Z,french_517.wav,0,pull,559,31,5,4,English,f,10,1.0,53.97064719,0.58019556
65a97c769f2db2c7f246e5b5,23,0,2024-02-28T14:56:07.409Z,french_517.wav,0,pull,559,31,5,4,English,f,11,1.1,32.82263519,1.20336752
65a97c769f2db2c7f246e5b5,23,0,2024-02-28T14:56:07.409Z,french_517.wav,0,pull,559,31,5,4,English,f,12,1.14141667,-0.48515027,0.66075611
65a97c769f2db2c7f246e5b5,24,0,2024-02-28T14:56:07.409Z,french_719.wav,0,poule,308,31,5,4,English,f,0,0.0,28.87558688,0.04017745
65a97c769f2db2c7f246e5b5,24,0,2024-02-28T14:56:07.409Z,french_719.wav,0,poule,308,31,5,4,English,f,1,0.1,-77.56778475,0.4685392
65a97c769f2db2c7f246e5b5,24,0,2024-02-28T14:56:07.409Z,french_719.wav,0,poule,308,31,5,4,English,f,2,0.2,-78.17645142,0.7614239
65a97c769f2db2c7f246e5b5,24,0,2024-02-28T14:56:07.409Z,french_719.wav,0,poule,308,31,5,4,English,f,3,0.3,-31.03424709,0.57429914
65a97c769f2db2c7f246e5b5,24,0,2024-02-28T14:56:07.409Z,french_719.wav,0,poule,308,31,5,4,English,f,4,0.4,-68.16265858,0.41797793
65a97c769f2db2c7f246e5b5,24,0,2024-02-28T14:56:07.409Z,french_719.wav,0,poule,308,31,5,4,English,f,5,0.5,64.36302735,1.2264158
65a97c769f2db2c7f246e5b5,24,0,2024-02-28T14:56:07.409Z,french_719.wav,0,poule,308,31,5,4,English,f,6,0.6,-6.36500349,0.08195012
65a97c769f2db2c7f246e5b5,24,0,2024-02-28T14:56:07.409Z,french_719.wav,0,poule,308,31,5,4,English,f,7,0.7,-85.5800648,0.06647283
65a97c769f2db2c7f246e5b5,24,0,2024-02-28T14:56:07.409Z,french_719.wav,0,poule,308,31,5,4,English,f,8,0.8,-50.52981857,0.36082267
65a97c769f2db2c7f246e5b5,24,0,2024-02-28T14:56:07.409Z,french_719.wav,0,poule,308,31,5,4,English,f,9,0.9,-69.15152335,0.47322342
65a97c769f2db2c7f246e5b5,24,0,2024-02-28T14:56:07.409Z,french_719.wav,0,poule,308,31,5,4,English,f,10,1.0,52.64793667,0.67970515
65a97c769f2db2c7f246e5b5,24,0,2024-02-28T14:56:07.409Z,french_719.wav,0,poule,308,31,5,4,English,f,11,1.1,63.66525963,1.71506737
65a97c769f2db2c7f246e5b5,24,0,2024-02-28T14:56:07.409Z,french_719.wav,0,poule,308,31,5,4,English,f,12,1.14141667,-91.53134556,1.03851815
65a97c769f2db2c7f246e5b5,25,0,2024-02-28T14:56:07.409Z,french_484.wav,0,pull,675,31,5,4,English,f,0,0.0,6.83265532,0.52592683
65a97c769f2db2c7f246e5b5,25,0,2024-02-28T14:56:07.409Z,french_484.wav,0,pull,675,31,5,4,English,f,1,0.1,83.49239965,0.84238665
65a97c769f2db2c7f246e5b5,25,0,2024-02-28T14:56:07.409Z,french_484.wav,0,pull,675,31,5,4,English,f,2,0.2,70.78725764,0.69533335
65a97c769f2db2c7f246e5b5,25,0,2024-02-28T14:56:07.409Z,french_484.wav,0,pull,675,31,5,4,English,f,3,0.3,-5.74370192,0.62368717
65a97c769f2db2c7f246e5b5,25,0,2024-02-28T14:56:07.409Z,french_484.wav,0,pull,675,31,5,4,English,f,4,0.4,-22.9215122,1.93129742
65a97c769f2db2c7f246e5b5,25,0,2024-02-28T14:56:07.409Z,french_484.wav,0,pull,675,31,5,4,English,f,5,0.5,-48.70720534,0.19717675
65a97c769f2db2c7f246e5b5,25,0,2024-02-28T14:56:07.409Z,french_484.wav,0,pull,675,31,5,4,English,f,6,0.6,-87.25700763,1.0051103
65a97c769f2db2c7f246e5b5,25,0,2024-02-28T14:56:07.409Z,french_484.wav,0,pull,675,31,5,4,English,f,7,0.7,52.63394188,1.34413016
65a97c769f2db2c7f246e5b5,25,0,2024-02-28T14:56:07.409Z,french_484.wav,0,pull,675,31,5,4,English,f,8,0.8,-28.78801854,0.80549785
65a97c769f2db2c7f246e5b5,25,0,2024-02-28T14:56:07.409Z,french_484.wav,0,pull,675,31,5,4,English,f,9,0.9,-24.7890616,0.42644713
65a97c769f2db2c7f246e5b5,25,0,2024-02-28T14:56:07.409Z,french_484.wav,0,pull,675,31,5,4,English,f,10,1.0,-91.46030438,0.67801753
65a97c769f2db2c7f246e5b5,25,0,2024-02-28T14:56:07.409Z,french_484.wav,0,pull,675,31,5,4,English,f,11,1.1,-55.41551793,1.05030172
65a97c769f2db2c7f246e5b5,25,0,2024-02-28T14:56:07.409Z,french_484.wav,0,pull,675,31,5,4,English,f,12,1.14141667,-9.9830909,0.06913333
65a97c769f2db2c7f246e5b5,26,0,2024-02-28T14:56:07.409Z,french_273.wav,0,poule,106,31,5,4,English,f,0,0.0,0.7190916,0.53676655
65a97c769f2db2c7f246e5b5,26,0,2024-02-28T14:56:07.409Z,french_273.wav,0,poule,106,31,5,4,English,f,1,0.1,97.83891779,1.54358622
65a97c769f2db2c7f246e5b5,26,0,2024-02-28T14:56:07.409Z,french_273.wav,0,poule,106,31,5,4,English,f,2,0.2,60.36727917,0.47152348
65a97c769f2db2c7f246e5b5,26,0,2024-02-28T14:56:07.409Z,french_273.wav,0,poule,106,31,5,4,English,f,3,0.3,75.34562321,1.2590705
65a97c769f2db2c7f246e5b5,26,0,2024-02-28T14:56:07.409Z,french_273.wav,0,poule,106,31,5,4,English,f,4,0.4,-49.29676333,1.86837956
65a97c769f2db2c7f246e5b5,26,0,2024-02-28T14:56:07.409Z,french_273.wav,0,poule,106,31,5,4,English,f,5,0.5,66.1161099,0.9921972
65a97c769f2db2c7f246e5b5,26,0,2024-02-28T14:56:07.409Z,french_273.wav,0,poule,106,31,5,4,English,f,6,0.6,47.59795939,0.68574852
65a97c769f2db2c7f246e5b5,26,0,2024-02-28T14:56:07.409Z,french_273.wav,0,poule,106,31,5,4,English,f,7,0.7,-57.87962131,1.86045002
65a97c769f2db2c7f246e5b5,26,0,2024-02-28T14:56:07.409Z,french_273.wav,0,poule,106,31,5,4,English,f,8,0.8,81.42088192,1.53065292
65a97c769f2db2c7f246e5b5,26,0,2024-02-28T14:56:07.409Z,french_273.wav,0,poule,106,31,5,4,English,f,9,0.9,-40.71214973,1.34276988
65a97c769f2db2c7f246e5b5,26,0,2024-02-28T14:56:07.409Z,french_273.wav,0,poule,106,31,5,4,English,f,10,1.0,21.35486497,1.27786291
65a97c769f2db2c7f246e5b5,26,0,2024-02-28T14:56:07.409Z,french_273.wav,0,poule,106,31,5,4,English,f,11,1.1,48.12506042,1.11936535
65a97c769f2db2c7f246e5b5,26,0,2024-02-28T14:56:07.409Z,french_273.wav,0,poule,106,31,5,4,English,f,12,1.14141667,82.77823336,0.95547805
65a97c769f2db2c7f246e5b5,27,0,2024-02-28T14:56:07.409Z,french_703.wav,0,poule,677,31,5,4,English,f,0,0.0,-21.37770157,0.66802696
65a97c769f2db2c7f246e5b5,27,0,2024-02-28T14:56:07.409Z,french_703.wav,0,poule,677,31,5,4,English,f,1,0.1,50.31331321,1.55362381
65a97c769f2db2c7f246e5b5,27,0,2024-02-28T14:56:07.409Z,french_703.wav,0,poule,677,31,5,4,English,f,2,0.2,-49.4496378,1.48463552
65a97c769f2db2c7f246e5b5,27,0,2024-02-28T14:56:07.409Z,french_703.wav,0,poule,677,31,5,4,English,f,3,0.3,-38.33697717,1.06515095
65a97c769f2db2c7f246e5b5,27,0,2024-02-28T14:56:07.409Z,french_703.wav,0,poule,677,31,5,4,English,f,4,0.4,12.97977008,1.1493655
65a97c769f2db2c7f246e5b5,27,0,2024-02-28T14:56:07.409Z,french_703.wav,0,poule,677,31,5,4,English,f,5,0.5,66.07418181,1.63722162
65a97c769f2db2c7f246e5b5,27,0,2024-02-28T14:56:07.409Z,french_703.wav,0,poule,677,31,5,4,English,f,6,0.6,59.04442669,1.06112756
65a97c769f2db2c7f246e5b5,27,0,2024-02-28T14:56:07.409Z,french_703.wav,0,poule,677,31,5,4,English,f,7,0.7,52.62775671,0.93406202
65a97c769f2db2c7f246e5b5,27,0,2024-02-28T14:56:07.409Z,french_703.wav,0,poule,677,31,5,4,English,f,8,0.8,-82.81575473,1.77561251
65a97c769f2db2c7f246e5b5,27,0,2024-02-28T14:56:07.409Z,french_703.wav,0,poule,677,31,5,4,English,f,9,0.9,45.17803837,1.09803638
65a97c769f2db2c7f246e5b5,27,0,2024-02-28T14:56:07.409Z,french_703.wav,0,poule,677,31,5,4,English,f,10,1.0,40.13411686,0.34970279
65a97c769f2db2c7f246e5b5,27,0,2024-02-28T14:56:07.409Z,french_703.wav,0,poule,677,31,5,4,English,f,11,1.1,8.5356203,1.76771606
65a97c769f2db2c7f246e5b5,27,0,2024-02-28T14:56:07.409Z,french_703.wav,0,poule,677,31,5,4,English,f,12,1.14141667,19.72779224,0.04025576
65a97c769f2db2c7f246e5b5,28,0,2024-02-28T14:56:07.409Z,french_100.wav,0,poule,487,31,5,4,English,f,0,0.0,45.30319637,0.4266363
65a97c769f2db2c7f246e5b5,28,0,2024-02-28T14:56:07.409Z,french_100.wav,0,poule,487,31,5,4,English,f,1,0.1,47.12815282,0.41166499
65a97c769f2db2c7f246e5b5,28,0,2024-02-28T14:56:07.409Z,french_100.wav,0,poule,487,31,5,4,English,f,2,0.2,67.48521917,0.75850186
65a97c769f2db2c7f246e5b5,28,0,2024-02-28T14:56:07.409Z,french_100.wav,0,poule,487,31,5,4,English,f,3,0.3,23.61125392,1.79094973
65a97c769f2db2c7f246e5b5,28,0,2024-02-28T14:56:07.409Z,french_100.wav,0,poule,487,31,5,4,English,f,4,0.4,20.77565094,1.79636496
65a97c769f2db2c7f246e5b5,28,0,2024-02-28T14:56:07.409Z,french_100.wav,0,poule,487,31,5,4,English,f,5,0.5,-96.44964023,1.36246425
65a97c769f2db2c7f246e5b5,28,0,2024-02-28T14:56:07.409Z,french_100.wav,0,poule,487,31,5,4,English,f,6,0.6,-27.30276741,0.7383114
65a97c769f2db2c7f246e5b5,28,0,2024-02-28T14:56:07.409Z,french_100.wav,0,poule,487,31,5,4,English,f,7,0.7,7.85228196,1.2886492
65a97c769f2db2c7f246e5b5,28,0,2024-02-28T14:56:07.409Z,french_100.wav,0,poule,487,31,5,4,English,f,8,0.8,68.83602268,0.63858011
65a97c769f2db2c7f246e5b5,28,0,2024-02-28T14:56:07.409Z,french_100.wav,0,poule,487,31,5,4,English,f,9,0.9,42.76775799,0.54144566
65a97c769f2db2c7f246e5b5,28,0,2024-02-28T14:56:07.409Z,french_100.wav,0,poule,487,31,5,4,English,f,10,1.0,54.32509685,0.22455782
65a97c769f2db2c7f246e5b5,28,0,2024-02-28T14:56:07.409Z,french_100.wav,0,poule,487,31,5,4,English,f,11,1.1,-78.45035325,0.1039249
65a97c769f2db2c7f246e5b5,28,0,2024-02-28T14:56:07.409Z,french_100.wav,0,poule,487,31,5,4,English,f,12,1.14141667,25.20581813,0.78301344
65a97c769f2db2c7f246e5b5,29,0,2024-02-28T14:56:07.409Z,french_227.wav,0,poule,316,31,5,4,English,f,0,0.0,-63.98497533,1.5363518
65a97c769f2db2c7f246e5b5,29,0,2024-02-28T14:56:07.409Z,french_227.wav,0,poule,316,31,5,4,English,f,1,0.1,7.89700286,1.08409133
65a97c769f2db2c7f246e5b5,29,0,2024-02-28T14:56:07.409Z,french_227.wav,0,poule,316,31,5,4,English,f,2,0.2,-85.89039473,1.90427543
65a97c769f2db2c7f246e5b5,29,0,2024-02-28T14:56:07.409Z,french_227.wav,0,poule,316,31,5,4,English,f,3,0.3,-30.72420198,0.75696463
65a97c769f2db2c7f246e5b5,29,0,2024-02-28T14:56:07.409Z,french_227.wav,0,poule,316,31,5,4,English,f,4,0.4,54.13251522,1.27414783
65a97c769f2db2c7f246e5b5,29,0,2024-02-28T14:56:07.409Z,french_227.wav,0,poule,316,31,5,4,English,f,5,0.5,50.29868002,0.17571721
65a97c769f2db2c7f246e5b5,29,0,2024-02-28T14:56:07.409Z,french_227.wav,0,poule,316,31,5,4,English,f,6,0.6,17.89842047,0.16810735
65a97c769f2db2c7f246e5b5,29,0,2024-02-28T14:56:07.409Z,french_227.wav,0,poule,316,31,5,4,English,f,7,0.7,76.60204514,0.96568279
65a97c769f2db2c7f246e5b5,29,0,2024-02-28T14:56:07.409Z,french_227.wav,0,poule,316,31,5,4,English,f,8,0.8,-7.82280605,1.34957529
65a97c769f2db2c7f246e5b5,29,0,2024-02-28T14:56:07.409Z,french_227.wav,0,poule,316,31,5,4,English,f,9,0.9,44.17966564,1.044977
65a97c769f2db2c7f246e5b5,29,0,2024-02-28T14:56:07.409Z,french_227.wav,0,poule,316,31,5,4,English,f,10,1.0,35.62117152,1.59072319
65a97c769f2db2c7f246e5b5,29,0,2024-02-28T14:56:07.409Z,french_227.wav,0,poule,316,31,5,4,English,f,11,1.1,-1.37417446,0.18742296
65a97c769f2db2c7f246e5b5,29,0,2024-02-28T14:56:07.409Z,french_227.wav,0,poule,316,31,5,4,English,f,12,1.14141667,-40.20349559,1.71340792
65a97c769f2db2c7f246e5b5,30,0,2024-02-28T14:56:07.409Z,french_609.wav,0,poule,251,31,5,4,English,f,0,0.0,-33.0990358,1.60128012
65a97c769f2db2c7f246e5b5,30,0,2024-02-28T14:56:07.409Z,french_609.wav,0,poule,251,31,5,4,English,f,1,0.1,-76.8855135,1.70842232
65a97c769f2db2c7f246e5b5,30,0,2024-02-28T14:56:07.409Z,french_609.wav,0,poule,251,31,5,4,English,f,2,0.2,-77.09744455,1.82827546
65a97c769f2db2c7f246e5b5,30,0,2024-02-28T14:56:07.409Z,french_609.wav,0,poule,251,31,5,4,English,f,3,0.3,53.13274146,0.14742697
65a97c769f2db2c7f246e5b5,30,0,2024-02-28T14:56:07.409Z,french_609.wav,0,poule,251,31,5,4,English,f,4,0.4,35.37902203,1.25283251
65a97c769f2db2c7f246e5b5,30,0,2024-02-28T14:56:07.409Z,french_609.wav,0,poule,251,31,5,4,English,f,5,0.5,20.34548248,0.26386793
65a97c769f2db2c7f246e5b5,30,0,2024-02-28T14:56:07.409Z,french_609.wav,0,poule,251,31,5,4,English,f,6,0.6,-6.72304145,0.83898533
65a97c769f2db2c7f246e5b5,30,0,2024-02-28T14:56:07.409Z,french_609.wav,0,poule,251,31,5,4,English,f,7,0.7,18.07732321,0.31703682
65a97c769f2db2c7f246e5b5,30,0,2024-02-28T14:56:07.409Z,french_609.wav,0,poule,251,31,5,4,English,f,8,0.8,95.53940519,1.359658
65a97c769f2db2c7f246e5b5,30,0,2024-02-28T14:56:07.409Z,french_609.wav,0,poule,251,31,5,4,English,f,9,0.9,-92.74085832,1.06120925
65a97c769f2db2c7f246e5b5,30,0,2024-02-28T14:56:07.409Z,french_609.wav,0,poule,251,31,5,4,English,f,10,1.0,56.61461398,1.23233063
65a97c769f2db2c7f246e5b5,30,0,2024-02-28T14:56:07.409Z,french_609.wav,0,poule,251,31,5,4,English,f,11,1.1,-30.80451212,0.16135233
65a97c769f2db2c7f246e5b5,30,0,2024-02-28T14:56:07.409Z,french_609.wav,0,poule,251,31,5,4,English,f,12,1.14141667,-4.98965675,1.719186
65a97c769f2db2c7f246e5b5,31,0,2024-02-28T14:56:07.409Z,french_206.wav,0,poule,270,31,5,4,English,f,0,0.0,43.92395117,1.77403628
65a97c769f2db2c7f246e5b5,31,0,2024-02-28T14:56:07.409Z,french_206.wav,0,poule,270,31,5,4,English,f,1,0.1,39.31302251,1.60288441
65a97c769f2db2c7f246e5b5,31,0,2024-02-28T14:56:07.409Z,french_206.wav,0,poule,270,31,5,4,English,f,2,0.2,-42.8927459,1.13153884
65a97c769f2db2c7f246e5b5,31,0,2024-02-28T14:56:07.409Z,french_206.wav,0,poule,270,31,5,4,English,f,3,0.3,-42.74094368,1.48428597
65a97c769f2db2c7f246e5b5,31,0,2024-02-28T14:56:07.409Z,french_206.wav,0,poule,270,31,5,4,English,f,4,0.4,-54.37015978,0.87838006
65a97c769f2db2c7f246e5b5,31,0,2024-02-28T14:56:07.409Z,french_206.wav,0,poule,270,31,5,4,English,f,5,0.5,58.70658254,1.89671484
65a97c769f2db2c7f246e5b5,31,0,2024-02-28T14:56:07.409Z,french_206.wav,0,poule,270,31,5,4,English,f,6,0.6,-93.65162754,0.9605472
65a97c769f2db2c7f246e5b5,31,0,2024-02-28T14:56:07.409Z,french_206.wav,0,poule,270,31,5,4,English,f,7,0.7,21.97210984,1.59310841
65a97c769f2db2c7f246e5b5,31,0,2024-02-28T14:56:07.409Z,french_206.wav,0,poule,270,31,5,4,English,f,8,0.8,-19.85883058,0.68468678
65a97c769f2db2c7f246e5b5,31,0,2024-02-28T14:56:07.409Z,french_206.wav,0,poule,270,31,5,4,English,f,9,0.9,52.86747229,1.01785064
65a97c769f2db2c7f246e5b5,31,0,2024-02-28T14:56:07.409Z,french_206.wav,0,poule,270,31,5,4,English,f,10,1.0,28.65042427,1.27680634
65a97c769f2db2c7f246e5b5,31,0,2024-02-28T14:56:07.409Z,french_206.wav,0,poule,270,31,5,4,English,f,11,1.1,97.07118546,0.38746368
65a97c769f2db2c7f246e5b5,31,0,2024-02-28T14:56:07.409Z,french_206.wav,0,poule,270,31,5,4,English,f,12,1.14141667,-9.08669324,1.12107316
65a97c769f2db2c7f246e5b5,32,0,2024-02-28T14:56:07.409Z,french_756.wav,0,poule,272,31,5,4,English,f,0,0.0,-40.89918264,0.22647067
65a97c769f2db2c7f246e5b5,32,0,2024-02-28T14:56:07.409Z,french_756.wav,0,poule,272,31,5,4,English,f,1,0.1,-99.52464367,0.83190688
65a97c769f2db2c7f246e5b5,32,0,2024-02-28T14:56:07.409Z,french_756.wav,0,poule,272,31,5,4,English,f,2,0.2,-21.65080484,1.47884544
65a97c769f2db2c7f246e5b5,32,0,2024-02-28T14:56:07.409Z,french_756.wav,0,poule,272,31,5,4,English,f,3,0.3,61.04267157,0.7217285
65a97c769f2db2c7f246e5b5,32,0,2024-02-28T14:56:07.409Z,french_756.wav,0,poule,272,31,5,4,English,f,4,0.4,-86.7981673,1.67647658
65a97c769f2db2c7f246e5b5,32,0,2024-02-28T14:56:07.409Z,french_756.wav,0,poule,272,31,5,4,English,f,5,0.5,-52.98495971,1.95635738
65a97c769f2db2c7f246e5b5,32,0,2024-02-28T14:56:07.409Z,french_756.wav,0,poule,272,31,5,4,English,f,6,0.6,-62.5926211,1.04454085
65a97c769f2db2c7f246e5b5,32,0,2024-02-28T14:56:07.409Z,french_756.wav,0,poule,272,31,5,4,English,f,7,0.7,93.58331773,1.38664818
65a97c769f2db2c7f246e5b5,32,0,2024-02-28T14:56:07.409Z,french_756.wav,0,poule,272,31,5,4,English,f,8,0.8,-85.69814582,1.57780238
65a97c769f2db2c7f246e5b5,32,0,2024-02-28T14:56:07.409Z,french_756.wav,0,poule,272,31,5,4,English,f,9,0.9,79.03573852,1.00453441
65a97c769f2db2c7f246e5b5,32,0,2024-02-28T14:56:07.409Z,french_756.wav,0,poule,272,31,5,4,English,f,10,1.0,-77.37187744,1.82221754
65a97c769f2db2c7f246e5b5,32,0,2024-02-28T14:56:07.409Z,french_756.wav,0,poule,272,31,5,4,English,f,11,1.1,78.34862084,0.38536838
65a97c769f2db2c7f246e5b5,32,0,2024-02-28T14:56:07.409Z,french_756.wav,0,poule,272,31,5,4,English,f,12,1.14141667,-65.43844249,0.09429914
65a97c769f2db2c7f246e5b5,33,0,2024-02-28T14:56:07.409Z,french_461.wav,0,pull,539,31,5,4,English,f,0,0.0,94.32370933,1.08116474
65a97c769f2db2c7f246e5b5,33,0,2024-02-28T14:56:07.409Z,french_461.wav,0,pull,539,31,5,4,English,f,1,0.1,-20.71306493,0.77352279
65a97c769f2db2c7f246e5b5,33,0,2024-02-28T14:56:07.409Z,french_461.wav,0,pull,539,31,5,4,English,f,2,0.2,-52.8787947,1.72406451
65a97c769f2db2c7f246e5b5,33,0,2024-02-28T14:56:07.409Z,french_461.wav,0,pull,539,31,5,4,English,f,3,0.3,54.58301415,1.0712012
65a97c769f2db2c7f246e5b5,33,0,2024-02-28T14:56:07.409Z,french_461.wav,0,pull,539,31,5,4,English,f,4,0.4,77.43262349,1.46762268
65a97c769f2db2c7f246e5b5,33,0,2024-02-28T14:56:07.409Z,french_461.wav,0,pull,539,31,5,4,English,f,5,0.5,91.72055328,1.02267728
65a97c769f2db2c7f246e5b5,33,0,2024-02-28T14:56:07.409Z,french_461.wav,0,pull,539,31,5,4,English,f,6,0.6,-68.29048705,1.62970382
65a97c769f2db2c7f246e5b5,33,0,2024-02-28T14:56:07.409Z,french_461.wav,0,pull,539,31,5,4,English,f,7,0.7,-57.37161044,0.33624611
65a97c769f2db2c7f246e5b5,33,0,2024-02-28T14:56:07.409Z,french_461.wav,0,pull,539,31,5,4,English,f,8,0.8,31.76308417,1.07879651
65a97c769f2db2c7f246e5b5,33,0,2024-02-28T14:56:07.409Z,french_461.wav,0,pull,539,31,5,4,English,f,9,0.9,-99.65529565,0.11108974
65a97c769f2db2c7f246e5b5,33,0,2024-02-28T14:56:07.409Z,french_461.wav,0,pull,539,31,5,4,English,f,10,1.0,-27.48817095,0.0578911
65a97c769f2db2c7f246e5b5,33,0,2024-02-28T14:56:07.409Z,french_461.wav,0,pull,539,31,5,4,English,f,11,1.1,97.80822664,1.12963754
65a97c769f2db2c7f246e5b5,33,0,2024-02-28T14:56:07.409Z,french_461.wav,0,pull,539,31,5,4,English,f,12,1.14141667,42.47593373,1.30381109
65a97c769f2db2c7f246e5b5,34,0,2024-02-28T14:56:07.409Z,french_475.wav,0,pull,363,31,5,4,English,f,0,0.0,-54.0765714,1.22843023
65a97c769f2db2c7f246e5b5,34,0,2024-02-28T14:56:07.409Z,french_475.wav,0,pull,363,31,5,4,English,f,1,0.1,-77.5997382,0.67465416
65a97c769f2db2c7f246e5b5,34,0,2024-02-28T14:56:07.409Z,french_475.wav,0,pull,363,31,5,4,English,f,2,0.2,-5.96417481,1.46352817
65a97c769f2db2c7f246e5b5,34,0,2024-02-28T14:56:07.409Z,french_475.wav,0,pull,363,31,5,4,English,f,3,0.3,90.3794085,1.65803665
65a97c769f2db2c7f246e5b5,34,0,2024-02-28T14:56:07.409Z,french_475.wav,0,pull,363,31,5,4,English,f,4,0.4,77.6475749,0.3744317
65a97c769f2db2c7f246e5b5,34,0,2024-02-28T14:56:07.409Z,french_475.wav,0,pull,363,31,5,4,English,f,5,0.5,-0.0510170631,1.25600303
65a97c769f2db2c7f246e5b5,34,0,2024-02-28T14:56:07.409Z,french_475.wav,0,pull,363,31,5,4,English,f,6,0.6,-48.2331031,1.88058254
65a97c769f2db2c7f246e5b5,34,0,2024-02-28T14:56:07.409Z,french_475.wav,0,pull,363,31,5,4,English,f,7,0.7,68.47356,1.63911274
65a97c769f2db2c7f246e5b5,34,0,2024-02-28T14:56:07.409Z,french_475.wav,0,pull,363,31,5,4,English,f,8,0.8,1.61116018,1.55282086
65a97c769f2db2c7f246e5b5,34,0,2024-02-28T14:56:07.409Z,french_475.wav,0,pull,363,31,5,4,English,f,9,0.9,85.6911048,0.43137501
65a97c769f2db2c7f246e5b5,34,0,2024-02-28T14:56:07.409Z,french_475.wav,0,pull,363,31,5,4,English,f,10,1.0,24.5551859,0.79044925
65a97c769f2db2c7f246e5b5,34,0,2024-02-28T14:56:07.409Z,french_475.wav,0,pull,363,31,5,4,English,f,11,1.1,-32.3235712,1.78282868
65a97c769f2db2c7f246e5b5,34,0,2024-02-28T14:56:07.409Z,french_475.wav,0,pull,363,31,5,4,English,f,12,1.14141667,64.6930948,1.0446802
65a97c769f2db2c7f246e5b5,35,0,2024-02-28T14:56:07.409Z,french_600.wav,0,pull,505,31,5,4,English,f,0,0.0,52.68900208,1.20996587
65a97c769f2db2c7f246e5b5,35,0,2024-02-28T14:56:07.409Z,french_600.wav,0,pull,505,31,5,4,English,f,1,0.1,-6.73067052,0.65229061
65a97c769f2db2c7f246e5b5,35,0,2024-02-28T14:56:07.409Z,french_600.wav,0,pull,505,31,5,4,English,f,2,0.2,96.57898689,1.53870963
65a97c769f2db2c7f246e5b5,35,0,2024-02-28T14:56:07.409Z,french_600.wav,0,pull,505,31,5,4,English,f,3,0.3,88.93281909,0.24911415
65a97c769f2db2c7f246e5b5,35,0,2024-02-28T14:56:07.409Z,french_600.wav,0,pull,505,31,5,4,English,f,4,0.4,75.90530311,0.83209065
65a97c769f2db2c7f246e5b5,35,0,2024-02-28T14:56:07.409Z,french_600.wav,0,pull,505,31,5,4,English,f,5,0.5,83.32696458,1.35695142
65a97c769f2db2c7f246e5b5,35,0,2024-02-28T14:56:07.409Z,french_600.wav,0,pull,505,31,5,4,English,f,6,0.6,-66.79703103,1.60598618
65a97c769f2db2c7f246e5b5,35,0,2024-02-28T14:56:07.409Z,french_600.wav,0,pull,505,31,5,4,English,f,7,0.7,63.7950694,1.81288548
65a97c769f2db2c7f246e5b5,35,0,2024-02-28T14:56:07.409Z,french_600.wav,0,pull,505,31,5,4,English,f,8,0.8,-58.76780301,0.6555076
65a97c769f2db2c7f246e5b5,35,0,2024-02-28T14:56:07.409Z,french_600.wav,0,pull,505,31,5,4,English,f,9,0.9,44.34251674,1.0412619
65a97c769f2db2c7f246e5b5,35,0,2024-02-28T14:56:07.409Z,french_600.wav,0,pull,505,31,5,4,English,f,10,1.0,40.69658778,1.14001909
65a97c769f2db2c7f246e5b5,35,0,2024-02-28T14:56:07.409Z,french_600.wav,0,pull,505,31,5,4,English,f,11,1.1,-28.98281282,0.56625227
65a97c769f2db2c7f246e5b5,35,0,2024-02-28T14:56:07.409Z,french_600.wav,0,pull,505,31,5,4,English,f,12,1.14141667,43.07407366,0.71314078
65a97c769f2db2c7f246e5b5,36,0,2024-02-28T14:56:07.409Z,french_804.wav,0,poule,231,31,5,4,English,f,0,0.0,-81.48040782,1.72278374
65a97c769f2db2c7f246e5b5,36,0,2024-02-28T14:56:07.409Z,french_804.wav,0,poule,231,31,5,4,English,f,1,0.1,-17.45889889,1.09467419
65a97c769f2db2c7f246e5b5,36,0,2024-02-28T14:56:07.409Z,french_804.wav,0,poule,231,31,5,4,English,f,2,0.2,30.94703124,1.89284567
65a97c769f2db2c7f246e5b5,36,0,2024-02-28T14:56:07.409Z,french_804.wav,0,poule,231,31,5,4,English,f,3,0.3,-59.31638088,0.06467182
65a97c769f2db2c7f246e5b5,36,0,2024-02-28T14:56:07.409Z,french_804.wav,0,poule,231,31,5,4,English,f,4,0.4,32.31952964,1.7986491
65a97c769f2db2c7f246e5b5,36,0,2024-02-28T14:56:07.409Z,french_804.wav,0,poule,231,31,5,4,English,f,5,0.5,-76.80935002,0.95859736
65a97c769f2db2c7f246e5b5,36,0,2024-02-28T14:56:07.409Z,french_804.wav,0,poule,231,31,5,4,English,f,6,0.6,-98.7037282,1.28356637
65a97c769f2db2c7f246e5b5,36,0,2024-02-28T14:56:07.409Z,french_804.wav,0,poule,231,31,5,4,English,f,7,0.7,-37.18293781,0.02342821
65a97c769f2db2c7f246e5b5,36,0,2024-02-28T14:56:07.409Z,french_804.wav,0,poule,231,31,5,4,English,f,8,0.8,-12.0929561,0.57090294
65a97c769f2db2c7f246e5b5,36,0,2024-02-28T14:56:07.409Z,french_804.wav,0,poule,231,31,5,4,English,f,9,0.9,70.86110412,0.54405877
65a97c769f2db2c7f246e5b5,36,0,2024-02-28T14:56:07.409Z,french_804.wav,0,poule,231,31,5,4,English,f,10,1.0,-41.4148751,0.67180302
65a97c769f2db2c7f246e5b5,36,0,2024-02-28T14:56:07.409Z,french_804.wav,0,poule,231,31,5,4,English,f,11,1.1,34.56454139,1.24764987
65a97c769f2db2c7f246e5b5,36,0,2024-02-28T14:56:07.409Z,french_804.wav,0,poule,231,31,5,4,English,f,12,1.14141667,-8.86405782,0.56589089
65a97c769f2db2c7f246e5b5,37,0,2024-02-28T14:56:07.409Z,french_295.wav,0,poule,499,31,5,4,English,f,0,0.0,55.29315311,1.5987636
65a97c769f2db2c7f246e5b5,37,0,2024-02-28T14:56:07.409Z,french_295.wav,0,poule,499,31,5,4,English,f,1,0.1,-65.75153127,0.69545336
65a97c769f2db2c7f246e5b5,37,0,2024-02-28T14:56:07.409Z,french_295.wav,0,poule,499,31,5,4,English,f,2,0.2,-92.7192066,0.48752791
65a97c769f2db2c7f246e5b5,37,0,2024-02-28T14:56:07.409Z,french_295.wav,0,poule,499,31,5,4,English,f,3,0.3,-57.6604973,1.39957445
65a97c769f2db2c7f246e5b5,37,0,2024-02-28T14:56:07.409Z,french_295.wav,0,poule,499,31,5,4,English,f,4,0.4,-68.74854131,0.76369242
65a97c769f2db2c7f246e5b5,37,0,2024-02-28T14:56:07.409Z,french_295.wav,0,poule,499,31,5,4,English,f,5,0.5,-5.17022395,0.48234689
65a97c769f2db2c7f246e5b5,37,0,2024-02-28T14:56:07.409Z,french_295.wav,0,poule,499,31,5,4,English,f,6,0.6,-80.86026473,1.39904034
65a97c769f2db2c7f246e5b5,37,0,2024-02-28T14:56:07.409Z,french_295.wav,0,poule,499,31,5,4,English,f,7,0.7,-29.75269048,1.65941602
65a97c769f2db2c7f246e5b5,37,0,2024-02-28T14:56:07.409Z,french_295.wav,0,poule,499,31,5,4,English,f,8,0.8,31.25868852,0.9491215
65a97c769f2db2c7f246e5b5,37,0,2024-02-28T14:56:07.409Z,french_295.wav,0,poule,499,31,5,4,English,f,9,0.9,-20.06781302,1.67220732
65a97c769f2db2c7f246e5b5,37,0,2024-02-28T14:56:07.409Z,french_295.wav,0,poule,499,31,5,4,English,f,10,1.0,-9.04337326,0.28641191
65a97c769f2db2c7f246e5b5,37,0,2024-02-28T14:56:07.409Z,french_295.wav,0,poule,499,31,5,4,English,f,11,1.1,-25.31119752,0.37552559
65a97c769f2db2c7f246e5b5,37,0,2024-02-28T14:56:07.409Z,french_295.wav,0,poule,499,31,5,4,English,f,12,1.14141667,-74.03291959,1.0716262
65a97c769f2db2c7f246e5b5,38,0,2024-02-28T14:56:07.409Z,french_38.wav,0,poule,377,31,5,4,English,f,0,0.0,40.69692625,0.35088988
65a97c769f2db2c7f246e5b5,38,0,2024-02-28T14:56:07.409Z,french_38.wav,0,poule,377,31,5,4,English,f,1,0.1,83.11806361,0.52815391
65a97c769f2db2c7f246e5b5,38,0,2024-02-28T14:56:07.409Z,french_38.wav,0,poule,377,31,5,4,English,f,2,0.2,18.12214919,0.42903125
65a97c769f2db2c7f246e5b5,38,0,2024-02-28T14:56:07.409Z,french_38.wav,0,poule,377,31,5,4,English,f,3,0.3,-19.25038889,1.56660171
65a97c769f2db2c7f246e5b5,38,0,2024-02-28T14:56:07.409Z,french_38.wav,0,poule,377,31,5,4,English,f,4,0.4,76.29170631,1.50314168
65a97c769f2db2c7f246e5b5,38,0,2024-02-28T14:56:07.409Z,french_38.wav,0,poule,377,31,5,4,English,f,5,0.5,-93.04323891,0.64027928
65a97c769f2db2c7f246e5b5,38,0,2024-02-28T14:56:07.409Z,french_38.wav,0,poule,377,31,5,4,English,f,6,0.6,29.67195094,1.95048915
65a97c769f2db2c7f246e5b5,38,0,2024-02-28T14:56:07.409Z,french_38.wav,0,poule,377,31,5,4,English,f,7,0.7,-14.70137235,1.01169212
65a97c769f2db2c7f246e5b5,38,0,2024-02-28T14:56:07.409Z,french_38.wav,0,poule,377,31,5,4,English,f,8,0.8,85.48410819,0.30617126
65a97c769f2db2c7f246e5b5,38,0,2024-02-28T14:56:07.409Z,french_38.wav,0,poule,377,31,5,4,English,f,9,0.9,68.26582685,1.37718683
65a97c769f2db2c7f246e5b5,38,0,2024-02-28T14:56:07.409Z,french_38.wav,0,poule,377,31,5,4,English,f,10,1.0,-29.21602996,1.41030957
65a97c769f2db2c7f246e5b5,38,0,2024-02-28T14:56:07.409Z,french_38.wav,0,poule,377,31,5,4,English,f,11,1.1,-39.50968765,1.24571364
65a97c769f2db2c7f246e5b5,38,0,2024-02-28T14:56:07.409Z,french_38.wav,0,poule,377,31,5,4,English,f,12,1.14141667,48.64216134,1.9075345
65a97c769f2db2c7f246e5b5,39,0,2024-02-28T14:56:07.409Z,french_160.wav,0,poule,399,31,5,4,English,f,0,0.0,2.54124383,0.41674932
65a97c769f2db2c7f246e5b5,39,0,2024-02-28T14:56:07.409Z,french_160.wav,0,poule,399,31,5,4,English,f,1,0.1,-32.5548459,0.30205885
65a97c769f2db2c7f246e5b5,39,0,2024-02-28T14:56:07.409Z,french_160.wav,0,poule,399,31,5,4,English,f,2,0.2,93.35637741,0.38107213
65a97c769f2db2c7f246e5b5,39,0,2024-02-28T14:56:07.409Z,french_160.wav,0,poule,399,31,5,4,English,f,3,0.3,-38.9581146,1.91878903
65a97c769f2db2c7f246e5b5,39,0,2024-02-28T14:56:07.409Z,french_160.wav,0,poule,399,31,5,4,English,f,4,0.4,-21.93077074,0.71733418
65a97c769f2db2c7f246e5b5,39,0,2024-02-28T14:56:07.409Z,french_160.wav,0,poule,399,31,5,4,English,f,5,0.5,15.85363637,0.28045988
65a97c769f2db2c7f246e5b5,39,0,2024-02-28T14:56:07.409Z,french_160.wav,0,poule,399,31,5,4,English,f,6,0.6,-5.9942694,1.00425126
65a97c769f2db2c7f246e5b5,39,0,2024-02-28T14:56:07.409Z,french_160.wav,0,poule,399,31,5,4,English,f,7,0.7,11.02178334,0.54471989
65a97c769f2db2c7f246e5b5,39,0,2024-02-28T14:56:07.409Z,french_160.wav,0,poule,399,31,5,4,English,f,8,0.8,36.02080045,1.78288163
65a97c769f2db2c7f246e5b5,39,0,2024-02-28T14:56:07.409Z,french_160.wav,0,poule,399,31,5,4,English,f,9,0.9,-67.20809069,0.5673784
65a97c769f2db2c7f246e5b5,39,0,2024-02-28T14:56:07.409Z,french_160.wav,0,poule,399,31,5,4,English,f,10,1.0,-33.16910884,1.07709851
65a97c769f2db2c7f246e5b5,39,0,2024-02-28T14:56:07.409Z,french_160.wav,0,poule,399,31,5,4,English,f,11,1.1,32.50919593,0.49895746
65a97c769f2db2c7f246e5b5,39,0,2024-02-28T14:56:07.409Z,french_160.wav,0,poule,399,31,5,4,English,f,12,1.14141667,12.38974982,1.94779347
65a97c769f2db2c7f246e5b5,40,0,2024-02-28T14:56:07.409Z,french_51.wav,0,pull,723,31,5,4,English,f,0,0.0,62.4944225,0.56001198
65a97c769f2db2c7f246e5b5,40,0,2024-02-28T14:56:07.409Z,french_51.wav,0,pull,723,31,5,4,English,f,1,0.1,61.10498272,1.54758202
65a97c769f2db2c7f246e5b5,40,0,2024-02-28T14:56:07.409Z,french_51.wav,0,pull,723,31,5,4,English,f,2,0.2,-42.55198692,0.60904928
65a97c769f2db2c7f246e5b5,40,0,2024-02-28T14:56:07.409Z,french_51.wav,0,pull,723,31,5,4,English,f,3,0.3,-72.35169931,1.71890081
65a97c769f2db2c7f246e5b5,40,0,2024-02-28T14:56:07.409Z,french_51.wav,0,pull,723,31,5,4,English,f,4,0.4,-39.72934283,0.5014883
65a97c769f2db2c7f246e5b5,40,0,2024-02-28T14:56:07.409Z,french_51.wav,0,pull,723,31,5,4,English,f,5,0.5,-0.87762192,1.02109286
65a97c769f2db2c7f246e5b5,40,0,2024-02-28T14:56:07.409Z,french_51.wav,0,pull,723,31,5,4,English,f,6,0.6,7.66993076,1.51415411
65a97c769f2db2c7f246e5b5,40,0,2024-02-28T14:56:07.409Z,french_51.wav,0,pull,723,31,5,4,English,f,7,0.7,-6.36433464,1.90557728
65a97c769f2db2c7f246e5b5,40,0,2024-02-28T14:56:07.409Z,french_51.wav,0,pull,723,31,5,4,English,f,8,0.8,-39.73719786,0.23887444
65a97c769f2db2c7f246e5b5,40,0,2024-02-28T14:56:07.409Z,french_51.wav,0,pull,723,31,5,4,English,f,9,0.9,-64.33065086,0.05375229
65a97c769f2db2c7f246e5b5,40,0,2024-02-28T14:56:07.409Z,french_51.wav,0,pull,723,31,5,4,English,f,10,1.0,34.09936964,0.21145589
65a97c769f2db2c7f246e5b5,40,0,2024-02-28T14:56:07.409Z,french_51.wav,0,pull,723,31,5,4,English,f,11,1.1,93.5102441,0.42199399
65a97c769f2db2c7f246e5b5,40,0,2024-02-28T14:56:07.409Z,french_51.wav,0,pull,723,31,5,4,English,f,12,1.14141667,81.02465116,0.67338837
65a97c769f2db2c7f246e5b5,41,0,2024-02-28T14:56:07.409Z,french_717.wav,0,poule,227,31,5,4,English,f,0,0.0,88.73376651,1.29630211
65a97c769f2db2c7f246e5b5,41,0,2024-02-28T14:56:07.409Z,french_717.wav,0,poule,227,31,5,4,English,f,1,0.1,-23.7422393,1.17583122
65a97c769f2db2c7f246e5b5,41,0,2024-02-28T14:56:07.409Z,french_717.wav,0,poule,227,31,5,4,English,f,2,0.2,22.24358049,1.44825889
65a97c769f2db2c7f246e5b5,41,0,2024-02-28T14:56:07.409Z,french_717.wav,0,poule,227,31,5,4,English,f,3,0.3,26.02776154,1.42597369
65a97c769f2db2c7f246e5b5,41,0,2024-02-28T14:56:07.409Z,french_717.wav,0,poule,227,31,5,4,English,f,4,0.4,50.50523033,1.28997601
65a97c769f2db2c7f246e5b5,41,0,2024-02-28T14:56:07.409Z,french_717.wav,0,poule,227,31,5,4,English,f,5,0.5,45.16605907,0.7579775
65a97c769f2db2c7f246e5b5,41,0,2024-02-28T14:56:07.409Z,french_717.wav,0,poule,227,31,5,4,English,f,6,0.6,-17.9098931,0.85921403
65a97c769f2db2c7f246e5b5,41,0,2024-02-28T14:56:07.409Z,french_717.wav,0,poule,227,31,5,4,English,f,7,0.7,27.24171503,0.93590594
65a97c769f2db2c7f246e5b5,41,0,2024-02-28T14:56:07.409Z,french_717.wav,0,poule,227,31,5,4,English,f,8,0.8,39.79598032,1.9839492
65a97c769f2db2c7f246e5b5,41,0,2024-02-28T14:56:07.409Z,french_717.wav,0,poule,227,31,5,4,English,f,9,0.9,78.66410709,1.89122416
65a97c769f2db2c7f246e5b5,41,0,2024-02-28T14:56:07.409Z,french_717.wav,0,poule,227,31,5,4,English,f,10,1.0,-6.40706689,0.26643504
65a97c769f2db2c7f246e5b5,41,0,2024-02-28T14:56:07.409Z,french_717.wav,0,poule,227,31,5,4,English,f,11,1.1,-55.33048838,1.55483627
65a97c769f2db2c7f246e5b5,41,0,2024-02-28T14:56:07.409Z,french_717.wav,0,poule,227,31,5,4,English,f,12,1.14141667,93.60559785,1.84443801
65a97c769f2db2c7f246e5b5,42,0,2024-02-28T14:56:07.409Z,french_885.wav,0,poule,242,31,5,4,English,f,0,0.0,-60.75569013,1.16892649
65a97c769f2db2c7f246e5b5,42,0,2024-02-28T14:56:07.409Z,french_885.wav,0,poule,242,31,5,4,English,f,1,0.1,44.17949366,1.64447348
65a97c769f2db2c7f246e5b5,42,0,2024-02-28T14:56:07.409Z,french_885.wav,0,poule,242,31,5,4,English,f,2,0.2,-36.067624,1.38345432
65a97c769f2db2c7f246e5b5,42,0,2024-02-28T14:56:07.409Z,french_885.wav,0,poule,242,31,5,4,English,f,3,0.3,-54.95940224,1.06178083
65a97c769f2db2c7f246e5b5,42,0,2024-02-28T14:56:07.409Z,french_885.wav,0,poule,242,31,5,4,English,f,4,0.4,48.98484611,0.43047686
65a97c769f2db2c7f246e5b5,42,0,2024-02-28T14:56:07.409Z,french_885.wav,0,poule,242,31,5,4,English,f,5,0.5,-17.34659064,0.42470026
65a97c769f2db2c7f246e5b5,42,0,2024-02-28T14:56:07.409Z,french_885.wav,0,poule,242,31,5,4,English,f,6,0.6,52.59755832,0.55271392
65a97c769f2db2c7f246e5b5,42,0,2024-02-28T14:56:07.409Z,french_885.wav,0,poule,242,31,5,4,English,f,7,0.7,-30.51173002,1.06332536
65a97c769f2db2c7f246e5b5,42,0,2024-02-28T14:56:07.409Z,french_885.wav,0,poule,242,31,5,4,English,f,8,0.8,23.61546759,1.58934229
65a97c769f2db2c7f246e5b5,42,0,2024-02-28T14:56:07.409Z,french_885.wav,0,poule,242,31,5,4,English,f,9,0.9,-81.95380549,0.75323778
65a97c769f2db2c7f246e5b5,42,0,2024-02-28T14:56:07.409Z,french_885.wav,0,poule,242,31,5,4,English,f,10,1.0,-11.62298582,0.05941991
65a97c769f2db2c7f246e5b5,42,0,2024-02-28T14:56:07.409Z,french_885.wav,0,poule,242,31,5,4,English,f,11,1.1,-37.1929329,1.64232697
65a97c769f2db2c7f246e5b5,42,0,2024-02-28T14:56:07.409Z,french_885.wav,0,poule,242,31,5,4,English,f,12,1.14141667,-35.94133053,1.35653046
65a97c769f2db2c7f246e5b5,43,0,2024-02-28T14:56:07.409Z,french_442.wav,0,poule,485,31,5,4,English,f,0,0.0,59.89348182,1.93338354
65a97c769f2db2c7f246e5b5,43,0,2024-02-28T14:56:07.409Z,french_442.wav,0,poule,485,31,5,4,English,f,1,0.1,-90.19745983,0.1221368
65a97c769f2db2c7f246e5b5,43,0,2024-02-28T14:56:07.409Z,french_442.wav,0,poule,485,31,5,4,English,f,2,0.2,34.97525188,1.40375233
65a97c769f2db2c7f246e5b5,43,0,2024-02-28T14:56:07.409Z,french_442.wav,0,poule,485,31,5,4,English,f,3,0.3,-60.10498495,0.23715052
65a97c769f2db2c7f246e5b5,43,0,2024-02-28T14:56:07.409Z,french_442.wav,0,poule,485,31,5,4,English,f,4,0.4,-52.20535883,0.86935067
65a97c769f2db2c7f246e5b5,43,0,2024-02-28T14:56:07.409Z,french_442.wav,0,poule,485,31,5,4,English,f,5,0.5,33.32923329,1.40007492
65a97c769f2db2c7f246e5b5,43,0,2024-02-28T14:56:07.409Z,french_442.wav,0,poule,485,31,5,4,English,f,6,0.6,-72.02089693,1.87875592
65a97c769f2db2c7f246e5b5,43,0,2024-02-28T14:56:07.409Z,french_442.wav,0,poule,485,31,5,4,English,f,7,0.7,15.91732192,1.15703728
65a97c769f2db2c7f246e5b5,43,0,2024-02-28T14:56:07.409Z,french_442.wav,0,poule,485,31,5,4,English,f,8,0.8,49.50947125,1.45583236
65a97c769f2db2c7f246e5b5,43,0,2024-02-28T14:56:07.409Z,french_442.wav,0,poule,485,31,5,4,English,f,9,0.9,-96.72595223,0.52053121
65a97c769f2db2c7f246e5b5,43,0,2024-02-28T14:56:07.409Z,french_442.wav,0,poule,485,31,5,4,English,f,10,1.0,12.6942829,0.18849311
65a97c769f2db2c7f246e5b5,43,0,2024-02-28T14:56:07.409Z,french_442.wav,0,poule,485,31,5,4,English,f,11,1.1,-57.11899111,1.67578542
65a97c769f2db2c7f246e5b5,43,0,2024-02-28T14:56:07.409Z,french_442.wav,0,poule,485,31,5,4,English,f,12,1.14141667,36.89213251,0.36635536
65a97c769f2db2c7f246e5b5,44,0,2024-02-28T14:56:07.409Z,french_78.wav,0,poule,644,31,5,4,English,f,0,0.0,57.8432984,1.89318731
65a97c769f2db2c7f246e5b5,44,0,2024-02-28T14:56:07.409Z,french_78.wav,0,poule,644,31,5,4,English,f,1,0.1,70.4555337,1.32239381
65a97c769f2db2c7f246e5b5,44,0,2024-02-28T14:56:07.409Z,french_78.wav,0,poule,644,31,5,4,English,f,2,0.2,-91.9906274,1.51459028
65a97c769f2db2c7f246e5b5,44,0,2024-02-28T14:56:07.409Z,french_78.wav,0,poule,644,31,5,4,English,f,3,0.3,10.762767,0.85876673
65a97c769f2db2c7f246e5b5,44,0,2024-02-28T14:56:07.409Z,french_78.wav,0,poule,644,31,5,4,English,f,4,0.4,-7.4001704,0.55407005
65a97c769f2db2c7f246e5b5,44,0,2024-02-28T14:56:07.409Z,french_78.wav,0,poule,644,31,5,4,English,f,5,0.5,40.7751849,0.14412382
65a97c769f2db2c7f246e5b5,44,0,2024-02-28T14:56:07.409Z,french_78.wav,0,poule,644,31,5,4,English,f,6,0.6,5.24518169,1.84027889
65a97c769f2db2c7f246e5b5,44,0,2024-02-28T14:56:07.409Z,french_78.wav,0,poule,644,31,5,4,English,f,7,0.7,16.3081452,0.23745334
65a97c769f2db2c7f246e5b5,44,0,2024-02-28T14:56:07.409Z,french_78.wav,0,poule,644,31,5,4,English,f,8,0.8,34.4430788,1.6316856
65a97c769f2db2c7f246e5b5,44,0,2024-02-28T14:56:07.409Z,french_78.wav,0,poule,644,31,5,4,English,f,9,0.9,-61.4074175,1.07108834
65a97c769f2db2c7f246e5b5,44,0,2024-02-28T14:56:07.409Z,french_78.wav,0,poule,644,31,5,4,English,f,10,1.0,-29.1313338,0.46005232
65a97c769f2db2c7f246e5b5,44,0,2024-02-28T14:56:07.409Z,french_78.wav,0,poule,644,31,5,4,English,f,11,1.1,-80.3889644,0.50966126
65a97c769f2db2c7f246e5b5,44,0,2024-02-28T14:56:07.409Z,french_78.wav,0,poule,644,31,5,4,English,f,12,1.14141667,0.0737703972,0.5166272
65a97c769f2db2c7f246e5b5,45,0,2024-02-28T14:56:07.409Z,french_779.wav,0,pull,328,31,5,4,English,f,0,0.0,-38.28425878,1.14466513
65a97c769f2db2c7f246e5b5,45,0,2024-02-28T14:56:07.409Z,french_779.wav,0,pull,328,31,5,4,English,f,1,0.1,-19.73299362,1.60046318
65a97c769f2db2c7f246e5b5,45,0,2024-02-28T14:56:07.409Z,french_779.wav,0,pull,328,31,5,4,English,f,2,0.2,-1.63971334,0.66760831
65a97c769f2db2c7f246e5b5,45,0,2024-02-28T14:56:07.409Z,french_779.wav,0,pull,328,31,5,4,English,f,3,0.3,-13.00341001,1.70247529
65a97c769f2db2c7f246e5b5,45,0,2024-02-28T14:56:07.409Z,french_779.wav,0,pull,328,31,5,4,English,f,4,0.4,-18.58635516,0.17241517
65a97c769f2db2c7f246e5b5,45,0,2024-02-28T14:56:07.409Z,french_779.wav,0,pull,328,31,5,4,English,f,5,0.5,-89.98694193,1.76793656
65a97c769f2db2c7f246e5b5,45,0,2024-02-28T14:56:07.409Z,french_779.wav,0,pull,328,31,5,4,English,f,6,0.6,92.32758461,1.36679993
65a97c769f2db2c7f246e5b5,45,0,2024-02-28T14:56:07.409Z,french_779.wav,0,pull,328,31,5,4,English,f,7,0.7,-57.54469246,0.7012445
65a97c769f2db2c7f246e5b5,45,0,2024-02-28T14:56:07.409Z,french_779.wav,0,pull,328,31,5,4,English,f,8,0.8,-77.17429957,1.36817327
65a97c769f2db2c7f246e5b5,45,0,2024-02-28T14:56:07.409Z,french_779.wav,0,pull,328,31,5,4,English,f,9,0.9,-5.46434537,0.41680341
65a97c769f2db2c7f246e5b5,45,0,2024-02-28T14:56:07.409Z,french_779.wav,0,pull,328,31,5,4,English,f,10,1.0,-18.50514079,0.28529805
65a97c769f2db2c7f246e5b5,45,0,2024-02-28T14:56:07.409Z,french_779.wav,0,pull,328,31,5,4,English,f,11,1.1,-7.2649165,1.0076311
65a97c769f2db2c7f246e5b5,45,0,2024-02-28T14:56:07.409Z,french_779.wav,0,pull,328,31,5,4,English,f,12,1.14141667,-3.97761041,1.26738641
65a97c769f2db2c7f246e5b5,46,0,2024-02-28T14:56:07.409Z,french_310.wav,0,poule,230,31,5,4,English,f,0,0.0,17.56598639,1.12956977
65a97c769f2db2c7f246e5b5,46,0,2024-02-28T14:56:07.409Z,french_310.wav,0,poule,230,31,5,4,English,f,1,0.1,76.92128936,1.00648851
65a97c769f2db2c7f246e5b5,46,0,2024-02-28T14:56:07.409Z,french_310.wav,0,poule,230,31,5,4,English,f,2,0.2,-58.20509392,0.97784502
65a97c769f2db2c7f246e5b5,46,0,2024-02-28T14:56:07.409Z,french_310.wav,0,poule,230,31,5,4,English,f,3,0.3,83.85101429,1.32502708
65a97c769f2db2c7f246e5b5,46,0,2024-02-28T14:56:07.409Z,french_310.wav,0,poule,230,31,5,4,English,f,4,0.4,-30.03153984,1.31992976
65a97c769f2db2c7f246e5b5,46,0,2024-02-28T14:56:07.409Z,french_310.wav,0,poule,230,31,5,4,English,f,5,0.5,65.65347409,1.69425093
65a97c769f2db2c7f246e5b5,46,0,2024-02-28T14:56:07.409Z,french_310.wav,0,poule,230,31,5,4,English,f,6,0.6,-31.19085718,0.83891868
65a97c769f2db2c7f246e5b5,46,0,2024-02-28T14:56:07.409Z,french_310.wav,0,poule,230,31,5,4,English,f,7,0.7,13.20607402,0.55122583
65a97c769f2db2c7f246e5b5,46,0,2024-02-28T14:56:07.409Z,french_310.wav,0,poule,230,31,5,4,English,f,8,0.8,67.80059658,1.89433213
65a97c769f2db2c7f246e5b5,46,0,2024-02-28T14:56:07.409Z,french_310.wav,0,poule,230,31,5,4,English,f,9,0.9,-60.97564656,0.44162944
65a97c769f2db2c7f246e5b5,46,0,2024-02-28T14:56:07.409Z,french_310.wav,0,poule,230,31,5,4,English,f,10,1.0,-20.93273173,1.30621231
65a97c769f2db2c7f246e5b5,46,0,2024-02-28T14:56:07.409Z,french_310.wav,0,poule,230,31,5,4,English,f,11,1.1,9.82776434,1.40358407
65a97c769f2db2c7f246e5b5,46,0,2024-02-28T14:56:07.409Z,french_310.wav,0,poule,230,31,5,4,English,f,12,1.14141667,-83.18360608,0.62868818
65a97c769f2db2c7f246e5b5,47,0,2024-02-28T14:56:07.409Z,french_108.wav,0,pull,701,31,5,4,English,f,0,0.0,-15.71044219,1.73834837
65a97c769f2db2c7f246e5b5,47,0,2024-02-28T14:56:07.409Z,french_108.wav,0,pull,701,31,5,4,English,f,1,0.1,-24.07766933,0.57132816
65a97c769f2db2c7f246e5b5,47,0,2024-02-28T14:56:07.409Z,french_108.wav,0,pull,701,31,5,4,English,f,2,0.2,54.15275115,0.58357142
65a97c769f2db2c7f246e5b5,47,0,2024-02-28T14:56:07.409Z,french_108.wav,0,pull,701,31,5,4,English,f,3,0.3,-63.07502063,1.80514009
65a97c769f2db2c7f246e5b5,47,0,2024-02-28T14:56:07.409Z,french_108.wav,0,pull,701,31,5,4,English,f,4,0.4,24.68553203,0.34682793
65a97c769f2db2c7f246e5b5,47,0,2024-02-28T14:56:07.409Z,french_108.wav,0,pull,701,31,5,4,English,f,5,0.5,-82.74094911,1.15494377
65a97c769f2db2c7f246e5b5,47,0,2024-02-28T14:56:07.409Z,french_108.wav,0,pull,701,31,5,4,English,f,6,0.6,-79.1722737,0.83484864
65a97c769f2db2c7f246e5b5,47,0,2024-02-28T14:56:07.409Z,french_108.wav,0,pull,701,31,5,4,English,f,7,0.7,41.74110491,0.32346488
65a97c769f2db2c7f246e5b5,47,0,2024-02-28T14:56:07.409Z,french_108.wav,0,pull,701,31,5,4,English,f,8,0.8,95.04343592,0.4811934
65a97c769f2db2c7f246e5b5,47,0,2024-02-28T14:56:07.409Z,french_108.wav,0,pull,701,31,5,4,English,f,9,0.9,-75.98698192,1.39829932
65a97c769f2db2c7f246e5b5,47,0,2024-02-28T14:56:07.409Z,french_108.wav,0,pull,701,31,5,4,English,f,10,1.0,-28.48511945,0.07997607
65a97c769f2db2c7f246e5b5,47,0,2024-02-28T14:56:07.409Z,french_108.wav,0,pull,701,31,5,4,English,f,11,1.1,81.70330103,0.5267169
65a97c769f2db2c7f246e5b5,47,0,2024-02-28T14:56:07.409Z,french_108.wav,0,pull,701,31,5,4,English,f,12,1.14141667,-76.43032585,0.46271263
65a97c769f2db2c7f246e5b5,48,0,2024-02-28T14:56:07.409Z,french_922.wav,0,poule,283,31,5,4,English,f,0,0.0,12.46674982,0.57746347
65a97c769f2db2c7f246e5b5,48,0,2024-02-28T14:56:07.409Z,french_922.wav,0,poule,283,31,5,4,English,f,1,0.1,-79.89786138,0.8650421
65a97c769f2db2c7f246e5b5,48,0,2024-02-28T14:56:07.409Z,french_922.wav,0,poule,283,31,5,4,English,f,2,0.2,-4.61521998,0.20849304
65a97c769f2db2c7f246e5b5,48,0,2024-02-28T14:56:07.409Z,french_922.wav,0,poule,283,31,5,4,English,f,3,0.3,91.46456278,0.76246715
65a97c769f2db2c7f246e5b5,48,0,2024-02-28T14:56:07.409Z,french_922.wav,0,poule,283,31,5,4,English,f,4,0.4,66.10542235,1.57834721
65a97c769f2db2c7f246e5b5,48,0,2024-02-28T14:56:07.409Z,french_922.wav,0,poule,283,31,5,4,English,f,5,0.5,-49.76283836,0.91507953
65a97c769f2db2c7f246e5b5,48,0,2024-02-28T14:56:07.409Z,french_922.wav,0,poule,283,31,5,4,English,f,6,0.6,41.46937752,1.10585475
65a97c769f2db2c7f246e5b5,48,0,2024-02-28T14:56:07.409Z,french_922.wav,0,poule,283,31,5,4,English,f,7,0.7,20.02312911,1.04131091
65a97c769f2db2c7f246e5b5,48,0,2024-02-28T14:56:07.409Z,french_922.wav,0,poule,283,31,5,4,English,f,8,0.8,81.29824473,1.50751878
65a97c769f2db2c7f246e5b5,48,0,2024-02-28T14:56:07.409Z,french_922.wav,0,poule,283,31,5,4,English,f,9,0.9,-59.44217103,1.93127989
65a97c769f2db2c7f246e5b5,48,0,2024-02-28T14:56:07.409Z,french_922.wav,0,poule,283,31,5,4,English,f,10,1.0,5.16951821,0.72818346
65a97c769f2db2c7f246e5b5,48,0,2024-02-28T14:56:07.409Z,french_922.wav,0,poule,283,31,5,4,English,f,11,1.1,-66.60905263,0.43596025
65a97c769f2db2c7f246e5b5,48,0,2024-02-28T14:56:07.409Z,french_922.wav,0,poule,283,31,5,4,English,f,12,1.14141667,-85.60307989,1.41868461
65a97c769f2db2c7f246e5b5,49,0,2024-02-28T14:56:07.409Z,french_323.wav,0,poule,151,31,5,4,English,f,0,0.0,12.36986901,1.14236572
65a97c769f2db2c7f246e5b5,49,0,2024-02-28T14:56:07.409Z,french_323.wav,0,poule,151,31,5,4,English,f,1,0.1,48.82190283,0.38320847
65a97c769f2db2c7f246e5b5,49,0,2024-02-28T14:56:07.409Z,french_323.wav,0,poule,151,31,5,4,English,f,2,0.2,-1.79727253,1.79497165
65a97c769f2db2c7f246e5b5,49,0,2024-02-28T14:56:07.409Z,french_323.wav,0,poule,151,31,5,4,English,f,3,0.3,77.63750811,1.20829329
65a97c769f2db2c7f246e5b5,49,0,2024-02-28T14:56:07.409Z,french_323.wav,0,poule,151,31,5,4,English,f,4,0.4,-60.00496185,1.87271721
65a97c769f2db2c7f246e5b5,49,0,2024-02-28T14:56:07.409Z,french_323.wav,0,poule,151,31,5,4,English,f,5,0.5,-2.01076709,1.08235671
65a97c769f2db2c7f246e5b5,49,0,2024-02-28T14:56:07.409Z,french_323.wav,0,poule,151,31,5,4,English,f,6,0.6,-28.75884422,1.19118186
65a97c769f2db2c7f246e5b5,49,0,2024-02-28T14:56:07.409Z,french_323.wav,0,poule,151,31,5,4,English,f,7,0.7,22.62115314,1.38743172
65a97c769f2db2c7f246e5b5,49,0,2024-02-28T14:56:07.409Z,french_323.wav,0,poule,151,31,5,4,English,f,8,0.8,-2.37165969,1.90987729
65a97c769f2db2c7f246e5b5,49,0,2024-02-28T14:56:07.409Z,french_323.wav,0,poule,151,31,5,4,English,f,9,0.9,22.55401856,1.29939901
65a97c769f2db2c7f246e5b5,49,0,2024-02-28T14:56:07.409Z,french_323.wav,0,poule,151,31,5,4,English,f,10,1.0,43.0566967,1.04952512
65a97c769f2db2c7f246e5b5,49,0,2024-02-28T14:56:07.409Z,french_323.wav,0,poule,151,31,5,4,English,f,11,1.1,-33.43664636,1.67070777
65a97c769f2db2c7f246e5b5,49,0,2024-02-28T14:56:07.409Z,french_323.wav,0,poule,151,31,5,4,English,f,12,1.14141667,52.86099482,0.91951803
65a97c769f2db2c7f246e5b5,50,1,2024-02-28T14:56:07.409Z,french_820.wav,0,poule,267,31,5,4,English,f,0,0.0,2.20805213,0.81178605
65a97c769f2db2c7f246e5b5,50,1,2024-02-28T14:56:07.409Z,french_820.wav,0,poule,267,31,5,4,English,f,1,0.1,-90.51492195,0.34105584
65a97c769f2db2c7f246e5b5,50,1,2024-02-28T14:56:07.409Z,french_820.wav,0,poule,267,31,5,4,English,f,2,0.2,14.37438706,1.03419156
65a97c769f2db2c7f246e5b5,50,1,2024-02-28T14:56:07.409Z,french_820.wav,0,poule,267,31,5,4,English,f,3,0.3,48.7691056,1.3222317
65a97c769f2db2c7f246e5b5,50,1,2024-02-28T14:56:07.409Z,french_820.wav,0,poule,267,31,5,4,English,f,4,0.4,-26.19278003,0.6377532
65a97c769f2db2c7f246e5b5,50,1,2024-02-28T14:56:07.409Z,french_820.wav,0,poule,267,31,5,4,English,f,5,0.5,18.08357323,1.39628768
65a97c769f2db2c7f246e5b5,50,1,2024-02-28T14:56:07.409Z,french_820.wav,0,poule,267,31,5,4,English,f,6,0.6,82.28583292,1.53457958
65a97c769f2db2c7f246e5b5,50,1,2024-02-28T14:56:07.409Z,french_820.wav,0,poule,267,31,5,4,English,f,7,0.7,69.03631189,1.68460853
65a97c769f2db2c7f246e5b5,50,1,2024-02-28T14:56:07.409Z,french_820.wav,0,poule,267,31,5,4,English,f,8,0.8,27.35509958,1.6036494
65a97c769f2db2c7f246e5b5,50,1,2024-02-28T14:56:07.409Z,french_820.wav,0,poule,267,31,5,4,English,f,9,0.9,27.52320107,1.49572357
65a97c769f2db2c7f246e5b5,50,1,2024-02-28T14:56:07.409Z,french_820.wav,0,poule,267,31,5,4,English,f,10,1.0,-3.99788557,0.7318371
65a97c769f2db2c7f246e5b5,50,1,2024-02-28T14:56:07.409Z,french_820.wav,0,poule,267,31,5,4,English,f,11,1.1,54.09103587,0.77038849
65a97c769f2db2c7f246e5b5,50,1,2024-02-28T14:56:07.409Z,french_820.wav,0,poule,267,31,5,4,English,f,12,1.14141667,22.53021971,0.80738652
65a97c769f2db2c7f246e5b5,51,1,2024-02-28T14:56:07.409Z,french_822.wav,0,poule,344,31,5,4,English,f,0,0.0,52.54147999,0.93325917
65a97c769f2db2c7f246e5b5,51,1,2024-02-28T14:56:07.409Z,french_822.wav,0,poule,344,31,5,4,English,f,1,0.1,-34.80076399,1.09362596
65a97c769f2db2c7f246e5b5,51,1,2024-02-28T14:56:07.409Z,french_822.wav,0,poule,344,31,5,4,English,f,2,0.2,-60.83755875,0.48727308
65a97c769f2db2c7f246e5b5,51,1,2024-02-28T14:56:07.409Z,french_822.wav,0,poule,344,31,5,4,English,f,3,0.3,-65.01212878,0.00395146
65a97c769f2db2c7f246e5b5,51,1,2024-02-28T14:56:07.409Z,french_822.wav,0,poule,344,31,5,4,English,f,4,0.4,13.01315272,0.5790212
65a97c769f2db2c7f246e5b5,51,1,2024-02-28T14:56:07.409Z,french_822.wav,0,poule,344,31,5,4,English,f,5,0.5,-34.10316227,0.49917348
65a97c769f2db2c7f246e5b5,51,1,2024-02-28T14:56:07.409Z,french_822.wav,0,poule,344,31,5,4,English,f,6,0.6,19.83997407,0.91219053
65a97c769f2db2c7f246e5b5,51,1,2024-02-28T14:56:07.409Z,french_822.wav,0,poule,344,31,5,4,English,f,7,0.7,54.70956781,0.51258571
65a97c769f2db2c7f246e5b5,51,1,2024-02-28T14:56:07.409Z,french_822.wav,0,poule,344,31,5,4,English,f,8,0.8,73.16282267,1.36837206
65a97c769f2db2c7f246e5b5,51,1,2024-02-28T14:56:07.409Z,french_822.wav,0,poule,344,31,5,4,English,f,9,0.9,86.27533908,1.46633967
65a97c769f2db2c7f246e5b5,51,1,2024-02-28T14:56:07.409Z,french_822.wav,0,poule,344,31,5,4,English,f,10,1.0,-4.69139147,0.46786351
65a97c769f2db2c7f246e5b5,51,1,2024-02-28T14:56:07.409Z,french_822.wav,0,poule,344,31,5,4,English,f,11,1.1,4.7864382,1.33976917
65a97c769f2db2c7f246e5b5,51,1,2024-02-28T14:56:07.409Z,french_822.wav,0,poule,344,31,5,4,English,f,12,1.14141667,-72.38058155,1.00243629
65a97c769f2db2c7f246e5b5,52,1,2024-02-28T14:56:07.409Z,french_997.wav,0,pull,648,31,5,4,English,f,0,0.0,10.01615928,1.51695933
65a97c769f2db2c7f246e5b5,52,1,2024-02-28T14:56:07.409Z,french_997.wav,0,pull,648,31,5,4,English,f,1,0.1,-31.7574677,1.40378883
65a97c769f2db2c7f246e5b5,52,1,2024-02-28T14:56:07.409Z,french_997.wav,0,pull,648,31,5,4,English,f,2,0.2,2.7154438,1.52016823
65a97c769f2db2c7f246e5b5,52,1,2024-02-28T14:56:07.409Z,french_997.wav,0,pull,648,31,5,4,English,f,3,0.3,-79.91650454,1.1088133
65a97c769f2db2c7f246e5b5,52,1,2024-02-28T14:56:07.409Z,french_997.wav,0,pull,648,31,5,4,English,f,4,0.4,8.77466148,0.49857821
65a97c769f2db2c7f246e5b5,52,1,2024-02-28T14:56:07.409Z,french_997.wav,0,pull,648,31,5,4,English,f,5,0.5,-16.22256487,1.0829469
65a97c769f2db2c7f246e5b5,52,1,2024-02-28T14:56:07.409Z,french_997.wav,0,pull,648,31,5,4,English,f,6,0.6,-60.89392268,0.81899516
65a97c769f2db2c7f246e5b5,52,1,2024-02-28T14:56:07.409Z,french_997.wav,0,pull,648,31,5,4,English,f,7,0.7,-24.52842539,0.89305884
65a97c769f2db2c7f246e5b5,52,1,2024-02-28T14:56:07.409Z,french_997.wav,0,pull,648,31,5,4,English,f,8,0.8,-19.72610301,0.05024955
65a97c769f2db2c7f246e5b5,52,1,2024-02-28T14:56:07.409Z,french_997.wav,0,pull,648,31,5,4,English,f,9,0.9,-89.9387941,0.47019022
65a97c769f2db2c7f246e5b5,52,1,2024-02-28T14:56:07.409Z,french_997.wav,0,pull,648,31,5,4,English,f,10,1.0,38.50843253,0.78624029
65a97c769f2db2c7f246e5b5,52,1,2024-02-28T14:56:07.409Z,french_997.wav,0,pull,648,31,5,4,English,f,11,1.1,62.26606254,1.1092027
65a97c769f2db2c7f246e5b5,52,1,2024-02-28T14:56:07.409Z,french_997.wav,0,pull,648,31,5,4,English,f,12,1.14141667,46.03408292,0.99852276
65a97c769f2db2c7f246e5b5,53,1,2024-02-28T14:56:07.409Z,french_637.wav,0,poule,140,31,5,4,English,f,0,0.0,-31.08892402,0.60198854
65a97c769f2db2c7f246e5b5,53,1,2024-02-28T14:56:07.409Z,french_637.wav,0,poule,140,31,5,4,English,f,1,0.1,15.25602459,1.14825728
65a97c769f2db2c7f246e5b5,53,1,2024-02-28T14:56:07.409Z,french_637.wav,0,poule,140,31,5,4,English,f,2,0.2,-3.15023114,1.87909586
65a97c769f2db2c7f246e5b5,53,1,2024-02-28T14:56:07.409Z,french_637.wav,0,poule,140,31,5,4,English,f,3,0.3,40.81887351,0.13625986
65a97c769f2db2c7f246e5b5,53,1,2024-02-28T14:56:07.409Z,french_637.wav,0,poule,140,31,5,4,English,f,4,0.4,32.81586387,1.66395473
65a97c769f2db2c7f246e5b5,53,1,2024-02-28T14:56:07.409Z,french_637.wav,0,poule,140,31,5,4,English,f,5,0.5,21.08421584,0.72202939
65a97c769f2db2c7f246e5b5,53,1,2024-02-28T14:56:07.409Z,french_637.wav,0,poule,140,31,5,4,English,f,6,0.6,93.16874519,1.63866702
65a97c769f2db2c7f246e5b5,53,1,2024-02-28T14:56:07.409Z,french_637.wav,0,poule,140,31,5,4,English,f,7,0.7,-69.92672839,1.06181355
65a97c769f2db2c7f246e5b5,53,1,2024-02-28T14:56:07.409Z,french_637.wav,0,poule,140,31,5,4,English,f,8,0.8,-46.04583787,1.62661878
65a97c769f2db2c7f246e5b5,53,1,2024-02-28T14:56:07.409Z,french_637.wav,0,poule,140,31,5,4,English,f,9,0.9,22.60400214,1.30866952
65a97c769f2db2c7f246e5b5,53,1,2024-02-28T14:56:07.409Z,french_637.wav,0,poule,140,31,5,4,English,f,10,1.0,2.02681017,1.56125129
65a97c769f2db2c7f246e5b5,53,1,2024-02-28T14:56:07.409Z,french_637.wav,0,poule,140,31,5,4,English,f,11,1.1,5.86348535,1.66673134
65a97c769f2db2c7f246e5b5,53,1,2024-02-28T14:56:07.409Z,french_637.wav,0,poule,140,31,5,4,English,f,12,1.14141667,81.93949942,1.21110633
65a97c769f2db2c7f246e5b5,54,1,2024-02-28T14:56:07.409Z,french_402.wav,0,poule,301,31,5,4,English,f,0,0.0,43.60306148,1.57150394
65a97c769f2db2c7f246e5b5,54,1,2024-02-28T14:56:07.409Z,french_402.wav,0,poule,301,31,5,4,English,f,1,0.1,52.79449836,0.87803632
65a97c769f2db2c7f246e5b5,54,1,2024-02-28T14:56:07.409Z,french_402.wav,0,poule,301,31,5,4,English,f,2,0.2,-57.92795748,1.33772447
65a97c769f2db2c7f246e5b5,54,1,2024-02-28T14:56:07.409Z,french_402.wav,0,poule,301,31,5,4,English,f,3,0.3,-27.25508583,0.944537
65a97c769f2db2c7f246e5b5,54,1,2024-02-28T14:56:07.409Z,french_402.wav,0,poule,301,31,5,4,English,f,4,0.4,45.79346269,1.04797076
65a97c769f2db2c7f246e5b5,54,1,2024-02-28T14:56:07.409Z,french_402.wav,0,poule,301,31,5,4,English,f,5,0.5,-31.74582216,1.58716537
65a97c769f2db2c7f246e5b5,54,1,2024-02-28T14:56:07.409Z,french_402.wav,0,poule,301,31,5,4,English,f,6,0.6,-18.71060209,0.47386777
65a97c769f2db2c7f246e5b5,54,1,2024-02-28T14:56:07.409Z,french_402.wav,0,poule,301,31,5,4,English,f,7,0.7,-34.56488139,1.86309114
65a97c769f2db2c7f246e5b5,54,1,2024-02-28T14:56:07.409Z,french_402.wav,0,poule,301,31,5,4,English,f,8,0.8,50.02876186,1.98338729
65a97c769f2db2c7f246e5b5,54,1,2024-02-28T14:56:07.409Z,french_402.wav,0,poule,301,31,5,4,English,f,9,0.9,46.21312355,0.57664376
65a97c769f2db2c7f246e5b5,54,1,2024-02-28T14:56:07.409Z,french_402.wav,0,poule,301,31,5,4,English,f,10,1.0,-48.79450763,0.64923074
65a97c769f2db2c7f246e5b5,54,1,2024-02-28T14:56:07.409Z,french_402.wav,0,poule,301,31,5,4,English,f,11,1.1,41.96519938,1.02867805
65a97c769f2db2c7f246e5b5,54,1,2024-02-28T14:56:07.409Z,french_402.wav,0,poule,301,31,5,4,English,f,12,1.14141667,21.65174679,1.40556036
65a97c769f2db2c7f246e5b5,55,1,2024-02-28T14:56:07.409Z,french_636.wav,0,poule,399,31,5,4,English,f,0,0.0,-16.56410436,1.61556097
65a97c769f2db2c7f246e5b5,55,1,2024-02-28T14:56:07.409Z,french_636.wav,0,poule,399,31,5,4,English,f,1,0.1,70.24595691,0.49219237
65a97c769f2db2c7f246e5b5,55,1,2024-02-28T14:56:07.409Z,french_636.wav,0,poule,399,31,5,4,English,f,2,0.2,-51.74354505,1.30301808
65a97c769f2db2c7f246e5b5,55,1,2024-02-28T14:56:07.409Z,french_636.wav,0,poule,399,31,5,4,English,f,3,0.3,88.13406423,0.4471679
65a97c769f2db2c7f246e5b5,55,1,2024-02-28T14:56:07.409Z,french_636.wav,0,poule,399,31,5,4,English,f,4,0.4,-0.4732484,1.50761006
65a97c769f2db2c7f246e5b5,55,1,2024-02-28T14:56:07.409Z,french_636.wav,0,poule,399,31,5,4,English,f,5,0.5,57.62411687,1.5251536
65a97c769f2db2c7f246e5b5,55,1,2024-02-28T14:56:07.409Z,french_636.wav,0,poule,399,31,5,4,English,f,6,0.6,-36.50720668,1.12576917
65a97c769f2db2c7f246e5b5,55,1,2024-02-28T14:56:07.409Z,french_636.wav,0,poule,399,31,5,4,English,f,7,0.7,-7.60494341,0.79071462
65a97c769f2db2c7f246e5b5,55,1,2024-02-28T14:56:07.409Z,french_636.wav,0,poule,399,31,5,4,English,f,8,0.8,51.63976734,0.38242199
65a97c769f2db2c7f246e5b5,55,1,2024-02-28T14:56:07.409Z,french_636.wav,0,poule,399,31,5,4,English,f,9,0.9,-88.08154498,0.44977354
65a97c769f2db2c7f246e5b5,55,1,2024-02-28T14:56:07.409Z,french_636.wav,0,poule,399,31,5,4,English,f,10,1.0,-37.98759851,1.56154847
65a97c769f2db2c7f246e5b5,55,1,2024-02-28T14:56:07.409Z,french_636.wav,0,poule,399,31,5,4,English,f,11,1.1,1.76185322,1.40608087
65a97c769f2db2c7f246e5b5,55,1,2024-02-28T14:56:07.409Z,french_636.wav,0,poule,399,31,5,4,English,f,12,1.14141667,-25.89498673,0.18702721
65a97c769f2db2c7f246e5b5,56,1,2024-02-28T14:56:07.409Z,french_596.wav,0,poule,714,31,5,4,English,f,0,0.0,25.32476691,0.41173588
65a97c769f2db2c7f246e5b5,56,1,2024-02-28T14:56:07.409Z,french_596.wav,0,poule,714,31,5,4,English,f,1,0.1,44.36074842,1.74625808
65a97c769f2db2c7f246e5b5,56,1,2024-02-28T14:56:07.409Z,french_596.wav,0,poule,714,31,5,4,English,f,2,0.2,-34.00000172,0.12743898
65a97c769f2db2c7f246e5b5,56,1,2024-02-28T14:56:07.409Z,french_596.wav,0,poule,714,31,5,4,English,f,3,0.3,-83.97211332,1.08814614
65a97c769f2db2c7f246e5b5,56,1,2024-02-28T14:56:07.409Z,french_596.wav,0,poule,714,31,5,4,English,f,4,0.4,-67.81285243,1.40676606
65a97c769f2db2c7f246e5b5,56,1,2024-02-28T14:56:07.409Z,french_596.wav,0,poule,714,31,5,4,English,f,5,0.5,-47.23063602,1.58344919
65a97c769f2db2c7f246e5b5,56,1,2024-02-28T14:56:07.409Z,french_596.wav,0,poule,714,31,5,4,English,f,6,0.6,16.74337834,1.02150308
65a97c769f2db2c7f246e5b5,56,1,2024-02-28T14:56:07.409Z,french_596.wav,0,poule,714,31,5,4,English,f,7,0.7,8.70571627,0.52497255
65a97c769f2db2c7f246e5b5,56,1,2024-02-28T14:56:07.409Z,french_596.wav,0,poule,714,31,5,4,English,f,8,0.8,-11.2153712,1.52228575
65a97c769f2db2c7f246e5b5,56,1,2024-02-28T14:56:07.409Z,french_596.wav,0,poule,714,31,5,4,English,f,9,0.9,-38.44147327,0.06700932
65a97c769f2db2c7f246e5b5,56,1,2024-02-28T14:56:07.409Z,french_596.wav,0,poule,714,31,5,4,English,f,10,1.0,57.69114878,1.44433383
65a97c769f2db2c7f246e5b5,56,1,2024-02-28T14:56:07.409Z,french_596.wav,0,poule,714,31,5,4,English,f,11,1.1,50.03997699,0.49967239
65a97c769f2db2c7f246e5b5,56,1,2024-02-28T14:56:07.409Z,french_596.wav,0,poule,714,31,5,4,English,f,12,1.14141667,-17.41619031,0.57328506
65a97c769f2db2c7f246e5b5,57,1,2024-02-28T14:56:07.409Z,french_807.wav,0,pull,594,31,5,4,English,f,0,0.0,-80.44919657,1.01791128
65a97c769f2db2c7f246e5b5,57,1,2024-02-28T14:56:07.409Z,french_807.wav,0,pull,594,31,5,4,English,f,1,0.1,-34.48727533,0.51127266
65a97c769f2db2c7f246e5b5,57,1,2024-02-28T14:56:07.409Z,french_807.wav,0,pull,594,31,5,4,English,f,2,0.2,-27.85444657,1.03770419
65a97c769f2db2c7f246e5b5,57,1,2024-02-28T14:56:07.409Z,french_807.wav,0,pull,594,31,5,4,English,f,3,0.3,-0.73618666,1.5684914
65a97c769f2db2c7f246e5b5,57,1,2024-02-28T14:56:07.409Z,french_807.wav,0,pull,594,31,5,4,English,f,4,0.4,0.77626811,0.83417196
65a97c769f2db2c7f246e5b5,57,1,2024-02-28T14:56:07.409Z,french_807.wav,0,pull,594,31,5,4,English,f,5,0.5,-75.08426277,0.04387423
65a97c769f2db2c7f246e5b5,57,1,2024-02-28T14:56:07.409Z,french_807.wav,0,pull,594,31,5,4,English,f,6,0.6,20.03798274,0.37017036
65a97c769f2db2c7f246e5b5,57,1,2024-02-28T14:56:07.409Z,french_807.wav,0,pull,594,31,5,4,English,f,7,0.7,46.24294154,1.90217427
65a97c769f2db2c7f246e5b5,57,1,2024-02-28T14:56:07.409Z,french_807.wav,0,pull,594,31,5,4,English,f,8,0.8,22.03140958,0.74355786
65a97c769f2db2c7f246e5b5,57,1,2024-02-28T14:56:07.409Z,french_807.wav,0,pull,594,31,5,4,English,f,9,0.9,26.33483047,0.1834128
65a97c769f2db2c7f246e5b5,57,1,2024-02-28T14:56:07.409Z,french_807.wav,0,pull,594,31,5,4,English,f,10,1.0,-51.28476198,1.60996589
65a97c769f2db2c7f246e5b5,57,1,2024-02-28T14:56:07.409Z,french_807.wav,0,pull,594,31,5,4,English,f,11,1.1,-29.39920635,1.08150991
65a97c769f2db2c7f246e5b5,57,1,2024-02-28T14:56:07.409Z,french_807.wav,0,pull,594,31,5,4,English,f,12,1.14141667,1.31536819,0.63923462
65a97c769f2db2c7f246e5b5,58,1,2024-02-28T14:56:07.409Z,french_989.wav,0,pull,505,31,5,4,English,f,0,0.0,-44.41097931,1.1786245
65a97c769f2db2c7f246e5b5,58,1,2024-02-28T14:56:07.409Z,french_989.wav,0,pull,505,31,5,4,English,f,1,0.1,66.6460462,1.67818399
65a97c769f2db2c7f246e5b5,58,1,2024-02-28T14:56:07.409Z,french_989.wav,0,pull,505,31,5,4,English,f,2,0.2,-12.00930919,1.77767188
65a97c769f2db2c7f246e5b5,58,1,2024-02-28T14:56:07.409Z,french_989.wav,0,pull,505,31,5,4,English,f,3,0.3,18.31928104,0.42466345
65a97c769f2db2c7f246e5b5,58,1,2024-02-28T14:56:07.409Z,french_989.wav,0,pull,505,31,5,4,English,f,4,0.4,42.84827908,1.98594194
65a97c769f2db2c7f246e5b5,58,1,2024-02-28T14:56:07.409Z,french_989.wav,0,pull,505,31,5,4,English,f,5,0.5,39.43988164,0.94788839
65a97c769f2db2c7f246e5b5,58,1,2024-02-28T14:56:07.409Z,french_989.wav,0,pull,505,31,5,4,English,f,6,0.6,98.0897031,0.65021646
65a97c769f2db2c7f246e5b5,58,1,2024-02-28T14:56:07.409Z,french_989.wav,0,pull,505,31,5,4,English,f,7,0.7,73.07759931,1.41735588
65a97c769f2db2c7f246e5b5,58,1,2024-02-28T14:56:07.409Z,french_989.wav,0,pull,505,31,5,4,English,f,8,0.8,88.83528455,0.23014767
65a97c769f2db2c7f246e5b5,58,1,2024-02-28T14:56:07.409Z,french_989.wav,0,pull,505,31,5,4,English,f,9,0.9,-62.07438452,0.393141
65a97c769f2db2c7f246e5b5,58,1,2024-02-28T14:56:07.409Z,french_989.wav,0,pull,505,31,5,4,English,f,10,1.0,95.3416321,1.54796878
65a97c769f2db2c7f246e5b5,58,1,2024-02-28T14:56:07.409Z,french_989.wav,0,pull,505,31,5,4,English,f,11,1.1,72.09965955,0.59500938
65a97c769f2db2c7f246e5b5,58,1,2024-02-28T14:56:07.409Z,french_989.wav,0,pull,505,31,5,4,English,f,12,1.14141667,32.11352747,0.56774679
65a97c769f2db2c7f246e5b5,59,1,2024-02-28T14:56:07.409Z,french_589.wav,0,poule,150,31,5,4,English,f,0,0.0,-28.81572037,1.30386384
65a97c769f2db2c7f246e5b5,59,1,2024-02-28T14:56:07.409Z,french_589.wav,0,poule,150,31,5,4,English,f,1,0.1,-19.51196233,0.74133432
65a97c769f2db2c7f246e5b5,59,1,2024-02-28T14:56:07.409Z,french_589.wav,0,poule,150,31,5,4,English,f,2,0.2,25.83374801,1.49671777
65a97c769f2db2c7f246e5b5,59,1,2024-02-28T14:56:07.409Z,french_589.wav,0,poule,150,31,5,4,English,f,3,0.3,-10.48765522,1.87945415
65a97c769f2db2c7f246e5b5,59,1,2024-02-28T14:56:07.409Z,french_589.wav,0,poule,150,31,5,4,English,f,4,0.4,-3.03759246,0.36986056
65a97c769f2db2c7f246e5b5,59,1,2024-02-28T14:56:07.409Z,french_589.wav,0,poule,150,31,5,4,English,f,5,0.5,79.90675805,1.80845695
65a97c769f2db2c7f246e5b5,59,1,2024-02-28T14:56:07.409Z,french_589.wav,0,poule,150,31,5,4,English,f,6,0.6,76.74926762,0.51895627
65a97c769f2db2c7f246e5b5,59,1,2024-02-28T14:56:07.409Z,french_589.wav,0,poule,150,31,5,4,English,f,7,0.7,-44.25171618,1.19430918
65a97c769f2db2c7f246e5b5,59,1,2024-02-28T14:56:07.409Z,french_589.wav,0,poule,150,31,5,4,English,f,8,0.8,59.06100345,1.35945592
65a97c769f2db2c7f246e5b5,59,1,2024-02-28T14:56:07.409Z,french_589.wav,0,poule,150,31,5,4,English,f,9,0.9,-88.17253703,1.80478973
