subj,trial,block,date,stim,stim_order,response,rt,age,english,french,language,sex,param_index,segment,pitch,stretch
65bba4976e47d14ab32b61c8,0,0,2024-02-28T14:42:42.304Z,french_450.wav,0,pull,1962,30,5,4,English,f,0,0.0,4.70184188,1.04621454
65bba4976e47d14ab32b61c8,0,0,2024-02-28T14:42:42.304Z,french_450.wav,0,pull,1962,30,5,4,English,f,1,0.1,-11.95880563,1.88376194
65bba4976e47d14ab32b61c8,0,0,2024-02-28T14:42:42.304Z,french_450.wav,0,pull,1962,30,5,4,English,f,2,0.2,53.61985122,0.0064492
65bba4976e47d14ab32b61c8,0,0,2024-02-28T14:42:42.304Z,french_450.wav,0,pull,1962,30,5,4,English,f,3,0.3,-85.38293737,1.74804206
65bba4976e47d14ab32b61c8,0,0,2024-02-28T14:42:42.304Z,french_450.wav,0,pull,1962,30,5,4,English,f,4,0.4,81.03787429,1.15618938
65bba4976e47d14ab32b61c8,0,0,2024-02-28T14:42:42.304Z,french_450.wav,0,pull,1962,30,5,4,English,f,5,0.5,60.88142029,0.18145745
65bba4976e47d14ab32b61c8,0,0,2024-02-28T14:42:42.304Z,french_450.wav,0,pull,1962,30,5,4,English,f,6,0.6,51.15998741,0.89151946
65bba4976e47d14ab32b61c8,0,0,2024-02-28T14:42:42.304Z,french_450.wav,0,pull,1962,30,5,4,English,f,7,0.7,2.81982788,0.09457117
65bba4976e47d14ab32b61c8,0,0,2024-02-28T14:42:42.304Z,french_450.wav,0,pull,1962,30,5,4,English,f,8,0.8,-20.49721325,1.37408158
65bba4976e47d14ab32b61c8,0,0,2024-02-28T14:42:42.304Z,french_450.wav,0,pull,1962,30,5,4,English,f,9,0.9,53.84768168,0.40754462
65bba4976e47d14ab32b61c8,0,0,2024-02-28T14:42:42.304Z,french_450.wav,0,pull,1962,30,5,4,English,f,10,1.0,98.5663088,0.43615901
65bba4976e47d14ab32b61c8,0,0,2024-02-28T14:42:42.304Z,french_450.wav,0,pull,1962,30,5,4,English,f,11,1.1,-49.53483504,0.56531873
65bba4976e47d14ab32b61c8,0,0,2024-02-28T14:42:42.304Z,french_450.wav,0,pull,1962,30,5,4,English,f,12,1.14141667,-65.90212965,0.12479989
65bba4976e47d14ab32b61c8,1,0,2024-02-28T14:42:42.304Z,french_56.wav,0,poule,727,30,5,4,English,f,0,0.0,57.67582041,1.07499149
65bba4976e47d14ab32b61c8,1,0,2024-02-28T14:42:42.304Z,french_56.wav,0,poule,727,30,5,4,English,f,1,0.1,30.60683187,1.16004115
65bba4976e47d14ab32b61c8,1,0,2024-02-28T14:42:42.304Z,french_56.wav,0,poule,727,30,5,4,English,f,2,0.2,67.52262427,0.4342818
65bba4976e47d14ab32b61c8,1,0,2024-02-28T14:42:42.304Z,french_56.wav,0,poule,727,30,5,4,English,f,3,0.3,46.8365599,1.77949258
65bba4976e47d14ab32b61c8,1,0,2024-02-28T14:42:42.304Z,french_56.wav,0,poule,727,30,5,4,English,f,4,0.4,-1.01645681,1.14694495
65bba4976e47d14ab32b61c8,1,0,2024-02-28T14:42:42.304Z,french_56.wav,0,poule,727,30,5,4,English,f,5,0.5,-58.538187,0.2393662
65bba4976e47d14ab32b61c8,1,0,2024-02-28T14:42:42.304Z,french_56.wav,0,poule,727,30,5,4,English,f,6,0.6,10.91378016,0.50449479
65bba4976e47d14ab32b61c8,1,0,2024-02-28T14:42:42.304Z,french_56.wav,0,poule,727,30,5,4,English,f,7,0.7,-18.54635938,1.22580092
65bba4976e47d14ab32b61c8,1,0,2024-02-28T14:42:42.304Z,french_56.wav,0,poule,727,30,5,4,English,f,8,0.8,-51.46185887,1.46495703
65bba4976e47d14ab32b61c8,1,0,2024-02-28T14:42:42.304Z,french_56.wav,0,poule,727,30,5,4,English,f,9,0.9,-24.54774775,1.95127442
65bba4976e47d14ab32b61c8,1,0,2024-02-28T14:42:42.304Z,french_56.wav,0,poule,727,30,5,4,English,f,10,1.0,23.81493142,0.99233432
65bba4976e47d14ab32b61c8,1,0,2024-02-28T14:42:42.304Z,french_56.wav,0,poule,727,30,5,4,English,f,11,1.1,-98.28583734,1.14516037
65bba4976e47d14ab32b61c8,1,0,2024-02-28T14:42:42.304Z,french_56.wav,0,poule,727,30,5,4,English,f,12,1.14141667,-16.63951012,0.6161327
65bba4976e47d14ab32b61c8,2,0,2024-02-28T14:42:42.304Z,french_677.wav,0,pull,1987,30,5,4,English,f,0,0.0,-81.75795088,1.06306623
65bba4976e47d14ab32b61c8,2,0,2024-02-28T14:42:42.304Z,french_677.wav,0,pull,1987,30,5,4,English,f,1,0.1,54.46173738,0.74930959
65bba4976e47d14ab32b61c8,2,0,2024-02-28T14:42:42.304Z,french_677.wav,0,pull,1987,30,5,4,English,f,2,0.2,6.69922136,0.04838158
65bba4976e47d14ab32b61c8,2,0,2024-02-28T14:42:42.304Z,french_677.wav,0,pull,1987,30,5,4,English,f,3,0.3,67.41624154,0.22301941
65bba4976e47d14ab32b61c8,2,0,2024-02-28T14:42:42.304Z,french_677.wav,0,pull,1987,30,5,4,English,f,4,0.4,66.62029781,0.92539705
65bba4976e47d14ab32b61c8,2,0,2024-02-28T14:42:42.304Z,french_677.wav,0,pull,1987,30,5,4,English,f,5,0.5,-52.78569663,0.35060842
65bba4976e47d14ab32b61c8,2,0,2024-02-28T14:42:42.304Z,french_677.wav,0,pull,1987,30,5,4,English,f,6,0.6,-28.99630628,1.97850281
65bba4976e47d14ab32b61c8,2,0,2024-02-28T14:42:42.304Z,french_677.wav,0,pull,1987,30,5,4,English,f,7,0.7,-33.01266758,0.87949955
65bba4976e47d14ab32b61c8,2,0,2024-02-28T14:42:42.304Z,french_677.wav,0,pull,1987,30,5,4,English,f,8,0.8,50.32019814,1.56889624
65bba4976e47d14ab32b61c8,2,0,2024-02-28T14:42:42.304Z,french_677.wav,0,pull,1987,30,5,4,English,f,9,0.9,70.51424077,1.0179866
65bba4976e47d14ab32b61c8,2,0,2024-02-28T14:42:42.304Z,french_677.wav,0,pull,1987,30,5,4,English,f,10,1.0,80.64360457,0.88988566
65bba4976e47d14ab32b61c8,2,0,2024-02-28T14:42:42.304Z,french_677.wav,0,pull,1987,30,5,4,English,f,11,1.1,31.37722787,0.12807465
65bba4976e47d14ab32b61c8,2,0,2024-02-28T14:42:42.304Z,french_677.wav,0,pull,1987,30,5,4,English,f,12,1.14141667,28.37748626,0.82843843
65bba4976e47d14ab32b61c8,3,0,2024-02-28T14:42:42.304Z,french_501.wav,0,pull,1511,30,5,4,English,f,0,0.0,70.80325455,0.55356198
65bba4976e47d14ab32b61c8,3,0,2024-02-28T14:42:42.304Z,french_501.wav,0,pull,1511,30,5,4,English,f,1,0.1,32.99532509,0.17154651
65bba4976e47d14ab32b61c8,3,0,2024-02-28T14:42:42.304Z,french_501.wav,0,pull,1511,30,5,4,English,f,2,0.2,-59.91289339,0.72125866
65bba4976e47d14ab32b61c8,3,0,2024-02-28T14:42:42.304Z,french_501.wav,0,pull,1511,30,5,4,English,f,3,0.3,38.55218779,1.79487967
65bba4976e47d14ab32b61c8,3,0,2024-02-28T14:42:42.304Z,french_501.wav,0,pull,1511,30,5,4,English,f,4,0.4,41.33808145,1.32571503
65bba4976e47d14ab32b61c8,3,0,2024-02-28T14:42:42.304Z,french_501.wav,0,pull,1511,30,5,4,English,f,5,0.5,99.48150634,1.42540593
65bba4976e47d14ab32b61c8,3,0,2024-02-28T14:42:42.304Z,french_501.wav,0,pull,1511,30,5,4,English,f,6,0.6,-45.98669111,0.08406428
65bba4976e47d14ab32b61c8,3,0,2024-02-28T14:42:42.304Z,french_501.wav,0,pull,1511,30,5,4,English,f,7,0.7,-62.891142,0.07826428
65bba4976e47d14ab32b61c8,3,0,2024-02-28T14:42:42.304Z,french_501.wav,0,pull,1511,30,5,4,English,f,8,0.8,50.81821258,0.42577733
65bba4976e47d14ab32b61c8,3,0,2024-02-28T14:42:42.304Z,french_501.wav,0,pull,1511,30,5,4,English,f,9,0.9,-20.76584947,1.35097126
65bba4976e47d14ab32b61c8,3,0,2024-02-28T14:42:42.304Z,french_501.wav,0,pull,1511,30,5,4,English,f,10,1.0,61.69357739,0.3676293
65bba4976e47d14ab32b61c8,3,0,2024-02-28T14:42:42.304Z,french_501.wav,0,pull,1511,30,5,4,English,f,11,1.1,-40.14477821,0.57090448
65bba4976e47d14ab32b61c8,3,0,2024-02-28T14:42:42.304Z,french_501.wav,0,pull,1511,30,5,4,English,f,12,1.14141667,-46.23855813,0.88663615
65bba4976e47d14ab32b61c8,4,0,2024-02-28T14:42:42.304Z,french_516.wav,0,pull,1256,30,5,4,English,f,0,0.0,88.67453169,0.27330387
65bba4976e47d14ab32b61c8,4,0,2024-02-28T14:42:42.304Z,french_516.wav,0,pull,1256,30,5,4,English,f,1,0.1,-32.80281116,1.74934986
65bba4976e47d14ab32b61c8,4,0,2024-02-28T14:42:42.304Z,french_516.wav,0,pull,1256,30,5,4,English,f,2,0.2,70.97056018,0.3871866
65bba4976e47d14ab32b61c8,4,0,2024-02-28T14:42:42.304Z,french_516.wav,0,pull,1256,30,5,4,English,f,3,0.3,30.08988452,1.42397991
65bba4976e47d14ab32b61c8,4,0,2024-02-28T14:42:42.304Z,french_516.wav,0,pull,1256,30,5,4,English,f,4,0.4,24.3392461,0.38699984
65bba4976e47d14ab32b61c8,4,0,2024-02-28T14:42:42.304Z,french_516.wav,0,pull,1256,30,5,4,English,f,5,0.5,-13.33118715,1.44623849
65bba4976e47d14ab32b61c8,4,0,2024-02-28T14:42:42.304Z,french_516.wav,0,pull,1256,30,5,4,English,f,6,0.6,-31.56481899,1.53806255
65bba4976e47d14ab32b61c8,4,0,2024-02-28T14:42:42.304Z,french_516.wav,0,pull,1256,30,5,4,English,f,7,0.7,3.03144729,1.95923825
65bba4976e47d14ab32b61c8,4,0,2024-02-28T14:42:42.304Z,french_516.wav,0,pull,1256,30,5,4,English,f,8,0.8,98.28132693,0.23970082
65bba4976e47d14ab32b61c8,4,0,2024-02-28T14:42:42.304Z,french_516.wav,0,pull,1256,30,5,4,English,f,9,0.9,59.24424313,1.02137392
65bba4976e47d14ab32b61c8,4,0,2024-02-28T14:42:42.304Z,french_516.wav,0,pull,1256,30,5,4,English,f,10,1.0,-78.84052304,1.07914984
65bba4976e47d14ab32b61c8,4,0,2024-02-28T14:42:42.304Z,french_516.wav,0,pull,1256,30,5,4,English,f,11,1.1,33.79048953,0.23007882
65bba4976e47d14ab32b61c8,4,0,2024-02-28T14:42:42.304Z,french_516.wav,0,pull,1256,30,5,4,English,f,12,1.14141667,15.60736791,1.42555187
65bba4976e47d14ab32b61c8,5,0,2024-02-28T14:42:42.304Z,french_349.wav,0,pull,1759,30,5,4,English,f,0,0.0,-44.65226556,0.82110946
65bba4976e47d14ab32b61c8,5,0,2024-02-28T14:42:42.304Z,french_349.wav,0,pull,1759,30,5,4,English,f,1,0.1,63.7716246,1.29238655
65bba4976e47d14ab32b61c8,5,0,2024-02-28T14:42:42.304Z,french_349.wav,0,pull,1759,30,5,4,English,f,2,0.2,-40.5877969,1.24830198
65bba4976e47d14ab32b61c8,5,0,2024-02-28T14:42:42.304Z,french_349.wav,0,pull,1759,30,5,4,English,f,3,0.3,56.39404045,1.72338018
65bba4976e47d14ab32b61c8,5,0,2024-02-28T14:42:42.304Z,french_349.wav,0,pull,1759,30,5,4,English,f,4,0.4,17.11834734,1.66948329
65bba4976e47d14ab32b61c8,5,0,2024-02-28T14:42:42.304Z,french_349.wav,0,pull,1759,30,5,4,English,f,5,0.5,31.30487132,0.41749291
65bba4976e47d14ab32b61c8,5,0,2024-02-28T14:42:42.304Z,french_349.wav,0,pull,1759,30,5,4,English,f,6,0.6,12.25559696,1.60741276
65bba4976e47d14ab32b61c8,5,0,2024-02-28T14:42:42.304Z,french_349.wav,0,pull,1759,30,5,4,English,f,7,0.7,-78.06080167,0.20490345
65bba4976e47d14ab32b61c8,5,0,2024-02-28T14:42:42.304Z,french_349.wav,0,pull,1759,30,5,4,English,f,8,0.8,-59.74238255,0.10841314
65bba4976e47d14ab32b61c8,5,0,2024-02-28T14:42:42.304Z,french_349.wav,0,pull,1759,30,5,4,English,f,9,0.9,81.93828863,0.86358118
65bba4976e47d14ab32b61c8,5,0,2024-02-28T14:42:42.304Z,french_349.wav,0,pull,1759,30,5,4,English,f,10,1.0,77.73414233,0.87506779
65bba4976e47d14ab32b61c8,5,0,2024-02-28T14:42:42.304Z,french_349.wav,0,pull,1759,30,5,4,English,f,11,1.1,-22.21756019,1.54510759
65bba4976e47d14ab32b61c8,5,0,2024-02-28T14:42:42.304Z,french_349.wav,0,pull,1759,30,5,4,English,f,12,1.14141667,35.31130873,1.55475368
65bba4976e47d14ab32b61c8,6,0,2024-02-28T14:42:42.304Z,french_663.wav,0,pull,1230,30,5,4,English,f,0,0.0,-14.3254762,0.00837881
65bba4976e47d14ab32b61c8,6,0,2024-02-28T14:42:42.304Z,french_663.wav,0,pull,1230,30,5,4,English,f,1,0.1,19.63428116,1.01490054
65bba4976e47d14ab32b61c8,6,0,2024-02-28T14:42:42.304Z,french_663.wav,0,pull,1230,30,5,4,English,f,2,0.2,-91.68242216,1.87093457
65bba4976e47d14ab32b61c8,6,0,2024-02-28T14:42:42.304Z,french_663.wav,0,pull,1230,30,5,4,English,f,3,0.3,-41.82283925,1.17127261
65bba4976e47d14ab32b61c8,6,0,2024-02-28T14:42:42.304Z,french_663.wav,0,pull,1230,30,5,4,English,f,4,0.4,-72.80326657,1.68516013
65bba4976e47d14ab32b61c8,6,0,2024-02-28T14:42:42.304Z,french_663.wav,0,pull,1230,30,5,4,English,f,5,0.5,-12.3349336,0.32760374
65bba4976e47d14ab32b61c8,6,0,2024-02-28T14:42:42.304Z,french_663.wav,0,pull,1230,30,5,4,English,f,6,0.6,-15.30280268,1.68388895
65bba4976e47d14ab32b61c8,6,0,2024-02-28T14:42:42.304Z,french_663.wav,0,pull,1230,30,5,4,English,f,7,0.7,-15.66686259,1.95044404
65bba4976e47d14ab32b61c8,6,0,2024-02-28T14:42:42.304Z,french_663.wav,0,pull,1230,30,5,4,English,f,8,0.8,-77.03407899,0.77619086
65bba4976e47d14ab32b61c8,6,0,2024-02-28T14:42:42.304Z,french_663.wav,0,pull,1230,30,5,4,English,f,9,0.9,-25.15547903,0.62272065
65bba4976e47d14ab32b61c8,6,0,2024-02-28T14:42:42.304Z,french_663.wav,0,pull,1230,30,5,4,English,f,10,1.0,-56.91868761,0.1392137
65bba4976e47d14ab32b61c8,6,0,2024-02-28T14:42:42.304Z,french_663.wav,0,pull,1230,30,5,4,English,f,11,1.1,30.52061364,1.81424778
65bba4976e47d14ab32b61c8,6,0,2024-02-28T14:42:42.304Z,french_663.wav,0,pull,1230,30,5,4,English,f,12,1.14141667,-30.87664349,0.71279161
65bba4976e47d14ab32b61c8,7,0,2024-02-28T14:42:42.304Z,french_380.wav,0,pull,735,30,5,4,English,f,0,0.0,50.45877981,0.75315413
65bba4976e47d14ab32b61c8,7,0,2024-02-28T14:42:42.304Z,french_380.wav,0,pull,735,30,5,4,English,f,1,0.1,27.88432033,0.97702905
65bba4976e47d14ab32b61c8,7,0,2024-02-28T14:42:42.304Z,french_380.wav,0,pull,735,30,5,4,English,f,2,0.2,-34.53723027,0.7048892
65bba4976e47d14ab32b61c8,7,0,2024-02-28T14:42:42.304Z,french_380.wav,0,pull,735,30,5,4,English,f,3,0.3,-69.55895419,1.70478002
65bba4976e47d14ab32b61c8,7,0,2024-02-28T14:42:42.304Z,french_380.wav,0,pull,735,30,5,4,English,f,4,0.4,-28.41605157,1.71824888
65bba4976e47d14ab32b61c8,7,0,2024-02-28T14:42:42.304Z,french_380.wav,0,pull,735,30,5,4,English,f,5,0.5,25.67592844,1.0555026
65bba4976e47d14ab32b61c8,7,0,2024-02-28T14:42:42.304Z,french_380.wav,0,pull,735,30,5,4,English,f,6,0.6,-84.53806724,0.83070263
65bba4976e47d14ab32b61c8,7,0,2024-02-28T14:42:42.304Z,french_380.wav,0,pull,735,30,5,4,English,f,7,0.7,-49.89975605,0.38580216
65bba4976e47d14ab32b61c8,7,0,2024-02-28T14:42:42.304Z,french_380.wav,0,pull,735,30,5,4,English,f,8,0.8,75.71000255,1.32561889
65bba4976e47d14ab32b61c8,7,0,2024-02-28T14:42:42.304Z,french_380.wav,0,pull,735,30,5,4,English,f,9,0.9,30.16060778,0.45811506
65bba4976e47d14ab32b61c8,7,0,2024-02-28T14:42:42.304Z,french_380.wav,0,pull,735,30,5,4,English,f,10,1.0,-57.98795284,1.65372558
65bba4976e47d14ab32b61c8,7,0,2024-02-28T14:42:42.304Z,french_380.wav,0,pull,735,30,5,4,English,f,11,1.1,-9.14146098,0.02023169
65bba4976e47d14ab32b61c8,7,0,2024-02-28T14:42:42.304Z,french_380.wav,0,pull,735,30,5,4,English,f,12,1.14141667,61.49544023,0.39090817
65bba4976e47d14ab32b61c8,8,0,2024-02-28T14:42:42.304Z,french_195.wav,0,pull,1831,30,5,4,English,f,0,0.0,-94.44814465,1.01221837
65bba4976e47d14ab32b61c8,8,0,2024-02-28T14:42:42.304Z,french_195.wav,0,pull,1831,30,5,4,English,f,1,0.1,-8.36271039,1.79960209
65bba4976e47d14ab32b61c8,8,0,2024-02-28T14:42:42.304Z,french_195.wav,0,pull,1831,30,5,4,English,f,2,0.2,-97.87108345,1.85291705
65bba4976e47d14ab32b61c8,8,0,2024-02-28T14:42:42.304Z,french_195.wav,0,pull,1831,30,5,4,English,f,3,0.3,9.38810088,0.83034956
65bba4976e47d14ab32b61c8,8,0,2024-02-28T14:42:42.304Z,french_195.wav,0,pull,1831,30,5,4,English,f,4,0.4,-5.68639094,0.73814621
65bba4976e47d14ab32b61c8,8,0,2024-02-28T14:42:42.304Z,french_195.wav,0,pull,1831,30,5,4,English,f,5,0.5,-56.99964644,0.06268946
65bba4976e47d14ab32b61c8,8,0,2024-02-28T14:42:42.304Z,french_195.wav,0,pull,1831,30,5,4,English,f,6,0.6,-39.66675761,0.32946706
65bba4976e47d14ab32b61c8,8,0,2024-02-28T14:42:42.304Z,french_195.wav,0,pull,1831,30,5,4,English,f,7,0.7,-15.03436473,0.25786145
65bba4976e47d14ab32b61c8,8,0,2024-02-28T14:42:42.304Z,french_195.wav,0,pull,1831,30,5,4,English,f,8,0.8,-93.37490315,0.98424063
65bba4976e47d14ab32b61c8,8,0,2024-02-28T14:42:42.304Z,french_195.wav,0,pull,1831,30,5,4,English,f,9,0.9,-8.95214025,1.23440392
65bba4976e47d14ab32b61c8,8,0,2024-02-28T14:42:42.304Z,french_195.wav,0,pull,1831,30,5,4,English,f,10,1.0,-32.67851066,0.86929082
65bba4976e47d14ab32b61c8,8,0,2024-02-28T14:42:42.304Z,french_195.wav,0,pull,1831,30,5,4,English,f,11,1.1,93.76301079,0.24226685
65bba4976e47d14ab32b61c8,8,0,2024-02-28T14:42:42.304Z,french_195.wav,0,pull,1831,30,5,4,English,f,12,1.14141667,4.14523698,0.71121181
65bba4976e47d14ab32b61c8,9,0,2024-02-28T14:42:42.304Z,french_939.wav,0,poule,1004,30,5,4,English,f,0,0.0,68.2384799,0.18942364
65bba4976e47d14ab32b61c8,9,0,2024-02-28T14:42:42.304Z,french_939.wav,0,poule,1004,30,5,4,English,f,1,0.1,98.20525801,1.24422322
65bba4976e47d14ab32b61c8,9,0,2024-02-28T14:42:42.304Z,french_939.wav,0,poule,1004,30,5,4,English,f,2,0.2,-42.19761406,0.84726027
65bba4976e47d14ab32b61c8,9,0,2024-02-28T14:42:42.304Z,french_939.wav,0,poule,1004,30,5,4,English,f,3,0.3,43.17355225,0.63121745
65bba4976e47d14ab32b61c8,9,0,2024-02-28T14:42:42.304Z,french_939.wav,0,poule,1004,30,5,4,English,f,4,0.4,-14.96635905,1.39450382
65bba4976e47d14ab32b61c8,9,0,2024-02-28T14:42:42.304Z,french_939.wav,0,poule,1004,30,5,4,English,f,5,0.5,-43.49672798,1.83680784
65bba4976e47d14ab32b61c8,9,0,2024-02-28T14:42:42.304Z,french_939.wav,0,poule,1004,30,5,4,English,f,6,0.6,41.76813315,1.84374711
65bba4976e47d14ab32b61c8,9,0,2024-02-28T14:42:42.304Z,french_939.wav,0,poule,1004,30,5,4,English,f,7,0.7,88.36147994,0.72560086
65bba4976e47d14ab32b61c8,9,0,2024-02-28T14:42:42.304Z,french_939.wav,0,poule,1004,30,5,4,English,f,8,0.8,59.42037908,1.11819201
65bba4976e47d14ab32b61c8,9,0,2024-02-28T14:42:42.304Z,french_939.wav,0,poule,1004,30,5,4,English,f,9,0.9,86.723379,1.00539219
65bba4976e47d14ab32b61c8,9,0,2024-02-28T14:42:42.304Z,french_939.wav,0,poule,1004,30,5,4,English,f,10,1.0,-78.72989076,1.52240486
65bba4976e47d14ab32b61c8,9,0,2024-02-28T14:42:42.304Z,french_939.wav,0,poule,1004,30,5,4,English,f,11,1.1,-26.66254955,1.78566065
65bba4976e47d14ab32b61c8,9,0,2024-02-28T14:42:42.304Z,french_939.wav,0,poule,1004,30,5,4,English,f,12,1.14141667,-48.10200682,1.0817634
65bba4976e47d14ab32b61c8,10,0,2024-02-28T14:42:42.304Z,french_147.wav,0,poule,459,30,5,4,English,f,0,0.0,43.59768472,0.75883139
65bba4976e47d14ab32b61c8,10,0,2024-02-28T14:42:42.304Z,french_147.wav,0,poule,459,30,5,4,English,f,1,0.1,5.27615481,0.68857604
65bba4976e47d14ab32b61c8,10,0,2024-02-28T14:42:42.304Z,french_147.wav,0,poule,459,30,5,4,English,f,2,0.2,-44.61195544,1.03649149
65bba4976e47d14ab32b61c8,10,0,2024-02-28T14:42:42.304Z,french_147.wav,0,poule,459,30,5,4,English,f,3,0.3,-76.96509144,1.25844465
65bba4976e47d14ab32b61c8,10,0,2024-02-28T14:42:42.304Z,french_147.wav,0,poule,459,30,5,4,English,f,4,0.4,-32.44980634,0.35823479
65bba4976e47d14ab32b61c8,10,0,2024-02-28T14:42:42.304Z,french_147.wav,0,poule,459,30,5,4,English,f,5,0.5,70.43396506,1.36921243
65bba4976e47d14ab32b61c8,10,0,2024-02-28T14:42:42.304Z,french_147.wav,0,poule,459,30,5,4,English,f,6,0.6,-38.3254351,1.21356569
65bba4976e47d14ab32b61c8,10,0,2024-02-28T14:42:42.304Z,french_147.wav,0,poule,459,30,5,4,English,f,7,0.7,52.08578881,0.98986047
65bba4976e47d14ab32b61c8,10,0,2024-02-28T14:42:42.304Z,french_147.wav,0,poule,459,30,5,4,English,f,8,0.8,-28.17308576,1.9051095
65bba4976e47d14ab32b61c8,10,0,2024-02-28T14:42:42.304Z,french_147.wav,0,poule,459,30,5,4,English,f,9,0.9,-10.89832162,1.35815009
65bba4976e47d14ab32b61c8,10,0,2024-02-28T14:42:42.304Z,french_147.wav,0,poule,459,30,5,4,English,f,10,1.0,75.90492901,1.54610858
65bba4976e47d14ab32b61c8,10,0,2024-02-28T14:42:42.304Z,french_147.wav,0,poule,459,30,5,4,English,f,11,1.1,18.84686186,1.77017923
65bba4976e47d14ab32b61c8,10,0,2024-02-28T14:42:42.304Z,french_147.wav,0,poule,459,30,5,4,English,f,12,1.14141667,-70.82963066,1.1558003
65bba4976e47d14ab32b61c8,11,0,2024-02-28T14:42:42.304Z,french_320.wav,0,poule,499,30,5,4,English,f,0,0.0,29.0077802,1.65272351
65bba4976e47d14ab32b61c8,11,0,2024-02-28T14:42:42.304Z,french_320.wav,0,poule,499,30,5,4,English,f,1,0.1,57.10058807,1.38707965
65bba4976e47d14ab32b61c8,11,0,2024-02-28T14:42:42.304Z,french_320.wav,0,poule,499,30,5,4,English,f,2,0.2,-58.71455915,0.9425519
65bba4976e47d14ab32b61c8,11,0,2024-02-28T14:42:42.304Z,french_320.wav,0,poule,499,30,5,4,English,f,3,0.3,9.47208013,1.24337659
65bba4976e47d14ab32b61c8,11,0,2024-02-28T14:42:42.304Z,french_320.wav,0,poule,499,30,5,4,English,f,4,0.4,33.55679918,0.6156105
65bba4976e47d14ab32b61c8,11,0,2024-02-28T14:42:42.304Z,french_320.wav,0,poule,499,30,5,4,English,f,5,0.5,30.29342924,0.19227327
65bba4976e47d14ab32b61c8,11,0,2024-02-28T14:42:42.304Z,french_320.wav,0,poule,499,30,5,4,English,f,6,0.6,35.793456,1.76797578
65bba4976e47d14ab32b61c8,11,0,2024-02-28T14:42:42.304Z,french_320.wav,0,poule,499,30,5,4,English,f,7,0.7,48.27550343,1.38419028
65bba4976e47d14ab32b61c8,11,0,2024-02-28T14:42:42.304Z,french_320.wav,0,poule,499,30,5,4,English,f,8,0.8,2.54884744,0.97487745
65bba4976e47d14ab32b61c8,11,0,2024-02-28T14:42:42.304Z,french_320.wav,0,poule,499,30,5,4,English,f,9,0.9,11.92843599,1.02395527
65bba4976e47d14ab32b61c8,11,0,2024-02-28T14:42:42.304Z,french_320.wav,0,poule,499,30,5,4,English,f,10,1.0,-58.08388318,1.53932166
65bba4976e47d14ab32b61c8,11,0,2024-02-28T14:42:42.304Z,french_320.wav,0,poule,499,30,5,4,English,f,11,1.1,-15.70500576,1.67437481
65bba4976e47d14ab32b61c8,11,0,2024-02-28T14:42:42.304Z,french_320.wav,0,poule,499,30,5,4,English,f,12,1.14141667,2.2106655,0.12258709
65bba4976e47d14ab32b61c8,12,0,2024-02-28T14:42:42.304Z,french_813.wav,0,poule,733,30,5,4,English,f,0,0.0,69.06200067,0.29951512
65bba4976e47d14ab32b61c8,12,0,2024-02-28T14:42:42.304Z,french_813.wav,0,poule,733,30,5,4,English,f,1,0.1,-89.70899994,1.36224471
65bba4976e47d14ab32b61c8,12,0,2024-02-28T14:42:42.304Z,french_813.wav,0,poule,733,30,5,4,English,f,2,0.2,43.81572202,0.0293785
65bba4976e47d14ab32b61c8,12,0,2024-02-28T14:42:42.304Z,french_813.wav,0,poule,733,30,5,4,English,f,3,0.3,-41.50364765,0.51838794
65bba4976e47d14ab32b61c8,12,0,2024-02-28T14:42:42.304Z,french_813.wav,0,poule,733,30,5,4,English,f,4,0.4,-1.78342508,1.05299201
65bba4976e47d14ab32b61c8,12,0,2024-02-28T14:42:42.304Z,french_813.wav,0,poule,733,30,5,4,English,f,5,0.5,68.94891373,1.59518238
65bba4976e47d14ab32b61c8,12,0,2024-02-28T14:42:42.304Z,french_813.wav,0,poule,733,30,5,4,English,f,6,0.6,68.8332263,1.28929513
65bba4976e47d14ab32b61c8,12,0,2024-02-28T14:42:42.304Z,french_813.wav,0,poule,733,30,5,4,English,f,7,0.7,33.63190852,0.89312292
65bba4976e47d14ab32b61c8,12,0,2024-02-28T14:42:42.304Z,french_813.wav,0,poule,733,30,5,4,English,f,8,0.8,-9.29492587,1.36307198
65bba4976e47d14ab32b61c8,12,0,2024-02-28T14:42:42.304Z,french_813.wav,0,poule,733,30,5,4,English,f,9,0.9,-32.93979575,1.40459321
65bba4976e47d14ab32b61c8,12,0,2024-02-28T14:42:42.304Z,french_813.wav,0,poule,733,30,5,4,English,f,10,1.0,75.81334165,1.95945493
65bba4976e47d14ab32b61c8,12,0,2024-02-28T14:42:42.304Z,french_813.wav,0,poule,733,30,5,4,English,f,11,1.1,12.9737464,1.07635721
65bba4976e47d14ab32b61c8,12,0,2024-02-28T14:42:42.304Z,french_813.wav,0,poule,733,30,5,4,English,f,12,1.14141667,-25.28540764,0.2405844
65bba4976e47d14ab32b61c8,13,0,2024-02-28T14:42:42.304Z,french_559.wav,0,poule,492,30,5,4,English,f,0,0.0,-14.42029611,1.23408471
65bba4976e47d14ab32b61c8,13,0,2024-02-28T14:42:42.304Z,french_559.wav,0,poule,492,30,5,4,English,f,1,0.1,28.67475663,1.80811861
65bba4976e47d14ab32b61c8,13,0,2024-02-28T14:42:42.304Z,french_559.wav,0,poule,492,30,5,4,English,f,2,0.2,-10.69098094,1.85988062
65bba4976e47d14ab32b61c8,13,0,2024-02-28T14:42:42.304Z,french_559.wav,0,poule,492,30,5,4,English,f,3,0.3,-47.46593672,0.90719787
65bba4976e47d14ab32b61c8,13,0,2024-02-28T14:42:42.304Z,french_559.wav,0,poule,492,30,5,4,English,f,4,0.4,43.16156395,1.13141481
65bba4976e47d14ab32b61c8,13,0,2024-02-28T14:42:42.304Z,french_559.wav,0,poule,492,30,5,4,English,f,5,0.5,57.11143113,0.58828345
65bba4976e47d14ab32b61c8,13,0,2024-02-28T14:42:42.304Z,french_559.wav,0,poule,492,30,5,4,English,f,6,0.6,-45.28377667,0.30017759
65bba4976e47d14ab32b61c8,13,0,2024-02-28T14:42:42.304Z,french_559.wav,0,poule,492,30,5,4,English,f,7,0.7,-54.78237938,0.89395728
65bba4976e47d14ab32b61c8,13,0,2024-02-28T14:42:42.304Z,french_559.wav,0,poule,492,30,5,4,English,f,8,0.8,24.41772985,0.9701135
65bba4976e47d14ab32b61c8,13,0,2024-02-28T14:42:42.304Z,french_559.wav,0,poule,492,30,5,4,English,f,9,0.9,15.93727808,0.6057297
65bba4976e47d14ab32b61c8,13,0,2024-02-28T14:42:42.304Z,french_559.wav,0,poule,492,30,5,4,English,f,10,1.0,-26.3191602,0.62833792
65bba4976e47d14ab32b61c8,13,0,2024-02-28T14:42:42.304Z,french_559.wav,0,poule,492,30,5,4,English,f,11,1.1,-74.63017761,0.58823101
65bba4976e47d14ab32b61c8,13,0,2024-02-28T14:42:42.304Z,french_559.wav,0,poule,492,30,5,4,English,f,12,1.14141667,-25.04168119,0.87162881
65bba4976e47d14ab32b61c8,14,0,2024-02-28T14:42:42.304Z,french_322.wav,0,poule,669,30,5,4,English,f,0,0.0,-81.99226752,0.33237875
65bba4976e47d14ab32b61c8,14,0,2024-02-28T14:42:42.304Z,french_322.wav,0,poule,669,30,5,4,English,f,1,0.1,-16.25129178,0.72135109
65bba4976e47d14ab32b61c8,14,0,2024-02-28T14:42:42.304Z,french_322.wav,0,poule,669,30,5,4,English,f,2,0.2,77.06508594,0.96980376
65bba4976e47d14ab32b61c8,14,0,2024-02-28T14:42:42.304Z,french_322.wav,0,poule,669,30,5,4,English,f,3,0.3,12.75051586,1.06597661
65bba4976e47d14ab32b61c8,14,0,2024-02-28T14:42:42.304Z,french_322.wav,0,poule,669,30,5,4,English,f,4,0.4,-2.0376552,1.07158825
65bba4976e47d14ab32b61c8,14,0,2024-02-28T14:42:42.304Z,french_322.wav,0,poule,669,30,5,4,English,f,5,0.5,-5.71647667,1.39619748
65bba4976e47d14ab32b61c8,14,0,2024-02-28T14:42:42.304Z,french_322.wav,0,poule,669,30,5,4,English,f,6,0.6,-62.06437541,0.15574445
65bba4976e47d14ab32b61c8,14,0,2024-02-28T14:42:42.304Z,french_322.wav,0,poule,669,30,5,4,English,f,7,0.7,-59.15199876,0.12302604
65bba4976e47d14ab32b61c8,14,0,2024-02-28T14:42:42.304Z,french_322.wav,0,poule,669,30,5,4,English,f,8,0.8,92.65104506,0.08626149
65bba4976e47d14ab32b61c8,14,0,2024-02-28T14:42:42.304Z,french_322.wav,0,poule,669,30,5,4,English,f,9,0.9,72.15580193,1.15982636
65bba4976e47d14ab32b61c8,14,0,2024-02-28T14:42:42.304Z,french_322.wav,0,poule,669,30,5,4,English,f,10,1.0,-28.04007557,1.64250981
65bba4976e47d14ab32b61c8,14,0,2024-02-28T14:42:42.304Z,french_322.wav,0,poule,669,30,5,4,English,f,11,1.1,-81.41529634,0.51319454
65bba4976e47d14ab32b61c8,14,0,2024-02-28T14:42:42.304Z,french_322.wav,0,poule,669,30,5,4,English,f,12,1.14141667,42.64256197,1.79464726
65bba4976e47d14ab32b61c8,15,0,2024-02-28T14:42:42.304Z,french_11.wav,0,poule,476,30,5,4,English,f,0,0.0,-53.97722238,1.09610164
65bba4976e47d14ab32b61c8,15,0,2024-02-28T14:42:42.304Z,french_11.wav,0,poule,476,30,5,4,English,f,1,0.1,-31.21118385,0.22350944
65bba4976e47d14ab32b61c8,15,0,2024-02-28T14:42:42.304Z,french_11.wav,0,poule,476,30,5,4,English,f,2,0.2,-36.80951357,1.00123418
65bba4976e47d14ab32b61c8,15,0,2024-02-28T14:42:42.304Z,french_11.wav,0,poule,476,30,5,4,English,f,3,0.3,-95.45532381,0.87401162
65bba4976e47d14ab32b61c8,15,0,2024-02-28T14:42:42.304Z,french_11.wav,0,poule,476,30,5,4,English,f,4,0.4,58.15480481,0.20703956
65bba4976e47d14ab32b61c8,15,0,2024-02-28T14:42:42.304Z,french_11.wav,0,poule,476,30,5,4,English,f,5,0.5,71.015522,0.5150991
65bba4976e47d14ab32b61c8,15,0,2024-02-28T14:42:42.304Z,french_11.wav,0,poule,476,30,5,4,English,f,6,0.6,65.59713254,1.3674314
65bba4976e47d14ab32b61c8,15,0,2024-02-28T14:42:42.304Z,french_11.wav,0,poule,476,30,5,4,English,f,7,0.7,10.73762905,0.96376634
65bba4976e47d14ab32b61c8,15,0,2024-02-28T14:42:42.304Z,french_11.wav,0,poule,476,30,5,4,English,f,8,0.8,28.00448009,0.85790612
65bba4976e47d14ab32b61c8,15,0,2024-02-28T14:42:42.304Z,french_11.wav,0,poule,476,30,5,4,English,f,9,0.9,-7.76276887,1.59940673
65bba4976e47d14ab32b61c8,15,0,2024-02-28T14:42:42.304Z,french_11.wav,0,poule,476,30,5,4,English,f,10,1.0,39.23656931,0.40281071
65bba4976e47d14ab32b61c8,15,0,2024-02-28T14:42:42.304Z,french_11.wav,0,poule,476,30,5,4,English,f,11,1.1,-90.22036196,1.59018171
65bba4976e47d14ab32b61c8,15,0,2024-02-28T14:42:42.304Z,french_11.wav,0,poule,476,30,5,4,English,f,12,1.14141667,-39.83688041,1.67678977
65bba4976e47d14ab32b61c8,16,0,2024-02-28T14:42:42.304Z,french_366.wav,0,poule,418,30,5,4,English,f,0,0.0,-14.82855427,1.76609292
65bba4976e47d14ab32b61c8,16,0,2024-02-28T14:42:42.304Z,french_366.wav,0,poule,418,30,5,4,English,f,1,0.1,6.72271479,1.92050992
65bba4976e47d14ab32b61c8,16,0,2024-02-28T14:42:42.304Z,french_366.wav,0,poule,418,30,5,4,English,f,2,0.2,20.98041557,1.73177778
65bba4976e47d14ab32b61c8,16,0,2024-02-28T14:42:42.304Z,french_366.wav,0,poule,418,30,5,4,English,f,3,0.3,-60.55291721,1.26737092
65bba4976e47d14ab32b61c8,16,0,2024-02-28T14:42:42.304Z,french_366.wav,0,poule,418,30,5,4,English,f,4,0.4,-24.10338385,0.4259994
65bba4976e47d14ab32b61c8,16,0,2024-02-28T14:42:42.304Z,french_366.wav,0,poule,418,30,5,4,English,f,5,0.5,-69.76829459,1.00032811
65bba4976e47d14ab32b61c8,16,0,2024-02-28T14:42:42.304Z,french_366.wav,0,poule,418,30,5,4,English,f,6,0.6,50.41424091,0.65568415
65bba4976e47d14ab32b61c8,16,0,2024-02-28T14:42:42.304Z,french_366.wav,0,poule,418,30,5,4,English,f,7,0.7,41.13803583,1.05912354
65bba4976e47d14ab32b61c8,16,0,2024-02-28T14:42:42.304Z,french_366.wav,0,poule,418,30,5,4,English,f,8,0.8,-66.63492444,1.41038374
65bba4976e47d14ab32b61c8,16,0,2024-02-28T14:42:42.304Z,french_366.wav,0,poule,418,30,5,4,English,f,9,0.9,32.77552682,1.87071781
65bba4976e47d14ab32b61c8,16,0,2024-02-28T14:42:42.304Z,french_366.wav,0,poule,418,30,5,4,English,f,10,1.0,-61.45161975,0.72148135
65bba4976e47d14ab32b61c8,16,0,2024-02-28T14:42:42.304Z,french_366.wav,0,poule,418,30,5,4,English,f,11,1.1,16.76057171,1.47966224
65bba4976e47d14ab32b61c8,16,0,2024-02-28T14:42:42.304Z,french_366.wav,0,poule,418,30,5,4,English,f,12,1.14141667,47.11341698,1.22067671
65bba4976e47d14ab32b61c8,17,0,2024-02-28T14:42:42.304Z,french_746.wav,0,poule,232,30,5,4,English,f,0,0.0,90.23256386,1.50268963
65bba4976e47d14ab32b61c8,17,0,2024-02-28T14:42:42.304Z,french_746.wav,0,poule,232,30,5,4,English,f,1,0.1,-88.22192177,1.93803066
65bba4976e47d14ab32b61c8,17,0,2024-02-28T14:42:42.304Z,french_746.wav,0,poule,232,30,5,4,English,f,2,0.2,36.08058207,0.38306992
65bba4976e47d14ab32b61c8,17,0,2024-02-28T14:42:42.304Z,french_746.wav,0,poule,232,30,5,4,English,f,3,0.3,53.20574484,0.27079159
65bba4976e47d14ab32b61c8,17,0,2024-02-28T14:42:42.304Z,french_746.wav,0,poule,232,30,5,4,English,f,4,0.4,-53.48533356,1.49666029
65bba4976e47d14ab32b61c8,17,0,2024-02-28T14:42:42.304Z,french_746.wav,0,poule,232,30,5,4,English,f,5,0.5,-12.04471186,1.04483491
65bba4976e47d14ab32b61c8,17,0,2024-02-28T14:42:42.304Z,french_746.wav,0,poule,232,30,5,4,English,f,6,0.6,95.49693434,0.40549233
65bba4976e47d14ab32b61c8,17,0,2024-02-28T14:42:42.304Z,french_746.wav,0,poule,232,30,5,4,English,f,7,0.7,95.81637856,1.4005816
65bba4976e47d14ab32b61c8,17,0,2024-02-28T14:42:42.304Z,french_746.wav,0,poule,232,30,5,4,English,f,8,0.8,47.59417509,1.55234369
65bba4976e47d14ab32b61c8,17,0,2024-02-28T14:42:42.304Z,french_746.wav,0,poule,232,30,5,4,English,f,9,0.9,46.98416357,0.7227623
65bba4976e47d14ab32b61c8,17,0,2024-02-28T14:42:42.304Z,french_746.wav,0,poule,232,30,5,4,English,f,10,1.0,-29.62731829,0.07092525
65bba4976e47d14ab32b61c8,17,0,2024-02-28T14:42:42.304Z,french_746.wav,0,poule,232,30,5,4,English,f,11,1.1,-23.23692929,1.38353686
65bba4976e47d14ab32b61c8,17,0,2024-02-28T14:42:42.304Z,french_746.wav,0,poule,232,30,5,4,English,f,12,1.14141667,-48.70417272,1.86039409
65bba4976e47d14ab32b61c8,18,0,2024-02-28T14:42:42.304Z,french_494.wav,0,pull,908,30,5,4,English,f,0,0.0,-63.06404362,1.09976962
65bba4976e47d14ab32b61c8,18,0,2024-02-28T14:42:42.304Z,french_494.wav,0,pull,908,30,5,4,English,f,1,0.1,96.51347021,1.87842448
65bba4976e47d14ab32b61c8,18,0,2024-02-28T14:42:42.304Z,french_494.wav,0,pull,908,30,5,4,English,f,2,0.2,-2.42253065,1.92383282
65bba4976e47d14ab32b61c8,18,0,2024-02-28T14:42:42.304Z,french_494.wav,0,pull,908,30,5,4,English,f,3,0.3,-48.75339143,1.77831814
65bba4976e47d14ab32b61c8,18,0,2024-02-28T14:42:42.304Z,french_494.wav,0,pull,908,30,5,4,English,f,4,0.4,-24.81746908,0.55991085
65bba4976e47d14ab32b61c8,18,0,2024-02-28T14:42:42.304Z,french_494.wav,0,pull,908,30,5,4,English,f,5,0.5,48.2850129,1.16635493
65bba4976e47d14ab32b61c8,18,0,2024-02-28T14:42:42.304Z,french_494.wav,0,pull,908,30,5,4,English,f,6,0.6,54.45085632,1.39460853
65bba4976e47d14ab32b61c8,18,0,2024-02-28T14:42:42.304Z,french_494.wav,0,pull,908,30,5,4,English,f,7,0.7,-83.01359294,1.30103041
65bba4976e47d14ab32b61c8,18,0,2024-02-28T14:42:42.304Z,french_494.wav,0,pull,908,30,5,4,English,f,8,0.8,-84.59229686,1.62563762
65bba4976e47d14ab32b61c8,18,0,2024-02-28T14:42:42.304Z,french_494.wav,0,pull,908,30,5,4,English,f,9,0.9,-65.14189239,0.22506805
65bba4976e47d14ab32b61c8,18,0,2024-02-28T14:42:42.304Z,french_494.wav,0,pull,908,30,5,4,English,f,10,1.0,-11.3391069,0.45947007
65bba4976e47d14ab32b61c8,18,0,2024-02-28T14:42:42.304Z,french_494.wav,0,pull,908,30,5,4,English,f,11,1.1,78.07442638,0.29396602
65bba4976e47d14ab32b61c8,18,0,2024-02-28T14:42:42.304Z,french_494.wav,0,pull,908,30,5,4,English,f,12,1.14141667,-31.23345007,0.46095403
65bba4976e47d14ab32b61c8,19,0,2024-02-28T14:42:42.304Z,french_935.wav,0,poule,488,30,5,4,English,f,0,0.0,26.69857266,1.12236926
65bba4976e47d14ab32b61c8,19,0,2024-02-28T14:42:42.304Z,french_935.wav,0,poule,488,30,5,4,English,f,1,0.1,9.94418011,0.76599693
65bba4976e47d14ab32b61c8,19,0,2024-02-28T14:42:42.304Z,french_935.wav,0,poule,488,30,5,4,English,f,2,0.2,44.98404386,0.3009369
65bba4976e47d14ab32b61c8,19,0,2024-02-28T14:42:42.304Z,french_935.wav,0,poule,488,30,5,4,English,f,3,0.3,-98.12644395,1.55949083
65bba4976e47d14ab32b61c8,19,0,2024-02-28T14:42:42.304Z,french_935.wav,0,poule,488,30,5,4,English,f,4,0.4,37.12087269,0.53284928
65bba4976e47d14ab32b61c8,19,0,2024-02-28T14:42:42.304Z,french_935.wav,0,poule,488,30,5,4,English,f,5,0.5,-81.40581923,1.95951797
65bba4976e47d14ab32b61c8,19,0,2024-02-28T14:42:42.304Z,french_935.wav,0,poule,488,30,5,4,English,f,6,0.6,64.6052522,0.96662214
65bba4976e47d14ab32b61c8,19,0,2024-02-28T14:42:42.304Z,french_935.wav,0,poule,488,30,5,4,English,f,7,0.7,94.38923904,0.81174476
65bba4976e47d14ab32b61c8,19,0,2024-02-28T14:42:42.304Z,french_935.wav,0,poule,488,30,5,4,English,f,8,0.8,56.19817136,0.68386577
65bba4976e47d14ab32b61c8,19,0,2024-02-28T14:42:42.304Z,french_935.wav,0,poule,488,30,5,4,English,f,9,0.9,7.16328663,1.42510328
65bba4976e47d14ab32b61c8,19,0,2024-02-28T14:42:42.304Z,french_935.wav,0,poule,488,30,5,4,English,f,10,1.0,27.44347809,1.00433894
65bba4976e47d14ab32b61c8,19,0,2024-02-28T14:42:42.304Z,french_935.wav,0,poule,488,30,5,4,English,f,11,1.1,-88.88086105,0.8579456
65bba4976e47d14ab32b61c8,19,0,2024-02-28T14:42:42.304Z,french_935.wav,0,poule,488,30,5,4,English,f,12,1.14141667,-79.20081415,0.03750384
65bba4976e47d14ab32b61c8,20,0,2024-02-28T14:42:42.304Z,french_127.wav,0,poule,957,30,5,4,English,f,0,0.0,-25.4765825,1.86849076
65bba4976e47d14ab32b61c8,20,0,2024-02-28T14:42:42.304Z,french_127.wav,0,poule,957,30,5,4,English,f,1,0.1,14.81939225,0.37230999
65bba4976e47d14ab32b61c8,20,0,2024-02-28T14:42:42.304Z,french_127.wav,0,poule,957,30,5,4,English,f,2,0.2,33.31699213,1.43229306
65bba4976e47d14ab32b61c8,20,0,2024-02-28T14:42:42.304Z,french_127.wav,0,poule,957,30,5,4,English,f,3,0.3,32.99480683,0.30773693
65bba4976e47d14ab32b61c8,20,0,2024-02-28T14:42:42.304Z,french_127.wav,0,poule,957,30,5,4,English,f,4,0.4,55.9687814,0.96658018
65bba4976e47d14ab32b61c8,20,0,2024-02-28T14:42:42.304Z,french_127.wav,0,poule,957,30,5,4,English,f,5,0.5,-60.05937221,1.56631755
65bba4976e47d14ab32b61c8,20,0,2024-02-28T14:42:42.304Z,french_127.wav,0,poule,957,30,5,4,English,f,6,0.6,-6.02185059,0.24452193
65bba4976e47d14ab32b61c8,20,0,2024-02-28T14:42:42.304Z,french_127.wav,0,poule,957,30,5,4,English,f,7,0.7,28.79206833,1.19466453
65bba4976e47d14ab32b61c8,20,0,2024-02-28T14:42:42.304Z,french_127.wav,0,poule,957,30,5,4,English,f,8,0.8,-40.00047798,0.64871246
65bba4976e47d14ab32b61c8,20,0,2024-02-28T14:42:42.304Z,french_127.wav,0,poule,957,30,5,4,English,f,9,0.9,-39.73148581,0.51931886
65bba4976e47d14ab32b61c8,20,0,2024-02-28T14:42:42.304Z,french_127.wav,0,poule,957,30,5,4,English,f,10,1.0,-55.92636679,1.20675115
65bba4976e47d14ab32b61c8,20,0,2024-02-28T14:42:42.304Z,french_127.wav,0,poule,957,30,5,4,English,f,11,1.1,-44.00391782,1.57427199
65bba4976e47d14ab32b61c8,20,0,2024-02-28T14:42:42.304Z,french_127.wav,0,poule,957,30,5,4,English,f,12,1.14141667,15.39125348,0.90312808
65bba4976e47d14ab32b61c8,21,0,2024-02-28T14:42:42.304Z,french_427.wav,0,pull,1861,30,5,4,English,f,0,0.0,-48.41701503,1.56219766
65bba4976e47d14ab32b61c8,21,0,2024-02-28T14:42:42.304Z,french_427.wav,0,pull,1861,30,5,4,English,f,1,0.1,-28.57986094,0.39739554
65bba4976e47d14ab32b61c8,21,0,2024-02-28T14:42:42.304Z,french_427.wav,0,pull,1861,30,5,4,English,f,2,0.2,0.90581005,1.12963232
65bba4976e47d14ab32b61c8,21,0,2024-02-28T14:42:42.304Z,french_427.wav,0,pull,1861,30,5,4,English,f,3,0.3,19.09912814,0.41932749
65bba4976e47d14ab32b61c8,21,0,2024-02-28T14:42:42.304Z,french_427.wav,0,pull,1861,30,5,4,English,f,4,0.4,82.05766861,1.84938579
65bba4976e47d14ab32b61c8,21,0,2024-02-28T14:42:42.304Z,french_427.wav,0,pull,1861,30,5,4,English,f,5,0.5,24.08835826,0.65577454
65bba4976e47d14ab32b61c8,21,0,2024-02-28T14:42:42.304Z,french_427.wav,0,pull,1861,30,5,4,English,f,6,0.6,-34.07004387,0.57976152
65bba4976e47d14ab32b61c8,21,0,2024-02-28T14:42:42.304Z,french_427.wav,0,pull,1861,30,5,4,English,f,7,0.7,8.41664997,0.37472164
65bba4976e47d14ab32b61c8,21,0,2024-02-28T14:42:42.304Z,french_427.wav,0,pull,1861,30,5,4,English,f,8,0.8,-13.86702556,1.58587157
65bba4976e47d14ab32b61c8,21,0,2024-02-28T14:42:42.304Z,french_427.wav,0,pull,1861,30,5,4,English,f,9,0.9,-78.75947492,1.60768303
65bba4976e47d14ab32b61c8,21,0,2024-02-28T14:42:42.304Z,french_427.wav,0,pull,1861,30,5,4,English,f,10,1.0,-67.25519612,1.23344585
65bba4976e47d14ab32b61c8,21,0,2024-02-28T14:42:42.304Z,french_427.wav,0,pull,1861,30,5,4,English,f,11,1.1,33.54583234,0.58083121
65bba4976e47d14ab32b61c8,21,0,2024-02-28T14:42:42.304Z,french_427.wav,0,pull,1861,30,5,4,English,f,12,1.14141667,98.61757136,0.87170503
65bba4976e47d14ab32b61c8,22,0,2024-02-28T14:42:42.304Z,french_740.wav,0,poule,522,30,5,4,English,f,0,0.0,-23.8561275,1.38106788
65bba4976e47d14ab32b61c8,22,0,2024-02-28T14:42:42.304Z,french_740.wav,0,poule,522,30,5,4,English,f,1,0.1,12.41197017,0.96449807
65bba4976e47d14ab32b61c8,22,0,2024-02-28T14:42:42.304Z,french_740.wav,0,poule,522,30,5,4,English,f,2,0.2,-75.22373784,1.81317808
65bba4976e47d14ab32b61c8,22,0,2024-02-28T14:42:42.304Z,french_740.wav,0,poule,522,30,5,4,English,f,3,0.3,13.95432459,0.48903687
65bba4976e47d14ab32b61c8,22,0,2024-02-28T14:42:42.304Z,french_740.wav,0,poule,522,30,5,4,English,f,4,0.4,86.43925379,0.89209498
65bba4976e47d14ab32b61c8,22,0,2024-02-28T14:42:42.304Z,french_740.wav,0,poule,522,30,5,4,English,f,5,0.5,-59.06853257,0.79820054
65bba4976e47d14ab32b61c8,22,0,2024-02-28T14:42:42.304Z,french_740.wav,0,poule,522,30,5,4,English,f,6,0.6,8.7812543,1.20695925
65bba4976e47d14ab32b61c8,22,0,2024-02-28T14:42:42.304Z,french_740.wav,0,poule,522,30,5,4,English,f,7,0.7,-81.4658243,0.55003693
65bba4976e47d14ab32b61c8,22,0,2024-02-28T14:42:42.304Z,french_740.wav,0,poule,522,30,5,4,English,f,8,0.8,-37.53161999,0.44955963
65bba4976e47d14ab32b61c8,22,0,2024-02-28T14:42:42.304Z,french_740.wav,0,poule,522,30,5,4,English,f,9,0.9,-71.6710365,1.78000651
65bba4976e47d14ab32b61c8,22,0,2024-02-28T14:42:42.304Z,french_740.wav,0,poule,522,30,5,4,English,f,10,1.0,31.54551497,1.38553911
65bba4976e47d14ab32b61c8,22,0,2024-02-28T14:42:42.304Z,french_740.wav,0,poule,522,30,5,4,English,f,11,1.1,73.9548309,0.82064893
65bba4976e47d14ab32b61c8,22,0,2024-02-28T14:42:42.304Z,french_740.wav,0,poule,522,30,5,4,English,f,12,1.14141667,48.2786376,1.09253076
65bba4976e47d14ab32b61c8,23,0,2024-02-28T14:42:42.304Z,french_410.wav,0,poule,1132,30,5,4,English,f,0,0.0,-13.61010892,0.12499196
65bba4976e47d14ab32b61c8,23,0,2024-02-28T14:42:42.304Z,french_410.wav,0,poule,1132,30,5,4,English,f,1,0.1,77.81547095,1.21899276
65bba4976e47d14ab32b61c8,23,0,2024-02-28T14:42:42.304Z,french_410.wav,0,poule,1132,30,5,4,English,f,2,0.2,82.13695373,1.54170327
65bba4976e47d14ab32b61c8,23,0,2024-02-28T14:42:42.304Z,french_410.wav,0,poule,1132,30,5,4,English,f,3,0.3,-16.93458416,0.12135823
65bba4976e47d14ab32b61c8,23,0,2024-02-28T14:42:42.304Z,french_410.wav,0,poule,1132,30,5,4,English,f,4,0.4,-8.61826003,0.17314322
65bba4976e47d14ab32b61c8,23,0,2024-02-28T14:42:42.304Z,french_410.wav,0,poule,1132,30,5,4,English,f,5,0.5,-33.26612631,0.58788453
65bba4976e47d14ab32b61c8,23,0,2024-02-28T14:42:42.304Z,french_410.wav,0,poule,1132,30,5,4,English,f,6,0.6,40.79154832,1.09892225
65bba4976e47d14ab32b61c8,23,0,2024-02-28T14:42:42.304Z,french_410.wav,0,poule,1132,30,5,4,English,f,7,0.7,66.55884445,0.15132796
65bba4976e47d14ab32b61c8,23,0,2024-02-28T14:42:42.304Z,french_410.wav,0,poule,1132,30,5,4,English,f,8,0.8,86.34165637,0.64125421
65bba4976e47d14ab32b61c8,23,0,2024-02-28T14:42:42.304Z,french_410.wav,0,poule,1132,30,5,4,English,f,9,0.9,91.11355202,0.30485539
65bba4976e47d14ab32b61c8,23,0,2024-02-28T14:42:42.304Z,french_410.wav,0,poule,1132,30,5,4,English,f,10,1.0,-30.27955269,0.74953125
65bba4976e47d14ab32b61c8,23,0,2024-02-28T14:42:42.304Z,french_410.wav,0,poule,1132,30,5,4,English,f,11,1.1,52.51274623,1.17085768
65bba4976e47d14ab32b61c8,23,0,2024-02-28T14:42:42.304Z,french_410.wav,0,poule,1132,30,5,4,English,f,12,1.14141667,95.54585368,1.8491146
65bba4976e47d14ab32b61c8,24,0,2024-02-28T14:42:42.304Z,french_495.wav,0,poule,998,30,5,4,English,f,0,0.0,-91.99726694,1.53002415
65bba4976e47d14ab32b61c8,24,0,2024-02-28T14:42:42.304Z,french_495.wav,0,poule,998,30,5,4,English,f,1,0.1,-66.79130223,0.64514092
65bba4976e47d14ab32b61c8,24,0,2024-02-28T14:42:42.304Z,french_495.wav,0,poule,998,30,5,4,English,f,2,0.2,-8.36482549,1.58667926
65bba4976e47d14ab32b61c8,24,0,2024-02-28T14:42:42.304Z,french_495.wav,0,poule,998,30,5,4,English,f,3,0.3,95.35890334,1.46230705
65bba4976e47d14ab32b61c8,24,0,2024-02-28T14:42:42.304Z,french_495.wav,0,poule,998,30,5,4,English,f,4,0.4,-20.18702894,0.54635544
65bba4976e47d14ab32b61c8,24,0,2024-02-28T14:42:42.304Z,french_495.wav,0,poule,998,30,5,4,English,f,5,0.5,43.83113564,1.9891978
65bba4976e47d14ab32b61c8,24,0,2024-02-28T14:42:42.304Z,french_495.wav,0,poule,998,30,5,4,English,f,6,0.6,-8.49792617,1.16341373
65bba4976e47d14ab32b61c8,24,0,2024-02-28T14:42:42.304Z,french_495.wav,0,poule,998,30,5,4,English,f,7,0.7,96.19657116,0.67108355
65bba4976e47d14ab32b61c8,24,0,2024-02-28T14:42:42.304Z,french_495.wav,0,poule,998,30,5,4,English,f,8,0.8,99.68717769,1.01244937
65bba4976e47d14ab32b61c8,24,0,2024-02-28T14:42:42.304Z,french_495.wav,0,poule,998,30,5,4,English,f,9,0.9,-40.51827139,1.13461177
65bba4976e47d14ab32b61c8,24,0,2024-02-28T14:42:42.304Z,french_495.wav,0,poule,998,30,5,4,English,f,10,1.0,56.21408407,1.92790356
65bba4976e47d14ab32b61c8,24,0,2024-02-28T14:42:42.304Z,french_495.wav,0,poule,998,30,5,4,English,f,11,1.1,-73.65370102,1.79484219
65bba4976e47d14ab32b61c8,24,0,2024-02-28T14:42:42.304Z,french_495.wav,0,poule,998,30,5,4,English,f,12,1.14141667,92.3588171,0.14203711
65bba4976e47d14ab32b61c8,25,0,2024-02-28T14:42:42.304Z,french_665.wav,0,poule,539,30,5,4,English,f,0,0.0,40.10949249,1.54602454
65bba4976e47d14ab32b61c8,25,0,2024-02-28T14:42:42.304Z,french_665.wav,0,poule,539,30,5,4,English,f,1,0.1,-62.11772623,0.85820789
65bba4976e47d14ab32b61c8,25,0,2024-02-28T14:42:42.304Z,french_665.wav,0,poule,539,30,5,4,English,f,2,0.2,10.37983959,1.54593526
65bba4976e47d14ab32b61c8,25,0,2024-02-28T14:42:42.304Z,french_665.wav,0,poule,539,30,5,4,English,f,3,0.3,-90.96267468,1.66779558
65bba4976e47d14ab32b61c8,25,0,2024-02-28T14:42:42.304Z,french_665.wav,0,poule,539,30,5,4,English,f,4,0.4,-82.59415996,1.76178738
65bba4976e47d14ab32b61c8,25,0,2024-02-28T14:42:42.304Z,french_665.wav,0,poule,539,30,5,4,English,f,5,0.5,72.10201259,0.44098313
65bba4976e47d14ab32b61c8,25,0,2024-02-28T14:42:42.304Z,french_665.wav,0,poule,539,30,5,4,English,f,6,0.6,7.07517584,1.49710418
65bba4976e47d14ab32b61c8,25,0,2024-02-28T14:42:42.304Z,french_665.wav,0,poule,539,30,5,4,English,f,7,0.7,17.81948605,1.04266642
65bba4976e47d14ab32b61c8,25,0,2024-02-28T14:42:42.304Z,french_665.wav,0,poule,539,30,5,4,English,f,8,0.8,-75.16725794,1.09545449
65bba4976e47d14ab32b61c8,25,0,2024-02-28T14:42:42.304Z,french_665.wav,0,poule,539,30,5,4,English,f,9,0.9,86.62263138,0.00262512
65bba4976e47d14ab32b61c8,25,0,2024-02-28T14:42:42.304Z,french_665.wav,0,poule,539,30,5,4,English,f,10,1.0,-39.56803586,1.93103182
65bba4976e47d14ab32b61c8,25,0,2024-02-28T14:42:42.304Z,french_665.wav,0,poule,539,30,5,4,English,f,11,1.1,-92.62860056,1.53232008
65bba4976e47d14ab32b61c8,25,0,2024-02-28T14:42:42.304Z,french_665.wav,0,poule,539,30,5,4,English,f,12,1.14141667,37.86117833,1.33107791
65bba4976e47d14ab32b61c8,26,0,2024-02-28T14:42:42.304Z,french_725.wav,0,poule,362,30,5,4,English,f,0,0.0,6.35773429,0.33586519
65bba4976e47d14ab32b61c8,26,0,2024-02-28T14:42:42.304Z,french_725.wav,0,poule,362,30,5,4,English,f,1,0.1,43.70894135,1.09244635
65bba4976e47d14ab32b61c8,26,0,2024-02-28T14:42:42.304Z,french_725.wav,0,poule,362,30,5,4,English,f,2,0.2,22.90719147,1.28834014
65bba4976e47d14ab32b61c8,26,0,2024-02-28T14:42:42.304Z,french_725.wav,0,poule,362,30,5,4,English,f,3,0.3,77.83150395,1.7742292
65bba4976e47d14ab32b61c8,26,0,2024-02-28T14:42:42.304Z,french_725.wav,0,poule,362,30,5,4,English,f,4,0.4,8.06655205,0.13845401
65bba4976e47d14ab32b61c8,26,0,2024-02-28T14:42:42.304Z,french_725.wav,0,poule,362,30,5,4,English,f,5,0.5,-92.02564179,1.68229188
65bba4976e47d14ab32b61c8,26,0,2024-02-28T14:42:42.304Z,french_725.wav,0,poule,362,30,5,4,English,f,6,0.6,-0.94151394,1.36391947
65bba4976e47d14ab32b61c8,26,0,2024-02-28T14:42:42.304Z,french_725.wav,0,poule,362,30,5,4,English,f,7,0.7,-43.43116172,1.13588382
65bba4976e47d14ab32b61c8,26,0,2024-02-28T14:42:42.304Z,french_725.wav,0,poule,362,30,5,4,English,f,8,0.8,25.37203063,1.69588373
65bba4976e47d14ab32b61c8,26,0,2024-02-28T14:42:42.304Z,french_725.wav,0,poule,362,30,5,4,English,f,9,0.9,-10.8941145,0.78478635
65bba4976e47d14ab32b61c8,26,0,2024-02-28T14:42:42.304Z,french_725.wav,0,poule,362,30,5,4,English,f,10,1.0,87.02180765,1.06725008
65bba4976e47d14ab32b61c8,26,0,2024-02-28T14:42:42.304Z,french_725.wav,0,poule,362,30,5,4,English,f,11,1.1,-29.98720343,0.9920546
65bba4976e47d14ab32b61c8,26,0,2024-02-28T14:42:42.304Z,french_725.wav,0,poule,362,30,5,4,English,f,12,1.14141667,85.40182929,1.23288415
65bba4976e47d14ab32b61c8,27,0,2024-02-28T14:42:42.304Z,french_727.wav,0,poule,498,30,5,4,English,f,0,0.0,-20.05824151,0.38879294
65bba4976e47d14ab32b61c8,27,0,2024-02-28T14:42:42.304Z,french_727.wav,0,poule,498,30,5,4,English,f,1,0.1,69.75510409,1.1988761
65bba4976e47d14ab32b61c8,27,0,2024-02-28T14:42:42.304Z,french_727.wav,0,poule,498,30,5,4,English,f,2,0.2,-72.00605267,1.21340454
65bba4976e47d14ab32b61c8,27,0,2024-02-28T14:42:42.304Z,french_727.wav,0,poule,498,30,5,4,English,f,3,0.3,-6.83631599,1.07331199
65bba4976e47d14ab32b61c8,27,0,2024-02-28T14:42:42.304Z,french_727.wav,0,poule,498,30,5,4,English,f,4,0.4,-22.0103923,0.09560546
65bba4976e47d14ab32b61c8,27,0,2024-02-28T14:42:42.304Z,french_727.wav,0,poule,498,30,5,4,English,f,5,0.5,-9.32146308,0.49166162
65bba4976e47d14ab32b61c8,27,0,2024-02-28T14:42:42.304Z,french_727.wav,0,poule,498,30,5,4,English,f,6,0.6,55.52257653,1.00409517
65bba4976e47d14ab32b61c8,27,0,2024-02-28T14:42:42.304Z,french_727.wav,0,poule,498,30,5,4,English,f,7,0.7,15.94643217,0.80619997
65bba4976e47d14ab32b61c8,27,0,2024-02-28T14:42:42.304Z,french_727.wav,0,poule,498,30,5,4,English,f,8,0.8,-72.95565773,1.99971332
65bba4976e47d14ab32b61c8,27,0,2024-02-28T14:42:42.304Z,french_727.wav,0,poule,498,30,5,4,English,f,9,0.9,6.47080818,0.66850695
65bba4976e47d14ab32b61c8,27,0,2024-02-28T14:42:42.304Z,french_727.wav,0,poule,498,30,5,4,English,f,10,1.0,-39.0563141,0.85036582
65bba4976e47d14ab32b61c8,27,0,2024-02-28T14:42:42.304Z,french_727.wav,0,poule,498,30,5,4,English,f,11,1.1,-93.66180319,0.40432855
65bba4976e47d14ab32b61c8,27,0,2024-02-28T14:42:42.304Z,french_727.wav,0,poule,498,30,5,4,English,f,12,1.14141667,71.53836892,0.54223164
65bba4976e47d14ab32b61c8,28,0,2024-02-28T14:42:42.304Z,french_695.wav,0,poule,433,30,5,4,English,f,0,0.0,91.03645015,1.97576794
65bba4976e47d14ab32b61c8,28,0,2024-02-28T14:42:42.304Z,french_695.wav,0,poule,433,30,5,4,English,f,1,0.1,-17.31714147,1.557192
65bba4976e47d14ab32b61c8,28,0,2024-02-28T14:42:42.304Z,french_695.wav,0,poule,433,30,5,4,English,f,2,0.2,-14.58014364,1.20817895
65bba4976e47d14ab32b61c8,28,0,2024-02-28T14:42:42.304Z,french_695.wav,0,poule,433,30,5,4,English,f,3,0.3,-18.9204461,0.21789238
65bba4976e47d14ab32b61c8,28,0,2024-02-28T14:42:42.304Z,french_695.wav,0,poule,433,30,5,4,English,f,4,0.4,46.57979365,1.60794008
65bba4976e47d14ab32b61c8,28,0,2024-02-28T14:42:42.304Z,french_695.wav,0,poule,433,30,5,4,English,f,5,0.5,-90.24090986,0.78145158
65bba4976e47d14ab32b61c8,28,0,2024-02-28T14:42:42.304Z,french_695.wav,0,poule,433,30,5,4,English,f,6,0.6,-0.59110837,1.16957278
65bba4976e47d14ab32b61c8,28,0,2024-02-28T14:42:42.304Z,french_695.wav,0,poule,433,30,5,4,English,f,7,0.7,-10.88951476,0.74913415
65bba4976e47d14ab32b61c8,28,0,2024-02-28T14:42:42.304Z,french_695.wav,0,poule,433,30,5,4,English,f,8,0.8,-12.64634725,0.14772287
65bba4976e47d14ab32b61c8,28,0,2024-02-28T14:42:42.304Z,french_695.wav,0,poule,433,30,5,4,English,f,9,0.9,93.12439983,1.44178523
65bba4976e47d14ab32b61c8,28,0,2024-02-28T14:42:42.304Z,french_695.wav,0,poule,433,30,5,4,English,f,10,1.0,-53.03412878,1.23628709
65bba4976e47d14ab32b61c8,28,0,2024-02-28T14:42:42.304Z,french_695.wav,0,poule,433,30,5,4,English,f,11,1.1,-32.6093433,1.71888582
65bba4976e47d14ab32b61c8,28,0,2024-02-28T14:42:42.304Z,french_695.wav,0,poule,433,30,5,4,English,f,12,1.14141667,-33.49594962,0.08672386
65bba4976e47d14ab32b61c8,29,0,2024-02-28T14:42:42.304Z,french_907.wav,0,poule,166,30,5,4,English,f,0,0.0,89.78122998,1.44191832
65bba4976e47d14ab32b61c8,29,0,2024-02-28T14:42:42.304Z,french_907.wav,0,poule,166,30,5,4,English,f,1,0.1,28.80453791,1.11940689
65bba4976e47d14ab32b61c8,29,0,2024-02-28T14:42:42.304Z,french_907.wav,0,poule,166,30,5,4,English,f,2,0.2,34.19351196,0.95044875
65bba4976e47d14ab32b61c8,29,0,2024-02-28T14:42:42.304Z,french_907.wav,0,poule,166,30,5,4,English,f,3,0.3,42.13241451,1.03916561
65bba4976e47d14ab32b61c8,29,0,2024-02-28T14:42:42.304Z,french_907.wav,0,poule,166,30,5,4,English,f,4,0.4,73.79213215,1.14728427
65bba4976e47d14ab32b61c8,29,0,2024-02-28T14:42:42.304Z,french_907.wav,0,poule,166,30,5,4,English,f,5,0.5,-43.17947434,0.83024238
65bba4976e47d14ab32b61c8,29,0,2024-02-28T14:42:42.304Z,french_907.wav,0,poule,166,30,5,4,English,f,6,0.6,-81.13135349,1.94896197
65bba4976e47d14ab32b61c8,29,0,2024-02-28T14:42:42.304Z,french_907.wav,0,poule,166,30,5,4,English,f,7,0.7,1.41751337,0.97370259
65bba4976e47d14ab32b61c8,29,0,2024-02-28T14:42:42.304Z,french_907.wav,0,poule,166,30,5,4,English,f,8,0.8,-34.04083972,1.96535195
65bba4976e47d14ab32b61c8,29,0,2024-02-28T14:42:42.304Z,french_907.wav,0,poule,166,30,5,4,English,f,9,0.9,-75.9660399,1.25190046
65bba4976e47d14ab32b61c8,29,0,2024-02-28T14:42:42.304Z,french_907.wav,0,poule,166,30,5,4,English,f,10,1.0,50.35282734,1.37511157
65bba4976e47d14ab32b61c8,29,0,2024-02-28T14:42:42.304Z,french_907.wav,0,poule,166,30,5,4,English,f,11,1.1,-60.08377771,1.57534438
65bba4976e47d14ab32b61c8,29,0,2024-02-28T14:42:42.304Z,french_907.wav,0,poule,166,30,5,4,English,f,12,1.14141667,46.62652621,0.6793901
65bba4976e47d14ab32b61c8,30,0,2024-02-28T14:42:42.304Z,french_87.wav,0,poule,299,30,5,4,English,f,0,0.0,92.4660963,0.46305834
65bba4976e47d14ab32b61c8,30,0,2024-02-28T14:42:42.304Z,french_87.wav,0,poule,299,30,5,4,English,f,1,0.1,15.06427617,1.65512059
65bba4976e47d14ab32b61c8,30,0,2024-02-28T14:42:42.304Z,french_87.wav,0,poule,299,30,5,4,English,f,2,0.2,19.88587698,1.47687397
65bba4976e47d14ab32b61c8,30,0,2024-02-28T14:42:42.304Z,french_87.wav,0,poule,299,30,5,4,English,f,3,0.3,19.16381268,1.98465726
65bba4976e47d14ab32b61c8,30,0,2024-02-28T14:42:42.304Z,french_87.wav,0,poule,299,30,5,4,English,f,4,0.4,-43.83456388,0.88568527
65bba4976e47d14ab32b61c8,30,0,2024-02-28T14:42:42.304Z,french_87.wav,0,poule,299,30,5,4,English,f,5,0.5,-75.19485474,0.59200872
65bba4976e47d14ab32b61c8,30,0,2024-02-28T14:42:42.304Z,french_87.wav,0,poule,299,30,5,4,English,f,6,0.6,-41.9677828,1.00282805
65bba4976e47d14ab32b61c8,30,0,2024-02-28T14:42:42.304Z,french_87.wav,0,poule,299,30,5,4,English,f,7,0.7,48.89631163,0.36234637
65bba4976e47d14ab32b61c8,30,0,2024-02-28T14:42:42.304Z,french_87.wav,0,poule,299,30,5,4,English,f,8,0.8,59.57141731,1.86287014
65bba4976e47d14ab32b61c8,30,0,2024-02-28T14:42:42.304Z,french_87.wav,0,poule,299,30,5,4,English,f,9,0.9,-7.29688456,0.55653028
65bba4976e47d14ab32b61c8,30,0,2024-02-28T14:42:42.304Z,french_87.wav,0,poule,299,30,5,4,English,f,10,1.0,-56.30540489,1.69420603
65bba4976e47d14ab32b61c8,30,0,2024-02-28T14:42:42.304Z,french_87.wav,0,poule,299,30,5,4,English,f,11,1.1,-92.5665511,0.74268973
65bba4976e47d14ab32b61c8,30,0,2024-02-28T14:42:42.304Z,french_87.wav,0,poule,299,30,5,4,English,f,12,1.14141667,7.04899103,0.9328285
65bba4976e47d14ab32b61c8,31,0,2024-02-28T14:42:42.304Z,french_405.wav,0,poule,98,30,5,4,English,f,0,0.0,2.94741857,0.47922485
65bba4976e47d14ab32b61c8,31,0,2024-02-28T14:42:42.304Z,french_405.wav,0,poule,98,30,5,4,English,f,1,0.1,10.93945556,0.75992021
65bba4976e47d14ab32b61c8,31,0,2024-02-28T14:42:42.304Z,french_405.wav,0,poule,98,30,5,4,English,f,2,0.2,-33.58175419,0.51030052
65bba4976e47d14ab32b61c8,31,0,2024-02-28T14:42:42.304Z,french_405.wav,0,poule,98,30,5,4,English,f,3,0.3,-35.59039283,1.5380037
65bba4976e47d14ab32b61c8,31,0,2024-02-28T14:42:42.304Z,french_405.wav,0,poule,98,30,5,4,English,f,4,0.4,-23.09707718,1.53478695
65bba4976e47d14ab32b61c8,31,0,2024-02-28T14:42:42.304Z,french_405.wav,0,poule,98,30,5,4,English,f,5,0.5,-12.93229662,0.62602002
65bba4976e47d14ab32b61c8,31,0,2024-02-28T14:42:42.304Z,french_405.wav,0,poule,98,30,5,4,English,f,6,0.6,54.45275162,0.6867386
65bba4976e47d14ab32b61c8,31,0,2024-02-28T14:42:42.304Z,french_405.wav,0,poule,98,30,5,4,English,f,7,0.7,52.01362083,0.60233158
65bba4976e47d14ab32b61c8,31,0,2024-02-28T14:42:42.304Z,french_405.wav,0,poule,98,30,5,4,English,f,8,0.8,-18.58395664,1.63961568
65bba4976e47d14ab32b61c8,31,0,2024-02-28T14:42:42.304Z,french_405.wav,0,poule,98,30,5,4,English,f,9,0.9,21.80701506,0.20387093
65bba4976e47d14ab32b61c8,31,0,2024-02-28T14:42:42.304Z,french_405.wav,0,poule,98,30,5,4,English,f,10,1.0,-55.17899325,1.51918911
65bba4976e47d14ab32b61c8,31,0,2024-02-28T14:42:42.304Z,french_405.wav,0,poule,98,30,5,4,English,f,11,1.1,62.50728609,1.29633258
65bba4976e47d14ab32b61c8,31,0,2024-02-28T14:42:42.304Z,french_405.wav,0,poule,98,30,5,4,English,f,12,1.14141667,-31.56259202,0.04867302
65bba4976e47d14ab32b61c8,32,0,2024-02-28T14:42:42.304Z,french_838.wav,0,poule,554,30,5,4,English,f,0,0.0,53.82244913,0.41033137
65bba4976e47d14ab32b61c8,32,0,2024-02-28T14:42:42.304Z,french_838.wav,0,poule,554,30,5,4,English,f,1,0.1,-35.81573955,1.47401645
65bba4976e47d14ab32b61c8,32,0,2024-02-28T14:42:42.304Z,french_838.wav,0,poule,554,30,5,4,English,f,2,0.2,8.40474369,1.34708581
65bba4976e47d14ab32b61c8,32,0,2024-02-28T14:42:42.304Z,french_838.wav,0,poule,554,30,5,4,English,f,3,0.3,44.99671581,1.53495145
65bba4976e47d14ab32b61c8,32,0,2024-02-28T14:42:42.304Z,french_838.wav,0,poule,554,30,5,4,English,f,4,0.4,-47.00146572,1.01134901
65bba4976e47d14ab32b61c8,32,0,2024-02-28T14:42:42.304Z,french_838.wav,0,poule,554,30,5,4,English,f,5,0.5,20.35658836,0.39081896
65bba4976e47d14ab32b61c8,32,0,2024-02-28T14:42:42.304Z,french_838.wav,0,poule,554,30,5,4,English,f,6,0.6,-68.67268486,1.16883214
65bba4976e47d14ab32b61c8,32,0,2024-02-28T14:42:42.304Z,french_838.wav,0,poule,554,30,5,4,English,f,7,0.7,-3.76207987,1.01815432
65bba4976e47d14ab32b61c8,32,0,2024-02-28T14:42:42.304Z,french_838.wav,0,poule,554,30,5,4,English,f,8,0.8,-54.29895515,0.72653042
65bba4976e47d14ab32b61c8,32,0,2024-02-28T14:42:42.304Z,french_838.wav,0,poule,554,30,5,4,English,f,9,0.9,18.68531545,1.00283729
65bba4976e47d14ab32b61c8,32,0,2024-02-28T14:42:42.304Z,french_838.wav,0,poule,554,30,5,4,English,f,10,1.0,3.56564114,0.63403669
65bba4976e47d14ab32b61c8,32,0,2024-02-28T14:42:42.304Z,french_838.wav,0,poule,554,30,5,4,English,f,11,1.1,-35.37134565,0.69373238
65bba4976e47d14ab32b61c8,32,0,2024-02-28T14:42:42.304Z,french_838.wav,0,poule,554,30,5,4,English,f,12,1.14141667,-78.01839073,0.47350977
65bba4976e47d14ab32b61c8,33,0,2024-02-28T14:42:42.304Z,french_789.wav,0,pull,563,30,5,4,English,f,0,0.0,69.53612507,0.1529788
65bba4976e47d14ab32b61c8,33,0,2024-02-28T14:42:42.304Z,french_789.wav,0,pull,563,30,5,4,English,f,1,0.1,48.66484312,0.37242119
65bba4976e47d14ab32b61c8,33,0,2024-02-28T14:42:42.304Z,french_789.wav,0,pull,563,30,5,4,English,f,2,0.2,-72.01203103,0.49230089
65bba4976e47d14ab32b61c8,33,0,2024-02-28T14:42:42.304Z,french_789.wav,0,pull,563,30,5,4,English,f,3,0.3,-67.26752296,0.40103962
65bba4976e47d14ab32b61c8,33,0,2024-02-28T14:42:42.304Z,french_789.wav,0,pull,563,30,5,4,English,f,4,0.4,-11.1534243,1.41340534
65bba4976e47d14ab32b61c8,33,0,2024-02-28T14:42:42.304Z,french_789.wav,0,pull,563,30,5,4,English,f,5,0.5,-45.42016811,1.63034897
65bba4976e47d14ab32b61c8,33,0,2024-02-28T14:42:42.304Z,french_789.wav,0,pull,563,30,5,4,English,f,6,0.6,8.72911857,1.56067788
65bba4976e47d14ab32b61c8,33,0,2024-02-28T14:42:42.304Z,french_789.wav,0,pull,563,30,5,4,English,f,7,0.7,94.32168061,0.03921667
65bba4976e47d14ab32b61c8,33,0,2024-02-28T14:42:42.304Z,french_789.wav,0,pull,563,30,5,4,English,f,8,0.8,-32.05571011,1.73882324
65bba4976e47d14ab32b61c8,33,0,2024-02-28T14:42:42.304Z,french_789.wav,0,pull,563,30,5,4,English,f,9,0.9,-53.70986217,0.69818848
65bba4976e47d14ab32b61c8,33,0,2024-02-28T14:42:42.304Z,french_789.wav,0,pull,563,30,5,4,English,f,10,1.0,44.14624596,0.50903081
65bba4976e47d14ab32b61c8,33,0,2024-02-28T14:42:42.304Z,french_789.wav,0,pull,563,30,5,4,English,f,11,1.1,-51.47253769,0.01362261
65bba4976e47d14ab32b61c8,33,0,2024-02-28T14:42:42.304Z,french_789.wav,0,pull,563,30,5,4,English,f,12,1.14141667,-61.00447878,1.34786961
65bba4976e47d14ab32b61c8,34,0,2024-02-28T14:42:42.304Z,french_913.wav,0,poule,281,30,5,4,English,f,0,0.0,-47.25134073,0.04335797
65bba4976e47d14ab32b61c8,34,0,2024-02-28T14:42:42.304Z,french_913.wav,0,poule,281,30,5,4,English,f,1,0.1,-82.39617775,1.67103064
65bba4976e47d14ab32b61c8,34,0,2024-02-28T14:42:42.304Z,french_913.wav,0,poule,281,30,5,4,English,f,2,0.2,-49.77107224,0.81708714
65bba4976e47d14ab32b61c8,34,0,2024-02-28T14:42:42.304Z,french_913.wav,0,poule,281,30,5,4,English,f,3,0.3,-65.18926328,1.28520765
65bba4976e47d14ab32b61c8,34,0,2024-02-28T14:42:42.304Z,french_913.wav,0,poule,281,30,5,4,English,f,4,0.4,-21.76681249,1.7369454
65bba4976e47d14ab32b61c8,34,0,2024-02-28T14:42:42.304Z,french_913.wav,0,poule,281,30,5,4,English,f,5,0.5,25.27312638,1.03142804
65bba4976e47d14ab32b61c8,34,0,2024-02-28T14:42:42.304Z,french_913.wav,0,poule,281,30,5,4,English,f,6,0.6,55.78406259,0.74912627
65bba4976e47d14ab32b61c8,34,0,2024-02-28T14:42:42.304Z,french_913.wav,0,poule,281,30,5,4,English,f,7,0.7,-27.8783869,1.88947917
65bba4976e47d14ab32b61c8,34,0,2024-02-28T14:42:42.304Z,french_913.wav,0,poule,281,30,5,4,English,f,8,0.8,-52.69419859,0.39822081
65bba4976e47d14ab32b61c8,34,0,2024-02-28T14:42:42.304Z,french_913.wav,0,poule,281,30,5,4,English,f,9,0.9,99.44571929,0.52497493
65bba4976e47d14ab32b61c8,34,0,2024-02-28T14:42:42.304Z,french_913.wav,0,poule,281,30,5,4,English,f,10,1.0,87.33615919,1.60117884
65bba4976e47d14ab32b61c8,34,0,2024-02-28T14:42:42.304Z,french_913.wav,0,poule,281,30,5,4,English,f,11,1.1,46.22614126,1.53649436
65bba4976e47d14ab32b61c8,34,0,2024-02-28T14:42:42.304Z,french_913.wav,0,poule,281,30,5,4,English,f,12,1.14141667,-71.95970705,0.49650592
65bba4976e47d14ab32b61c8,35,0,2024-02-28T14:42:42.304Z,french_211.wav,0,poule,861,30,5,4,English,f,0,0.0,43.15008187,0.59817128
65bba4976e47d14ab32b61c8,35,0,2024-02-28T14:42:42.304Z,french_211.wav,0,poule,861,30,5,4,English,f,1,0.1,24.02390962,1.29748795
65bba4976e47d14ab32b61c8,35,0,2024-02-28T14:42:42.304Z,french_211.wav,0,poule,861,30,5,4,English,f,2,0.2,-95.3793201,1.68650969
65bba4976e47d14ab32b61c8,35,0,2024-02-28T14:42:42.304Z,french_211.wav,0,poule,861,30,5,4,English,f,3,0.3,82.44818603,1.04360825
65bba4976e47d14ab32b61c8,35,0,2024-02-28T14:42:42.304Z,french_211.wav,0,poule,861,30,5,4,English,f,4,0.4,96.86378599,0.82058252
65bba4976e47d14ab32b61c8,35,0,2024-02-28T14:42:42.304Z,french_211.wav,0,poule,861,30,5,4,English,f,5,0.5,-43.25779178,0.73375513
65bba4976e47d14ab32b61c8,35,0,2024-02-28T14:42:42.304Z,french_211.wav,0,poule,861,30,5,4,English,f,6,0.6,12.6296565,1.21996468
65bba4976e47d14ab32b61c8,35,0,2024-02-28T14:42:42.304Z,french_211.wav,0,poule,861,30,5,4,English,f,7,0.7,-32.61590279,0.98168448
65bba4976e47d14ab32b61c8,35,0,2024-02-28T14:42:42.304Z,french_211.wav,0,poule,861,30,5,4,English,f,8,0.8,-92.74817171,0.96960348
65bba4976e47d14ab32b61c8,35,0,2024-02-28T14:42:42.304Z,french_211.wav,0,poule,861,30,5,4,English,f,9,0.9,-55.04777924,1.54184603
65bba4976e47d14ab32b61c8,35,0,2024-02-28T14:42:42.304Z,french_211.wav,0,poule,861,30,5,4,English,f,10,1.0,41.28376208,0.3785813
65bba4976e47d14ab32b61c8,35,0,2024-02-28T14:42:42.304Z,french_211.wav,0,poule,861,30,5,4,English,f,11,1.1,-93.29506514,0.77112731
65bba4976e47d14ab32b61c8,35,0,2024-02-28T14:42:42.304Z,french_211.wav,0,poule,861,30,5,4,English,f,12,1.14141667,30.09941121,1.64506238
65bba4976e47d14ab32b61c8,36,0,2024-02-28T14:42:42.304Z,french_835.wav,0,poule,223,30,5,4,English,f,0,0.0,91.17156261,0.94497771
65bba4976e47d14ab32b61c8,36,0,2024-02-28T14:42:42.304Z,french_835.wav,0,poule,223,30,5,4,English,f,1,0.1,25.08688283,1.50226129
65bba4976e47d14ab32b61c8,36,0,2024-02-28T14:42:42.304Z,french_835.wav,0,poule,223,30,5,4,English,f,2,0.2,48.2450029,1.19715806
65bba4976e47d14ab32b61c8,36,0,2024-02-28T14:42:42.304Z,french_835.wav,0,poule,223,30,5,4,English,f,3,0.3,90.12216344,1.34954449
65bba4976e47d14ab32b61c8,36,0,2024-02-28T14:42:42.304Z,french_835.wav,0,poule,223,30,5,4,English,f,4,0.4,-40.18882143,0.59579265
65bba4976e47d14ab32b61c8,36,0,2024-02-28T14:42:42.304Z,french_835.wav,0,poule,223,30,5,4,English,f,5,0.5,-54.27954375,1.80504859
65bba4976e47d14ab32b61c8,36,0,2024-02-28T14:42:42.304Z,french_835.wav,0,poule,223,30,5,4,English,f,6,0.6,-68.4756581,0.24555797
65bba4976e47d14ab32b61c8,36,0,2024-02-28T14:42:42.304Z,french_835.wav,0,poule,223,30,5,4,English,f,7,0.7,-53.08534738,0.70333343
65bba4976e47d14ab32b61c8,36,0,2024-02-28T14:42:42.304Z,french_835.wav,0,poule,223,30,5,4,English,f,8,0.8,-46.88967441,0.47518266
65bba4976e47d14ab32b61c8,36,0,2024-02-28T14:42:42.304Z,french_835.wav,0,poule,223,30,5,4,English,f,9,0.9,-31.87646129,1.46400156
65bba4976e47d14ab32b61c8,36,0,2024-02-28T14:42:42.304Z,french_835.wav,0,poule,223,30,5,4,English,f,10,1.0,35.54298867,1.13067654
65bba4976e47d14ab32b61c8,36,0,2024-02-28T14:42:42.304Z,french_835.wav,0,poule,223,30,5,4,English,f,11,1.1,77.25630657,0.43563769
65bba4976e47d14ab32b61c8,36,0,2024-02-28T14:42:42.304Z,french_835.wav,0,poule,223,30,5,4,English,f,12,1.14141667,70.60272191,1.31798111
65bba4976e47d14ab32b61c8,37,0,2024-02-28T14:42:42.304Z,french_731.wav,0,poule,165,30,5,4,English,f,0,0.0,-58.69377393,0.50859349
65bba4976e47d14ab32b61c8,37,0,2024-02-28T14:42:42.304Z,french_731.wav,0,poule,165,30,5,4,English,f,1,0.1,32.88622417,1.73752804
65bba4976e47d14ab32b61c8,37,0,2024-02-28T14:42:42.304Z,french_731.wav,0,poule,165,30,5,4,English,f,2,0.2,7.24894178,1.36581258
65bba4976e47d14ab32b61c8,37,0,2024-02-28T14:42:42.304Z,french_731.wav,0,poule,165,30,5,4,English,f,3,0.3,94.91420779,1.00409723
65bba4976e47d14ab32b61c8,37,0,2024-02-28T14:42:42.304Z,french_731.wav,0,poule,165,30,5,4,English,f,4,0.4,-71.75206553,0.77805611
65bba4976e47d14ab32b61c8,37,0,2024-02-28T14:42:42.304Z,french_731.wav,0,poule,165,30,5,4,English,f,5,0.5,-65.23871465,1.77016953
65bba4976e47d14ab32b61c8,37,0,2024-02-28T14:42:42.304Z,french_731.wav,0,poule,165,30,5,4,English,f,6,0.6,-4.42462865,1.81727941
65bba4976e47d14ab32b61c8,37,0,2024-02-28T14:42:42.304Z,french_731.wav,0,poule,165,30,5,4,English,f,7,0.7,-75.60919522,0.9776794
65bba4976e47d14ab32b61c8,37,0,2024-02-28T14:42:42.304Z,french_731.wav,0,poule,165,30,5,4,English,f,8,0.8,96.57391487,1.84916321
65bba4976e47d14ab32b61c8,37,0,2024-02-28T14:42:42.304Z,french_731.wav,0,poule,165,30,5,4,English,f,9,0.9,88.67857867,0.71669736
65bba4976e47d14ab32b61c8,37,0,2024-02-28T14:42:42.304Z,french_731.wav,0,poule,165,30,5,4,English,f,10,1.0,-45.98442242,1.96322979
65bba4976e47d14ab32b61c8,37,0,2024-02-28T14:42:42.304Z,french_731.wav,0,poule,165,30,5,4,English,f,11,1.1,-0.58254583,1.42519618
65bba4976e47d14ab32b61c8,37,0,2024-02-28T14:42:42.304Z,french_731.wav,0,poule,165,30,5,4,English,f,12,1.14141667,58.15677769,1.35630124
65bba4976e47d14ab32b61c8,38,0,2024-02-28T14:42:42.304Z,french_493.wav,0,poule,392,30,5,4,English,f,0,0.0,60.87043757,1.40554211
65bba4976e47d14ab32b61c8,38,0,2024-02-28T14:42:42.304Z,french_493.wav,0,poule,392,30,5,4,English,f,1,0.1,32.48463857,1.66457085
65bba4976e47d14ab32b61c8,38,0,2024-02-28T14:42:42.304Z,french_493.wav,0,poule,392,30,5,4,English,f,2,0.2,-22.70234149,0.98125391
65bba4976e47d14ab32b61c8,38,0,2024-02-28T14:42:42.304Z,french_493.wav,0,poule,392,30,5,4,English,f,3,0.3,50.40796262,0.90333754
65bba4976e47d14ab32b61c8,38,0,2024-02-28T14:42:42.304Z,french_493.wav,0,poule,392,30,5,4,English,f,4,0.4,-78.7388222,1.39408007
65bba4976e47d14ab32b61c8,38,0,2024-02-28T14:42:42.304Z,french_493.wav,0,poule,392,30,5,4,English,f,5,0.5,84.40256274,0.50123737
65bba4976e47d14ab32b61c8,38,0,2024-02-28T14:42:42.304Z,french_493.wav,0,poule,392,30,5,4,English,f,6,0.6,-34.18666035,1.84289139
65bba4976e47d14ab32b61c8,38,0,2024-02-28T14:42:42.304Z,french_493.wav,0,poule,392,30,5,4,English,f,7,0.7,-64.74461958,0.68636344
65bba4976e47d14ab32b61c8,38,0,2024-02-28T14:42:42.304Z,french_493.wav,0,poule,392,30,5,4,English,f,8,0.8,-49.62372235,0.94996692
65bba4976e47d14ab32b61c8,38,0,2024-02-28T14:42:42.304Z,french_493.wav,0,poule,392,30,5,4,English,f,9,0.9,78.29908118,1.99629326
65bba4976e47d14ab32b61c8,38,0,2024-02-28T14:42:42.304Z,french_493.wav,0,poule,392,30,5,4,English,f,10,1.0,35.51073391,0.05507168
65bba4976e47d14ab32b61c8,38,0,2024-02-28T14:42:42.304Z,french_493.wav,0,poule,392,30,5,4,English,f,11,1.1,-58.37579915,1.95320668
65bba4976e47d14ab32b61c8,38,0,2024-02-28T14:42:42.304Z,french_493.wav,0,poule,392,30,5,4,English,f,12,1.14141667,94.1178709,0.03741916
65bba4976e47d14ab32b61c8,39,0,2024-02-28T14:42:42.304Z,french_779.wav,0,poule,374,30,5,4,English,f,0,0.0,-38.28425878,1.14466513
65bba4976e47d14ab32b61c8,39,0,2024-02-28T14:42:42.304Z,french_779.wav,0,poule,374,30,5,4,English,f,1,0.1,-19.73299362,1.60046318
65bba4976e47d14ab32b61c8,39,0,2024-02-28T14:42:42.304Z,french_779.wav,0,poule,374,30,5,4,English,f,2,0.2,-1.63971334,0.66760831
65bba4976e47d14ab32b61c8,39,0,2024-02-28T14:42:42.304Z,french_779.wav,0,poule,374,30,5,4,English,f,3,0.3,-13.00341001,1.70247529
65bba4976e47d14ab32b61c8,39,0,2024-02-28T14:42:42.304Z,french_779.wav,0,poule,374,30,5,4,English,f,4,0.4,-18.58635516,0.17241517
65bba4976e47d14ab32b61c8,39,0,2024-02-28T14:42:42.304Z,french_779.wav,0,poule,374,30,5,4,English,f,5,0.5,-89.98694193,1.76793656
65bba4976e47d14ab32b61c8,39,0,2024-02-28T14:42:42.304Z,french_779.wav,0,poule,374,30,5,4,English,f,6,0.6,92.32758461,1.36679993
65bba4976e47d14ab32b61c8,39,0,2024-02-28T14:42:42.304Z,french_779.wav,0,poule,374,30,5,4,English,f,7,0.7,-57.54469246,0.7012445
65bba4976e47d14ab32b61c8,39,0,2024-02-28T14:42:42.304Z,french_779.wav,0,poule,374,30,5,4,English,f,8,0.8,-77.17429957,1.36817327
65bba4976e47d14ab32b61c8,39,0,2024-02-28T14:42:42.304Z,french_779.wav,0,poule,374,30,5,4,English,f,9,0.9,-5.46434537,0.41680341
65bba4976e47d14ab32b61c8,39,0,2024-02-28T14:42:42.304Z,french_779.wav,0,poule,374,30,5,4,English,f,10,1.0,-18.50514079,0.28529805
65bba4976e47d14ab32b61c8,39,0,2024-02-28T14:42:42.304Z,french_779.wav,0,poule,374,30,5,4,English,f,11,1.1,-7.2649165,1.0076311
65bba4976e47d14ab32b61c8,39,0,2024-02-28T14:42:42.304Z,french_779.wav,0,poule,374,30,5,4,English,f,12,1.14141667,-3.97761041,1.26738641
65bba4976e47d14ab32b61c8,40,0,2024-02-28T14:42:42.304Z,french_701.wav,0,poule,261,30,5,4,English,f,0,0.0,13.86918761,0.63182109
65bba4976e47d14ab32b61c8,40,0,2024-02-28T14:42:42.304Z,french_701.wav,0,poule,261,30,5,4,English,f,1,0.1,25.98390225,1.85758869
65bba4976e47d14ab32b61c8,40,0,2024-02-28T14:42:42.304Z,french_701.wav,0,poule,261,30,5,4,English,f,2,0.2,62.79635394,1.68485958
65bba4976e47d14ab32b61c8,40,0,2024-02-28T14:42:42.304Z,french_701.wav,0,poule,261,30,5,4,English,f,3,0.3,67.80376008,0.50866318
65bba4976e47d14ab32b61c8,40,0,2024-02-28T14:42:42.304Z,french_701.wav,0,poule,261,30,5,4,English,f,4,0.4,-54.23175366,1.37500116
65bba4976e47d14ab32b61c8,40,0,2024-02-28T14:42:42.304Z,french_701.wav,0,poule,261,30,5,4,English,f,5,0.5,-42.04160911,0.8503416
65bba4976e47d14ab32b61c8,40,0,2024-02-28T14:42:42.304Z,french_701.wav,0,poule,261,30,5,4,English,f,6,0.6,-58.41766146,0.53241727
65bba4976e47d14ab32b61c8,40,0,2024-02-28T14:42:42.304Z,french_701.wav,0,poule,261,30,5,4,English,f,7,0.7,90.23612499,1.86464457
65bba4976e47d14ab32b61c8,40,0,2024-02-28T14:42:42.304Z,french_701.wav,0,poule,261,30,5,4,English,f,8,0.8,80.19297104,1.8007814
65bba4976e47d14ab32b61c8,40,0,2024-02-28T14:42:42.304Z,french_701.wav,0,poule,261,30,5,4,English,f,9,0.9,-45.72951024,1.24365205
65bba4976e47d14ab32b61c8,40,0,2024-02-28T14:42:42.304Z,french_701.wav,0,poule,261,30,5,4,English,f,10,1.0,35.47554357,1.16086821
65bba4976e47d14ab32b61c8,40,0,2024-02-28T14:42:42.304Z,french_701.wav,0,poule,261,30,5,4,English,f,11,1.1,25.09086311,0.27592984
65bba4976e47d14ab32b61c8,40,0,2024-02-28T14:42:42.304Z,french_701.wav,0,poule,261,30,5,4,English,f,12,1.14141667,-71.61211297,0.34423902
65bba4976e47d14ab32b61c8,41,0,2024-02-28T14:42:42.304Z,french_961.wav,0,poule,87,30,5,4,English,f,0,0.0,-57.76361631,0.10893139
65bba4976e47d14ab32b61c8,41,0,2024-02-28T14:42:42.304Z,french_961.wav,0,poule,87,30,5,4,English,f,1,0.1,25.39331568,1.43252878
65bba4976e47d14ab32b61c8,41,0,2024-02-28T14:42:42.304Z,french_961.wav,0,poule,87,30,5,4,English,f,2,0.2,12.35143873,0.92444386
65bba4976e47d14ab32b61c8,41,0,2024-02-28T14:42:42.304Z,french_961.wav,0,poule,87,30,5,4,English,f,3,0.3,22.75517226,1.05401088
65bba4976e47d14ab32b61c8,41,0,2024-02-28T14:42:42.304Z,french_961.wav,0,poule,87,30,5,4,English,f,4,0.4,-18.00705604,0.76286408
65bba4976e47d14ab32b61c8,41,0,2024-02-28T14:42:42.304Z,french_961.wav,0,poule,87,30,5,4,English,f,5,0.5,-39.89863119,0.39968066
65bba4976e47d14ab32b61c8,41,0,2024-02-28T14:42:42.304Z,french_961.wav,0,poule,87,30,5,4,English,f,6,0.6,-14.96300277,1.49971695
65bba4976e47d14ab32b61c8,41,0,2024-02-28T14:42:42.304Z,french_961.wav,0,poule,87,30,5,4,English,f,7,0.7,-94.00933824,0.233123
65bba4976e47d14ab32b61c8,41,0,2024-02-28T14:42:42.304Z,french_961.wav,0,poule,87,30,5,4,English,f,8,0.8,3.75296714,0.79401243
65bba4976e47d14ab32b61c8,41,0,2024-02-28T14:42:42.304Z,french_961.wav,0,poule,87,30,5,4,English,f,9,0.9,-65.25681875,0.70841327
65bba4976e47d14ab32b61c8,41,0,2024-02-28T14:42:42.304Z,french_961.wav,0,poule,87,30,5,4,English,f,10,1.0,-36.72733908,0.02300455
65bba4976e47d14ab32b61c8,41,0,2024-02-28T14:42:42.304Z,french_961.wav,0,poule,87,30,5,4,English,f,11,1.1,-39.85327237,1.99640547
65bba4976e47d14ab32b61c8,41,0,2024-02-28T14:42:42.304Z,french_961.wav,0,poule,87,30,5,4,English,f,12,1.14141667,88.04121989,1.78012452
65bba4976e47d14ab32b61c8,42,0,2024-02-28T14:42:42.304Z,french_407.wav,0,poule,154,30,5,4,English,f,0,0.0,-52.73012387,0.24402757
65bba4976e47d14ab32b61c8,42,0,2024-02-28T14:42:42.304Z,french_407.wav,0,poule,154,30,5,4,English,f,1,0.1,-28.5729864,1.29210695
65bba4976e47d14ab32b61c8,42,0,2024-02-28T14:42:42.304Z,french_407.wav,0,poule,154,30,5,4,English,f,2,0.2,-47.07796397,0.06046572
65bba4976e47d14ab32b61c8,42,0,2024-02-28T14:42:42.304Z,french_407.wav,0,poule,154,30,5,4,English,f,3,0.3,17.74684299,1.10042584
65bba4976e47d14ab32b61c8,42,0,2024-02-28T14:42:42.304Z,french_407.wav,0,poule,154,30,5,4,English,f,4,0.4,37.34640295,1.69104448
65bba4976e47d14ab32b61c8,42,0,2024-02-28T14:42:42.304Z,french_407.wav,0,poule,154,30,5,4,English,f,5,0.5,-42.43796403,0.59648632
65bba4976e47d14ab32b61c8,42,0,2024-02-28T14:42:42.304Z,french_407.wav,0,poule,154,30,5,4,English,f,6,0.6,-61.80417458,0.39705946
65bba4976e47d14ab32b61c8,42,0,2024-02-28T14:42:42.304Z,french_407.wav,0,poule,154,30,5,4,English,f,7,0.7,-21.46496731,0.26343711
65bba4976e47d14ab32b61c8,42,0,2024-02-28T14:42:42.304Z,french_407.wav,0,poule,154,30,5,4,English,f,8,0.8,95.609946,0.85042411
65bba4976e47d14ab32b61c8,42,0,2024-02-28T14:42:42.304Z,french_407.wav,0,poule,154,30,5,4,English,f,9,0.9,16.31222417,1.08752782
65bba4976e47d14ab32b61c8,42,0,2024-02-28T14:42:42.304Z,french_407.wav,0,poule,154,30,5,4,English,f,10,1.0,-16.20883131,1.29538933
65bba4976e47d14ab32b61c8,42,0,2024-02-28T14:42:42.304Z,french_407.wav,0,poule,154,30,5,4,English,f,11,1.1,-36.82799384,0.90220762
65bba4976e47d14ab32b61c8,42,0,2024-02-28T14:42:42.304Z,french_407.wav,0,poule,154,30,5,4,English,f,12,1.14141667,63.4089875,1.14604251
65bba4976e47d14ab32b61c8,43,0,2024-02-28T14:42:42.304Z,french_418.wav,0,poule,226,30,5,4,English,f,0,0.0,30.8158802,0.39666711
65bba4976e47d14ab32b61c8,43,0,2024-02-28T14:42:42.304Z,french_418.wav,0,poule,226,30,5,4,English,f,1,0.1,-49.53284919,1.06359174
65bba4976e47d14ab32b61c8,43,0,2024-02-28T14:42:42.304Z,french_418.wav,0,poule,226,30,5,4,English,f,2,0.2,36.79712785,0.64757436
65bba4976e47d14ab32b61c8,43,0,2024-02-28T14:42:42.304Z,french_418.wav,0,poule,226,30,5,4,English,f,3,0.3,-99.55359759,1.7224486
65bba4976e47d14ab32b61c8,43,0,2024-02-28T14:42:42.304Z,french_418.wav,0,poule,226,30,5,4,English,f,4,0.4,68.9088774,0.44902576
65bba4976e47d14ab32b61c8,43,0,2024-02-28T14:42:42.304Z,french_418.wav,0,poule,226,30,5,4,English,f,5,0.5,80.99957915,1.67719648
65bba4976e47d14ab32b61c8,43,0,2024-02-28T14:42:42.304Z,french_418.wav,0,poule,226,30,5,4,English,f,6,0.6,4.26486526,1.66921538
65bba4976e47d14ab32b61c8,43,0,2024-02-28T14:42:42.304Z,french_418.wav,0,poule,226,30,5,4,English,f,7,0.7,-17.5210691,1.5326406
65bba4976e47d14ab32b61c8,43,0,2024-02-28T14:42:42.304Z,french_418.wav,0,poule,226,30,5,4,English,f,8,0.8,62.53897835,0.45272356
65bba4976e47d14ab32b61c8,43,0,2024-02-28T14:42:42.304Z,french_418.wav,0,poule,226,30,5,4,English,f,9,0.9,-85.84748653,1.5121066
65bba4976e47d14ab32b61c8,43,0,2024-02-28T14:42:42.304Z,french_418.wav,0,poule,226,30,5,4,English,f,10,1.0,-46.33715828,0.28461943
65bba4976e47d14ab32b61c8,43,0,2024-02-28T14:42:42.304Z,french_418.wav,0,poule,226,30,5,4,English,f,11,1.1,42.67097057,0.94734784
65bba4976e47d14ab32b61c8,43,0,2024-02-28T14:42:42.304Z,french_418.wav,0,poule,226,30,5,4,English,f,12,1.14141667,-75.9263862,0.46817887
65bba4976e47d14ab32b61c8,44,0,2024-02-28T14:42:42.304Z,french_531.wav,0,poule,87,30,5,4,English,f,0,0.0,-99.16719585,0.07261015
65bba4976e47d14ab32b61c8,44,0,2024-02-28T14:42:42.304Z,french_531.wav,0,poule,87,30,5,4,English,f,1,0.1,-58.60277486,1.67506064
65bba4976e47d14ab32b61c8,44,0,2024-02-28T14:42:42.304Z,french_531.wav,0,poule,87,30,5,4,English,f,2,0.2,1.94173857,0.06585158
65bba4976e47d14ab32b61c8,44,0,2024-02-28T14:42:42.304Z,french_531.wav,0,poule,87,30,5,4,English,f,3,0.3,-4.8835684,0.93322962
65bba4976e47d14ab32b61c8,44,0,2024-02-28T14:42:42.304Z,french_531.wav,0,poule,87,30,5,4,English,f,4,0.4,-50.9912331,0.18048067
65bba4976e47d14ab32b61c8,44,0,2024-02-28T14:42:42.304Z,french_531.wav,0,poule,87,30,5,4,English,f,5,0.5,35.53024455,0.71042268
65bba4976e47d14ab32b61c8,44,0,2024-02-28T14:42:42.304Z,french_531.wav,0,poule,87,30,5,4,English,f,6,0.6,60.94981065,1.70175741
65bba4976e47d14ab32b61c8,44,0,2024-02-28T14:42:42.304Z,french_531.wav,0,poule,87,30,5,4,English,f,7,0.7,93.30395839,1.53540352
65bba4976e47d14ab32b61c8,44,0,2024-02-28T14:42:42.304Z,french_531.wav,0,poule,87,30,5,4,English,f,8,0.8,18.66393053,0.94508122
65bba4976e47d14ab32b61c8,44,0,2024-02-28T14:42:42.304Z,french_531.wav,0,poule,87,30,5,4,English,f,9,0.9,58.02367682,1.79746277
65bba4976e47d14ab32b61c8,44,0,2024-02-28T14:42:42.304Z,french_531.wav,0,poule,87,30,5,4,English,f,10,1.0,58.08127461,0.92096106
65bba4976e47d14ab32b61c8,44,0,2024-02-28T14:42:42.304Z,french_531.wav,0,poule,87,30,5,4,English,f,11,1.1,90.75945006,1.42399223
65bba4976e47d14ab32b61c8,44,0,2024-02-28T14:42:42.304Z,french_531.wav,0,poule,87,30,5,4,English,f,12,1.14141667,22.95218732,1.53076947
65bba4976e47d14ab32b61c8,45,0,2024-02-28T14:42:42.304Z,french_374.wav,0,poule,425,30,5,4,English,f,0,0.0,-73.36770619,1.8243985
65bba4976e47d14ab32b61c8,45,0,2024-02-28T14:42:42.304Z,french_374.wav,0,poule,425,30,5,4,English,f,1,0.1,36.09124315,0.19967439
65bba4976e47d14ab32b61c8,45,0,2024-02-28T14:42:42.304Z,french_374.wav,0,poule,425,30,5,4,English,f,2,0.2,30.41930424,0.45303578
65bba4976e47d14ab32b61c8,45,0,2024-02-28T14:42:42.304Z,french_374.wav,0,poule,425,30,5,4,English,f,3,0.3,3.27623503,0.80405214
65bba4976e47d14ab32b61c8,45,0,2024-02-28T14:42:42.304Z,french_374.wav,0,poule,425,30,5,4,English,f,4,0.4,-73.34149579,1.42028051
65bba4976e47d14ab32b61c8,45,0,2024-02-28T14:42:42.304Z,french_374.wav,0,poule,425,30,5,4,English,f,5,0.5,86.86435605,1.98711767
65bba4976e47d14ab32b61c8,45,0,2024-02-28T14:42:42.304Z,french_374.wav,0,poule,425,30,5,4,English,f,6,0.6,24.4857118,1.99384715
65bba4976e47d14ab32b61c8,45,0,2024-02-28T14:42:42.304Z,french_374.wav,0,poule,425,30,5,4,English,f,7,0.7,-69.31227427,1.54038495
65bba4976e47d14ab32b61c8,45,0,2024-02-28T14:42:42.304Z,french_374.wav,0,poule,425,30,5,4,English,f,8,0.8,-24.89700854,1.02830185
65bba4976e47d14ab32b61c8,45,0,2024-02-28T14:42:42.304Z,french_374.wav,0,poule,425,30,5,4,English,f,9,0.9,-28.99159538,1.86032293
65bba4976e47d14ab32b61c8,45,0,2024-02-28T14:42:42.304Z,french_374.wav,0,poule,425,30,5,4,English,f,10,1.0,90.51139416,0.94233535
65bba4976e47d14ab32b61c8,45,0,2024-02-28T14:42:42.304Z,french_374.wav,0,poule,425,30,5,4,English,f,11,1.1,-31.91151107,1.17580502
65bba4976e47d14ab32b61c8,45,0,2024-02-28T14:42:42.304Z,french_374.wav,0,poule,425,30,5,4,English,f,12,1.14141667,-3.72146175,0.33217699
65bba4976e47d14ab32b61c8,46,0,2024-02-28T14:42:42.304Z,french_9.wav,0,poule,203,30,5,4,English,f,0,0.0,70.21366491,0.37662074
65bba4976e47d14ab32b61c8,46,0,2024-02-28T14:42:42.304Z,french_9.wav,0,poule,203,30,5,4,English,f,1,0.1,91.50371141,1.83157943
65bba4976e47d14ab32b61c8,46,0,2024-02-28T14:42:42.304Z,french_9.wav,0,poule,203,30,5,4,English,f,2,0.2,-85.12272145,1.1022813
65bba4976e47d14ab32b61c8,46,0,2024-02-28T14:42:42.304Z,french_9.wav,0,poule,203,30,5,4,English,f,3,0.3,-75.82363795,1.48908975
65bba4976e47d14ab32b61c8,46,0,2024-02-28T14:42:42.304Z,french_9.wav,0,poule,203,30,5,4,English,f,4,0.4,70.73308418,0.90588888
65bba4976e47d14ab32b61c8,46,0,2024-02-28T14:42:42.304Z,french_9.wav,0,poule,203,30,5,4,English,f,5,0.5,-52.13890441,0.40550138
65bba4976e47d14ab32b61c8,46,0,2024-02-28T14:42:42.304Z,french_9.wav,0,poule,203,30,5,4,English,f,6,0.6,46.1667871,0.80579576
65bba4976e47d14ab32b61c8,46,0,2024-02-28T14:42:42.304Z,french_9.wav,0,poule,203,30,5,4,English,f,7,0.7,-34.69202558,1.194847
65bba4976e47d14ab32b61c8,46,0,2024-02-28T14:42:42.304Z,french_9.wav,0,poule,203,30,5,4,English,f,8,0.8,34.67367308,0.68829777
65bba4976e47d14ab32b61c8,46,0,2024-02-28T14:42:42.304Z,french_9.wav,0,poule,203,30,5,4,English,f,9,0.9,85.91967681,1.08914426
65bba4976e47d14ab32b61c8,46,0,2024-02-28T14:42:42.304Z,french_9.wav,0,poule,203,30,5,4,English,f,10,1.0,-83.0691135,1.95098113
65bba4976e47d14ab32b61c8,46,0,2024-02-28T14:42:42.304Z,french_9.wav,0,poule,203,30,5,4,English,f,11,1.1,-3.32695792,0.09700166
65bba4976e47d14ab32b61c8,46,0,2024-02-28T14:42:42.304Z,french_9.wav,0,poule,203,30,5,4,English,f,12,1.14141667,-42.25547531,0.87797132
65bba4976e47d14ab32b61c8,47,0,2024-02-28T14:42:42.304Z,french_790.wav,0,poule,251,30,5,4,English,f,0,0.0,-57.89390183,1.82865837
65bba4976e47d14ab32b61c8,47,0,2024-02-28T14:42:42.304Z,french_790.wav,0,poule,251,30,5,4,English,f,1,0.1,79.17034047,0.89920795
65bba4976e47d14ab32b61c8,47,0,2024-02-28T14:42:42.304Z,french_790.wav,0,poule,251,30,5,4,English,f,2,0.2,61.93580685,1.70315706
65bba4976e47d14ab32b61c8,47,0,2024-02-28T14:42:42.304Z,french_790.wav,0,poule,251,30,5,4,English,f,3,0.3,73.83766419,0.63562482
65bba4976e47d14ab32b61c8,47,0,2024-02-28T14:42:42.304Z,french_790.wav,0,poule,251,30,5,4,English,f,4,0.4,12.23224582,1.66129943
65bba4976e47d14ab32b61c8,47,0,2024-02-28T14:42:42.304Z,french_790.wav,0,poule,251,30,5,4,English,f,5,0.5,-36.20570809,1.84264673
65bba4976e47d14ab32b61c8,47,0,2024-02-28T14:42:42.304Z,french_790.wav,0,poule,251,30,5,4,English,f,6,0.6,-35.80418352,1.991074
65bba4976e47d14ab32b61c8,47,0,2024-02-28T14:42:42.304Z,french_790.wav,0,poule,251,30,5,4,English,f,7,0.7,69.07593122,1.03555826
65bba4976e47d14ab32b61c8,47,0,2024-02-28T14:42:42.304Z,french_790.wav,0,poule,251,30,5,4,English,f,8,0.8,53.97673234,1.17116983
65bba4976e47d14ab32b61c8,47,0,2024-02-28T14:42:42.304Z,french_790.wav,0,poule,251,30,5,4,English,f,9,0.9,5.33736996,0.91705366
65bba4976e47d14ab32b61c8,47,0,2024-02-28T14:42:42.304Z,french_790.wav,0,poule,251,30,5,4,English,f,10,1.0,-61.7851313,0.69782623
65bba4976e47d14ab32b61c8,47,0,2024-02-28T14:42:42.304Z,french_790.wav,0,poule,251,30,5,4,English,f,11,1.1,-57.04830132,0.3273665
65bba4976e47d14ab32b61c8,47,0,2024-02-28T14:42:42.304Z,french_790.wav,0,poule,251,30,5,4,English,f,12,1.14141667,-40.58679678,1.69019386
65bba4976e47d14ab32b61c8,48,0,2024-02-28T14:42:42.304Z,french_220.wav,0,poule,251,30,5,4,English,f,0,0.0,-47.86203104,0.17649175
65bba4976e47d14ab32b61c8,48,0,2024-02-28T14:42:42.304Z,french_220.wav,0,poule,251,30,5,4,English,f,1,0.1,-2.12019525,0.55844568
65bba4976e47d14ab32b61c8,48,0,2024-02-28T14:42:42.304Z,french_220.wav,0,poule,251,30,5,4,English,f,2,0.2,11.33443683,0.51968643
65bba4976e47d14ab32b61c8,48,0,2024-02-28T14:42:42.304Z,french_220.wav,0,poule,251,30,5,4,English,f,3,0.3,26.73426002,0.91323903
65bba4976e47d14ab32b61c8,48,0,2024-02-28T14:42:42.304Z,french_220.wav,0,poule,251,30,5,4,English,f,4,0.4,-20.00864526,1.83941424
65bba4976e47d14ab32b61c8,48,0,2024-02-28T14:42:42.304Z,french_220.wav,0,poule,251,30,5,4,English,f,5,0.5,66.4142843,1.66792491
65bba4976e47d14ab32b61c8,48,0,2024-02-28T14:42:42.304Z,french_220.wav,0,poule,251,30,5,4,English,f,6,0.6,-25.00808868,1.72207121
65bba4976e47d14ab32b61c8,48,0,2024-02-28T14:42:42.304Z,french_220.wav,0,poule,251,30,5,4,English,f,7,0.7,-40.0848978,0.69900455
65bba4976e47d14ab32b61c8,48,0,2024-02-28T14:42:42.304Z,french_220.wav,0,poule,251,30,5,4,English,f,8,0.8,72.97244598,1.89129623
65bba4976e47d14ab32b61c8,48,0,2024-02-28T14:42:42.304Z,french_220.wav,0,poule,251,30,5,4,English,f,9,0.9,77.81836091,1.89462756
65bba4976e47d14ab32b61c8,48,0,2024-02-28T14:42:42.304Z,french_220.wav,0,poule,251,30,5,4,English,f,10,1.0,14.03709177,1.13767499
65bba4976e47d14ab32b61c8,48,0,2024-02-28T14:42:42.304Z,french_220.wav,0,poule,251,30,5,4,English,f,11,1.1,33.22448401,0.48678829
65bba4976e47d14ab32b61c8,48,0,2024-02-28T14:42:42.304Z,french_220.wav,0,poule,251,30,5,4,English,f,12,1.14141667,8.56507439,1.85900383
65bba4976e47d14ab32b61c8,49,0,2024-02-28T14:42:42.304Z,french_679.wav,0,poule,215,30,5,4,English,f,0,0.0,-14.70734509,1.46597583
65bba4976e47d14ab32b61c8,49,0,2024-02-28T14:42:42.304Z,french_679.wav,0,poule,215,30,5,4,English,f,1,0.1,-71.06769053,1.54510521
65bba4976e47d14ab32b61c8,49,0,2024-02-28T14:42:42.304Z,french_679.wav,0,poule,215,30,5,4,English,f,2,0.2,0.78593543,0.85896876
65bba4976e47d14ab32b61c8,49,0,2024-02-28T14:42:42.304Z,french_679.wav,0,poule,215,30,5,4,English,f,3,0.3,21.61945259,0.42109755
65bba4976e47d14ab32b61c8,49,0,2024-02-28T14:42:42.304Z,french_679.wav,0,poule,215,30,5,4,English,f,4,0.4,-93.25434466,0.86545886
65bba4976e47d14ab32b61c8,49,0,2024-02-28T14:42:42.304Z,french_679.wav,0,poule,215,30,5,4,English,f,5,0.5,-11.67449827,0.11204976
65bba4976e47d14ab32b61c8,49,0,2024-02-28T14:42:42.304Z,french_679.wav,0,poule,215,30,5,4,English,f,6,0.6,-39.79898507,1.27761458
65bba4976e47d14ab32b61c8,49,0,2024-02-28T14:42:42.304Z,french_679.wav,0,poule,215,30,5,4,English,f,7,0.7,-44.77239166,1.34435357
65bba4976e47d14ab32b61c8,49,0,2024-02-28T14:42:42.304Z,french_679.wav,0,poule,215,30,5,4,English,f,8,0.8,-59.78561396,0.62354184
65bba4976e47d14ab32b61c8,49,0,2024-02-28T14:42:42.304Z,french_679.wav,0,poule,215,30,5,4,English,f,9,0.9,18.05772854,0.28507196
65bba4976e47d14ab32b61c8,49,0,2024-02-28T14:42:42.304Z,french_679.wav,0,poule,215,30,5,4,English,f,10,1.0,47.53619055,1.41472683
65bba4976e47d14ab32b61c8,49,0,2024-02-28T14:42:42.304Z,french_679.wav,0,poule,215,30,5,4,English,f,11,1.1,9.35196461,0.97298944
65bba4976e47d14ab32b61c8,49,0,2024-02-28T14:42:42.304Z,french_679.wav,0,poule,215,30,5,4,English,f,12,1.14141667,-39.99964019,0.81950462
65bba4976e47d14ab32b61c8,50,1,2024-02-28T14:42:42.304Z,french_350.wav,0,poule,584,30,5,4,English,f,0,0.0,49.18780015,1.13395449
65bba4976e47d14ab32b61c8,50,1,2024-02-28T14:42:42.304Z,french_350.wav,0,poule,584,30,5,4,English,f,1,0.1,72.56599871,1.35674112
65bba4976e47d14ab32b61c8,50,1,2024-02-28T14:42:42.304Z,french_350.wav,0,poule,584,30,5,4,English,f,2,0.2,82.40633288,1.64110949
65bba4976e47d14ab32b61c8,50,1,2024-02-28T14:42:42.304Z,french_350.wav,0,poule,584,30,5,4,English,f,3,0.3,-82.3613748,0.20020041
65bba4976e47d14ab32b61c8,50,1,2024-02-28T14:42:42.304Z,french_350.wav,0,poule,584,30,5,4,English,f,4,0.4,-55.26706973,1.72643687
65bba4976e47d14ab32b61c8,50,1,2024-02-28T14:42:42.304Z,french_350.wav,0,poule,584,30,5,4,English,f,5,0.5,32.71718065,0.50546476
65bba4976e47d14ab32b61c8,50,1,2024-02-28T14:42:42.304Z,french_350.wav,0,poule,584,30,5,4,English,f,6,0.6,-77.12745481,1.03887292
65bba4976e47d14ab32b61c8,50,1,2024-02-28T14:42:42.304Z,french_350.wav,0,poule,584,30,5,4,English,f,7,0.7,53.19413298,0.02836182
65bba4976e47d14ab32b61c8,50,1,2024-02-28T14:42:42.304Z,french_350.wav,0,poule,584,30,5,4,English,f,8,0.8,63.69374639,1.25705859
65bba4976e47d14ab32b61c8,50,1,2024-02-28T14:42:42.304Z,french_350.wav,0,poule,584,30,5,4,English,f,9,0.9,-4.94503234,0.65948503
65bba4976e47d14ab32b61c8,50,1,2024-02-28T14:42:42.304Z,french_350.wav,0,poule,584,30,5,4,English,f,10,1.0,8.94892579,0.3253589
65bba4976e47d14ab32b61c8,50,1,2024-02-28T14:42:42.304Z,french_350.wav,0,poule,584,30,5,4,English,f,11,1.1,-63.25021916,1.08649671
65bba4976e47d14ab32b61c8,50,1,2024-02-28T14:42:42.304Z,french_350.wav,0,poule,584,30,5,4,English,f,12,1.14141667,62.49358968,1.97191137
65bba4976e47d14ab32b61c8,51,1,2024-02-28T14:42:42.304Z,french_267.wav,0,poule,214,30,5,4,English,f,0,0.0,18.62194101,1.74719476
65bba4976e47d14ab32b61c8,51,1,2024-02-28T14:42:42.304Z,french_267.wav,0,poule,214,30,5,4,English,f,1,0.1,-41.76587146,1.66560927
65bba4976e47d14ab32b61c8,51,1,2024-02-28T14:42:42.304Z,french_267.wav,0,poule,214,30,5,4,English,f,2,0.2,-89.0319753,0.63204019
65bba4976e47d14ab32b61c8,51,1,2024-02-28T14:42:42.304Z,french_267.wav,0,poule,214,30,5,4,English,f,3,0.3,-9.29393358,1.85189237
65bba4976e47d14ab32b61c8,51,1,2024-02-28T14:42:42.304Z,french_267.wav,0,poule,214,30,5,4,English,f,4,0.4,4.87685639,1.63232166
65bba4976e47d14ab32b61c8,51,1,2024-02-28T14:42:42.304Z,french_267.wav,0,poule,214,30,5,4,English,f,5,0.5,55.48582026,0.52529496
65bba4976e47d14ab32b61c8,51,1,2024-02-28T14:42:42.304Z,french_267.wav,0,poule,214,30,5,4,English,f,6,0.6,68.06270027,0.12234138
65bba4976e47d14ab32b61c8,51,1,2024-02-28T14:42:42.304Z,french_267.wav,0,poule,214,30,5,4,English,f,7,0.7,73.37283609,0.34795173
65bba4976e47d14ab32b61c8,51,1,2024-02-28T14:42:42.304Z,french_267.wav,0,poule,214,30,5,4,English,f,8,0.8,87.54245383,1.84655651
65bba4976e47d14ab32b61c8,51,1,2024-02-28T14:42:42.304Z,french_267.wav,0,poule,214,30,5,4,English,f,9,0.9,-36.95251774,1.60281613
65bba4976e47d14ab32b61c8,51,1,2024-02-28T14:42:42.304Z,french_267.wav,0,poule,214,30,5,4,English,f,10,1.0,15.0077511,0.17639531
65bba4976e47d14ab32b61c8,51,1,2024-02-28T14:42:42.304Z,french_267.wav,0,poule,214,30,5,4,English,f,11,1.1,1.73751708,1.90986938
65bba4976e47d14ab32b61c8,51,1,2024-02-28T14:42:42.304Z,french_267.wav,0,poule,214,30,5,4,English,f,12,1.14141667,-26.35169503,1.88890826
65bba4976e47d14ab32b61c8,52,1,2024-02-28T14:42:42.304Z,french_401.wav,0,poule,139,30,5,4,English,f,0,0.0,-7.60998306,0.15669588
65bba4976e47d14ab32b61c8,52,1,2024-02-28T14:42:42.304Z,french_401.wav,0,poule,139,30,5,4,English,f,1,0.1,49.24268399,1.26966849
65bba4976e47d14ab32b61c8,52,1,2024-02-28T14:42:42.304Z,french_401.wav,0,poule,139,30,5,4,English,f,2,0.2,-14.79637539,1.70141129
65bba4976e47d14ab32b61c8,52,1,2024-02-28T14:42:42.304Z,french_401.wav,0,poule,139,30,5,4,English,f,3,0.3,72.88593464,0.39327529
65bba4976e47d14ab32b61c8,52,1,2024-02-28T14:42:42.304Z,french_401.wav,0,poule,139,30,5,4,English,f,4,0.4,-98.49561517,1.22367072
65bba4976e47d14ab32b61c8,52,1,2024-02-28T14:42:42.304Z,french_401.wav,0,poule,139,30,5,4,English,f,5,0.5,-60.8939001,1.1170169
65bba4976e47d14ab32b61c8,52,1,2024-02-28T14:42:42.304Z,french_401.wav,0,poule,139,30,5,4,English,f,6,0.6,32.63233263,1.5139571
65bba4976e47d14ab32b61c8,52,1,2024-02-28T14:42:42.304Z,french_401.wav,0,poule,139,30,5,4,English,f,7,0.7,-55.97134542,1.3547448
65bba4976e47d14ab32b61c8,52,1,2024-02-28T14:42:42.304Z,french_401.wav,0,poule,139,30,5,4,English,f,8,0.8,39.70722097,0.57513348
65bba4976e47d14ab32b61c8,52,1,2024-02-28T14:42:42.304Z,french_401.wav,0,poule,139,30,5,4,English,f,9,0.9,68.29525005,1.18430789
65bba4976e47d14ab32b61c8,52,1,2024-02-28T14:42:42.304Z,french_401.wav,0,poule,139,30,5,4,English,f,10,1.0,56.75484748,0.55199782
65bba4976e47d14ab32b61c8,52,1,2024-02-28T14:42:42.304Z,french_401.wav,0,poule,139,30,5,4,English,f,11,1.1,-66.7261144,0.76232347
65bba4976e47d14ab32b61c8,52,1,2024-02-28T14:42:42.304Z,french_401.wav,0,poule,139,30,5,4,English,f,12,1.14141667,62.31424057,0.18818323
65bba4976e47d14ab32b61c8,53,1,2024-02-28T14:42:42.304Z,french_653.wav,0,poule,695,30,5,4,English,f,0,0.0,-16.6650237,0.6514058
65bba4976e47d14ab32b61c8,53,1,2024-02-28T14:42:42.304Z,french_653.wav,0,poule,695,30,5,4,English,f,1,0.1,-8.50735594,0.80912236
65bba4976e47d14ab32b61c8,53,1,2024-02-28T14:42:42.304Z,french_653.wav,0,poule,695,30,5,4,English,f,2,0.2,59.74245416,1.05565194
65bba4976e47d14ab32b61c8,53,1,2024-02-28T14:42:42.304Z,french_653.wav,0,poule,695,30,5,4,English,f,3,0.3,-64.86263645,1.59567426
65bba4976e47d14ab32b61c8,53,1,2024-02-28T14:42:42.304Z,french_653.wav,0,poule,695,30,5,4,English,f,4,0.4,-59.72264617,1.49585524
65bba4976e47d14ab32b61c8,53,1,2024-02-28T14:42:42.304Z,french_653.wav,0,poule,695,30,5,4,English,f,5,0.5,-38.42409471,0.43064882
65bba4976e47d14ab32b61c8,53,1,2024-02-28T14:42:42.304Z,french_653.wav,0,poule,695,30,5,4,English,f,6,0.6,-66.71222224,0.29035008
65bba4976e47d14ab32b61c8,53,1,2024-02-28T14:42:42.304Z,french_653.wav,0,poule,695,30,5,4,English,f,7,0.7,-1.64153682,1.70426818
65bba4976e47d14ab32b61c8,53,1,2024-02-28T14:42:42.304Z,french_653.wav,0,poule,695,30,5,4,English,f,8,0.8,-58.84034728,0.82836214
65bba4976e47d14ab32b61c8,53,1,2024-02-28T14:42:42.304Z,french_653.wav,0,poule,695,30,5,4,English,f,9,0.9,24.2211282,0.71951004
65bba4976e47d14ab32b61c8,53,1,2024-02-28T14:42:42.304Z,french_653.wav,0,poule,695,30,5,4,English,f,10,1.0,2.29759393,0.36282723
65bba4976e47d14ab32b61c8,53,1,2024-02-28T14:42:42.304Z,french_653.wav,0,poule,695,30,5,4,English,f,11,1.1,-18.37494867,0.47770594
65bba4976e47d14ab32b61c8,53,1,2024-02-28T14:42:42.304Z,french_653.wav,0,poule,695,30,5,4,English,f,12,1.14141667,-14.47262819,1.04977426
65bba4976e47d14ab32b61c8,54,1,2024-02-28T14:42:42.304Z,french_408.wav,0,poule,172,30,5,4,English,f,0,0.0,57.66287293,0.97919047
65bba4976e47d14ab32b61c8,54,1,2024-02-28T14:42:42.304Z,french_408.wav,0,poule,172,30,5,4,English,f,1,0.1,97.93839552,1.75049415
65bba4976e47d14ab32b61c8,54,1,2024-02-28T14:42:42.304Z,french_408.wav,0,poule,172,30,5,4,English,f,2,0.2,-36.35390522,0.42601853
65bba4976e47d14ab32b61c8,54,1,2024-02-28T14:42:42.304Z,french_408.wav,0,poule,172,30,5,4,English,f,3,0.3,-90.18432496,0.19355807
65bba4976e47d14ab32b61c8,54,1,2024-02-28T14:42:42.304Z,french_408.wav,0,poule,172,30,5,4,English,f,4,0.4,77.46855699,0.61301907
65bba4976e47d14ab32b61c8,54,1,2024-02-28T14:42:42.304Z,french_408.wav,0,poule,172,30,5,4,English,f,5,0.5,-58.59457593,1.34428146
65bba4976e47d14ab32b61c8,54,1,2024-02-28T14:42:42.304Z,french_408.wav,0,poule,172,30,5,4,English,f,6,0.6,17.75527267,0.94860776
65bba4976e47d14ab32b61c8,54,1,2024-02-28T14:42:42.304Z,french_408.wav,0,poule,172,30,5,4,English,f,7,0.7,-51.28739939,0.59865159
65bba4976e47d14ab32b61c8,54,1,2024-02-28T14:42:42.304Z,french_408.wav,0,poule,172,30,5,4,English,f,8,0.8,-48.80162111,1.44134646
65bba4976e47d14ab32b61c8,54,1,2024-02-28T14:42:42.304Z,french_408.wav,0,poule,172,30,5,4,English,f,9,0.9,-72.58398365,0.53845546
65bba4976e47d14ab32b61c8,54,1,2024-02-28T14:42:42.304Z,french_408.wav,0,poule,172,30,5,4,English,f,10,1.0,2.3507173,1.04957874
65bba4976e47d14ab32b61c8,54,1,2024-02-28T14:42:42.304Z,french_408.wav,0,poule,172,30,5,4,English,f,11,1.1,-12.63030399,1.86480696
65bba4976e47d14ab32b61c8,54,1,2024-02-28T14:42:42.304Z,french_408.wav,0,poule,172,30,5,4,English,f,12,1.14141667,70.79914173,0.77055656
65bba4976e47d14ab32b61c8,55,1,2024-02-28T14:42:42.304Z,french_700.wav,0,poule,310,30,5,4,English,f,0,0.0,-27.53247214,1.49055523
65bba4976e47d14ab32b61c8,55,1,2024-02-28T14:42:42.304Z,french_700.wav,0,poule,310,30,5,4,English,f,1,0.1,-29.71209931,1.00637482
65bba4976e47d14ab32b61c8,55,1,2024-02-28T14:42:42.304Z,french_700.wav,0,poule,310,30,5,4,English,f,2,0.2,10.89159195,0.22182663
65bba4976e47d14ab32b61c8,55,1,2024-02-28T14:42:42.304Z,french_700.wav,0,poule,310,30,5,4,English,f,3,0.3,-53.06982063,1.24768056
65bba4976e47d14ab32b61c8,55,1,2024-02-28T14:42:42.304Z,french_700.wav,0,poule,310,30,5,4,English,f,4,0.4,-47.25715366,1.67932013
65bba4976e47d14ab32b61c8,55,1,2024-02-28T14:42:42.304Z,french_700.wav,0,poule,310,30,5,4,English,f,5,0.5,12.01274328,1.54412989
65bba4976e47d14ab32b61c8,55,1,2024-02-28T14:42:42.304Z,french_700.wav,0,poule,310,30,5,4,English,f,6,0.6,-35.34261671,1.68740312
65bba4976e47d14ab32b61c8,55,1,2024-02-28T14:42:42.304Z,french_700.wav,0,poule,310,30,5,4,English,f,7,0.7,38.95748155,0.25312184
65bba4976e47d14ab32b61c8,55,1,2024-02-28T14:42:42.304Z,french_700.wav,0,poule,310,30,5,4,English,f,8,0.8,83.20971937,0.49670462
65bba4976e47d14ab32b61c8,55,1,2024-02-28T14:42:42.304Z,french_700.wav,0,poule,310,30,5,4,English,f,9,0.9,-65.50939015,1.3467354
65bba4976e47d14ab32b61c8,55,1,2024-02-28T14:42:42.304Z,french_700.wav,0,poule,310,30,5,4,English,f,10,1.0,94.61096103,0.15356174
65bba4976e47d14ab32b61c8,55,1,2024-02-28T14:42:42.304Z,french_700.wav,0,poule,310,30,5,4,English,f,11,1.1,74.41841232,1.29558082
65bba4976e47d14ab32b61c8,55,1,2024-02-28T14:42:42.304Z,french_700.wav,0,poule,310,30,5,4,English,f,12,1.14141667,18.30440659,1.58223542
65bba4976e47d14ab32b61c8,56,1,2024-02-28T14:42:42.304Z,french_99.wav,0,poule,142,30,5,4,English,f,0,0.0,-62.95384216,0.98485538
65bba4976e47d14ab32b61c8,56,1,2024-02-28T14:42:42.304Z,french_99.wav,0,poule,142,30,5,4,English,f,1,0.1,-60.46210211,1.23543943
65bba4976e47d14ab32b61c8,56,1,2024-02-28T14:42:42.304Z,french_99.wav,0,poule,142,30,5,4,English,f,2,0.2,-24.84377693,1.64331002
65bba4976e47d14ab32b61c8,56,1,2024-02-28T14:42:42.304Z,french_99.wav,0,poule,142,30,5,4,English,f,3,0.3,90.87194872,0.92947391
65bba4976e47d14ab32b61c8,56,1,2024-02-28T14:42:42.304Z,french_99.wav,0,poule,142,30,5,4,English,f,4,0.4,-99.91452235,1.50533677
65bba4976e47d14ab32b61c8,56,1,2024-02-28T14:42:42.304Z,french_99.wav,0,poule,142,30,5,4,English,f,5,0.5,-80.51700878,1.61180724
65bba4976e47d14ab32b61c8,56,1,2024-02-28T14:42:42.304Z,french_99.wav,0,poule,142,30,5,4,English,f,6,0.6,-11.49039176,0.46286497
65bba4976e47d14ab32b61c8,56,1,2024-02-28T14:42:42.304Z,french_99.wav,0,poule,142,30,5,4,English,f,7,0.7,9.59973579,1.60783702
65bba4976e47d14ab32b61c8,56,1,2024-02-28T14:42:42.304Z,french_99.wav,0,poule,142,30,5,4,English,f,8,0.8,-22.55996215,0.52802577
65bba4976e47d14ab32b61c8,56,1,2024-02-28T14:42:42.304Z,french_99.wav,0,poule,142,30,5,4,English,f,9,0.9,-40.87707774,1.11972369
65bba4976e47d14ab32b61c8,56,1,2024-02-28T14:42:42.304Z,french_99.wav,0,poule,142,30,5,4,English,f,10,1.0,-7.12631106,0.67922029
65bba4976e47d14ab32b61c8,56,1,2024-02-28T14:42:42.304Z,french_99.wav,0,poule,142,30,5,4,English,f,11,1.1,66.20267038,1.43294317
65bba4976e47d14ab32b61c8,56,1,2024-02-28T14:42:42.304Z,french_99.wav,0,poule,142,30,5,4,English,f,12,1.14141667,45.35625869,1.85073869
65bba4976e47d14ab32b61c8,57,1,2024-02-28T14:42:42.304Z,french_885.wav,0,poule,215,30,5,4,English,f,0,0.0,-60.75569013,1.16892649
65bba4976e47d14ab32b61c8,57,1,2024-02-28T14:42:42.304Z,french_885.wav,0,poule,215,30,5,4,English,f,1,0.1,44.17949366,1.64447348
65bba4976e47d14ab32b61c8,57,1,2024-02-28T14:42:42.304Z,french_885.wav,0,poule,215,30,5,4,English,f,2,0.2,-36.067624,1.38345432
65bba4976e47d14ab32b61c8,57,1,2024-02-28T14:42:42.304Z,french_885.wav,0,poule,215,30,5,4,English,f,3,0.3,-54.95940224,1.06178083
65bba4976e47d14ab32b61c8,57,1,2024-02-28T14:42:42.304Z,french_885.wav,0,poule,215,30,5,4,English,f,4,0.4,48.98484611,0.43047686
65bba4976e47d14ab32b61c8,57,1,2024-02-28T14:42:42.304Z,french_885.wav,0,poule,215,30,5,4,English,f,5,0.5,-17.34659064,0.42470026
65bba4976e47d14ab32b61c8,57,1,2024-02-28T14:42:42.304Z,french_885.wav,0,poule,215,30,5,4,English,f,6,0.6,52.59755832,0.55271392
65bba4976e47d14ab32b61c8,57,1,2024-02-28T14:42:42.304Z,french_885.wav,0,poule,215,30,5,4,English,f,7,0.7,-30.51173002,1.06332536
65bba4976e47d14ab32b61c8,57,1,2024-02-28T14:42:42.304Z,french_885.wav,0,poule,215,30,5,4,English,f,8,0.8,23.61546759,1.58934229
65bba4976e47d14ab32b61c8,57,1,2024-02-28T14:42:42.304Z,french_885.wav,0,poule,215,30,5,4,English,f,9,0.9,-81.95380549,0.75323778
65bba4976e47d14ab32b61c8,57,1,2024-02-28T14:42:42.304Z,french_885.wav,0,poule,215,30,5,4,English,f,10,1.0,-11.62298582,0.05941991
65bba4976e47d14ab32b61c8,57,1,2024-02-28T14:42:42.304Z,french_885.wav,0,poule,215,30,5,4,English,f,11,1.1,-37.1929329,1.64232697
65bba4976e47d14ab32b61c8,57,1,2024-02-28T14:42:42.304Z,french_885.wav,0,poule,215,30,5,4,English,f,12,1.14141667,-35.94133053,1.35653046
65bba4976e47d14ab32b61c8,58,1,2024-02-28T14:42:42.304Z,french_600.wav,0,poule,207,30,5,4,English,f,0,0.0,52.68900208,1.20996587
65bba4976e47d14ab32b61c8,58,1,2024-02-28T14:42:42.304Z,french_600.wav,0,poule,207,30,5,4,English,f,1,0.1,-6.73067052,0.65229061
65bba4976e47d14ab32b61c8,58,1,2024-02-28T14:42:42.304Z,french_600.wav,0,poule,207,30,5,4,English,f,2,0.2,96.57898689,1.53870963
65bba4976e47d14ab32b61c8,58,1,2024-02-28T14:42:42.304Z,french_600.wav,0,poule,207,30,5,4,English,f,3,0.3,88.93281909,0.24911415
65bba4976e47d14ab32b61c8,58,1,2024-02-28T14:42:42.304Z,french_600.wav,0,poule,207,30,5,4,English,f,4,0.4,75.90530311,0.83209065
65bba4976e47d14ab32b61c8,58,1,2024-02-28T14:42:42.304Z,french_600.wav,0,poule,207,30,5,4,English,f,5,0.5,83.32696458,1.35695142
65bba4976e47d14ab32b61c8,58,1,2024-02-28T14:42:42.304Z,french_600.wav,0,poule,207,30,5,4,English,f,6,0.6,-66.79703103,1.60598618
65bba4976e47d14ab32b61c8,58,1,2024-02-28T14:42:42.304Z,french_600.wav,0,poule,207,30,5,4,English,f,7,0.7,63.7950694,1.81288548
65bba4976e47d14ab32b61c8,58,1,2024-02-28T14:42:42.304Z,french_600.wav,0,poule,207,30,5,4,English,f,8,0.8,-58.76780301,0.6555076
65bba4976e47d14ab32b61c8,58,1,2024-02-28T14:42:42.304Z,french_600.wav,0,poule,207,30,5,4,English,f,9,0.9,44.34251674,1.0412619
65bba4976e47d14ab32b61c8,58,1,2024-02-28T14:42:42.304Z,french_600.wav,0,poule,207,30,5,4,English,f,10,1.0,40.69658778,1.14001909
65bba4976e47d14ab32b61c8,58,1,2024-02-28T14:42:42.304Z,french_600.wav,0,poule,207,30,5,4,English,f,11,1.1,-28.98281282,0.56625227
65bba4976e47d14ab32b61c8,58,1,2024-02-28T14:42:42.304Z,french_600.wav,0,poule,207,30,5,4,English,f,12,1.14141667,43.07407366,0.71314078
65bba4976e47d14ab32b61c8,59,1,2024-02-28T14:42:42.304Z,french_707.wav,0,pull,964,30,5,4,English,f,0,0.0,-64.93442834,1.46804089
65bba4976e47d14ab32b61c8,59,1,2024-02-28T14:42:42.304Z,french_707.wav,0,pull,964,30,5,4,English,f,1,0.1,-72.2221748,0.58492239
65bba4976e47d14ab32b61c8,59,1,2024-02-28T14:42:42.304Z,french_707.wav,0,pull,964,30,5,4,English,f,2,0.2,13.62014708,1.16417946
65bba4976e47d14ab32b61c8,59,1,2024-02-28T14:42:42.304Z,french_707.wav,0,pull,964,30,5,4,English,f,3,0.3,47.83259261,1.23796764
65bba4976e47d14ab32b61c8,59,1,2024-02-28T14:42:42.304Z,french_707.wav,0,pull,964,30,5,4,English,f,4,0.4,-95.31398354,1.82345274
65bba4976e47d14ab32b61c8,59,1,2024-02-28T14:42:42.304Z,french_707.wav,0,pull,964,30,5,4,English,f,5,0.5,1.08562873,0.65758585
65bba4976e47d14ab32b61c8,59,1,2024-02-28T14:42:42.304Z,french_707.wav,0,pull,964,30,5,4,English,f,6,0.6,-4.48837622,1.01551763
65bba4976e47d14ab32b61c8,59,1,2024-02-28T14:42:42.304Z,french_707.wav,0,pull,964,30,5,4,English,f,7,0.7,-51.75801518,1.22021008
65bba4976e47d14ab32b61c8,59,1,2024-02-28T14:42:42.304Z,french_707.wav,0,pull,964,30,5,4,English,f,8,0.8,-21.80654722,1.86240461
