subj,trial,block,date,stim,stim_order,response,rt,age,english,french,language,sex,param_index,segment,pitch,stretch
5c8ee6c36ca70b0001fe979d,0,0,2024-02-28T15:02:35.772Z,french_412.wav,0,poule,595,66,5,4,e,m,0,0.0,80.33750743,1.13543916
5c8ee6c36ca70b0001fe979d,0,0,2024-02-28T15:02:35.772Z,french_412.wav,0,poule,595,66,5,4,e,m,1,0.1,50.4773299,1.15832638
5c8ee6c36ca70b0001fe979d,0,0,2024-02-28T15:02:35.772Z,french_412.wav,0,poule,595,66,5,4,e,m,2,0.2,7.50934865,0.2432056
5c8ee6c36ca70b0001fe979d,0,0,2024-02-28T15:02:35.772Z,french_412.wav,0,poule,595,66,5,4,e,m,3,0.3,-9.23463682,1.81011187
5c8ee6c36ca70b0001fe979d,0,0,2024-02-28T15:02:35.772Z,french_412.wav,0,poule,595,66,5,4,e,m,4,0.4,9.13658121,0.142234
5c8ee6c36ca70b0001fe979d,0,0,2024-02-28T15:02:35.772Z,french_412.wav,0,poule,595,66,5,4,e,m,5,0.5,11.12128685,1.17532286
5c8ee6c36ca70b0001fe979d,0,0,2024-02-28T15:02:35.772Z,french_412.wav,0,poule,595,66,5,4,e,m,6,0.6,-94.30640228,1.06397509
5c8ee6c36ca70b0001fe979d,0,0,2024-02-28T15:02:35.772Z,french_412.wav,0,poule,595,66,5,4,e,m,7,0.7,-51.41178114,1.83631312
5c8ee6c36ca70b0001fe979d,0,0,2024-02-28T15:02:35.772Z,french_412.wav,0,poule,595,66,5,4,e,m,8,0.8,28.26572128,1.0285842
5c8ee6c36ca70b0001fe979d,0,0,2024-02-28T15:02:35.772Z,french_412.wav,0,poule,595,66,5,4,e,m,9,0.9,-71.75232094,1.74888075
5c8ee6c36ca70b0001fe979d,0,0,2024-02-28T15:02:35.772Z,french_412.wav,0,poule,595,66,5,4,e,m,10,1.0,86.09965629,1.95722924
5c8ee6c36ca70b0001fe979d,0,0,2024-02-28T15:02:35.772Z,french_412.wav,0,poule,595,66,5,4,e,m,11,1.1,27.28800681,1.49997067
5c8ee6c36ca70b0001fe979d,0,0,2024-02-28T15:02:35.772Z,french_412.wav,0,poule,595,66,5,4,e,m,12,1.14141667,32.1776899,0.76864943
5c8ee6c36ca70b0001fe979d,1,0,2024-02-28T15:02:35.772Z,french_227.wav,0,poule,568,66,5,4,e,m,0,0.0,-63.98497533,1.5363518
5c8ee6c36ca70b0001fe979d,1,0,2024-02-28T15:02:35.772Z,french_227.wav,0,poule,568,66,5,4,e,m,1,0.1,7.89700286,1.08409133
5c8ee6c36ca70b0001fe979d,1,0,2024-02-28T15:02:35.772Z,french_227.wav,0,poule,568,66,5,4,e,m,2,0.2,-85.89039473,1.90427543
5c8ee6c36ca70b0001fe979d,1,0,2024-02-28T15:02:35.772Z,french_227.wav,0,poule,568,66,5,4,e,m,3,0.3,-30.72420198,0.75696463
5c8ee6c36ca70b0001fe979d,1,0,2024-02-28T15:02:35.772Z,french_227.wav,0,poule,568,66,5,4,e,m,4,0.4,54.13251522,1.27414783
5c8ee6c36ca70b0001fe979d,1,0,2024-02-28T15:02:35.772Z,french_227.wav,0,poule,568,66,5,4,e,m,5,0.5,50.29868002,0.17571721
5c8ee6c36ca70b0001fe979d,1,0,2024-02-28T15:02:35.772Z,french_227.wav,0,poule,568,66,5,4,e,m,6,0.6,17.89842047,0.16810735
5c8ee6c36ca70b0001fe979d,1,0,2024-02-28T15:02:35.772Z,french_227.wav,0,poule,568,66,5,4,e,m,7,0.7,76.60204514,0.96568279
5c8ee6c36ca70b0001fe979d,1,0,2024-02-28T15:02:35.772Z,french_227.wav,0,poule,568,66,5,4,e,m,8,0.8,-7.82280605,1.34957529
5c8ee6c36ca70b0001fe979d,1,0,2024-02-28T15:02:35.772Z,french_227.wav,0,poule,568,66,5,4,e,m,9,0.9,44.17966564,1.044977
5c8ee6c36ca70b0001fe979d,1,0,2024-02-28T15:02:35.772Z,french_227.wav,0,poule,568,66,5,4,e,m,10,1.0,35.62117152,1.59072319
5c8ee6c36ca70b0001fe979d,1,0,2024-02-28T15:02:35.772Z,french_227.wav,0,poule,568,66,5,4,e,m,11,1.1,-1.37417446,0.18742296
5c8ee6c36ca70b0001fe979d,1,0,2024-02-28T15:02:35.772Z,french_227.wav,0,poule,568,66,5,4,e,m,12,1.14141667,-40.20349559,1.71340792
5c8ee6c36ca70b0001fe979d,2,0,2024-02-28T15:02:35.772Z,french_433.wav,0,poule,759,66,5,4,e,m,0,0.0,13.65936781,1.51229861
5c8ee6c36ca70b0001fe979d,2,0,2024-02-28T15:02:35.772Z,french_433.wav,0,poule,759,66,5,4,e,m,1,0.1,59.19964003,0.95952734
5c8ee6c36ca70b0001fe979d,2,0,2024-02-28T15:02:35.772Z,french_433.wav,0,poule,759,66,5,4,e,m,2,0.2,-16.88317101,1.86428533
5c8ee6c36ca70b0001fe979d,2,0,2024-02-28T15:02:35.772Z,french_433.wav,0,poule,759,66,5,4,e,m,3,0.3,-29.25697853,1.71002057
5c8ee6c36ca70b0001fe979d,2,0,2024-02-28T15:02:35.772Z,french_433.wav,0,poule,759,66,5,4,e,m,4,0.4,-20.47261371,1.4823254
5c8ee6c36ca70b0001fe979d,2,0,2024-02-28T15:02:35.772Z,french_433.wav,0,poule,759,66,5,4,e,m,5,0.5,-95.33210222,1.31199137
5c8ee6c36ca70b0001fe979d,2,0,2024-02-28T15:02:35.772Z,french_433.wav,0,poule,759,66,5,4,e,m,6,0.6,-87.63836787,1.53917366
5c8ee6c36ca70b0001fe979d,2,0,2024-02-28T15:02:35.772Z,french_433.wav,0,poule,759,66,5,4,e,m,7,0.7,-87.59004626,0.27400767
5c8ee6c36ca70b0001fe979d,2,0,2024-02-28T15:02:35.772Z,french_433.wav,0,poule,759,66,5,4,e,m,8,0.8,-36.63017932,0.2344453
5c8ee6c36ca70b0001fe979d,2,0,2024-02-28T15:02:35.772Z,french_433.wav,0,poule,759,66,5,4,e,m,9,0.9,23.01049222,1.76474922
5c8ee6c36ca70b0001fe979d,2,0,2024-02-28T15:02:35.772Z,french_433.wav,0,poule,759,66,5,4,e,m,10,1.0,-37.6607371,1.98224239
5c8ee6c36ca70b0001fe979d,2,0,2024-02-28T15:02:35.772Z,french_433.wav,0,poule,759,66,5,4,e,m,11,1.1,-63.45582253,0.32973237
5c8ee6c36ca70b0001fe979d,2,0,2024-02-28T15:02:35.772Z,french_433.wav,0,poule,759,66,5,4,e,m,12,1.14141667,-21.18055498,0.42672881
5c8ee6c36ca70b0001fe979d,3,0,2024-02-28T15:02:35.772Z,french_654.wav,0,pull,939,66,5,4,e,m,0,0.0,-34.99893626,0.24780466
5c8ee6c36ca70b0001fe979d,3,0,2024-02-28T15:02:35.772Z,french_654.wav,0,pull,939,66,5,4,e,m,1,0.1,48.640299,0.78115806
5c8ee6c36ca70b0001fe979d,3,0,2024-02-28T15:02:35.772Z,french_654.wav,0,pull,939,66,5,4,e,m,2,0.2,-57.42841669,1.37585032
5c8ee6c36ca70b0001fe979d,3,0,2024-02-28T15:02:35.772Z,french_654.wav,0,pull,939,66,5,4,e,m,3,0.3,60.50968511,0.92953153
5c8ee6c36ca70b0001fe979d,3,0,2024-02-28T15:02:35.772Z,french_654.wav,0,pull,939,66,5,4,e,m,4,0.4,-16.79285222,0.90158135
5c8ee6c36ca70b0001fe979d,3,0,2024-02-28T15:02:35.772Z,french_654.wav,0,pull,939,66,5,4,e,m,5,0.5,60.38921633,0.72778572
5c8ee6c36ca70b0001fe979d,3,0,2024-02-28T15:02:35.772Z,french_654.wav,0,pull,939,66,5,4,e,m,6,0.6,-84.32894633,0.70075297
5c8ee6c36ca70b0001fe979d,3,0,2024-02-28T15:02:35.772Z,french_654.wav,0,pull,939,66,5,4,e,m,7,0.7,11.89646917,1.80773832
5c8ee6c36ca70b0001fe979d,3,0,2024-02-28T15:02:35.772Z,french_654.wav,0,pull,939,66,5,4,e,m,8,0.8,-7.26468354,0.52873591
5c8ee6c36ca70b0001fe979d,3,0,2024-02-28T15:02:35.772Z,french_654.wav,0,pull,939,66,5,4,e,m,9,0.9,-6.03013543,1.2475782
5c8ee6c36ca70b0001fe979d,3,0,2024-02-28T15:02:35.772Z,french_654.wav,0,pull,939,66,5,4,e,m,10,1.0,-88.08456303,0.19931311
5c8ee6c36ca70b0001fe979d,3,0,2024-02-28T15:02:35.772Z,french_654.wav,0,pull,939,66,5,4,e,m,11,1.1,-59.96415131,0.87770786
5c8ee6c36ca70b0001fe979d,3,0,2024-02-28T15:02:35.772Z,french_654.wav,0,pull,939,66,5,4,e,m,12,1.14141667,-30.34186044,1.71975325
5c8ee6c36ca70b0001fe979d,4,0,2024-02-28T15:02:35.772Z,french_877.wav,0,poule,323,66,5,4,e,m,0,0.0,35.01358719,1.80553919
5c8ee6c36ca70b0001fe979d,4,0,2024-02-28T15:02:35.772Z,french_877.wav,0,poule,323,66,5,4,e,m,1,0.1,44.86740008,1.10205229
5c8ee6c36ca70b0001fe979d,4,0,2024-02-28T15:02:35.772Z,french_877.wav,0,poule,323,66,5,4,e,m,2,0.2,-79.59292407,1.66583823
5c8ee6c36ca70b0001fe979d,4,0,2024-02-28T15:02:35.772Z,french_877.wav,0,poule,323,66,5,4,e,m,3,0.3,-7.22750522,0.82975553
5c8ee6c36ca70b0001fe979d,4,0,2024-02-28T15:02:35.772Z,french_877.wav,0,poule,323,66,5,4,e,m,4,0.4,-2.5216875,1.38376145
5c8ee6c36ca70b0001fe979d,4,0,2024-02-28T15:02:35.772Z,french_877.wav,0,poule,323,66,5,4,e,m,5,0.5,-30.65077741,0.89494766
5c8ee6c36ca70b0001fe979d,4,0,2024-02-28T15:02:35.772Z,french_877.wav,0,poule,323,66,5,4,e,m,6,0.6,-4.86146078,0.02389059
5c8ee6c36ca70b0001fe979d,4,0,2024-02-28T15:02:35.772Z,french_877.wav,0,poule,323,66,5,4,e,m,7,0.7,-89.51285107,1.19273137
5c8ee6c36ca70b0001fe979d,4,0,2024-02-28T15:02:35.772Z,french_877.wav,0,poule,323,66,5,4,e,m,8,0.8,-40.02073069,0.7956871
5c8ee6c36ca70b0001fe979d,4,0,2024-02-28T15:02:35.772Z,french_877.wav,0,poule,323,66,5,4,e,m,9,0.9,96.12185009,1.13306
5c8ee6c36ca70b0001fe979d,4,0,2024-02-28T15:02:35.772Z,french_877.wav,0,poule,323,66,5,4,e,m,10,1.0,90.68588052,0.93972062
5c8ee6c36ca70b0001fe979d,4,0,2024-02-28T15:02:35.772Z,french_877.wav,0,poule,323,66,5,4,e,m,11,1.1,18.23570323,0.41860884
5c8ee6c36ca70b0001fe979d,4,0,2024-02-28T15:02:35.772Z,french_877.wav,0,poule,323,66,5,4,e,m,12,1.14141667,-87.75305818,1.12017052
5c8ee6c36ca70b0001fe979d,5,0,2024-02-28T15:02:35.772Z,french_263.wav,0,poule,571,66,5,4,e,m,0,0.0,-35.6234396,0.41942748
5c8ee6c36ca70b0001fe979d,5,0,2024-02-28T15:02:35.772Z,french_263.wav,0,poule,571,66,5,4,e,m,1,0.1,80.58342714,0.86466593
5c8ee6c36ca70b0001fe979d,5,0,2024-02-28T15:02:35.772Z,french_263.wav,0,poule,571,66,5,4,e,m,2,0.2,26.9247896,0.90258842
5c8ee6c36ca70b0001fe979d,5,0,2024-02-28T15:02:35.772Z,french_263.wav,0,poule,571,66,5,4,e,m,3,0.3,-64.28881536,0.30940464
5c8ee6c36ca70b0001fe979d,5,0,2024-02-28T15:02:35.772Z,french_263.wav,0,poule,571,66,5,4,e,m,4,0.4,71.8745562,0.49132319
5c8ee6c36ca70b0001fe979d,5,0,2024-02-28T15:02:35.772Z,french_263.wav,0,poule,571,66,5,4,e,m,5,0.5,-24.24365063,0.18866759
5c8ee6c36ca70b0001fe979d,5,0,2024-02-28T15:02:35.772Z,french_263.wav,0,poule,571,66,5,4,e,m,6,0.6,67.89663748,1.09978722
5c8ee6c36ca70b0001fe979d,5,0,2024-02-28T15:02:35.772Z,french_263.wav,0,poule,571,66,5,4,e,m,7,0.7,5.62822954,0.81261586
5c8ee6c36ca70b0001fe979d,5,0,2024-02-28T15:02:35.772Z,french_263.wav,0,poule,571,66,5,4,e,m,8,0.8,8.21920478,0.42151921
5c8ee6c36ca70b0001fe979d,5,0,2024-02-28T15:02:35.772Z,french_263.wav,0,poule,571,66,5,4,e,m,9,0.9,-4.84660323,0.86223793
5c8ee6c36ca70b0001fe979d,5,0,2024-02-28T15:02:35.772Z,french_263.wav,0,poule,571,66,5,4,e,m,10,1.0,92.2995778,0.83361364
5c8ee6c36ca70b0001fe979d,5,0,2024-02-28T15:02:35.772Z,french_263.wav,0,poule,571,66,5,4,e,m,11,1.1,5.29993653,0.95375213
5c8ee6c36ca70b0001fe979d,5,0,2024-02-28T15:02:35.772Z,french_263.wav,0,poule,571,66,5,4,e,m,12,1.14141667,-11.24406753,0.43274193
5c8ee6c36ca70b0001fe979d,6,0,2024-02-28T15:02:35.772Z,french_300.wav,0,poule,369,66,5,4,e,m,0,0.0,94.68384182,1.20199987
5c8ee6c36ca70b0001fe979d,6,0,2024-02-28T15:02:35.772Z,french_300.wav,0,poule,369,66,5,4,e,m,1,0.1,43.67173173,1.09384491
5c8ee6c36ca70b0001fe979d,6,0,2024-02-28T15:02:35.772Z,french_300.wav,0,poule,369,66,5,4,e,m,2,0.2,83.66057135,1.20858856
5c8ee6c36ca70b0001fe979d,6,0,2024-02-28T15:02:35.772Z,french_300.wav,0,poule,369,66,5,4,e,m,3,0.3,90.66477738,0.61005972
5c8ee6c36ca70b0001fe979d,6,0,2024-02-28T15:02:35.772Z,french_300.wav,0,poule,369,66,5,4,e,m,4,0.4,33.04822767,0.0949671
5c8ee6c36ca70b0001fe979d,6,0,2024-02-28T15:02:35.772Z,french_300.wav,0,poule,369,66,5,4,e,m,5,0.5,-39.54628631,1.02227962
5c8ee6c36ca70b0001fe979d,6,0,2024-02-28T15:02:35.772Z,french_300.wav,0,poule,369,66,5,4,e,m,6,0.6,21.73649473,1.2482894
5c8ee6c36ca70b0001fe979d,6,0,2024-02-28T15:02:35.772Z,french_300.wav,0,poule,369,66,5,4,e,m,7,0.7,-66.20699618,0.88228821
5c8ee6c36ca70b0001fe979d,6,0,2024-02-28T15:02:35.772Z,french_300.wav,0,poule,369,66,5,4,e,m,8,0.8,-68.18056654,1.15930732
5c8ee6c36ca70b0001fe979d,6,0,2024-02-28T15:02:35.772Z,french_300.wav,0,poule,369,66,5,4,e,m,9,0.9,73.28930536,0.69980892
5c8ee6c36ca70b0001fe979d,6,0,2024-02-28T15:02:35.772Z,french_300.wav,0,poule,369,66,5,4,e,m,10,1.0,74.75815468,1.66502361
5c8ee6c36ca70b0001fe979d,6,0,2024-02-28T15:02:35.772Z,french_300.wav,0,poule,369,66,5,4,e,m,11,1.1,-48.74741599,1.13907369
5c8ee6c36ca70b0001fe979d,6,0,2024-02-28T15:02:35.772Z,french_300.wav,0,poule,369,66,5,4,e,m,12,1.14141667,11.42157489,1.94543901
5c8ee6c36ca70b0001fe979d,7,0,2024-02-28T15:02:35.772Z,french_938.wav,0,poule,334,66,5,4,e,m,0,0.0,78.88220732,0.57815616
5c8ee6c36ca70b0001fe979d,7,0,2024-02-28T15:02:35.772Z,french_938.wav,0,poule,334,66,5,4,e,m,1,0.1,-3.22217582,1.18097533
5c8ee6c36ca70b0001fe979d,7,0,2024-02-28T15:02:35.772Z,french_938.wav,0,poule,334,66,5,4,e,m,2,0.2,31.59313942,0.53220918
5c8ee6c36ca70b0001fe979d,7,0,2024-02-28T15:02:35.772Z,french_938.wav,0,poule,334,66,5,4,e,m,3,0.3,-87.34103223,0.09451103
5c8ee6c36ca70b0001fe979d,7,0,2024-02-28T15:02:35.772Z,french_938.wav,0,poule,334,66,5,4,e,m,4,0.4,26.56163826,1.66363874
5c8ee6c36ca70b0001fe979d,7,0,2024-02-28T15:02:35.772Z,french_938.wav,0,poule,334,66,5,4,e,m,5,0.5,-64.307528,0.16302061
5c8ee6c36ca70b0001fe979d,7,0,2024-02-28T15:02:35.772Z,french_938.wav,0,poule,334,66,5,4,e,m,6,0.6,85.8718617,0.92582254
5c8ee6c36ca70b0001fe979d,7,0,2024-02-28T15:02:35.772Z,french_938.wav,0,poule,334,66,5,4,e,m,7,0.7,60.41522049,1.59975108
5c8ee6c36ca70b0001fe979d,7,0,2024-02-28T15:02:35.772Z,french_938.wav,0,poule,334,66,5,4,e,m,8,0.8,-50.06881787,0.43386097
5c8ee6c36ca70b0001fe979d,7,0,2024-02-28T15:02:35.772Z,french_938.wav,0,poule,334,66,5,4,e,m,9,0.9,82.85214722,1.25868971
5c8ee6c36ca70b0001fe979d,7,0,2024-02-28T15:02:35.772Z,french_938.wav,0,poule,334,66,5,4,e,m,10,1.0,-75.67548959,0.54585511
5c8ee6c36ca70b0001fe979d,7,0,2024-02-28T15:02:35.772Z,french_938.wav,0,poule,334,66,5,4,e,m,11,1.1,30.15245277,1.6315762
5c8ee6c36ca70b0001fe979d,7,0,2024-02-28T15:02:35.772Z,french_938.wav,0,poule,334,66,5,4,e,m,12,1.14141667,-12.395703,1.60331722
5c8ee6c36ca70b0001fe979d,8,0,2024-02-28T15:02:35.772Z,french_594.wav,0,pull,707,66,5,4,e,m,0,0.0,69.16257792,1.68675304
5c8ee6c36ca70b0001fe979d,8,0,2024-02-28T15:02:35.772Z,french_594.wav,0,pull,707,66,5,4,e,m,1,0.1,-51.38062927,1.08911703
5c8ee6c36ca70b0001fe979d,8,0,2024-02-28T15:02:35.772Z,french_594.wav,0,pull,707,66,5,4,e,m,2,0.2,89.14833349,1.44064207
5c8ee6c36ca70b0001fe979d,8,0,2024-02-28T15:02:35.772Z,french_594.wav,0,pull,707,66,5,4,e,m,3,0.3,-14.54901169,0.3009214
5c8ee6c36ca70b0001fe979d,8,0,2024-02-28T15:02:35.772Z,french_594.wav,0,pull,707,66,5,4,e,m,4,0.4,38.01197931,0.73043906
5c8ee6c36ca70b0001fe979d,8,0,2024-02-28T15:02:35.772Z,french_594.wav,0,pull,707,66,5,4,e,m,5,0.5,-14.93034813,1.66681062
5c8ee6c36ca70b0001fe979d,8,0,2024-02-28T15:02:35.772Z,french_594.wav,0,pull,707,66,5,4,e,m,6,0.6,90.76309798,1.44884618
5c8ee6c36ca70b0001fe979d,8,0,2024-02-28T15:02:35.772Z,french_594.wav,0,pull,707,66,5,4,e,m,7,0.7,-8.33687091,1.50262678
5c8ee6c36ca70b0001fe979d,8,0,2024-02-28T15:02:35.772Z,french_594.wav,0,pull,707,66,5,4,e,m,8,0.8,-84.37336708,1.54254131
5c8ee6c36ca70b0001fe979d,8,0,2024-02-28T15:02:35.772Z,french_594.wav,0,pull,707,66,5,4,e,m,9,0.9,-1.88818414,1.64727508
5c8ee6c36ca70b0001fe979d,8,0,2024-02-28T15:02:35.772Z,french_594.wav,0,pull,707,66,5,4,e,m,10,1.0,-36.10672087,0.99451462
5c8ee6c36ca70b0001fe979d,8,0,2024-02-28T15:02:35.772Z,french_594.wav,0,pull,707,66,5,4,e,m,11,1.1,9.11572808,0.34998624
5c8ee6c36ca70b0001fe979d,8,0,2024-02-28T15:02:35.772Z,french_594.wav,0,pull,707,66,5,4,e,m,12,1.14141667,-90.04046752,0.12693226
5c8ee6c36ca70b0001fe979d,9,0,2024-02-28T15:02:35.772Z,french_579.wav,0,poule,332,66,5,4,e,m,0,0.0,-44.9724905,1.96822281
5c8ee6c36ca70b0001fe979d,9,0,2024-02-28T15:02:35.772Z,french_579.wav,0,poule,332,66,5,4,e,m,1,0.1,0.83845953,0.71149274
5c8ee6c36ca70b0001fe979d,9,0,2024-02-28T15:02:35.772Z,french_579.wav,0,poule,332,66,5,4,e,m,2,0.2,93.06026355,0.47444189
5c8ee6c36ca70b0001fe979d,9,0,2024-02-28T15:02:35.772Z,french_579.wav,0,poule,332,66,5,4,e,m,3,0.3,-62.41374452,1.30095402
5c8ee6c36ca70b0001fe979d,9,0,2024-02-28T15:02:35.772Z,french_579.wav,0,poule,332,66,5,4,e,m,4,0.4,20.02213112,1.46488426
5c8ee6c36ca70b0001fe979d,9,0,2024-02-28T15:02:35.772Z,french_579.wav,0,poule,332,66,5,4,e,m,5,0.5,-38.5151373,0.97233373
5c8ee6c36ca70b0001fe979d,9,0,2024-02-28T15:02:35.772Z,french_579.wav,0,poule,332,66,5,4,e,m,6,0.6,22.08241798,0.80064838
5c8ee6c36ca70b0001fe979d,9,0,2024-02-28T15:02:35.772Z,french_579.wav,0,poule,332,66,5,4,e,m,7,0.7,-58.17924339,0.70983162
5c8ee6c36ca70b0001fe979d,9,0,2024-02-28T15:02:35.772Z,french_579.wav,0,poule,332,66,5,4,e,m,8,0.8,-33.23197636,0.45331315
5c8ee6c36ca70b0001fe979d,9,0,2024-02-28T15:02:35.772Z,french_579.wav,0,poule,332,66,5,4,e,m,9,0.9,46.73979954,0.98403406
5c8ee6c36ca70b0001fe979d,9,0,2024-02-28T15:02:35.772Z,french_579.wav,0,poule,332,66,5,4,e,m,10,1.0,-1.66986987,1.54220588
5c8ee6c36ca70b0001fe979d,9,0,2024-02-28T15:02:35.772Z,french_579.wav,0,poule,332,66,5,4,e,m,11,1.1,-43.99049691,0.41959049
5c8ee6c36ca70b0001fe979d,9,0,2024-02-28T15:02:35.772Z,french_579.wav,0,poule,332,66,5,4,e,m,12,1.14141667,-39.65764058,1.4912741
5c8ee6c36ca70b0001fe979d,10,0,2024-02-28T15:02:35.772Z,french_546.wav,0,poule,1062,66,5,4,e,m,0,0.0,-13.20812947,0.61614772
5c8ee6c36ca70b0001fe979d,10,0,2024-02-28T15:02:35.772Z,french_546.wav,0,poule,1062,66,5,4,e,m,1,0.1,-8.37020236,1.06411131
5c8ee6c36ca70b0001fe979d,10,0,2024-02-28T15:02:35.772Z,french_546.wav,0,poule,1062,66,5,4,e,m,2,0.2,57.48789341,1.60441563
5c8ee6c36ca70b0001fe979d,10,0,2024-02-28T15:02:35.772Z,french_546.wav,0,poule,1062,66,5,4,e,m,3,0.3,-11.78127808,0.66409069
5c8ee6c36ca70b0001fe979d,10,0,2024-02-28T15:02:35.772Z,french_546.wav,0,poule,1062,66,5,4,e,m,4,0.4,-26.00594078,1.03544668
5c8ee6c36ca70b0001fe979d,10,0,2024-02-28T15:02:35.772Z,french_546.wav,0,poule,1062,66,5,4,e,m,5,0.5,-3.33648258,0.99289071
5c8ee6c36ca70b0001fe979d,10,0,2024-02-28T15:02:35.772Z,french_546.wav,0,poule,1062,66,5,4,e,m,6,0.6,-1.73835095,0.28199712
5c8ee6c36ca70b0001fe979d,10,0,2024-02-28T15:02:35.772Z,french_546.wav,0,poule,1062,66,5,4,e,m,7,0.7,17.1570367,0.98444234
5c8ee6c36ca70b0001fe979d,10,0,2024-02-28T15:02:35.772Z,french_546.wav,0,poule,1062,66,5,4,e,m,8,0.8,37.36365726,0.65105351
5c8ee6c36ca70b0001fe979d,10,0,2024-02-28T15:02:35.772Z,french_546.wav,0,poule,1062,66,5,4,e,m,9,0.9,8.15656678,1.40961932
5c8ee6c36ca70b0001fe979d,10,0,2024-02-28T15:02:35.772Z,french_546.wav,0,poule,1062,66,5,4,e,m,10,1.0,-8.08158861,1.13622797
5c8ee6c36ca70b0001fe979d,10,0,2024-02-28T15:02:35.772Z,french_546.wav,0,poule,1062,66,5,4,e,m,11,1.1,5.60886703,0.04199534
5c8ee6c36ca70b0001fe979d,10,0,2024-02-28T15:02:35.772Z,french_546.wav,0,poule,1062,66,5,4,e,m,12,1.14141667,-59.33959304,1.17471858
5c8ee6c36ca70b0001fe979d,11,0,2024-02-28T15:02:35.772Z,french_623.wav,0,poule,319,66,5,4,e,m,0,0.0,-86.83812117,1.05106058
5c8ee6c36ca70b0001fe979d,11,0,2024-02-28T15:02:35.772Z,french_623.wav,0,poule,319,66,5,4,e,m,1,0.1,74.2111041,0.716104
5c8ee6c36ca70b0001fe979d,11,0,2024-02-28T15:02:35.772Z,french_623.wav,0,poule,319,66,5,4,e,m,2,0.2,98.95723814,1.44527186
5c8ee6c36ca70b0001fe979d,11,0,2024-02-28T15:02:35.772Z,french_623.wav,0,poule,319,66,5,4,e,m,3,0.3,-37.0218658,1.34226429
5c8ee6c36ca70b0001fe979d,11,0,2024-02-28T15:02:35.772Z,french_623.wav,0,poule,319,66,5,4,e,m,4,0.4,16.90400558,1.52765307
5c8ee6c36ca70b0001fe979d,11,0,2024-02-28T15:02:35.772Z,french_623.wav,0,poule,319,66,5,4,e,m,5,0.5,-31.51763709,0.56929388
5c8ee6c36ca70b0001fe979d,11,0,2024-02-28T15:02:35.772Z,french_623.wav,0,poule,319,66,5,4,e,m,6,0.6,17.3105587,0.38037964
5c8ee6c36ca70b0001fe979d,11,0,2024-02-28T15:02:35.772Z,french_623.wav,0,poule,319,66,5,4,e,m,7,0.7,-36.14678416,0.96955255
5c8ee6c36ca70b0001fe979d,11,0,2024-02-28T15:02:35.772Z,french_623.wav,0,poule,319,66,5,4,e,m,8,0.8,33.60964764,1.01212194
5c8ee6c36ca70b0001fe979d,11,0,2024-02-28T15:02:35.772Z,french_623.wav,0,poule,319,66,5,4,e,m,9,0.9,-2.61935036,0.66675465
5c8ee6c36ca70b0001fe979d,11,0,2024-02-28T15:02:35.772Z,french_623.wav,0,poule,319,66,5,4,e,m,10,1.0,-14.19773812,0.09693711
5c8ee6c36ca70b0001fe979d,11,0,2024-02-28T15:02:35.772Z,french_623.wav,0,poule,319,66,5,4,e,m,11,1.1,-43.63276209,1.95103561
5c8ee6c36ca70b0001fe979d,11,0,2024-02-28T15:02:35.772Z,french_623.wav,0,poule,319,66,5,4,e,m,12,1.14141667,29.17007342,0.72368638
5c8ee6c36ca70b0001fe979d,12,0,2024-02-28T15:02:35.772Z,french_206.wav,0,poule,656,66,5,4,e,m,0,0.0,43.92395117,1.77403628
5c8ee6c36ca70b0001fe979d,12,0,2024-02-28T15:02:35.772Z,french_206.wav,0,poule,656,66,5,4,e,m,1,0.1,39.31302251,1.60288441
5c8ee6c36ca70b0001fe979d,12,0,2024-02-28T15:02:35.772Z,french_206.wav,0,poule,656,66,5,4,e,m,2,0.2,-42.8927459,1.13153884
5c8ee6c36ca70b0001fe979d,12,0,2024-02-28T15:02:35.772Z,french_206.wav,0,poule,656,66,5,4,e,m,3,0.3,-42.74094368,1.48428597
5c8ee6c36ca70b0001fe979d,12,0,2024-02-28T15:02:35.772Z,french_206.wav,0,poule,656,66,5,4,e,m,4,0.4,-54.37015978,0.87838006
5c8ee6c36ca70b0001fe979d,12,0,2024-02-28T15:02:35.772Z,french_206.wav,0,poule,656,66,5,4,e,m,5,0.5,58.70658254,1.89671484
5c8ee6c36ca70b0001fe979d,12,0,2024-02-28T15:02:35.772Z,french_206.wav,0,poule,656,66,5,4,e,m,6,0.6,-93.65162754,0.9605472
5c8ee6c36ca70b0001fe979d,12,0,2024-02-28T15:02:35.772Z,french_206.wav,0,poule,656,66,5,4,e,m,7,0.7,21.97210984,1.59310841
5c8ee6c36ca70b0001fe979d,12,0,2024-02-28T15:02:35.772Z,french_206.wav,0,poule,656,66,5,4,e,m,8,0.8,-19.85883058,0.68468678
5c8ee6c36ca70b0001fe979d,12,0,2024-02-28T15:02:35.772Z,french_206.wav,0,poule,656,66,5,4,e,m,9,0.9,52.86747229,1.01785064
5c8ee6c36ca70b0001fe979d,12,0,2024-02-28T15:02:35.772Z,french_206.wav,0,poule,656,66,5,4,e,m,10,1.0,28.65042427,1.27680634
5c8ee6c36ca70b0001fe979d,12,0,2024-02-28T15:02:35.772Z,french_206.wav,0,poule,656,66,5,4,e,m,11,1.1,97.07118546,0.38746368
5c8ee6c36ca70b0001fe979d,12,0,2024-02-28T15:02:35.772Z,french_206.wav,0,poule,656,66,5,4,e,m,12,1.14141667,-9.08669324,1.12107316
5c8ee6c36ca70b0001fe979d,13,0,2024-02-28T15:02:35.772Z,french_474.wav,0,poule,1040,66,5,4,e,m,0,0.0,-88.88128127,1.51183911
5c8ee6c36ca70b0001fe979d,13,0,2024-02-28T15:02:35.772Z,french_474.wav,0,poule,1040,66,5,4,e,m,1,0.1,-87.53662443,1.47760971
5c8ee6c36ca70b0001fe979d,13,0,2024-02-28T15:02:35.772Z,french_474.wav,0,poule,1040,66,5,4,e,m,2,0.2,-73.33591132,0.71617893
5c8ee6c36ca70b0001fe979d,13,0,2024-02-28T15:02:35.772Z,french_474.wav,0,poule,1040,66,5,4,e,m,3,0.3,-58.54144931,1.42177569
5c8ee6c36ca70b0001fe979d,13,0,2024-02-28T15:02:35.772Z,french_474.wav,0,poule,1040,66,5,4,e,m,4,0.4,49.04087255,1.82178252
5c8ee6c36ca70b0001fe979d,13,0,2024-02-28T15:02:35.772Z,french_474.wav,0,poule,1040,66,5,4,e,m,5,0.5,-72.76699617,1.89638194
5c8ee6c36ca70b0001fe979d,13,0,2024-02-28T15:02:35.772Z,french_474.wav,0,poule,1040,66,5,4,e,m,6,0.6,68.67659858,1.23818799
5c8ee6c36ca70b0001fe979d,13,0,2024-02-28T15:02:35.772Z,french_474.wav,0,poule,1040,66,5,4,e,m,7,0.7,-5.36671532,1.42903819
5c8ee6c36ca70b0001fe979d,13,0,2024-02-28T15:02:35.772Z,french_474.wav,0,poule,1040,66,5,4,e,m,8,0.8,-23.75884682,1.21070139
5c8ee6c36ca70b0001fe979d,13,0,2024-02-28T15:02:35.772Z,french_474.wav,0,poule,1040,66,5,4,e,m,9,0.9,13.28179405,0.77635249
5c8ee6c36ca70b0001fe979d,13,0,2024-02-28T15:02:35.772Z,french_474.wav,0,poule,1040,66,5,4,e,m,10,1.0,-83.28350747,1.90244772
5c8ee6c36ca70b0001fe979d,13,0,2024-02-28T15:02:35.772Z,french_474.wav,0,poule,1040,66,5,4,e,m,11,1.1,-48.16746349,0.64536469
5c8ee6c36ca70b0001fe979d,13,0,2024-02-28T15:02:35.772Z,french_474.wav,0,poule,1040,66,5,4,e,m,12,1.14141667,-41.26290456,0.1097674
5c8ee6c36ca70b0001fe979d,14,0,2024-02-28T15:02:35.772Z,french_28.wav,0,poule,447,66,5,4,e,m,0,0.0,-56.10420343,1.70315994
5c8ee6c36ca70b0001fe979d,14,0,2024-02-28T15:02:35.772Z,french_28.wav,0,poule,447,66,5,4,e,m,1,0.1,-31.69596583,1.28626693
5c8ee6c36ca70b0001fe979d,14,0,2024-02-28T15:02:35.772Z,french_28.wav,0,poule,447,66,5,4,e,m,2,0.2,10.77640338,1.2824792
5c8ee6c36ca70b0001fe979d,14,0,2024-02-28T15:02:35.772Z,french_28.wav,0,poule,447,66,5,4,e,m,3,0.3,-20.69274199,1.46430812
5c8ee6c36ca70b0001fe979d,14,0,2024-02-28T15:02:35.772Z,french_28.wav,0,poule,447,66,5,4,e,m,4,0.4,6.95136345,1.88063004
5c8ee6c36ca70b0001fe979d,14,0,2024-02-28T15:02:35.772Z,french_28.wav,0,poule,447,66,5,4,e,m,5,0.5,48.14792065,1.08025973
5c8ee6c36ca70b0001fe979d,14,0,2024-02-28T15:02:35.772Z,french_28.wav,0,poule,447,66,5,4,e,m,6,0.6,97.62552183,0.53911676
5c8ee6c36ca70b0001fe979d,14,0,2024-02-28T15:02:35.772Z,french_28.wav,0,poule,447,66,5,4,e,m,7,0.7,-10.73890428,1.61562015
5c8ee6c36ca70b0001fe979d,14,0,2024-02-28T15:02:35.772Z,french_28.wav,0,poule,447,66,5,4,e,m,8,0.8,38.69981846,1.07570603
5c8ee6c36ca70b0001fe979d,14,0,2024-02-28T15:02:35.772Z,french_28.wav,0,poule,447,66,5,4,e,m,9,0.9,-67.7986679,1.41027786
5c8ee6c36ca70b0001fe979d,14,0,2024-02-28T15:02:35.772Z,french_28.wav,0,poule,447,66,5,4,e,m,10,1.0,42.50924299,0.45518513
5c8ee6c36ca70b0001fe979d,14,0,2024-02-28T15:02:35.772Z,french_28.wav,0,poule,447,66,5,4,e,m,11,1.1,18.11663107,0.65531755
5c8ee6c36ca70b0001fe979d,14,0,2024-02-28T15:02:35.772Z,french_28.wav,0,poule,447,66,5,4,e,m,12,1.14141667,-94.85686725,1.88116662
5c8ee6c36ca70b0001fe979d,15,0,2024-02-28T15:02:35.772Z,french_529.wav,0,pull,638,66,5,4,e,m,0,0.0,68.21405675,0.55022537
5c8ee6c36ca70b0001fe979d,15,0,2024-02-28T15:02:35.772Z,french_529.wav,0,pull,638,66,5,4,e,m,1,0.1,-26.26254382,1.84018601
5c8ee6c36ca70b0001fe979d,15,0,2024-02-28T15:02:35.772Z,french_529.wav,0,pull,638,66,5,4,e,m,2,0.2,35.91187259,1.28391887
5c8ee6c36ca70b0001fe979d,15,0,2024-02-28T15:02:35.772Z,french_529.wav,0,pull,638,66,5,4,e,m,3,0.3,-90.62874651,0.7250288
5c8ee6c36ca70b0001fe979d,15,0,2024-02-28T15:02:35.772Z,french_529.wav,0,pull,638,66,5,4,e,m,4,0.4,48.9626863,0.78464607
5c8ee6c36ca70b0001fe979d,15,0,2024-02-28T15:02:35.772Z,french_529.wav,0,pull,638,66,5,4,e,m,5,0.5,-34.38890804,0.26698233
5c8ee6c36ca70b0001fe979d,15,0,2024-02-28T15:02:35.772Z,french_529.wav,0,pull,638,66,5,4,e,m,6,0.6,-26.35114845,0.62081799
5c8ee6c36ca70b0001fe979d,15,0,2024-02-28T15:02:35.772Z,french_529.wav,0,pull,638,66,5,4,e,m,7,0.7,76.17282181,1.40858926
5c8ee6c36ca70b0001fe979d,15,0,2024-02-28T15:02:35.772Z,french_529.wav,0,pull,638,66,5,4,e,m,8,0.8,-86.28711417,0.07240201
5c8ee6c36ca70b0001fe979d,15,0,2024-02-28T15:02:35.772Z,french_529.wav,0,pull,638,66,5,4,e,m,9,0.9,-66.41984683,0.58270484
5c8ee6c36ca70b0001fe979d,15,0,2024-02-28T15:02:35.772Z,french_529.wav,0,pull,638,66,5,4,e,m,10,1.0,74.29634714,0.30597621
5c8ee6c36ca70b0001fe979d,15,0,2024-02-28T15:02:35.772Z,french_529.wav,0,pull,638,66,5,4,e,m,11,1.1,-35.97062469,0.43438998
5c8ee6c36ca70b0001fe979d,15,0,2024-02-28T15:02:35.772Z,french_529.wav,0,pull,638,66,5,4,e,m,12,1.14141667,81.32540921,1.7101157
5c8ee6c36ca70b0001fe979d,16,0,2024-02-28T15:02:35.772Z,french_410.wav,0,poule,774,66,5,4,e,m,0,0.0,-13.61010892,0.12499196
5c8ee6c36ca70b0001fe979d,16,0,2024-02-28T15:02:35.772Z,french_410.wav,0,poule,774,66,5,4,e,m,1,0.1,77.81547095,1.21899276
5c8ee6c36ca70b0001fe979d,16,0,2024-02-28T15:02:35.772Z,french_410.wav,0,poule,774,66,5,4,e,m,2,0.2,82.13695373,1.54170327
5c8ee6c36ca70b0001fe979d,16,0,2024-02-28T15:02:35.772Z,french_410.wav,0,poule,774,66,5,4,e,m,3,0.3,-16.93458416,0.12135823
5c8ee6c36ca70b0001fe979d,16,0,2024-02-28T15:02:35.772Z,french_410.wav,0,poule,774,66,5,4,e,m,4,0.4,-8.61826003,0.17314322
5c8ee6c36ca70b0001fe979d,16,0,2024-02-28T15:02:35.772Z,french_410.wav,0,poule,774,66,5,4,e,m,5,0.5,-33.26612631,0.58788453
5c8ee6c36ca70b0001fe979d,16,0,2024-02-28T15:02:35.772Z,french_410.wav,0,poule,774,66,5,4,e,m,6,0.6,40.79154832,1.09892225
5c8ee6c36ca70b0001fe979d,16,0,2024-02-28T15:02:35.772Z,french_410.wav,0,poule,774,66,5,4,e,m,7,0.7,66.55884445,0.15132796
5c8ee6c36ca70b0001fe979d,16,0,2024-02-28T15:02:35.772Z,french_410.wav,0,poule,774,66,5,4,e,m,8,0.8,86.34165637,0.64125421
5c8ee6c36ca70b0001fe979d,16,0,2024-02-28T15:02:35.772Z,french_410.wav,0,poule,774,66,5,4,e,m,9,0.9,91.11355202,0.30485539
5c8ee6c36ca70b0001fe979d,16,0,2024-02-28T15:02:35.772Z,french_410.wav,0,poule,774,66,5,4,e,m,10,1.0,-30.27955269,0.74953125
5c8ee6c36ca70b0001fe979d,16,0,2024-02-28T15:02:35.772Z,french_410.wav,0,poule,774,66,5,4,e,m,11,1.1,52.51274623,1.17085768
5c8ee6c36ca70b0001fe979d,16,0,2024-02-28T15:02:35.772Z,french_410.wav,0,poule,774,66,5,4,e,m,12,1.14141667,95.54585368,1.8491146
5c8ee6c36ca70b0001fe979d,17,0,2024-02-28T15:02:35.772Z,french_982.wav,0,poule,312,66,5,4,e,m,0,0.0,90.22405299,0.52333292
5c8ee6c36ca70b0001fe979d,17,0,2024-02-28T15:02:35.772Z,french_982.wav,0,poule,312,66,5,4,e,m,1,0.1,-53.16826404,0.32613641
5c8ee6c36ca70b0001fe979d,17,0,2024-02-28T15:02:35.772Z,french_982.wav,0,poule,312,66,5,4,e,m,2,0.2,57.22063992,1.76832282
5c8ee6c36ca70b0001fe979d,17,0,2024-02-28T15:02:35.772Z,french_982.wav,0,poule,312,66,5,4,e,m,3,0.3,-51.76708918,1.79419362
5c8ee6c36ca70b0001fe979d,17,0,2024-02-28T15:02:35.772Z,french_982.wav,0,poule,312,66,5,4,e,m,4,0.4,1.80244,0.6919465
5c8ee6c36ca70b0001fe979d,17,0,2024-02-28T15:02:35.772Z,french_982.wav,0,poule,312,66,5,4,e,m,5,0.5,69.86508763,0.42050619
5c8ee6c36ca70b0001fe979d,17,0,2024-02-28T15:02:35.772Z,french_982.wav,0,poule,312,66,5,4,e,m,6,0.6,-65.5276076,1.09922799
5c8ee6c36ca70b0001fe979d,17,0,2024-02-28T15:02:35.772Z,french_982.wav,0,poule,312,66,5,4,e,m,7,0.7,-9.16192061,0.52950054
5c8ee6c36ca70b0001fe979d,17,0,2024-02-28T15:02:35.772Z,french_982.wav,0,poule,312,66,5,4,e,m,8,0.8,54.04961977,0.23323956
5c8ee6c36ca70b0001fe979d,17,0,2024-02-28T15:02:35.772Z,french_982.wav,0,poule,312,66,5,4,e,m,9,0.9,-45.96609797,1.08101777
5c8ee6c36ca70b0001fe979d,17,0,2024-02-28T15:02:35.772Z,french_982.wav,0,poule,312,66,5,4,e,m,10,1.0,-24.92191699,1.08076033
5c8ee6c36ca70b0001fe979d,17,0,2024-02-28T15:02:35.772Z,french_982.wav,0,poule,312,66,5,4,e,m,11,1.1,-97.77886586,0.99284908
5c8ee6c36ca70b0001fe979d,17,0,2024-02-28T15:02:35.772Z,french_982.wav,0,poule,312,66,5,4,e,m,12,1.14141667,85.97808326,1.87727243
5c8ee6c36ca70b0001fe979d,18,0,2024-02-28T15:02:35.772Z,french_734.wav,0,pull,995,66,5,4,e,m,0,0.0,-32.93654262,0.60836272
5c8ee6c36ca70b0001fe979d,18,0,2024-02-28T15:02:35.772Z,french_734.wav,0,pull,995,66,5,4,e,m,1,0.1,72.79608102,0.03991841
5c8ee6c36ca70b0001fe979d,18,0,2024-02-28T15:02:35.772Z,french_734.wav,0,pull,995,66,5,4,e,m,2,0.2,-50.40071999,1.2364671
5c8ee6c36ca70b0001fe979d,18,0,2024-02-28T15:02:35.772Z,french_734.wav,0,pull,995,66,5,4,e,m,3,0.3,90.69974695,0.40854822
5c8ee6c36ca70b0001fe979d,18,0,2024-02-28T15:02:35.772Z,french_734.wav,0,pull,995,66,5,4,e,m,4,0.4,37.06775667,0.42768432
5c8ee6c36ca70b0001fe979d,18,0,2024-02-28T15:02:35.772Z,french_734.wav,0,pull,995,66,5,4,e,m,5,0.5,49.52329957,0.67619941
5c8ee6c36ca70b0001fe979d,18,0,2024-02-28T15:02:35.772Z,french_734.wav,0,pull,995,66,5,4,e,m,6,0.6,-9.85142624,0.85456146
5c8ee6c36ca70b0001fe979d,18,0,2024-02-28T15:02:35.772Z,french_734.wav,0,pull,995,66,5,4,e,m,7,0.7,-27.6925888,0.80405121
5c8ee6c36ca70b0001fe979d,18,0,2024-02-28T15:02:35.772Z,french_734.wav,0,pull,995,66,5,4,e,m,8,0.8,-15.44600324,0.97354212
5c8ee6c36ca70b0001fe979d,18,0,2024-02-28T15:02:35.772Z,french_734.wav,0,pull,995,66,5,4,e,m,9,0.9,89.85582039,0.56230459
5c8ee6c36ca70b0001fe979d,18,0,2024-02-28T15:02:35.772Z,french_734.wav,0,pull,995,66,5,4,e,m,10,1.0,80.64551884,0.25036131
5c8ee6c36ca70b0001fe979d,18,0,2024-02-28T15:02:35.772Z,french_734.wav,0,pull,995,66,5,4,e,m,11,1.1,-45.93519871,0.00393516
5c8ee6c36ca70b0001fe979d,18,0,2024-02-28T15:02:35.772Z,french_734.wav,0,pull,995,66,5,4,e,m,12,1.14141667,-39.52142082,1.59555679
5c8ee6c36ca70b0001fe979d,19,0,2024-02-28T15:02:35.772Z,french_827.wav,0,poule,310,66,5,4,e,m,0,0.0,47.61901084,0.78776038
5c8ee6c36ca70b0001fe979d,19,0,2024-02-28T15:02:35.772Z,french_827.wav,0,poule,310,66,5,4,e,m,1,0.1,-12.46162853,1.19255922
5c8ee6c36ca70b0001fe979d,19,0,2024-02-28T15:02:35.772Z,french_827.wav,0,poule,310,66,5,4,e,m,2,0.2,80.2031215,0.63498127
5c8ee6c36ca70b0001fe979d,19,0,2024-02-28T15:02:35.772Z,french_827.wav,0,poule,310,66,5,4,e,m,3,0.3,-17.58711111,0.79514732
5c8ee6c36ca70b0001fe979d,19,0,2024-02-28T15:02:35.772Z,french_827.wav,0,poule,310,66,5,4,e,m,4,0.4,-42.97148834,0.7219145
5c8ee6c36ca70b0001fe979d,19,0,2024-02-28T15:02:35.772Z,french_827.wav,0,poule,310,66,5,4,e,m,5,0.5,91.5700687,0.23829121
5c8ee6c36ca70b0001fe979d,19,0,2024-02-28T15:02:35.772Z,french_827.wav,0,poule,310,66,5,4,e,m,6,0.6,73.27406728,0.56077431
5c8ee6c36ca70b0001fe979d,19,0,2024-02-28T15:02:35.772Z,french_827.wav,0,poule,310,66,5,4,e,m,7,0.7,-33.8931301,1.6060627
5c8ee6c36ca70b0001fe979d,19,0,2024-02-28T15:02:35.772Z,french_827.wav,0,poule,310,66,5,4,e,m,8,0.8,-11.46118568,0.93017276
5c8ee6c36ca70b0001fe979d,19,0,2024-02-28T15:02:35.772Z,french_827.wav,0,poule,310,66,5,4,e,m,9,0.9,24.73344969,1.70918062
5c8ee6c36ca70b0001fe979d,19,0,2024-02-28T15:02:35.772Z,french_827.wav,0,poule,310,66,5,4,e,m,10,1.0,15.31350424,0.85960328
5c8ee6c36ca70b0001fe979d,19,0,2024-02-28T15:02:35.772Z,french_827.wav,0,poule,310,66,5,4,e,m,11,1.1,-53.93717893,0.88873758
5c8ee6c36ca70b0001fe979d,19,0,2024-02-28T15:02:35.772Z,french_827.wav,0,poule,310,66,5,4,e,m,12,1.14141667,7.58981219,0.97933267
5c8ee6c36ca70b0001fe979d,20,0,2024-02-28T15:02:35.772Z,french_760.wav,0,poule,602,66,5,4,e,m,0,0.0,69.16815791,1.2502881
5c8ee6c36ca70b0001fe979d,20,0,2024-02-28T15:02:35.772Z,french_760.wav,0,poule,602,66,5,4,e,m,1,0.1,11.20685955,0.70733733
5c8ee6c36ca70b0001fe979d,20,0,2024-02-28T15:02:35.772Z,french_760.wav,0,poule,602,66,5,4,e,m,2,0.2,34.8102116,0.56169678
5c8ee6c36ca70b0001fe979d,20,0,2024-02-28T15:02:35.772Z,french_760.wav,0,poule,602,66,5,4,e,m,3,0.3,-90.03161019,1.06492774
5c8ee6c36ca70b0001fe979d,20,0,2024-02-28T15:02:35.772Z,french_760.wav,0,poule,602,66,5,4,e,m,4,0.4,-41.47191296,0.95028451
5c8ee6c36ca70b0001fe979d,20,0,2024-02-28T15:02:35.772Z,french_760.wav,0,poule,602,66,5,4,e,m,5,0.5,-48.08548611,0.18011187
5c8ee6c36ca70b0001fe979d,20,0,2024-02-28T15:02:35.772Z,french_760.wav,0,poule,602,66,5,4,e,m,6,0.6,44.80080881,1.51077603
5c8ee6c36ca70b0001fe979d,20,0,2024-02-28T15:02:35.772Z,french_760.wav,0,poule,602,66,5,4,e,m,7,0.7,-1.23301299,1.38156045
5c8ee6c36ca70b0001fe979d,20,0,2024-02-28T15:02:35.772Z,french_760.wav,0,poule,602,66,5,4,e,m,8,0.8,75.74770773,0.18237232
5c8ee6c36ca70b0001fe979d,20,0,2024-02-28T15:02:35.772Z,french_760.wav,0,poule,602,66,5,4,e,m,9,0.9,11.43799096,1.60322405
5c8ee6c36ca70b0001fe979d,20,0,2024-02-28T15:02:35.772Z,french_760.wav,0,poule,602,66,5,4,e,m,10,1.0,-0.37130951,0.50883409
5c8ee6c36ca70b0001fe979d,20,0,2024-02-28T15:02:35.772Z,french_760.wav,0,poule,602,66,5,4,e,m,11,1.1,42.7692381,1.54168279
5c8ee6c36ca70b0001fe979d,20,0,2024-02-28T15:02:35.772Z,french_760.wav,0,poule,602,66,5,4,e,m,12,1.14141667,4.70425821,0.12741584
5c8ee6c36ca70b0001fe979d,21,0,2024-02-28T15:02:35.772Z,french_874.wav,0,pull,727,66,5,4,e,m,0,0.0,24.82218591,0.93385532
5c8ee6c36ca70b0001fe979d,21,0,2024-02-28T15:02:35.772Z,french_874.wav,0,pull,727,66,5,4,e,m,1,0.1,31.97554255,0.52068193
5c8ee6c36ca70b0001fe979d,21,0,2024-02-28T15:02:35.772Z,french_874.wav,0,pull,727,66,5,4,e,m,2,0.2,2.67321332,1.97452011
5c8ee6c36ca70b0001fe979d,21,0,2024-02-28T15:02:35.772Z,french_874.wav,0,pull,727,66,5,4,e,m,3,0.3,59.14891992,1.89922471
5c8ee6c36ca70b0001fe979d,21,0,2024-02-28T15:02:35.772Z,french_874.wav,0,pull,727,66,5,4,e,m,4,0.4,43.38272278,1.65471555
5c8ee6c36ca70b0001fe979d,21,0,2024-02-28T15:02:35.772Z,french_874.wav,0,pull,727,66,5,4,e,m,5,0.5,-74.72104069,0.60790691
5c8ee6c36ca70b0001fe979d,21,0,2024-02-28T15:02:35.772Z,french_874.wav,0,pull,727,66,5,4,e,m,6,0.6,-8.80505474,1.28029407
5c8ee6c36ca70b0001fe979d,21,0,2024-02-28T15:02:35.772Z,french_874.wav,0,pull,727,66,5,4,e,m,7,0.7,-25.97945718,0.93899149
5c8ee6c36ca70b0001fe979d,21,0,2024-02-28T15:02:35.772Z,french_874.wav,0,pull,727,66,5,4,e,m,8,0.8,1.17125942,1.17717124
5c8ee6c36ca70b0001fe979d,21,0,2024-02-28T15:02:35.772Z,french_874.wav,0,pull,727,66,5,4,e,m,9,0.9,33.37054961,0.6185284
5c8ee6c36ca70b0001fe979d,21,0,2024-02-28T15:02:35.772Z,french_874.wav,0,pull,727,66,5,4,e,m,10,1.0,-11.11162277,0.02478248
5c8ee6c36ca70b0001fe979d,21,0,2024-02-28T15:02:35.772Z,french_874.wav,0,pull,727,66,5,4,e,m,11,1.1,-2.67830525,1.255922
5c8ee6c36ca70b0001fe979d,21,0,2024-02-28T15:02:35.772Z,french_874.wav,0,pull,727,66,5,4,e,m,12,1.14141667,31.54441533,0.93433181
5c8ee6c36ca70b0001fe979d,22,0,2024-02-28T15:02:35.772Z,french_612.wav,0,pull,1146,66,5,4,e,m,0,0.0,-47.07678459,0.11615232
5c8ee6c36ca70b0001fe979d,22,0,2024-02-28T15:02:35.772Z,french_612.wav,0,pull,1146,66,5,4,e,m,1,0.1,3.63425246,0.47093102
5c8ee6c36ca70b0001fe979d,22,0,2024-02-28T15:02:35.772Z,french_612.wav,0,pull,1146,66,5,4,e,m,2,0.2,31.48917189,0.45807262
5c8ee6c36ca70b0001fe979d,22,0,2024-02-28T15:02:35.772Z,french_612.wav,0,pull,1146,66,5,4,e,m,3,0.3,44.38742484,0.81161175
5c8ee6c36ca70b0001fe979d,22,0,2024-02-28T15:02:35.772Z,french_612.wav,0,pull,1146,66,5,4,e,m,4,0.4,15.5069451,1.0193018
5c8ee6c36ca70b0001fe979d,22,0,2024-02-28T15:02:35.772Z,french_612.wav,0,pull,1146,66,5,4,e,m,5,0.5,-51.49122096,1.66697075
5c8ee6c36ca70b0001fe979d,22,0,2024-02-28T15:02:35.772Z,french_612.wav,0,pull,1146,66,5,4,e,m,6,0.6,-1.02254843,0.50056041
5c8ee6c36ca70b0001fe979d,22,0,2024-02-28T15:02:35.772Z,french_612.wav,0,pull,1146,66,5,4,e,m,7,0.7,12.87739328,0.70368677
5c8ee6c36ca70b0001fe979d,22,0,2024-02-28T15:02:35.772Z,french_612.wav,0,pull,1146,66,5,4,e,m,8,0.8,-63.80282001,1.91892506
5c8ee6c36ca70b0001fe979d,22,0,2024-02-28T15:02:35.772Z,french_612.wav,0,pull,1146,66,5,4,e,m,9,0.9,-37.54711338,1.2931891
5c8ee6c36ca70b0001fe979d,22,0,2024-02-28T15:02:35.772Z,french_612.wav,0,pull,1146,66,5,4,e,m,10,1.0,40.2162033,0.20059311
5c8ee6c36ca70b0001fe979d,22,0,2024-02-28T15:02:35.772Z,french_612.wav,0,pull,1146,66,5,4,e,m,11,1.1,-4.31624045,0.09557344
5c8ee6c36ca70b0001fe979d,22,0,2024-02-28T15:02:35.772Z,french_612.wav,0,pull,1146,66,5,4,e,m,12,1.14141667,64.58566043,1.97325213
5c8ee6c36ca70b0001fe979d,23,0,2024-02-28T15:02:35.772Z,french_311.wav,0,poule,174,66,5,4,e,m,0,0.0,-86.52864585,1.86196992
5c8ee6c36ca70b0001fe979d,23,0,2024-02-28T15:02:35.772Z,french_311.wav,0,poule,174,66,5,4,e,m,1,0.1,62.66288601,1.8926505
5c8ee6c36ca70b0001fe979d,23,0,2024-02-28T15:02:35.772Z,french_311.wav,0,poule,174,66,5,4,e,m,2,0.2,-36.77610058,1.91332722
5c8ee6c36ca70b0001fe979d,23,0,2024-02-28T15:02:35.772Z,french_311.wav,0,poule,174,66,5,4,e,m,3,0.3,78.93138724,1.07444311
5c8ee6c36ca70b0001fe979d,23,0,2024-02-28T15:02:35.772Z,french_311.wav,0,poule,174,66,5,4,e,m,4,0.4,-51.39513666,1.07416933
5c8ee6c36ca70b0001fe979d,23,0,2024-02-28T15:02:35.772Z,french_311.wav,0,poule,174,66,5,4,e,m,5,0.5,56.34952921,0.12961207
5c8ee6c36ca70b0001fe979d,23,0,2024-02-28T15:02:35.772Z,french_311.wav,0,poule,174,66,5,4,e,m,6,0.6,-69.85672492,1.17699672
5c8ee6c36ca70b0001fe979d,23,0,2024-02-28T15:02:35.772Z,french_311.wav,0,poule,174,66,5,4,e,m,7,0.7,24.5156499,1.53343293
5c8ee6c36ca70b0001fe979d,23,0,2024-02-28T15:02:35.772Z,french_311.wav,0,poule,174,66,5,4,e,m,8,0.8,-26.74412765,1.46760667
5c8ee6c36ca70b0001fe979d,23,0,2024-02-28T15:02:35.772Z,french_311.wav,0,poule,174,66,5,4,e,m,9,0.9,-62.82934115,0.88003625
5c8ee6c36ca70b0001fe979d,23,0,2024-02-28T15:02:35.772Z,french_311.wav,0,poule,174,66,5,4,e,m,10,1.0,-28.92551631,1.92230911
5c8ee6c36ca70b0001fe979d,23,0,2024-02-28T15:02:35.772Z,french_311.wav,0,poule,174,66,5,4,e,m,11,1.1,-90.71218946,1.24404618
5c8ee6c36ca70b0001fe979d,23,0,2024-02-28T15:02:35.772Z,french_311.wav,0,poule,174,66,5,4,e,m,12,1.14141667,-18.84584076,1.69798196
5c8ee6c36ca70b0001fe979d,24,0,2024-02-28T15:02:35.772Z,french_971.wav,0,poule,269,66,5,4,e,m,0,0.0,-8.46883655,1.19544877
5c8ee6c36ca70b0001fe979d,24,0,2024-02-28T15:02:35.772Z,french_971.wav,0,poule,269,66,5,4,e,m,1,0.1,-12.9534882,1.25532634
5c8ee6c36ca70b0001fe979d,24,0,2024-02-28T15:02:35.772Z,french_971.wav,0,poule,269,66,5,4,e,m,2,0.2,62.91682525,0.84653747
5c8ee6c36ca70b0001fe979d,24,0,2024-02-28T15:02:35.772Z,french_971.wav,0,poule,269,66,5,4,e,m,3,0.3,-60.44671384,1.79256296
5c8ee6c36ca70b0001fe979d,24,0,2024-02-28T15:02:35.772Z,french_971.wav,0,poule,269,66,5,4,e,m,4,0.4,-50.83443349,0.89550305
5c8ee6c36ca70b0001fe979d,24,0,2024-02-28T15:02:35.772Z,french_971.wav,0,poule,269,66,5,4,e,m,5,0.5,92.20051938,0.41767694
5c8ee6c36ca70b0001fe979d,24,0,2024-02-28T15:02:35.772Z,french_971.wav,0,poule,269,66,5,4,e,m,6,0.6,17.63420524,0.61206963
5c8ee6c36ca70b0001fe979d,24,0,2024-02-28T15:02:35.772Z,french_971.wav,0,poule,269,66,5,4,e,m,7,0.7,10.3493947,0.5938552
5c8ee6c36ca70b0001fe979d,24,0,2024-02-28T15:02:35.772Z,french_971.wav,0,poule,269,66,5,4,e,m,8,0.8,-44.64530306,1.80141032
5c8ee6c36ca70b0001fe979d,24,0,2024-02-28T15:02:35.772Z,french_971.wav,0,poule,269,66,5,4,e,m,9,0.9,-38.65867239,1.57257532
5c8ee6c36ca70b0001fe979d,24,0,2024-02-28T15:02:35.772Z,french_971.wav,0,poule,269,66,5,4,e,m,10,1.0,72.80184957,0.31851781
5c8ee6c36ca70b0001fe979d,24,0,2024-02-28T15:02:35.772Z,french_971.wav,0,poule,269,66,5,4,e,m,11,1.1,25.85210713,1.34401586
5c8ee6c36ca70b0001fe979d,24,0,2024-02-28T15:02:35.772Z,french_971.wav,0,poule,269,66,5,4,e,m,12,1.14141667,2.09813812,0.85754184
5c8ee6c36ca70b0001fe979d,25,0,2024-02-28T15:02:35.772Z,french_203.wav,0,pull,638,66,5,4,e,m,0,0.0,52.87711121,0.93228593
5c8ee6c36ca70b0001fe979d,25,0,2024-02-28T15:02:35.772Z,french_203.wav,0,pull,638,66,5,4,e,m,1,0.1,-18.25420171,0.91711051
5c8ee6c36ca70b0001fe979d,25,0,2024-02-28T15:02:35.772Z,french_203.wav,0,pull,638,66,5,4,e,m,2,0.2,68.04441143,0.18526145
5c8ee6c36ca70b0001fe979d,25,0,2024-02-28T15:02:35.772Z,french_203.wav,0,pull,638,66,5,4,e,m,3,0.3,43.0636021,1.29727066
5c8ee6c36ca70b0001fe979d,25,0,2024-02-28T15:02:35.772Z,french_203.wav,0,pull,638,66,5,4,e,m,4,0.4,-82.26648178,1.32533086
5c8ee6c36ca70b0001fe979d,25,0,2024-02-28T15:02:35.772Z,french_203.wav,0,pull,638,66,5,4,e,m,5,0.5,1.65151901,1.26645136
5c8ee6c36ca70b0001fe979d,25,0,2024-02-28T15:02:35.772Z,french_203.wav,0,pull,638,66,5,4,e,m,6,0.6,-5.82004213,0.44624286
5c8ee6c36ca70b0001fe979d,25,0,2024-02-28T15:02:35.772Z,french_203.wav,0,pull,638,66,5,4,e,m,7,0.7,15.24974529,1.16965291
5c8ee6c36ca70b0001fe979d,25,0,2024-02-28T15:02:35.772Z,french_203.wav,0,pull,638,66,5,4,e,m,8,0.8,-23.68240686,1.35974838
5c8ee6c36ca70b0001fe979d,25,0,2024-02-28T15:02:35.772Z,french_203.wav,0,pull,638,66,5,4,e,m,9,0.9,-34.12669513,0.72326773
5c8ee6c36ca70b0001fe979d,25,0,2024-02-28T15:02:35.772Z,french_203.wav,0,pull,638,66,5,4,e,m,10,1.0,-2.95263407,0.40120792
5c8ee6c36ca70b0001fe979d,25,0,2024-02-28T15:02:35.772Z,french_203.wav,0,pull,638,66,5,4,e,m,11,1.1,42.22723244,0.5927827
5c8ee6c36ca70b0001fe979d,25,0,2024-02-28T15:02:35.772Z,french_203.wav,0,pull,638,66,5,4,e,m,12,1.14141667,-53.1932723,0.36763071
5c8ee6c36ca70b0001fe979d,26,0,2024-02-28T15:02:35.772Z,french_807.wav,0,poule,283,66,5,4,e,m,0,0.0,-80.44919657,1.01791128
5c8ee6c36ca70b0001fe979d,26,0,2024-02-28T15:02:35.772Z,french_807.wav,0,poule,283,66,5,4,e,m,1,0.1,-34.48727533,0.51127266
5c8ee6c36ca70b0001fe979d,26,0,2024-02-28T15:02:35.772Z,french_807.wav,0,poule,283,66,5,4,e,m,2,0.2,-27.85444657,1.03770419
5c8ee6c36ca70b0001fe979d,26,0,2024-02-28T15:02:35.772Z,french_807.wav,0,poule,283,66,5,4,e,m,3,0.3,-0.73618666,1.5684914
5c8ee6c36ca70b0001fe979d,26,0,2024-02-28T15:02:35.772Z,french_807.wav,0,poule,283,66,5,4,e,m,4,0.4,0.77626811,0.83417196
5c8ee6c36ca70b0001fe979d,26,0,2024-02-28T15:02:35.772Z,french_807.wav,0,poule,283,66,5,4,e,m,5,0.5,-75.08426277,0.04387423
5c8ee6c36ca70b0001fe979d,26,0,2024-02-28T15:02:35.772Z,french_807.wav,0,poule,283,66,5,4,e,m,6,0.6,20.03798274,0.37017036
5c8ee6c36ca70b0001fe979d,26,0,2024-02-28T15:02:35.772Z,french_807.wav,0,poule,283,66,5,4,e,m,7,0.7,46.24294154,1.90217427
5c8ee6c36ca70b0001fe979d,26,0,2024-02-28T15:02:35.772Z,french_807.wav,0,poule,283,66,5,4,e,m,8,0.8,22.03140958,0.74355786
5c8ee6c36ca70b0001fe979d,26,0,2024-02-28T15:02:35.772Z,french_807.wav,0,poule,283,66,5,4,e,m,9,0.9,26.33483047,0.1834128
5c8ee6c36ca70b0001fe979d,26,0,2024-02-28T15:02:35.772Z,french_807.wav,0,poule,283,66,5,4,e,m,10,1.0,-51.28476198,1.60996589
5c8ee6c36ca70b0001fe979d,26,0,2024-02-28T15:02:35.772Z,french_807.wav,0,poule,283,66,5,4,e,m,11,1.1,-29.39920635,1.08150991
5c8ee6c36ca70b0001fe979d,26,0,2024-02-28T15:02:35.772Z,french_807.wav,0,poule,283,66,5,4,e,m,12,1.14141667,1.31536819,0.63923462
5c8ee6c36ca70b0001fe979d,27,0,2024-02-28T15:02:35.772Z,french_787.wav,0,poule,543,66,5,4,e,m,0,0.0,79.17712948,0.1163321
5c8ee6c36ca70b0001fe979d,27,0,2024-02-28T15:02:35.772Z,french_787.wav,0,poule,543,66,5,4,e,m,1,0.1,-73.07775463,1.90835001
5c8ee6c36ca70b0001fe979d,27,0,2024-02-28T15:02:35.772Z,french_787.wav,0,poule,543,66,5,4,e,m,2,0.2,-37.59236331,1.9055926
5c8ee6c36ca70b0001fe979d,27,0,2024-02-28T15:02:35.772Z,french_787.wav,0,poule,543,66,5,4,e,m,3,0.3,-95.60780002,1.66008027
5c8ee6c36ca70b0001fe979d,27,0,2024-02-28T15:02:35.772Z,french_787.wav,0,poule,543,66,5,4,e,m,4,0.4,-67.52212669,0.73855665
5c8ee6c36ca70b0001fe979d,27,0,2024-02-28T15:02:35.772Z,french_787.wav,0,poule,543,66,5,4,e,m,5,0.5,-72.3853784,0.63713084
5c8ee6c36ca70b0001fe979d,27,0,2024-02-28T15:02:35.772Z,french_787.wav,0,poule,543,66,5,4,e,m,6,0.6,55.41129583,1.4880735
5c8ee6c36ca70b0001fe979d,27,0,2024-02-28T15:02:35.772Z,french_787.wav,0,poule,543,66,5,4,e,m,7,0.7,-20.28029725,0.64813036
5c8ee6c36ca70b0001fe979d,27,0,2024-02-28T15:02:35.772Z,french_787.wav,0,poule,543,66,5,4,e,m,8,0.8,-85.08323843,1.12873134
5c8ee6c36ca70b0001fe979d,27,0,2024-02-28T15:02:35.772Z,french_787.wav,0,poule,543,66,5,4,e,m,9,0.9,93.86210994,1.32091412
5c8ee6c36ca70b0001fe979d,27,0,2024-02-28T15:02:35.772Z,french_787.wav,0,poule,543,66,5,4,e,m,10,1.0,-64.51549876,0.48515729
5c8ee6c36ca70b0001fe979d,27,0,2024-02-28T15:02:35.772Z,french_787.wav,0,poule,543,66,5,4,e,m,11,1.1,-56.22239298,0.45260231
5c8ee6c36ca70b0001fe979d,27,0,2024-02-28T15:02:35.772Z,french_787.wav,0,poule,543,66,5,4,e,m,12,1.14141667,-87.31995502,0.83170694
5c8ee6c36ca70b0001fe979d,28,0,2024-02-28T15:02:35.772Z,french_168.wav,0,pull,745,66,5,4,e,m,0,0.0,23.60578837,0.63425727
5c8ee6c36ca70b0001fe979d,28,0,2024-02-28T15:02:35.772Z,french_168.wav,0,pull,745,66,5,4,e,m,1,0.1,-3.14983338,1.7754945
5c8ee6c36ca70b0001fe979d,28,0,2024-02-28T15:02:35.772Z,french_168.wav,0,pull,745,66,5,4,e,m,2,0.2,-32.92235137,0.84759541
5c8ee6c36ca70b0001fe979d,28,0,2024-02-28T15:02:35.772Z,french_168.wav,0,pull,745,66,5,4,e,m,3,0.3,-1.34182542,1.87294824
5c8ee6c36ca70b0001fe979d,28,0,2024-02-28T15:02:35.772Z,french_168.wav,0,pull,745,66,5,4,e,m,4,0.4,93.68763921,1.4991828
5c8ee6c36ca70b0001fe979d,28,0,2024-02-28T15:02:35.772Z,french_168.wav,0,pull,745,66,5,4,e,m,5,0.5,-85.50777255,1.10660002
5c8ee6c36ca70b0001fe979d,28,0,2024-02-28T15:02:35.772Z,french_168.wav,0,pull,745,66,5,4,e,m,6,0.6,-85.09508772,0.8131343
5c8ee6c36ca70b0001fe979d,28,0,2024-02-28T15:02:35.772Z,french_168.wav,0,pull,745,66,5,4,e,m,7,0.7,7.18307218,0.28255977
5c8ee6c36ca70b0001fe979d,28,0,2024-02-28T15:02:35.772Z,french_168.wav,0,pull,745,66,5,4,e,m,8,0.8,71.4646736,1.69345703
5c8ee6c36ca70b0001fe979d,28,0,2024-02-28T15:02:35.772Z,french_168.wav,0,pull,745,66,5,4,e,m,9,0.9,-27.01392426,1.4556034
5c8ee6c36ca70b0001fe979d,28,0,2024-02-28T15:02:35.772Z,french_168.wav,0,pull,745,66,5,4,e,m,10,1.0,31.10228405,0.26157835
5c8ee6c36ca70b0001fe979d,28,0,2024-02-28T15:02:35.772Z,french_168.wav,0,pull,745,66,5,4,e,m,11,1.1,31.74339728,0.26714034
5c8ee6c36ca70b0001fe979d,28,0,2024-02-28T15:02:35.772Z,french_168.wav,0,pull,745,66,5,4,e,m,12,1.14141667,-94.28644022,0.94934419
5c8ee6c36ca70b0001fe979d,29,0,2024-02-28T15:02:35.772Z,french_824.wav,0,poule,289,66,5,4,e,m,0,0.0,0.502201089,0.86927053
5c8ee6c36ca70b0001fe979d,29,0,2024-02-28T15:02:35.772Z,french_824.wav,0,poule,289,66,5,4,e,m,1,0.1,60.5239588,1.18411144
5c8ee6c36ca70b0001fe979d,29,0,2024-02-28T15:02:35.772Z,french_824.wav,0,poule,289,66,5,4,e,m,2,0.2,14.8896647,1.09736758
5c8ee6c36ca70b0001fe979d,29,0,2024-02-28T15:02:35.772Z,french_824.wav,0,poule,289,66,5,4,e,m,3,0.3,33.3476675,0.85219326
5c8ee6c36ca70b0001fe979d,29,0,2024-02-28T15:02:35.772Z,french_824.wav,0,poule,289,66,5,4,e,m,4,0.4,-28.4988199,1.84806057
5c8ee6c36ca70b0001fe979d,29,0,2024-02-28T15:02:35.772Z,french_824.wav,0,poule,289,66,5,4,e,m,5,0.5,28.3484092,0.42773876
5c8ee6c36ca70b0001fe979d,29,0,2024-02-28T15:02:35.772Z,french_824.wav,0,poule,289,66,5,4,e,m,6,0.6,0.0905536847,0.73121711
5c8ee6c36ca70b0001fe979d,29,0,2024-02-28T15:02:35.772Z,french_824.wav,0,poule,289,66,5,4,e,m,7,0.7,54.7024864,1.15803728
5c8ee6c36ca70b0001fe979d,29,0,2024-02-28T15:02:35.772Z,french_824.wav,0,poule,289,66,5,4,e,m,8,0.8,1.33415816,0.61345655
5c8ee6c36ca70b0001fe979d,29,0,2024-02-28T15:02:35.772Z,french_824.wav,0,poule,289,66,5,4,e,m,9,0.9,-13.0540877,0.13219128
5c8ee6c36ca70b0001fe979d,29,0,2024-02-28T15:02:35.772Z,french_824.wav,0,poule,289,66,5,4,e,m,10,1.0,52.916246,1.90220579
5c8ee6c36ca70b0001fe979d,29,0,2024-02-28T15:02:35.772Z,french_824.wav,0,poule,289,66,5,4,e,m,11,1.1,90.7997148,0.08725417
5c8ee6c36ca70b0001fe979d,29,0,2024-02-28T15:02:35.772Z,french_824.wav,0,poule,289,66,5,4,e,m,12,1.14141667,-8.48372177,0.24224984
5c8ee6c36ca70b0001fe979d,30,0,2024-02-28T15:02:35.772Z,french_185.wav,0,poule,206,66,5,4,e,m,0,0.0,61.9665111,1.15780668
5c8ee6c36ca70b0001fe979d,30,0,2024-02-28T15:02:35.772Z,french_185.wav,0,poule,206,66,5,4,e,m,1,0.1,-9.67528114,0.19130474
5c8ee6c36ca70b0001fe979d,30,0,2024-02-28T15:02:35.772Z,french_185.wav,0,poule,206,66,5,4,e,m,2,0.2,-24.43848461,1.67912463
5c8ee6c36ca70b0001fe979d,30,0,2024-02-28T15:02:35.772Z,french_185.wav,0,poule,206,66,5,4,e,m,3,0.3,-22.73400218,1.52519722
5c8ee6c36ca70b0001fe979d,30,0,2024-02-28T15:02:35.772Z,french_185.wav,0,poule,206,66,5,4,e,m,4,0.4,-50.73837077,1.17122727
5c8ee6c36ca70b0001fe979d,30,0,2024-02-28T15:02:35.772Z,french_185.wav,0,poule,206,66,5,4,e,m,5,0.5,-80.54747318,1.8849469
5c8ee6c36ca70b0001fe979d,30,0,2024-02-28T15:02:35.772Z,french_185.wav,0,poule,206,66,5,4,e,m,6,0.6,-0.20993652,0.65476649
5c8ee6c36ca70b0001fe979d,30,0,2024-02-28T15:02:35.772Z,french_185.wav,0,poule,206,66,5,4,e,m,7,0.7,68.84584459,0.97463014
5c8ee6c36ca70b0001fe979d,30,0,2024-02-28T15:02:35.772Z,french_185.wav,0,poule,206,66,5,4,e,m,8,0.8,-15.95665439,0.30159856
5c8ee6c36ca70b0001fe979d,30,0,2024-02-28T15:02:35.772Z,french_185.wav,0,poule,206,66,5,4,e,m,9,0.9,-80.30357234,1.31654976
5c8ee6c36ca70b0001fe979d,30,0,2024-02-28T15:02:35.772Z,french_185.wav,0,poule,206,66,5,4,e,m,10,1.0,-6.00916241,0.73291132
5c8ee6c36ca70b0001fe979d,30,0,2024-02-28T15:02:35.772Z,french_185.wav,0,poule,206,66,5,4,e,m,11,1.1,80.5457673,1.88613253
5c8ee6c36ca70b0001fe979d,30,0,2024-02-28T15:02:35.772Z,french_185.wav,0,poule,206,66,5,4,e,m,12,1.14141667,-0.48922047,1.34322598
5c8ee6c36ca70b0001fe979d,31,0,2024-02-28T15:02:35.772Z,french_634.wav,0,pull,877,66,5,4,e,m,0,0.0,64.06874479,0.37081399
5c8ee6c36ca70b0001fe979d,31,0,2024-02-28T15:02:35.772Z,french_634.wav,0,pull,877,66,5,4,e,m,1,0.1,67.24749785,1.64753425
5c8ee6c36ca70b0001fe979d,31,0,2024-02-28T15:02:35.772Z,french_634.wav,0,pull,877,66,5,4,e,m,2,0.2,-83.39889731,1.0417432
5c8ee6c36ca70b0001fe979d,31,0,2024-02-28T15:02:35.772Z,french_634.wav,0,pull,877,66,5,4,e,m,3,0.3,-39.1013623,1.83525457
5c8ee6c36ca70b0001fe979d,31,0,2024-02-28T15:02:35.772Z,french_634.wav,0,pull,877,66,5,4,e,m,4,0.4,38.3828838,1.31000254
5c8ee6c36ca70b0001fe979d,31,0,2024-02-28T15:02:35.772Z,french_634.wav,0,pull,877,66,5,4,e,m,5,0.5,-52.89149747,1.65070548
5c8ee6c36ca70b0001fe979d,31,0,2024-02-28T15:02:35.772Z,french_634.wav,0,pull,877,66,5,4,e,m,6,0.6,-34.12545828,0.56176414
5c8ee6c36ca70b0001fe979d,31,0,2024-02-28T15:02:35.772Z,french_634.wav,0,pull,877,66,5,4,e,m,7,0.7,-89.61138442,1.02392424
5c8ee6c36ca70b0001fe979d,31,0,2024-02-28T15:02:35.772Z,french_634.wav,0,pull,877,66,5,4,e,m,8,0.8,88.76481388,0.4527214
5c8ee6c36ca70b0001fe979d,31,0,2024-02-28T15:02:35.772Z,french_634.wav,0,pull,877,66,5,4,e,m,9,0.9,57.94553649,0.03856416
5c8ee6c36ca70b0001fe979d,31,0,2024-02-28T15:02:35.772Z,french_634.wav,0,pull,877,66,5,4,e,m,10,1.0,-30.52453111,1.82909297
5c8ee6c36ca70b0001fe979d,31,0,2024-02-28T15:02:35.772Z,french_634.wav,0,pull,877,66,5,4,e,m,11,1.1,6.61582204,0.65416969
5c8ee6c36ca70b0001fe979d,31,0,2024-02-28T15:02:35.772Z,french_634.wav,0,pull,877,66,5,4,e,m,12,1.14141667,59.70206216,1.22488916
5c8ee6c36ca70b0001fe979d,32,0,2024-02-28T15:02:35.772Z,french_944.wav,0,poule,1290,66,5,4,e,m,0,0.0,5.90730738,0.22530641
5c8ee6c36ca70b0001fe979d,32,0,2024-02-28T15:02:35.772Z,french_944.wav,0,poule,1290,66,5,4,e,m,1,0.1,20.95549988,0.6742477
5c8ee6c36ca70b0001fe979d,32,0,2024-02-28T15:02:35.772Z,french_944.wav,0,poule,1290,66,5,4,e,m,2,0.2,10.39827044,1.43871072
5c8ee6c36ca70b0001fe979d,32,0,2024-02-28T15:02:35.772Z,french_944.wav,0,poule,1290,66,5,4,e,m,3,0.3,-37.75669253,1.70419916
5c8ee6c36ca70b0001fe979d,32,0,2024-02-28T15:02:35.772Z,french_944.wav,0,poule,1290,66,5,4,e,m,4,0.4,-49.22667344,1.47532653
5c8ee6c36ca70b0001fe979d,32,0,2024-02-28T15:02:35.772Z,french_944.wav,0,poule,1290,66,5,4,e,m,5,0.5,93.16977427,0.37116111
5c8ee6c36ca70b0001fe979d,32,0,2024-02-28T15:02:35.772Z,french_944.wav,0,poule,1290,66,5,4,e,m,6,0.6,-41.75153683,1.12986992
5c8ee6c36ca70b0001fe979d,32,0,2024-02-28T15:02:35.772Z,french_944.wav,0,poule,1290,66,5,4,e,m,7,0.7,76.29351329,1.77142708
5c8ee6c36ca70b0001fe979d,32,0,2024-02-28T15:02:35.772Z,french_944.wav,0,poule,1290,66,5,4,e,m,8,0.8,-83.23951468,1.06487534
5c8ee6c36ca70b0001fe979d,32,0,2024-02-28T15:02:35.772Z,french_944.wav,0,poule,1290,66,5,4,e,m,9,0.9,79.19877778,0.07393278
5c8ee6c36ca70b0001fe979d,32,0,2024-02-28T15:02:35.772Z,french_944.wav,0,poule,1290,66,5,4,e,m,10,1.0,-79.96280606,0.93112082
5c8ee6c36ca70b0001fe979d,32,0,2024-02-28T15:02:35.772Z,french_944.wav,0,poule,1290,66,5,4,e,m,11,1.1,-35.90278779,0.20805406
5c8ee6c36ca70b0001fe979d,32,0,2024-02-28T15:02:35.772Z,french_944.wav,0,poule,1290,66,5,4,e,m,12,1.14141667,-47.06382287,0.24056538
5c8ee6c36ca70b0001fe979d,33,0,2024-02-28T15:02:35.772Z,french_76.wav,0,poule,1075,66,5,4,e,m,0,0.0,65.24155803,1.51578207
5c8ee6c36ca70b0001fe979d,33,0,2024-02-28T15:02:35.772Z,french_76.wav,0,poule,1075,66,5,4,e,m,1,0.1,-64.10777613,1.54793346
5c8ee6c36ca70b0001fe979d,33,0,2024-02-28T15:02:35.772Z,french_76.wav,0,poule,1075,66,5,4,e,m,2,0.2,-66.43983652,1.59239598
5c8ee6c36ca70b0001fe979d,33,0,2024-02-28T15:02:35.772Z,french_76.wav,0,poule,1075,66,5,4,e,m,3,0.3,9.38529777,1.00112308
5c8ee6c36ca70b0001fe979d,33,0,2024-02-28T15:02:35.772Z,french_76.wav,0,poule,1075,66,5,4,e,m,4,0.4,-68.79387642,1.06006715
5c8ee6c36ca70b0001fe979d,33,0,2024-02-28T15:02:35.772Z,french_76.wav,0,poule,1075,66,5,4,e,m,5,0.5,24.61155373,0.66047476
5c8ee6c36ca70b0001fe979d,33,0,2024-02-28T15:02:35.772Z,french_76.wav,0,poule,1075,66,5,4,e,m,6,0.6,-11.51773882,0.15886587
5c8ee6c36ca70b0001fe979d,33,0,2024-02-28T15:02:35.772Z,french_76.wav,0,poule,1075,66,5,4,e,m,7,0.7,-77.87210972,1.3402371
5c8ee6c36ca70b0001fe979d,33,0,2024-02-28T15:02:35.772Z,french_76.wav,0,poule,1075,66,5,4,e,m,8,0.8,23.51580427,1.57866238
5c8ee6c36ca70b0001fe979d,33,0,2024-02-28T15:02:35.772Z,french_76.wav,0,poule,1075,66,5,4,e,m,9,0.9,-41.53779425,0.66862434
5c8ee6c36ca70b0001fe979d,33,0,2024-02-28T15:02:35.772Z,french_76.wav,0,poule,1075,66,5,4,e,m,10,1.0,-40.31239806,0.74779091
5c8ee6c36ca70b0001fe979d,33,0,2024-02-28T15:02:35.772Z,french_76.wav,0,poule,1075,66,5,4,e,m,11,1.1,79.50743198,0.1792498
5c8ee6c36ca70b0001fe979d,33,0,2024-02-28T15:02:35.772Z,french_76.wav,0,poule,1075,66,5,4,e,m,12,1.14141667,-12.84080619,0.70819275
5c8ee6c36ca70b0001fe979d,34,0,2024-02-28T15:02:35.772Z,french_694.wav,0,poule,431,66,5,4,e,m,0,0.0,38.99787115,0.20721435
5c8ee6c36ca70b0001fe979d,34,0,2024-02-28T15:02:35.772Z,french_694.wav,0,poule,431,66,5,4,e,m,1,0.1,0.3424969,1.58395988
5c8ee6c36ca70b0001fe979d,34,0,2024-02-28T15:02:35.772Z,french_694.wav,0,poule,431,66,5,4,e,m,2,0.2,91.92611382,1.87076578
5c8ee6c36ca70b0001fe979d,34,0,2024-02-28T15:02:35.772Z,french_694.wav,0,poule,431,66,5,4,e,m,3,0.3,-46.15983558,0.36792232
5c8ee6c36ca70b0001fe979d,34,0,2024-02-28T15:02:35.772Z,french_694.wav,0,poule,431,66,5,4,e,m,4,0.4,9.95779273,1.45579825
5c8ee6c36ca70b0001fe979d,34,0,2024-02-28T15:02:35.772Z,french_694.wav,0,poule,431,66,5,4,e,m,5,0.5,-28.14886833,1.07541558
5c8ee6c36ca70b0001fe979d,34,0,2024-02-28T15:02:35.772Z,french_694.wav,0,poule,431,66,5,4,e,m,6,0.6,-10.24338438,0.68903895
5c8ee6c36ca70b0001fe979d,34,0,2024-02-28T15:02:35.772Z,french_694.wav,0,poule,431,66,5,4,e,m,7,0.7,82.44156255,1.47560962
5c8ee6c36ca70b0001fe979d,34,0,2024-02-28T15:02:35.772Z,french_694.wav,0,poule,431,66,5,4,e,m,8,0.8,3.18416094,0.17467993
5c8ee6c36ca70b0001fe979d,34,0,2024-02-28T15:02:35.772Z,french_694.wav,0,poule,431,66,5,4,e,m,9,0.9,-12.03680223,1.91027527
5c8ee6c36ca70b0001fe979d,34,0,2024-02-28T15:02:35.772Z,french_694.wav,0,poule,431,66,5,4,e,m,10,1.0,-74.38114488,1.86009042
5c8ee6c36ca70b0001fe979d,34,0,2024-02-28T15:02:35.772Z,french_694.wav,0,poule,431,66,5,4,e,m,11,1.1,28.9144884,1.13498103
5c8ee6c36ca70b0001fe979d,34,0,2024-02-28T15:02:35.772Z,french_694.wav,0,poule,431,66,5,4,e,m,12,1.14141667,3.07264382,1.77706901
5c8ee6c36ca70b0001fe979d,35,0,2024-02-28T15:02:35.772Z,french_753.wav,0,poule,440,66,5,4,e,m,0,0.0,-79.96563984,1.05198412
5c8ee6c36ca70b0001fe979d,35,0,2024-02-28T15:02:35.772Z,french_753.wav,0,poule,440,66,5,4,e,m,1,0.1,6.89204873,1.47579936
5c8ee6c36ca70b0001fe979d,35,0,2024-02-28T15:02:35.772Z,french_753.wav,0,poule,440,66,5,4,e,m,2,0.2,-59.04911329,1.92899264
5c8ee6c36ca70b0001fe979d,35,0,2024-02-28T15:02:35.772Z,french_753.wav,0,poule,440,66,5,4,e,m,3,0.3,-22.29334195,1.69322
5c8ee6c36ca70b0001fe979d,35,0,2024-02-28T15:02:35.772Z,french_753.wav,0,poule,440,66,5,4,e,m,4,0.4,-31.81352244,0.27967356
5c8ee6c36ca70b0001fe979d,35,0,2024-02-28T15:02:35.772Z,french_753.wav,0,poule,440,66,5,4,e,m,5,0.5,-29.50747098,1.20485001
5c8ee6c36ca70b0001fe979d,35,0,2024-02-28T15:02:35.772Z,french_753.wav,0,poule,440,66,5,4,e,m,6,0.6,27.01274743,1.36433783
5c8ee6c36ca70b0001fe979d,35,0,2024-02-28T15:02:35.772Z,french_753.wav,0,poule,440,66,5,4,e,m,7,0.7,-52.90572089,0.91134408
5c8ee6c36ca70b0001fe979d,35,0,2024-02-28T15:02:35.772Z,french_753.wav,0,poule,440,66,5,4,e,m,8,0.8,36.79787763,0.73332592
5c8ee6c36ca70b0001fe979d,35,0,2024-02-28T15:02:35.772Z,french_753.wav,0,poule,440,66,5,4,e,m,9,0.9,57.30337613,0.93410667
5c8ee6c36ca70b0001fe979d,35,0,2024-02-28T15:02:35.772Z,french_753.wav,0,poule,440,66,5,4,e,m,10,1.0,-47.90339597,1.97770738
5c8ee6c36ca70b0001fe979d,35,0,2024-02-28T15:02:35.772Z,french_753.wav,0,poule,440,66,5,4,e,m,11,1.1,6.22002638,0.99208876
5c8ee6c36ca70b0001fe979d,35,0,2024-02-28T15:02:35.772Z,french_753.wav,0,poule,440,66,5,4,e,m,12,1.14141667,84.51773888,0.56874534
5c8ee6c36ca70b0001fe979d,36,0,2024-02-28T15:02:35.772Z,french_1000.wav,0,poule,552,66,5,4,e,m,0,0.0,-73.98132077,1.64837678
5c8ee6c36ca70b0001fe979d,36,0,2024-02-28T15:02:35.772Z,french_1000.wav,0,poule,552,66,5,4,e,m,1,0.1,-83.83733432,1.32001696
5c8ee6c36ca70b0001fe979d,36,0,2024-02-28T15:02:35.772Z,french_1000.wav,0,poule,552,66,5,4,e,m,2,0.2,-83.30675493,0.03425321
5c8ee6c36ca70b0001fe979d,36,0,2024-02-28T15:02:35.772Z,french_1000.wav,0,poule,552,66,5,4,e,m,3,0.3,-49.21206924,0.20047346
5c8ee6c36ca70b0001fe979d,36,0,2024-02-28T15:02:35.772Z,french_1000.wav,0,poule,552,66,5,4,e,m,4,0.4,-37.38094521,0.89388677
5c8ee6c36ca70b0001fe979d,36,0,2024-02-28T15:02:35.772Z,french_1000.wav,0,poule,552,66,5,4,e,m,5,0.5,-61.96244664,0.07979432
5c8ee6c36ca70b0001fe979d,36,0,2024-02-28T15:02:35.772Z,french_1000.wav,0,poule,552,66,5,4,e,m,6,0.6,40.57719873,0.5706929
5c8ee6c36ca70b0001fe979d,36,0,2024-02-28T15:02:35.772Z,french_1000.wav,0,poule,552,66,5,4,e,m,7,0.7,45.24625978,1.02426669
5c8ee6c36ca70b0001fe979d,36,0,2024-02-28T15:02:35.772Z,french_1000.wav,0,poule,552,66,5,4,e,m,8,0.8,29.16975885,0.29678573
5c8ee6c36ca70b0001fe979d,36,0,2024-02-28T15:02:35.772Z,french_1000.wav,0,poule,552,66,5,4,e,m,9,0.9,53.55403055,1.45432924
5c8ee6c36ca70b0001fe979d,36,0,2024-02-28T15:02:35.772Z,french_1000.wav,0,poule,552,66,5,4,e,m,10,1.0,28.77440397,1.18477249
5c8ee6c36ca70b0001fe979d,36,0,2024-02-28T15:02:35.772Z,french_1000.wav,0,poule,552,66,5,4,e,m,11,1.1,66.56850724,1.17453204
5c8ee6c36ca70b0001fe979d,36,0,2024-02-28T15:02:35.772Z,french_1000.wav,0,poule,552,66,5,4,e,m,12,1.14141667,38.69421955,1.53712703
5c8ee6c36ca70b0001fe979d,37,0,2024-02-28T15:02:35.772Z,french_39.wav,0,poule,1486,66,5,4,e,m,0,0.0,-4.83126405,0.34625523
5c8ee6c36ca70b0001fe979d,37,0,2024-02-28T15:02:35.772Z,french_39.wav,0,poule,1486,66,5,4,e,m,1,0.1,-93.27719348,1.84955679
5c8ee6c36ca70b0001fe979d,37,0,2024-02-28T15:02:35.772Z,french_39.wav,0,poule,1486,66,5,4,e,m,2,0.2,6.86097489,1.652821
5c8ee6c36ca70b0001fe979d,37,0,2024-02-28T15:02:35.772Z,french_39.wav,0,poule,1486,66,5,4,e,m,3,0.3,-20.15926332,0.99362385
5c8ee6c36ca70b0001fe979d,37,0,2024-02-28T15:02:35.772Z,french_39.wav,0,poule,1486,66,5,4,e,m,4,0.4,33.74441491,1.06732755
5c8ee6c36ca70b0001fe979d,37,0,2024-02-28T15:02:35.772Z,french_39.wav,0,poule,1486,66,5,4,e,m,5,0.5,22.90616984,1.07307504
5c8ee6c36ca70b0001fe979d,37,0,2024-02-28T15:02:35.772Z,french_39.wav,0,poule,1486,66,5,4,e,m,6,0.6,-16.31202743,1.93615989
5c8ee6c36ca70b0001fe979d,37,0,2024-02-28T15:02:35.772Z,french_39.wav,0,poule,1486,66,5,4,e,m,7,0.7,85.71450865,1.40760145
5c8ee6c36ca70b0001fe979d,37,0,2024-02-28T15:02:35.772Z,french_39.wav,0,poule,1486,66,5,4,e,m,8,0.8,-47.16815434,1.81782779
5c8ee6c36ca70b0001fe979d,37,0,2024-02-28T15:02:35.772Z,french_39.wav,0,poule,1486,66,5,4,e,m,9,0.9,-3.29174574,0.44143398
5c8ee6c36ca70b0001fe979d,37,0,2024-02-28T15:02:35.772Z,french_39.wav,0,poule,1486,66,5,4,e,m,10,1.0,-12.85211307,1.64365759
5c8ee6c36ca70b0001fe979d,37,0,2024-02-28T15:02:35.772Z,french_39.wav,0,poule,1486,66,5,4,e,m,11,1.1,-36.64290563,0.38497075
5c8ee6c36ca70b0001fe979d,37,0,2024-02-28T15:02:35.772Z,french_39.wav,0,poule,1486,66,5,4,e,m,12,1.14141667,43.40200967,0.9148272
5c8ee6c36ca70b0001fe979d,38,0,2024-02-28T15:02:35.772Z,french_585.wav,0,poule,741,66,5,4,e,m,0,0.0,-33.41252793,1.22101876
5c8ee6c36ca70b0001fe979d,38,0,2024-02-28T15:02:35.772Z,french_585.wav,0,poule,741,66,5,4,e,m,1,0.1,16.24382037,1.6651648
5c8ee6c36ca70b0001fe979d,38,0,2024-02-28T15:02:35.772Z,french_585.wav,0,poule,741,66,5,4,e,m,2,0.2,-25.9418489,1.05138066
5c8ee6c36ca70b0001fe979d,38,0,2024-02-28T15:02:35.772Z,french_585.wav,0,poule,741,66,5,4,e,m,3,0.3,48.33013204,0.61800307
5c8ee6c36ca70b0001fe979d,38,0,2024-02-28T15:02:35.772Z,french_585.wav,0,poule,741,66,5,4,e,m,4,0.4,45.88405821,0.02764776
5c8ee6c36ca70b0001fe979d,38,0,2024-02-28T15:02:35.772Z,french_585.wav,0,poule,741,66,5,4,e,m,5,0.5,-88.47894619,1.98662617
5c8ee6c36ca70b0001fe979d,38,0,2024-02-28T15:02:35.772Z,french_585.wav,0,poule,741,66,5,4,e,m,6,0.6,-34.41723162,1.86386493
5c8ee6c36ca70b0001fe979d,38,0,2024-02-28T15:02:35.772Z,french_585.wav,0,poule,741,66,5,4,e,m,7,0.7,-9.82400388,1.19111382
5c8ee6c36ca70b0001fe979d,38,0,2024-02-28T15:02:35.772Z,french_585.wav,0,poule,741,66,5,4,e,m,8,0.8,-22.53248636,1.44448985
5c8ee6c36ca70b0001fe979d,38,0,2024-02-28T15:02:35.772Z,french_585.wav,0,poule,741,66,5,4,e,m,9,0.9,-27.56128675,1.18212322
5c8ee6c36ca70b0001fe979d,38,0,2024-02-28T15:02:35.772Z,french_585.wav,0,poule,741,66,5,4,e,m,10,1.0,-40.76907833,1.40875064
5c8ee6c36ca70b0001fe979d,38,0,2024-02-28T15:02:35.772Z,french_585.wav,0,poule,741,66,5,4,e,m,11,1.1,52.35342205,1.46658809
5c8ee6c36ca70b0001fe979d,38,0,2024-02-28T15:02:35.772Z,french_585.wav,0,poule,741,66,5,4,e,m,12,1.14141667,48.19576807,1.34688982
5c8ee6c36ca70b0001fe979d,39,0,2024-02-28T15:02:35.772Z,french_991.wav,0,poule,406,66,5,4,e,m,0,0.0,36.75935394,0.61757489
5c8ee6c36ca70b0001fe979d,39,0,2024-02-28T15:02:35.772Z,french_991.wav,0,poule,406,66,5,4,e,m,1,0.1,62.37590306,0.91218426
5c8ee6c36ca70b0001fe979d,39,0,2024-02-28T15:02:35.772Z,french_991.wav,0,poule,406,66,5,4,e,m,2,0.2,-79.10366799,1.22140569
5c8ee6c36ca70b0001fe979d,39,0,2024-02-28T15:02:35.772Z,french_991.wav,0,poule,406,66,5,4,e,m,3,0.3,15.61361167,1.31629718
5c8ee6c36ca70b0001fe979d,39,0,2024-02-28T15:02:35.772Z,french_991.wav,0,poule,406,66,5,4,e,m,4,0.4,40.29353687,0.79411693
5c8ee6c36ca70b0001fe979d,39,0,2024-02-28T15:02:35.772Z,french_991.wav,0,poule,406,66,5,4,e,m,5,0.5,2.12234517,0.73057303
5c8ee6c36ca70b0001fe979d,39,0,2024-02-28T15:02:35.772Z,french_991.wav,0,poule,406,66,5,4,e,m,6,0.6,12.50359996,0.23343818
5c8ee6c36ca70b0001fe979d,39,0,2024-02-28T15:02:35.772Z,french_991.wav,0,poule,406,66,5,4,e,m,7,0.7,-82.50426771,0.74035026
5c8ee6c36ca70b0001fe979d,39,0,2024-02-28T15:02:35.772Z,french_991.wav,0,poule,406,66,5,4,e,m,8,0.8,24.690563,1.16659072
5c8ee6c36ca70b0001fe979d,39,0,2024-02-28T15:02:35.772Z,french_991.wav,0,poule,406,66,5,4,e,m,9,0.9,-26.86058419,0.34867732
5c8ee6c36ca70b0001fe979d,39,0,2024-02-28T15:02:35.772Z,french_991.wav,0,poule,406,66,5,4,e,m,10,1.0,-14.63831272,1.71373813
5c8ee6c36ca70b0001fe979d,39,0,2024-02-28T15:02:35.772Z,french_991.wav,0,poule,406,66,5,4,e,m,11,1.1,68.03313278,1.49834332
5c8ee6c36ca70b0001fe979d,39,0,2024-02-28T15:02:35.772Z,french_991.wav,0,poule,406,66,5,4,e,m,12,1.14141667,-76.23493294,0.08304986
5c8ee6c36ca70b0001fe979d,40,0,2024-02-28T15:02:35.772Z,french_327.wav,0,poule,702,66,5,4,e,m,0,0.0,-53.52918166,1.09156225
5c8ee6c36ca70b0001fe979d,40,0,2024-02-28T15:02:35.772Z,french_327.wav,0,poule,702,66,5,4,e,m,1,0.1,27.70688204,1.43297377
5c8ee6c36ca70b0001fe979d,40,0,2024-02-28T15:02:35.772Z,french_327.wav,0,poule,702,66,5,4,e,m,2,0.2,69.01000841,0.49398039
5c8ee6c36ca70b0001fe979d,40,0,2024-02-28T15:02:35.772Z,french_327.wav,0,poule,702,66,5,4,e,m,3,0.3,-45.54391613,0.06798676
5c8ee6c36ca70b0001fe979d,40,0,2024-02-28T15:02:35.772Z,french_327.wav,0,poule,702,66,5,4,e,m,4,0.4,33.52384078,0.46773915
5c8ee6c36ca70b0001fe979d,40,0,2024-02-28T15:02:35.772Z,french_327.wav,0,poule,702,66,5,4,e,m,5,0.5,17.91078554,0.5934464
5c8ee6c36ca70b0001fe979d,40,0,2024-02-28T15:02:35.772Z,french_327.wav,0,poule,702,66,5,4,e,m,6,0.6,45.93563694,0.09815692
5c8ee6c36ca70b0001fe979d,40,0,2024-02-28T15:02:35.772Z,french_327.wav,0,poule,702,66,5,4,e,m,7,0.7,-13.10288858,1.9688821
5c8ee6c36ca70b0001fe979d,40,0,2024-02-28T15:02:35.772Z,french_327.wav,0,poule,702,66,5,4,e,m,8,0.8,-25.64022912,1.78538783
5c8ee6c36ca70b0001fe979d,40,0,2024-02-28T15:02:35.772Z,french_327.wav,0,poule,702,66,5,4,e,m,9,0.9,-75.06755685,0.971708
5c8ee6c36ca70b0001fe979d,40,0,2024-02-28T15:02:35.772Z,french_327.wav,0,poule,702,66,5,4,e,m,10,1.0,-83.28184553,0.69398497
5c8ee6c36ca70b0001fe979d,40,0,2024-02-28T15:02:35.772Z,french_327.wav,0,poule,702,66,5,4,e,m,11,1.1,81.16413935,0.89234936
5c8ee6c36ca70b0001fe979d,40,0,2024-02-28T15:02:35.772Z,french_327.wav,0,poule,702,66,5,4,e,m,12,1.14141667,-23.22330966,1.70612445
5c8ee6c36ca70b0001fe979d,41,0,2024-02-28T15:02:35.772Z,french_540.wav,0,pull,594,66,5,4,e,m,0,0.0,31.52597312,1.25975377
5c8ee6c36ca70b0001fe979d,41,0,2024-02-28T15:02:35.772Z,french_540.wav,0,pull,594,66,5,4,e,m,1,0.1,-1.25149155,1.40968559
5c8ee6c36ca70b0001fe979d,41,0,2024-02-28T15:02:35.772Z,french_540.wav,0,pull,594,66,5,4,e,m,2,0.2,-73.66629191,0.44233903
5c8ee6c36ca70b0001fe979d,41,0,2024-02-28T15:02:35.772Z,french_540.wav,0,pull,594,66,5,4,e,m,3,0.3,-22.64766564,0.80840944
5c8ee6c36ca70b0001fe979d,41,0,2024-02-28T15:02:35.772Z,french_540.wav,0,pull,594,66,5,4,e,m,4,0.4,-99.62555954,0.2410145
5c8ee6c36ca70b0001fe979d,41,0,2024-02-28T15:02:35.772Z,french_540.wav,0,pull,594,66,5,4,e,m,5,0.5,16.96824428,0.92564841
5c8ee6c36ca70b0001fe979d,41,0,2024-02-28T15:02:35.772Z,french_540.wav,0,pull,594,66,5,4,e,m,6,0.6,87.0103995,1.23012294
5c8ee6c36ca70b0001fe979d,41,0,2024-02-28T15:02:35.772Z,french_540.wav,0,pull,594,66,5,4,e,m,7,0.7,40.33133886,1.75550661
5c8ee6c36ca70b0001fe979d,41,0,2024-02-28T15:02:35.772Z,french_540.wav,0,pull,594,66,5,4,e,m,8,0.8,20.73958679,1.48031201
5c8ee6c36ca70b0001fe979d,41,0,2024-02-28T15:02:35.772Z,french_540.wav,0,pull,594,66,5,4,e,m,9,0.9,42.51308569,0.50269543
5c8ee6c36ca70b0001fe979d,41,0,2024-02-28T15:02:35.772Z,french_540.wav,0,pull,594,66,5,4,e,m,10,1.0,-2.19499318,0.37203423
5c8ee6c36ca70b0001fe979d,41,0,2024-02-28T15:02:35.772Z,french_540.wav,0,pull,594,66,5,4,e,m,11,1.1,-32.36810626,0.07986375
5c8ee6c36ca70b0001fe979d,41,0,2024-02-28T15:02:35.772Z,french_540.wav,0,pull,594,66,5,4,e,m,12,1.14141667,-26.20670126,1.98266687
5c8ee6c36ca70b0001fe979d,42,0,2024-02-28T15:02:35.772Z,french_291.wav,0,poule,395,66,5,4,e,m,0,0.0,75.64449734,0.99622141
5c8ee6c36ca70b0001fe979d,42,0,2024-02-28T15:02:35.772Z,french_291.wav,0,poule,395,66,5,4,e,m,1,0.1,-65.43090214,0.97703248
5c8ee6c36ca70b0001fe979d,42,0,2024-02-28T15:02:35.772Z,french_291.wav,0,poule,395,66,5,4,e,m,2,0.2,92.62431372,1.48498391
5c8ee6c36ca70b0001fe979d,42,0,2024-02-28T15:02:35.772Z,french_291.wav,0,poule,395,66,5,4,e,m,3,0.3,-29.48164048,0.0812383
5c8ee6c36ca70b0001fe979d,42,0,2024-02-28T15:02:35.772Z,french_291.wav,0,poule,395,66,5,4,e,m,4,0.4,-37.98363851,1.60208825
5c8ee6c36ca70b0001fe979d,42,0,2024-02-28T15:02:35.772Z,french_291.wav,0,poule,395,66,5,4,e,m,5,0.5,15.64649245,0.32764185
5c8ee6c36ca70b0001fe979d,42,0,2024-02-28T15:02:35.772Z,french_291.wav,0,poule,395,66,5,4,e,m,6,0.6,53.8652777,1.79838778
5c8ee6c36ca70b0001fe979d,42,0,2024-02-28T15:02:35.772Z,french_291.wav,0,poule,395,66,5,4,e,m,7,0.7,-35.28963219,1.46329476
5c8ee6c36ca70b0001fe979d,42,0,2024-02-28T15:02:35.772Z,french_291.wav,0,poule,395,66,5,4,e,m,8,0.8,24.41269774,0.59715792
5c8ee6c36ca70b0001fe979d,42,0,2024-02-28T15:02:35.772Z,french_291.wav,0,poule,395,66,5,4,e,m,9,0.9,66.01035815,1.47333098
5c8ee6c36ca70b0001fe979d,42,0,2024-02-28T15:02:35.772Z,french_291.wav,0,poule,395,66,5,4,e,m,10,1.0,85.37123307,0.97066406
5c8ee6c36ca70b0001fe979d,42,0,2024-02-28T15:02:35.772Z,french_291.wav,0,poule,395,66,5,4,e,m,11,1.1,61.6720076,1.98581882
5c8ee6c36ca70b0001fe979d,42,0,2024-02-28T15:02:35.772Z,french_291.wav,0,poule,395,66,5,4,e,m,12,1.14141667,32.49754769,0.19179558
5c8ee6c36ca70b0001fe979d,43,0,2024-02-28T15:02:35.772Z,french_755.wav,0,poule,492,66,5,4,e,m,0,0.0,36.14181442,1.11091934
5c8ee6c36ca70b0001fe979d,43,0,2024-02-28T15:02:35.772Z,french_755.wav,0,poule,492,66,5,4,e,m,1,0.1,65.65436486,1.69229508
5c8ee6c36ca70b0001fe979d,43,0,2024-02-28T15:02:35.772Z,french_755.wav,0,poule,492,66,5,4,e,m,2,0.2,86.67843471,0.1388144
5c8ee6c36ca70b0001fe979d,43,0,2024-02-28T15:02:35.772Z,french_755.wav,0,poule,492,66,5,4,e,m,3,0.3,-8.86145981,0.57833764
5c8ee6c36ca70b0001fe979d,43,0,2024-02-28T15:02:35.772Z,french_755.wav,0,poule,492,66,5,4,e,m,4,0.4,-12.30117524,0.31165038
5c8ee6c36ca70b0001fe979d,43,0,2024-02-28T15:02:35.772Z,french_755.wav,0,poule,492,66,5,4,e,m,5,0.5,98.78001308,0.94348681
5c8ee6c36ca70b0001fe979d,43,0,2024-02-28T15:02:35.772Z,french_755.wav,0,poule,492,66,5,4,e,m,6,0.6,12.52874714,0.6726085
5c8ee6c36ca70b0001fe979d,43,0,2024-02-28T15:02:35.772Z,french_755.wav,0,poule,492,66,5,4,e,m,7,0.7,99.60164516,1.03806417
5c8ee6c36ca70b0001fe979d,43,0,2024-02-28T15:02:35.772Z,french_755.wav,0,poule,492,66,5,4,e,m,8,0.8,39.46126753,1.20959204
5c8ee6c36ca70b0001fe979d,43,0,2024-02-28T15:02:35.772Z,french_755.wav,0,poule,492,66,5,4,e,m,9,0.9,32.3918664,0.23020996
5c8ee6c36ca70b0001fe979d,43,0,2024-02-28T15:02:35.772Z,french_755.wav,0,poule,492,66,5,4,e,m,10,1.0,83.79615474,1.16092257
5c8ee6c36ca70b0001fe979d,43,0,2024-02-28T15:02:35.772Z,french_755.wav,0,poule,492,66,5,4,e,m,11,1.1,92.88365026,1.06314815
5c8ee6c36ca70b0001fe979d,43,0,2024-02-28T15:02:35.772Z,french_755.wav,0,poule,492,66,5,4,e,m,12,1.14141667,-11.43148999,1.36781362
5c8ee6c36ca70b0001fe979d,44,0,2024-02-28T15:02:35.772Z,french_777.wav,0,poule,261,66,5,4,e,m,0,0.0,77.27405006,1.62548619
5c8ee6c36ca70b0001fe979d,44,0,2024-02-28T15:02:35.772Z,french_777.wav,0,poule,261,66,5,4,e,m,1,0.1,-43.62097136,0.53369976
5c8ee6c36ca70b0001fe979d,44,0,2024-02-28T15:02:35.772Z,french_777.wav,0,poule,261,66,5,4,e,m,2,0.2,-71.86613429,1.1787447
5c8ee6c36ca70b0001fe979d,44,0,2024-02-28T15:02:35.772Z,french_777.wav,0,poule,261,66,5,4,e,m,3,0.3,19.04914213,0.73142346
5c8ee6c36ca70b0001fe979d,44,0,2024-02-28T15:02:35.772Z,french_777.wav,0,poule,261,66,5,4,e,m,4,0.4,6.36016729,0.11699049
5c8ee6c36ca70b0001fe979d,44,0,2024-02-28T15:02:35.772Z,french_777.wav,0,poule,261,66,5,4,e,m,5,0.5,-8.94300712,1.84485596
5c8ee6c36ca70b0001fe979d,44,0,2024-02-28T15:02:35.772Z,french_777.wav,0,poule,261,66,5,4,e,m,6,0.6,-14.90453639,0.17624745
5c8ee6c36ca70b0001fe979d,44,0,2024-02-28T15:02:35.772Z,french_777.wav,0,poule,261,66,5,4,e,m,7,0.7,10.63507791,0.96737811
5c8ee6c36ca70b0001fe979d,44,0,2024-02-28T15:02:35.772Z,french_777.wav,0,poule,261,66,5,4,e,m,8,0.8,-14.71794028,1.29230424
5c8ee6c36ca70b0001fe979d,44,0,2024-02-28T15:02:35.772Z,french_777.wav,0,poule,261,66,5,4,e,m,9,0.9,-35.30440574,1.30925709
5c8ee6c36ca70b0001fe979d,44,0,2024-02-28T15:02:35.772Z,french_777.wav,0,poule,261,66,5,4,e,m,10,1.0,72.83134335,0.44296759
5c8ee6c36ca70b0001fe979d,44,0,2024-02-28T15:02:35.772Z,french_777.wav,0,poule,261,66,5,4,e,m,11,1.1,47.44861193,1.8318427
5c8ee6c36ca70b0001fe979d,44,0,2024-02-28T15:02:35.772Z,french_777.wav,0,poule,261,66,5,4,e,m,12,1.14141667,-52.80481873,1.51049724
5c8ee6c36ca70b0001fe979d,45,0,2024-02-28T15:02:35.772Z,french_727.wav,0,poule,858,66,5,4,e,m,0,0.0,-20.05824151,0.38879294
5c8ee6c36ca70b0001fe979d,45,0,2024-02-28T15:02:35.772Z,french_727.wav,0,poule,858,66,5,4,e,m,1,0.1,69.75510409,1.1988761
5c8ee6c36ca70b0001fe979d,45,0,2024-02-28T15:02:35.772Z,french_727.wav,0,poule,858,66,5,4,e,m,2,0.2,-72.00605267,1.21340454
5c8ee6c36ca70b0001fe979d,45,0,2024-02-28T15:02:35.772Z,french_727.wav,0,poule,858,66,5,4,e,m,3,0.3,-6.83631599,1.07331199
5c8ee6c36ca70b0001fe979d,45,0,2024-02-28T15:02:35.772Z,french_727.wav,0,poule,858,66,5,4,e,m,4,0.4,-22.0103923,0.09560546
5c8ee6c36ca70b0001fe979d,45,0,2024-02-28T15:02:35.772Z,french_727.wav,0,poule,858,66,5,4,e,m,5,0.5,-9.32146308,0.49166162
5c8ee6c36ca70b0001fe979d,45,0,2024-02-28T15:02:35.772Z,french_727.wav,0,poule,858,66,5,4,e,m,6,0.6,55.52257653,1.00409517
5c8ee6c36ca70b0001fe979d,45,0,2024-02-28T15:02:35.772Z,french_727.wav,0,poule,858,66,5,4,e,m,7,0.7,15.94643217,0.80619997
5c8ee6c36ca70b0001fe979d,45,0,2024-02-28T15:02:35.772Z,french_727.wav,0,poule,858,66,5,4,e,m,8,0.8,-72.95565773,1.99971332
5c8ee6c36ca70b0001fe979d,45,0,2024-02-28T15:02:35.772Z,french_727.wav,0,poule,858,66,5,4,e,m,9,0.9,6.47080818,0.66850695
5c8ee6c36ca70b0001fe979d,45,0,2024-02-28T15:02:35.772Z,french_727.wav,0,poule,858,66,5,4,e,m,10,1.0,-39.0563141,0.85036582
5c8ee6c36ca70b0001fe979d,45,0,2024-02-28T15:02:35.772Z,french_727.wav,0,poule,858,66,5,4,e,m,11,1.1,-93.66180319,0.40432855
5c8ee6c36ca70b0001fe979d,45,0,2024-02-28T15:02:35.772Z,french_727.wav,0,poule,858,66,5,4,e,m,12,1.14141667,71.53836892,0.54223164
5c8ee6c36ca70b0001fe979d,46,0,2024-02-28T15:02:35.772Z,french_463.wav,0,poule,523,66,5,4,e,m,0,0.0,-28.25289602,0.03820079
5c8ee6c36ca70b0001fe979d,46,0,2024-02-28T15:02:35.772Z,french_463.wav,0,poule,523,66,5,4,e,m,1,0.1,-29.96157941,1.06701123
5c8ee6c36ca70b0001fe979d,46,0,2024-02-28T15:02:35.772Z,french_463.wav,0,poule,523,66,5,4,e,m,2,0.2,-35.61602773,1.17367249
5c8ee6c36ca70b0001fe979d,46,0,2024-02-28T15:02:35.772Z,french_463.wav,0,poule,523,66,5,4,e,m,3,0.3,64.20990909,0.16492654
5c8ee6c36ca70b0001fe979d,46,0,2024-02-28T15:02:35.772Z,french_463.wav,0,poule,523,66,5,4,e,m,4,0.4,-63.83515399,0.16398837
5c8ee6c36ca70b0001fe979d,46,0,2024-02-28T15:02:35.772Z,french_463.wav,0,poule,523,66,5,4,e,m,5,0.5,71.59997763,1.39593521
5c8ee6c36ca70b0001fe979d,46,0,2024-02-28T15:02:35.772Z,french_463.wav,0,poule,523,66,5,4,e,m,6,0.6,89.31755347,1.25797632
5c8ee6c36ca70b0001fe979d,46,0,2024-02-28T15:02:35.772Z,french_463.wav,0,poule,523,66,5,4,e,m,7,0.7,-98.14659704,0.35849906
5c8ee6c36ca70b0001fe979d,46,0,2024-02-28T15:02:35.772Z,french_463.wav,0,poule,523,66,5,4,e,m,8,0.8,33.66167072,0.72596435
5c8ee6c36ca70b0001fe979d,46,0,2024-02-28T15:02:35.772Z,french_463.wav,0,poule,523,66,5,4,e,m,9,0.9,67.16249153,1.46059629
5c8ee6c36ca70b0001fe979d,46,0,2024-02-28T15:02:35.772Z,french_463.wav,0,poule,523,66,5,4,e,m,10,1.0,-48.02468866,0.19516894
5c8ee6c36ca70b0001fe979d,46,0,2024-02-28T15:02:35.772Z,french_463.wav,0,poule,523,66,5,4,e,m,11,1.1,0.355648,1.55106472
5c8ee6c36ca70b0001fe979d,46,0,2024-02-28T15:02:35.772Z,french_463.wav,0,poule,523,66,5,4,e,m,12,1.14141667,-15.74672825,1.61627541
5c8ee6c36ca70b0001fe979d,47,0,2024-02-28T15:02:35.772Z,french_703.wav,0,poule,454,66,5,4,e,m,0,0.0,-21.37770157,0.66802696
5c8ee6c36ca70b0001fe979d,47,0,2024-02-28T15:02:35.772Z,french_703.wav,0,poule,454,66,5,4,e,m,1,0.1,50.31331321,1.55362381
5c8ee6c36ca70b0001fe979d,47,0,2024-02-28T15:02:35.772Z,french_703.wav,0,poule,454,66,5,4,e,m,2,0.2,-49.4496378,1.48463552
5c8ee6c36ca70b0001fe979d,47,0,2024-02-28T15:02:35.772Z,french_703.wav,0,poule,454,66,5,4,e,m,3,0.3,-38.33697717,1.06515095
5c8ee6c36ca70b0001fe979d,47,0,2024-02-28T15:02:35.772Z,french_703.wav,0,poule,454,66,5,4,e,m,4,0.4,12.97977008,1.1493655
5c8ee6c36ca70b0001fe979d,47,0,2024-02-28T15:02:35.772Z,french_703.wav,0,poule,454,66,5,4,e,m,5,0.5,66.07418181,1.63722162
5c8ee6c36ca70b0001fe979d,47,0,2024-02-28T15:02:35.772Z,french_703.wav,0,poule,454,66,5,4,e,m,6,0.6,59.04442669,1.06112756
5c8ee6c36ca70b0001fe979d,47,0,2024-02-28T15:02:35.772Z,french_703.wav,0,poule,454,66,5,4,e,m,7,0.7,52.62775671,0.93406202
5c8ee6c36ca70b0001fe979d,47,0,2024-02-28T15:02:35.772Z,french_703.wav,0,poule,454,66,5,4,e,m,8,0.8,-82.81575473,1.77561251
5c8ee6c36ca70b0001fe979d,47,0,2024-02-28T15:02:35.772Z,french_703.wav,0,poule,454,66,5,4,e,m,9,0.9,45.17803837,1.09803638
5c8ee6c36ca70b0001fe979d,47,0,2024-02-28T15:02:35.772Z,french_703.wav,0,poule,454,66,5,4,e,m,10,1.0,40.13411686,0.34970279
5c8ee6c36ca70b0001fe979d,47,0,2024-02-28T15:02:35.772Z,french_703.wav,0,poule,454,66,5,4,e,m,11,1.1,8.5356203,1.76771606
5c8ee6c36ca70b0001fe979d,47,0,2024-02-28T15:02:35.772Z,french_703.wav,0,poule,454,66,5,4,e,m,12,1.14141667,19.72779224,0.04025576
5c8ee6c36ca70b0001fe979d,48,0,2024-02-28T15:02:35.772Z,french_816.wav,0,poule,520,66,5,4,e,m,0,0.0,-97.18949374,1.62055142
5c8ee6c36ca70b0001fe979d,48,0,2024-02-28T15:02:35.772Z,french_816.wav,0,poule,520,66,5,4,e,m,1,0.1,-61.44808102,0.77873913
5c8ee6c36ca70b0001fe979d,48,0,2024-02-28T15:02:35.772Z,french_816.wav,0,poule,520,66,5,4,e,m,2,0.2,61.9994188,1.7419515
5c8ee6c36ca70b0001fe979d,48,0,2024-02-28T15:02:35.772Z,french_816.wav,0,poule,520,66,5,4,e,m,3,0.3,84.22947867,1.18335518
5c8ee6c36ca70b0001fe979d,48,0,2024-02-28T15:02:35.772Z,french_816.wav,0,poule,520,66,5,4,e,m,4,0.4,71.42718941,0.26789649
5c8ee6c36ca70b0001fe979d,48,0,2024-02-28T15:02:35.772Z,french_816.wav,0,poule,520,66,5,4,e,m,5,0.5,24.61980692,1.09790132
5c8ee6c36ca70b0001fe979d,48,0,2024-02-28T15:02:35.772Z,french_816.wav,0,poule,520,66,5,4,e,m,6,0.6,67.61429309,0.65540703
5c8ee6c36ca70b0001fe979d,48,0,2024-02-28T15:02:35.772Z,french_816.wav,0,poule,520,66,5,4,e,m,7,0.7,2.89011689,0.23417739
5c8ee6c36ca70b0001fe979d,48,0,2024-02-28T15:02:35.772Z,french_816.wav,0,poule,520,66,5,4,e,m,8,0.8,-17.87721334,1.34217218
5c8ee6c36ca70b0001fe979d,48,0,2024-02-28T15:02:35.772Z,french_816.wav,0,poule,520,66,5,4,e,m,9,0.9,68.87537651,0.58504263
5c8ee6c36ca70b0001fe979d,48,0,2024-02-28T15:02:35.772Z,french_816.wav,0,poule,520,66,5,4,e,m,10,1.0,26.6727595,0.89860731
5c8ee6c36ca70b0001fe979d,48,0,2024-02-28T15:02:35.772Z,french_816.wav,0,poule,520,66,5,4,e,m,11,1.1,7.78053478,1.05692274
5c8ee6c36ca70b0001fe979d,48,0,2024-02-28T15:02:35.772Z,french_816.wav,0,poule,520,66,5,4,e,m,12,1.14141667,95.77522744,0.59957378
5c8ee6c36ca70b0001fe979d,49,0,2024-02-28T15:02:35.772Z,french_259.wav,0,poule,466,66,5,4,e,m,0,0.0,-59.91817448,1.41028743
5c8ee6c36ca70b0001fe979d,49,0,2024-02-28T15:02:35.772Z,french_259.wav,0,poule,466,66,5,4,e,m,1,0.1,-76.78104066,0.39402833
5c8ee6c36ca70b0001fe979d,49,0,2024-02-28T15:02:35.772Z,french_259.wav,0,poule,466,66,5,4,e,m,2,0.2,-24.57474892,0.55524153
5c8ee6c36ca70b0001fe979d,49,0,2024-02-28T15:02:35.772Z,french_259.wav,0,poule,466,66,5,4,e,m,3,0.3,14.52282821,1.28540182
5c8ee6c36ca70b0001fe979d,49,0,2024-02-28T15:02:35.772Z,french_259.wav,0,poule,466,66,5,4,e,m,4,0.4,-74.78142886,1.3039233
5c8ee6c36ca70b0001fe979d,49,0,2024-02-28T15:02:35.772Z,french_259.wav,0,poule,466,66,5,4,e,m,5,0.5,92.44025007,1.14426098
5c8ee6c36ca70b0001fe979d,49,0,2024-02-28T15:02:35.772Z,french_259.wav,0,poule,466,66,5,4,e,m,6,0.6,-62.83388566,0.89085824
5c8ee6c36ca70b0001fe979d,49,0,2024-02-28T15:02:35.772Z,french_259.wav,0,poule,466,66,5,4,e,m,7,0.7,-12.86689319,1.12937419
5c8ee6c36ca70b0001fe979d,49,0,2024-02-28T15:02:35.772Z,french_259.wav,0,poule,466,66,5,4,e,m,8,0.8,-56.0210738,1.6719433
5c8ee6c36ca70b0001fe979d,49,0,2024-02-28T15:02:35.772Z,french_259.wav,0,poule,466,66,5,4,e,m,9,0.9,16.50496054,0.74095539
5c8ee6c36ca70b0001fe979d,49,0,2024-02-28T15:02:35.772Z,french_259.wav,0,poule,466,66,5,4,e,m,10,1.0,26.27464012,1.24119924
5c8ee6c36ca70b0001fe979d,49,0,2024-02-28T15:02:35.772Z,french_259.wav,0,poule,466,66,5,4,e,m,11,1.1,-25.91156451,0.75010555
5c8ee6c36ca70b0001fe979d,49,0,2024-02-28T15:02:35.772Z,french_259.wav,0,poule,466,66,5,4,e,m,12,1.14141667,79.12845204,0.55605734
5c8ee6c36ca70b0001fe979d,50,1,2024-02-28T15:05:48.568Z,french_321.wav,0,poule,539,66,5,4,e,m,0,0.0,-17.43290113,1.16678301
5c8ee6c36ca70b0001fe979d,50,1,2024-02-28T15:05:48.568Z,french_321.wav,0,poule,539,66,5,4,e,m,1,0.1,-75.13063007,0.91554507
5c8ee6c36ca70b0001fe979d,50,1,2024-02-28T15:05:48.568Z,french_321.wav,0,poule,539,66,5,4,e,m,2,0.2,21.04236254,0.06135462
5c8ee6c36ca70b0001fe979d,50,1,2024-02-28T15:05:48.568Z,french_321.wav,0,poule,539,66,5,4,e,m,3,0.3,72.8638134,1.76394003
5c8ee6c36ca70b0001fe979d,50,1,2024-02-28T15:05:48.568Z,french_321.wav,0,poule,539,66,5,4,e,m,4,0.4,-64.71622609,0.62597265
5c8ee6c36ca70b0001fe979d,50,1,2024-02-28T15:05:48.568Z,french_321.wav,0,poule,539,66,5,4,e,m,5,0.5,38.46531761,1.09057474
5c8ee6c36ca70b0001fe979d,50,1,2024-02-28T15:05:48.568Z,french_321.wav,0,poule,539,66,5,4,e,m,6,0.6,16.71176919,1.39570294
5c8ee6c36ca70b0001fe979d,50,1,2024-02-28T15:05:48.568Z,french_321.wav,0,poule,539,66,5,4,e,m,7,0.7,-79.68428787,1.76893105
5c8ee6c36ca70b0001fe979d,50,1,2024-02-28T15:05:48.568Z,french_321.wav,0,poule,539,66,5,4,e,m,8,0.8,-11.06096096,1.4722675
5c8ee6c36ca70b0001fe979d,50,1,2024-02-28T15:05:48.568Z,french_321.wav,0,poule,539,66,5,4,e,m,9,0.9,92.10217905,0.23544571
5c8ee6c36ca70b0001fe979d,50,1,2024-02-28T15:05:48.568Z,french_321.wav,0,poule,539,66,5,4,e,m,10,1.0,-37.60449635,1.24526823
5c8ee6c36ca70b0001fe979d,50,1,2024-02-28T15:05:48.568Z,french_321.wav,0,poule,539,66,5,4,e,m,11,1.1,-59.94541406,1.52804518
5c8ee6c36ca70b0001fe979d,50,1,2024-02-28T15:05:48.568Z,french_321.wav,0,poule,539,66,5,4,e,m,12,1.14141667,51.49701243,1.57997297
5c8ee6c36ca70b0001fe979d,51,1,2024-02-28T15:05:48.568Z,french_246.wav,0,poule,879,66,5,4,e,m,0,0.0,-30.47504576,0.47785651
5c8ee6c36ca70b0001fe979d,51,1,2024-02-28T15:05:48.568Z,french_246.wav,0,poule,879,66,5,4,e,m,1,0.1,-83.06405686,1.85614621
5c8ee6c36ca70b0001fe979d,51,1,2024-02-28T15:05:48.568Z,french_246.wav,0,poule,879,66,5,4,e,m,2,0.2,62.50778564,0.28079339
5c8ee6c36ca70b0001fe979d,51,1,2024-02-28T15:05:48.568Z,french_246.wav,0,poule,879,66,5,4,e,m,3,0.3,8.87266429,1.15467711
5c8ee6c36ca70b0001fe979d,51,1,2024-02-28T15:05:48.568Z,french_246.wav,0,poule,879,66,5,4,e,m,4,0.4,44.6949174,1.29610326
5c8ee6c36ca70b0001fe979d,51,1,2024-02-28T15:05:48.568Z,french_246.wav,0,poule,879,66,5,4,e,m,5,0.5,38.79182234,0.14147162
5c8ee6c36ca70b0001fe979d,51,1,2024-02-28T15:05:48.568Z,french_246.wav,0,poule,879,66,5,4,e,m,6,0.6,-98.97339248,0.92649122
5c8ee6c36ca70b0001fe979d,51,1,2024-02-28T15:05:48.568Z,french_246.wav,0,poule,879,66,5,4,e,m,7,0.7,-24.61405849,0.74752986
5c8ee6c36ca70b0001fe979d,51,1,2024-02-28T15:05:48.568Z,french_246.wav,0,poule,879,66,5,4,e,m,8,0.8,0.11664969,1.75089992
5c8ee6c36ca70b0001fe979d,51,1,2024-02-28T15:05:48.568Z,french_246.wav,0,poule,879,66,5,4,e,m,9,0.9,41.40110598,0.0989963
5c8ee6c36ca70b0001fe979d,51,1,2024-02-28T15:05:48.568Z,french_246.wav,0,poule,879,66,5,4,e,m,10,1.0,-40.48516798,0.24181159
5c8ee6c36ca70b0001fe979d,51,1,2024-02-28T15:05:48.568Z,french_246.wav,0,poule,879,66,5,4,e,m,11,1.1,70.26355015,1.60406525
5c8ee6c36ca70b0001fe979d,51,1,2024-02-28T15:05:48.568Z,french_246.wav,0,poule,879,66,5,4,e,m,12,1.14141667,92.29981678,0.31046435
5c8ee6c36ca70b0001fe979d,52,1,2024-02-28T15:05:48.568Z,french_904.wav,0,poule,1723,66,5,4,e,m,0,0.0,-11.62176844,1.49355087
5c8ee6c36ca70b0001fe979d,52,1,2024-02-28T15:05:48.568Z,french_904.wav,0,poule,1723,66,5,4,e,m,1,0.1,-97.15527311,0.51193857
5c8ee6c36ca70b0001fe979d,52,1,2024-02-28T15:05:48.568Z,french_904.wav,0,poule,1723,66,5,4,e,m,2,0.2,23.7219884,1.25947895
5c8ee6c36ca70b0001fe979d,52,1,2024-02-28T15:05:48.568Z,french_904.wav,0,poule,1723,66,5,4,e,m,3,0.3,-11.13047804,0.53809601
5c8ee6c36ca70b0001fe979d,52,1,2024-02-28T15:05:48.568Z,french_904.wav,0,poule,1723,66,5,4,e,m,4,0.4,98.59989814,0.21415281
5c8ee6c36ca70b0001fe979d,52,1,2024-02-28T15:05:48.568Z,french_904.wav,0,poule,1723,66,5,4,e,m,5,0.5,10.92949536,1.62896015
5c8ee6c36ca70b0001fe979d,52,1,2024-02-28T15:05:48.568Z,french_904.wav,0,poule,1723,66,5,4,e,m,6,0.6,-8.2334005,0.06342806
5c8ee6c36ca70b0001fe979d,52,1,2024-02-28T15:05:48.568Z,french_904.wav,0,poule,1723,66,5,4,e,m,7,0.7,-68.9383701,0.5262516
5c8ee6c36ca70b0001fe979d,52,1,2024-02-28T15:05:48.568Z,french_904.wav,0,poule,1723,66,5,4,e,m,8,0.8,64.82847107,1.37854903
5c8ee6c36ca70b0001fe979d,52,1,2024-02-28T15:05:48.568Z,french_904.wav,0,poule,1723,66,5,4,e,m,9,0.9,-91.99415487,0.72263695
5c8ee6c36ca70b0001fe979d,52,1,2024-02-28T15:05:48.568Z,french_904.wav,0,poule,1723,66,5,4,e,m,10,1.0,-52.64833553,0.97240938
5c8ee6c36ca70b0001fe979d,52,1,2024-02-28T15:05:48.568Z,french_904.wav,0,poule,1723,66,5,4,e,m,11,1.1,47.97880576,0.44825995
5c8ee6c36ca70b0001fe979d,52,1,2024-02-28T15:05:48.568Z,french_904.wav,0,poule,1723,66,5,4,e,m,12,1.14141667,-73.02936526,1.11879983
5c8ee6c36ca70b0001fe979d,53,1,2024-02-28T15:05:48.568Z,french_846.wav,0,poule,494,66,5,4,e,m,0,0.0,43.42961838,1.28400626
5c8ee6c36ca70b0001fe979d,53,1,2024-02-28T15:05:48.568Z,french_846.wav,0,poule,494,66,5,4,e,m,1,0.1,48.91207132,0.70533895
5c8ee6c36ca70b0001fe979d,53,1,2024-02-28T15:05:48.568Z,french_846.wav,0,poule,494,66,5,4,e,m,2,0.2,-68.42359385,0.06316808
5c8ee6c36ca70b0001fe979d,53,1,2024-02-28T15:05:48.568Z,french_846.wav,0,poule,494,66,5,4,e,m,3,0.3,77.65804288,0.61229951
5c8ee6c36ca70b0001fe979d,53,1,2024-02-28T15:05:48.568Z,french_846.wav,0,poule,494,66,5,4,e,m,4,0.4,98.73987553,0.63250943
5c8ee6c36ca70b0001fe979d,53,1,2024-02-28T15:05:48.568Z,french_846.wav,0,poule,494,66,5,4,e,m,5,0.5,-52.72140445,0.92323899
5c8ee6c36ca70b0001fe979d,53,1,2024-02-28T15:05:48.568Z,french_846.wav,0,poule,494,66,5,4,e,m,6,0.6,75.92396611,1.83199323
5c8ee6c36ca70b0001fe979d,53,1,2024-02-28T15:05:48.568Z,french_846.wav,0,poule,494,66,5,4,e,m,7,0.7,-55.96148037,0.13437825
5c8ee6c36ca70b0001fe979d,53,1,2024-02-28T15:05:48.568Z,french_846.wav,0,poule,494,66,5,4,e,m,8,0.8,-32.72936207,0.25967485
5c8ee6c36ca70b0001fe979d,53,1,2024-02-28T15:05:48.568Z,french_846.wav,0,poule,494,66,5,4,e,m,9,0.9,28.49983495,1.88952139
5c8ee6c36ca70b0001fe979d,53,1,2024-02-28T15:05:48.568Z,french_846.wav,0,poule,494,66,5,4,e,m,10,1.0,-51.57941373,1.26440491
5c8ee6c36ca70b0001fe979d,53,1,2024-02-28T15:05:48.568Z,french_846.wav,0,poule,494,66,5,4,e,m,11,1.1,-3.09394124,1.62136954
5c8ee6c36ca70b0001fe979d,53,1,2024-02-28T15:05:48.568Z,french_846.wav,0,poule,494,66,5,4,e,m,12,1.14141667,-55.77116461,0.52928256
5c8ee6c36ca70b0001fe979d,54,1,2024-02-28T15:05:48.568Z,french_173.wav,0,poule,969,66,5,4,e,m,0,0.0,-46.66919298,1.63776861
5c8ee6c36ca70b0001fe979d,54,1,2024-02-28T15:05:48.568Z,french_173.wav,0,poule,969,66,5,4,e,m,1,0.1,4.67484005,1.1956952
5c8ee6c36ca70b0001fe979d,54,1,2024-02-28T15:05:48.568Z,french_173.wav,0,poule,969,66,5,4,e,m,2,0.2,80.83385661,0.9812403
5c8ee6c36ca70b0001fe979d,54,1,2024-02-28T15:05:48.568Z,french_173.wav,0,poule,969,66,5,4,e,m,3,0.3,-50.45685435,0.93944254
5c8ee6c36ca70b0001fe979d,54,1,2024-02-28T15:05:48.568Z,french_173.wav,0,poule,969,66,5,4,e,m,4,0.4,-62.49251948,1.366728
5c8ee6c36ca70b0001fe979d,54,1,2024-02-28T15:05:48.568Z,french_173.wav,0,poule,969,66,5,4,e,m,5,0.5,-50.73769737,0.90395124
5c8ee6c36ca70b0001fe979d,54,1,2024-02-28T15:05:48.568Z,french_173.wav,0,poule,969,66,5,4,e,m,6,0.6,97.55947113,0.64609469
5c8ee6c36ca70b0001fe979d,54,1,2024-02-28T15:05:48.568Z,french_173.wav,0,poule,969,66,5,4,e,m,7,0.7,-68.25637207,1.42709177
5c8ee6c36ca70b0001fe979d,54,1,2024-02-28T15:05:48.568Z,french_173.wav,0,poule,969,66,5,4,e,m,8,0.8,-22.42955904,1.40693544
5c8ee6c36ca70b0001fe979d,54,1,2024-02-28T15:05:48.568Z,french_173.wav,0,poule,969,66,5,4,e,m,9,0.9,15.09984102,1.93881322
5c8ee6c36ca70b0001fe979d,54,1,2024-02-28T15:05:48.568Z,french_173.wav,0,poule,969,66,5,4,e,m,10,1.0,-86.7117515,0.05946756
5c8ee6c36ca70b0001fe979d,54,1,2024-02-28T15:05:48.568Z,french_173.wav,0,poule,969,66,5,4,e,m,11,1.1,-74.37334759,1.20565839
5c8ee6c36ca70b0001fe979d,54,1,2024-02-28T15:05:48.568Z,french_173.wav,0,poule,969,66,5,4,e,m,12,1.14141667,71.31940753,1.30938607
5c8ee6c36ca70b0001fe979d,55,1,2024-02-28T15:05:48.568Z,french_315.wav,0,poule,619,66,5,4,e,m,0,0.0,-57.99380713,1.27596122
5c8ee6c36ca70b0001fe979d,55,1,2024-02-28T15:05:48.568Z,french_315.wav,0,poule,619,66,5,4,e,m,1,0.1,-29.42522233,0.75622444
5c8ee6c36ca70b0001fe979d,55,1,2024-02-28T15:05:48.568Z,french_315.wav,0,poule,619,66,5,4,e,m,2,0.2,-91.96432946,1.60227253
5c8ee6c36ca70b0001fe979d,55,1,2024-02-28T15:05:48.568Z,french_315.wav,0,poule,619,66,5,4,e,m,3,0.3,-22.65210092,1.19328355
5c8ee6c36ca70b0001fe979d,55,1,2024-02-28T15:05:48.568Z,french_315.wav,0,poule,619,66,5,4,e,m,4,0.4,3.04174071,1.37321416
5c8ee6c36ca70b0001fe979d,55,1,2024-02-28T15:05:48.568Z,french_315.wav,0,poule,619,66,5,4,e,m,5,0.5,1.08298466,0.56030576
5c8ee6c36ca70b0001fe979d,55,1,2024-02-28T15:05:48.568Z,french_315.wav,0,poule,619,66,5,4,e,m,6,0.6,-92.85305088,1.96333661
5c8ee6c36ca70b0001fe979d,55,1,2024-02-28T15:05:48.568Z,french_315.wav,0,poule,619,66,5,4,e,m,7,0.7,52.63200379,0.7652546
5c8ee6c36ca70b0001fe979d,55,1,2024-02-28T15:05:48.568Z,french_315.wav,0,poule,619,66,5,4,e,m,8,0.8,97.19945099,0.61561587
5c8ee6c36ca70b0001fe979d,55,1,2024-02-28T15:05:48.568Z,french_315.wav,0,poule,619,66,5,4,e,m,9,0.9,-1.29037543,0.24933363
5c8ee6c36ca70b0001fe979d,55,1,2024-02-28T15:05:48.568Z,french_315.wav,0,poule,619,66,5,4,e,m,10,1.0,26.84711098,1.10007309
5c8ee6c36ca70b0001fe979d,55,1,2024-02-28T15:05:48.568Z,french_315.wav,0,poule,619,66,5,4,e,m,11,1.1,-54.11592076,1.49808802
5c8ee6c36ca70b0001fe979d,55,1,2024-02-28T15:05:48.568Z,french_315.wav,0,poule,619,66,5,4,e,m,12,1.14141667,-87.89598751,0.97036692
5c8ee6c36ca70b0001fe979d,56,1,2024-02-28T15:05:48.568Z,french_212.wav,0,poule,906,66,5,4,e,m,0,0.0,90.88102294,1.19203637
5c8ee6c36ca70b0001fe979d,56,1,2024-02-28T15:05:48.568Z,french_212.wav,0,poule,906,66,5,4,e,m,1,0.1,-35.14561703,1.89782901
5c8ee6c36ca70b0001fe979d,56,1,2024-02-28T15:05:48.568Z,french_212.wav,0,poule,906,66,5,4,e,m,2,0.2,14.79271583,1.86865655
5c8ee6c36ca70b0001fe979d,56,1,2024-02-28T15:05:48.568Z,french_212.wav,0,poule,906,66,5,4,e,m,3,0.3,-88.21899913,1.6473075
5c8ee6c36ca70b0001fe979d,56,1,2024-02-28T15:05:48.568Z,french_212.wav,0,poule,906,66,5,4,e,m,4,0.4,92.67503614,1.53763625
5c8ee6c36ca70b0001fe979d,56,1,2024-02-28T15:05:48.568Z,french_212.wav,0,poule,906,66,5,4,e,m,5,0.5,23.16298662,0.83064548
5c8ee6c36ca70b0001fe979d,56,1,2024-02-28T15:05:48.568Z,french_212.wav,0,poule,906,66,5,4,e,m,6,0.6,48.09904427,0.60296104
5c8ee6c36ca70b0001fe979d,56,1,2024-02-28T15:05:48.568Z,french_212.wav,0,poule,906,66,5,4,e,m,7,0.7,21.94712123,1.07417589
5c8ee6c36ca70b0001fe979d,56,1,2024-02-28T15:05:48.568Z,french_212.wav,0,poule,906,66,5,4,e,m,8,0.8,-62.00364596,1.14958956
5c8ee6c36ca70b0001fe979d,56,1,2024-02-28T15:05:48.568Z,french_212.wav,0,poule,906,66,5,4,e,m,9,0.9,-26.3637586,0.04243199
5c8ee6c36ca70b0001fe979d,56,1,2024-02-28T15:05:48.568Z,french_212.wav,0,poule,906,66,5,4,e,m,10,1.0,-48.35693482,0.92355121
5c8ee6c36ca70b0001fe979d,56,1,2024-02-28T15:05:48.568Z,french_212.wav,0,poule,906,66,5,4,e,m,11,1.1,41.70852202,0.52672923
5c8ee6c36ca70b0001fe979d,56,1,2024-02-28T15:05:48.568Z,french_212.wav,0,poule,906,66,5,4,e,m,12,1.14141667,38.71450678,1.31846494
5c8ee6c36ca70b0001fe979d,57,1,2024-02-28T15:05:48.568Z,french_40.wav,0,pull,1002,66,5,4,e,m,0,0.0,-8.12729319,1.33981221
5c8ee6c36ca70b0001fe979d,57,1,2024-02-28T15:05:48.568Z,french_40.wav,0,pull,1002,66,5,4,e,m,1,0.1,4.45938553,0.58230507
5c8ee6c36ca70b0001fe979d,57,1,2024-02-28T15:05:48.568Z,french_40.wav,0,pull,1002,66,5,4,e,m,2,0.2,28.58144877,0.45774736
5c8ee6c36ca70b0001fe979d,57,1,2024-02-28T15:05:48.568Z,french_40.wav,0,pull,1002,66,5,4,e,m,3,0.3,-11.92795435,0.82403207
5c8ee6c36ca70b0001fe979d,57,1,2024-02-28T15:05:48.568Z,french_40.wav,0,pull,1002,66,5,4,e,m,4,0.4,43.56251257,1.03540986
5c8ee6c36ca70b0001fe979d,57,1,2024-02-28T15:05:48.568Z,french_40.wav,0,pull,1002,66,5,4,e,m,5,0.5,22.26926875,1.51862285
5c8ee6c36ca70b0001fe979d,57,1,2024-02-28T15:05:48.568Z,french_40.wav,0,pull,1002,66,5,4,e,m,6,0.6,-14.80375006,1.30207552
5c8ee6c36ca70b0001fe979d,57,1,2024-02-28T15:05:48.568Z,french_40.wav,0,pull,1002,66,5,4,e,m,7,0.7,-6.02231593,0.76961448
5c8ee6c36ca70b0001fe979d,57,1,2024-02-28T15:05:48.568Z,french_40.wav,0,pull,1002,66,5,4,e,m,8,0.8,27.11076244,1.12344021
5c8ee6c36ca70b0001fe979d,57,1,2024-02-28T15:05:48.568Z,french_40.wav,0,pull,1002,66,5,4,e,m,9,0.9,1.30682946,0.05989398
5c8ee6c36ca70b0001fe979d,57,1,2024-02-28T15:05:48.568Z,french_40.wav,0,pull,1002,66,5,4,e,m,10,1.0,-93.52950678,0.28850959
5c8ee6c36ca70b0001fe979d,57,1,2024-02-28T15:05:48.568Z,french_40.wav,0,pull,1002,66,5,4,e,m,11,1.1,-66.90804862,0.1338746
5c8ee6c36ca70b0001fe979d,57,1,2024-02-28T15:05:48.568Z,french_40.wav,0,pull,1002,66,5,4,e,m,12,1.14141667,-0.63154276,1.0832794
5c8ee6c36ca70b0001fe979d,58,1,2024-02-28T15:05:48.568Z,french_548.wav,0,poule,751,66,5,4,e,m,0,0.0,54.86314065,1.81744547
5c8ee6c36ca70b0001fe979d,58,1,2024-02-28T15:05:48.568Z,french_548.wav,0,poule,751,66,5,4,e,m,1,0.1,-70.60670497,0.33721892
5c8ee6c36ca70b0001fe979d,58,1,2024-02-28T15:05:48.568Z,french_548.wav,0,poule,751,66,5,4,e,m,2,0.2,55.69352869,1.2286075
5c8ee6c36ca70b0001fe979d,58,1,2024-02-28T15:05:48.568Z,french_548.wav,0,poule,751,66,5,4,e,m,3,0.3,-61.47878925,0.67541423
5c8ee6c36ca70b0001fe979d,58,1,2024-02-28T15:05:48.568Z,french_548.wav,0,poule,751,66,5,4,e,m,4,0.4,-11.97900613,1.75778453
5c8ee6c36ca70b0001fe979d,58,1,2024-02-28T15:05:48.568Z,french_548.wav,0,poule,751,66,5,4,e,m,5,0.5,18.14617596,1.03239779
5c8ee6c36ca70b0001fe979d,58,1,2024-02-28T15:05:48.568Z,french_548.wav,0,poule,751,66,5,4,e,m,6,0.6,80.02860728,1.13159617
5c8ee6c36ca70b0001fe979d,58,1,2024-02-28T15:05:48.568Z,french_548.wav,0,poule,751,66,5,4,e,m,7,0.7,-44.1411094,1.06156024
5c8ee6c36ca70b0001fe979d,58,1,2024-02-28T15:05:48.568Z,french_548.wav,0,poule,751,66,5,4,e,m,8,0.8,-45.71218284,1.283306
5c8ee6c36ca70b0001fe979d,58,1,2024-02-28T15:05:48.568Z,french_548.wav,0,poule,751,66,5,4,e,m,9,0.9,63.93029421,0.64876388
5c8ee6c36ca70b0001fe979d,58,1,2024-02-28T15:05:48.568Z,french_548.wav,0,poule,751,66,5,4,e,m,10,1.0,-1.52565372,0.73723592
5c8ee6c36ca70b0001fe979d,58,1,2024-02-28T15:05:48.568Z,french_548.wav,0,poule,751,66,5,4,e,m,11,1.1,-65.11467392,1.25903075
5c8ee6c36ca70b0001fe979d,58,1,2024-02-28T15:05:48.568Z,french_548.wav,0,poule,751,66,5,4,e,m,12,1.14141667,11.82578627,0.35535235
5c8ee6c36ca70b0001fe979d,59,1,2024-02-28T15:05:48.568Z,french_251.wav,0,poule,611,66,5,4,e,m,0,0.0,-6.10327237,0.87476983
5c8ee6c36ca70b0001fe979d,59,1,2024-02-28T15:05:48.568Z,french_251.wav,0,poule,611,66,5,4,e,m,1,0.1,-31.81812212,0.20851018
5c8ee6c36ca70b0001fe979d,59,1,2024-02-28T15:05:48.568Z,french_251.wav,0,poule,611,66,5,4,e,m,2,0.2,1.49653309,1.45345917
5c8ee6c36ca70b0001fe979d,59,1,2024-02-28T15:05:48.568Z,french_251.wav,0,poule,611,66,5,4,e,m,3,0.3,36.35816444,1.96312617
5c8ee6c36ca70b0001fe979d,59,1,2024-02-28T15:05:48.568Z,french_251.wav,0,poule,611,66,5,4,e,m,4,0.4,-9.41951006,1.04651376
5c8ee6c36ca70b0001fe979d,59,1,2024-02-28T15:05:48.568Z,french_251.wav,0,poule,611,66,5,4,e,m,5,0.5,-36.93530582,1.9610622
5c8ee6c36ca70b0001fe979d,59,1,2024-02-28T15:05:48.568Z,french_251.wav,0,poule,611,66,5,4,e,m,6,0.6,-25.41473519,1.3492542
5c8ee6c36ca70b0001fe979d,59,1,2024-02-28T15:05:48.568Z,french_251.wav,0,poule,611,66,5,4,e,m,7,0.7,56.15025122,1.04795193
5c8ee6c36ca70b0001fe979d,59,1,2024-02-28T15:05:48.568Z,french_251.wav,0,poule,611,66,5,4,e,m,8,0.8,-13.30142445,0.20627276
5c8ee6c36ca70b0001fe979d,59,1,2024-02-28T15:05:48.568Z,french_251.wav,0,poule,611,66,5,4,e,m,9,0.9,-95.55635491,0.33014387
5c8ee6c36ca70b0001fe979d,59,1,2024-02-28T15:05:48.568Z,french_251.wav,0,poule,611,66,5,4,e,m,10,1.0,-99.65392401,1.62301135
5c8ee6c36ca70b0001fe979d,59,1,2024-02-28T15:05:48.568Z,french_251.wav,0,poule,611,66,5,4,e,m,11,1.1,-3.55054731,1.19927307
5c8ee6c36ca70b0001fe979d,59,1,2024-02-28T15:05:48.568Z,french_251.wav,0,poule,611,66,5,4,e,m,12,1.14141667,-37.18224503,1.67752435
5c8ee6c36ca70b0001fe979d,60,1,2024-02-28T15:05:48.568Z,french_550.wav,0,poule,1049,66,5,4,e,m,0,0.0,72.6201006,1.67033206
5c8ee6c36ca70b0001fe979d,60,1,2024-02-28T15:05:48.568Z,french_550.wav,0,poule,1049,66,5,4,e,m,1,0.1,55.97657534,0.31629047
5c8ee6c36ca70b0001fe979d,60,1,2024-02-28T15:05:48.568Z,french_550.wav,0,poule,1049,66,5,4,e,m,2,0.2,13.52543227,1.6455345
5c8ee6c36ca70b0001fe979d,60,1,2024-02-28T15:05:48.568Z,french_550.wav,0,poule,1049,66,5,4,e,m,3,0.3,-81.349724,0.71516618
5c8ee6c36ca70b0001fe979d,60,1,2024-02-28T15:05:48.568Z,french_550.wav,0,poule,1049,66,5,4,e,m,4,0.4,99.86498811,1.73006106
5c8ee6c36ca70b0001fe979d,60,1,2024-02-28T15:05:48.568Z,french_550.wav,0,poule,1049,66,5,4,e,m,5,0.5,16.87534827,0.0344878
5c8ee6c36ca70b0001fe979d,60,1,2024-02-28T15:05:48.568Z,french_550.wav,0,poule,1049,66,5,4,e,m,6,0.6,66.9812192,0.63862909
5c8ee6c36ca70b0001fe979d,60,1,2024-02-28T15:05:48.568Z,french_550.wav,0,poule,1049,66,5,4,e,m,7,0.7,-75.38343533,1.07196046
5c8ee6c36ca70b0001fe979d,60,1,2024-02-28T15:05:48.568Z,french_550.wav,0,poule,1049,66,5,4,e,m,8,0.8,5.7329485,1.84433576
5c8ee6c36ca70b0001fe979d,60,1,2024-02-28T15:05:48.568Z,french_550.wav,0,poule,1049,66,5,4,e,m,9,0.9,58.05585557,0.95400442
5c8ee6c36ca70b0001fe979d,60,1,2024-02-28T15:05:48.568Z,french_550.wav,0,poule,1049,66,5,4,e,m,10,1.0,-3.33377945,0.19158544
5c8ee6c36ca70b0001fe979d,60,1,2024-02-28T15:05:48.568Z,french_550.wav,0,poule,1049,66,5,4,e,m,11,1.1,-43.74893274,1.26583767
5c8ee6c36ca70b0001fe979d,60,1,2024-02-28T15:05:48.568Z,french_550.wav,0,poule,1049,66,5,4,e,m,12,1.14141667,-86.42154795,0.99784974
5c8ee6c36ca70b0001fe979d,61,1,2024-02-28T15:05:48.568Z,french_7.wav,0,pull,1589,66,5,4,e,m,0,0.0,17.30709494,0.40724151
5c8ee6c36ca70b0001fe979d,61,1,2024-02-28T15:05:48.568Z,french_7.wav,0,pull,1589,66,5,4,e,m,1,0.1,-63.94658261,1.34555896
5c8ee6c36ca70b0001fe979d,61,1,2024-02-28T15:05:48.568Z,french_7.wav,0,pull,1589,66,5,4,e,m,2,0.2,67.53719725,1.64185408
5c8ee6c36ca70b0001fe979d,61,1,2024-02-28T15:05:48.568Z,french_7.wav,0,pull,1589,66,5,4,e,m,3,0.3,63.15001228,1.66374523
5c8ee6c36ca70b0001fe979d,61,1,2024-02-28T15:05:48.568Z,french_7.wav,0,pull,1589,66,5,4,e,m,4,0.4,-14.43015731,0.37650843
5c8ee6c36ca70b0001fe979d,61,1,2024-02-28T15:05:48.568Z,french_7.wav,0,pull,1589,66,5,4,e,m,5,0.5,44.13924234,0.14892944
5c8ee6c36ca70b0001fe979d,61,1,2024-02-28T15:05:48.568Z,french_7.wav,0,pull,1589,66,5,4,e,m,6,0.6,-87.5939518,1.49586542
5c8ee6c36ca70b0001fe979d,61,1,2024-02-28T15:05:48.568Z,french_7.wav,0,pull,1589,66,5,4,e,m,7,0.7,-21.88923859,1.13659751
5c8ee6c36ca70b0001fe979d,61,1,2024-02-28T15:05:48.568Z,french_7.wav,0,pull,1589,66,5,4,e,m,8,0.8,-75.22079211,1.64492365
5c8ee6c36ca70b0001fe979d,61,1,2024-02-28T15:05:48.568Z,french_7.wav,0,pull,1589,66,5,4,e,m,9,0.9,-44.33295618,1.22066873
5c8ee6c36ca70b0001fe979d,61,1,2024-02-28T15:05:48.568Z,french_7.wav,0,pull,1589,66,5,4,e,m,10,1.0,-82.62011516,1.13133422
5c8ee6c36ca70b0001fe979d,61,1,2024-02-28T15:05:48.568Z,french_7.wav,0,pull,1589,66,5,4,e,m,11,1.1,-28.3543826,0.5437483
5c8ee6c36ca70b0001fe979d,61,1,2024-02-28T15:05:48.568Z,french_7.wav,0,pull,1589,66,5,4,e,m,12,1.14141667,39.13782865,1.32903079
5c8ee6c36ca70b0001fe979d,62,1,2024-02-28T15:05:48.568Z,french_895.wav,0,poule,850,66,5,4,e,m,0,0.0,-82.61317698,0.72926476
5c8ee6c36ca70b0001fe979d,62,1,2024-02-28T15:05:48.568Z,french_895.wav,0,poule,850,66,5,4,e,m,1,0.1,61.08514813,0.45997711
5c8ee6c36ca70b0001fe979d,62,1,2024-02-28T15:05:48.568Z,french_895.wav,0,poule,850,66,5,4,e,m,2,0.2,81.60336348,1.06624038
5c8ee6c36ca70b0001fe979d,62,1,2024-02-28T15:05:48.568Z,french_895.wav,0,poule,850,66,5,4,e,m,3,0.3,49.30047411,0.34123055
5c8ee6c36ca70b0001fe979d,62,1,2024-02-28T15:05:48.568Z,french_895.wav,0,poule,850,66,5,4,e,m,4,0.4,20.19115982,1.31366912
5c8ee6c36ca70b0001fe979d,62,1,2024-02-28T15:05:48.568Z,french_895.wav,0,poule,850,66,5,4,e,m,5,0.5,4.84484905,1.47334476
5c8ee6c36ca70b0001fe979d,62,1,2024-02-28T15:05:48.568Z,french_895.wav,0,poule,850,66,5,4,e,m,6,0.6,-6.33725134,0.20442325
5c8ee6c36ca70b0001fe979d,62,1,2024-02-28T15:05:48.568Z,french_895.wav,0,poule,850,66,5,4,e,m,7,0.7,-50.52881352,0.26254822
