subj,trial,block,date,stim,stim_order,response,rt,age,english,french,language,sex,param_index,segment,pitch,stretch
600235988c6b062314984ac0,0,0,2024-02-28T15:07:45.574Z,french_672.wav,0,poule,458,30,5,4,ENGLISH,M,0,0.0,-13.52735411,0.54145116
600235988c6b062314984ac0,0,0,2024-02-28T15:07:45.574Z,french_672.wav,0,poule,458,30,5,4,ENGLISH,M,1,0.1,-59.96134508,1.25870061
600235988c6b062314984ac0,0,0,2024-02-28T15:07:45.574Z,french_672.wav,0,poule,458,30,5,4,ENGLISH,M,2,0.2,-7.33992186,0.81866039
600235988c6b062314984ac0,0,0,2024-02-28T15:07:45.574Z,french_672.wav,0,poule,458,30,5,4,ENGLISH,M,3,0.3,21.63942854,1.39452004
600235988c6b062314984ac0,0,0,2024-02-28T15:07:45.574Z,french_672.wav,0,poule,458,30,5,4,ENGLISH,M,4,0.4,5.10103928,1.0769607
600235988c6b062314984ac0,0,0,2024-02-28T15:07:45.574Z,french_672.wav,0,poule,458,30,5,4,ENGLISH,M,5,0.5,-48.7358571,0.77470724
600235988c6b062314984ac0,0,0,2024-02-28T15:07:45.574Z,french_672.wav,0,poule,458,30,5,4,ENGLISH,M,6,0.6,81.11443851,0.81807513
600235988c6b062314984ac0,0,0,2024-02-28T15:07:45.574Z,french_672.wav,0,poule,458,30,5,4,ENGLISH,M,7,0.7,33.12369615,0.78329539
600235988c6b062314984ac0,0,0,2024-02-28T15:07:45.574Z,french_672.wav,0,poule,458,30,5,4,ENGLISH,M,8,0.8,3.43276833,0.23496053
600235988c6b062314984ac0,0,0,2024-02-28T15:07:45.574Z,french_672.wav,0,poule,458,30,5,4,ENGLISH,M,9,0.9,-39.94820872,0.10186009
600235988c6b062314984ac0,0,0,2024-02-28T15:07:45.574Z,french_672.wav,0,poule,458,30,5,4,ENGLISH,M,10,1.0,74.47431305,0.92703632
600235988c6b062314984ac0,0,0,2024-02-28T15:07:45.574Z,french_672.wav,0,poule,458,30,5,4,ENGLISH,M,11,1.1,21.91430586,1.77981995
600235988c6b062314984ac0,0,0,2024-02-28T15:07:45.574Z,french_672.wav,0,poule,458,30,5,4,ENGLISH,M,12,1.14141667,-6.84202398,0.93084115
600235988c6b062314984ac0,1,0,2024-02-28T15:07:45.574Z,french_228.wav,0,pull,306,30,5,4,ENGLISH,M,0,0.0,-68.55425801,1.32878562
600235988c6b062314984ac0,1,0,2024-02-28T15:07:45.574Z,french_228.wav,0,pull,306,30,5,4,ENGLISH,M,1,0.1,-12.659075,0.71563941
600235988c6b062314984ac0,1,0,2024-02-28T15:07:45.574Z,french_228.wav,0,pull,306,30,5,4,ENGLISH,M,2,0.2,46.11717447,1.86195608
600235988c6b062314984ac0,1,0,2024-02-28T15:07:45.574Z,french_228.wav,0,pull,306,30,5,4,ENGLISH,M,3,0.3,-3.32601783,1.5457402
600235988c6b062314984ac0,1,0,2024-02-28T15:07:45.574Z,french_228.wav,0,pull,306,30,5,4,ENGLISH,M,4,0.4,37.19546204,1.42420373
600235988c6b062314984ac0,1,0,2024-02-28T15:07:45.574Z,french_228.wav,0,pull,306,30,5,4,ENGLISH,M,5,0.5,18.15940432,1.40142186
600235988c6b062314984ac0,1,0,2024-02-28T15:07:45.574Z,french_228.wav,0,pull,306,30,5,4,ENGLISH,M,6,0.6,-38.00714293,0.56168045
600235988c6b062314984ac0,1,0,2024-02-28T15:07:45.574Z,french_228.wav,0,pull,306,30,5,4,ENGLISH,M,7,0.7,-79.44898634,1.15931683
600235988c6b062314984ac0,1,0,2024-02-28T15:07:45.574Z,french_228.wav,0,pull,306,30,5,4,ENGLISH,M,8,0.8,-89.52725335,0.78633348
600235988c6b062314984ac0,1,0,2024-02-28T15:07:45.574Z,french_228.wav,0,pull,306,30,5,4,ENGLISH,M,9,0.9,20.61907431,0.54003465
600235988c6b062314984ac0,1,0,2024-02-28T15:07:45.574Z,french_228.wav,0,pull,306,30,5,4,ENGLISH,M,10,1.0,17.51827588,1.09725578
600235988c6b062314984ac0,1,0,2024-02-28T15:07:45.574Z,french_228.wav,0,pull,306,30,5,4,ENGLISH,M,11,1.1,-0.11031039,1.17739203
600235988c6b062314984ac0,1,0,2024-02-28T15:07:45.574Z,french_228.wav,0,pull,306,30,5,4,ENGLISH,M,12,1.14141667,-67.85277231,1.00093445
600235988c6b062314984ac0,2,0,2024-02-28T15:07:45.574Z,french_965.wav,0,poule,381,30,5,4,ENGLISH,M,0,0.0,-48.58162181,0.70059107
600235988c6b062314984ac0,2,0,2024-02-28T15:07:45.574Z,french_965.wav,0,poule,381,30,5,4,ENGLISH,M,1,0.1,47.6871057,1.78470564
600235988c6b062314984ac0,2,0,2024-02-28T15:07:45.574Z,french_965.wav,0,poule,381,30,5,4,ENGLISH,M,2,0.2,23.95676838,0.47543709
600235988c6b062314984ac0,2,0,2024-02-28T15:07:45.574Z,french_965.wav,0,poule,381,30,5,4,ENGLISH,M,3,0.3,-24.73791069,1.78680006
600235988c6b062314984ac0,2,0,2024-02-28T15:07:45.574Z,french_965.wav,0,poule,381,30,5,4,ENGLISH,M,4,0.4,88.65790889,0.5678587
600235988c6b062314984ac0,2,0,2024-02-28T15:07:45.574Z,french_965.wav,0,poule,381,30,5,4,ENGLISH,M,5,0.5,-99.17119216,1.43378545
600235988c6b062314984ac0,2,0,2024-02-28T15:07:45.574Z,french_965.wav,0,poule,381,30,5,4,ENGLISH,M,6,0.6,34.90627437,0.13629267
600235988c6b062314984ac0,2,0,2024-02-28T15:07:45.574Z,french_965.wav,0,poule,381,30,5,4,ENGLISH,M,7,0.7,25.78663671,0.97611612
600235988c6b062314984ac0,2,0,2024-02-28T15:07:45.574Z,french_965.wav,0,poule,381,30,5,4,ENGLISH,M,8,0.8,29.63617464,0.2968179
600235988c6b062314984ac0,2,0,2024-02-28T15:07:45.574Z,french_965.wav,0,poule,381,30,5,4,ENGLISH,M,9,0.9,78.54761734,1.84395649
600235988c6b062314984ac0,2,0,2024-02-28T15:07:45.574Z,french_965.wav,0,poule,381,30,5,4,ENGLISH,M,10,1.0,89.6715392,0.06154245
600235988c6b062314984ac0,2,0,2024-02-28T15:07:45.574Z,french_965.wav,0,poule,381,30,5,4,ENGLISH,M,11,1.1,52.66680317,0.24306075
600235988c6b062314984ac0,2,0,2024-02-28T15:07:45.574Z,french_965.wav,0,poule,381,30,5,4,ENGLISH,M,12,1.14141667,-91.61447482,0.32609014
600235988c6b062314984ac0,3,0,2024-02-28T15:07:45.574Z,french_694.wav,0,pull,296,30,5,4,ENGLISH,M,0,0.0,38.99787115,0.20721435
600235988c6b062314984ac0,3,0,2024-02-28T15:07:45.574Z,french_694.wav,0,pull,296,30,5,4,ENGLISH,M,1,0.1,0.3424969,1.58395988
600235988c6b062314984ac0,3,0,2024-02-28T15:07:45.574Z,french_694.wav,0,pull,296,30,5,4,ENGLISH,M,2,0.2,91.92611382,1.87076578
600235988c6b062314984ac0,3,0,2024-02-28T15:07:45.574Z,french_694.wav,0,pull,296,30,5,4,ENGLISH,M,3,0.3,-46.15983558,0.36792232
600235988c6b062314984ac0,3,0,2024-02-28T15:07:45.574Z,french_694.wav,0,pull,296,30,5,4,ENGLISH,M,4,0.4,9.95779273,1.45579825
600235988c6b062314984ac0,3,0,2024-02-28T15:07:45.574Z,french_694.wav,0,pull,296,30,5,4,ENGLISH,M,5,0.5,-28.14886833,1.07541558
600235988c6b062314984ac0,3,0,2024-02-28T15:07:45.574Z,french_694.wav,0,pull,296,30,5,4,ENGLISH,M,6,0.6,-10.24338438,0.68903895
600235988c6b062314984ac0,3,0,2024-02-28T15:07:45.574Z,french_694.wav,0,pull,296,30,5,4,ENGLISH,M,7,0.7,82.44156255,1.47560962
600235988c6b062314984ac0,3,0,2024-02-28T15:07:45.574Z,french_694.wav,0,pull,296,30,5,4,ENGLISH,M,8,0.8,3.18416094,0.17467993
600235988c6b062314984ac0,3,0,2024-02-28T15:07:45.574Z,french_694.wav,0,pull,296,30,5,4,ENGLISH,M,9,0.9,-12.03680223,1.91027527
600235988c6b062314984ac0,3,0,2024-02-28T15:07:45.574Z,french_694.wav,0,pull,296,30,5,4,ENGLISH,M,10,1.0,-74.38114488,1.86009042
600235988c6b062314984ac0,3,0,2024-02-28T15:07:45.574Z,french_694.wav,0,pull,296,30,5,4,ENGLISH,M,11,1.1,28.9144884,1.13498103
600235988c6b062314984ac0,3,0,2024-02-28T15:07:45.574Z,french_694.wav,0,pull,296,30,5,4,ENGLISH,M,12,1.14141667,3.07264382,1.77706901
600235988c6b062314984ac0,4,0,2024-02-28T15:07:45.574Z,french_442.wav,0,pull,420,30,5,4,ENGLISH,M,0,0.0,59.89348182,1.93338354
600235988c6b062314984ac0,4,0,2024-02-28T15:07:45.574Z,french_442.wav,0,pull,420,30,5,4,ENGLISH,M,1,0.1,-90.19745983,0.1221368
600235988c6b062314984ac0,4,0,2024-02-28T15:07:45.574Z,french_442.wav,0,pull,420,30,5,4,ENGLISH,M,2,0.2,34.97525188,1.40375233
600235988c6b062314984ac0,4,0,2024-02-28T15:07:45.574Z,french_442.wav,0,pull,420,30,5,4,ENGLISH,M,3,0.3,-60.10498495,0.23715052
600235988c6b062314984ac0,4,0,2024-02-28T15:07:45.574Z,french_442.wav,0,pull,420,30,5,4,ENGLISH,M,4,0.4,-52.20535883,0.86935067
600235988c6b062314984ac0,4,0,2024-02-28T15:07:45.574Z,french_442.wav,0,pull,420,30,5,4,ENGLISH,M,5,0.5,33.32923329,1.40007492
600235988c6b062314984ac0,4,0,2024-02-28T15:07:45.574Z,french_442.wav,0,pull,420,30,5,4,ENGLISH,M,6,0.6,-72.02089693,1.87875592
600235988c6b062314984ac0,4,0,2024-02-28T15:07:45.574Z,french_442.wav,0,pull,420,30,5,4,ENGLISH,M,7,0.7,15.91732192,1.15703728
600235988c6b062314984ac0,4,0,2024-02-28T15:07:45.574Z,french_442.wav,0,pull,420,30,5,4,ENGLISH,M,8,0.8,49.50947125,1.45583236
600235988c6b062314984ac0,4,0,2024-02-28T15:07:45.574Z,french_442.wav,0,pull,420,30,5,4,ENGLISH,M,9,0.9,-96.72595223,0.52053121
600235988c6b062314984ac0,4,0,2024-02-28T15:07:45.574Z,french_442.wav,0,pull,420,30,5,4,ENGLISH,M,10,1.0,12.6942829,0.18849311
600235988c6b062314984ac0,4,0,2024-02-28T15:07:45.574Z,french_442.wav,0,pull,420,30,5,4,ENGLISH,M,11,1.1,-57.11899111,1.67578542
600235988c6b062314984ac0,4,0,2024-02-28T15:07:45.574Z,french_442.wav,0,pull,420,30,5,4,ENGLISH,M,12,1.14141667,36.89213251,0.36635536
600235988c6b062314984ac0,5,0,2024-02-28T15:07:45.574Z,french_597.wav,0,poule,404,30,5,4,ENGLISH,M,0,0.0,3.81117618,0.64425147
600235988c6b062314984ac0,5,0,2024-02-28T15:07:45.574Z,french_597.wav,0,poule,404,30,5,4,ENGLISH,M,1,0.1,1.65290583,1.80851034
600235988c6b062314984ac0,5,0,2024-02-28T15:07:45.574Z,french_597.wav,0,poule,404,30,5,4,ENGLISH,M,2,0.2,75.20334273,0.13064714
600235988c6b062314984ac0,5,0,2024-02-28T15:07:45.574Z,french_597.wav,0,poule,404,30,5,4,ENGLISH,M,3,0.3,-31.80520796,1.14595158
600235988c6b062314984ac0,5,0,2024-02-28T15:07:45.574Z,french_597.wav,0,poule,404,30,5,4,ENGLISH,M,4,0.4,47.06388339,1.20714689
600235988c6b062314984ac0,5,0,2024-02-28T15:07:45.574Z,french_597.wav,0,poule,404,30,5,4,ENGLISH,M,5,0.5,-12.18502222,1.21300166
600235988c6b062314984ac0,5,0,2024-02-28T15:07:45.574Z,french_597.wav,0,poule,404,30,5,4,ENGLISH,M,6,0.6,16.00653048,1.59786204
600235988c6b062314984ac0,5,0,2024-02-28T15:07:45.574Z,french_597.wav,0,poule,404,30,5,4,ENGLISH,M,7,0.7,-1.06509013,1.5777009
600235988c6b062314984ac0,5,0,2024-02-28T15:07:45.574Z,french_597.wav,0,poule,404,30,5,4,ENGLISH,M,8,0.8,-88.67460342,1.85046757
600235988c6b062314984ac0,5,0,2024-02-28T15:07:45.574Z,french_597.wav,0,poule,404,30,5,4,ENGLISH,M,9,0.9,79.23096379,0.15850725
600235988c6b062314984ac0,5,0,2024-02-28T15:07:45.574Z,french_597.wav,0,poule,404,30,5,4,ENGLISH,M,10,1.0,-37.6385831,0.67581982
600235988c6b062314984ac0,5,0,2024-02-28T15:07:45.574Z,french_597.wav,0,poule,404,30,5,4,ENGLISH,M,11,1.1,-82.3453721,0.97379481
600235988c6b062314984ac0,5,0,2024-02-28T15:07:45.574Z,french_597.wav,0,poule,404,30,5,4,ENGLISH,M,12,1.14141667,50.39965119,1.28226838
600235988c6b062314984ac0,6,0,2024-02-28T15:07:45.574Z,french_437.wav,0,poule,2809,30,5,4,ENGLISH,M,0,0.0,41.80320752,0.30954333
600235988c6b062314984ac0,6,0,2024-02-28T15:07:45.574Z,french_437.wav,0,poule,2809,30,5,4,ENGLISH,M,1,0.1,-33.81764788,1.22203572
600235988c6b062314984ac0,6,0,2024-02-28T15:07:45.574Z,french_437.wav,0,poule,2809,30,5,4,ENGLISH,M,2,0.2,25.70425251,0.04102161
600235988c6b062314984ac0,6,0,2024-02-28T15:07:45.574Z,french_437.wav,0,poule,2809,30,5,4,ENGLISH,M,3,0.3,56.97339003,1.19854703
600235988c6b062314984ac0,6,0,2024-02-28T15:07:45.574Z,french_437.wav,0,poule,2809,30,5,4,ENGLISH,M,4,0.4,46.8397409,0.8213725
600235988c6b062314984ac0,6,0,2024-02-28T15:07:45.574Z,french_437.wav,0,poule,2809,30,5,4,ENGLISH,M,5,0.5,38.78616497,0.20494593
600235988c6b062314984ac0,6,0,2024-02-28T15:07:45.574Z,french_437.wav,0,poule,2809,30,5,4,ENGLISH,M,6,0.6,-89.22878547,1.63754544
600235988c6b062314984ac0,6,0,2024-02-28T15:07:45.574Z,french_437.wav,0,poule,2809,30,5,4,ENGLISH,M,7,0.7,80.78163583,1.22886157
600235988c6b062314984ac0,6,0,2024-02-28T15:07:45.574Z,french_437.wav,0,poule,2809,30,5,4,ENGLISH,M,8,0.8,84.46215373,0.788043
600235988c6b062314984ac0,6,0,2024-02-28T15:07:45.574Z,french_437.wav,0,poule,2809,30,5,4,ENGLISH,M,9,0.9,17.21068764,1.05494363
600235988c6b062314984ac0,6,0,2024-02-28T15:07:45.574Z,french_437.wav,0,poule,2809,30,5,4,ENGLISH,M,10,1.0,16.06336223,0.71360389
600235988c6b062314984ac0,6,0,2024-02-28T15:07:45.574Z,french_437.wav,0,poule,2809,30,5,4,ENGLISH,M,11,1.1,-52.17850038,1.83653188
600235988c6b062314984ac0,6,0,2024-02-28T15:07:45.574Z,french_437.wav,0,poule,2809,30,5,4,ENGLISH,M,12,1.14141667,-51.05005354,0.63741841
600235988c6b062314984ac0,7,0,2024-02-28T15:07:45.574Z,french_290.wav,0,poule,248,30,5,4,ENGLISH,M,0,0.0,51.79529481,1.3540835
600235988c6b062314984ac0,7,0,2024-02-28T15:07:45.574Z,french_290.wav,0,poule,248,30,5,4,ENGLISH,M,1,0.1,-44.96208288,1.67127724
600235988c6b062314984ac0,7,0,2024-02-28T15:07:45.574Z,french_290.wav,0,poule,248,30,5,4,ENGLISH,M,2,0.2,-8.40336913,1.47048536
600235988c6b062314984ac0,7,0,2024-02-28T15:07:45.574Z,french_290.wav,0,poule,248,30,5,4,ENGLISH,M,3,0.3,-33.79266006,1.6703547
600235988c6b062314984ac0,7,0,2024-02-28T15:07:45.574Z,french_290.wav,0,poule,248,30,5,4,ENGLISH,M,4,0.4,-16.62160995,1.62049275
600235988c6b062314984ac0,7,0,2024-02-28T15:07:45.574Z,french_290.wav,0,poule,248,30,5,4,ENGLISH,M,5,0.5,-47.44959741,1.23154079
600235988c6b062314984ac0,7,0,2024-02-28T15:07:45.574Z,french_290.wav,0,poule,248,30,5,4,ENGLISH,M,6,0.6,35.7383964,0.29540954
600235988c6b062314984ac0,7,0,2024-02-28T15:07:45.574Z,french_290.wav,0,poule,248,30,5,4,ENGLISH,M,7,0.7,75.70793439,1.03665221
600235988c6b062314984ac0,7,0,2024-02-28T15:07:45.574Z,french_290.wav,0,poule,248,30,5,4,ENGLISH,M,8,0.8,-73.28364488,0.51418573
600235988c6b062314984ac0,7,0,2024-02-28T15:07:45.574Z,french_290.wav,0,poule,248,30,5,4,ENGLISH,M,9,0.9,86.89485551,0.34642395
600235988c6b062314984ac0,7,0,2024-02-28T15:07:45.574Z,french_290.wav,0,poule,248,30,5,4,ENGLISH,M,10,1.0,-78.42663164,1.30745758
600235988c6b062314984ac0,7,0,2024-02-28T15:07:45.574Z,french_290.wav,0,poule,248,30,5,4,ENGLISH,M,11,1.1,-66.68243358,0.53814921
600235988c6b062314984ac0,7,0,2024-02-28T15:07:45.574Z,french_290.wav,0,poule,248,30,5,4,ENGLISH,M,12,1.14141667,-12.30663823,0.82648066
600235988c6b062314984ac0,8,0,2024-02-28T15:07:45.574Z,french_709.wav,0,poule,474,30,5,4,ENGLISH,M,0,0.0,-53.16296067,1.12002918
600235988c6b062314984ac0,8,0,2024-02-28T15:07:45.574Z,french_709.wav,0,poule,474,30,5,4,ENGLISH,M,1,0.1,59.94788803,1.08131943
600235988c6b062314984ac0,8,0,2024-02-28T15:07:45.574Z,french_709.wav,0,poule,474,30,5,4,ENGLISH,M,2,0.2,35.87727167,0.76631976
600235988c6b062314984ac0,8,0,2024-02-28T15:07:45.574Z,french_709.wav,0,poule,474,30,5,4,ENGLISH,M,3,0.3,-20.5364381,1.69776784
600235988c6b062314984ac0,8,0,2024-02-28T15:07:45.574Z,french_709.wav,0,poule,474,30,5,4,ENGLISH,M,4,0.4,34.04594206,0.74557561
600235988c6b062314984ac0,8,0,2024-02-28T15:07:45.574Z,french_709.wav,0,poule,474,30,5,4,ENGLISH,M,5,0.5,-79.51255741,1.35674371
600235988c6b062314984ac0,8,0,2024-02-28T15:07:45.574Z,french_709.wav,0,poule,474,30,5,4,ENGLISH,M,6,0.6,22.56358256,1.43825325
600235988c6b062314984ac0,8,0,2024-02-28T15:07:45.574Z,french_709.wav,0,poule,474,30,5,4,ENGLISH,M,7,0.7,-37.88762672,1.0289102
600235988c6b062314984ac0,8,0,2024-02-28T15:07:45.574Z,french_709.wav,0,poule,474,30,5,4,ENGLISH,M,8,0.8,-41.8377988,1.05848076
600235988c6b062314984ac0,8,0,2024-02-28T15:07:45.574Z,french_709.wav,0,poule,474,30,5,4,ENGLISH,M,9,0.9,-60.56478502,0.41244704
600235988c6b062314984ac0,8,0,2024-02-28T15:07:45.574Z,french_709.wav,0,poule,474,30,5,4,ENGLISH,M,10,1.0,-85.9910607,0.82703914
600235988c6b062314984ac0,8,0,2024-02-28T15:07:45.574Z,french_709.wav,0,poule,474,30,5,4,ENGLISH,M,11,1.1,-8.25451984,1.84061657
600235988c6b062314984ac0,8,0,2024-02-28T15:07:45.574Z,french_709.wav,0,poule,474,30,5,4,ENGLISH,M,12,1.14141667,-19.34673642,0.86940642
600235988c6b062314984ac0,9,0,2024-02-28T15:07:45.574Z,french_237.wav,0,pull,545,30,5,4,ENGLISH,M,0,0.0,31.70987786,1.31590513
600235988c6b062314984ac0,9,0,2024-02-28T15:07:45.574Z,french_237.wav,0,pull,545,30,5,4,ENGLISH,M,1,0.1,44.65820907,0.84112054
600235988c6b062314984ac0,9,0,2024-02-28T15:07:45.574Z,french_237.wav,0,pull,545,30,5,4,ENGLISH,M,2,0.2,13.3186434,0.69527524
600235988c6b062314984ac0,9,0,2024-02-28T15:07:45.574Z,french_237.wav,0,pull,545,30,5,4,ENGLISH,M,3,0.3,66.1783484,1.26135679
600235988c6b062314984ac0,9,0,2024-02-28T15:07:45.574Z,french_237.wav,0,pull,545,30,5,4,ENGLISH,M,4,0.4,9.82166226,1.98640285
600235988c6b062314984ac0,9,0,2024-02-28T15:07:45.574Z,french_237.wav,0,pull,545,30,5,4,ENGLISH,M,5,0.5,-28.83229096,0.12218975
600235988c6b062314984ac0,9,0,2024-02-28T15:07:45.574Z,french_237.wav,0,pull,545,30,5,4,ENGLISH,M,6,0.6,76.24548925,0.73409952
600235988c6b062314984ac0,9,0,2024-02-28T15:07:45.574Z,french_237.wav,0,pull,545,30,5,4,ENGLISH,M,7,0.7,34.63949689,1.11406015
600235988c6b062314984ac0,9,0,2024-02-28T15:07:45.574Z,french_237.wav,0,pull,545,30,5,4,ENGLISH,M,8,0.8,-48.33331205,1.16947058
600235988c6b062314984ac0,9,0,2024-02-28T15:07:45.574Z,french_237.wav,0,pull,545,30,5,4,ENGLISH,M,9,0.9,50.34000449,0.6556194
600235988c6b062314984ac0,9,0,2024-02-28T15:07:45.574Z,french_237.wav,0,pull,545,30,5,4,ENGLISH,M,10,1.0,49.76225002,1.40941557
600235988c6b062314984ac0,9,0,2024-02-28T15:07:45.574Z,french_237.wav,0,pull,545,30,5,4,ENGLISH,M,11,1.1,67.38211301,0.44515823
600235988c6b062314984ac0,9,0,2024-02-28T15:07:45.574Z,french_237.wav,0,pull,545,30,5,4,ENGLISH,M,12,1.14141667,80.88052333,0.0317855
600235988c6b062314984ac0,10,0,2024-02-28T15:07:45.574Z,french_70.wav,0,poule,89,30,5,4,ENGLISH,M,0,0.0,68.41479291,0.92661768
600235988c6b062314984ac0,10,0,2024-02-28T15:07:45.574Z,french_70.wav,0,poule,89,30,5,4,ENGLISH,M,1,0.1,-31.57074258,1.34654012
600235988c6b062314984ac0,10,0,2024-02-28T15:07:45.574Z,french_70.wav,0,poule,89,30,5,4,ENGLISH,M,2,0.2,54.18509107,1.48916953
600235988c6b062314984ac0,10,0,2024-02-28T15:07:45.574Z,french_70.wav,0,poule,89,30,5,4,ENGLISH,M,3,0.3,-27.61159617,1.1176716
600235988c6b062314984ac0,10,0,2024-02-28T15:07:45.574Z,french_70.wav,0,poule,89,30,5,4,ENGLISH,M,4,0.4,9.88541267,0.7045852
600235988c6b062314984ac0,10,0,2024-02-28T15:07:45.574Z,french_70.wav,0,poule,89,30,5,4,ENGLISH,M,5,0.5,-66.17038178,1.36995745
600235988c6b062314984ac0,10,0,2024-02-28T15:07:45.574Z,french_70.wav,0,poule,89,30,5,4,ENGLISH,M,6,0.6,16.79110143,1.75041761
600235988c6b062314984ac0,10,0,2024-02-28T15:07:45.574Z,french_70.wav,0,poule,89,30,5,4,ENGLISH,M,7,0.7,-71.29172846,1.65540967
600235988c6b062314984ac0,10,0,2024-02-28T15:07:45.574Z,french_70.wav,0,poule,89,30,5,4,ENGLISH,M,8,0.8,-78.6433042,0.08362863
600235988c6b062314984ac0,10,0,2024-02-28T15:07:45.574Z,french_70.wav,0,poule,89,30,5,4,ENGLISH,M,9,0.9,65.673143,1.74250385
600235988c6b062314984ac0,10,0,2024-02-28T15:07:45.574Z,french_70.wav,0,poule,89,30,5,4,ENGLISH,M,10,1.0,-39.65305515,1.28772167
600235988c6b062314984ac0,10,0,2024-02-28T15:07:45.574Z,french_70.wav,0,poule,89,30,5,4,ENGLISH,M,11,1.1,60.42476441,1.44177421
600235988c6b062314984ac0,10,0,2024-02-28T15:07:45.574Z,french_70.wav,0,poule,89,30,5,4,ENGLISH,M,12,1.14141667,30.88064967,0.77305231
600235988c6b062314984ac0,11,0,2024-02-28T15:07:45.574Z,french_781.wav,0,pull,159,30,5,4,ENGLISH,M,0,0.0,84.62046586,1.11387354
600235988c6b062314984ac0,11,0,2024-02-28T15:07:45.574Z,french_781.wav,0,pull,159,30,5,4,ENGLISH,M,1,0.1,0.55273741,0.65813446
600235988c6b062314984ac0,11,0,2024-02-28T15:07:45.574Z,french_781.wav,0,pull,159,30,5,4,ENGLISH,M,2,0.2,-1.05016656,0.73416939
600235988c6b062314984ac0,11,0,2024-02-28T15:07:45.574Z,french_781.wav,0,pull,159,30,5,4,ENGLISH,M,3,0.3,41.05059325,1.64191047
600235988c6b062314984ac0,11,0,2024-02-28T15:07:45.574Z,french_781.wav,0,pull,159,30,5,4,ENGLISH,M,4,0.4,-23.88970434,1.21743715
600235988c6b062314984ac0,11,0,2024-02-28T15:07:45.574Z,french_781.wav,0,pull,159,30,5,4,ENGLISH,M,5,0.5,18.20030305,1.19011626
600235988c6b062314984ac0,11,0,2024-02-28T15:07:45.574Z,french_781.wav,0,pull,159,30,5,4,ENGLISH,M,6,0.6,-34.06427069,0.19715844
600235988c6b062314984ac0,11,0,2024-02-28T15:07:45.574Z,french_781.wav,0,pull,159,30,5,4,ENGLISH,M,7,0.7,84.18138225,0.47727482
600235988c6b062314984ac0,11,0,2024-02-28T15:07:45.574Z,french_781.wav,0,pull,159,30,5,4,ENGLISH,M,8,0.8,-97.87646304,0.30669802
600235988c6b062314984ac0,11,0,2024-02-28T15:07:45.574Z,french_781.wav,0,pull,159,30,5,4,ENGLISH,M,9,0.9,-21.72004178,0.85053209
600235988c6b062314984ac0,11,0,2024-02-28T15:07:45.574Z,french_781.wav,0,pull,159,30,5,4,ENGLISH,M,10,1.0,-28.69608989,1.49973626
600235988c6b062314984ac0,11,0,2024-02-28T15:07:45.574Z,french_781.wav,0,pull,159,30,5,4,ENGLISH,M,11,1.1,15.6289629,1.59744838
600235988c6b062314984ac0,11,0,2024-02-28T15:07:45.574Z,french_781.wav,0,pull,159,30,5,4,ENGLISH,M,12,1.14141667,-63.05770327,1.01279781
600235988c6b062314984ac0,12,0,2024-02-28T15:07:45.574Z,french_787.wav,0,poule,271,30,5,4,ENGLISH,M,0,0.0,79.17712948,0.1163321
600235988c6b062314984ac0,12,0,2024-02-28T15:07:45.574Z,french_787.wav,0,poule,271,30,5,4,ENGLISH,M,1,0.1,-73.07775463,1.90835001
600235988c6b062314984ac0,12,0,2024-02-28T15:07:45.574Z,french_787.wav,0,poule,271,30,5,4,ENGLISH,M,2,0.2,-37.59236331,1.9055926
600235988c6b062314984ac0,12,0,2024-02-28T15:07:45.574Z,french_787.wav,0,poule,271,30,5,4,ENGLISH,M,3,0.3,-95.60780002,1.66008027
600235988c6b062314984ac0,12,0,2024-02-28T15:07:45.574Z,french_787.wav,0,poule,271,30,5,4,ENGLISH,M,4,0.4,-67.52212669,0.73855665
600235988c6b062314984ac0,12,0,2024-02-28T15:07:45.574Z,french_787.wav,0,poule,271,30,5,4,ENGLISH,M,5,0.5,-72.3853784,0.63713084
600235988c6b062314984ac0,12,0,2024-02-28T15:07:45.574Z,french_787.wav,0,poule,271,30,5,4,ENGLISH,M,6,0.6,55.41129583,1.4880735
600235988c6b062314984ac0,12,0,2024-02-28T15:07:45.574Z,french_787.wav,0,poule,271,30,5,4,ENGLISH,M,7,0.7,-20.28029725,0.64813036
600235988c6b062314984ac0,12,0,2024-02-28T15:07:45.574Z,french_787.wav,0,poule,271,30,5,4,ENGLISH,M,8,0.8,-85.08323843,1.12873134
600235988c6b062314984ac0,12,0,2024-02-28T15:07:45.574Z,french_787.wav,0,poule,271,30,5,4,ENGLISH,M,9,0.9,93.86210994,1.32091412
600235988c6b062314984ac0,12,0,2024-02-28T15:07:45.574Z,french_787.wav,0,poule,271,30,5,4,ENGLISH,M,10,1.0,-64.51549876,0.48515729
600235988c6b062314984ac0,12,0,2024-02-28T15:07:45.574Z,french_787.wav,0,poule,271,30,5,4,ENGLISH,M,11,1.1,-56.22239298,0.45260231
600235988c6b062314984ac0,12,0,2024-02-28T15:07:45.574Z,french_787.wav,0,poule,271,30,5,4,ENGLISH,M,12,1.14141667,-87.31995502,0.83170694
600235988c6b062314984ac0,13,0,2024-02-28T15:07:45.574Z,french_805.wav,0,poule,624,30,5,4,ENGLISH,M,0,0.0,-44.55735502,0.30537306
600235988c6b062314984ac0,13,0,2024-02-28T15:07:45.574Z,french_805.wav,0,poule,624,30,5,4,ENGLISH,M,1,0.1,-15.81782327,0.95683225
600235988c6b062314984ac0,13,0,2024-02-28T15:07:45.574Z,french_805.wav,0,poule,624,30,5,4,ENGLISH,M,2,0.2,-60.55488751,1.47185568
600235988c6b062314984ac0,13,0,2024-02-28T15:07:45.574Z,french_805.wav,0,poule,624,30,5,4,ENGLISH,M,3,0.3,-22.03480197,0.27583044
600235988c6b062314984ac0,13,0,2024-02-28T15:07:45.574Z,french_805.wav,0,poule,624,30,5,4,ENGLISH,M,4,0.4,-82.42416276,1.40306371
600235988c6b062314984ac0,13,0,2024-02-28T15:07:45.574Z,french_805.wav,0,poule,624,30,5,4,ENGLISH,M,5,0.5,26.6793054,0.29904003
600235988c6b062314984ac0,13,0,2024-02-28T15:07:45.574Z,french_805.wav,0,poule,624,30,5,4,ENGLISH,M,6,0.6,-90.86223061,0.10571209
600235988c6b062314984ac0,13,0,2024-02-28T15:07:45.574Z,french_805.wav,0,poule,624,30,5,4,ENGLISH,M,7,0.7,-32.61383863,1.80090028
600235988c6b062314984ac0,13,0,2024-02-28T15:07:45.574Z,french_805.wav,0,poule,624,30,5,4,ENGLISH,M,8,0.8,-25.8862389,1.4046027
600235988c6b062314984ac0,13,0,2024-02-28T15:07:45.574Z,french_805.wav,0,poule,624,30,5,4,ENGLISH,M,9,0.9,-83.72221214,1.0925065
600235988c6b062314984ac0,13,0,2024-02-28T15:07:45.574Z,french_805.wav,0,poule,624,30,5,4,ENGLISH,M,10,1.0,9.78399033,0.78385676
600235988c6b062314984ac0,13,0,2024-02-28T15:07:45.574Z,french_805.wav,0,poule,624,30,5,4,ENGLISH,M,11,1.1,-75.28148503,0.24940616
600235988c6b062314984ac0,13,0,2024-02-28T15:07:45.574Z,french_805.wav,0,poule,624,30,5,4,ENGLISH,M,12,1.14141667,-45.84381211,0.58218615
600235988c6b062314984ac0,14,0,2024-02-28T15:07:45.574Z,french_214.wav,0,pull,373,30,5,4,ENGLISH,M,0,0.0,-79.72583695,1.62139429
600235988c6b062314984ac0,14,0,2024-02-28T15:07:45.574Z,french_214.wav,0,pull,373,30,5,4,ENGLISH,M,1,0.1,-68.16335949,1.4901457
600235988c6b062314984ac0,14,0,2024-02-28T15:07:45.574Z,french_214.wav,0,pull,373,30,5,4,ENGLISH,M,2,0.2,12.7031491,1.78274672
600235988c6b062314984ac0,14,0,2024-02-28T15:07:45.574Z,french_214.wav,0,pull,373,30,5,4,ENGLISH,M,3,0.3,-73.51726197,0.35151464
600235988c6b062314984ac0,14,0,2024-02-28T15:07:45.574Z,french_214.wav,0,pull,373,30,5,4,ENGLISH,M,4,0.4,14.53718817,0.87795234
600235988c6b062314984ac0,14,0,2024-02-28T15:07:45.574Z,french_214.wav,0,pull,373,30,5,4,ENGLISH,M,5,0.5,-35.7865464,1.14461815
600235988c6b062314984ac0,14,0,2024-02-28T15:07:45.574Z,french_214.wav,0,pull,373,30,5,4,ENGLISH,M,6,0.6,-20.4344568,1.91768043
600235988c6b062314984ac0,14,0,2024-02-28T15:07:45.574Z,french_214.wav,0,pull,373,30,5,4,ENGLISH,M,7,0.7,-99.35771384,0.9470318
600235988c6b062314984ac0,14,0,2024-02-28T15:07:45.574Z,french_214.wav,0,pull,373,30,5,4,ENGLISH,M,8,0.8,86.91939497,1.04643305
600235988c6b062314984ac0,14,0,2024-02-28T15:07:45.574Z,french_214.wav,0,pull,373,30,5,4,ENGLISH,M,9,0.9,-25.24426974,1.3223723
600235988c6b062314984ac0,14,0,2024-02-28T15:07:45.574Z,french_214.wav,0,pull,373,30,5,4,ENGLISH,M,10,1.0,-60.56392666,0.5907476
600235988c6b062314984ac0,14,0,2024-02-28T15:07:45.574Z,french_214.wav,0,pull,373,30,5,4,ENGLISH,M,11,1.1,64.39502353,0.28658765
600235988c6b062314984ac0,14,0,2024-02-28T15:07:45.574Z,french_214.wav,0,pull,373,30,5,4,ENGLISH,M,12,1.14141667,77.69133565,0.25263984
600235988c6b062314984ac0,15,0,2024-02-28T15:07:45.574Z,french_269.wav,0,pull,688,30,5,4,ENGLISH,M,0,0.0,-54.46681575,0.14617917
600235988c6b062314984ac0,15,0,2024-02-28T15:07:45.574Z,french_269.wav,0,pull,688,30,5,4,ENGLISH,M,1,0.1,40.48652867,1.23122751
600235988c6b062314984ac0,15,0,2024-02-28T15:07:45.574Z,french_269.wav,0,pull,688,30,5,4,ENGLISH,M,2,0.2,23.52786486,1.6621536
600235988c6b062314984ac0,15,0,2024-02-28T15:07:45.574Z,french_269.wav,0,pull,688,30,5,4,ENGLISH,M,3,0.3,-2.9574454,1.2319681
600235988c6b062314984ac0,15,0,2024-02-28T15:07:45.574Z,french_269.wav,0,pull,688,30,5,4,ENGLISH,M,4,0.4,-10.10362515,0.6831451
600235988c6b062314984ac0,15,0,2024-02-28T15:07:45.574Z,french_269.wav,0,pull,688,30,5,4,ENGLISH,M,5,0.5,-29.51615189,0.23334627
600235988c6b062314984ac0,15,0,2024-02-28T15:07:45.574Z,french_269.wav,0,pull,688,30,5,4,ENGLISH,M,6,0.6,-9.00744172,0.55635706
600235988c6b062314984ac0,15,0,2024-02-28T15:07:45.574Z,french_269.wav,0,pull,688,30,5,4,ENGLISH,M,7,0.7,20.65779738,0.94920478
600235988c6b062314984ac0,15,0,2024-02-28T15:07:45.574Z,french_269.wav,0,pull,688,30,5,4,ENGLISH,M,8,0.8,-2.21401948,0.83951845
600235988c6b062314984ac0,15,0,2024-02-28T15:07:45.574Z,french_269.wav,0,pull,688,30,5,4,ENGLISH,M,9,0.9,-19.8598657,0.61186305
600235988c6b062314984ac0,15,0,2024-02-28T15:07:45.574Z,french_269.wav,0,pull,688,30,5,4,ENGLISH,M,10,1.0,-89.62311782,0.18517136
600235988c6b062314984ac0,15,0,2024-02-28T15:07:45.574Z,french_269.wav,0,pull,688,30,5,4,ENGLISH,M,11,1.1,-1.41224571,1.59243868
600235988c6b062314984ac0,15,0,2024-02-28T15:07:45.574Z,french_269.wav,0,pull,688,30,5,4,ENGLISH,M,12,1.14141667,75.71209492,0.66484659
600235988c6b062314984ac0,16,0,2024-02-28T15:07:45.574Z,french_984.wav,0,poule,435,30,5,4,ENGLISH,M,0,0.0,-17.38025619,1.73327214
600235988c6b062314984ac0,16,0,2024-02-28T15:07:45.574Z,french_984.wav,0,poule,435,30,5,4,ENGLISH,M,1,0.1,-19.07620661,0.89289922
600235988c6b062314984ac0,16,0,2024-02-28T15:07:45.574Z,french_984.wav,0,poule,435,30,5,4,ENGLISH,M,2,0.2,86.46381691,1.96255145
600235988c6b062314984ac0,16,0,2024-02-28T15:07:45.574Z,french_984.wav,0,poule,435,30,5,4,ENGLISH,M,3,0.3,43.70120355,0.81680833
600235988c6b062314984ac0,16,0,2024-02-28T15:07:45.574Z,french_984.wav,0,poule,435,30,5,4,ENGLISH,M,4,0.4,51.14481307,0.47713757
600235988c6b062314984ac0,16,0,2024-02-28T15:07:45.574Z,french_984.wav,0,poule,435,30,5,4,ENGLISH,M,5,0.5,-82.44211059,0.6602306
600235988c6b062314984ac0,16,0,2024-02-28T15:07:45.574Z,french_984.wav,0,poule,435,30,5,4,ENGLISH,M,6,0.6,-70.79413604,0.62785035
600235988c6b062314984ac0,16,0,2024-02-28T15:07:45.574Z,french_984.wav,0,poule,435,30,5,4,ENGLISH,M,7,0.7,82.20250901,1.08845655
600235988c6b062314984ac0,16,0,2024-02-28T15:07:45.574Z,french_984.wav,0,poule,435,30,5,4,ENGLISH,M,8,0.8,32.28810594,1.84516423
600235988c6b062314984ac0,16,0,2024-02-28T15:07:45.574Z,french_984.wav,0,poule,435,30,5,4,ENGLISH,M,9,0.9,96.83082958,1.6910223
600235988c6b062314984ac0,16,0,2024-02-28T15:07:45.574Z,french_984.wav,0,poule,435,30,5,4,ENGLISH,M,10,1.0,-89.86154654,1.72477601
600235988c6b062314984ac0,16,0,2024-02-28T15:07:45.574Z,french_984.wav,0,poule,435,30,5,4,ENGLISH,M,11,1.1,76.92233823,0.65480949
600235988c6b062314984ac0,16,0,2024-02-28T15:07:45.574Z,french_984.wav,0,poule,435,30,5,4,ENGLISH,M,12,1.14141667,4.44348411,0.96028491
600235988c6b062314984ac0,17,0,2024-02-28T15:07:45.574Z,french_508.wav,0,pull,272,30,5,4,ENGLISH,M,0,0.0,-13.65692469,1.60468258
600235988c6b062314984ac0,17,0,2024-02-28T15:07:45.574Z,french_508.wav,0,pull,272,30,5,4,ENGLISH,M,1,0.1,21.05730203,1.69223853
600235988c6b062314984ac0,17,0,2024-02-28T15:07:45.574Z,french_508.wav,0,pull,272,30,5,4,ENGLISH,M,2,0.2,35.8745184,1.08425412
600235988c6b062314984ac0,17,0,2024-02-28T15:07:45.574Z,french_508.wav,0,pull,272,30,5,4,ENGLISH,M,3,0.3,73.81615415,0.4286204
600235988c6b062314984ac0,17,0,2024-02-28T15:07:45.574Z,french_508.wav,0,pull,272,30,5,4,ENGLISH,M,4,0.4,-21.27973143,0.66323635
600235988c6b062314984ac0,17,0,2024-02-28T15:07:45.574Z,french_508.wav,0,pull,272,30,5,4,ENGLISH,M,5,0.5,-82.89160494,0.73375376
600235988c6b062314984ac0,17,0,2024-02-28T15:07:45.574Z,french_508.wav,0,pull,272,30,5,4,ENGLISH,M,6,0.6,37.18976767,1.17688856
600235988c6b062314984ac0,17,0,2024-02-28T15:07:45.574Z,french_508.wav,0,pull,272,30,5,4,ENGLISH,M,7,0.7,-88.93551769,1.27783056
600235988c6b062314984ac0,17,0,2024-02-28T15:07:45.574Z,french_508.wav,0,pull,272,30,5,4,ENGLISH,M,8,0.8,-67.5722974,0.64559782
600235988c6b062314984ac0,17,0,2024-02-28T15:07:45.574Z,french_508.wav,0,pull,272,30,5,4,ENGLISH,M,9,0.9,-30.16013567,0.13087726
600235988c6b062314984ac0,17,0,2024-02-28T15:07:45.574Z,french_508.wav,0,pull,272,30,5,4,ENGLISH,M,10,1.0,-97.94018597,1.51661117
600235988c6b062314984ac0,17,0,2024-02-28T15:07:45.574Z,french_508.wav,0,pull,272,30,5,4,ENGLISH,M,11,1.1,-22.80164532,0.76508282
600235988c6b062314984ac0,17,0,2024-02-28T15:07:45.574Z,french_508.wav,0,pull,272,30,5,4,ENGLISH,M,12,1.14141667,93.86640825,1.99747877
600235988c6b062314984ac0,18,0,2024-02-28T15:07:45.574Z,french_191.wav,0,poule,934,30,5,4,ENGLISH,M,0,0.0,-39.99340478,0.51561269
600235988c6b062314984ac0,18,0,2024-02-28T15:07:45.574Z,french_191.wav,0,poule,934,30,5,4,ENGLISH,M,1,0.1,11.63414549,1.02814661
600235988c6b062314984ac0,18,0,2024-02-28T15:07:45.574Z,french_191.wav,0,poule,934,30,5,4,ENGLISH,M,2,0.2,-36.35828588,0.59773473
600235988c6b062314984ac0,18,0,2024-02-28T15:07:45.574Z,french_191.wav,0,poule,934,30,5,4,ENGLISH,M,3,0.3,-98.69172467,0.28838803
600235988c6b062314984ac0,18,0,2024-02-28T15:07:45.574Z,french_191.wav,0,poule,934,30,5,4,ENGLISH,M,4,0.4,45.8146994,0.36122414
600235988c6b062314984ac0,18,0,2024-02-28T15:07:45.574Z,french_191.wav,0,poule,934,30,5,4,ENGLISH,M,5,0.5,-81.34234862,0.73128969
600235988c6b062314984ac0,18,0,2024-02-28T15:07:45.574Z,french_191.wav,0,poule,934,30,5,4,ENGLISH,M,6,0.6,76.85689755,0.79641924
600235988c6b062314984ac0,18,0,2024-02-28T15:07:45.574Z,french_191.wav,0,poule,934,30,5,4,ENGLISH,M,7,0.7,30.77762716,1.01273186
600235988c6b062314984ac0,18,0,2024-02-28T15:07:45.574Z,french_191.wav,0,poule,934,30,5,4,ENGLISH,M,8,0.8,69.05359103,0.26915511
600235988c6b062314984ac0,18,0,2024-02-28T15:07:45.574Z,french_191.wav,0,poule,934,30,5,4,ENGLISH,M,9,0.9,-46.7773051,0.61564868
600235988c6b062314984ac0,18,0,2024-02-28T15:07:45.574Z,french_191.wav,0,poule,934,30,5,4,ENGLISH,M,10,1.0,-87.86133128,0.74101429
600235988c6b062314984ac0,18,0,2024-02-28T15:07:45.574Z,french_191.wav,0,poule,934,30,5,4,ENGLISH,M,11,1.1,49.92457354,1.64291894
600235988c6b062314984ac0,18,0,2024-02-28T15:07:45.574Z,french_191.wav,0,poule,934,30,5,4,ENGLISH,M,12,1.14141667,-23.83679331,1.52790896
600235988c6b062314984ac0,19,0,2024-02-28T15:07:45.574Z,french_224.wav,0,poule,577,30,5,4,ENGLISH,M,0,0.0,56.90503632,1.50179325
600235988c6b062314984ac0,19,0,2024-02-28T15:07:45.574Z,french_224.wav,0,poule,577,30,5,4,ENGLISH,M,1,0.1,60.05480061,0.47619317
600235988c6b062314984ac0,19,0,2024-02-28T15:07:45.574Z,french_224.wav,0,poule,577,30,5,4,ENGLISH,M,2,0.2,-72.51656256,0.92007655
600235988c6b062314984ac0,19,0,2024-02-28T15:07:45.574Z,french_224.wav,0,poule,577,30,5,4,ENGLISH,M,3,0.3,2.93178185,0.33014887
600235988c6b062314984ac0,19,0,2024-02-28T15:07:45.574Z,french_224.wav,0,poule,577,30,5,4,ENGLISH,M,4,0.4,90.45336135,0.043639
600235988c6b062314984ac0,19,0,2024-02-28T15:07:45.574Z,french_224.wav,0,poule,577,30,5,4,ENGLISH,M,5,0.5,75.12015459,0.92056091
600235988c6b062314984ac0,19,0,2024-02-28T15:07:45.574Z,french_224.wav,0,poule,577,30,5,4,ENGLISH,M,6,0.6,-53.55997087,1.2049101
600235988c6b062314984ac0,19,0,2024-02-28T15:07:45.574Z,french_224.wav,0,poule,577,30,5,4,ENGLISH,M,7,0.7,51.97340418,1.26031724
600235988c6b062314984ac0,19,0,2024-02-28T15:07:45.574Z,french_224.wav,0,poule,577,30,5,4,ENGLISH,M,8,0.8,-10.38516211,1.58987807
600235988c6b062314984ac0,19,0,2024-02-28T15:07:45.574Z,french_224.wav,0,poule,577,30,5,4,ENGLISH,M,9,0.9,-92.4550951,0.13577782
600235988c6b062314984ac0,19,0,2024-02-28T15:07:45.574Z,french_224.wav,0,poule,577,30,5,4,ENGLISH,M,10,1.0,-57.31461047,0.90983342
600235988c6b062314984ac0,19,0,2024-02-28T15:07:45.574Z,french_224.wav,0,poule,577,30,5,4,ENGLISH,M,11,1.1,-81.45606397,0.06219346
600235988c6b062314984ac0,19,0,2024-02-28T15:07:45.574Z,french_224.wav,0,poule,577,30,5,4,ENGLISH,M,12,1.14141667,59.16877148,1.30139903
600235988c6b062314984ac0,20,0,2024-02-28T15:07:45.574Z,french_904.wav,0,pull,430,30,5,4,ENGLISH,M,0,0.0,-11.62176844,1.49355087
600235988c6b062314984ac0,20,0,2024-02-28T15:07:45.574Z,french_904.wav,0,pull,430,30,5,4,ENGLISH,M,1,0.1,-97.15527311,0.51193857
600235988c6b062314984ac0,20,0,2024-02-28T15:07:45.574Z,french_904.wav,0,pull,430,30,5,4,ENGLISH,M,2,0.2,23.7219884,1.25947895
600235988c6b062314984ac0,20,0,2024-02-28T15:07:45.574Z,french_904.wav,0,pull,430,30,5,4,ENGLISH,M,3,0.3,-11.13047804,0.53809601
600235988c6b062314984ac0,20,0,2024-02-28T15:07:45.574Z,french_904.wav,0,pull,430,30,5,4,ENGLISH,M,4,0.4,98.59989814,0.21415281
600235988c6b062314984ac0,20,0,2024-02-28T15:07:45.574Z,french_904.wav,0,pull,430,30,5,4,ENGLISH,M,5,0.5,10.92949536,1.62896015
600235988c6b062314984ac0,20,0,2024-02-28T15:07:45.574Z,french_904.wav,0,pull,430,30,5,4,ENGLISH,M,6,0.6,-8.2334005,0.06342806
600235988c6b062314984ac0,20,0,2024-02-28T15:07:45.574Z,french_904.wav,0,pull,430,30,5,4,ENGLISH,M,7,0.7,-68.9383701,0.5262516
600235988c6b062314984ac0,20,0,2024-02-28T15:07:45.574Z,french_904.wav,0,pull,430,30,5,4,ENGLISH,M,8,0.8,64.82847107,1.37854903
600235988c6b062314984ac0,20,0,2024-02-28T15:07:45.574Z,french_904.wav,0,pull,430,30,5,4,ENGLISH,M,9,0.9,-91.99415487,0.72263695
600235988c6b062314984ac0,20,0,2024-02-28T15:07:45.574Z,french_904.wav,0,pull,430,30,5,4,ENGLISH,M,10,1.0,-52.64833553,0.97240938
600235988c6b062314984ac0,20,0,2024-02-28T15:07:45.574Z,french_904.wav,0,pull,430,30,5,4,ENGLISH,M,11,1.1,47.97880576,0.44825995
600235988c6b062314984ac0,20,0,2024-02-28T15:07:45.574Z,french_904.wav,0,pull,430,30,5,4,ENGLISH,M,12,1.14141667,-73.02936526,1.11879983
600235988c6b062314984ac0,21,0,2024-02-28T15:07:45.574Z,french_744.wav,0,poule,331,30,5,4,ENGLISH,M,0,0.0,-91.48661439,1.85846096
600235988c6b062314984ac0,21,0,2024-02-28T15:07:45.574Z,french_744.wav,0,poule,331,30,5,4,ENGLISH,M,1,0.1,18.65355246,1.31941604
600235988c6b062314984ac0,21,0,2024-02-28T15:07:45.574Z,french_744.wav,0,poule,331,30,5,4,ENGLISH,M,2,0.2,-47.54496018,1.09691526
600235988c6b062314984ac0,21,0,2024-02-28T15:07:45.574Z,french_744.wav,0,poule,331,30,5,4,ENGLISH,M,3,0.3,17.95212516,0.82238675
600235988c6b062314984ac0,21,0,2024-02-28T15:07:45.574Z,french_744.wav,0,poule,331,30,5,4,ENGLISH,M,4,0.4,-62.8659354,1.59275608
600235988c6b062314984ac0,21,0,2024-02-28T15:07:45.574Z,french_744.wav,0,poule,331,30,5,4,ENGLISH,M,5,0.5,-61.59142109,1.03229624
600235988c6b062314984ac0,21,0,2024-02-28T15:07:45.574Z,french_744.wav,0,poule,331,30,5,4,ENGLISH,M,6,0.6,-6.96150758,1.01361934
600235988c6b062314984ac0,21,0,2024-02-28T15:07:45.574Z,french_744.wav,0,poule,331,30,5,4,ENGLISH,M,7,0.7,44.5539527,0.71415112
600235988c6b062314984ac0,21,0,2024-02-28T15:07:45.574Z,french_744.wav,0,poule,331,30,5,4,ENGLISH,M,8,0.8,61.79622069,0.72291552
600235988c6b062314984ac0,21,0,2024-02-28T15:07:45.574Z,french_744.wav,0,poule,331,30,5,4,ENGLISH,M,9,0.9,15.75993473,0.48078155
600235988c6b062314984ac0,21,0,2024-02-28T15:07:45.574Z,french_744.wav,0,poule,331,30,5,4,ENGLISH,M,10,1.0,73.30241855,0.68305792
600235988c6b062314984ac0,21,0,2024-02-28T15:07:45.574Z,french_744.wav,0,poule,331,30,5,4,ENGLISH,M,11,1.1,32.92483065,0.69994656
600235988c6b062314984ac0,21,0,2024-02-28T15:07:45.574Z,french_744.wav,0,poule,331,30,5,4,ENGLISH,M,12,1.14141667,-20.87758002,0.74534068
600235988c6b062314984ac0,22,0,2024-02-28T15:07:45.574Z,french_216.wav,0,poule,413,30,5,4,ENGLISH,M,0,0.0,-60.17810311,1.55322104
600235988c6b062314984ac0,22,0,2024-02-28T15:07:45.574Z,french_216.wav,0,poule,413,30,5,4,ENGLISH,M,1,0.1,11.42252773,1.00304409
600235988c6b062314984ac0,22,0,2024-02-28T15:07:45.574Z,french_216.wav,0,poule,413,30,5,4,ENGLISH,M,2,0.2,-56.55439893,0.02981525
600235988c6b062314984ac0,22,0,2024-02-28T15:07:45.574Z,french_216.wav,0,poule,413,30,5,4,ENGLISH,M,3,0.3,-80.03421186,1.36759869
600235988c6b062314984ac0,22,0,2024-02-28T15:07:45.574Z,french_216.wav,0,poule,413,30,5,4,ENGLISH,M,4,0.4,-80.18888981,0.05691451
600235988c6b062314984ac0,22,0,2024-02-28T15:07:45.574Z,french_216.wav,0,poule,413,30,5,4,ENGLISH,M,5,0.5,5.79858175,1.70282351
600235988c6b062314984ac0,22,0,2024-02-28T15:07:45.574Z,french_216.wav,0,poule,413,30,5,4,ENGLISH,M,6,0.6,13.53577994,0.34437275
600235988c6b062314984ac0,22,0,2024-02-28T15:07:45.574Z,french_216.wav,0,poule,413,30,5,4,ENGLISH,M,7,0.7,-40.39198044,1.08997785
600235988c6b062314984ac0,22,0,2024-02-28T15:07:45.574Z,french_216.wav,0,poule,413,30,5,4,ENGLISH,M,8,0.8,92.2878797,0.90763246
600235988c6b062314984ac0,22,0,2024-02-28T15:07:45.574Z,french_216.wav,0,poule,413,30,5,4,ENGLISH,M,9,0.9,-9.2786245,0.73661202
600235988c6b062314984ac0,22,0,2024-02-28T15:07:45.574Z,french_216.wav,0,poule,413,30,5,4,ENGLISH,M,10,1.0,74.67011589,0.85986577
600235988c6b062314984ac0,22,0,2024-02-28T15:07:45.574Z,french_216.wav,0,poule,413,30,5,4,ENGLISH,M,11,1.1,-31.97031309,1.06794363
600235988c6b062314984ac0,22,0,2024-02-28T15:07:45.574Z,french_216.wav,0,poule,413,30,5,4,ENGLISH,M,12,1.14141667,-30.83960704,1.05869648
600235988c6b062314984ac0,23,0,2024-02-28T15:07:45.574Z,french_444.wav,0,poule,363,30,5,4,ENGLISH,M,0,0.0,87.77909642,0.96730071
600235988c6b062314984ac0,23,0,2024-02-28T15:07:45.574Z,french_444.wav,0,poule,363,30,5,4,ENGLISH,M,1,0.1,6.94972025,1.64754835
600235988c6b062314984ac0,23,0,2024-02-28T15:07:45.574Z,french_444.wav,0,poule,363,30,5,4,ENGLISH,M,2,0.2,98.20857903,0.34232644
600235988c6b062314984ac0,23,0,2024-02-28T15:07:45.574Z,french_444.wav,0,poule,363,30,5,4,ENGLISH,M,3,0.3,-35.32566364,0.90396438
600235988c6b062314984ac0,23,0,2024-02-28T15:07:45.574Z,french_444.wav,0,poule,363,30,5,4,ENGLISH,M,4,0.4,-66.21920686,1.59193054
600235988c6b062314984ac0,23,0,2024-02-28T15:07:45.574Z,french_444.wav,0,poule,363,30,5,4,ENGLISH,M,5,0.5,-74.00275706,1.69980703
600235988c6b062314984ac0,23,0,2024-02-28T15:07:45.574Z,french_444.wav,0,poule,363,30,5,4,ENGLISH,M,6,0.6,-89.76463472,0.62529401
600235988c6b062314984ac0,23,0,2024-02-28T15:07:45.574Z,french_444.wav,0,poule,363,30,5,4,ENGLISH,M,7,0.7,90.23942867,0.0404836
600235988c6b062314984ac0,23,0,2024-02-28T15:07:45.574Z,french_444.wav,0,poule,363,30,5,4,ENGLISH,M,8,0.8,-81.90686285,0.34890232
600235988c6b062314984ac0,23,0,2024-02-28T15:07:45.574Z,french_444.wav,0,poule,363,30,5,4,ENGLISH,M,9,0.9,5.03977492,1.70546998
600235988c6b062314984ac0,23,0,2024-02-28T15:07:45.574Z,french_444.wav,0,poule,363,30,5,4,ENGLISH,M,10,1.0,94.83681906,1.15170641
600235988c6b062314984ac0,23,0,2024-02-28T15:07:45.574Z,french_444.wav,0,poule,363,30,5,4,ENGLISH,M,11,1.1,-46.16486493,0.22788225
600235988c6b062314984ac0,23,0,2024-02-28T15:07:45.574Z,french_444.wav,0,poule,363,30,5,4,ENGLISH,M,12,1.14141667,7.32353635,1.99633075
600235988c6b062314984ac0,24,0,2024-02-28T15:07:45.574Z,french_649.wav,0,pull,278,30,5,4,ENGLISH,M,0,0.0,-14.63575946,1.48016251
600235988c6b062314984ac0,24,0,2024-02-28T15:07:45.574Z,french_649.wav,0,pull,278,30,5,4,ENGLISH,M,1,0.1,87.90447506,1.99171813
600235988c6b062314984ac0,24,0,2024-02-28T15:07:45.574Z,french_649.wav,0,pull,278,30,5,4,ENGLISH,M,2,0.2,16.67284582,0.37897864
600235988c6b062314984ac0,24,0,2024-02-28T15:07:45.574Z,french_649.wav,0,pull,278,30,5,4,ENGLISH,M,3,0.3,66.15245768,1.28017908
600235988c6b062314984ac0,24,0,2024-02-28T15:07:45.574Z,french_649.wav,0,pull,278,30,5,4,ENGLISH,M,4,0.4,-20.15560471,0.5887237
600235988c6b062314984ac0,24,0,2024-02-28T15:07:45.574Z,french_649.wav,0,pull,278,30,5,4,ENGLISH,M,5,0.5,-60.0326813,1.90797715
600235988c6b062314984ac0,24,0,2024-02-28T15:07:45.574Z,french_649.wav,0,pull,278,30,5,4,ENGLISH,M,6,0.6,31.72800587,0.19529448
600235988c6b062314984ac0,24,0,2024-02-28T15:07:45.574Z,french_649.wav,0,pull,278,30,5,4,ENGLISH,M,7,0.7,-60.07829106,1.64301184
600235988c6b062314984ac0,24,0,2024-02-28T15:07:45.574Z,french_649.wav,0,pull,278,30,5,4,ENGLISH,M,8,0.8,15.50516257,1.80534623
600235988c6b062314984ac0,24,0,2024-02-28T15:07:45.574Z,french_649.wav,0,pull,278,30,5,4,ENGLISH,M,9,0.9,-42.6229878,0.7062957
600235988c6b062314984ac0,24,0,2024-02-28T15:07:45.574Z,french_649.wav,0,pull,278,30,5,4,ENGLISH,M,10,1.0,78.15416518,1.55899311
600235988c6b062314984ac0,24,0,2024-02-28T15:07:45.574Z,french_649.wav,0,pull,278,30,5,4,ENGLISH,M,11,1.1,46.83392995,1.39425951
600235988c6b062314984ac0,24,0,2024-02-28T15:07:45.574Z,french_649.wav,0,pull,278,30,5,4,ENGLISH,M,12,1.14141667,39.79631616,1.94277347
600235988c6b062314984ac0,25,0,2024-02-28T15:07:45.574Z,french_230.wav,0,pull,575,30,5,4,ENGLISH,M,0,0.0,98.15991123,1.30522462
600235988c6b062314984ac0,25,0,2024-02-28T15:07:45.574Z,french_230.wav,0,pull,575,30,5,4,ENGLISH,M,1,0.1,11.6902204,0.11826705
600235988c6b062314984ac0,25,0,2024-02-28T15:07:45.574Z,french_230.wav,0,pull,575,30,5,4,ENGLISH,M,2,0.2,-50.36068182,1.73674617
600235988c6b062314984ac0,25,0,2024-02-28T15:07:45.574Z,french_230.wav,0,pull,575,30,5,4,ENGLISH,M,3,0.3,14.56735136,0.76793457
600235988c6b062314984ac0,25,0,2024-02-28T15:07:45.574Z,french_230.wav,0,pull,575,30,5,4,ENGLISH,M,4,0.4,-96.96803155,1.00788736
600235988c6b062314984ac0,25,0,2024-02-28T15:07:45.574Z,french_230.wav,0,pull,575,30,5,4,ENGLISH,M,5,0.5,-52.57055687,0.43906209
600235988c6b062314984ac0,25,0,2024-02-28T15:07:45.574Z,french_230.wav,0,pull,575,30,5,4,ENGLISH,M,6,0.6,36.87245394,0.97475649
600235988c6b062314984ac0,25,0,2024-02-28T15:07:45.574Z,french_230.wav,0,pull,575,30,5,4,ENGLISH,M,7,0.7,-80.2856303,0.53787128
600235988c6b062314984ac0,25,0,2024-02-28T15:07:45.574Z,french_230.wav,0,pull,575,30,5,4,ENGLISH,M,8,0.8,18.16147615,0.01352063
600235988c6b062314984ac0,25,0,2024-02-28T15:07:45.574Z,french_230.wav,0,pull,575,30,5,4,ENGLISH,M,9,0.9,20.52226042,0.18550839
600235988c6b062314984ac0,25,0,2024-02-28T15:07:45.574Z,french_230.wav,0,pull,575,30,5,4,ENGLISH,M,10,1.0,64.78868565,1.47516497
600235988c6b062314984ac0,25,0,2024-02-28T15:07:45.574Z,french_230.wav,0,pull,575,30,5,4,ENGLISH,M,11,1.1,47.34660256,1.94234358
600235988c6b062314984ac0,25,0,2024-02-28T15:07:45.574Z,french_230.wav,0,pull,575,30,5,4,ENGLISH,M,12,1.14141667,97.18382521,1.62540564
600235988c6b062314984ac0,26,0,2024-02-28T15:07:45.574Z,french_67.wav,0,poule,244,30,5,4,ENGLISH,M,0,0.0,-8.80419895,1.71520909
600235988c6b062314984ac0,26,0,2024-02-28T15:07:45.574Z,french_67.wav,0,poule,244,30,5,4,ENGLISH,M,1,0.1,-89.09971713,1.65194622
600235988c6b062314984ac0,26,0,2024-02-28T15:07:45.574Z,french_67.wav,0,poule,244,30,5,4,ENGLISH,M,2,0.2,52.16664129,1.05692719
600235988c6b062314984ac0,26,0,2024-02-28T15:07:45.574Z,french_67.wav,0,poule,244,30,5,4,ENGLISH,M,3,0.3,75.50765895,0.39640522
600235988c6b062314984ac0,26,0,2024-02-28T15:07:45.574Z,french_67.wav,0,poule,244,30,5,4,ENGLISH,M,4,0.4,-50.4048012,1.79941734
600235988c6b062314984ac0,26,0,2024-02-28T15:07:45.574Z,french_67.wav,0,poule,244,30,5,4,ENGLISH,M,5,0.5,2.92186318,1.20893726
600235988c6b062314984ac0,26,0,2024-02-28T15:07:45.574Z,french_67.wav,0,poule,244,30,5,4,ENGLISH,M,6,0.6,-2.99274005,1.83305713
600235988c6b062314984ac0,26,0,2024-02-28T15:07:45.574Z,french_67.wav,0,poule,244,30,5,4,ENGLISH,M,7,0.7,-60.68394197,0.33461142
600235988c6b062314984ac0,26,0,2024-02-28T15:07:45.574Z,french_67.wav,0,poule,244,30,5,4,ENGLISH,M,8,0.8,84.35232492,0.31328661
600235988c6b062314984ac0,26,0,2024-02-28T15:07:45.574Z,french_67.wav,0,poule,244,30,5,4,ENGLISH,M,9,0.9,-25.72248864,0.81923703
600235988c6b062314984ac0,26,0,2024-02-28T15:07:45.574Z,french_67.wav,0,poule,244,30,5,4,ENGLISH,M,10,1.0,11.86313501,0.47881167
600235988c6b062314984ac0,26,0,2024-02-28T15:07:45.574Z,french_67.wav,0,poule,244,30,5,4,ENGLISH,M,11,1.1,19.03354401,1.95724467
600235988c6b062314984ac0,26,0,2024-02-28T15:07:45.574Z,french_67.wav,0,poule,244,30,5,4,ENGLISH,M,12,1.14141667,81.65120736,0.25508289
600235988c6b062314984ac0,27,0,2024-02-28T15:07:45.574Z,french_745.wav,0,poule,363,30,5,4,ENGLISH,M,0,0.0,-8.32888314,1.09732397
600235988c6b062314984ac0,27,0,2024-02-28T15:07:45.574Z,french_745.wav,0,poule,363,30,5,4,ENGLISH,M,1,0.1,-6.05023993,1.87088692
600235988c6b062314984ac0,27,0,2024-02-28T15:07:45.574Z,french_745.wav,0,poule,363,30,5,4,ENGLISH,M,2,0.2,14.20117391,1.54181536
600235988c6b062314984ac0,27,0,2024-02-28T15:07:45.574Z,french_745.wav,0,poule,363,30,5,4,ENGLISH,M,3,0.3,9.72422027,0.66469183
600235988c6b062314984ac0,27,0,2024-02-28T15:07:45.574Z,french_745.wav,0,poule,363,30,5,4,ENGLISH,M,4,0.4,61.94285409,0.06080466
600235988c6b062314984ac0,27,0,2024-02-28T15:07:45.574Z,french_745.wav,0,poule,363,30,5,4,ENGLISH,M,5,0.5,16.9242065,0.4761387
600235988c6b062314984ac0,27,0,2024-02-28T15:07:45.574Z,french_745.wav,0,poule,363,30,5,4,ENGLISH,M,6,0.6,-73.99150176,0.98624315
600235988c6b062314984ac0,27,0,2024-02-28T15:07:45.574Z,french_745.wav,0,poule,363,30,5,4,ENGLISH,M,7,0.7,-68.75802198,1.75579455
600235988c6b062314984ac0,27,0,2024-02-28T15:07:45.574Z,french_745.wav,0,poule,363,30,5,4,ENGLISH,M,8,0.8,30.41524691,0.49603864
600235988c6b062314984ac0,27,0,2024-02-28T15:07:45.574Z,french_745.wav,0,poule,363,30,5,4,ENGLISH,M,9,0.9,-73.26315303,1.28396811
600235988c6b062314984ac0,27,0,2024-02-28T15:07:45.574Z,french_745.wav,0,poule,363,30,5,4,ENGLISH,M,10,1.0,67.07087991,1.04819189
600235988c6b062314984ac0,27,0,2024-02-28T15:07:45.574Z,french_745.wav,0,poule,363,30,5,4,ENGLISH,M,11,1.1,37.63567308,1.07853657
600235988c6b062314984ac0,27,0,2024-02-28T15:07:45.574Z,french_745.wav,0,poule,363,30,5,4,ENGLISH,M,12,1.14141667,72.47019106,1.51225642
600235988c6b062314984ac0,28,0,2024-02-28T15:07:45.574Z,french_640.wav,0,pull,207,30,5,4,ENGLISH,M,0,0.0,-23.23499115,0.51826373
600235988c6b062314984ac0,28,0,2024-02-28T15:07:45.574Z,french_640.wav,0,pull,207,30,5,4,ENGLISH,M,1,0.1,-5.32274666,0.48541717
600235988c6b062314984ac0,28,0,2024-02-28T15:07:45.574Z,french_640.wav,0,pull,207,30,5,4,ENGLISH,M,2,0.2,-26.96491629,0.32572671
600235988c6b062314984ac0,28,0,2024-02-28T15:07:45.574Z,french_640.wav,0,pull,207,30,5,4,ENGLISH,M,3,0.3,-24.71578064,0.87356407
600235988c6b062314984ac0,28,0,2024-02-28T15:07:45.574Z,french_640.wav,0,pull,207,30,5,4,ENGLISH,M,4,0.4,4.92396133,0.06333599
600235988c6b062314984ac0,28,0,2024-02-28T15:07:45.574Z,french_640.wav,0,pull,207,30,5,4,ENGLISH,M,5,0.5,79.3437843,0.63173489
600235988c6b062314984ac0,28,0,2024-02-28T15:07:45.574Z,french_640.wav,0,pull,207,30,5,4,ENGLISH,M,6,0.6,-37.35644985,0.49522912
600235988c6b062314984ac0,28,0,2024-02-28T15:07:45.574Z,french_640.wav,0,pull,207,30,5,4,ENGLISH,M,7,0.7,90.7866094,1.48986997
600235988c6b062314984ac0,28,0,2024-02-28T15:07:45.574Z,french_640.wav,0,pull,207,30,5,4,ENGLISH,M,8,0.8,-21.5684971,1.18308083
600235988c6b062314984ac0,28,0,2024-02-28T15:07:45.574Z,french_640.wav,0,pull,207,30,5,4,ENGLISH,M,9,0.9,-3.17217866,1.04898469
600235988c6b062314984ac0,28,0,2024-02-28T15:07:45.574Z,french_640.wav,0,pull,207,30,5,4,ENGLISH,M,10,1.0,-53.51075281,1.09208336
600235988c6b062314984ac0,28,0,2024-02-28T15:07:45.574Z,french_640.wav,0,pull,207,30,5,4,ENGLISH,M,11,1.1,23.72364294,0.03972765
600235988c6b062314984ac0,28,0,2024-02-28T15:07:45.574Z,french_640.wav,0,pull,207,30,5,4,ENGLISH,M,12,1.14141667,-59.96309897,0.83305144
600235988c6b062314984ac0,29,0,2024-02-28T15:07:45.574Z,french_726.wav,0,poule,529,30,5,4,ENGLISH,M,0,0.0,48.76420557,1.37300974
600235988c6b062314984ac0,29,0,2024-02-28T15:07:45.574Z,french_726.wav,0,poule,529,30,5,4,ENGLISH,M,1,0.1,5.12155157,1.49926665
600235988c6b062314984ac0,29,0,2024-02-28T15:07:45.574Z,french_726.wav,0,poule,529,30,5,4,ENGLISH,M,2,0.2,-72.9890042,0.85512206
600235988c6b062314984ac0,29,0,2024-02-28T15:07:45.574Z,french_726.wav,0,poule,529,30,5,4,ENGLISH,M,3,0.3,75.78946978,0.29572074
600235988c6b062314984ac0,29,0,2024-02-28T15:07:45.574Z,french_726.wav,0,poule,529,30,5,4,ENGLISH,M,4,0.4,8.27508281,1.38748174
600235988c6b062314984ac0,29,0,2024-02-28T15:07:45.574Z,french_726.wav,0,poule,529,30,5,4,ENGLISH,M,5,0.5,89.78169524,0.62022839
600235988c6b062314984ac0,29,0,2024-02-28T15:07:45.574Z,french_726.wav,0,poule,529,30,5,4,ENGLISH,M,6,0.6,3.99556136,1.06740061
600235988c6b062314984ac0,29,0,2024-02-28T15:07:45.574Z,french_726.wav,0,poule,529,30,5,4,ENGLISH,M,7,0.7,1.99959163,0.59805381
600235988c6b062314984ac0,29,0,2024-02-28T15:07:45.574Z,french_726.wav,0,poule,529,30,5,4,ENGLISH,M,8,0.8,-13.64347367,1.70561407
600235988c6b062314984ac0,29,0,2024-02-28T15:07:45.574Z,french_726.wav,0,poule,529,30,5,4,ENGLISH,M,9,0.9,30.90068593,0.37953026
600235988c6b062314984ac0,29,0,2024-02-28T15:07:45.574Z,french_726.wav,0,poule,529,30,5,4,ENGLISH,M,10,1.0,28.17986697,1.21262206
600235988c6b062314984ac0,29,0,2024-02-28T15:07:45.574Z,french_726.wav,0,poule,529,30,5,4,ENGLISH,M,11,1.1,-67.51414293,1.83341573
600235988c6b062314984ac0,29,0,2024-02-28T15:07:45.574Z,french_726.wav,0,poule,529,30,5,4,ENGLISH,M,12,1.14141667,-25.39302441,0.05128479
600235988c6b062314984ac0,30,0,2024-02-28T15:07:45.574Z,french_457.wav,0,poule,528,30,5,4,ENGLISH,M,0,0.0,-33.69887569,0.17499985
600235988c6b062314984ac0,30,0,2024-02-28T15:07:45.574Z,french_457.wav,0,poule,528,30,5,4,ENGLISH,M,1,0.1,97.74765169,1.36458037
600235988c6b062314984ac0,30,0,2024-02-28T15:07:45.574Z,french_457.wav,0,poule,528,30,5,4,ENGLISH,M,2,0.2,-20.91555675,0.96521613
600235988c6b062314984ac0,30,0,2024-02-28T15:07:45.574Z,french_457.wav,0,poule,528,30,5,4,ENGLISH,M,3,0.3,-92.61946295,0.19125459
600235988c6b062314984ac0,30,0,2024-02-28T15:07:45.574Z,french_457.wav,0,poule,528,30,5,4,ENGLISH,M,4,0.4,94.41903557,0.0683773
600235988c6b062314984ac0,30,0,2024-02-28T15:07:45.574Z,french_457.wav,0,poule,528,30,5,4,ENGLISH,M,5,0.5,-70.30133724,1.34477155
600235988c6b062314984ac0,30,0,2024-02-28T15:07:45.574Z,french_457.wav,0,poule,528,30,5,4,ENGLISH,M,6,0.6,-29.16257372,0.23910949
600235988c6b062314984ac0,30,0,2024-02-28T15:07:45.574Z,french_457.wav,0,poule,528,30,5,4,ENGLISH,M,7,0.7,55.8333977,1.04842375
600235988c6b062314984ac0,30,0,2024-02-28T15:07:45.574Z,french_457.wav,0,poule,528,30,5,4,ENGLISH,M,8,0.8,-62.54113235,1.16073061
600235988c6b062314984ac0,30,0,2024-02-28T15:07:45.574Z,french_457.wav,0,poule,528,30,5,4,ENGLISH,M,9,0.9,36.59242577,1.87248192
600235988c6b062314984ac0,30,0,2024-02-28T15:07:45.574Z,french_457.wav,0,poule,528,30,5,4,ENGLISH,M,10,1.0,40.72902596,0.95401436
600235988c6b062314984ac0,30,0,2024-02-28T15:07:45.574Z,french_457.wav,0,poule,528,30,5,4,ENGLISH,M,11,1.1,65.00978537,1.65191739
600235988c6b062314984ac0,30,0,2024-02-28T15:07:45.574Z,french_457.wav,0,poule,528,30,5,4,ENGLISH,M,12,1.14141667,52.21296525,0.18770955
600235988c6b062314984ac0,31,0,2024-02-28T15:07:45.574Z,french_469.wav,0,pull,400,30,5,4,ENGLISH,M,0,0.0,-11.84414354,1.70542515
600235988c6b062314984ac0,31,0,2024-02-28T15:07:45.574Z,french_469.wav,0,pull,400,30,5,4,ENGLISH,M,1,0.1,-48.40182789,1.16680679
600235988c6b062314984ac0,31,0,2024-02-28T15:07:45.574Z,french_469.wav,0,pull,400,30,5,4,ENGLISH,M,2,0.2,-1.62228667,1.49863903
600235988c6b062314984ac0,31,0,2024-02-28T15:07:45.574Z,french_469.wav,0,pull,400,30,5,4,ENGLISH,M,3,0.3,48.75005327,1.41560569
600235988c6b062314984ac0,31,0,2024-02-28T15:07:45.574Z,french_469.wav,0,pull,400,30,5,4,ENGLISH,M,4,0.4,-26.14061485,1.39507228
600235988c6b062314984ac0,31,0,2024-02-28T15:07:45.574Z,french_469.wav,0,pull,400,30,5,4,ENGLISH,M,5,0.5,92.71891808,0.0638533
600235988c6b062314984ac0,31,0,2024-02-28T15:07:45.574Z,french_469.wav,0,pull,400,30,5,4,ENGLISH,M,6,0.6,-16.05969494,0.05359306
600235988c6b062314984ac0,31,0,2024-02-28T15:07:45.574Z,french_469.wav,0,pull,400,30,5,4,ENGLISH,M,7,0.7,-24.84536451,1.50590241
600235988c6b062314984ac0,31,0,2024-02-28T15:07:45.574Z,french_469.wav,0,pull,400,30,5,4,ENGLISH,M,8,0.8,45.28109884,1.38923205
600235988c6b062314984ac0,31,0,2024-02-28T15:07:45.574Z,french_469.wav,0,pull,400,30,5,4,ENGLISH,M,9,0.9,86.67333684,1.69756748
600235988c6b062314984ac0,31,0,2024-02-28T15:07:45.574Z,french_469.wav,0,pull,400,30,5,4,ENGLISH,M,10,1.0,-92.87325643,1.98155922
600235988c6b062314984ac0,31,0,2024-02-28T15:07:45.574Z,french_469.wav,0,pull,400,30,5,4,ENGLISH,M,11,1.1,4.17895767,1.36025463
600235988c6b062314984ac0,31,0,2024-02-28T15:07:45.574Z,french_469.wav,0,pull,400,30,5,4,ENGLISH,M,12,1.14141667,50.19046743,1.37929818
600235988c6b062314984ac0,32,0,2024-02-28T15:07:45.574Z,french_104.wav,0,pull,458,30,5,4,ENGLISH,M,0,0.0,-10.82069804,0.1966368
600235988c6b062314984ac0,32,0,2024-02-28T15:07:45.574Z,french_104.wav,0,pull,458,30,5,4,ENGLISH,M,1,0.1,-46.9179638,1.84976789
600235988c6b062314984ac0,32,0,2024-02-28T15:07:45.574Z,french_104.wav,0,pull,458,30,5,4,ENGLISH,M,2,0.2,-54.48570272,1.33623315
600235988c6b062314984ac0,32,0,2024-02-28T15:07:45.574Z,french_104.wav,0,pull,458,30,5,4,ENGLISH,M,3,0.3,3.05404722,1.29159713
600235988c6b062314984ac0,32,0,2024-02-28T15:07:45.574Z,french_104.wav,0,pull,458,30,5,4,ENGLISH,M,4,0.4,53.05029039,0.83782165
600235988c6b062314984ac0,32,0,2024-02-28T15:07:45.574Z,french_104.wav,0,pull,458,30,5,4,ENGLISH,M,5,0.5,41.93888619,1.8090238
600235988c6b062314984ac0,32,0,2024-02-28T15:07:45.574Z,french_104.wav,0,pull,458,30,5,4,ENGLISH,M,6,0.6,38.59618791,0.45654873
600235988c6b062314984ac0,32,0,2024-02-28T15:07:45.574Z,french_104.wav,0,pull,458,30,5,4,ENGLISH,M,7,0.7,19.43152578,1.50843582
600235988c6b062314984ac0,32,0,2024-02-28T15:07:45.574Z,french_104.wav,0,pull,458,30,5,4,ENGLISH,M,8,0.8,77.35445073,0.98312763
600235988c6b062314984ac0,32,0,2024-02-28T15:07:45.574Z,french_104.wav,0,pull,458,30,5,4,ENGLISH,M,9,0.9,32.46536794,0.62069846
600235988c6b062314984ac0,32,0,2024-02-28T15:07:45.574Z,french_104.wav,0,pull,458,30,5,4,ENGLISH,M,10,1.0,-22.38343672,0.12277995
600235988c6b062314984ac0,32,0,2024-02-28T15:07:45.574Z,french_104.wav,0,pull,458,30,5,4,ENGLISH,M,11,1.1,12.24635973,0.0590951
600235988c6b062314984ac0,32,0,2024-02-28T15:07:45.574Z,french_104.wav,0,pull,458,30,5,4,ENGLISH,M,12,1.14141667,-33.54926905,0.80794126
600235988c6b062314984ac0,33,0,2024-02-28T15:07:45.574Z,french_366.wav,0,pull,375,30,5,4,ENGLISH,M,0,0.0,-14.82855427,1.76609292
600235988c6b062314984ac0,33,0,2024-02-28T15:07:45.574Z,french_366.wav,0,pull,375,30,5,4,ENGLISH,M,1,0.1,6.72271479,1.92050992
600235988c6b062314984ac0,33,0,2024-02-28T15:07:45.574Z,french_366.wav,0,pull,375,30,5,4,ENGLISH,M,2,0.2,20.98041557,1.73177778
600235988c6b062314984ac0,33,0,2024-02-28T15:07:45.574Z,french_366.wav,0,pull,375,30,5,4,ENGLISH,M,3,0.3,-60.55291721,1.26737092
600235988c6b062314984ac0,33,0,2024-02-28T15:07:45.574Z,french_366.wav,0,pull,375,30,5,4,ENGLISH,M,4,0.4,-24.10338385,0.4259994
600235988c6b062314984ac0,33,0,2024-02-28T15:07:45.574Z,french_366.wav,0,pull,375,30,5,4,ENGLISH,M,5,0.5,-69.76829459,1.00032811
600235988c6b062314984ac0,33,0,2024-02-28T15:07:45.574Z,french_366.wav,0,pull,375,30,5,4,ENGLISH,M,6,0.6,50.41424091,0.65568415
600235988c6b062314984ac0,33,0,2024-02-28T15:07:45.574Z,french_366.wav,0,pull,375,30,5,4,ENGLISH,M,7,0.7,41.13803583,1.05912354
600235988c6b062314984ac0,33,0,2024-02-28T15:07:45.574Z,french_366.wav,0,pull,375,30,5,4,ENGLISH,M,8,0.8,-66.63492444,1.41038374
600235988c6b062314984ac0,33,0,2024-02-28T15:07:45.574Z,french_366.wav,0,pull,375,30,5,4,ENGLISH,M,9,0.9,32.77552682,1.87071781
600235988c6b062314984ac0,33,0,2024-02-28T15:07:45.574Z,french_366.wav,0,pull,375,30,5,4,ENGLISH,M,10,1.0,-61.45161975,0.72148135
600235988c6b062314984ac0,33,0,2024-02-28T15:07:45.574Z,french_366.wav,0,pull,375,30,5,4,ENGLISH,M,11,1.1,16.76057171,1.47966224
600235988c6b062314984ac0,33,0,2024-02-28T15:07:45.574Z,french_366.wav,0,pull,375,30,5,4,ENGLISH,M,12,1.14141667,47.11341698,1.22067671
600235988c6b062314984ac0,34,0,2024-02-28T15:07:45.574Z,french_558.wav,0,poule,294,30,5,4,ENGLISH,M,0,0.0,-3.57689355,1.75928205
600235988c6b062314984ac0,34,0,2024-02-28T15:07:45.574Z,french_558.wav,0,poule,294,30,5,4,ENGLISH,M,1,0.1,-77.78673936,0.21568786
600235988c6b062314984ac0,34,0,2024-02-28T15:07:45.574Z,french_558.wav,0,poule,294,30,5,4,ENGLISH,M,2,0.2,-78.90625042,0.68264483
600235988c6b062314984ac0,34,0,2024-02-28T15:07:45.574Z,french_558.wav,0,poule,294,30,5,4,ENGLISH,M,3,0.3,-31.57808348,0.1390229
600235988c6b062314984ac0,34,0,2024-02-28T15:07:45.574Z,french_558.wav,0,poule,294,30,5,4,ENGLISH,M,4,0.4,26.0047479,1.48868926
600235988c6b062314984ac0,34,0,2024-02-28T15:07:45.574Z,french_558.wav,0,poule,294,30,5,4,ENGLISH,M,5,0.5,-89.44545225,0.73026348
600235988c6b062314984ac0,34,0,2024-02-28T15:07:45.574Z,french_558.wav,0,poule,294,30,5,4,ENGLISH,M,6,0.6,48.00984814,1.98670404
600235988c6b062314984ac0,34,0,2024-02-28T15:07:45.574Z,french_558.wav,0,poule,294,30,5,4,ENGLISH,M,7,0.7,99.1115791,0.6243671
600235988c6b062314984ac0,34,0,2024-02-28T15:07:45.574Z,french_558.wav,0,poule,294,30,5,4,ENGLISH,M,8,0.8,48.65395635,0.78482362
600235988c6b062314984ac0,34,0,2024-02-28T15:07:45.574Z,french_558.wav,0,poule,294,30,5,4,ENGLISH,M,9,0.9,1.74504549,1.34774411
600235988c6b062314984ac0,34,0,2024-02-28T15:07:45.574Z,french_558.wav,0,poule,294,30,5,4,ENGLISH,M,10,1.0,-26.34408283,0.39051484
600235988c6b062314984ac0,34,0,2024-02-28T15:07:45.574Z,french_558.wav,0,poule,294,30,5,4,ENGLISH,M,11,1.1,-60.15837023,0.67204364
600235988c6b062314984ac0,34,0,2024-02-28T15:07:45.574Z,french_558.wav,0,poule,294,30,5,4,ENGLISH,M,12,1.14141667,-80.77511834,1.15830165
600235988c6b062314984ac0,35,0,2024-02-28T15:07:45.574Z,french_796.wav,0,pull,229,30,5,4,ENGLISH,M,0,0.0,-21.64188846,1.54395317
600235988c6b062314984ac0,35,0,2024-02-28T15:07:45.574Z,french_796.wav,0,pull,229,30,5,4,ENGLISH,M,1,0.1,-7.10945612,0.2941661
600235988c6b062314984ac0,35,0,2024-02-28T15:07:45.574Z,french_796.wav,0,pull,229,30,5,4,ENGLISH,M,2,0.2,-74.39719325,0.97343698
600235988c6b062314984ac0,35,0,2024-02-28T15:07:45.574Z,french_796.wav,0,pull,229,30,5,4,ENGLISH,M,3,0.3,-54.61530314,0.96871079
600235988c6b062314984ac0,35,0,2024-02-28T15:07:45.574Z,french_796.wav,0,pull,229,30,5,4,ENGLISH,M,4,0.4,-80.73225718,1.80485159
600235988c6b062314984ac0,35,0,2024-02-28T15:07:45.574Z,french_796.wav,0,pull,229,30,5,4,ENGLISH,M,5,0.5,9.91679823,0.56868061
600235988c6b062314984ac0,35,0,2024-02-28T15:07:45.574Z,french_796.wav,0,pull,229,30,5,4,ENGLISH,M,6,0.6,-97.91364168,1.75772708
600235988c6b062314984ac0,35,0,2024-02-28T15:07:45.574Z,french_796.wav,0,pull,229,30,5,4,ENGLISH,M,7,0.7,49.57079751,1.73544483
600235988c6b062314984ac0,35,0,2024-02-28T15:07:45.574Z,french_796.wav,0,pull,229,30,5,4,ENGLISH,M,8,0.8,70.95125658,0.94432617
600235988c6b062314984ac0,35,0,2024-02-28T15:07:45.574Z,french_796.wav,0,pull,229,30,5,4,ENGLISH,M,9,0.9,31.08280056,1.12597758
600235988c6b062314984ac0,35,0,2024-02-28T15:07:45.574Z,french_796.wav,0,pull,229,30,5,4,ENGLISH,M,10,1.0,-13.33346658,0.53392858
600235988c6b062314984ac0,35,0,2024-02-28T15:07:45.574Z,french_796.wav,0,pull,229,30,5,4,ENGLISH,M,11,1.1,3.95596596,0.6803009
600235988c6b062314984ac0,35,0,2024-02-28T15:07:45.574Z,french_796.wav,0,pull,229,30,5,4,ENGLISH,M,12,1.14141667,-13.99518271,1.42581525
600235988c6b062314984ac0,36,0,2024-02-28T15:07:45.574Z,french_573.wav,0,pull,328,30,5,4,ENGLISH,M,0,0.0,-8.63416318,1.15935124
600235988c6b062314984ac0,36,0,2024-02-28T15:07:45.574Z,french_573.wav,0,pull,328,30,5,4,ENGLISH,M,1,0.1,16.80813537,1.79152654
600235988c6b062314984ac0,36,0,2024-02-28T15:07:45.574Z,french_573.wav,0,pull,328,30,5,4,ENGLISH,M,2,0.2,19.45481032,1.92024926
600235988c6b062314984ac0,36,0,2024-02-28T15:07:45.574Z,french_573.wav,0,pull,328,30,5,4,ENGLISH,M,3,0.3,-44.5400907,0.49878224
600235988c6b062314984ac0,36,0,2024-02-28T15:07:45.574Z,french_573.wav,0,pull,328,30,5,4,ENGLISH,M,4,0.4,99.1841253,1.61702434
600235988c6b062314984ac0,36,0,2024-02-28T15:07:45.574Z,french_573.wav,0,pull,328,30,5,4,ENGLISH,M,5,0.5,22.11415525,1.71130334
600235988c6b062314984ac0,36,0,2024-02-28T15:07:45.574Z,french_573.wav,0,pull,328,30,5,4,ENGLISH,M,6,0.6,38.23336035,1.32813862
600235988c6b062314984ac0,36,0,2024-02-28T15:07:45.574Z,french_573.wav,0,pull,328,30,5,4,ENGLISH,M,7,0.7,16.03528662,0.51058126
600235988c6b062314984ac0,36,0,2024-02-28T15:07:45.574Z,french_573.wav,0,pull,328,30,5,4,ENGLISH,M,8,0.8,45.03300228,1.81453438
600235988c6b062314984ac0,36,0,2024-02-28T15:07:45.574Z,french_573.wav,0,pull,328,30,5,4,ENGLISH,M,9,0.9,78.94117461,0.03550179
600235988c6b062314984ac0,36,0,2024-02-28T15:07:45.574Z,french_573.wav,0,pull,328,30,5,4,ENGLISH,M,10,1.0,-19.40506878,1.7614801
600235988c6b062314984ac0,36,0,2024-02-28T15:07:45.574Z,french_573.wav,0,pull,328,30,5,4,ENGLISH,M,11,1.1,-17.6448819,0.49774487
600235988c6b062314984ac0,36,0,2024-02-28T15:07:45.574Z,french_573.wav,0,pull,328,30,5,4,ENGLISH,M,12,1.14141667,-27.52502811,1.11116609
600235988c6b062314984ac0,37,0,2024-02-28T15:07:45.574Z,french_120.wav,0,pull,281,30,5,4,ENGLISH,M,0,0.0,-25.39055637,0.67452719
600235988c6b062314984ac0,37,0,2024-02-28T15:07:45.574Z,french_120.wav,0,pull,281,30,5,4,ENGLISH,M,1,0.1,-52.16988554,0.89530536
600235988c6b062314984ac0,37,0,2024-02-28T15:07:45.574Z,french_120.wav,0,pull,281,30,5,4,ENGLISH,M,2,0.2,-97.11481736,0.31491033
600235988c6b062314984ac0,37,0,2024-02-28T15:07:45.574Z,french_120.wav,0,pull,281,30,5,4,ENGLISH,M,3,0.3,-11.4581745,0.92298319
600235988c6b062314984ac0,37,0,2024-02-28T15:07:45.574Z,french_120.wav,0,pull,281,30,5,4,ENGLISH,M,4,0.4,-45.99069763,0.35602146
600235988c6b062314984ac0,37,0,2024-02-28T15:07:45.574Z,french_120.wav,0,pull,281,30,5,4,ENGLISH,M,5,0.5,-43.61865699,0.39625722
600235988c6b062314984ac0,37,0,2024-02-28T15:07:45.574Z,french_120.wav,0,pull,281,30,5,4,ENGLISH,M,6,0.6,-44.83604124,1.05367551
600235988c6b062314984ac0,37,0,2024-02-28T15:07:45.574Z,french_120.wav,0,pull,281,30,5,4,ENGLISH,M,7,0.7,-8.86769407,1.01432352
600235988c6b062314984ac0,37,0,2024-02-28T15:07:45.574Z,french_120.wav,0,pull,281,30,5,4,ENGLISH,M,8,0.8,63.33461413,1.39909629
600235988c6b062314984ac0,37,0,2024-02-28T15:07:45.574Z,french_120.wav,0,pull,281,30,5,4,ENGLISH,M,9,0.9,-71.92792016,1.4024389
600235988c6b062314984ac0,37,0,2024-02-28T15:07:45.574Z,french_120.wav,0,pull,281,30,5,4,ENGLISH,M,10,1.0,76.65131092,0.62839034
600235988c6b062314984ac0,37,0,2024-02-28T15:07:45.574Z,french_120.wav,0,pull,281,30,5,4,ENGLISH,M,11,1.1,60.1037415,0.42144028
600235988c6b062314984ac0,37,0,2024-02-28T15:07:45.574Z,french_120.wav,0,pull,281,30,5,4,ENGLISH,M,12,1.14141667,-22.4064568,0.48383485
600235988c6b062314984ac0,38,0,2024-02-28T15:07:45.574Z,french_482.wav,0,pull,294,30,5,4,ENGLISH,M,0,0.0,36.72288444,1.71224607
600235988c6b062314984ac0,38,0,2024-02-28T15:07:45.574Z,french_482.wav,0,pull,294,30,5,4,ENGLISH,M,1,0.1,-74.37204682,0.20516288
600235988c6b062314984ac0,38,0,2024-02-28T15:07:45.574Z,french_482.wav,0,pull,294,30,5,4,ENGLISH,M,2,0.2,71.13468821,1.69371904
600235988c6b062314984ac0,38,0,2024-02-28T15:07:45.574Z,french_482.wav,0,pull,294,30,5,4,ENGLISH,M,3,0.3,50.33353405,0.83336109
600235988c6b062314984ac0,38,0,2024-02-28T15:07:45.574Z,french_482.wav,0,pull,294,30,5,4,ENGLISH,M,4,0.4,84.34534451,1.46966602
600235988c6b062314984ac0,38,0,2024-02-28T15:07:45.574Z,french_482.wav,0,pull,294,30,5,4,ENGLISH,M,5,0.5,66.25922436,1.44499697
600235988c6b062314984ac0,38,0,2024-02-28T15:07:45.574Z,french_482.wav,0,pull,294,30,5,4,ENGLISH,M,6,0.6,76.17786366,0.96988956
600235988c6b062314984ac0,38,0,2024-02-28T15:07:45.574Z,french_482.wav,0,pull,294,30,5,4,ENGLISH,M,7,0.7,25.96769523,1.07990301
600235988c6b062314984ac0,38,0,2024-02-28T15:07:45.574Z,french_482.wav,0,pull,294,30,5,4,ENGLISH,M,8,0.8,39.78352371,0.07233571
600235988c6b062314984ac0,38,0,2024-02-28T15:07:45.574Z,french_482.wav,0,pull,294,30,5,4,ENGLISH,M,9,0.9,-88.77774388,0.97924424
600235988c6b062314984ac0,38,0,2024-02-28T15:07:45.574Z,french_482.wav,0,pull,294,30,5,4,ENGLISH,M,10,1.0,9.74099179,0.13542435
600235988c6b062314984ac0,38,0,2024-02-28T15:07:45.574Z,french_482.wav,0,pull,294,30,5,4,ENGLISH,M,11,1.1,-60.17796236,1.07133794
600235988c6b062314984ac0,38,0,2024-02-28T15:07:45.574Z,french_482.wav,0,pull,294,30,5,4,ENGLISH,M,12,1.14141667,-10.34898014,0.76477886
600235988c6b062314984ac0,39,0,2024-02-28T15:07:45.574Z,french_445.wav,0,pull,616,30,5,4,ENGLISH,M,0,0.0,-13.69643402,0.73484181
600235988c6b062314984ac0,39,0,2024-02-28T15:07:45.574Z,french_445.wav,0,pull,616,30,5,4,ENGLISH,M,1,0.1,36.92445062,1.41360661
600235988c6b062314984ac0,39,0,2024-02-28T15:07:45.574Z,french_445.wav,0,pull,616,30,5,4,ENGLISH,M,2,0.2,21.43114689,0.52466555
600235988c6b062314984ac0,39,0,2024-02-28T15:07:45.574Z,french_445.wav,0,pull,616,30,5,4,ENGLISH,M,3,0.3,24.77090101,1.58726839
600235988c6b062314984ac0,39,0,2024-02-28T15:07:45.574Z,french_445.wav,0,pull,616,30,5,4,ENGLISH,M,4,0.4,77.265015,1.42575361
600235988c6b062314984ac0,39,0,2024-02-28T15:07:45.574Z,french_445.wav,0,pull,616,30,5,4,ENGLISH,M,5,0.5,28.30807518,1.55292683
600235988c6b062314984ac0,39,0,2024-02-28T15:07:45.574Z,french_445.wav,0,pull,616,30,5,4,ENGLISH,M,6,0.6,18.43259479,0.02964328
600235988c6b062314984ac0,39,0,2024-02-28T15:07:45.574Z,french_445.wav,0,pull,616,30,5,4,ENGLISH,M,7,0.7,-79.61204071,1.36780768
600235988c6b062314984ac0,39,0,2024-02-28T15:07:45.574Z,french_445.wav,0,pull,616,30,5,4,ENGLISH,M,8,0.8,80.96656343,0.02073761
600235988c6b062314984ac0,39,0,2024-02-28T15:07:45.574Z,french_445.wav,0,pull,616,30,5,4,ENGLISH,M,9,0.9,-8.33056755,0.3007781
600235988c6b062314984ac0,39,0,2024-02-28T15:07:45.574Z,french_445.wav,0,pull,616,30,5,4,ENGLISH,M,10,1.0,-7.46638384,0.17343981
600235988c6b062314984ac0,39,0,2024-02-28T15:07:45.574Z,french_445.wav,0,pull,616,30,5,4,ENGLISH,M,11,1.1,-0.65732392,0.65758319
600235988c6b062314984ac0,39,0,2024-02-28T15:07:45.574Z,french_445.wav,0,pull,616,30,5,4,ENGLISH,M,12,1.14141667,-17.80379885,0.41522681
600235988c6b062314984ac0,40,0,2024-02-28T15:07:45.574Z,french_591.wav,0,poule,96,30,5,4,ENGLISH,M,0,0.0,-5.82682539,0.88855192
600235988c6b062314984ac0,40,0,2024-02-28T15:07:45.574Z,french_591.wav,0,poule,96,30,5,4,ENGLISH,M,1,0.1,-81.3701121,1.90878683
600235988c6b062314984ac0,40,0,2024-02-28T15:07:45.574Z,french_591.wav,0,poule,96,30,5,4,ENGLISH,M,2,0.2,-37.81307084,1.23278863
600235988c6b062314984ac0,40,0,2024-02-28T15:07:45.574Z,french_591.wav,0,poule,96,30,5,4,ENGLISH,M,3,0.3,-54.8531106,0.97291582
600235988c6b062314984ac0,40,0,2024-02-28T15:07:45.574Z,french_591.wav,0,poule,96,30,5,4,ENGLISH,M,4,0.4,-95.72600512,0.20433373
600235988c6b062314984ac0,40,0,2024-02-28T15:07:45.574Z,french_591.wav,0,poule,96,30,5,4,ENGLISH,M,5,0.5,-64.2370476,0.04434128
600235988c6b062314984ac0,40,0,2024-02-28T15:07:45.574Z,french_591.wav,0,poule,96,30,5,4,ENGLISH,M,6,0.6,-10.02239509,0.78703084
600235988c6b062314984ac0,40,0,2024-02-28T15:07:45.574Z,french_591.wav,0,poule,96,30,5,4,ENGLISH,M,7,0.7,7.04740233,1.11175391
600235988c6b062314984ac0,40,0,2024-02-28T15:07:45.574Z,french_591.wav,0,poule,96,30,5,4,ENGLISH,M,8,0.8,-22.95032107,1.30696314
600235988c6b062314984ac0,40,0,2024-02-28T15:07:45.574Z,french_591.wav,0,poule,96,30,5,4,ENGLISH,M,9,0.9,-34.18626931,1.87549286
600235988c6b062314984ac0,40,0,2024-02-28T15:07:45.574Z,french_591.wav,0,poule,96,30,5,4,ENGLISH,M,10,1.0,-3.98772991,0.82720637
600235988c6b062314984ac0,40,0,2024-02-28T15:07:45.574Z,french_591.wav,0,poule,96,30,5,4,ENGLISH,M,11,1.1,57.60407051,0.42168684
600235988c6b062314984ac0,40,0,2024-02-28T15:07:45.574Z,french_591.wav,0,poule,96,30,5,4,ENGLISH,M,12,1.14141667,-76.01985318,1.24091325
600235988c6b062314984ac0,41,0,2024-02-28T15:07:45.574Z,french_305.wav,0,pull,347,30,5,4,ENGLISH,M,0,0.0,-77.20906853,1.73587013
600235988c6b062314984ac0,41,0,2024-02-28T15:07:45.574Z,french_305.wav,0,pull,347,30,5,4,ENGLISH,M,1,0.1,64.89199308,0.77294131
600235988c6b062314984ac0,41,0,2024-02-28T15:07:45.574Z,french_305.wav,0,pull,347,30,5,4,ENGLISH,M,2,0.2,7.69054885,0.32837419
600235988c6b062314984ac0,41,0,2024-02-28T15:07:45.574Z,french_305.wav,0,pull,347,30,5,4,ENGLISH,M,3,0.3,-47.6141874,1.19216591
600235988c6b062314984ac0,41,0,2024-02-28T15:07:45.574Z,french_305.wav,0,pull,347,30,5,4,ENGLISH,M,4,0.4,24.82339494,0.80149681
600235988c6b062314984ac0,41,0,2024-02-28T15:07:45.574Z,french_305.wav,0,pull,347,30,5,4,ENGLISH,M,5,0.5,20.18926417,0.39729394
600235988c6b062314984ac0,41,0,2024-02-28T15:07:45.574Z,french_305.wav,0,pull,347,30,5,4,ENGLISH,M,6,0.6,-54.4743451,0.54085328
600235988c6b062314984ac0,41,0,2024-02-28T15:07:45.574Z,french_305.wav,0,pull,347,30,5,4,ENGLISH,M,7,0.7,41.07397409,0.8068405
600235988c6b062314984ac0,41,0,2024-02-28T15:07:45.574Z,french_305.wav,0,pull,347,30,5,4,ENGLISH,M,8,0.8,-19.05084731,1.23639766
600235988c6b062314984ac0,41,0,2024-02-28T15:07:45.574Z,french_305.wav,0,pull,347,30,5,4,ENGLISH,M,9,0.9,-20.13915126,0.28852647
600235988c6b062314984ac0,41,0,2024-02-28T15:07:45.574Z,french_305.wav,0,pull,347,30,5,4,ENGLISH,M,10,1.0,-3.97340908,1.66872212
600235988c6b062314984ac0,41,0,2024-02-28T15:07:45.574Z,french_305.wav,0,pull,347,30,5,4,ENGLISH,M,11,1.1,88.43102232,1.65649633
600235988c6b062314984ac0,41,0,2024-02-28T15:07:45.574Z,french_305.wav,0,pull,347,30,5,4,ENGLISH,M,12,1.14141667,5.13824531,1.61177863
600235988c6b062314984ac0,42,0,2024-02-28T15:07:45.574Z,french_181.wav,0,pull,80,30,5,4,ENGLISH,M,0,0.0,-95.95313982,0.44165639
600235988c6b062314984ac0,42,0,2024-02-28T15:07:45.574Z,french_181.wav,0,pull,80,30,5,4,ENGLISH,M,1,0.1,91.63677354,1.91213413
600235988c6b062314984ac0,42,0,2024-02-28T15:07:45.574Z,french_181.wav,0,pull,80,30,5,4,ENGLISH,M,2,0.2,-91.79980108,1.20479938
600235988c6b062314984ac0,42,0,2024-02-28T15:07:45.574Z,french_181.wav,0,pull,80,30,5,4,ENGLISH,M,3,0.3,95.40210499,1.03854449
600235988c6b062314984ac0,42,0,2024-02-28T15:07:45.574Z,french_181.wav,0,pull,80,30,5,4,ENGLISH,M,4,0.4,68.17989767,0.34466606
600235988c6b062314984ac0,42,0,2024-02-28T15:07:45.574Z,french_181.wav,0,pull,80,30,5,4,ENGLISH,M,5,0.5,91.86803384,1.08947615
600235988c6b062314984ac0,42,0,2024-02-28T15:07:45.574Z,french_181.wav,0,pull,80,30,5,4,ENGLISH,M,6,0.6,20.20115402,0.89950013
600235988c6b062314984ac0,42,0,2024-02-28T15:07:45.574Z,french_181.wav,0,pull,80,30,5,4,ENGLISH,M,7,0.7,-36.24540979,1.58660506
600235988c6b062314984ac0,42,0,2024-02-28T15:07:45.574Z,french_181.wav,0,pull,80,30,5,4,ENGLISH,M,8,0.8,20.77489363,1.10035668
600235988c6b062314984ac0,42,0,2024-02-28T15:07:45.574Z,french_181.wav,0,pull,80,30,5,4,ENGLISH,M,9,0.9,-36.30620857,1.78772501
600235988c6b062314984ac0,42,0,2024-02-28T15:07:45.574Z,french_181.wav,0,pull,80,30,5,4,ENGLISH,M,10,1.0,-52.43059698,0.45092467
600235988c6b062314984ac0,42,0,2024-02-28T15:07:45.574Z,french_181.wav,0,pull,80,30,5,4,ENGLISH,M,11,1.1,-66.44451369,1.08205846
600235988c6b062314984ac0,42,0,2024-02-28T15:07:45.574Z,french_181.wav,0,pull,80,30,5,4,ENGLISH,M,12,1.14141667,-36.9073082,1.12829283
600235988c6b062314984ac0,43,0,2024-02-28T15:07:45.574Z,french_273.wav,0,poule,226,30,5,4,ENGLISH,M,0,0.0,0.7190916,0.53676655
600235988c6b062314984ac0,43,0,2024-02-28T15:07:45.574Z,french_273.wav,0,poule,226,30,5,4,ENGLISH,M,1,0.1,97.83891779,1.54358622
600235988c6b062314984ac0,43,0,2024-02-28T15:07:45.574Z,french_273.wav,0,poule,226,30,5,4,ENGLISH,M,2,0.2,60.36727917,0.47152348
600235988c6b062314984ac0,43,0,2024-02-28T15:07:45.574Z,french_273.wav,0,poule,226,30,5,4,ENGLISH,M,3,0.3,75.34562321,1.2590705
600235988c6b062314984ac0,43,0,2024-02-28T15:07:45.574Z,french_273.wav,0,poule,226,30,5,4,ENGLISH,M,4,0.4,-49.29676333,1.86837956
600235988c6b062314984ac0,43,0,2024-02-28T15:07:45.574Z,french_273.wav,0,poule,226,30,5,4,ENGLISH,M,5,0.5,66.1161099,0.9921972
600235988c6b062314984ac0,43,0,2024-02-28T15:07:45.574Z,french_273.wav,0,poule,226,30,5,4,ENGLISH,M,6,0.6,47.59795939,0.68574852
600235988c6b062314984ac0,43,0,2024-02-28T15:07:45.574Z,french_273.wav,0,poule,226,30,5,4,ENGLISH,M,7,0.7,-57.87962131,1.86045002
600235988c6b062314984ac0,43,0,2024-02-28T15:07:45.574Z,french_273.wav,0,poule,226,30,5,4,ENGLISH,M,8,0.8,81.42088192,1.53065292
600235988c6b062314984ac0,43,0,2024-02-28T15:07:45.574Z,french_273.wav,0,poule,226,30,5,4,ENGLISH,M,9,0.9,-40.71214973,1.34276988
600235988c6b062314984ac0,43,0,2024-02-28T15:07:45.574Z,french_273.wav,0,poule,226,30,5,4,ENGLISH,M,10,1.0,21.35486497,1.27786291
600235988c6b062314984ac0,43,0,2024-02-28T15:07:45.574Z,french_273.wav,0,poule,226,30,5,4,ENGLISH,M,11,1.1,48.12506042,1.11936535
600235988c6b062314984ac0,43,0,2024-02-28T15:07:45.574Z,french_273.wav,0,poule,226,30,5,4,ENGLISH,M,12,1.14141667,82.77823336,0.95547805
600235988c6b062314984ac0,44,0,2024-02-28T15:07:45.574Z,french_1000.wav,0,pull,158,30,5,4,ENGLISH,M,0,0.0,-73.98132077,1.64837678
600235988c6b062314984ac0,44,0,2024-02-28T15:07:45.574Z,french_1000.wav,0,pull,158,30,5,4,ENGLISH,M,1,0.1,-83.83733432,1.32001696
600235988c6b062314984ac0,44,0,2024-02-28T15:07:45.574Z,french_1000.wav,0,pull,158,30,5,4,ENGLISH,M,2,0.2,-83.30675493,0.03425321
600235988c6b062314984ac0,44,0,2024-02-28T15:07:45.574Z,french_1000.wav,0,pull,158,30,5,4,ENGLISH,M,3,0.3,-49.21206924,0.20047346
600235988c6b062314984ac0,44,0,2024-02-28T15:07:45.574Z,french_1000.wav,0,pull,158,30,5,4,ENGLISH,M,4,0.4,-37.38094521,0.89388677
600235988c6b062314984ac0,44,0,2024-02-28T15:07:45.574Z,french_1000.wav,0,pull,158,30,5,4,ENGLISH,M,5,0.5,-61.96244664,0.07979432
600235988c6b062314984ac0,44,0,2024-02-28T15:07:45.574Z,french_1000.wav,0,pull,158,30,5,4,ENGLISH,M,6,0.6,40.57719873,0.5706929
600235988c6b062314984ac0,44,0,2024-02-28T15:07:45.574Z,french_1000.wav,0,pull,158,30,5,4,ENGLISH,M,7,0.7,45.24625978,1.02426669
600235988c6b062314984ac0,44,0,2024-02-28T15:07:45.574Z,french_1000.wav,0,pull,158,30,5,4,ENGLISH,M,8,0.8,29.16975885,0.29678573
600235988c6b062314984ac0,44,0,2024-02-28T15:07:45.574Z,french_1000.wav,0,pull,158,30,5,4,ENGLISH,M,9,0.9,53.55403055,1.45432924
600235988c6b062314984ac0,44,0,2024-02-28T15:07:45.574Z,french_1000.wav,0,pull,158,30,5,4,ENGLISH,M,10,1.0,28.77440397,1.18477249
600235988c6b062314984ac0,44,0,2024-02-28T15:07:45.574Z,french_1000.wav,0,pull,158,30,5,4,ENGLISH,M,11,1.1,66.56850724,1.17453204
600235988c6b062314984ac0,44,0,2024-02-28T15:07:45.574Z,french_1000.wav,0,pull,158,30,5,4,ENGLISH,M,12,1.14141667,38.69421955,1.53712703
600235988c6b062314984ac0,45,0,2024-02-28T15:07:45.574Z,french_319.wav,0,poule,166,30,5,4,ENGLISH,M,0,0.0,-75.17146498,1.089409
600235988c6b062314984ac0,45,0,2024-02-28T15:07:45.574Z,french_319.wav,0,poule,166,30,5,4,ENGLISH,M,1,0.1,46.33935976,1.6263792
600235988c6b062314984ac0,45,0,2024-02-28T15:07:45.574Z,french_319.wav,0,poule,166,30,5,4,ENGLISH,M,2,0.2,-45.77559624,1.21732858
600235988c6b062314984ac0,45,0,2024-02-28T15:07:45.574Z,french_319.wav,0,poule,166,30,5,4,ENGLISH,M,3,0.3,9.72100852,1.37490977
600235988c6b062314984ac0,45,0,2024-02-28T15:07:45.574Z,french_319.wav,0,poule,166,30,5,4,ENGLISH,M,4,0.4,-30.50694127,0.6324598
600235988c6b062314984ac0,45,0,2024-02-28T15:07:45.574Z,french_319.wav,0,poule,166,30,5,4,ENGLISH,M,5,0.5,-94.17429558,1.7974238
600235988c6b062314984ac0,45,0,2024-02-28T15:07:45.574Z,french_319.wav,0,poule,166,30,5,4,ENGLISH,M,6,0.6,-28.13617215,0.57188639
600235988c6b062314984ac0,45,0,2024-02-28T15:07:45.574Z,french_319.wav,0,poule,166,30,5,4,ENGLISH,M,7,0.7,-28.4188466,1.86268987
600235988c6b062314984ac0,45,0,2024-02-28T15:07:45.574Z,french_319.wav,0,poule,166,30,5,4,ENGLISH,M,8,0.8,-90.88658969,0.77070175
600235988c6b062314984ac0,45,0,2024-02-28T15:07:45.574Z,french_319.wav,0,poule,166,30,5,4,ENGLISH,M,9,0.9,-86.52176531,0.98256413
600235988c6b062314984ac0,45,0,2024-02-28T15:07:45.574Z,french_319.wav,0,poule,166,30,5,4,ENGLISH,M,10,1.0,-71.77832171,1.81058431
600235988c6b062314984ac0,45,0,2024-02-28T15:07:45.574Z,french_319.wav,0,poule,166,30,5,4,ENGLISH,M,11,1.1,-45.71816919,0.40934231
600235988c6b062314984ac0,45,0,2024-02-28T15:07:45.574Z,french_319.wav,0,poule,166,30,5,4,ENGLISH,M,12,1.14141667,-83.07448419,1.33989868
600235988c6b062314984ac0,46,0,2024-02-28T15:07:45.574Z,french_449.wav,0,poule,1266,30,5,4,ENGLISH,M,0,0.0,48.07237211,1.574298
600235988c6b062314984ac0,46,0,2024-02-28T15:07:45.574Z,french_449.wav,0,poule,1266,30,5,4,ENGLISH,M,1,0.1,10.50044698,0.465888
600235988c6b062314984ac0,46,0,2024-02-28T15:07:45.574Z,french_449.wav,0,poule,1266,30,5,4,ENGLISH,M,2,0.2,99.10264915,1.49470087
600235988c6b062314984ac0,46,0,2024-02-28T15:07:45.574Z,french_449.wav,0,poule,1266,30,5,4,ENGLISH,M,3,0.3,44.97033086,1.26780995
600235988c6b062314984ac0,46,0,2024-02-28T15:07:45.574Z,french_449.wav,0,poule,1266,30,5,4,ENGLISH,M,4,0.4,-41.32684653,0.48746737
600235988c6b062314984ac0,46,0,2024-02-28T15:07:45.574Z,french_449.wav,0,poule,1266,30,5,4,ENGLISH,M,5,0.5,-79.7525466,0.73531069
600235988c6b062314984ac0,46,0,2024-02-28T15:07:45.574Z,french_449.wav,0,poule,1266,30,5,4,ENGLISH,M,6,0.6,50.40932694,0.94941626
600235988c6b062314984ac0,46,0,2024-02-28T15:07:45.574Z,french_449.wav,0,poule,1266,30,5,4,ENGLISH,M,7,0.7,52.6193965,1.08611184
600235988c6b062314984ac0,46,0,2024-02-28T15:07:45.574Z,french_449.wav,0,poule,1266,30,5,4,ENGLISH,M,8,0.8,-15.31474709,0.81949253
600235988c6b062314984ac0,46,0,2024-02-28T15:07:45.574Z,french_449.wav,0,poule,1266,30,5,4,ENGLISH,M,9,0.9,-28.04173939,1.27162102
600235988c6b062314984ac0,46,0,2024-02-28T15:07:45.574Z,french_449.wav,0,poule,1266,30,5,4,ENGLISH,M,10,1.0,9.78914311,1.38692301
600235988c6b062314984ac0,46,0,2024-02-28T15:07:45.574Z,french_449.wav,0,poule,1266,30,5,4,ENGLISH,M,11,1.1,-78.00931625,0.89469579
600235988c6b062314984ac0,46,0,2024-02-28T15:07:45.574Z,french_449.wav,0,poule,1266,30,5,4,ENGLISH,M,12,1.14141667,-11.66917093,1.6806745
600235988c6b062314984ac0,47,0,2024-02-28T15:07:45.574Z,french_544.wav,0,pull,305,30,5,4,ENGLISH,M,0,0.0,-47.38697201,1.0177879
600235988c6b062314984ac0,47,0,2024-02-28T15:07:45.574Z,french_544.wav,0,pull,305,30,5,4,ENGLISH,M,1,0.1,-45.74023633,0.424984919
600235988c6b062314984ac0,47,0,2024-02-28T15:07:45.574Z,french_544.wav,0,pull,305,30,5,4,ENGLISH,M,2,0.2,-60.42650725,1.22266415
600235988c6b062314984ac0,47,0,2024-02-28T15:07:45.574Z,french_544.wav,0,pull,305,30,5,4,ENGLISH,M,3,0.3,34.87343661,1.17261044
600235988c6b062314984ac0,47,0,2024-02-28T15:07:45.574Z,french_544.wav,0,pull,305,30,5,4,ENGLISH,M,4,0.4,-38.6627365,0.548694777
600235988c6b062314984ac0,47,0,2024-02-28T15:07:45.574Z,french_544.wav,0,pull,305,30,5,4,ENGLISH,M,5,0.5,58.40491157,0.114745734
600235988c6b062314984ac0,47,0,2024-02-28T15:07:45.574Z,french_544.wav,0,pull,305,30,5,4,ENGLISH,M,6,0.6,82.78266879,1.71917122
600235988c6b062314984ac0,47,0,2024-02-28T15:07:45.574Z,french_544.wav,0,pull,305,30,5,4,ENGLISH,M,7,0.7,-9.1273893,0.765473304
600235988c6b062314984ac0,47,0,2024-02-28T15:07:45.574Z,french_544.wav,0,pull,305,30,5,4,ENGLISH,M,8,0.8,-15.5781982,0.00141609463
600235988c6b062314984ac0,47,0,2024-02-28T15:07:45.574Z,french_544.wav,0,pull,305,30,5,4,ENGLISH,M,9,0.9,-12.87000269,1.43975833
600235988c6b062314984ac0,47,0,2024-02-28T15:07:45.574Z,french_544.wav,0,pull,305,30,5,4,ENGLISH,M,10,1.0,81.09749375,0.252670751
600235988c6b062314984ac0,47,0,2024-02-28T15:07:45.574Z,french_544.wav,0,pull,305,30,5,4,ENGLISH,M,11,1.1,-15.34697207,0.837637717
600235988c6b062314984ac0,47,0,2024-02-28T15:07:45.574Z,french_544.wav,0,pull,305,30,5,4,ENGLISH,M,12,1.14141667,-62.44527871,0.0125502453
600235988c6b062314984ac0,48,0,2024-02-28T15:07:45.574Z,french_455.wav,0,pull,581,30,5,4,ENGLISH,M,0,0.0,97.23318518,1.42070847
600235988c6b062314984ac0,48,0,2024-02-28T15:07:45.574Z,french_455.wav,0,pull,581,30,5,4,ENGLISH,M,1,0.1,48.08639517,1.64728295
600235988c6b062314984ac0,48,0,2024-02-28T15:07:45.574Z,french_455.wav,0,pull,581,30,5,4,ENGLISH,M,2,0.2,61.8031045,0.52625226
600235988c6b062314984ac0,48,0,2024-02-28T15:07:45.574Z,french_455.wav,0,pull,581,30,5,4,ENGLISH,M,3,0.3,44.32636259,1.94807365
600235988c6b062314984ac0,48,0,2024-02-28T15:07:45.574Z,french_455.wav,0,pull,581,30,5,4,ENGLISH,M,4,0.4,63.17767598,1.27082443
600235988c6b062314984ac0,48,0,2024-02-28T15:07:45.574Z,french_455.wav,0,pull,581,30,5,4,ENGLISH,M,5,0.5,-54.41448708,0.79589507
600235988c6b062314984ac0,48,0,2024-02-28T15:07:45.574Z,french_455.wav,0,pull,581,30,5,4,ENGLISH,M,6,0.6,-53.53900017,1.19859135
600235988c6b062314984ac0,48,0,2024-02-28T15:07:45.574Z,french_455.wav,0,pull,581,30,5,4,ENGLISH,M,7,0.7,-49.92334627,0.85657153
600235988c6b062314984ac0,48,0,2024-02-28T15:07:45.574Z,french_455.wav,0,pull,581,30,5,4,ENGLISH,M,8,0.8,90.53366068,0.02054138
600235988c6b062314984ac0,48,0,2024-02-28T15:07:45.574Z,french_455.wav,0,pull,581,30,5,4,ENGLISH,M,9,0.9,-49.34840938,0.22486809
600235988c6b062314984ac0,48,0,2024-02-28T15:07:45.574Z,french_455.wav,0,pull,581,30,5,4,ENGLISH,M,10,1.0,-93.62757111,0.86410151
600235988c6b062314984ac0,48,0,2024-02-28T15:07:45.574Z,french_455.wav,0,pull,581,30,5,4,ENGLISH,M,11,1.1,76.94440904,0.57262843
600235988c6b062314984ac0,48,0,2024-02-28T15:07:45.574Z,french_455.wav,0,pull,581,30,5,4,ENGLISH,M,12,1.14141667,-12.7256322,1.52956366
600235988c6b062314984ac0,49,0,2024-02-28T15:07:45.574Z,french_714.wav,0,poule,68,30,5,4,ENGLISH,M,0,0.0,95.90344611,0.85575765
600235988c6b062314984ac0,49,0,2024-02-28T15:07:45.574Z,french_714.wav,0,poule,68,30,5,4,ENGLISH,M,1,0.1,-24.72262082,0.99109068
600235988c6b062314984ac0,49,0,2024-02-28T15:07:45.574Z,french_714.wav,0,poule,68,30,5,4,ENGLISH,M,2,0.2,59.37227344,0.51789898
600235988c6b062314984ac0,49,0,2024-02-28T15:07:45.574Z,french_714.wav,0,poule,68,30,5,4,ENGLISH,M,3,0.3,-27.1741591,0.15135155
600235988c6b062314984ac0,49,0,2024-02-28T15:07:45.574Z,french_714.wav,0,poule,68,30,5,4,ENGLISH,M,4,0.4,45.66784268,0.88454916
600235988c6b062314984ac0,49,0,2024-02-28T15:07:45.574Z,french_714.wav,0,poule,68,30,5,4,ENGLISH,M,5,0.5,-18.42560325,0.71216205
600235988c6b062314984ac0,49,0,2024-02-28T15:07:45.574Z,french_714.wav,0,poule,68,30,5,4,ENGLISH,M,6,0.6,22.13445338,0.59963982
600235988c6b062314984ac0,49,0,2024-02-28T15:07:45.574Z,french_714.wav,0,poule,68,30,5,4,ENGLISH,M,7,0.7,66.94076888,1.6442642
600235988c6b062314984ac0,49,0,2024-02-28T15:07:45.574Z,french_714.wav,0,poule,68,30,5,4,ENGLISH,M,8,0.8,57.76397855,1.16580862
600235988c6b062314984ac0,49,0,2024-02-28T15:07:45.574Z,french_714.wav,0,poule,68,30,5,4,ENGLISH,M,9,0.9,-44.74008532,0.14338442
600235988c6b062314984ac0,49,0,2024-02-28T15:07:45.574Z,french_714.wav,0,poule,68,30,5,4,ENGLISH,M,10,1.0,2.87251243,1.85438603
600235988c6b062314984ac0,49,0,2024-02-28T15:07:45.574Z,french_714.wav,0,poule,68,30,5,4,ENGLISH,M,11,1.1,-46.16839405,1.87453004
600235988c6b062314984ac0,49,0,2024-02-28T15:07:45.574Z,french_714.wav,0,poule,68,30,5,4,ENGLISH,M,12,1.14141667,-2.68285776,0.8079694
600235988c6b062314984ac0,50,1,2024-02-28T15:07:45.574Z,french_596.wav,0,poule,19,30,5,4,ENGLISH,M,0,0.0,25.32476691,0.41173588
600235988c6b062314984ac0,50,1,2024-02-28T15:07:45.574Z,french_596.wav,0,poule,19,30,5,4,ENGLISH,M,1,0.1,44.36074842,1.74625808
600235988c6b062314984ac0,50,1,2024-02-28T15:07:45.574Z,french_596.wav,0,poule,19,30,5,4,ENGLISH,M,2,0.2,-34.00000172,0.12743898
600235988c6b062314984ac0,50,1,2024-02-28T15:07:45.574Z,french_596.wav,0,poule,19,30,5,4,ENGLISH,M,3,0.3,-83.97211332,1.08814614
600235988c6b062314984ac0,50,1,2024-02-28T15:07:45.574Z,french_596.wav,0,poule,19,30,5,4,ENGLISH,M,4,0.4,-67.81285243,1.40676606
600235988c6b062314984ac0,50,1,2024-02-28T15:07:45.574Z,french_596.wav,0,poule,19,30,5,4,ENGLISH,M,5,0.5,-47.23063602,1.58344919
600235988c6b062314984ac0,50,1,2024-02-28T15:07:45.574Z,french_596.wav,0,poule,19,30,5,4,ENGLISH,M,6,0.6,16.74337834,1.02150308
600235988c6b062314984ac0,50,1,2024-02-28T15:07:45.574Z,french_596.wav,0,poule,19,30,5,4,ENGLISH,M,7,0.7,8.70571627,0.52497255
600235988c6b062314984ac0,50,1,2024-02-28T15:07:45.574Z,french_596.wav,0,poule,19,30,5,4,ENGLISH,M,8,0.8,-11.2153712,1.52228575
600235988c6b062314984ac0,50,1,2024-02-28T15:07:45.574Z,french_596.wav,0,poule,19,30,5,4,ENGLISH,M,9,0.9,-38.44147327,0.06700932
600235988c6b062314984ac0,50,1,2024-02-28T15:07:45.574Z,french_596.wav,0,poule,19,30,5,4,ENGLISH,M,10,1.0,57.69114878,1.44433383
600235988c6b062314984ac0,50,1,2024-02-28T15:07:45.574Z,french_596.wav,0,poule,19,30,5,4,ENGLISH,M,11,1.1,50.03997699,0.49967239
600235988c6b062314984ac0,50,1,2024-02-28T15:07:45.574Z,french_596.wav,0,poule,19,30,5,4,ENGLISH,M,12,1.14141667,-17.41619031,0.57328506
600235988c6b062314984ac0,51,1,2024-02-28T15:07:45.574Z,french_733.wav,0,pull,311,30,5,4,ENGLISH,M,0,0.0,-28.30259207,0.49045242
600235988c6b062314984ac0,51,1,2024-02-28T15:07:45.574Z,french_733.wav,0,pull,311,30,5,4,ENGLISH,M,1,0.1,-20.51655877,0.41105181
600235988c6b062314984ac0,51,1,2024-02-28T15:07:45.574Z,french_733.wav,0,pull,311,30,5,4,ENGLISH,M,2,0.2,32.67834183,0.51992236
600235988c6b062314984ac0,51,1,2024-02-28T15:07:45.574Z,french_733.wav,0,pull,311,30,5,4,ENGLISH,M,3,0.3,6.62547625,0.5442563
600235988c6b062314984ac0,51,1,2024-02-28T15:07:45.574Z,french_733.wav,0,pull,311,30,5,4,ENGLISH,M,4,0.4,-74.88223305,1.50191258
600235988c6b062314984ac0,51,1,2024-02-28T15:07:45.574Z,french_733.wav,0,pull,311,30,5,4,ENGLISH,M,5,0.5,78.7904108,0.7960124
600235988c6b062314984ac0,51,1,2024-02-28T15:07:45.574Z,french_733.wav,0,pull,311,30,5,4,ENGLISH,M,6,0.6,92.741833,1.55647812
600235988c6b062314984ac0,51,1,2024-02-28T15:07:45.574Z,french_733.wav,0,pull,311,30,5,4,ENGLISH,M,7,0.7,-51.74379755,0.75813018
600235988c6b062314984ac0,51,1,2024-02-28T15:07:45.574Z,french_733.wav,0,pull,311,30,5,4,ENGLISH,M,8,0.8,0.26100759,1.97775979
600235988c6b062314984ac0,51,1,2024-02-28T15:07:45.574Z,french_733.wav,0,pull,311,30,5,4,ENGLISH,M,9,0.9,80.00528442,1.24266335
600235988c6b062314984ac0,51,1,2024-02-28T15:07:45.574Z,french_733.wav,0,pull,311,30,5,4,ENGLISH,M,10,1.0,-20.98835091,0.70545845
600235988c6b062314984ac0,51,1,2024-02-28T15:07:45.574Z,french_733.wav,0,pull,311,30,5,4,ENGLISH,M,11,1.1,-67.79194344,0.86751529
600235988c6b062314984ac0,51,1,2024-02-28T15:07:45.574Z,french_733.wav,0,pull,311,30,5,4,ENGLISH,M,12,1.14141667,20.39044297,1.05140742
600235988c6b062314984ac0,52,1,2024-02-28T15:07:45.574Z,french_147.wav,0,poule,163,30,5,4,ENGLISH,M,0,0.0,43.59768472,0.75883139
600235988c6b062314984ac0,52,1,2024-02-28T15:07:45.574Z,french_147.wav,0,poule,163,30,5,4,ENGLISH,M,1,0.1,5.27615481,0.68857604
600235988c6b062314984ac0,52,1,2024-02-28T15:07:45.574Z,french_147.wav,0,poule,163,30,5,4,ENGLISH,M,2,0.2,-44.61195544,1.03649149
600235988c6b062314984ac0,52,1,2024-02-28T15:07:45.574Z,french_147.wav,0,poule,163,30,5,4,ENGLISH,M,3,0.3,-76.96509144,1.25844465
600235988c6b062314984ac0,52,1,2024-02-28T15:07:45.574Z,french_147.wav,0,poule,163,30,5,4,ENGLISH,M,4,0.4,-32.44980634,0.35823479
600235988c6b062314984ac0,52,1,2024-02-28T15:07:45.574Z,french_147.wav,0,poule,163,30,5,4,ENGLISH,M,5,0.5,70.43396506,1.36921243
600235988c6b062314984ac0,52,1,2024-02-28T15:07:45.574Z,french_147.wav,0,poule,163,30,5,4,ENGLISH,M,6,0.6,-38.3254351,1.21356569
600235988c6b062314984ac0,52,1,2024-02-28T15:07:45.574Z,french_147.wav,0,poule,163,30,5,4,ENGLISH,M,7,0.7,52.08578881,0.98986047
600235988c6b062314984ac0,52,1,2024-02-28T15:07:45.574Z,french_147.wav,0,poule,163,30,5,4,ENGLISH,M,8,0.8,-28.17308576,1.9051095
600235988c6b062314984ac0,52,1,2024-02-28T15:07:45.574Z,french_147.wav,0,poule,163,30,5,4,ENGLISH,M,9,0.9,-10.89832162,1.35815009
600235988c6b062314984ac0,52,1,2024-02-28T15:07:45.574Z,french_147.wav,0,poule,163,30,5,4,ENGLISH,M,10,1.0,75.90492901,1.54610858
600235988c6b062314984ac0,52,1,2024-02-28T15:07:45.574Z,french_147.wav,0,poule,163,30,5,4,ENGLISH,M,11,1.1,18.84686186,1.77017923
600235988c6b062314984ac0,52,1,2024-02-28T15:07:45.574Z,french_147.wav,0,poule,163,30,5,4,ENGLISH,M,12,1.14141667,-70.82963066,1.1558003
600235988c6b062314984ac0,53,1,2024-02-28T15:07:45.574Z,french_324.wav,0,poule,317,30,5,4,ENGLISH,M,0,0.0,29.48435579,0.24977075
600235988c6b062314984ac0,53,1,2024-02-28T15:07:45.574Z,french_324.wav,0,poule,317,30,5,4,ENGLISH,M,1,0.1,-12.86077023,0.60660691
600235988c6b062314984ac0,53,1,2024-02-28T15:07:45.574Z,french_324.wav,0,poule,317,30,5,4,ENGLISH,M,2,0.2,46.37578497,0.99456154
600235988c6b062314984ac0,53,1,2024-02-28T15:07:45.574Z,french_324.wav,0,poule,317,30,5,4,ENGLISH,M,3,0.3,-59.94288497,0.72384829
600235988c6b062314984ac0,53,1,2024-02-28T15:07:45.574Z,french_324.wav,0,poule,317,30,5,4,ENGLISH,M,4,0.4,-53.99559511,1.72248011
600235988c6b062314984ac0,53,1,2024-02-28T15:07:45.574Z,french_324.wav,0,poule,317,30,5,4,ENGLISH,M,5,0.5,45.88563697,1.3825471
600235988c6b062314984ac0,53,1,2024-02-28T15:07:45.574Z,french_324.wav,0,poule,317,30,5,4,ENGLISH,M,6,0.6,-44.14854504,1.83694132
600235988c6b062314984ac0,53,1,2024-02-28T15:07:45.574Z,french_324.wav,0,poule,317,30,5,4,ENGLISH,M,7,0.7,-61.31230077,1.25302686
600235988c6b062314984ac0,53,1,2024-02-28T15:07:45.574Z,french_324.wav,0,poule,317,30,5,4,ENGLISH,M,8,0.8,44.45043245,0.61220659
600235988c6b062314984ac0,53,1,2024-02-28T15:07:45.574Z,french_324.wav,0,poule,317,30,5,4,ENGLISH,M,9,0.9,-5.57853866,1.12870649
600235988c6b062314984ac0,53,1,2024-02-28T15:07:45.574Z,french_324.wav,0,poule,317,30,5,4,ENGLISH,M,10,1.0,59.99037779,1.29442933
600235988c6b062314984ac0,53,1,2024-02-28T15:07:45.574Z,french_324.wav,0,poule,317,30,5,4,ENGLISH,M,11,1.1,-49.32219251,1.14424628
600235988c6b062314984ac0,53,1,2024-02-28T15:07:45.574Z,french_324.wav,0,poule,317,30,5,4,ENGLISH,M,12,1.14141667,81.26576792,1.85932034
600235988c6b062314984ac0,54,1,2024-02-28T15:07:45.574Z,french_667.wav,0,pull,225,30,5,4,ENGLISH,M,0,0.0,-3.23073543,0.36346463
600235988c6b062314984ac0,54,1,2024-02-28T15:07:45.574Z,french_667.wav,0,pull,225,30,5,4,ENGLISH,M,1,0.1,12.95388382,0.76986808
600235988c6b062314984ac0,54,1,2024-02-28T15:07:45.574Z,french_667.wav,0,pull,225,30,5,4,ENGLISH,M,2,0.2,-81.94464558,1.34448265
600235988c6b062314984ac0,54,1,2024-02-28T15:07:45.574Z,french_667.wav,0,pull,225,30,5,4,ENGLISH,M,3,0.3,-49.94767422,0.75161854
600235988c6b062314984ac0,54,1,2024-02-28T15:07:45.574Z,french_667.wav,0,pull,225,30,5,4,ENGLISH,M,4,0.4,55.78567477,0.06445757
600235988c6b062314984ac0,54,1,2024-02-28T15:07:45.574Z,french_667.wav,0,pull,225,30,5,4,ENGLISH,M,5,0.5,79.02111133,1.86844951
600235988c6b062314984ac0,54,1,2024-02-28T15:07:45.574Z,french_667.wav,0,pull,225,30,5,4,ENGLISH,M,6,0.6,-5.77186949,0.16436936
600235988c6b062314984ac0,54,1,2024-02-28T15:07:45.574Z,french_667.wav,0,pull,225,30,5,4,ENGLISH,M,7,0.7,53.00308605,0.4200212
600235988c6b062314984ac0,54,1,2024-02-28T15:07:45.574Z,french_667.wav,0,pull,225,30,5,4,ENGLISH,M,8,0.8,58.82898183,0.54306015
600235988c6b062314984ac0,54,1,2024-02-28T15:07:45.574Z,french_667.wav,0,pull,225,30,5,4,ENGLISH,M,9,0.9,46.90110707,0.49338547
600235988c6b062314984ac0,54,1,2024-02-28T15:07:45.574Z,french_667.wav,0,pull,225,30,5,4,ENGLISH,M,10,1.0,27.42439554,1.57738821
600235988c6b062314984ac0,54,1,2024-02-28T15:07:45.574Z,french_667.wav,0,pull,225,30,5,4,ENGLISH,M,11,1.1,-19.01601979,1.23039294
600235988c6b062314984ac0,54,1,2024-02-28T15:07:45.574Z,french_667.wav,0,pull,225,30,5,4,ENGLISH,M,12,1.14141667,63.4895526,1.7787343
600235988c6b062314984ac0,55,1,2024-02-28T15:07:45.574Z,french_187.wav,0,poule,236,30,5,4,ENGLISH,M,0,0.0,10.28681087,1.60740148
600235988c6b062314984ac0,55,1,2024-02-28T15:07:45.574Z,french_187.wav,0,poule,236,30,5,4,ENGLISH,M,1,0.1,-43.75211752,0.72460884
600235988c6b062314984ac0,55,1,2024-02-28T15:07:45.574Z,french_187.wav,0,poule,236,30,5,4,ENGLISH,M,2,0.2,93.36546932,1.32214639
600235988c6b062314984ac0,55,1,2024-02-28T15:07:45.574Z,french_187.wav,0,poule,236,30,5,4,ENGLISH,M,3,0.3,2.3887431,1.49726662
600235988c6b062314984ac0,55,1,2024-02-28T15:07:45.574Z,french_187.wav,0,poule,236,30,5,4,ENGLISH,M,4,0.4,-88.10950584,0.25906449
600235988c6b062314984ac0,55,1,2024-02-28T15:07:45.574Z,french_187.wav,0,poule,236,30,5,4,ENGLISH,M,5,0.5,1.03076455,0.40114852
600235988c6b062314984ac0,55,1,2024-02-28T15:07:45.574Z,french_187.wav,0,poule,236,30,5,4,ENGLISH,M,6,0.6,91.70644974,1.59716532
600235988c6b062314984ac0,55,1,2024-02-28T15:07:45.574Z,french_187.wav,0,poule,236,30,5,4,ENGLISH,M,7,0.7,47.13601313,1.6475427
600235988c6b062314984ac0,55,1,2024-02-28T15:07:45.574Z,french_187.wav,0,poule,236,30,5,4,ENGLISH,M,8,0.8,-63.76738084,0.86156779
600235988c6b062314984ac0,55,1,2024-02-28T15:07:45.574Z,french_187.wav,0,poule,236,30,5,4,ENGLISH,M,9,0.9,-32.68857969,0.45795952
600235988c6b062314984ac0,55,1,2024-02-28T15:07:45.574Z,french_187.wav,0,poule,236,30,5,4,ENGLISH,M,10,1.0,-14.27222191,1.30527242
600235988c6b062314984ac0,55,1,2024-02-28T15:07:45.574Z,french_187.wav,0,poule,236,30,5,4,ENGLISH,M,11,1.1,-46.17286194,1.82546632
600235988c6b062314984ac0,55,1,2024-02-28T15:07:45.574Z,french_187.wav,0,poule,236,30,5,4,ENGLISH,M,12,1.14141667,-70.61213148,0.2766624
600235988c6b062314984ac0,56,1,2024-02-28T15:07:45.574Z,french_978.wav,0,pull,136,30,5,4,ENGLISH,M,0,0.0,40.36214047,1.71110023
600235988c6b062314984ac0,56,1,2024-02-28T15:07:45.574Z,french_978.wav,0,pull,136,30,5,4,ENGLISH,M,1,0.1,27.48362985,0.87420818
600235988c6b062314984ac0,56,1,2024-02-28T15:07:45.574Z,french_978.wav,0,pull,136,30,5,4,ENGLISH,M,2,0.2,40.29852831,1.60194799
600235988c6b062314984ac0,56,1,2024-02-28T15:07:45.574Z,french_978.wav,0,pull,136,30,5,4,ENGLISH,M,3,0.3,-43.85061163,1.28609491
600235988c6b062314984ac0,56,1,2024-02-28T15:07:45.574Z,french_978.wav,0,pull,136,30,5,4,ENGLISH,M,4,0.4,67.88325766,1.65987261
600235988c6b062314984ac0,56,1,2024-02-28T15:07:45.574Z,french_978.wav,0,pull,136,30,5,4,ENGLISH,M,5,0.5,-16.70318953,1.36246258
600235988c6b062314984ac0,56,1,2024-02-28T15:07:45.574Z,french_978.wav,0,pull,136,30,5,4,ENGLISH,M,6,0.6,-33.19947882,1.20639467
600235988c6b062314984ac0,56,1,2024-02-28T15:07:45.574Z,french_978.wav,0,pull,136,30,5,4,ENGLISH,M,7,0.7,50.84300547,0.49083377
600235988c6b062314984ac0,56,1,2024-02-28T15:07:45.574Z,french_978.wav,0,pull,136,30,5,4,ENGLISH,M,8,0.8,85.59312257,0.35642981
600235988c6b062314984ac0,56,1,2024-02-28T15:07:45.574Z,french_978.wav,0,pull,136,30,5,4,ENGLISH,M,9,0.9,-72.45512146,1.25854162
600235988c6b062314984ac0,56,1,2024-02-28T15:07:45.574Z,french_978.wav,0,pull,136,30,5,4,ENGLISH,M,10,1.0,-13.92502552,1.89656772
600235988c6b062314984ac0,56,1,2024-02-28T15:07:45.574Z,french_978.wav,0,pull,136,30,5,4,ENGLISH,M,11,1.1,24.95517316,1.25997973
600235988c6b062314984ac0,56,1,2024-02-28T15:07:45.574Z,french_978.wav,0,pull,136,30,5,4,ENGLISH,M,12,1.14141667,-51.28447362,1.23391695
600235988c6b062314984ac0,57,1,2024-02-28T15:07:45.574Z,french_862.wav,0,poule,301,30,5,4,ENGLISH,M,0,0.0,-14.63662445,0.11578422
600235988c6b062314984ac0,57,1,2024-02-28T15:07:45.574Z,french_862.wav,0,poule,301,30,5,4,ENGLISH,M,1,0.1,28.45864879,0.2814116
600235988c6b062314984ac0,57,1,2024-02-28T15:07:45.574Z,french_862.wav,0,poule,301,30,5,4,ENGLISH,M,2,0.2,-0.68000434,0.85291147
600235988c6b062314984ac0,57,1,2024-02-28T15:07:45.574Z,french_862.wav,0,poule,301,30,5,4,ENGLISH,M,3,0.3,-26.73602813,1.69973262
600235988c6b062314984ac0,57,1,2024-02-28T15:07:45.574Z,french_862.wav,0,poule,301,30,5,4,ENGLISH,M,4,0.4,-7.71050008,1.01442459
600235988c6b062314984ac0,57,1,2024-02-28T15:07:45.574Z,french_862.wav,0,poule,301,30,5,4,ENGLISH,M,5,0.5,33.14788708,1.55366455
600235988c6b062314984ac0,57,1,2024-02-28T15:07:45.574Z,french_862.wav,0,poule,301,30,5,4,ENGLISH,M,6,0.6,78.18456635,0.0771969
600235988c6b062314984ac0,57,1,2024-02-28T15:07:45.574Z,french_862.wav,0,poule,301,30,5,4,ENGLISH,M,7,0.7,24.14901592,1.35224055
600235988c6b062314984ac0,57,1,2024-02-28T15:07:45.574Z,french_862.wav,0,poule,301,30,5,4,ENGLISH,M,8,0.8,45.35031598,0.5357761
600235988c6b062314984ac0,57,1,2024-02-28T15:07:45.574Z,french_862.wav,0,poule,301,30,5,4,ENGLISH,M,9,0.9,65.59077206,0.6562808
600235988c6b062314984ac0,57,1,2024-02-28T15:07:45.574Z,french_862.wav,0,poule,301,30,5,4,ENGLISH,M,10,1.0,11.68649512,0.44961624
600235988c6b062314984ac0,57,1,2024-02-28T15:07:45.574Z,french_862.wav,0,poule,301,30,5,4,ENGLISH,M,11,1.1,25.97419467,0.01039806
600235988c6b062314984ac0,57,1,2024-02-28T15:07:45.574Z,french_862.wav,0,poule,301,30,5,4,ENGLISH,M,12,1.14141667,-65.02919288,0.96489683
600235988c6b062314984ac0,58,1,2024-02-28T15:07:45.574Z,french_963.wav,0,pull,288,30,5,4,ENGLISH,M,0,0.0,-2.60515396,1.09825401
600235988c6b062314984ac0,58,1,2024-02-28T15:07:45.574Z,french_963.wav,0,pull,288,30,5,4,ENGLISH,M,1,0.1,-69.80600128,0.40228202
600235988c6b062314984ac0,58,1,2024-02-28T15:07:45.574Z,french_963.wav,0,pull,288,30,5,4,ENGLISH,M,2,0.2,-22.76975295,1.61918413
600235988c6b062314984ac0,58,1,2024-02-28T15:07:45.574Z,french_963.wav,0,pull,288,30,5,4,ENGLISH,M,3,0.3,47.94644455,0.40760169
600235988c6b062314984ac0,58,1,2024-02-28T15:07:45.574Z,french_963.wav,0,pull,288,30,5,4,ENGLISH,M,4,0.4,60.99924488,1.12429397
600235988c6b062314984ac0,58,1,2024-02-28T15:07:45.574Z,french_963.wav,0,pull,288,30,5,4,ENGLISH,M,5,0.5,-68.16371487,1.50749112
600235988c6b062314984ac0,58,1,2024-02-28T15:07:45.574Z,french_963.wav,0,pull,288,30,5,4,ENGLISH,M,6,0.6,16.07488466,0.65773223
600235988c6b062314984ac0,58,1,2024-02-28T15:07:45.574Z,french_963.wav,0,pull,288,30,5,4,ENGLISH,M,7,0.7,79.50423257,1.2210919
600235988c6b062314984ac0,58,1,2024-02-28T15:07:45.574Z,french_963.wav,0,pull,288,30,5,4,ENGLISH,M,8,0.8,-61.32959447,0.77742832
600235988c6b062314984ac0,58,1,2024-02-28T15:07:45.574Z,french_963.wav,0,pull,288,30,5,4,ENGLISH,M,9,0.9,61.1484988,0.45497553
600235988c6b062314984ac0,58,1,2024-02-28T15:07:45.574Z,french_963.wav,0,pull,288,30,5,4,ENGLISH,M,10,1.0,-89.32108127,1.00003594
600235988c6b062314984ac0,58,1,2024-02-28T15:07:45.574Z,french_963.wav,0,pull,288,30,5,4,ENGLISH,M,11,1.1,87.59092513,1.38056661
600235988c6b062314984ac0,58,1,2024-02-28T15:07:45.574Z,french_963.wav,0,pull,288,30,5,4,ENGLISH,M,12,1.14141667,33.6770082,0.82674617
600235988c6b062314984ac0,59,1,2024-02-28T15:07:45.574Z,french_131.wav,0,poule,231,30,5,4,ENGLISH,M,0,0.0,43.89869303,1.60661373
600235988c6b062314984ac0,59,1,2024-02-28T15:07:45.574Z,french_131.wav,0,poule,231,30,5,4,ENGLISH,M,1,0.1,1.87533794,1.45479188
600235988c6b062314984ac0,59,1,2024-02-28T15:07:45.574Z,french_131.wav,0,poule,231,30,5,4,ENGLISH,M,2,0.2,22.29443787,0.2596898
600235988c6b062314984ac0,59,1,2024-02-28T15:07:45.574Z,french_131.wav,0,poule,231,30,5,4,ENGLISH,M,3,0.3,80.0665813,0.92411688
600235988c6b062314984ac0,59,1,2024-02-28T15:07:45.574Z,french_131.wav,0,poule,231,30,5,4,ENGLISH,M,4,0.4,34.98439119,1.59995731
600235988c6b062314984ac0,59,1,2024-02-28T15:07:45.574Z,french_131.wav,0,poule,231,30,5,4,ENGLISH,M,5,0.5,-5.43009148,1.70569439
600235988c6b062314984ac0,59,1,2024-02-28T15:07:45.574Z,french_131.wav,0,poule,231,30,5,4,ENGLISH,M,6,0.6,51.77910051,0.57553958
600235988c6b062314984ac0,59,1,2024-02-28T15:07:45.574Z,french_131.wav,0,poule,231,30,5,4,ENGLISH,M,7,0.7,16.33164281,0.89044664
600235988c6b062314984ac0,59,1,2024-02-28T15:07:45.574Z,french_131.wav,0,poule,231,30,5,4,ENGLISH,M,8,0.8,2.69660121,0.56880668
600235988c6b062314984ac0,59,1,2024-02-28T15:07:45.574Z,french_131.wav,0,poule,231,30,5,4,ENGLISH,M,9,0.9,67.97713521,0.83892608
600235988c6b062314984ac0,59,1,2024-02-28T15:07:45.574Z,french_131.wav,0,poule,231,30,5,4,ENGLISH,M,10,1.0,-78.89064935,1.1265108
600235988c6b062314984ac0,59,1,2024-02-28T15:07:45.574Z,french_131.wav,0,poule,231,30,5,4,ENGLISH,M,11,1.1,3.66517483,0.22006075
