subj,trial,block,date,stim,stim_order,response,rt,age,english,french,language,sex,param_index,segment,pitch,stretch
64a83c3f17fdbbd04588c34a,0,0,2024-02-28T17:48:19.178Z,french_504.wav,0,poule,5644,30,5,3,english,m,0,0.0,-41.82140768,1.84770239
64a83c3f17fdbbd04588c34a,0,0,2024-02-28T17:48:19.178Z,french_504.wav,0,poule,5644,30,5,3,english,m,1,0.1,97.07530933,0.49171838
64a83c3f17fdbbd04588c34a,0,0,2024-02-28T17:48:19.178Z,french_504.wav,0,poule,5644,30,5,3,english,m,2,0.2,61.02388002,0.47472033
64a83c3f17fdbbd04588c34a,0,0,2024-02-28T17:48:19.178Z,french_504.wav,0,poule,5644,30,5,3,english,m,3,0.3,-27.18611965,1.44367117
64a83c3f17fdbbd04588c34a,0,0,2024-02-28T17:48:19.178Z,french_504.wav,0,poule,5644,30,5,3,english,m,4,0.4,-58.17917059,0.04505535
64a83c3f17fdbbd04588c34a,0,0,2024-02-28T17:48:19.178Z,french_504.wav,0,poule,5644,30,5,3,english,m,5,0.5,9.56156567,0.75389127
64a83c3f17fdbbd04588c34a,0,0,2024-02-28T17:48:19.178Z,french_504.wav,0,poule,5644,30,5,3,english,m,6,0.6,98.52665159,1.37136318
64a83c3f17fdbbd04588c34a,0,0,2024-02-28T17:48:19.178Z,french_504.wav,0,poule,5644,30,5,3,english,m,7,0.7,98.98825478,0.89733916
64a83c3f17fdbbd04588c34a,0,0,2024-02-28T17:48:19.178Z,french_504.wav,0,poule,5644,30,5,3,english,m,8,0.8,94.82792761,1.83341516
64a83c3f17fdbbd04588c34a,0,0,2024-02-28T17:48:19.178Z,french_504.wav,0,poule,5644,30,5,3,english,m,9,0.9,75.17568326,0.71992929
64a83c3f17fdbbd04588c34a,0,0,2024-02-28T17:48:19.178Z,french_504.wav,0,poule,5644,30,5,3,english,m,10,1.0,-46.15164739,0.35031196
64a83c3f17fdbbd04588c34a,0,0,2024-02-28T17:48:19.178Z,french_504.wav,0,poule,5644,30,5,3,english,m,11,1.1,73.71983811,0.61578475
64a83c3f17fdbbd04588c34a,0,0,2024-02-28T17:48:19.178Z,french_504.wav,0,poule,5644,30,5,3,english,m,12,1.14141667,48.12743652,0.73246634
64a83c3f17fdbbd04588c34a,1,0,2024-02-28T17:48:19.178Z,french_900.wav,0,poule,1101,30,5,3,english,m,0,0.0,17.12559696,0.28086039
64a83c3f17fdbbd04588c34a,1,0,2024-02-28T17:48:19.178Z,french_900.wav,0,poule,1101,30,5,3,english,m,1,0.1,-56.5671441,0.25898492
64a83c3f17fdbbd04588c34a,1,0,2024-02-28T17:48:19.178Z,french_900.wav,0,poule,1101,30,5,3,english,m,2,0.2,14.51884338,0.73738281
64a83c3f17fdbbd04588c34a,1,0,2024-02-28T17:48:19.178Z,french_900.wav,0,poule,1101,30,5,3,english,m,3,0.3,-18.58724125,0.53194872
64a83c3f17fdbbd04588c34a,1,0,2024-02-28T17:48:19.178Z,french_900.wav,0,poule,1101,30,5,3,english,m,4,0.4,60.24825847,1.1731198
64a83c3f17fdbbd04588c34a,1,0,2024-02-28T17:48:19.178Z,french_900.wav,0,poule,1101,30,5,3,english,m,5,0.5,37.11732505,1.44096814
64a83c3f17fdbbd04588c34a,1,0,2024-02-28T17:48:19.178Z,french_900.wav,0,poule,1101,30,5,3,english,m,6,0.6,64.67645387,1.04426766
64a83c3f17fdbbd04588c34a,1,0,2024-02-28T17:48:19.178Z,french_900.wav,0,poule,1101,30,5,3,english,m,7,0.7,-71.32739236,1.30561608
64a83c3f17fdbbd04588c34a,1,0,2024-02-28T17:48:19.178Z,french_900.wav,0,poule,1101,30,5,3,english,m,8,0.8,-29.12352211,0.38583175
64a83c3f17fdbbd04588c34a,1,0,2024-02-28T17:48:19.178Z,french_900.wav,0,poule,1101,30,5,3,english,m,9,0.9,-23.92624308,1.06522554
64a83c3f17fdbbd04588c34a,1,0,2024-02-28T17:48:19.178Z,french_900.wav,0,poule,1101,30,5,3,english,m,10,1.0,-44.03405283,1.24631605
64a83c3f17fdbbd04588c34a,1,0,2024-02-28T17:48:19.178Z,french_900.wav,0,poule,1101,30,5,3,english,m,11,1.1,-24.43123867,0.11257647
64a83c3f17fdbbd04588c34a,1,0,2024-02-28T17:48:19.178Z,french_900.wav,0,poule,1101,30,5,3,english,m,12,1.14141667,85.71719888,1.16173008
64a83c3f17fdbbd04588c34a,2,0,2024-02-28T17:48:19.178Z,french_437.wav,0,poule,653,30,5,3,english,m,0,0.0,41.80320752,0.30954333
64a83c3f17fdbbd04588c34a,2,0,2024-02-28T17:48:19.178Z,french_437.wav,0,poule,653,30,5,3,english,m,1,0.1,-33.81764788,1.22203572
64a83c3f17fdbbd04588c34a,2,0,2024-02-28T17:48:19.178Z,french_437.wav,0,poule,653,30,5,3,english,m,2,0.2,25.70425251,0.04102161
64a83c3f17fdbbd04588c34a,2,0,2024-02-28T17:48:19.178Z,french_437.wav,0,poule,653,30,5,3,english,m,3,0.3,56.97339003,1.19854703
64a83c3f17fdbbd04588c34a,2,0,2024-02-28T17:48:19.178Z,french_437.wav,0,poule,653,30,5,3,english,m,4,0.4,46.8397409,0.8213725
64a83c3f17fdbbd04588c34a,2,0,2024-02-28T17:48:19.178Z,french_437.wav,0,poule,653,30,5,3,english,m,5,0.5,38.78616497,0.20494593
64a83c3f17fdbbd04588c34a,2,0,2024-02-28T17:48:19.178Z,french_437.wav,0,poule,653,30,5,3,english,m,6,0.6,-89.22878547,1.63754544
64a83c3f17fdbbd04588c34a,2,0,2024-02-28T17:48:19.178Z,french_437.wav,0,poule,653,30,5,3,english,m,7,0.7,80.78163583,1.22886157
64a83c3f17fdbbd04588c34a,2,0,2024-02-28T17:48:19.178Z,french_437.wav,0,poule,653,30,5,3,english,m,8,0.8,84.46215373,0.788043
64a83c3f17fdbbd04588c34a,2,0,2024-02-28T17:48:19.178Z,french_437.wav,0,poule,653,30,5,3,english,m,9,0.9,17.21068764,1.05494363
64a83c3f17fdbbd04588c34a,2,0,2024-02-28T17:48:19.178Z,french_437.wav,0,poule,653,30,5,3,english,m,10,1.0,16.06336223,0.71360389
64a83c3f17fdbbd04588c34a,2,0,2024-02-28T17:48:19.178Z,french_437.wav,0,poule,653,30,5,3,english,m,11,1.1,-52.17850038,1.83653188
64a83c3f17fdbbd04588c34a,2,0,2024-02-28T17:48:19.178Z,french_437.wav,0,poule,653,30,5,3,english,m,12,1.14141667,-51.05005354,0.63741841
64a83c3f17fdbbd04588c34a,3,0,2024-02-28T17:48:19.178Z,french_459.wav,0,pull,1873,30,5,3,english,m,0,0.0,4.61060923,0.63045471
64a83c3f17fdbbd04588c34a,3,0,2024-02-28T17:48:19.178Z,french_459.wav,0,pull,1873,30,5,3,english,m,1,0.1,56.90661814,0.25838891
64a83c3f17fdbbd04588c34a,3,0,2024-02-28T17:48:19.178Z,french_459.wav,0,pull,1873,30,5,3,english,m,2,0.2,-64.88787295,1.34944263
64a83c3f17fdbbd04588c34a,3,0,2024-02-28T17:48:19.178Z,french_459.wav,0,pull,1873,30,5,3,english,m,3,0.3,60.80306931,0.3412609
64a83c3f17fdbbd04588c34a,3,0,2024-02-28T17:48:19.178Z,french_459.wav,0,pull,1873,30,5,3,english,m,4,0.4,-72.51163358,0.8026416
64a83c3f17fdbbd04588c34a,3,0,2024-02-28T17:48:19.178Z,french_459.wav,0,pull,1873,30,5,3,english,m,5,0.5,-58.97655872,0.15800619
64a83c3f17fdbbd04588c34a,3,0,2024-02-28T17:48:19.178Z,french_459.wav,0,pull,1873,30,5,3,english,m,6,0.6,-57.13693888,1.38177294
64a83c3f17fdbbd04588c34a,3,0,2024-02-28T17:48:19.178Z,french_459.wav,0,pull,1873,30,5,3,english,m,7,0.7,91.43327587,1.01516397
64a83c3f17fdbbd04588c34a,3,0,2024-02-28T17:48:19.178Z,french_459.wav,0,pull,1873,30,5,3,english,m,8,0.8,27.92334317,0.04958646
64a83c3f17fdbbd04588c34a,3,0,2024-02-28T17:48:19.178Z,french_459.wav,0,pull,1873,30,5,3,english,m,9,0.9,-16.1495518,0.060326
64a83c3f17fdbbd04588c34a,3,0,2024-02-28T17:48:19.178Z,french_459.wav,0,pull,1873,30,5,3,english,m,10,1.0,-49.8689815,1.65536428
64a83c3f17fdbbd04588c34a,3,0,2024-02-28T17:48:19.178Z,french_459.wav,0,pull,1873,30,5,3,english,m,11,1.1,77.63620877,0.43368978
64a83c3f17fdbbd04588c34a,3,0,2024-02-28T17:48:19.178Z,french_459.wav,0,pull,1873,30,5,3,english,m,12,1.14141667,-4.58738982,1.3723531
64a83c3f17fdbbd04588c34a,4,0,2024-02-28T17:48:19.178Z,french_969.wav,0,pull,746,30,5,3,english,m,0,0.0,22.17068129,1.32316238
64a83c3f17fdbbd04588c34a,4,0,2024-02-28T17:48:19.178Z,french_969.wav,0,pull,746,30,5,3,english,m,1,0.1,82.31860936,1.1146701
64a83c3f17fdbbd04588c34a,4,0,2024-02-28T17:48:19.178Z,french_969.wav,0,pull,746,30,5,3,english,m,2,0.2,-63.54455884,0.19703215
64a83c3f17fdbbd04588c34a,4,0,2024-02-28T17:48:19.178Z,french_969.wav,0,pull,746,30,5,3,english,m,3,0.3,-68.90387667,1.63679826
64a83c3f17fdbbd04588c34a,4,0,2024-02-28T17:48:19.178Z,french_969.wav,0,pull,746,30,5,3,english,m,4,0.4,49.62721502,0.55421872
64a83c3f17fdbbd04588c34a,4,0,2024-02-28T17:48:19.178Z,french_969.wav,0,pull,746,30,5,3,english,m,5,0.5,-90.63801554,0.55706611
64a83c3f17fdbbd04588c34a,4,0,2024-02-28T17:48:19.178Z,french_969.wav,0,pull,746,30,5,3,english,m,6,0.6,80.96576477,1.25072913
64a83c3f17fdbbd04588c34a,4,0,2024-02-28T17:48:19.178Z,french_969.wav,0,pull,746,30,5,3,english,m,7,0.7,-85.10063866,0.28877795
64a83c3f17fdbbd04588c34a,4,0,2024-02-28T17:48:19.178Z,french_969.wav,0,pull,746,30,5,3,english,m,8,0.8,-75.97737791,1.03481903
64a83c3f17fdbbd04588c34a,4,0,2024-02-28T17:48:19.178Z,french_969.wav,0,pull,746,30,5,3,english,m,9,0.9,64.4884669,0.27862271
64a83c3f17fdbbd04588c34a,4,0,2024-02-28T17:48:19.178Z,french_969.wav,0,pull,746,30,5,3,english,m,10,1.0,64.22581041,1.8256645
64a83c3f17fdbbd04588c34a,4,0,2024-02-28T17:48:19.178Z,french_969.wav,0,pull,746,30,5,3,english,m,11,1.1,-87.91439878,0.22710133
64a83c3f17fdbbd04588c34a,4,0,2024-02-28T17:48:19.178Z,french_969.wav,0,pull,746,30,5,3,english,m,12,1.14141667,-30.16775952,0.58430827
64a83c3f17fdbbd04588c34a,5,0,2024-02-28T17:48:19.178Z,french_447.wav,0,poule,567,30,5,3,english,m,0,0.0,6.04355082,1.02628558
64a83c3f17fdbbd04588c34a,5,0,2024-02-28T17:48:19.178Z,french_447.wav,0,poule,567,30,5,3,english,m,1,0.1,-1.04855661,1.77610809
64a83c3f17fdbbd04588c34a,5,0,2024-02-28T17:48:19.178Z,french_447.wav,0,poule,567,30,5,3,english,m,2,0.2,-47.12815284,1.47367835
64a83c3f17fdbbd04588c34a,5,0,2024-02-28T17:48:19.178Z,french_447.wav,0,poule,567,30,5,3,english,m,3,0.3,68.61131291,1.43120021
64a83c3f17fdbbd04588c34a,5,0,2024-02-28T17:48:19.178Z,french_447.wav,0,poule,567,30,5,3,english,m,4,0.4,29.55521304,1.37358307
64a83c3f17fdbbd04588c34a,5,0,2024-02-28T17:48:19.178Z,french_447.wav,0,poule,567,30,5,3,english,m,5,0.5,83.19468183,0.28035321
64a83c3f17fdbbd04588c34a,5,0,2024-02-28T17:48:19.178Z,french_447.wav,0,poule,567,30,5,3,english,m,6,0.6,32.28964421,1.18002936
64a83c3f17fdbbd04588c34a,5,0,2024-02-28T17:48:19.178Z,french_447.wav,0,poule,567,30,5,3,english,m,7,0.7,-30.56201849,1.27636641
64a83c3f17fdbbd04588c34a,5,0,2024-02-28T17:48:19.178Z,french_447.wav,0,poule,567,30,5,3,english,m,8,0.8,-62.10694836,1.80740879
64a83c3f17fdbbd04588c34a,5,0,2024-02-28T17:48:19.178Z,french_447.wav,0,poule,567,30,5,3,english,m,9,0.9,-56.07346139,0.54939497
64a83c3f17fdbbd04588c34a,5,0,2024-02-28T17:48:19.178Z,french_447.wav,0,poule,567,30,5,3,english,m,10,1.0,-91.28980729,1.34706634
64a83c3f17fdbbd04588c34a,5,0,2024-02-28T17:48:19.178Z,french_447.wav,0,poule,567,30,5,3,english,m,11,1.1,35.15873918,1.19033731
64a83c3f17fdbbd04588c34a,5,0,2024-02-28T17:48:19.178Z,french_447.wav,0,poule,567,30,5,3,english,m,12,1.14141667,28.83992247,0.41831697
64a83c3f17fdbbd04588c34a,6,0,2024-02-28T17:48:19.178Z,french_338.wav,0,poule,1589,30,5,3,english,m,0,0.0,32.43640694,1.33040513
64a83c3f17fdbbd04588c34a,6,0,2024-02-28T17:48:19.178Z,french_338.wav,0,poule,1589,30,5,3,english,m,1,0.1,-96.15534081,1.37265774
64a83c3f17fdbbd04588c34a,6,0,2024-02-28T17:48:19.178Z,french_338.wav,0,poule,1589,30,5,3,english,m,2,0.2,71.74391232,0.97045392
64a83c3f17fdbbd04588c34a,6,0,2024-02-28T17:48:19.178Z,french_338.wav,0,poule,1589,30,5,3,english,m,3,0.3,66.77138204,0.15859567
64a83c3f17fdbbd04588c34a,6,0,2024-02-28T17:48:19.178Z,french_338.wav,0,poule,1589,30,5,3,english,m,4,0.4,15.01497933,0.06667266
64a83c3f17fdbbd04588c34a,6,0,2024-02-28T17:48:19.178Z,french_338.wav,0,poule,1589,30,5,3,english,m,5,0.5,92.69089604,0.24915734
64a83c3f17fdbbd04588c34a,6,0,2024-02-28T17:48:19.178Z,french_338.wav,0,poule,1589,30,5,3,english,m,6,0.6,43.1424087,1.15855491
64a83c3f17fdbbd04588c34a,6,0,2024-02-28T17:48:19.178Z,french_338.wav,0,poule,1589,30,5,3,english,m,7,0.7,-30.37149924,1.05458836
64a83c3f17fdbbd04588c34a,6,0,2024-02-28T17:48:19.178Z,french_338.wav,0,poule,1589,30,5,3,english,m,8,0.8,46.68539141,0.40093841
64a83c3f17fdbbd04588c34a,6,0,2024-02-28T17:48:19.178Z,french_338.wav,0,poule,1589,30,5,3,english,m,9,0.9,93.80986052,0.20402843
64a83c3f17fdbbd04588c34a,6,0,2024-02-28T17:48:19.178Z,french_338.wav,0,poule,1589,30,5,3,english,m,10,1.0,81.72582501,0.60947965
64a83c3f17fdbbd04588c34a,6,0,2024-02-28T17:48:19.178Z,french_338.wav,0,poule,1589,30,5,3,english,m,11,1.1,64.92591282,0.10143299
64a83c3f17fdbbd04588c34a,6,0,2024-02-28T17:48:19.178Z,french_338.wav,0,poule,1589,30,5,3,english,m,12,1.14141667,81.2294196,0.26247097
64a83c3f17fdbbd04588c34a,7,0,2024-02-28T17:48:19.178Z,french_471.wav,0,poule,705,30,5,3,english,m,0,0.0,41.83391715,1.67349399
64a83c3f17fdbbd04588c34a,7,0,2024-02-28T17:48:19.178Z,french_471.wav,0,poule,705,30,5,3,english,m,1,0.1,-76.96843168,0.59594788
64a83c3f17fdbbd04588c34a,7,0,2024-02-28T17:48:19.178Z,french_471.wav,0,poule,705,30,5,3,english,m,2,0.2,-8.95205146,0.21651802
64a83c3f17fdbbd04588c34a,7,0,2024-02-28T17:48:19.178Z,french_471.wav,0,poule,705,30,5,3,english,m,3,0.3,23.54279346,1.46166629
64a83c3f17fdbbd04588c34a,7,0,2024-02-28T17:48:19.178Z,french_471.wav,0,poule,705,30,5,3,english,m,4,0.4,-15.91458067,0.64159162
64a83c3f17fdbbd04588c34a,7,0,2024-02-28T17:48:19.178Z,french_471.wav,0,poule,705,30,5,3,english,m,5,0.5,-62.29566062,1.70672832
64a83c3f17fdbbd04588c34a,7,0,2024-02-28T17:48:19.178Z,french_471.wav,0,poule,705,30,5,3,english,m,6,0.6,-10.03907701,1.06314921
64a83c3f17fdbbd04588c34a,7,0,2024-02-28T17:48:19.178Z,french_471.wav,0,poule,705,30,5,3,english,m,7,0.7,28.86778795,0.77270182
64a83c3f17fdbbd04588c34a,7,0,2024-02-28T17:48:19.178Z,french_471.wav,0,poule,705,30,5,3,english,m,8,0.8,41.41175946,1.60583208
64a83c3f17fdbbd04588c34a,7,0,2024-02-28T17:48:19.178Z,french_471.wav,0,poule,705,30,5,3,english,m,9,0.9,-29.16663325,0.6103897
64a83c3f17fdbbd04588c34a,7,0,2024-02-28T17:48:19.178Z,french_471.wav,0,poule,705,30,5,3,english,m,10,1.0,-67.59158679,1.4211614
64a83c3f17fdbbd04588c34a,7,0,2024-02-28T17:48:19.178Z,french_471.wav,0,poule,705,30,5,3,english,m,11,1.1,-87.94197707,0.92479557
64a83c3f17fdbbd04588c34a,7,0,2024-02-28T17:48:19.178Z,french_471.wav,0,poule,705,30,5,3,english,m,12,1.14141667,-62.10245378,0.63214451
64a83c3f17fdbbd04588c34a,8,0,2024-02-28T17:48:19.178Z,french_685.wav,0,poule,473,30,5,3,english,m,0,0.0,15.72275415,0.3186228
64a83c3f17fdbbd04588c34a,8,0,2024-02-28T17:48:19.178Z,french_685.wav,0,poule,473,30,5,3,english,m,1,0.1,-17.98823356,0.55293097
64a83c3f17fdbbd04588c34a,8,0,2024-02-28T17:48:19.178Z,french_685.wav,0,poule,473,30,5,3,english,m,2,0.2,65.15130869,1.61552047
64a83c3f17fdbbd04588c34a,8,0,2024-02-28T17:48:19.178Z,french_685.wav,0,poule,473,30,5,3,english,m,3,0.3,-29.09849503,1.16824703
64a83c3f17fdbbd04588c34a,8,0,2024-02-28T17:48:19.178Z,french_685.wav,0,poule,473,30,5,3,english,m,4,0.4,80.3913755,1.52008085
64a83c3f17fdbbd04588c34a,8,0,2024-02-28T17:48:19.178Z,french_685.wav,0,poule,473,30,5,3,english,m,5,0.5,69.16437222,0.87763706
64a83c3f17fdbbd04588c34a,8,0,2024-02-28T17:48:19.178Z,french_685.wav,0,poule,473,30,5,3,english,m,6,0.6,94.4311828,1.87993666
64a83c3f17fdbbd04588c34a,8,0,2024-02-28T17:48:19.178Z,french_685.wav,0,poule,473,30,5,3,english,m,7,0.7,-34.30157349,1.65434325
64a83c3f17fdbbd04588c34a,8,0,2024-02-28T17:48:19.178Z,french_685.wav,0,poule,473,30,5,3,english,m,8,0.8,54.54653623,0.05536448
64a83c3f17fdbbd04588c34a,8,0,2024-02-28T17:48:19.178Z,french_685.wav,0,poule,473,30,5,3,english,m,9,0.9,70.83768359,1.1397735
64a83c3f17fdbbd04588c34a,8,0,2024-02-28T17:48:19.178Z,french_685.wav,0,poule,473,30,5,3,english,m,10,1.0,85.61297077,0.83672501
64a83c3f17fdbbd04588c34a,8,0,2024-02-28T17:48:19.178Z,french_685.wav,0,poule,473,30,5,3,english,m,11,1.1,27.81589557,0.56110169
64a83c3f17fdbbd04588c34a,8,0,2024-02-28T17:48:19.178Z,french_685.wav,0,poule,473,30,5,3,english,m,12,1.14141667,-9.10708793,0.81567385
64a83c3f17fdbbd04588c34a,9,0,2024-02-28T17:48:19.178Z,french_927.wav,0,poule,601,30,5,3,english,m,0,0.0,-46.05593581,0.51738485
64a83c3f17fdbbd04588c34a,9,0,2024-02-28T17:48:19.178Z,french_927.wav,0,poule,601,30,5,3,english,m,1,0.1,62.22976421,1.31954079
64a83c3f17fdbbd04588c34a,9,0,2024-02-28T17:48:19.178Z,french_927.wav,0,poule,601,30,5,3,english,m,2,0.2,12.11231465,1.09466444
64a83c3f17fdbbd04588c34a,9,0,2024-02-28T17:48:19.178Z,french_927.wav,0,poule,601,30,5,3,english,m,3,0.3,-43.66006165,1.10625026
64a83c3f17fdbbd04588c34a,9,0,2024-02-28T17:48:19.178Z,french_927.wav,0,poule,601,30,5,3,english,m,4,0.4,52.37116658,1.24572865
64a83c3f17fdbbd04588c34a,9,0,2024-02-28T17:48:19.178Z,french_927.wav,0,poule,601,30,5,3,english,m,5,0.5,-9.37800408,1.13457981
64a83c3f17fdbbd04588c34a,9,0,2024-02-28T17:48:19.178Z,french_927.wav,0,poule,601,30,5,3,english,m,6,0.6,80.54637955,0.80829687
64a83c3f17fdbbd04588c34a,9,0,2024-02-28T17:48:19.178Z,french_927.wav,0,poule,601,30,5,3,english,m,7,0.7,-47.54165707,0.51219219
64a83c3f17fdbbd04588c34a,9,0,2024-02-28T17:48:19.178Z,french_927.wav,0,poule,601,30,5,3,english,m,8,0.8,-4.75137405,0.84788996
64a83c3f17fdbbd04588c34a,9,0,2024-02-28T17:48:19.178Z,french_927.wav,0,poule,601,30,5,3,english,m,9,0.9,-23.76152457,1.37129048
64a83c3f17fdbbd04588c34a,9,0,2024-02-28T17:48:19.178Z,french_927.wav,0,poule,601,30,5,3,english,m,10,1.0,99.64582752,0.98680773
64a83c3f17fdbbd04588c34a,9,0,2024-02-28T17:48:19.178Z,french_927.wav,0,poule,601,30,5,3,english,m,11,1.1,40.942183,1.42160835
64a83c3f17fdbbd04588c34a,9,0,2024-02-28T17:48:19.178Z,french_927.wav,0,poule,601,30,5,3,english,m,12,1.14141667,87.8168677,1.69417822
64a83c3f17fdbbd04588c34a,10,0,2024-02-28T17:48:19.178Z,french_350.wav,0,pull,391,30,5,3,english,m,0,0.0,49.18780015,1.13395449
64a83c3f17fdbbd04588c34a,10,0,2024-02-28T17:48:19.178Z,french_350.wav,0,pull,391,30,5,3,english,m,1,0.1,72.56599871,1.35674112
64a83c3f17fdbbd04588c34a,10,0,2024-02-28T17:48:19.178Z,french_350.wav,0,pull,391,30,5,3,english,m,2,0.2,82.40633288,1.64110949
64a83c3f17fdbbd04588c34a,10,0,2024-02-28T17:48:19.178Z,french_350.wav,0,pull,391,30,5,3,english,m,3,0.3,-82.3613748,0.20020041
64a83c3f17fdbbd04588c34a,10,0,2024-02-28T17:48:19.178Z,french_350.wav,0,pull,391,30,5,3,english,m,4,0.4,-55.26706973,1.72643687
64a83c3f17fdbbd04588c34a,10,0,2024-02-28T17:48:19.178Z,french_350.wav,0,pull,391,30,5,3,english,m,5,0.5,32.71718065,0.50546476
64a83c3f17fdbbd04588c34a,10,0,2024-02-28T17:48:19.178Z,french_350.wav,0,pull,391,30,5,3,english,m,6,0.6,-77.12745481,1.03887292
64a83c3f17fdbbd04588c34a,10,0,2024-02-28T17:48:19.178Z,french_350.wav,0,pull,391,30,5,3,english,m,7,0.7,53.19413298,0.02836182
64a83c3f17fdbbd04588c34a,10,0,2024-02-28T17:48:19.178Z,french_350.wav,0,pull,391,30,5,3,english,m,8,0.8,63.69374639,1.25705859
64a83c3f17fdbbd04588c34a,10,0,2024-02-28T17:48:19.178Z,french_350.wav,0,pull,391,30,5,3,english,m,9,0.9,-4.94503234,0.65948503
64a83c3f17fdbbd04588c34a,10,0,2024-02-28T17:48:19.178Z,french_350.wav,0,pull,391,30,5,3,english,m,10,1.0,8.94892579,0.3253589
64a83c3f17fdbbd04588c34a,10,0,2024-02-28T17:48:19.178Z,french_350.wav,0,pull,391,30,5,3,english,m,11,1.1,-63.25021916,1.08649671
64a83c3f17fdbbd04588c34a,10,0,2024-02-28T17:48:19.178Z,french_350.wav,0,pull,391,30,5,3,english,m,12,1.14141667,62.49358968,1.97191137
64a83c3f17fdbbd04588c34a,11,0,2024-02-28T17:48:19.178Z,french_792.wav,0,poule,886,30,5,3,english,m,0,0.0,-28.77808047,1.01992476
64a83c3f17fdbbd04588c34a,11,0,2024-02-28T17:48:19.178Z,french_792.wav,0,poule,886,30,5,3,english,m,1,0.1,-10.00785401,1.96245929
64a83c3f17fdbbd04588c34a,11,0,2024-02-28T17:48:19.178Z,french_792.wav,0,poule,886,30,5,3,english,m,2,0.2,-89.03138292,0.33088171
64a83c3f17fdbbd04588c34a,11,0,2024-02-28T17:48:19.178Z,french_792.wav,0,poule,886,30,5,3,english,m,3,0.3,60.87015299,0.60882255
64a83c3f17fdbbd04588c34a,11,0,2024-02-28T17:48:19.178Z,french_792.wav,0,poule,886,30,5,3,english,m,4,0.4,40.7967025,1.16935641
64a83c3f17fdbbd04588c34a,11,0,2024-02-28T17:48:19.178Z,french_792.wav,0,poule,886,30,5,3,english,m,5,0.5,-0.6664258,0.04848989
64a83c3f17fdbbd04588c34a,11,0,2024-02-28T17:48:19.178Z,french_792.wav,0,poule,886,30,5,3,english,m,6,0.6,-1.44221122,0.73316645
64a83c3f17fdbbd04588c34a,11,0,2024-02-28T17:48:19.178Z,french_792.wav,0,poule,886,30,5,3,english,m,7,0.7,93.39416978,0.70146258
64a83c3f17fdbbd04588c34a,11,0,2024-02-28T17:48:19.178Z,french_792.wav,0,poule,886,30,5,3,english,m,8,0.8,13.0860733,0.98613716
64a83c3f17fdbbd04588c34a,11,0,2024-02-28T17:48:19.178Z,french_792.wav,0,poule,886,30,5,3,english,m,9,0.9,55.81352435,1.26993889
64a83c3f17fdbbd04588c34a,11,0,2024-02-28T17:48:19.178Z,french_792.wav,0,poule,886,30,5,3,english,m,10,1.0,-11.44850175,0.28761661
64a83c3f17fdbbd04588c34a,11,0,2024-02-28T17:48:19.178Z,french_792.wav,0,poule,886,30,5,3,english,m,11,1.1,-55.53563546,0.74142596
64a83c3f17fdbbd04588c34a,11,0,2024-02-28T17:48:19.178Z,french_792.wav,0,poule,886,30,5,3,english,m,12,1.14141667,28.68629966,1.34329465
64a83c3f17fdbbd04588c34a,12,0,2024-02-28T17:48:19.178Z,french_444.wav,0,pull,1056,30,5,3,english,m,0,0.0,87.77909642,0.96730071
64a83c3f17fdbbd04588c34a,12,0,2024-02-28T17:48:19.178Z,french_444.wav,0,pull,1056,30,5,3,english,m,1,0.1,6.94972025,1.64754835
64a83c3f17fdbbd04588c34a,12,0,2024-02-28T17:48:19.178Z,french_444.wav,0,pull,1056,30,5,3,english,m,2,0.2,98.20857903,0.34232644
64a83c3f17fdbbd04588c34a,12,0,2024-02-28T17:48:19.178Z,french_444.wav,0,pull,1056,30,5,3,english,m,3,0.3,-35.32566364,0.90396438
64a83c3f17fdbbd04588c34a,12,0,2024-02-28T17:48:19.178Z,french_444.wav,0,pull,1056,30,5,3,english,m,4,0.4,-66.21920686,1.59193054
64a83c3f17fdbbd04588c34a,12,0,2024-02-28T17:48:19.178Z,french_444.wav,0,pull,1056,30,5,3,english,m,5,0.5,-74.00275706,1.69980703
64a83c3f17fdbbd04588c34a,12,0,2024-02-28T17:48:19.178Z,french_444.wav,0,pull,1056,30,5,3,english,m,6,0.6,-89.76463472,0.62529401
64a83c3f17fdbbd04588c34a,12,0,2024-02-28T17:48:19.178Z,french_444.wav,0,pull,1056,30,5,3,english,m,7,0.7,90.23942867,0.0404836
64a83c3f17fdbbd04588c34a,12,0,2024-02-28T17:48:19.178Z,french_444.wav,0,pull,1056,30,5,3,english,m,8,0.8,-81.90686285,0.34890232
64a83c3f17fdbbd04588c34a,12,0,2024-02-28T17:48:19.178Z,french_444.wav,0,pull,1056,30,5,3,english,m,9,0.9,5.03977492,1.70546998
64a83c3f17fdbbd04588c34a,12,0,2024-02-28T17:48:19.178Z,french_444.wav,0,pull,1056,30,5,3,english,m,10,1.0,94.83681906,1.15170641
64a83c3f17fdbbd04588c34a,12,0,2024-02-28T17:48:19.178Z,french_444.wav,0,pull,1056,30,5,3,english,m,11,1.1,-46.16486493,0.22788225
64a83c3f17fdbbd04588c34a,12,0,2024-02-28T17:48:19.178Z,french_444.wav,0,pull,1056,30,5,3,english,m,12,1.14141667,7.32353635,1.99633075
64a83c3f17fdbbd04588c34a,13,0,2024-02-28T17:48:19.178Z,french_420.wav,0,pull,1081,30,5,3,english,m,0,0.0,-18.88007076,0.77898817
64a83c3f17fdbbd04588c34a,13,0,2024-02-28T17:48:19.178Z,french_420.wav,0,pull,1081,30,5,3,english,m,1,0.1,85.38106336,0.94651873
64a83c3f17fdbbd04588c34a,13,0,2024-02-28T17:48:19.178Z,french_420.wav,0,pull,1081,30,5,3,english,m,2,0.2,93.67996173,0.16609342
64a83c3f17fdbbd04588c34a,13,0,2024-02-28T17:48:19.178Z,french_420.wav,0,pull,1081,30,5,3,english,m,3,0.3,-59.60168974,1.88772727
64a83c3f17fdbbd04588c34a,13,0,2024-02-28T17:48:19.178Z,french_420.wav,0,pull,1081,30,5,3,english,m,4,0.4,-63.09071902,0.52202044
64a83c3f17fdbbd04588c34a,13,0,2024-02-28T17:48:19.178Z,french_420.wav,0,pull,1081,30,5,3,english,m,5,0.5,-3.42049192,0.19259521
64a83c3f17fdbbd04588c34a,13,0,2024-02-28T17:48:19.178Z,french_420.wav,0,pull,1081,30,5,3,english,m,6,0.6,3.82145816,0.85413524
64a83c3f17fdbbd04588c34a,13,0,2024-02-28T17:48:19.178Z,french_420.wav,0,pull,1081,30,5,3,english,m,7,0.7,-46.57323204,0.3417564
64a83c3f17fdbbd04588c34a,13,0,2024-02-28T17:48:19.178Z,french_420.wav,0,pull,1081,30,5,3,english,m,8,0.8,43.35773063,1.89293485
64a83c3f17fdbbd04588c34a,13,0,2024-02-28T17:48:19.178Z,french_420.wav,0,pull,1081,30,5,3,english,m,9,0.9,-41.3853357,1.49847299
64a83c3f17fdbbd04588c34a,13,0,2024-02-28T17:48:19.178Z,french_420.wav,0,pull,1081,30,5,3,english,m,10,1.0,-80.49552294,1.43768421
64a83c3f17fdbbd04588c34a,13,0,2024-02-28T17:48:19.178Z,french_420.wav,0,pull,1081,30,5,3,english,m,11,1.1,11.88219307,1.60937112
64a83c3f17fdbbd04588c34a,13,0,2024-02-28T17:48:19.178Z,french_420.wav,0,pull,1081,30,5,3,english,m,12,1.14141667,-51.63626854,1.40472667
64a83c3f17fdbbd04588c34a,14,0,2024-02-28T17:48:19.178Z,french_593.wav,0,poule,378,30,5,3,english,m,0,0.0,-26.15191158,1.67620181
64a83c3f17fdbbd04588c34a,14,0,2024-02-28T17:48:19.178Z,french_593.wav,0,poule,378,30,5,3,english,m,1,0.1,-23.77044674,1.88114871
64a83c3f17fdbbd04588c34a,14,0,2024-02-28T17:48:19.178Z,french_593.wav,0,poule,378,30,5,3,english,m,2,0.2,-56.77087027,0.68107866
64a83c3f17fdbbd04588c34a,14,0,2024-02-28T17:48:19.178Z,french_593.wav,0,poule,378,30,5,3,english,m,3,0.3,-26.6634209,0.59955882
64a83c3f17fdbbd04588c34a,14,0,2024-02-28T17:48:19.178Z,french_593.wav,0,poule,378,30,5,3,english,m,4,0.4,23.2517825,0.4124721
64a83c3f17fdbbd04588c34a,14,0,2024-02-28T17:48:19.178Z,french_593.wav,0,poule,378,30,5,3,english,m,5,0.5,20.15285172,1.3172903
64a83c3f17fdbbd04588c34a,14,0,2024-02-28T17:48:19.178Z,french_593.wav,0,poule,378,30,5,3,english,m,6,0.6,0.51630832,1.36089333
64a83c3f17fdbbd04588c34a,14,0,2024-02-28T17:48:19.178Z,french_593.wav,0,poule,378,30,5,3,english,m,7,0.7,-35.81236966,1.34128956
64a83c3f17fdbbd04588c34a,14,0,2024-02-28T17:48:19.178Z,french_593.wav,0,poule,378,30,5,3,english,m,8,0.8,-27.3865171,0.731606
64a83c3f17fdbbd04588c34a,14,0,2024-02-28T17:48:19.178Z,french_593.wav,0,poule,378,30,5,3,english,m,9,0.9,-29.8816425,1.0339416
64a83c3f17fdbbd04588c34a,14,0,2024-02-28T17:48:19.178Z,french_593.wav,0,poule,378,30,5,3,english,m,10,1.0,-1.08914565,1.74012393
64a83c3f17fdbbd04588c34a,14,0,2024-02-28T17:48:19.178Z,french_593.wav,0,poule,378,30,5,3,english,m,11,1.1,-56.55903373,0.35910853
64a83c3f17fdbbd04588c34a,14,0,2024-02-28T17:48:19.178Z,french_593.wav,0,poule,378,30,5,3,english,m,12,1.14141667,-69.29632341,1.05627167
64a83c3f17fdbbd04588c34a,15,0,2024-02-28T17:48:19.178Z,french_42.wav,0,pull,1164,30,5,3,english,m,0,0.0,-33.44516667,1.55856446
64a83c3f17fdbbd04588c34a,15,0,2024-02-28T17:48:19.178Z,french_42.wav,0,pull,1164,30,5,3,english,m,1,0.1,-18.2362548,1.2097728
64a83c3f17fdbbd04588c34a,15,0,2024-02-28T17:48:19.178Z,french_42.wav,0,pull,1164,30,5,3,english,m,2,0.2,70.60331137,0.78889557
64a83c3f17fdbbd04588c34a,15,0,2024-02-28T17:48:19.178Z,french_42.wav,0,pull,1164,30,5,3,english,m,3,0.3,15.02229491,0.44641372
64a83c3f17fdbbd04588c34a,15,0,2024-02-28T17:48:19.178Z,french_42.wav,0,pull,1164,30,5,3,english,m,4,0.4,13.99889807,0.084883
64a83c3f17fdbbd04588c34a,15,0,2024-02-28T17:48:19.178Z,french_42.wav,0,pull,1164,30,5,3,english,m,5,0.5,8.49741074,0.91437331
64a83c3f17fdbbd04588c34a,15,0,2024-02-28T17:48:19.178Z,french_42.wav,0,pull,1164,30,5,3,english,m,6,0.6,-62.69867685,0.35744041
64a83c3f17fdbbd04588c34a,15,0,2024-02-28T17:48:19.178Z,french_42.wav,0,pull,1164,30,5,3,english,m,7,0.7,-88.15009816,1.68547632
64a83c3f17fdbbd04588c34a,15,0,2024-02-28T17:48:19.178Z,french_42.wav,0,pull,1164,30,5,3,english,m,8,0.8,-56.36247825,0.07992016
64a83c3f17fdbbd04588c34a,15,0,2024-02-28T17:48:19.178Z,french_42.wav,0,pull,1164,30,5,3,english,m,9,0.9,-57.25753142,0.30520065
64a83c3f17fdbbd04588c34a,15,0,2024-02-28T17:48:19.178Z,french_42.wav,0,pull,1164,30,5,3,english,m,10,1.0,79.34275566,1.86650183
64a83c3f17fdbbd04588c34a,15,0,2024-02-28T17:48:19.178Z,french_42.wav,0,pull,1164,30,5,3,english,m,11,1.1,-83.70982002,1.79164729
64a83c3f17fdbbd04588c34a,15,0,2024-02-28T17:48:19.178Z,french_42.wav,0,pull,1164,30,5,3,english,m,12,1.14141667,63.35287438,0.80936933
64a83c3f17fdbbd04588c34a,16,0,2024-02-28T17:48:19.178Z,french_638.wav,0,poule,934,30,5,3,english,m,0,0.0,24.10332876,1.30118958
64a83c3f17fdbbd04588c34a,16,0,2024-02-28T17:48:19.178Z,french_638.wav,0,poule,934,30,5,3,english,m,1,0.1,32.02867085,1.62073515
64a83c3f17fdbbd04588c34a,16,0,2024-02-28T17:48:19.178Z,french_638.wav,0,poule,934,30,5,3,english,m,2,0.2,1.29939719,1.30287272
64a83c3f17fdbbd04588c34a,16,0,2024-02-28T17:48:19.178Z,french_638.wav,0,poule,934,30,5,3,english,m,3,0.3,-44.40258825,0.74134116
64a83c3f17fdbbd04588c34a,16,0,2024-02-28T17:48:19.178Z,french_638.wav,0,poule,934,30,5,3,english,m,4,0.4,97.18876934,1.56205412
64a83c3f17fdbbd04588c34a,16,0,2024-02-28T17:48:19.178Z,french_638.wav,0,poule,934,30,5,3,english,m,5,0.5,-12.30944177,0.56116492
64a83c3f17fdbbd04588c34a,16,0,2024-02-28T17:48:19.178Z,french_638.wav,0,poule,934,30,5,3,english,m,6,0.6,-48.49998348,1.30243736
64a83c3f17fdbbd04588c34a,16,0,2024-02-28T17:48:19.178Z,french_638.wav,0,poule,934,30,5,3,english,m,7,0.7,-40.05211121,1.7883874
64a83c3f17fdbbd04588c34a,16,0,2024-02-28T17:48:19.178Z,french_638.wav,0,poule,934,30,5,3,english,m,8,0.8,-21.78672943,0.99108579
64a83c3f17fdbbd04588c34a,16,0,2024-02-28T17:48:19.178Z,french_638.wav,0,poule,934,30,5,3,english,m,9,0.9,5.53380977,1.30235669
64a83c3f17fdbbd04588c34a,16,0,2024-02-28T17:48:19.178Z,french_638.wav,0,poule,934,30,5,3,english,m,10,1.0,70.33014347,1.07221989
64a83c3f17fdbbd04588c34a,16,0,2024-02-28T17:48:19.178Z,french_638.wav,0,poule,934,30,5,3,english,m,11,1.1,-13.64024382,1.48013576
64a83c3f17fdbbd04588c34a,16,0,2024-02-28T17:48:19.178Z,french_638.wav,0,poule,934,30,5,3,english,m,12,1.14141667,22.08022903,0.22008977
64a83c3f17fdbbd04588c34a,17,0,2024-02-28T17:48:19.178Z,french_963.wav,0,pull,619,30,5,3,english,m,0,0.0,-2.60515396,1.09825401
64a83c3f17fdbbd04588c34a,17,0,2024-02-28T17:48:19.178Z,french_963.wav,0,pull,619,30,5,3,english,m,1,0.1,-69.80600128,0.40228202
64a83c3f17fdbbd04588c34a,17,0,2024-02-28T17:48:19.178Z,french_963.wav,0,pull,619,30,5,3,english,m,2,0.2,-22.76975295,1.61918413
64a83c3f17fdbbd04588c34a,17,0,2024-02-28T17:48:19.178Z,french_963.wav,0,pull,619,30,5,3,english,m,3,0.3,47.94644455,0.40760169
64a83c3f17fdbbd04588c34a,17,0,2024-02-28T17:48:19.178Z,french_963.wav,0,pull,619,30,5,3,english,m,4,0.4,60.99924488,1.12429397
64a83c3f17fdbbd04588c34a,17,0,2024-02-28T17:48:19.178Z,french_963.wav,0,pull,619,30,5,3,english,m,5,0.5,-68.16371487,1.50749112
64a83c3f17fdbbd04588c34a,17,0,2024-02-28T17:48:19.178Z,french_963.wav,0,pull,619,30,5,3,english,m,6,0.6,16.07488466,0.65773223
64a83c3f17fdbbd04588c34a,17,0,2024-02-28T17:48:19.178Z,french_963.wav,0,pull,619,30,5,3,english,m,7,0.7,79.50423257,1.2210919
64a83c3f17fdbbd04588c34a,17,0,2024-02-28T17:48:19.178Z,french_963.wav,0,pull,619,30,5,3,english,m,8,0.8,-61.32959447,0.77742832
64a83c3f17fdbbd04588c34a,17,0,2024-02-28T17:48:19.178Z,french_963.wav,0,pull,619,30,5,3,english,m,9,0.9,61.1484988,0.45497553
64a83c3f17fdbbd04588c34a,17,0,2024-02-28T17:48:19.178Z,french_963.wav,0,pull,619,30,5,3,english,m,10,1.0,-89.32108127,1.00003594
64a83c3f17fdbbd04588c34a,17,0,2024-02-28T17:48:19.178Z,french_963.wav,0,pull,619,30,5,3,english,m,11,1.1,87.59092513,1.38056661
64a83c3f17fdbbd04588c34a,17,0,2024-02-28T17:48:19.178Z,french_963.wav,0,pull,619,30,5,3,english,m,12,1.14141667,33.6770082,0.82674617
64a83c3f17fdbbd04588c34a,18,0,2024-02-28T17:48:19.178Z,french_111.wav,0,poule,283,30,5,3,english,m,0,0.0,14.77849199,0.705567
64a83c3f17fdbbd04588c34a,18,0,2024-02-28T17:48:19.178Z,french_111.wav,0,poule,283,30,5,3,english,m,1,0.1,-93.87823823,1.75025846
64a83c3f17fdbbd04588c34a,18,0,2024-02-28T17:48:19.178Z,french_111.wav,0,poule,283,30,5,3,english,m,2,0.2,64.26417709,0.64729838
64a83c3f17fdbbd04588c34a,18,0,2024-02-28T17:48:19.178Z,french_111.wav,0,poule,283,30,5,3,english,m,3,0.3,-22.82520637,0.85969061
64a83c3f17fdbbd04588c34a,18,0,2024-02-28T17:48:19.178Z,french_111.wav,0,poule,283,30,5,3,english,m,4,0.4,98.98633094,0.27217842
64a83c3f17fdbbd04588c34a,18,0,2024-02-28T17:48:19.178Z,french_111.wav,0,poule,283,30,5,3,english,m,5,0.5,61.91694484,1.89781194
64a83c3f17fdbbd04588c34a,18,0,2024-02-28T17:48:19.178Z,french_111.wav,0,poule,283,30,5,3,english,m,6,0.6,-14.22171185,0.81989365
64a83c3f17fdbbd04588c34a,18,0,2024-02-28T17:48:19.178Z,french_111.wav,0,poule,283,30,5,3,english,m,7,0.7,13.64889923,1.01021301
64a83c3f17fdbbd04588c34a,18,0,2024-02-28T17:48:19.178Z,french_111.wav,0,poule,283,30,5,3,english,m,8,0.8,16.45015469,0.3816251
64a83c3f17fdbbd04588c34a,18,0,2024-02-28T17:48:19.178Z,french_111.wav,0,poule,283,30,5,3,english,m,9,0.9,68.39985611,1.4301898
64a83c3f17fdbbd04588c34a,18,0,2024-02-28T17:48:19.178Z,french_111.wav,0,poule,283,30,5,3,english,m,10,1.0,9.08640089,1.68654452
64a83c3f17fdbbd04588c34a,18,0,2024-02-28T17:48:19.178Z,french_111.wav,0,poule,283,30,5,3,english,m,11,1.1,-0.24488945,0.43604245
64a83c3f17fdbbd04588c34a,18,0,2024-02-28T17:48:19.178Z,french_111.wav,0,poule,283,30,5,3,english,m,12,1.14141667,-45.33321106,1.24858314
64a83c3f17fdbbd04588c34a,19,0,2024-02-28T17:48:19.178Z,french_660.wav,0,poule,442,30,5,3,english,m,0,0.0,-37.71510641,0.65271068
64a83c3f17fdbbd04588c34a,19,0,2024-02-28T17:48:19.178Z,french_660.wav,0,poule,442,30,5,3,english,m,1,0.1,-51.81416614,0.95176002
64a83c3f17fdbbd04588c34a,19,0,2024-02-28T17:48:19.178Z,french_660.wav,0,poule,442,30,5,3,english,m,2,0.2,4.10351711,1.39790786
64a83c3f17fdbbd04588c34a,19,0,2024-02-28T17:48:19.178Z,french_660.wav,0,poule,442,30,5,3,english,m,3,0.3,-3.46148296,0.28536613
64a83c3f17fdbbd04588c34a,19,0,2024-02-28T17:48:19.178Z,french_660.wav,0,poule,442,30,5,3,english,m,4,0.4,34.89398508,0.45403895
64a83c3f17fdbbd04588c34a,19,0,2024-02-28T17:48:19.178Z,french_660.wav,0,poule,442,30,5,3,english,m,5,0.5,-22.68565324,1.25725192
64a83c3f17fdbbd04588c34a,19,0,2024-02-28T17:48:19.178Z,french_660.wav,0,poule,442,30,5,3,english,m,6,0.6,-48.78238306,1.02526608
64a83c3f17fdbbd04588c34a,19,0,2024-02-28T17:48:19.178Z,french_660.wav,0,poule,442,30,5,3,english,m,7,0.7,35.92338582,0.65449001
64a83c3f17fdbbd04588c34a,19,0,2024-02-28T17:48:19.178Z,french_660.wav,0,poule,442,30,5,3,english,m,8,0.8,41.13919158,1.63115139
64a83c3f17fdbbd04588c34a,19,0,2024-02-28T17:48:19.178Z,french_660.wav,0,poule,442,30,5,3,english,m,9,0.9,36.80052876,1.24820992
64a83c3f17fdbbd04588c34a,19,0,2024-02-28T17:48:19.178Z,french_660.wav,0,poule,442,30,5,3,english,m,10,1.0,-27.8791645,0.72272253
64a83c3f17fdbbd04588c34a,19,0,2024-02-28T17:48:19.178Z,french_660.wav,0,poule,442,30,5,3,english,m,11,1.1,-0.18086637,1.66540582
64a83c3f17fdbbd04588c34a,19,0,2024-02-28T17:48:19.178Z,french_660.wav,0,poule,442,30,5,3,english,m,12,1.14141667,-46.57940535,0.10395667
64a83c3f17fdbbd04588c34a,20,0,2024-02-28T17:48:19.178Z,french_50.wav,0,pull,704,30,5,3,english,m,0,0.0,-7.01386319,1.47331584
64a83c3f17fdbbd04588c34a,20,0,2024-02-28T17:48:19.178Z,french_50.wav,0,pull,704,30,5,3,english,m,1,0.1,53.48395865,1.04351856
64a83c3f17fdbbd04588c34a,20,0,2024-02-28T17:48:19.178Z,french_50.wav,0,pull,704,30,5,3,english,m,2,0.2,-12.28351801,1.7377743
64a83c3f17fdbbd04588c34a,20,0,2024-02-28T17:48:19.178Z,french_50.wav,0,pull,704,30,5,3,english,m,3,0.3,-93.76617938,0.97170395
64a83c3f17fdbbd04588c34a,20,0,2024-02-28T17:48:19.178Z,french_50.wav,0,pull,704,30,5,3,english,m,4,0.4,-12.0195374,0.90437843
64a83c3f17fdbbd04588c34a,20,0,2024-02-28T17:48:19.178Z,french_50.wav,0,pull,704,30,5,3,english,m,5,0.5,-56.59793281,1.6913567
64a83c3f17fdbbd04588c34a,20,0,2024-02-28T17:48:19.178Z,french_50.wav,0,pull,704,30,5,3,english,m,6,0.6,20.61032162,1.252974
64a83c3f17fdbbd04588c34a,20,0,2024-02-28T17:48:19.178Z,french_50.wav,0,pull,704,30,5,3,english,m,7,0.7,-1.26901238,0.73770227
64a83c3f17fdbbd04588c34a,20,0,2024-02-28T17:48:19.178Z,french_50.wav,0,pull,704,30,5,3,english,m,8,0.8,-30.12626637,0.35408486
64a83c3f17fdbbd04588c34a,20,0,2024-02-28T17:48:19.178Z,french_50.wav,0,pull,704,30,5,3,english,m,9,0.9,86.80795076,0.05135998
64a83c3f17fdbbd04588c34a,20,0,2024-02-28T17:48:19.178Z,french_50.wav,0,pull,704,30,5,3,english,m,10,1.0,21.12391045,1.97752086
64a83c3f17fdbbd04588c34a,20,0,2024-02-28T17:48:19.178Z,french_50.wav,0,pull,704,30,5,3,english,m,11,1.1,72.85975875,1.25509602
64a83c3f17fdbbd04588c34a,20,0,2024-02-28T17:48:19.178Z,french_50.wav,0,pull,704,30,5,3,english,m,12,1.14141667,-11.76225522,0.5303538
64a83c3f17fdbbd04588c34a,21,0,2024-02-28T17:48:19.178Z,french_539.wav,0,pull,760,30,5,3,english,m,0,0.0,48.58834425,0.55713702
64a83c3f17fdbbd04588c34a,21,0,2024-02-28T17:48:19.178Z,french_539.wav,0,pull,760,30,5,3,english,m,1,0.1,-56.64619482,0.83408519
64a83c3f17fdbbd04588c34a,21,0,2024-02-28T17:48:19.178Z,french_539.wav,0,pull,760,30,5,3,english,m,2,0.2,12.72257351,0.22105139
64a83c3f17fdbbd04588c34a,21,0,2024-02-28T17:48:19.178Z,french_539.wav,0,pull,760,30,5,3,english,m,3,0.3,14.57779112,1.24631237
64a83c3f17fdbbd04588c34a,21,0,2024-02-28T17:48:19.178Z,french_539.wav,0,pull,760,30,5,3,english,m,4,0.4,-53.79115146,1.80108834
64a83c3f17fdbbd04588c34a,21,0,2024-02-28T17:48:19.178Z,french_539.wav,0,pull,760,30,5,3,english,m,5,0.5,-9.39809755,0.10826692
64a83c3f17fdbbd04588c34a,21,0,2024-02-28T17:48:19.178Z,french_539.wav,0,pull,760,30,5,3,english,m,6,0.6,67.43376648,1.35746598
64a83c3f17fdbbd04588c34a,21,0,2024-02-28T17:48:19.178Z,french_539.wav,0,pull,760,30,5,3,english,m,7,0.7,-72.51273076,0.14156413
64a83c3f17fdbbd04588c34a,21,0,2024-02-28T17:48:19.178Z,french_539.wav,0,pull,760,30,5,3,english,m,8,0.8,3.43276355,0.59340931
64a83c3f17fdbbd04588c34a,21,0,2024-02-28T17:48:19.178Z,french_539.wav,0,pull,760,30,5,3,english,m,9,0.9,40.14425687,0.46199534
64a83c3f17fdbbd04588c34a,21,0,2024-02-28T17:48:19.178Z,french_539.wav,0,pull,760,30,5,3,english,m,10,1.0,54.85231258,1.89990392
64a83c3f17fdbbd04588c34a,21,0,2024-02-28T17:48:19.178Z,french_539.wav,0,pull,760,30,5,3,english,m,11,1.1,-17.29716808,0.79928212
64a83c3f17fdbbd04588c34a,21,0,2024-02-28T17:48:19.178Z,french_539.wav,0,pull,760,30,5,3,english,m,12,1.14141667,36.80649937,0.04454349
64a83c3f17fdbbd04588c34a,22,0,2024-02-28T17:48:19.178Z,french_255.wav,0,pull,1055,30,5,3,english,m,0,0.0,2.442736,0.0501212
64a83c3f17fdbbd04588c34a,22,0,2024-02-28T17:48:19.178Z,french_255.wav,0,pull,1055,30,5,3,english,m,1,0.1,-5.83495052,0.90036752
64a83c3f17fdbbd04588c34a,22,0,2024-02-28T17:48:19.178Z,french_255.wav,0,pull,1055,30,5,3,english,m,2,0.2,-32.74029462,0.867095
64a83c3f17fdbbd04588c34a,22,0,2024-02-28T17:48:19.178Z,french_255.wav,0,pull,1055,30,5,3,english,m,3,0.3,-17.9207749,1.25241404
64a83c3f17fdbbd04588c34a,22,0,2024-02-28T17:48:19.178Z,french_255.wav,0,pull,1055,30,5,3,english,m,4,0.4,53.89951696,1.67759172
64a83c3f17fdbbd04588c34a,22,0,2024-02-28T17:48:19.178Z,french_255.wav,0,pull,1055,30,5,3,english,m,5,0.5,24.94391855,0.01553626
64a83c3f17fdbbd04588c34a,22,0,2024-02-28T17:48:19.178Z,french_255.wav,0,pull,1055,30,5,3,english,m,6,0.6,80.54570604,1.57070252
64a83c3f17fdbbd04588c34a,22,0,2024-02-28T17:48:19.178Z,french_255.wav,0,pull,1055,30,5,3,english,m,7,0.7,-69.18774393,0.9248427
64a83c3f17fdbbd04588c34a,22,0,2024-02-28T17:48:19.178Z,french_255.wav,0,pull,1055,30,5,3,english,m,8,0.8,-15.07298286,1.33887414
64a83c3f17fdbbd04588c34a,22,0,2024-02-28T17:48:19.178Z,french_255.wav,0,pull,1055,30,5,3,english,m,9,0.9,-32.34798788,0.16575364
64a83c3f17fdbbd04588c34a,22,0,2024-02-28T17:48:19.178Z,french_255.wav,0,pull,1055,30,5,3,english,m,10,1.0,-56.5580714,0.79462378
64a83c3f17fdbbd04588c34a,22,0,2024-02-28T17:48:19.178Z,french_255.wav,0,pull,1055,30,5,3,english,m,11,1.1,-26.54917843,1.53751958
64a83c3f17fdbbd04588c34a,22,0,2024-02-28T17:48:19.178Z,french_255.wav,0,pull,1055,30,5,3,english,m,12,1.14141667,7.68459279,1.02892378
64a83c3f17fdbbd04588c34a,23,0,2024-02-28T17:48:19.178Z,french_617.wav,0,poule,540,30,5,3,english,m,0,0.0,41.18921531,0.91184006
64a83c3f17fdbbd04588c34a,23,0,2024-02-28T17:48:19.178Z,french_617.wav,0,poule,540,30,5,3,english,m,1,0.1,-35.03636924,1.24340801
64a83c3f17fdbbd04588c34a,23,0,2024-02-28T17:48:19.178Z,french_617.wav,0,poule,540,30,5,3,english,m,2,0.2,-74.98228457,1.94725418
64a83c3f17fdbbd04588c34a,23,0,2024-02-28T17:48:19.178Z,french_617.wav,0,poule,540,30,5,3,english,m,3,0.3,-36.51435822,0.5653448
64a83c3f17fdbbd04588c34a,23,0,2024-02-28T17:48:19.178Z,french_617.wav,0,poule,540,30,5,3,english,m,4,0.4,-95.32464294,1.52373912
64a83c3f17fdbbd04588c34a,23,0,2024-02-28T17:48:19.178Z,french_617.wav,0,poule,540,30,5,3,english,m,5,0.5,84.01929298,1.56026974
64a83c3f17fdbbd04588c34a,23,0,2024-02-28T17:48:19.178Z,french_617.wav,0,poule,540,30,5,3,english,m,6,0.6,32.67157622,0.19851572
64a83c3f17fdbbd04588c34a,23,0,2024-02-28T17:48:19.178Z,french_617.wav,0,poule,540,30,5,3,english,m,7,0.7,-71.7342706,1.89713844
64a83c3f17fdbbd04588c34a,23,0,2024-02-28T17:48:19.178Z,french_617.wav,0,poule,540,30,5,3,english,m,8,0.8,-45.86213667,1.81378599
64a83c3f17fdbbd04588c34a,23,0,2024-02-28T17:48:19.178Z,french_617.wav,0,poule,540,30,5,3,english,m,9,0.9,87.19566362,1.31045157
64a83c3f17fdbbd04588c34a,23,0,2024-02-28T17:48:19.178Z,french_617.wav,0,poule,540,30,5,3,english,m,10,1.0,-47.72681817,0.66805601
64a83c3f17fdbbd04588c34a,23,0,2024-02-28T17:48:19.178Z,french_617.wav,0,poule,540,30,5,3,english,m,11,1.1,15.937344,0.14648847
64a83c3f17fdbbd04588c34a,23,0,2024-02-28T17:48:19.178Z,french_617.wav,0,poule,540,30,5,3,english,m,12,1.14141667,72.65175015,0.64127007
64a83c3f17fdbbd04588c34a,24,0,2024-02-28T17:48:19.178Z,french_19.wav,0,poule,1154,30,5,3,english,m,0,0.0,-15.85396014,0.42164348
64a83c3f17fdbbd04588c34a,24,0,2024-02-28T17:48:19.178Z,french_19.wav,0,poule,1154,30,5,3,english,m,1,0.1,23.57988749,0.56417691
64a83c3f17fdbbd04588c34a,24,0,2024-02-28T17:48:19.178Z,french_19.wav,0,poule,1154,30,5,3,english,m,2,0.2,90.5407412,1.21613489
64a83c3f17fdbbd04588c34a,24,0,2024-02-28T17:48:19.178Z,french_19.wav,0,poule,1154,30,5,3,english,m,3,0.3,54.36086044,1.77542269
64a83c3f17fdbbd04588c34a,24,0,2024-02-28T17:48:19.178Z,french_19.wav,0,poule,1154,30,5,3,english,m,4,0.4,-76.80072536,1.88282697
64a83c3f17fdbbd04588c34a,24,0,2024-02-28T17:48:19.178Z,french_19.wav,0,poule,1154,30,5,3,english,m,5,0.5,4.74522472,1.35259083
64a83c3f17fdbbd04588c34a,24,0,2024-02-28T17:48:19.178Z,french_19.wav,0,poule,1154,30,5,3,english,m,6,0.6,61.23738329,1.70484982
64a83c3f17fdbbd04588c34a,24,0,2024-02-28T17:48:19.178Z,french_19.wav,0,poule,1154,30,5,3,english,m,7,0.7,13.41741959,0.27300571
64a83c3f17fdbbd04588c34a,24,0,2024-02-28T17:48:19.178Z,french_19.wav,0,poule,1154,30,5,3,english,m,8,0.8,-83.99617766,0.56573118
64a83c3f17fdbbd04588c34a,24,0,2024-02-28T17:48:19.178Z,french_19.wav,0,poule,1154,30,5,3,english,m,9,0.9,47.05289938,1.23296436
64a83c3f17fdbbd04588c34a,24,0,2024-02-28T17:48:19.178Z,french_19.wav,0,poule,1154,30,5,3,english,m,10,1.0,63.84619237,0.73939236
64a83c3f17fdbbd04588c34a,24,0,2024-02-28T17:48:19.178Z,french_19.wav,0,poule,1154,30,5,3,english,m,11,1.1,70.82125043,0.292558
64a83c3f17fdbbd04588c34a,24,0,2024-02-28T17:48:19.178Z,french_19.wav,0,poule,1154,30,5,3,english,m,12,1.14141667,42.43080479,1.64361302
64a83c3f17fdbbd04588c34a,25,0,2024-02-28T17:48:19.178Z,french_556.wav,0,poule,701,30,5,3,english,m,0,0.0,-30.62895729,1.84589581
64a83c3f17fdbbd04588c34a,25,0,2024-02-28T17:48:19.178Z,french_556.wav,0,poule,701,30,5,3,english,m,1,0.1,64.37703021,1.73651451
64a83c3f17fdbbd04588c34a,25,0,2024-02-28T17:48:19.178Z,french_556.wav,0,poule,701,30,5,3,english,m,2,0.2,36.98575807,0.16567731
64a83c3f17fdbbd04588c34a,25,0,2024-02-28T17:48:19.178Z,french_556.wav,0,poule,701,30,5,3,english,m,3,0.3,19.11574957,0.31305634
64a83c3f17fdbbd04588c34a,25,0,2024-02-28T17:48:19.178Z,french_556.wav,0,poule,701,30,5,3,english,m,4,0.4,89.62577902,1.79061468
64a83c3f17fdbbd04588c34a,25,0,2024-02-28T17:48:19.178Z,french_556.wav,0,poule,701,30,5,3,english,m,5,0.5,60.7088706,0.86994548
64a83c3f17fdbbd04588c34a,25,0,2024-02-28T17:48:19.178Z,french_556.wav,0,poule,701,30,5,3,english,m,6,0.6,-62.8516134,1.36507629
64a83c3f17fdbbd04588c34a,25,0,2024-02-28T17:48:19.178Z,french_556.wav,0,poule,701,30,5,3,english,m,7,0.7,-39.43238068,0.69698054
64a83c3f17fdbbd04588c34a,25,0,2024-02-28T17:48:19.178Z,french_556.wav,0,poule,701,30,5,3,english,m,8,0.8,-47.12121114,1.7863841
64a83c3f17fdbbd04588c34a,25,0,2024-02-28T17:48:19.178Z,french_556.wav,0,poule,701,30,5,3,english,m,9,0.9,11.83990719,0.92331121
64a83c3f17fdbbd04588c34a,25,0,2024-02-28T17:48:19.178Z,french_556.wav,0,poule,701,30,5,3,english,m,10,1.0,-21.1475117,1.29940684
64a83c3f17fdbbd04588c34a,25,0,2024-02-28T17:48:19.178Z,french_556.wav,0,poule,701,30,5,3,english,m,11,1.1,-1.79697267,1.17001647
64a83c3f17fdbbd04588c34a,25,0,2024-02-28T17:48:19.178Z,french_556.wav,0,poule,701,30,5,3,english,m,12,1.14141667,-69.11891229,0.89909852
64a83c3f17fdbbd04588c34a,26,0,2024-02-28T17:48:19.178Z,french_59.wav,0,poule,828,30,5,3,english,m,0,0.0,20.14643924,1.64013215
64a83c3f17fdbbd04588c34a,26,0,2024-02-28T17:48:19.178Z,french_59.wav,0,poule,828,30,5,3,english,m,1,0.1,-59.30511307,1.38227101
64a83c3f17fdbbd04588c34a,26,0,2024-02-28T17:48:19.178Z,french_59.wav,0,poule,828,30,5,3,english,m,2,0.2,-36.90138171,1.29161714
64a83c3f17fdbbd04588c34a,26,0,2024-02-28T17:48:19.178Z,french_59.wav,0,poule,828,30,5,3,english,m,3,0.3,-90.62422634,0.15011777
64a83c3f17fdbbd04588c34a,26,0,2024-02-28T17:48:19.178Z,french_59.wav,0,poule,828,30,5,3,english,m,4,0.4,81.58991679,0.54809828
64a83c3f17fdbbd04588c34a,26,0,2024-02-28T17:48:19.178Z,french_59.wav,0,poule,828,30,5,3,english,m,5,0.5,-52.14492004,1.06399462
64a83c3f17fdbbd04588c34a,26,0,2024-02-28T17:48:19.178Z,french_59.wav,0,poule,828,30,5,3,english,m,6,0.6,38.69064245,1.23043118
64a83c3f17fdbbd04588c34a,26,0,2024-02-28T17:48:19.178Z,french_59.wav,0,poule,828,30,5,3,english,m,7,0.7,-68.88870739,0.46411732
64a83c3f17fdbbd04588c34a,26,0,2024-02-28T17:48:19.178Z,french_59.wav,0,poule,828,30,5,3,english,m,8,0.8,-78.91362722,1.50887557
64a83c3f17fdbbd04588c34a,26,0,2024-02-28T17:48:19.178Z,french_59.wav,0,poule,828,30,5,3,english,m,9,0.9,-49.91064634,1.51001833
64a83c3f17fdbbd04588c34a,26,0,2024-02-28T17:48:19.178Z,french_59.wav,0,poule,828,30,5,3,english,m,10,1.0,-14.96747288,0.8690376
64a83c3f17fdbbd04588c34a,26,0,2024-02-28T17:48:19.178Z,french_59.wav,0,poule,828,30,5,3,english,m,11,1.1,-61.38764873,0.30032336
64a83c3f17fdbbd04588c34a,26,0,2024-02-28T17:48:19.178Z,french_59.wav,0,poule,828,30,5,3,english,m,12,1.14141667,-36.71502823,0.26110281
64a83c3f17fdbbd04588c34a,27,0,2024-02-28T17:48:19.178Z,french_337.wav,0,poule,773,30,5,3,english,m,0,0.0,-54.36724897,1.61515364
64a83c3f17fdbbd04588c34a,27,0,2024-02-28T17:48:19.178Z,french_337.wav,0,poule,773,30,5,3,english,m,1,0.1,47.20909077,1.4185112
64a83c3f17fdbbd04588c34a,27,0,2024-02-28T17:48:19.178Z,french_337.wav,0,poule,773,30,5,3,english,m,2,0.2,-38.31746159,0.32887669
64a83c3f17fdbbd04588c34a,27,0,2024-02-28T17:48:19.178Z,french_337.wav,0,poule,773,30,5,3,english,m,3,0.3,-61.13963937,0.02610503
64a83c3f17fdbbd04588c34a,27,0,2024-02-28T17:48:19.178Z,french_337.wav,0,poule,773,30,5,3,english,m,4,0.4,13.36429747,0.46832004
64a83c3f17fdbbd04588c34a,27,0,2024-02-28T17:48:19.178Z,french_337.wav,0,poule,773,30,5,3,english,m,5,0.5,11.60122819,0.11209332
64a83c3f17fdbbd04588c34a,27,0,2024-02-28T17:48:19.178Z,french_337.wav,0,poule,773,30,5,3,english,m,6,0.6,-37.13411098,1.89414481
64a83c3f17fdbbd04588c34a,27,0,2024-02-28T17:48:19.178Z,french_337.wav,0,poule,773,30,5,3,english,m,7,0.7,16.0551706,0.78679118
64a83c3f17fdbbd04588c34a,27,0,2024-02-28T17:48:19.178Z,french_337.wav,0,poule,773,30,5,3,english,m,8,0.8,-76.84632417,0.16086144
64a83c3f17fdbbd04588c34a,27,0,2024-02-28T17:48:19.178Z,french_337.wav,0,poule,773,30,5,3,english,m,9,0.9,7.55549957,1.28761221
64a83c3f17fdbbd04588c34a,27,0,2024-02-28T17:48:19.178Z,french_337.wav,0,poule,773,30,5,3,english,m,10,1.0,-1.43284295,0.94282924
64a83c3f17fdbbd04588c34a,27,0,2024-02-28T17:48:19.178Z,french_337.wav,0,poule,773,30,5,3,english,m,11,1.1,70.59581093,0.25063138
64a83c3f17fdbbd04588c34a,27,0,2024-02-28T17:48:19.178Z,french_337.wav,0,poule,773,30,5,3,english,m,12,1.14141667,-22.88982384,0.65987502
64a83c3f17fdbbd04588c34a,28,0,2024-02-28T17:48:19.178Z,french_747.wav,0,poule,1158,30,5,3,english,m,0,0.0,22.35129755,0.57573124
64a83c3f17fdbbd04588c34a,28,0,2024-02-28T17:48:19.178Z,french_747.wav,0,poule,1158,30,5,3,english,m,1,0.1,31.28985519,0.11622931
64a83c3f17fdbbd04588c34a,28,0,2024-02-28T17:48:19.178Z,french_747.wav,0,poule,1158,30,5,3,english,m,2,0.2,73.11219061,0.36140746
64a83c3f17fdbbd04588c34a,28,0,2024-02-28T17:48:19.178Z,french_747.wav,0,poule,1158,30,5,3,english,m,3,0.3,-79.87541576,1.71551135
64a83c3f17fdbbd04588c34a,28,0,2024-02-28T17:48:19.178Z,french_747.wav,0,poule,1158,30,5,3,english,m,4,0.4,3.72751683,0.85918253
64a83c3f17fdbbd04588c34a,28,0,2024-02-28T17:48:19.178Z,french_747.wav,0,poule,1158,30,5,3,english,m,5,0.5,48.71311284,1.08200139
64a83c3f17fdbbd04588c34a,28,0,2024-02-28T17:48:19.178Z,french_747.wav,0,poule,1158,30,5,3,english,m,6,0.6,-74.27621697,0.68704186
64a83c3f17fdbbd04588c34a,28,0,2024-02-28T17:48:19.178Z,french_747.wav,0,poule,1158,30,5,3,english,m,7,0.7,44.77745099,0.29142073
64a83c3f17fdbbd04588c34a,28,0,2024-02-28T17:48:19.178Z,french_747.wav,0,poule,1158,30,5,3,english,m,8,0.8,13.39337719,0.81449994
64a83c3f17fdbbd04588c34a,28,0,2024-02-28T17:48:19.178Z,french_747.wav,0,poule,1158,30,5,3,english,m,9,0.9,17.18472002,1.55479788
64a83c3f17fdbbd04588c34a,28,0,2024-02-28T17:48:19.178Z,french_747.wav,0,poule,1158,30,5,3,english,m,10,1.0,54.20026422,0.75726735
64a83c3f17fdbbd04588c34a,28,0,2024-02-28T17:48:19.178Z,french_747.wav,0,poule,1158,30,5,3,english,m,11,1.1,-55.52225966,1.34917771
64a83c3f17fdbbd04588c34a,28,0,2024-02-28T17:48:19.178Z,french_747.wav,0,poule,1158,30,5,3,english,m,12,1.14141667,28.09696307,1.09340112
64a83c3f17fdbbd04588c34a,29,0,2024-02-28T17:48:19.178Z,french_813.wav,0,poule,555,30,5,3,english,m,0,0.0,69.06200067,0.29951512
64a83c3f17fdbbd04588c34a,29,0,2024-02-28T17:48:19.178Z,french_813.wav,0,poule,555,30,5,3,english,m,1,0.1,-89.70899994,1.36224471
64a83c3f17fdbbd04588c34a,29,0,2024-02-28T17:48:19.178Z,french_813.wav,0,poule,555,30,5,3,english,m,2,0.2,43.81572202,0.0293785
64a83c3f17fdbbd04588c34a,29,0,2024-02-28T17:48:19.178Z,french_813.wav,0,poule,555,30,5,3,english,m,3,0.3,-41.50364765,0.51838794
64a83c3f17fdbbd04588c34a,29,0,2024-02-28T17:48:19.178Z,french_813.wav,0,poule,555,30,5,3,english,m,4,0.4,-1.78342508,1.05299201
64a83c3f17fdbbd04588c34a,29,0,2024-02-28T17:48:19.178Z,french_813.wav,0,poule,555,30,5,3,english,m,5,0.5,68.94891373,1.59518238
64a83c3f17fdbbd04588c34a,29,0,2024-02-28T17:48:19.178Z,french_813.wav,0,poule,555,30,5,3,english,m,6,0.6,68.8332263,1.28929513
64a83c3f17fdbbd04588c34a,29,0,2024-02-28T17:48:19.178Z,french_813.wav,0,poule,555,30,5,3,english,m,7,0.7,33.63190852,0.89312292
64a83c3f17fdbbd04588c34a,29,0,2024-02-28T17:48:19.178Z,french_813.wav,0,poule,555,30,5,3,english,m,8,0.8,-9.29492587,1.36307198
64a83c3f17fdbbd04588c34a,29,0,2024-02-28T17:48:19.178Z,french_813.wav,0,poule,555,30,5,3,english,m,9,0.9,-32.93979575,1.40459321
64a83c3f17fdbbd04588c34a,29,0,2024-02-28T17:48:19.178Z,french_813.wav,0,poule,555,30,5,3,english,m,10,1.0,75.81334165,1.95945493
64a83c3f17fdbbd04588c34a,29,0,2024-02-28T17:48:19.178Z,french_813.wav,0,poule,555,30,5,3,english,m,11,1.1,12.9737464,1.07635721
64a83c3f17fdbbd04588c34a,29,0,2024-02-28T17:48:19.178Z,french_813.wav,0,poule,555,30,5,3,english,m,12,1.14141667,-25.28540764,0.2405844
64a83c3f17fdbbd04588c34a,30,0,2024-02-28T17:48:19.178Z,french_242.wav,0,pull,519,30,5,3,english,m,0,0.0,59.9246686,0.7705426
64a83c3f17fdbbd04588c34a,30,0,2024-02-28T17:48:19.178Z,french_242.wav,0,pull,519,30,5,3,english,m,1,0.1,34.317104,1.35720794
64a83c3f17fdbbd04588c34a,30,0,2024-02-28T17:48:19.178Z,french_242.wav,0,pull,519,30,5,3,english,m,2,0.2,-16.35349213,1.64741756
64a83c3f17fdbbd04588c34a,30,0,2024-02-28T17:48:19.178Z,french_242.wav,0,pull,519,30,5,3,english,m,3,0.3,-3.89642432,1.32981589
64a83c3f17fdbbd04588c34a,30,0,2024-02-28T17:48:19.178Z,french_242.wav,0,pull,519,30,5,3,english,m,4,0.4,29.46938807,1.18335147
64a83c3f17fdbbd04588c34a,30,0,2024-02-28T17:48:19.178Z,french_242.wav,0,pull,519,30,5,3,english,m,5,0.5,87.19069856,0.80157352
64a83c3f17fdbbd04588c34a,30,0,2024-02-28T17:48:19.178Z,french_242.wav,0,pull,519,30,5,3,english,m,6,0.6,31.58848926,0.21433163
64a83c3f17fdbbd04588c34a,30,0,2024-02-28T17:48:19.178Z,french_242.wav,0,pull,519,30,5,3,english,m,7,0.7,67.19434404,0.24954864
64a83c3f17fdbbd04588c34a,30,0,2024-02-28T17:48:19.178Z,french_242.wav,0,pull,519,30,5,3,english,m,8,0.8,60.57808794,0.17414225
64a83c3f17fdbbd04588c34a,30,0,2024-02-28T17:48:19.178Z,french_242.wav,0,pull,519,30,5,3,english,m,9,0.9,42.29794733,1.41029666
64a83c3f17fdbbd04588c34a,30,0,2024-02-28T17:48:19.178Z,french_242.wav,0,pull,519,30,5,3,english,m,10,1.0,-49.75875444,0.53247326
64a83c3f17fdbbd04588c34a,30,0,2024-02-28T17:48:19.178Z,french_242.wav,0,pull,519,30,5,3,english,m,11,1.1,36.47194949,0.97948889
64a83c3f17fdbbd04588c34a,30,0,2024-02-28T17:48:19.178Z,french_242.wav,0,pull,519,30,5,3,english,m,12,1.14141667,15.25504346,0.82870392
64a83c3f17fdbbd04588c34a,31,0,2024-02-28T17:48:19.178Z,french_153.wav,0,pull,708,30,5,3,english,m,0,0.0,-42.01574029,0.84439614
64a83c3f17fdbbd04588c34a,31,0,2024-02-28T17:48:19.178Z,french_153.wav,0,pull,708,30,5,3,english,m,1,0.1,-90.00143585,0.44297776
64a83c3f17fdbbd04588c34a,31,0,2024-02-28T17:48:19.178Z,french_153.wav,0,pull,708,30,5,3,english,m,2,0.2,-43.7259183,0.69214518
64a83c3f17fdbbd04588c34a,31,0,2024-02-28T17:48:19.178Z,french_153.wav,0,pull,708,30,5,3,english,m,3,0.3,11.44022212,1.09273238
64a83c3f17fdbbd04588c34a,31,0,2024-02-28T17:48:19.178Z,french_153.wav,0,pull,708,30,5,3,english,m,4,0.4,88.748088,0.54928819
64a83c3f17fdbbd04588c34a,31,0,2024-02-28T17:48:19.178Z,french_153.wav,0,pull,708,30,5,3,english,m,5,0.5,-52.31400469,0.96507272
64a83c3f17fdbbd04588c34a,31,0,2024-02-28T17:48:19.178Z,french_153.wav,0,pull,708,30,5,3,english,m,6,0.6,87.18732736,1.56155988
64a83c3f17fdbbd04588c34a,31,0,2024-02-28T17:48:19.178Z,french_153.wav,0,pull,708,30,5,3,english,m,7,0.7,-86.03959727,1.86632658
64a83c3f17fdbbd04588c34a,31,0,2024-02-28T17:48:19.178Z,french_153.wav,0,pull,708,30,5,3,english,m,8,0.8,8.69100054,0.92278907
64a83c3f17fdbbd04588c34a,31,0,2024-02-28T17:48:19.178Z,french_153.wav,0,pull,708,30,5,3,english,m,9,0.9,62.86212057,0.59982574
64a83c3f17fdbbd04588c34a,31,0,2024-02-28T17:48:19.178Z,french_153.wav,0,pull,708,30,5,3,english,m,10,1.0,27.92700795,0.05271929
64a83c3f17fdbbd04588c34a,31,0,2024-02-28T17:48:19.178Z,french_153.wav,0,pull,708,30,5,3,english,m,11,1.1,39.59984074,0.68548108
64a83c3f17fdbbd04588c34a,31,0,2024-02-28T17:48:19.178Z,french_153.wav,0,pull,708,30,5,3,english,m,12,1.14141667,-14.92872681,1.34366794
64a83c3f17fdbbd04588c34a,32,0,2024-02-28T17:48:19.178Z,french_858.wav,0,pull,481,30,5,3,english,m,0,0.0,-53.68453677,1.6757384
64a83c3f17fdbbd04588c34a,32,0,2024-02-28T17:48:19.178Z,french_858.wav,0,pull,481,30,5,3,english,m,1,0.1,-28.94516131,1.30661064
64a83c3f17fdbbd04588c34a,32,0,2024-02-28T17:48:19.178Z,french_858.wav,0,pull,481,30,5,3,english,m,2,0.2,-98.24340487,0.9866685
64a83c3f17fdbbd04588c34a,32,0,2024-02-28T17:48:19.178Z,french_858.wav,0,pull,481,30,5,3,english,m,3,0.3,-99.1252782,0.35735292
64a83c3f17fdbbd04588c34a,32,0,2024-02-28T17:48:19.178Z,french_858.wav,0,pull,481,30,5,3,english,m,4,0.4,-26.26210223,1.10822688
64a83c3f17fdbbd04588c34a,32,0,2024-02-28T17:48:19.178Z,french_858.wav,0,pull,481,30,5,3,english,m,5,0.5,-45.03942581,1.57836245
64a83c3f17fdbbd04588c34a,32,0,2024-02-28T17:48:19.178Z,french_858.wav,0,pull,481,30,5,3,english,m,6,0.6,-66.94086258,1.65767341
64a83c3f17fdbbd04588c34a,32,0,2024-02-28T17:48:19.178Z,french_858.wav,0,pull,481,30,5,3,english,m,7,0.7,82.11998094,1.15727357
64a83c3f17fdbbd04588c34a,32,0,2024-02-28T17:48:19.178Z,french_858.wav,0,pull,481,30,5,3,english,m,8,0.8,26.35770122,1.70991659
64a83c3f17fdbbd04588c34a,32,0,2024-02-28T17:48:19.178Z,french_858.wav,0,pull,481,30,5,3,english,m,9,0.9,30.884295,0.39633264
64a83c3f17fdbbd04588c34a,32,0,2024-02-28T17:48:19.178Z,french_858.wav,0,pull,481,30,5,3,english,m,10,1.0,12.20949493,0.36576693
64a83c3f17fdbbd04588c34a,32,0,2024-02-28T17:48:19.178Z,french_858.wav,0,pull,481,30,5,3,english,m,11,1.1,-39.12104369,1.53765391
64a83c3f17fdbbd04588c34a,32,0,2024-02-28T17:48:19.178Z,french_858.wav,0,pull,481,30,5,3,english,m,12,1.14141667,17.56591415,0.88045647
64a83c3f17fdbbd04588c34a,33,0,2024-02-28T17:48:19.178Z,french_586.wav,0,poule,351,30,5,3,english,m,0,0.0,34.34393454,0.65827859
64a83c3f17fdbbd04588c34a,33,0,2024-02-28T17:48:19.178Z,french_586.wav,0,poule,351,30,5,3,english,m,1,0.1,-63.53295293,1.01876424
64a83c3f17fdbbd04588c34a,33,0,2024-02-28T17:48:19.178Z,french_586.wav,0,poule,351,30,5,3,english,m,2,0.2,-4.69144577,1.74985157
64a83c3f17fdbbd04588c34a,33,0,2024-02-28T17:48:19.178Z,french_586.wav,0,poule,351,30,5,3,english,m,3,0.3,13.65274473,1.48331678
64a83c3f17fdbbd04588c34a,33,0,2024-02-28T17:48:19.178Z,french_586.wav,0,poule,351,30,5,3,english,m,4,0.4,-95.66541298,1.45004524
64a83c3f17fdbbd04588c34a,33,0,2024-02-28T17:48:19.178Z,french_586.wav,0,poule,351,30,5,3,english,m,5,0.5,-51.81393767,1.66956646
64a83c3f17fdbbd04588c34a,33,0,2024-02-28T17:48:19.178Z,french_586.wav,0,poule,351,30,5,3,english,m,6,0.6,-36.12088319,1.83026395
64a83c3f17fdbbd04588c34a,33,0,2024-02-28T17:48:19.178Z,french_586.wav,0,poule,351,30,5,3,english,m,7,0.7,39.59921862,0.38816985
64a83c3f17fdbbd04588c34a,33,0,2024-02-28T17:48:19.178Z,french_586.wav,0,poule,351,30,5,3,english,m,8,0.8,-30.54313126,1.42906988
64a83c3f17fdbbd04588c34a,33,0,2024-02-28T17:48:19.178Z,french_586.wav,0,poule,351,30,5,3,english,m,9,0.9,-38.68998927,1.22678382
64a83c3f17fdbbd04588c34a,33,0,2024-02-28T17:48:19.178Z,french_586.wav,0,poule,351,30,5,3,english,m,10,1.0,-48.22437321,0.66043621
64a83c3f17fdbbd04588c34a,33,0,2024-02-28T17:48:19.178Z,french_586.wav,0,poule,351,30,5,3,english,m,11,1.1,-19.71994639,0.18129374
64a83c3f17fdbbd04588c34a,33,0,2024-02-28T17:48:19.178Z,french_586.wav,0,poule,351,30,5,3,english,m,12,1.14141667,-13.36825221,1.04989176
64a83c3f17fdbbd04588c34a,34,0,2024-02-28T17:48:19.178Z,french_365.wav,0,poule,497,30,5,3,english,m,0,0.0,31.61059752,1.42310817
64a83c3f17fdbbd04588c34a,34,0,2024-02-28T17:48:19.178Z,french_365.wav,0,poule,497,30,5,3,english,m,1,0.1,-20.95390516,1.52633282
64a83c3f17fdbbd04588c34a,34,0,2024-02-28T17:48:19.178Z,french_365.wav,0,poule,497,30,5,3,english,m,2,0.2,91.80675495,1.22938312
64a83c3f17fdbbd04588c34a,34,0,2024-02-28T17:48:19.178Z,french_365.wav,0,poule,497,30,5,3,english,m,3,0.3,67.5510561,1.26382278
64a83c3f17fdbbd04588c34a,34,0,2024-02-28T17:48:19.178Z,french_365.wav,0,poule,497,30,5,3,english,m,4,0.4,-93.71218293,1.53091844
64a83c3f17fdbbd04588c34a,34,0,2024-02-28T17:48:19.178Z,french_365.wav,0,poule,497,30,5,3,english,m,5,0.5,45.32858601,0.15378173
64a83c3f17fdbbd04588c34a,34,0,2024-02-28T17:48:19.178Z,french_365.wav,0,poule,497,30,5,3,english,m,6,0.6,84.27621414,0.48106393
64a83c3f17fdbbd04588c34a,34,0,2024-02-28T17:48:19.178Z,french_365.wav,0,poule,497,30,5,3,english,m,7,0.7,28.03701536,1.79415704
64a83c3f17fdbbd04588c34a,34,0,2024-02-28T17:48:19.178Z,french_365.wav,0,poule,497,30,5,3,english,m,8,0.8,-71.05958582,1.6034925
64a83c3f17fdbbd04588c34a,34,0,2024-02-28T17:48:19.178Z,french_365.wav,0,poule,497,30,5,3,english,m,9,0.9,-23.72094953,1.30852528
64a83c3f17fdbbd04588c34a,34,0,2024-02-28T17:48:19.178Z,french_365.wav,0,poule,497,30,5,3,english,m,10,1.0,18.29479384,0.76895664
64a83c3f17fdbbd04588c34a,34,0,2024-02-28T17:48:19.178Z,french_365.wav,0,poule,497,30,5,3,english,m,11,1.1,-12.82863724,0.54165009
64a83c3f17fdbbd04588c34a,34,0,2024-02-28T17:48:19.178Z,french_365.wav,0,poule,497,30,5,3,english,m,12,1.14141667,67.22118203,0.4698946
64a83c3f17fdbbd04588c34a,35,0,2024-02-28T17:48:19.178Z,french_342.wav,0,pull,780,30,5,3,english,m,0,0.0,72.08151479,0.02168505
64a83c3f17fdbbd04588c34a,35,0,2024-02-28T17:48:19.178Z,french_342.wav,0,pull,780,30,5,3,english,m,1,0.1,45.77778304,1.85239049
64a83c3f17fdbbd04588c34a,35,0,2024-02-28T17:48:19.178Z,french_342.wav,0,pull,780,30,5,3,english,m,2,0.2,-82.5276636,1.68256568
64a83c3f17fdbbd04588c34a,35,0,2024-02-28T17:48:19.178Z,french_342.wav,0,pull,780,30,5,3,english,m,3,0.3,93.298167,1.54601332
64a83c3f17fdbbd04588c34a,35,0,2024-02-28T17:48:19.178Z,french_342.wav,0,pull,780,30,5,3,english,m,4,0.4,93.41383715,0.74917044
64a83c3f17fdbbd04588c34a,35,0,2024-02-28T17:48:19.178Z,french_342.wav,0,pull,780,30,5,3,english,m,5,0.5,44.55697815,0.52191063
64a83c3f17fdbbd04588c34a,35,0,2024-02-28T17:48:19.178Z,french_342.wav,0,pull,780,30,5,3,english,m,6,0.6,71.09875097,0.75161146
64a83c3f17fdbbd04588c34a,35,0,2024-02-28T17:48:19.178Z,french_342.wav,0,pull,780,30,5,3,english,m,7,0.7,-29.64579103,0.91567366
64a83c3f17fdbbd04588c34a,35,0,2024-02-28T17:48:19.178Z,french_342.wav,0,pull,780,30,5,3,english,m,8,0.8,20.73326138,0.94859262
64a83c3f17fdbbd04588c34a,35,0,2024-02-28T17:48:19.178Z,french_342.wav,0,pull,780,30,5,3,english,m,9,0.9,72.60488573,1.72561772
64a83c3f17fdbbd04588c34a,35,0,2024-02-28T17:48:19.178Z,french_342.wav,0,pull,780,30,5,3,english,m,10,1.0,-70.97946128,1.57781657
64a83c3f17fdbbd04588c34a,35,0,2024-02-28T17:48:19.178Z,french_342.wav,0,pull,780,30,5,3,english,m,11,1.1,-60.87275594,1.52145589
64a83c3f17fdbbd04588c34a,35,0,2024-02-28T17:48:19.178Z,french_342.wav,0,pull,780,30,5,3,english,m,12,1.14141667,-85.57693971,0.47604353
64a83c3f17fdbbd04588c34a,36,0,2024-02-28T17:48:19.178Z,french_66.wav,0,pull,649,30,5,3,english,m,0,0.0,-98.32760245,0.76752471
64a83c3f17fdbbd04588c34a,36,0,2024-02-28T17:48:19.178Z,french_66.wav,0,pull,649,30,5,3,english,m,1,0.1,-62.26266621,1.09885532
64a83c3f17fdbbd04588c34a,36,0,2024-02-28T17:48:19.178Z,french_66.wav,0,pull,649,30,5,3,english,m,2,0.2,89.72937552,0.15772662
64a83c3f17fdbbd04588c34a,36,0,2024-02-28T17:48:19.178Z,french_66.wav,0,pull,649,30,5,3,english,m,3,0.3,56.77934236,0.75379746
64a83c3f17fdbbd04588c34a,36,0,2024-02-28T17:48:19.178Z,french_66.wav,0,pull,649,30,5,3,english,m,4,0.4,-42.45776165,0.86935584
64a83c3f17fdbbd04588c34a,36,0,2024-02-28T17:48:19.178Z,french_66.wav,0,pull,649,30,5,3,english,m,5,0.5,-59.91789644,0.32743409
64a83c3f17fdbbd04588c34a,36,0,2024-02-28T17:48:19.178Z,french_66.wav,0,pull,649,30,5,3,english,m,6,0.6,-9.4669158,0.75398911
64a83c3f17fdbbd04588c34a,36,0,2024-02-28T17:48:19.178Z,french_66.wav,0,pull,649,30,5,3,english,m,7,0.7,65.23523517,1.26665279
64a83c3f17fdbbd04588c34a,36,0,2024-02-28T17:48:19.178Z,french_66.wav,0,pull,649,30,5,3,english,m,8,0.8,-82.94194698,1.24326808
64a83c3f17fdbbd04588c34a,36,0,2024-02-28T17:48:19.178Z,french_66.wav,0,pull,649,30,5,3,english,m,9,0.9,-10.04050412,1.27187404
64a83c3f17fdbbd04588c34a,36,0,2024-02-28T17:48:19.178Z,french_66.wav,0,pull,649,30,5,3,english,m,10,1.0,69.7789537,1.72227413
64a83c3f17fdbbd04588c34a,36,0,2024-02-28T17:48:19.178Z,french_66.wav,0,pull,649,30,5,3,english,m,11,1.1,65.31837891,1.95483723
64a83c3f17fdbbd04588c34a,36,0,2024-02-28T17:48:19.178Z,french_66.wav,0,pull,649,30,5,3,english,m,12,1.14141667,-9.82207776,0.94632212
64a83c3f17fdbbd04588c34a,37,0,2024-02-28T17:48:19.178Z,french_665.wav,0,pull,699,30,5,3,english,m,0,0.0,40.10949249,1.54602454
64a83c3f17fdbbd04588c34a,37,0,2024-02-28T17:48:19.178Z,french_665.wav,0,pull,699,30,5,3,english,m,1,0.1,-62.11772623,0.85820789
64a83c3f17fdbbd04588c34a,37,0,2024-02-28T17:48:19.178Z,french_665.wav,0,pull,699,30,5,3,english,m,2,0.2,10.37983959,1.54593526
64a83c3f17fdbbd04588c34a,37,0,2024-02-28T17:48:19.178Z,french_665.wav,0,pull,699,30,5,3,english,m,3,0.3,-90.96267468,1.66779558
64a83c3f17fdbbd04588c34a,37,0,2024-02-28T17:48:19.178Z,french_665.wav,0,pull,699,30,5,3,english,m,4,0.4,-82.59415996,1.76178738
64a83c3f17fdbbd04588c34a,37,0,2024-02-28T17:48:19.178Z,french_665.wav,0,pull,699,30,5,3,english,m,5,0.5,72.10201259,0.44098313
64a83c3f17fdbbd04588c34a,37,0,2024-02-28T17:48:19.178Z,french_665.wav,0,pull,699,30,5,3,english,m,6,0.6,7.07517584,1.49710418
64a83c3f17fdbbd04588c34a,37,0,2024-02-28T17:48:19.178Z,french_665.wav,0,pull,699,30,5,3,english,m,7,0.7,17.81948605,1.04266642
64a83c3f17fdbbd04588c34a,37,0,2024-02-28T17:48:19.178Z,french_665.wav,0,pull,699,30,5,3,english,m,8,0.8,-75.16725794,1.09545449
64a83c3f17fdbbd04588c34a,37,0,2024-02-28T17:48:19.178Z,french_665.wav,0,pull,699,30,5,3,english,m,9,0.9,86.62263138,0.00262512
64a83c3f17fdbbd04588c34a,37,0,2024-02-28T17:48:19.178Z,french_665.wav,0,pull,699,30,5,3,english,m,10,1.0,-39.56803586,1.93103182
64a83c3f17fdbbd04588c34a,37,0,2024-02-28T17:48:19.178Z,french_665.wav,0,pull,699,30,5,3,english,m,11,1.1,-92.62860056,1.53232008
64a83c3f17fdbbd04588c34a,37,0,2024-02-28T17:48:19.178Z,french_665.wav,0,pull,699,30,5,3,english,m,12,1.14141667,37.86117833,1.33107791
64a83c3f17fdbbd04588c34a,38,0,2024-02-28T17:48:19.178Z,french_915.wav,0,poule,284,30,5,3,english,m,0,0.0,24.97229927,0.29650111
64a83c3f17fdbbd04588c34a,38,0,2024-02-28T17:48:19.178Z,french_915.wav,0,poule,284,30,5,3,english,m,1,0.1,9.55755976,1.7574547
64a83c3f17fdbbd04588c34a,38,0,2024-02-28T17:48:19.178Z,french_915.wav,0,poule,284,30,5,3,english,m,2,0.2,-36.73982377,1.09391109
64a83c3f17fdbbd04588c34a,38,0,2024-02-28T17:48:19.178Z,french_915.wav,0,poule,284,30,5,3,english,m,3,0.3,16.36164394,0.1335892
64a83c3f17fdbbd04588c34a,38,0,2024-02-28T17:48:19.178Z,french_915.wav,0,poule,284,30,5,3,english,m,4,0.4,18.89549827,1.43122832
64a83c3f17fdbbd04588c34a,38,0,2024-02-28T17:48:19.178Z,french_915.wav,0,poule,284,30,5,3,english,m,5,0.5,29.58178959,1.80794112
64a83c3f17fdbbd04588c34a,38,0,2024-02-28T17:48:19.178Z,french_915.wav,0,poule,284,30,5,3,english,m,6,0.6,67.00984201,1.50463968
64a83c3f17fdbbd04588c34a,38,0,2024-02-28T17:48:19.178Z,french_915.wav,0,poule,284,30,5,3,english,m,7,0.7,69.33436498,1.3294998
64a83c3f17fdbbd04588c34a,38,0,2024-02-28T17:48:19.178Z,french_915.wav,0,poule,284,30,5,3,english,m,8,0.8,-68.5567505,1.58149329
64a83c3f17fdbbd04588c34a,38,0,2024-02-28T17:48:19.178Z,french_915.wav,0,poule,284,30,5,3,english,m,9,0.9,-82.82111497,1.17041831
64a83c3f17fdbbd04588c34a,38,0,2024-02-28T17:48:19.178Z,french_915.wav,0,poule,284,30,5,3,english,m,10,1.0,-19.3056594,0.93306192
64a83c3f17fdbbd04588c34a,38,0,2024-02-28T17:48:19.178Z,french_915.wav,0,poule,284,30,5,3,english,m,11,1.1,46.67656137,0.84227441
64a83c3f17fdbbd04588c34a,38,0,2024-02-28T17:48:19.178Z,french_915.wav,0,poule,284,30,5,3,english,m,12,1.14141667,-49.01815879,1.06379674
64a83c3f17fdbbd04588c34a,39,0,2024-02-28T17:48:19.178Z,french_165.wav,0,poule,409,30,5,3,english,m,0,0.0,-30.57242851,0.37315661
64a83c3f17fdbbd04588c34a,39,0,2024-02-28T17:48:19.178Z,french_165.wav,0,poule,409,30,5,3,english,m,1,0.1,14.97931662,1.05022762
64a83c3f17fdbbd04588c34a,39,0,2024-02-28T17:48:19.178Z,french_165.wav,0,poule,409,30,5,3,english,m,2,0.2,-12.73059909,1.01492906
64a83c3f17fdbbd04588c34a,39,0,2024-02-28T17:48:19.178Z,french_165.wav,0,poule,409,30,5,3,english,m,3,0.3,-76.6340538,1.93408877
64a83c3f17fdbbd04588c34a,39,0,2024-02-28T17:48:19.178Z,french_165.wav,0,poule,409,30,5,3,english,m,4,0.4,-39.77201686,1.23235421
64a83c3f17fdbbd04588c34a,39,0,2024-02-28T17:48:19.178Z,french_165.wav,0,poule,409,30,5,3,english,m,5,0.5,71.31806432,1.09863872
64a83c3f17fdbbd04588c34a,39,0,2024-02-28T17:48:19.178Z,french_165.wav,0,poule,409,30,5,3,english,m,6,0.6,10.64683686,1.73842976
64a83c3f17fdbbd04588c34a,39,0,2024-02-28T17:48:19.178Z,french_165.wav,0,poule,409,30,5,3,english,m,7,0.7,-39.62288549,1.7696099
64a83c3f17fdbbd04588c34a,39,0,2024-02-28T17:48:19.178Z,french_165.wav,0,poule,409,30,5,3,english,m,8,0.8,30.96552198,0.64569778
64a83c3f17fdbbd04588c34a,39,0,2024-02-28T17:48:19.178Z,french_165.wav,0,poule,409,30,5,3,english,m,9,0.9,-10.22867333,0.76121888
64a83c3f17fdbbd04588c34a,39,0,2024-02-28T17:48:19.178Z,french_165.wav,0,poule,409,30,5,3,english,m,10,1.0,10.06380936,1.37138018
64a83c3f17fdbbd04588c34a,39,0,2024-02-28T17:48:19.178Z,french_165.wav,0,poule,409,30,5,3,english,m,11,1.1,46.55251325,0.47603266
64a83c3f17fdbbd04588c34a,39,0,2024-02-28T17:48:19.178Z,french_165.wav,0,poule,409,30,5,3,english,m,12,1.14141667,-68.18565714,0.62197503
64a83c3f17fdbbd04588c34a,40,0,2024-02-28T17:48:19.178Z,french_684.wav,0,pull,833,30,5,3,english,m,0,0.0,-88.96240825,1.78476448
64a83c3f17fdbbd04588c34a,40,0,2024-02-28T17:48:19.178Z,french_684.wav,0,pull,833,30,5,3,english,m,1,0.1,-54.37508207,0.02576857
64a83c3f17fdbbd04588c34a,40,0,2024-02-28T17:48:19.178Z,french_684.wav,0,pull,833,30,5,3,english,m,2,0.2,-91.57905397,1.04724647
64a83c3f17fdbbd04588c34a,40,0,2024-02-28T17:48:19.178Z,french_684.wav,0,pull,833,30,5,3,english,m,3,0.3,-58.85501017,0.76694618
64a83c3f17fdbbd04588c34a,40,0,2024-02-28T17:48:19.178Z,french_684.wav,0,pull,833,30,5,3,english,m,4,0.4,44.82481671,0.80269361
64a83c3f17fdbbd04588c34a,40,0,2024-02-28T17:48:19.178Z,french_684.wav,0,pull,833,30,5,3,english,m,5,0.5,-70.60806513,0.84512097
64a83c3f17fdbbd04588c34a,40,0,2024-02-28T17:48:19.178Z,french_684.wav,0,pull,833,30,5,3,english,m,6,0.6,94.32148608,0.97813642
64a83c3f17fdbbd04588c34a,40,0,2024-02-28T17:48:19.178Z,french_684.wav,0,pull,833,30,5,3,english,m,7,0.7,-17.32520236,0.54666182
64a83c3f17fdbbd04588c34a,40,0,2024-02-28T17:48:19.178Z,french_684.wav,0,pull,833,30,5,3,english,m,8,0.8,29.06027198,0.58446507
64a83c3f17fdbbd04588c34a,40,0,2024-02-28T17:48:19.178Z,french_684.wav,0,pull,833,30,5,3,english,m,9,0.9,-57.57833097,0.42247579
64a83c3f17fdbbd04588c34a,40,0,2024-02-28T17:48:19.178Z,french_684.wav,0,pull,833,30,5,3,english,m,10,1.0,-48.20877129,0.8068102
64a83c3f17fdbbd04588c34a,40,0,2024-02-28T17:48:19.178Z,french_684.wav,0,pull,833,30,5,3,english,m,11,1.1,58.87949866,0.07609372
64a83c3f17fdbbd04588c34a,40,0,2024-02-28T17:48:19.178Z,french_684.wav,0,pull,833,30,5,3,english,m,12,1.14141667,-11.47571774,1.952562
64a83c3f17fdbbd04588c34a,41,0,2024-02-28T17:48:19.178Z,french_695.wav,0,poule,364,30,5,3,english,m,0,0.0,91.03645015,1.97576794
64a83c3f17fdbbd04588c34a,41,0,2024-02-28T17:48:19.178Z,french_695.wav,0,poule,364,30,5,3,english,m,1,0.1,-17.31714147,1.557192
64a83c3f17fdbbd04588c34a,41,0,2024-02-28T17:48:19.178Z,french_695.wav,0,poule,364,30,5,3,english,m,2,0.2,-14.58014364,1.20817895
64a83c3f17fdbbd04588c34a,41,0,2024-02-28T17:48:19.178Z,french_695.wav,0,poule,364,30,5,3,english,m,3,0.3,-18.9204461,0.21789238
64a83c3f17fdbbd04588c34a,41,0,2024-02-28T17:48:19.178Z,french_695.wav,0,poule,364,30,5,3,english,m,4,0.4,46.57979365,1.60794008
64a83c3f17fdbbd04588c34a,41,0,2024-02-28T17:48:19.178Z,french_695.wav,0,poule,364,30,5,3,english,m,5,0.5,-90.24090986,0.78145158
64a83c3f17fdbbd04588c34a,41,0,2024-02-28T17:48:19.178Z,french_695.wav,0,poule,364,30,5,3,english,m,6,0.6,-0.59110837,1.16957278
64a83c3f17fdbbd04588c34a,41,0,2024-02-28T17:48:19.178Z,french_695.wav,0,poule,364,30,5,3,english,m,7,0.7,-10.88951476,0.74913415
64a83c3f17fdbbd04588c34a,41,0,2024-02-28T17:48:19.178Z,french_695.wav,0,poule,364,30,5,3,english,m,8,0.8,-12.64634725,0.14772287
64a83c3f17fdbbd04588c34a,41,0,2024-02-28T17:48:19.178Z,french_695.wav,0,poule,364,30,5,3,english,m,9,0.9,93.12439983,1.44178523
64a83c3f17fdbbd04588c34a,41,0,2024-02-28T17:48:19.178Z,french_695.wav,0,poule,364,30,5,3,english,m,10,1.0,-53.03412878,1.23628709
64a83c3f17fdbbd04588c34a,41,0,2024-02-28T17:48:19.178Z,french_695.wav,0,poule,364,30,5,3,english,m,11,1.1,-32.6093433,1.71888582
64a83c3f17fdbbd04588c34a,41,0,2024-02-28T17:48:19.178Z,french_695.wav,0,poule,364,30,5,3,english,m,12,1.14141667,-33.49594962,0.08672386
64a83c3f17fdbbd04588c34a,42,0,2024-02-28T17:48:19.178Z,french_716.wav,0,pull,725,30,5,3,english,m,0,0.0,84.87639906,1.92655078
64a83c3f17fdbbd04588c34a,42,0,2024-02-28T17:48:19.178Z,french_716.wav,0,pull,725,30,5,3,english,m,1,0.1,54.49446049,1.37110258
64a83c3f17fdbbd04588c34a,42,0,2024-02-28T17:48:19.178Z,french_716.wav,0,pull,725,30,5,3,english,m,2,0.2,-33.6672808,1.73596747
64a83c3f17fdbbd04588c34a,42,0,2024-02-28T17:48:19.178Z,french_716.wav,0,pull,725,30,5,3,english,m,3,0.3,31.11479488,0.31167155
64a83c3f17fdbbd04588c34a,42,0,2024-02-28T17:48:19.178Z,french_716.wav,0,pull,725,30,5,3,english,m,4,0.4,97.83134943,0.18688804
64a83c3f17fdbbd04588c34a,42,0,2024-02-28T17:48:19.178Z,french_716.wav,0,pull,725,30,5,3,english,m,5,0.5,55.89798197,1.4188423
64a83c3f17fdbbd04588c34a,42,0,2024-02-28T17:48:19.178Z,french_716.wav,0,pull,725,30,5,3,english,m,6,0.6,28.16330303,1.46210452
64a83c3f17fdbbd04588c34a,42,0,2024-02-28T17:48:19.178Z,french_716.wav,0,pull,725,30,5,3,english,m,7,0.7,40.94146589,0.8475844
64a83c3f17fdbbd04588c34a,42,0,2024-02-28T17:48:19.178Z,french_716.wav,0,pull,725,30,5,3,english,m,8,0.8,34.01420355,0.11520513
64a83c3f17fdbbd04588c34a,42,0,2024-02-28T17:48:19.178Z,french_716.wav,0,pull,725,30,5,3,english,m,9,0.9,-53.03672918,0.52894825
64a83c3f17fdbbd04588c34a,42,0,2024-02-28T17:48:19.178Z,french_716.wav,0,pull,725,30,5,3,english,m,10,1.0,41.75708432,1.51511513
64a83c3f17fdbbd04588c34a,42,0,2024-02-28T17:48:19.178Z,french_716.wav,0,pull,725,30,5,3,english,m,11,1.1,-12.68091071,0.85209169
64a83c3f17fdbbd04588c34a,42,0,2024-02-28T17:48:19.178Z,french_716.wav,0,pull,725,30,5,3,english,m,12,1.14141667,-68.33799075,0.22080837
64a83c3f17fdbbd04588c34a,43,0,2024-02-28T17:48:19.178Z,french_560.wav,0,poule,326,30,5,3,english,m,0,0.0,-11.74144783,1.20996667
64a83c3f17fdbbd04588c34a,43,0,2024-02-28T17:48:19.178Z,french_560.wav,0,poule,326,30,5,3,english,m,1,0.1,-0.35641237,0.39351598
64a83c3f17fdbbd04588c34a,43,0,2024-02-28T17:48:19.178Z,french_560.wav,0,poule,326,30,5,3,english,m,2,0.2,4.21534923,0.8276889
64a83c3f17fdbbd04588c34a,43,0,2024-02-28T17:48:19.178Z,french_560.wav,0,poule,326,30,5,3,english,m,3,0.3,-32.05544241,0.43459246
64a83c3f17fdbbd04588c34a,43,0,2024-02-28T17:48:19.178Z,french_560.wav,0,poule,326,30,5,3,english,m,4,0.4,-88.46473304,0.34472109
64a83c3f17fdbbd04588c34a,43,0,2024-02-28T17:48:19.178Z,french_560.wav,0,poule,326,30,5,3,english,m,5,0.5,-81.48556818,1.11269407
64a83c3f17fdbbd04588c34a,43,0,2024-02-28T17:48:19.178Z,french_560.wav,0,poule,326,30,5,3,english,m,6,0.6,65.45345491,1.51504069
64a83c3f17fdbbd04588c34a,43,0,2024-02-28T17:48:19.178Z,french_560.wav,0,poule,326,30,5,3,english,m,7,0.7,-34.34624363,1.97532041
64a83c3f17fdbbd04588c34a,43,0,2024-02-28T17:48:19.178Z,french_560.wav,0,poule,326,30,5,3,english,m,8,0.8,-19.91129378,1.15858954
64a83c3f17fdbbd04588c34a,43,0,2024-02-28T17:48:19.178Z,french_560.wav,0,poule,326,30,5,3,english,m,9,0.9,-91.92174427,1.16478245
64a83c3f17fdbbd04588c34a,43,0,2024-02-28T17:48:19.178Z,french_560.wav,0,poule,326,30,5,3,english,m,10,1.0,-10.81219232,1.17685042
64a83c3f17fdbbd04588c34a,43,0,2024-02-28T17:48:19.178Z,french_560.wav,0,poule,326,30,5,3,english,m,11,1.1,76.35325221,1.01088448
64a83c3f17fdbbd04588c34a,43,0,2024-02-28T17:48:19.178Z,french_560.wav,0,poule,326,30,5,3,english,m,12,1.14141667,76.66363562,0.00977172
64a83c3f17fdbbd04588c34a,44,0,2024-02-28T17:48:19.178Z,french_456.wav,0,pull,591,30,5,3,english,m,0,0.0,-2.26654668,0.86240832
64a83c3f17fdbbd04588c34a,44,0,2024-02-28T17:48:19.178Z,french_456.wav,0,pull,591,30,5,3,english,m,1,0.1,-20.96535275,0.10770288
64a83c3f17fdbbd04588c34a,44,0,2024-02-28T17:48:19.178Z,french_456.wav,0,pull,591,30,5,3,english,m,2,0.2,-92.77471831,0.29391464
64a83c3f17fdbbd04588c34a,44,0,2024-02-28T17:48:19.178Z,french_456.wav,0,pull,591,30,5,3,english,m,3,0.3,-41.09891514,0.90200695
64a83c3f17fdbbd04588c34a,44,0,2024-02-28T17:48:19.178Z,french_456.wav,0,pull,591,30,5,3,english,m,4,0.4,21.41579928,0.53087956
64a83c3f17fdbbd04588c34a,44,0,2024-02-28T17:48:19.178Z,french_456.wav,0,pull,591,30,5,3,english,m,5,0.5,84.32473672,0.6185453
64a83c3f17fdbbd04588c34a,44,0,2024-02-28T17:48:19.178Z,french_456.wav,0,pull,591,30,5,3,english,m,6,0.6,-7.32763276,1.44054295
64a83c3f17fdbbd04588c34a,44,0,2024-02-28T17:48:19.178Z,french_456.wav,0,pull,591,30,5,3,english,m,7,0.7,52.18499563,0.32966842
64a83c3f17fdbbd04588c34a,44,0,2024-02-28T17:48:19.178Z,french_456.wav,0,pull,591,30,5,3,english,m,8,0.8,-68.20477543,1.53912075
64a83c3f17fdbbd04588c34a,44,0,2024-02-28T17:48:19.178Z,french_456.wav,0,pull,591,30,5,3,english,m,9,0.9,-22.99427194,0.23010323
64a83c3f17fdbbd04588c34a,44,0,2024-02-28T17:48:19.178Z,french_456.wav,0,pull,591,30,5,3,english,m,10,1.0,66.06872795,1.59369
64a83c3f17fdbbd04588c34a,44,0,2024-02-28T17:48:19.178Z,french_456.wav,0,pull,591,30,5,3,english,m,11,1.1,60.52269561,1.29137405
64a83c3f17fdbbd04588c34a,44,0,2024-02-28T17:48:19.178Z,french_456.wav,0,pull,591,30,5,3,english,m,12,1.14141667,-21.51058351,0.33848916
64a83c3f17fdbbd04588c34a,45,0,2024-02-28T17:48:19.178Z,french_379.wav,0,poule,227,30,5,3,english,m,0,0.0,92.35208151,0.11616284
64a83c3f17fdbbd04588c34a,45,0,2024-02-28T17:48:19.178Z,french_379.wav,0,poule,227,30,5,3,english,m,1,0.1,-25.91567626,0.27217006
64a83c3f17fdbbd04588c34a,45,0,2024-02-28T17:48:19.178Z,french_379.wav,0,poule,227,30,5,3,english,m,2,0.2,-77.118008,0.89509921
64a83c3f17fdbbd04588c34a,45,0,2024-02-28T17:48:19.178Z,french_379.wav,0,poule,227,30,5,3,english,m,3,0.3,29.86283118,0.0899849
64a83c3f17fdbbd04588c34a,45,0,2024-02-28T17:48:19.178Z,french_379.wav,0,poule,227,30,5,3,english,m,4,0.4,-82.08951689,1.97506173
64a83c3f17fdbbd04588c34a,45,0,2024-02-28T17:48:19.178Z,french_379.wav,0,poule,227,30,5,3,english,m,5,0.5,-83.67767675,1.23110802
64a83c3f17fdbbd04588c34a,45,0,2024-02-28T17:48:19.178Z,french_379.wav,0,poule,227,30,5,3,english,m,6,0.6,-86.47421564,1.35680108
64a83c3f17fdbbd04588c34a,45,0,2024-02-28T17:48:19.178Z,french_379.wav,0,poule,227,30,5,3,english,m,7,0.7,-6.33610425,0.07151016
64a83c3f17fdbbd04588c34a,45,0,2024-02-28T17:48:19.178Z,french_379.wav,0,poule,227,30,5,3,english,m,8,0.8,1.07303098,1.17075437
64a83c3f17fdbbd04588c34a,45,0,2024-02-28T17:48:19.178Z,french_379.wav,0,poule,227,30,5,3,english,m,9,0.9,-96.07937115,1.73539261
64a83c3f17fdbbd04588c34a,45,0,2024-02-28T17:48:19.178Z,french_379.wav,0,poule,227,30,5,3,english,m,10,1.0,-53.89727413,0.96881955
64a83c3f17fdbbd04588c34a,45,0,2024-02-28T17:48:19.178Z,french_379.wav,0,poule,227,30,5,3,english,m,11,1.1,72.38399251,1.26167389
64a83c3f17fdbbd04588c34a,45,0,2024-02-28T17:48:19.178Z,french_379.wav,0,poule,227,30,5,3,english,m,12,1.14141667,18.55821878,1.82038754
64a83c3f17fdbbd04588c34a,46,0,2024-02-28T17:48:19.178Z,french_733.wav,0,poule,784,30,5,3,english,m,0,0.0,-28.30259207,0.49045242
64a83c3f17fdbbd04588c34a,46,0,2024-02-28T17:48:19.178Z,french_733.wav,0,poule,784,30,5,3,english,m,1,0.1,-20.51655877,0.41105181
64a83c3f17fdbbd04588c34a,46,0,2024-02-28T17:48:19.178Z,french_733.wav,0,poule,784,30,5,3,english,m,2,0.2,32.67834183,0.51992236
64a83c3f17fdbbd04588c34a,46,0,2024-02-28T17:48:19.178Z,french_733.wav,0,poule,784,30,5,3,english,m,3,0.3,6.62547625,0.5442563
64a83c3f17fdbbd04588c34a,46,0,2024-02-28T17:48:19.178Z,french_733.wav,0,poule,784,30,5,3,english,m,4,0.4,-74.88223305,1.50191258
64a83c3f17fdbbd04588c34a,46,0,2024-02-28T17:48:19.178Z,french_733.wav,0,poule,784,30,5,3,english,m,5,0.5,78.7904108,0.7960124
64a83c3f17fdbbd04588c34a,46,0,2024-02-28T17:48:19.178Z,french_733.wav,0,poule,784,30,5,3,english,m,6,0.6,92.741833,1.55647812
64a83c3f17fdbbd04588c34a,46,0,2024-02-28T17:48:19.178Z,french_733.wav,0,poule,784,30,5,3,english,m,7,0.7,-51.74379755,0.75813018
64a83c3f17fdbbd04588c34a,46,0,2024-02-28T17:48:19.178Z,french_733.wav,0,poule,784,30,5,3,english,m,8,0.8,0.26100759,1.97775979
64a83c3f17fdbbd04588c34a,46,0,2024-02-28T17:48:19.178Z,french_733.wav,0,poule,784,30,5,3,english,m,9,0.9,80.00528442,1.24266335
64a83c3f17fdbbd04588c34a,46,0,2024-02-28T17:48:19.178Z,french_733.wav,0,poule,784,30,5,3,english,m,10,1.0,-20.98835091,0.70545845
64a83c3f17fdbbd04588c34a,46,0,2024-02-28T17:48:19.178Z,french_733.wav,0,poule,784,30,5,3,english,m,11,1.1,-67.79194344,0.86751529
64a83c3f17fdbbd04588c34a,46,0,2024-02-28T17:48:19.178Z,french_733.wav,0,poule,784,30,5,3,english,m,12,1.14141667,20.39044297,1.05140742
64a83c3f17fdbbd04588c34a,47,0,2024-02-28T17:48:19.178Z,french_311.wav,0,poule,323,30,5,3,english,m,0,0.0,-86.52864585,1.86196992
64a83c3f17fdbbd04588c34a,47,0,2024-02-28T17:48:19.178Z,french_311.wav,0,poule,323,30,5,3,english,m,1,0.1,62.66288601,1.8926505
64a83c3f17fdbbd04588c34a,47,0,2024-02-28T17:48:19.178Z,french_311.wav,0,poule,323,30,5,3,english,m,2,0.2,-36.77610058,1.91332722
64a83c3f17fdbbd04588c34a,47,0,2024-02-28T17:48:19.178Z,french_311.wav,0,poule,323,30,5,3,english,m,3,0.3,78.93138724,1.07444311
64a83c3f17fdbbd04588c34a,47,0,2024-02-28T17:48:19.178Z,french_311.wav,0,poule,323,30,5,3,english,m,4,0.4,-51.39513666,1.07416933
64a83c3f17fdbbd04588c34a,47,0,2024-02-28T17:48:19.178Z,french_311.wav,0,poule,323,30,5,3,english,m,5,0.5,56.34952921,0.12961207
64a83c3f17fdbbd04588c34a,47,0,2024-02-28T17:48:19.178Z,french_311.wav,0,poule,323,30,5,3,english,m,6,0.6,-69.85672492,1.17699672
64a83c3f17fdbbd04588c34a,47,0,2024-02-28T17:48:19.178Z,french_311.wav,0,poule,323,30,5,3,english,m,7,0.7,24.5156499,1.53343293
64a83c3f17fdbbd04588c34a,47,0,2024-02-28T17:48:19.178Z,french_311.wav,0,poule,323,30,5,3,english,m,8,0.8,-26.74412765,1.46760667
64a83c3f17fdbbd04588c34a,47,0,2024-02-28T17:48:19.178Z,french_311.wav,0,poule,323,30,5,3,english,m,9,0.9,-62.82934115,0.88003625
64a83c3f17fdbbd04588c34a,47,0,2024-02-28T17:48:19.178Z,french_311.wav,0,poule,323,30,5,3,english,m,10,1.0,-28.92551631,1.92230911
64a83c3f17fdbbd04588c34a,47,0,2024-02-28T17:48:19.178Z,french_311.wav,0,poule,323,30,5,3,english,m,11,1.1,-90.71218946,1.24404618
64a83c3f17fdbbd04588c34a,47,0,2024-02-28T17:48:19.178Z,french_311.wav,0,poule,323,30,5,3,english,m,12,1.14141667,-18.84584076,1.69798196
64a83c3f17fdbbd04588c34a,48,0,2024-02-28T17:48:19.178Z,french_812.wav,0,pull,850,30,5,3,english,m,0,0.0,-42.66002827,0.44619032
64a83c3f17fdbbd04588c34a,48,0,2024-02-28T17:48:19.178Z,french_812.wav,0,pull,850,30,5,3,english,m,1,0.1,-63.45257727,1.09752053
64a83c3f17fdbbd04588c34a,48,0,2024-02-28T17:48:19.178Z,french_812.wav,0,pull,850,30,5,3,english,m,2,0.2,-17.55899299,1.94483115
64a83c3f17fdbbd04588c34a,48,0,2024-02-28T17:48:19.178Z,french_812.wav,0,pull,850,30,5,3,english,m,3,0.3,-6.53827268,1.6322026
64a83c3f17fdbbd04588c34a,48,0,2024-02-28T17:48:19.178Z,french_812.wav,0,pull,850,30,5,3,english,m,4,0.4,82.73159926,1.42964573
64a83c3f17fdbbd04588c34a,48,0,2024-02-28T17:48:19.178Z,french_812.wav,0,pull,850,30,5,3,english,m,5,0.5,13.20285819,1.82803278
64a83c3f17fdbbd04588c34a,48,0,2024-02-28T17:48:19.178Z,french_812.wav,0,pull,850,30,5,3,english,m,6,0.6,-12.96734249,1.23610149
64a83c3f17fdbbd04588c34a,48,0,2024-02-28T17:48:19.178Z,french_812.wav,0,pull,850,30,5,3,english,m,7,0.7,-74.04565338,1.25749674
64a83c3f17fdbbd04588c34a,48,0,2024-02-28T17:48:19.178Z,french_812.wav,0,pull,850,30,5,3,english,m,8,0.8,43.93001564,1.19337031
64a83c3f17fdbbd04588c34a,48,0,2024-02-28T17:48:19.178Z,french_812.wav,0,pull,850,30,5,3,english,m,9,0.9,-5.48619498,0.21250901
64a83c3f17fdbbd04588c34a,48,0,2024-02-28T17:48:19.178Z,french_812.wav,0,pull,850,30,5,3,english,m,10,1.0,51.20549239,1.32924457
64a83c3f17fdbbd04588c34a,48,0,2024-02-28T17:48:19.178Z,french_812.wav,0,pull,850,30,5,3,english,m,11,1.1,48.53876007,0.52399169
64a83c3f17fdbbd04588c34a,48,0,2024-02-28T17:48:19.178Z,french_812.wav,0,pull,850,30,5,3,english,m,12,1.14141667,-70.42678673,0.252725
64a83c3f17fdbbd04588c34a,49,0,2024-02-28T17:48:19.178Z,french_231.wav,0,poule,408,30,5,3,english,m,0,0.0,-54.2049039,1.45183857
64a83c3f17fdbbd04588c34a,49,0,2024-02-28T17:48:19.178Z,french_231.wav,0,poule,408,30,5,3,english,m,1,0.1,87.34423026,0.86061961
64a83c3f17fdbbd04588c34a,49,0,2024-02-28T17:48:19.178Z,french_231.wav,0,poule,408,30,5,3,english,m,2,0.2,-98.84233394,1.18874301
64a83c3f17fdbbd04588c34a,49,0,2024-02-28T17:48:19.178Z,french_231.wav,0,poule,408,30,5,3,english,m,3,0.3,-97.58962459,1.66924354
64a83c3f17fdbbd04588c34a,49,0,2024-02-28T17:48:19.178Z,french_231.wav,0,poule,408,30,5,3,english,m,4,0.4,23.55242904,0.00204187
64a83c3f17fdbbd04588c34a,49,0,2024-02-28T17:48:19.178Z,french_231.wav,0,poule,408,30,5,3,english,m,5,0.5,-18.77036257,1.84930508
64a83c3f17fdbbd04588c34a,49,0,2024-02-28T17:48:19.178Z,french_231.wav,0,poule,408,30,5,3,english,m,6,0.6,8.82118315,1.9208642
64a83c3f17fdbbd04588c34a,49,0,2024-02-28T17:48:19.178Z,french_231.wav,0,poule,408,30,5,3,english,m,7,0.7,-96.44474604,1.44218332
64a83c3f17fdbbd04588c34a,49,0,2024-02-28T17:48:19.178Z,french_231.wav,0,poule,408,30,5,3,english,m,8,0.8,11.33691125,1.31619285
64a83c3f17fdbbd04588c34a,49,0,2024-02-28T17:48:19.178Z,french_231.wav,0,poule,408,30,5,3,english,m,9,0.9,47.20974818,1.76808873
64a83c3f17fdbbd04588c34a,49,0,2024-02-28T17:48:19.178Z,french_231.wav,0,poule,408,30,5,3,english,m,10,1.0,-1.35292105,0.65793632
64a83c3f17fdbbd04588c34a,49,0,2024-02-28T17:48:19.178Z,french_231.wav,0,poule,408,30,5,3,english,m,11,1.1,-2.81579098,1.84682414
64a83c3f17fdbbd04588c34a,49,0,2024-02-28T17:48:19.178Z,french_231.wav,0,poule,408,30,5,3,english,m,12,1.14141667,-50.7334248,1.49158354
64a83c3f17fdbbd04588c34a,50,1,2024-02-28T17:51:18.457Z,french_288.wav,0,poule,860,30,5,3,english,m,0,0.0,-19.66271306,0.77463997
64a83c3f17fdbbd04588c34a,50,1,2024-02-28T17:51:18.457Z,french_288.wav,0,poule,860,30,5,3,english,m,1,0.1,-49.95319108,0.15164104
64a83c3f17fdbbd04588c34a,50,1,2024-02-28T17:51:18.457Z,french_288.wav,0,poule,860,30,5,3,english,m,2,0.2,55.70739253,1.45402293
64a83c3f17fdbbd04588c34a,50,1,2024-02-28T17:51:18.457Z,french_288.wav,0,poule,860,30,5,3,english,m,3,0.3,-47.82629408,1.49503854
64a83c3f17fdbbd04588c34a,50,1,2024-02-28T17:51:18.457Z,french_288.wav,0,poule,860,30,5,3,english,m,4,0.4,-30.64427182,0.10701477
64a83c3f17fdbbd04588c34a,50,1,2024-02-28T17:51:18.457Z,french_288.wav,0,poule,860,30,5,3,english,m,5,0.5,-54.20245769,1.1175781
64a83c3f17fdbbd04588c34a,50,1,2024-02-28T17:51:18.457Z,french_288.wav,0,poule,860,30,5,3,english,m,6,0.6,94.86326533,0.62210046
64a83c3f17fdbbd04588c34a,50,1,2024-02-28T17:51:18.457Z,french_288.wav,0,poule,860,30,5,3,english,m,7,0.7,-11.35318876,1.34496978
64a83c3f17fdbbd04588c34a,50,1,2024-02-28T17:51:18.457Z,french_288.wav,0,poule,860,30,5,3,english,m,8,0.8,-94.65333259,1.0681913
64a83c3f17fdbbd04588c34a,50,1,2024-02-28T17:51:18.457Z,french_288.wav,0,poule,860,30,5,3,english,m,9,0.9,66.72626026,0.36189635
64a83c3f17fdbbd04588c34a,50,1,2024-02-28T17:51:18.457Z,french_288.wav,0,poule,860,30,5,3,english,m,10,1.0,-72.10656939,1.98571959
64a83c3f17fdbbd04588c34a,50,1,2024-02-28T17:51:18.457Z,french_288.wav,0,poule,860,30,5,3,english,m,11,1.1,-87.02340103,1.61383771
64a83c3f17fdbbd04588c34a,50,1,2024-02-28T17:51:18.457Z,french_288.wav,0,poule,860,30,5,3,english,m,12,1.14141667,-20.80379815,0.2520498
64a83c3f17fdbbd04588c34a,51,1,2024-02-28T17:51:18.457Z,french_590.wav,0,poule,651,30,5,3,english,m,0,0.0,-34.09524263,1.8496634
64a83c3f17fdbbd04588c34a,51,1,2024-02-28T17:51:18.457Z,french_590.wav,0,poule,651,30,5,3,english,m,1,0.1,-96.84709912,0.45560216
64a83c3f17fdbbd04588c34a,51,1,2024-02-28T17:51:18.457Z,french_590.wav,0,poule,651,30,5,3,english,m,2,0.2,50.61027766,1.64061159
64a83c3f17fdbbd04588c34a,51,1,2024-02-28T17:51:18.457Z,french_590.wav,0,poule,651,30,5,3,english,m,3,0.3,75.53545681,1.47890307
64a83c3f17fdbbd04588c34a,51,1,2024-02-28T17:51:18.457Z,french_590.wav,0,poule,651,30,5,3,english,m,4,0.4,-11.09035491,1.68043792
64a83c3f17fdbbd04588c34a,51,1,2024-02-28T17:51:18.457Z,french_590.wav,0,poule,651,30,5,3,english,m,5,0.5,-32.76275645,1.54166683
64a83c3f17fdbbd04588c34a,51,1,2024-02-28T17:51:18.457Z,french_590.wav,0,poule,651,30,5,3,english,m,6,0.6,32.12090996,1.68743351
64a83c3f17fdbbd04588c34a,51,1,2024-02-28T17:51:18.457Z,french_590.wav,0,poule,651,30,5,3,english,m,7,0.7,-30.8132539,0.64759962
64a83c3f17fdbbd04588c34a,51,1,2024-02-28T17:51:18.457Z,french_590.wav,0,poule,651,30,5,3,english,m,8,0.8,22.22892657,0.33521066
64a83c3f17fdbbd04588c34a,51,1,2024-02-28T17:51:18.457Z,french_590.wav,0,poule,651,30,5,3,english,m,9,0.9,48.07685608,1.44369098
64a83c3f17fdbbd04588c34a,51,1,2024-02-28T17:51:18.457Z,french_590.wav,0,poule,651,30,5,3,english,m,10,1.0,58.76836578,1.75878727
64a83c3f17fdbbd04588c34a,51,1,2024-02-28T17:51:18.457Z,french_590.wav,0,poule,651,30,5,3,english,m,11,1.1,73.49278781,0.3973942
64a83c3f17fdbbd04588c34a,51,1,2024-02-28T17:51:18.457Z,french_590.wav,0,poule,651,30,5,3,english,m,12,1.14141667,-47.33826583,0.72301886
64a83c3f17fdbbd04588c34a,52,1,2024-02-28T17:51:18.457Z,french_13.wav,0,pull,662,30,5,3,english,m,0,0.0,28.79040646,1.71683998
64a83c3f17fdbbd04588c34a,52,1,2024-02-28T17:51:18.457Z,french_13.wav,0,pull,662,30,5,3,english,m,1,0.1,1.43639251,1.51392947
64a83c3f17fdbbd04588c34a,52,1,2024-02-28T17:51:18.457Z,french_13.wav,0,pull,662,30,5,3,english,m,2,0.2,8.93741283,1.95012388
64a83c3f17fdbbd04588c34a,52,1,2024-02-28T17:51:18.457Z,french_13.wav,0,pull,662,30,5,3,english,m,3,0.3,-45.23678971,1.24720578
64a83c3f17fdbbd04588c34a,52,1,2024-02-28T17:51:18.457Z,french_13.wav,0,pull,662,30,5,3,english,m,4,0.4,-36.64568284,0.6748638
64a83c3f17fdbbd04588c34a,52,1,2024-02-28T17:51:18.457Z,french_13.wav,0,pull,662,30,5,3,english,m,5,0.5,95.08006425,0.64178438
64a83c3f17fdbbd04588c34a,52,1,2024-02-28T17:51:18.457Z,french_13.wav,0,pull,662,30,5,3,english,m,6,0.6,-25.15383894,1.78067585
64a83c3f17fdbbd04588c34a,52,1,2024-02-28T17:51:18.457Z,french_13.wav,0,pull,662,30,5,3,english,m,7,0.7,20.22064469,0.73379373
64a83c3f17fdbbd04588c34a,52,1,2024-02-28T17:51:18.457Z,french_13.wav,0,pull,662,30,5,3,english,m,8,0.8,4.43008543,0.8008251
64a83c3f17fdbbd04588c34a,52,1,2024-02-28T17:51:18.457Z,french_13.wav,0,pull,662,30,5,3,english,m,9,0.9,31.96842926,1.62083082
64a83c3f17fdbbd04588c34a,52,1,2024-02-28T17:51:18.457Z,french_13.wav,0,pull,662,30,5,3,english,m,10,1.0,59.17290693,0.40737704
64a83c3f17fdbbd04588c34a,52,1,2024-02-28T17:51:18.457Z,french_13.wav,0,pull,662,30,5,3,english,m,11,1.1,3.48956858,0.59465297
64a83c3f17fdbbd04588c34a,52,1,2024-02-28T17:51:18.457Z,french_13.wav,0,pull,662,30,5,3,english,m,12,1.14141667,-39.55658578,0.57584179
64a83c3f17fdbbd04588c34a,53,1,2024-02-28T17:51:18.457Z,french_129.wav,0,pull,1538,30,5,3,english,m,0,0.0,-11.16661577,0.65771984
64a83c3f17fdbbd04588c34a,53,1,2024-02-28T17:51:18.457Z,french_129.wav,0,pull,1538,30,5,3,english,m,1,0.1,-63.32601646,0.88831955
64a83c3f17fdbbd04588c34a,53,1,2024-02-28T17:51:18.457Z,french_129.wav,0,pull,1538,30,5,3,english,m,2,0.2,-32.53059456,0.8843772
64a83c3f17fdbbd04588c34a,53,1,2024-02-28T17:51:18.457Z,french_129.wav,0,pull,1538,30,5,3,english,m,3,0.3,-52.20675806,0.02960591
64a83c3f17fdbbd04588c34a,53,1,2024-02-28T17:51:18.457Z,french_129.wav,0,pull,1538,30,5,3,english,m,4,0.4,-66.33310923,1.66772944
64a83c3f17fdbbd04588c34a,53,1,2024-02-28T17:51:18.457Z,french_129.wav,0,pull,1538,30,5,3,english,m,5,0.5,-11.93583298,1.21370716
64a83c3f17fdbbd04588c34a,53,1,2024-02-28T17:51:18.457Z,french_129.wav,0,pull,1538,30,5,3,english,m,6,0.6,8.35170148,0.12234339
64a83c3f17fdbbd04588c34a,53,1,2024-02-28T17:51:18.457Z,french_129.wav,0,pull,1538,30,5,3,english,m,7,0.7,-80.25571443,0.38004193
64a83c3f17fdbbd04588c34a,53,1,2024-02-28T17:51:18.457Z,french_129.wav,0,pull,1538,30,5,3,english,m,8,0.8,9.9071823,0.81102025
64a83c3f17fdbbd04588c34a,53,1,2024-02-28T17:51:18.457Z,french_129.wav,0,pull,1538,30,5,3,english,m,9,0.9,-18.08315237,0.58400235
64a83c3f17fdbbd04588c34a,53,1,2024-02-28T17:51:18.457Z,french_129.wav,0,pull,1538,30,5,3,english,m,10,1.0,92.52665176,1.23804543
64a83c3f17fdbbd04588c34a,53,1,2024-02-28T17:51:18.457Z,french_129.wav,0,pull,1538,30,5,3,english,m,11,1.1,29.94547057,0.6267428
64a83c3f17fdbbd04588c34a,53,1,2024-02-28T17:51:18.457Z,french_129.wav,0,pull,1538,30,5,3,english,m,12,1.14141667,-46.49352569,0.68249515
64a83c3f17fdbbd04588c34a,54,1,2024-02-28T17:51:18.457Z,french_527.wav,0,poule,455,30,5,3,english,m,0,0.0,82.21391649,0.16629569
64a83c3f17fdbbd04588c34a,54,1,2024-02-28T17:51:18.457Z,french_527.wav,0,poule,455,30,5,3,english,m,1,0.1,8.23446924,0.53206339
64a83c3f17fdbbd04588c34a,54,1,2024-02-28T17:51:18.457Z,french_527.wav,0,poule,455,30,5,3,english,m,2,0.2,-66.78536599,0.7302175
64a83c3f17fdbbd04588c34a,54,1,2024-02-28T17:51:18.457Z,french_527.wav,0,poule,455,30,5,3,english,m,3,0.3,91.71269389,1.32409314
64a83c3f17fdbbd04588c34a,54,1,2024-02-28T17:51:18.457Z,french_527.wav,0,poule,455,30,5,3,english,m,4,0.4,38.34506198,0.73265348
64a83c3f17fdbbd04588c34a,54,1,2024-02-28T17:51:18.457Z,french_527.wav,0,poule,455,30,5,3,english,m,5,0.5,11.54452605,1.69253874
64a83c3f17fdbbd04588c34a,54,1,2024-02-28T17:51:18.457Z,french_527.wav,0,poule,455,30,5,3,english,m,6,0.6,96.28222232,1.17892536
64a83c3f17fdbbd04588c34a,54,1,2024-02-28T17:51:18.457Z,french_527.wav,0,poule,455,30,5,3,english,m,7,0.7,-47.65455755,0.38924981
64a83c3f17fdbbd04588c34a,54,1,2024-02-28T17:51:18.457Z,french_527.wav,0,poule,455,30,5,3,english,m,8,0.8,-79.10134883,1.19695385
64a83c3f17fdbbd04588c34a,54,1,2024-02-28T17:51:18.457Z,french_527.wav,0,poule,455,30,5,3,english,m,9,0.9,28.80832425,0.99788434
64a83c3f17fdbbd04588c34a,54,1,2024-02-28T17:51:18.457Z,french_527.wav,0,poule,455,30,5,3,english,m,10,1.0,42.88340192,1.07124619
64a83c3f17fdbbd04588c34a,54,1,2024-02-28T17:51:18.457Z,french_527.wav,0,poule,455,30,5,3,english,m,11,1.1,-29.0066371,1.45535326
64a83c3f17fdbbd04588c34a,54,1,2024-02-28T17:51:18.457Z,french_527.wav,0,poule,455,30,5,3,english,m,12,1.14141667,-55.47213333,1.05284773
64a83c3f17fdbbd04588c34a,55,1,2024-02-28T17:51:18.457Z,french_366.wav,0,pull,449,30,5,3,english,m,0,0.0,-14.82855427,1.76609292
64a83c3f17fdbbd04588c34a,55,1,2024-02-28T17:51:18.457Z,french_366.wav,0,pull,449,30,5,3,english,m,1,0.1,6.72271479,1.92050992
64a83c3f17fdbbd04588c34a,55,1,2024-02-28T17:51:18.457Z,french_366.wav,0,pull,449,30,5,3,english,m,2,0.2,20.98041557,1.73177778
64a83c3f17fdbbd04588c34a,55,1,2024-02-28T17:51:18.457Z,french_366.wav,0,pull,449,30,5,3,english,m,3,0.3,-60.55291721,1.26737092
64a83c3f17fdbbd04588c34a,55,1,2024-02-28T17:51:18.457Z,french_366.wav,0,pull,449,30,5,3,english,m,4,0.4,-24.10338385,0.4259994
64a83c3f17fdbbd04588c34a,55,1,2024-02-28T17:51:18.457Z,french_366.wav,0,pull,449,30,5,3,english,m,5,0.5,-69.76829459,1.00032811
64a83c3f17fdbbd04588c34a,55,1,2024-02-28T17:51:18.457Z,french_366.wav,0,pull,449,30,5,3,english,m,6,0.6,50.41424091,0.65568415
64a83c3f17fdbbd04588c34a,55,1,2024-02-28T17:51:18.457Z,french_366.wav,0,pull,449,30,5,3,english,m,7,0.7,41.13803583,1.05912354
64a83c3f17fdbbd04588c34a,55,1,2024-02-28T17:51:18.457Z,french_366.wav,0,pull,449,30,5,3,english,m,8,0.8,-66.63492444,1.41038374
64a83c3f17fdbbd04588c34a,55,1,2024-02-28T17:51:18.457Z,french_366.wav,0,pull,449,30,5,3,english,m,9,0.9,32.77552682,1.87071781
64a83c3f17fdbbd04588c34a,55,1,2024-02-28T17:51:18.457Z,french_366.wav,0,pull,449,30,5,3,english,m,10,1.0,-61.45161975,0.72148135
64a83c3f17fdbbd04588c34a,55,1,2024-02-28T17:51:18.457Z,french_366.wav,0,pull,449,30,5,3,english,m,11,1.1,16.76057171,1.47966224
64a83c3f17fdbbd04588c34a,55,1,2024-02-28T17:51:18.457Z,french_366.wav,0,pull,449,30,5,3,english,m,12,1.14141667,47.11341698,1.22067671
64a83c3f17fdbbd04588c34a,56,1,2024-02-28T17:51:18.457Z,french_410.wav,0,pull,1375,30,5,3,english,m,0,0.0,-13.61010892,0.12499196
64a83c3f17fdbbd04588c34a,56,1,2024-02-28T17:51:18.457Z,french_410.wav,0,pull,1375,30,5,3,english,m,1,0.1,77.81547095,1.21899276
64a83c3f17fdbbd04588c34a,56,1,2024-02-28T17:51:18.457Z,french_410.wav,0,pull,1375,30,5,3,english,m,2,0.2,82.13695373,1.54170327
64a83c3f17fdbbd04588c34a,56,1,2024-02-28T17:51:18.457Z,french_410.wav,0,pull,1375,30,5,3,english,m,3,0.3,-16.93458416,0.12135823
64a83c3f17fdbbd04588c34a,56,1,2024-02-28T17:51:18.457Z,french_410.wav,0,pull,1375,30,5,3,english,m,4,0.4,-8.61826003,0.17314322
64a83c3f17fdbbd04588c34a,56,1,2024-02-28T17:51:18.457Z,french_410.wav,0,pull,1375,30,5,3,english,m,5,0.5,-33.26612631,0.58788453
64a83c3f17fdbbd04588c34a,56,1,2024-02-28T17:51:18.457Z,french_410.wav,0,pull,1375,30,5,3,english,m,6,0.6,40.79154832,1.09892225
64a83c3f17fdbbd04588c34a,56,1,2024-02-28T17:51:18.457Z,french_410.wav,0,pull,1375,30,5,3,english,m,7,0.7,66.55884445,0.15132796
64a83c3f17fdbbd04588c34a,56,1,2024-02-28T17:51:18.457Z,french_410.wav,0,pull,1375,30,5,3,english,m,8,0.8,86.34165637,0.64125421
64a83c3f17fdbbd04588c34a,56,1,2024-02-28T17:51:18.457Z,french_410.wav,0,pull,1375,30,5,3,english,m,9,0.9,91.11355202,0.30485539
64a83c3f17fdbbd04588c34a,56,1,2024-02-28T17:51:18.457Z,french_410.wav,0,pull,1375,30,5,3,english,m,10,1.0,-30.27955269,0.74953125
64a83c3f17fdbbd04588c34a,56,1,2024-02-28T17:51:18.457Z,french_410.wav,0,pull,1375,30,5,3,english,m,11,1.1,52.51274623,1.17085768
64a83c3f17fdbbd04588c34a,56,1,2024-02-28T17:51:18.457Z,french_410.wav,0,pull,1375,30,5,3,english,m,12,1.14141667,95.54585368,1.8491146
64a83c3f17fdbbd04588c34a,57,1,2024-02-28T17:51:18.457Z,french_938.wav,0,poule,328,30,5,3,english,m,0,0.0,78.88220732,0.57815616
64a83c3f17fdbbd04588c34a,57,1,2024-02-28T17:51:18.457Z,french_938.wav,0,poule,328,30,5,3,english,m,1,0.1,-3.22217582,1.18097533
64a83c3f17fdbbd04588c34a,57,1,2024-02-28T17:51:18.457Z,french_938.wav,0,poule,328,30,5,3,english,m,2,0.2,31.59313942,0.53220918
64a83c3f17fdbbd04588c34a,57,1,2024-02-28T17:51:18.457Z,french_938.wav,0,poule,328,30,5,3,english,m,3,0.3,-87.34103223,0.09451103
64a83c3f17fdbbd04588c34a,57,1,2024-02-28T17:51:18.457Z,french_938.wav,0,poule,328,30,5,3,english,m,4,0.4,26.56163826,1.66363874
64a83c3f17fdbbd04588c34a,57,1,2024-02-28T17:51:18.457Z,french_938.wav,0,poule,328,30,5,3,english,m,5,0.5,-64.307528,0.16302061
64a83c3f17fdbbd04588c34a,57,1,2024-02-28T17:51:18.457Z,french_938.wav,0,poule,328,30,5,3,english,m,6,0.6,85.8718617,0.92582254
64a83c3f17fdbbd04588c34a,57,1,2024-02-28T17:51:18.457Z,french_938.wav,0,poule,328,30,5,3,english,m,7,0.7,60.41522049,1.59975108
64a83c3f17fdbbd04588c34a,57,1,2024-02-28T17:51:18.457Z,french_938.wav,0,poule,328,30,5,3,english,m,8,0.8,-50.06881787,0.43386097
64a83c3f17fdbbd04588c34a,57,1,2024-02-28T17:51:18.457Z,french_938.wav,0,poule,328,30,5,3,english,m,9,0.9,82.85214722,1.25868971
64a83c3f17fdbbd04588c34a,57,1,2024-02-28T17:51:18.457Z,french_938.wav,0,poule,328,30,5,3,english,m,10,1.0,-75.67548959,0.54585511
64a83c3f17fdbbd04588c34a,57,1,2024-02-28T17:51:18.457Z,french_938.wav,0,poule,328,30,5,3,english,m,11,1.1,30.15245277,1.6315762
64a83c3f17fdbbd04588c34a,57,1,2024-02-28T17:51:18.457Z,french_938.wav,0,poule,328,30,5,3,english,m,12,1.14141667,-12.395703,1.60331722
64a83c3f17fdbbd04588c34a,58,1,2024-02-28T17:51:18.457Z,french_148.wav,0,poule,598,30,5,3,english,m,0,0.0,35.03992427,0.51574751
64a83c3f17fdbbd04588c34a,58,1,2024-02-28T17:51:18.457Z,french_148.wav,0,poule,598,30,5,3,english,m,1,0.1,-26.56645319,0.44602423
64a83c3f17fdbbd04588c34a,58,1,2024-02-28T17:51:18.457Z,french_148.wav,0,poule,598,30,5,3,english,m,2,0.2,1.54735612,1.29890337
64a83c3f17fdbbd04588c34a,58,1,2024-02-28T17:51:18.457Z,french_148.wav,0,poule,598,30,5,3,english,m,3,0.3,43.90273661,1.35071288
64a83c3f17fdbbd04588c34a,58,1,2024-02-28T17:51:18.457Z,french_148.wav,0,poule,598,30,5,3,english,m,4,0.4,20.15863223,1.88468446
64a83c3f17fdbbd04588c34a,58,1,2024-02-28T17:51:18.457Z,french_148.wav,0,poule,598,30,5,3,english,m,5,0.5,40.21769113,0.68922645
64a83c3f17fdbbd04588c34a,58,1,2024-02-28T17:51:18.457Z,french_148.wav,0,poule,598,30,5,3,english,m,6,0.6,-45.48330671,0.29500086
64a83c3f17fdbbd04588c34a,58,1,2024-02-28T17:51:18.457Z,french_148.wav,0,poule,598,30,5,3,english,m,7,0.7,37.84515717,1.13623745
64a83c3f17fdbbd04588c34a,58,1,2024-02-28T17:51:18.457Z,french_148.wav,0,poule,598,30,5,3,english,m,8,0.8,70.85795378,1.93028729
64a83c3f17fdbbd04588c34a,58,1,2024-02-28T17:51:18.457Z,french_148.wav,0,poule,598,30,5,3,english,m,9,0.9,-8.50916841,1.29954979
64a83c3f17fdbbd04588c34a,58,1,2024-02-28T17:51:18.457Z,french_148.wav,0,poule,598,30,5,3,english,m,10,1.0,74.51689941,1.64717937
64a83c3f17fdbbd04588c34a,58,1,2024-02-28T17:51:18.457Z,french_148.wav,0,poule,598,30,5,3,english,m,11,1.1,-29.84970963,0.6962146
64a83c3f17fdbbd04588c34a,58,1,2024-02-28T17:51:18.457Z,french_148.wav,0,poule,598,30,5,3,english,m,12,1.14141667,-16.19564709,1.34875208
64a83c3f17fdbbd04588c34a,59,1,2024-02-28T17:51:18.457Z,french_576.wav,0,pull,874,30,5,3,english,m,0,0.0,-35.22249623,0.53434723
64a83c3f17fdbbd04588c34a,59,1,2024-02-28T17:51:18.457Z,french_576.wav,0,pull,874,30,5,3,english,m,1,0.1,92.91804811,1.6832489
64a83c3f17fdbbd04588c34a,59,1,2024-02-28T17:51:18.457Z,french_576.wav,0,pull,874,30,5,3,english,m,2,0.2,14.59888727,0.18828374
64a83c3f17fdbbd04588c34a,59,1,2024-02-28T17:51:18.457Z,french_576.wav,0,pull,874,30,5,3,english,m,3,0.3,-68.19590077,1.37837483
64a83c3f17fdbbd04588c34a,59,1,2024-02-28T17:51:18.457Z,french_576.wav,0,pull,874,30,5,3,english,m,4,0.4,52.21316696,1.79475925
64a83c3f17fdbbd04588c34a,59,1,2024-02-28T17:51:18.457Z,french_576.wav,0,pull,874,30,5,3,english,m,5,0.5,14.92193752,1.60751943
64a83c3f17fdbbd04588c34a,59,1,2024-02-28T17:51:18.457Z,french_576.wav,0,pull,874,30,5,3,english,m,6,0.6,-2.54989891,1.27401164
64a83c3f17fdbbd04588c34a,59,1,2024-02-28T17:51:18.457Z,french_576.wav,0,pull,874,30,5,3,english,m,7,0.7,-61.75801356,1.12679718
64a83c3f17fdbbd04588c34a,59,1,2024-02-28T17:51:18.457Z,french_576.wav,0,pull,874,30,5,3,english,m,8,0.8,-64.3663367,0.78491819
64a83c3f17fdbbd04588c34a,59,1,2024-02-28T17:51:18.457Z,french_576.wav,0,pull,874,30,5,3,english,m,9,0.9,-54.016617,0.78342671
