subj,trial,block,date,stim,stim_order,response,rt,age,english,french,language,sex,param_index,segment,pitch,stretch
5ebc3097a9c38504ebd8a347,0,0,2024-02-28T14:43:16.103Z,french_619.wav,0,poule,1126,40,5,5,English,m,0,0.0,37.43834517,0.27361377
5ebc3097a9c38504ebd8a347,0,0,2024-02-28T14:43:16.103Z,french_619.wav,0,poule,1126,40,5,5,English,m,1,0.1,19.08585466,0.02727983
5ebc3097a9c38504ebd8a347,0,0,2024-02-28T14:43:16.103Z,french_619.wav,0,poule,1126,40,5,5,English,m,2,0.2,-55.02113763,1.5368766
5ebc3097a9c38504ebd8a347,0,0,2024-02-28T14:43:16.103Z,french_619.wav,0,poule,1126,40,5,5,English,m,3,0.3,71.54314084,1.18403029
5ebc3097a9c38504ebd8a347,0,0,2024-02-28T14:43:16.103Z,french_619.wav,0,poule,1126,40,5,5,English,m,4,0.4,-65.77911802,1.92242857
5ebc3097a9c38504ebd8a347,0,0,2024-02-28T14:43:16.103Z,french_619.wav,0,poule,1126,40,5,5,English,m,5,0.5,-62.43541847,0.23418977
5ebc3097a9c38504ebd8a347,0,0,2024-02-28T14:43:16.103Z,french_619.wav,0,poule,1126,40,5,5,English,m,6,0.6,-37.71836926,1.08287507
5ebc3097a9c38504ebd8a347,0,0,2024-02-28T14:43:16.103Z,french_619.wav,0,poule,1126,40,5,5,English,m,7,0.7,-81.46973141,0.66039597
5ebc3097a9c38504ebd8a347,0,0,2024-02-28T14:43:16.103Z,french_619.wav,0,poule,1126,40,5,5,English,m,8,0.8,-48.66688444,1.24560316
5ebc3097a9c38504ebd8a347,0,0,2024-02-28T14:43:16.103Z,french_619.wav,0,poule,1126,40,5,5,English,m,9,0.9,-62.28645138,0.7202251
5ebc3097a9c38504ebd8a347,0,0,2024-02-28T14:43:16.103Z,french_619.wav,0,poule,1126,40,5,5,English,m,10,1.0,-86.39361494,1.31835943
5ebc3097a9c38504ebd8a347,0,0,2024-02-28T14:43:16.103Z,french_619.wav,0,poule,1126,40,5,5,English,m,11,1.1,-0.89019508,1.07015468
5ebc3097a9c38504ebd8a347,0,0,2024-02-28T14:43:16.103Z,french_619.wav,0,poule,1126,40,5,5,English,m,12,1.14141667,-28.85036812,1.11609761
5ebc3097a9c38504ebd8a347,1,0,2024-02-28T14:43:16.103Z,french_138.wav,0,poule,620,40,5,5,English,m,0,0.0,90.87559603,1.31380593
5ebc3097a9c38504ebd8a347,1,0,2024-02-28T14:43:16.103Z,french_138.wav,0,poule,620,40,5,5,English,m,1,0.1,-31.50555988,0.3112117
5ebc3097a9c38504ebd8a347,1,0,2024-02-28T14:43:16.103Z,french_138.wav,0,poule,620,40,5,5,English,m,2,0.2,16.26612274,1.21831042
5ebc3097a9c38504ebd8a347,1,0,2024-02-28T14:43:16.103Z,french_138.wav,0,poule,620,40,5,5,English,m,3,0.3,13.45581331,1.42179216
5ebc3097a9c38504ebd8a347,1,0,2024-02-28T14:43:16.103Z,french_138.wav,0,poule,620,40,5,5,English,m,4,0.4,42.54624351,0.91524639
5ebc3097a9c38504ebd8a347,1,0,2024-02-28T14:43:16.103Z,french_138.wav,0,poule,620,40,5,5,English,m,5,0.5,-41.09672991,0.09030598
5ebc3097a9c38504ebd8a347,1,0,2024-02-28T14:43:16.103Z,french_138.wav,0,poule,620,40,5,5,English,m,6,0.6,-9.99308677,1.61752646
5ebc3097a9c38504ebd8a347,1,0,2024-02-28T14:43:16.103Z,french_138.wav,0,poule,620,40,5,5,English,m,7,0.7,-86.14231224,1.29252527
5ebc3097a9c38504ebd8a347,1,0,2024-02-28T14:43:16.103Z,french_138.wav,0,poule,620,40,5,5,English,m,8,0.8,-55.70451473,1.50457459
5ebc3097a9c38504ebd8a347,1,0,2024-02-28T14:43:16.103Z,french_138.wav,0,poule,620,40,5,5,English,m,9,0.9,-54.94693119,1.45678409
5ebc3097a9c38504ebd8a347,1,0,2024-02-28T14:43:16.103Z,french_138.wav,0,poule,620,40,5,5,English,m,10,1.0,3.17361449,0.72155144
5ebc3097a9c38504ebd8a347,1,0,2024-02-28T14:43:16.103Z,french_138.wav,0,poule,620,40,5,5,English,m,11,1.1,10.38339878,1.81729999
5ebc3097a9c38504ebd8a347,1,0,2024-02-28T14:43:16.103Z,french_138.wav,0,poule,620,40,5,5,English,m,12,1.14141667,63.42143348,0.54572478
5ebc3097a9c38504ebd8a347,2,0,2024-02-28T14:43:16.103Z,french_539.wav,0,poule,1026,40,5,5,English,m,0,0.0,48.58834425,0.55713702
5ebc3097a9c38504ebd8a347,2,0,2024-02-28T14:43:16.103Z,french_539.wav,0,poule,1026,40,5,5,English,m,1,0.1,-56.64619482,0.83408519
5ebc3097a9c38504ebd8a347,2,0,2024-02-28T14:43:16.103Z,french_539.wav,0,poule,1026,40,5,5,English,m,2,0.2,12.72257351,0.22105139
5ebc3097a9c38504ebd8a347,2,0,2024-02-28T14:43:16.103Z,french_539.wav,0,poule,1026,40,5,5,English,m,3,0.3,14.57779112,1.24631237
5ebc3097a9c38504ebd8a347,2,0,2024-02-28T14:43:16.103Z,french_539.wav,0,poule,1026,40,5,5,English,m,4,0.4,-53.79115146,1.80108834
5ebc3097a9c38504ebd8a347,2,0,2024-02-28T14:43:16.103Z,french_539.wav,0,poule,1026,40,5,5,English,m,5,0.5,-9.39809755,0.10826692
5ebc3097a9c38504ebd8a347,2,0,2024-02-28T14:43:16.103Z,french_539.wav,0,poule,1026,40,5,5,English,m,6,0.6,67.43376648,1.35746598
5ebc3097a9c38504ebd8a347,2,0,2024-02-28T14:43:16.103Z,french_539.wav,0,poule,1026,40,5,5,English,m,7,0.7,-72.51273076,0.14156413
5ebc3097a9c38504ebd8a347,2,0,2024-02-28T14:43:16.103Z,french_539.wav,0,poule,1026,40,5,5,English,m,8,0.8,3.43276355,0.59340931
5ebc3097a9c38504ebd8a347,2,0,2024-02-28T14:43:16.103Z,french_539.wav,0,poule,1026,40,5,5,English,m,9,0.9,40.14425687,0.46199534
5ebc3097a9c38504ebd8a347,2,0,2024-02-28T14:43:16.103Z,french_539.wav,0,poule,1026,40,5,5,English,m,10,1.0,54.85231258,1.89990392
5ebc3097a9c38504ebd8a347,2,0,2024-02-28T14:43:16.103Z,french_539.wav,0,poule,1026,40,5,5,English,m,11,1.1,-17.29716808,0.79928212
5ebc3097a9c38504ebd8a347,2,0,2024-02-28T14:43:16.103Z,french_539.wav,0,poule,1026,40,5,5,English,m,12,1.14141667,36.80649937,0.04454349
5ebc3097a9c38504ebd8a347,3,0,2024-02-28T14:43:16.103Z,french_418.wav,0,poule,908,40,5,5,English,m,0,0.0,30.8158802,0.39666711
5ebc3097a9c38504ebd8a347,3,0,2024-02-28T14:43:16.103Z,french_418.wav,0,poule,908,40,5,5,English,m,1,0.1,-49.53284919,1.06359174
5ebc3097a9c38504ebd8a347,3,0,2024-02-28T14:43:16.103Z,french_418.wav,0,poule,908,40,5,5,English,m,2,0.2,36.79712785,0.64757436
5ebc3097a9c38504ebd8a347,3,0,2024-02-28T14:43:16.103Z,french_418.wav,0,poule,908,40,5,5,English,m,3,0.3,-99.55359759,1.7224486
5ebc3097a9c38504ebd8a347,3,0,2024-02-28T14:43:16.103Z,french_418.wav,0,poule,908,40,5,5,English,m,4,0.4,68.9088774,0.44902576
5ebc3097a9c38504ebd8a347,3,0,2024-02-28T14:43:16.103Z,french_418.wav,0,poule,908,40,5,5,English,m,5,0.5,80.99957915,1.67719648
5ebc3097a9c38504ebd8a347,3,0,2024-02-28T14:43:16.103Z,french_418.wav,0,poule,908,40,5,5,English,m,6,0.6,4.26486526,1.66921538
5ebc3097a9c38504ebd8a347,3,0,2024-02-28T14:43:16.103Z,french_418.wav,0,poule,908,40,5,5,English,m,7,0.7,-17.5210691,1.5326406
5ebc3097a9c38504ebd8a347,3,0,2024-02-28T14:43:16.103Z,french_418.wav,0,poule,908,40,5,5,English,m,8,0.8,62.53897835,0.45272356
5ebc3097a9c38504ebd8a347,3,0,2024-02-28T14:43:16.103Z,french_418.wav,0,poule,908,40,5,5,English,m,9,0.9,-85.84748653,1.5121066
5ebc3097a9c38504ebd8a347,3,0,2024-02-28T14:43:16.103Z,french_418.wav,0,poule,908,40,5,5,English,m,10,1.0,-46.33715828,0.28461943
5ebc3097a9c38504ebd8a347,3,0,2024-02-28T14:43:16.103Z,french_418.wav,0,poule,908,40,5,5,English,m,11,1.1,42.67097057,0.94734784
5ebc3097a9c38504ebd8a347,3,0,2024-02-28T14:43:16.103Z,french_418.wav,0,poule,908,40,5,5,English,m,12,1.14141667,-75.9263862,0.46817887
5ebc3097a9c38504ebd8a347,4,0,2024-02-28T14:43:16.103Z,french_687.wav,0,pull,1214,40,5,5,English,m,0,0.0,-76.70741951,1.78287127
5ebc3097a9c38504ebd8a347,4,0,2024-02-28T14:43:16.103Z,french_687.wav,0,pull,1214,40,5,5,English,m,1,0.1,11.81900273,1.90034528
5ebc3097a9c38504ebd8a347,4,0,2024-02-28T14:43:16.103Z,french_687.wav,0,pull,1214,40,5,5,English,m,2,0.2,-62.20999399,0.43252357
5ebc3097a9c38504ebd8a347,4,0,2024-02-28T14:43:16.103Z,french_687.wav,0,pull,1214,40,5,5,English,m,3,0.3,2.67304055,0.13682227
5ebc3097a9c38504ebd8a347,4,0,2024-02-28T14:43:16.103Z,french_687.wav,0,pull,1214,40,5,5,English,m,4,0.4,12.46681829,1.0793641
5ebc3097a9c38504ebd8a347,4,0,2024-02-28T14:43:16.103Z,french_687.wav,0,pull,1214,40,5,5,English,m,5,0.5,-10.05935242,1.72525482
5ebc3097a9c38504ebd8a347,4,0,2024-02-28T14:43:16.103Z,french_687.wav,0,pull,1214,40,5,5,English,m,6,0.6,19.9189964,1.05148107
5ebc3097a9c38504ebd8a347,4,0,2024-02-28T14:43:16.103Z,french_687.wav,0,pull,1214,40,5,5,English,m,7,0.7,-96.3122864,1.82750481
5ebc3097a9c38504ebd8a347,4,0,2024-02-28T14:43:16.103Z,french_687.wav,0,pull,1214,40,5,5,English,m,8,0.8,78.47737382,0.59843327
5ebc3097a9c38504ebd8a347,4,0,2024-02-28T14:43:16.103Z,french_687.wav,0,pull,1214,40,5,5,English,m,9,0.9,81.40399245,0.26130519
5ebc3097a9c38504ebd8a347,4,0,2024-02-28T14:43:16.103Z,french_687.wav,0,pull,1214,40,5,5,English,m,10,1.0,17.06206647,0.21909613
5ebc3097a9c38504ebd8a347,4,0,2024-02-28T14:43:16.103Z,french_687.wav,0,pull,1214,40,5,5,English,m,11,1.1,-61.21916449,0.93247592
5ebc3097a9c38504ebd8a347,4,0,2024-02-28T14:43:16.103Z,french_687.wav,0,pull,1214,40,5,5,English,m,12,1.14141667,44.35270256,1.52801605
5ebc3097a9c38504ebd8a347,5,0,2024-02-28T14:43:16.103Z,french_868.wav,0,pull,1428,40,5,5,English,m,0,0.0,21.75364705,1.22135982
5ebc3097a9c38504ebd8a347,5,0,2024-02-28T14:43:16.103Z,french_868.wav,0,pull,1428,40,5,5,English,m,1,0.1,39.13898411,0.45068815
5ebc3097a9c38504ebd8a347,5,0,2024-02-28T14:43:16.103Z,french_868.wav,0,pull,1428,40,5,5,English,m,2,0.2,-6.36020837,0.45536775
5ebc3097a9c38504ebd8a347,5,0,2024-02-28T14:43:16.103Z,french_868.wav,0,pull,1428,40,5,5,English,m,3,0.3,-75.1690358,1.09222167
5ebc3097a9c38504ebd8a347,5,0,2024-02-28T14:43:16.103Z,french_868.wav,0,pull,1428,40,5,5,English,m,4,0.4,-40.50969181,1.19786422
5ebc3097a9c38504ebd8a347,5,0,2024-02-28T14:43:16.103Z,french_868.wav,0,pull,1428,40,5,5,English,m,5,0.5,73.36588878,1.65811533
5ebc3097a9c38504ebd8a347,5,0,2024-02-28T14:43:16.103Z,french_868.wav,0,pull,1428,40,5,5,English,m,6,0.6,58.00285261,1.1326438
5ebc3097a9c38504ebd8a347,5,0,2024-02-28T14:43:16.103Z,french_868.wav,0,pull,1428,40,5,5,English,m,7,0.7,-7.78630182,0.35406026
5ebc3097a9c38504ebd8a347,5,0,2024-02-28T14:43:16.103Z,french_868.wav,0,pull,1428,40,5,5,English,m,8,0.8,0.49140151,0.20870274
5ebc3097a9c38504ebd8a347,5,0,2024-02-28T14:43:16.103Z,french_868.wav,0,pull,1428,40,5,5,English,m,9,0.9,-75.3340621,1.59273358
5ebc3097a9c38504ebd8a347,5,0,2024-02-28T14:43:16.103Z,french_868.wav,0,pull,1428,40,5,5,English,m,10,1.0,4.19679742,0.29740146
5ebc3097a9c38504ebd8a347,5,0,2024-02-28T14:43:16.103Z,french_868.wav,0,pull,1428,40,5,5,English,m,11,1.1,-42.11878941,0.88262511
5ebc3097a9c38504ebd8a347,5,0,2024-02-28T14:43:16.103Z,french_868.wav,0,pull,1428,40,5,5,English,m,12,1.14141667,-77.23937445,0.84119303
5ebc3097a9c38504ebd8a347,6,0,2024-02-28T14:43:16.103Z,french_766.wav,0,poule,480,40,5,5,English,m,0,0.0,-38.58168868,0.48249149
5ebc3097a9c38504ebd8a347,6,0,2024-02-28T14:43:16.103Z,french_766.wav,0,poule,480,40,5,5,English,m,1,0.1,22.77189101,0.00578023
5ebc3097a9c38504ebd8a347,6,0,2024-02-28T14:43:16.103Z,french_766.wav,0,poule,480,40,5,5,English,m,2,0.2,63.63009662,0.94527593
5ebc3097a9c38504ebd8a347,6,0,2024-02-28T14:43:16.103Z,french_766.wav,0,poule,480,40,5,5,English,m,3,0.3,40.26074943,0.33817949
5ebc3097a9c38504ebd8a347,6,0,2024-02-28T14:43:16.103Z,french_766.wav,0,poule,480,40,5,5,English,m,4,0.4,-0.66607969,0.24994959
5ebc3097a9c38504ebd8a347,6,0,2024-02-28T14:43:16.103Z,french_766.wav,0,poule,480,40,5,5,English,m,5,0.5,-74.48176635,1.53235452
5ebc3097a9c38504ebd8a347,6,0,2024-02-28T14:43:16.103Z,french_766.wav,0,poule,480,40,5,5,English,m,6,0.6,44.59470225,1.7345893
5ebc3097a9c38504ebd8a347,6,0,2024-02-28T14:43:16.103Z,french_766.wav,0,poule,480,40,5,5,English,m,7,0.7,39.40784466,0.44579509
5ebc3097a9c38504ebd8a347,6,0,2024-02-28T14:43:16.103Z,french_766.wav,0,poule,480,40,5,5,English,m,8,0.8,75.30603886,0.97625809
5ebc3097a9c38504ebd8a347,6,0,2024-02-28T14:43:16.103Z,french_766.wav,0,poule,480,40,5,5,English,m,9,0.9,-71.87275787,1.50725067
5ebc3097a9c38504ebd8a347,6,0,2024-02-28T14:43:16.103Z,french_766.wav,0,poule,480,40,5,5,English,m,10,1.0,-60.86914525,1.16202192
5ebc3097a9c38504ebd8a347,6,0,2024-02-28T14:43:16.103Z,french_766.wav,0,poule,480,40,5,5,English,m,11,1.1,-12.66114112,0.28514793
5ebc3097a9c38504ebd8a347,6,0,2024-02-28T14:43:16.103Z,french_766.wav,0,poule,480,40,5,5,English,m,12,1.14141667,30.22243392,1.97969732
5ebc3097a9c38504ebd8a347,7,0,2024-02-28T14:43:16.103Z,french_568.wav,0,poule,228,40,5,5,English,m,0,0.0,-19.1846252,1.39555406
5ebc3097a9c38504ebd8a347,7,0,2024-02-28T14:43:16.103Z,french_568.wav,0,poule,228,40,5,5,English,m,1,0.1,99.622552,0.82188043
5ebc3097a9c38504ebd8a347,7,0,2024-02-28T14:43:16.103Z,french_568.wav,0,poule,228,40,5,5,English,m,2,0.2,37.3998315,0.47747641
5ebc3097a9c38504ebd8a347,7,0,2024-02-28T14:43:16.103Z,french_568.wav,0,poule,228,40,5,5,English,m,3,0.3,50.6611477,0.85657267
5ebc3097a9c38504ebd8a347,7,0,2024-02-28T14:43:16.103Z,french_568.wav,0,poule,228,40,5,5,English,m,4,0.4,-41.739615,1.18677841
5ebc3097a9c38504ebd8a347,7,0,2024-02-28T14:43:16.103Z,french_568.wav,0,poule,228,40,5,5,English,m,5,0.5,-20.4713766,0.27067874
5ebc3097a9c38504ebd8a347,7,0,2024-02-28T14:43:16.103Z,french_568.wav,0,poule,228,40,5,5,English,m,6,0.6,-60.5267324,1.01580547
5ebc3097a9c38504ebd8a347,7,0,2024-02-28T14:43:16.103Z,french_568.wav,0,poule,228,40,5,5,English,m,7,0.7,-3.05790796,1.88258485
5ebc3097a9c38504ebd8a347,7,0,2024-02-28T14:43:16.103Z,french_568.wav,0,poule,228,40,5,5,English,m,8,0.8,-0.0194333881,1.54499722
5ebc3097a9c38504ebd8a347,7,0,2024-02-28T14:43:16.103Z,french_568.wav,0,poule,228,40,5,5,English,m,9,0.9,-43.2141855,1.96475796
5ebc3097a9c38504ebd8a347,7,0,2024-02-28T14:43:16.103Z,french_568.wav,0,poule,228,40,5,5,English,m,10,1.0,-71.49699,1.68647767
5ebc3097a9c38504ebd8a347,7,0,2024-02-28T14:43:16.103Z,french_568.wav,0,poule,228,40,5,5,English,m,11,1.1,59.4482406,1.5210489
5ebc3097a9c38504ebd8a347,7,0,2024-02-28T14:43:16.103Z,french_568.wav,0,poule,228,40,5,5,English,m,12,1.14141667,-64.2949054,1.34194102
5ebc3097a9c38504ebd8a347,8,0,2024-02-28T14:43:16.103Z,french_877.wav,0,pull,728,40,5,5,English,m,0,0.0,35.01358719,1.80553919
5ebc3097a9c38504ebd8a347,8,0,2024-02-28T14:43:16.103Z,french_877.wav,0,pull,728,40,5,5,English,m,1,0.1,44.86740008,1.10205229
5ebc3097a9c38504ebd8a347,8,0,2024-02-28T14:43:16.103Z,french_877.wav,0,pull,728,40,5,5,English,m,2,0.2,-79.59292407,1.66583823
5ebc3097a9c38504ebd8a347,8,0,2024-02-28T14:43:16.103Z,french_877.wav,0,pull,728,40,5,5,English,m,3,0.3,-7.22750522,0.82975553
5ebc3097a9c38504ebd8a347,8,0,2024-02-28T14:43:16.103Z,french_877.wav,0,pull,728,40,5,5,English,m,4,0.4,-2.5216875,1.38376145
5ebc3097a9c38504ebd8a347,8,0,2024-02-28T14:43:16.103Z,french_877.wav,0,pull,728,40,5,5,English,m,5,0.5,-30.65077741,0.89494766
5ebc3097a9c38504ebd8a347,8,0,2024-02-28T14:43:16.103Z,french_877.wav,0,pull,728,40,5,5,English,m,6,0.6,-4.86146078,0.02389059
5ebc3097a9c38504ebd8a347,8,0,2024-02-28T14:43:16.103Z,french_877.wav,0,pull,728,40,5,5,English,m,7,0.7,-89.51285107,1.19273137
5ebc3097a9c38504ebd8a347,8,0,2024-02-28T14:43:16.103Z,french_877.wav,0,pull,728,40,5,5,English,m,8,0.8,-40.02073069,0.7956871
5ebc3097a9c38504ebd8a347,8,0,2024-02-28T14:43:16.103Z,french_877.wav,0,pull,728,40,5,5,English,m,9,0.9,96.12185009,1.13306
5ebc3097a9c38504ebd8a347,8,0,2024-02-28T14:43:16.103Z,french_877.wav,0,pull,728,40,5,5,English,m,10,1.0,90.68588052,0.93972062
5ebc3097a9c38504ebd8a347,8,0,2024-02-28T14:43:16.103Z,french_877.wav,0,pull,728,40,5,5,English,m,11,1.1,18.23570323,0.41860884
5ebc3097a9c38504ebd8a347,8,0,2024-02-28T14:43:16.103Z,french_877.wav,0,pull,728,40,5,5,English,m,12,1.14141667,-87.75305818,1.12017052
5ebc3097a9c38504ebd8a347,9,0,2024-02-28T14:43:16.103Z,french_394.wav,0,pull,418,40,5,5,English,m,0,0.0,95.60851421,0.31080056
5ebc3097a9c38504ebd8a347,9,0,2024-02-28T14:43:16.103Z,french_394.wav,0,pull,418,40,5,5,English,m,1,0.1,10.27807308,0.60684058
5ebc3097a9c38504ebd8a347,9,0,2024-02-28T14:43:16.103Z,french_394.wav,0,pull,418,40,5,5,English,m,2,0.2,4.0500478,1.51269297
5ebc3097a9c38504ebd8a347,9,0,2024-02-28T14:43:16.103Z,french_394.wav,0,pull,418,40,5,5,English,m,3,0.3,98.54662712,0.34211461
5ebc3097a9c38504ebd8a347,9,0,2024-02-28T14:43:16.103Z,french_394.wav,0,pull,418,40,5,5,English,m,4,0.4,-55.47052681,1.48307249
5ebc3097a9c38504ebd8a347,9,0,2024-02-28T14:43:16.103Z,french_394.wav,0,pull,418,40,5,5,English,m,5,0.5,32.45246937,0.87806102
5ebc3097a9c38504ebd8a347,9,0,2024-02-28T14:43:16.103Z,french_394.wav,0,pull,418,40,5,5,English,m,6,0.6,57.72330653,0.67676213
5ebc3097a9c38504ebd8a347,9,0,2024-02-28T14:43:16.103Z,french_394.wav,0,pull,418,40,5,5,English,m,7,0.7,-40.98154309,1.11559136
5ebc3097a9c38504ebd8a347,9,0,2024-02-28T14:43:16.103Z,french_394.wav,0,pull,418,40,5,5,English,m,8,0.8,-66.31000253,0.1280295
5ebc3097a9c38504ebd8a347,9,0,2024-02-28T14:43:16.103Z,french_394.wav,0,pull,418,40,5,5,English,m,9,0.9,-0.754791,1.10962347
5ebc3097a9c38504ebd8a347,9,0,2024-02-28T14:43:16.103Z,french_394.wav,0,pull,418,40,5,5,English,m,10,1.0,-67.7279764,0.74190709
5ebc3097a9c38504ebd8a347,9,0,2024-02-28T14:43:16.103Z,french_394.wav,0,pull,418,40,5,5,English,m,11,1.1,-66.85938958,0.49223717
5ebc3097a9c38504ebd8a347,9,0,2024-02-28T14:43:16.103Z,french_394.wav,0,pull,418,40,5,5,English,m,12,1.14141667,60.10561607,0.29130713
5ebc3097a9c38504ebd8a347,10,0,2024-02-28T14:43:16.103Z,french_168.wav,0,pull,723,40,5,5,English,m,0,0.0,23.60578837,0.63425727
5ebc3097a9c38504ebd8a347,10,0,2024-02-28T14:43:16.103Z,french_168.wav,0,pull,723,40,5,5,English,m,1,0.1,-3.14983338,1.7754945
5ebc3097a9c38504ebd8a347,10,0,2024-02-28T14:43:16.103Z,french_168.wav,0,pull,723,40,5,5,English,m,2,0.2,-32.92235137,0.84759541
5ebc3097a9c38504ebd8a347,10,0,2024-02-28T14:43:16.103Z,french_168.wav,0,pull,723,40,5,5,English,m,3,0.3,-1.34182542,1.87294824
5ebc3097a9c38504ebd8a347,10,0,2024-02-28T14:43:16.103Z,french_168.wav,0,pull,723,40,5,5,English,m,4,0.4,93.68763921,1.4991828
5ebc3097a9c38504ebd8a347,10,0,2024-02-28T14:43:16.103Z,french_168.wav,0,pull,723,40,5,5,English,m,5,0.5,-85.50777255,1.10660002
5ebc3097a9c38504ebd8a347,10,0,2024-02-28T14:43:16.103Z,french_168.wav,0,pull,723,40,5,5,English,m,6,0.6,-85.09508772,0.8131343
5ebc3097a9c38504ebd8a347,10,0,2024-02-28T14:43:16.103Z,french_168.wav,0,pull,723,40,5,5,English,m,7,0.7,7.18307218,0.28255977
5ebc3097a9c38504ebd8a347,10,0,2024-02-28T14:43:16.103Z,french_168.wav,0,pull,723,40,5,5,English,m,8,0.8,71.4646736,1.69345703
5ebc3097a9c38504ebd8a347,10,0,2024-02-28T14:43:16.103Z,french_168.wav,0,pull,723,40,5,5,English,m,9,0.9,-27.01392426,1.4556034
5ebc3097a9c38504ebd8a347,10,0,2024-02-28T14:43:16.103Z,french_168.wav,0,pull,723,40,5,5,English,m,10,1.0,31.10228405,0.26157835
5ebc3097a9c38504ebd8a347,10,0,2024-02-28T14:43:16.103Z,french_168.wav,0,pull,723,40,5,5,English,m,11,1.1,31.74339728,0.26714034
5ebc3097a9c38504ebd8a347,10,0,2024-02-28T14:43:16.103Z,french_168.wav,0,pull,723,40,5,5,English,m,12,1.14141667,-94.28644022,0.94934419
5ebc3097a9c38504ebd8a347,11,0,2024-02-28T14:43:16.103Z,french_39.wav,0,poule,928,40,5,5,English,m,0,0.0,-4.83126405,0.34625523
5ebc3097a9c38504ebd8a347,11,0,2024-02-28T14:43:16.103Z,french_39.wav,0,poule,928,40,5,5,English,m,1,0.1,-93.27719348,1.84955679
5ebc3097a9c38504ebd8a347,11,0,2024-02-28T14:43:16.103Z,french_39.wav,0,poule,928,40,5,5,English,m,2,0.2,6.86097489,1.652821
5ebc3097a9c38504ebd8a347,11,0,2024-02-28T14:43:16.103Z,french_39.wav,0,poule,928,40,5,5,English,m,3,0.3,-20.15926332,0.99362385
5ebc3097a9c38504ebd8a347,11,0,2024-02-28T14:43:16.103Z,french_39.wav,0,poule,928,40,5,5,English,m,4,0.4,33.74441491,1.06732755
5ebc3097a9c38504ebd8a347,11,0,2024-02-28T14:43:16.103Z,french_39.wav,0,poule,928,40,5,5,English,m,5,0.5,22.90616984,1.07307504
5ebc3097a9c38504ebd8a347,11,0,2024-02-28T14:43:16.103Z,french_39.wav,0,poule,928,40,5,5,English,m,6,0.6,-16.31202743,1.93615989
5ebc3097a9c38504ebd8a347,11,0,2024-02-28T14:43:16.103Z,french_39.wav,0,poule,928,40,5,5,English,m,7,0.7,85.71450865,1.40760145
5ebc3097a9c38504ebd8a347,11,0,2024-02-28T14:43:16.103Z,french_39.wav,0,poule,928,40,5,5,English,m,8,0.8,-47.16815434,1.81782779
5ebc3097a9c38504ebd8a347,11,0,2024-02-28T14:43:16.103Z,french_39.wav,0,poule,928,40,5,5,English,m,9,0.9,-3.29174574,0.44143398
5ebc3097a9c38504ebd8a347,11,0,2024-02-28T14:43:16.103Z,french_39.wav,0,poule,928,40,5,5,English,m,10,1.0,-12.85211307,1.64365759
5ebc3097a9c38504ebd8a347,11,0,2024-02-28T14:43:16.103Z,french_39.wav,0,poule,928,40,5,5,English,m,11,1.1,-36.64290563,0.38497075
5ebc3097a9c38504ebd8a347,11,0,2024-02-28T14:43:16.103Z,french_39.wav,0,poule,928,40,5,5,English,m,12,1.14141667,43.40200967,0.9148272
5ebc3097a9c38504ebd8a347,12,0,2024-02-28T14:43:16.103Z,french_83.wav,0,pull,558,40,5,5,English,m,0,0.0,30.44967783,0.42165273
5ebc3097a9c38504ebd8a347,12,0,2024-02-28T14:43:16.103Z,french_83.wav,0,pull,558,40,5,5,English,m,1,0.1,32.59822127,0.3238076
5ebc3097a9c38504ebd8a347,12,0,2024-02-28T14:43:16.103Z,french_83.wav,0,pull,558,40,5,5,English,m,2,0.2,50.8682146,0.37913611
5ebc3097a9c38504ebd8a347,12,0,2024-02-28T14:43:16.103Z,french_83.wav,0,pull,558,40,5,5,English,m,3,0.3,0.11779037,0.78724258
5ebc3097a9c38504ebd8a347,12,0,2024-02-28T14:43:16.103Z,french_83.wav,0,pull,558,40,5,5,English,m,4,0.4,16.37029834,1.0594663
5ebc3097a9c38504ebd8a347,12,0,2024-02-28T14:43:16.103Z,french_83.wav,0,pull,558,40,5,5,English,m,5,0.5,90.79022832,0.48377765
5ebc3097a9c38504ebd8a347,12,0,2024-02-28T14:43:16.103Z,french_83.wav,0,pull,558,40,5,5,English,m,6,0.6,-75.94380669,0.29353951
5ebc3097a9c38504ebd8a347,12,0,2024-02-28T14:43:16.103Z,french_83.wav,0,pull,558,40,5,5,English,m,7,0.7,34.13478403,1.31767934
5ebc3097a9c38504ebd8a347,12,0,2024-02-28T14:43:16.103Z,french_83.wav,0,pull,558,40,5,5,English,m,8,0.8,-27.50152867,0.23770737
5ebc3097a9c38504ebd8a347,12,0,2024-02-28T14:43:16.103Z,french_83.wav,0,pull,558,40,5,5,English,m,9,0.9,9.93495342,0.58296712
5ebc3097a9c38504ebd8a347,12,0,2024-02-28T14:43:16.103Z,french_83.wav,0,pull,558,40,5,5,English,m,10,1.0,58.3619145,0.64820026
5ebc3097a9c38504ebd8a347,12,0,2024-02-28T14:43:16.103Z,french_83.wav,0,pull,558,40,5,5,English,m,11,1.1,15.44979308,0.12158815
5ebc3097a9c38504ebd8a347,12,0,2024-02-28T14:43:16.103Z,french_83.wav,0,pull,558,40,5,5,English,m,12,1.14141667,13.85594834,0.38899467
5ebc3097a9c38504ebd8a347,13,0,2024-02-28T14:43:16.103Z,french_335.wav,0,poule,1240,40,5,5,English,m,0,0.0,-1.23441229,1.3052868
5ebc3097a9c38504ebd8a347,13,0,2024-02-28T14:43:16.103Z,french_335.wav,0,poule,1240,40,5,5,English,m,1,0.1,22.83840399,0.44658399
5ebc3097a9c38504ebd8a347,13,0,2024-02-28T14:43:16.103Z,french_335.wav,0,poule,1240,40,5,5,English,m,2,0.2,-2.77833846,1.47211238
5ebc3097a9c38504ebd8a347,13,0,2024-02-28T14:43:16.103Z,french_335.wav,0,poule,1240,40,5,5,English,m,3,0.3,-3.63205213,0.59811057
5ebc3097a9c38504ebd8a347,13,0,2024-02-28T14:43:16.103Z,french_335.wav,0,poule,1240,40,5,5,English,m,4,0.4,-20.59895043,1.0196801
5ebc3097a9c38504ebd8a347,13,0,2024-02-28T14:43:16.103Z,french_335.wav,0,poule,1240,40,5,5,English,m,5,0.5,49.39784304,0.49963991
5ebc3097a9c38504ebd8a347,13,0,2024-02-28T14:43:16.103Z,french_335.wav,0,poule,1240,40,5,5,English,m,6,0.6,8.12013332,0.56054827
5ebc3097a9c38504ebd8a347,13,0,2024-02-28T14:43:16.103Z,french_335.wav,0,poule,1240,40,5,5,English,m,7,0.7,57.63446104,0.07354225
5ebc3097a9c38504ebd8a347,13,0,2024-02-28T14:43:16.103Z,french_335.wav,0,poule,1240,40,5,5,English,m,8,0.8,-94.70893042,1.41084779
5ebc3097a9c38504ebd8a347,13,0,2024-02-28T14:43:16.103Z,french_335.wav,0,poule,1240,40,5,5,English,m,9,0.9,64.23871008,0.84836821
5ebc3097a9c38504ebd8a347,13,0,2024-02-28T14:43:16.103Z,french_335.wav,0,poule,1240,40,5,5,English,m,10,1.0,-7.65003971,1.33963143
5ebc3097a9c38504ebd8a347,13,0,2024-02-28T14:43:16.103Z,french_335.wav,0,poule,1240,40,5,5,English,m,11,1.1,-58.83724635,1.16454675
5ebc3097a9c38504ebd8a347,13,0,2024-02-28T14:43:16.103Z,french_335.wav,0,poule,1240,40,5,5,English,m,12,1.14141667,8.11130653,1.41914206
5ebc3097a9c38504ebd8a347,14,0,2024-02-28T14:43:16.103Z,french_519.wav,0,pull,4187,40,5,5,English,m,0,0.0,38.95071941,0.15710705
5ebc3097a9c38504ebd8a347,14,0,2024-02-28T14:43:16.103Z,french_519.wav,0,pull,4187,40,5,5,English,m,1,0.1,-98.16248953,1.65075873
5ebc3097a9c38504ebd8a347,14,0,2024-02-28T14:43:16.103Z,french_519.wav,0,pull,4187,40,5,5,English,m,2,0.2,-8.53351214,0.59061529
5ebc3097a9c38504ebd8a347,14,0,2024-02-28T14:43:16.103Z,french_519.wav,0,pull,4187,40,5,5,English,m,3,0.3,-29.96278714,0.34046239
5ebc3097a9c38504ebd8a347,14,0,2024-02-28T14:43:16.103Z,french_519.wav,0,pull,4187,40,5,5,English,m,4,0.4,-57.19313365,0.44125755
5ebc3097a9c38504ebd8a347,14,0,2024-02-28T14:43:16.103Z,french_519.wav,0,pull,4187,40,5,5,English,m,5,0.5,-14.84533872,1.00043078
5ebc3097a9c38504ebd8a347,14,0,2024-02-28T14:43:16.103Z,french_519.wav,0,pull,4187,40,5,5,English,m,6,0.6,65.33729063,1.54523625
5ebc3097a9c38504ebd8a347,14,0,2024-02-28T14:43:16.103Z,french_519.wav,0,pull,4187,40,5,5,English,m,7,0.7,2.08710226,1.08213469
5ebc3097a9c38504ebd8a347,14,0,2024-02-28T14:43:16.103Z,french_519.wav,0,pull,4187,40,5,5,English,m,8,0.8,-14.97633343,0.71331726
5ebc3097a9c38504ebd8a347,14,0,2024-02-28T14:43:16.103Z,french_519.wav,0,pull,4187,40,5,5,English,m,9,0.9,84.22736014,0.21863186
5ebc3097a9c38504ebd8a347,14,0,2024-02-28T14:43:16.103Z,french_519.wav,0,pull,4187,40,5,5,English,m,10,1.0,-86.65839452,0.07702422
5ebc3097a9c38504ebd8a347,14,0,2024-02-28T14:43:16.103Z,french_519.wav,0,pull,4187,40,5,5,English,m,11,1.1,-25.38298956,0.09511301
5ebc3097a9c38504ebd8a347,14,0,2024-02-28T14:43:16.103Z,french_519.wav,0,pull,4187,40,5,5,English,m,12,1.14141667,-47.75612145,1.11047356
5ebc3097a9c38504ebd8a347,15,0,2024-02-28T14:43:16.103Z,french_800.wav,0,poule,588,40,5,5,English,m,0,0.0,-4.25631197,0.80468249
5ebc3097a9c38504ebd8a347,15,0,2024-02-28T14:43:16.103Z,french_800.wav,0,poule,588,40,5,5,English,m,1,0.1,22.66632576,1.14959191
5ebc3097a9c38504ebd8a347,15,0,2024-02-28T14:43:16.103Z,french_800.wav,0,poule,588,40,5,5,English,m,2,0.2,10.28900554,1.74323515
5ebc3097a9c38504ebd8a347,15,0,2024-02-28T14:43:16.103Z,french_800.wav,0,poule,588,40,5,5,English,m,3,0.3,38.91231447,0.77183711
5ebc3097a9c38504ebd8a347,15,0,2024-02-28T14:43:16.103Z,french_800.wav,0,poule,588,40,5,5,English,m,4,0.4,-12.27796799,1.35051127
5ebc3097a9c38504ebd8a347,15,0,2024-02-28T14:43:16.103Z,french_800.wav,0,poule,588,40,5,5,English,m,5,0.5,-44.30581187,1.94130964
5ebc3097a9c38504ebd8a347,15,0,2024-02-28T14:43:16.103Z,french_800.wav,0,poule,588,40,5,5,English,m,6,0.6,-22.88012932,1.17392808
5ebc3097a9c38504ebd8a347,15,0,2024-02-28T14:43:16.103Z,french_800.wav,0,poule,588,40,5,5,English,m,7,0.7,-52.86195267,1.52994111
5ebc3097a9c38504ebd8a347,15,0,2024-02-28T14:43:16.103Z,french_800.wav,0,poule,588,40,5,5,English,m,8,0.8,54.71772215,1.58058267
5ebc3097a9c38504ebd8a347,15,0,2024-02-28T14:43:16.103Z,french_800.wav,0,poule,588,40,5,5,English,m,9,0.9,-51.65672109,1.58832666
5ebc3097a9c38504ebd8a347,15,0,2024-02-28T14:43:16.103Z,french_800.wav,0,poule,588,40,5,5,English,m,10,1.0,-51.77252424,1.09850348
5ebc3097a9c38504ebd8a347,15,0,2024-02-28T14:43:16.103Z,french_800.wav,0,poule,588,40,5,5,English,m,11,1.1,7.38633242,0.30985734
5ebc3097a9c38504ebd8a347,15,0,2024-02-28T14:43:16.103Z,french_800.wav,0,poule,588,40,5,5,English,m,12,1.14141667,17.65920114,1.66023428
5ebc3097a9c38504ebd8a347,16,0,2024-02-28T14:43:16.103Z,french_560.wav,0,poule,434,40,5,5,English,m,0,0.0,-11.74144783,1.20996667
5ebc3097a9c38504ebd8a347,16,0,2024-02-28T14:43:16.103Z,french_560.wav,0,poule,434,40,5,5,English,m,1,0.1,-0.35641237,0.39351598
5ebc3097a9c38504ebd8a347,16,0,2024-02-28T14:43:16.103Z,french_560.wav,0,poule,434,40,5,5,English,m,2,0.2,4.21534923,0.8276889
5ebc3097a9c38504ebd8a347,16,0,2024-02-28T14:43:16.103Z,french_560.wav,0,poule,434,40,5,5,English,m,3,0.3,-32.05544241,0.43459246
5ebc3097a9c38504ebd8a347,16,0,2024-02-28T14:43:16.103Z,french_560.wav,0,poule,434,40,5,5,English,m,4,0.4,-88.46473304,0.34472109
5ebc3097a9c38504ebd8a347,16,0,2024-02-28T14:43:16.103Z,french_560.wav,0,poule,434,40,5,5,English,m,5,0.5,-81.48556818,1.11269407
5ebc3097a9c38504ebd8a347,16,0,2024-02-28T14:43:16.103Z,french_560.wav,0,poule,434,40,5,5,English,m,6,0.6,65.45345491,1.51504069
5ebc3097a9c38504ebd8a347,16,0,2024-02-28T14:43:16.103Z,french_560.wav,0,poule,434,40,5,5,English,m,7,0.7,-34.34624363,1.97532041
5ebc3097a9c38504ebd8a347,16,0,2024-02-28T14:43:16.103Z,french_560.wav,0,poule,434,40,5,5,English,m,8,0.8,-19.91129378,1.15858954
5ebc3097a9c38504ebd8a347,16,0,2024-02-28T14:43:16.103Z,french_560.wav,0,poule,434,40,5,5,English,m,9,0.9,-91.92174427,1.16478245
5ebc3097a9c38504ebd8a347,16,0,2024-02-28T14:43:16.103Z,french_560.wav,0,poule,434,40,5,5,English,m,10,1.0,-10.81219232,1.17685042
5ebc3097a9c38504ebd8a347,16,0,2024-02-28T14:43:16.103Z,french_560.wav,0,poule,434,40,5,5,English,m,11,1.1,76.35325221,1.01088448
5ebc3097a9c38504ebd8a347,16,0,2024-02-28T14:43:16.103Z,french_560.wav,0,poule,434,40,5,5,English,m,12,1.14141667,76.66363562,0.00977172
5ebc3097a9c38504ebd8a347,17,0,2024-02-28T14:43:16.103Z,french_417.wav,0,poule,810,40,5,5,English,m,0,0.0,-32.77068381,1.43807666
5ebc3097a9c38504ebd8a347,17,0,2024-02-28T14:43:16.103Z,french_417.wav,0,poule,810,40,5,5,English,m,1,0.1,10.55708239,0.31892394
5ebc3097a9c38504ebd8a347,17,0,2024-02-28T14:43:16.103Z,french_417.wav,0,poule,810,40,5,5,English,m,2,0.2,9.91718709,0.85335618
5ebc3097a9c38504ebd8a347,17,0,2024-02-28T14:43:16.103Z,french_417.wav,0,poule,810,40,5,5,English,m,3,0.3,-19.65098282,1.09322127
5ebc3097a9c38504ebd8a347,17,0,2024-02-28T14:43:16.103Z,french_417.wav,0,poule,810,40,5,5,English,m,4,0.4,78.0410625,1.86029096
5ebc3097a9c38504ebd8a347,17,0,2024-02-28T14:43:16.103Z,french_417.wav,0,poule,810,40,5,5,English,m,5,0.5,-63.41834819,1.98490369
5ebc3097a9c38504ebd8a347,17,0,2024-02-28T14:43:16.103Z,french_417.wav,0,poule,810,40,5,5,English,m,6,0.6,-12.08890259,0.83094909
5ebc3097a9c38504ebd8a347,17,0,2024-02-28T14:43:16.103Z,french_417.wav,0,poule,810,40,5,5,English,m,7,0.7,-70.29934215,1.67039107
5ebc3097a9c38504ebd8a347,17,0,2024-02-28T14:43:16.103Z,french_417.wav,0,poule,810,40,5,5,English,m,8,0.8,4.63752128,1.16186805
5ebc3097a9c38504ebd8a347,17,0,2024-02-28T14:43:16.103Z,french_417.wav,0,poule,810,40,5,5,English,m,9,0.9,-68.78784985,0.77381791
5ebc3097a9c38504ebd8a347,17,0,2024-02-28T14:43:16.103Z,french_417.wav,0,poule,810,40,5,5,English,m,10,1.0,70.79482523,1.82295332
5ebc3097a9c38504ebd8a347,17,0,2024-02-28T14:43:16.103Z,french_417.wav,0,poule,810,40,5,5,English,m,11,1.1,-86.94841883,0.89972345
5ebc3097a9c38504ebd8a347,17,0,2024-02-28T14:43:16.103Z,french_417.wav,0,poule,810,40,5,5,English,m,12,1.14141667,94.70906792,1.91023493
5ebc3097a9c38504ebd8a347,18,0,2024-02-28T14:43:16.103Z,french_261.wav,0,poule,385,40,5,5,English,m,0,0.0,12.34576995,0.50310042
5ebc3097a9c38504ebd8a347,18,0,2024-02-28T14:43:16.103Z,french_261.wav,0,poule,385,40,5,5,English,m,1,0.1,25.47601384,0.25268449
5ebc3097a9c38504ebd8a347,18,0,2024-02-28T14:43:16.103Z,french_261.wav,0,poule,385,40,5,5,English,m,2,0.2,-67.0906301,0.7627603
5ebc3097a9c38504ebd8a347,18,0,2024-02-28T14:43:16.103Z,french_261.wav,0,poule,385,40,5,5,English,m,3,0.3,-13.09856908,1.52142005
5ebc3097a9c38504ebd8a347,18,0,2024-02-28T14:43:16.103Z,french_261.wav,0,poule,385,40,5,5,English,m,4,0.4,68.1575105,1.92904385
5ebc3097a9c38504ebd8a347,18,0,2024-02-28T14:43:16.103Z,french_261.wav,0,poule,385,40,5,5,English,m,5,0.5,-2.34833931,0.33812634
5ebc3097a9c38504ebd8a347,18,0,2024-02-28T14:43:16.103Z,french_261.wav,0,poule,385,40,5,5,English,m,6,0.6,-56.25265887,1.12365674
5ebc3097a9c38504ebd8a347,18,0,2024-02-28T14:43:16.103Z,french_261.wav,0,poule,385,40,5,5,English,m,7,0.7,99.24314725,0.56685205
5ebc3097a9c38504ebd8a347,18,0,2024-02-28T14:43:16.103Z,french_261.wav,0,poule,385,40,5,5,English,m,8,0.8,97.55208396,1.813104
5ebc3097a9c38504ebd8a347,18,0,2024-02-28T14:43:16.103Z,french_261.wav,0,poule,385,40,5,5,English,m,9,0.9,-44.49919777,1.56800569
5ebc3097a9c38504ebd8a347,18,0,2024-02-28T14:43:16.103Z,french_261.wav,0,poule,385,40,5,5,English,m,10,1.0,-9.98862023,0.34584513
5ebc3097a9c38504ebd8a347,18,0,2024-02-28T14:43:16.103Z,french_261.wav,0,poule,385,40,5,5,English,m,11,1.1,12.33371854,0.48440501
5ebc3097a9c38504ebd8a347,18,0,2024-02-28T14:43:16.103Z,french_261.wav,0,poule,385,40,5,5,English,m,12,1.14141667,0.5455691,1.72005323
5ebc3097a9c38504ebd8a347,19,0,2024-02-28T14:43:16.103Z,french_72.wav,0,poule,1070,40,5,5,English,m,0,0.0,28.80890163,0.00807448
5ebc3097a9c38504ebd8a347,19,0,2024-02-28T14:43:16.103Z,french_72.wav,0,poule,1070,40,5,5,English,m,1,0.1,1.83594253,1.18328739
5ebc3097a9c38504ebd8a347,19,0,2024-02-28T14:43:16.103Z,french_72.wav,0,poule,1070,40,5,5,English,m,2,0.2,-49.19445344,0.21319227
5ebc3097a9c38504ebd8a347,19,0,2024-02-28T14:43:16.103Z,french_72.wav,0,poule,1070,40,5,5,English,m,3,0.3,-70.77665619,1.3297124
5ebc3097a9c38504ebd8a347,19,0,2024-02-28T14:43:16.103Z,french_72.wav,0,poule,1070,40,5,5,English,m,4,0.4,-7.07365357,0.54545246
5ebc3097a9c38504ebd8a347,19,0,2024-02-28T14:43:16.103Z,french_72.wav,0,poule,1070,40,5,5,English,m,5,0.5,-3.71167603,1.13976731
5ebc3097a9c38504ebd8a347,19,0,2024-02-28T14:43:16.103Z,french_72.wav,0,poule,1070,40,5,5,English,m,6,0.6,-5.89788173,1.92534018
5ebc3097a9c38504ebd8a347,19,0,2024-02-28T14:43:16.103Z,french_72.wav,0,poule,1070,40,5,5,English,m,7,0.7,-8.85470239,1.58910715
5ebc3097a9c38504ebd8a347,19,0,2024-02-28T14:43:16.103Z,french_72.wav,0,poule,1070,40,5,5,English,m,8,0.8,-41.07718235,0.82088611
5ebc3097a9c38504ebd8a347,19,0,2024-02-28T14:43:16.103Z,french_72.wav,0,poule,1070,40,5,5,English,m,9,0.9,74.79866108,1.16352624
5ebc3097a9c38504ebd8a347,19,0,2024-02-28T14:43:16.103Z,french_72.wav,0,poule,1070,40,5,5,English,m,10,1.0,67.9411898,0.62223628
5ebc3097a9c38504ebd8a347,19,0,2024-02-28T14:43:16.103Z,french_72.wav,0,poule,1070,40,5,5,English,m,11,1.1,-68.57372393,1.92120245
5ebc3097a9c38504ebd8a347,19,0,2024-02-28T14:43:16.103Z,french_72.wav,0,poule,1070,40,5,5,English,m,12,1.14141667,4.6478635,0.9834755
5ebc3097a9c38504ebd8a347,20,0,2024-02-28T14:43:16.103Z,french_729.wav,0,poule,1443,40,5,5,English,m,0,0.0,6.02970532,1.61080248
5ebc3097a9c38504ebd8a347,20,0,2024-02-28T14:43:16.103Z,french_729.wav,0,poule,1443,40,5,5,English,m,1,0.1,-58.23115064,1.8035096
5ebc3097a9c38504ebd8a347,20,0,2024-02-28T14:43:16.103Z,french_729.wav,0,poule,1443,40,5,5,English,m,2,0.2,-79.4524648,1.53819495
5ebc3097a9c38504ebd8a347,20,0,2024-02-28T14:43:16.103Z,french_729.wav,0,poule,1443,40,5,5,English,m,3,0.3,25.31289493,0.27769673
5ebc3097a9c38504ebd8a347,20,0,2024-02-28T14:43:16.103Z,french_729.wav,0,poule,1443,40,5,5,English,m,4,0.4,-60.34707627,0.7897534
5ebc3097a9c38504ebd8a347,20,0,2024-02-28T14:43:16.103Z,french_729.wav,0,poule,1443,40,5,5,English,m,5,0.5,-88.40589566,0.63490444
5ebc3097a9c38504ebd8a347,20,0,2024-02-28T14:43:16.103Z,french_729.wav,0,poule,1443,40,5,5,English,m,6,0.6,51.21957515,0.80684979
5ebc3097a9c38504ebd8a347,20,0,2024-02-28T14:43:16.103Z,french_729.wav,0,poule,1443,40,5,5,English,m,7,0.7,27.50218474,1.59337723
5ebc3097a9c38504ebd8a347,20,0,2024-02-28T14:43:16.103Z,french_729.wav,0,poule,1443,40,5,5,English,m,8,0.8,-8.138588,1.66290077
5ebc3097a9c38504ebd8a347,20,0,2024-02-28T14:43:16.103Z,french_729.wav,0,poule,1443,40,5,5,English,m,9,0.9,-7.03673711,1.10338309
5ebc3097a9c38504ebd8a347,20,0,2024-02-28T14:43:16.103Z,french_729.wav,0,poule,1443,40,5,5,English,m,10,1.0,94.92373652,1.7929398
5ebc3097a9c38504ebd8a347,20,0,2024-02-28T14:43:16.103Z,french_729.wav,0,poule,1443,40,5,5,English,m,11,1.1,-56.45846908,1.95609229
5ebc3097a9c38504ebd8a347,20,0,2024-02-28T14:43:16.103Z,french_729.wav,0,poule,1443,40,5,5,English,m,12,1.14141667,-5.25957002,1.67314896
5ebc3097a9c38504ebd8a347,21,0,2024-02-28T14:43:16.103Z,french_263.wav,0,poule,707,40,5,5,English,m,0,0.0,-35.6234396,0.41942748
5ebc3097a9c38504ebd8a347,21,0,2024-02-28T14:43:16.103Z,french_263.wav,0,poule,707,40,5,5,English,m,1,0.1,80.58342714,0.86466593
5ebc3097a9c38504ebd8a347,21,0,2024-02-28T14:43:16.103Z,french_263.wav,0,poule,707,40,5,5,English,m,2,0.2,26.9247896,0.90258842
5ebc3097a9c38504ebd8a347,21,0,2024-02-28T14:43:16.103Z,french_263.wav,0,poule,707,40,5,5,English,m,3,0.3,-64.28881536,0.30940464
5ebc3097a9c38504ebd8a347,21,0,2024-02-28T14:43:16.103Z,french_263.wav,0,poule,707,40,5,5,English,m,4,0.4,71.8745562,0.49132319
5ebc3097a9c38504ebd8a347,21,0,2024-02-28T14:43:16.103Z,french_263.wav,0,poule,707,40,5,5,English,m,5,0.5,-24.24365063,0.18866759
5ebc3097a9c38504ebd8a347,21,0,2024-02-28T14:43:16.103Z,french_263.wav,0,poule,707,40,5,5,English,m,6,0.6,67.89663748,1.09978722
5ebc3097a9c38504ebd8a347,21,0,2024-02-28T14:43:16.103Z,french_263.wav,0,poule,707,40,5,5,English,m,7,0.7,5.62822954,0.81261586
5ebc3097a9c38504ebd8a347,21,0,2024-02-28T14:43:16.103Z,french_263.wav,0,poule,707,40,5,5,English,m,8,0.8,8.21920478,0.42151921
5ebc3097a9c38504ebd8a347,21,0,2024-02-28T14:43:16.103Z,french_263.wav,0,poule,707,40,5,5,English,m,9,0.9,-4.84660323,0.86223793
5ebc3097a9c38504ebd8a347,21,0,2024-02-28T14:43:16.103Z,french_263.wav,0,poule,707,40,5,5,English,m,10,1.0,92.2995778,0.83361364
5ebc3097a9c38504ebd8a347,21,0,2024-02-28T14:43:16.103Z,french_263.wav,0,poule,707,40,5,5,English,m,11,1.1,5.29993653,0.95375213
5ebc3097a9c38504ebd8a347,21,0,2024-02-28T14:43:16.103Z,french_263.wav,0,poule,707,40,5,5,English,m,12,1.14141667,-11.24406753,0.43274193
5ebc3097a9c38504ebd8a347,22,0,2024-02-28T14:43:16.103Z,french_344.wav,0,poule,2211,40,5,5,English,m,0,0.0,96.07480186,0.58479992
5ebc3097a9c38504ebd8a347,22,0,2024-02-28T14:43:16.103Z,french_344.wav,0,poule,2211,40,5,5,English,m,1,0.1,-21.67597909,0.94801026
5ebc3097a9c38504ebd8a347,22,0,2024-02-28T14:43:16.103Z,french_344.wav,0,poule,2211,40,5,5,English,m,2,0.2,1.76564063,0.48766352
5ebc3097a9c38504ebd8a347,22,0,2024-02-28T14:43:16.103Z,french_344.wav,0,poule,2211,40,5,5,English,m,3,0.3,52.19208065,0.58210606
5ebc3097a9c38504ebd8a347,22,0,2024-02-28T14:43:16.103Z,french_344.wav,0,poule,2211,40,5,5,English,m,4,0.4,-48.97734346,1.63747349
5ebc3097a9c38504ebd8a347,22,0,2024-02-28T14:43:16.103Z,french_344.wav,0,poule,2211,40,5,5,English,m,5,0.5,8.52034332,0.76958472
5ebc3097a9c38504ebd8a347,22,0,2024-02-28T14:43:16.103Z,french_344.wav,0,poule,2211,40,5,5,English,m,6,0.6,76.79242076,1.51679811
5ebc3097a9c38504ebd8a347,22,0,2024-02-28T14:43:16.103Z,french_344.wav,0,poule,2211,40,5,5,English,m,7,0.7,-46.49970146,0.4990454
5ebc3097a9c38504ebd8a347,22,0,2024-02-28T14:43:16.103Z,french_344.wav,0,poule,2211,40,5,5,English,m,8,0.8,41.91318913,1.79245635
5ebc3097a9c38504ebd8a347,22,0,2024-02-28T14:43:16.103Z,french_344.wav,0,poule,2211,40,5,5,English,m,9,0.9,-58.70585391,1.42432783
5ebc3097a9c38504ebd8a347,22,0,2024-02-28T14:43:16.103Z,french_344.wav,0,poule,2211,40,5,5,English,m,10,1.0,-5.86032919,0.02463932
5ebc3097a9c38504ebd8a347,22,0,2024-02-28T14:43:16.103Z,french_344.wav,0,poule,2211,40,5,5,English,m,11,1.1,3.04602069,1.38926004
5ebc3097a9c38504ebd8a347,22,0,2024-02-28T14:43:16.103Z,french_344.wav,0,poule,2211,40,5,5,English,m,12,1.14141667,9.91868565,0.39424777
5ebc3097a9c38504ebd8a347,23,0,2024-02-28T14:43:16.103Z,french_529.wav,0,pull,606,40,5,5,English,m,0,0.0,68.21405675,0.55022537
5ebc3097a9c38504ebd8a347,23,0,2024-02-28T14:43:16.103Z,french_529.wav,0,pull,606,40,5,5,English,m,1,0.1,-26.26254382,1.84018601
5ebc3097a9c38504ebd8a347,23,0,2024-02-28T14:43:16.103Z,french_529.wav,0,pull,606,40,5,5,English,m,2,0.2,35.91187259,1.28391887
5ebc3097a9c38504ebd8a347,23,0,2024-02-28T14:43:16.103Z,french_529.wav,0,pull,606,40,5,5,English,m,3,0.3,-90.62874651,0.7250288
5ebc3097a9c38504ebd8a347,23,0,2024-02-28T14:43:16.103Z,french_529.wav,0,pull,606,40,5,5,English,m,4,0.4,48.9626863,0.78464607
5ebc3097a9c38504ebd8a347,23,0,2024-02-28T14:43:16.103Z,french_529.wav,0,pull,606,40,5,5,English,m,5,0.5,-34.38890804,0.26698233
5ebc3097a9c38504ebd8a347,23,0,2024-02-28T14:43:16.103Z,french_529.wav,0,pull,606,40,5,5,English,m,6,0.6,-26.35114845,0.62081799
5ebc3097a9c38504ebd8a347,23,0,2024-02-28T14:43:16.103Z,french_529.wav,0,pull,606,40,5,5,English,m,7,0.7,76.17282181,1.40858926
5ebc3097a9c38504ebd8a347,23,0,2024-02-28T14:43:16.103Z,french_529.wav,0,pull,606,40,5,5,English,m,8,0.8,-86.28711417,0.07240201
5ebc3097a9c38504ebd8a347,23,0,2024-02-28T14:43:16.103Z,french_529.wav,0,pull,606,40,5,5,English,m,9,0.9,-66.41984683,0.58270484
5ebc3097a9c38504ebd8a347,23,0,2024-02-28T14:43:16.103Z,french_529.wav,0,pull,606,40,5,5,English,m,10,1.0,74.29634714,0.30597621
5ebc3097a9c38504ebd8a347,23,0,2024-02-28T14:43:16.103Z,french_529.wav,0,pull,606,40,5,5,English,m,11,1.1,-35.97062469,0.43438998
5ebc3097a9c38504ebd8a347,23,0,2024-02-28T14:43:16.103Z,french_529.wav,0,pull,606,40,5,5,English,m,12,1.14141667,81.32540921,1.7101157
5ebc3097a9c38504ebd8a347,24,0,2024-02-28T14:43:16.103Z,french_170.wav,0,poule,639,40,5,5,English,m,0,0.0,78.4256709,1.56635182
5ebc3097a9c38504ebd8a347,24,0,2024-02-28T14:43:16.103Z,french_170.wav,0,poule,639,40,5,5,English,m,1,0.1,74.01453231,0.86264396
5ebc3097a9c38504ebd8a347,24,0,2024-02-28T14:43:16.103Z,french_170.wav,0,poule,639,40,5,5,English,m,2,0.2,-39.88926349,0.54432946
5ebc3097a9c38504ebd8a347,24,0,2024-02-28T14:43:16.103Z,french_170.wav,0,poule,639,40,5,5,English,m,3,0.3,-19.85923671,0.4724751
5ebc3097a9c38504ebd8a347,24,0,2024-02-28T14:43:16.103Z,french_170.wav,0,poule,639,40,5,5,English,m,4,0.4,21.90551666,1.46831695
5ebc3097a9c38504ebd8a347,24,0,2024-02-28T14:43:16.103Z,french_170.wav,0,poule,639,40,5,5,English,m,5,0.5,-33.95377881,1.4701458
5ebc3097a9c38504ebd8a347,24,0,2024-02-28T14:43:16.103Z,french_170.wav,0,poule,639,40,5,5,English,m,6,0.6,91.63398051,0.88463831
5ebc3097a9c38504ebd8a347,24,0,2024-02-28T14:43:16.103Z,french_170.wav,0,poule,639,40,5,5,English,m,7,0.7,1.97301371,1.6321868
5ebc3097a9c38504ebd8a347,24,0,2024-02-28T14:43:16.103Z,french_170.wav,0,poule,639,40,5,5,English,m,8,0.8,23.07565561,0.37326226
5ebc3097a9c38504ebd8a347,24,0,2024-02-28T14:43:16.103Z,french_170.wav,0,poule,639,40,5,5,English,m,9,0.9,9.25122432,1.17917382
5ebc3097a9c38504ebd8a347,24,0,2024-02-28T14:43:16.103Z,french_170.wav,0,poule,639,40,5,5,English,m,10,1.0,17.68156944,0.44028457
5ebc3097a9c38504ebd8a347,24,0,2024-02-28T14:43:16.103Z,french_170.wav,0,poule,639,40,5,5,English,m,11,1.1,21.64263281,1.57885644
5ebc3097a9c38504ebd8a347,24,0,2024-02-28T14:43:16.103Z,french_170.wav,0,poule,639,40,5,5,English,m,12,1.14141667,23.34976947,0.75646094
5ebc3097a9c38504ebd8a347,25,0,2024-02-28T14:43:16.103Z,french_668.wav,0,poule,1106,40,5,5,English,m,0,0.0,29.27228259,0.3188214
5ebc3097a9c38504ebd8a347,25,0,2024-02-28T14:43:16.103Z,french_668.wav,0,poule,1106,40,5,5,English,m,1,0.1,44.61886338,0.83567332
5ebc3097a9c38504ebd8a347,25,0,2024-02-28T14:43:16.103Z,french_668.wav,0,poule,1106,40,5,5,English,m,2,0.2,-99.37151223,1.37479397
5ebc3097a9c38504ebd8a347,25,0,2024-02-28T14:43:16.103Z,french_668.wav,0,poule,1106,40,5,5,English,m,3,0.3,-43.50012214,1.52422833
5ebc3097a9c38504ebd8a347,25,0,2024-02-28T14:43:16.103Z,french_668.wav,0,poule,1106,40,5,5,English,m,4,0.4,-59.48264573,1.47592496
5ebc3097a9c38504ebd8a347,25,0,2024-02-28T14:43:16.103Z,french_668.wav,0,poule,1106,40,5,5,English,m,5,0.5,-9.75520018,0.98185706
5ebc3097a9c38504ebd8a347,25,0,2024-02-28T14:43:16.103Z,french_668.wav,0,poule,1106,40,5,5,English,m,6,0.6,-11.86740044,0.8144327
5ebc3097a9c38504ebd8a347,25,0,2024-02-28T14:43:16.103Z,french_668.wav,0,poule,1106,40,5,5,English,m,7,0.7,74.75745741,0.15769834
5ebc3097a9c38504ebd8a347,25,0,2024-02-28T14:43:16.103Z,french_668.wav,0,poule,1106,40,5,5,English,m,8,0.8,57.50233643,0.61225333
5ebc3097a9c38504ebd8a347,25,0,2024-02-28T14:43:16.103Z,french_668.wav,0,poule,1106,40,5,5,English,m,9,0.9,-23.1818058,0.30532124
5ebc3097a9c38504ebd8a347,25,0,2024-02-28T14:43:16.103Z,french_668.wav,0,poule,1106,40,5,5,English,m,10,1.0,30.6351759,0.84973926
5ebc3097a9c38504ebd8a347,25,0,2024-02-28T14:43:16.103Z,french_668.wav,0,poule,1106,40,5,5,English,m,11,1.1,-64.15483503,1.73680039
5ebc3097a9c38504ebd8a347,25,0,2024-02-28T14:43:16.103Z,french_668.wav,0,poule,1106,40,5,5,English,m,12,1.14141667,-17.76472581,1.07000134
5ebc3097a9c38504ebd8a347,26,0,2024-02-28T14:43:16.103Z,french_660.wav,0,poule,489,40,5,5,English,m,0,0.0,-37.71510641,0.65271068
5ebc3097a9c38504ebd8a347,26,0,2024-02-28T14:43:16.103Z,french_660.wav,0,poule,489,40,5,5,English,m,1,0.1,-51.81416614,0.95176002
5ebc3097a9c38504ebd8a347,26,0,2024-02-28T14:43:16.103Z,french_660.wav,0,poule,489,40,5,5,English,m,2,0.2,4.10351711,1.39790786
5ebc3097a9c38504ebd8a347,26,0,2024-02-28T14:43:16.103Z,french_660.wav,0,poule,489,40,5,5,English,m,3,0.3,-3.46148296,0.28536613
5ebc3097a9c38504ebd8a347,26,0,2024-02-28T14:43:16.103Z,french_660.wav,0,poule,489,40,5,5,English,m,4,0.4,34.89398508,0.45403895
5ebc3097a9c38504ebd8a347,26,0,2024-02-28T14:43:16.103Z,french_660.wav,0,poule,489,40,5,5,English,m,5,0.5,-22.68565324,1.25725192
5ebc3097a9c38504ebd8a347,26,0,2024-02-28T14:43:16.103Z,french_660.wav,0,poule,489,40,5,5,English,m,6,0.6,-48.78238306,1.02526608
5ebc3097a9c38504ebd8a347,26,0,2024-02-28T14:43:16.103Z,french_660.wav,0,poule,489,40,5,5,English,m,7,0.7,35.92338582,0.65449001
5ebc3097a9c38504ebd8a347,26,0,2024-02-28T14:43:16.103Z,french_660.wav,0,poule,489,40,5,5,English,m,8,0.8,41.13919158,1.63115139
5ebc3097a9c38504ebd8a347,26,0,2024-02-28T14:43:16.103Z,french_660.wav,0,poule,489,40,5,5,English,m,9,0.9,36.80052876,1.24820992
5ebc3097a9c38504ebd8a347,26,0,2024-02-28T14:43:16.103Z,french_660.wav,0,poule,489,40,5,5,English,m,10,1.0,-27.8791645,0.72272253
5ebc3097a9c38504ebd8a347,26,0,2024-02-28T14:43:16.103Z,french_660.wav,0,poule,489,40,5,5,English,m,11,1.1,-0.18086637,1.66540582
5ebc3097a9c38504ebd8a347,26,0,2024-02-28T14:43:16.103Z,french_660.wav,0,poule,489,40,5,5,English,m,12,1.14141667,-46.57940535,0.10395667
5ebc3097a9c38504ebd8a347,27,0,2024-02-28T14:43:16.103Z,french_705.wav,0,poule,1218,40,5,5,English,m,0,0.0,-44.81822656,0.56671605
5ebc3097a9c38504ebd8a347,27,0,2024-02-28T14:43:16.103Z,french_705.wav,0,poule,1218,40,5,5,English,m,1,0.1,43.00671419,1.20420295
5ebc3097a9c38504ebd8a347,27,0,2024-02-28T14:43:16.103Z,french_705.wav,0,poule,1218,40,5,5,English,m,2,0.2,24.16341234,0.70571207
5ebc3097a9c38504ebd8a347,27,0,2024-02-28T14:43:16.103Z,french_705.wav,0,poule,1218,40,5,5,English,m,3,0.3,9.70814333,0.52675366
5ebc3097a9c38504ebd8a347,27,0,2024-02-28T14:43:16.103Z,french_705.wav,0,poule,1218,40,5,5,English,m,4,0.4,-29.08028794,0.39172788
5ebc3097a9c38504ebd8a347,27,0,2024-02-28T14:43:16.103Z,french_705.wav,0,poule,1218,40,5,5,English,m,5,0.5,13.99687292,1.41562153
5ebc3097a9c38504ebd8a347,27,0,2024-02-28T14:43:16.103Z,french_705.wav,0,poule,1218,40,5,5,English,m,6,0.6,-94.34527698,0.31474912
5ebc3097a9c38504ebd8a347,27,0,2024-02-28T14:43:16.103Z,french_705.wav,0,poule,1218,40,5,5,English,m,7,0.7,82.02293288,0.39809757
5ebc3097a9c38504ebd8a347,27,0,2024-02-28T14:43:16.103Z,french_705.wav,0,poule,1218,40,5,5,English,m,8,0.8,97.80429139,1.50165922
5ebc3097a9c38504ebd8a347,27,0,2024-02-28T14:43:16.103Z,french_705.wav,0,poule,1218,40,5,5,English,m,9,0.9,50.38684798,1.53053157
5ebc3097a9c38504ebd8a347,27,0,2024-02-28T14:43:16.103Z,french_705.wav,0,poule,1218,40,5,5,English,m,10,1.0,50.88531701,1.50980535
5ebc3097a9c38504ebd8a347,27,0,2024-02-28T14:43:16.103Z,french_705.wav,0,poule,1218,40,5,5,English,m,11,1.1,-60.62155268,1.19355888
5ebc3097a9c38504ebd8a347,27,0,2024-02-28T14:43:16.103Z,french_705.wav,0,poule,1218,40,5,5,English,m,12,1.14141667,17.68821643,0.79977781
5ebc3097a9c38504ebd8a347,28,0,2024-02-28T14:43:16.103Z,french_674.wav,0,poule,594,40,5,5,English,m,0,0.0,13.4877762,1.49229311
5ebc3097a9c38504ebd8a347,28,0,2024-02-28T14:43:16.103Z,french_674.wav,0,poule,594,40,5,5,English,m,1,0.1,-72.71286041,0.38255489
5ebc3097a9c38504ebd8a347,28,0,2024-02-28T14:43:16.103Z,french_674.wav,0,poule,594,40,5,5,English,m,2,0.2,25.25285257,1.8939445
5ebc3097a9c38504ebd8a347,28,0,2024-02-28T14:43:16.103Z,french_674.wav,0,poule,594,40,5,5,English,m,3,0.3,-18.45415803,1.35404975
5ebc3097a9c38504ebd8a347,28,0,2024-02-28T14:43:16.103Z,french_674.wav,0,poule,594,40,5,5,English,m,4,0.4,-57.71656378,1.2879641
5ebc3097a9c38504ebd8a347,28,0,2024-02-28T14:43:16.103Z,french_674.wav,0,poule,594,40,5,5,English,m,5,0.5,-73.49162441,1.75487552
5ebc3097a9c38504ebd8a347,28,0,2024-02-28T14:43:16.103Z,french_674.wav,0,poule,594,40,5,5,English,m,6,0.6,-1.85504026,0.89488389
5ebc3097a9c38504ebd8a347,28,0,2024-02-28T14:43:16.103Z,french_674.wav,0,poule,594,40,5,5,English,m,7,0.7,-87.1412738,0.66012514
5ebc3097a9c38504ebd8a347,28,0,2024-02-28T14:43:16.103Z,french_674.wav,0,poule,594,40,5,5,English,m,8,0.8,-35.96348726,0.42860271
5ebc3097a9c38504ebd8a347,28,0,2024-02-28T14:43:16.103Z,french_674.wav,0,poule,594,40,5,5,English,m,9,0.9,-95.42427093,0.95081491
5ebc3097a9c38504ebd8a347,28,0,2024-02-28T14:43:16.103Z,french_674.wav,0,poule,594,40,5,5,English,m,10,1.0,-14.54067517,1.48593936
5ebc3097a9c38504ebd8a347,28,0,2024-02-28T14:43:16.103Z,french_674.wav,0,poule,594,40,5,5,English,m,11,1.1,-75.28735124,0.17038498
5ebc3097a9c38504ebd8a347,28,0,2024-02-28T14:43:16.103Z,french_674.wav,0,poule,594,40,5,5,English,m,12,1.14141667,-11.45770391,1.04908179
5ebc3097a9c38504ebd8a347,29,0,2024-02-28T14:43:16.103Z,french_981.wav,0,poule,974,40,5,5,English,m,0,0.0,-38.08669269,1.67776231
5ebc3097a9c38504ebd8a347,29,0,2024-02-28T14:43:16.103Z,french_981.wav,0,poule,974,40,5,5,English,m,1,0.1,-73.93088907,1.4500739
5ebc3097a9c38504ebd8a347,29,0,2024-02-28T14:43:16.103Z,french_981.wav,0,poule,974,40,5,5,English,m,2,0.2,-88.32473941,1.60115886
5ebc3097a9c38504ebd8a347,29,0,2024-02-28T14:43:16.103Z,french_981.wav,0,poule,974,40,5,5,English,m,3,0.3,60.7364341,1.60462547
5ebc3097a9c38504ebd8a347,29,0,2024-02-28T14:43:16.103Z,french_981.wav,0,poule,974,40,5,5,English,m,4,0.4,-16.1524086,0.69020142
5ebc3097a9c38504ebd8a347,29,0,2024-02-28T14:43:16.103Z,french_981.wav,0,poule,974,40,5,5,English,m,5,0.5,-93.43340089,0.54737899
5ebc3097a9c38504ebd8a347,29,0,2024-02-28T14:43:16.103Z,french_981.wav,0,poule,974,40,5,5,English,m,6,0.6,-45.31120126,0.19731947
5ebc3097a9c38504ebd8a347,29,0,2024-02-28T14:43:16.103Z,french_981.wav,0,poule,974,40,5,5,English,m,7,0.7,-79.13047949,1.35276023
5ebc3097a9c38504ebd8a347,29,0,2024-02-28T14:43:16.103Z,french_981.wav,0,poule,974,40,5,5,English,m,8,0.8,72.11880398,0.09347094
5ebc3097a9c38504ebd8a347,29,0,2024-02-28T14:43:16.103Z,french_981.wav,0,poule,974,40,5,5,English,m,9,0.9,-24.42160512,0.88261019
5ebc3097a9c38504ebd8a347,29,0,2024-02-28T14:43:16.103Z,french_981.wav,0,poule,974,40,5,5,English,m,10,1.0,-37.42455043,0.20373219
5ebc3097a9c38504ebd8a347,29,0,2024-02-28T14:43:16.103Z,french_981.wav,0,poule,974,40,5,5,English,m,11,1.1,1.64695246,1.67203558
5ebc3097a9c38504ebd8a347,29,0,2024-02-28T14:43:16.103Z,french_981.wav,0,poule,974,40,5,5,English,m,12,1.14141667,92.37141996,1.72330196
5ebc3097a9c38504ebd8a347,30,0,2024-02-28T14:43:16.103Z,french_448.wav,0,pull,924,40,5,5,English,m,0,0.0,-49.41608192,0.77831595
5ebc3097a9c38504ebd8a347,30,0,2024-02-28T14:43:16.103Z,french_448.wav,0,pull,924,40,5,5,English,m,1,0.1,-30.3512703,1.71978765
5ebc3097a9c38504ebd8a347,30,0,2024-02-28T14:43:16.103Z,french_448.wav,0,pull,924,40,5,5,English,m,2,0.2,67.54613393,0.27102863
5ebc3097a9c38504ebd8a347,30,0,2024-02-28T14:43:16.103Z,french_448.wav,0,pull,924,40,5,5,English,m,3,0.3,-93.47597167,1.6891978
5ebc3097a9c38504ebd8a347,30,0,2024-02-28T14:43:16.103Z,french_448.wav,0,pull,924,40,5,5,English,m,4,0.4,23.22725928,1.07215267
5ebc3097a9c38504ebd8a347,30,0,2024-02-28T14:43:16.103Z,french_448.wav,0,pull,924,40,5,5,English,m,5,0.5,60.03248628,0.57646816
5ebc3097a9c38504ebd8a347,30,0,2024-02-28T14:43:16.103Z,french_448.wav,0,pull,924,40,5,5,English,m,6,0.6,26.16426079,0.14253766
5ebc3097a9c38504ebd8a347,30,0,2024-02-28T14:43:16.103Z,french_448.wav,0,pull,924,40,5,5,English,m,7,0.7,19.22865529,1.98223022
5ebc3097a9c38504ebd8a347,30,0,2024-02-28T14:43:16.103Z,french_448.wav,0,pull,924,40,5,5,English,m,8,0.8,-91.4658834,0.38558498
5ebc3097a9c38504ebd8a347,30,0,2024-02-28T14:43:16.103Z,french_448.wav,0,pull,924,40,5,5,English,m,9,0.9,-80.8404627,0.04175319
5ebc3097a9c38504ebd8a347,30,0,2024-02-28T14:43:16.103Z,french_448.wav,0,pull,924,40,5,5,English,m,10,1.0,-14.65228926,0.76552701
5ebc3097a9c38504ebd8a347,30,0,2024-02-28T14:43:16.103Z,french_448.wav,0,pull,924,40,5,5,English,m,11,1.1,-63.24456299,1.41782634
5ebc3097a9c38504ebd8a347,30,0,2024-02-28T14:43:16.103Z,french_448.wav,0,pull,924,40,5,5,English,m,12,1.14141667,-10.86817626,0.38733853
5ebc3097a9c38504ebd8a347,31,0,2024-02-28T14:43:16.103Z,french_875.wav,0,poule,674,40,5,5,English,m,0,0.0,45.85158568,0.742891
5ebc3097a9c38504ebd8a347,31,0,2024-02-28T14:43:16.103Z,french_875.wav,0,poule,674,40,5,5,English,m,1,0.1,7.11917254,1.89433175
5ebc3097a9c38504ebd8a347,31,0,2024-02-28T14:43:16.103Z,french_875.wav,0,poule,674,40,5,5,English,m,2,0.2,78.12134314,1.6243666
5ebc3097a9c38504ebd8a347,31,0,2024-02-28T14:43:16.103Z,french_875.wav,0,poule,674,40,5,5,English,m,3,0.3,97.47827294,0.98769572
5ebc3097a9c38504ebd8a347,31,0,2024-02-28T14:43:16.103Z,french_875.wav,0,poule,674,40,5,5,English,m,4,0.4,-16.31048208,0.57089061
5ebc3097a9c38504ebd8a347,31,0,2024-02-28T14:43:16.103Z,french_875.wav,0,poule,674,40,5,5,English,m,5,0.5,-57.92090537,1.46131689
5ebc3097a9c38504ebd8a347,31,0,2024-02-28T14:43:16.103Z,french_875.wav,0,poule,674,40,5,5,English,m,6,0.6,-80.48850895,0.74274184
5ebc3097a9c38504ebd8a347,31,0,2024-02-28T14:43:16.103Z,french_875.wav,0,poule,674,40,5,5,English,m,7,0.7,14.41161829,0.99318799
5ebc3097a9c38504ebd8a347,31,0,2024-02-28T14:43:16.103Z,french_875.wav,0,poule,674,40,5,5,English,m,8,0.8,30.39544131,1.87326507
5ebc3097a9c38504ebd8a347,31,0,2024-02-28T14:43:16.103Z,french_875.wav,0,poule,674,40,5,5,English,m,9,0.9,-13.64067474,0.6995089
5ebc3097a9c38504ebd8a347,31,0,2024-02-28T14:43:16.103Z,french_875.wav,0,poule,674,40,5,5,English,m,10,1.0,10.63284956,1.63464253
5ebc3097a9c38504ebd8a347,31,0,2024-02-28T14:43:16.103Z,french_875.wav,0,poule,674,40,5,5,English,m,11,1.1,34.52905644,0.5924672
5ebc3097a9c38504ebd8a347,31,0,2024-02-28T14:43:16.103Z,french_875.wav,0,poule,674,40,5,5,English,m,12,1.14141667,37.26363769,1.26762878
5ebc3097a9c38504ebd8a347,32,0,2024-02-28T14:43:16.103Z,french_11.wav,0,poule,194,40,5,5,English,m,0,0.0,-53.97722238,1.09610164
5ebc3097a9c38504ebd8a347,32,0,2024-02-28T14:43:16.103Z,french_11.wav,0,poule,194,40,5,5,English,m,1,0.1,-31.21118385,0.22350944
5ebc3097a9c38504ebd8a347,32,0,2024-02-28T14:43:16.103Z,french_11.wav,0,poule,194,40,5,5,English,m,2,0.2,-36.80951357,1.00123418
5ebc3097a9c38504ebd8a347,32,0,2024-02-28T14:43:16.103Z,french_11.wav,0,poule,194,40,5,5,English,m,3,0.3,-95.45532381,0.87401162
5ebc3097a9c38504ebd8a347,32,0,2024-02-28T14:43:16.103Z,french_11.wav,0,poule,194,40,5,5,English,m,4,0.4,58.15480481,0.20703956
5ebc3097a9c38504ebd8a347,32,0,2024-02-28T14:43:16.103Z,french_11.wav,0,poule,194,40,5,5,English,m,5,0.5,71.015522,0.5150991
5ebc3097a9c38504ebd8a347,32,0,2024-02-28T14:43:16.103Z,french_11.wav,0,poule,194,40,5,5,English,m,6,0.6,65.59713254,1.3674314
5ebc3097a9c38504ebd8a347,32,0,2024-02-28T14:43:16.103Z,french_11.wav,0,poule,194,40,5,5,English,m,7,0.7,10.73762905,0.96376634
5ebc3097a9c38504ebd8a347,32,0,2024-02-28T14:43:16.103Z,french_11.wav,0,poule,194,40,5,5,English,m,8,0.8,28.00448009,0.85790612
5ebc3097a9c38504ebd8a347,32,0,2024-02-28T14:43:16.103Z,french_11.wav,0,poule,194,40,5,5,English,m,9,0.9,-7.76276887,1.59940673
5ebc3097a9c38504ebd8a347,32,0,2024-02-28T14:43:16.103Z,french_11.wav,0,poule,194,40,5,5,English,m,10,1.0,39.23656931,0.40281071
5ebc3097a9c38504ebd8a347,32,0,2024-02-28T14:43:16.103Z,french_11.wav,0,poule,194,40,5,5,English,m,11,1.1,-90.22036196,1.59018171
5ebc3097a9c38504ebd8a347,32,0,2024-02-28T14:43:16.103Z,french_11.wav,0,poule,194,40,5,5,English,m,12,1.14141667,-39.83688041,1.67678977
5ebc3097a9c38504ebd8a347,33,0,2024-02-28T14:43:16.103Z,french_778.wav,0,poule,748,40,5,5,English,m,0,0.0,-35.48786366,0.49504086
5ebc3097a9c38504ebd8a347,33,0,2024-02-28T14:43:16.103Z,french_778.wav,0,poule,748,40,5,5,English,m,1,0.1,20.95778916,1.47718928
5ebc3097a9c38504ebd8a347,33,0,2024-02-28T14:43:16.103Z,french_778.wav,0,poule,748,40,5,5,English,m,2,0.2,62.15303642,1.37622644
5ebc3097a9c38504ebd8a347,33,0,2024-02-28T14:43:16.103Z,french_778.wav,0,poule,748,40,5,5,English,m,3,0.3,90.70594658,1.090534
5ebc3097a9c38504ebd8a347,33,0,2024-02-28T14:43:16.103Z,french_778.wav,0,poule,748,40,5,5,English,m,4,0.4,-91.65456069,1.77275196
5ebc3097a9c38504ebd8a347,33,0,2024-02-28T14:43:16.103Z,french_778.wav,0,poule,748,40,5,5,English,m,5,0.5,51.13487531,0.71177308
5ebc3097a9c38504ebd8a347,33,0,2024-02-28T14:43:16.103Z,french_778.wav,0,poule,748,40,5,5,English,m,6,0.6,-71.75851132,1.53575502
5ebc3097a9c38504ebd8a347,33,0,2024-02-28T14:43:16.103Z,french_778.wav,0,poule,748,40,5,5,English,m,7,0.7,75.8077585,1.84732491
5ebc3097a9c38504ebd8a347,33,0,2024-02-28T14:43:16.103Z,french_778.wav,0,poule,748,40,5,5,English,m,8,0.8,55.46081372,1.36043897
5ebc3097a9c38504ebd8a347,33,0,2024-02-28T14:43:16.103Z,french_778.wav,0,poule,748,40,5,5,English,m,9,0.9,-65.5842371,0.49785511
5ebc3097a9c38504ebd8a347,33,0,2024-02-28T14:43:16.103Z,french_778.wav,0,poule,748,40,5,5,English,m,10,1.0,-78.54616608,0.675821
5ebc3097a9c38504ebd8a347,33,0,2024-02-28T14:43:16.103Z,french_778.wav,0,poule,748,40,5,5,English,m,11,1.1,28.288087,0.82554017
5ebc3097a9c38504ebd8a347,33,0,2024-02-28T14:43:16.103Z,french_778.wav,0,poule,748,40,5,5,English,m,12,1.14141667,-82.62675802,1.54903202
5ebc3097a9c38504ebd8a347,34,0,2024-02-28T14:43:16.103Z,french_126.wav,0,pull,374,40,5,5,English,m,0,0.0,-47.50319365,1.7258072
5ebc3097a9c38504ebd8a347,34,0,2024-02-28T14:43:16.103Z,french_126.wav,0,pull,374,40,5,5,English,m,1,0.1,7.1744106,1.03228838
5ebc3097a9c38504ebd8a347,34,0,2024-02-28T14:43:16.103Z,french_126.wav,0,pull,374,40,5,5,English,m,2,0.2,-57.32327794,0.24012817
5ebc3097a9c38504ebd8a347,34,0,2024-02-28T14:43:16.103Z,french_126.wav,0,pull,374,40,5,5,English,m,3,0.3,31.39211364,0.38913186
5ebc3097a9c38504ebd8a347,34,0,2024-02-28T14:43:16.103Z,french_126.wav,0,pull,374,40,5,5,English,m,4,0.4,53.99094674,0.22087612
5ebc3097a9c38504ebd8a347,34,0,2024-02-28T14:43:16.103Z,french_126.wav,0,pull,374,40,5,5,English,m,5,0.5,-26.25701214,1.50069545
5ebc3097a9c38504ebd8a347,34,0,2024-02-28T14:43:16.103Z,french_126.wav,0,pull,374,40,5,5,English,m,6,0.6,-77.34266557,1.97351318
5ebc3097a9c38504ebd8a347,34,0,2024-02-28T14:43:16.103Z,french_126.wav,0,pull,374,40,5,5,English,m,7,0.7,-34.04180886,1.74293994
5ebc3097a9c38504ebd8a347,34,0,2024-02-28T14:43:16.103Z,french_126.wav,0,pull,374,40,5,5,English,m,8,0.8,86.39853896,0.68176609
5ebc3097a9c38504ebd8a347,34,0,2024-02-28T14:43:16.103Z,french_126.wav,0,pull,374,40,5,5,English,m,9,0.9,86.34329163,0.61357482
5ebc3097a9c38504ebd8a347,34,0,2024-02-28T14:43:16.103Z,french_126.wav,0,pull,374,40,5,5,English,m,10,1.0,-48.32443869,1.25399236
5ebc3097a9c38504ebd8a347,34,0,2024-02-28T14:43:16.103Z,french_126.wav,0,pull,374,40,5,5,English,m,11,1.1,-43.96297419,1.03394671
5ebc3097a9c38504ebd8a347,34,0,2024-02-28T14:43:16.103Z,french_126.wav,0,pull,374,40,5,5,English,m,12,1.14141667,18.70995966,0.12686828
5ebc3097a9c38504ebd8a347,35,0,2024-02-28T14:43:16.103Z,french_710.wav,0,poule,343,40,5,5,English,m,0,0.0,77.18918864,1.03192367
5ebc3097a9c38504ebd8a347,35,0,2024-02-28T14:43:16.103Z,french_710.wav,0,poule,343,40,5,5,English,m,1,0.1,83.78981414,0.42018287
5ebc3097a9c38504ebd8a347,35,0,2024-02-28T14:43:16.103Z,french_710.wav,0,poule,343,40,5,5,English,m,2,0.2,-65.7693655,1.29406306
5ebc3097a9c38504ebd8a347,35,0,2024-02-28T14:43:16.103Z,french_710.wav,0,poule,343,40,5,5,English,m,3,0.3,-78.64184177,1.1839606
5ebc3097a9c38504ebd8a347,35,0,2024-02-28T14:43:16.103Z,french_710.wav,0,poule,343,40,5,5,English,m,4,0.4,60.76094054,0.24656774
5ebc3097a9c38504ebd8a347,35,0,2024-02-28T14:43:16.103Z,french_710.wav,0,poule,343,40,5,5,English,m,5,0.5,-85.54613182,0.27070574
5ebc3097a9c38504ebd8a347,35,0,2024-02-28T14:43:16.103Z,french_710.wav,0,poule,343,40,5,5,English,m,6,0.6,-82.83985369,0.55478724
5ebc3097a9c38504ebd8a347,35,0,2024-02-28T14:43:16.103Z,french_710.wav,0,poule,343,40,5,5,English,m,7,0.7,58.31469254,1.43791568
5ebc3097a9c38504ebd8a347,35,0,2024-02-28T14:43:16.103Z,french_710.wav,0,poule,343,40,5,5,English,m,8,0.8,-19.88359903,1.39655562
5ebc3097a9c38504ebd8a347,35,0,2024-02-28T14:43:16.103Z,french_710.wav,0,poule,343,40,5,5,English,m,9,0.9,28.05302473,1.5621613
5ebc3097a9c38504ebd8a347,35,0,2024-02-28T14:43:16.103Z,french_710.wav,0,poule,343,40,5,5,English,m,10,1.0,66.48543532,1.2992387
5ebc3097a9c38504ebd8a347,35,0,2024-02-28T14:43:16.103Z,french_710.wav,0,poule,343,40,5,5,English,m,11,1.1,3.69004882,0.84860939
5ebc3097a9c38504ebd8a347,35,0,2024-02-28T14:43:16.103Z,french_710.wav,0,poule,343,40,5,5,English,m,12,1.14141667,84.06568163,1.88227991
5ebc3097a9c38504ebd8a347,36,0,2024-02-28T14:43:16.103Z,french_867.wav,0,pull,870,40,5,5,English,m,0,0.0,-53.43328625,0.97812111
5ebc3097a9c38504ebd8a347,36,0,2024-02-28T14:43:16.103Z,french_867.wav,0,pull,870,40,5,5,English,m,1,0.1,-49.97355713,1.3601437
5ebc3097a9c38504ebd8a347,36,0,2024-02-28T14:43:16.103Z,french_867.wav,0,pull,870,40,5,5,English,m,2,0.2,-58.9249957,1.54753438
5ebc3097a9c38504ebd8a347,36,0,2024-02-28T14:43:16.103Z,french_867.wav,0,pull,870,40,5,5,English,m,3,0.3,43.5637091,1.06201045
5ebc3097a9c38504ebd8a347,36,0,2024-02-28T14:43:16.103Z,french_867.wav,0,pull,870,40,5,5,English,m,4,0.4,-25.84589976,0.41331847
5ebc3097a9c38504ebd8a347,36,0,2024-02-28T14:43:16.103Z,french_867.wav,0,pull,870,40,5,5,English,m,5,0.5,22.34280216,0.42681136
5ebc3097a9c38504ebd8a347,36,0,2024-02-28T14:43:16.103Z,french_867.wav,0,pull,870,40,5,5,English,m,6,0.6,8.86479921,0.521473
5ebc3097a9c38504ebd8a347,36,0,2024-02-28T14:43:16.103Z,french_867.wav,0,pull,870,40,5,5,English,m,7,0.7,2.63749871,0.89867922
5ebc3097a9c38504ebd8a347,36,0,2024-02-28T14:43:16.103Z,french_867.wav,0,pull,870,40,5,5,English,m,8,0.8,37.73266473,1.6707878
5ebc3097a9c38504ebd8a347,36,0,2024-02-28T14:43:16.103Z,french_867.wav,0,pull,870,40,5,5,English,m,9,0.9,85.03367681,1.51664813
5ebc3097a9c38504ebd8a347,36,0,2024-02-28T14:43:16.103Z,french_867.wav,0,pull,870,40,5,5,English,m,10,1.0,-58.31214733,0.90221678
5ebc3097a9c38504ebd8a347,36,0,2024-02-28T14:43:16.103Z,french_867.wav,0,pull,870,40,5,5,English,m,11,1.1,-2.53716971,0.21770986
5ebc3097a9c38504ebd8a347,36,0,2024-02-28T14:43:16.103Z,french_867.wav,0,pull,870,40,5,5,English,m,12,1.14141667,48.69326258,0.96207289
5ebc3097a9c38504ebd8a347,37,0,2024-02-28T14:43:16.103Z,french_250.wav,0,poule,674,40,5,5,English,m,0,0.0,62.52683965,0.48083999
5ebc3097a9c38504ebd8a347,37,0,2024-02-28T14:43:16.103Z,french_250.wav,0,poule,674,40,5,5,English,m,1,0.1,-59.15891797,0.2426368
5ebc3097a9c38504ebd8a347,37,0,2024-02-28T14:43:16.103Z,french_250.wav,0,poule,674,40,5,5,English,m,2,0.2,72.29013493,0.50289968
5ebc3097a9c38504ebd8a347,37,0,2024-02-28T14:43:16.103Z,french_250.wav,0,poule,674,40,5,5,English,m,3,0.3,7.18381601,0.96187942
5ebc3097a9c38504ebd8a347,37,0,2024-02-28T14:43:16.103Z,french_250.wav,0,poule,674,40,5,5,English,m,4,0.4,-40.54501031,0.79236689
5ebc3097a9c38504ebd8a347,37,0,2024-02-28T14:43:16.103Z,french_250.wav,0,poule,674,40,5,5,English,m,5,0.5,11.17660764,0.45761642
5ebc3097a9c38504ebd8a347,37,0,2024-02-28T14:43:16.103Z,french_250.wav,0,poule,674,40,5,5,English,m,6,0.6,-12.72402035,0.22457871
5ebc3097a9c38504ebd8a347,37,0,2024-02-28T14:43:16.103Z,french_250.wav,0,poule,674,40,5,5,English,m,7,0.7,86.4128945,1.19019688
5ebc3097a9c38504ebd8a347,37,0,2024-02-28T14:43:16.103Z,french_250.wav,0,poule,674,40,5,5,English,m,8,0.8,-22.42213109,0.95557976
5ebc3097a9c38504ebd8a347,37,0,2024-02-28T14:43:16.103Z,french_250.wav,0,poule,674,40,5,5,English,m,9,0.9,-17.96201743,0.73743866
5ebc3097a9c38504ebd8a347,37,0,2024-02-28T14:43:16.103Z,french_250.wav,0,poule,674,40,5,5,English,m,10,1.0,-65.83896619,1.58004952
5ebc3097a9c38504ebd8a347,37,0,2024-02-28T14:43:16.103Z,french_250.wav,0,poule,674,40,5,5,English,m,11,1.1,51.2878128,1.86095595
5ebc3097a9c38504ebd8a347,37,0,2024-02-28T14:43:16.103Z,french_250.wav,0,poule,674,40,5,5,English,m,12,1.14141667,-35.15908719,0.98214179
5ebc3097a9c38504ebd8a347,38,0,2024-02-28T14:43:16.103Z,french_941.wav,0,poule,1239,40,5,5,English,m,0,0.0,12.71352542,1.95653793
5ebc3097a9c38504ebd8a347,38,0,2024-02-28T14:43:16.103Z,french_941.wav,0,poule,1239,40,5,5,English,m,1,0.1,-51.14532839,0.17041659
5ebc3097a9c38504ebd8a347,38,0,2024-02-28T14:43:16.103Z,french_941.wav,0,poule,1239,40,5,5,English,m,2,0.2,81.02604724,0.4421366
5ebc3097a9c38504ebd8a347,38,0,2024-02-28T14:43:16.103Z,french_941.wav,0,poule,1239,40,5,5,English,m,3,0.3,-13.46587663,0.0592036
5ebc3097a9c38504ebd8a347,38,0,2024-02-28T14:43:16.103Z,french_941.wav,0,poule,1239,40,5,5,English,m,4,0.4,65.75240794,0.23397067
5ebc3097a9c38504ebd8a347,38,0,2024-02-28T14:43:16.103Z,french_941.wav,0,poule,1239,40,5,5,English,m,5,0.5,7.20435309,0.08731653
5ebc3097a9c38504ebd8a347,38,0,2024-02-28T14:43:16.103Z,french_941.wav,0,poule,1239,40,5,5,English,m,6,0.6,14.75981975,0.00308342
5ebc3097a9c38504ebd8a347,38,0,2024-02-28T14:43:16.103Z,french_941.wav,0,poule,1239,40,5,5,English,m,7,0.7,-19.14841244,1.15000304
5ebc3097a9c38504ebd8a347,38,0,2024-02-28T14:43:16.103Z,french_941.wav,0,poule,1239,40,5,5,English,m,8,0.8,80.51273253,1.41865084
5ebc3097a9c38504ebd8a347,38,0,2024-02-28T14:43:16.103Z,french_941.wav,0,poule,1239,40,5,5,English,m,9,0.9,-14.36108603,1.30569353
5ebc3097a9c38504ebd8a347,38,0,2024-02-28T14:43:16.103Z,french_941.wav,0,poule,1239,40,5,5,English,m,10,1.0,-1.28463364,1.07408693
5ebc3097a9c38504ebd8a347,38,0,2024-02-28T14:43:16.103Z,french_941.wav,0,poule,1239,40,5,5,English,m,11,1.1,-80.06594385,1.69135614
5ebc3097a9c38504ebd8a347,38,0,2024-02-28T14:43:16.103Z,french_941.wav,0,poule,1239,40,5,5,English,m,12,1.14141667,3.50926186,0.25602014
5ebc3097a9c38504ebd8a347,39,0,2024-02-28T14:43:16.103Z,french_280.wav,0,poule,576,40,5,5,English,m,0,0.0,63.30706177,0.51067849
5ebc3097a9c38504ebd8a347,39,0,2024-02-28T14:43:16.103Z,french_280.wav,0,poule,576,40,5,5,English,m,1,0.1,92.39258817,0.94358364
5ebc3097a9c38504ebd8a347,39,0,2024-02-28T14:43:16.103Z,french_280.wav,0,poule,576,40,5,5,English,m,2,0.2,-13.48987657,0.25640873
5ebc3097a9c38504ebd8a347,39,0,2024-02-28T14:43:16.103Z,french_280.wav,0,poule,576,40,5,5,English,m,3,0.3,-67.72828589,0.58771016
5ebc3097a9c38504ebd8a347,39,0,2024-02-28T14:43:16.103Z,french_280.wav,0,poule,576,40,5,5,English,m,4,0.4,-32.88602624,1.52289813
5ebc3097a9c38504ebd8a347,39,0,2024-02-28T14:43:16.103Z,french_280.wav,0,poule,576,40,5,5,English,m,5,0.5,-21.74757727,1.41394509
5ebc3097a9c38504ebd8a347,39,0,2024-02-28T14:43:16.103Z,french_280.wav,0,poule,576,40,5,5,English,m,6,0.6,-67.91477632,1.11303104
5ebc3097a9c38504ebd8a347,39,0,2024-02-28T14:43:16.103Z,french_280.wav,0,poule,576,40,5,5,English,m,7,0.7,-71.89099465,1.98467364
5ebc3097a9c38504ebd8a347,39,0,2024-02-28T14:43:16.103Z,french_280.wav,0,poule,576,40,5,5,English,m,8,0.8,-96.77863544,0.54349304
5ebc3097a9c38504ebd8a347,39,0,2024-02-28T14:43:16.103Z,french_280.wav,0,poule,576,40,5,5,English,m,9,0.9,-70.31079297,0.98875815
5ebc3097a9c38504ebd8a347,39,0,2024-02-28T14:43:16.103Z,french_280.wav,0,poule,576,40,5,5,English,m,10,1.0,-73.46248332,1.32929539
5ebc3097a9c38504ebd8a347,39,0,2024-02-28T14:43:16.103Z,french_280.wav,0,poule,576,40,5,5,English,m,11,1.1,-28.24261777,0.86616119
5ebc3097a9c38504ebd8a347,39,0,2024-02-28T14:43:16.103Z,french_280.wav,0,poule,576,40,5,5,English,m,12,1.14141667,19.33217049,0.54483998
5ebc3097a9c38504ebd8a347,40,0,2024-02-28T14:43:16.103Z,french_522.wav,0,poule,1091,40,5,5,English,m,0,0.0,42.17654984,0.43845661
5ebc3097a9c38504ebd8a347,40,0,2024-02-28T14:43:16.103Z,french_522.wav,0,poule,1091,40,5,5,English,m,1,0.1,35.32154358,1.47394763
5ebc3097a9c38504ebd8a347,40,0,2024-02-28T14:43:16.103Z,french_522.wav,0,poule,1091,40,5,5,English,m,2,0.2,41.16735521,1.4513676
5ebc3097a9c38504ebd8a347,40,0,2024-02-28T14:43:16.103Z,french_522.wav,0,poule,1091,40,5,5,English,m,3,0.3,19.52368749,0.36689019
5ebc3097a9c38504ebd8a347,40,0,2024-02-28T14:43:16.103Z,french_522.wav,0,poule,1091,40,5,5,English,m,4,0.4,-54.39246122,0.57240118
5ebc3097a9c38504ebd8a347,40,0,2024-02-28T14:43:16.103Z,french_522.wav,0,poule,1091,40,5,5,English,m,5,0.5,94.98899794,0.88025618
5ebc3097a9c38504ebd8a347,40,0,2024-02-28T14:43:16.103Z,french_522.wav,0,poule,1091,40,5,5,English,m,6,0.6,-27.72769651,0.50479501
5ebc3097a9c38504ebd8a347,40,0,2024-02-28T14:43:16.103Z,french_522.wav,0,poule,1091,40,5,5,English,m,7,0.7,-89.66079505,0.37869223
5ebc3097a9c38504ebd8a347,40,0,2024-02-28T14:43:16.103Z,french_522.wav,0,poule,1091,40,5,5,English,m,8,0.8,-43.87277896,1.44108388
5ebc3097a9c38504ebd8a347,40,0,2024-02-28T14:43:16.103Z,french_522.wav,0,poule,1091,40,5,5,English,m,9,0.9,80.86671181,0.14120379
5ebc3097a9c38504ebd8a347,40,0,2024-02-28T14:43:16.103Z,french_522.wav,0,poule,1091,40,5,5,English,m,10,1.0,-94.11337917,1.05720845
5ebc3097a9c38504ebd8a347,40,0,2024-02-28T14:43:16.103Z,french_522.wav,0,poule,1091,40,5,5,English,m,11,1.1,18.06516358,1.99017269
5ebc3097a9c38504ebd8a347,40,0,2024-02-28T14:43:16.103Z,french_522.wav,0,poule,1091,40,5,5,English,m,12,1.14141667,-14.64977402,0.84262259
5ebc3097a9c38504ebd8a347,41,0,2024-02-28T14:43:16.103Z,french_429.wav,0,poule,635,40,5,5,English,m,0,0.0,-75.74586018,1.28446117
5ebc3097a9c38504ebd8a347,41,0,2024-02-28T14:43:16.103Z,french_429.wav,0,poule,635,40,5,5,English,m,1,0.1,34.66734772,1.91886237
5ebc3097a9c38504ebd8a347,41,0,2024-02-28T14:43:16.103Z,french_429.wav,0,poule,635,40,5,5,English,m,2,0.2,97.60199652,0.78737694
5ebc3097a9c38504ebd8a347,41,0,2024-02-28T14:43:16.103Z,french_429.wav,0,poule,635,40,5,5,English,m,3,0.3,-1.67223154,0.63419954
5ebc3097a9c38504ebd8a347,41,0,2024-02-28T14:43:16.103Z,french_429.wav,0,poule,635,40,5,5,English,m,4,0.4,-69.67975193,0.86614415
5ebc3097a9c38504ebd8a347,41,0,2024-02-28T14:43:16.103Z,french_429.wav,0,poule,635,40,5,5,English,m,5,0.5,1.53849988,0.67079309
5ebc3097a9c38504ebd8a347,41,0,2024-02-28T14:43:16.103Z,french_429.wav,0,poule,635,40,5,5,English,m,6,0.6,61.62356176,0.78677565
5ebc3097a9c38504ebd8a347,41,0,2024-02-28T14:43:16.103Z,french_429.wav,0,poule,635,40,5,5,English,m,7,0.7,34.03398927,0.38539195
5ebc3097a9c38504ebd8a347,41,0,2024-02-28T14:43:16.103Z,french_429.wav,0,poule,635,40,5,5,English,m,8,0.8,-30.09572591,0.21197006
5ebc3097a9c38504ebd8a347,41,0,2024-02-28T14:43:16.103Z,french_429.wav,0,poule,635,40,5,5,English,m,9,0.9,-80.19873121,0.76692658
5ebc3097a9c38504ebd8a347,41,0,2024-02-28T14:43:16.103Z,french_429.wav,0,poule,635,40,5,5,English,m,10,1.0,6.60020559,1.37154021
5ebc3097a9c38504ebd8a347,41,0,2024-02-28T14:43:16.103Z,french_429.wav,0,poule,635,40,5,5,English,m,11,1.1,-22.42838039,1.06053947
5ebc3097a9c38504ebd8a347,41,0,2024-02-28T14:43:16.103Z,french_429.wav,0,poule,635,40,5,5,English,m,12,1.14141667,-84.64983628,1.20326298
5ebc3097a9c38504ebd8a347,42,0,2024-02-28T14:43:16.103Z,french_890.wav,0,poule,551,40,5,5,English,m,0,0.0,37.66035755,1.19799643
5ebc3097a9c38504ebd8a347,42,0,2024-02-28T14:43:16.103Z,french_890.wav,0,poule,551,40,5,5,English,m,1,0.1,-62.4198419,1.95985133
5ebc3097a9c38504ebd8a347,42,0,2024-02-28T14:43:16.103Z,french_890.wav,0,poule,551,40,5,5,English,m,2,0.2,22.14011597,6.34751795e-05
5ebc3097a9c38504ebd8a347,42,0,2024-02-28T14:43:16.103Z,french_890.wav,0,poule,551,40,5,5,English,m,3,0.3,-19.28433509,0.467547013
5ebc3097a9c38504ebd8a347,42,0,2024-02-28T14:43:16.103Z,french_890.wav,0,poule,551,40,5,5,English,m,4,0.4,58.02680792,0.379118242
5ebc3097a9c38504ebd8a347,42,0,2024-02-28T14:43:16.103Z,french_890.wav,0,poule,551,40,5,5,English,m,5,0.5,26.36088305,0.398106844
5ebc3097a9c38504ebd8a347,42,0,2024-02-28T14:43:16.103Z,french_890.wav,0,poule,551,40,5,5,English,m,6,0.6,-2.96553475,1.90521091
5ebc3097a9c38504ebd8a347,42,0,2024-02-28T14:43:16.103Z,french_890.wav,0,poule,551,40,5,5,English,m,7,0.7,18.82025548,0.228927516
5ebc3097a9c38504ebd8a347,42,0,2024-02-28T14:43:16.103Z,french_890.wav,0,poule,551,40,5,5,English,m,8,0.8,-71.77019801,0.850400434
5ebc3097a9c38504ebd8a347,42,0,2024-02-28T14:43:16.103Z,french_890.wav,0,poule,551,40,5,5,English,m,9,0.9,-33.53163,0.845624976
5ebc3097a9c38504ebd8a347,42,0,2024-02-28T14:43:16.103Z,french_890.wav,0,poule,551,40,5,5,English,m,10,1.0,-66.53266587,1.47438703
5ebc3097a9c38504ebd8a347,42,0,2024-02-28T14:43:16.103Z,french_890.wav,0,poule,551,40,5,5,English,m,11,1.1,-68.49556875,1.89174641
5ebc3097a9c38504ebd8a347,42,0,2024-02-28T14:43:16.103Z,french_890.wav,0,poule,551,40,5,5,English,m,12,1.14141667,37.72443789,1.26260731
5ebc3097a9c38504ebd8a347,43,0,2024-02-28T14:43:16.103Z,french_473.wav,0,pull,754,40,5,5,English,m,0,0.0,50.01523935,1.1541721
5ebc3097a9c38504ebd8a347,43,0,2024-02-28T14:43:16.103Z,french_473.wav,0,pull,754,40,5,5,English,m,1,0.1,-64.67579772,0.28032856
5ebc3097a9c38504ebd8a347,43,0,2024-02-28T14:43:16.103Z,french_473.wav,0,pull,754,40,5,5,English,m,2,0.2,-31.43801134,1.90137308
5ebc3097a9c38504ebd8a347,43,0,2024-02-28T14:43:16.103Z,french_473.wav,0,pull,754,40,5,5,English,m,3,0.3,-70.56869523,1.26174236
5ebc3097a9c38504ebd8a347,43,0,2024-02-28T14:43:16.103Z,french_473.wav,0,pull,754,40,5,5,English,m,4,0.4,-87.96841964,0.63644888
5ebc3097a9c38504ebd8a347,43,0,2024-02-28T14:43:16.103Z,french_473.wav,0,pull,754,40,5,5,English,m,5,0.5,-12.32804872,0.61660593
5ebc3097a9c38504ebd8a347,43,0,2024-02-28T14:43:16.103Z,french_473.wav,0,pull,754,40,5,5,English,m,6,0.6,-23.90580861,0.89624074
5ebc3097a9c38504ebd8a347,43,0,2024-02-28T14:43:16.103Z,french_473.wav,0,pull,754,40,5,5,English,m,7,0.7,-54.03461687,1.9990991
5ebc3097a9c38504ebd8a347,43,0,2024-02-28T14:43:16.103Z,french_473.wav,0,pull,754,40,5,5,English,m,8,0.8,36.58781124,1.26440243
5ebc3097a9c38504ebd8a347,43,0,2024-02-28T14:43:16.103Z,french_473.wav,0,pull,754,40,5,5,English,m,9,0.9,28.20274702,1.71390082
5ebc3097a9c38504ebd8a347,43,0,2024-02-28T14:43:16.103Z,french_473.wav,0,pull,754,40,5,5,English,m,10,1.0,41.29082623,0.56419686
5ebc3097a9c38504ebd8a347,43,0,2024-02-28T14:43:16.103Z,french_473.wav,0,pull,754,40,5,5,English,m,11,1.1,49.67522961,1.08390151
5ebc3097a9c38504ebd8a347,43,0,2024-02-28T14:43:16.103Z,french_473.wav,0,pull,754,40,5,5,English,m,12,1.14141667,-27.29354581,0.77008497
5ebc3097a9c38504ebd8a347,44,0,2024-02-28T14:43:16.103Z,french_798.wav,0,pull,594,40,5,5,English,m,0,0.0,23.18820736,0.75158349
5ebc3097a9c38504ebd8a347,44,0,2024-02-28T14:43:16.103Z,french_798.wav,0,pull,594,40,5,5,English,m,1,0.1,-2.07958128,0.71454604
5ebc3097a9c38504ebd8a347,44,0,2024-02-28T14:43:16.103Z,french_798.wav,0,pull,594,40,5,5,English,m,2,0.2,-48.02591884,1.54456255
5ebc3097a9c38504ebd8a347,44,0,2024-02-28T14:43:16.103Z,french_798.wav,0,pull,594,40,5,5,English,m,3,0.3,38.59927327,1.20944344
5ebc3097a9c38504ebd8a347,44,0,2024-02-28T14:43:16.103Z,french_798.wav,0,pull,594,40,5,5,English,m,4,0.4,-86.07746365,0.78904319
5ebc3097a9c38504ebd8a347,44,0,2024-02-28T14:43:16.103Z,french_798.wav,0,pull,594,40,5,5,English,m,5,0.5,-70.90704765,0.83495851
5ebc3097a9c38504ebd8a347,44,0,2024-02-28T14:43:16.103Z,french_798.wav,0,pull,594,40,5,5,English,m,6,0.6,9.89404779,1.17214468
5ebc3097a9c38504ebd8a347,44,0,2024-02-28T14:43:16.103Z,french_798.wav,0,pull,594,40,5,5,English,m,7,0.7,-7.32021634,0.33508719
5ebc3097a9c38504ebd8a347,44,0,2024-02-28T14:43:16.103Z,french_798.wav,0,pull,594,40,5,5,English,m,8,0.8,-83.58554005,1.87108409
5ebc3097a9c38504ebd8a347,44,0,2024-02-28T14:43:16.103Z,french_798.wav,0,pull,594,40,5,5,English,m,9,0.9,47.48195997,0.79690586
5ebc3097a9c38504ebd8a347,44,0,2024-02-28T14:43:16.103Z,french_798.wav,0,pull,594,40,5,5,English,m,10,1.0,-68.72637468,0.98942151
5ebc3097a9c38504ebd8a347,44,0,2024-02-28T14:43:16.103Z,french_798.wav,0,pull,594,40,5,5,English,m,11,1.1,-14.54172487,1.50469392
5ebc3097a9c38504ebd8a347,44,0,2024-02-28T14:43:16.103Z,french_798.wav,0,pull,594,40,5,5,English,m,12,1.14141667,-5.31366148,0.42081668
5ebc3097a9c38504ebd8a347,45,0,2024-02-28T14:43:16.103Z,french_357.wav,0,poule,407,40,5,5,English,m,0,0.0,86.82276174,1.92268893
5ebc3097a9c38504ebd8a347,45,0,2024-02-28T14:43:16.103Z,french_357.wav,0,poule,407,40,5,5,English,m,1,0.1,61.01952575,0.3802524
5ebc3097a9c38504ebd8a347,45,0,2024-02-28T14:43:16.103Z,french_357.wav,0,poule,407,40,5,5,English,m,2,0.2,-60.75226359,0.64366911
5ebc3097a9c38504ebd8a347,45,0,2024-02-28T14:43:16.103Z,french_357.wav,0,poule,407,40,5,5,English,m,3,0.3,85.98471719,0.42839795
5ebc3097a9c38504ebd8a347,45,0,2024-02-28T14:43:16.103Z,french_357.wav,0,poule,407,40,5,5,English,m,4,0.4,-69.86147068,0.00748054
5ebc3097a9c38504ebd8a347,45,0,2024-02-28T14:43:16.103Z,french_357.wav,0,poule,407,40,5,5,English,m,5,0.5,9.94695166,1.08678504
5ebc3097a9c38504ebd8a347,45,0,2024-02-28T14:43:16.103Z,french_357.wav,0,poule,407,40,5,5,English,m,6,0.6,18.79769535,1.81857945
5ebc3097a9c38504ebd8a347,45,0,2024-02-28T14:43:16.103Z,french_357.wav,0,poule,407,40,5,5,English,m,7,0.7,32.56379866,0.88876944
5ebc3097a9c38504ebd8a347,45,0,2024-02-28T14:43:16.103Z,french_357.wav,0,poule,407,40,5,5,English,m,8,0.8,-63.36176939,0.00755284
5ebc3097a9c38504ebd8a347,45,0,2024-02-28T14:43:16.103Z,french_357.wav,0,poule,407,40,5,5,English,m,9,0.9,-52.11840686,1.32717317
5ebc3097a9c38504ebd8a347,45,0,2024-02-28T14:43:16.103Z,french_357.wav,0,poule,407,40,5,5,English,m,10,1.0,-62.81838888,1.11144187
5ebc3097a9c38504ebd8a347,45,0,2024-02-28T14:43:16.103Z,french_357.wav,0,poule,407,40,5,5,English,m,11,1.1,-46.10611579,1.48923739
5ebc3097a9c38504ebd8a347,45,0,2024-02-28T14:43:16.103Z,french_357.wav,0,poule,407,40,5,5,English,m,12,1.14141667,30.76289331,0.80153076
5ebc3097a9c38504ebd8a347,46,0,2024-02-28T14:43:16.103Z,french_722.wav,0,poule,1152,40,5,5,English,m,0,0.0,33.60432941,1.8577899
5ebc3097a9c38504ebd8a347,46,0,2024-02-28T14:43:16.103Z,french_722.wav,0,poule,1152,40,5,5,English,m,1,0.1,-11.93537629,0.16730472
5ebc3097a9c38504ebd8a347,46,0,2024-02-28T14:43:16.103Z,french_722.wav,0,poule,1152,40,5,5,English,m,2,0.2,-88.14292606,1.51968538
5ebc3097a9c38504ebd8a347,46,0,2024-02-28T14:43:16.103Z,french_722.wav,0,poule,1152,40,5,5,English,m,3,0.3,63.03464746,1.10766377
5ebc3097a9c38504ebd8a347,46,0,2024-02-28T14:43:16.103Z,french_722.wav,0,poule,1152,40,5,5,English,m,4,0.4,22.71231254,0.03649714
5ebc3097a9c38504ebd8a347,46,0,2024-02-28T14:43:16.103Z,french_722.wav,0,poule,1152,40,5,5,English,m,5,0.5,16.47127626,0.86655357
5ebc3097a9c38504ebd8a347,46,0,2024-02-28T14:43:16.103Z,french_722.wav,0,poule,1152,40,5,5,English,m,6,0.6,-84.57391125,1.9734912
5ebc3097a9c38504ebd8a347,46,0,2024-02-28T14:43:16.103Z,french_722.wav,0,poule,1152,40,5,5,English,m,7,0.7,-10.08636896,1.42286059
5ebc3097a9c38504ebd8a347,46,0,2024-02-28T14:43:16.103Z,french_722.wav,0,poule,1152,40,5,5,English,m,8,0.8,29.84658458,0.4534392
5ebc3097a9c38504ebd8a347,46,0,2024-02-28T14:43:16.103Z,french_722.wav,0,poule,1152,40,5,5,English,m,9,0.9,-34.50712381,0.31083088
5ebc3097a9c38504ebd8a347,46,0,2024-02-28T14:43:16.103Z,french_722.wav,0,poule,1152,40,5,5,English,m,10,1.0,48.55411412,0.20534641
5ebc3097a9c38504ebd8a347,46,0,2024-02-28T14:43:16.103Z,french_722.wav,0,poule,1152,40,5,5,English,m,11,1.1,22.41705079,1.4074105
5ebc3097a9c38504ebd8a347,46,0,2024-02-28T14:43:16.103Z,french_722.wav,0,poule,1152,40,5,5,English,m,12,1.14141667,-36.09101224,0.81493516
5ebc3097a9c38504ebd8a347,47,0,2024-02-28T14:43:16.103Z,french_804.wav,0,poule,787,40,5,5,English,m,0,0.0,-81.48040782,1.72278374
5ebc3097a9c38504ebd8a347,47,0,2024-02-28T14:43:16.103Z,french_804.wav,0,poule,787,40,5,5,English,m,1,0.1,-17.45889889,1.09467419
5ebc3097a9c38504ebd8a347,47,0,2024-02-28T14:43:16.103Z,french_804.wav,0,poule,787,40,5,5,English,m,2,0.2,30.94703124,1.89284567
5ebc3097a9c38504ebd8a347,47,0,2024-02-28T14:43:16.103Z,french_804.wav,0,poule,787,40,5,5,English,m,3,0.3,-59.31638088,0.06467182
5ebc3097a9c38504ebd8a347,47,0,2024-02-28T14:43:16.103Z,french_804.wav,0,poule,787,40,5,5,English,m,4,0.4,32.31952964,1.7986491
5ebc3097a9c38504ebd8a347,47,0,2024-02-28T14:43:16.103Z,french_804.wav,0,poule,787,40,5,5,English,m,5,0.5,-76.80935002,0.95859736
5ebc3097a9c38504ebd8a347,47,0,2024-02-28T14:43:16.103Z,french_804.wav,0,poule,787,40,5,5,English,m,6,0.6,-98.7037282,1.28356637
5ebc3097a9c38504ebd8a347,47,0,2024-02-28T14:43:16.103Z,french_804.wav,0,poule,787,40,5,5,English,m,7,0.7,-37.18293781,0.02342821
5ebc3097a9c38504ebd8a347,47,0,2024-02-28T14:43:16.103Z,french_804.wav,0,poule,787,40,5,5,English,m,8,0.8,-12.0929561,0.57090294
5ebc3097a9c38504ebd8a347,47,0,2024-02-28T14:43:16.103Z,french_804.wav,0,poule,787,40,5,5,English,m,9,0.9,70.86110412,0.54405877
5ebc3097a9c38504ebd8a347,47,0,2024-02-28T14:43:16.103Z,french_804.wav,0,poule,787,40,5,5,English,m,10,1.0,-41.4148751,0.67180302
5ebc3097a9c38504ebd8a347,47,0,2024-02-28T14:43:16.103Z,french_804.wav,0,poule,787,40,5,5,English,m,11,1.1,34.56454139,1.24764987
5ebc3097a9c38504ebd8a347,47,0,2024-02-28T14:43:16.103Z,french_804.wav,0,poule,787,40,5,5,English,m,12,1.14141667,-8.86405782,0.56589089
5ebc3097a9c38504ebd8a347,48,0,2024-02-28T14:43:16.103Z,french_911.wav,0,poule,639,40,5,5,English,m,0,0.0,4.5077802,0.45317339
5ebc3097a9c38504ebd8a347,48,0,2024-02-28T14:43:16.103Z,french_911.wav,0,poule,639,40,5,5,English,m,1,0.1,-96.78615261,0.25538375
5ebc3097a9c38504ebd8a347,48,0,2024-02-28T14:43:16.103Z,french_911.wav,0,poule,639,40,5,5,English,m,2,0.2,-37.59081272,1.68180074
5ebc3097a9c38504ebd8a347,48,0,2024-02-28T14:43:16.103Z,french_911.wav,0,poule,639,40,5,5,English,m,3,0.3,-22.54318893,1.97141889
5ebc3097a9c38504ebd8a347,48,0,2024-02-28T14:43:16.103Z,french_911.wav,0,poule,639,40,5,5,English,m,4,0.4,41.73115672,1.92243093
5ebc3097a9c38504ebd8a347,48,0,2024-02-28T14:43:16.103Z,french_911.wav,0,poule,639,40,5,5,English,m,5,0.5,14.97022372,1.75864732
5ebc3097a9c38504ebd8a347,48,0,2024-02-28T14:43:16.103Z,french_911.wav,0,poule,639,40,5,5,English,m,6,0.6,85.88650346,0.81891757
5ebc3097a9c38504ebd8a347,48,0,2024-02-28T14:43:16.103Z,french_911.wav,0,poule,639,40,5,5,English,m,7,0.7,68.3289829,1.88316065
5ebc3097a9c38504ebd8a347,48,0,2024-02-28T14:43:16.103Z,french_911.wav,0,poule,639,40,5,5,English,m,8,0.8,7.55069148,1.13854529
5ebc3097a9c38504ebd8a347,48,0,2024-02-28T14:43:16.103Z,french_911.wav,0,poule,639,40,5,5,English,m,9,0.9,-43.2506384,0.43261131
5ebc3097a9c38504ebd8a347,48,0,2024-02-28T14:43:16.103Z,french_911.wav,0,poule,639,40,5,5,English,m,10,1.0,-13.95845811,1.6405843
5ebc3097a9c38504ebd8a347,48,0,2024-02-28T14:43:16.103Z,french_911.wav,0,poule,639,40,5,5,English,m,11,1.1,-72.76673472,1.08647293
5ebc3097a9c38504ebd8a347,48,0,2024-02-28T14:43:16.103Z,french_911.wav,0,poule,639,40,5,5,English,m,12,1.14141667,-31.61498631,1.30606036
5ebc3097a9c38504ebd8a347,49,0,2024-02-28T14:43:16.103Z,french_816.wav,0,poule,923,40,5,5,English,m,0,0.0,-97.18949374,1.62055142
5ebc3097a9c38504ebd8a347,49,0,2024-02-28T14:43:16.103Z,french_816.wav,0,poule,923,40,5,5,English,m,1,0.1,-61.44808102,0.77873913
5ebc3097a9c38504ebd8a347,49,0,2024-02-28T14:43:16.103Z,french_816.wav,0,poule,923,40,5,5,English,m,2,0.2,61.9994188,1.7419515
5ebc3097a9c38504ebd8a347,49,0,2024-02-28T14:43:16.103Z,french_816.wav,0,poule,923,40,5,5,English,m,3,0.3,84.22947867,1.18335518
5ebc3097a9c38504ebd8a347,49,0,2024-02-28T14:43:16.103Z,french_816.wav,0,poule,923,40,5,5,English,m,4,0.4,71.42718941,0.26789649
5ebc3097a9c38504ebd8a347,49,0,2024-02-28T14:43:16.103Z,french_816.wav,0,poule,923,40,5,5,English,m,5,0.5,24.61980692,1.09790132
5ebc3097a9c38504ebd8a347,49,0,2024-02-28T14:43:16.103Z,french_816.wav,0,poule,923,40,5,5,English,m,6,0.6,67.61429309,0.65540703
5ebc3097a9c38504ebd8a347,49,0,2024-02-28T14:43:16.103Z,french_816.wav,0,poule,923,40,5,5,English,m,7,0.7,2.89011689,0.23417739
5ebc3097a9c38504ebd8a347,49,0,2024-02-28T14:43:16.103Z,french_816.wav,0,poule,923,40,5,5,English,m,8,0.8,-17.87721334,1.34217218
5ebc3097a9c38504ebd8a347,49,0,2024-02-28T14:43:16.103Z,french_816.wav,0,poule,923,40,5,5,English,m,9,0.9,68.87537651,0.58504263
5ebc3097a9c38504ebd8a347,49,0,2024-02-28T14:43:16.103Z,french_816.wav,0,poule,923,40,5,5,English,m,10,1.0,26.6727595,0.89860731
5ebc3097a9c38504ebd8a347,49,0,2024-02-28T14:43:16.103Z,french_816.wav,0,poule,923,40,5,5,English,m,11,1.1,7.78053478,1.05692274
5ebc3097a9c38504ebd8a347,49,0,2024-02-28T14:43:16.103Z,french_816.wav,0,poule,923,40,5,5,English,m,12,1.14141667,95.77522744,0.59957378
5ebc3097a9c38504ebd8a347,50,1,2024-02-28T15:12:46.545Z,french_360.wav,0,poule,198,40,5,5,English,m,0,0.0,80.67919688,0.20606147
5ebc3097a9c38504ebd8a347,50,1,2024-02-28T15:12:46.545Z,french_360.wav,0,poule,198,40,5,5,English,m,1,0.1,-27.94865849,1.11725372
5ebc3097a9c38504ebd8a347,50,1,2024-02-28T15:12:46.545Z,french_360.wav,0,poule,198,40,5,5,English,m,2,0.2,22.32787623,0.05039174
5ebc3097a9c38504ebd8a347,50,1,2024-02-28T15:12:46.545Z,french_360.wav,0,poule,198,40,5,5,English,m,3,0.3,45.22188439,1.66716796
5ebc3097a9c38504ebd8a347,50,1,2024-02-28T15:12:46.545Z,french_360.wav,0,poule,198,40,5,5,English,m,4,0.4,-7.80157648,0.33872424
5ebc3097a9c38504ebd8a347,50,1,2024-02-28T15:12:46.545Z,french_360.wav,0,poule,198,40,5,5,English,m,5,0.5,86.06729103,1.77425049
5ebc3097a9c38504ebd8a347,50,1,2024-02-28T15:12:46.545Z,french_360.wav,0,poule,198,40,5,5,English,m,6,0.6,-43.84449169,0.57660507
5ebc3097a9c38504ebd8a347,50,1,2024-02-28T15:12:46.545Z,french_360.wav,0,poule,198,40,5,5,English,m,7,0.7,41.33735645,1.5995083
5ebc3097a9c38504ebd8a347,50,1,2024-02-28T15:12:46.545Z,french_360.wav,0,poule,198,40,5,5,English,m,8,0.8,-33.22134049,0.05507617
5ebc3097a9c38504ebd8a347,50,1,2024-02-28T15:12:46.545Z,french_360.wav,0,poule,198,40,5,5,English,m,9,0.9,24.39834814,1.78566
5ebc3097a9c38504ebd8a347,50,1,2024-02-28T15:12:46.545Z,french_360.wav,0,poule,198,40,5,5,English,m,10,1.0,-32.3038852,0.95403795
5ebc3097a9c38504ebd8a347,50,1,2024-02-28T15:12:46.545Z,french_360.wav,0,poule,198,40,5,5,English,m,11,1.1,18.07242607,1.61112926
5ebc3097a9c38504ebd8a347,50,1,2024-02-28T15:12:46.545Z,french_360.wav,0,poule,198,40,5,5,English,m,12,1.14141667,-15.85341792,1.37482411
5ebc3097a9c38504ebd8a347,51,1,2024-02-28T15:12:46.545Z,french_921.wav,0,poule,972,40,5,5,English,m,0,0.0,-22.48407438,0.56788331
5ebc3097a9c38504ebd8a347,51,1,2024-02-28T15:12:46.545Z,french_921.wav,0,poule,972,40,5,5,English,m,1,0.1,96.20023213,0.48037084
5ebc3097a9c38504ebd8a347,51,1,2024-02-28T15:12:46.545Z,french_921.wav,0,poule,972,40,5,5,English,m,2,0.2,-26.96111018,1.28513603
5ebc3097a9c38504ebd8a347,51,1,2024-02-28T15:12:46.545Z,french_921.wav,0,poule,972,40,5,5,English,m,3,0.3,-4.61285821,0.47395862
5ebc3097a9c38504ebd8a347,51,1,2024-02-28T15:12:46.545Z,french_921.wav,0,poule,972,40,5,5,English,m,4,0.4,-41.60418228,1.80498459
5ebc3097a9c38504ebd8a347,51,1,2024-02-28T15:12:46.545Z,french_921.wav,0,poule,972,40,5,5,English,m,5,0.5,16.2616983,1.788566
5ebc3097a9c38504ebd8a347,51,1,2024-02-28T15:12:46.545Z,french_921.wav,0,poule,972,40,5,5,English,m,6,0.6,40.35336686,0.45002982
5ebc3097a9c38504ebd8a347,51,1,2024-02-28T15:12:46.545Z,french_921.wav,0,poule,972,40,5,5,English,m,7,0.7,-44.63732317,0.17970155
5ebc3097a9c38504ebd8a347,51,1,2024-02-28T15:12:46.545Z,french_921.wav,0,poule,972,40,5,5,English,m,8,0.8,58.4442517,0.55049439
5ebc3097a9c38504ebd8a347,51,1,2024-02-28T15:12:46.545Z,french_921.wav,0,poule,972,40,5,5,English,m,9,0.9,9.84257376,0.16897134
5ebc3097a9c38504ebd8a347,51,1,2024-02-28T15:12:46.545Z,french_921.wav,0,poule,972,40,5,5,English,m,10,1.0,41.47094552,0.81111626
5ebc3097a9c38504ebd8a347,51,1,2024-02-28T15:12:46.545Z,french_921.wav,0,poule,972,40,5,5,English,m,11,1.1,-30.9925565,1.40036405
5ebc3097a9c38504ebd8a347,51,1,2024-02-28T15:12:46.545Z,french_921.wav,0,poule,972,40,5,5,English,m,12,1.14141667,23.41632399,1.37522971
5ebc3097a9c38504ebd8a347,52,1,2024-02-28T15:12:46.545Z,french_676.wav,0,pull,608,40,5,5,English,m,0,0.0,26.20492845,0.17270054
5ebc3097a9c38504ebd8a347,52,1,2024-02-28T15:12:46.545Z,french_676.wav,0,pull,608,40,5,5,English,m,1,0.1,-74.75819941,0.02705382
5ebc3097a9c38504ebd8a347,52,1,2024-02-28T15:12:46.545Z,french_676.wav,0,pull,608,40,5,5,English,m,2,0.2,66.48922001,0.46675355
5ebc3097a9c38504ebd8a347,52,1,2024-02-28T15:12:46.545Z,french_676.wav,0,pull,608,40,5,5,English,m,3,0.3,-68.12291136,1.08918404
5ebc3097a9c38504ebd8a347,52,1,2024-02-28T15:12:46.545Z,french_676.wav,0,pull,608,40,5,5,English,m,4,0.4,-31.90751588,1.08889729
5ebc3097a9c38504ebd8a347,52,1,2024-02-28T15:12:46.545Z,french_676.wav,0,pull,608,40,5,5,English,m,5,0.5,-87.61502744,1.58812935
5ebc3097a9c38504ebd8a347,52,1,2024-02-28T15:12:46.545Z,french_676.wav,0,pull,608,40,5,5,English,m,6,0.6,-96.2186605,0.22234036
5ebc3097a9c38504ebd8a347,52,1,2024-02-28T15:12:46.545Z,french_676.wav,0,pull,608,40,5,5,English,m,7,0.7,-41.587769,1.27368172
5ebc3097a9c38504ebd8a347,52,1,2024-02-28T15:12:46.545Z,french_676.wav,0,pull,608,40,5,5,English,m,8,0.8,-71.33167423,1.65649553
5ebc3097a9c38504ebd8a347,52,1,2024-02-28T15:12:46.545Z,french_676.wav,0,pull,608,40,5,5,English,m,9,0.9,68.40757258,1.77400253
5ebc3097a9c38504ebd8a347,52,1,2024-02-28T15:12:46.545Z,french_676.wav,0,pull,608,40,5,5,English,m,10,1.0,12.45719947,1.14991904
5ebc3097a9c38504ebd8a347,52,1,2024-02-28T15:12:46.545Z,french_676.wav,0,pull,608,40,5,5,English,m,11,1.1,16.4878676,0.18106984
5ebc3097a9c38504ebd8a347,52,1,2024-02-28T15:12:46.545Z,french_676.wav,0,pull,608,40,5,5,English,m,12,1.14141667,83.61600187,1.01468769
5ebc3097a9c38504ebd8a347,53,1,2024-02-28T15:12:46.545Z,french_932.wav,0,poule,511,40,5,5,English,m,0,0.0,46.27127117,0.83524847
5ebc3097a9c38504ebd8a347,53,1,2024-02-28T15:12:46.545Z,french_932.wav,0,poule,511,40,5,5,English,m,1,0.1,-28.27220059,1.51093282
5ebc3097a9c38504ebd8a347,53,1,2024-02-28T15:12:46.545Z,french_932.wav,0,poule,511,40,5,5,English,m,2,0.2,58.81116014,1.50241499
5ebc3097a9c38504ebd8a347,53,1,2024-02-28T15:12:46.545Z,french_932.wav,0,poule,511,40,5,5,English,m,3,0.3,-98.47040062,0.01285442
5ebc3097a9c38504ebd8a347,53,1,2024-02-28T15:12:46.545Z,french_932.wav,0,poule,511,40,5,5,English,m,4,0.4,48.68770035,0.09363039
5ebc3097a9c38504ebd8a347,53,1,2024-02-28T15:12:46.545Z,french_932.wav,0,poule,511,40,5,5,English,m,5,0.5,-52.75587797,0.0742682
5ebc3097a9c38504ebd8a347,53,1,2024-02-28T15:12:46.545Z,french_932.wav,0,poule,511,40,5,5,English,m,6,0.6,9.83755623,1.06994701
5ebc3097a9c38504ebd8a347,53,1,2024-02-28T15:12:46.545Z,french_932.wav,0,poule,511,40,5,5,English,m,7,0.7,-29.16056753,1.52939014
5ebc3097a9c38504ebd8a347,53,1,2024-02-28T15:12:46.545Z,french_932.wav,0,poule,511,40,5,5,English,m,8,0.8,-35.7376758,1.75066919
5ebc3097a9c38504ebd8a347,53,1,2024-02-28T15:12:46.545Z,french_932.wav,0,poule,511,40,5,5,English,m,9,0.9,-40.68223615,1.59580778
5ebc3097a9c38504ebd8a347,53,1,2024-02-28T15:12:46.545Z,french_932.wav,0,poule,511,40,5,5,English,m,10,1.0,31.55721207,1.77099764
5ebc3097a9c38504ebd8a347,53,1,2024-02-28T15:12:46.545Z,french_932.wav,0,poule,511,40,5,5,English,m,11,1.1,54.48064868,0.46612481
5ebc3097a9c38504ebd8a347,53,1,2024-02-28T15:12:46.545Z,french_932.wav,0,poule,511,40,5,5,English,m,12,1.14141667,-74.45457589,1.01272754
5ebc3097a9c38504ebd8a347,54,1,2024-02-28T15:12:46.545Z,french_749.wav,0,poule,341,40,5,5,English,m,0,0.0,-23.16549888,1.16458166
5ebc3097a9c38504ebd8a347,54,1,2024-02-28T15:12:46.545Z,french_749.wav,0,poule,341,40,5,5,English,m,1,0.1,-79.07430358,1.09262862
5ebc3097a9c38504ebd8a347,54,1,2024-02-28T15:12:46.545Z,french_749.wav,0,poule,341,40,5,5,English,m,2,0.2,70.37404484,1.10936208
5ebc3097a9c38504ebd8a347,54,1,2024-02-28T15:12:46.545Z,french_749.wav,0,poule,341,40,5,5,English,m,3,0.3,69.02866227,0.46888555
5ebc3097a9c38504ebd8a347,54,1,2024-02-28T15:12:46.545Z,french_749.wav,0,poule,341,40,5,5,English,m,4,0.4,-89.89652942,0.39050234
5ebc3097a9c38504ebd8a347,54,1,2024-02-28T15:12:46.545Z,french_749.wav,0,poule,341,40,5,5,English,m,5,0.5,48.33649686,1.09882465
5ebc3097a9c38504ebd8a347,54,1,2024-02-28T15:12:46.545Z,french_749.wav,0,poule,341,40,5,5,English,m,6,0.6,21.15473108,0.81397401
5ebc3097a9c38504ebd8a347,54,1,2024-02-28T15:12:46.545Z,french_749.wav,0,poule,341,40,5,5,English,m,7,0.7,23.95995452,1.63947805
5ebc3097a9c38504ebd8a347,54,1,2024-02-28T15:12:46.545Z,french_749.wav,0,poule,341,40,5,5,English,m,8,0.8,-43.2069743,0.46870788
5ebc3097a9c38504ebd8a347,54,1,2024-02-28T15:12:46.545Z,french_749.wav,0,poule,341,40,5,5,English,m,9,0.9,9.14687339,1.667972
5ebc3097a9c38504ebd8a347,54,1,2024-02-28T15:12:46.545Z,french_749.wav,0,poule,341,40,5,5,English,m,10,1.0,63.2454423,1.34818354
5ebc3097a9c38504ebd8a347,54,1,2024-02-28T15:12:46.545Z,french_749.wav,0,poule,341,40,5,5,English,m,11,1.1,37.48539417,0.64117659
5ebc3097a9c38504ebd8a347,54,1,2024-02-28T15:12:46.545Z,french_749.wav,0,poule,341,40,5,5,English,m,12,1.14141667,-43.03918715,0.02908893
5ebc3097a9c38504ebd8a347,55,1,2024-02-28T15:12:46.545Z,french_10.wav,0,poule,343,40,5,5,English,m,0,0.0,28.16844794,1.16253074
5ebc3097a9c38504ebd8a347,55,1,2024-02-28T15:12:46.545Z,french_10.wav,0,poule,343,40,5,5,English,m,1,0.1,46.30100241,0.75705097
5ebc3097a9c38504ebd8a347,55,1,2024-02-28T15:12:46.545Z,french_10.wav,0,poule,343,40,5,5,English,m,2,0.2,-21.12843146,0.7794308
5ebc3097a9c38504ebd8a347,55,1,2024-02-28T15:12:46.545Z,french_10.wav,0,poule,343,40,5,5,English,m,3,0.3,-4.52409741,1.19848321
5ebc3097a9c38504ebd8a347,55,1,2024-02-28T15:12:46.545Z,french_10.wav,0,poule,343,40,5,5,English,m,4,0.4,-24.47310068,1.01301561
5ebc3097a9c38504ebd8a347,55,1,2024-02-28T15:12:46.545Z,french_10.wav,0,poule,343,40,5,5,English,m,5,0.5,86.31547098,1.15552006
5ebc3097a9c38504ebd8a347,55,1,2024-02-28T15:12:46.545Z,french_10.wav,0,poule,343,40,5,5,English,m,6,0.6,4.34036217,0.763322
5ebc3097a9c38504ebd8a347,55,1,2024-02-28T15:12:46.545Z,french_10.wav,0,poule,343,40,5,5,English,m,7,0.7,81.8697429,0.73902021
5ebc3097a9c38504ebd8a347,55,1,2024-02-28T15:12:46.545Z,french_10.wav,0,poule,343,40,5,5,English,m,8,0.8,52.86482299,0.69164327
5ebc3097a9c38504ebd8a347,55,1,2024-02-28T15:12:46.545Z,french_10.wav,0,poule,343,40,5,5,English,m,9,0.9,-44.35586263,1.48695184
5ebc3097a9c38504ebd8a347,55,1,2024-02-28T15:12:46.545Z,french_10.wav,0,poule,343,40,5,5,English,m,10,1.0,65.0577904,0.54071971
5ebc3097a9c38504ebd8a347,55,1,2024-02-28T15:12:46.545Z,french_10.wav,0,poule,343,40,5,5,English,m,11,1.1,67.73719127,0.56546023
5ebc3097a9c38504ebd8a347,55,1,2024-02-28T15:12:46.545Z,french_10.wav,0,poule,343,40,5,5,English,m,12,1.14141667,-32.2641705,0.40431744
5ebc3097a9c38504ebd8a347,56,1,2024-02-28T15:12:46.545Z,french_987.wav,0,poule,664,40,5,5,English,m,0,0.0,93.34375743,0.73630152
5ebc3097a9c38504ebd8a347,56,1,2024-02-28T15:12:46.545Z,french_987.wav,0,poule,664,40,5,5,English,m,1,0.1,2.33597737,0.83046349
5ebc3097a9c38504ebd8a347,56,1,2024-02-28T15:12:46.545Z,french_987.wav,0,poule,664,40,5,5,English,m,2,0.2,-20.41507514,0.92633409
5ebc3097a9c38504ebd8a347,56,1,2024-02-28T15:12:46.545Z,french_987.wav,0,poule,664,40,5,5,English,m,3,0.3,20.11504777,0.57479289
5ebc3097a9c38504ebd8a347,56,1,2024-02-28T15:12:46.545Z,french_987.wav,0,poule,664,40,5,5,English,m,4,0.4,-45.44674631,1.77561818
5ebc3097a9c38504ebd8a347,56,1,2024-02-28T15:12:46.545Z,french_987.wav,0,poule,664,40,5,5,English,m,5,0.5,43.68235221,1.63901309
5ebc3097a9c38504ebd8a347,56,1,2024-02-28T15:12:46.545Z,french_987.wav,0,poule,664,40,5,5,English,m,6,0.6,45.61538995,1.78979007
5ebc3097a9c38504ebd8a347,56,1,2024-02-28T15:12:46.545Z,french_987.wav,0,poule,664,40,5,5,English,m,7,0.7,9.26168888,0.34807002
5ebc3097a9c38504ebd8a347,56,1,2024-02-28T15:12:46.545Z,french_987.wav,0,poule,664,40,5,5,English,m,8,0.8,-81.27003637,0.31053438
5ebc3097a9c38504ebd8a347,56,1,2024-02-28T15:12:46.545Z,french_987.wav,0,poule,664,40,5,5,English,m,9,0.9,83.67066648,0.87882318
5ebc3097a9c38504ebd8a347,56,1,2024-02-28T15:12:46.545Z,french_987.wav,0,poule,664,40,5,5,English,m,10,1.0,-82.52176091,0.97272554
5ebc3097a9c38504ebd8a347,56,1,2024-02-28T15:12:46.545Z,french_987.wav,0,poule,664,40,5,5,English,m,11,1.1,-88.64619633,1.50609738
5ebc3097a9c38504ebd8a347,56,1,2024-02-28T15:12:46.545Z,french_987.wav,0,poule,664,40,5,5,English,m,12,1.14141667,-23.61840795,0.63259854
5ebc3097a9c38504ebd8a347,57,1,2024-02-28T15:12:46.545Z,french_628.wav,0,poule,435,40,5,5,English,m,0,0.0,28.98064776,0.98418997
5ebc3097a9c38504ebd8a347,57,1,2024-02-28T15:12:46.545Z,french_628.wav,0,poule,435,40,5,5,English,m,1,0.1,97.12286429,0.16344307
5ebc3097a9c38504ebd8a347,57,1,2024-02-28T15:12:46.545Z,french_628.wav,0,poule,435,40,5,5,English,m,2,0.2,-80.73889599,1.6205545
5ebc3097a9c38504ebd8a347,57,1,2024-02-28T15:12:46.545Z,french_628.wav,0,poule,435,40,5,5,English,m,3,0.3,-34.13229865,0.04211558
5ebc3097a9c38504ebd8a347,57,1,2024-02-28T15:12:46.545Z,french_628.wav,0,poule,435,40,5,5,English,m,4,0.4,-28.25789245,0.29146504
5ebc3097a9c38504ebd8a347,57,1,2024-02-28T15:12:46.545Z,french_628.wav,0,poule,435,40,5,5,English,m,5,0.5,30.74174251,1.00822946
5ebc3097a9c38504ebd8a347,57,1,2024-02-28T15:12:46.545Z,french_628.wav,0,poule,435,40,5,5,English,m,6,0.6,-70.42701558,0.99852998
5ebc3097a9c38504ebd8a347,57,1,2024-02-28T15:12:46.545Z,french_628.wav,0,poule,435,40,5,5,English,m,7,0.7,-79.42848468,0.12148108
5ebc3097a9c38504ebd8a347,57,1,2024-02-28T15:12:46.545Z,french_628.wav,0,poule,435,40,5,5,English,m,8,0.8,-11.29296583,1.58757857
5ebc3097a9c38504ebd8a347,57,1,2024-02-28T15:12:46.545Z,french_628.wav,0,poule,435,40,5,5,English,m,9,0.9,56.44608255,1.131434
5ebc3097a9c38504ebd8a347,57,1,2024-02-28T15:12:46.545Z,french_628.wav,0,poule,435,40,5,5,English,m,10,1.0,-50.79678899,1.07078584
5ebc3097a9c38504ebd8a347,57,1,2024-02-28T15:12:46.545Z,french_628.wav,0,poule,435,40,5,5,English,m,11,1.1,36.60975174,0.65492456
5ebc3097a9c38504ebd8a347,57,1,2024-02-28T15:12:46.545Z,french_628.wav,0,poule,435,40,5,5,English,m,12,1.14141667,2.28400586,1.36384742
5ebc3097a9c38504ebd8a347,58,1,2024-02-28T15:12:46.545Z,french_427.wav,0,poule,436,40,5,5,English,m,0,0.0,-48.41701503,1.56219766
5ebc3097a9c38504ebd8a347,58,1,2024-02-28T15:12:46.545Z,french_427.wav,0,poule,436,40,5,5,English,m,1,0.1,-28.57986094,0.39739554
5ebc3097a9c38504ebd8a347,58,1,2024-02-28T15:12:46.545Z,french_427.wav,0,poule,436,40,5,5,English,m,2,0.2,0.90581005,1.12963232
5ebc3097a9c38504ebd8a347,58,1,2024-02-28T15:12:46.545Z,french_427.wav,0,poule,436,40,5,5,English,m,3,0.3,19.09912814,0.41932749
5ebc3097a9c38504ebd8a347,58,1,2024-02-28T15:12:46.545Z,french_427.wav,0,poule,436,40,5,5,English,m,4,0.4,82.05766861,1.84938579
5ebc3097a9c38504ebd8a347,58,1,2024-02-28T15:12:46.545Z,french_427.wav,0,poule,436,40,5,5,English,m,5,0.5,24.08835826,0.65577454
5ebc3097a9c38504ebd8a347,58,1,2024-02-28T15:12:46.545Z,french_427.wav,0,poule,436,40,5,5,English,m,6,0.6,-34.07004387,0.57976152
5ebc3097a9c38504ebd8a347,58,1,2024-02-28T15:12:46.545Z,french_427.wav,0,poule,436,40,5,5,English,m,7,0.7,8.41664997,0.37472164
5ebc3097a9c38504ebd8a347,58,1,2024-02-28T15:12:46.545Z,french_427.wav,0,poule,436,40,5,5,English,m,8,0.8,-13.86702556,1.58587157
5ebc3097a9c38504ebd8a347,58,1,2024-02-28T15:12:46.545Z,french_427.wav,0,poule,436,40,5,5,English,m,9,0.9,-78.75947492,1.60768303
5ebc3097a9c38504ebd8a347,58,1,2024-02-28T15:12:46.545Z,french_427.wav,0,poule,436,40,5,5,English,m,10,1.0,-67.25519612,1.23344585
5ebc3097a9c38504ebd8a347,58,1,2024-02-28T15:12:46.545Z,french_427.wav,0,poule,436,40,5,5,English,m,11,1.1,33.54583234,0.58083121
5ebc3097a9c38504ebd8a347,58,1,2024-02-28T15:12:46.545Z,french_427.wav,0,poule,436,40,5,5,English,m,12,1.14141667,98.61757136,0.87170503
5ebc3097a9c38504ebd8a347,59,1,2024-02-28T15:12:46.545Z,french_975.wav,0,poule,460,40,5,5,English,m,0,0.0,-88.53042028,0.13201947
5ebc3097a9c38504ebd8a347,59,1,2024-02-28T15:12:46.545Z,french_975.wav,0,poule,460,40,5,5,English,m,1,0.1,-18.98709815,0.70048062
5ebc3097a9c38504ebd8a347,59,1,2024-02-28T15:12:46.545Z,french_975.wav,0,poule,460,40,5,5,English,m,2,0.2,89.84049157,1.40324141
5ebc3097a9c38504ebd8a347,59,1,2024-02-28T15:12:46.545Z,french_975.wav,0,poule,460,40,5,5,English,m,3,0.3,-15.87088094,1.12025436
5ebc3097a9c38504ebd8a347,59,1,2024-02-28T15:12:46.545Z,french_975.wav,0,poule,460,40,5,5,English,m,4,0.4,0.60706282,0.85353049
5ebc3097a9c38504ebd8a347,59,1,2024-02-28T15:12:46.545Z,french_975.wav,0,poule,460,40,5,5,English,m,5,0.5,91.81069187,0.31979877
5ebc3097a9c38504ebd8a347,59,1,2024-02-28T15:12:46.545Z,french_975.wav,0,poule,460,40,5,5,English,m,6,0.6,16.30435991,1.60578457
5ebc3097a9c38504ebd8a347,59,1,2024-02-28T15:12:46.545Z,french_975.wav,0,poule,460,40,5,5,English,m,7,0.7,65.54957274,1.36555735
5ebc3097a9c38504ebd8a347,59,1,2024-02-28T15:12:46.545Z,french_975.wav,0,poule,460,40,5,5,English,m,8,0.8,-94.63254312,0.45907697
