subj,sex,age,language,english,french,native_lang,date,practice,block,trial,stim,pitch,stretch,response,rt
8731029739,f,22,english,5,3,english,2024-01-25 10:40:30.331193,True,0,0,sounds\french\audio/french_641.wav,"[[  0.         -43.09575809]
 [  0.1        -81.59758754]
 [  0.2        -22.20264254]
 [  0.3        -56.41027235]
 [  0.4        -55.14696793]
 [  0.5         48.08973996]
 [  0.6        -19.5107077 ]
 [  0.7        -89.2518139 ]
 [  0.8         81.37542917]
 [  0.9        -79.21888814]
 [  1.         -51.09677691]
 [  1.1         97.24624771]
 [  1.14141667  24.04850575]]","[[0.         0.3387751 ]
 [0.1        0.93263347]
 [0.2        1.36728443]
 [0.3        0.90941875]
 [0.4        1.38478795]
 [0.5        0.25504986]
 [0.6        1.77925453]
 [0.7        0.95413505]
 [0.8        1.08287655]
 [0.9        1.06879943]
 [1.         1.22707958]
 [1.1        0.21706358]
 [1.14141667 1.25974501]]",0,33.022
8731029739,f,22,english,5,3,english,2024-01-25 10:40:30.331193,True,0,1,sounds\french\audio/french_731.wav,"[[  0.         -58.69377393]
 [  0.1         32.88622417]
 [  0.2          7.24894178]
 [  0.3         94.91420779]
 [  0.4        -71.75206553]
 [  0.5        -65.23871465]
 [  0.6         -4.42462865]
 [  0.7        -75.60919522]
 [  0.8         96.57391487]
 [  0.9         88.67857867]
 [  1.         -45.98442242]
 [  1.1         -0.58254583]
 [  1.14141667  58.15677769]]","[[0.         0.50859349]
 [0.1        1.73752804]
 [0.2        1.36581258]
 [0.3        1.00409723]
 [0.4        0.77805611]
 [0.5        1.77016953]
 [0.6        1.81727941]
 [0.7        0.9776794 ]
 [0.8        1.84916321]
 [0.9        0.71669736]
 [1.         1.96322979]
 [1.1        1.42519618]
 [1.14141667 1.35630124]]",1,2.709
8731029739,f,22,english,5,3,english,2024-01-25 10:40:30.331193,True,0,2,sounds\french\audio/french_790.wav,"[[  0.         -57.89390183]
 [  0.1         79.17034047]
 [  0.2         61.93580685]
 [  0.3         73.83766419]
 [  0.4         12.23224582]
 [  0.5        -36.20570809]
 [  0.6        -35.80418352]
 [  0.7         69.07593122]
 [  0.8         53.97673234]
 [  0.9          5.33736996]
 [  1.         -61.7851313 ]
 [  1.1        -57.04830132]
 [  1.14141667 -40.58679678]]","[[0.         1.82865837]
 [0.1        0.89920795]
 [0.2        1.70315706]
 [0.3        0.63562482]
 [0.4        1.66129943]
 [0.5        1.84264673]
 [0.6        1.991074  ]
 [0.7        1.03555826]
 [0.8        1.17116983]
 [0.9        0.91705366]
 [1.         0.69782623]
 [1.1        0.3273665 ]
 [1.14141667 1.69019386]]",0,6.913
8731029739,f,22,english,5,3,english,2024-01-25 10:40:30.331193,False,1,3,sounds\french\audio/french_317.wav,"[[  0.          40.8685805 ]
 [  0.1        -18.25010816]
 [  0.2         21.38431057]
 [  0.3         95.9205375 ]
 [  0.4         38.32089871]
 [  0.5        -21.23529277]
 [  0.6         77.91728969]
 [  0.7         80.74208796]
 [  0.8          7.4329056 ]
 [  0.9         43.55624299]
 [  1.          -3.0789023 ]
 [  1.1         53.49310135]
 [  1.14141667  20.73152809]]","[[0.         0.12762298]
 [0.1        0.46117381]
 [0.2        0.51489794]
 [0.3        0.84411481]
 [0.4        0.32765242]
 [0.5        0.79138261]
 [0.6        0.47375235]
 [0.7        0.7422914 ]
 [0.8        0.34355832]
 [0.9        0.04625658]
 [1.         1.28889799]
 [1.1        1.94514932]
 [1.14141667 0.29763753]]",0,14.211
8731029739,f,22,english,5,3,english,2024-01-25 10:40:30.331193,False,1,4,sounds\french\audio/french_458.wav,"[[  0.          -9.50766831]
 [  0.1         42.93423473]
 [  0.2        -35.25099644]
 [  0.3        -21.12424967]
 [  0.4         88.8263871 ]
 [  0.5        -40.0858464 ]
 [  0.6         47.86966009]
 [  0.7          4.01017738]
 [  0.8         39.64619026]
 [  0.9        -44.5526031 ]
 [  1.          99.06586971]
 [  1.1        -77.88778656]
 [  1.14141667 -50.98752312]]","[[0.         1.22883205]
 [0.1        1.97283167]
 [0.2        0.2630832 ]
 [0.3        1.57587361]
 [0.4        1.57260938]
 [0.5        1.32200512]
 [0.6        0.7357165 ]
 [0.7        0.40421915]
 [0.8        0.89504993]
 [0.9        1.47670046]
 [1.         0.22243202]
 [1.1        0.95591191]
 [1.14141667 0.35484095]]",0,6.494
8731029739,f,22,english,5,3,english,2024-01-25 10:40:30.331193,False,1,5,sounds\french\audio/french_66.wav,"[[  0.         -98.32760245]
 [  0.1        -62.26266621]
 [  0.2         89.72937552]
 [  0.3         56.77934236]
 [  0.4        -42.45776165]
 [  0.5        -59.91789644]
 [  0.6         -9.4669158 ]
 [  0.7         65.23523517]
 [  0.8        -82.94194698]
 [  0.9        -10.04050412]
 [  1.          69.7789537 ]
 [  1.1         65.31837891]
 [  1.14141667  -9.82207776]]","[[0.         0.76752471]
 [0.1        1.09885532]
 [0.2        0.15772662]
 [0.3        0.75379746]
 [0.4        0.86935584]
 [0.5        0.32743409]
 [0.6        0.75398911]
 [0.7        1.26665279]
 [0.8        1.24326808]
 [0.9        1.27187404]
 [1.         1.72227413]
 [1.1        1.95483723]
 [1.14141667 0.94632212]]",0,17.086
8731029739,f,22,english,5,3,english,2024-01-25 10:40:30.331193,False,1,6,sounds\french\audio/french_69.wav,"[[  0.         -36.62351927]
 [  0.1          4.01465427]
 [  0.2         27.63080147]
 [  0.3        -92.04388741]
 [  0.4        -59.31042768]
 [  0.5         43.60815293]
 [  0.6        -63.68314416]
 [  0.7        -73.22650439]
 [  0.8        -84.37177593]
 [  0.9        -63.66539126]
 [  1.         -82.4132666 ]
 [  1.1         92.98635378]
 [  1.14141667  19.17845997]]","[[0.         0.71535059]
 [0.1        1.17148796]
 [0.2        0.35560456]
 [0.3        0.7069056 ]
 [0.4        0.9774701 ]
 [0.5        0.2035579 ]
 [0.6        0.16150137]
 [0.7        1.58821877]
 [0.8        0.45505702]
 [0.9        1.13448396]
 [1.         0.20707812]
 [1.1        1.81964904]
 [1.14141667 1.19989054]]",1,12.303
8731029739,f,22,english,5,3,english,2024-01-25 10:40:30.331193,False,1,7,sounds\french\audio/french_161.wav,"[[  0.          20.36137567]
 [  0.1        -60.33746522]
 [  0.2          5.99231257]
 [  0.3        -36.52776351]
 [  0.4        -35.132175  ]
 [  0.5        -92.90011583]
 [  0.6         25.07982142]
 [  0.7         68.5675729 ]
 [  0.8         44.30497553]
 [  0.9         57.9688208 ]
 [  1.         -46.18143755]
 [  1.1          9.49457581]
 [  1.14141667   2.50045969]]","[[0.         1.69975886]
 [0.1        1.26867411]
 [0.2        1.18100414]
 [0.3        0.01673519]
 [0.4        0.32582412]
 [0.5        1.37385836]
 [0.6        1.12187003]
 [0.7        1.16788277]
 [0.8        0.06503182]
 [0.9        1.93558319]
 [1.         0.57803806]
 [1.1        1.95933902]
 [1.14141667 0.75547905]]",0,6.168
8731029739,f,22,english,5,3,english,2024-01-25 10:40:30.331193,False,1,8,sounds\french\audio/french_943.wav,"[[  0.         -39.69174356]
 [  0.1          9.71823043]
 [  0.2         47.82156503]
 [  0.3        -70.45683827]
 [  0.4        -70.36375892]
 [  0.5        -78.09117144]
 [  0.6         43.3001696 ]
 [  0.7         27.56713446]
 [  0.8         54.98161832]
 [  0.9        -79.78278868]
 [  1.          66.03849917]
 [  1.1        -45.24869993]
 [  1.14141667 -78.78234865]]","[[0.         1.76181843]
 [0.1        0.25866572]
 [0.2        1.61194964]
 [0.3        1.00408981]
 [0.4        1.40275429]
 [0.5        0.47534453]
 [0.6        1.96075546]
 [0.7        0.78248667]
 [0.8        1.42706625]
 [0.9        0.63840216]
 [1.         0.77310904]
 [1.1        1.03848478]
 [1.14141667 0.62693219]]",1,7.029
8731029739,f,22,english,5,3,english,2024-01-25 10:40:30.331193,False,1,9,sounds\french\audio/french_929.wav,"[[  0.           0.19628559]
 [  0.1        -65.19269942]
 [  0.2         85.79365551]
 [  0.3        -49.06561831]
 [  0.4        -14.51529051]
 [  0.5        -95.48834235]
 [  0.6        -33.23898354]
 [  0.7         41.75408234]
 [  0.8         37.64227738]
 [  0.9        -32.44919392]
 [  1.          89.54900566]
 [  1.1        -65.51395412]
 [  1.14141667  73.05695709]]","[[0.         1.2735275 ]
 [0.1        1.04239801]
 [0.2        1.14016966]
 [0.3        1.26076885]
 [0.4        1.79864451]
 [0.5        0.45349568]
 [0.6        0.33561818]
 [0.7        0.17319501]
 [0.8        1.78715813]
 [0.9        1.8240929 ]
 [1.         1.61299985]
 [1.1        1.74226988]
 [1.14141667 1.79803329]]",0,3.261
8731029739,f,22,english,5,3,english,2024-01-25 10:40:30.331193,False,1,10,sounds\french\audio/french_918.wav,"[[  0.          -2.67893581]
 [  0.1        -86.66912791]
 [  0.2         13.19664365]
 [  0.3         21.91008155]
 [  0.4         45.19898324]
 [  0.5        -61.98176128]
 [  0.6        -32.0210955 ]
 [  0.7        -56.67296374]
 [  0.8        -69.82955016]
 [  0.9         71.11041844]
 [  1.         -91.16742521]
 [  1.1        -50.98363321]
 [  1.14141667  10.7461397 ]]","[[0.         1.74350248]
 [0.1        1.24019067]
 [0.2        1.00107396]
 [0.3        1.28680607]
 [0.4        0.62507084]
 [0.5        0.85364819]
 [0.6        0.7136194 ]
 [0.7        0.47996765]
 [0.8        1.02040943]
 [0.9        1.48734385]
 [1.         1.67065693]
 [1.1        0.14001191]
 [1.14141667 0.38979864]]",0,6.288
8731029739,f,22,english,5,3,english,2024-01-25 10:40:30.331193,False,1,11,sounds\french\audio/french_125.wav,"[[  0.           5.05175171]
 [  0.1         32.7558224 ]
 [  0.2         -9.61553278]
 [  0.3        -33.04402315]
 [  0.4         91.14528802]
 [  0.5         27.38257131]
 [  0.6        -82.19183228]
 [  0.7         66.88134461]
 [  0.8          1.81029464]
 [  0.9        -28.86524108]
 [  1.         -14.95175418]
 [  1.1         -6.66227035]
 [  1.14141667 -70.41501392]]","[[0.         0.77303096]
 [0.1        0.49150881]
 [0.2        1.82272203]
 [0.3        0.85863994]
 [0.4        0.43062264]
 [0.5        1.85723762]
 [0.6        1.66103806]
 [0.7        1.40886995]
 [0.8        0.35681271]
 [0.9        0.15053676]
 [1.         1.22850652]
 [1.1        0.0913017 ]
 [1.14141667 1.41072005]]",1,4.047
8731029739,f,22,english,5,3,english,2024-01-25 10:40:30.331193,False,1,12,sounds\french\audio/french_436.wav,"[[  0.         -88.6105585 ]
 [  0.1        -16.22122401]
 [  0.2         -3.49923583]
 [  0.3        -16.01802375]
 [  0.4        -58.39418693]
 [  0.5        -53.8564813 ]
 [  0.6         24.35754888]
 [  0.7        -50.18804261]
 [  0.8         55.18515934]
 [  0.9        -65.43663779]
 [  1.          44.03721159]
 [  1.1         73.79038044]
 [  1.14141667  28.76066382]]","[[0.         1.07573924]
 [0.1        1.88781057]
 [0.2        1.26933634]
 [0.3        0.08671344]
 [0.4        0.65535741]
 [0.5        1.05284505]
 [0.6        0.14070405]
 [0.7        0.38482967]
 [0.8        1.2504881 ]
 [0.9        0.44304844]
 [1.         1.10568067]
 [1.1        0.33165054]
 [1.14141667 1.91057616]]",0,6.89
8731029739,f,22,english,5,3,english,2024-01-25 10:40:30.331193,False,1,13,sounds\french\audio/french_500.wav,"[[  0.           7.43144337]
 [  0.1        -35.20316303]
 [  0.2        -86.49449875]
 [  0.3         -0.12776336]
 [  0.4          6.50689126]
 [  0.5        -86.34225386]
 [  0.6        -39.45730104]
 [  0.7         -8.71502258]
 [  0.8         32.85935892]
 [  0.9         34.48879389]
 [  1.          70.98288836]
 [  1.1         58.88080584]
 [  1.14141667  78.935145  ]]","[[0.         1.70321207]
 [0.1        0.94738908]
 [0.2        1.55349161]
 [0.3        0.88197897]
 [0.4        0.49120289]
 [0.5        0.35466995]
 [0.6        1.04896921]
 [0.7        0.785406  ]
 [0.8        0.13798401]
 [0.9        0.74289626]
 [1.         0.68775101]
 [1.1        0.86634312]
 [1.14141667 1.71646254]]",1,2.549
8731029739,f,22,english,5,3,english,2024-01-25 10:40:30.331193,False,1,14,sounds\french\audio/french_586.wav,"[[  0.          34.34393454]
 [  0.1        -63.53295293]
 [  0.2         -4.69144577]
 [  0.3         13.65274473]
 [  0.4        -95.66541298]
 [  0.5        -51.81393767]
 [  0.6        -36.12088319]
 [  0.7         39.59921862]
 [  0.8        -30.54313126]
 [  0.9        -38.68998927]
 [  1.         -48.22437321]
 [  1.1        -19.71994639]
 [  1.14141667 -13.36825221]]","[[0.         0.65827859]
 [0.1        1.01876424]
 [0.2        1.74985157]
 [0.3        1.48331678]
 [0.4        1.45004524]
 [0.5        1.66956646]
 [0.6        1.83026395]
 [0.7        0.38816985]
 [0.8        1.42906988]
 [0.9        1.22678382]
 [1.         0.66043621]
 [1.1        0.18129374]
 [1.14141667 1.04989176]]",1,7.783
8731029739,f,22,english,5,3,english,2024-01-25 10:40:30.331193,False,1,15,sounds\french\audio/french_145.wav,"[[  0.          47.06287253]
 [  0.1         -3.58159028]
 [  0.2        -40.8693055 ]
 [  0.3        -80.8752163 ]
 [  0.4        -29.67084936]
 [  0.5        -16.09636873]
 [  0.6         28.46658229]
 [  0.7          4.2007743 ]
 [  0.8         22.24117317]
 [  0.9         33.5185267 ]
 [  1.         -45.71589409]
 [  1.1        -31.5800077 ]
 [  1.14141667 -68.85261891]]","[[0.         0.66108   ]
 [0.1        1.76438723]
 [0.2        1.27982498]
 [0.3        1.02482856]
 [0.4        1.23928714]
 [0.5        0.03289303]
 [0.6        1.30220706]
 [0.7        0.00879255]
 [0.8        1.14421532]
 [0.9        1.29113643]
 [1.         0.21462711]
 [1.1        0.76658856]
 [1.14141667 0.02669372]]",1,3.981
8731029739,f,22,english,5,3,english,2024-01-25 10:40:30.331193,False,1,16,sounds\french\audio/french_990.wav,"[[  0.          22.28546117]
 [  0.1        -71.06453153]
 [  0.2         -2.96842317]
 [  0.3        -38.75715458]
 [  0.4        -38.96833995]
 [  0.5        -55.35962897]
 [  0.6         74.74908097]
 [  0.7        -79.31452591]
 [  0.8         83.49012267]
 [  0.9         82.3920515 ]
 [  1.         -75.96724533]
 [  1.1         -9.23832865]
 [  1.14141667   6.54194372]]","[[0.         1.71774701]
 [0.1        1.39266075]
 [0.2        1.88952817]
 [0.3        1.20515326]
 [0.4        1.57307133]
 [0.5        1.01912695]
 [0.6        0.48659369]
 [0.7        0.16077225]
 [0.8        1.8206286 ]
 [0.9        0.6752075 ]
 [1.         1.19173339]
 [1.1        0.6319672 ]
 [1.14141667 1.17413209]]",1,15.592
8731029739,f,22,english,5,3,english,2024-01-25 10:40:30.331193,False,1,17,sounds\french\audio/french_17.wav,"[[  0.         -71.55402429]
 [  0.1         56.29343934]
 [  0.2         20.79261224]
 [  0.3        -90.11025679]
 [  0.4          6.70427818]
 [  0.5          6.61311772]
 [  0.6         12.56869907]
 [  0.7         12.55137567]
 [  0.8        -95.46150143]
 [  0.9         49.81790086]
 [  1.          16.6905365 ]
 [  1.1        -37.04715418]
 [  1.14141667  50.55014442]]","[[0.         0.5785157 ]
 [0.1        1.90036265]
 [0.2        1.44471121]
 [0.3        1.565227  ]
 [0.4        0.33054676]
 [0.5        1.03998894]
 [0.6        1.28428477]
 [0.7        1.1424972 ]
 [0.8        0.50274776]
 [0.9        1.25594358]
 [1.         1.98482543]
 [1.1        0.15414972]
 [1.14141667 1.03942219]]",0,1.909
8731029739,f,22,english,5,3,english,2024-01-25 10:40:30.331193,False,1,18,sounds\french\audio/french_117.wav,"[[  0.          43.60377946]
 [  0.1         88.0380463 ]
 [  0.2         -1.33010118]
 [  0.3          2.08209637]
 [  0.4        -43.3510715 ]
 [  0.5         -7.89680038]
 [  0.6        -40.62214755]
 [  0.7        -97.45180065]
 [  0.8        -31.70925374]
 [  0.9         13.12341678]
 [  1.          31.16574754]
 [  1.1         82.88920444]
 [  1.14141667  26.13773526]]","[[0.         0.26826622]
 [0.1        1.80635695]
 [0.2        0.58773943]
 [0.3        1.08351647]
 [0.4        1.74342001]
 [0.5        0.87416801]
 [0.6        1.89288011]
 [0.7        1.97585967]
 [0.8        0.86684516]
 [0.9        1.06236633]
 [1.         1.24093061]
 [1.1        1.58014354]
 [1.14141667 1.3395724 ]]",0,5.661
8731029739,f,22,english,5,3,english,2024-01-25 10:40:30.331193,False,1,19,sounds\french\audio/french_585.wav,"[[  0.         -33.41252793]
 [  0.1         16.24382037]
 [  0.2        -25.9418489 ]
 [  0.3         48.33013204]
 [  0.4         45.88405821]
 [  0.5        -88.47894619]
 [  0.6        -34.41723162]
 [  0.7         -9.82400388]
 [  0.8        -22.53248636]
 [  0.9        -27.56128675]
 [  1.         -40.76907833]
 [  1.1         52.35342205]
 [  1.14141667  48.19576807]]","[[0.         1.22101876]
 [0.1        1.6651648 ]
 [0.2        1.05138066]
 [0.3        0.61800307]
 [0.4        0.02764776]
 [0.5        1.98662617]
 [0.6        1.86386493]
 [0.7        1.19111382]
 [0.8        1.44448985]
 [0.9        1.18212322]
 [1.         1.40875064]
 [1.1        1.46658809]
 [1.14141667 1.34688982]]",0,5.805
8731029739,f,22,english,5,3,english,2024-01-25 10:40:30.331193,False,1,20,sounds\french\audio/french_61.wav,"[[  0.          41.87992751]
 [  0.1         50.01429837]
 [  0.2         78.41281703]
 [  0.3         70.942707  ]
 [  0.4          6.43514776]
 [  0.5         81.12101614]
 [  0.6        -70.01679423]
 [  0.7         46.72667831]
 [  0.8        -54.13188201]
 [  0.9        -63.1082098 ]
 [  1.           9.65318656]
 [  1.1         -4.6968319 ]
 [  1.14141667 -73.64232026]]","[[0.         0.15859946]
 [0.1        0.0345307 ]
 [0.2        1.61149795]
 [0.3        0.93558847]
 [0.4        0.85490183]
 [0.5        1.46257569]
 [0.6        0.3355041 ]
 [0.7        1.1796592 ]
 [0.8        0.85418156]
 [0.9        1.72427487]
 [1.         1.58200109]
 [1.1        0.07311123]
 [1.14141667 1.36717067]]",1,4.02
8731029739,f,22,english,5,3,english,2024-01-25 10:40:30.331193,False,1,21,sounds\french\audio/french_806.wav,"[[  0.          -3.4136951 ]
 [  0.1        -96.63930225]
 [  0.2        -34.30141865]
 [  0.3        -30.66323788]
 [  0.4         62.10302885]
 [  0.5        -47.7287553 ]
 [  0.6          6.07544645]
 [  0.7        -74.8079892 ]
 [  0.8         -8.64680391]
 [  0.9         25.48154642]
 [  1.          -1.70416427]
 [  1.1         91.0447775 ]
 [  1.14141667  42.82556821]]","[[0.         0.3955261 ]
 [0.1        1.81981769]
 [0.2        0.71552468]
 [0.3        0.43164846]
 [0.4        0.7004101 ]
 [0.5        1.14693871]
 [0.6        1.60976314]
 [0.7        0.12938402]
 [0.8        1.25657195]
 [0.9        0.88710724]
 [1.         0.44623394]
 [1.1        1.30104916]
 [1.14141667 1.65369707]]",0,3.978
8731029739,f,22,english,5,3,english,2024-01-25 10:40:30.331193,False,1,22,sounds\french\audio/french_272.wav,"[[  0.          42.6629916 ]
 [  0.1        -44.58032128]
 [  0.2        -63.79515668]
 [  0.3         65.68552079]
 [  0.4        -73.43471872]
 [  0.5         -9.94342822]
 [  0.6        -63.79991276]
 [  0.7         10.2914571 ]
 [  0.8         44.90388393]
 [  0.9         11.26467692]
 [  1.         -19.2327242 ]
 [  1.1        -57.17946334]
 [  1.14141667  -5.9395339 ]]","[[0.         0.82181087]
 [0.1        1.24121052]
 [0.2        1.18763114]
 [0.3        1.12080473]
 [0.4        0.3216303 ]
 [0.5        1.28123666]
 [0.6        1.07872971]
 [0.7        1.60584441]
 [0.8        1.61709033]
 [0.9        0.76221234]
 [1.         1.01212213]
 [1.1        0.46924284]
 [1.14141667 0.6492678 ]]",0,4.189
8731029739,f,22,english,5,3,english,2024-01-25 10:40:30.331193,False,1,23,sounds\french\audio/french_769.wav,"[[  0.         -13.36397128]
 [  0.1        -64.48089362]
 [  0.2         58.9023119 ]
 [  0.3         61.12929075]
 [  0.4         97.98097103]
 [  0.5        -77.00062239]
 [  0.6         59.53320612]
 [  0.7        -14.37943066]
 [  0.8         75.08575961]
 [  0.9         -1.90306473]
 [  1.          35.59710513]
 [  1.1        -66.64381006]
 [  1.14141667 -84.5225479 ]]","[[0.         1.58116724]
 [0.1        1.15876737]
 [0.2        1.60731332]
 [0.3        1.39997134]
 [0.4        0.84578271]
 [0.5        1.25139679]
 [0.6        0.60224046]
 [0.7        1.04948576]
 [0.8        0.62368881]
 [0.9        1.18190657]
 [1.         0.32402268]
 [1.1        0.29640924]
 [1.14141667 1.49866135]]",1,1.817
8731029739,f,22,english,5,3,english,2024-01-25 10:40:30.331193,False,1,24,sounds\french\audio/french_662.wav,"[[  0.         -58.41769523]
 [  0.1          9.57990173]
 [  0.2        -12.85613497]
 [  0.3         -2.492249  ]
 [  0.4         81.85022743]
 [  0.5        -44.9453707 ]
 [  0.6        -31.2400428 ]
 [  0.7         -0.32495302]
 [  0.8         83.47890741]
 [  0.9         -3.56204298]
 [  1.         -31.28236846]
 [  1.1         29.38972981]
 [  1.14141667  56.83170874]]","[[0.         0.17249004]
 [0.1        0.24251521]
 [0.2        0.0442616 ]
 [0.3        0.45328164]
 [0.4        0.52406405]
 [0.5        0.36675154]
 [0.6        0.00343123]
 [0.7        0.95062338]
 [0.8        1.83377113]
 [0.9        0.58479333]
 [1.         0.06647959]
 [1.1        0.47496869]
 [1.14141667 1.46968119]]",1,6.403
8731029739,f,22,english,5,3,english,2024-01-25 10:40:30.331193,False,1,25,sounds\french\audio/french_749.wav,"[[  0.         -23.16549888]
 [  0.1        -79.07430358]
 [  0.2         70.37404484]
 [  0.3         69.02866227]
 [  0.4        -89.89652942]
 [  0.5         48.33649686]
 [  0.6         21.15473108]
 [  0.7         23.95995452]
 [  0.8        -43.2069743 ]
 [  0.9          9.14687339]
 [  1.          63.2454423 ]
 [  1.1         37.48539417]
 [  1.14141667 -43.03918715]]","[[0.         1.16458166]
 [0.1        1.09262862]
 [0.2        1.10936208]
 [0.3        0.46888555]
 [0.4        0.39050234]
 [0.5        1.09882465]
 [0.6        0.81397401]
 [0.7        1.63947805]
 [0.8        0.46870788]
 [0.9        1.667972  ]
 [1.         1.34818354]
 [1.1        0.64117659]
 [1.14141667 0.02908893]]",0,5.844
8731029739,f,22,english,5,3,english,2024-01-25 10:40:30.331193,False,1,26,sounds\french\audio/french_452.wav,"[[  0.         -65.13304523]
 [  0.1         91.34871159]
 [  0.2        -53.78564445]
 [  0.3        -10.05929492]
 [  0.4         47.92385069]
 [  0.5        -15.4646629 ]
 [  0.6         67.64656442]
 [  0.7         70.11175977]
 [  0.8         14.66379349]
 [  0.9        -29.42655143]
 [  1.         -94.24598391]
 [  1.1         -5.14208276]
 [  1.14141667 -20.66516361]]","[[0.         1.10727473]
 [0.1        0.36749155]
 [0.2        1.21292776]
 [0.3        1.33310916]
 [0.4        0.35628751]
 [0.5        1.12575771]
 [0.6        1.51128562]
 [0.7        0.50973205]
 [0.8        0.76730337]
 [0.9        0.80900056]
 [1.         1.56347286]
 [1.1        0.95168615]
 [1.14141667 1.45096679]]",1,2.762
8731029739,f,22,english,5,3,english,2024-01-25 10:40:30.331193,False,1,27,sounds\french\audio/french_529.wav,"[[  0.          68.21405675]
 [  0.1        -26.26254382]
 [  0.2         35.91187259]
 [  0.3        -90.62874651]
 [  0.4         48.9626863 ]
 [  0.5        -34.38890804]
 [  0.6        -26.35114845]
 [  0.7         76.17282181]
 [  0.8        -86.28711417]
 [  0.9        -66.41984683]
 [  1.          74.29634714]
 [  1.1        -35.97062469]
 [  1.14141667  81.32540921]]","[[0.         0.55022537]
 [0.1        1.84018601]
 [0.2        1.28391887]
 [0.3        0.7250288 ]
 [0.4        0.78464607]
 [0.5        0.26698233]
 [0.6        0.62081799]
 [0.7        1.40858926]
 [0.8        0.07240201]
 [0.9        0.58270484]
 [1.         0.30597621]
 [1.1        0.43438998]
 [1.14141667 1.7101157 ]]",0,2.791
8731029739,f,22,english,5,3,english,2024-01-25 10:40:30.331193,False,1,28,sounds\french\audio/french_580.wav,"[[  0.          25.72367309]
 [  0.1        -90.22264513]
 [  0.2        -41.00446139]
 [  0.3         -5.68850956]
 [  0.4         73.58502836]
 [  0.5        -21.93392185]
 [  0.6         22.10254243]
 [  0.7        -79.6738306 ]
 [  0.8        -14.71861733]
 [  0.9         -0.72546407]
 [  1.          14.32622757]
 [  1.1        -17.22514553]
 [  1.14141667  91.12485479]]","[[0.         0.83672034]
 [0.1        1.17700555]
 [0.2        0.86031616]
 [0.3        1.31884624]
 [0.4        0.50096962]
 [0.5        1.67954592]
 [0.6        1.67101568]
 [0.7        0.19873264]
 [0.8        1.68323733]
 [0.9        0.50457607]
 [1.         1.32157054]
 [1.1        0.77895262]
 [1.14141667 0.13067195]]",1,7.633
8731029739,f,22,english,5,3,english,2024-01-25 10:40:30.331193,False,1,29,sounds\french\audio/french_352.wav,"[[  0.          10.73486736]
 [  0.1         -2.13704655]
 [  0.2         28.17863461]
 [  0.3         31.31595099]
 [  0.4         78.82756463]
 [  0.5         83.48671707]
 [  0.6        -30.66584618]
 [  0.7         81.60814872]
 [  0.8          7.8464664 ]
 [  0.9        -79.02516518]
 [  1.         -33.20547634]
 [  1.1        -36.70872287]
 [  1.14141667  97.65700818]]","[[0.         0.92635418]
 [0.1        1.35141752]
 [0.2        1.44107808]
 [0.3        0.55561757]
 [0.4        1.72995487]
 [0.5        0.72311037]
 [0.6        0.44618391]
 [0.7        0.87849223]
 [0.8        1.36014926]
 [0.9        1.59973975]
 [1.         1.01580825]
 [1.1        0.8147003 ]
 [1.14141667 1.87612807]]",0,1.702
8731029739,f,22,english,5,3,english,2024-01-25 10:40:30.331193,False,1,30,sounds\french\audio/french_82.wav,"[[  0.          72.0977367 ]
 [  0.1         13.70688001]
 [  0.2         12.2114914 ]
 [  0.3        -69.04637283]
 [  0.4         51.39319656]
 [  0.5         47.88063171]
 [  0.6         22.68060335]
 [  0.7         43.54036569]
 [  0.8         -1.40002238]
 [  0.9        -44.69291662]
 [  1.         -80.67967911]
 [  1.1        -40.96891049]
 [  1.14141667 -20.90276353]]","[[0.         1.01696947]
 [0.1        1.97290743]
 [0.2        0.08873669]
 [0.3        1.89535476]
 [0.4        0.09685831]
 [0.5        0.48800994]
 [0.6        1.51769172]
 [0.7        0.60661005]
 [0.8        0.807753  ]
 [0.9        1.80168033]
 [1.         1.61964295]
 [1.1        1.99449381]
 [1.14141667 0.77383177]]",0,1.069
8731029739,f,22,english,5,3,english,2024-01-25 10:40:30.331193,False,1,31,sounds\french\audio/french_148.wav,"[[  0.          35.03992427]
 [  0.1        -26.56645319]
 [  0.2          1.54735612]
 [  0.3         43.90273661]
 [  0.4         20.15863223]
 [  0.5         40.21769113]
 [  0.6        -45.48330671]
 [  0.7         37.84515717]
 [  0.8         70.85795378]
 [  0.9         -8.50916841]
 [  1.          74.51689941]
 [  1.1        -29.84970963]
 [  1.14141667 -16.19564709]]","[[0.         0.51574751]
 [0.1        0.44602423]
 [0.2        1.29890337]
 [0.3        1.35071288]
 [0.4        1.88468446]
 [0.5        0.68922645]
 [0.6        0.29500086]
 [0.7        1.13623745]
 [0.8        1.93028729]
 [0.9        1.29954979]
 [1.         1.64717937]
 [1.1        0.6962146 ]
 [1.14141667 1.34875208]]",0,4.809
8731029739,f,22,english,5,3,english,2024-01-25 10:40:30.331193,False,1,32,sounds\french\audio/french_120.wav,"[[  0.         -25.39055637]
 [  0.1        -52.16988554]
 [  0.2        -97.11481736]
 [  0.3        -11.4581745 ]
 [  0.4        -45.99069763]
 [  0.5        -43.61865699]
 [  0.6        -44.83604124]
 [  0.7         -8.86769407]
 [  0.8         63.33461413]
 [  0.9        -71.92792016]
 [  1.          76.65131092]
 [  1.1         60.1037415 ]
 [  1.14141667 -22.4064568 ]]","[[0.         0.67452719]
 [0.1        0.89530536]
 [0.2        0.31491033]
 [0.3        0.92298319]
 [0.4        0.35602146]
 [0.5        0.39625722]
 [0.6        1.05367551]
 [0.7        1.01432352]
 [0.8        1.39909629]
 [0.9        1.4024389 ]
 [1.         0.62839034]
 [1.1        0.42144028]
 [1.14141667 0.48383485]]",1,4.566
8731029739,f,22,english,5,3,english,2024-01-25 10:40:30.331193,False,1,33,sounds\french\audio/french_684.wav,"[[  0.         -88.96240825]
 [  0.1        -54.37508207]
 [  0.2        -91.57905397]
 [  0.3        -58.85501017]
 [  0.4         44.82481671]
 [  0.5        -70.60806513]
 [  0.6         94.32148608]
 [  0.7        -17.32520236]
 [  0.8         29.06027198]
 [  0.9        -57.57833097]
 [  1.         -48.20877129]
 [  1.1         58.87949866]
 [  1.14141667 -11.47571774]]","[[0.         1.78476448]
 [0.1        0.02576857]
 [0.2        1.04724647]
 [0.3        0.76694618]
 [0.4        0.80269361]
 [0.5        0.84512097]
 [0.6        0.97813642]
 [0.7        0.54666182]
 [0.8        0.58446507]
 [0.9        0.42247579]
 [1.         0.8068102 ]
 [1.1        0.07609372]
 [1.14141667 1.952562  ]]",0,4.44
8731029739,f,22,english,5,3,english,2024-01-25 10:40:30.331193,False,1,34,sounds\french\audio/french_354.wav,"[[  0.         -59.30427207]
 [  0.1         79.91145527]
 [  0.2         -1.5051974 ]
 [  0.3        -45.6248448 ]
 [  0.4         40.65998782]
 [  0.5        -87.75757377]
 [  0.6         92.52575954]
 [  0.7        -30.48325009]
 [  0.8         18.19454969]
 [  0.9         -2.58461677]
 [  1.         -70.76135363]
 [  1.1         70.06864497]
 [  1.14141667  36.19538716]]","[[0.         1.42108763]
 [0.1        0.12998909]
 [0.2        1.34324907]
 [0.3        1.56989782]
 [0.4        0.75541958]
 [0.5        0.95768708]
 [0.6        1.70871899]
 [0.7        1.54335891]
 [0.8        0.39580898]
 [0.9        1.36502039]
 [1.         1.03896879]
 [1.1        1.2657434 ]
 [1.14141667 1.59524238]]",0,2.06
8731029739,f,22,english,5,3,english,2024-01-25 10:40:30.331193,False,1,35,sounds\french\audio/french_540.wav,"[[  0.          31.52597312]
 [  0.1         -1.25149155]
 [  0.2        -73.66629191]
 [  0.3        -22.64766564]
 [  0.4        -99.62555954]
 [  0.5         16.96824428]
 [  0.6         87.0103995 ]
 [  0.7         40.33133886]
 [  0.8         20.73958679]
 [  0.9         42.51308569]
 [  1.          -2.19499318]
 [  1.1        -32.36810626]
 [  1.14141667 -26.20670126]]","[[0.         1.25975377]
 [0.1        1.40968559]
 [0.2        0.44233903]
 [0.3        0.80840944]
 [0.4        0.2410145 ]
 [0.5        0.92564841]
 [0.6        1.23012294]
 [0.7        1.75550661]
 [0.8        1.48031201]
 [0.9        0.50269543]
 [1.         0.37203423]
 [1.1        0.07986375]
 [1.14141667 1.98266687]]",1,1.792
8731029739,f,22,english,5,3,english,2024-01-25 10:40:30.331193,False,1,36,sounds\french\audio/french_288.wav,"[[  0.         -19.66271306]
 [  0.1        -49.95319108]
 [  0.2         55.70739253]
 [  0.3        -47.82629408]
 [  0.4        -30.64427182]
 [  0.5        -54.20245769]
 [  0.6         94.86326533]
 [  0.7        -11.35318876]
 [  0.8        -94.65333259]
 [  0.9         66.72626026]
 [  1.         -72.10656939]
 [  1.1        -87.02340103]
 [  1.14141667 -20.80379815]]","[[0.         0.77463997]
 [0.1        0.15164104]
 [0.2        1.45402293]
 [0.3        1.49503854]
 [0.4        0.10701477]
 [0.5        1.1175781 ]
 [0.6        0.62210046]
 [0.7        1.34496978]
 [0.8        1.0681913 ]
 [0.9        0.36189635]
 [1.         1.98571959]
 [1.1        1.61383771]
 [1.14141667 0.2520498 ]]",0,3.662
8731029739,f,22,english,5,3,english,2024-01-25 10:40:30.331193,False,1,37,sounds\french\audio/french_966.wav,"[[  0.         -10.57377166]
 [  0.1         16.31629355]
 [  0.2         66.58695559]
 [  0.3        -61.61739079]
 [  0.4        -41.37821766]
 [  0.5         88.06115482]
 [  0.6         -4.87023383]
 [  0.7         31.63809868]
 [  0.8        -38.6673981 ]
 [  0.9        -66.27416683]
 [  1.          41.48122115]
 [  1.1         80.76921646]
 [  1.14141667  52.47266676]]","[[0.         1.56095525]
 [0.1        1.09354941]
 [0.2        1.38098283]
 [0.3        0.55606853]
 [0.4        1.34826297]
 [0.5        0.44785703]
 [0.6        0.15735512]
 [0.7        1.16220619]
 [0.8        1.58182779]
 [0.9        1.19689558]
 [1.         1.36559002]
 [1.1        0.9687158 ]
 [1.14141667 0.80624273]]",0,3.415
8731029739,f,22,english,5,3,english,2024-01-25 10:40:30.331193,False,1,38,sounds\french\audio/french_106.wav,"[[  0.          41.36913714]
 [  0.1         72.10514789]
 [  0.2         71.35003336]
 [  0.3        -23.14792258]
 [  0.4        -85.60943665]
 [  0.5        -13.44621845]
 [  0.6        -19.94134835]
 [  0.7         58.19403594]
 [  0.8        -62.37820211]
 [  0.9         21.65239657]
 [  1.          13.26561889]
 [  1.1        -51.9211494 ]
 [  1.14141667   4.66038509]]","[[0.         0.22040484]
 [0.1        0.8989972 ]
 [0.2        1.76242083]
 [0.3        0.31381105]
 [0.4        0.12343581]
 [0.5        1.50784173]
 [0.6        1.19613994]
 [0.7        0.37137686]
 [0.8        0.57613605]
 [0.9        1.01997302]
 [1.         1.29543853]
 [1.1        1.97443987]
 [1.14141667 0.87800509]]",0,0.871
8731029739,f,22,english,5,3,english,2024-01-25 10:40:30.331193,False,1,39,sounds\french\audio/french_84.wav,"[[  0.         -96.37151913]
 [  0.1        -51.32047359]
 [  0.2          6.16674673]
 [  0.3        -74.79812615]
 [  0.4         72.70338153]
 [  0.5         73.29646829]
 [  0.6         58.46115838]
 [  0.7        -88.22895489]
 [  0.8         96.14628935]
 [  0.9        -22.0220861 ]
 [  1.         -17.5351727 ]
 [  1.1         70.12401617]
 [  1.14141667  19.58806578]]","[[0.         0.66956982]
 [0.1        0.87788838]
 [0.2        1.80968749]
 [0.3        1.92619873]
 [0.4        0.19629773]
 [0.5        1.83630482]
 [0.6        1.73731066]
 [0.7        0.02437314]
 [0.8        0.0262643 ]
 [0.9        1.01003676]
 [1.         0.76011071]
 [1.1        1.03268267]
 [1.14141667 0.54269981]]",0,2.039
8731029739,f,22,english,5,3,english,2024-01-25 10:40:30.331193,False,1,40,sounds\french\audio/french_220.wav,"[[  0.         -47.86203104]
 [  0.1         -2.12019525]
 [  0.2         11.33443683]
 [  0.3         26.73426002]
 [  0.4        -20.00864526]
 [  0.5         66.4142843 ]
 [  0.6        -25.00808868]
 [  0.7        -40.0848978 ]
 [  0.8         72.97244598]
 [  0.9         77.81836091]
 [  1.          14.03709177]
 [  1.1         33.22448401]
 [  1.14141667   8.56507439]]","[[0.         0.17649175]
 [0.1        0.55844568]
 [0.2        0.51968643]
 [0.3        0.91323903]
 [0.4        1.83941424]
 [0.5        1.66792491]
 [0.6        1.72207121]
 [0.7        0.69900455]
 [0.8        1.89129623]
 [0.9        1.89462756]
 [1.         1.13767499]
 [1.1        0.48678829]
 [1.14141667 1.85900383]]",1,5.674
8731029739,f,22,english,5,3,english,2024-01-25 10:40:30.331193,False,1,41,sounds\french\audio/french_466.wav,"[[  0.         -23.27991826]
 [  0.1         97.23850922]
 [  0.2        -96.9465149 ]
 [  0.3        -86.96925433]
 [  0.4          2.85783603]
 [  0.5         95.91347723]
 [  0.6        -63.35172498]
 [  0.7        -25.95383213]
 [  0.8        -52.59375309]
 [  0.9        -70.79178645]
 [  1.         -29.48964846]
 [  1.1        -52.94204961]
 [  1.14141667  46.57113475]]","[[0.         1.52804132]
 [0.1        0.01047206]
 [0.2        1.6544422 ]
 [0.3        1.82991551]
 [0.4        0.86899364]
 [0.5        1.25331213]
 [0.6        1.68509567]
 [0.7        1.20636117]
 [0.8        0.84252752]
 [0.9        1.91154977]
 [1.         0.45592683]
 [1.1        0.35898479]
 [1.14141667 1.03194217]]",0,3.544
8731029739,f,22,english,5,3,english,2024-01-25 10:40:30.331193,False,1,42,sounds\french\audio/french_305.wav,"[[  0.         -77.20906853]
 [  0.1         64.89199308]
 [  0.2          7.69054885]
 [  0.3        -47.6141874 ]
 [  0.4         24.82339494]
 [  0.5         20.18926417]
 [  0.6        -54.4743451 ]
 [  0.7         41.07397409]
 [  0.8        -19.05084731]
 [  0.9        -20.13915126]
 [  1.          -3.97340908]
 [  1.1         88.43102232]
 [  1.14141667   5.13824531]]","[[0.         1.73587013]
 [0.1        0.77294131]
 [0.2        0.32837419]
 [0.3        1.19216591]
 [0.4        0.80149681]
 [0.5        0.39729394]
 [0.6        0.54085328]
 [0.7        0.8068405 ]
 [0.8        1.23639766]
 [0.9        0.28852647]
 [1.         1.66872212]
 [1.1        1.65649633]
 [1.14141667 1.61177863]]",0,4.922
8731029739,f,22,english,5,3,english,2024-01-25 10:40:30.331193,False,1,43,sounds\french\audio/french_775.wav,"[[  0.          49.14441244]
 [  0.1        -37.49635801]
 [  0.2        -64.74479121]
 [  0.3        -12.02662639]
 [  0.4        -26.48861759]
 [  0.5        -43.08388975]
 [  0.6        -18.80336799]
 [  0.7        -90.02503078]
 [  0.8        -28.18761095]
 [  0.9        -28.26997976]
 [  1.           7.95602716]
 [  1.1         64.66434367]
 [  1.14141667  48.93413359]]","[[0.         0.85002417]
 [0.1        0.73677405]
 [0.2        0.82269634]
 [0.3        1.87072388]
 [0.4        1.17405656]
 [0.5        0.44967365]
 [0.6        1.74849723]
 [0.7        0.62644381]
 [0.8        0.54512666]
 [0.9        1.47102377]
 [1.         1.49461557]
 [1.1        0.10246187]
 [1.14141667 1.38779848]]",0,6.625
8731029739,f,22,english,5,3,english,2024-01-25 10:40:30.331193,False,1,44,sounds\french\audio/french_447.wav,"[[  0.           6.04355082]
 [  0.1         -1.04855661]
 [  0.2        -47.12815284]
 [  0.3         68.61131291]
 [  0.4         29.55521304]
 [  0.5         83.19468183]
 [  0.6         32.28964421]
 [  0.7        -30.56201849]
 [  0.8        -62.10694836]
 [  0.9        -56.07346139]
 [  1.         -91.28980729]
 [  1.1         35.15873918]
 [  1.14141667  28.83992247]]","[[0.         1.02628558]
 [0.1        1.77610809]
 [0.2        1.47367835]
 [0.3        1.43120021]
 [0.4        1.37358307]
 [0.5        0.28035321]
 [0.6        1.18002936]
 [0.7        1.27636641]
 [0.8        1.80740879]
 [0.9        0.54939497]
 [1.         1.34706634]
 [1.1        1.19033731]
 [1.14141667 0.41831697]]",0,4.869
8731029739,f,22,english,5,3,english,2024-01-25 10:40:30.331193,False,1,45,sounds\french\audio/french_519.wav,"[[  0.          38.95071941]
 [  0.1        -98.16248953]
 [  0.2         -8.53351214]
 [  0.3        -29.96278714]
 [  0.4        -57.19313365]
 [  0.5        -14.84533872]
 [  0.6         65.33729063]
 [  0.7          2.08710226]
 [  0.8        -14.97633343]
 [  0.9         84.22736014]
 [  1.         -86.65839452]
 [  1.1        -25.38298956]
 [  1.14141667 -47.75612145]]","[[0.         0.15710705]
 [0.1        1.65075873]
 [0.2        0.59061529]
 [0.3        0.34046239]
 [0.4        0.44125755]
 [0.5        1.00043078]
 [0.6        1.54523625]
 [0.7        1.08213469]
 [0.8        0.71331726]
 [0.9        0.21863186]
 [1.         0.07702422]
 [1.1        0.09511301]
 [1.14141667 1.11047356]]",1,7.185
8731029739,f,22,english,5,3,english,2024-01-25 10:40:30.331193,False,1,46,sounds\french\audio/french_614.wav,"[[  0.         -98.91219047]
 [  0.1         22.70180807]
 [  0.2        -50.76605046]
 [  0.3        -65.24359314]
 [  0.4        -49.3351696 ]
 [  0.5         24.21080922]
 [  0.6          3.43966526]
 [  0.7        -58.56128696]
 [  0.8         66.77342814]
 [  0.9        -64.90742311]
 [  1.          10.51346609]
 [  1.1        -68.79164896]
 [  1.14141667  34.78402703]]","[[0.         0.85030025]
 [0.1        1.54641479]
 [0.2        1.59021247]
 [0.3        0.79354452]
 [0.4        0.96259511]
 [0.5        1.67132683]
 [0.6        0.01415487]
 [0.7        1.9665878 ]
 [0.8        0.8584981 ]
 [0.9        1.31118079]
 [1.         1.27811354]
 [1.1        1.21751263]
 [1.14141667 0.04843522]]",1,8.483
8731029739,f,22,english,5,3,english,2024-01-25 10:40:30.331193,False,1,47,sounds\french\audio/french_863.wav,"[[  0.          50.77342544]
 [  0.1        -97.70321946]
 [  0.2         -1.18541723]
 [  0.3        -45.09950091]
 [  0.4        -69.59494908]
 [  0.5         86.27470407]
 [  0.6        -28.73893601]
 [  0.7        -52.09259609]
 [  0.8         36.31844789]
 [  0.9        -73.2210636 ]
 [  1.          90.73733334]
 [  1.1         58.21757398]
 [  1.14141667  56.00262149]]","[[0.         0.93550892]
 [0.1        0.64505388]
 [0.2        0.94585453]
 [0.3        0.69723049]
 [0.4        0.77036715]
 [0.5        0.28013797]
 [0.6        1.05013391]
 [0.7        1.91965154]
 [0.8        0.72883716]
 [0.9        0.81903439]
 [1.         0.23587725]
 [1.1        1.52886581]
 [1.14141667 1.3743652 ]]",1,9.247
8731029739,f,22,english,5,3,english,2024-01-25 10:40:30.331193,False,1,48,sounds\french\audio/french_28.wav,"[[  0.         -56.10420343]
 [  0.1        -31.69596583]
 [  0.2         10.77640338]
 [  0.3        -20.69274199]
 [  0.4          6.95136345]
 [  0.5         48.14792065]
 [  0.6         97.62552183]
 [  0.7        -10.73890428]
 [  0.8         38.69981846]
 [  0.9        -67.7986679 ]
 [  1.          42.50924299]
 [  1.1         18.11663107]
 [  1.14141667 -94.85686725]]","[[0.         1.70315994]
 [0.1        1.28626693]
 [0.2        1.2824792 ]
 [0.3        1.46430812]
 [0.4        1.88063004]
 [0.5        1.08025973]
 [0.6        0.53911676]
 [0.7        1.61562015]
 [0.8        1.07570603]
 [0.9        1.41027786]
 [1.         0.45518513]
 [1.1        0.65531755]
 [1.14141667 1.88116662]]",0,2.607
8731029739,f,22,english,5,3,english,2024-01-25 10:40:30.331193,False,1,49,sounds\french\audio/french_468.wav,"[[  0.         -13.58676493]
 [  0.1         72.6058515 ]
 [  0.2        -32.02129576]
 [  0.3         52.20448247]
 [  0.4         81.43032914]
 [  0.5        -46.64724356]
 [  0.6         -9.87779487]
 [  0.7        -19.54175122]
 [  0.8        -49.98241499]
 [  0.9        -13.16351875]
 [  1.         -96.83623885]
 [  1.1         49.6134393 ]
 [  1.14141667  15.95148808]]","[[0.         1.61786678]
 [0.1        0.87941828]
 [0.2        1.83091307]
 [0.3        0.55022133]
 [0.4        1.31843468]
 [0.5        0.27128196]
 [0.6        1.45996143]
 [0.7        1.9285159 ]
 [0.8        0.92372557]
 [0.9        0.96002264]
 [1.         0.2797337 ]
 [1.1        0.59117932]
 [1.14141667 0.63965457]]",0,11.305
8731029739,f,22,english,5,3,english,2024-01-25 10:40:30.331193,False,1,50,sounds\french\audio/french_724.wav,"[[ 0.00000000e+00 -4.27356975e+01]
 [ 1.00000000e-01  7.91515089e+01]
 [ 2.00000000e-01  6.49302742e+01]
 [ 3.00000000e-01 -8.51878267e+01]
 [ 4.00000000e-01 -3.43526203e+01]
 [ 5.00000000e-01 -4.99910648e+00]
 [ 6.00000000e-01  4.48919320e-02]
 [ 7.00000000e-01  7.78511592e+00]
 [ 8.00000000e-01  2.06697314e+01]
 [ 9.00000000e-01  9.44830377e+01]
 [ 1.00000000e+00  1.93406873e+00]
 [ 1.10000000e+00  6.55163276e+01]
 [ 1.14141667e+00  3.64326130e+01]]","[[0.         0.85167994]
 [0.1        1.58951064]
 [0.2        0.60770722]
 [0.3        0.75189335]
 [0.4        0.90807039]
 [0.5        0.50960695]
 [0.6        0.49994716]
 [0.7        1.52976277]
 [0.8        1.0388534 ]
 [0.9        1.27328061]
 [1.         1.00280062]
 [1.1        1.51647705]
 [1.14141667 1.50732266]]",0,3.64
8731029739,f,22,english,5,3,english,2024-01-25 10:40:30.331193,False,1,51,sounds\french\audio/french_232.wav,"[[  0.          36.09628774]
 [  0.1         70.77342165]
 [  0.2         92.70412942]
 [  0.3         11.2091004 ]
 [  0.4         97.58748495]
 [  0.5         34.99158462]
 [  0.6         83.35627055]
 [  0.7         54.22162088]
 [  0.8         32.72297276]
 [  0.9          5.03567369]
 [  1.         -23.14752626]
 [  1.1        -11.42184493]
 [  1.14141667 -77.93527489]]","[[0.         0.41820771]
 [0.1        0.42448846]
 [0.2        1.53853672]
 [0.3        1.60298784]
 [0.4        1.81399086]
 [0.5        0.3805347 ]
 [0.6        1.83687399]
 [0.7        1.52559445]
 [0.8        0.94250496]
 [0.9        0.72452257]
 [1.         1.88926376]
 [1.1        0.29038285]
 [1.14141667 1.71088611]]",0,4.324
8731029739,f,22,english,5,3,english,2024-01-25 10:40:30.331193,False,1,52,sounds\french\audio/french_707.wav,"[[  0.         -64.93442834]
 [  0.1        -72.2221748 ]
 [  0.2         13.62014708]
 [  0.3         47.83259261]
 [  0.4        -95.31398354]
 [  0.5          1.08562873]
 [  0.6         -4.48837622]
 [  0.7        -51.75801518]
 [  0.8        -21.80654722]
 [  0.9         75.81447714]
 [  1.         -46.65505287]
 [  1.1        -66.28006481]
 [  1.14141667  14.37031086]]","[[0.         1.46804089]
 [0.1        0.58492239]
 [0.2        1.16417946]
 [0.3        1.23796764]
 [0.4        1.82345274]
 [0.5        0.65758585]
 [0.6        1.01551763]
 [0.7        1.22021008]
 [0.8        1.86240461]
 [0.9        1.61294549]
 [1.         0.22226257]
 [1.1        0.137127  ]
 [1.14141667 1.66241642]]",1,2.931
8731029739,f,22,english,5,3,english,2024-01-25 10:40:30.331193,False,1,53,sounds\french\audio/french_623.wav,"[[  0.         -86.83812117]
 [  0.1         74.2111041 ]
 [  0.2         98.95723814]
 [  0.3        -37.0218658 ]
 [  0.4         16.90400558]
 [  0.5        -31.51763709]
 [  0.6         17.3105587 ]
 [  0.7        -36.14678416]
 [  0.8         33.60964764]
 [  0.9         -2.61935036]
 [  1.         -14.19773812]
 [  1.1        -43.63276209]
 [  1.14141667  29.17007342]]","[[0.         1.05106058]
 [0.1        0.716104  ]
 [0.2        1.44527186]
 [0.3        1.34226429]
 [0.4        1.52765307]
 [0.5        0.56929388]
 [0.6        0.38037964]
 [0.7        0.96955255]
 [0.8        1.01212194]
 [0.9        0.66675465]
 [1.         0.09693711]
 [1.1        1.95103561]
 [1.14141667 0.72368638]]",0,5.536
8731029739,f,22,english,5,3,english,2024-01-25 10:40:30.331193,False,1,54,sounds\french\audio/french_380.wav,"[[  0.          50.45877981]
 [  0.1         27.88432033]
 [  0.2        -34.53723027]
 [  0.3        -69.55895419]
 [  0.4        -28.41605157]
 [  0.5         25.67592844]
 [  0.6        -84.53806724]
 [  0.7        -49.89975605]
 [  0.8         75.71000255]
 [  0.9         30.16060778]
 [  1.         -57.98795284]
 [  1.1         -9.14146098]
 [  1.14141667  61.49544023]]","[[0.         0.75315413]
 [0.1        0.97702905]
 [0.2        0.7048892 ]
 [0.3        1.70478002]
 [0.4        1.71824888]
 [0.5        1.0555026 ]
 [0.6        0.83070263]
 [0.7        0.38580216]
 [0.8        1.32561889]
 [0.9        0.45811506]
 [1.         1.65372558]
 [1.1        0.02023169]
 [1.14141667 0.39090817]]",0,8.352
8731029739,f,22,english,5,3,english,2024-01-25 10:40:30.331193,False,1,55,sounds\french\audio/french_607.wav,"[[  0.         -12.44319925]
 [  0.1        -94.85502328]
 [  0.2        -56.9043045 ]
 [  0.3        -18.59020178]
 [  0.4          9.27721525]
 [  0.5        -86.5437561 ]
 [  0.6         -6.68115528]
 [  0.7         82.47774992]
 [  0.8        -64.79498014]
 [  0.9         54.51357441]
 [  1.          -5.80014692]
 [  1.1        -22.72142846]
 [  1.14141667 -12.07204915]]","[[0.         1.98503206]
 [0.1        1.00846088]
 [0.2        0.69384134]
 [0.3        1.76201014]
 [0.4        1.29911711]
 [0.5        1.18024894]
 [0.6        0.3019838 ]
 [0.7        1.87001672]
 [0.8        1.60167076]
 [0.9        0.75456566]
 [1.         1.39935428]
 [1.1        0.80764916]
 [1.14141667 0.54525676]]",0,5.894
8731029739,f,22,english,5,3,english,2024-01-25 10:40:30.331193,False,1,56,sounds\french\audio/french_55.wav,"[[  0.         -70.28328368]
 [  0.1         50.73292751]
 [  0.2        -16.31236971]
 [  0.3        -98.76766394]
 [  0.4        -93.70290529]
 [  0.5         16.78078951]
 [  0.6         52.75208615]
 [  0.7         70.61937301]
 [  0.8         11.43760761]
 [  0.9         81.46267865]
 [  1.          50.14519789]
 [  1.1         25.14822077]
 [  1.14141667 -49.70858316]]","[[0.         1.42617491]
 [0.1        1.31979309]
 [0.2        0.76251105]
 [0.3        1.13142855]
 [0.4        0.93708244]
 [0.5        0.78930631]
 [0.6        1.96633931]
 [0.7        0.79237353]
 [0.8        1.3224414 ]
 [0.9        1.11476735]
 [1.         0.76573152]
 [1.1        0.21170061]
 [1.14141667 0.42730216]]",1,2.769
8731029739,f,22,english,5,3,english,2024-01-25 10:40:30.331193,False,1,57,sounds\french\audio/french_737.wav,"[[  0.          52.46806953]
 [  0.1         22.11164663]
 [  0.2         21.15045447]
 [  0.3         72.92020853]
 [  0.4        -88.00822782]
 [  0.5         44.92871735]
 [  0.6        -16.42488454]
 [  0.7        -38.35092669]
 [  0.8         53.07954461]
 [  0.9         -5.60043296]
 [  1.         -61.57972563]
 [  1.1        -87.96395632]
 [  1.14141667  79.0371692 ]]","[[0.         0.64173495]
 [0.1        1.02290277]
 [0.2        1.15251768]
 [0.3        0.917673  ]
 [0.4        0.17703353]
 [0.5        0.75389602]
 [0.6        0.85967356]
 [0.7        1.78468728]
 [0.8        1.36873542]
 [0.9        1.27747182]
 [1.         1.44074345]
 [1.1        1.60195725]
 [1.14141667 1.84673245]]",0,1.041
8731029739,f,22,english,5,3,english,2024-01-25 10:40:30.331193,False,1,58,sounds\french\audio/french_718.wav,"[[  0.          33.83974481]
 [  0.1         75.60927008]
 [  0.2          5.42570617]
 [  0.3        -86.49968927]
 [  0.4        -82.66009843]
 [  0.5         -7.42138801]
 [  0.6         22.39546771]
 [  0.7        -75.7468097 ]
 [  0.8         56.54879527]
 [  0.9         22.08965796]
 [  1.           0.92889237]
 [  1.1        -96.09137466]
 [  1.14141667 -27.56610434]]","[[0.         1.83484525]
 [0.1        0.41567784]
 [0.2        1.12655023]
 [0.3        1.26248076]
 [0.4        1.75908703]
 [0.5        1.52482075]
 [0.6        1.87690382]
 [0.7        0.07228786]
 [0.8        1.60832124]
 [0.9        1.35064447]
 [1.         1.67650518]
 [1.1        1.75605442]
 [1.14141667 1.42532868]]",0,6.336
8731029739,f,22,english,5,3,english,2024-01-25 10:40:30.331193,False,1,59,sounds\french\audio/french_745.wav,"[[  0.          -8.32888314]
 [  0.1         -6.05023993]
 [  0.2         14.20117391]
 [  0.3          9.72422027]
 [  0.4         61.94285409]
 [  0.5         16.9242065 ]
 [  0.6        -73.99150176]
 [  0.7        -68.75802198]
 [  0.8         30.41524691]
 [  0.9        -73.26315303]
 [  1.          67.07087991]
 [  1.1         37.63567308]
 [  1.14141667  72.47019106]]","[[0.         1.09732397]
 [0.1        1.87088692]
 [0.2        1.54181536]
 [0.3        0.66469183]
 [0.4        0.06080466]
 [0.5        0.4761387 ]
 [0.6        0.98624315]
 [0.7        1.75579455]
 [0.8        0.49603864]
 [0.9        1.28396811]
 [1.         1.04819189]
 [1.1        1.07853657]
 [1.14141667 1.51225642]]",1,4.324
8731029739,f,22,english,5,3,english,2024-01-25 10:40:30.331193,False,1,60,sounds\french\audio/french_412.wav,"[[  0.          80.33750743]
 [  0.1         50.4773299 ]
 [  0.2          7.50934865]
 [  0.3         -9.23463682]
 [  0.4          9.13658121]
 [  0.5         11.12128685]
 [  0.6        -94.30640228]
 [  0.7        -51.41178114]
 [  0.8         28.26572128]
 [  0.9        -71.75232094]
 [  1.          86.09965629]
 [  1.1         27.28800681]
 [  1.14141667  32.1776899 ]]","[[0.         1.13543916]
 [0.1        1.15832638]
 [0.2        0.2432056 ]
 [0.3        1.81011187]
 [0.4        0.142234  ]
 [0.5        1.17532286]
 [0.6        1.06397509]
 [0.7        1.83631312]
 [0.8        1.0285842 ]
 [0.9        1.74888075]
 [1.         1.95722924]
 [1.1        1.49997067]
 [1.14141667 0.76864943]]",0,11.726
8731029739,f,22,english,5,3,english,2024-01-25 10:40:30.331193,False,1,61,sounds\french\audio/french_537.wav,"[[  0.         -70.42232238]
 [  0.1        -63.79861737]
 [  0.2         80.15379792]
 [  0.3        -34.87323386]
 [  0.4        -97.49401193]
 [  0.5        -75.02904728]
 [  0.6         88.01304316]
 [  0.7         57.25012965]
 [  0.8        -34.47690346]
 [  0.9          2.26660201]
 [  1.         -37.62355762]
 [  1.1         -8.96459096]
 [  1.14141667 -65.74543059]]","[[0.         1.1949198 ]
 [0.1        0.86017995]
 [0.2        1.22540727]
 [0.3        0.58113387]
 [0.4        0.63475004]
 [0.5        1.70548795]
 [0.6        0.65284568]
 [0.7        1.05406598]
 [0.8        1.3603352 ]
 [0.9        1.51124063]
 [1.         1.53115779]
 [1.1        1.18349734]
 [1.14141667 1.59300288]]",0,6.09
8731029739,f,22,english,5,3,english,2024-01-25 10:40:30.331193,False,1,62,sounds\french\audio/french_543.wav,"[[  0.         -44.87823344]
 [  0.1        -85.25635594]
 [  0.2         77.65163946]
 [  0.3         35.41596957]
 [  0.4         96.96992015]
 [  0.5         30.99132482]
 [  0.6         27.1908954 ]
 [  0.7        -73.42015814]
 [  0.8         72.47089611]
 [  0.9        -89.08509908]
 [  1.         -49.62569554]
 [  1.1         25.36303007]
 [  1.14141667  86.26803899]]","[[0.         1.22092405]
 [0.1        0.90741811]
 [0.2        1.977523  ]
 [0.3        1.08318728]
 [0.4        0.30163476]
 [0.5        0.77672099]
 [0.6        0.66664394]
 [0.7        1.22725994]
 [0.8        1.04026949]
 [0.9        0.57432911]
 [1.         1.03178191]
 [1.1        1.3294638 ]
 [1.14141667 1.02742546]]",0,3.339
8731029739,f,22,english,5,3,english,2024-01-25 10:40:30.331193,False,1,63,sounds\french\audio/french_18.wav,"[[  0.          93.52743688]
 [  0.1         75.80838578]
 [  0.2         -9.29580861]
 [  0.3        -14.85608386]
 [  0.4         47.7084462 ]
 [  0.5        -86.34780257]
 [  0.6         56.10837569]
 [  0.7        -52.07621897]
 [  0.8         35.05417357]
 [  0.9         46.67766368]
 [  1.         -74.34797605]
 [  1.1        -14.43524118]
 [  1.14141667  27.72939281]]","[[0.         0.76387958]
 [0.1        1.75297182]
 [0.2        0.15580834]
 [0.3        1.56760651]
 [0.4        0.03729265]
 [0.5        1.22925424]
 [0.6        0.55659065]
 [0.7        1.75613793]
 [0.8        0.81523904]
 [0.9        0.36189217]
 [1.         1.53764015]
 [1.1        1.56618903]
 [1.14141667 1.06338948]]",1,3.548
8731029739,f,22,english,5,3,english,2024-01-25 10:40:30.331193,False,1,64,sounds\french\audio/french_296.wav,"[[  0.           5.2871598 ]
 [  0.1        -48.61067267]
 [  0.2        -20.76740992]
 [  0.3        -35.50442874]
 [  0.4        -35.53990327]
 [  0.5         20.53355283]
 [  0.6         12.20867078]
 [  0.7         -1.23368306]
 [  0.8         56.93816681]
 [  0.9        -72.46364669]
 [  1.          11.78008614]
 [  1.1         -0.25420926]
 [  1.14141667 -64.24241885]]","[[0.         1.49161507]
 [0.1        1.35547964]
 [0.2        0.83001431]
 [0.3        0.15289187]
 [0.4        0.1914254 ]
 [0.5        1.48451111]
 [0.6        1.26246457]
 [0.7        1.23141276]
 [0.8        0.38877565]
 [0.9        1.84186953]
 [1.         0.37442511]
 [1.1        1.6971742 ]
 [1.14141667 0.23672818]]",0,1.702
8731029739,f,22,english,5,3,english,2024-01-25 10:40:30.331193,False,1,65,sounds\french\audio/french_825.wav,"[[  0.          -8.66035044]
 [  0.1         11.88684572]
 [  0.2         23.35041769]
 [  0.3        -37.90327363]
 [  0.4         45.26650228]
 [  0.5         12.4690991 ]
 [  0.6         58.54250001]
 [  0.7         58.24910466]
 [  0.8        -35.3411559 ]
 [  0.9        -53.99539951]
 [  1.         -76.41563875]
 [  1.1         34.96634112]
 [  1.14141667  39.45751875]]","[[0.         0.70372859]
 [0.1        1.47681639]
 [0.2        0.64470435]
 [0.3        1.56559927]
 [0.4        1.14051426]
 [0.5        1.60497973]
 [0.6        0.30568471]
 [0.7        1.81700224]
 [0.8        1.43759129]
 [0.9        0.25921988]
 [1.         1.68099514]
 [1.1        1.15112209]
 [1.14141667 1.32420089]]",0,0.695
8731029739,f,22,english,5,3,english,2024-01-25 10:40:30.331193,False,1,66,sounds\french\audio/french_584.wav,"[[  0.         -53.64248655]
 [  0.1         87.73837185]
 [  0.2        -76.07432913]
 [  0.3        -82.64271669]
 [  0.4         95.13100452]
 [  0.5          0.46314255]
 [  0.6         84.32306812]
 [  0.7        -11.04836818]
 [  0.8         -2.39275169]
 [  0.9        -87.18946495]
 [  1.          31.75007249]
 [  1.1        -75.12996198]
 [  1.14141667  89.37224699]]","[[0.         1.38891122]
 [0.1        0.52599003]
 [0.2        0.86644444]
 [0.3        0.7067956 ]
 [0.4        0.85039222]
 [0.5        1.91311542]
 [0.6        1.87701513]
 [0.7        0.4258787 ]
 [0.8        1.64061013]
 [0.9        0.64403551]
 [1.         0.40232597]
 [1.1        1.36523835]
 [1.14141667 1.64588011]]",0,3.047
8731029739,f,22,english,5,3,english,2024-01-25 10:40:30.331193,False,1,67,sounds\french\audio/french_608.wav,"[[  0.         -30.86247379]
 [  0.1         72.26893528]
 [  0.2         28.06407444]
 [  0.3          5.69112166]
 [  0.4        -89.82873455]
 [  0.5        -94.47368142]
 [  0.6         87.02077085]
 [  0.7         45.62068099]
 [  0.8         17.9702258 ]
 [  0.9        -83.67929995]
 [  1.          11.26047712]
 [  1.1        -17.34118799]
 [  1.14141667  58.61545887]]","[[0.         1.5835974 ]
 [0.1        1.06170467]
 [0.2        1.27495408]
 [0.3        0.05673097]
 [0.4        1.69011547]
 [0.5        1.30432872]
 [0.6        0.95720889]
 [0.7        1.61346479]
 [0.8        1.94079828]
 [0.9        1.39950728]
 [1.         1.54288228]
 [1.1        1.65188017]
 [1.14141667 0.6480034 ]]",0,0.436
8731029739,f,22,english,5,3,english,2024-01-25 10:40:30.331193,False,1,68,sounds\french\audio/french_149.wav,"[[  0.         -39.24757442]
 [  0.1        -86.18219657]
 [  0.2        -13.61536358]
 [  0.3        -24.98862495]
 [  0.4        -41.39150035]
 [  0.5        -47.18477201]
 [  0.6        -50.56052992]
 [  0.7          3.25241095]
 [  0.8         62.92939976]
 [  0.9         27.80744465]
 [  1.          16.1564755 ]
 [  1.1        -49.86608269]
 [  1.14141667  76.57182651]]","[[0.         0.32520083]
 [0.1        0.94148503]
 [0.2        0.80565461]
 [0.3        1.81554076]
 [0.4        0.11227969]
 [0.5        0.07859168]
 [0.6        1.79560045]
 [0.7        1.45138785]
 [0.8        0.63051937]
 [0.9        1.00831203]
 [1.         1.89158982]
 [1.1        1.26890157]
 [1.14141667 0.76086528]]",0,0.995
8731029739,f,22,english,5,3,english,2024-01-25 10:40:30.331193,False,1,69,sounds\french\audio/french_573.wav,"[[  0.          -8.63416318]
 [  0.1         16.80813537]
 [  0.2         19.45481032]
 [  0.3        -44.5400907 ]
 [  0.4         99.1841253 ]
 [  0.5         22.11415525]
 [  0.6         38.23336035]
 [  0.7         16.03528662]
 [  0.8         45.03300228]
 [  0.9         78.94117461]
 [  1.         -19.40506878]
 [  1.1        -17.6448819 ]
 [  1.14141667 -27.52502811]]","[[0.         1.15935124]
 [0.1        1.79152654]
 [0.2        1.92024926]
 [0.3        0.49878224]
 [0.4        1.61702434]
 [0.5        1.71130334]
 [0.6        1.32813862]
 [0.7        0.51058126]
 [0.8        1.81453438]
 [0.9        0.03550179]
 [1.         1.7614801 ]
 [1.1        0.49774487]
 [1.14141667 1.11116609]]",1,4.505
8731029739,f,22,english,5,3,english,2024-01-25 10:40:30.331193,False,1,70,sounds\french\audio/french_892.wav,"[[  0.           2.48516085]
 [  0.1        -76.22143396]
 [  0.2         93.28499715]
 [  0.3         12.13691899]
 [  0.4        -69.30233484]
 [  0.5         20.86949567]
 [  0.6        -38.30390535]
 [  0.7        -51.39274588]
 [  0.8         66.90425757]
 [  0.9        -53.91373226]
 [  1.          17.61869839]
 [  1.1        -34.76358151]
 [  1.14141667  15.85772352]]","[[0.         0.58260241]
 [0.1        1.93950295]
 [0.2        0.79251677]
 [0.3        1.61878069]
 [0.4        0.35146725]
 [0.5        1.82455818]
 [0.6        1.06886099]
 [0.7        1.74424774]
 [0.8        1.75805462]
 [0.9        1.69854439]
 [1.         0.60409156]
 [1.1        0.5214224 ]
 [1.14141667 1.48692913]]",1,10.431
8731029739,f,22,english,5,3,english,2024-01-25 10:40:30.331193,False,1,71,sounds\french\audio/french_233.wav,"[[  0.         -80.8753154 ]
 [  0.1         42.39128957]
 [  0.2         36.07188389]
 [  0.3         50.61380491]
 [  0.4         77.53573111]
 [  0.5         37.16272325]
 [  0.6        -87.06926926]
 [  0.7         10.98767449]
 [  0.8         68.13368356]
 [  0.9         19.59187928]
 [  1.          35.33717777]
 [  1.1        -57.71918366]
 [  1.14141667 -17.91280559]]","[[0.         1.54494018]
 [0.1        0.25453535]
 [0.2        1.05123556]
 [0.3        0.33961228]
 [0.4        1.70138916]
 [0.5        0.94068903]
 [0.6        1.40166291]
 [0.7        0.1496064 ]
 [0.8        0.52136921]
 [0.9        0.72886143]
 [1.         1.70329451]
 [1.1        0.15873144]
 [1.14141667 0.70900055]]",1,1.841
8731029739,f,22,english,5,3,english,2024-01-25 10:40:30.331193,False,1,72,sounds\french\audio/french_947.wav,"[[  0.          74.11181953]
 [  0.1         77.13369973]
 [  0.2         88.17713228]
 [  0.3        -23.55252616]
 [  0.4         29.65801923]
 [  0.5        -69.01848253]
 [  0.6        -28.7020507 ]
 [  0.7        -92.17619984]
 [  0.8        -36.30210181]
 [  0.9         21.44134056]
 [  1.         -89.45827175]
 [  1.1        -96.98494763]
 [  1.14141667  -8.8786906 ]]","[[0.         0.64731536]
 [0.1        1.23227619]
 [0.2        1.55440327]
 [0.3        1.09655338]
 [0.4        0.55037335]
 [0.5        1.05019014]
 [0.6        1.09970152]
 [0.7        0.0368249 ]
 [0.8        1.66906697]
 [0.9        1.08042493]
 [1.         1.58321133]
 [1.1        0.55777652]
 [1.14141667 0.9557999 ]]",0,0.647
8731029739,f,22,english,5,3,english,2024-01-25 10:40:30.331193,False,1,73,sounds\french\audio/french_957.wav,"[[  0.          12.88644625]
 [  0.1         18.70253323]
 [  0.2         63.85450626]
 [  0.3        -60.64060755]
 [  0.4        -90.62123275]
 [  0.5         24.73093513]
 [  0.6        -79.40998292]
 [  0.7         99.89533842]
 [  0.8        -82.08813401]
 [  0.9        -46.39069699]
 [  1.         -76.81702111]
 [  1.1         65.90507306]
 [  1.14141667  15.50319114]]","[[0.         0.94965628]
 [0.1        0.59858398]
 [0.2        0.52603788]
 [0.3        1.4306776 ]
 [0.4        1.89873251]
 [0.5        1.80457899]
 [0.6        0.32316389]
 [0.7        0.77051068]
 [0.8        0.69662658]
 [0.9        0.26903226]
 [1.         0.24465655]
 [1.1        1.35119799]
 [1.14141667 1.75217446]]",1,2.39
8731029739,f,22,english,5,3,english,2024-01-25 10:40:30.331193,False,1,74,sounds\french\audio/french_374.wav,"[[  0.         -73.36770619]
 [  0.1         36.09124315]
 [  0.2         30.41930424]
 [  0.3          3.27623503]
 [  0.4        -73.34149579]
 [  0.5         86.86435605]
 [  0.6         24.4857118 ]
 [  0.7        -69.31227427]
 [  0.8        -24.89700854]
 [  0.9        -28.99159538]
 [  1.          90.51139416]
 [  1.1        -31.91151107]
 [  1.14141667  -3.72146175]]","[[0.         1.8243985 ]
 [0.1        0.19967439]
 [0.2        0.45303578]
 [0.3        0.80405214]
 [0.4        1.42028051]
 [0.5        1.98711767]
 [0.6        1.99384715]
 [0.7        1.54038495]
 [0.8        1.02830185]
 [0.9        1.86032293]
 [1.         0.94233535]
 [1.1        1.17580502]
 [1.14141667 0.33217699]]",0,1.076
8731029739,f,22,english,5,3,english,2024-01-25 10:40:30.331193,False,1,75,sounds\french\audio/french_345.wav,"[[  0.          13.09525802]
 [  0.1        -30.73655165]
 [  0.2        -41.41787841]
 [  0.3        -27.41607462]
 [  0.4         65.96264987]
 [  0.5        -12.5205808 ]
 [  0.6         23.42963683]
 [  0.7         17.17324325]
 [  0.8         50.15361308]
 [  0.9        -38.8739224 ]
 [  1.          89.36825946]
 [  1.1        -15.68002415]
 [  1.14141667  48.64961952]]","[[0.         1.99053131]
 [0.1        0.8293688 ]
 [0.2        1.36131847]
 [0.3        0.38116236]
 [0.4        0.42669187]
 [0.5        0.21770013]
 [0.6        0.18330203]
 [0.7        0.90437628]
 [0.8        0.95975331]
 [0.9        1.62391323]
 [1.         1.55285479]
 [1.1        1.85322211]
 [1.14141667 1.01370759]]",0,1.025
8731029739,f,22,english,5,3,english,2024-01-25 10:40:30.331193,False,1,76,sounds\french\audio/french_126.wav,"[[  0.         -47.50319365]
 [  0.1          7.1744106 ]
 [  0.2        -57.32327794]
 [  0.3         31.39211364]
 [  0.4         53.99094674]
 [  0.5        -26.25701214]
 [  0.6        -77.34266557]
 [  0.7        -34.04180886]
 [  0.8         86.39853896]
 [  0.9         86.34329163]
 [  1.         -48.32443869]
 [  1.1        -43.96297419]
 [  1.14141667  18.70995966]]","[[0.         1.7258072 ]
 [0.1        1.03228838]
 [0.2        0.24012817]
 [0.3        0.38913186]
 [0.4        0.22087612]
 [0.5        1.50069545]
 [0.6        1.97351318]
 [0.7        1.74293994]
 [0.8        0.68176609]
 [0.9        0.61357482]
 [1.         1.25399236]
 [1.1        1.03394671]
 [1.14141667 0.12686828]]",0,1.504
8731029739,f,22,english,5,3,english,2024-01-25 10:40:30.331193,False,1,77,sounds\french\audio/french_856.wav,"[[  0.          -0.93889544]
 [  0.1         90.07982384]
 [  0.2         22.28999256]
 [  0.3        -70.55357194]
 [  0.4        -39.36048444]
 [  0.5         80.72578613]
 [  0.6        -38.29184104]
 [  0.7         80.58102018]
 [  0.8         72.71158308]
 [  0.9        -45.84185553]
 [  1.          43.65872365]
 [  1.1         70.34512494]
 [  1.14141667 -74.99468932]]","[[0.         1.28603939]
 [0.1        1.96490125]
 [0.2        0.30855118]
 [0.3        1.81394373]
 [0.4        1.50076133]
 [0.5        0.90391841]
 [0.6        0.70323297]
 [0.7        1.65396101]
 [0.8        0.93078739]
 [0.9        0.5298796 ]
 [1.         1.25026146]
 [1.1        1.14846561]
 [1.14141667 1.91922666]]",0,1.318
8731029739,f,22,english,5,3,english,2024-01-25 10:40:30.331193,False,1,78,sounds\french\audio/french_762.wav,"[[  0.         -58.12229052]
 [  0.1        -14.77350677]
 [  0.2         54.6713271 ]
 [  0.3        -40.90961907]
 [  0.4        -58.09703168]
 [  0.5         69.97242743]
 [  0.6         16.84172576]
 [  0.7         75.48068622]
 [  0.8        -58.94157604]
 [  0.9         44.93279187]
 [  1.         -70.94196175]
 [  1.1        -49.70042392]
 [  1.14141667  20.69121196]]","[[0.         0.21129852]
 [0.1        0.91239865]
 [0.2        1.23280243]
 [0.3        1.70520871]
 [0.4        1.68630109]
 [0.5        1.73739259]
 [0.6        1.78407027]
 [0.7        1.90214956]
 [0.8        1.23208501]
 [0.9        1.10717751]
 [1.         1.38101187]
 [1.1        1.55049932]
 [1.14141667 0.62647488]]",0,4.565
8731029739,f,22,english,5,3,english,2024-01-25 10:40:30.331193,False,1,79,sounds\french\audio/french_49.wav,"[[  0.          34.21091053]
 [  0.1        -12.94242268]
 [  0.2        -38.75700808]
 [  0.3         48.08306047]
 [  0.4         31.71568496]
 [  0.5        -78.74497046]
 [  0.6        -55.27969049]
 [  0.7        -83.02012222]
 [  0.8        -46.98717743]
 [  0.9         37.86593938]
 [  1.          -5.78985665]
 [  1.1         34.38441762]
 [  1.14141667 -87.14259119]]","[[0.         1.13592166]
 [0.1        0.4905038 ]
 [0.2        0.38893826]
 [0.3        1.24492594]
 [0.4        0.89198724]
 [0.5        1.00913594]
 [0.6        1.48457037]
 [0.7        0.96455629]
 [0.8        0.84518   ]
 [0.9        1.17639224]
 [1.         1.3841566 ]
 [1.1        1.43637848]
 [1.14141667 0.6107386 ]]",0,0.869
8731029739,f,22,english,5,3,english,2024-01-25 10:40:30.331193,False,1,80,sounds\french\audio/french_955.wav,"[[  0.         -94.25756264]
 [  0.1        -34.03260107]
 [  0.2        -13.41635507]
 [  0.3        -71.54807008]
 [  0.4        -77.331913  ]
 [  0.5        -50.91677929]
 [  0.6        -49.3272692 ]
 [  0.7         14.98823062]
 [  0.8        -92.82474453]
 [  0.9         52.03391348]
 [  1.         -96.34521909]
 [  1.1         -2.783526  ]
 [  1.14141667  38.46492665]]","[[0.         0.84151631]
 [0.1        0.64154244]
 [0.2        0.7407158 ]
 [0.3        0.93666894]
 [0.4        1.77494387]
 [0.5        1.86091326]
 [0.6        0.93752328]
 [0.7        1.66003137]
 [0.8        0.78633884]
 [0.9        1.69754994]
 [1.         1.91328734]
 [1.1        0.45528324]
 [1.14141667 0.73678697]]",0,1.687
8731029739,f,22,english,5,3,english,2024-01-25 10:40:30.331193,False,1,81,sounds\french\audio/french_442.wav,"[[  0.          59.89348182]
 [  0.1        -90.19745983]
 [  0.2         34.97525188]
 [  0.3        -60.10498495]
 [  0.4        -52.20535883]
 [  0.5         33.32923329]
 [  0.6        -72.02089693]
 [  0.7         15.91732192]
 [  0.8         49.50947125]
 [  0.9        -96.72595223]
 [  1.          12.6942829 ]
 [  1.1        -57.11899111]
 [  1.14141667  36.89213251]]","[[0.         1.93338354]
 [0.1        0.1221368 ]
 [0.2        1.40375233]
 [0.3        0.23715052]
 [0.4        0.86935067]
 [0.5        1.40007492]
 [0.6        1.87875592]
 [0.7        1.15703728]
 [0.8        1.45583236]
 [0.9        0.52053121]
 [1.         0.18849311]
 [1.1        1.67578542]
 [1.14141667 0.36635536]]",0,1.66
8731029739,f,22,english,5,3,english,2024-01-25 10:40:30.331193,False,1,82,sounds\french\audio/french_819.wav,"[[  0.           3.5433124 ]
 [  0.1         34.67580474]
 [  0.2         52.06096148]
 [  0.3        -11.68829783]
 [  0.4        -55.43273777]
 [  0.5        -69.12141051]
 [  0.6         -6.92352796]
 [  0.7        -30.91883779]
 [  0.8         65.5281881 ]
 [  0.9        -41.62316532]
 [  1.         -72.0133608 ]
 [  1.1         34.83208876]
 [  1.14141667 -43.5569199 ]]","[[0.         0.69924153]
 [0.1        0.59233338]
 [0.2        0.10786683]
 [0.3        0.82052849]
 [0.4        0.57964387]
 [0.5        1.16428723]
 [0.6        0.35573096]
 [0.7        1.23577296]
 [0.8        0.83715517]
 [0.9        1.18768042]
 [1.         1.9698724 ]
 [1.1        0.40899085]
 [1.14141667 1.30290544]]",0,3.238
8731029739,f,22,english,5,3,english,2024-01-25 10:40:30.331193,False,1,83,sounds\french\audio/french_465.wav,"[[  0.           5.88024496]
 [  0.1        -50.60926401]
 [  0.2        -75.32725367]
 [  0.3          3.44113157]
 [  0.4         29.4397182 ]
 [  0.5         45.10583861]
 [  0.6         62.97320654]
 [  0.7        -15.3501398 ]
 [  0.8        -21.75175408]
 [  0.9        -10.84821327]
 [  1.         -94.2934633 ]
 [  1.1        -58.56218585]
 [  1.14141667  30.34802461]]","[[0.         1.03079141]
 [0.1        0.07909505]
 [0.2        0.13211547]
 [0.3        0.90615472]
 [0.4        0.84429779]
 [0.5        0.8526434 ]
 [0.6        0.36671109]
 [0.7        0.46700394]
 [0.8        1.52127731]
 [0.9        0.1624174 ]
 [1.         1.32493274]
 [1.1        0.29025247]
 [1.14141667 0.5468785 ]]",0,4.758
8731029739,f,22,english,5,3,english,2024-01-25 10:40:30.331193,False,1,84,sounds\french\audio/french_793.wav,"[[  0.           0.61381663]
 [  0.1         92.05397349]
 [  0.2         23.63919485]
 [  0.3         94.74337544]
 [  0.4         -4.85245867]
 [  0.5        -56.1365957 ]
 [  0.6        -40.34456192]
 [  0.7         -4.58487531]
 [  0.8         51.30918321]
 [  0.9         30.18198808]
 [  1.          16.73684117]
 [  1.1         54.14621512]
 [  1.14141667 -25.30748168]]","[[0.         0.26180926]
 [0.1        1.13910564]
 [0.2        0.88267261]
 [0.3        0.03736754]
 [0.4        0.51925045]
 [0.5        0.99207172]
 [0.6        0.90668955]
 [0.7        1.38132635]
 [0.8        0.53966259]
 [0.9        0.34803119]
 [1.         0.51822744]
 [1.1        0.88562178]
 [1.14141667 1.30234483]]",0,3.823
8731029739,f,22,english,5,3,english,2024-01-25 10:40:30.331193,False,1,85,sounds\french\audio/french_541.wav,"[[  0.           2.74676595]
 [  0.1         83.23215627]
 [  0.2        -19.5310813 ]
 [  0.3        -37.06653527]
 [  0.4         10.34316696]
 [  0.5        -44.77981601]
 [  0.6        -15.46722486]
 [  0.7        -30.03274479]
 [  0.8         32.22050065]
 [  0.9        -28.45977879]
 [  1.         -97.18959003]
 [  1.1         46.93949027]
 [  1.14141667  51.98067408]]","[[0.         1.22388571]
 [0.1        0.59489091]
 [0.2        0.0302362 ]
 [0.3        1.44440055]
 [0.4        0.76671296]
 [0.5        1.21683481]
 [0.6        0.28594328]
 [0.7        1.70659675]
 [0.8        0.5056851 ]
 [0.9        1.08036446]
 [1.         1.82748837]
 [1.1        1.15452478]
 [1.14141667 0.582253  ]]",0,0.685
8731029739,f,22,english,5,3,english,2024-01-25 10:40:30.331193,False,1,86,sounds\french\audio/french_660.wav,"[[  0.         -37.71510641]
 [  0.1        -51.81416614]
 [  0.2          4.10351711]
 [  0.3         -3.46148296]
 [  0.4         34.89398508]
 [  0.5        -22.68565324]
 [  0.6        -48.78238306]
 [  0.7         35.92338582]
 [  0.8         41.13919158]
 [  0.9         36.80052876]
 [  1.         -27.8791645 ]
 [  1.1         -0.18086637]
 [  1.14141667 -46.57940535]]","[[0.         0.65271068]
 [0.1        0.95176002]
 [0.2        1.39790786]
 [0.3        0.28536613]
 [0.4        0.45403895]
 [0.5        1.25725192]
 [0.6        1.02526608]
 [0.7        0.65449001]
 [0.8        1.63115139]
 [0.9        1.24820992]
 [1.         0.72272253]
 [1.1        1.66540582]
 [1.14141667 0.10395667]]",1,0.8
8731029739,f,22,english,5,3,english,2024-01-25 10:40:30.331193,False,1,87,sounds\french\audio/french_592.wav,"[[  0.          70.81103316]
 [  0.1        -26.4080383 ]
 [  0.2         -0.21646814]
 [  0.3          5.07209888]
 [  0.4          0.60727661]
 [  0.5         -4.25807997]
 [  0.6        -57.11909805]
 [  0.7        -40.92130442]
 [  0.8         57.21863493]
 [  0.9         70.04761432]
 [  1.         -50.9301359 ]
 [  1.1        -84.24132436]
 [  1.14141667 -46.29341041]]","[[0.         0.54665666]
 [0.1        0.88508354]
 [0.2        1.19588417]
 [0.3        0.17214274]
 [0.4        0.84375355]
 [0.5        1.80777341]
 [0.6        0.71388549]
 [0.7        1.31000832]
 [0.8        0.43276947]
 [0.9        1.73827866]
 [1.         0.70932726]
 [1.1        0.23430707]
 [1.14141667 1.11453021]]",0,0.54
8731029739,f,22,english,5,3,english,2024-01-25 10:40:30.331193,False,1,88,sounds\french\audio/french_566.wav,"[[  0.         -16.96845305]
 [  0.1         84.38851632]
 [  0.2         41.85960526]
 [  0.3        -39.90379286]
 [  0.4         20.08999337]
 [  0.5         -6.78108425]
 [  0.6         72.17198407]
 [  0.7          9.98770154]
 [  0.8        -19.58429309]
 [  0.9         -9.24609078]
 [  1.         -71.96197816]
 [  1.1         93.08203499]
 [  1.14141667 -67.92077118]]","[[0.         1.17622885]
 [0.1        1.73242098]
 [0.2        0.81564824]
 [0.3        1.52203287]
 [0.4        1.59966219]
 [0.5        1.81966132]
 [0.6        0.1494381 ]
 [0.7        0.70489318]
 [0.8        0.97523256]
 [0.9        1.39455087]
 [1.         1.80039842]
 [1.1        1.02671829]
 [1.14141667 0.56763023]]",0,2.33
8731029739,f,22,english,5,3,english,2024-01-25 10:40:30.331193,False,1,89,sounds\french\audio/french_546.wav,"[[  0.         -13.20812947]
 [  0.1         -8.37020236]
 [  0.2         57.48789341]
 [  0.3        -11.78127808]
 [  0.4        -26.00594078]
 [  0.5         -3.33648258]
 [  0.6         -1.73835095]
 [  0.7         17.1570367 ]
 [  0.8         37.36365726]
 [  0.9          8.15656678]
 [  1.          -8.08158861]
 [  1.1          5.60886703]
 [  1.14141667 -59.33959304]]","[[0.         0.61614772]
 [0.1        1.06411131]
 [0.2        1.60441563]
 [0.3        0.66409069]
 [0.4        1.03544668]
 [0.5        0.99289071]
 [0.6        0.28199712]
 [0.7        0.98444234]
 [0.8        0.65105351]
 [0.9        1.40961932]
 [1.         1.13622797]
 [1.1        0.04199534]
 [1.14141667 1.17471858]]",1,2.252
8731029739,f,22,english,5,3,english,2024-01-25 10:40:30.331193,False,1,90,sounds\french\audio/french_530.wav,"[[  0.         -19.54532034]
 [  0.1         14.05064237]
 [  0.2         -4.28719519]
 [  0.3         19.85899102]
 [  0.4        -38.64583351]
 [  0.5        -79.11829367]
 [  0.6         60.711198  ]
 [  0.7         -5.6168249 ]
 [  0.8         80.65968589]
 [  0.9        -41.24747481]
 [  1.          27.78155806]
 [  1.1        -10.91699521]
 [  1.14141667  73.68517157]]","[[0.         0.34679573]
 [0.1        1.94208709]
 [0.2        0.85640382]
 [0.3        0.90119464]
 [0.4        1.56090172]
 [0.5        1.85535128]
 [0.6        1.68425563]
 [0.7        0.78685771]
 [0.8        1.17779403]
 [0.9        0.23085455]
 [1.         1.18446225]
 [1.1        1.46392077]
 [1.14141667 0.22350715]]",0,1.602
8731029739,f,22,english,5,3,english,2024-01-25 10:40:30.331193,False,1,91,sounds\french\audio/french_701.wav,"[[  0.          13.86918761]
 [  0.1         25.98390225]
 [  0.2         62.79635394]
 [  0.3         67.80376008]
 [  0.4        -54.23175366]
 [  0.5        -42.04160911]
 [  0.6        -58.41766146]
 [  0.7         90.23612499]
 [  0.8         80.19297104]
 [  0.9        -45.72951024]
 [  1.          35.47554357]
 [  1.1         25.09086311]
 [  1.14141667 -71.61211297]]","[[0.         0.63182109]
 [0.1        1.85758869]
 [0.2        1.68485958]
 [0.3        0.50866318]
 [0.4        1.37500116]
 [0.5        0.8503416 ]
 [0.6        0.53241727]
 [0.7        1.86464457]
 [0.8        1.8007814 ]
 [0.9        1.24365205]
 [1.         1.16086821]
 [1.1        0.27592984]
 [1.14141667 0.34423902]]",0,0.701
8731029739,f,22,english,5,3,english,2024-01-25 10:40:30.331193,False,1,92,sounds\french\audio/french_776.wav,"[[  0.         -48.17423645]
 [  0.1         70.47241533]
 [  0.2        -25.19523269]
 [  0.3         87.43097705]
 [  0.4        -31.8700143 ]
 [  0.5         85.54136389]
 [  0.6        -67.05238836]
 [  0.7         63.29487245]
 [  0.8        -91.58850078]
 [  0.9        -92.53289931]
 [  1.          -7.51119873]
 [  1.1        -98.58910198]
 [  1.14141667 -80.10890934]]","[[0.         0.77631494]
 [0.1        0.30206355]
 [0.2        0.58442509]
 [0.3        1.0473267 ]
 [0.4        1.39697119]
 [0.5        1.2447418 ]
 [0.6        1.41470132]
 [0.7        0.48396717]
 [0.8        0.48226026]
 [0.9        1.44155104]
 [1.         1.57581197]
 [1.1        1.16160073]
 [1.14141667 0.05324504]]",0,0.584
8731029739,f,22,english,5,3,english,2024-01-25 10:40:30.331193,False,1,93,sounds\french\audio/french_281.wav,"[[  0.         -95.80336327]
 [  0.1         13.19102034]
 [  0.2         42.62860053]
 [  0.3         21.92016727]
 [  0.4         -2.97694346]
 [  0.5         -3.56004014]
 [  0.6        -28.69548466]
 [  0.7         -9.16727504]
 [  0.8          7.86062341]
 [  0.9        -95.03668578]
 [  1.         -83.63952968]
 [  1.1         74.11931798]
 [  1.14141667  32.00428404]]","[[0.         0.76183862]
 [0.1        1.51704684]
 [0.2        0.9408124 ]
 [0.3        0.14797413]
 [0.4        0.97581102]
 [0.5        0.67546432]
 [0.6        0.35656679]
 [0.7        1.28503381]
 [0.8        0.91616519]
 [0.9        1.72740892]
 [1.         0.79466522]
 [1.1        0.92967992]
 [1.14141667 1.54385024]]",0,0.729
8731029739,f,22,english,5,3,english,2024-01-25 10:40:30.331193,False,1,94,sounds\french\audio/french_362.wav,"[[  0.          41.03273498]
 [  0.1          9.58147449]
 [  0.2        -32.18625516]
 [  0.3         28.50669793]
 [  0.4        -88.53670297]
 [  0.5        -15.43899097]
 [  0.6        -14.99208648]
 [  0.7         30.73544721]
 [  0.8        -77.16176604]
 [  0.9         -8.39157052]
 [  1.          -0.4008465 ]
 [  1.1          4.11299021]
 [  1.14141667  49.09310712]]","[[0.         1.17434259]
 [0.1        1.0161357 ]
 [0.2        1.58908251]
 [0.3        0.746627  ]
 [0.4        0.02412489]
 [0.5        0.5408358 ]
 [0.6        1.97473796]
 [0.7        0.60459965]
 [0.8        1.44502859]
 [0.9        1.27495293]
 [1.         0.65103499]
 [1.1        0.57126771]
 [1.14141667 1.60326381]]",0,0.999
8731029739,f,22,english,5,3,english,2024-01-25 10:40:30.331193,False,1,95,sounds\french\audio/french_942.wav,"[[  0.         -62.67015298]
 [  0.1        -44.60103911]
 [  0.2         -4.08679527]
 [  0.3        -37.64081552]
 [  0.4        -42.81291345]
 [  0.5         99.15001601]
 [  0.6        -66.55575205]
 [  0.7        -63.38570027]
 [  0.8         93.42935186]
 [  0.9         69.12157289]
 [  1.          36.79091616]
 [  1.1        -89.21302821]
 [  1.14141667  37.71273628]]","[[0.         1.27040565]
 [0.1        1.40268587]
 [0.2        0.97903054]
 [0.3        0.5190488 ]
 [0.4        1.64087281]
 [0.5        1.90775185]
 [0.6        0.54156283]
 [0.7        1.6246396 ]
 [0.8        0.13921116]
 [0.9        1.82665335]
 [1.         0.51976887]
 [1.1        1.54438126]
 [1.14141667 1.42847   ]]",0,1.033
8731029739,f,22,english,5,3,english,2024-01-25 10:40:30.331193,False,1,96,sounds\french\audio/french_476.wav,"[[  0.           2.7094507 ]
 [  0.1        -87.7280692 ]
 [  0.2         73.10097617]
 [  0.3        -39.94037221]
 [  0.4        -70.77067891]
 [  0.5        -69.51890588]
 [  0.6         14.97450783]
 [  0.7         11.8314824 ]
 [  0.8        -94.87528551]
 [  0.9        -47.21116186]
 [  1.          77.98956327]
 [  1.1         27.75596283]
 [  1.14141667 -30.59689751]]","[[0.         1.35860471]
 [0.1        0.99732338]
 [0.2        0.39475379]
 [0.3        1.23972907]
 [0.4        1.89359737]
 [0.5        1.35568455]
 [0.6        0.10717939]
 [0.7        1.73146134]
 [0.8        1.80986266]
 [0.9        0.67970101]
 [1.         0.57105332]
 [1.1        0.99269413]
 [1.14141667 0.74836079]]",0,0.406
8731029739,f,22,english,5,3,english,2024-01-25 10:40:30.331193,False,1,97,sounds\french\audio/french_185.wav,"[[  0.          61.9665111 ]
 [  0.1         -9.67528114]
 [  0.2        -24.43848461]
 [  0.3        -22.73400218]
 [  0.4        -50.73837077]
 [  0.5        -80.54747318]
 [  0.6         -0.20993652]
 [  0.7         68.84584459]
 [  0.8        -15.95665439]
 [  0.9        -80.30357234]
 [  1.          -6.00916241]
 [  1.1         80.5457673 ]
 [  1.14141667  -0.48922047]]","[[0.         1.15780668]
 [0.1        0.19130474]
 [0.2        1.67912463]
 [0.3        1.52519722]
 [0.4        1.17122727]
 [0.5        1.8849469 ]
 [0.6        0.65476649]
 [0.7        0.97463014]
 [0.8        0.30159856]
 [0.9        1.31654976]
 [1.         0.73291132]
 [1.1        1.88613253]
 [1.14141667 1.34322598]]",0,0.388
8731029739,f,22,english,5,3,english,2024-01-25 10:40:30.331193,False,1,98,sounds\french\audio/french_523.wav,"[[  0.         -75.83581255]
 [  0.1        -63.95979745]
 [  0.2         70.70748816]
 [  0.3        -88.32485967]
 [  0.4          8.86467855]
 [  0.5        -78.35507958]
 [  0.6         79.68692287]
 [  0.7        -66.26307401]
 [  0.8         82.45368817]
 [  0.9          5.31615062]
 [  1.          52.29136848]
 [  1.1         84.25542057]
 [  1.14141667 -81.50074772]]","[[0.         1.74891242]
 [0.1        1.24637055]
 [0.2        1.089879  ]
 [0.3        0.1892634 ]
 [0.4        1.69433182]
 [0.5        1.04689272]
 [0.6        1.57985602]
 [0.7        0.43504497]
 [0.8        1.24932662]
 [0.9        0.10258394]
 [1.         0.36040908]
 [1.1        1.46217366]
 [1.14141667 0.41311824]]",0,1.224
8731029739,f,22,english,5,3,english,2024-01-25 10:40:30.331193,False,1,99,sounds\french\audio/french_678.wav,"[[  0.          24.19483128]
 [  0.1        -47.51642543]
 [  0.2         -3.91811007]
 [  0.3         32.18517105]
 [  0.4        -21.87097974]
 [  0.5         28.51645426]
 [  0.6         52.47804835]
 [  0.7         10.55383211]
 [  0.8         89.68033024]
 [  0.9        -20.04322085]
 [  1.         -64.98612207]
 [  1.1         75.98214859]
 [  1.14141667  82.29835908]]","[[0.         0.81436077]
 [0.1        1.1125399 ]
 [0.2        1.61070048]
 [0.3        1.15077733]
 [0.4        1.20781999]
 [0.5        0.74457904]
 [0.6        1.7292018 ]
 [0.7        1.1823552 ]
 [0.8        1.55182719]
 [0.9        0.17890882]
 [1.         0.04333149]
 [1.1        1.23856993]
 [1.14141667 1.33756429]]",1,2.302
8731029739,f,22,english,5,3,english,2024-01-25 10:40:30.331193,False,1,100,sounds\french\audio/french_1.wav,"[[  0.          26.36257075]
 [  0.1         14.94364535]
 [  0.2        -55.06667651]
 [  0.3          9.22256956]
 [  0.4          5.26534665]
 [  0.5        -77.31029628]
 [  0.6         18.7127075 ]
 [  0.7         48.0646471 ]
 [  0.8         14.57442759]
 [  0.9          7.89361979]
 [  1.          -7.03618507]
 [  1.1        -82.88207817]
 [  1.14141667   7.58831171]]","[[0.         0.46363332]
 [0.1        1.03691061]
 [0.2        1.41963097]
 [0.3        1.61805148]
 [0.4        1.72014778]
 [0.5        1.90147838]
 [0.6        0.04284443]
 [0.7        1.2283672 ]
 [0.8        1.41746685]
 [0.9        0.09918081]
 [1.         1.02614047]
 [1.1        1.00877048]
 [1.14141667 0.67836911]]",1,1.797
8731029739,f,22,english,5,3,english,2024-01-25 10:40:30.331193,False,1,101,sounds\french\audio/french_721.wav,"[[  0.          71.4664996 ]
 [  0.1        -29.81516222]
 [  0.2        -91.01314813]
 [  0.3         -6.30659731]
 [  0.4        -44.23104163]
 [  0.5        -43.35271237]
 [  0.6        -49.65472851]
 [  0.7        -29.63657547]
 [  0.8         85.39925536]
 [  0.9        -83.16878764]
 [  1.         -25.08819563]
 [  1.1         38.2926067 ]
 [  1.14141667  77.35172581]]","[[0.         0.49308796]
 [0.1        1.93963897]
 [0.2        0.90556613]
 [0.3        1.77056041]
 [0.4        0.67637582]
 [0.5        1.12060168]
 [0.6        0.71280726]
 [0.7        0.31790622]
 [0.8        0.19195943]
 [0.9        1.42167074]
 [1.         1.95663452]
 [1.1        1.90504851]
 [1.14141667 0.04583032]]",0,0.896
8731029739,f,22,english,5,3,english,2024-01-25 10:40:30.331193,False,1,102,sounds\french\audio/french_842.wav,"[[  0.         -14.6621915 ]
 [  0.1         58.26484617]
 [  0.2        -28.18109147]
 [  0.3        -40.73880456]
 [  0.4        -82.44418112]
 [  0.5         21.69569036]
 [  0.6        -66.1415884 ]
 [  0.7         94.24119963]
 [  0.8         88.68830767]
 [  0.9         54.23873464]
 [  1.          80.38497769]
 [  1.1         58.10558011]
 [  1.14141667 -78.08033462]]","[[0.         1.29563872]
 [0.1        1.98590439]
 [0.2        0.87867447]
 [0.3        1.23089187]
 [0.4        1.09137094]
 [0.5        1.30354814]
 [0.6        0.5635244 ]
 [0.7        0.77093559]
 [0.8        1.98831599]
 [0.9        0.57043998]
 [1.         1.5403888 ]
 [1.1        0.53885693]
 [1.14141667 0.32293885]]",1,4.522
8731029739,f,22,english,5,3,english,2024-01-25 10:40:30.331193,False,1,103,sounds\french\audio/french_964.wav,"[[  0.          33.09242733]
 [  0.1         35.00965651]
 [  0.2        -84.27771788]
 [  0.3        -43.99991395]
 [  0.4         85.17461764]
 [  0.5         34.90610351]
 [  0.6         44.52556005]
 [  0.7        -39.35993347]
 [  0.8        -59.26827617]
 [  0.9         -0.13276326]
 [  1.         -52.7984183 ]
 [  1.1        -26.03331608]
 [  1.14141667 -25.25531547]]","[[0.         0.20768895]
 [0.1        1.10634372]
 [0.2        1.24458485]
 [0.3        0.46794756]
 [0.4        1.27301034]
 [0.5        1.24864597]
 [0.6        1.11074861]
 [0.7        0.2163569 ]
 [0.8        1.15029488]
 [0.9        1.41986014]
 [1.         1.68989998]
 [1.1        0.52518862]
 [1.14141667 0.94660827]]",0,0.418
8731029739,f,22,english,5,3,english,2024-01-25 10:40:30.331193,False,1,104,sounds\french\audio/french_843.wav,"[[  0.           3.16503594]
 [  0.1         26.80395692]
 [  0.2         16.79385543]
 [  0.3        -35.60483384]
 [  0.4         18.52937613]
 [  0.5         37.26610196]
 [  0.6        -80.36118355]
 [  0.7        -87.10510064]
 [  0.8         35.50538366]
 [  0.9        -72.56191372]
 [  1.          -8.47223635]
 [  1.1         71.58119759]
 [  1.14141667  10.49120463]]","[[0.         0.09451126]
 [0.1        1.74509222]
 [0.2        0.77620576]
 [0.3        1.61358005]
 [0.4        1.57470559]
 [0.5        0.6926668 ]
 [0.6        0.58242689]
 [0.7        1.20976991]
 [0.8        1.8175096 ]
 [0.9        0.5430267 ]
 [1.         0.77082682]
 [1.1        1.76255625]
 [1.14141667 1.95278824]]",0,0.535
8731029739,f,22,english,5,3,english,2024-01-25 10:40:30.331193,False,1,105,sounds\french\audio/french_60.wav,"[[  0.          25.7464911 ]
 [  0.1         87.20203986]
 [  0.2        -50.39394843]
 [  0.3         25.74193782]
 [  0.4        -54.44783211]
 [  0.5         90.0512119 ]
 [  0.6          5.68380106]
 [  0.7        -25.02380081]
 [  0.8         38.66759697]
 [  0.9         81.62641489]
 [  1.         -24.74806571]
 [  1.1        -67.37189758]
 [  1.14141667 -53.83275741]]","[[0.         0.06694524]
 [0.1        0.46077619]
 [0.2        0.31765056]
 [0.3        1.59141486]
 [0.4        1.96325213]
 [0.5        1.28413586]
 [0.6        0.29715599]
 [0.7        0.87811315]
 [0.8        0.78303972]
 [0.9        0.28172983]
 [1.         1.81446766]
 [1.1        1.67994295]
 [1.14141667 1.25768325]]",0,0.399
8731029739,f,22,english,5,3,english,2024-01-25 10:40:30.331193,False,1,106,sounds\french\audio/french_779.wav,"[[  0.         -38.28425878]
 [  0.1        -19.73299362]
 [  0.2         -1.63971334]
 [  0.3        -13.00341001]
 [  0.4        -18.58635516]
 [  0.5        -89.98694193]
 [  0.6         92.32758461]
 [  0.7        -57.54469246]
 [  0.8        -77.17429957]
 [  0.9         -5.46434537]
 [  1.         -18.50514079]
 [  1.1         -7.2649165 ]
 [  1.14141667  -3.97761041]]","[[0.         1.14466513]
 [0.1        1.60046318]
 [0.2        0.66760831]
 [0.3        1.70247529]
 [0.4        0.17241517]
 [0.5        1.76793656]
 [0.6        1.36679993]
 [0.7        0.7012445 ]
 [0.8        1.36817327]
 [0.9        0.41680341]
 [1.         0.28529805]
 [1.1        1.0076311 ]
 [1.14141667 1.26738641]]",0,1.195
8731029739,f,22,english,5,3,english,2024-01-25 10:40:30.331193,False,1,107,sounds\french\audio/french_513.wav,"[[  0.          65.19779345]
 [  0.1        -53.85269578]
 [  0.2         82.41545201]
 [  0.3         50.60713048]
 [  0.4          7.11945043]
 [  0.5         91.42493583]
 [  0.6        -85.42924685]
 [  0.7         -8.28829678]
 [  0.8         14.83211799]
 [  0.9         76.72765657]
 [  1.         -52.57682729]
 [  1.1        -94.50783694]
 [  1.14141667 -21.60549074]]","[[0.         0.10751353]
 [0.1        1.47062647]
 [0.2        1.29367767]
 [0.3        1.84832062]
 [0.4        1.72946214]
 [0.5        0.50039447]
 [0.6        0.46361625]
 [0.7        0.32923248]
 [0.8        1.36965494]
 [0.9        0.90778718]
 [1.         1.26672765]
 [1.1        0.74549941]
 [1.14141667 0.4783076 ]]",1,1.203
8731029739,f,22,english,5,3,english,2024-01-25 10:40:30.331193,False,1,108,sounds\french\audio/french_635.wav,"[[  0.         -32.006425  ]
 [  0.1         98.74707192]
 [  0.2         19.43104605]
 [  0.3        -83.9130263 ]
 [  0.4        -14.55275882]
 [  0.5        -34.15529229]
 [  0.6         22.38890545]
 [  0.7        -11.42027576]
 [  0.8         88.98766127]
 [  0.9        -94.51548481]
 [  1.         -45.63563989]
 [  1.1         27.73920543]
 [  1.14141667 -59.05501484]]","[[0.         0.3460517 ]
 [0.1        1.36854871]
 [0.2        0.57268428]
 [0.3        1.65457572]
 [0.4        1.20009912]
 [0.5        0.09946247]
 [0.6        0.27678562]
 [0.7        0.68226029]
 [0.8        0.27295014]
 [0.9        1.75198478]
 [1.         0.9844266 ]
 [1.1        0.17766763]
 [1.14141667 0.29826397]]",0,0.539
8731029739,f,22,english,5,3,english,2024-01-25 10:40:30.331193,False,1,109,sounds\french\audio/french_64.wav,"[[  0.          81.21142121]
 [  0.1         52.51696492]
 [  0.2        -39.17561774]
 [  0.3         -2.55926089]
 [  0.4        -19.82016782]
 [  0.5        -96.27205137]
 [  0.6        -91.08602274]
 [  0.7         21.95313621]
 [  0.8        -83.87757175]
 [  0.9        -15.46224959]
 [  1.          99.28922275]
 [  1.1        -34.89576086]
 [  1.14141667 -88.74649368]]","[[0.         1.90047577]
 [0.1        0.82684284]
 [0.2        1.63922719]
 [0.3        1.09796892]
 [0.4        1.84824586]
 [0.5        0.08398419]
 [0.6        1.68744275]
 [0.7        1.11317645]
 [0.8        0.69266869]
 [0.9        1.31844382]
 [1.         1.05971477]
 [1.1        1.50408115]
 [1.14141667 0.80519135]]",0,0.385
8731029739,f,22,english,5,3,english,2024-01-25 10:40:30.331193,False,1,110,sounds\french\audio/french_603.wav,"[[  0.          19.6945105 ]
 [  0.1         53.62811089]
 [  0.2        -39.30903103]
 [  0.3         54.20589937]
 [  0.4        -95.2083084 ]
 [  0.5         29.46971661]
 [  0.6         -7.96409569]
 [  0.7         91.50199685]
 [  0.8         48.8288282 ]
 [  0.9         47.6951267 ]
 [  1.          89.55727136]
 [  1.1        -25.40894762]
 [  1.14141667 -65.1673552 ]]","[[0.         1.69967751]
 [0.1        0.5893267 ]
 [0.2        0.72876725]
 [0.3        0.31950758]
 [0.4        1.11794186]
 [0.5        0.00334081]
 [0.6        1.04777544]
 [0.7        0.15242204]
 [0.8        1.6691606 ]
 [0.9        1.19043437]
 [1.         1.93432652]
 [1.1        0.50605662]
 [1.14141667 1.63687901]]",1,6.842
8731029739,f,22,english,5,3,english,2024-01-25 10:40:30.331193,False,1,111,sounds\french\audio/french_579.wav,"[[  0.         -44.9724905 ]
 [  0.1          0.83845953]
 [  0.2         93.06026355]
 [  0.3        -62.41374452]
 [  0.4         20.02213112]
 [  0.5        -38.5151373 ]
 [  0.6         22.08241798]
 [  0.7        -58.17924339]
 [  0.8        -33.23197636]
 [  0.9         46.73979954]
 [  1.          -1.66986987]
 [  1.1        -43.99049691]
 [  1.14141667 -39.65764058]]","[[0.         1.96822281]
 [0.1        0.71149274]
 [0.2        0.47444189]
 [0.3        1.30095402]
 [0.4        1.46488426]
 [0.5        0.97233373]
 [0.6        0.80064838]
 [0.7        0.70983162]
 [0.8        0.45331315]
 [0.9        0.98403406]
 [1.         1.54220588]
 [1.1        0.41959049]
 [1.14141667 1.4912741 ]]",0,1.236
8731029739,f,22,english,5,3,english,2024-01-25 10:40:30.331193,False,1,112,sounds\french\audio/french_190.wav,"[[  0.         -84.78481836]
 [  0.1         29.20321027]
 [  0.2         71.02026604]
 [  0.3         37.89731146]
 [  0.4         34.75879188]
 [  0.5         77.81147551]
 [  0.6        -18.99656469]
 [  0.7         26.98882743]
 [  0.8        -33.86115457]
 [  0.9         22.61865263]
 [  1.          32.47086589]
 [  1.1        -79.69806843]
 [  1.14141667  67.93837124]]","[[0.         0.30111759]
 [0.1        0.52687699]
 [0.2        0.36945697]
 [0.3        1.56057188]
 [0.4        0.61390271]
 [0.5        1.27237332]
 [0.6        0.54829677]
 [0.7        0.77113773]
 [0.8        0.27810299]
 [0.9        0.84080076]
 [1.         1.24207539]
 [1.1        0.66945603]
 [1.14141667 0.50686976]]",0,0.8
8731029739,f,22,english,5,3,english,2024-01-25 10:40:30.331193,False,1,113,sounds\french\audio/french_365.wav,"[[  0.          31.61059752]
 [  0.1        -20.95390516]
 [  0.2         91.80675495]
 [  0.3         67.5510561 ]
 [  0.4        -93.71218293]
 [  0.5         45.32858601]
 [  0.6         84.27621414]
 [  0.7         28.03701536]
 [  0.8        -71.05958582]
 [  0.9        -23.72094953]
 [  1.          18.29479384]
 [  1.1        -12.82863724]
 [  1.14141667  67.22118203]]","[[0.         1.42310817]
 [0.1        1.52633282]
 [0.2        1.22938312]
 [0.3        1.26382278]
 [0.4        1.53091844]
 [0.5        0.15378173]
 [0.6        0.48106393]
 [0.7        1.79415704]
 [0.8        1.6034925 ]
 [0.9        1.30852528]
 [1.         0.76895664]
 [1.1        0.54165009]
 [1.14141667 0.4698946 ]]",0,0.705
8731029739,f,22,english,5,3,english,2024-01-25 10:40:30.331193,False,1,114,sounds\french\audio/french_250.wav,"[[  0.          62.52683965]
 [  0.1        -59.15891797]
 [  0.2         72.29013493]
 [  0.3          7.18381601]
 [  0.4        -40.54501031]
 [  0.5         11.17660764]
 [  0.6        -12.72402035]
 [  0.7         86.4128945 ]
 [  0.8        -22.42213109]
 [  0.9        -17.96201743]
 [  1.         -65.83896619]
 [  1.1         51.2878128 ]
 [  1.14141667 -35.15908719]]","[[0.         0.48083999]
 [0.1        0.2426368 ]
 [0.2        0.50289968]
 [0.3        0.96187942]
 [0.4        0.79236689]
 [0.5        0.45761642]
 [0.6        0.22457871]
 [0.7        1.19019688]
 [0.8        0.95557976]
 [0.9        0.73743866]
 [1.         1.58004952]
 [1.1        1.86095595]
 [1.14141667 0.98214179]]",0,0.479
8731029739,f,22,english,5,3,english,2024-01-25 10:40:30.331193,False,1,115,sounds\french\audio/french_538.wav,"[[  0.          20.57677794]
 [  0.1        -39.61392236]
 [  0.2        -45.04759687]
 [  0.3         13.02336847]
 [  0.4         90.60925013]
 [  0.5        -75.04739637]
 [  0.6        -17.92101924]
 [  0.7        -84.21353272]
 [  0.8         47.2379497 ]
 [  0.9         -5.11712126]
 [  1.         -51.87175563]
 [  1.1        -23.54809706]
 [  1.14141667 -19.60047968]]","[[0.         1.38711038]
 [0.1        0.72793815]
 [0.2        0.58138665]
 [0.3        0.36012253]
 [0.4        1.75461796]
 [0.5        0.9845207 ]
 [0.6        1.10875334]
 [0.7        1.78005401]
 [0.8        0.26796674]
 [0.9        0.97835653]
 [1.         1.7494376 ]
 [1.1        0.19527395]
 [1.14141667 0.35274247]]",0,0.516
8731029739,f,22,english,5,3,english,2024-01-25 10:40:30.331193,False,1,116,sounds\french\audio/french_69.wav,"[[  0.         -36.62351927]
 [  0.1          4.01465427]
 [  0.2         27.63080147]
 [  0.3        -92.04388741]
 [  0.4        -59.31042768]
 [  0.5         43.60815293]
 [  0.6        -63.68314416]
 [  0.7        -73.22650439]
 [  0.8        -84.37177593]
 [  0.9        -63.66539126]
 [  1.         -82.4132666 ]
 [  1.1         92.98635378]
 [  1.14141667  19.17845997]]","[[0.         0.71535059]
 [0.1        1.17148796]
 [0.2        0.35560456]
 [0.3        0.7069056 ]
 [0.4        0.9774701 ]
 [0.5        0.2035579 ]
 [0.6        0.16150137]
 [0.7        1.58821877]
 [0.8        0.45505702]
 [0.9        1.13448396]
 [1.         0.20707812]
 [1.1        1.81964904]
 [1.14141667 1.19989054]]",0,0.65
8731029739,f,22,english,5,3,english,2024-01-25 10:40:30.331193,False,1,117,sounds\french\audio/french_292.wav,"[[  0.         -65.21663055]
 [  0.1         34.24982767]
 [  0.2        -92.63295305]
 [  0.3        -77.59900382]
 [  0.4         14.83333959]
 [  0.5         11.34419051]
 [  0.6          5.22580578]
 [  0.7          9.90915295]
 [  0.8         98.66536814]
 [  0.9        -61.20859902]
 [  1.         -91.20285571]
 [  1.1         77.92662302]
 [  1.14141667 -48.25371816]]","[[0.         1.02426511]
 [0.1        1.12889875]
 [0.2        1.50148233]
 [0.3        1.82420462]
 [0.4        1.7438412 ]
 [0.5        0.42400938]
 [0.6        0.47297633]
 [0.7        0.69162899]
 [0.8        0.37166542]
 [0.9        0.73651314]
 [1.         1.19119341]
 [1.1        0.13786686]
 [1.14141667 1.01945383]]",1,2.113
8731029739,f,22,english,5,3,english,2024-01-25 10:40:30.331193,False,1,118,sounds\french\audio/french_160.wav,"[[  0.           2.54124383]
 [  0.1        -32.5548459 ]
 [  0.2         93.35637741]
 [  0.3        -38.9581146 ]
 [  0.4        -21.93077074]
 [  0.5         15.85363637]
 [  0.6         -5.9942694 ]
 [  0.7         11.02178334]
 [  0.8         36.02080045]
 [  0.9        -67.20809069]
 [  1.         -33.16910884]
 [  1.1         32.50919593]
 [  1.14141667  12.38974982]]","[[0.         0.41674932]
 [0.1        0.30205885]
 [0.2        0.38107213]
 [0.3        1.91878903]
 [0.4        0.71733418]
 [0.5        0.28045988]
 [0.6        1.00425126]
 [0.7        0.54471989]
 [0.8        1.78288163]
 [0.9        0.5673784 ]
 [1.         1.07709851]
 [1.1        0.49895746]
 [1.14141667 1.94779347]]",0,0.537
8731029739,f,22,english,5,3,english,2024-01-25 10:40:30.331193,False,1,119,sounds\french\audio/french_499.wav,"[[  0.          46.36032418]
 [  0.1        -46.60169096]
 [  0.2        -44.64435546]
 [  0.3         58.45397876]
 [  0.4        -85.48224087]
 [  0.5         32.740238  ]
 [  0.6         41.02068671]
 [  0.7        -17.47927701]
 [  0.8        -42.8013025 ]
 [  0.9         24.39191536]
 [  1.           7.64839567]
 [  1.1        -20.78399586]
 [  1.14141667 -72.74453454]]","[[0.         1.15673236]
 [0.1        1.00449513]
 [0.2        1.22972272]
 [0.3        1.93385814]
 [0.4        0.72285847]
 [0.5        1.06540141]
 [0.6        1.32864033]
 [0.7        0.41428775]
 [0.8        1.26797028]
 [0.9        0.4617835 ]
 [1.         1.17377315]
 [1.1        0.12304897]
 [1.14141667 1.98091911]]",0,0.482
8731029739,f,22,english,5,3,english,2024-01-25 10:40:30.331193,False,1,120,sounds\french\audio/french_863.wav,"[[  0.          50.77342544]
 [  0.1        -97.70321946]
 [  0.2         -1.18541723]
 [  0.3        -45.09950091]
 [  0.4        -69.59494908]
 [  0.5         86.27470407]
 [  0.6        -28.73893601]
 [  0.7        -52.09259609]
 [  0.8         36.31844789]
 [  0.9        -73.2210636 ]
 [  1.          90.73733334]
 [  1.1         58.21757398]
 [  1.14141667  56.00262149]]","[[0.         0.93550892]
 [0.1        0.64505388]
 [0.2        0.94585453]
 [0.3        0.69723049]
 [0.4        0.77036715]
 [0.5        0.28013797]
 [0.6        1.05013391]
 [0.7        1.91965154]
 [0.8        0.72883716]
 [0.9        0.81903439]
 [1.         0.23587725]
 [1.1        1.52886581]
 [1.14141667 1.3743652 ]]",0,0.783
