subj,sex,age,language,english,french,native_lang,date,practice,block,trial,stim,pitch,stretch,response,rt
4,f,40,english,5,4,english,2024-02-13 23:27:36.026436,True,0,0,sounds\french\audio/french_382.wav,"[[  0.          58.31095975]
 [  0.1         20.4501396 ]
 [  0.2         70.99322861]
 [  0.3          5.46886476]
 [  0.4         48.19511054]
 [  0.5         65.07796039]
 [  0.6         43.48815131]
 [  0.7        -11.74985349]
 [  0.8         15.43775763]
 [  0.9         46.83036615]
 [  1.         -20.08412869]
 [  1.1        -70.22719889]
 [  1.14141667 -14.03753667]]","[[0.         0.24741119]
 [0.1        0.09347206]
 [0.2        1.07535537]
 [0.3        1.02899602]
 [0.4        0.81704877]
 [0.5        1.21072663]
 [0.6        0.03275626]
 [0.7        0.54320276]
 [0.8        0.01790655]
 [0.9        0.60358697]
 [1.         0.32657207]
 [1.1        0.36401406]
 [1.14141667 0.95738856]]",1,2.043
4,f,40,english,5,4,english,2024-02-13 23:27:36.026436,True,0,1,sounds\french\audio/french_763.wav,"[[  0.          13.80814112]
 [  0.1         19.46844734]
 [  0.2          5.44159656]
 [  0.3        -30.10347892]
 [  0.4         18.89004006]
 [  0.5        -41.56620467]
 [  0.6         78.21333882]
 [  0.7         -2.20389314]
 [  0.8         42.46944935]
 [  0.9          7.43342861]
 [  1.           7.65664638]
 [  1.1        -28.82008034]
 [  1.14141667   6.75912925]]","[[0.         1.2271562 ]
 [0.1        1.61118861]
 [0.2        0.15248074]
 [0.3        0.72176975]
 [0.4        0.85736007]
 [0.5        0.93541907]
 [0.6        0.88345852]
 [0.7        0.73881895]
 [0.8        1.15712901]
 [0.9        0.43903082]
 [1.         1.76731761]
 [1.1        0.22544414]
 [1.14141667 1.35522594]]",1,0.832
4,f,40,english,5,4,english,2024-02-13 23:27:36.026436,True,0,2,sounds\french\audio/french_250.wav,"[[  0.          62.52683965]
 [  0.1        -59.15891797]
 [  0.2         72.29013493]
 [  0.3          7.18381601]
 [  0.4        -40.54501031]
 [  0.5         11.17660764]
 [  0.6        -12.72402035]
 [  0.7         86.4128945 ]
 [  0.8        -22.42213109]
 [  0.9        -17.96201743]
 [  1.         -65.83896619]
 [  1.1         51.2878128 ]
 [  1.14141667 -35.15908719]]","[[0.         0.48083999]
 [0.1        0.2426368 ]
 [0.2        0.50289968]
 [0.3        0.96187942]
 [0.4        0.79236689]
 [0.5        0.45761642]
 [0.6        0.22457871]
 [0.7        1.19019688]
 [0.8        0.95557976]
 [0.9        0.73743866]
 [1.         1.58004952]
 [1.1        1.86095595]
 [1.14141667 0.98214179]]",0,0.422
4,f,40,english,5,4,english,2024-02-13 23:27:36.026436,False,1,3,sounds\french\audio/french_592.wav,"[[  0.          70.81103316]
 [  0.1        -26.4080383 ]
 [  0.2         -0.21646814]
 [  0.3          5.07209888]
 [  0.4          0.60727661]
 [  0.5         -4.25807997]
 [  0.6        -57.11909805]
 [  0.7        -40.92130442]
 [  0.8         57.21863493]
 [  0.9         70.04761432]
 [  1.         -50.9301359 ]
 [  1.1        -84.24132436]
 [  1.14141667 -46.29341041]]","[[0.         0.54665666]
 [0.1        0.88508354]
 [0.2        1.19588417]
 [0.3        0.17214274]
 [0.4        0.84375355]
 [0.5        1.80777341]
 [0.6        0.71388549]
 [0.7        1.31000832]
 [0.8        0.43276947]
 [0.9        1.73827866]
 [1.         0.70932726]
 [1.1        0.23430707]
 [1.14141667 1.11453021]]",0,0.417
4,f,40,english,5,4,english,2024-02-13 23:27:36.026436,False,1,4,sounds\french\audio/french_974.wav,"[[  0.          70.97382946]
 [  0.1        -11.51206682]
 [  0.2         21.14590895]
 [  0.3         -1.24336301]
 [  0.4         -7.59562756]
 [  0.5         98.81108041]
 [  0.6          1.5690047 ]
 [  0.7         32.73857184]
 [  0.8         21.15705836]
 [  0.9         24.28285736]
 [  1.         -18.85169767]
 [  1.1        -83.94572859]
 [  1.14141667 -90.55748201]]","[[0.         1.27524467]
 [0.1        0.96634171]
 [0.2        1.94727541]
 [0.3        0.55924313]
 [0.4        0.16409288]
 [0.5        0.65824955]
 [0.6        1.04527507]
 [0.7        1.28112397]
 [0.8        1.89872216]
 [0.9        0.65988414]
 [1.         1.70679925]
 [1.1        1.83803483]
 [1.14141667 1.54364757]]",0,1.221
4,f,40,english,5,4,english,2024-02-13 23:27:36.026436,False,1,5,sounds\french\audio/french_237.wav,"[[  0.          31.70987786]
 [  0.1         44.65820907]
 [  0.2         13.3186434 ]
 [  0.3         66.1783484 ]
 [  0.4          9.82166226]
 [  0.5        -28.83229096]
 [  0.6         76.24548925]
 [  0.7         34.63949689]
 [  0.8        -48.33331205]
 [  0.9         50.34000449]
 [  1.          49.76225002]
 [  1.1         67.38211301]
 [  1.14141667  80.88052333]]","[[0.         1.31590513]
 [0.1        0.84112054]
 [0.2        0.69527524]
 [0.3        1.26135679]
 [0.4        1.98640285]
 [0.5        0.12218975]
 [0.6        0.73409952]
 [0.7        1.11406015]
 [0.8        1.16947058]
 [0.9        0.6556194 ]
 [1.         1.40941557]
 [1.1        0.44515823]
 [1.14141667 0.0317855 ]]",1,0.905
4,f,40,english,5,4,english,2024-02-13 23:27:36.026436,False,1,6,sounds\french\audio/french_349.wav,"[[  0.         -44.65226556]
 [  0.1         63.7716246 ]
 [  0.2        -40.5877969 ]
 [  0.3         56.39404045]
 [  0.4         17.11834734]
 [  0.5         31.30487132]
 [  0.6         12.25559696]
 [  0.7        -78.06080167]
 [  0.8        -59.74238255]
 [  0.9         81.93828863]
 [  1.          77.73414233]
 [  1.1        -22.21756019]
 [  1.14141667  35.31130873]]","[[0.         0.82110946]
 [0.1        1.29238655]
 [0.2        1.24830198]
 [0.3        1.72338018]
 [0.4        1.66948329]
 [0.5        0.41749291]
 [0.6        1.60741276]
 [0.7        0.20490345]
 [0.8        0.10841314]
 [0.9        0.86358118]
 [1.         0.87506779]
 [1.1        1.54510759]
 [1.14141667 1.55475368]]",1,1.089
4,f,40,english,5,4,english,2024-02-13 23:27:36.026436,False,1,7,sounds\french\audio/french_660.wav,"[[  0.         -37.71510641]
 [  0.1        -51.81416614]
 [  0.2          4.10351711]
 [  0.3         -3.46148296]
 [  0.4         34.89398508]
 [  0.5        -22.68565324]
 [  0.6        -48.78238306]
 [  0.7         35.92338582]
 [  0.8         41.13919158]
 [  0.9         36.80052876]
 [  1.         -27.8791645 ]
 [  1.1         -0.18086637]
 [  1.14141667 -46.57940535]]","[[0.         0.65271068]
 [0.1        0.95176002]
 [0.2        1.39790786]
 [0.3        0.28536613]
 [0.4        0.45403895]
 [0.5        1.25725192]
 [0.6        1.02526608]
 [0.7        0.65449001]
 [0.8        1.63115139]
 [0.9        1.24820992]
 [1.         0.72272253]
 [1.1        1.66540582]
 [1.14141667 0.10395667]]",1,1.977
4,f,40,english,5,4,english,2024-02-13 23:27:36.026436,False,1,8,sounds\french\audio/french_607.wav,"[[  0.         -12.44319925]
 [  0.1        -94.85502328]
 [  0.2        -56.9043045 ]
 [  0.3        -18.59020178]
 [  0.4          9.27721525]
 [  0.5        -86.5437561 ]
 [  0.6         -6.68115528]
 [  0.7         82.47774992]
 [  0.8        -64.79498014]
 [  0.9         54.51357441]
 [  1.          -5.80014692]
 [  1.1        -22.72142846]
 [  1.14141667 -12.07204915]]","[[0.         1.98503206]
 [0.1        1.00846088]
 [0.2        0.69384134]
 [0.3        1.76201014]
 [0.4        1.29911711]
 [0.5        1.18024894]
 [0.6        0.3019838 ]
 [0.7        1.87001672]
 [0.8        1.60167076]
 [0.9        0.75456566]
 [1.         1.39935428]
 [1.1        0.80764916]
 [1.14141667 0.54525676]]",0,0.275
4,f,40,english,5,4,english,2024-02-13 23:27:36.026436,False,1,9,sounds\french\audio/french_708.wav,"[[  0.         -84.32075665]
 [  0.1        -90.17684716]
 [  0.2        -72.90155055]
 [  0.3        -65.4180474 ]
 [  0.4        -30.04110866]
 [  0.5         39.18281852]
 [  0.6         48.81909862]
 [  0.7         17.72071727]
 [  0.8         58.29409041]
 [  0.9         47.29598888]
 [  1.          34.02381028]
 [  1.1        -77.84616196]
 [  1.14141667  40.78872619]]","[[0.         0.145315  ]
 [0.1        0.08552736]
 [0.2        1.2667449 ]
 [0.3        0.89572221]
 [0.4        0.95885194]
 [0.5        0.7904969 ]
 [0.6        0.45133511]
 [0.7        0.98870688]
 [0.8        0.58111582]
 [0.9        0.53990602]
 [1.         0.73597457]
 [1.1        0.61967524]
 [1.14141667 0.80423968]]",1,0.464
4,f,40,english,5,4,english,2024-02-13 23:27:36.026436,False,1,10,sounds\french\audio/french_507.wav,"[[  0.         -18.83784301]
 [  0.1        -87.48663551]
 [  0.2        -60.22132392]
 [  0.3         37.76954176]
 [  0.4        -39.51400755]
 [  0.5         69.25962534]
 [  0.6          8.68923179]
 [  0.7        -88.77359472]
 [  0.8        -71.54118881]
 [  0.9        -44.94089327]
 [  1.         -83.6521711 ]
 [  1.1        -54.78607567]
 [  1.14141667  10.77236355]]","[[0.         0.97207948]
 [0.1        0.90416973]
 [0.2        1.16192947]
 [0.3        1.71554284]
 [0.4        1.68517506]
 [0.5        0.77995291]
 [0.6        0.11564571]
 [0.7        0.9600572 ]
 [0.8        0.74032598]
 [0.9        0.81018125]
 [1.         0.90893345]
 [1.1        0.84528223]
 [1.14141667 0.84574894]]",0,0.631
4,f,40,english,5,4,english,2024-02-13 23:27:36.026436,False,1,11,sounds\french\audio/french_267.wav,"[[  0.          18.62194101]
 [  0.1        -41.76587146]
 [  0.2        -89.0319753 ]
 [  0.3         -9.29393358]
 [  0.4          4.87685639]
 [  0.5         55.48582026]
 [  0.6         68.06270027]
 [  0.7         73.37283609]
 [  0.8         87.54245383]
 [  0.9        -36.95251774]
 [  1.          15.0077511 ]
 [  1.1          1.73751708]
 [  1.14141667 -26.35169503]]","[[0.         1.74719476]
 [0.1        1.66560927]
 [0.2        0.63204019]
 [0.3        1.85189237]
 [0.4        1.63232166]
 [0.5        0.52529496]
 [0.6        0.12234138]
 [0.7        0.34795173]
 [0.8        1.84655651]
 [0.9        1.60281613]
 [1.         0.17639531]
 [1.1        1.90986938]
 [1.14141667 1.88890826]]",1,0.489
4,f,40,english,5,4,english,2024-02-13 23:27:36.026436,False,1,12,sounds\french\audio/french_341.wav,"[[  0.          73.34356566]
 [  0.1         32.77796781]
 [  0.2        -15.17688107]
 [  0.3         78.83994234]
 [  0.4        -59.12519669]
 [  0.5        -87.14456519]
 [  0.6         49.18423227]
 [  0.7         65.46333382]
 [  0.8         12.37255248]
 [  0.9        -45.01455723]
 [  1.         -32.6982037 ]
 [  1.1          7.97147121]
 [  1.14141667 -25.24905662]]","[[0.         0.05237989]
 [0.1        0.70693463]
 [0.2        0.15748394]
 [0.3        1.29250601]
 [0.4        1.54348183]
 [0.5        1.39462455]
 [0.6        0.68979079]
 [0.7        0.59150684]
 [0.8        1.3961758 ]
 [0.9        0.15232918]
 [1.         0.77505127]
 [1.1        0.04371277]
 [1.14141667 0.82980002]]",1,0.657
4,f,40,english,5,4,english,2024-02-13 23:27:36.026436,False,1,13,sounds\french\audio/french_275.wav,"[[  0.         -91.39287319]
 [  0.1         22.10547383]
 [  0.2        -21.22592408]
 [  0.3         72.24714003]
 [  0.4         61.38684723]
 [  0.5        -33.49357785]
 [  0.6        -22.32450075]
 [  0.7        -57.48612132]
 [  0.8        -68.59893206]
 [  0.9        -44.92566121]
 [  1.          65.4486236 ]
 [  1.1         30.92096177]
 [  1.14141667 -41.22661434]]","[[0.         1.90354156]
 [0.1        0.54315679]
 [0.2        0.64106827]
 [0.3        1.19782448]
 [0.4        0.97884644]
 [0.5        0.24795855]
 [0.6        0.94645389]
 [0.7        1.89730656]
 [0.8        1.68481666]
 [0.9        1.9522513 ]
 [1.         1.20961361]
 [1.1        0.71442014]
 [1.14141667 1.65151151]]",0,0.571
4,f,40,english,5,4,english,2024-02-13 23:27:36.026436,False,1,14,sounds\french\audio/french_229.wav,"[[  0.         -72.66349649]
 [  0.1         98.17669026]
 [  0.2         19.85962147]
 [  0.3         10.18447552]
 [  0.4          2.99186972]
 [  0.5        -36.21916984]
 [  0.6          3.19583609]
 [  0.7         12.12984782]
 [  0.8          6.61404525]
 [  0.9        -91.89213886]
 [  1.         -48.12418513]
 [  1.1        -26.91376671]
 [  1.14141667 -57.44589876]]","[[0.         0.80556486]
 [0.1        0.96438648]
 [0.2        1.67956767]
 [0.3        0.9177948 ]
 [0.4        1.97008316]
 [0.5        1.12909119]
 [0.6        1.71065486]
 [0.7        0.23797279]
 [0.8        0.17780208]
 [0.9        0.24849055]
 [1.         0.41301125]
 [1.1        1.34102455]
 [1.14141667 0.47586737]]",1,1.433
4,f,40,english,5,4,english,2024-02-13 23:27:36.026436,False,1,15,sounds\french\audio/french_204.wav,"[[  0.         -97.54424604]
 [  0.1        -75.45987253]
 [  0.2        -45.23023412]
 [  0.3        -36.48297354]
 [  0.4         90.93714811]
 [  0.5          8.51204829]
 [  0.6        -18.08952278]
 [  0.7        -30.86608274]
 [  0.8          9.52121427]
 [  0.9         32.93587108]
 [  1.           4.3572217 ]
 [  1.1         48.01606994]
 [  1.14141667 -31.34314553]]","[[0.         0.84357782]
 [0.1        1.86814554]
 [0.2        0.72033873]
 [0.3        0.94694734]
 [0.4        1.41055146]
 [0.5        1.86444056]
 [0.6        0.86787291]
 [0.7        0.05470733]
 [0.8        0.89406548]
 [0.9        0.95464127]
 [1.         1.5370853 ]
 [1.1        0.95273062]
 [1.14141667 1.18622343]]",0,0.233
4,f,40,english,5,4,english,2024-02-13 23:27:36.026436,False,1,16,sounds\french\audio/french_2.wav,"[[  0.         -86.87483072]
 [  0.1         30.88471   ]
 [  0.2        -63.05424844]
 [  0.3         51.55101831]
 [  0.4        -97.82970137]
 [  0.5         51.42109266]
 [  0.6        -29.2060834 ]
 [  0.7         90.68379187]
 [  0.8        -68.59815448]
 [  0.9         51.41543925]
 [  1.         -33.48006024]
 [  1.1          2.14765409]
 [  1.14141667  40.23091812]]","[[0.         0.90329499]
 [0.1        1.75440235]
 [0.2        0.77448186]
 [0.3        0.99965543]
 [0.4        0.9023396 ]
 [0.5        1.28884098]
 [0.6        1.83503208]
 [0.7        0.07032507]
 [0.8        1.25711652]
 [0.9        1.0016667 ]
 [1.         0.4903742 ]
 [1.1        1.09021934]
 [1.14141667 0.46007065]]",0,0.333
4,f,40,english,5,4,english,2024-02-13 23:27:36.026436,False,1,17,sounds\french\audio/french_888.wav,"[[  0.          96.44398525]
 [  0.1         58.64276863]
 [  0.2         51.81481339]
 [  0.3        -64.43762051]
 [  0.4         63.07008095]
 [  0.5        -43.71617537]
 [  0.6        -84.48557002]
 [  0.7         14.0703742 ]
 [  0.8         19.35462783]
 [  0.9         56.69702577]
 [  1.          31.89376026]
 [  1.1         24.17860953]
 [  1.14141667   6.37321077]]","[[0.         1.17315673]
 [0.1        1.27749253]
 [0.2        1.1144114 ]
 [0.3        1.21045132]
 [0.4        0.41630439]
 [0.5        1.08327256]
 [0.6        0.86809625]
 [0.7        0.60841711]
 [0.8        1.19219408]
 [0.9        0.43210491]
 [1.         1.42396854]
 [1.1        1.30706823]
 [1.14141667 1.87189595]]",0,1.102
4,f,40,english,5,4,english,2024-02-13 23:27:36.026436,False,1,18,sounds\french\audio/french_966.wav,"[[  0.         -10.57377166]
 [  0.1         16.31629355]
 [  0.2         66.58695559]
 [  0.3        -61.61739079]
 [  0.4        -41.37821766]
 [  0.5         88.06115482]
 [  0.6         -4.87023383]
 [  0.7         31.63809868]
 [  0.8        -38.6673981 ]
 [  0.9        -66.27416683]
 [  1.          41.48122115]
 [  1.1         80.76921646]
 [  1.14141667  52.47266676]]","[[0.         1.56095525]
 [0.1        1.09354941]
 [0.2        1.38098283]
 [0.3        0.55606853]
 [0.4        1.34826297]
 [0.5        0.44785703]
 [0.6        0.15735512]
 [0.7        1.16220619]
 [0.8        1.58182779]
 [0.9        1.19689558]
 [1.         1.36559002]
 [1.1        0.9687158 ]
 [1.14141667 0.80624273]]",0,0.564
4,f,40,english,5,4,english,2024-02-13 23:27:36.026436,False,1,19,sounds\french\audio/french_632.wav,"[[  0.         -61.06763991]
 [  0.1        -57.8130529 ]
 [  0.2         54.35735824]
 [  0.3        -58.91236726]
 [  0.4        -64.13325835]
 [  0.5          1.3996077 ]
 [  0.6         96.59752588]
 [  0.7         43.3805339 ]
 [  0.8         -5.42806786]
 [  0.9        -58.66284966]
 [  1.         -47.33386135]
 [  1.1        -21.19098869]
 [  1.14141667  97.6648062 ]]","[[0.         1.6452416 ]
 [0.1        0.41885381]
 [0.2        1.5481505 ]
 [0.3        1.62022086]
 [0.4        0.90453309]
 [0.5        1.75325833]
 [0.6        1.95765898]
 [0.7        1.0798425 ]
 [0.8        1.87572571]
 [0.9        0.40799894]
 [1.         1.4956973 ]
 [1.1        1.53768765]
 [1.14141667 1.52822814]]",0,0.64
4,f,40,english,5,4,english,2024-02-13 23:27:36.026436,False,1,20,sounds\french\audio/french_464.wav,"[[  0.         -31.89981656]
 [  0.1        -74.57449903]
 [  0.2         81.04497479]
 [  0.3          1.14146737]
 [  0.4        -32.54749474]
 [  0.5         87.83227513]
 [  0.6        -40.10469542]
 [  0.7         90.7248677 ]
 [  0.8         23.85488859]
 [  0.9        -35.43452306]
 [  1.         -13.88301207]
 [  1.1         17.19330591]
 [  1.14141667   7.57103799]]","[[0.         1.18782903]
 [0.1        1.71201665]
 [0.2        0.18390312]
 [0.3        0.57430787]
 [0.4        1.11007143]
 [0.5        1.60124957]
 [0.6        0.64324141]
 [0.7        1.4423181 ]
 [0.8        0.98778196]
 [0.9        0.8055077 ]
 [1.         1.3968905 ]
 [1.1        0.90412921]
 [1.14141667 1.47831872]]",1,1.607
4,f,40,english,5,4,english,2024-02-13 23:27:36.026436,False,1,21,sounds\french\audio/french_23.wav,"[[  0.          94.27150104]
 [  0.1        -80.41139797]
 [  0.2        -40.00077648]
 [  0.3        -47.9206401 ]
 [  0.4        -40.2970177 ]
 [  0.5        -11.70208262]
 [  0.6        -73.01945175]
 [  0.7        -69.64342933]
 [  0.8         39.43111503]
 [  0.9        -87.77522393]
 [  1.          50.22964222]
 [  1.1         38.35462342]
 [  1.14141667   7.98362759]]","[[0.         0.68588866]
 [0.1        0.79728373]
 [0.2        1.69486433]
 [0.3        1.07510551]
 [0.4        0.70826522]
 [0.5        1.48791079]
 [0.6        1.35299151]
 [0.7        1.04861918]
 [0.8        1.24336041]
 [0.9        0.25284501]
 [1.         1.1347567 ]
 [1.1        0.86795362]
 [1.14141667 1.42379585]]",0,0.233
4,f,40,english,5,4,english,2024-02-13 23:27:36.026436,False,1,22,sounds\french\audio/french_947.wav,"[[  0.          74.11181953]
 [  0.1         77.13369973]
 [  0.2         88.17713228]
 [  0.3        -23.55252616]
 [  0.4         29.65801923]
 [  0.5        -69.01848253]
 [  0.6        -28.7020507 ]
 [  0.7        -92.17619984]
 [  0.8        -36.30210181]
 [  0.9         21.44134056]
 [  1.         -89.45827175]
 [  1.1        -96.98494763]
 [  1.14141667  -8.8786906 ]]","[[0.         0.64731536]
 [0.1        1.23227619]
 [0.2        1.55440327]
 [0.3        1.09655338]
 [0.4        0.55037335]
 [0.5        1.05019014]
 [0.6        1.09970152]
 [0.7        0.0368249 ]
 [0.8        1.66906697]
 [0.9        1.08042493]
 [1.         1.58321133]
 [1.1        0.55777652]
 [1.14141667 0.9557999 ]]",1,1.084
4,f,40,english,5,4,english,2024-02-13 23:27:36.026436,False,1,23,sounds\french\audio/french_489.wav,"[[  0.          84.44889922]
 [  0.1         76.96445942]
 [  0.2          8.54698853]
 [  0.3        -59.91285247]
 [  0.4         27.32007088]
 [  0.5          6.79605694]
 [  0.6        -17.55996402]
 [  0.7         82.31401574]
 [  0.8         84.94935876]
 [  0.9        -82.28492461]
 [  1.         -88.52112303]
 [  1.1         17.07609433]
 [  1.14141667 -30.14347884]]","[[0.         0.4324461 ]
 [0.1        0.85727213]
 [0.2        0.54736057]
 [0.3        0.94180877]
 [0.4        1.44274385]
 [0.5        0.58088487]
 [0.6        1.38647936]
 [0.7        1.65271142]
 [0.8        1.895289  ]
 [0.9        1.38057617]
 [1.         0.26964653]
 [1.1        0.78257825]
 [1.14141667 1.39946556]]",1,0.729
4,f,40,english,5,4,english,2024-02-13 23:27:36.026436,False,1,24,sounds\french\audio/french_330.wav,"[[  0.          79.95487352]
 [  0.1          7.2273164 ]
 [  0.2        -46.18281556]
 [  0.3         71.79513562]
 [  0.4        -55.81483833]
 [  0.5         -0.36311167]
 [  0.6        -26.48743473]
 [  0.7        -83.94185596]
 [  0.8        -33.65600914]
 [  0.9         64.51376195]
 [  1.         -29.49606256]
 [  1.1        -20.74888201]
 [  1.14141667  37.10154127]]","[[0.         1.29283894]
 [0.1        0.83120423]
 [0.2        1.08340912]
 [0.3        0.67737942]
 [0.4        0.73711237]
 [0.5        0.48894153]
 [0.6        0.26964317]
 [0.7        1.53010393]
 [0.8        0.84264515]
 [0.9        1.9810336 ]
 [1.         0.43026632]
 [1.1        0.7309591 ]
 [1.14141667 1.84112847]]",0,0.358
4,f,40,english,5,4,english,2024-02-13 23:27:36.026436,False,1,25,sounds\french\audio/french_569.wav,"[[  0.          40.60139036]
 [  0.1        -15.15147128]
 [  0.2         -0.95888134]
 [  0.3         44.12601478]
 [  0.4        -57.82031804]
 [  0.5         64.27680708]
 [  0.6        -63.61731308]
 [  0.7         77.98248538]
 [  0.8        -85.02373468]
 [  0.9         23.7771992 ]
 [  1.          61.80066761]
 [  1.1        -41.94387   ]
 [  1.14141667  60.59433976]]","[[0.         1.33844242]
 [0.1        1.76501112]
 [0.2        0.94211994]
 [0.3        0.15427666]
 [0.4        1.07164182]
 [0.5        1.5909132 ]
 [0.6        1.21963001]
 [0.7        0.17925278]
 [0.8        1.54369257]
 [0.9        1.35763688]
 [1.         1.46111522]
 [1.1        0.95375882]
 [1.14141667 0.23927558]]",0,0.592
4,f,40,english,5,4,english,2024-02-13 23:27:36.026436,False,1,26,sounds\french\audio/french_195.wav,"[[  0.         -94.44814465]
 [  0.1         -8.36271039]
 [  0.2        -97.87108345]
 [  0.3          9.38810088]
 [  0.4         -5.68639094]
 [  0.5        -56.99964644]
 [  0.6        -39.66675761]
 [  0.7        -15.03436473]
 [  0.8        -93.37490315]
 [  0.9         -8.95214025]
 [  1.         -32.67851066]
 [  1.1         93.76301079]
 [  1.14141667   4.14523698]]","[[0.         1.01221837]
 [0.1        1.79960209]
 [0.2        1.85291705]
 [0.3        0.83034956]
 [0.4        0.73814621]
 [0.5        0.06268946]
 [0.6        0.32946706]
 [0.7        0.25786145]
 [0.8        0.98424063]
 [0.9        1.23440392]
 [1.         0.86929082]
 [1.1        0.24226685]
 [1.14141667 0.71121181]]",1,0.519
4,f,40,english,5,4,english,2024-02-13 23:27:36.026436,False,1,27,sounds\french\audio/french_836.wav,"[[  0.         -98.99819352]
 [  0.1        -75.19453636]
 [  0.2        -64.62080883]
 [  0.3         60.55534082]
 [  0.4        -90.56866614]
 [  0.5         42.02544068]
 [  0.6         95.75892424]
 [  0.7         11.40295424]
 [  0.8         -4.00612114]
 [  0.9         -4.86106881]
 [  1.         -58.99614613]
 [  1.1        -54.09355535]
 [  1.14141667  71.69194122]]","[[0.         0.75283852]
 [0.1        1.12271703]
 [0.2        1.03950179]
 [0.3        1.75484814]
 [0.4        1.22078165]
 [0.5        1.13870982]
 [0.6        0.70777339]
 [0.7        0.47085937]
 [0.8        0.55212985]
 [0.9        0.16027773]
 [1.         0.43365065]
 [1.1        0.99941172]
 [1.14141667 1.8664191 ]]",1,0.941
4,f,40,english,5,4,english,2024-02-13 23:27:36.026436,False,1,28,sounds\french\audio/french_547.wav,"[[  0.          80.48601898]
 [  0.1        -82.50913866]
 [  0.2          6.00601262]
 [  0.3        -52.03089001]
 [  0.4         10.6301769 ]
 [  0.5         -9.22890069]
 [  0.6        -53.07196993]
 [  0.7         61.54832929]
 [  0.8         29.36466098]
 [  0.9         23.32136868]
 [  1.          -8.53674855]
 [  1.1        -34.18000373]
 [  1.14141667  -4.42974974]]","[[0.         0.18503281]
 [0.1        0.81881683]
 [0.2        1.8365813 ]
 [0.3        0.68261836]
 [0.4        0.68706525]
 [0.5        0.06025487]
 [0.6        1.71512608]
 [0.7        0.13023203]
 [0.8        1.42209591]
 [0.9        1.17584739]
 [1.         0.5237891 ]
 [1.1        0.91325729]
 [1.14141667 0.09221967]]",0,0.402
4,f,40,english,5,4,english,2024-02-13 23:27:36.026436,False,1,29,sounds\french\audio/french_590.wav,"[[  0.         -34.09524263]
 [  0.1        -96.84709912]
 [  0.2         50.61027766]
 [  0.3         75.53545681]
 [  0.4        -11.09035491]
 [  0.5        -32.76275645]
 [  0.6         32.12090996]
 [  0.7        -30.8132539 ]
 [  0.8         22.22892657]
 [  0.9         48.07685608]
 [  1.          58.76836578]
 [  1.1         73.49278781]
 [  1.14141667 -47.33826583]]","[[0.         1.8496634 ]
 [0.1        0.45560216]
 [0.2        1.64061159]
 [0.3        1.47890307]
 [0.4        1.68043792]
 [0.5        1.54166683]
 [0.6        1.68743351]
 [0.7        0.64759962]
 [0.8        0.33521066]
 [0.9        1.44369098]
 [1.         1.75878727]
 [1.1        0.3973942 ]
 [1.14141667 0.72301886]]",0,0.898
4,f,40,english,5,4,english,2024-02-13 23:27:36.026436,False,1,30,sounds\french\audio/french_769.wav,"[[  0.         -13.36397128]
 [  0.1        -64.48089362]
 [  0.2         58.9023119 ]
 [  0.3         61.12929075]
 [  0.4         97.98097103]
 [  0.5        -77.00062239]
 [  0.6         59.53320612]
 [  0.7        -14.37943066]
 [  0.8         75.08575961]
 [  0.9         -1.90306473]
 [  1.          35.59710513]
 [  1.1        -66.64381006]
 [  1.14141667 -84.5225479 ]]","[[0.         1.58116724]
 [0.1        1.15876737]
 [0.2        1.60731332]
 [0.3        1.39997134]
 [0.4        0.84578271]
 [0.5        1.25139679]
 [0.6        0.60224046]
 [0.7        1.04948576]
 [0.8        0.62368881]
 [0.9        1.18190657]
 [1.         0.32402268]
 [1.1        0.29640924]
 [1.14141667 1.49866135]]",0,0.678
4,f,40,english,5,4,english,2024-02-13 23:27:36.026436,False,1,31,sounds\french\audio/french_810.wav,"[[  0.         -11.15684924]
 [  0.1         19.7802092 ]
 [  0.2        -30.04059815]
 [  0.3        -95.70769325]
 [  0.4        -85.83375083]
 [  0.5        -37.45895339]
 [  0.6        -92.99313722]
 [  0.7        -10.59807412]
 [  0.8        -53.30222584]
 [  0.9         44.39304862]
 [  1.          21.84097508]
 [  1.1        -95.99608971]
 [  1.14141667  89.10365484]]","[[0.         0.93665217]
 [0.1        1.74097492]
 [0.2        0.51520892]
 [0.3        0.6750365 ]
 [0.4        1.81202687]
 [0.5        1.65594006]
 [0.6        0.4118564 ]
 [0.7        1.49052065]
 [0.8        1.68710618]
 [0.9        0.87014505]
 [1.         1.52543632]
 [1.1        1.72886846]
 [1.14141667 1.0642508 ]]",0,1.057
4,f,40,english,5,4,english,2024-02-13 23:27:36.026436,False,1,32,sounds\french\audio/french_251.wav,"[[  0.          -6.10327237]
 [  0.1        -31.81812212]
 [  0.2          1.49653309]
 [  0.3         36.35816444]
 [  0.4         -9.41951006]
 [  0.5        -36.93530582]
 [  0.6        -25.41473519]
 [  0.7         56.15025122]
 [  0.8        -13.30142445]
 [  0.9        -95.55635491]
 [  1.         -99.65392401]
 [  1.1         -3.55054731]
 [  1.14141667 -37.18224503]]","[[0.         0.87476983]
 [0.1        0.20851018]
 [0.2        1.45345917]
 [0.3        1.96312617]
 [0.4        1.04651376]
 [0.5        1.9610622 ]
 [0.6        1.3492542 ]
 [0.7        1.04795193]
 [0.8        0.20627276]
 [0.9        0.33014387]
 [1.         1.62301135]
 [1.1        1.19927307]
 [1.14141667 1.67752435]]",0,0.949
4,f,40,english,5,4,english,2024-02-13 23:27:36.026436,False,1,33,sounds\french\audio/french_279.wav,"[[  0.         -91.71642023]
 [  0.1         76.60374466]
 [  0.2        -79.20287469]
 [  0.3        -93.80806914]
 [  0.4         30.74870714]
 [  0.5        -44.65493672]
 [  0.6        -17.93028223]
 [  0.7         66.50862207]
 [  0.8        -46.72060919]
 [  0.9         26.44083851]
 [  1.         -38.70123146]
 [  1.1         -0.14852688]
 [  1.14141667  76.49421083]]","[[0.         0.17583363]
 [0.1        1.80297447]
 [0.2        0.03779617]
 [0.3        0.62702853]
 [0.4        1.94363581]
 [0.5        0.80705141]
 [0.6        1.06056317]
 [0.7        0.16633528]
 [0.8        1.76936946]
 [0.9        0.44742287]
 [1.         1.71685996]
 [1.1        1.04972879]
 [1.14141667 1.48972813]]",1,1.266
4,f,40,english,5,4,english,2024-02-13 23:27:36.026436,False,1,34,sounds\french\audio/french_290.wav,"[[  0.          51.79529481]
 [  0.1        -44.96208288]
 [  0.2         -8.40336913]
 [  0.3        -33.79266006]
 [  0.4        -16.62160995]
 [  0.5        -47.44959741]
 [  0.6         35.7383964 ]
 [  0.7         75.70793439]
 [  0.8        -73.28364488]
 [  0.9         86.89485551]
 [  1.         -78.42663164]
 [  1.1        -66.68243358]
 [  1.14141667 -12.30663823]]","[[0.         1.3540835 ]
 [0.1        1.67127724]
 [0.2        1.47048536]
 [0.3        1.6703547 ]
 [0.4        1.62049275]
 [0.5        1.23154079]
 [0.6        0.29540954]
 [0.7        1.03665221]
 [0.8        0.51418573]
 [0.9        0.34642395]
 [1.         1.30745758]
 [1.1        0.53814921]
 [1.14141667 0.82648066]]",1,0.908
4,f,40,english,5,4,english,2024-02-13 23:27:36.026436,False,1,35,sounds\french\audio/french_943.wav,"[[  0.         -39.69174356]
 [  0.1          9.71823043]
 [  0.2         47.82156503]
 [  0.3        -70.45683827]
 [  0.4        -70.36375892]
 [  0.5        -78.09117144]
 [  0.6         43.3001696 ]
 [  0.7         27.56713446]
 [  0.8         54.98161832]
 [  0.9        -79.78278868]
 [  1.          66.03849917]
 [  1.1        -45.24869993]
 [  1.14141667 -78.78234865]]","[[0.         1.76181843]
 [0.1        0.25866572]
 [0.2        1.61194964]
 [0.3        1.00408981]
 [0.4        1.40275429]
 [0.5        0.47534453]
 [0.6        1.96075546]
 [0.7        0.78248667]
 [0.8        1.42706625]
 [0.9        0.63840216]
 [1.         0.77310904]
 [1.1        1.03848478]
 [1.14141667 0.62693219]]",0,0.25
4,f,40,english,5,4,english,2024-02-13 23:27:36.026436,False,1,36,sounds\french\audio/french_525.wav,"[[  0.         -62.60362143]
 [  0.1        -43.50765866]
 [  0.2        -92.07433403]
 [  0.3         46.3833143 ]
 [  0.4         58.15075502]
 [  0.5         51.12035468]
 [  0.6         63.00938614]
 [  0.7         53.26413437]
 [  0.8         11.02549961]
 [  0.9        -94.89446674]
 [  1.          34.07109414]
 [  1.1         44.30887561]
 [  1.14141667  37.12236443]]","[[0.         1.37727638]
 [0.1        1.28518877]
 [0.2        0.24899463]
 [0.3        1.79083117]
 [0.4        1.19321429]
 [0.5        1.48105428]
 [0.6        1.81654148]
 [0.7        0.04088279]
 [0.8        1.9828965 ]
 [0.9        1.08721535]
 [1.         0.94519366]
 [1.1        0.5024403 ]
 [1.14141667 1.27662231]]",0,0.49
4,f,40,english,5,4,english,2024-02-13 23:27:36.026436,False,1,37,sounds\french\audio/french_212.wav,"[[  0.          90.88102294]
 [  0.1        -35.14561703]
 [  0.2         14.79271583]
 [  0.3        -88.21899913]
 [  0.4         92.67503614]
 [  0.5         23.16298662]
 [  0.6         48.09904427]
 [  0.7         21.94712123]
 [  0.8        -62.00364596]
 [  0.9        -26.3637586 ]
 [  1.         -48.35693482]
 [  1.1         41.70852202]
 [  1.14141667  38.71450678]]","[[0.         1.19203637]
 [0.1        1.89782901]
 [0.2        1.86865655]
 [0.3        1.6473075 ]
 [0.4        1.53763625]
 [0.5        0.83064548]
 [0.6        0.60296104]
 [0.7        1.07417589]
 [0.8        1.14958956]
 [0.9        0.04243199]
 [1.         0.92355121]
 [1.1        0.52672923]
 [1.14141667 1.31846494]]",1,0.362
4,f,40,english,5,4,english,2024-02-13 23:27:36.026436,False,1,38,sounds\french\audio/french_849.wav,"[[  0.          69.87521171]
 [  0.1         60.55609477]
 [  0.2        -65.31065089]
 [  0.3        -19.68241849]
 [  0.4        -67.97317677]
 [  0.5         17.50031022]
 [  0.6         35.72432224]
 [  0.7         94.17947116]
 [  0.8          6.65143733]
 [  0.9         25.76932765]
 [  1.         -86.9444091 ]
 [  1.1         42.49009612]
 [  1.14141667  37.61302549]]","[[0.         0.30931104]
 [0.1        1.36852657]
 [0.2        1.17344814]
 [0.3        0.60836169]
 [0.4        1.01541635]
 [0.5        1.67991586]
 [0.6        0.91591025]
 [0.7        0.34261247]
 [0.8        0.90885816]
 [0.9        0.23510679]
 [1.         1.23669331]
 [1.1        0.98799619]
 [1.14141667 0.11471461]]",1,0.955
4,f,40,english,5,4,english,2024-02-13 23:27:36.026436,False,1,39,sounds\french\audio/french_888.wav,"[[  0.          96.44398525]
 [  0.1         58.64276863]
 [  0.2         51.81481339]
 [  0.3        -64.43762051]
 [  0.4         63.07008095]
 [  0.5        -43.71617537]
 [  0.6        -84.48557002]
 [  0.7         14.0703742 ]
 [  0.8         19.35462783]
 [  0.9         56.69702577]
 [  1.          31.89376026]
 [  1.1         24.17860953]
 [  1.14141667   6.37321077]]","[[0.         1.17315673]
 [0.1        1.27749253]
 [0.2        1.1144114 ]
 [0.3        1.21045132]
 [0.4        0.41630439]
 [0.5        1.08327256]
 [0.6        0.86809625]
 [0.7        0.60841711]
 [0.8        1.19219408]
 [0.9        0.43210491]
 [1.         1.42396854]
 [1.1        1.30706823]
 [1.14141667 1.87189595]]",0,0.204
4,f,40,english,5,4,english,2024-02-13 23:27:36.026436,False,1,40,sounds\french\audio/french_526.wav,"[[  0.          -3.34213948]
 [  0.1        -38.63024981]
 [  0.2         93.21737658]
 [  0.3        -71.56714532]
 [  0.4         55.55298997]
 [  0.5        -90.65516394]
 [  0.6         67.30065147]
 [  0.7        -92.19460914]
 [  0.8        -61.42846186]
 [  0.9        -71.57092401]
 [  1.          -1.13377121]
 [  1.1         79.13585044]
 [  1.14141667 -60.54584427]]","[[0.         0.40974575]
 [0.1        0.80270001]
 [0.2        0.74121325]
 [0.3        1.50939527]
 [0.4        0.92463097]
 [0.5        1.64741989]
 [0.6        0.25308429]
 [0.7        0.31675775]
 [0.8        1.60624507]
 [0.9        1.37847828]
 [1.         1.26755978]
 [1.1        1.65811532]
 [1.14141667 1.5361609 ]]",0,0.277
4,f,40,english,5,4,english,2024-02-13 23:27:36.026436,False,1,41,sounds\french\audio/french_480.wav,"[[  0.          97.66630041]
 [  0.1        -79.64204264]
 [  0.2         24.53990437]
 [  0.3         57.16937352]
 [  0.4        -49.5727771 ]
 [  0.5         20.93938074]
 [  0.6        -18.76856636]
 [  0.7        -13.01913145]
 [  0.8        -32.81669271]
 [  0.9         -8.39241944]
 [  1.          49.55967768]
 [  1.1        -59.93050537]
 [  1.14141667  85.43104854]]","[[0.         1.18828574]
 [0.1        0.75698947]
 [0.2        1.02849864]
 [0.3        1.04831748]
 [0.4        0.01270645]
 [0.5        0.22737289]
 [0.6        1.19517064]
 [0.7        1.96735092]
 [0.8        1.02544343]
 [0.9        0.41084546]
 [1.         1.65917595]
 [1.1        1.87241821]
 [1.14141667 1.8838    ]]",0,0.158
4,f,40,english,5,4,english,2024-02-13 23:27:36.026436,False,1,42,sounds\french\audio/french_188.wav,"[[  0.         -89.58305859]
 [  0.1         95.71016142]
 [  0.2        -76.25067702]
 [  0.3         45.71430986]
 [  0.4         78.81764019]
 [  0.5        -11.53782082]
 [  0.6         95.0488449 ]
 [  0.7         70.12761341]
 [  0.8         24.98475209]
 [  0.9        -10.43342942]
 [  1.         -52.21896219]
 [  1.1         40.40569769]
 [  1.14141667 -46.90368204]]","[[0.         0.80447233]
 [0.1        1.2315416 ]
 [0.2        0.79581402]
 [0.3        0.12807749]
 [0.4        1.16426799]
 [0.5        0.15239824]
 [0.6        1.26983384]
 [0.7        0.14150925]
 [0.8        1.57185451]
 [0.9        1.33675596]
 [1.         1.69336671]
 [1.1        1.58228447]
 [1.14141667 0.49448614]]",0,2.367
4,f,40,english,5,4,english,2024-02-13 23:27:36.026436,False,1,43,sounds\french\audio/french_746.wav,"[[  0.          90.23256386]
 [  0.1        -88.22192177]
 [  0.2         36.08058207]
 [  0.3         53.20574484]
 [  0.4        -53.48533356]
 [  0.5        -12.04471186]
 [  0.6         95.49693434]
 [  0.7         95.81637856]
 [  0.8         47.59417509]
 [  0.9         46.98416357]
 [  1.         -29.62731829]
 [  1.1        -23.23692929]
 [  1.14141667 -48.70417272]]","[[0.         1.50268963]
 [0.1        1.93803066]
 [0.2        0.38306992]
 [0.3        0.27079159]
 [0.4        1.49666029]
 [0.5        1.04483491]
 [0.6        0.40549233]
 [0.7        1.4005816 ]
 [0.8        1.55234369]
 [0.9        0.7227623 ]
 [1.         0.07092525]
 [1.1        1.38353686]
 [1.14141667 1.86039409]]",1,0.565
4,f,40,english,5,4,english,2024-02-13 23:27:36.026436,False,1,44,sounds\french\audio/french_670.wav,"[[  0.         -19.68619325]
 [  0.1        -87.11615832]
 [  0.2        -95.93801111]
 [  0.3        -36.11130254]
 [  0.4         44.26071217]
 [  0.5        -39.2988483 ]
 [  0.6         62.48778593]
 [  0.7         52.37424386]
 [  0.8         -0.1573475 ]
 [  0.9        -27.30900442]
 [  1.          64.437364  ]
 [  1.1        -54.68999944]
 [  1.14141667  18.07624972]]","[[0.         1.03147718]
 [0.1        0.42572581]
 [0.2        0.42961524]
 [0.3        0.83502292]
 [0.4        0.03473652]
 [0.5        1.20822798]
 [0.6        1.18718182]
 [0.7        1.97278033]
 [0.8        0.95899662]
 [0.9        1.95617549]
 [1.         1.1037214 ]
 [1.1        0.03680944]
 [1.14141667 0.86571474]]",0,0.352
4,f,40,english,5,4,english,2024-02-13 23:27:36.026436,False,1,45,sounds\french\audio/french_13.wav,"[[  0.          28.79040646]
 [  0.1          1.43639251]
 [  0.2          8.93741283]
 [  0.3        -45.23678971]
 [  0.4        -36.64568284]
 [  0.5         95.08006425]
 [  0.6        -25.15383894]
 [  0.7         20.22064469]
 [  0.8          4.43008543]
 [  0.9         31.96842926]
 [  1.          59.17290693]
 [  1.1          3.48956858]
 [  1.14141667 -39.55658578]]","[[0.         1.71683998]
 [0.1        1.51392947]
 [0.2        1.95012388]
 [0.3        1.24720578]
 [0.4        0.6748638 ]
 [0.5        0.64178438]
 [0.6        1.78067585]
 [0.7        0.73379373]
 [0.8        0.8008251 ]
 [0.9        1.62083082]
 [1.         0.40737704]
 [1.1        0.59465297]
 [1.14141667 0.57584179]]",1,0.419
4,f,40,english,5,4,english,2024-02-13 23:27:36.026436,False,1,46,sounds\french\audio/french_283.wav,"[[  0.          85.09524946]
 [  0.1        -97.54308337]
 [  0.2        -40.85204681]
 [  0.3         -2.35384301]
 [  0.4        -31.68218734]
 [  0.5        -91.02321919]
 [  0.6         44.13360811]
 [  0.7        -68.52408845]
 [  0.8         17.15846586]
 [  0.9        -35.58743883]
 [  1.          89.20732919]
 [  1.1        -57.32248704]
 [  1.14141667  28.07262427]]","[[0.         1.18974262]
 [0.1        0.87209609]
 [0.2        1.85393105]
 [0.3        0.12748359]
 [0.4        0.27016739]
 [0.5        0.64146537]
 [0.6        0.80126796]
 [0.7        0.44632746]
 [0.8        1.0554532 ]
 [0.9        0.31893528]
 [1.         0.28549057]
 [1.1        1.83484261]
 [1.14141667 1.84086056]]",1,0.872
4,f,40,english,5,4,english,2024-02-13 23:27:36.026436,False,1,47,sounds\french\audio/french_356.wav,"[[ 0.00000000e+00 -2.27249235e-02]
 [ 1.00000000e-01 -2.05153136e+01]
 [ 2.00000000e-01  4.81128711e+01]
 [ 3.00000000e-01 -4.89595369e+01]
 [ 4.00000000e-01 -2.80357485e+00]
 [ 5.00000000e-01 -2.08584143e+01]
 [ 6.00000000e-01  9.81092965e+01]
 [ 7.00000000e-01 -1.93224048e+00]
 [ 8.00000000e-01 -8.85330859e+00]
 [ 9.00000000e-01  5.87615692e+01]
 [ 1.00000000e+00 -2.81707309e-01]
 [ 1.10000000e+00  9.24730298e+01]
 [ 1.14141667e+00  2.47445151e+01]]","[[0.         1.1057297 ]
 [0.1        0.88248255]
 [0.2        1.40641601]
 [0.3        0.79182661]
 [0.4        1.07217051]
 [0.5        1.39045594]
 [0.6        1.21295728]
 [0.7        1.26350106]
 [0.8        1.63697749]
 [0.9        1.43245474]
 [1.         0.81942288]
 [1.1        1.27779472]
 [1.14141667 0.59840856]]",0,0.41
4,f,40,english,5,4,english,2024-02-13 23:27:36.026436,False,1,48,sounds\french\audio/french_70.wav,"[[  0.          68.41479291]
 [  0.1        -31.57074258]
 [  0.2         54.18509107]
 [  0.3        -27.61159617]
 [  0.4          9.88541267]
 [  0.5        -66.17038178]
 [  0.6         16.79110143]
 [  0.7        -71.29172846]
 [  0.8        -78.6433042 ]
 [  0.9         65.673143  ]
 [  1.         -39.65305515]
 [  1.1         60.42476441]
 [  1.14141667  30.88064967]]","[[0.         0.92661768]
 [0.1        1.34654012]
 [0.2        1.48916953]
 [0.3        1.1176716 ]
 [0.4        0.7045852 ]
 [0.5        1.36995745]
 [0.6        1.75041761]
 [0.7        1.65540967]
 [0.8        0.08362863]
 [0.9        1.74250385]
 [1.         1.28772167]
 [1.1        1.44177421]
 [1.14141667 0.77305231]]",0,0.325
4,f,40,english,5,4,english,2024-02-13 23:27:36.026436,False,1,49,sounds\french\audio/french_445.wav,"[[  0.         -13.69643402]
 [  0.1         36.92445062]
 [  0.2         21.43114689]
 [  0.3         24.77090101]
 [  0.4         77.265015  ]
 [  0.5         28.30807518]
 [  0.6         18.43259479]
 [  0.7        -79.61204071]
 [  0.8         80.96656343]
 [  0.9         -8.33056755]
 [  1.          -7.46638384]
 [  1.1         -0.65732392]
 [  1.14141667 -17.80379885]]","[[0.         0.73484181]
 [0.1        1.41360661]
 [0.2        0.52466555]
 [0.3        1.58726839]
 [0.4        1.42575361]
 [0.5        1.55292683]
 [0.6        0.02964328]
 [0.7        1.36780768]
 [0.8        0.02073761]
 [0.9        0.3007781 ]
 [1.         0.17343981]
 [1.1        0.65758319]
 [1.14141667 0.41522681]]",1,1.29
4,f,40,english,5,4,english,2024-02-13 23:27:36.026436,False,1,50,sounds\french\audio/french_222.wav,"[[  0.          28.12895203]
 [  0.1         54.21350821]
 [  0.2        -51.19383466]
 [  0.3         96.22549518]
 [  0.4        -32.41307863]
 [  0.5         26.65044328]
 [  0.6          9.32091886]
 [  0.7        -64.89954131]
 [  0.8         36.72622087]
 [  0.9         40.2660854 ]
 [  1.          -7.20928191]
 [  1.1          6.1475954 ]
 [  1.14141667  27.94232384]]","[[0.         0.63804815]
 [0.1        0.11012111]
 [0.2        1.84334534]
 [0.3        1.45975235]
 [0.4        1.95527553]
 [0.5        1.73920612]
 [0.6        1.89068739]
 [0.7        0.09931373]
 [0.8        1.22637204]
 [0.9        1.29702351]
 [1.         1.70759595]
 [1.1        0.3841372 ]
 [1.14141667 0.96662368]]",0,0.237
4,f,40,english,5,4,english,2024-02-13 23:27:36.026436,False,1,51,sounds\french\audio/french_54.wav,"[[  0.          65.38135872]
 [  0.1         87.66268427]
 [  0.2         48.01938001]
 [  0.3         95.6781076 ]
 [  0.4         83.7615857 ]
 [  0.5         11.81086524]
 [  0.6         54.72443313]
 [  0.7        -43.28759443]
 [  0.8         11.61193327]
 [  0.9         -9.00260431]
 [  1.         -76.33349787]
 [  1.1        -92.33705605]
 [  1.14141667 -53.33676465]]","[[0.         1.51489365]
 [0.1        1.36114109]
 [0.2        1.27392763]
 [0.3        0.37365582]
 [0.4        0.57928793]
 [0.5        1.19146661]
 [0.6        0.84258764]
 [0.7        0.59608046]
 [0.8        1.21200491]
 [0.9        1.1607486 ]
 [1.         1.92715168]
 [1.1        1.75114444]
 [1.14141667 0.97911129]]",0,0.574
4,f,40,english,5,4,english,2024-02-13 23:27:36.026436,False,1,52,sounds\french\audio/french_480.wav,"[[  0.          97.66630041]
 [  0.1        -79.64204264]
 [  0.2         24.53990437]
 [  0.3         57.16937352]
 [  0.4        -49.5727771 ]
 [  0.5         20.93938074]
 [  0.6        -18.76856636]
 [  0.7        -13.01913145]
 [  0.8        -32.81669271]
 [  0.9         -8.39241944]
 [  1.          49.55967768]
 [  1.1        -59.93050537]
 [  1.14141667  85.43104854]]","[[0.         1.18828574]
 [0.1        0.75698947]
 [0.2        1.02849864]
 [0.3        1.04831748]
 [0.4        0.01270645]
 [0.5        0.22737289]
 [0.6        1.19517064]
 [0.7        1.96735092]
 [0.8        1.02544343]
 [0.9        0.41084546]
 [1.         1.65917595]
 [1.1        1.87241821]
 [1.14141667 1.8838    ]]",1,0.357
4,f,40,english,5,4,english,2024-02-13 23:27:36.026436,False,1,53,sounds\french\audio/french_253.wav,"[[  0.         -89.5826566 ]
 [  0.1        -63.70370357]
 [  0.2        -14.51209822]
 [  0.3          5.82695505]
 [  0.4        -19.57946925]
 [  0.5         87.57565015]
 [  0.6        -73.1648263 ]
 [  0.7        -39.90368027]
 [  0.8         14.9886667 ]
 [  0.9          7.8580164 ]
 [  1.          -2.22909138]
 [  1.1        -72.50653721]
 [  1.14141667 -11.98086269]]","[[0.         1.00310862]
 [0.1        1.7781702 ]
 [0.2        0.53130159]
 [0.3        0.05471502]
 [0.4        0.52945793]
 [0.5        1.66365335]
 [0.6        1.72939253]
 [0.7        1.34794684]
 [0.8        1.19439909]
 [0.9        0.55204652]
 [1.         1.59445373]
 [1.1        1.19009319]
 [1.14141667 1.9048409 ]]",1,0.719
4,f,40,english,5,4,english,2024-02-13 23:27:36.026436,False,1,54,sounds\french\audio/french_182.wav,"[[  0.          -1.80719852]
 [  0.1        -86.38296603]
 [  0.2         77.81601349]
 [  0.3        -40.76981119]
 [  0.4         96.11612161]
 [  0.5         56.13496865]
 [  0.6        -15.01612677]
 [  0.7        -25.89223892]
 [  0.8         46.38706832]
 [  0.9         22.16189173]
 [  1.         -49.34607592]
 [  1.1         16.67528468]
 [  1.14141667  51.37064107]]","[[0.         0.94118243]
 [0.1        1.59521765]
 [0.2        0.24326289]
 [0.3        0.0251898 ]
 [0.4        0.07916052]
 [0.5        0.19795199]
 [0.6        0.82804974]
 [0.7        1.07596575]
 [0.8        1.00514745]
 [0.9        1.48875396]
 [1.         0.94795205]
 [1.1        1.37410424]
 [1.14141667 0.38252784]]",0,0.707
4,f,40,english,5,4,english,2024-02-13 23:27:36.026436,False,1,55,sounds\french\audio/french_539.wav,"[[  0.          48.58834425]
 [  0.1        -56.64619482]
 [  0.2         12.72257351]
 [  0.3         14.57779112]
 [  0.4        -53.79115146]
 [  0.5         -9.39809755]
 [  0.6         67.43376648]
 [  0.7        -72.51273076]
 [  0.8          3.43276355]
 [  0.9         40.14425687]
 [  1.          54.85231258]
 [  1.1        -17.29716808]
 [  1.14141667  36.80649937]]","[[0.         0.55713702]
 [0.1        0.83408519]
 [0.2        0.22105139]
 [0.3        1.24631237]
 [0.4        1.80108834]
 [0.5        0.10826692]
 [0.6        1.35746598]
 [0.7        0.14156413]
 [0.8        0.59340931]
 [0.9        0.46199534]
 [1.         1.89990392]
 [1.1        0.79928212]
 [1.14141667 0.04454349]]",0,1.031
4,f,40,english,5,4,english,2024-02-13 23:27:36.026436,False,1,56,sounds\french\audio/french_605.wav,"[[  0.          -4.59270946]
 [  0.1         87.12148448]
 [  0.2         -1.03135673]
 [  0.3         18.20955088]
 [  0.4        -35.26567146]
 [  0.5         48.20040324]
 [  0.6        -62.48303314]
 [  0.7        -26.20926228]
 [  0.8         82.63879423]
 [  0.9        -38.684924  ]
 [  1.          55.23852166]
 [  1.1        -91.44946661]
 [  1.14141667  47.35020577]]","[[0.         0.96600392]
 [0.1        0.37352176]
 [0.2        1.4847994 ]
 [0.3        0.74275765]
 [0.4        1.11817965]
 [0.5        0.19607771]
 [0.6        1.4536673 ]
 [0.7        1.28644453]
 [0.8        1.57088446]
 [0.9        1.0364094 ]
 [1.         0.92106483]
 [1.1        0.53277404]
 [1.14141667 0.90465351]]",0,0.731
4,f,40,english,5,4,english,2024-02-13 23:27:36.026436,False,1,57,sounds\french\audio/french_396.wav,"[[  0.         -45.49492926]
 [  0.1        -79.39567585]
 [  0.2         70.30463602]
 [  0.3         41.7348925 ]
 [  0.4        -16.74018029]
 [  0.5         14.98459267]
 [  0.6         98.37909733]
 [  0.7        -91.48636378]
 [  0.8         45.62246713]
 [  0.9         85.58615573]
 [  1.         -62.37907768]
 [  1.1         38.5434193 ]
 [  1.14141667 -22.80714646]]","[[0.         0.69968975]
 [0.1        0.84208503]
 [0.2        0.36939373]
 [0.3        0.87235796]
 [0.4        1.01475681]
 [0.5        0.8634885 ]
 [0.6        0.42462927]
 [0.7        1.02834343]
 [0.8        1.462662  ]
 [0.9        0.07610889]
 [1.         1.01240942]
 [1.1        1.04813518]
 [1.14141667 1.50333112]]",1,0.904
4,f,40,english,5,4,english,2024-02-13 23:27:36.026436,False,1,58,sounds\french\audio/french_910.wav,"[[  0.          48.88340935]
 [  0.1         -0.9314083 ]
 [  0.2         10.65492222]
 [  0.3         53.80361557]
 [  0.4        -55.5093235 ]
 [  0.5         25.35597856]
 [  0.6         30.25602932]
 [  0.7        -14.25396351]
 [  0.8        -99.95037684]
 [  0.9        -31.56392694]
 [  1.           4.49716215]
 [  1.1         30.67655198]
 [  1.14141667 -27.21370615]]","[[0.         1.81109224]
 [0.1        0.91261377]
 [0.2        0.6391442 ]
 [0.3        1.7256034 ]
 [0.4        1.10196828]
 [0.5        1.92121955]
 [0.6        1.45045528]
 [0.7        1.70872625]
 [0.8        0.23726838]
 [0.9        0.64113417]
 [1.         1.46769435]
 [1.1        0.95921   ]
 [1.14141667 0.8849765 ]]",0,0.303
4,f,40,english,5,4,english,2024-02-13 23:27:36.026436,False,1,59,sounds\french\audio/french_648.wav,"[[  0.         -53.51170013]
 [  0.1         22.43069403]
 [  0.2         76.49850355]
 [  0.3        -26.04467818]
 [  0.4         10.21052213]
 [  0.5        -33.91239394]
 [  0.6        -37.39906136]
 [  0.7        -15.74853616]
 [  0.8        -76.74234048]
 [  0.9        -48.3260074 ]
 [  1.           5.27584724]
 [  1.1        -21.29877932]
 [  1.14141667  -7.48629225]]","[[0.         1.23930721]
 [0.1        1.87824365]
 [0.2        1.04540565]
 [0.3        0.74804464]
 [0.4        1.02623151]
 [0.5        0.44701704]
 [0.6        1.30919953]
 [0.7        0.18736923]
 [0.8        0.18564871]
 [0.9        1.17609684]
 [1.         1.34947555]
 [1.1        1.84245713]
 [1.14141667 1.719326  ]]",0,0.344
4,f,40,english,5,4,english,2024-02-13 23:27:36.026436,False,1,60,sounds\french\audio/french_956.wav,"[[  0.         -99.35759674]
 [  0.1         17.74635761]
 [  0.2         45.19730301]
 [  0.3         32.76158542]
 [  0.4        -82.44124556]
 [  0.5        -42.32589362]
 [  0.6         47.35708325]
 [  0.7        -90.98325298]
 [  0.8        -35.51686902]
 [  0.9         60.74204696]
 [  1.         -46.10377132]
 [  1.1        -22.49053344]
 [  1.14141667  15.48787024]]","[[0.         0.54388648]
 [0.1        1.06124428]
 [0.2        1.13782447]
 [0.3        1.35322569]
 [0.4        1.86440682]
 [0.5        1.66841875]
 [0.6        1.44392405]
 [0.7        1.23654472]
 [0.8        0.08906861]
 [0.9        0.55811382]
 [1.         0.54181177]
 [1.1        0.7143235 ]
 [1.14141667 1.69639276]]",1,0.691
4,f,40,english,5,4,english,2024-02-13 23:27:36.026436,False,1,61,sounds\french\audio/french_888.wav,"[[  0.          96.44398525]
 [  0.1         58.64276863]
 [  0.2         51.81481339]
 [  0.3        -64.43762051]
 [  0.4         63.07008095]
 [  0.5        -43.71617537]
 [  0.6        -84.48557002]
 [  0.7         14.0703742 ]
 [  0.8         19.35462783]
 [  0.9         56.69702577]
 [  1.          31.89376026]
 [  1.1         24.17860953]
 [  1.14141667   6.37321077]]","[[0.         1.17315673]
 [0.1        1.27749253]
 [0.2        1.1144114 ]
 [0.3        1.21045132]
 [0.4        0.41630439]
 [0.5        1.08327256]
 [0.6        0.86809625]
 [0.7        0.60841711]
 [0.8        1.19219408]
 [0.9        0.43210491]
 [1.         1.42396854]
 [1.1        1.30706823]
 [1.14141667 1.87189595]]",0,0.126
4,f,40,english,5,4,english,2024-02-13 23:27:36.026436,False,1,62,sounds\french\audio/french_329.wav,"[[  0.          71.90777756]
 [  0.1        -43.32742025]
 [  0.2         10.29822047]
 [  0.3         -8.2975621 ]
 [  0.4         -9.05642941]
 [  0.5         71.38448289]
 [  0.6        -33.59977824]
 [  0.7        -42.89385015]
 [  0.8          4.79671497]
 [  0.9         89.38276141]
 [  1.          86.61461451]
 [  1.1        -90.40965018]
 [  1.14141667  26.94310401]]","[[0.         1.08889423]
 [0.1        1.81532483]
 [0.2        1.08014864]
 [0.3        1.70717635]
 [0.4        0.23751232]
 [0.5        1.2040952 ]
 [0.6        0.66504849]
 [0.7        1.57435661]
 [0.8        1.87002656]
 [0.9        0.67215766]
 [1.         1.72909995]
 [1.1        1.3721255 ]
 [1.14141667 1.66284268]]",1,0.344
4,f,40,english,5,4,english,2024-02-13 23:27:36.026436,False,1,63,sounds\french\audio/french_523.wav,"[[  0.         -75.83581255]
 [  0.1        -63.95979745]
 [  0.2         70.70748816]
 [  0.3        -88.32485967]
 [  0.4          8.86467855]
 [  0.5        -78.35507958]
 [  0.6         79.68692287]
 [  0.7        -66.26307401]
 [  0.8         82.45368817]
 [  0.9          5.31615062]
 [  1.          52.29136848]
 [  1.1         84.25542057]
 [  1.14141667 -81.50074772]]","[[0.         1.74891242]
 [0.1        1.24637055]
 [0.2        1.089879  ]
 [0.3        0.1892634 ]
 [0.4        1.69433182]
 [0.5        1.04689272]
 [0.6        1.57985602]
 [0.7        0.43504497]
 [0.8        1.24932662]
 [0.9        0.10258394]
 [1.         0.36040908]
 [1.1        1.46217366]
 [1.14141667 0.41311824]]",1,0.877
4,f,40,english,5,4,english,2024-02-13 23:27:36.026436,False,1,64,sounds\french\audio/french_984.wav,"[[  0.         -17.38025619]
 [  0.1        -19.07620661]
 [  0.2         86.46381691]
 [  0.3         43.70120355]
 [  0.4         51.14481307]
 [  0.5        -82.44211059]
 [  0.6        -70.79413604]
 [  0.7         82.20250901]
 [  0.8         32.28810594]
 [  0.9         96.83082958]
 [  1.         -89.86154654]
 [  1.1         76.92233823]
 [  1.14141667   4.44348411]]","[[0.         1.73327214]
 [0.1        0.89289922]
 [0.2        1.96255145]
 [0.3        0.81680833]
 [0.4        0.47713757]
 [0.5        0.6602306 ]
 [0.6        0.62785035]
 [0.7        1.08845655]
 [0.8        1.84516423]
 [0.9        1.6910223 ]
 [1.         1.72477601]
 [1.1        0.65480949]
 [1.14141667 0.96028491]]",0,0.135
4,f,40,english,5,4,english,2024-02-13 23:27:36.026436,False,1,65,sounds\french\audio/french_890.wav,"[[  0.          37.66035755]
 [  0.1        -62.4198419 ]
 [  0.2         22.14011597]
 [  0.3        -19.28433509]
 [  0.4         58.02680792]
 [  0.5         26.36088305]
 [  0.6         -2.96553475]
 [  0.7         18.82025548]
 [  0.8        -71.77019801]
 [  0.9        -33.53163   ]
 [  1.         -66.53266587]
 [  1.1        -68.49556875]
 [  1.14141667  37.72443789]]","[[0.00000000e+00 1.19799643e+00]
 [1.00000000e-01 1.95985133e+00]
 [2.00000000e-01 6.34751795e-05]
 [3.00000000e-01 4.67547013e-01]
 [4.00000000e-01 3.79118242e-01]
 [5.00000000e-01 3.98106844e-01]
 [6.00000000e-01 1.90521091e+00]
 [7.00000000e-01 2.28927516e-01]
 [8.00000000e-01 8.50400434e-01]
 [9.00000000e-01 8.45624976e-01]
 [1.00000000e+00 1.47438703e+00]
 [1.10000000e+00 1.89174641e+00]
 [1.14141667e+00 1.26260731e+00]]",1,0.308
4,f,40,english,5,4,english,2024-02-13 23:27:36.026436,False,1,66,sounds\french\audio/french_919.wav,"[[  0.          -1.20086157]
 [  0.1         23.70683085]
 [  0.2         57.81380223]
 [  0.3        -35.3373876 ]
 [  0.4        -47.40127712]
 [  0.5         30.8485682 ]
 [  0.6        -65.35395561]
 [  0.7         85.95532588]
 [  0.8         92.08322147]
 [  0.9        -41.94331802]
 [  1.          52.33310805]
 [  1.1        -64.04027042]
 [  1.14141667 -13.37988962]]","[[0.         1.82372542]
 [0.1        1.2747469 ]
 [0.2        1.5717064 ]
 [0.3        0.75801577]
 [0.4        0.41520743]
 [0.5        0.28163439]
 [0.6        0.64408251]
 [0.7        0.95994637]
 [0.8        0.70005391]
 [0.9        0.9468388 ]
 [1.         0.21391183]
 [1.1        1.54895117]
 [1.14141667 0.55798758]]",0,0.169
4,f,40,english,5,4,english,2024-02-13 23:27:36.026436,False,1,67,sounds\french\audio/french_378.wav,"[[  0.          10.14074494]
 [  0.1        -69.45781997]
 [  0.2         38.40349345]
 [  0.3        -11.42336743]
 [  0.4        -38.27576318]
 [  0.5         -2.73288809]
 [  0.6         78.86302992]
 [  0.7        -17.950808  ]
 [  0.8         58.47358133]
 [  0.9         26.64529298]
 [  1.         -55.10685082]
 [  1.1        -18.22256523]
 [  1.14141667  61.35932925]]","[[0.         1.10712978]
 [0.1        1.44615803]
 [0.2        1.25967469]
 [0.3        0.20781614]
 [0.4        0.33459003]
 [0.5        0.46876696]
 [0.6        0.47313469]
 [0.7        0.39569402]
 [0.8        1.30666007]
 [0.9        1.95577036]
 [1.         0.02933321]
 [1.1        0.7247038 ]
 [1.14141667 0.67386771]]",0,0.515
4,f,40,english,5,4,english,2024-02-13 23:27:36.026436,False,1,68,sounds\french\audio/french_192.wav,"[[  0.          30.82383492]
 [  0.1         56.21573393]
 [  0.2         24.16947114]
 [  0.3          3.50491484]
 [  0.4        -15.12530872]
 [  0.5         74.93169692]
 [  0.6         94.70898811]
 [  0.7         16.09582878]
 [  0.8         40.74297906]
 [  0.9        -91.28641458]
 [  1.         -63.57975611]
 [  1.1        -58.96501678]
 [  1.14141667  93.61921464]]","[[0.         0.09608915]
 [0.1        1.30315133]
 [0.2        0.43089858]
 [0.3        0.92292411]
 [0.4        1.759236  ]
 [0.5        1.67135617]
 [0.6        1.8201665 ]
 [0.7        0.4064912 ]
 [0.8        0.00834951]
 [0.9        1.30051988]
 [1.         0.06930059]
 [1.1        1.91067339]
 [1.14141667 0.35990528]]",1,0.457
4,f,40,english,5,4,english,2024-02-13 23:27:36.026436,False,1,69,sounds\french\audio/french_843.wav,"[[  0.           3.16503594]
 [  0.1         26.80395692]
 [  0.2         16.79385543]
 [  0.3        -35.60483384]
 [  0.4         18.52937613]
 [  0.5         37.26610196]
 [  0.6        -80.36118355]
 [  0.7        -87.10510064]
 [  0.8         35.50538366]
 [  0.9        -72.56191372]
 [  1.          -8.47223635]
 [  1.1         71.58119759]
 [  1.14141667  10.49120463]]","[[0.         0.09451126]
 [0.1        1.74509222]
 [0.2        0.77620576]
 [0.3        1.61358005]
 [0.4        1.57470559]
 [0.5        0.6926668 ]
 [0.6        0.58242689]
 [0.7        1.20976991]
 [0.8        1.8175096 ]
 [0.9        0.5430267 ]
 [1.         0.77082682]
 [1.1        1.76255625]
 [1.14141667 1.95278824]]",0,0.193
4,f,40,english,5,4,english,2024-02-13 23:27:36.026436,False,1,70,sounds\french\audio/french_50.wav,"[[  0.          -7.01386319]
 [  0.1         53.48395865]
 [  0.2        -12.28351801]
 [  0.3        -93.76617938]
 [  0.4        -12.0195374 ]
 [  0.5        -56.59793281]
 [  0.6         20.61032162]
 [  0.7         -1.26901238]
 [  0.8        -30.12626637]
 [  0.9         86.80795076]
 [  1.          21.12391045]
 [  1.1         72.85975875]
 [  1.14141667 -11.76225522]]","[[0.         1.47331584]
 [0.1        1.04351856]
 [0.2        1.7377743 ]
 [0.3        0.97170395]
 [0.4        0.90437843]
 [0.5        1.6913567 ]
 [0.6        1.252974  ]
 [0.7        0.73770227]
 [0.8        0.35408486]
 [0.9        0.05135998]
 [1.         1.97752086]
 [1.1        1.25509602]
 [1.14141667 0.5303538 ]]",1,0.356
4,f,40,english,5,4,english,2024-02-13 23:27:36.026436,False,1,71,sounds\french\audio/french_983.wav,"[[  0.         -58.740306  ]
 [  0.1         86.62100381]
 [  0.2         72.28686739]
 [  0.3         40.58051416]
 [  0.4        -24.25700788]
 [  0.5         71.71663195]
 [  0.6        -12.96137505]
 [  0.7        -82.1836976 ]
 [  0.8        -24.9069762 ]
 [  0.9         55.25058614]
 [  1.          73.77815743]
 [  1.1         32.70068021]
 [  1.14141667 -94.39337182]]","[[0.         1.29800401]
 [0.1        0.11364498]
 [0.2        1.04246937]
 [0.3        0.31985263]
 [0.4        0.23068067]
 [0.5        1.2336031 ]
 [0.6        1.36252466]
 [0.7        1.78793687]
 [0.8        0.590606  ]
 [0.9        0.99616144]
 [1.         0.61804154]
 [1.1        1.49661667]
 [1.14141667 0.91742292]]",0,0.209
4,f,40,english,5,4,english,2024-02-13 23:27:36.026436,False,1,72,sounds\french\audio/french_168.wav,"[[  0.          23.60578837]
 [  0.1         -3.14983338]
 [  0.2        -32.92235137]
 [  0.3         -1.34182542]
 [  0.4         93.68763921]
 [  0.5        -85.50777255]
 [  0.6        -85.09508772]
 [  0.7          7.18307218]
 [  0.8         71.4646736 ]
 [  0.9        -27.01392426]
 [  1.          31.10228405]
 [  1.1         31.74339728]
 [  1.14141667 -94.28644022]]","[[0.         0.63425727]
 [0.1        1.7754945 ]
 [0.2        0.84759541]
 [0.3        1.87294824]
 [0.4        1.4991828 ]
 [0.5        1.10660002]
 [0.6        0.8131343 ]
 [0.7        0.28255977]
 [0.8        1.69345703]
 [0.9        1.4556034 ]
 [1.         0.26157835]
 [1.1        0.26714034]
 [1.14141667 0.94934419]]",0,0.494
4,f,40,english,5,4,english,2024-02-13 23:27:36.026436,False,1,73,sounds\french\audio/french_723.wav,"[[  0.          22.19465048]
 [  0.1         23.964481  ]
 [  0.2        -20.78401632]
 [  0.3        -42.88976611]
 [  0.4        -14.55295397]
 [  0.5        -35.12687869]
 [  0.6        -97.73060339]
 [  0.7          3.95473766]
 [  0.8         78.03718234]
 [  0.9        -10.33119837]
 [  1.          83.18845617]
 [  1.1         83.83218314]
 [  1.14141667 -82.60655124]]","[[0.         0.67419904]
 [0.1        1.58262399]
 [0.2        1.30108669]
 [0.3        1.6401937 ]
 [0.4        1.79809459]
 [0.5        1.10487247]
 [0.6        1.45372595]
 [0.7        0.61161136]
 [0.8        0.17526252]
 [0.9        1.7787348 ]
 [1.         1.55366011]
 [1.1        1.79647341]
 [1.14141667 0.62892068]]",1,0.728
4,f,40,english,5,4,english,2024-02-13 23:27:36.026436,False,1,74,sounds\french\audio/french_940.wav,"[[  0.         -25.91102363]
 [  0.1        -98.40103544]
 [  0.2        -27.15280701]
 [  0.3        -22.44143901]
 [  0.4        -35.46456579]
 [  0.5          4.61704007]
 [  0.6         -0.66829234]
 [  0.7        -40.91244747]
 [  0.8         -7.0277311 ]
 [  0.9        -54.36774404]
 [  1.         -70.25957044]
 [  1.1        -51.97264261]
 [  1.14141667 -21.44395954]]","[[0.         1.80936278]
 [0.1        0.189785  ]
 [0.2        0.92419409]
 [0.3        1.89569959]
 [0.4        1.98157399]
 [0.5        0.94447039]
 [0.6        1.15374369]
 [0.7        1.96635158]
 [0.8        0.84047268]
 [0.9        0.10425056]
 [1.         0.65084977]
 [1.1        0.80794246]
 [1.14141667 0.58048173]]",0,0.536
4,f,40,english,5,4,english,2024-02-13 23:27:36.026436,False,1,75,sounds\french\audio/french_354.wav,"[[  0.         -59.30427207]
 [  0.1         79.91145527]
 [  0.2         -1.5051974 ]
 [  0.3        -45.6248448 ]
 [  0.4         40.65998782]
 [  0.5        -87.75757377]
 [  0.6         92.52575954]
 [  0.7        -30.48325009]
 [  0.8         18.19454969]
 [  0.9         -2.58461677]
 [  1.         -70.76135363]
 [  1.1         70.06864497]
 [  1.14141667  36.19538716]]","[[0.         1.42108763]
 [0.1        0.12998909]
 [0.2        1.34324907]
 [0.3        1.56989782]
 [0.4        0.75541958]
 [0.5        0.95768708]
 [0.6        1.70871899]
 [0.7        1.54335891]
 [0.8        0.39580898]
 [0.9        1.36502039]
 [1.         1.03896879]
 [1.1        1.2657434 ]
 [1.14141667 1.59524238]]",1,0.66
4,f,40,english,5,4,english,2024-02-13 23:27:36.026436,False,1,76,sounds\french\audio/french_594.wav,"[[  0.          69.16257792]
 [  0.1        -51.38062927]
 [  0.2         89.14833349]
 [  0.3        -14.54901169]
 [  0.4         38.01197931]
 [  0.5        -14.93034813]
 [  0.6         90.76309798]
 [  0.7         -8.33687091]
 [  0.8        -84.37336708]
 [  0.9         -1.88818414]
 [  1.         -36.10672087]
 [  1.1          9.11572808]
 [  1.14141667 -90.04046752]]","[[0.         1.68675304]
 [0.1        1.08911703]
 [0.2        1.44064207]
 [0.3        0.3009214 ]
 [0.4        0.73043906]
 [0.5        1.66681062]
 [0.6        1.44884618]
 [0.7        1.50262678]
 [0.8        1.54254131]
 [0.9        1.64727508]
 [1.         0.99451462]
 [1.1        0.34998624]
 [1.14141667 0.12693226]]",1,0.735
4,f,40,english,5,4,english,2024-02-13 23:27:36.026436,False,1,77,sounds\french\audio/french_76.wav,"[[  0.          65.24155803]
 [  0.1        -64.10777613]
 [  0.2        -66.43983652]
 [  0.3          9.38529777]
 [  0.4        -68.79387642]
 [  0.5         24.61155373]
 [  0.6        -11.51773882]
 [  0.7        -77.87210972]
 [  0.8         23.51580427]
 [  0.9        -41.53779425]
 [  1.         -40.31239806]
 [  1.1         79.50743198]
 [  1.14141667 -12.84080619]]","[[0.         1.51578207]
 [0.1        1.54793346]
 [0.2        1.59239598]
 [0.3        1.00112308]
 [0.4        1.06006715]
 [0.5        0.66047476]
 [0.6        0.15886587]
 [0.7        1.3402371 ]
 [0.8        1.57866238]
 [0.9        0.66862434]
 [1.         0.74779091]
 [1.1        0.1792498 ]
 [1.14141667 0.70819275]]",0,0.925
4,f,40,english,5,4,english,2024-02-13 23:27:36.026436,False,1,78,sounds\french\audio/french_139.wav,"[[  0.          60.33474426]
 [  0.1         38.93323401]
 [  0.2         81.82892201]
 [  0.3         -5.35389096]
 [  0.4         45.79202167]
 [  0.5         20.55887317]
 [  0.6         -5.88389044]
 [  0.7          6.48301447]
 [  0.8        -23.77186576]
 [  0.9         60.18530023]
 [  1.         -12.64152594]
 [  1.1        -31.65464666]
 [  1.14141667 -84.45306184]]","[[0.         0.98524205]
 [0.1        0.78117712]
 [0.2        0.61752243]
 [0.3        0.38397535]
 [0.4        0.60652717]
 [0.5        1.09559489]
 [0.6        0.26955055]
 [0.7        0.35792528]
 [0.8        1.46618843]
 [0.9        1.78162027]
 [1.         0.37213787]
 [1.1        1.38195712]
 [1.14141667 1.42802916]]",0,0.285
4,f,40,english,5,4,english,2024-02-13 23:27:36.026436,False,1,79,sounds\french\audio/french_226.wav,"[[ 0.00000000e+00 -8.95654403e+01]
 [ 1.00000000e-01  2.26491102e+01]
 [ 2.00000000e-01 -9.81829822e+01]
 [ 3.00000000e-01  9.00677545e+01]
 [ 4.00000000e-01  7.66949101e+01]
 [ 5.00000000e-01 -1.65739388e+01]
 [ 6.00000000e-01  7.95444963e+01]
 [ 7.00000000e-01 -6.45918564e+01]
 [ 8.00000000e-01 -1.57739040e+01]
 [ 9.00000000e-01  2.27312472e+00]
 [ 1.00000000e+00 -1.95846244e+01]
 [ 1.10000000e+00 -3.33610299e+01]
 [ 1.14141667e+00  7.77115779e-02]]","[[0.         0.58902414]
 [0.1        1.07347561]
 [0.2        0.10029967]
 [0.3        1.58545922]
 [0.4        0.62840151]
 [0.5        1.47484594]
 [0.6        1.47385209]
 [0.7        0.37637466]
 [0.8        0.13457703]
 [0.9        1.1026559 ]
 [1.         1.06735265]
 [1.1        1.0785035 ]
 [1.14141667 0.45867653]]",1,0.321
4,f,40,english,5,4,english,2024-02-13 23:27:36.026436,False,1,80,sounds\french\audio/french_651.wav,"[[  0.         -31.7609884 ]
 [  0.1         52.52680229]
 [  0.2          7.85876219]
 [  0.3        -92.85880299]
 [  0.4        -32.19396237]
 [  0.5        -28.65780659]
 [  0.6          6.85787083]
 [  0.7         39.81262841]
 [  0.8        -67.00385353]
 [  0.9        -43.82258998]
 [  1.          24.68405128]
 [  1.1        -55.05960981]
 [  1.14141667 -24.80841555]]","[[0.         1.50568683]
 [0.1        0.67521246]
 [0.2        0.9805251 ]
 [0.3        0.97060286]
 [0.4        1.17347833]
 [0.5        0.21577742]
 [0.6        1.38579708]
 [0.7        1.21350763]
 [0.8        0.81689615]
 [0.9        0.87721586]
 [1.         0.52438845]
 [1.1        1.4125197 ]
 [1.14141667 1.30711742]]",1,0.425
4,f,40,english,5,4,english,2024-02-13 23:27:36.026436,False,1,81,sounds\french\audio/french_229.wav,"[[  0.         -72.66349649]
 [  0.1         98.17669026]
 [  0.2         19.85962147]
 [  0.3         10.18447552]
 [  0.4          2.99186972]
 [  0.5        -36.21916984]
 [  0.6          3.19583609]
 [  0.7         12.12984782]
 [  0.8          6.61404525]
 [  0.9        -91.89213886]
 [  1.         -48.12418513]
 [  1.1        -26.91376671]
 [  1.14141667 -57.44589876]]","[[0.         0.80556486]
 [0.1        0.96438648]
 [0.2        1.67956767]
 [0.3        0.9177948 ]
 [0.4        1.97008316]
 [0.5        1.12909119]
 [0.6        1.71065486]
 [0.7        0.23797279]
 [0.8        0.17780208]
 [0.9        0.24849055]
 [1.         0.41301125]
 [1.1        1.34102455]
 [1.14141667 0.47586737]]",1,0.627
4,f,40,english,5,4,english,2024-02-13 23:27:36.026436,False,1,82,sounds\french\audio/french_29.wav,"[[  0.          21.77688976]
 [  0.1         24.23496893]
 [  0.2        -77.17155219]
 [  0.3        -60.073072  ]
 [  0.4        -50.13575325]
 [  0.5        -77.43985725]
 [  0.6         10.83492936]
 [  0.7         41.96864578]
 [  0.8         24.15001974]
 [  0.9         36.26552414]
 [  1.          52.90736108]
 [  1.1         63.28977691]
 [  1.14141667 -48.15622319]]","[[0.         1.0440217 ]
 [0.1        1.09015273]
 [0.2        1.90323548]
 [0.3        1.85202453]
 [0.4        0.8874885 ]
 [0.5        1.8117264 ]
 [0.6        1.39622978]
 [0.7        0.35259402]
 [0.8        1.18506837]
 [0.9        1.17740145]
 [1.         1.00535822]
 [1.1        0.9642083 ]
 [1.14141667 1.23423226]]",0,0.26
4,f,40,english,5,4,english,2024-02-13 23:27:36.026436,False,1,83,sounds\french\audio/french_364.wav,"[[  0.         -97.50154986]
 [  0.1        -96.75823036]
 [  0.2        -47.50259118]
 [  0.3         -0.40626285]
 [  0.4        -80.16470195]
 [  0.5        -95.76954551]
 [  0.6         71.28277546]
 [  0.7         17.11664647]
 [  0.8        -50.68078516]
 [  0.9         84.91146996]
 [  1.         -28.74408439]
 [  1.1        -16.57627289]
 [  1.14141667  15.97601044]]","[[0.         1.39662883]
 [0.1        0.95608776]
 [0.2        1.52513334]
 [0.3        1.08680296]
 [0.4        0.33609261]
 [0.5        0.74984016]
 [0.6        0.21907723]
 [0.7        0.46362163]
 [0.8        1.89095405]
 [0.9        0.52755349]
 [1.         1.92916741]
 [1.1        0.73615902]
 [1.14141667 0.40543275]]",0,0.94
4,f,40,english,5,4,english,2024-02-13 23:27:36.026436,False,1,84,sounds\french\audio/french_872.wav,"[[  0.           2.19876004]
 [  0.1        -16.2984572 ]
 [  0.2         44.28395799]
 [  0.3         68.79186239]
 [  0.4         23.95752233]
 [  0.5        -82.67226961]
 [  0.6        -19.37076915]
 [  0.7        -45.1199493 ]
 [  0.8         44.55633457]
 [  0.9        -98.88107629]
 [  1.         -37.42508294]
 [  1.1        -90.62049671]
 [  1.14141667 -57.38745573]]","[[0.         0.46410816]
 [0.1        0.5045086 ]
 [0.2        0.19071962]
 [0.3        0.93182485]
 [0.4        1.89135345]
 [0.5        0.19504501]
 [0.6        0.68749833]
 [0.7        1.72623495]
 [0.8        0.60263364]
 [0.9        1.41115138]
 [1.         0.80513214]
 [1.1        0.91253729]
 [1.14141667 1.53911211]]",0,0.406
4,f,40,english,5,4,english,2024-02-13 23:27:36.026436,False,1,85,sounds\french\audio/french_418.wav,"[[  0.          30.8158802 ]
 [  0.1        -49.53284919]
 [  0.2         36.79712785]
 [  0.3        -99.55359759]
 [  0.4         68.9088774 ]
 [  0.5         80.99957915]
 [  0.6          4.26486526]
 [  0.7        -17.5210691 ]
 [  0.8         62.53897835]
 [  0.9        -85.84748653]
 [  1.         -46.33715828]
 [  1.1         42.67097057]
 [  1.14141667 -75.9263862 ]]","[[0.         0.39666711]
 [0.1        1.06359174]
 [0.2        0.64757436]
 [0.3        1.7224486 ]
 [0.4        0.44902576]
 [0.5        1.67719648]
 [0.6        1.66921538]
 [0.7        1.5326406 ]
 [0.8        0.45272356]
 [0.9        1.5121066 ]
 [1.         0.28461943]
 [1.1        0.94734784]
 [1.14141667 0.46817887]]",0,0.35
4,f,40,english,5,4,english,2024-02-13 23:27:36.026436,False,1,86,sounds\french\audio/french_24.wav,"[[  0.           5.31497869]
 [  0.1        -26.8625117 ]
 [  0.2         58.97663957]
 [  0.3         51.69210178]
 [  0.4         81.05661537]
 [  0.5         65.07233235]
 [  0.6         76.62421962]
 [  0.7         59.88439987]
 [  0.8         11.60739883]
 [  0.9        -31.04604082]
 [  1.           4.7112785 ]
 [  1.1         82.50060059]
 [  1.14141667 -13.18326267]]","[[0.         0.05163285]
 [0.1        1.69751723]
 [0.2        1.0154946 ]
 [0.3        0.2245849 ]
 [0.4        0.62964931]
 [0.5        1.32161931]
 [0.6        1.5556039 ]
 [0.7        1.39639667]
 [0.8        1.45125742]
 [0.9        0.73211906]
 [1.         1.04041435]
 [1.1        1.11274362]
 [1.14141667 0.74288089]]",0,0.378
4,f,40,english,5,4,english,2024-02-13 23:27:36.026436,False,1,87,sounds\french\audio/french_346.wav,"[[  0.          67.18638051]
 [  0.1        -53.72817021]
 [  0.2        -98.82675461]
 [  0.3         81.03283057]
 [  0.4         40.62024646]
 [  0.5         40.24818958]
 [  0.6         73.99457353]
 [  0.7        -37.99947694]
 [  0.8         23.54785661]
 [  0.9         84.67325281]
 [  1.          17.08617407]
 [  1.1         -3.95750505]
 [  1.14141667  -9.87393999]]","[[0.         0.75562578]
 [0.1        1.96814797]
 [0.2        0.66238493]
 [0.3        0.69352013]
 [0.4        1.9757751 ]
 [0.5        1.26469529]
 [0.6        1.9973896 ]
 [0.7        0.34186283]
 [0.8        0.20007718]
 [0.9        0.13425269]
 [1.         1.72774193]
 [1.1        1.47153835]
 [1.14141667 1.38090812]]",1,0.318
4,f,40,english,5,4,english,2024-02-13 23:27:36.026436,False,1,88,sounds\french\audio/french_177.wav,"[[  0.          -8.10737453]
 [  0.1        -14.13185222]
 [  0.2        -21.48127278]
 [  0.3         24.9697288 ]
 [  0.4        -13.99641156]
 [  0.5        -59.00404828]
 [  0.6        -79.56959599]
 [  0.7         56.96667595]
 [  0.8         53.96652251]
 [  0.9        -43.28510596]
 [  1.         -17.06884575]
 [  1.1         91.20873705]
 [  1.14141667 -64.77412729]]","[[0.         1.83762725]
 [0.1        1.41917184]
 [0.2        1.32076247]
 [0.3        0.20954591]
 [0.4        0.92966731]
 [0.5        0.48144728]
 [0.6        1.07022563]
 [0.7        0.90878311]
 [0.8        0.75598619]
 [0.9        1.20570373]
 [1.         0.31173544]
 [1.1        1.67692112]
 [1.14141667 0.58516183]]",0,0.227
4,f,40,english,5,4,english,2024-02-13 23:27:36.026436,False,1,89,sounds\french\audio/french_825.wav,"[[  0.          -8.66035044]
 [  0.1         11.88684572]
 [  0.2         23.35041769]
 [  0.3        -37.90327363]
 [  0.4         45.26650228]
 [  0.5         12.4690991 ]
 [  0.6         58.54250001]
 [  0.7         58.24910466]
 [  0.8        -35.3411559 ]
 [  0.9        -53.99539951]
 [  1.         -76.41563875]
 [  1.1         34.96634112]
 [  1.14141667  39.45751875]]","[[0.         0.70372859]
 [0.1        1.47681639]
 [0.2        0.64470435]
 [0.3        1.56559927]
 [0.4        1.14051426]
 [0.5        1.60497973]
 [0.6        0.30568471]
 [0.7        1.81700224]
 [0.8        1.43759129]
 [0.9        0.25921988]
 [1.         1.68099514]
 [1.1        1.15112209]
 [1.14141667 1.32420089]]",0,0.32
4,f,40,english,5,4,english,2024-02-13 23:27:36.026436,False,1,90,sounds\french\audio/french_338.wav,"[[  0.          32.43640694]
 [  0.1        -96.15534081]
 [  0.2         71.74391232]
 [  0.3         66.77138204]
 [  0.4         15.01497933]
 [  0.5         92.69089604]
 [  0.6         43.1424087 ]
 [  0.7        -30.37149924]
 [  0.8         46.68539141]
 [  0.9         93.80986052]
 [  1.          81.72582501]
 [  1.1         64.92591282]
 [  1.14141667  81.2294196 ]]","[[0.         1.33040513]
 [0.1        1.37265774]
 [0.2        0.97045392]
 [0.3        0.15859567]
 [0.4        0.06667266]
 [0.5        0.24915734]
 [0.6        1.15855491]
 [0.7        1.05458836]
 [0.8        0.40093841]
 [0.9        0.20402843]
 [1.         0.60947965]
 [1.1        0.10143299]
 [1.14141667 0.26247097]]",1,0.624
4,f,40,english,5,4,english,2024-02-13 23:27:36.026436,False,1,91,sounds\french\audio/french_883.wav,"[[ 0.00000000e+00  1.95460845e+01]
 [ 1.00000000e-01  1.24924829e+01]
 [ 2.00000000e-01  4.25305136e+01]
 [ 3.00000000e-01  9.74709696e+01]
 [ 4.00000000e-01  5.19730853e+01]
 [ 5.00000000e-01 -8.63063813e+01]
 [ 6.00000000e-01 -7.40687760e+01]
 [ 7.00000000e-01  3.72973608e+01]
 [ 8.00000000e-01  5.57594158e+01]
 [ 9.00000000e-01  5.52278268e-02]
 [ 1.00000000e+00  2.86120235e+01]
 [ 1.10000000e+00 -2.78347315e+01]
 [ 1.14141667e+00  7.25854293e+00]]","[[0.         1.40076404]
 [0.1        0.59422611]
 [0.2        1.59628608]
 [0.3        1.98149685]
 [0.4        0.79359518]
 [0.5        1.91847812]
 [0.6        1.13822952]
 [0.7        1.35410008]
 [0.8        1.86569856]
 [0.9        0.0392114 ]
 [1.         1.90834622]
 [1.1        1.74643265]
 [1.14141667 0.27962453]]",1,0.398
4,f,40,english,5,4,english,2024-02-13 23:27:36.026436,False,1,92,sounds\french\audio/french_470.wav,"[[  0.         -35.19014481]
 [  0.1        -11.1101007 ]
 [  0.2        -73.86570158]
 [  0.3         -1.44470238]
 [  0.4        -96.07839084]
 [  0.5         70.99649813]
 [  0.6         55.77361877]
 [  0.7        -22.19728159]
 [  0.8        -72.44437958]
 [  0.9         80.41886886]
 [  1.         -11.71477961]
 [  1.1        -62.42849441]
 [  1.14141667  98.36646491]]","[[0.         1.94208233]
 [0.1        1.24726807]
 [0.2        1.04117415]
 [0.3        1.14948121]
 [0.4        0.66081228]
 [0.5        0.84071929]
 [0.6        1.10459164]
 [0.7        0.42902866]
 [0.8        1.72163831]
 [0.9        1.68101907]
 [1.         0.03811178]
 [1.1        1.9717108 ]
 [1.14141667 0.38277799]]",0,0.397
4,f,40,english,5,4,english,2024-02-13 23:27:36.026436,False,1,93,sounds\french\audio/french_727.wav,"[[  0.         -20.05824151]
 [  0.1         69.75510409]
 [  0.2        -72.00605267]
 [  0.3         -6.83631599]
 [  0.4        -22.0103923 ]
 [  0.5         -9.32146308]
 [  0.6         55.52257653]
 [  0.7         15.94643217]
 [  0.8        -72.95565773]
 [  0.9          6.47080818]
 [  1.         -39.0563141 ]
 [  1.1        -93.66180319]
 [  1.14141667  71.53836892]]","[[0.         0.38879294]
 [0.1        1.1988761 ]
 [0.2        1.21340454]
 [0.3        1.07331199]
 [0.4        0.09560546]
 [0.5        0.49166162]
 [0.6        1.00409517]
 [0.7        0.80619997]
 [0.8        1.99971332]
 [0.9        0.66850695]
 [1.         0.85036582]
 [1.1        0.40432855]
 [1.14141667 0.54223164]]",1,0.489
4,f,40,english,5,4,english,2024-02-13 23:27:36.026436,False,1,94,sounds\french\audio/french_740.wav,"[[  0.         -23.8561275 ]
 [  0.1         12.41197017]
 [  0.2        -75.22373784]
 [  0.3         13.95432459]
 [  0.4         86.43925379]
 [  0.5        -59.06853257]
 [  0.6          8.7812543 ]
 [  0.7        -81.4658243 ]
 [  0.8        -37.53161999]
 [  0.9        -71.6710365 ]
 [  1.          31.54551497]
 [  1.1         73.9548309 ]
 [  1.14141667  48.2786376 ]]","[[0.         1.38106788]
 [0.1        0.96449807]
 [0.2        1.81317808]
 [0.3        0.48903687]
 [0.4        0.89209498]
 [0.5        0.79820054]
 [0.6        1.20695925]
 [0.7        0.55003693]
 [0.8        0.44955963]
 [0.9        1.78000651]
 [1.         1.38553911]
 [1.1        0.82064893]
 [1.14141667 1.09253076]]",0,0.218
4,f,40,english,5,4,english,2024-02-13 23:27:36.026436,False,1,95,sounds\french\audio/french_523.wav,"[[  0.         -75.83581255]
 [  0.1        -63.95979745]
 [  0.2         70.70748816]
 [  0.3        -88.32485967]
 [  0.4          8.86467855]
 [  0.5        -78.35507958]
 [  0.6         79.68692287]
 [  0.7        -66.26307401]
 [  0.8         82.45368817]
 [  0.9          5.31615062]
 [  1.          52.29136848]
 [  1.1         84.25542057]
 [  1.14141667 -81.50074772]]","[[0.         1.74891242]
 [0.1        1.24637055]
 [0.2        1.089879  ]
 [0.3        0.1892634 ]
 [0.4        1.69433182]
 [0.5        1.04689272]
 [0.6        1.57985602]
 [0.7        0.43504497]
 [0.8        1.24932662]
 [0.9        0.10258394]
 [1.         0.36040908]
 [1.1        1.46217366]
 [1.14141667 0.41311824]]",1,0.988
4,f,40,english,5,4,english,2024-02-13 23:27:36.026436,False,1,96,sounds\french\audio/french_896.wav,"[[  0.          11.47422231]
 [  0.1         46.2400026 ]
 [  0.2        -24.32057019]
 [  0.3        -87.2030855 ]
 [  0.4          5.78611761]
 [  0.5         71.23724358]
 [  0.6        -12.04646094]
 [  0.7         65.65969456]
 [  0.8        -71.55601308]
 [  0.9        -30.47071095]
 [  1.          81.31836813]
 [  1.1         59.00321501]
 [  1.14141667 -11.27294507]]","[[0.         0.82823049]
 [0.1        0.71952712]
 [0.2        0.05991654]
 [0.3        0.82758531]
 [0.4        0.66822368]
 [0.5        1.72255849]
 [0.6        0.89622967]
 [0.7        1.36132994]
 [0.8        0.74243617]
 [0.9        1.96359611]
 [1.         1.07942153]
 [1.1        0.72058173]
 [1.14141667 1.33962568]]",0,0.362
4,f,40,english,5,4,english,2024-02-13 23:27:36.026436,False,1,97,sounds\french\audio/french_886.wav,"[[  0.          -3.07847079]
 [  0.1         22.70145426]
 [  0.2         32.76367051]
 [  0.3        -31.71032565]
 [  0.4        -28.18750434]
 [  0.5        -18.1748931 ]
 [  0.6        -27.03025386]
 [  0.7         12.34522068]
 [  0.8         20.95996339]
 [  0.9         17.46922546]
 [  1.         -31.18262411]
 [  1.1         16.14877288]
 [  1.14141667 -36.04372934]]","[[0.         0.23703277]
 [0.1        1.62366196]
 [0.2        0.51146608]
 [0.3        0.96426713]
 [0.4        0.43793295]
 [0.5        1.33868978]
 [0.6        0.31800764]
 [0.7        1.44789936]
 [0.8        1.67391832]
 [0.9        1.19275698]
 [1.         0.34476604]
 [1.1        1.95768513]
 [1.14141667 1.10523987]]",0,0.347
4,f,40,english,5,4,english,2024-02-13 23:27:36.026436,False,1,98,sounds\french\audio/french_412.wav,"[[  0.          80.33750743]
 [  0.1         50.4773299 ]
 [  0.2          7.50934865]
 [  0.3         -9.23463682]
 [  0.4          9.13658121]
 [  0.5         11.12128685]
 [  0.6        -94.30640228]
 [  0.7        -51.41178114]
 [  0.8         28.26572128]
 [  0.9        -71.75232094]
 [  1.          86.09965629]
 [  1.1         27.28800681]
 [  1.14141667  32.1776899 ]]","[[0.         1.13543916]
 [0.1        1.15832638]
 [0.2        0.2432056 ]
 [0.3        1.81011187]
 [0.4        0.142234  ]
 [0.5        1.17532286]
 [0.6        1.06397509]
 [0.7        1.83631312]
 [0.8        1.0285842 ]
 [0.9        1.74888075]
 [1.         1.95722924]
 [1.1        1.49997067]
 [1.14141667 0.76864943]]",0,0.229
4,f,40,english,5,4,english,2024-02-13 23:27:36.026436,False,1,99,sounds\french\audio/french_176.wav,"[[  0.          17.42683987]
 [  0.1        -69.24605077]
 [  0.2         -6.34428043]
 [  0.3         75.15972611]
 [  0.4        -10.39495746]
 [  0.5         13.88146309]
 [  0.6         18.31316109]
 [  0.7        -69.45072477]
 [  0.8        -49.21604106]
 [  0.9        -57.97216   ]
 [  1.          70.54547072]
 [  1.1         20.83211188]
 [  1.14141667  11.47002735]]","[[0.         0.67887999]
 [0.1        1.61684562]
 [0.2        0.9525789 ]
 [0.3        1.10949226]
 [0.4        1.71567696]
 [0.5        1.28276813]
 [0.6        1.19506457]
 [0.7        1.14753905]
 [0.8        1.86893975]
 [0.9        0.76398554]
 [1.         1.21135923]
 [1.1        1.97943211]
 [1.14141667 0.36114949]]",1,0.28
4,f,40,english,5,4,english,2024-02-13 23:27:36.026436,False,1,100,sounds\french\audio/french_377.wav,"[[  0.         -70.73601698]
 [  0.1         72.22372487]
 [  0.2        -99.25541526]
 [  0.3          4.63765752]
 [  0.4         38.03269156]
 [  0.5          7.49856141]
 [  0.6        -81.25223021]
 [  0.7         -5.18362572]
 [  0.8        -74.84417606]
 [  0.9         -5.31350676]
 [  1.          76.28092315]
 [  1.1         -5.46975296]
 [  1.14141667  48.89221977]]","[[0.         1.03691608]
 [0.1        1.10161831]
 [0.2        0.07422673]
 [0.3        0.35917604]
 [0.4        0.08877166]
 [0.5        0.38120891]
 [0.6        1.17966097]
 [0.7        0.65215157]
 [0.8        0.96101937]
 [0.9        1.24906284]
 [1.         1.82068951]
 [1.1        1.73070441]
 [1.14141667 1.51814834]]",1,0.792
4,f,40,english,5,4,english,2024-02-13 23:27:36.026436,False,1,101,sounds\french\audio/french_34.wav,"[[  0.         -67.44406454]
 [  0.1        -73.84739015]
 [  0.2         81.95150108]
 [  0.3         96.21214806]
 [  0.4        -57.82998038]
 [  0.5         -6.96035323]
 [  0.6        -78.36769072]
 [  0.7         32.9944228 ]
 [  0.8        -68.03079366]
 [  0.9        -99.66558707]
 [  1.         -27.43832551]
 [  1.1        -36.05184577]
 [  1.14141667  58.13157802]]","[[0.         1.22423007]
 [0.1        0.1395008 ]
 [0.2        0.94286686]
 [0.3        0.37314777]
 [0.4        1.0010575 ]
 [0.5        0.83374851]
 [0.6        1.45587277]
 [0.7        0.51003908]
 [0.8        0.90278168]
 [0.9        1.05343223]
 [1.         0.99018558]
 [1.1        0.55477263]
 [1.14141667 1.71179216]]",0,0.224
4,f,40,english,5,4,english,2024-02-13 23:27:36.026436,False,1,102,sounds\french\audio/french_757.wav,"[[  0.           6.48639762]
 [  0.1        -51.86545104]
 [  0.2         13.60583501]
 [  0.3         42.98326891]
 [  0.4         80.68221451]
 [  0.5         60.20667087]
 [  0.6        -66.39272407]
 [  0.7        -56.86759688]
 [  0.8         31.92005434]
 [  0.9        -15.9358313 ]
 [  1.         -11.85374841]
 [  1.1        -30.88500349]
 [  1.14141667  54.27189093]]","[[0.         0.21123235]
 [0.1        0.07273278]
 [0.2        1.91645599]
 [0.3        0.23026147]
 [0.4        0.90860197]
 [0.5        1.24090146]
 [0.6        1.63751086]
 [0.7        1.4449834 ]
 [0.8        0.31701973]
 [0.9        0.97326814]
 [1.         0.32789054]
 [1.1        0.1026242 ]
 [1.14141667 1.17122037]]",1,0.856
4,f,40,english,5,4,english,2024-02-13 23:27:36.026436,False,1,103,sounds\french\audio/french_148.wav,"[[  0.          35.03992427]
 [  0.1        -26.56645319]
 [  0.2          1.54735612]
 [  0.3         43.90273661]
 [  0.4         20.15863223]
 [  0.5         40.21769113]
 [  0.6        -45.48330671]
 [  0.7         37.84515717]
 [  0.8         70.85795378]
 [  0.9         -8.50916841]
 [  1.          74.51689941]
 [  1.1        -29.84970963]
 [  1.14141667 -16.19564709]]","[[0.         0.51574751]
 [0.1        0.44602423]
 [0.2        1.29890337]
 [0.3        1.35071288]
 [0.4        1.88468446]
 [0.5        0.68922645]
 [0.6        0.29500086]
 [0.7        1.13623745]
 [0.8        1.93028729]
 [0.9        1.29954979]
 [1.         1.64717937]
 [1.1        0.6962146 ]
 [1.14141667 1.34875208]]",0,0.183
4,f,40,english,5,4,english,2024-02-13 23:27:36.026436,False,1,104,sounds\french\audio/french_684.wav,"[[  0.         -88.96240825]
 [  0.1        -54.37508207]
 [  0.2        -91.57905397]
 [  0.3        -58.85501017]
 [  0.4         44.82481671]
 [  0.5        -70.60806513]
 [  0.6         94.32148608]
 [  0.7        -17.32520236]
 [  0.8         29.06027198]
 [  0.9        -57.57833097]
 [  1.         -48.20877129]
 [  1.1         58.87949866]
 [  1.14141667 -11.47571774]]","[[0.         1.78476448]
 [0.1        0.02576857]
 [0.2        1.04724647]
 [0.3        0.76694618]
 [0.4        0.80269361]
 [0.5        0.84512097]
 [0.6        0.97813642]
 [0.7        0.54666182]
 [0.8        0.58446507]
 [0.9        0.42247579]
 [1.         0.8068102 ]
 [1.1        0.07609372]
 [1.14141667 1.952562  ]]",0,0.404
4,f,40,english,5,4,english,2024-02-13 23:27:36.026436,False,1,105,sounds\french\audio/french_320.wav,"[[  0.          29.0077802 ]
 [  0.1         57.10058807]
 [  0.2        -58.71455915]
 [  0.3          9.47208013]
 [  0.4         33.55679918]
 [  0.5         30.29342924]
 [  0.6         35.793456  ]
 [  0.7         48.27550343]
 [  0.8          2.54884744]
 [  0.9         11.92843599]
 [  1.         -58.08388318]
 [  1.1        -15.70500576]
 [  1.14141667   2.2106655 ]]","[[0.         1.65272351]
 [0.1        1.38707965]
 [0.2        0.9425519 ]
 [0.3        1.24337659]
 [0.4        0.6156105 ]
 [0.5        0.19227327]
 [0.6        1.76797578]
 [0.7        1.38419028]
 [0.8        0.97487745]
 [0.9        1.02395527]
 [1.         1.53932166]
 [1.1        1.67437481]
 [1.14141667 0.12258709]]",0,0.342
4,f,40,english,5,4,english,2024-02-13 23:27:36.026436,False,1,106,sounds\french\audio/french_972.wav,"[[  0.         -58.81822017]
 [  0.1         34.2814858 ]
 [  0.2         43.99607496]
 [  0.3         33.10738459]
 [  0.4         97.56823967]
 [  0.5         55.48509594]
 [  0.6          8.26795873]
 [  0.7        -94.62638325]
 [  0.8         -5.39482949]
 [  0.9         86.45351621]
 [  1.           5.06049595]
 [  1.1         53.29420755]
 [  1.14141667  35.21157931]]","[[0.         1.66981598]
 [0.1        0.83771232]
 [0.2        1.84031443]
 [0.3        0.59134414]
 [0.4        0.79653586]
 [0.5        0.79909451]
 [0.6        0.62568008]
 [0.7        1.95315118]
 [0.8        1.30361038]
 [0.9        1.20040606]
 [1.         1.77234817]
 [1.1        0.02841743]
 [1.14141667 0.93331201]]",0,0.552
4,f,40,english,5,4,english,2024-02-13 23:27:36.026436,False,1,107,sounds\french\audio/french_727.wav,"[[  0.         -20.05824151]
 [  0.1         69.75510409]
 [  0.2        -72.00605267]
 [  0.3         -6.83631599]
 [  0.4        -22.0103923 ]
 [  0.5         -9.32146308]
 [  0.6         55.52257653]
 [  0.7         15.94643217]
 [  0.8        -72.95565773]
 [  0.9          6.47080818]
 [  1.         -39.0563141 ]
 [  1.1        -93.66180319]
 [  1.14141667  71.53836892]]","[[0.         0.38879294]
 [0.1        1.1988761 ]
 [0.2        1.21340454]
 [0.3        1.07331199]
 [0.4        0.09560546]
 [0.5        0.49166162]
 [0.6        1.00409517]
 [0.7        0.80619997]
 [0.8        1.99971332]
 [0.9        0.66850695]
 [1.         0.85036582]
 [1.1        0.40432855]
 [1.14141667 0.54223164]]",0,0.294
4,f,40,english,5,4,english,2024-02-13 23:27:36.026436,False,1,108,sounds\french\audio/french_801.wav,"[[  0.          42.05546356]
 [  0.1        -92.3466124 ]
 [  0.2         40.25447593]
 [  0.3         86.98750178]
 [  0.4         72.9865192 ]
 [  0.5         44.19690026]
 [  0.6        -18.76468676]
 [  0.7        -37.75366406]
 [  0.8         12.99673571]
 [  0.9        -12.35408716]
 [  1.         -69.77608862]
 [  1.1         65.56794574]
 [  1.14141667 -58.95035096]]","[[0.         0.94398168]
 [0.1        0.20033669]
 [0.2        0.1618081 ]
 [0.3        1.08194555]
 [0.4        1.53929443]
 [0.5        0.95422302]
 [0.6        1.56487139]
 [0.7        1.79656614]
 [0.8        1.22963791]
 [0.9        0.72904385]
 [1.         1.94753287]
 [1.1        0.67352843]
 [1.14141667 1.98504787]]",0,0.14
4,f,40,english,5,4,english,2024-02-13 23:27:36.026436,False,1,109,sounds\french\audio/french_836.wav,"[[  0.         -98.99819352]
 [  0.1        -75.19453636]
 [  0.2        -64.62080883]
 [  0.3         60.55534082]
 [  0.4        -90.56866614]
 [  0.5         42.02544068]
 [  0.6         95.75892424]
 [  0.7         11.40295424]
 [  0.8         -4.00612114]
 [  0.9         -4.86106881]
 [  1.         -58.99614613]
 [  1.1        -54.09355535]
 [  1.14141667  71.69194122]]","[[0.         0.75283852]
 [0.1        1.12271703]
 [0.2        1.03950179]
 [0.3        1.75484814]
 [0.4        1.22078165]
 [0.5        1.13870982]
 [0.6        0.70777339]
 [0.7        0.47085937]
 [0.8        0.55212985]
 [0.9        0.16027773]
 [1.         0.43365065]
 [1.1        0.99941172]
 [1.14141667 1.8664191 ]]",1,0.524
4,f,40,english,5,4,english,2024-02-13 23:27:36.026436,False,1,110,sounds\french\audio/french_395.wav,"[[  0.          45.0752434 ]
 [  0.1        -93.76597298]
 [  0.2         46.57087832]
 [  0.3         59.364027  ]
 [  0.4         25.27671277]
 [  0.5         18.6240562 ]
 [  0.6        -12.8872696 ]
 [  0.7        -38.76560327]
 [  0.8        -43.15551235]
 [  0.9        -99.26206563]
 [  1.          -7.96649049]
 [  1.1         38.87039961]
 [  1.14141667  73.11872685]]","[[0.         1.18925621]
 [0.1        0.52454802]
 [0.2        1.50660579]
 [0.3        0.93298366]
 [0.4        0.50677812]
 [0.5        0.56379423]
 [0.6        1.362377  ]
 [0.7        1.10820927]
 [0.8        0.83193558]
 [0.9        1.55187087]
 [1.         1.27801505]
 [1.1        1.56525151]
 [1.14141667 1.97246425]]",0,0.179
4,f,40,english,5,4,english,2024-02-13 23:27:36.026436,False,1,111,sounds\french\audio/french_946.wav,"[[  0.         -55.67612518]
 [  0.1        -16.03559422]
 [  0.2        -53.91064696]
 [  0.3        -54.26086959]
 [  0.4        -68.76085781]
 [  0.5         59.18925829]
 [  0.6         63.61101254]
 [  0.7         87.82589692]
 [  0.8         30.01203982]
 [  0.9        -24.26556885]
 [  1.         -42.07057407]
 [  1.1        -49.30472811]
 [  1.14141667   9.32164167]]","[[0.         0.4439597 ]
 [0.1        0.03929623]
 [0.2        1.70924034]
 [0.3        1.28648534]
 [0.4        1.86835463]
 [0.5        1.39467098]
 [0.6        0.62769918]
 [0.7        0.63219143]
 [0.8        0.36165151]
 [0.9        0.01038162]
 [1.         1.38502095]
 [1.1        0.34691407]
 [1.14141667 1.3196907 ]]",1,0.811
4,f,40,english,5,4,english,2024-02-13 23:27:36.026436,False,1,112,sounds\french\audio/french_276.wav,"[[  0.          40.65514302]
 [  0.1         35.33846619]
 [  0.2         14.42518211]
 [  0.3         -4.63950573]
 [  0.4          9.05959314]
 [  0.5         95.05175104]
 [  0.6         62.11081424]
 [  0.7         97.66609538]
 [  0.8        -21.8766448 ]
 [  0.9        -33.94139848]
 [  1.          73.91649709]
 [  1.1        -97.42202088]
 [  1.14141667  35.80766788]]","[[0.         0.44229483]
 [0.1        0.89539219]
 [0.2        1.45315262]
 [0.3        1.70162713]
 [0.4        1.23185792]
 [0.5        0.62230675]
 [0.6        1.49488141]
 [0.7        1.00027742]
 [0.8        1.123671  ]
 [0.9        0.08422109]
 [1.         0.53190932]
 [1.1        0.78864338]
 [1.14141667 0.98569661]]",1,0.65
4,f,40,english,5,4,english,2024-02-13 23:27:36.026436,False,1,113,sounds\french\audio/french_538.wav,"[[  0.          20.57677794]
 [  0.1        -39.61392236]
 [  0.2        -45.04759687]
 [  0.3         13.02336847]
 [  0.4         90.60925013]
 [  0.5        -75.04739637]
 [  0.6        -17.92101924]
 [  0.7        -84.21353272]
 [  0.8         47.2379497 ]
 [  0.9         -5.11712126]
 [  1.         -51.87175563]
 [  1.1        -23.54809706]
 [  1.14141667 -19.60047968]]","[[0.         1.38711038]
 [0.1        0.72793815]
 [0.2        0.58138665]
 [0.3        0.36012253]
 [0.4        1.75461796]
 [0.5        0.9845207 ]
 [0.6        1.10875334]
 [0.7        1.78005401]
 [0.8        0.26796674]
 [0.9        0.97835653]
 [1.         1.7494376 ]
 [1.1        0.19527395]
 [1.14141667 0.35274247]]",0,0.287
4,f,40,english,5,4,english,2024-02-13 23:27:36.026436,False,1,114,sounds\french\audio/french_359.wav,"[[  0.          -9.05515543]
 [  0.1          1.08739123]
 [  0.2        -29.10342347]
 [  0.3         19.21147574]
 [  0.4        -75.28414105]
 [  0.5         52.91936795]
 [  0.6         -3.66728601]
 [  0.7         41.33358787]
 [  0.8         -8.82265271]
 [  0.9         25.45822687]
 [  1.         -33.90384395]
 [  1.1          9.81213178]
 [  1.14141667  17.50953352]]","[[0.         0.52574645]
 [0.1        1.23916033]
 [0.2        1.31321142]
 [0.3        1.31016355]
 [0.4        0.63387328]
 [0.5        1.25446966]
 [0.6        1.62147862]
 [0.7        1.37437421]
 [0.8        0.95215241]
 [0.9        1.72535424]
 [1.         0.25742108]
 [1.1        1.52714823]
 [1.14141667 0.81302771]]",0,0.616
4,f,40,english,5,4,english,2024-02-13 23:27:36.026436,False,1,115,sounds\french\audio/french_420.wav,"[[  0.         -18.88007076]
 [  0.1         85.38106336]
 [  0.2         93.67996173]
 [  0.3        -59.60168974]
 [  0.4        -63.09071902]
 [  0.5         -3.42049192]
 [  0.6          3.82145816]
 [  0.7        -46.57323204]
 [  0.8         43.35773063]
 [  0.9        -41.3853357 ]
 [  1.         -80.49552294]
 [  1.1         11.88219307]
 [  1.14141667 -51.63626854]]","[[0.         0.77898817]
 [0.1        0.94651873]
 [0.2        0.16609342]
 [0.3        1.88772727]
 [0.4        0.52202044]
 [0.5        0.19259521]
 [0.6        0.85413524]
 [0.7        0.3417564 ]
 [0.8        1.89293485]
 [0.9        1.49847299]
 [1.         1.43768421]
 [1.1        1.60937112]
 [1.14141667 1.40472667]]",0,0.4
4,f,40,english,5,4,english,2024-02-13 23:27:36.026436,False,1,116,sounds\french\audio/french_540.wav,"[[  0.          31.52597312]
 [  0.1         -1.25149155]
 [  0.2        -73.66629191]
 [  0.3        -22.64766564]
 [  0.4        -99.62555954]
 [  0.5         16.96824428]
 [  0.6         87.0103995 ]
 [  0.7         40.33133886]
 [  0.8         20.73958679]
 [  0.9         42.51308569]
 [  1.          -2.19499318]
 [  1.1        -32.36810626]
 [  1.14141667 -26.20670126]]","[[0.         1.25975377]
 [0.1        1.40968559]
 [0.2        0.44233903]
 [0.3        0.80840944]
 [0.4        0.2410145 ]
 [0.5        0.92564841]
 [0.6        1.23012294]
 [0.7        1.75550661]
 [0.8        1.48031201]
 [0.9        0.50269543]
 [1.         0.37203423]
 [1.1        0.07986375]
 [1.14141667 1.98266687]]",0,0.408
4,f,40,english,5,4,english,2024-02-13 23:27:36.026436,False,1,117,sounds\french\audio/french_203.wav,"[[  0.          52.87711121]
 [  0.1        -18.25420171]
 [  0.2         68.04441143]
 [  0.3         43.0636021 ]
 [  0.4        -82.26648178]
 [  0.5          1.65151901]
 [  0.6         -5.82004213]
 [  0.7         15.24974529]
 [  0.8        -23.68240686]
 [  0.9        -34.12669513]
 [  1.          -2.95263407]
 [  1.1         42.22723244]
 [  1.14141667 -53.1932723 ]]","[[0.         0.93228593]
 [0.1        0.91711051]
 [0.2        0.18526145]
 [0.3        1.29727066]
 [0.4        1.32533086]
 [0.5        1.26645136]
 [0.6        0.44624286]
 [0.7        1.16965291]
 [0.8        1.35974838]
 [0.9        0.72326773]
 [1.         0.40120792]
 [1.1        0.5927827 ]
 [1.14141667 0.36763071]]",0,1.855
4,f,40,english,5,4,english,2024-02-13 23:27:36.026436,False,1,118,sounds\french\audio/french_573.wav,"[[  0.          -8.63416318]
 [  0.1         16.80813537]
 [  0.2         19.45481032]
 [  0.3        -44.5400907 ]
 [  0.4         99.1841253 ]
 [  0.5         22.11415525]
 [  0.6         38.23336035]
 [  0.7         16.03528662]
 [  0.8         45.03300228]
 [  0.9         78.94117461]
 [  1.         -19.40506878]
 [  1.1        -17.6448819 ]
 [  1.14141667 -27.52502811]]","[[0.         1.15935124]
 [0.1        1.79152654]
 [0.2        1.92024926]
 [0.3        0.49878224]
 [0.4        1.61702434]
 [0.5        1.71130334]
 [0.6        1.32813862]
 [0.7        0.51058126]
 [0.8        1.81453438]
 [0.9        0.03550179]
 [1.         1.7614801 ]
 [1.1        0.49774487]
 [1.14141667 1.11116609]]",1,0.619
4,f,40,english,5,4,english,2024-02-13 23:27:36.026436,False,1,119,sounds\french\audio/french_753.wav,"[[  0.         -79.96563984]
 [  0.1          6.89204873]
 [  0.2        -59.04911329]
 [  0.3        -22.29334195]
 [  0.4        -31.81352244]
 [  0.5        -29.50747098]
 [  0.6         27.01274743]
 [  0.7        -52.90572089]
 [  0.8         36.79787763]
 [  0.9         57.30337613]
 [  1.         -47.90339597]
 [  1.1          6.22002638]
 [  1.14141667  84.51773888]]","[[0.         1.05198412]
 [0.1        1.47579936]
 [0.2        1.92899264]
 [0.3        1.69322   ]
 [0.4        0.27967356]
 [0.5        1.20485001]
 [0.6        1.36433783]
 [0.7        0.91134408]
 [0.8        0.73332592]
 [0.9        0.93410667]
 [1.         1.97770738]
 [1.1        0.99208876]
 [1.14141667 0.56874534]]",0,3.367
4,f,40,english,5,4,english,2024-02-13 23:27:36.026436,False,1,120,sounds\french\audio/french_835.wav,"[[  0.          91.17156261]
 [  0.1         25.08688283]
 [  0.2         48.2450029 ]
 [  0.3         90.12216344]
 [  0.4        -40.18882143]
 [  0.5        -54.27954375]
 [  0.6        -68.4756581 ]
 [  0.7        -53.08534738]
 [  0.8        -46.88967441]
 [  0.9        -31.87646129]
 [  1.          35.54298867]
 [  1.1         77.25630657]
 [  1.14141667  70.60272191]]","[[0.         0.94497771]
 [0.1        1.50226129]
 [0.2        1.19715806]
 [0.3        1.34954449]
 [0.4        0.59579265]
 [0.5        1.80504859]
 [0.6        0.24555797]
 [0.7        0.70333343]
 [0.8        0.47518266]
 [0.9        1.46400156]
 [1.         1.13067654]
 [1.1        0.43563769]
 [1.14141667 1.31798111]]",0,0.234
4,f,40,english,5,4,english,2024-02-13 23:27:36.026436,False,1,121,sounds\french\audio/french_670.wav,"[[  0.         -19.68619325]
 [  0.1        -87.11615832]
 [  0.2        -95.93801111]
 [  0.3        -36.11130254]
 [  0.4         44.26071217]
 [  0.5        -39.2988483 ]
 [  0.6         62.48778593]
 [  0.7         52.37424386]
 [  0.8         -0.1573475 ]
 [  0.9        -27.30900442]
 [  1.          64.437364  ]
 [  1.1        -54.68999944]
 [  1.14141667  18.07624972]]","[[0.         1.03147718]
 [0.1        0.42572581]
 [0.2        0.42961524]
 [0.3        0.83502292]
 [0.4        0.03473652]
 [0.5        1.20822798]
 [0.6        1.18718182]
 [0.7        1.97278033]
 [0.8        0.95899662]
 [0.9        1.95617549]
 [1.         1.1037214 ]
 [1.1        0.03680944]
 [1.14141667 0.86571474]]",0,0.394
