subj,sex,age,language,english,french,native_lang,date,practice,block,trial,stim,pitch,stretch,response,rt
8731382169,f,20,english,5,4,english,2024-01-25 10:41:53.868247,True,0,0,sounds\french\audio/french_895.wav,"[[  0.         -82.61317698]
 [  0.1         61.08514813]
 [  0.2         81.60336348]
 [  0.3         49.30047411]
 [  0.4         20.19115982]
 [  0.5          4.84484905]
 [  0.6         -6.33725134]
 [  0.7        -50.52881352]
 [  0.8         18.84546957]
 [  0.9         30.02670132]
 [  1.         -40.28568066]
 [  1.1         -6.50062274]
 [  1.14141667 -45.625456  ]]","[[0.         0.72926476]
 [0.1        0.45997711]
 [0.2        1.06624038]
 [0.3        0.34123055]
 [0.4        1.31366912]
 [0.5        1.47334476]
 [0.6        0.20442325]
 [0.7        0.26254822]
 [0.8        1.49473913]
 [0.9        0.11252772]
 [1.         0.43349841]
 [1.1        0.539272  ]
 [1.14141667 0.44528582]]",0,8.184
8731382169,f,20,english,5,4,english,2024-01-25 10:41:53.868247,True,0,1,sounds\french\audio/french_774.wav,"[[  0.           9.83885445]
 [  0.1        -98.61163295]
 [  0.2        -53.0003268 ]
 [  0.3         67.55233727]
 [  0.4        -25.70793796]
 [  0.5         92.0831493 ]
 [  0.6         54.58794218]
 [  0.7        -99.7650473 ]
 [  0.8         38.64749518]
 [  0.9         80.65889942]
 [  1.           6.94619559]
 [  1.1         36.40208287]
 [  1.14141667 -33.4860138 ]]","[[0.         1.49989175]
 [0.1        1.44348715]
 [0.2        1.64880248]
 [0.3        0.01819088]
 [0.4        1.11963974]
 [0.5        1.57052563]
 [0.6        1.49268288]
 [0.7        0.54873159]
 [0.8        0.90006733]
 [0.9        0.38923512]
 [1.         0.33656127]
 [1.1        1.29679542]
 [1.14141667 0.33566792]]",1,8.067
8731382169,f,20,english,5,4,english,2024-01-25 10:41:53.868247,True,0,2,sounds\french\audio/french_855.wav,"[[  0.          58.9348565 ]
 [  0.1         -1.07099038]
 [  0.2         24.77809286]
 [  0.3        -33.33371518]
 [  0.4         21.54187957]
 [  0.5         67.611016  ]
 [  0.6        -23.38687641]
 [  0.7         88.35815018]
 [  0.8        -66.61094949]
 [  0.9        -53.48174764]
 [  1.          21.80372986]
 [  1.1         78.38405275]
 [  1.14141667 -36.42620958]]","[[0.         0.02221122]
 [0.1        1.78371947]
 [0.2        1.43536621]
 [0.3        1.44849807]
 [0.4        1.45398049]
 [0.5        0.33934945]
 [0.6        0.57525858]
 [0.7        1.04506754]
 [0.8        1.55615331]
 [0.9        1.11138992]
 [1.         1.21526867]
 [1.1        0.30519054]
 [1.14141667 0.60066263]]",0,1.422
8731382169,f,20,english,5,4,english,2024-01-25 10:41:53.868247,False,1,3,sounds\french\audio/french_953.wav,"[[  0.         -71.08712623]
 [  0.1        -49.92646511]
 [  0.2         49.72011339]
 [  0.3         80.70216706]
 [  0.4        -10.67313958]
 [  0.5         50.75410164]
 [  0.6        -88.83491773]
 [  0.7        -85.10586005]
 [  0.8         11.40836745]
 [  0.9         48.08958444]
 [  1.         -70.48795801]
 [  1.1        -24.70863307]
 [  1.14141667  15.64302591]]","[[0.         1.33736288]
 [0.1        0.34849057]
 [0.2        0.22755657]
 [0.3        1.38027604]
 [0.4        1.07804975]
 [0.5        0.09665885]
 [0.6        1.28310275]
 [0.7        0.52119628]
 [0.8        0.61622514]
 [0.9        1.83244373]
 [1.         0.04417742]
 [1.1        0.58765792]
 [1.14141667 0.99188341]]",0,3.237
8731382169,f,20,english,5,4,english,2024-01-25 10:41:53.868247,False,1,4,sounds\french\audio/french_58.wav,"[[  0.          94.28482513]
 [  0.1         -8.41544404]
 [  0.2        -62.96182624]
 [  0.3         60.34405866]
 [  0.4         32.40128414]
 [  0.5        -68.51454301]
 [  0.6         29.82130445]
 [  0.7         -4.63475932]
 [  0.8        -63.03753655]
 [  0.9         88.63401009]
 [  1.          21.784489  ]
 [  1.1         78.48150349]
 [  1.14141667 -36.70796852]]","[[0.         1.90438259]
 [0.1        0.61487331]
 [0.2        1.646554  ]
 [0.3        1.52491918]
 [0.4        1.13010084]
 [0.5        1.89433528]
 [0.6        0.760668  ]
 [0.7        0.49529271]
 [0.8        0.89196999]
 [0.9        0.8973393 ]
 [1.         0.72401301]
 [1.1        0.46484617]
 [1.14141667 1.22177947]]",1,1.578
8731382169,f,20,english,5,4,english,2024-01-25 10:41:53.868247,False,1,5,sounds\french\audio/french_78.wav,"[[ 0.00000000e+00  5.78432984e+01]
 [ 1.00000000e-01  7.04555337e+01]
 [ 2.00000000e-01 -9.19906274e+01]
 [ 3.00000000e-01  1.07627670e+01]
 [ 4.00000000e-01 -7.40017040e+00]
 [ 5.00000000e-01  4.07751849e+01]
 [ 6.00000000e-01  5.24518169e+00]
 [ 7.00000000e-01  1.63081452e+01]
 [ 8.00000000e-01  3.44430788e+01]
 [ 9.00000000e-01 -6.14074175e+01]
 [ 1.00000000e+00 -2.91313338e+01]
 [ 1.10000000e+00 -8.03889644e+01]
 [ 1.14141667e+00  7.37703972e-02]]","[[0.         1.89318731]
 [0.1        1.32239381]
 [0.2        1.51459028]
 [0.3        0.85876673]
 [0.4        0.55407005]
 [0.5        0.14412382]
 [0.6        1.84027889]
 [0.7        0.23745334]
 [0.8        1.6316856 ]
 [0.9        1.07108834]
 [1.         0.46005232]
 [1.1        0.50966126]
 [1.14141667 0.5166272 ]]",1,2.794
8731382169,f,20,english,5,4,english,2024-01-25 10:41:53.868247,False,1,6,sounds\french\audio/french_572.wav,"[[  0.          80.73678316]
 [  0.1        -23.27448365]
 [  0.2         -6.4033247 ]
 [  0.3        -21.51480068]
 [  0.4        -23.17709403]
 [  0.5        -16.39338242]
 [  0.6        -25.06757564]
 [  0.7        -29.26685238]
 [  0.8        -87.48148555]
 [  0.9        -64.25549842]
 [  1.          40.51352953]
 [  1.1         45.12554912]
 [  1.14141667 -31.72850353]]","[[0.         1.6999436 ]
 [0.1        0.98259769]
 [0.2        0.22058864]
 [0.3        1.57552372]
 [0.4        1.16662567]
 [0.5        0.33871722]
 [0.6        1.16530793]
 [0.7        0.52650663]
 [0.8        0.8714082 ]
 [0.9        1.09019316]
 [1.         0.83858713]
 [1.1        1.2000092 ]
 [1.14141667 1.29324569]]",0,1.109
8731382169,f,20,english,5,4,english,2024-01-25 10:41:53.868247,False,1,7,sounds\french\audio/french_241.wav,"[[  0.          98.04166171]
 [  0.1          6.16764543]
 [  0.2        -42.8608234 ]
 [  0.3         54.21216242]
 [  0.4         -1.78367985]
 [  0.5         -5.66820407]
 [  0.6         54.13943684]
 [  0.7        -80.00679133]
 [  0.8        -44.25002722]
 [  0.9        -63.06102871]
 [  1.          80.68342045]
 [  1.1          4.33426609]
 [  1.14141667  89.08058854]]","[[0.         0.32485673]
 [0.1        1.24402989]
 [0.2        0.94649821]
 [0.3        1.15369043]
 [0.4        0.47784039]
 [0.5        0.56378862]
 [0.6        0.47159963]
 [0.7        1.76255958]
 [0.8        0.64662376]
 [0.9        1.1795317 ]
 [1.         1.4030233 ]
 [1.1        0.53258498]
 [1.14141667 0.85759255]]",0,5.123
8731382169,f,20,english,5,4,english,2024-01-25 10:41:53.868247,False,1,8,sounds\french\audio/french_564.wav,"[[  0.           5.8966443 ]
 [  0.1        -15.54380544]
 [  0.2         58.15561903]
 [  0.3        -16.52706825]
 [  0.4          2.31267316]
 [  0.5        -11.97797107]
 [  0.6          1.32687996]
 [  0.7        -19.4298846 ]
 [  0.8        -79.35094672]
 [  0.9         18.14155436]
 [  1.          28.79693358]
 [  1.1         84.00888802]
 [  1.14141667 -69.56382184]]","[[0.         0.94077473]
 [0.1        1.2475432 ]
 [0.2        0.38395722]
 [0.3        0.67240196]
 [0.4        1.16524636]
 [0.5        0.88127423]
 [0.6        0.97845097]
 [0.7        0.42689353]
 [0.8        1.99355282]
 [0.9        1.23446663]
 [1.         1.12515652]
 [1.1        0.49124917]
 [1.14141667 1.22864195]]",0,1.415
8731382169,f,20,english,5,4,english,2024-01-25 10:41:53.868247,False,1,9,sounds\french\audio/french_448.wav,"[[  0.         -49.41608192]
 [  0.1        -30.3512703 ]
 [  0.2         67.54613393]
 [  0.3        -93.47597167]
 [  0.4         23.22725928]
 [  0.5         60.03248628]
 [  0.6         26.16426079]
 [  0.7         19.22865529]
 [  0.8        -91.4658834 ]
 [  0.9        -80.8404627 ]
 [  1.         -14.65228926]
 [  1.1        -63.24456299]
 [  1.14141667 -10.86817626]]","[[0.         0.77831595]
 [0.1        1.71978765]
 [0.2        0.27102863]
 [0.3        1.6891978 ]
 [0.4        1.07215267]
 [0.5        0.57646816]
 [0.6        0.14253766]
 [0.7        1.98223022]
 [0.8        0.38558498]
 [0.9        0.04175319]
 [1.         0.76552701]
 [1.1        1.41782634]
 [1.14141667 0.38733853]]",1,6.399
8731382169,f,20,english,5,4,english,2024-01-25 10:41:53.868247,False,1,10,sounds\french\audio/french_18.wav,"[[  0.          93.52743688]
 [  0.1         75.80838578]
 [  0.2         -9.29580861]
 [  0.3        -14.85608386]
 [  0.4         47.7084462 ]
 [  0.5        -86.34780257]
 [  0.6         56.10837569]
 [  0.7        -52.07621897]
 [  0.8         35.05417357]
 [  0.9         46.67766368]
 [  1.         -74.34797605]
 [  1.1        -14.43524118]
 [  1.14141667  27.72939281]]","[[0.         0.76387958]
 [0.1        1.75297182]
 [0.2        0.15580834]
 [0.3        1.56760651]
 [0.4        0.03729265]
 [0.5        1.22925424]
 [0.6        0.55659065]
 [0.7        1.75613793]
 [0.8        0.81523904]
 [0.9        0.36189217]
 [1.         1.53764015]
 [1.1        1.56618903]
 [1.14141667 1.06338948]]",1,1.197
8731382169,f,20,english,5,4,english,2024-01-25 10:41:53.868247,False,1,11,sounds\french\audio/french_232.wav,"[[  0.          36.09628774]
 [  0.1         70.77342165]
 [  0.2         92.70412942]
 [  0.3         11.2091004 ]
 [  0.4         97.58748495]
 [  0.5         34.99158462]
 [  0.6         83.35627055]
 [  0.7         54.22162088]
 [  0.8         32.72297276]
 [  0.9          5.03567369]
 [  1.         -23.14752626]
 [  1.1        -11.42184493]
 [  1.14141667 -77.93527489]]","[[0.         0.41820771]
 [0.1        0.42448846]
 [0.2        1.53853672]
 [0.3        1.60298784]
 [0.4        1.81399086]
 [0.5        0.3805347 ]
 [0.6        1.83687399]
 [0.7        1.52559445]
 [0.8        0.94250496]
 [0.9        0.72452257]
 [1.         1.88926376]
 [1.1        0.29038285]
 [1.14141667 1.71088611]]",1,0.84
8731382169,f,20,english,5,4,english,2024-01-25 10:41:53.868247,False,1,12,sounds\french\audio/french_992.wav,"[[  0.         -12.15353666]
 [  0.1        -16.76346839]
 [  0.2        -30.99031514]
 [  0.3        -61.11543066]
 [  0.4        -30.89876813]
 [  0.5         28.25498692]
 [  0.6        -72.49617554]
 [  0.7         48.73771299]
 [  0.8        -15.27377936]
 [  0.9        -61.51587323]
 [  1.          81.61890305]
 [  1.1        -34.31279769]
 [  1.14141667 -13.01382433]]","[[0.         1.63036785]
 [0.1        1.21725169]
 [0.2        1.01032608]
 [0.3        0.71979977]
 [0.4        0.85601455]
 [0.5        1.6899119 ]
 [0.6        1.25116451]
 [0.7        0.54341231]
 [0.8        0.19253517]
 [0.9        0.47864211]
 [1.         1.73173346]
 [1.1        1.37721075]
 [1.14141667 1.88742644]]",1,1.87
8731382169,f,20,english,5,4,english,2024-01-25 10:41:53.868247,False,1,13,sounds\french\audio/french_376.wav,"[[  0.          73.87662421]
 [  0.1         19.14234839]
 [  0.2          4.70109866]
 [  0.3        -30.42429162]
 [  0.4          3.90906102]
 [  0.5         10.50295885]
 [  0.6        -30.86055656]
 [  0.7         53.80718703]
 [  0.8        -11.59229263]
 [  0.9         30.36028375]
 [  1.           7.96834733]
 [  1.1         39.66709202]
 [  1.14141667 -13.49486002]]","[[0.         1.19017326]
 [0.1        0.34739983]
 [0.2        1.75661595]
 [0.3        0.21467383]
 [0.4        1.0652989 ]
 [0.5        0.76759319]
 [0.6        0.07074157]
 [0.7        0.03277106]
 [0.8        0.77775249]
 [0.9        1.59245898]
 [1.         1.58597596]
 [1.1        1.4930996 ]
 [1.14141667 0.34020646]]",0,2.915
8731382169,f,20,english,5,4,english,2024-01-25 10:41:53.868247,False,1,14,sounds\french\audio/french_686.wav,"[[  0.         -30.40503815]
 [  0.1        -73.80672172]
 [  0.2        -36.51057578]
 [  0.3         84.77586281]
 [  0.4         69.56142823]
 [  0.5        -93.57366391]
 [  0.6         11.39788525]
 [  0.7         95.44252278]
 [  0.8        -21.39471032]
 [  0.9         87.01309218]
 [  1.          20.85130451]
 [  1.1          9.25388752]
 [  1.14141667  82.17356025]]","[[0.         0.97309277]
 [0.1        0.09917697]
 [0.2        0.40810289]
 [0.3        0.6490206 ]
 [0.4        0.7557536 ]
 [0.5        1.89454364]
 [0.6        0.22314731]
 [0.7        0.84063593]
 [0.8        0.38261638]
 [0.9        0.62114466]
 [1.         1.40845464]
 [1.1        1.00026074]
 [1.14141667 0.21527578]]",1,1.815
8731382169,f,20,english,5,4,english,2024-01-25 10:41:53.868247,False,1,15,sounds\french\audio/french_677.wav,"[[  0.         -81.75795088]
 [  0.1         54.46173738]
 [  0.2          6.69922136]
 [  0.3         67.41624154]
 [  0.4         66.62029781]
 [  0.5        -52.78569663]
 [  0.6        -28.99630628]
 [  0.7        -33.01266758]
 [  0.8         50.32019814]
 [  0.9         70.51424077]
 [  1.          80.64360457]
 [  1.1         31.37722787]
 [  1.14141667  28.37748626]]","[[0.         1.06306623]
 [0.1        0.74930959]
 [0.2        0.04838158]
 [0.3        0.22301941]
 [0.4        0.92539705]
 [0.5        0.35060842]
 [0.6        1.97850281]
 [0.7        0.87949955]
 [0.8        1.56889624]
 [0.9        1.0179866 ]
 [1.         0.88988566]
 [1.1        0.12807465]
 [1.14141667 0.82843843]]",0,0.916
8731382169,f,20,english,5,4,english,2024-01-25 10:41:53.868247,False,1,16,sounds\french\audio/french_507.wav,"[[  0.         -18.83784301]
 [  0.1        -87.48663551]
 [  0.2        -60.22132392]
 [  0.3         37.76954176]
 [  0.4        -39.51400755]
 [  0.5         69.25962534]
 [  0.6          8.68923179]
 [  0.7        -88.77359472]
 [  0.8        -71.54118881]
 [  0.9        -44.94089327]
 [  1.         -83.6521711 ]
 [  1.1        -54.78607567]
 [  1.14141667  10.77236355]]","[[0.         0.97207948]
 [0.1        0.90416973]
 [0.2        1.16192947]
 [0.3        1.71554284]
 [0.4        1.68517506]
 [0.5        0.77995291]
 [0.6        0.11564571]
 [0.7        0.9600572 ]
 [0.8        0.74032598]
 [0.9        0.81018125]
 [1.         0.90893345]
 [1.1        0.84528223]
 [1.14141667 0.84574894]]",0,2.111
8731382169,f,20,english,5,4,english,2024-01-25 10:41:53.868247,False,1,17,sounds\french\audio/french_760.wav,"[[  0.          69.16815791]
 [  0.1         11.20685955]
 [  0.2         34.8102116 ]
 [  0.3        -90.03161019]
 [  0.4        -41.47191296]
 [  0.5        -48.08548611]
 [  0.6         44.80080881]
 [  0.7         -1.23301299]
 [  0.8         75.74770773]
 [  0.9         11.43799096]
 [  1.          -0.37130951]
 [  1.1         42.7692381 ]
 [  1.14141667   4.70425821]]","[[0.         1.2502881 ]
 [0.1        0.70733733]
 [0.2        0.56169678]
 [0.3        1.06492774]
 [0.4        0.95028451]
 [0.5        0.18011187]
 [0.6        1.51077603]
 [0.7        1.38156045]
 [0.8        0.18237232]
 [0.9        1.60322405]
 [1.         0.50883409]
 [1.1        1.54168279]
 [1.14141667 0.12741584]]",0,1.087
8731382169,f,20,english,5,4,english,2024-01-25 10:41:53.868247,False,1,18,sounds\french\audio/french_585.wav,"[[  0.         -33.41252793]
 [  0.1         16.24382037]
 [  0.2        -25.9418489 ]
 [  0.3         48.33013204]
 [  0.4         45.88405821]
 [  0.5        -88.47894619]
 [  0.6        -34.41723162]
 [  0.7         -9.82400388]
 [  0.8        -22.53248636]
 [  0.9        -27.56128675]
 [  1.         -40.76907833]
 [  1.1         52.35342205]
 [  1.14141667  48.19576807]]","[[0.         1.22101876]
 [0.1        1.6651648 ]
 [0.2        1.05138066]
 [0.3        0.61800307]
 [0.4        0.02764776]
 [0.5        1.98662617]
 [0.6        1.86386493]
 [0.7        1.19111382]
 [0.8        1.44448985]
 [0.9        1.18212322]
 [1.         1.40875064]
 [1.1        1.46658809]
 [1.14141667 1.34688982]]",0,1.142
8731382169,f,20,english,5,4,english,2024-01-25 10:41:53.868247,False,1,19,sounds\french\audio/french_499.wav,"[[  0.          46.36032418]
 [  0.1        -46.60169096]
 [  0.2        -44.64435546]
 [  0.3         58.45397876]
 [  0.4        -85.48224087]
 [  0.5         32.740238  ]
 [  0.6         41.02068671]
 [  0.7        -17.47927701]
 [  0.8        -42.8013025 ]
 [  0.9         24.39191536]
 [  1.           7.64839567]
 [  1.1        -20.78399586]
 [  1.14141667 -72.74453454]]","[[0.         1.15673236]
 [0.1        1.00449513]
 [0.2        1.22972272]
 [0.3        1.93385814]
 [0.4        0.72285847]
 [0.5        1.06540141]
 [0.6        1.32864033]
 [0.7        0.41428775]
 [0.8        1.26797028]
 [0.9        0.4617835 ]
 [1.         1.17377315]
 [1.1        0.12304897]
 [1.14141667 1.98091911]]",1,1.159
8731382169,f,20,english,5,4,english,2024-01-25 10:41:53.868247,False,1,20,sounds\french\audio/french_784.wav,"[[  0.          61.11498845]
 [  0.1        -29.92995469]
 [  0.2        -11.47288059]
 [  0.3         24.29652182]
 [  0.4         23.69329687]
 [  0.5        -60.43771724]
 [  0.6         51.46473444]
 [  0.7        -70.458016  ]
 [  0.8         54.70634978]
 [  0.9          2.52650198]
 [  1.         -74.58359756]
 [  1.1         25.39507774]
 [  1.14141667 -77.24745826]]","[[0.         1.50235293]
 [0.1        1.73489079]
 [0.2        1.30865034]
 [0.3        1.74024805]
 [0.4        1.67016595]
 [0.5        1.47687168]
 [0.6        0.10283272]
 [0.7        1.58951588]
 [0.8        1.92784082]
 [0.9        0.25893121]
 [1.         1.24634981]
 [1.1        1.22289809]
 [1.14141667 1.21192196]]",1,0.785
8731382169,f,20,english,5,4,english,2024-01-25 10:41:53.868247,False,1,21,sounds\french\audio/french_583.wav,"[[  0.          26.44085031]
 [  0.1         14.41399243]
 [  0.2        -44.04798398]
 [  0.3         50.00895276]
 [  0.4         19.39525308]
 [  0.5        -25.1077287 ]
 [  0.6         78.46877294]
 [  0.7          9.01865163]
 [  0.8         53.79896315]
 [  0.9        -34.8052192 ]
 [  1.         -44.31336501]
 [  1.1         39.98165615]
 [  1.14141667  86.9176988 ]]","[[0.         0.31061179]
 [0.1        0.85478015]
 [0.2        0.56023647]
 [0.3        0.81245   ]
 [0.4        1.75738507]
 [0.5        0.57873184]
 [0.6        0.13356268]
 [0.7        0.57025844]
 [0.8        0.66409288]
 [0.9        0.72593729]
 [1.         1.39487215]
 [1.1        1.47926175]
 [1.14141667 1.39400974]]",1,1.029
8731382169,f,20,english,5,4,english,2024-01-25 10:41:53.868247,False,1,22,sounds\french\audio/french_546.wav,"[[  0.         -13.20812947]
 [  0.1         -8.37020236]
 [  0.2         57.48789341]
 [  0.3        -11.78127808]
 [  0.4        -26.00594078]
 [  0.5         -3.33648258]
 [  0.6         -1.73835095]
 [  0.7         17.1570367 ]
 [  0.8         37.36365726]
 [  0.9          8.15656678]
 [  1.          -8.08158861]
 [  1.1          5.60886703]
 [  1.14141667 -59.33959304]]","[[0.         0.61614772]
 [0.1        1.06411131]
 [0.2        1.60441563]
 [0.3        0.66409069]
 [0.4        1.03544668]
 [0.5        0.99289071]
 [0.6        0.28199712]
 [0.7        0.98444234]
 [0.8        0.65105351]
 [0.9        1.40961932]
 [1.         1.13622797]
 [1.1        0.04199534]
 [1.14141667 1.17471858]]",0,1.022
8731382169,f,20,english,5,4,english,2024-01-25 10:41:53.868247,False,1,23,sounds\french\audio/french_822.wav,"[[  0.          52.54147999]
 [  0.1        -34.80076399]
 [  0.2        -60.83755875]
 [  0.3        -65.01212878]
 [  0.4         13.01315272]
 [  0.5        -34.10316227]
 [  0.6         19.83997407]
 [  0.7         54.70956781]
 [  0.8         73.16282267]
 [  0.9         86.27533908]
 [  1.          -4.69139147]
 [  1.1          4.7864382 ]
 [  1.14141667 -72.38058155]]","[[0.         0.93325917]
 [0.1        1.09362596]
 [0.2        0.48727308]
 [0.3        0.00395146]
 [0.4        0.5790212 ]
 [0.5        0.49917348]
 [0.6        0.91219053]
 [0.7        0.51258571]
 [0.8        1.36837206]
 [0.9        1.46633967]
 [1.         0.46786351]
 [1.1        1.33976917]
 [1.14141667 1.00243629]]",0,7.125
8731382169,f,20,english,5,4,english,2024-01-25 10:41:53.868247,False,1,24,sounds\french\audio/french_23.wav,"[[  0.          94.27150104]
 [  0.1        -80.41139797]
 [  0.2        -40.00077648]
 [  0.3        -47.9206401 ]
 [  0.4        -40.2970177 ]
 [  0.5        -11.70208262]
 [  0.6        -73.01945175]
 [  0.7        -69.64342933]
 [  0.8         39.43111503]
 [  0.9        -87.77522393]
 [  1.          50.22964222]
 [  1.1         38.35462342]
 [  1.14141667   7.98362759]]","[[0.         0.68588866]
 [0.1        0.79728373]
 [0.2        1.69486433]
 [0.3        1.07510551]
 [0.4        0.70826522]
 [0.5        1.48791079]
 [0.6        1.35299151]
 [0.7        1.04861918]
 [0.8        1.24336041]
 [0.9        0.25284501]
 [1.         1.1347567 ]
 [1.1        0.86795362]
 [1.14141667 1.42379585]]",1,0.773
8731382169,f,20,english,5,4,english,2024-01-25 10:41:53.868247,False,1,25,sounds\french\audio/french_298.wav,"[[  0.          74.36342959]
 [  0.1        -30.85430556]
 [  0.2         13.18853344]
 [  0.3        -73.4727048 ]
 [  0.4        -60.45191565]
 [  0.5        -94.12873808]
 [  0.6        -31.82345599]
 [  0.7        -60.29460257]
 [  0.8         84.08431252]
 [  0.9         59.02610937]
 [  1.         -79.41538286]
 [  1.1         76.10910119]
 [  1.14141667 -73.19197608]]","[[0.         1.72708448]
 [0.1        1.83054559]
 [0.2        1.07667785]
 [0.3        0.33228497]
 [0.4        1.17453787]
 [0.5        0.39690451]
 [0.6        0.26650884]
 [0.7        1.00925451]
 [0.8        0.39924312]
 [0.9        1.81273618]
 [1.         0.80693123]
 [1.1        0.30944745]
 [1.14141667 0.11210384]]",0,0.747
8731382169,f,20,english,5,4,english,2024-01-25 10:41:53.868247,False,1,26,sounds\french\audio/french_7.wav,"[[  0.          17.30709494]
 [  0.1        -63.94658261]
 [  0.2         67.53719725]
 [  0.3         63.15001228]
 [  0.4        -14.43015731]
 [  0.5         44.13924234]
 [  0.6        -87.5939518 ]
 [  0.7        -21.88923859]
 [  0.8        -75.22079211]
 [  0.9        -44.33295618]
 [  1.         -82.62011516]
 [  1.1        -28.3543826 ]
 [  1.14141667  39.13782865]]","[[0.         0.40724151]
 [0.1        1.34555896]
 [0.2        1.64185408]
 [0.3        1.66374523]
 [0.4        0.37650843]
 [0.5        0.14892944]
 [0.6        1.49586542]
 [0.7        1.13659751]
 [0.8        1.64492365]
 [0.9        1.22066873]
 [1.         1.13133422]
 [1.1        0.5437483 ]
 [1.14141667 1.32903079]]",0,1.706
8731382169,f,20,english,5,4,english,2024-01-25 10:41:53.868247,False,1,27,sounds\french\audio/french_863.wav,"[[  0.          50.77342544]
 [  0.1        -97.70321946]
 [  0.2         -1.18541723]
 [  0.3        -45.09950091]
 [  0.4        -69.59494908]
 [  0.5         86.27470407]
 [  0.6        -28.73893601]
 [  0.7        -52.09259609]
 [  0.8         36.31844789]
 [  0.9        -73.2210636 ]
 [  1.          90.73733334]
 [  1.1         58.21757398]
 [  1.14141667  56.00262149]]","[[0.         0.93550892]
 [0.1        0.64505388]
 [0.2        0.94585453]
 [0.3        0.69723049]
 [0.4        0.77036715]
 [0.5        0.28013797]
 [0.6        1.05013391]
 [0.7        1.91965154]
 [0.8        0.72883716]
 [0.9        0.81903439]
 [1.         0.23587725]
 [1.1        1.52886581]
 [1.14141667 1.3743652 ]]",0,1.6
8731382169,f,20,english,5,4,english,2024-01-25 10:41:53.868247,False,1,28,sounds\french\audio/french_72.wav,"[[  0.          28.80890163]
 [  0.1          1.83594253]
 [  0.2        -49.19445344]
 [  0.3        -70.77665619]
 [  0.4         -7.07365357]
 [  0.5         -3.71167603]
 [  0.6         -5.89788173]
 [  0.7         -8.85470239]
 [  0.8        -41.07718235]
 [  0.9         74.79866108]
 [  1.          67.9411898 ]
 [  1.1        -68.57372393]
 [  1.14141667   4.6478635 ]]","[[0.         0.00807448]
 [0.1        1.18328739]
 [0.2        0.21319227]
 [0.3        1.3297124 ]
 [0.4        0.54545246]
 [0.5        1.13976731]
 [0.6        1.92534018]
 [0.7        1.58910715]
 [0.8        0.82088611]
 [0.9        1.16352624]
 [1.         0.62223628]
 [1.1        1.92120245]
 [1.14141667 0.9834755 ]]",1,5.075
8731382169,f,20,english,5,4,english,2024-01-25 10:41:53.868247,False,1,29,sounds\french\audio/french_980.wav,"[[  0.          12.49965345]
 [  0.1         -0.57398704]
 [  0.2          6.98435062]
 [  0.3        -14.93038142]
 [  0.4         60.9840723 ]
 [  0.5        -48.71308389]
 [  0.6        -79.65834227]
 [  0.7        -50.51010342]
 [  0.8        -24.81961521]
 [  0.9         21.2332399 ]
 [  1.         -51.63356186]
 [  1.1         17.6267543 ]
 [  1.14141667  76.33872594]]","[[0.         1.38379379]
 [0.1        1.12760639]
 [0.2        0.66811796]
 [0.3        1.18773856]
 [0.4        0.66284488]
 [0.5        1.65362832]
 [0.6        0.49264933]
 [0.7        0.79275088]
 [0.8        1.04690997]
 [0.9        0.9289726 ]
 [1.         0.8759544 ]
 [1.1        0.51696217]
 [1.14141667 0.29433098]]",1,2.766
8731382169,f,20,english,5,4,english,2024-01-25 10:41:53.868247,False,1,30,sounds\french\audio/french_323.wav,"[[  0.          12.36986901]
 [  0.1         48.82190283]
 [  0.2         -1.79727253]
 [  0.3         77.63750811]
 [  0.4        -60.00496185]
 [  0.5         -2.01076709]
 [  0.6        -28.75884422]
 [  0.7         22.62115314]
 [  0.8         -2.37165969]
 [  0.9         22.55401856]
 [  1.          43.0566967 ]
 [  1.1        -33.43664636]
 [  1.14141667  52.86099482]]","[[0.         1.14236572]
 [0.1        0.38320847]
 [0.2        1.79497165]
 [0.3        1.20829329]
 [0.4        1.87271721]
 [0.5        1.08235671]
 [0.6        1.19118186]
 [0.7        1.38743172]
 [0.8        1.90987729]
 [0.9        1.29939901]
 [1.         1.04952512]
 [1.1        1.67070777]
 [1.14141667 0.91951803]]",0,0.966
8731382169,f,20,english,5,4,english,2024-01-25 10:41:53.868247,False,1,31,sounds\french\audio/french_17.wav,"[[  0.         -71.55402429]
 [  0.1         56.29343934]
 [  0.2         20.79261224]
 [  0.3        -90.11025679]
 [  0.4          6.70427818]
 [  0.5          6.61311772]
 [  0.6         12.56869907]
 [  0.7         12.55137567]
 [  0.8        -95.46150143]
 [  0.9         49.81790086]
 [  1.          16.6905365 ]
 [  1.1        -37.04715418]
 [  1.14141667  50.55014442]]","[[0.         0.5785157 ]
 [0.1        1.90036265]
 [0.2        1.44471121]
 [0.3        1.565227  ]
 [0.4        0.33054676]
 [0.5        1.03998894]
 [0.6        1.28428477]
 [0.7        1.1424972 ]
 [0.8        0.50274776]
 [0.9        1.25594358]
 [1.         1.98482543]
 [1.1        0.15414972]
 [1.14141667 1.03942219]]",0,0.564
8731382169,f,20,english,5,4,english,2024-01-25 10:41:53.868247,False,1,32,sounds\french\audio/french_192.wav,"[[  0.          30.82383492]
 [  0.1         56.21573393]
 [  0.2         24.16947114]
 [  0.3          3.50491484]
 [  0.4        -15.12530872]
 [  0.5         74.93169692]
 [  0.6         94.70898811]
 [  0.7         16.09582878]
 [  0.8         40.74297906]
 [  0.9        -91.28641458]
 [  1.         -63.57975611]
 [  1.1        -58.96501678]
 [  1.14141667  93.61921464]]","[[0.         0.09608915]
 [0.1        1.30315133]
 [0.2        0.43089858]
 [0.3        0.92292411]
 [0.4        1.759236  ]
 [0.5        1.67135617]
 [0.6        1.8201665 ]
 [0.7        0.4064912 ]
 [0.8        0.00834951]
 [0.9        1.30051988]
 [1.         0.06930059]
 [1.1        1.91067339]
 [1.14141667 0.35990528]]",1,1.476
8731382169,f,20,english,5,4,english,2024-01-25 10:41:53.868247,False,1,33,sounds\french\audio/french_453.wav,"[[  0.         -23.12360245]
 [  0.1         29.79054149]
 [  0.2        -61.88371212]
 [  0.3         24.4476251 ]
 [  0.4         74.62873842]
 [  0.5         12.37672846]
 [  0.6        -70.00186754]
 [  0.7         11.74973885]
 [  0.8        -80.88572625]
 [  0.9         66.25216979]
 [  1.         -23.72864128]
 [  1.1         33.84760067]
 [  1.14141667 -62.79214688]]","[[0.         0.90227617]
 [0.1        0.21120058]
 [0.2        0.51262885]
 [0.3        1.10207476]
 [0.4        0.01288431]
 [0.5        0.02891067]
 [0.6        0.10282501]
 [0.7        0.68270454]
 [0.8        0.50027224]
 [0.9        1.17966042]
 [1.         1.91038714]
 [1.1        1.13795736]
 [1.14141667 0.6421682 ]]",1,2.979
8731382169,f,20,english,5,4,english,2024-01-25 10:41:53.868247,False,1,34,sounds\french\audio/french_90.wav,"[[  0.          51.48746338]
 [  0.1        -41.52133944]
 [  0.2        -66.82034245]
 [  0.3        -31.91254058]
 [  0.4        -56.80874984]
 [  0.5         68.34440134]
 [  0.6         50.52930805]
 [  0.7         -1.54170659]
 [  0.8        -35.46235807]
 [  0.9        -26.78461092]
 [  1.         -18.44652471]
 [  1.1        -81.09353417]
 [  1.14141667 -49.88432299]]","[[0.         0.57454011]
 [0.1        0.30754534]
 [0.2        0.44353042]
 [0.3        1.82396512]
 [0.4        0.39997223]
 [0.5        0.81668605]
 [0.6        1.26467162]
 [0.7        1.853663  ]
 [0.8        1.62084754]
 [0.9        1.11562603]
 [1.         0.44778159]
 [1.1        1.37026097]
 [1.14141667 1.47783822]]",0,0.961
8731382169,f,20,english,5,4,english,2024-01-25 10:41:53.868247,False,1,35,sounds\french\audio/french_83.wav,"[[  0.          30.44967783]
 [  0.1         32.59822127]
 [  0.2         50.8682146 ]
 [  0.3          0.11779037]
 [  0.4         16.37029834]
 [  0.5         90.79022832]
 [  0.6        -75.94380669]
 [  0.7         34.13478403]
 [  0.8        -27.50152867]
 [  0.9          9.93495342]
 [  1.          58.3619145 ]
 [  1.1         15.44979308]
 [  1.14141667  13.85594834]]","[[0.         0.42165273]
 [0.1        0.3238076 ]
 [0.2        0.37913611]
 [0.3        0.78724258]
 [0.4        1.0594663 ]
 [0.5        0.48377765]
 [0.6        0.29353951]
 [0.7        1.31767934]
 [0.8        0.23770737]
 [0.9        0.58296712]
 [1.         0.64820026]
 [1.1        0.12158815]
 [1.14141667 0.38899467]]",1,1.297
8731382169,f,20,english,5,4,english,2024-01-25 10:41:53.868247,False,1,36,sounds\french\audio/french_859.wav,"[[  0.           1.3379516 ]
 [  0.1        -77.14988891]
 [  0.2         78.55525238]
 [  0.3         48.96351303]
 [  0.4        -79.69152109]
 [  0.5        -84.80889232]
 [  0.6         51.82772479]
 [  0.7         44.24285845]
 [  0.8        -23.46330426]
 [  0.9         71.97448193]
 [  1.          66.15659707]
 [  1.1        -96.85014514]
 [  1.14141667  30.23995933]]","[[0.         1.36958818]
 [0.1        0.72000045]
 [0.2        0.35438615]
 [0.3        1.87808106]
 [0.4        0.09661352]
 [0.5        0.77016697]
 [0.6        1.09697533]
 [0.7        1.53057635]
 [0.8        0.58688687]
 [0.9        1.83686528]
 [1.         1.24721253]
 [1.1        1.51912792]
 [1.14141667 1.23413117]]",0,0.49
8731382169,f,20,english,5,4,english,2024-01-25 10:41:53.868247,False,1,37,sounds\french\audio/french_136.wav,"[[  0.          -0.93982829]
 [  0.1        -11.50989173]
 [  0.2        -44.36955216]
 [  0.3         66.25490653]
 [  0.4         76.3056731 ]
 [  0.5        -53.64019494]
 [  0.6         72.7758556 ]
 [  0.7        -38.40056364]
 [  0.8        -83.94600904]
 [  0.9         60.40561717]
 [  1.          72.86364806]
 [  1.1        -58.86585407]
 [  1.14141667 -45.29061382]]","[[0.         1.18112725]
 [0.1        1.4876912 ]
 [0.2        1.55378385]
 [0.3        0.32679305]
 [0.4        0.30628123]
 [0.5        1.28210854]
 [0.6        0.14420429]
 [0.7        0.03042669]
 [0.8        1.12471325]
 [0.9        1.12043075]
 [1.         0.82934503]
 [1.1        1.5410961 ]
 [1.14141667 0.1982647 ]]",1,1.436
8731382169,f,20,english,5,4,english,2024-01-25 10:41:53.868247,False,1,38,sounds\french\audio/french_607.wav,"[[  0.         -12.44319925]
 [  0.1        -94.85502328]
 [  0.2        -56.9043045 ]
 [  0.3        -18.59020178]
 [  0.4          9.27721525]
 [  0.5        -86.5437561 ]
 [  0.6         -6.68115528]
 [  0.7         82.47774992]
 [  0.8        -64.79498014]
 [  0.9         54.51357441]
 [  1.          -5.80014692]
 [  1.1        -22.72142846]
 [  1.14141667 -12.07204915]]","[[0.         1.98503206]
 [0.1        1.00846088]
 [0.2        0.69384134]
 [0.3        1.76201014]
 [0.4        1.29911711]
 [0.5        1.18024894]
 [0.6        0.3019838 ]
 [0.7        1.87001672]
 [0.8        1.60167076]
 [0.9        0.75456566]
 [1.         1.39935428]
 [1.1        0.80764916]
 [1.14141667 0.54525676]]",1,1.599
8731382169,f,20,english,5,4,english,2024-01-25 10:41:53.868247,False,1,39,sounds\french\audio/french_793.wav,"[[  0.           0.61381663]
 [  0.1         92.05397349]
 [  0.2         23.63919485]
 [  0.3         94.74337544]
 [  0.4         -4.85245867]
 [  0.5        -56.1365957 ]
 [  0.6        -40.34456192]
 [  0.7         -4.58487531]
 [  0.8         51.30918321]
 [  0.9         30.18198808]
 [  1.          16.73684117]
 [  1.1         54.14621512]
 [  1.14141667 -25.30748168]]","[[0.         0.26180926]
 [0.1        1.13910564]
 [0.2        0.88267261]
 [0.3        0.03736754]
 [0.4        0.51925045]
 [0.5        0.99207172]
 [0.6        0.90668955]
 [0.7        1.38132635]
 [0.8        0.53966259]
 [0.9        0.34803119]
 [1.         0.51822744]
 [1.1        0.88562178]
 [1.14141667 1.30234483]]",1,8.701
8731382169,f,20,english,5,4,english,2024-01-25 10:41:53.868247,False,1,40,sounds\french\audio/french_348.wav,"[[  0.          65.33613143]
 [  0.1         42.71102392]
 [  0.2        -49.50432257]
 [  0.3        -61.26991756]
 [  0.4         81.44701614]
 [  0.5        -10.05211206]
 [  0.6         87.11270269]
 [  0.7         90.29193007]
 [  0.8         93.39850094]
 [  0.9        -79.62417921]
 [  1.         -15.95490787]
 [  1.1        -66.82103003]
 [  1.14141667 -47.67225362]]","[[0.         1.16978451]
 [0.1        0.73810141]
 [0.2        0.4698039 ]
 [0.3        1.26576423]
 [0.4        0.22687112]
 [0.5        1.91474745]
 [0.6        0.22997797]
 [0.7        0.73541214]
 [0.8        0.50625098]
 [0.9        0.81926426]
 [1.         1.83332922]
 [1.1        1.98718157]
 [1.14141667 0.33289995]]",0,0.397
8731382169,f,20,english,5,4,english,2024-01-25 10:41:53.868247,False,1,41,sounds\french\audio/french_491.wav,"[[  0.         -32.79721007]
 [  0.1         25.08986795]
 [  0.2         99.1504277 ]
 [  0.3        -40.395736  ]
 [  0.4        -71.36976671]
 [  0.5        -12.86066121]
 [  0.6        -65.44931003]
 [  0.7        -44.47531366]
 [  0.8        -56.76207038]
 [  0.9         -6.01683556]
 [  1.          20.39042638]
 [  1.1         90.67968242]
 [  1.14141667 -59.47328451]]","[[0.         0.90116217]
 [0.1        1.66798034]
 [0.2        1.6353077 ]
 [0.3        0.54788847]
 [0.4        0.14013258]
 [0.5        1.37878942]
 [0.6        1.55111616]
 [0.7        0.8376443 ]
 [0.8        0.4945917 ]
 [0.9        0.95762538]
 [1.         1.57619744]
 [1.1        1.41544214]
 [1.14141667 0.84581543]]",0,0.903
8731382169,f,20,english,5,4,english,2024-01-25 10:41:53.868247,False,1,42,sounds\french\audio/french_751.wav,"[[  0.         -53.65501636]
 [  0.1        -57.87906463]
 [  0.2         -0.82566028]
 [  0.3        -77.31457628]
 [  0.4        -35.09433893]
 [  0.5        -15.70401626]
 [  0.6        -38.79526926]
 [  0.7         67.92736975]
 [  0.8         36.51373284]
 [  0.9        -45.40608101]
 [  1.          98.20599699]
 [  1.1        -73.08267469]
 [  1.14141667  90.55001698]]","[[0.         0.39280002]
 [0.1        1.10814523]
 [0.2        1.51148642]
 [0.3        1.64295454]
 [0.4        0.27420827]
 [0.5        0.92339785]
 [0.6        1.61669488]
 [0.7        0.84098062]
 [0.8        0.94117021]
 [0.9        1.18438584]
 [1.         0.46277716]
 [1.1        1.11077822]
 [1.14141667 0.9464581 ]]",0,1.072
8731382169,f,20,english,5,4,english,2024-01-25 10:41:53.868247,False,1,43,sounds\french\audio/french_630.wav,"[[  0.         -11.85609202]
 [  0.1         96.09656475]
 [  0.2        -33.56747365]
 [  0.3         28.74577445]
 [  0.4          2.92872037]
 [  0.5         33.78274033]
 [  0.6         33.00019437]
 [  0.7         47.31284147]
 [  0.8        -99.16635588]
 [  0.9         77.81632981]
 [  1.          69.4017306 ]
 [  1.1         18.2284971 ]
 [  1.14141667 -69.99810241]]","[[0.         1.94260734]
 [0.1        1.15731247]
 [0.2        0.61883627]
 [0.3        1.63189615]
 [0.4        0.13310367]
 [0.5        0.62854349]
 [0.6        1.95286232]
 [0.7        0.55695804]
 [0.8        0.39433406]
 [0.9        0.61587688]
 [1.         1.15717027]
 [1.1        0.28159614]
 [1.14141667 1.31420192]]",0,1.047
8731382169,f,20,english,5,4,english,2024-01-25 10:41:53.868247,False,1,44,sounds\french\audio/french_818.wav,"[[  0.         -64.54705195]
 [  0.1        -91.61229029]
 [  0.2        -35.88082764]
 [  0.3         32.95002598]
 [  0.4         96.16696272]
 [  0.5        -48.65661003]
 [  0.6         25.73992633]
 [  0.7         -4.3414441 ]
 [  0.8        -93.84475958]
 [  0.9         -3.13234897]
 [  1.          47.01287281]
 [  1.1         59.21891233]
 [  1.14141667 -20.63650262]]","[[0.         0.40470359]
 [0.1        0.43509238]
 [0.2        1.96085692]
 [0.3        1.7784599 ]
 [0.4        0.64261238]
 [0.5        1.18267194]
 [0.6        1.67096599]
 [0.7        0.44090251]
 [0.8        0.30247145]
 [0.9        1.0976871 ]
 [1.         0.50195876]
 [1.1        0.49926872]
 [1.14141667 1.67818596]]",1,1.326
8731382169,f,20,english,5,4,english,2024-01-25 10:41:53.868247,False,1,45,sounds\french\audio/french_857.wav,"[[  0.         -17.64526742]
 [  0.1        -25.98877449]
 [  0.2        -66.10832937]
 [  0.3        -88.51094871]
 [  0.4         91.07890977]
 [  0.5        -13.92008987]
 [  0.6         54.75941796]
 [  0.7         -4.58518353]
 [  0.8         11.45557139]
 [  0.9          5.18176205]
 [  1.         -87.80596671]
 [  1.1         79.86083704]
 [  1.14141667  17.65085073]]","[[0.         1.40873737]
 [0.1        1.52012132]
 [0.2        0.61506303]
 [0.3        0.08867208]
 [0.4        1.21823938]
 [0.5        1.56249666]
 [0.6        0.75412867]
 [0.7        1.52143423]
 [0.8        0.77508155]
 [0.9        0.32822579]
 [1.         1.53825627]
 [1.1        0.27496503]
 [1.14141667 1.00153669]]",1,2.4
8731382169,f,20,english,5,4,english,2024-01-25 10:41:53.868247,False,1,46,sounds\french\audio/french_241.wav,"[[  0.          98.04166171]
 [  0.1          6.16764543]
 [  0.2        -42.8608234 ]
 [  0.3         54.21216242]
 [  0.4         -1.78367985]
 [  0.5         -5.66820407]
 [  0.6         54.13943684]
 [  0.7        -80.00679133]
 [  0.8        -44.25002722]
 [  0.9        -63.06102871]
 [  1.          80.68342045]
 [  1.1          4.33426609]
 [  1.14141667  89.08058854]]","[[0.         0.32485673]
 [0.1        1.24402989]
 [0.2        0.94649821]
 [0.3        1.15369043]
 [0.4        0.47784039]
 [0.5        0.56378862]
 [0.6        0.47159963]
 [0.7        1.76255958]
 [0.8        0.64662376]
 [0.9        1.1795317 ]
 [1.         1.4030233 ]
 [1.1        0.53258498]
 [1.14141667 0.85759255]]",0,0.831
8731382169,f,20,english,5,4,english,2024-01-25 10:41:53.868247,False,1,47,sounds\french\audio/french_800.wav,"[[  0.          -4.25631197]
 [  0.1         22.66632576]
 [  0.2         10.28900554]
 [  0.3         38.91231447]
 [  0.4        -12.27796799]
 [  0.5        -44.30581187]
 [  0.6        -22.88012932]
 [  0.7        -52.86195267]
 [  0.8         54.71772215]
 [  0.9        -51.65672109]
 [  1.         -51.77252424]
 [  1.1          7.38633242]
 [  1.14141667  17.65920114]]","[[0.         0.80468249]
 [0.1        1.14959191]
 [0.2        1.74323515]
 [0.3        0.77183711]
 [0.4        1.35051127]
 [0.5        1.94130964]
 [0.6        1.17392808]
 [0.7        1.52994111]
 [0.8        1.58058267]
 [0.9        1.58832666]
 [1.         1.09850348]
 [1.1        0.30985734]
 [1.14141667 1.66023428]]",0,1.447
8731382169,f,20,english,5,4,english,2024-01-25 10:41:53.868247,False,1,48,sounds\french\audio/french_73.wav,"[[  0.          95.05431398]
 [  0.1        -50.91948374]
 [  0.2        -96.19003488]
 [  0.3         18.2865052 ]
 [  0.4         82.99950242]
 [  0.5        -73.16931859]
 [  0.6        -92.19935445]
 [  0.7        -41.25216255]
 [  0.8         53.29969886]
 [  0.9        -22.90498979]
 [  1.           8.87722078]
 [  1.1         88.28753975]
 [  1.14141667  51.67559791]]","[[0.         1.00672117]
 [0.1        1.2078676 ]
 [0.2        0.52929109]
 [0.3        0.91699778]
 [0.4        1.03241308]
 [0.5        0.96861979]
 [0.6        0.78229621]
 [0.7        0.77834766]
 [0.8        1.29970854]
 [0.9        0.81166191]
 [1.         1.87816594]
 [1.1        0.91860342]
 [1.14141667 1.07977803]]",1,3.252
8731382169,f,20,english,5,4,english,2024-01-25 10:41:53.868247,False,1,49,sounds\french\audio/french_12.wav,"[[  0.         -48.68172333]
 [  0.1         70.91397052]
 [  0.2        -17.86739247]
 [  0.3        -14.73225587]
 [  0.4         75.23392581]
 [  0.5         -0.38538353]
 [  0.6        -22.9614484 ]
 [  0.7         16.8886563 ]
 [  0.8         33.5798334 ]
 [  0.9         -4.41287917]
 [  1.         -95.96681656]
 [  1.1         26.54904609]
 [  1.14141667 -64.50952247]]","[[0.         0.07655503]
 [0.1        0.75975218]
 [0.2        0.97135406]
 [0.3        1.230876  ]
 [0.4        0.11397004]
 [0.5        0.1757259 ]
 [0.6        0.21281103]
 [0.7        0.16946373]
 [0.8        0.97186419]
 [0.9        0.8719393 ]
 [1.         1.93533156]
 [1.1        1.01102189]
 [1.14141667 1.51400696]]",0,4.003
8731382169,f,20,english,5,4,english,2024-01-25 10:41:53.868247,False,1,50,sounds\french\audio/french_403.wav,"[[ 0.00000000e+00 -4.59176890e+01]
 [ 1.00000000e-01 -3.35384282e+01]
 [ 2.00000000e-01 -9.90043312e+01]
 [ 3.00000000e-01 -9.51875869e+01]
 [ 4.00000000e-01 -1.31361376e+00]
 [ 5.00000000e-01 -1.70630736e+01]
 [ 6.00000000e-01  5.27592549e+00]
 [ 7.00000000e-01 -5.67711373e+01]
 [ 8.00000000e-01 -9.89437023e+01]
 [ 9.00000000e-01  2.00525885e+01]
 [ 1.00000000e+00  8.25481655e+01]
 [ 1.10000000e+00 -7.65475600e-02]
 [ 1.14141667e+00  5.77427460e+01]]","[[0.         0.58011626]
 [0.1        1.99690542]
 [0.2        1.57936583]
 [0.3        0.63045979]
 [0.4        0.92092092]
 [0.5        1.43478   ]
 [0.6        0.86263227]
 [0.7        0.84275935]
 [0.8        0.57690133]
 [0.9        0.40646744]
 [1.         1.72098979]
 [1.1        0.26974162]
 [1.14141667 1.53625509]]",1,1.911
8731382169,f,20,english,5,4,english,2024-01-25 10:41:53.868247,False,1,51,sounds\french\audio/french_277.wav,"[[  0.          41.08697403]
 [  0.1         73.08255676]
 [  0.2         43.08380993]
 [  0.3         21.02518819]
 [  0.4         37.78172954]
 [  0.5         23.93679705]
 [  0.6        -67.69710766]
 [  0.7         13.42536336]
 [  0.8         51.4556767 ]
 [  0.9        -56.6842947 ]
 [  1.          28.39117481]
 [  1.1         34.75019827]
 [  1.14141667 -68.6754391 ]]","[[0.         1.6200344 ]
 [0.1        1.77085985]
 [0.2        1.23064254]
 [0.3        0.65610838]
 [0.4        0.97608822]
 [0.5        1.2635416 ]
 [0.6        0.50594858]
 [0.7        1.65502646]
 [0.8        0.51878313]
 [0.9        0.73572105]
 [1.         0.30914429]
 [1.1        1.8798641 ]
 [1.14141667 1.7546161 ]]",0,1.401
8731382169,f,20,english,5,4,english,2024-01-25 10:41:53.868247,False,1,52,sounds\french\audio/french_790.wav,"[[  0.         -57.89390183]
 [  0.1         79.17034047]
 [  0.2         61.93580685]
 [  0.3         73.83766419]
 [  0.4         12.23224582]
 [  0.5        -36.20570809]
 [  0.6        -35.80418352]
 [  0.7         69.07593122]
 [  0.8         53.97673234]
 [  0.9          5.33736996]
 [  1.         -61.7851313 ]
 [  1.1        -57.04830132]
 [  1.14141667 -40.58679678]]","[[0.         1.82865837]
 [0.1        0.89920795]
 [0.2        1.70315706]
 [0.3        0.63562482]
 [0.4        1.66129943]
 [0.5        1.84264673]
 [0.6        1.991074  ]
 [0.7        1.03555826]
 [0.8        1.17116983]
 [0.9        0.91705366]
 [1.         0.69782623]
 [1.1        0.3273665 ]
 [1.14141667 1.69019386]]",0,3.708
8731382169,f,20,english,5,4,english,2024-01-25 10:41:53.868247,False,1,53,sounds\french\audio/french_59.wav,"[[  0.          20.14643924]
 [  0.1        -59.30511307]
 [  0.2        -36.90138171]
 [  0.3        -90.62422634]
 [  0.4         81.58991679]
 [  0.5        -52.14492004]
 [  0.6         38.69064245]
 [  0.7        -68.88870739]
 [  0.8        -78.91362722]
 [  0.9        -49.91064634]
 [  1.         -14.96747288]
 [  1.1        -61.38764873]
 [  1.14141667 -36.71502823]]","[[0.         1.64013215]
 [0.1        1.38227101]
 [0.2        1.29161714]
 [0.3        0.15011777]
 [0.4        0.54809828]
 [0.5        1.06399462]
 [0.6        1.23043118]
 [0.7        0.46411732]
 [0.8        1.50887557]
 [0.9        1.51001833]
 [1.         0.8690376 ]
 [1.1        0.30032336]
 [1.14141667 0.26110281]]",0,0.681
8731382169,f,20,english,5,4,english,2024-01-25 10:41:53.868247,False,1,54,sounds\french\audio/french_740.wav,"[[  0.         -23.8561275 ]
 [  0.1         12.41197017]
 [  0.2        -75.22373784]
 [  0.3         13.95432459]
 [  0.4         86.43925379]
 [  0.5        -59.06853257]
 [  0.6          8.7812543 ]
 [  0.7        -81.4658243 ]
 [  0.8        -37.53161999]
 [  0.9        -71.6710365 ]
 [  1.          31.54551497]
 [  1.1         73.9548309 ]
 [  1.14141667  48.2786376 ]]","[[0.         1.38106788]
 [0.1        0.96449807]
 [0.2        1.81317808]
 [0.3        0.48903687]
 [0.4        0.89209498]
 [0.5        0.79820054]
 [0.6        1.20695925]
 [0.7        0.55003693]
 [0.8        0.44955963]
 [0.9        1.78000651]
 [1.         1.38553911]
 [1.1        0.82064893]
 [1.14141667 1.09253076]]",0,0.389
8731382169,f,20,english,5,4,english,2024-01-25 10:41:53.868247,False,1,55,sounds\french\audio/french_627.wav,"[[  0.         -16.75461083]
 [  0.1         96.68168603]
 [  0.2         48.99544256]
 [  0.3          0.76904268]
 [  0.4         87.66540715]
 [  0.5        -64.38324185]
 [  0.6          8.96877637]
 [  0.7         95.71714798]
 [  0.8         81.75759789]
 [  0.9        -61.95503167]
 [  1.         -55.56251199]
 [  1.1        -58.25099621]
 [  1.14141667   8.35767044]]","[[0.         1.95083346]
 [0.1        0.13048675]
 [0.2        1.72232558]
 [0.3        0.90654128]
 [0.4        1.62595787]
 [0.5        1.92320359]
 [0.6        1.99291341]
 [0.7        0.90201811]
 [0.8        1.76576748]
 [0.9        0.88798876]
 [1.         1.6846147 ]
 [1.1        0.34329039]
 [1.14141667 1.96569685]]",0,1.285
8731382169,f,20,english,5,4,english,2024-01-25 10:41:53.868247,False,1,56,sounds\french\audio/french_365.wav,"[[  0.          31.61059752]
 [  0.1        -20.95390516]
 [  0.2         91.80675495]
 [  0.3         67.5510561 ]
 [  0.4        -93.71218293]
 [  0.5         45.32858601]
 [  0.6         84.27621414]
 [  0.7         28.03701536]
 [  0.8        -71.05958582]
 [  0.9        -23.72094953]
 [  1.          18.29479384]
 [  1.1        -12.82863724]
 [  1.14141667  67.22118203]]","[[0.         1.42310817]
 [0.1        1.52633282]
 [0.2        1.22938312]
 [0.3        1.26382278]
 [0.4        1.53091844]
 [0.5        0.15378173]
 [0.6        0.48106393]
 [0.7        1.79415704]
 [0.8        1.6034925 ]
 [0.9        1.30852528]
 [1.         0.76895664]
 [1.1        0.54165009]
 [1.14141667 0.4698946 ]]",1,1.016
8731382169,f,20,english,5,4,english,2024-01-25 10:41:53.868247,False,1,57,sounds\french\audio/french_181.wav,"[[  0.         -95.95313982]
 [  0.1         91.63677354]
 [  0.2        -91.79980108]
 [  0.3         95.40210499]
 [  0.4         68.17989767]
 [  0.5         91.86803384]
 [  0.6         20.20115402]
 [  0.7        -36.24540979]
 [  0.8         20.77489363]
 [  0.9        -36.30620857]
 [  1.         -52.43059698]
 [  1.1        -66.44451369]
 [  1.14141667 -36.9073082 ]]","[[0.         0.44165639]
 [0.1        1.91213413]
 [0.2        1.20479938]
 [0.3        1.03854449]
 [0.4        0.34466606]
 [0.5        1.08947615]
 [0.6        0.89950013]
 [0.7        1.58660506]
 [0.8        1.10035668]
 [0.9        1.78772501]
 [1.         0.45092467]
 [1.1        1.08205846]
 [1.14141667 1.12829283]]",0,1.164
8731382169,f,20,english,5,4,english,2024-01-25 10:41:53.868247,False,1,58,sounds\french\audio/french_509.wav,"[[  0.         -79.28359824]
 [  0.1        -85.11040144]
 [  0.2         58.20689337]
 [  0.3        -53.07212842]
 [  0.4         14.54054596]
 [  0.5         38.89832363]
 [  0.6        -59.04867319]
 [  0.7        -18.19891129]
 [  0.8        -73.30058077]
 [  0.9          9.43722615]
 [  1.           2.35167022]
 [  1.1        -85.32824264]
 [  1.14141667  19.13063021]]","[[0.         1.76643555]
 [0.1        0.57920492]
 [0.2        0.89396937]
 [0.3        0.80048379]
 [0.4        1.05618514]
 [0.5        0.5299581 ]
 [0.6        1.30906386]
 [0.7        0.47184047]
 [0.8        0.61756094]
 [0.9        0.62383509]
 [1.         1.37177888]
 [1.1        0.23324254]
 [1.14141667 0.91376092]]",1,1.249
8731382169,f,20,english,5,4,english,2024-01-25 10:41:53.868247,False,1,59,sounds\french\audio/french_152.wav,"[[  0.          22.60875431]
 [  0.1         14.43122851]
 [  0.2         -1.17604154]
 [  0.3         99.62569478]
 [  0.4        -64.65569176]
 [  0.5        -41.8275267 ]
 [  0.6         34.66502166]
 [  0.7        -34.34381975]
 [  0.8        -81.02141252]
 [  0.9         -5.97302513]
 [  1.          -9.83226783]
 [  1.1        -81.65012796]
 [  1.14141667 -85.13057585]]","[[0.         0.83599951]
 [0.1        1.5682517 ]
 [0.2        1.13690913]
 [0.3        0.25393691]
 [0.4        0.7777625 ]
 [0.5        0.49994145]
 [0.6        0.40465775]
 [0.7        1.59194632]
 [0.8        1.86410196]
 [0.9        1.45014204]
 [1.         1.09472926]
 [1.1        1.56254354]
 [1.14141667 1.24100029]]",0,0.625
8731382169,f,20,english,5,4,english,2024-01-25 10:41:53.868247,False,1,60,sounds\french\audio/french_200.wav,"[[  0.          10.66473812]
 [  0.1        -23.10865754]
 [  0.2        -26.94851482]
 [  0.3        -33.10340519]
 [  0.4         49.54751917]
 [  0.5        -36.16101415]
 [  0.6         69.93456636]
 [  0.7        -11.46588409]
 [  0.8        -34.69840246]
 [  0.9         30.23959847]
 [  1.         -25.32995204]
 [  1.1         23.48875346]
 [  1.14141667 -45.42969725]]","[[0.         1.15832736]
 [0.1        0.48233726]
 [0.2        0.16521916]
 [0.3        0.50966441]
 [0.4        0.60857897]
 [0.5        0.8415653 ]
 [0.6        1.89309681]
 [0.7        1.76792236]
 [0.8        0.32179511]
 [0.9        1.57618572]
 [1.         1.69305609]
 [1.1        0.93398883]
 [1.14141667 0.80903223]]",0,2.069
8731382169,f,20,english,5,4,english,2024-01-25 10:41:53.868247,False,1,61,sounds\french\audio/french_454.wav,"[[  0.         -49.02277235]
 [  0.1        -46.1888088 ]
 [  0.2        -73.50241288]
 [  0.3         65.30688392]
 [  0.4        -86.33590272]
 [  0.5         20.22949723]
 [  0.6         63.90246923]
 [  0.7         -0.21908508]
 [  0.8        -14.82135042]
 [  0.9        -13.13400192]
 [  1.          20.07556925]
 [  1.1         44.26026986]
 [  1.14141667  79.45244035]]","[[0.         1.48003732]
 [0.1        1.6377516 ]
 [0.2        0.65510072]
 [0.3        0.596266  ]
 [0.4        0.90504214]
 [0.5        1.73406366]
 [0.6        1.43058566]
 [0.7        1.1269756 ]
 [0.8        0.21101907]
 [0.9        0.01231935]
 [1.         0.83166829]
 [1.1        0.28141821]
 [1.14141667 0.38664579]]",1,18.05
8731382169,f,20,english,5,4,english,2024-01-25 10:41:53.868247,False,1,62,sounds\french\audio/french_247.wav,"[[  0.          87.28160699]
 [  0.1         54.41631338]
 [  0.2         37.94276377]
 [  0.3        -67.22196437]
 [  0.4        -92.34211051]
 [  0.5         78.48957529]
 [  0.6        -77.60666308]
 [  0.7         89.04290108]
 [  0.8         95.38463118]
 [  0.9        -13.6171851 ]
 [  1.         -62.96426983]
 [  1.1         10.74028895]
 [  1.14141667  30.61570069]]","[[0.         1.75163706]
 [0.1        0.7463051 ]
 [0.2        0.54290341]
 [0.3        0.62982968]
 [0.4        1.66450544]
 [0.5        0.11949556]
 [0.6        0.59857061]
 [0.7        1.16504801]
 [0.8        1.98824202]
 [0.9        1.58326229]
 [1.         1.7730941 ]
 [1.1        1.01142382]
 [1.14141667 1.22213948]]",0,1.014
8731382169,f,20,english,5,4,english,2024-01-25 10:41:53.868247,False,1,63,sounds\french\audio/french_920.wav,"[[  0.         -19.30176094]
 [  0.1         42.24966406]
 [  0.2          4.59844531]
 [  0.3        -50.26112208]
 [  0.4         47.39747576]
 [  0.5         27.93582477]
 [  0.6        -38.24165331]
 [  0.7         79.50072261]
 [  0.8        -91.19546582]
 [  0.9        -20.42037276]
 [  1.          91.97225273]
 [  1.1        -48.93345242]
 [  1.14141667  95.20886409]]","[[0.         0.60193283]
 [0.1        0.7358632 ]
 [0.2        0.13299168]
 [0.3        0.59112751]
 [0.4        1.45544303]
 [0.5        0.40873773]
 [0.6        0.52359377]
 [0.7        0.61254304]
 [0.8        1.38763095]
 [0.9        0.18569195]
 [1.         0.6972115 ]
 [1.1        0.62343363]
 [1.14141667 1.83344131]]",1,1.053
8731382169,f,20,english,5,4,english,2024-01-25 10:41:53.868247,False,1,64,sounds\french\audio/french_943.wav,"[[  0.         -39.69174356]
 [  0.1          9.71823043]
 [  0.2         47.82156503]
 [  0.3        -70.45683827]
 [  0.4        -70.36375892]
 [  0.5        -78.09117144]
 [  0.6         43.3001696 ]
 [  0.7         27.56713446]
 [  0.8         54.98161832]
 [  0.9        -79.78278868]
 [  1.          66.03849917]
 [  1.1        -45.24869993]
 [  1.14141667 -78.78234865]]","[[0.         1.76181843]
 [0.1        0.25866572]
 [0.2        1.61194964]
 [0.3        1.00408981]
 [0.4        1.40275429]
 [0.5        0.47534453]
 [0.6        1.96075546]
 [0.7        0.78248667]
 [0.8        1.42706625]
 [0.9        0.63840216]
 [1.         0.77310904]
 [1.1        1.03848478]
 [1.14141667 0.62693219]]",0,0.828
8731382169,f,20,english,5,4,english,2024-01-25 10:41:53.868247,False,1,65,sounds\french\audio/french_242.wav,"[[  0.          59.9246686 ]
 [  0.1         34.317104  ]
 [  0.2        -16.35349213]
 [  0.3         -3.89642432]
 [  0.4         29.46938807]
 [  0.5         87.19069856]
 [  0.6         31.58848926]
 [  0.7         67.19434404]
 [  0.8         60.57808794]
 [  0.9         42.29794733]
 [  1.         -49.75875444]
 [  1.1         36.47194949]
 [  1.14141667  15.25504346]]","[[0.         0.7705426 ]
 [0.1        1.35720794]
 [0.2        1.64741756]
 [0.3        1.32981589]
 [0.4        1.18335147]
 [0.5        0.80157352]
 [0.6        0.21433163]
 [0.7        0.24954864]
 [0.8        0.17414225]
 [0.9        1.41029666]
 [1.         0.53247326]
 [1.1        0.97948889]
 [1.14141667 0.82870392]]",0,0.744
8731382169,f,20,english,5,4,english,2024-01-25 10:41:53.868247,False,1,66,sounds\french\audio/french_346.wav,"[[  0.          67.18638051]
 [  0.1        -53.72817021]
 [  0.2        -98.82675461]
 [  0.3         81.03283057]
 [  0.4         40.62024646]
 [  0.5         40.24818958]
 [  0.6         73.99457353]
 [  0.7        -37.99947694]
 [  0.8         23.54785661]
 [  0.9         84.67325281]
 [  1.          17.08617407]
 [  1.1         -3.95750505]
 [  1.14141667  -9.87393999]]","[[0.         0.75562578]
 [0.1        1.96814797]
 [0.2        0.66238493]
 [0.3        0.69352013]
 [0.4        1.9757751 ]
 [0.5        1.26469529]
 [0.6        1.9973896 ]
 [0.7        0.34186283]
 [0.8        0.20007718]
 [0.9        0.13425269]
 [1.         1.72774193]
 [1.1        1.47153835]
 [1.14141667 1.38090812]]",1,1.757
8731382169,f,20,english,5,4,english,2024-01-25 10:41:53.868247,False,1,67,sounds\french\audio/french_523.wav,"[[  0.         -75.83581255]
 [  0.1        -63.95979745]
 [  0.2         70.70748816]
 [  0.3        -88.32485967]
 [  0.4          8.86467855]
 [  0.5        -78.35507958]
 [  0.6         79.68692287]
 [  0.7        -66.26307401]
 [  0.8         82.45368817]
 [  0.9          5.31615062]
 [  1.          52.29136848]
 [  1.1         84.25542057]
 [  1.14141667 -81.50074772]]","[[0.         1.74891242]
 [0.1        1.24637055]
 [0.2        1.089879  ]
 [0.3        0.1892634 ]
 [0.4        1.69433182]
 [0.5        1.04689272]
 [0.6        1.57985602]
 [0.7        0.43504497]
 [0.8        1.24932662]
 [0.9        0.10258394]
 [1.         0.36040908]
 [1.1        1.46217366]
 [1.14141667 0.41311824]]",1,1.638
8731382169,f,20,english,5,4,english,2024-01-25 10:41:53.868247,False,1,68,sounds\french\audio/french_631.wav,"[[  0.         -65.31555005]
 [  0.1        -98.21018196]
 [  0.2         18.08220976]
 [  0.3        -34.94102239]
 [  0.4         43.5397084 ]
 [  0.5        -34.92271106]
 [  0.6        -62.3284968 ]
 [  0.7         65.84120362]
 [  0.8         65.32096576]
 [  0.9        -86.43801955]
 [  1.          77.99614396]
 [  1.1        -38.6920609 ]
 [  1.14141667 -55.57510265]]","[[0.         1.46028399]
 [0.1        1.49072852]
 [0.2        1.64056838]
 [0.3        1.13093154]
 [0.4        1.36257634]
 [0.5        1.04083507]
 [0.6        1.75749736]
 [0.7        0.79353521]
 [0.8        0.95397314]
 [0.9        1.05736435]
 [1.         0.89031938]
 [1.1        0.06581765]
 [1.14141667 1.93576932]]",0,0.768
8731382169,f,20,english,5,4,english,2024-01-25 10:41:53.868247,False,1,69,sounds\french\audio/french_651.wav,"[[  0.         -31.7609884 ]
 [  0.1         52.52680229]
 [  0.2          7.85876219]
 [  0.3        -92.85880299]
 [  0.4        -32.19396237]
 [  0.5        -28.65780659]
 [  0.6          6.85787083]
 [  0.7         39.81262841]
 [  0.8        -67.00385353]
 [  0.9        -43.82258998]
 [  1.          24.68405128]
 [  1.1        -55.05960981]
 [  1.14141667 -24.80841555]]","[[0.         1.50568683]
 [0.1        0.67521246]
 [0.2        0.9805251 ]
 [0.3        0.97060286]
 [0.4        1.17347833]
 [0.5        0.21577742]
 [0.6        1.38579708]
 [0.7        1.21350763]
 [0.8        0.81689615]
 [0.9        0.87721586]
 [1.         0.52438845]
 [1.1        1.4125197 ]
 [1.14141667 1.30711742]]",0,0.557
8731382169,f,20,english,5,4,english,2024-01-25 10:41:53.868247,False,1,70,sounds\french\audio/french_444.wav,"[[  0.          87.77909642]
 [  0.1          6.94972025]
 [  0.2         98.20857903]
 [  0.3        -35.32566364]
 [  0.4        -66.21920686]
 [  0.5        -74.00275706]
 [  0.6        -89.76463472]
 [  0.7         90.23942867]
 [  0.8        -81.90686285]
 [  0.9          5.03977492]
 [  1.          94.83681906]
 [  1.1        -46.16486493]
 [  1.14141667   7.32353635]]","[[0.         0.96730071]
 [0.1        1.64754835]
 [0.2        0.34232644]
 [0.3        0.90396438]
 [0.4        1.59193054]
 [0.5        1.69980703]
 [0.6        0.62529401]
 [0.7        0.0404836 ]
 [0.8        0.34890232]
 [0.9        1.70546998]
 [1.         1.15170641]
 [1.1        0.22788225]
 [1.14141667 1.99633075]]",0,2.334
8731382169,f,20,english,5,4,english,2024-01-25 10:41:53.868247,False,1,71,sounds\french\audio/french_913.wav,"[[  0.         -47.25134073]
 [  0.1        -82.39617775]
 [  0.2        -49.77107224]
 [  0.3        -65.18926328]
 [  0.4        -21.76681249]
 [  0.5         25.27312638]
 [  0.6         55.78406259]
 [  0.7        -27.8783869 ]
 [  0.8        -52.69419859]
 [  0.9         99.44571929]
 [  1.          87.33615919]
 [  1.1         46.22614126]
 [  1.14141667 -71.95970705]]","[[0.         0.04335797]
 [0.1        1.67103064]
 [0.2        0.81708714]
 [0.3        1.28520765]
 [0.4        1.7369454 ]
 [0.5        1.03142804]
 [0.6        0.74912627]
 [0.7        1.88947917]
 [0.8        0.39822081]
 [0.9        0.52497493]
 [1.         1.60117884]
 [1.1        1.53649436]
 [1.14141667 0.49650592]]",1,0.669
8731382169,f,20,english,5,4,english,2024-01-25 10:41:53.868247,False,1,72,sounds\french\audio/french_741.wav,"[[  0.          14.15097335]
 [  0.1        -32.15615978]
 [  0.2          0.97880502]
 [  0.3         62.8807323 ]
 [  0.4         14.95483835]
 [  0.5        -47.52261373]
 [  0.6         40.92949838]
 [  0.7        -35.15475222]
 [  0.8          0.88649301]
 [  0.9         -1.68344265]
 [  1.         -73.2966165 ]
 [  1.1          0.32925838]
 [  1.14141667  57.70395775]]","[[0.         0.41697978]
 [0.1        0.82705056]
 [0.2        0.21383898]
 [0.3        0.34603532]
 [0.4        0.81976538]
 [0.5        0.42184555]
 [0.6        0.62052888]
 [0.7        0.04672478]
 [0.8        0.17050367]
 [0.9        0.32486831]
 [1.         1.96245172]
 [1.1        1.95075609]
 [1.14141667 1.58857603]]",1,2.819
8731382169,f,20,english,5,4,english,2024-01-25 10:41:53.868247,False,1,73,sounds\french\audio/french_229.wav,"[[  0.         -72.66349649]
 [  0.1         98.17669026]
 [  0.2         19.85962147]
 [  0.3         10.18447552]
 [  0.4          2.99186972]
 [  0.5        -36.21916984]
 [  0.6          3.19583609]
 [  0.7         12.12984782]
 [  0.8          6.61404525]
 [  0.9        -91.89213886]
 [  1.         -48.12418513]
 [  1.1        -26.91376671]
 [  1.14141667 -57.44589876]]","[[0.         0.80556486]
 [0.1        0.96438648]
 [0.2        1.67956767]
 [0.3        0.9177948 ]
 [0.4        1.97008316]
 [0.5        1.12909119]
 [0.6        1.71065486]
 [0.7        0.23797279]
 [0.8        0.17780208]
 [0.9        0.24849055]
 [1.         0.41301125]
 [1.1        1.34102455]
 [1.14141667 0.47586737]]",1,3.159
8731382169,f,20,english,5,4,english,2024-01-25 10:41:53.868247,False,1,74,sounds\french\audio/french_100.wav,"[[  0.          45.30319637]
 [  0.1         47.12815282]
 [  0.2         67.48521917]
 [  0.3         23.61125392]
 [  0.4         20.77565094]
 [  0.5        -96.44964023]
 [  0.6        -27.30276741]
 [  0.7          7.85228196]
 [  0.8         68.83602268]
 [  0.9         42.76775799]
 [  1.          54.32509685]
 [  1.1        -78.45035325]
 [  1.14141667  25.20581813]]","[[0.         0.4266363 ]
 [0.1        0.41166499]
 [0.2        0.75850186]
 [0.3        1.79094973]
 [0.4        1.79636496]
 [0.5        1.36246425]
 [0.6        0.7383114 ]
 [0.7        1.2886492 ]
 [0.8        0.63858011]
 [0.9        0.54144566]
 [1.         0.22455782]
 [1.1        0.1039249 ]
 [1.14141667 0.78301344]]",1,1.125
8731382169,f,20,english,5,4,english,2024-01-25 10:41:53.868247,False,1,75,sounds\french\audio/french_514.wav,"[[  0.          19.52749286]
 [  0.1        -18.57686292]
 [  0.2        -11.65218112]
 [  0.3         67.73335024]
 [  0.4          2.50414412]
 [  0.5          9.98358294]
 [  0.6        -79.6394771 ]
 [  0.7        -56.69454189]
 [  0.8        -18.40953805]
 [  0.9        -52.29201997]
 [  1.          65.08217065]
 [  1.1        -33.80106577]
 [  1.14141667  66.85973887]]","[[0.         0.20353533]
 [0.1        0.56212811]
 [0.2        1.19554763]
 [0.3        1.25373802]
 [0.4        0.49820491]
 [0.5        0.39911731]
 [0.6        1.7639196 ]
 [0.7        0.02096069]
 [0.8        1.56380325]
 [0.9        0.9626698 ]
 [1.         1.00011748]
 [1.1        1.32853589]
 [1.14141667 0.17517316]]",0,0.626
8731382169,f,20,english,5,4,english,2024-01-25 10:41:53.868247,False,1,76,sounds\french\audio/french_441.wav,"[[  0.         -24.8078558 ]
 [  0.1        -84.7413396 ]
 [  0.2        -54.57948598]
 [  0.3        -24.55513399]
 [  0.4        -45.63119702]
 [  0.5         65.30634786]
 [  0.6        -35.529757  ]
 [  0.7        -63.71516085]
 [  0.8        -48.48185805]
 [  0.9         67.64663354]
 [  1.         -70.86473216]
 [  1.1        -25.16106758]
 [  1.14141667  11.27004952]]","[[0.         0.61702354]
 [0.1        1.04353074]
 [0.2        0.65654414]
 [0.3        0.56139446]
 [0.4        1.49104282]
 [0.5        1.66162479]
 [0.6        0.86040524]
 [0.7        0.85625142]
 [0.8        1.85480785]
 [0.9        1.13901036]
 [1.         0.82407347]
 [1.1        0.60883166]
 [1.14141667 0.41277653]]",0,0.696
8731382169,f,20,english,5,4,english,2024-01-25 10:41:53.868247,False,1,77,sounds\french\audio/french_451.wav,"[[  0.          13.64543592]
 [  0.1         30.45656646]
 [  0.2        -93.33784927]
 [  0.3         41.17542734]
 [  0.4        -17.94843501]
 [  0.5         92.75253269]
 [  0.6          9.61888201]
 [  0.7        -93.92618804]
 [  0.8        -75.1366346 ]
 [  0.9         72.92704108]
 [  1.          37.5519194 ]
 [  1.1         22.2390394 ]
 [  1.14141667 -87.78454889]]","[[0.         0.18856091]
 [0.1        0.87989674]
 [0.2        1.77173223]
 [0.3        0.52249752]
 [0.4        1.16185541]
 [0.5        0.90730745]
 [0.6        0.89255022]
 [0.7        0.4671425 ]
 [0.8        0.7161357 ]
 [0.9        1.02332595]
 [1.         1.63339454]
 [1.1        1.38577343]
 [1.14141667 1.11106618]]",0,0.818
8731382169,f,20,english,5,4,english,2024-01-25 10:41:53.868247,False,1,78,sounds\french\audio/french_908.wav,"[[  0.         -66.3779675 ]
 [  0.1        -28.5421502 ]
 [  0.2        -22.9147671 ]
 [  0.3        -34.94019935]
 [  0.4         61.86884539]
 [  0.5         83.64566059]
 [  0.6         60.86992569]
 [  0.7         58.69542131]
 [  0.8         77.06906169]
 [  0.9         38.59306526]
 [  1.         -51.51466241]
 [  1.1        -83.23936541]
 [  1.14141667 -22.89699687]]","[[0.         0.86684132]
 [0.1        1.72332505]
 [0.2        0.74533207]
 [0.3        1.21813987]
 [0.4        0.71103664]
 [0.5        1.29376765]
 [0.6        0.25389428]
 [0.7        0.35914306]
 [0.8        1.18469319]
 [0.9        1.47090381]
 [1.         0.74483344]
 [1.1        1.04145333]
 [1.14141667 1.32310488]]",0,0.655
8731382169,f,20,english,5,4,english,2024-01-25 10:41:53.868247,False,1,79,sounds\french\audio/french_339.wav,"[[  0.         -91.66719756]
 [  0.1        -40.09978494]
 [  0.2        -46.90301028]
 [  0.3         12.45337088]
 [  0.4         -7.3719957 ]
 [  0.5        -38.64502955]
 [  0.6         -0.41989507]
 [  0.7        -65.16929213]
 [  0.8        -43.18579065]
 [  0.9         25.69839136]
 [  1.          84.15479884]
 [  1.1         10.06988607]
 [  1.14141667  43.816716  ]]","[[0.         0.83274   ]
 [0.1        1.09275025]
 [0.2        0.95259452]
 [0.3        1.57352585]
 [0.4        1.00068358]
 [0.5        1.00260215]
 [0.6        1.95270399]
 [0.7        0.43011904]
 [0.8        0.35215598]
 [0.9        0.10684683]
 [1.         0.15211102]
 [1.1        1.20317356]
 [1.14141667 0.84876333]]",1,2.463
8731382169,f,20,english,5,4,english,2024-01-25 10:41:53.868247,False,1,80,sounds\french\audio/french_809.wav,"[[  0.         -97.7648991 ]
 [  0.1        -16.18124336]
 [  0.2        -71.88539975]
 [  0.3        -75.84617329]
 [  0.4        -56.68697986]
 [  0.5         17.73104693]
 [  0.6         -2.03944779]
 [  0.7        -23.40421354]
 [  0.8         79.78220222]
 [  0.9         49.19641655]
 [  1.           6.2438068 ]
 [  1.1         -8.92121489]
 [  1.14141667  -7.95185914]]","[[0.         0.21825072]
 [0.1        0.34685571]
 [0.2        1.98263416]
 [0.3        0.64349693]
 [0.4        1.61870407]
 [0.5        0.29134017]
 [0.6        0.74693677]
 [0.7        1.6892509 ]
 [0.8        0.75730555]
 [0.9        1.52241905]
 [1.         0.50964644]
 [1.1        1.05106393]
 [1.14141667 0.92890258]]",0,0.539
8731382169,f,20,english,5,4,english,2024-01-25 10:41:53.868247,False,1,81,sounds\french\audio/french_457.wav,"[[  0.         -33.69887569]
 [  0.1         97.74765169]
 [  0.2        -20.91555675]
 [  0.3        -92.61946295]
 [  0.4         94.41903557]
 [  0.5        -70.30133724]
 [  0.6        -29.16257372]
 [  0.7         55.8333977 ]
 [  0.8        -62.54113235]
 [  0.9         36.59242577]
 [  1.          40.72902596]
 [  1.1         65.00978537]
 [  1.14141667  52.21296525]]","[[0.         0.17499985]
 [0.1        1.36458037]
 [0.2        0.96521613]
 [0.3        0.19125459]
 [0.4        0.0683773 ]
 [0.5        1.34477155]
 [0.6        0.23910949]
 [0.7        1.04842375]
 [0.8        1.16073061]
 [0.9        1.87248192]
 [1.         0.95401436]
 [1.1        1.65191739]
 [1.14141667 0.18770955]]",0,0.629
8731382169,f,20,english,5,4,english,2024-01-25 10:41:53.868247,False,1,82,sounds\french\audio/french_121.wav,"[[  0.          36.31722291]
 [  0.1        -94.67920207]
 [  0.2         42.58160408]
 [  0.3        -54.98649345]
 [  0.4         32.53709836]
 [  0.5        -47.86424121]
 [  0.6         17.70587277]
 [  0.7         46.08483785]
 [  0.8         -0.93592594]
 [  0.9         97.56864784]
 [  1.          44.91248464]
 [  1.1        -44.8128552 ]
 [  1.14141667  25.61472821]]","[[0.         0.15369428]
 [0.1        0.35107133]
 [0.2        0.30883861]
 [0.3        1.14457082]
 [0.4        1.55797219]
 [0.5        0.58086875]
 [0.6        0.73530762]
 [0.7        1.67904556]
 [0.8        0.53889317]
 [0.9        1.23294188]
 [1.         1.51376777]
 [1.1        0.48627874]
 [1.14141667 1.53605719]]",0,0.845
8731382169,f,20,english,5,4,english,2024-01-25 10:41:53.868247,False,1,83,sounds\french\audio/french_402.wav,"[[  0.          43.60306148]
 [  0.1         52.79449836]
 [  0.2        -57.92795748]
 [  0.3        -27.25508583]
 [  0.4         45.79346269]
 [  0.5        -31.74582216]
 [  0.6        -18.71060209]
 [  0.7        -34.56488139]
 [  0.8         50.02876186]
 [  0.9         46.21312355]
 [  1.         -48.79450763]
 [  1.1         41.96519938]
 [  1.14141667  21.65174679]]","[[0.         1.57150394]
 [0.1        0.87803632]
 [0.2        1.33772447]
 [0.3        0.944537  ]
 [0.4        1.04797076]
 [0.5        1.58716537]
 [0.6        0.47386777]
 [0.7        1.86309114]
 [0.8        1.98338729]
 [0.9        0.57664376]
 [1.         0.64923074]
 [1.1        1.02867805]
 [1.14141667 1.40556036]]",1,1.022
8731382169,f,20,english,5,4,english,2024-01-25 10:41:53.868247,False,1,84,sounds\french\audio/french_398.wav,"[[  0.          -0.47588945]
 [  0.1         10.67007681]
 [  0.2        -27.34636739]
 [  0.3        -61.02498148]
 [  0.4        -62.67595425]
 [  0.5        -59.75932167]
 [  0.6         -6.57202028]
 [  0.7          5.51300474]
 [  0.8         22.43302726]
 [  0.9         47.1307929 ]
 [  1.          51.79055982]
 [  1.1         -6.90632718]
 [  1.14141667  -4.64238818]]","[[0.         1.85209882]
 [0.1        1.76660836]
 [0.2        1.00622522]
 [0.3        1.42874672]
 [0.4        1.80711506]
 [0.5        0.94314473]
 [0.6        1.48862275]
 [0.7        0.87148671]
 [0.8        1.61328838]
 [0.9        1.8619471 ]
 [1.         0.99206386]
 [1.1        1.43730219]
 [1.14141667 1.46487779]]",0,1.081
8731382169,f,20,english,5,4,english,2024-01-25 10:41:53.868247,False,1,85,sounds\french\audio/french_692.wav,"[[  0.          -3.63018758]
 [  0.1        -68.16293379]
 [  0.2         94.54361928]
 [  0.3         25.0958546 ]
 [  0.4        -99.12905949]
 [  0.5        -47.00596257]
 [  0.6        -38.46033818]
 [  0.7        -52.37005629]
 [  0.8         29.27180561]
 [  0.9        -18.83326647]
 [  1.         -60.91466225]
 [  1.1        -20.82797719]
 [  1.14141667 -55.17315813]]","[[0.         1.78860692]
 [0.1        0.86300874]
 [0.2        1.08735966]
 [0.3        0.96562877]
 [0.4        1.65441916]
 [0.5        1.19889603]
 [0.6        0.04010608]
 [0.7        0.99288232]
 [0.8        1.70634134]
 [0.9        0.96715022]
 [1.         1.75736357]
 [1.1        1.93453934]
 [1.14141667 0.43289188]]",0,0.241
8731382169,f,20,english,5,4,english,2024-01-25 10:41:53.868247,False,1,86,sounds\french\audio/french_166.wav,"[[  0.         -22.8295336 ]
 [  0.1         14.33636562]
 [  0.2        -32.76172213]
 [  0.3         -7.88397719]
 [  0.4         51.92763564]
 [  0.5        -54.54324827]
 [  0.6         70.56273054]
 [  0.7        -69.25364705]
 [  0.8        -88.09425491]
 [  0.9         14.9037885 ]
 [  1.         -87.04528153]
 [  1.1         18.00160319]
 [  1.14141667  52.36923677]]","[[0.         0.98939774]
 [0.1        0.78908761]
 [0.2        0.51317007]
 [0.3        0.37283333]
 [0.4        1.97840198]
 [0.5        0.56612573]
 [0.6        0.83954762]
 [0.7        1.0329173 ]
 [0.8        0.5192872 ]
 [0.9        1.44412419]
 [1.         0.95474057]
 [1.1        1.86178802]
 [1.14141667 1.07082912]]",0,0.625
8731382169,f,20,english,5,4,english,2024-01-25 10:41:53.868247,False,1,87,sounds\french\audio/french_949.wav,"[[  0.         -19.05595024]
 [  0.1        -75.2439284 ]
 [  0.2         73.58371037]
 [  0.3         72.8422127 ]
 [  0.4         87.31483881]
 [  0.5         88.67402032]
 [  0.6         91.38706715]
 [  0.7         90.60838166]
 [  0.8        -56.24221492]
 [  0.9        -99.28918443]
 [  1.          35.48222753]
 [  1.1         31.92310883]
 [  1.14141667 -76.51594679]]","[[0.         0.68019134]
 [0.1        1.48812532]
 [0.2        1.47426358]
 [0.3        1.18227817]
 [0.4        0.74535438]
 [0.5        0.76739834]
 [0.6        0.06667957]
 [0.7        1.82416942]
 [0.8        0.37839273]
 [0.9        1.88338523]
 [1.         1.00153988]
 [1.1        0.82891918]
 [1.14141667 0.92801119]]",0,0.345
8731382169,f,20,english,5,4,english,2024-01-25 10:41:53.868247,False,1,88,sounds\french\audio/french_666.wav,"[[  0.          92.96865197]
 [  0.1         83.19708081]
 [  0.2        -93.00429792]
 [  0.3         90.20261319]
 [  0.4        -87.15662035]
 [  0.5        -47.24627787]
 [  0.6         59.30035154]
 [  0.7        -15.62578407]
 [  0.8        -24.02578561]
 [  0.9        -81.73454308]
 [  1.           8.5752321 ]
 [  1.1         81.49647055]
 [  1.14141667 -18.83163279]]","[[0.         0.97097631]
 [0.1        1.21196334]
 [0.2        0.21493139]
 [0.3        0.41981713]
 [0.4        1.50078267]
 [0.5        1.52836047]
 [0.6        0.33218379]
 [0.7        0.67593379]
 [0.8        0.65338916]
 [0.9        1.43079887]
 [1.         0.1051972 ]
 [1.1        1.769445  ]
 [1.14141667 0.88398821]]",0,0.517
8731382169,f,20,english,5,4,english,2024-01-25 10:41:53.868247,False,1,89,sounds\french\audio/french_868.wav,"[[  0.          21.75364705]
 [  0.1         39.13898411]
 [  0.2         -6.36020837]
 [  0.3        -75.1690358 ]
 [  0.4        -40.50969181]
 [  0.5         73.36588878]
 [  0.6         58.00285261]
 [  0.7         -7.78630182]
 [  0.8          0.49140151]
 [  0.9        -75.3340621 ]
 [  1.           4.19679742]
 [  1.1        -42.11878941]
 [  1.14141667 -77.23937445]]","[[0.         1.22135982]
 [0.1        0.45068815]
 [0.2        0.45536775]
 [0.3        1.09222167]
 [0.4        1.19786422]
 [0.5        1.65811533]
 [0.6        1.1326438 ]
 [0.7        0.35406026]
 [0.8        0.20870274]
 [0.9        1.59273358]
 [1.         0.29740146]
 [1.1        0.88262511]
 [1.14141667 0.84119303]]",1,1.535
8731382169,f,20,english,5,4,english,2024-01-25 10:41:53.868247,False,1,90,sounds\french\audio/french_833.wav,"[[  0.         -22.64377916]
 [  0.1         39.23109032]
 [  0.2         59.98257397]
 [  0.3        -65.49669768]
 [  0.4         95.44390213]
 [  0.5         16.36680149]
 [  0.6        -95.74603826]
 [  0.7          6.50870015]
 [  0.8         55.04487349]
 [  0.9         83.33960194]
 [  1.          20.98555864]
 [  1.1        -86.19858113]
 [  1.14141667 -62.40303258]]","[[0.         0.41211545]
 [0.1        1.22030284]
 [0.2        1.60836668]
 [0.3        0.84423089]
 [0.4        0.37549497]
 [0.5        0.89903376]
 [0.6        1.16761525]
 [0.7        0.92946369]
 [0.8        0.59809775]
 [0.9        0.0823061 ]
 [1.         0.9055233 ]
 [1.1        0.76109733]
 [1.14141667 0.74455165]]",1,0.811
8731382169,f,20,english,5,4,english,2024-01-25 10:41:53.868247,False,1,91,sounds\french\audio/french_475.wav,"[[ 0.00000000e+00 -5.40765714e+01]
 [ 1.00000000e-01 -7.75997382e+01]
 [ 2.00000000e-01 -5.96417481e+00]
 [ 3.00000000e-01  9.03794085e+01]
 [ 4.00000000e-01  7.76475749e+01]
 [ 5.00000000e-01 -5.10170631e-02]
 [ 6.00000000e-01 -4.82331031e+01]
 [ 7.00000000e-01  6.84735600e+01]
 [ 8.00000000e-01  1.61116018e+00]
 [ 9.00000000e-01  8.56911048e+01]
 [ 1.00000000e+00  2.45551859e+01]
 [ 1.10000000e+00 -3.23235712e+01]
 [ 1.14141667e+00  6.46930948e+01]]","[[0.         1.22843023]
 [0.1        0.67465416]
 [0.2        1.46352817]
 [0.3        1.65803665]
 [0.4        0.3744317 ]
 [0.5        1.25600303]
 [0.6        1.88058254]
 [0.7        1.63911274]
 [0.8        1.55282086]
 [0.9        0.43137501]
 [1.         0.79044925]
 [1.1        1.78282868]
 [1.14141667 1.0446802 ]]",1,0.669
8731382169,f,20,english,5,4,english,2024-01-25 10:41:53.868247,False,1,92,sounds\french\audio/french_733.wav,"[[  0.         -28.30259207]
 [  0.1        -20.51655877]
 [  0.2         32.67834183]
 [  0.3          6.62547625]
 [  0.4        -74.88223305]
 [  0.5         78.7904108 ]
 [  0.6         92.741833  ]
 [  0.7        -51.74379755]
 [  0.8          0.26100759]
 [  0.9         80.00528442]
 [  1.         -20.98835091]
 [  1.1        -67.79194344]
 [  1.14141667  20.39044297]]","[[0.         0.49045242]
 [0.1        0.41105181]
 [0.2        0.51992236]
 [0.3        0.5442563 ]
 [0.4        1.50191258]
 [0.5        0.7960124 ]
 [0.6        1.55647812]
 [0.7        0.75813018]
 [0.8        1.97775979]
 [0.9        1.24266335]
 [1.         0.70545845]
 [1.1        0.86751529]
 [1.14141667 1.05140742]]",1,1.335
8731382169,f,20,english,5,4,english,2024-01-25 10:41:53.868247,False,1,93,sounds\french\audio/french_293.wav,"[[  0.          13.88157175]
 [  0.1          2.23867218]
 [  0.2        -40.7386732 ]
 [  0.3          6.10244728]
 [  0.4         32.8477373 ]
 [  0.5        -60.22275726]
 [  0.6        -73.78584082]
 [  0.7        -39.23060497]
 [  0.8         13.36329351]
 [  0.9         16.41932854]
 [  1.          44.79400967]
 [  1.1         34.65582677]
 [  1.14141667  28.28906565]]","[[0.         0.60053573]
 [0.1        1.35819194]
 [0.2        0.02818672]
 [0.3        1.13378846]
 [0.4        1.04896096]
 [0.5        1.31947449]
 [0.6        0.64719086]
 [0.7        1.73705065]
 [0.8        1.2092819 ]
 [0.9        0.87930659]
 [1.         1.38260782]
 [1.1        1.24528476]
 [1.14141667 1.87043564]]",0,2.227
8731382169,f,20,english,5,4,english,2024-01-25 10:41:53.868247,False,1,94,sounds\french\audio/french_207.wav,"[[  0.          69.64355334]
 [  0.1        -22.42972011]
 [  0.2         74.23583097]
 [  0.3         41.84488675]
 [  0.4          0.98677762]
 [  0.5        -65.85412268]
 [  0.6         57.546837  ]
 [  0.7        -68.81478763]
 [  0.8        -61.37754855]
 [  0.9          4.44951701]
 [  1.          81.11529143]
 [  1.1         49.41893342]
 [  1.14141667 -53.2770861 ]]","[[0.         0.56807355]
 [0.1        0.60404319]
 [0.2        0.30958546]
 [0.3        0.98774302]
 [0.4        1.51182152]
 [0.5        0.5602918 ]
 [0.6        1.70611495]
 [0.7        1.81928265]
 [0.8        0.68562072]
 [0.9        0.27933548]
 [1.         1.4017856 ]
 [1.1        0.74660041]
 [1.14141667 0.97210809]]",1,1.412
8731382169,f,20,english,5,4,english,2024-01-25 10:41:53.868247,False,1,95,sounds\french\audio/french_58.wav,"[[  0.          94.28482513]
 [  0.1         -8.41544404]
 [  0.2        -62.96182624]
 [  0.3         60.34405866]
 [  0.4         32.40128414]
 [  0.5        -68.51454301]
 [  0.6         29.82130445]
 [  0.7         -4.63475932]
 [  0.8        -63.03753655]
 [  0.9         88.63401009]
 [  1.          21.784489  ]
 [  1.1         78.48150349]
 [  1.14141667 -36.70796852]]","[[0.         1.90438259]
 [0.1        0.61487331]
 [0.2        1.646554  ]
 [0.3        1.52491918]
 [0.4        1.13010084]
 [0.5        1.89433528]
 [0.6        0.760668  ]
 [0.7        0.49529271]
 [0.8        0.89196999]
 [0.9        0.8973393 ]
 [1.         0.72401301]
 [1.1        0.46484617]
 [1.14141667 1.22177947]]",0,0.876
8731382169,f,20,english,5,4,english,2024-01-25 10:41:53.868247,False,1,96,sounds\french\audio/french_532.wav,"[[  0.          85.83623854]
 [  0.1         84.10541783]
 [  0.2         26.42202154]
 [  0.3         79.07795266]
 [  0.4        -79.74270865]
 [  0.5         95.386086  ]
 [  0.6         72.0692702 ]
 [  0.7         -9.08909472]
 [  0.8         -4.90273931]
 [  0.9          5.30793597]
 [  1.         -72.96309884]
 [  1.1        -95.33528515]
 [  1.14141667 -74.8568227 ]]","[[0.         1.76274874]
 [0.1        0.70179858]
 [0.2        1.88377086]
 [0.3        0.03665049]
 [0.4        0.9425884 ]
 [0.5        1.22571827]
 [0.6        0.12096615]
 [0.7        0.73907677]
 [0.8        1.49339614]
 [0.9        0.96320852]
 [1.         1.02982353]
 [1.1        1.03939041]
 [1.14141667 1.59124295]]",1,1.285
8731382169,f,20,english,5,4,english,2024-01-25 10:41:53.868247,False,1,97,sounds\french\audio/french_300.wav,"[[  0.          94.68384182]
 [  0.1         43.67173173]
 [  0.2         83.66057135]
 [  0.3         90.66477738]
 [  0.4         33.04822767]
 [  0.5        -39.54628631]
 [  0.6         21.73649473]
 [  0.7        -66.20699618]
 [  0.8        -68.18056654]
 [  0.9         73.28930536]
 [  1.          74.75815468]
 [  1.1        -48.74741599]
 [  1.14141667  11.42157489]]","[[0.         1.20199987]
 [0.1        1.09384491]
 [0.2        1.20858856]
 [0.3        0.61005972]
 [0.4        0.0949671 ]
 [0.5        1.02227962]
 [0.6        1.2482894 ]
 [0.7        0.88228821]
 [0.8        1.15930732]
 [0.9        0.69980892]
 [1.         1.66502361]
 [1.1        1.13907369]
 [1.14141667 1.94543901]]",1,1.106
8731382169,f,20,english,5,4,english,2024-01-25 10:41:53.868247,False,1,98,sounds\french\audio/french_661.wav,"[[  0.          30.83790401]
 [  0.1         81.04248617]
 [  0.2        -46.51005007]
 [  0.3         26.8916854 ]
 [  0.4        -54.15099684]
 [  0.5        -20.07151139]
 [  0.6        -67.43725044]
 [  0.7        -45.28880793]
 [  0.8         24.96344604]
 [  0.9        -21.69937315]
 [  1.         -64.52606708]
 [  1.1          4.37748404]
 [  1.14141667 -33.68343588]]","[[0.         1.59193642]
 [0.1        0.6507153 ]
 [0.2        1.89395187]
 [0.3        0.85636205]
 [0.4        1.87917795]
 [0.5        1.44711177]
 [0.6        0.9534675 ]
 [0.7        0.8140216 ]
 [0.8        1.80648656]
 [0.9        1.45486334]
 [1.         0.69077663]
 [1.1        0.59868939]
 [1.14141667 0.88637105]]",0,0.996
8731382169,f,20,english,5,4,english,2024-01-25 10:41:53.868247,False,1,99,sounds\french\audio/french_354.wav,"[[  0.         -59.30427207]
 [  0.1         79.91145527]
 [  0.2         -1.5051974 ]
 [  0.3        -45.6248448 ]
 [  0.4         40.65998782]
 [  0.5        -87.75757377]
 [  0.6         92.52575954]
 [  0.7        -30.48325009]
 [  0.8         18.19454969]
 [  0.9         -2.58461677]
 [  1.         -70.76135363]
 [  1.1         70.06864497]
 [  1.14141667  36.19538716]]","[[0.         1.42108763]
 [0.1        0.12998909]
 [0.2        1.34324907]
 [0.3        1.56989782]
 [0.4        0.75541958]
 [0.5        0.95768708]
 [0.6        1.70871899]
 [0.7        1.54335891]
 [0.8        0.39580898]
 [0.9        1.36502039]
 [1.         1.03896879]
 [1.1        1.2657434 ]
 [1.14141667 1.59524238]]",1,1.994
8731382169,f,20,english,5,4,english,2024-01-25 10:41:53.868247,False,1,100,sounds\french\audio/french_592.wav,"[[  0.          70.81103316]
 [  0.1        -26.4080383 ]
 [  0.2         -0.21646814]
 [  0.3          5.07209888]
 [  0.4          0.60727661]
 [  0.5         -4.25807997]
 [  0.6        -57.11909805]
 [  0.7        -40.92130442]
 [  0.8         57.21863493]
 [  0.9         70.04761432]
 [  1.         -50.9301359 ]
 [  1.1        -84.24132436]
 [  1.14141667 -46.29341041]]","[[0.         0.54665666]
 [0.1        0.88508354]
 [0.2        1.19588417]
 [0.3        0.17214274]
 [0.4        0.84375355]
 [0.5        1.80777341]
 [0.6        0.71388549]
 [0.7        1.31000832]
 [0.8        0.43276947]
 [0.9        1.73827866]
 [1.         0.70932726]
 [1.1        0.23430707]
 [1.14141667 1.11453021]]",0,1.225
8731382169,f,20,english,5,4,english,2024-01-25 10:41:53.868247,False,1,101,sounds\french\audio/french_187.wav,"[[  0.          10.28681087]
 [  0.1        -43.75211752]
 [  0.2         93.36546932]
 [  0.3          2.3887431 ]
 [  0.4        -88.10950584]
 [  0.5          1.03076455]
 [  0.6         91.70644974]
 [  0.7         47.13601313]
 [  0.8        -63.76738084]
 [  0.9        -32.68857969]
 [  1.         -14.27222191]
 [  1.1        -46.17286194]
 [  1.14141667 -70.61213148]]","[[0.         1.60740148]
 [0.1        0.72460884]
 [0.2        1.32214639]
 [0.3        1.49726662]
 [0.4        0.25906449]
 [0.5        0.40114852]
 [0.6        1.59716532]
 [0.7        1.6475427 ]
 [0.8        0.86156779]
 [0.9        0.45795952]
 [1.         1.30527242]
 [1.1        1.82546632]
 [1.14141667 0.2766624 ]]",1,2.057
8731382169,f,20,english,5,4,english,2024-01-25 10:41:53.868247,False,1,102,sounds\french\audio/french_809.wav,"[[  0.         -97.7648991 ]
 [  0.1        -16.18124336]
 [  0.2        -71.88539975]
 [  0.3        -75.84617329]
 [  0.4        -56.68697986]
 [  0.5         17.73104693]
 [  0.6         -2.03944779]
 [  0.7        -23.40421354]
 [  0.8         79.78220222]
 [  0.9         49.19641655]
 [  1.           6.2438068 ]
 [  1.1         -8.92121489]
 [  1.14141667  -7.95185914]]","[[0.         0.21825072]
 [0.1        0.34685571]
 [0.2        1.98263416]
 [0.3        0.64349693]
 [0.4        1.61870407]
 [0.5        0.29134017]
 [0.6        0.74693677]
 [0.7        1.6892509 ]
 [0.8        0.75730555]
 [0.9        1.52241905]
 [1.         0.50964644]
 [1.1        1.05106393]
 [1.14141667 0.92890258]]",0,0.732
8731382169,f,20,english,5,4,english,2024-01-25 10:41:53.868247,False,1,103,sounds\french\audio/french_317.wav,"[[  0.          40.8685805 ]
 [  0.1        -18.25010816]
 [  0.2         21.38431057]
 [  0.3         95.9205375 ]
 [  0.4         38.32089871]
 [  0.5        -21.23529277]
 [  0.6         77.91728969]
 [  0.7         80.74208796]
 [  0.8          7.4329056 ]
 [  0.9         43.55624299]
 [  1.          -3.0789023 ]
 [  1.1         53.49310135]
 [  1.14141667  20.73152809]]","[[0.         0.12762298]
 [0.1        0.46117381]
 [0.2        0.51489794]
 [0.3        0.84411481]
 [0.4        0.32765242]
 [0.5        0.79138261]
 [0.6        0.47375235]
 [0.7        0.7422914 ]
 [0.8        0.34355832]
 [0.9        0.04625658]
 [1.         1.28889799]
 [1.1        1.94514932]
 [1.14141667 0.29763753]]",1,1.4
8731382169,f,20,english,5,4,english,2024-01-25 10:41:53.868247,False,1,104,sounds\french\audio/french_805.wav,"[[  0.         -44.55735502]
 [  0.1        -15.81782327]
 [  0.2        -60.55488751]
 [  0.3        -22.03480197]
 [  0.4        -82.42416276]
 [  0.5         26.6793054 ]
 [  0.6        -90.86223061]
 [  0.7        -32.61383863]
 [  0.8        -25.8862389 ]
 [  0.9        -83.72221214]
 [  1.           9.78399033]
 [  1.1        -75.28148503]
 [  1.14141667 -45.84381211]]","[[0.         0.30537306]
 [0.1        0.95683225]
 [0.2        1.47185568]
 [0.3        0.27583044]
 [0.4        1.40306371]
 [0.5        0.29904003]
 [0.6        0.10571209]
 [0.7        1.80090028]
 [0.8        1.4046027 ]
 [0.9        1.0925065 ]
 [1.         0.78385676]
 [1.1        0.24940616]
 [1.14141667 0.58218615]]",0,0.691
8731382169,f,20,english,5,4,english,2024-01-25 10:41:53.868247,False,1,105,sounds\french\audio/french_138.wav,"[[  0.          90.87559603]
 [  0.1        -31.50555988]
 [  0.2         16.26612274]
 [  0.3         13.45581331]
 [  0.4         42.54624351]
 [  0.5        -41.09672991]
 [  0.6         -9.99308677]
 [  0.7        -86.14231224]
 [  0.8        -55.70451473]
 [  0.9        -54.94693119]
 [  1.           3.17361449]
 [  1.1         10.38339878]
 [  1.14141667  63.42143348]]","[[0.         1.31380593]
 [0.1        0.3112117 ]
 [0.2        1.21831042]
 [0.3        1.42179216]
 [0.4        0.91524639]
 [0.5        0.09030598]
 [0.6        1.61752646]
 [0.7        1.29252527]
 [0.8        1.50457459]
 [0.9        1.45678409]
 [1.         0.72155144]
 [1.1        1.81729999]
 [1.14141667 0.54572478]]",0,0.882
8731382169,f,20,english,5,4,english,2024-01-25 10:41:53.868247,False,1,106,sounds\french\audio/french_314.wav,"[[  0.          98.47852425]
 [  0.1         -4.76765087]
 [  0.2         98.99563551]
 [  0.3        -26.02974157]
 [  0.4          3.57072729]
 [  0.5        -27.39105802]
 [  0.6        -34.46329074]
 [  0.7        -19.61563284]
 [  0.8         86.50042899]
 [  0.9        -30.62380752]
 [  1.          68.66999994]
 [  1.1         18.64968658]
 [  1.14141667  83.99037415]]","[[0.         0.84050002]
 [0.1        1.9178096 ]
 [0.2        1.48544664]
 [0.3        0.28338038]
 [0.4        1.67118839]
 [0.5        0.9666753 ]
 [0.6        0.67276738]
 [0.7        1.19975177]
 [0.8        0.06283499]
 [0.9        0.69763895]
 [1.         1.73674877]
 [1.1        1.35552755]
 [1.14141667 1.19565214]]",1,0.819
8731382169,f,20,english,5,4,english,2024-01-25 10:41:53.868247,False,1,107,sounds\french\audio/french_765.wav,"[[  0.         -21.76223445]
 [  0.1        -69.88378146]
 [  0.2        -54.62116144]
 [  0.3         80.40698851]
 [  0.4         44.49094145]
 [  0.5        -34.58786744]
 [  0.6        -82.72511393]
 [  0.7        -17.30470796]
 [  0.8         -3.21936287]
 [  0.9         34.09717353]
 [  1.         -34.0267679 ]
 [  1.1         91.79101104]
 [  1.14141667  44.37260858]]","[[0.         1.58709165]
 [0.1        1.30096868]
 [0.2        0.79134487]
 [0.3        1.38985141]
 [0.4        1.16396661]
 [0.5        0.50418915]
 [0.6        0.66043503]
 [0.7        0.90266971]
 [0.8        0.65632044]
 [0.9        1.38813555]
 [1.         1.56070696]
 [1.1        1.04399467]
 [1.14141667 0.73913352]]",0,0.53
8731382169,f,20,english,5,4,english,2024-01-25 10:41:53.868247,False,1,108,sounds\french\audio/french_188.wav,"[[  0.         -89.58305859]
 [  0.1         95.71016142]
 [  0.2        -76.25067702]
 [  0.3         45.71430986]
 [  0.4         78.81764019]
 [  0.5        -11.53782082]
 [  0.6         95.0488449 ]
 [  0.7         70.12761341]
 [  0.8         24.98475209]
 [  0.9        -10.43342942]
 [  1.         -52.21896219]
 [  1.1         40.40569769]
 [  1.14141667 -46.90368204]]","[[0.         0.80447233]
 [0.1        1.2315416 ]
 [0.2        0.79581402]
 [0.3        0.12807749]
 [0.4        1.16426799]
 [0.5        0.15239824]
 [0.6        1.26983384]
 [0.7        0.14150925]
 [0.8        1.57185451]
 [0.9        1.33675596]
 [1.         1.69336671]
 [1.1        1.58228447]
 [1.14141667 0.49448614]]",0,0.687
8731382169,f,20,english,5,4,english,2024-01-25 10:41:53.868247,False,1,109,sounds\french\audio/french_196.wav,"[[  0.          19.92156454]
 [  0.1         50.3730524 ]
 [  0.2        -54.66048992]
 [  0.3        -16.36439953]
 [  0.4        -49.37215717]
 [  0.5         73.44732269]
 [  0.6        -10.57047355]
 [  0.7        -59.11422478]
 [  0.8        -87.00574954]
 [  0.9        -41.42714545]
 [  1.          -3.65633153]
 [  1.1        -26.0043808 ]
 [  1.14141667  10.36886233]]","[[0.         1.45115921]
 [0.1        1.233132  ]
 [0.2        0.22337845]
 [0.3        1.17450645]
 [0.4        0.22096997]
 [0.5        0.81463121]
 [0.6        0.94935983]
 [0.7        0.41223091]
 [0.8        0.73586656]
 [0.9        0.4661352 ]
 [1.         0.31390173]
 [1.1        1.50812992]
 [1.14141667 1.08431252]]",1,2.313
8731382169,f,20,english,5,4,english,2024-01-25 10:41:53.868247,False,1,110,sounds\french\audio/french_186.wav,"[[  0.         -98.77577856]
 [  0.1         -4.32281383]
 [  0.2         78.96843766]
 [  0.3         44.94722027]
 [  0.4         31.19969444]
 [  0.5        -58.54120229]
 [  0.6        -32.79633131]
 [  0.7         47.64797381]
 [  0.8         59.96836761]
 [  0.9         33.94460262]
 [  1.          61.1812075 ]
 [  1.1         66.76882768]
 [  1.14141667  84.5034927 ]]","[[0.         0.55132228]
 [0.1        1.48616205]
 [0.2        0.45730809]
 [0.3        1.48574317]
 [0.4        1.3915634 ]
 [0.5        1.49810348]
 [0.6        0.03278635]
 [0.7        0.80642704]
 [0.8        0.531218  ]
 [0.9        0.39314189]
 [1.         1.05456246]
 [1.1        0.65443343]
 [1.14141667 0.87378313]]",1,1.095
8731382169,f,20,english,5,4,english,2024-01-25 10:41:53.868247,False,1,111,sounds\french\audio/french_537.wav,"[[  0.         -70.42232238]
 [  0.1        -63.79861737]
 [  0.2         80.15379792]
 [  0.3        -34.87323386]
 [  0.4        -97.49401193]
 [  0.5        -75.02904728]
 [  0.6         88.01304316]
 [  0.7         57.25012965]
 [  0.8        -34.47690346]
 [  0.9          2.26660201]
 [  1.         -37.62355762]
 [  1.1         -8.96459096]
 [  1.14141667 -65.74543059]]","[[0.         1.1949198 ]
 [0.1        0.86017995]
 [0.2        1.22540727]
 [0.3        0.58113387]
 [0.4        0.63475004]
 [0.5        1.70548795]
 [0.6        0.65284568]
 [0.7        1.05406598]
 [0.8        1.3603352 ]
 [0.9        1.51124063]
 [1.         1.53115779]
 [1.1        1.18349734]
 [1.14141667 1.59300288]]",1,1.02
8731382169,f,20,english,5,4,english,2024-01-25 10:41:53.868247,False,1,112,sounds\french\audio/french_808.wav,"[[ 0.00000000e+00  9.49972315e+00]
 [ 1.00000000e-01 -3.16348767e+00]
 [ 2.00000000e-01  2.58164380e+01]
 [ 3.00000000e-01  5.80208500e+01]
 [ 4.00000000e-01  4.02357313e+01]
 [ 5.00000000e-01 -7.52309438e-02]
 [ 6.00000000e-01  3.03624230e+01]
 [ 7.00000000e-01 -7.96646620e+01]
 [ 8.00000000e-01 -9.40191844e+01]
 [ 9.00000000e-01  5.10290891e+01]
 [ 1.00000000e+00 -3.02984752e+01]
 [ 1.10000000e+00 -8.41581543e+01]
 [ 1.14141667e+00  5.34166874e+01]]","[[0.         1.11576728]
 [0.1        0.47240736]
 [0.2        1.01512058]
 [0.3        1.31233941]
 [0.4        0.13872257]
 [0.5        1.22367784]
 [0.6        0.7368745 ]
 [0.7        1.19529711]
 [0.8        0.4901866 ]
 [0.9        1.57392299]
 [1.         0.31335607]
 [1.1        0.84962475]
 [1.14141667 1.11832837]]",0,2.972
8731382169,f,20,english,5,4,english,2024-01-25 10:41:53.868247,False,1,113,sounds\french\audio/french_160.wav,"[[  0.           2.54124383]
 [  0.1        -32.5548459 ]
 [  0.2         93.35637741]
 [  0.3        -38.9581146 ]
 [  0.4        -21.93077074]
 [  0.5         15.85363637]
 [  0.6         -5.9942694 ]
 [  0.7         11.02178334]
 [  0.8         36.02080045]
 [  0.9        -67.20809069]
 [  1.         -33.16910884]
 [  1.1         32.50919593]
 [  1.14141667  12.38974982]]","[[0.         0.41674932]
 [0.1        0.30205885]
 [0.2        0.38107213]
 [0.3        1.91878903]
 [0.4        0.71733418]
 [0.5        0.28045988]
 [0.6        1.00425126]
 [0.7        0.54471989]
 [0.8        1.78288163]
 [0.9        0.5673784 ]
 [1.         1.07709851]
 [1.1        0.49895746]
 [1.14141667 1.94779347]]",1,1.174
8731382169,f,20,english,5,4,english,2024-01-25 10:41:53.868247,False,1,114,sounds\french\audio/french_623.wav,"[[  0.         -86.83812117]
 [  0.1         74.2111041 ]
 [  0.2         98.95723814]
 [  0.3        -37.0218658 ]
 [  0.4         16.90400558]
 [  0.5        -31.51763709]
 [  0.6         17.3105587 ]
 [  0.7        -36.14678416]
 [  0.8         33.60964764]
 [  0.9         -2.61935036]
 [  1.         -14.19773812]
 [  1.1        -43.63276209]
 [  1.14141667  29.17007342]]","[[0.         1.05106058]
 [0.1        0.716104  ]
 [0.2        1.44527186]
 [0.3        1.34226429]
 [0.4        1.52765307]
 [0.5        0.56929388]
 [0.6        0.38037964]
 [0.7        0.96955255]
 [0.8        1.01212194]
 [0.9        0.66675465]
 [1.         0.09693711]
 [1.1        1.95103561]
 [1.14141667 0.72368638]]",1,0.877
8731382169,f,20,english,5,4,english,2024-01-25 10:41:53.868247,False,1,115,sounds\french\audio/french_216.wav,"[[  0.         -60.17810311]
 [  0.1         11.42252773]
 [  0.2        -56.55439893]
 [  0.3        -80.03421186]
 [  0.4        -80.18888981]
 [  0.5          5.79858175]
 [  0.6         13.53577994]
 [  0.7        -40.39198044]
 [  0.8         92.2878797 ]
 [  0.9         -9.2786245 ]
 [  1.          74.67011589]
 [  1.1        -31.97031309]
 [  1.14141667 -30.83960704]]","[[0.         1.55322104]
 [0.1        1.00304409]
 [0.2        0.02981525]
 [0.3        1.36759869]
 [0.4        0.05691451]
 [0.5        1.70282351]
 [0.6        0.34437275]
 [0.7        1.08997785]
 [0.8        0.90763246]
 [0.9        0.73661202]
 [1.         0.85986577]
 [1.1        1.06794363]
 [1.14141667 1.05869648]]",0,1.288
8731382169,f,20,english,5,4,english,2024-01-25 10:41:53.868247,False,1,116,sounds\french\audio/french_338.wav,"[[  0.          32.43640694]
 [  0.1        -96.15534081]
 [  0.2         71.74391232]
 [  0.3         66.77138204]
 [  0.4         15.01497933]
 [  0.5         92.69089604]
 [  0.6         43.1424087 ]
 [  0.7        -30.37149924]
 [  0.8         46.68539141]
 [  0.9         93.80986052]
 [  1.          81.72582501]
 [  1.1         64.92591282]
 [  1.14141667  81.2294196 ]]","[[0.         1.33040513]
 [0.1        1.37265774]
 [0.2        0.97045392]
 [0.3        0.15859567]
 [0.4        0.06667266]
 [0.5        0.24915734]
 [0.6        1.15855491]
 [0.7        1.05458836]
 [0.8        0.40093841]
 [0.9        0.20402843]
 [1.         0.60947965]
 [1.1        0.10143299]
 [1.14141667 0.26247097]]",1,3.719
8731382169,f,20,english,5,4,english,2024-01-25 10:41:53.868247,False,1,117,sounds\french\audio/french_538.wav,"[[  0.          20.57677794]
 [  0.1        -39.61392236]
 [  0.2        -45.04759687]
 [  0.3         13.02336847]
 [  0.4         90.60925013]
 [  0.5        -75.04739637]
 [  0.6        -17.92101924]
 [  0.7        -84.21353272]
 [  0.8         47.2379497 ]
 [  0.9         -5.11712126]
 [  1.         -51.87175563]
 [  1.1        -23.54809706]
 [  1.14141667 -19.60047968]]","[[0.         1.38711038]
 [0.1        0.72793815]
 [0.2        0.58138665]
 [0.3        0.36012253]
 [0.4        1.75461796]
 [0.5        0.9845207 ]
 [0.6        1.10875334]
 [0.7        1.78005401]
 [0.8        0.26796674]
 [0.9        0.97835653]
 [1.         1.7494376 ]
 [1.1        0.19527395]
 [1.14141667 0.35274247]]",0,0.702
8731382169,f,20,english,5,4,english,2024-01-25 10:41:53.868247,False,1,118,sounds\french\audio/french_622.wav,"[[  0.          21.84597138]
 [  0.1         20.37277034]
 [  0.2        -38.05647077]
 [  0.3         83.17133122]
 [  0.4        -82.18280061]
 [  0.5        -51.21955322]
 [  0.6         49.78945812]
 [  0.7        -40.51378494]
 [  0.8          1.41973713]
 [  0.9         81.5294399 ]
 [  1.         -99.24358897]
 [  1.1        -33.65546455]
 [  1.14141667  60.69238013]]","[[0.         0.32027384]
 [0.1        1.27666265]
 [0.2        0.76778972]
 [0.3        0.10012893]
 [0.4        0.47887233]
 [0.5        1.03838134]
 [0.6        0.07555661]
 [0.7        0.75483578]
 [0.8        0.71745983]
 [0.9        1.47800475]
 [1.         0.97240811]
 [1.1        0.19261346]
 [1.14141667 0.72595773]]",0,1.547
8731382169,f,20,english,5,4,english,2024-01-25 10:41:53.868247,False,1,119,sounds\french\audio/french_411.wav,"[[  0.         -70.25391747]
 [  0.1         27.74894857]
 [  0.2         46.03152981]
 [  0.3        -29.20691402]
 [  0.4        -31.45553026]
 [  0.5         35.02826995]
 [  0.6         -8.95158706]
 [  0.7         81.46107147]
 [  0.8         -2.93504405]
 [  0.9         64.39331925]
 [  1.          -8.26962553]
 [  1.1         56.99467859]
 [  1.14141667  -1.61116333]]","[[0.         1.92256059]
 [0.1        0.54123007]
 [0.2        0.1167021 ]
 [0.3        0.14269419]
 [0.4        0.19948758]
 [0.5        1.84749686]
 [0.6        0.431015  ]
 [0.7        0.56033936]
 [0.8        0.91187984]
 [0.9        1.61465115]
 [1.         0.879149  ]
 [1.1        1.56755984]
 [1.14141667 1.10827976]]",0,0.857
8731382169,f,20,english,5,4,english,2024-01-25 10:41:53.868247,False,1,120,sounds\french\audio/french_467.wav,"[[  0.         -31.46831625]
 [  0.1         18.84639346]
 [  0.2         44.12718857]
 [  0.3        -21.19371521]
 [  0.4        -83.99502777]
 [  0.5         31.96274659]
 [  0.6          3.8434059 ]
 [  0.7        -73.08298153]
 [  0.8        -30.80294266]
 [  0.9          9.03486453]
 [  1.         -24.44144113]
 [  1.1         73.75082283]
 [  1.14141667  18.09127375]]","[[0.         0.96779496]
 [0.1        1.41774791]
 [0.2        1.52096062]
 [0.3        0.59296897]
