subj,sex,age,language,english,french,native_lang,date,practice,block,trial,stim,pitch,stretch,response,rt
8729820499,f,20,english,5,3,english,2024-02-01 10:36:57.252449,False,2,253,sounds\french\audio/french_334.wav,"[[  0.           2.91012372]
 [  0.1        -31.38923588]
 [  0.2        -62.72161399]
 [  0.3         52.61572733]
 [  0.4        -26.95407512]
 [  0.5         63.93183967]
 [  0.6        -64.05494497]
 [  0.7         46.67808612]
 [  0.8        -19.68734259]
 [  0.9         94.09878025]
 [  1.         -47.40754779]
 [  1.1         60.30467736]
 [  1.14141667  72.47412229]]","[[0.         0.60452042]
 [0.1        0.2438657 ]
 [0.2        0.70395582]
 [0.3        1.86925999]
 [0.4        1.03540783]
 [0.5        0.90758676]
 [0.6        1.53296808]
 [0.7        1.6467933 ]
 [0.8        1.90283938]
 [0.9        0.73856415]
 [1.         1.4477999 ]
 [1.1        0.47618592]
 [1.14141667 0.58909421]]",1,4.313
8729820499,f,20,english,5,3,english,2024-02-01 10:36:57.252449,False,2,254,sounds\french\audio/french_863.wav,"[[  0.          50.77342544]
 [  0.1        -97.70321946]
 [  0.2         -1.18541723]
 [  0.3        -45.09950091]
 [  0.4        -69.59494908]
 [  0.5         86.27470407]
 [  0.6        -28.73893601]
 [  0.7        -52.09259609]
 [  0.8         36.31844789]
 [  0.9        -73.2210636 ]
 [  1.          90.73733334]
 [  1.1         58.21757398]
 [  1.14141667  56.00262149]]","[[0.         0.93550892]
 [0.1        0.64505388]
 [0.2        0.94585453]
 [0.3        0.69723049]
 [0.4        0.77036715]
 [0.5        0.28013797]
 [0.6        1.05013391]
 [0.7        1.91965154]
 [0.8        0.72883716]
 [0.9        0.81903439]
 [1.         0.23587725]
 [1.1        1.52886581]
 [1.14141667 1.3743652 ]]",1,0.669
8729820499,f,20,english,5,3,english,2024-02-01 10:36:57.252449,False,2,255,sounds\french\audio/french_240.wav,"[[  0.          79.28024055]
 [  0.1         39.9173306 ]
 [  0.2         -2.70400976]
 [  0.3         39.39701163]
 [  0.4         79.19766018]
 [  0.5        -76.7629426 ]
 [  0.6        -31.05375973]
 [  0.7         31.78885255]
 [  0.8         44.52880411]
 [  0.9         96.26715937]
 [  1.          91.69005138]
 [  1.1         13.24674088]
 [  1.14141667  -8.33706819]]","[[0.         1.48897581]
 [0.1        0.75408064]
 [0.2        0.39468673]
 [0.3        1.23817767]
 [0.4        0.44750026]
 [0.5        0.89933765]
 [0.6        0.57627918]
 [0.7        1.06601512]
 [0.8        1.28390236]
 [0.9        1.31345705]
 [1.         0.48894908]
 [1.1        1.31101528]
 [1.14141667 0.7531849 ]]",1,3.467
8729820499,f,20,english,5,3,english,2024-02-01 10:36:57.252449,False,2,256,sounds\french\audio/french_30.wav,"[[  0.          26.66622304]
 [  0.1         44.7756476 ]
 [  0.2        -11.3520596 ]
 [  0.3         -4.87681606]
 [  0.4        -42.57857896]
 [  0.5         67.17876782]
 [  0.6         -3.30215246]
 [  0.7         -9.17249919]
 [  0.8         29.45097785]
 [  0.9        -60.52095677]
 [  1.          96.53383837]
 [  1.1         84.89885576]
 [  1.14141667  70.14672622]]","[[0.         1.24018819]
 [0.1        0.12283153]
 [0.2        0.97062851]
 [0.3        1.26015405]
 [0.4        1.61652027]
 [0.5        0.83922535]
 [0.6        0.38120587]
 [0.7        0.02314929]
 [0.8        1.31693882]
 [0.9        1.24941809]
 [1.         1.21139656]
 [1.1        0.90389111]
 [1.14141667 1.73450765]]",1,0.256
8729820499,f,20,english,5,3,english,2024-02-01 10:36:57.252449,False,2,257,sounds\french\audio/french_481.wav,"[[  0.         -72.69871862]
 [  0.1        -16.04832948]
 [  0.2         20.92273095]
 [  0.3         -7.90583134]
 [  0.4         52.2185679 ]
 [  0.5         54.85723666]
 [  0.6         53.33669569]
 [  0.7        -25.554879  ]
 [  0.8         64.63573473]
 [  0.9         36.81770312]
 [  1.          49.7946958 ]
 [  1.1        -12.06960957]
 [  1.14141667  12.77262901]]","[[0.         1.31481161]
 [0.1        0.5303762 ]
 [0.2        1.66790615]
 [0.3        0.3235164 ]
 [0.4        1.59315775]
 [0.5        0.96721806]
 [0.6        0.14181203]
 [0.7        0.99100706]
 [0.8        1.71926809]
 [0.9        1.97300287]
 [1.         1.34955358]
 [1.1        0.58588856]
 [1.14141667 1.02126832]]",1,0.273
8729820499,f,20,english,5,3,english,2024-02-01 10:36:57.252449,False,2,258,sounds\french\audio/french_56.wav,"[[  0.          57.67582041]
 [  0.1         30.60683187]
 [  0.2         67.52262427]
 [  0.3         46.8365599 ]
 [  0.4         -1.01645681]
 [  0.5        -58.538187  ]
 [  0.6         10.91378016]
 [  0.7        -18.54635938]
 [  0.8        -51.46185887]
 [  0.9        -24.54774775]
 [  1.          23.81493142]
 [  1.1        -98.28583734]
 [  1.14141667 -16.63951012]]","[[0.         1.07499149]
 [0.1        1.16004115]
 [0.2        0.4342818 ]
 [0.3        1.77949258]
 [0.4        1.14694495]
 [0.5        0.2393662 ]
 [0.6        0.50449479]
 [0.7        1.22580092]
 [0.8        1.46495703]
 [0.9        1.95127442]
 [1.         0.99233432]
 [1.1        1.14516037]
 [1.14141667 0.6161327 ]]",1,0.141
8729820499,f,20,english,5,3,english,2024-02-01 10:36:57.252449,False,2,259,sounds\french\audio/french_974.wav,"[[  0.          70.97382946]
 [  0.1        -11.51206682]
 [  0.2         21.14590895]
 [  0.3         -1.24336301]
 [  0.4         -7.59562756]
 [  0.5         98.81108041]
 [  0.6          1.5690047 ]
 [  0.7         32.73857184]
 [  0.8         21.15705836]
 [  0.9         24.28285736]
 [  1.         -18.85169767]
 [  1.1        -83.94572859]
 [  1.14141667 -90.55748201]]","[[0.         1.27524467]
 [0.1        0.96634171]
 [0.2        1.94727541]
 [0.3        0.55924313]
 [0.4        0.16409288]
 [0.5        0.65824955]
 [0.6        1.04527507]
 [0.7        1.28112397]
 [0.8        1.89872216]
 [0.9        0.65988414]
 [1.         1.70679925]
 [1.1        1.83803483]
 [1.14141667 1.54364757]]",1,1.28
8729820499,f,20,english,5,3,english,2024-02-01 10:36:57.252449,False,2,260,sounds\french\audio/french_702.wav,"[[  0.          26.32047113]
 [  0.1         33.56503539]
 [  0.2        -13.32899181]
 [  0.3        -92.77430448]
 [  0.4         55.50813545]
 [  0.5        -64.42128049]
 [  0.6        -93.19419433]
 [  0.7         47.86603083]
 [  0.8          2.57404089]
 [  0.9          8.38316132]
 [  1.          27.09531385]
 [  1.1         53.99806352]
 [  1.14141667  -2.40011534]]","[[0.         0.49645865]
 [0.1        1.57950196]
 [0.2        1.71930356]
 [0.3        0.44513477]
 [0.4        0.90179218]
 [0.5        1.66921342]
 [0.6        0.28360175]
 [0.7        1.17825667]
 [0.8        1.90745253]
 [0.9        1.47535418]
 [1.         1.20087323]
 [1.1        1.42749806]
 [1.14141667 0.48284837]]",1,0.124
8729820499,f,20,english,5,3,english,2024-02-01 10:36:57.252449,False,2,261,sounds\french\audio/french_709.wav,"[[  0.         -53.16296067]
 [  0.1         59.94788803]
 [  0.2         35.87727167]
 [  0.3        -20.5364381 ]
 [  0.4         34.04594206]
 [  0.5        -79.51255741]
 [  0.6         22.56358256]
 [  0.7        -37.88762672]
 [  0.8        -41.8377988 ]
 [  0.9        -60.56478502]
 [  1.         -85.9910607 ]
 [  1.1         -8.25451984]
 [  1.14141667 -19.34673642]]","[[0.         1.12002918]
 [0.1        1.08131943]
 [0.2        0.76631976]
 [0.3        1.69776784]
 [0.4        0.74557561]
 [0.5        1.35674371]
 [0.6        1.43825325]
 [0.7        1.0289102 ]
 [0.8        1.05848076]
 [0.9        0.41244704]
 [1.         0.82703914]
 [1.1        1.84061657]
 [1.14141667 0.86940642]]",1,0.274
8729820499,f,20,english,5,3,english,2024-02-01 10:36:57.252449,False,2,262,sounds\french\audio/french_203.wav,"[[  0.          52.87711121]
 [  0.1        -18.25420171]
 [  0.2         68.04441143]
 [  0.3         43.0636021 ]
 [  0.4        -82.26648178]
 [  0.5          1.65151901]
 [  0.6         -5.82004213]
 [  0.7         15.24974529]
 [  0.8        -23.68240686]
 [  0.9        -34.12669513]
 [  1.          -2.95263407]
 [  1.1         42.22723244]
 [  1.14141667 -53.1932723 ]]","[[0.         0.93228593]
 [0.1        0.91711051]
 [0.2        0.18526145]
 [0.3        1.29727066]
 [0.4        1.32533086]
 [0.5        1.26645136]
 [0.6        0.44624286]
 [0.7        1.16965291]
 [0.8        1.35974838]
 [0.9        0.72326773]
 [1.         0.40120792]
 [1.1        0.5927827 ]
 [1.14141667 0.36763071]]",1,1.091
8729820499,f,20,english,5,3,english,2024-02-01 10:36:57.252449,False,2,263,sounds\french\audio/french_936.wav,"[[  0.          67.52582955]
 [  0.1        -45.00790549]
 [  0.2         99.04057748]
 [  0.3        -68.36116283]
 [  0.4        -69.72509786]
 [  0.5         49.9602727 ]
 [  0.6        -86.20274362]
 [  0.7        -45.26451629]
 [  0.8         92.93059236]
 [  0.9         20.23217844]
 [  1.         -97.47433382]
 [  1.1         -0.33226463]
 [  1.14141667 -70.80442404]]","[[0.         0.02866994]
 [0.1        1.52120589]
 [0.2        1.49962967]
 [0.3        0.94170168]
 [0.4        1.45346446]
 [0.5        1.239675  ]
 [0.6        0.33483984]
 [0.7        0.80645918]
 [0.8        1.81014272]
 [0.9        0.27928591]
 [1.         0.6276723 ]
 [1.1        0.06404952]
 [1.14141667 0.03566212]]",1,1.506
8729820499,f,20,english,5,3,english,2024-02-01 10:36:57.252449,False,2,264,sounds\french\audio/french_644.wav,"[[  0.          74.83214381]
 [  0.1         42.49051207]
 [  0.2         90.54799171]
 [  0.3         47.17852012]
 [  0.4          3.30263657]
 [  0.5        -34.13886535]
 [  0.6        -56.77243545]
 [  0.7         25.7362156 ]
 [  0.8        -95.08022705]
 [  0.9         77.23760269]
 [  1.         -25.42232077]
 [  1.1        -29.11552135]
 [  1.14141667 -57.8663424 ]]","[[0.         1.50126041]
 [0.1        1.8548378 ]
 [0.2        1.64493334]
 [0.3        0.77650911]
 [0.4        1.92047714]
 [0.5        0.71247883]
 [0.6        1.54632823]
 [0.7        1.62920778]
 [0.8        1.88559191]
 [0.9        0.03323224]
 [1.         1.31228193]
 [1.1        0.75255545]
 [1.14141667 1.94026239]]",0,1.033
8729820499,f,20,english,5,3,english,2024-02-01 10:36:57.252449,False,2,265,sounds\french\audio/french_913.wav,"[[  0.         -47.25134073]
 [  0.1        -82.39617775]
 [  0.2        -49.77107224]
 [  0.3        -65.18926328]
 [  0.4        -21.76681249]
 [  0.5         25.27312638]
 [  0.6         55.78406259]
 [  0.7        -27.8783869 ]
 [  0.8        -52.69419859]
 [  0.9         99.44571929]
 [  1.          87.33615919]
 [  1.1         46.22614126]
 [  1.14141667 -71.95970705]]","[[0.         0.04335797]
 [0.1        1.67103064]
 [0.2        0.81708714]
 [0.3        1.28520765]
 [0.4        1.7369454 ]
 [0.5        1.03142804]
 [0.6        0.74912627]
 [0.7        1.88947917]
 [0.8        0.39822081]
 [0.9        0.52497493]
 [1.         1.60117884]
 [1.1        1.53649436]
 [1.14141667 0.49650592]]",1,0.269
8729820499,f,20,english,5,3,english,2024-02-01 10:36:57.252449,False,2,266,sounds\french\audio/french_985.wav,"[[  0.         -59.37353255]
 [  0.1         40.25583685]
 [  0.2         80.59080254]
 [  0.3         40.93847923]
 [  0.4        -36.56577189]
 [  0.5         35.51460066]
 [  0.6         54.7926899 ]
 [  0.7         78.93834027]
 [  0.8        -92.8627388 ]
 [  0.9        -52.89775391]
 [  1.          25.49077528]
 [  1.1         10.48793814]
 [  1.14141667  80.61221093]]","[[0.         1.26289608]
 [0.1        1.7636238 ]
 [0.2        0.23232194]
 [0.3        0.4110335 ]
 [0.4        1.43128616]
 [0.5        0.65384514]
 [0.6        0.38929396]
 [0.7        0.45559426]
 [0.8        1.69671004]
 [0.9        1.41051885]
 [1.         1.92248776]
 [1.1        1.77523192]
 [1.14141667 0.82877362]]",1,0.814
8729820499,f,20,english,5,3,english,2024-02-01 10:36:57.252449,False,2,267,sounds\french\audio/french_36.wav,"[[  0.         -11.07319695]
 [  0.1        -25.71224467]
 [  0.2        -96.57480527]
 [  0.3         93.32142105]
 [  0.4         17.7749858 ]
 [  0.5        -73.30096507]
 [  0.6        -46.23339782]
 [  0.7        -83.63624017]
 [  0.8        -33.60594302]
 [  0.9          8.42036978]
 [  1.          36.75587817]
 [  1.1        -32.43019278]
 [  1.14141667  30.15808511]]","[[0.         0.23275599]
 [0.1        1.71731214]
 [0.2        0.39984068]
 [0.3        0.82158745]
 [0.4        1.37135508]
 [0.5        1.36933286]
 [0.6        0.23667526]
 [0.7        0.96954284]
 [0.8        1.15800278]
 [0.9        1.66574798]
 [1.         1.99186971]
 [1.1        1.21078933]
 [1.14141667 1.78246496]]",1,0.28
8729820499,f,20,english,5,3,english,2024-02-01 10:36:57.252449,False,2,268,sounds\french\audio/french_152.wav,"[[  0.          22.60875431]
 [  0.1         14.43122851]
 [  0.2         -1.17604154]
 [  0.3         99.62569478]
 [  0.4        -64.65569176]
 [  0.5        -41.8275267 ]
 [  0.6         34.66502166]
 [  0.7        -34.34381975]
 [  0.8        -81.02141252]
 [  0.9         -5.97302513]
 [  1.          -9.83226783]
 [  1.1        -81.65012796]
 [  1.14141667 -85.13057585]]","[[0.         0.83599951]
 [0.1        1.5682517 ]
 [0.2        1.13690913]
 [0.3        0.25393691]
 [0.4        0.7777625 ]
 [0.5        0.49994145]
 [0.6        0.40465775]
 [0.7        1.59194632]
 [0.8        1.86410196]
 [0.9        1.45014204]
 [1.         1.09472926]
 [1.1        1.56254354]
 [1.14141667 1.24100029]]",1,0.396
8729820499,f,20,english,5,3,english,2024-02-01 10:36:57.252449,False,2,269,sounds\french\audio/french_561.wav,"[[  0.          67.40101017]
 [  0.1         36.60368445]
 [  0.2         39.55672366]
 [  0.3         54.30102721]
 [  0.4         20.03392426]
 [  0.5        -29.68246873]
 [  0.6         22.40430281]
 [  0.7        -74.48697664]
 [  0.8         13.2806252 ]
 [  0.9         44.09035723]
 [  1.          -8.48015654]
 [  1.1         45.0458021 ]
 [  1.14141667 -93.39742635]]","[[0.         0.645078  ]
 [0.1        0.26756066]
 [0.2        0.69254265]
 [0.3        1.32198922]
 [0.4        1.02700149]
 [0.5        0.98226919]
 [0.6        0.81279805]
 [0.7        0.24367369]
 [0.8        0.57451136]
 [0.9        0.58440629]
 [1.         1.65336997]
 [1.1        1.04192986]
 [1.14141667 0.23712889]]",1,0.312
8729820499,f,20,english,5,3,english,2024-02-01 10:36:57.252449,False,2,270,sounds\french\audio/french_234.wav,"[[  0.          88.22307588]
 [  0.1         57.26575683]
 [  0.2         25.52563425]
 [  0.3        -25.05527829]
 [  0.4        -99.71798475]
 [  0.5        -43.38981996]
 [  0.6        -62.87626662]
 [  0.7         -4.76781776]
 [  0.8         56.90959429]
 [  0.9         88.67981641]
 [  1.         -76.52776347]
 [  1.1        -30.37754575]
 [  1.14141667   5.71933253]]","[[0.         1.89855189]
 [0.1        1.27116008]
 [0.2        1.59337458]
 [0.3        0.76927451]
 [0.4        1.24054911]
 [0.5        0.19501713]
 [0.6        0.83885203]
 [0.7        0.58437892]
 [0.8        0.42895921]
 [0.9        1.25749201]
 [1.         1.61503786]
 [1.1        0.54685298]
 [1.14141667 1.35699627]]",1,0.108
8729820499,f,20,english,5,3,english,2024-02-01 10:36:57.252449,False,2,271,sounds\french\audio/french_433.wav,"[[  0.          13.65936781]
 [  0.1         59.19964003]
 [  0.2        -16.88317101]
 [  0.3        -29.25697853]
 [  0.4        -20.47261371]
 [  0.5        -95.33210222]
 [  0.6        -87.63836787]
 [  0.7        -87.59004626]
 [  0.8        -36.63017932]
 [  0.9         23.01049222]
 [  1.         -37.6607371 ]
 [  1.1        -63.45582253]
 [  1.14141667 -21.18055498]]","[[0.         1.51229861]
 [0.1        0.95952734]
 [0.2        1.86428533]
 [0.3        1.71002057]
 [0.4        1.4823254 ]
 [0.5        1.31199137]
 [0.6        1.53917366]
 [0.7        0.27400767]
 [0.8        0.2344453 ]
 [0.9        1.76474922]
 [1.         1.98224239]
 [1.1        0.32973237]
 [1.14141667 0.42672881]]",1,0.203
8729820499,f,20,english,5,3,english,2024-02-01 10:36:57.252449,False,2,272,sounds\french\audio/french_793.wav,"[[  0.           0.61381663]
 [  0.1         92.05397349]
 [  0.2         23.63919485]
 [  0.3         94.74337544]
 [  0.4         -4.85245867]
 [  0.5        -56.1365957 ]
 [  0.6        -40.34456192]
 [  0.7         -4.58487531]
 [  0.8         51.30918321]
 [  0.9         30.18198808]
 [  1.          16.73684117]
 [  1.1         54.14621512]
 [  1.14141667 -25.30748168]]","[[0.         0.26180926]
 [0.1        1.13910564]
 [0.2        0.88267261]
 [0.3        0.03736754]
 [0.4        0.51925045]
 [0.5        0.99207172]
 [0.6        0.90668955]
 [0.7        1.38132635]
 [0.8        0.53966259]
 [0.9        0.34803119]
 [1.         0.51822744]
 [1.1        0.88562178]
 [1.14141667 1.30234483]]",0,0.785
8729820499,f,20,english,5,3,english,2024-02-01 10:36:57.252449,False,2,273,sounds\french\audio/french_292.wav,"[[  0.         -65.21663055]
 [  0.1         34.24982767]
 [  0.2        -92.63295305]
 [  0.3        -77.59900382]
 [  0.4         14.83333959]
 [  0.5         11.34419051]
 [  0.6          5.22580578]
 [  0.7          9.90915295]
 [  0.8         98.66536814]
 [  0.9        -61.20859902]
 [  1.         -91.20285571]
 [  1.1         77.92662302]
 [  1.14141667 -48.25371816]]","[[0.         1.02426511]
 [0.1        1.12889875]
 [0.2        1.50148233]
 [0.3        1.82420462]
 [0.4        1.7438412 ]
 [0.5        0.42400938]
 [0.6        0.47297633]
 [0.7        0.69162899]
 [0.8        0.37166542]
 [0.9        0.73651314]
 [1.         1.19119341]
 [1.1        0.13786686]
 [1.14141667 1.01945383]]",1,0.413
8729820499,f,20,english,5,3,english,2024-02-01 10:36:57.252449,False,2,274,sounds\french\audio/french_692.wav,"[[  0.          -3.63018758]
 [  0.1        -68.16293379]
 [  0.2         94.54361928]
 [  0.3         25.0958546 ]
 [  0.4        -99.12905949]
 [  0.5        -47.00596257]
 [  0.6        -38.46033818]
 [  0.7        -52.37005629]
 [  0.8         29.27180561]
 [  0.9        -18.83326647]
 [  1.         -60.91466225]
 [  1.1        -20.82797719]
 [  1.14141667 -55.17315813]]","[[0.         1.78860692]
 [0.1        0.86300874]
 [0.2        1.08735966]
 [0.3        0.96562877]
 [0.4        1.65441916]
 [0.5        1.19889603]
 [0.6        0.04010608]
 [0.7        0.99288232]
 [0.8        1.70634134]
 [0.9        0.96715022]
 [1.         1.75736357]
 [1.1        1.93453934]
 [1.14141667 0.43289188]]",1,0.213
8729820499,f,20,english,5,3,english,2024-02-01 10:36:57.252449,False,2,275,sounds\french\audio/french_278.wav,"[[  0.          44.87958556]
 [  0.1         54.45371721]
 [  0.2         45.64758291]
 [  0.3        -16.61950776]
 [  0.4        -83.29715796]
 [  0.5        -45.12452767]
 [  0.6         81.71688846]
 [  0.7        -84.47047535]
 [  0.8         62.79515498]
 [  0.9        -78.3783001 ]
 [  1.          35.83056969]
 [  1.1         -9.69110421]
 [  1.14141667 -51.62343027]]","[[0.         1.76324183]
 [0.1        0.77779847]
 [0.2        0.82423998]
 [0.3        1.09492101]
 [0.4        0.39451547]
 [0.5        1.64255071]
 [0.6        0.88909591]
 [0.7        0.77482277]
 [0.8        0.09065163]
 [0.9        1.7734822 ]
 [1.         1.91427457]
 [1.1        1.4912645 ]
 [1.14141667 0.92742676]]",1,0.307
8729820499,f,20,english,5,3,english,2024-02-01 10:36:57.252449,False,2,276,sounds\french\audio/french_704.wav,"[[  0.         -31.58585165]
 [  0.1        -13.51125385]
 [  0.2         22.14103825]
 [  0.3        -45.50908341]
 [  0.4         20.8698866 ]
 [  0.5        -90.43138219]
 [  0.6         22.33677073]
 [  0.7         90.45268183]
 [  0.8        -90.10597343]
 [  0.9        -24.3404498 ]
 [  1.         -30.13742385]
 [  1.1          6.87564858]
 [  1.14141667 -11.55537801]]","[[0.         1.86204342]
 [0.1        1.3601451 ]
 [0.2        0.13727472]
 [0.3        1.96081714]
 [0.4        1.0473978 ]
 [0.5        1.56514742]
 [0.6        1.72147983]
 [0.7        0.83847308]
 [0.8        1.08447727]
 [0.9        0.84204293]
 [1.         1.38959139]
 [1.1        1.21285705]
 [1.14141667 1.7789236 ]]",1,0.076
8729820499,f,20,english,5,3,english,2024-02-01 10:36:57.252449,False,2,277,sounds\french\audio/french_128.wav,"[[  0.          35.7679876 ]
 [  0.1         52.90317345]
 [  0.2        -89.9536453 ]
 [  0.3         64.92635162]
 [  0.4         -7.89759856]
 [  0.5        -21.26918839]
 [  0.6        -93.18825811]
 [  0.7         -6.82941045]
 [  0.8        -24.44634709]
 [  0.9          8.91339556]
 [  1.         -93.33477606]
 [  1.1         30.80864746]
 [  1.14141667  91.54187856]]","[[0.         0.90271781]
 [0.1        1.06280114]
 [0.2        1.09994753]
 [0.3        1.21358528]
 [0.4        1.4727885 ]
 [0.5        0.21953324]
 [0.6        0.69112171]
 [0.7        1.7129229 ]
 [0.8        1.44917263]
 [0.9        1.22059532]
 [1.         1.98933018]
 [1.1        1.08286961]
 [1.14141667 1.3463941 ]]",0,0.42
8729820499,f,20,english,5,3,english,2024-02-01 10:36:57.252449,False,2,278,sounds\french\audio/french_277.wav,"[[  0.          41.08697403]
 [  0.1         73.08255676]
 [  0.2         43.08380993]
 [  0.3         21.02518819]
 [  0.4         37.78172954]
 [  0.5         23.93679705]
 [  0.6        -67.69710766]
 [  0.7         13.42536336]
 [  0.8         51.4556767 ]
 [  0.9        -56.6842947 ]
 [  1.          28.39117481]
 [  1.1         34.75019827]
 [  1.14141667 -68.6754391 ]]","[[0.         1.6200344 ]
 [0.1        1.77085985]
 [0.2        1.23064254]
 [0.3        0.65610838]
 [0.4        0.97608822]
 [0.5        1.2635416 ]
 [0.6        0.50594858]
 [0.7        1.65502646]
 [0.8        0.51878313]
 [0.9        0.73572105]
 [1.         0.30914429]
 [1.1        1.8798641 ]
 [1.14141667 1.7546161 ]]",1,0.661
8729820499,f,20,english,5,3,english,2024-02-01 10:36:57.252449,False,2,279,sounds\french\audio/french_603.wav,"[[  0.          19.6945105 ]
 [  0.1         53.62811089]
 [  0.2        -39.30903103]
 [  0.3         54.20589937]
 [  0.4        -95.2083084 ]
 [  0.5         29.46971661]
 [  0.6         -7.96409569]
 [  0.7         91.50199685]
 [  0.8         48.8288282 ]
 [  0.9         47.6951267 ]
 [  1.          89.55727136]
 [  1.1        -25.40894762]
 [  1.14141667 -65.1673552 ]]","[[0.         1.69967751]
 [0.1        0.5893267 ]
 [0.2        0.72876725]
 [0.3        0.31950758]
 [0.4        1.11794186]
 [0.5        0.00334081]
 [0.6        1.04777544]
 [0.7        0.15242204]
 [0.8        1.6691606 ]
 [0.9        1.19043437]
 [1.         1.93432652]
 [1.1        0.50605662]
 [1.14141667 1.63687901]]",1,1.962
8729820499,f,20,english,5,3,english,2024-02-01 10:36:57.252449,False,2,280,sounds\french\audio/french_156.wav,"[[  0.           6.24973356]
 [  0.1        -59.28869938]
 [  0.2        -54.93017369]
 [  0.3         70.45865659]
 [  0.4         34.41093143]
 [  0.5        -22.64644682]
 [  0.6         37.82984887]
 [  0.7        -84.29242808]
 [  0.8         97.70285322]
 [  0.9        -99.58855667]
 [  1.         -82.42661109]
 [  1.1         26.88226167]
 [  1.14141667  65.60234374]]","[[0.         0.42853185]
 [0.1        0.11783084]
 [0.2        0.30000134]
 [0.3        1.53849502]
 [0.4        1.35848197]
 [0.5        1.2667626 ]
 [0.6        1.77001246]
 [0.7        0.71439786]
 [0.8        0.64267275]
 [0.9        0.57389872]
 [1.         0.02293924]
 [1.1        0.73273097]
 [1.14141667 1.17460204]]",1,1.57
8729820499,f,20,english,5,3,english,2024-02-01 10:36:57.252449,False,2,281,sounds\french\audio/french_794.wav,"[[  0.          54.18596558]
 [  0.1         30.83712809]
 [  0.2        -89.92763037]
 [  0.3         42.98639675]
 [  0.4         20.40009477]
 [  0.5         62.44984   ]
 [  0.6         41.91717772]
 [  0.7         16.85517623]
 [  0.8         76.62897782]
 [  0.9         76.50811067]
 [  1.          15.57401532]
 [  1.1        -99.37192756]
 [  1.14141667 -64.98531848]]","[[0.         1.28936165]
 [0.1        0.9690273 ]
 [0.2        0.12410661]
 [0.3        0.23522543]
 [0.4        0.86463683]
 [0.5        0.73749983]
 [0.6        1.1899501 ]
 [0.7        1.44417732]
 [0.8        1.77792829]
 [0.9        0.08874422]
 [1.         0.93343439]
 [1.1        1.68785455]
 [1.14141667 1.27368409]]",1,0.233
8729820499,f,20,english,5,3,english,2024-02-01 10:36:57.252449,False,2,282,sounds\french\audio/french_884.wav,"[[  0.          76.60838861]
 [  0.1        -41.71607783]
 [  0.2          3.78955534]
 [  0.3         84.8602831 ]
 [  0.4         16.24540696]
 [  0.5         68.23827876]
 [  0.6        -39.71005998]
 [  0.7        -63.62075652]
 [  0.8        -57.73110382]
 [  0.9        -99.10016615]
 [  1.         -27.53166894]
 [  1.1        -48.35308155]
 [  1.14141667 -12.55349758]]","[[0.         1.25391535]
 [0.1        0.49990107]
 [0.2        1.78461269]
 [0.3        1.65174889]
 [0.4        0.71422903]
 [0.5        0.8676404 ]
 [0.6        0.5442146 ]
 [0.7        1.40281909]
 [0.8        0.85462819]
 [0.9        0.70808592]
 [1.         1.31831149]
 [1.1        0.34930191]
 [1.14141667 0.2030207 ]]",1,0.56
8729820499,f,20,english,5,3,english,2024-02-01 10:36:57.252449,False,2,283,sounds\french\audio/french_643.wav,"[[  0.          73.91884807]
 [  0.1         -4.43109792]
 [  0.2         -1.1803274 ]
 [  0.3        -41.71220888]
 [  0.4         94.20925974]
 [  0.5        -88.02698337]
 [  0.6         27.05940028]
 [  0.7        -90.83448332]
 [  0.8        -22.69696081]
 [  0.9        -24.03182976]
 [  1.          92.21203229]
 [  1.1         48.64996004]
 [  1.14141667 -33.54561586]]","[[0.         1.70558003]
 [0.1        0.86348917]
 [0.2        1.37952802]
 [0.3        1.18502501]
 [0.4        0.88169131]
 [0.5        1.38963069]
 [0.6        1.01487063]
 [0.7        1.12640019]
 [0.8        1.31593489]
 [0.9        0.18197264]
 [1.         1.50863552]
 [1.1        0.67746017]
 [1.14141667 0.44809852]]",1,0.181
8729820499,f,20,english,5,3,english,2024-02-01 10:36:57.252449,False,2,284,sounds\french\audio/french_536.wav,"[[  0.         -52.4206548 ]
 [  0.1        -74.26891648]
 [  0.2         11.31126048]
 [  0.3        -21.61900245]
 [  0.4        -94.98146832]
 [  0.5         99.95155671]
 [  0.6        -88.3367002 ]
 [  0.7        -23.8710155 ]
 [  0.8         43.41576253]
 [  0.9         40.55887391]
 [  1.          34.47455049]
 [  1.1        -52.8153809 ]
 [  1.14141667  -3.00855762]]","[[0.         0.67962867]
 [0.1        0.63540929]
 [0.2        0.83661694]
 [0.3        1.85383119]
 [0.4        1.07036792]
 [0.5        1.52468216]
 [0.6        1.55319614]
 [0.7        1.12341702]
 [0.8        1.5546784 ]
 [0.9        0.54178369]
 [1.         1.26113571]
 [1.1        1.84040785]
 [1.14141667 1.97764464]]",1,0.023
8729820499,f,20,english,5,3,english,2024-02-01 10:36:57.252449,False,2,285,sounds\french\audio/french_642.wav,"[[  0.         -26.94149139]
 [  0.1        -42.44979242]
 [  0.2        -85.58455898]
 [  0.3         71.34116789]
 [  0.4         -4.33450323]
 [  0.5         17.60212446]
 [  0.6         18.23456953]
 [  0.7         54.5003758 ]
 [  0.8        -45.66104238]
 [  0.9        -27.81363224]
 [  1.         -50.61781977]
 [  1.1        -53.22259328]
 [  1.14141667  60.89124341]]","[[0.         1.01271481]
 [0.1        0.51257495]
 [0.2        0.4986283 ]
 [0.3        0.26186834]
 [0.4        0.39941129]
 [0.5        1.35211787]
 [0.6        1.3422582 ]
 [0.7        1.49292003]
 [0.8        0.35741308]
 [0.9        1.12731495]
 [1.         0.6090457 ]
 [1.1        1.42419738]
 [1.14141667 1.16448888]]",1,0.607
8729820499,f,20,english,5,3,english,2024-02-01 10:36:57.252449,False,2,286,sounds\french\audio/french_362.wav,"[[  0.          41.03273498]
 [  0.1          9.58147449]
 [  0.2        -32.18625516]
 [  0.3         28.50669793]
 [  0.4        -88.53670297]
 [  0.5        -15.43899097]
 [  0.6        -14.99208648]
 [  0.7         30.73544721]
 [  0.8        -77.16176604]
 [  0.9         -8.39157052]
 [  1.          -0.4008465 ]
 [  1.1          4.11299021]
 [  1.14141667  49.09310712]]","[[0.         1.17434259]
 [0.1        1.0161357 ]
 [0.2        1.58908251]
 [0.3        0.746627  ]
 [0.4        0.02412489]
 [0.5        0.5408358 ]
 [0.6        1.97473796]
 [0.7        0.60459965]
 [0.8        1.44502859]
 [0.9        1.27495293]
 [1.         0.65103499]
 [1.1        0.57126771]
 [1.14141667 1.60326381]]",1,0.159
8729820499,f,20,english,5,3,english,2024-02-01 10:36:57.252449,False,2,287,sounds\french\audio/french_807.wav,"[[  0.         -80.44919657]
 [  0.1        -34.48727533]
 [  0.2        -27.85444657]
 [  0.3         -0.73618666]
 [  0.4          0.77626811]
 [  0.5        -75.08426277]
 [  0.6         20.03798274]
 [  0.7         46.24294154]
 [  0.8         22.03140958]
 [  0.9         26.33483047]
 [  1.         -51.28476198]
 [  1.1        -29.39920635]
 [  1.14141667   1.31536819]]","[[0.         1.01791128]
 [0.1        0.51127266]
 [0.2        1.03770419]
 [0.3        1.5684914 ]
 [0.4        0.83417196]
 [0.5        0.04387423]
 [0.6        0.37017036]
 [0.7        1.90217427]
 [0.8        0.74355786]
 [0.9        0.1834128 ]
 [1.         1.60996589]
 [1.1        1.08150991]
 [1.14141667 0.63923462]]",1,0.396
8729820499,f,20,english,5,3,english,2024-02-01 10:36:57.252449,False,2,288,sounds\french\audio/french_6.wav,"[[  0.          27.45592216]
 [  0.1        -62.22353357]
 [  0.2        -92.28039871]
 [  0.3        -45.49726298]
 [  0.4         60.23001679]
 [  0.5         43.00364091]
 [  0.6        -93.39074753]
 [  0.7         58.97930401]
 [  0.8         83.76733066]
 [  0.9          8.08054163]
 [  1.          43.76190446]
 [  1.1         -1.37823078]
 [  1.14141667 -31.12824275]]","[[0.         0.54844543]
 [0.1        0.8427617 ]
 [0.2        0.90079623]
 [0.3        0.58973995]
 [0.4        1.03996406]
 [0.5        0.42947422]
 [0.6        1.03262215]
 [0.7        0.82620221]
 [0.8        1.23487026]
 [0.9        1.14585448]
 [1.         0.53858988]
 [1.1        0.26561002]
 [1.14141667 1.58779407]]",1,0.677
8729820499,f,20,english,5,3,english,2024-02-01 10:36:57.252449,False,2,289,sounds\french\audio/french_840.wav,"[[  0.          16.01173906]
 [  0.1         -0.93929327]
 [  0.2        -17.23060198]
 [  0.3        -14.35474517]
 [  0.4         57.82738935]
 [  0.5        -19.07366737]
 [  0.6         99.92629403]
 [  0.7        -31.41992182]
 [  0.8        -47.66956425]
 [  0.9        -72.50934827]
 [  1.          10.08035485]
 [  1.1        -71.14332415]
 [  1.14141667  55.3679429 ]]","[[0.         1.58376938]
 [0.1        0.92666525]
 [0.2        0.13449096]
 [0.3        0.89985283]
 [0.4        0.61856172]
 [0.5        0.65453346]
 [0.6        0.34357521]
 [0.7        0.36537082]
 [0.8        0.58377746]
 [0.9        0.43098569]
 [1.         1.92139008]
 [1.1        0.82769189]
 [1.14141667 1.76916827]]",1,0.162
8729820499,f,20,english,5,3,english,2024-02-01 10:36:57.252449,False,2,290,sounds\french\audio/french_965.wav,"[[  0.         -48.58162181]
 [  0.1         47.6871057 ]
 [  0.2         23.95676838]
 [  0.3        -24.73791069]
 [  0.4         88.65790889]
 [  0.5        -99.17119216]
 [  0.6         34.90627437]
 [  0.7         25.78663671]
 [  0.8         29.63617464]
 [  0.9         78.54761734]
 [  1.          89.6715392 ]
 [  1.1         52.66680317]
 [  1.14141667 -91.61447482]]","[[0.         0.70059107]
 [0.1        1.78470564]
 [0.2        0.47543709]
 [0.3        1.78680006]
 [0.4        0.5678587 ]
 [0.5        1.43378545]
 [0.6        0.13629267]
 [0.7        0.97611612]
 [0.8        0.2968179 ]
 [0.9        1.84395649]
 [1.         0.06154245]
 [1.1        0.24306075]
 [1.14141667 0.32609014]]",1,0.342
8729820499,f,20,english,5,3,english,2024-02-01 10:36:57.252449,False,2,291,sounds\french\audio/french_884.wav,"[[  0.          76.60838861]
 [  0.1        -41.71607783]
 [  0.2          3.78955534]
 [  0.3         84.8602831 ]
 [  0.4         16.24540696]
 [  0.5         68.23827876]
 [  0.6        -39.71005998]
 [  0.7        -63.62075652]
 [  0.8        -57.73110382]
 [  0.9        -99.10016615]
 [  1.         -27.53166894]
 [  1.1        -48.35308155]
 [  1.14141667 -12.55349758]]","[[0.         1.25391535]
 [0.1        0.49990107]
 [0.2        1.78461269]
 [0.3        1.65174889]
 [0.4        0.71422903]
 [0.5        0.8676404 ]
 [0.6        0.5442146 ]
 [0.7        1.40281909]
 [0.8        0.85462819]
 [0.9        0.70808592]
 [1.         1.31831149]
 [1.1        0.34930191]
 [1.14141667 0.2030207 ]]",1,0.358
8729820499,f,20,english,5,3,english,2024-02-01 10:36:57.252449,False,2,292,sounds\french\audio/french_9.wav,"[[  0.          70.21366491]
 [  0.1         91.50371141]
 [  0.2        -85.12272145]
 [  0.3        -75.82363795]
 [  0.4         70.73308418]
 [  0.5        -52.13890441]
 [  0.6         46.1667871 ]
 [  0.7        -34.69202558]
 [  0.8         34.67367308]
 [  0.9         85.91967681]
 [  1.         -83.0691135 ]
 [  1.1         -3.32695792]
 [  1.14141667 -42.25547531]]","[[0.         0.37662074]
 [0.1        1.83157943]
 [0.2        1.1022813 ]
 [0.3        1.48908975]
 [0.4        0.90588888]
 [0.5        0.40550138]
 [0.6        0.80579576]
 [0.7        1.194847  ]
 [0.8        0.68829777]
 [0.9        1.08914426]
 [1.         1.95098113]
 [1.1        0.09700166]
 [1.14141667 0.87797132]]",1,0.645
8729820499,f,20,english,5,3,english,2024-02-01 10:36:57.252449,False,2,293,sounds\french\audio/french_765.wav,"[[  0.         -21.76223445]
 [  0.1        -69.88378146]
 [  0.2        -54.62116144]
 [  0.3         80.40698851]
 [  0.4         44.49094145]
 [  0.5        -34.58786744]
 [  0.6        -82.72511393]
 [  0.7        -17.30470796]
 [  0.8         -3.21936287]
 [  0.9         34.09717353]
 [  1.         -34.0267679 ]
 [  1.1         91.79101104]
 [  1.14141667  44.37260858]]","[[0.         1.58709165]
 [0.1        1.30096868]
 [0.2        0.79134487]
 [0.3        1.38985141]
 [0.4        1.16396661]
 [0.5        0.50418915]
 [0.6        0.66043503]
 [0.7        0.90266971]
 [0.8        0.65632044]
 [0.9        1.38813555]
 [1.         1.56070696]
 [1.1        1.04399467]
 [1.14141667 0.73913352]]",1,0.509
8729820499,f,20,english,5,3,english,2024-02-01 10:36:57.252449,False,2,294,sounds\french\audio/french_281.wav,"[[  0.         -95.80336327]
 [  0.1         13.19102034]
 [  0.2         42.62860053]
 [  0.3         21.92016727]
 [  0.4         -2.97694346]
 [  0.5         -3.56004014]
 [  0.6        -28.69548466]
 [  0.7         -9.16727504]
 [  0.8          7.86062341]
 [  0.9        -95.03668578]
 [  1.         -83.63952968]
 [  1.1         74.11931798]
 [  1.14141667  32.00428404]]","[[0.         0.76183862]
 [0.1        1.51704684]
 [0.2        0.9408124 ]
 [0.3        0.14797413]
 [0.4        0.97581102]
 [0.5        0.67546432]
 [0.6        0.35656679]
 [0.7        1.28503381]
 [0.8        0.91616519]
 [0.9        1.72740892]
 [1.         0.79466522]
 [1.1        0.92967992]
 [1.14141667 1.54385024]]",1,1.128
8729820499,f,20,english,5,3,english,2024-02-01 10:36:57.252449,False,2,295,sounds\french\audio/french_163.wav,"[[  0.         -54.18087261]
 [  0.1         16.52339616]
 [  0.2        -81.79229621]
 [  0.3        -16.22352484]
 [  0.4         58.55115093]
 [  0.5         66.43980446]
 [  0.6         70.08690973]
 [  0.7          0.21359559]
 [  0.8         -1.74176691]
 [  0.9        -18.30540854]
 [  1.         -46.68759163]
 [  1.1         -9.78920497]
 [  1.14141667  74.28807409]]","[[0.         1.1359435 ]
 [0.1        0.63765305]
 [0.2        1.13865233]
 [0.3        0.41075248]
 [0.4        1.28098279]
 [0.5        1.3514993 ]
 [0.6        1.92825974]
 [0.7        1.1981292 ]
 [0.8        0.77184811]
 [0.9        1.15917036]
 [1.         0.4764557 ]
 [1.1        0.00915949]
 [1.14141667 1.50578286]]",1,0.057
8729820499,f,20,english,5,3,english,2024-02-01 10:36:57.252449,False,2,296,sounds\french\audio/french_720.wav,"[[  0.          85.80392633]
 [  0.1        -98.56624364]
 [  0.2        -15.54633339]
 [  0.3         12.04086753]
 [  0.4        -75.87032679]
 [  0.5        -71.30261442]
 [  0.6        -10.4319772 ]
 [  0.7        -35.10464562]
 [  0.8        -93.80928849]
 [  0.9        -88.54536233]
 [  1.         -10.78359211]
 [  1.1         10.20449085]
 [  1.14141667  23.34719819]]","[[0.         1.82212135]
 [0.1        1.28022   ]
 [0.2        0.53444676]
 [0.3        1.51679689]
 [0.4        0.5225437 ]
 [0.5        1.47340186]
 [0.6        0.07268415]
 [0.7        0.63796453]
 [0.8        1.15294564]
 [0.9        0.36586575]
 [1.         0.76325498]
 [1.1        0.16679214]
 [1.14141667 0.86580461]]",0,1.793
8729820499,f,20,english,5,3,english,2024-02-01 10:36:57.252449,False,2,297,sounds\french\audio/french_829.wav,"[[  0.          44.41222777]
 [  0.1         -5.72417289]
 [  0.2        -50.12336381]
 [  0.3        -86.64702952]
 [  0.4        -71.87994128]
 [  0.5        -47.62604805]
 [  0.6         27.11483791]
 [  0.7         81.27657929]
 [  0.8         49.14197676]
 [  0.9         53.94501159]
 [  1.          54.22386435]
 [  1.1         45.20696114]
 [  1.14141667  90.88004675]]","[[0.         1.49707404]
 [0.1        1.95741859]
 [0.2        1.67134855]
 [0.3        0.50001938]
 [0.4        1.37442335]
 [0.5        0.72746804]
 [0.6        1.16871151]
 [0.7        1.06523219]
 [0.8        0.22917267]
 [0.9        0.33463732]
 [1.         0.22360953]
 [1.1        1.43123439]
 [1.14141667 0.8845218 ]]",1,0.835
8729820499,f,20,english,5,3,english,2024-02-01 10:36:57.252449,False,2,298,sounds\french\audio/french_867.wav,"[[  0.         -53.43328625]
 [  0.1        -49.97355713]
 [  0.2        -58.9249957 ]
 [  0.3         43.5637091 ]
 [  0.4        -25.84589976]
 [  0.5         22.34280216]
 [  0.6          8.86479921]
 [  0.7          2.63749871]
 [  0.8         37.73266473]
 [  0.9         85.03367681]
 [  1.         -58.31214733]
 [  1.1         -2.53716971]
 [  1.14141667  48.69326258]]","[[0.         0.97812111]
 [0.1        1.3601437 ]
 [0.2        1.54753438]
 [0.3        1.06201045]
 [0.4        0.41331847]
 [0.5        0.42681136]
 [0.6        0.521473  ]
 [0.7        0.89867922]
 [0.8        1.6707878 ]
 [0.9        1.51664813]
 [1.         0.90221678]
 [1.1        0.21770986]
 [1.14141667 0.96207289]]",1,0.202
8729820499,f,20,english,5,3,english,2024-02-01 10:36:57.252449,False,2,299,sounds\french\audio/french_831.wav,"[[  0.         -10.5847099 ]
 [  0.1         72.03119483]
 [  0.2        -38.55444578]
 [  0.3        -61.75540634]
 [  0.4         13.38989171]
 [  0.5         27.4924733 ]
 [  0.6         62.01562381]
 [  0.7         37.74034486]
 [  0.8        -71.00533258]
 [  0.9        -46.8980403 ]
 [  1.         -10.88696716]
 [  1.1        -90.08482092]
 [  1.14141667  57.40221355]]","[[0.         0.87624238]
 [0.1        0.83093245]
 [0.2        1.7724984 ]
 [0.3        1.75313307]
 [0.4        0.47670305]
 [0.5        1.56349009]
 [0.6        1.14851486]
 [0.7        0.04761079]
 [0.8        0.53812611]
 [0.9        1.53823227]
 [1.         1.82712008]
 [1.1        0.58630488]
 [1.14141667 0.13909704]]",1,0.273
8729820499,f,20,english,5,3,english,2024-02-01 10:36:57.252449,False,2,300,sounds\french\audio/french_755.wav,"[[  0.          36.14181442]
 [  0.1         65.65436486]
 [  0.2         86.67843471]
 [  0.3         -8.86145981]
 [  0.4        -12.30117524]
 [  0.5         98.78001308]
 [  0.6         12.52874714]
 [  0.7         99.60164516]
 [  0.8         39.46126753]
 [  0.9         32.3918664 ]
 [  1.          83.79615474]
 [  1.1         92.88365026]
 [  1.14141667 -11.43148999]]","[[0.         1.11091934]
 [0.1        1.69229508]
 [0.2        0.1388144 ]
 [0.3        0.57833764]
 [0.4        0.31165038]
 [0.5        0.94348681]
 [0.6        0.6726085 ]
 [0.7        1.03806417]
 [0.8        1.20959204]
 [0.9        0.23020996]
 [1.         1.16092257]
 [1.1        1.06314815]
 [1.14141667 1.36781362]]",1,0.841
8729820499,f,20,english,5,3,english,2024-02-01 10:36:57.252449,False,2,301,sounds\french\audio/french_328.wav,"[[  0.          70.39281279]
 [  0.1        -62.4365066 ]
 [  0.2         74.18889281]
 [  0.3          6.08253947]
 [  0.4         14.94897536]
 [  0.5        -45.91689169]
 [  0.6         51.00614237]
 [  0.7        -68.53703239]
 [  0.8         93.58528924]
 [  0.9         51.46046525]
 [  1.         -77.58470521]
 [  1.1        -72.45732105]
 [  1.14141667 -40.05577785]]","[[0.         1.11868874]
 [0.1        1.7831523 ]
 [0.2        0.37694606]
 [0.3        0.30173154]
 [0.4        1.08259473]
 [0.5        0.83879107]
 [0.6        0.64036349]
 [0.7        1.67880376]
 [0.8        1.29419858]
 [0.9        0.63702013]
 [1.         0.88742502]
 [1.1        0.08384723]
 [1.14141667 0.80959776]]",1,0.362
8729820499,f,20,english,5,3,english,2024-02-01 10:36:57.252449,False,2,302,sounds\french\audio/french_624.wav,"[[  0.         -28.52871293]
 [  0.1        -15.13108141]
 [  0.2        -13.04094112]
 [  0.3        -84.4775762 ]
 [  0.4         73.47903794]
 [  0.5         73.99412675]
 [  0.6        -17.18727504]
 [  0.7         23.00277233]
 [  0.8        -62.7599991 ]
 [  0.9         84.35585855]
 [  1.         -54.54055343]
 [  1.1        -26.24402566]
 [  1.14141667  31.89715649]]","[[0.         1.16992623]
 [0.1        1.22361764]
 [0.2        0.99709028]
 [0.3        0.23255509]
 [0.4        0.62966649]
 [0.5        1.32731618]
 [0.6        0.23490629]
 [0.7        0.63487472]
 [0.8        0.6717251 ]
 [0.9        0.0253544 ]
 [1.         0.88305135]
 [1.1        1.31611795]
 [1.14141667 1.72432966]]",1,0.823
8729820499,f,20,english,5,3,english,2024-02-01 10:36:57.252449,False,2,303,sounds\french\audio/french_629.wav,"[[  0.           5.98508215]
 [  0.1         99.19738459]
 [  0.2        -25.60726918]
 [  0.3        -26.1182931 ]
 [  0.4        -54.19966731]
 [  0.5        -29.12110138]
 [  0.6         11.81276868]
 [  0.7         64.60926562]
 [  0.8        -90.82568408]
 [  0.9          1.57809304]
 [  1.         -36.67521205]
 [  1.1        -30.40407259]
 [  1.14141667 -57.84923793]]","[[0.         0.06445834]
 [0.1        1.43064101]
 [0.2        0.97062544]
 [0.3        0.94934806]
 [0.4        0.4330015 ]
 [0.5        1.79179318]
 [0.6        0.5927928 ]
 [0.7        1.92834464]
 [0.8        1.42833582]
 [0.9        1.02511423]
 [1.         1.4168199 ]
 [1.1        0.13133008]
 [1.14141667 0.89615645]]",1,0.105
8729820499,f,20,english,5,3,english,2024-02-01 10:36:57.252449,False,2,304,sounds\french\audio/french_963.wav,"[[  0.          -2.60515396]
 [  0.1        -69.80600128]
 [  0.2        -22.76975295]
 [  0.3         47.94644455]
 [  0.4         60.99924488]
 [  0.5        -68.16371487]
 [  0.6         16.07488466]
 [  0.7         79.50423257]
 [  0.8        -61.32959447]
 [  0.9         61.1484988 ]
 [  1.         -89.32108127]
 [  1.1         87.59092513]
 [  1.14141667  33.6770082 ]]","[[0.         1.09825401]
 [0.1        0.40228202]
 [0.2        1.61918413]
 [0.3        0.40760169]
 [0.4        1.12429397]
 [0.5        1.50749112]
 [0.6        0.65773223]
 [0.7        1.2210919 ]
 [0.8        0.77742832]
 [0.9        0.45497553]
 [1.         1.00003594]
 [1.1        1.38056661]
 [1.14141667 0.82674617]]",1,0.52
8729820499,f,20,english,5,3,english,2024-02-01 10:36:57.252449,False,2,305,sounds\french\audio/french_497.wav,"[[  0.         -11.10232423]
 [  0.1         69.97508857]
 [  0.2        -17.59807726]
 [  0.3        -25.98084737]
 [  0.4        -50.44930898]
 [  0.5        -45.94995514]
 [  0.6          8.45642555]
 [  0.7        -18.86865245]
 [  0.8        -10.10667513]
 [  0.9         75.64025007]
 [  1.          -5.73955185]
 [  1.1        -69.83982299]
 [  1.14141667  56.51270029]]","[[0.         1.74915461]
 [0.1        0.91469854]
 [0.2        0.9345582 ]
 [0.3        1.8424865 ]
 [0.4        1.64628382]
 [0.5        0.39858154]
 [0.6        0.5325837 ]
 [0.7        0.60517523]
 [0.8        1.05318778]
 [0.9        0.58073606]
 [1.         0.8475124 ]
 [1.1        0.92219594]
 [1.14141667 1.33552317]]",1,0.076
8729820499,f,20,english,5,3,english,2024-02-01 10:36:57.252449,False,2,306,sounds\french\audio/french_591.wav,"[[  0.          -5.82682539]
 [  0.1        -81.3701121 ]
 [  0.2        -37.81307084]
 [  0.3        -54.8531106 ]
 [  0.4        -95.72600512]
 [  0.5        -64.2370476 ]
 [  0.6        -10.02239509]
 [  0.7          7.04740233]
 [  0.8        -22.95032107]
 [  0.9        -34.18626931]
 [  1.          -3.98772991]
 [  1.1         57.60407051]
 [  1.14141667 -76.01985318]]","[[0.         0.88855192]
 [0.1        1.90878683]
 [0.2        1.23278863]
 [0.3        0.97291582]
 [0.4        0.20433373]
 [0.5        0.04434128]
 [0.6        0.78703084]
 [0.7        1.11175391]
 [0.8        1.30696314]
 [0.9        1.87549286]
 [1.         0.82720637]
 [1.1        0.42168684]
 [1.14141667 1.24091325]]",1,0.116
8729820499,f,20,english,5,3,english,2024-02-01 10:36:57.252449,False,2,307,sounds\french\audio/french_322.wav,"[[  0.         -81.99226752]
 [  0.1        -16.25129178]
 [  0.2         77.06508594]
 [  0.3         12.75051586]
 [  0.4         -2.0376552 ]
 [  0.5         -5.71647667]
 [  0.6        -62.06437541]
 [  0.7        -59.15199876]
 [  0.8         92.65104506]
 [  0.9         72.15580193]
 [  1.         -28.04007557]
 [  1.1        -81.41529634]
 [  1.14141667  42.64256197]]","[[0.         0.33237875]
 [0.1        0.72135109]
 [0.2        0.96980376]
 [0.3        1.06597661]
 [0.4        1.07158825]
 [0.5        1.39619748]
 [0.6        0.15574445]
 [0.7        0.12302604]
 [0.8        0.08626149]
 [0.9        1.15982636]
 [1.         1.64250981]
 [1.1        0.51319454]
 [1.14141667 1.79464726]]",1,0.71
8729820499,f,20,english,5,3,english,2024-02-01 10:36:57.252449,False,2,308,sounds\french\audio/french_933.wav,"[[  0.         -37.43352781]
 [  0.1         15.82558876]
 [  0.2         11.44233804]
 [  0.3         86.94047545]
 [  0.4         37.92501629]
 [  0.5        -35.56187113]
 [  0.6         59.84524001]
 [  0.7         24.35368068]
 [  0.8         67.82444353]
 [  0.9        -52.71000344]
 [  1.         -54.70339119]
 [  1.1        -41.48635512]
 [  1.14141667  11.82766033]]","[[0.         0.98661175]
 [0.1        1.72794901]
 [0.2        1.10536982]
 [0.3        1.85590912]
 [0.4        1.60290293]
 [0.5        0.81732851]
 [0.6        1.28262622]
 [0.7        1.01556076]
 [0.8        0.86505333]
 [0.9        1.28433396]
 [1.         0.40007403]
 [1.1        0.04539202]
 [1.14141667 0.17405222]]",1,0.353
8729820499,f,20,english,5,3,english,2024-02-01 10:36:57.252449,False,2,309,sounds\french\audio/french_367.wav,"[[  0.         -19.33050099]
 [  0.1         -1.29300582]
 [  0.2        -53.6628535 ]
 [  0.3        -26.30205028]
 [  0.4        -63.4363173 ]
 [  0.5          6.39307262]
 [  0.6        -64.6682597 ]
 [  0.7         29.77195728]
 [  0.8         57.14519673]
 [  0.9         -3.13638169]
 [  1.          29.03856774]
 [  1.1        -14.77542226]
 [  1.14141667 -39.4710146 ]]","[[0.         0.32588684]
 [0.1        1.20079268]
 [0.2        1.68961812]
 [0.3        0.18361897]
 [0.4        0.97466933]
 [0.5        1.38512788]
 [0.6        0.02274579]
 [0.7        0.18668815]
 [0.8        0.42667984]
 [0.9        0.48752638]
 [1.         0.21358708]
 [1.1        0.34158708]
 [1.14141667 1.96821169]]",0,1.33
8729820499,f,20,english,5,3,english,2024-02-01 10:36:57.252449,False,2,310,sounds\french\audio/french_415.wav,"[[  0.          71.64579108]
 [  0.1        -41.99719464]
 [  0.2         59.69669117]
 [  0.3        -93.37869479]
 [  0.4        -91.85540424]
 [  0.5         77.48372324]
 [  0.6        -69.56242173]
 [  0.7         12.48070748]
 [  0.8        -68.75404893]
 [  0.9        -41.00277144]
 [  1.          14.40495226]
 [  1.1         -5.77841561]
 [  1.14141667  48.7161519 ]]","[[0.         1.53966103]
 [0.1        0.59647498]
 [0.2        1.47663482]
 [0.3        1.41232789]
 [0.4        0.7544414 ]
 [0.5        1.07877617]
 [0.6        0.285348  ]
 [0.7        1.64313736]
 [0.8        0.82781415]
 [0.9        0.10656714]
 [1.         0.13044864]
 [1.1        0.25005649]
 [1.14141667 0.86953964]]",0,1.228
8729820499,f,20,english,5,3,english,2024-02-01 10:36:57.252449,False,2,311,sounds\french\audio/french_513.wav,"[[  0.          65.19779345]
 [  0.1        -53.85269578]
 [  0.2         82.41545201]
 [  0.3         50.60713048]
 [  0.4          7.11945043]
 [  0.5         91.42493583]
 [  0.6        -85.42924685]
 [  0.7         -8.28829678]
 [  0.8         14.83211799]
 [  0.9         76.72765657]
 [  1.         -52.57682729]
 [  1.1        -94.50783694]
 [  1.14141667 -21.60549074]]","[[0.         0.10751353]
 [0.1        1.47062647]
 [0.2        1.29367767]
 [0.3        1.84832062]
 [0.4        1.72946214]
 [0.5        0.50039447]
 [0.6        0.46361625]
 [0.7        0.32923248]
 [0.8        1.36965494]
 [0.9        0.90778718]
 [1.         1.26672765]
 [1.1        0.74549941]
 [1.14141667 0.4783076 ]]",0,0.83
8729820499,f,20,english,5,3,english,2024-02-01 10:36:57.252449,False,2,312,sounds\french\audio/french_956.wav,"[[  0.         -99.35759674]
 [  0.1         17.74635761]
 [  0.2         45.19730301]
 [  0.3         32.76158542]
 [  0.4        -82.44124556]
 [  0.5        -42.32589362]
 [  0.6         47.35708325]
 [  0.7        -90.98325298]
 [  0.8        -35.51686902]
 [  0.9         60.74204696]
 [  1.         -46.10377132]
 [  1.1        -22.49053344]
 [  1.14141667  15.48787024]]","[[0.         0.54388648]
 [0.1        1.06124428]
 [0.2        1.13782447]
 [0.3        1.35322569]
 [0.4        1.86440682]
 [0.5        1.66841875]
 [0.6        1.44392405]
 [0.7        1.23654472]
 [0.8        0.08906861]
 [0.9        0.55811382]
 [1.         0.54181177]
 [1.1        0.7143235 ]
 [1.14141667 1.69639276]]",1,0.358
8729820499,f,20,english,5,3,english,2024-02-01 10:36:57.252449,False,2,313,sounds\french\audio/french_377.wav,"[[  0.         -70.73601698]
 [  0.1         72.22372487]
 [  0.2        -99.25541526]
 [  0.3          4.63765752]
 [  0.4         38.03269156]
 [  0.5          7.49856141]
 [  0.6        -81.25223021]
 [  0.7         -5.18362572]
 [  0.8        -74.84417606]
 [  0.9         -5.31350676]
 [  1.          76.28092315]
 [  1.1         -5.46975296]
 [  1.14141667  48.89221977]]","[[0.         1.03691608]
 [0.1        1.10161831]
 [0.2        0.07422673]
 [0.3        0.35917604]
 [0.4        0.08877166]
 [0.5        0.38120891]
 [0.6        1.17966097]
 [0.7        0.65215157]
 [0.8        0.96101937]
 [0.9        1.24906284]
 [1.         1.82068951]
 [1.1        1.73070441]
 [1.14141667 1.51814834]]",1,0.837
8729820499,f,20,english,5,3,english,2024-02-01 10:36:57.252449,False,2,314,sounds\french\audio/french_104.wav,"[[  0.         -10.82069804]
 [  0.1        -46.9179638 ]
 [  0.2        -54.48570272]
 [  0.3          3.05404722]
 [  0.4         53.05029039]
 [  0.5         41.93888619]
 [  0.6         38.59618791]
 [  0.7         19.43152578]
 [  0.8         77.35445073]
 [  0.9         32.46536794]
 [  1.         -22.38343672]
 [  1.1         12.24635973]
 [  1.14141667 -33.54926905]]","[[0.         0.1966368 ]
 [0.1        1.84976789]
 [0.2        1.33623315]
 [0.3        1.29159713]
 [0.4        0.83782165]
 [0.5        1.8090238 ]
 [0.6        0.45654873]
 [0.7        1.50843582]
 [0.8        0.98312763]
 [0.9        0.62069846]
 [1.         0.12277995]
 [1.1        0.0590951 ]
 [1.14141667 0.80794126]]",1,0.714
8729820499,f,20,english,5,3,english,2024-02-01 10:36:57.252449,False,2,315,sounds\french\audio/french_149.wav,"[[  0.         -39.24757442]
 [  0.1        -86.18219657]
 [  0.2        -13.61536358]
 [  0.3        -24.98862495]
 [  0.4        -41.39150035]
 [  0.5        -47.18477201]
 [  0.6        -50.56052992]
 [  0.7          3.25241095]
 [  0.8         62.92939976]
 [  0.9         27.80744465]
 [  1.          16.1564755 ]
 [  1.1        -49.86608269]
 [  1.14141667  76.57182651]]","[[0.         0.32520083]
 [0.1        0.94148503]
 [0.2        0.80565461]
 [0.3        1.81554076]
 [0.4        0.11227969]
 [0.5        0.07859168]
 [0.6        1.79560045]
 [0.7        1.45138785]
 [0.8        0.63051937]
 [0.9        1.00831203]
 [1.         1.89158982]
 [1.1        1.26890157]
 [1.14141667 0.76086528]]",1,0.97
8729820499,f,20,english,5,3,english,2024-02-01 10:36:57.252449,False,2,316,sounds\french\audio/french_394.wav,"[[  0.          95.60851421]
 [  0.1         10.27807308]
 [  0.2          4.0500478 ]
 [  0.3         98.54662712]
 [  0.4        -55.47052681]
 [  0.5         32.45246937]
 [  0.6         57.72330653]
 [  0.7        -40.98154309]
 [  0.8        -66.31000253]
 [  0.9         -0.754791  ]
 [  1.         -67.7279764 ]
 [  1.1        -66.85938958]
 [  1.14141667  60.10561607]]","[[0.         0.31080056]
 [0.1        0.60684058]
 [0.2        1.51269297]
 [0.3        0.34211461]
 [0.4        1.48307249]
 [0.5        0.87806102]
 [0.6        0.67676213]
 [0.7        1.11559136]
 [0.8        0.1280295 ]
 [0.9        1.10962347]
 [1.         0.74190709]
 [1.1        0.49223717]
 [1.14141667 0.29130713]]",1,0.522
8729820499,f,20,english,5,3,english,2024-02-01 10:36:57.252449,False,2,317,sounds\french\audio/french_865.wav,"[[  0.         -35.98136802]
 [  0.1        -47.09864116]
 [  0.2        -46.16991186]
 [  0.3         66.92600058]
 [  0.4         58.38978261]
 [  0.5         -6.27861664]
 [  0.6        -65.83636463]
 [  0.7        -30.20389067]
 [  0.8        -35.90961147]
 [  0.9         87.06351282]
 [  1.         -73.61130369]
 [  1.1        -70.4874465 ]
 [  1.14141667  34.05043966]]","[[0.         1.52034056]
 [0.1        1.94992054]
 [0.2        1.99567133]
 [0.3        0.0816066 ]
 [0.4        1.80097387]
 [0.5        1.19034433]
 [0.6        1.647248  ]
 [0.7        0.89939103]
 [0.8        0.3790929 ]
 [0.9        0.26606669]
 [1.         0.3799436 ]
 [1.1        1.04157406]
 [1.14141667 1.02434748]]",1,0.013
8729820499,f,20,english,5,3,english,2024-02-01 10:36:57.252449,False,2,318,sounds\french\audio/french_935.wav,"[[  0.          26.69857266]
 [  0.1          9.94418011]
 [  0.2         44.98404386]
 [  0.3        -98.12644395]
 [  0.4         37.12087269]
 [  0.5        -81.40581923]
 [  0.6         64.6052522 ]
 [  0.7         94.38923904]
 [  0.8         56.19817136]
 [  0.9          7.16328663]
 [  1.          27.44347809]
 [  1.1        -88.88086105]
 [  1.14141667 -79.20081415]]","[[0.         1.12236926]
 [0.1        0.76599693]
 [0.2        0.3009369 ]
 [0.3        1.55949083]
 [0.4        0.53284928]
 [0.5        1.95951797]
 [0.6        0.96662214]
 [0.7        0.81174476]
 [0.8        0.68386577]
 [0.9        1.42510328]
 [1.         1.00433894]
 [1.1        0.8579456 ]
 [1.14141667 0.03750384]]",1,0.175
8729820499,f,20,english,5,3,english,2024-02-01 10:36:57.252449,False,2,319,sounds\french\audio/french_22.wav,"[[  0.          57.57437329]
 [  0.1         91.90169455]
 [  0.2        -54.72406642]
 [  0.3        -58.21202921]
 [  0.4        -16.12745405]
 [  0.5        -77.79996065]
 [  0.6        -90.51311513]
 [  0.7          1.00723392]
 [  0.8        -64.74173294]
 [  0.9         46.18077407]
 [  1.         -18.86967466]
 [  1.1        -35.65415422]
 [  1.14141667   4.83646108]]","[[0.         1.75197151]
 [0.1        0.33106486]
 [0.2        0.60913572]
 [0.3        1.92337105]
 [0.4        0.5656997 ]
 [0.5        1.48592388]
 [0.6        0.37318603]
 [0.7        0.81705885]
 [0.8        1.04732029]
 [0.9        0.12002022]
 [1.         1.32860669]
 [1.1        1.41358368]
 [1.14141667 0.43476345]]",1,0.259
8729820499,f,20,english,5,3,english,2024-02-01 10:36:57.252449,False,2,320,sounds\french\audio/french_225.wav,"[[  0.         -40.59384573]
 [  0.1        -57.4510111 ]
 [  0.2        -66.79314761]
 [  0.3        -75.0154935 ]
 [  0.4         48.3932909 ]
 [  0.5         37.53876615]
 [  0.6        -34.2954659 ]
 [  0.7        -22.1616571 ]
 [  0.8         44.36773821]
 [  0.9         60.3014637 ]
 [  1.          57.8691924 ]
 [  1.1          5.56623992]
 [  1.14141667  25.60737947]]","[[0.         0.2419631 ]
 [0.1        0.90136728]
 [0.2        1.20342959]
 [0.3        0.43006495]
 [0.4        1.37338078]
 [0.5        1.72669278]
 [0.6        0.43130033]
 [0.7        1.23547292]
 [0.8        1.20612534]
 [0.9        1.68129448]
 [1.         0.18054319]
 [1.1        0.07993762]
 [1.14141667 1.21559584]]",1,1.554
8729820499,f,20,english,5,3,english,2024-02-01 10:36:57.252449,False,2,321,sounds\french\audio/french_622.wav,"[[  0.          21.84597138]
 [  0.1         20.37277034]
 [  0.2        -38.05647077]
 [  0.3         83.17133122]
 [  0.4        -82.18280061]
 [  0.5        -51.21955322]
 [  0.6         49.78945812]
 [  0.7        -40.51378494]
 [  0.8          1.41973713]
 [  0.9         81.5294399 ]
 [  1.         -99.24358897]
 [  1.1        -33.65546455]
 [  1.14141667  60.69238013]]","[[0.         0.32027384]
 [0.1        1.27666265]
 [0.2        0.76778972]
 [0.3        0.10012893]
 [0.4        0.47887233]
 [0.5        1.03838134]
 [0.6        0.07555661]
 [0.7        0.75483578]
 [0.8        0.71745983]
 [0.9        1.47800475]
 [1.         0.97240811]
 [1.1        0.19261346]
 [1.14141667 0.72595773]]",0,0.548
8729820499,f,20,english,5,3,english,2024-02-01 10:36:57.252449,False,2,322,sounds\french\audio/french_428.wav,"[[  0.         -21.91967555]
 [  0.1         91.57394563]
 [  0.2         36.69639527]
 [  0.3         49.32913832]
 [  0.4        -66.50012676]
 [  0.5        -22.18417908]
 [  0.6        -11.64747799]
 [  0.7         16.78402924]
 [  0.8        -35.07680491]
 [  0.9        -47.13966378]
 [  1.         -56.86354315]
 [  1.1         55.93889528]
 [  1.14141667 -72.65806652]]","[[0.         1.68245119]
 [0.1        1.59408112]
 [0.2        1.87320817]
 [0.3        0.9971053 ]
 [0.4        1.23937568]
 [0.5        0.78790083]
 [0.6        1.45514656]
 [0.7        1.30242105]
 [0.8        0.24404159]
 [0.9        1.54963109]
 [1.         0.08757984]
 [1.1        0.36331554]
 [1.14141667 1.16103238]]",1,1.004
8729820499,f,20,english,5,3,english,2024-02-01 10:36:57.252449,False,2,323,sounds\french\audio/french_134.wav,"[[  0.          10.97297173]
 [  0.1         60.01416819]
 [  0.2        -93.98790624]
 [  0.3        -86.99691935]
 [  0.4          1.36100819]
 [  0.5        -76.00290362]
 [  0.6        -30.28583778]
 [  0.7         38.63771313]
 [  0.8         87.69054451]
 [  0.9        -31.29144105]
 [  1.          24.04657267]
 [  1.1         81.15955608]
 [  1.14141667   1.25784107]]","[[0.         1.78692899]
 [0.1        1.60826716]
 [0.2        1.00663607]
 [0.3        0.41590444]
 [0.4        1.08355613]
 [0.5        1.51356664]
 [0.6        1.54870591]
 [0.7        0.4541213 ]
 [0.8        1.04379529]
 [0.9        1.8937136 ]
 [1.         0.59047144]
 [1.1        1.39231991]
 [1.14141667 0.29106815]]",1,0.751
8729820499,f,20,english,5,3,english,2024-02-01 10:36:57.252449,False,2,324,sounds\french\audio/french_900.wav,"[[  0.          17.12559696]
 [  0.1        -56.5671441 ]
 [  0.2         14.51884338]
 [  0.3        -18.58724125]
 [  0.4         60.24825847]
 [  0.5         37.11732505]
 [  0.6         64.67645387]
 [  0.7        -71.32739236]
 [  0.8        -29.12352211]
 [  0.9        -23.92624308]
 [  1.         -44.03405283]
 [  1.1        -24.43123867]
 [  1.14141667  85.71719888]]","[[0.         0.28086039]
 [0.1        0.25898492]
 [0.2        0.73738281]
 [0.3        0.53194872]
 [0.4        1.1731198 ]
 [0.5        1.44096814]
 [0.6        1.04426766]
 [0.7        1.30561608]
 [0.8        0.38583175]
 [0.9        1.06522554]
 [1.         1.24631605]
 [1.1        0.11257647]
 [1.14141667 1.16173008]]",1,0.404
8729820499,f,20,english,5,3,english,2024-02-01 10:36:57.252449,False,2,325,sounds\french\audio/french_489.wav,"[[  0.          84.44889922]
 [  0.1         76.96445942]
 [  0.2          8.54698853]
 [  0.3        -59.91285247]
 [  0.4         27.32007088]
 [  0.5          6.79605694]
 [  0.6        -17.55996402]
 [  0.7         82.31401574]
 [  0.8         84.94935876]
 [  0.9        -82.28492461]
 [  1.         -88.52112303]
 [  1.1         17.07609433]
 [  1.14141667 -30.14347884]]","[[0.         0.4324461 ]
 [0.1        0.85727213]
 [0.2        0.54736057]
 [0.3        0.94180877]
 [0.4        1.44274385]
 [0.5        0.58088487]
 [0.6        1.38647936]
 [0.7        1.65271142]
 [0.8        1.895289  ]
 [0.9        1.38057617]
 [1.         0.26964653]
 [1.1        0.78257825]
 [1.14141667 1.39946556]]",1,0.21
8729820499,f,20,english,5,3,english,2024-02-01 10:36:57.252449,False,2,326,sounds\french\audio/french_332.wav,"[[  0.          96.55415185]
 [  0.1         41.84676529]
 [  0.2         11.79407364]
 [  0.3         71.95879521]
 [  0.4         93.7120883 ]
 [  0.5        -64.09021705]
 [  0.6         48.95988614]
 [  0.7        -46.46481752]
 [  0.8        -93.14590569]
 [  0.9         98.2579271 ]
 [  1.         -25.55352001]
 [  1.1        -32.07296717]
 [  1.14141667 -59.59644834]]","[[0.         0.2361121 ]
 [0.1        1.55908087]
 [0.2        1.56148194]
 [0.3        0.1780551 ]
 [0.4        0.11299288]
 [0.5        0.50480093]
 [0.6        1.92283551]
 [0.7        0.74945396]
 [0.8        1.03156879]
 [0.9        0.68943187]
 [1.         0.49069002]
 [1.1        0.79107951]
 [1.14141667 0.50996293]]",1,0.065
8729820499,f,20,english,5,3,english,2024-02-01 10:36:57.252449,False,2,327,sounds\french\audio/french_981.wav,"[[  0.         -38.08669269]
 [  0.1        -73.93088907]
 [  0.2        -88.32473941]
 [  0.3         60.7364341 ]
 [  0.4        -16.1524086 ]
 [  0.5        -93.43340089]
 [  0.6        -45.31120126]
 [  0.7        -79.13047949]
 [  0.8         72.11880398]
 [  0.9        -24.42160512]
 [  1.         -37.42455043]
 [  1.1          1.64695246]
 [  1.14141667  92.37141996]]","[[0.         1.67776231]
 [0.1        1.4500739 ]
 [0.2        1.60115886]
 [0.3        1.60462547]
 [0.4        0.69020142]
 [0.5        0.54737899]
 [0.6        0.19731947]
 [0.7        1.35276023]
 [0.8        0.09347094]
 [0.9        0.88261019]
 [1.         0.20373219]
 [1.1        1.67203558]
 [1.14141667 1.72330196]]",1,0.02
8729820499,f,20,english,5,3,english,2024-02-01 10:36:57.252449,False,2,328,sounds\french\audio/french_343.wav,"[[  0.          55.30820306]
 [  0.1        -11.48156173]
 [  0.2        -61.33934281]
 [  0.3        -78.79796184]
 [  0.4         -3.55277636]
 [  0.5         40.8675343 ]
 [  0.6         88.78635161]
 [  0.7        -70.07472114]
 [  0.8        -79.01069817]
 [  0.9        -38.36075722]
 [  1.         -74.7385536 ]
 [  1.1         67.32009961]
 [  1.14141667  18.80940086]]","[[0.         1.58034267]
 [0.1        1.0596038 ]
 [0.2        1.28163155]
 [0.3        0.20032202]
 [0.4        1.05316587]
 [0.5        0.79348198]
 [0.6        0.11297715]
 [0.7        1.23835329]
 [0.8        1.37036254]
 [0.9        1.08523433]
 [1.         0.49176562]
 [1.1        1.89620137]
 [1.14141667 0.66544547]]",1,0.273
8729820499,f,20,english,5,3,english,2024-02-01 10:36:57.252449,False,2,329,sounds\french\audio/french_65.wav,"[[  0.          90.25303481]
 [  0.1        -68.20435052]
 [  0.2        -29.40329428]
 [  0.3         46.42632137]
 [  0.4        -28.79951441]
 [  0.5        -14.64344063]
 [  0.6         55.39931543]
 [  0.7        -54.55605034]
 [  0.8         84.8250898 ]
 [  0.9         60.3117994 ]
 [  1.         -27.81288119]
 [  1.1         65.1988238 ]
 [  1.14141667  -4.75581652]]","[[0.         0.53945939]
 [0.1        0.42688683]
 [0.2        0.27290811]
 [0.3        1.55081286]
 [0.4        1.45770659]
 [0.5        1.99435488]
 [0.6        1.36766936]
 [0.7        1.57729108]
 [0.8        1.17309042]
 [0.9        0.17286677]
 [1.         1.4236834 ]
 [1.1        1.20315137]
 [1.14141667 1.51714563]]",1,0.349
8729820499,f,20,english,5,3,english,2024-02-01 10:36:57.252449,False,2,330,sounds\french\audio/french_712.wav,"[[  0.         -95.66069785]
 [  0.1         -6.05322415]
 [  0.2        -14.42781433]
 [  0.3         32.58463251]
 [  0.4        -88.6066963 ]
 [  0.5        -30.98319164]
 [  0.6         76.39467543]
 [  0.7        -64.68968395]
 [  0.8        -71.89558722]
 [  0.9         67.69667977]
 [  1.          18.20955726]
 [  1.1        -31.46092163]
 [  1.14141667  29.12914815]]","[[0.         1.85127754]
 [0.1        1.47951206]
 [0.2        1.70422178]
 [0.3        1.42320081]
 [0.4        1.1647441 ]
 [0.5        1.7308951 ]
 [0.6        0.03424579]
 [0.7        0.15973474]
 [0.8        1.61824192]
 [0.9        0.80414017]
 [1.         1.37598527]
 [1.1        0.55072858]
 [1.14141667 1.89981007]]",1,0.198
8729820499,f,20,english,5,3,english,2024-02-01 10:36:57.252449,False,2,331,sounds\french\audio/french_70.wav,"[[  0.          68.41479291]
 [  0.1        -31.57074258]
 [  0.2         54.18509107]
 [  0.3        -27.61159617]
 [  0.4          9.88541267]
 [  0.5        -66.17038178]
 [  0.6         16.79110143]
 [  0.7        -71.29172846]
 [  0.8        -78.6433042 ]
 [  0.9         65.673143  ]
 [  1.         -39.65305515]
 [  1.1         60.42476441]
 [  1.14141667  30.88064967]]","[[0.         0.92661768]
 [0.1        1.34654012]
 [0.2        1.48916953]
 [0.3        1.1176716 ]
 [0.4        0.7045852 ]
 [0.5        1.36995745]
 [0.6        1.75041761]
 [0.7        1.65540967]
 [0.8        0.08362863]
 [0.9        1.74250385]
 [1.         1.28772167]
 [1.1        1.44177421]
 [1.14141667 0.77305231]]",1,1.309
8729820499,f,20,english,5,3,english,2024-02-01 10:36:57.252449,False,2,332,sounds\french\audio/french_427.wav,"[[  0.         -48.41701503]
 [  0.1        -28.57986094]
 [  0.2          0.90581005]
 [  0.3         19.09912814]
 [  0.4         82.05766861]
 [  0.5         24.08835826]
 [  0.6        -34.07004387]
 [  0.7          8.41664997]
 [  0.8        -13.86702556]
 [  0.9        -78.75947492]
 [  1.         -67.25519612]
 [  1.1         33.54583234]
 [  1.14141667  98.61757136]]","[[0.         1.56219766]
 [0.1        0.39739554]
 [0.2        1.12963232]
 [0.3        0.41932749]
 [0.4        1.84938579]
 [0.5        0.65577454]
 [0.6        0.57976152]
 [0.7        0.37472164]
 [0.8        1.58587157]
 [0.9        1.60768303]
 [1.         1.23344585]
 [1.1        0.58083121]
 [1.14141667 0.87170503]]",1,1.376
8729820499,f,20,english,5,3,english,2024-02-01 10:36:57.252449,False,2,333,sounds\french\audio/french_964.wav,"[[  0.          33.09242733]
 [  0.1         35.00965651]
 [  0.2        -84.27771788]
 [  0.3        -43.99991395]
 [  0.4         85.17461764]
 [  0.5         34.90610351]
 [  0.6         44.52556005]
 [  0.7        -39.35993347]
 [  0.8        -59.26827617]
 [  0.9         -0.13276326]
 [  1.         -52.7984183 ]
 [  1.1        -26.03331608]
 [  1.14141667 -25.25531547]]","[[0.         0.20768895]
 [0.1        1.10634372]
 [0.2        1.24458485]
 [0.3        0.46794756]
 [0.4        1.27301034]
 [0.5        1.24864597]
 [0.6        1.11074861]
 [0.7        0.2163569 ]
 [0.8        1.15029488]
 [0.9        1.41986014]
 [1.         1.68989998]
 [1.1        0.52518862]
 [1.14141667 0.94660827]]",1,2.259
8729820499,f,20,english,5,3,english,2024-02-01 10:36:57.252449,False,2,334,sounds\french\audio/french_384.wav,"[[  0.         -26.33962447]
 [  0.1         90.14414926]
 [  0.2         36.49157083]
 [  0.3          0.20485884]
 [  0.4          2.73533424]
 [  0.5        -61.29276224]
 [  0.6        -95.66702586]
 [  0.7        -35.26576559]
 [  0.8        -94.7492639 ]
 [  0.9         89.80577362]
 [  1.         -92.63573748]
 [  1.1         74.70238882]
 [  1.14141667  79.78054673]]","[[0.         0.73205954]
 [0.1        1.21722748]
 [0.2        0.48830962]
 [0.3        0.00253956]
 [0.4        1.70776767]
 [0.5        0.02952435]
 [0.6        1.54669239]
 [0.7        0.99240925]
 [0.8        1.04883532]
 [0.9        0.00446768]
 [1.         0.13464005]
 [1.1        0.53686539]
 [1.14141667 0.78008915]]",1,1.282
8729820499,f,20,english,5,3,english,2024-02-01 10:36:57.252449,False,2,335,sounds\french\audio/french_920.wav,"[[  0.         -19.30176094]
 [  0.1         42.24966406]
 [  0.2          4.59844531]
 [  0.3        -50.26112208]
 [  0.4         47.39747576]
 [  0.5         27.93582477]
 [  0.6        -38.24165331]
 [  0.7         79.50072261]
 [  0.8        -91.19546582]
 [  0.9        -20.42037276]
 [  1.          91.97225273]
 [  1.1        -48.93345242]
 [  1.14141667  95.20886409]]","[[0.         0.60193283]
 [0.1        0.7358632 ]
 [0.2        0.13299168]
 [0.3        0.59112751]
 [0.4        1.45544303]
 [0.5        0.40873773]
 [0.6        0.52359377]
 [0.7        0.61254304]
 [0.8        1.38763095]
 [0.9        0.18569195]
 [1.         0.6972115 ]
 [1.1        0.62343363]
 [1.14141667 1.83344131]]",1,0.546
8729820499,f,20,english,5,3,english,2024-02-01 10:36:57.252449,False,2,336,sounds\french\audio/french_269.wav,"[[  0.         -54.46681575]
 [  0.1         40.48652867]
 [  0.2         23.52786486]
 [  0.3         -2.9574454 ]
 [  0.4        -10.10362515]
 [  0.5        -29.51615189]
 [  0.6         -9.00744172]
 [  0.7         20.65779738]
 [  0.8         -2.21401948]
 [  0.9        -19.8598657 ]
 [  1.         -89.62311782]
 [  1.1         -1.41224571]
 [  1.14141667  75.71209492]]","[[0.         0.14617917]
 [0.1        1.23122751]
 [0.2        1.6621536 ]
 [0.3        1.2319681 ]
 [0.4        0.6831451 ]
 [0.5        0.23334627]
 [0.6        0.55635706]
 [0.7        0.94920478]
 [0.8        0.83951845]
 [0.9        0.61186305]
 [1.         0.18517136]
 [1.1        1.59243868]
 [1.14141667 0.66484659]]",0,2.133
8729820499,f,20,english,5,3,english,2024-02-01 10:36:57.252449,False,2,337,sounds\french\audio/french_496.wav,"[[  0.          84.59361564]
 [  0.1         -5.05294376]
 [  0.2        -52.76925695]
 [  0.3         95.09060688]
 [  0.4         86.20023919]
 [  0.5        -52.82326173]
 [  0.6         10.63524361]
 [  0.7        -21.15639044]
 [  0.8         30.98152688]
 [  0.9         65.47260644]
 [  1.         -26.92121505]
 [  1.1         75.50063725]
 [  1.14141667  65.89618527]]","[[0.         1.50422402]
 [0.1        1.63237531]
 [0.2        0.92311673]
 [0.3        0.72610966]
 [0.4        0.88263608]
 [0.5        1.78907897]
 [0.6        0.7019144 ]
 [0.7        1.65387907]
 [0.8        1.28867146]
 [0.9        0.50792946]
 [1.         0.69200465]
 [1.1        1.50293457]
 [1.14141667 1.08742184]]",1,2.223
8729820499,f,20,english,5,3,english,2024-02-01 10:36:57.252449,False,2,338,sounds\french\audio/french_5.wav,"[[  0.          67.84600602]
 [  0.1         36.11985477]
 [  0.2         27.42056963]
 [  0.3        -51.17670217]
 [  0.4        -40.37414298]
 [  0.5        -24.2536038 ]
 [  0.6        -18.35468105]
 [  0.7         -4.97614975]
 [  0.8         48.20606938]
 [  0.9         15.99502717]
 [  1.         -62.82085154]
 [  1.1         -6.95701983]
 [  1.14141667 -66.75848558]]","[[0.         1.17631247]
 [0.1        0.77880018]
 [0.2        1.26171942]
 [0.3        1.79238294]
 [0.4        0.78218598]
 [0.5        0.94203558]
 [0.6        1.40818336]
 [0.7        1.58219359]
 [0.8        0.2158889 ]
 [0.9        1.46917473]
 [1.         1.96668642]
 [1.1        0.54762735]
 [1.14141667 0.46814151]]",1,1.221
8729820499,f,20,english,5,3,english,2024-02-01 10:36:57.252449,False,2,339,sounds\french\audio/french_919.wav,"[[  0.          -1.20086157]
 [  0.1         23.70683085]
 [  0.2         57.81380223]
 [  0.3        -35.3373876 ]
 [  0.4        -47.40127712]
 [  0.5         30.8485682 ]
 [  0.6        -65.35395561]
 [  0.7         85.95532588]
 [  0.8         92.08322147]
 [  0.9        -41.94331802]
 [  1.          52.33310805]
 [  1.1        -64.04027042]
 [  1.14141667 -13.37988962]]","[[0.         1.82372542]
 [0.1        1.2747469 ]
 [0.2        1.5717064 ]
 [0.3        0.75801577]
 [0.4        0.41520743]
 [0.5        0.28163439]
 [0.6        0.64408251]
 [0.7        0.95994637]
 [0.8        0.70005391]
 [0.9        0.9468388 ]
 [1.         0.21391183]
 [1.1        1.54895117]
 [1.14141667 0.55798758]]",1,1.581
8729820499,f,20,english,5,3,english,2024-02-01 10:36:57.252449,False,2,340,sounds\french\audio/french_344.wav,"[[  0.          96.07480186]
 [  0.1        -21.67597909]
 [  0.2          1.76564063]
 [  0.3         52.19208065]
 [  0.4        -48.97734346]
 [  0.5          8.52034332]
 [  0.6         76.79242076]
 [  0.7        -46.49970146]
 [  0.8         41.91318913]
 [  0.9        -58.70585391]
 [  1.          -5.86032919]
 [  1.1          3.04602069]
 [  1.14141667   9.91868565]]","[[0.         0.58479992]
 [0.1        0.94801026]
 [0.2        0.48766352]
 [0.3        0.58210606]
 [0.4        1.63747349]
 [0.5        0.76958472]
 [0.6        1.51679811]
 [0.7        0.4990454 ]
 [0.8        1.79245635]
 [0.9        1.42432783]
 [1.         0.02463932]
 [1.1        1.38926004]
 [1.14141667 0.39424777]]",1,0.896
8729820499,f,20,english,5,3,english,2024-02-01 10:36:57.252449,False,2,341,sounds\french\audio/french_570.wav,"[[  0.         -45.3917955 ]
 [  0.1        -10.85306862]
 [  0.2         -2.66303486]
 [  0.3        -32.59962556]
 [  0.4         -5.49643311]
 [  0.5         28.02198877]
 [  0.6        -36.20109348]
 [  0.7        -12.58953364]
 [  0.8         24.84923046]
 [  0.9        -28.45536131]
 [  1.         -38.13214267]
 [  1.1         36.48055026]
 [  1.14141667   7.78558151]]","[[0.         1.19819767]
 [0.1        0.49543291]
 [0.2        1.66800071]
 [0.3        0.10362546]
 [0.4        0.8503783 ]
 [0.5        1.53524079]
 [0.6        1.11611775]
 [0.7        1.41982797]
 [0.8        1.83422328]
 [0.9        0.62751144]
 [1.         0.56230222]
 [1.1        0.57641953]
 [1.14141667 1.40822903]]",1,2.487
8729820499,f,20,english,5,3,english,2024-02-01 10:36:57.252449,False,2,342,sounds\french\audio/french_621.wav,"[[  0.         -83.30768606]
 [  0.1         62.12996189]
 [  0.2         -3.96879709]
 [  0.3        -28.68467377]
 [  0.4         64.37913974]
 [  0.5        -24.77979547]
 [  0.6        -57.28233071]
 [  0.7         26.41618361]
 [  0.8        -28.5927545 ]
 [  0.9         50.0436783 ]
 [  1.         -83.09259596]
 [  1.1          6.81134339]
 [  1.14141667 -67.94941219]]","[[0.         1.07149665]
 [0.1        0.08142527]
 [0.2        0.69078224]
 [0.3        1.63834532]
 [0.4        0.65746959]
 [0.5        1.44089833]
 [0.6        1.05836731]
 [0.7        1.09302896]
 [0.8        0.67374417]
 [0.9        0.87992825]
 [1.         1.11179321]
 [1.1        0.15174121]
 [1.14141667 0.96307082]]",1,7.158
8729820499,f,20,english,5,3,english,2024-02-01 10:36:57.252449,False,2,343,sounds\french\audio/french_246.wav,"[[  0.         -30.47504576]
 [  0.1        -83.06405686]
 [  0.2         62.50778564]
 [  0.3          8.87266429]
 [  0.4         44.6949174 ]
 [  0.5         38.79182234]
 [  0.6        -98.97339248]
 [  0.7        -24.61405849]
 [  0.8          0.11664969]
 [  0.9         41.40110598]
 [  1.         -40.48516798]
 [  1.1         70.26355015]
 [  1.14141667  92.29981678]]","[[0.         0.47785651]
 [0.1        1.85614621]
 [0.2        0.28079339]
 [0.3        1.15467711]
 [0.4        1.29610326]
 [0.5        0.14147162]
 [0.6        0.92649122]
 [0.7        0.74752986]
 [0.8        1.75089992]
 [0.9        0.0989963 ]
 [1.         0.24181159]
 [1.1        1.60406525]
 [1.14141667 0.31046435]]",0,1.509
8729820499,f,20,english,5,3,english,2024-02-01 10:36:57.252449,False,2,344,sounds\french\audio/french_530.wav,"[[  0.         -19.54532034]
 [  0.1         14.05064237]
 [  0.2         -4.28719519]
 [  0.3         19.85899102]
 [  0.4        -38.64583351]
 [  0.5        -79.11829367]
 [  0.6         60.711198  ]
 [  0.7         -5.6168249 ]
 [  0.8         80.65968589]
 [  0.9        -41.24747481]
 [  1.          27.78155806]
 [  1.1        -10.91699521]
 [  1.14141667  73.68517157]]","[[0.         0.34679573]
 [0.1        1.94208709]
 [0.2        0.85640382]
 [0.3        0.90119464]
 [0.4        1.56090172]
 [0.5        1.85535128]
 [0.6        1.68425563]
 [0.7        0.78685771]
 [0.8        1.17779403]
 [0.9        0.23085455]
 [1.         1.18446225]
 [1.1        1.46392077]
 [1.14141667 0.22350715]]",0,1.484
8729820499,f,20,english,5,3,english,2024-02-01 10:36:57.252449,False,2,345,sounds\french\audio/french_991.wav,"[[  0.          36.75935394]
 [  0.1         62.37590306]
 [  0.2        -79.10366799]
 [  0.3         15.61361167]
 [  0.4         40.29353687]
 [  0.5          2.12234517]
 [  0.6         12.50359996]
 [  0.7        -82.50426771]
 [  0.8         24.690563  ]
 [  0.9        -26.86058419]
 [  1.         -14.63831272]
 [  1.1         68.03313278]
 [  1.14141667 -76.23493294]]","[[0.         0.61757489]
 [0.1        0.91218426]
 [0.2        1.22140569]
 [0.3        1.31629718]
 [0.4        0.79411693]
 [0.5        0.73057303]
 [0.6        0.23343818]
 [0.7        0.74035026]
 [0.8        1.16659072]
 [0.9        0.34867732]
 [1.         1.71373813]
 [1.1        1.49834332]
 [1.14141667 0.08304986]]",1,0.177
8729820499,f,20,english,5,3,english,2024-02-01 10:36:57.252449,False,2,346,sounds\french\audio/french_128.wav,"[[  0.          35.7679876 ]
 [  0.1         52.90317345]
 [  0.2        -89.9536453 ]
 [  0.3         64.92635162]
 [  0.4         -7.89759856]
 [  0.5        -21.26918839]
 [  0.6        -93.18825811]
 [  0.7         -6.82941045]
 [  0.8        -24.44634709]
 [  0.9          8.91339556]
 [  1.         -93.33477606]
 [  1.1         30.80864746]
 [  1.14141667  91.54187856]]","[[0.         0.90271781]
 [0.1        1.06280114]
 [0.2        1.09994753]
 [0.3        1.21358528]
 [0.4        1.4727885 ]
 [0.5        0.21953324]
 [0.6        0.69112171]
 [0.7        1.7129229 ]
 [0.8        1.44917263]
 [0.9        1.22059532]
 [1.         1.98933018]
 [1.1        1.08286961]
 [1.14141667 1.3463941 ]]",1,1.956
8729820499,f,20,english,5,3,english,2024-02-01 10:36:57.252449,False,2,347,sounds\french\audio/french_836.wav,"[[  0.         -98.99819352]
 [  0.1        -75.19453636]
 [  0.2        -64.62080883]
 [  0.3         60.55534082]
 [  0.4        -90.56866614]
 [  0.5         42.02544068]
 [  0.6         95.75892424]
 [  0.7         11.40295424]
 [  0.8         -4.00612114]
 [  0.9         -4.86106881]
 [  1.         -58.99614613]
 [  1.1        -54.09355535]
 [  1.14141667  71.69194122]]","[[0.         0.75283852]
 [0.1        1.12271703]
 [0.2        1.03950179]
 [0.3        1.75484814]
 [0.4        1.22078165]
 [0.5        1.13870982]
 [0.6        0.70777339]
 [0.7        0.47085937]
 [0.8        0.55212985]
 [0.9        0.16027773]
 [1.         0.43365065]
 [1.1        0.99941172]
 [1.14141667 1.8664191 ]]",1,2.768
8729820499,f,20,english,5,3,english,2024-02-01 10:36:57.252449,False,2,348,sounds\french\audio/french_755.wav,"[[  0.          36.14181442]
 [  0.1         65.65436486]
 [  0.2         86.67843471]
 [  0.3         -8.86145981]
 [  0.4        -12.30117524]
 [  0.5         98.78001308]
 [  0.6         12.52874714]
 [  0.7         99.60164516]
 [  0.8         39.46126753]
 [  0.9         32.3918664 ]
 [  1.          83.79615474]
 [  1.1         92.88365026]
 [  1.14141667 -11.43148999]]","[[0.         1.11091934]
 [0.1        1.69229508]
 [0.2        0.1388144 ]
 [0.3        0.57833764]
 [0.4        0.31165038]
 [0.5        0.94348681]
 [0.6        0.6726085 ]
 [0.7        1.03806417]
 [0.8        1.20959204]
 [0.9        0.23020996]
 [1.         1.16092257]
 [1.1        1.06314815]
 [1.14141667 1.36781362]]",1,0.541
8729820499,f,20,english,5,3,english,2024-02-01 10:36:57.252449,False,2,349,sounds\french\audio/french_215.wav,"[[  0.          25.06649138]
 [  0.1        -75.62802154]
 [  0.2        -55.29126892]
 [  0.3        -31.13502895]
 [  0.4         99.96854364]
 [  0.5        -39.05274208]
 [  0.6        -48.65324171]
 [  0.7        -29.47734718]
 [  0.8         33.80663658]
 [  0.9        -21.30312991]
 [  1.          38.90898009]
 [  1.1         56.3377574 ]
 [  1.14141667  88.63688248]]","[[0.         0.73263287]
 [0.1        0.44309032]
 [0.2        0.69551141]
 [0.3        0.38506305]
 [0.4        0.52359658]
 [0.5        1.76965852]
 [0.6        1.14560288]
 [0.7        0.88778636]
 [0.8        1.18058041]
 [0.9        1.84333153]
 [1.         0.25005538]
 [1.1        1.84007576]
 [1.14141667 1.00047255]]",0,0.518
8729820499,f,20,english,5,3,english,2024-02-01 10:36:57.252449,False,2,350,sounds\french\audio/french_288.wav,"[[  0.         -19.66271306]
 [  0.1        -49.95319108]
 [  0.2         55.70739253]
 [  0.3        -47.82629408]
 [  0.4        -30.64427182]
 [  0.5        -54.20245769]
 [  0.6         94.86326533]
 [  0.7        -11.35318876]
 [  0.8        -94.65333259]
 [  0.9         66.72626026]
 [  1.         -72.10656939]
 [  1.1        -87.02340103]
 [  1.14141667 -20.80379815]]","[[0.         0.77463997]
 [0.1        0.15164104]
 [0.2        1.45402293]
 [0.3        1.49503854]
 [0.4        0.10701477]
 [0.5        1.1175781 ]
 [0.6        0.62210046]
 [0.7        1.34496978]
 [0.8        1.0681913 ]
 [0.9        0.36189635]
 [1.         1.98571959]
 [1.1        1.61383771]
 [1.14141667 0.2520498 ]]",1,0.196
8729820499,f,20,english,5,3,english,2024-02-01 10:36:57.252449,False,2,351,sounds\french\audio/french_607.wav,"[[  0.         -12.44319925]
 [  0.1        -94.85502328]
 [  0.2        -56.9043045 ]
 [  0.3        -18.59020178]
 [  0.4          9.27721525]
 [  0.5        -86.5437561 ]
 [  0.6         -6.68115528]
 [  0.7         82.47774992]
 [  0.8        -64.79498014]
 [  0.9         54.51357441]
 [  1.          -5.80014692]
 [  1.1        -22.72142846]
 [  1.14141667 -12.07204915]]","[[0.         1.98503206]
 [0.1        1.00846088]
 [0.2        0.69384134]
 [0.3        1.76201014]
 [0.4        1.29911711]
 [0.5        1.18024894]
 [0.6        0.3019838 ]
 [0.7        1.87001672]
 [0.8        1.60167076]
 [0.9        0.75456566]
 [1.         1.39935428]
 [1.1        0.80764916]
 [1.14141667 0.54525676]]",1,0.05
8729820499,f,20,english,5,3,english,2024-02-01 10:36:57.252449,False,2,352,sounds\french\audio/french_957.wav,"[[  0.          12.88644625]
 [  0.1         18.70253323]
 [  0.2         63.85450626]
 [  0.3        -60.64060755]
 [  0.4        -90.62123275]
 [  0.5         24.73093513]
 [  0.6        -79.40998292]
 [  0.7         99.89533842]
 [  0.8        -82.08813401]
 [  0.9        -46.39069699]
 [  1.         -76.81702111]
 [  1.1         65.90507306]
 [  1.14141667  15.50319114]]","[[0.         0.94965628]
 [0.1        0.59858398]
 [0.2        0.52603788]
 [0.3        1.4306776 ]
 [0.4        1.89873251]
 [0.5        1.80457899]
 [0.6        0.32316389]
 [0.7        0.77051068]
 [0.8        0.69662658]
 [0.9        0.26903226]
 [1.         0.24465655]
 [1.1        1.35119799]
 [1.14141667 1.75217446]]",0,1.726
8729820499,f,20,english,5,3,english,2024-02-01 10:36:57.252449,False,2,353,sounds\french\audio/french_851.wav,"[[  0.         -20.43320762]
 [  0.1         60.62921103]
 [  0.2        -69.4758562 ]
 [  0.3         99.68608968]
 [  0.4         52.60808316]
 [  0.5         82.00432386]
 [  0.6        -29.12456254]
 [  0.7        -55.27967683]
 [  0.8         15.90179394]
 [  0.9         34.1769329 ]
 [  1.          72.64427384]
 [  1.1         81.38750215]
 [  1.14141667  96.27916325]]","[[0.         0.66016838]
 [0.1        0.93704057]
 [0.2        0.40844528]
 [0.3        1.49162955]
 [0.4        0.63347234]
 [0.5        0.2494998 ]
 [0.6        0.63171599]
 [0.7        0.50436253]
 [0.8        1.51392072]
 [0.9        0.06484652]
 [1.         0.08572939]
 [1.1        0.38713991]
 [1.14141667 0.0705022 ]]",0,1.089
8729820499,f,20,english,5,3,english,2024-02-01 10:36:57.252449,False,2,354,sounds\french\audio/french_992.wav,"[[  0.         -12.15353666]
 [  0.1        -16.76346839]
 [  0.2        -30.99031514]
 [  0.3        -61.11543066]
 [  0.4        -30.89876813]
 [  0.5         28.25498692]
 [  0.6        -72.49617554]
 [  0.7         48.73771299]
 [  0.8        -15.27377936]
 [  0.9        -61.51587323]
 [  1.          81.61890305]
 [  1.1        -34.31279769]
 [  1.14141667 -13.01382433]]","[[0.         1.63036785]
 [0.1        1.21725169]
 [0.2        1.01032608]
 [0.3        0.71979977]
 [0.4        0.85601455]
 [0.5        1.6899119 ]
 [0.6        1.25116451]
 [0.7        0.54341231]
 [0.8        0.19253517]
 [0.9        0.47864211]
 [1.         1.73173346]
 [1.1        1.37721075]
 [1.14141667 1.88742644]]",0,0.838
8729820499,f,20,english,5,3,english,2024-02-01 10:36:57.252449,False,2,355,sounds\french\audio/french_913.wav,"[[  0.         -47.25134073]
 [  0.1        -82.39617775]
 [  0.2        -49.77107224]
 [  0.3        -65.18926328]
 [  0.4        -21.76681249]
 [  0.5         25.27312638]
 [  0.6         55.78406259]
 [  0.7        -27.8783869 ]
 [  0.8        -52.69419859]
 [  0.9         99.44571929]
 [  1.          87.33615919]
 [  1.1         46.22614126]
 [  1.14141667 -71.95970705]]","[[0.         0.04335797]
 [0.1        1.67103064]
 [0.2        0.81708714]
 [0.3        1.28520765]
 [0.4        1.7369454 ]
 [0.5        1.03142804]
 [0.6        0.74912627]
 [0.7        1.88947917]
 [0.8        0.39822081]
 [0.9        0.52497493]
 [1.         1.60117884]
 [1.1        1.53649436]
 [1.14141667 0.49650592]]",0,0.737
8729820499,f,20,english,5,3,english,2024-02-01 10:36:57.252449,False,2,356,sounds\french\audio/french_915.wav,"[[  0.          24.97229927]
 [  0.1          9.55755976]
 [  0.2        -36.73982377]
 [  0.3         16.36164394]
 [  0.4         18.89549827]
 [  0.5         29.58178959]
 [  0.6         67.00984201]
 [  0.7         69.33436498]
 [  0.8        -68.5567505 ]
 [  0.9        -82.82111497]
 [  1.         -19.3056594 ]
 [  1.1         46.67656137]
 [  1.14141667 -49.01815879]]","[[0.         0.29650111]
 [0.1        1.7574547 ]
 [0.2        1.09391109]
 [0.3        0.1335892 ]
 [0.4        1.43122832]
 [0.5        1.80794112]
 [0.6        1.50463968]
 [0.7        1.3294998 ]
 [0.8        1.58149329]
 [0.9        1.17041831]
 [1.         0.93306192]
 [1.1        0.84227441]
 [1.14141667 1.06379674]]",1,0.11
8729820499,f,20,english,5,3,english,2024-02-01 10:36:57.252449,False,2,357,sounds\french\audio/french_164.wav,"[[  0.         -73.61219947]
 [  0.1         73.83741842]
 [  0.2        -86.96600918]
 [  0.3        -44.35897319]
 [  0.4         -5.93602562]
 [  0.5         31.57605376]
 [  0.6        -28.19328213]
 [  0.7        -59.59617703]
 [  0.8        -96.4618976 ]
 [  0.9        -81.92942934]
 [  1.         -44.43943419]
 [  1.1        -71.04804832]
 [  1.14141667 -80.61769167]]","[[0.         0.64751098]
 [0.1        0.99835886]
 [0.2        1.84552202]
 [0.3        0.42506167]
 [0.4        1.56944318]
 [0.5        0.50981351]
 [0.6        0.22106919]
 [0.7        0.06179354]
 [0.8        0.63396718]
 [0.9        0.06967389]
 [1.         1.02865239]
 [1.1        0.75894675]
 [1.14141667 1.53790101]]",0,1.279
8729820499,f,20,english,5,3,english,2024-02-01 10:36:57.252449,False,2,358,sounds\french\audio/french_681.wav,"[[  0.         -97.30934459]
 [  0.1        -35.19724747]
 [  0.2        -21.51950238]
 [  0.3        -52.55201926]
 [  0.4         62.39918701]
 [  0.5         37.22710343]
 [  0.6         37.61564457]
 [  0.7        -58.93821482]
 [  0.8         91.17894054]
 [  0.9        -46.6625886 ]
 [  1.         -13.36336259]
 [  1.1         -2.63692555]
 [  1.14141667 -49.79155462]]","[[0.         0.68826213]
 [0.1        0.18573935]
 [0.2        0.87968151]
 [0.3        1.42391909]
 [0.4        1.43099487]
 [0.5        1.13641153]
 [0.6        0.01922596]
 [0.7        1.86928285]
 [0.8        0.97464305]
 [0.9        1.3387681 ]
 [1.         0.7264955 ]
 [1.1        1.20739743]
 [1.14141667 0.86539132]]",1,0.408
8729820499,f,20,english,5,3,english,2024-02-01 10:36:57.252449,False,2,359,sounds\french\audio/french_207.wav,"[[  0.          69.64355334]
 [  0.1        -22.42972011]
 [  0.2         74.23583097]
 [  0.3         41.84488675]
 [  0.4          0.98677762]
 [  0.5        -65.85412268]
 [  0.6         57.546837  ]
 [  0.7        -68.81478763]
 [  0.8        -61.37754855]
 [  0.9          4.44951701]
 [  1.          81.11529143]
 [  1.1         49.41893342]
 [  1.14141667 -53.2770861 ]]","[[0.         0.56807355]
 [0.1        0.60404319]
 [0.2        0.30958546]
 [0.3        0.98774302]
 [0.4        1.51182152]
 [0.5        0.5602918 ]
 [0.6        1.70611495]
 [0.7        1.81928265]
 [0.8        0.68562072]
 [0.9        0.27933548]
 [1.         1.4017856 ]
 [1.1        0.74660041]
 [1.14141667 0.97210809]]",1,0.457
8729820499,f,20,english,5,3,english,2024-02-01 10:36:57.252449,False,2,360,sounds\french\audio/french_403.wav,"[[ 0.00000000e+00 -4.59176890e+01]
 [ 1.00000000e-01 -3.35384282e+01]
 [ 2.00000000e-01 -9.90043312e+01]
 [ 3.00000000e-01 -9.51875869e+01]
 [ 4.00000000e-01 -1.31361376e+00]
 [ 5.00000000e-01 -1.70630736e+01]
 [ 6.00000000e-01  5.27592549e+00]
 [ 7.00000000e-01 -5.67711373e+01]
 [ 8.00000000e-01 -9.89437023e+01]
 [ 9.00000000e-01  2.00525885e+01]
 [ 1.00000000e+00  8.25481655e+01]
 [ 1.10000000e+00 -7.65475600e-02]
 [ 1.14141667e+00  5.77427460e+01]]","[[0.         0.58011626]
 [0.1        1.99690542]
 [0.2        1.57936583]
 [0.3        0.63045979]
 [0.4        0.92092092]
 [0.5        1.43478   ]
 [0.6        0.86263227]
 [0.7        0.84275935]
 [0.8        0.57690133]
 [0.9        0.40646744]
 [1.         1.72098979]
 [1.1        0.26974162]
 [1.14141667 1.53625509]]",1,0.046
8729820499,f,20,english,5,3,english,2024-02-01 10:36:57.252449,False,2,361,sounds\french\audio/french_48.wav,"[[  0.          31.83556995]
 [  0.1         16.95000218]
 [  0.2        -22.15992406]
 [  0.3         68.06463316]
 [  0.4        -34.30390919]
 [  0.5        -90.33439148]
 [  0.6          8.13738726]
 [  0.7        -59.30021177]
 [  0.8        -33.68412198]
 [  0.9        -51.99918374]
 [  1.         -46.08867443]
 [  1.1         17.238227  ]
 [  1.14141667  43.67753982]]","[[0.         0.04637149]
 [0.1        0.30680375]
 [0.2        0.29895669]
 [0.3        0.33382903]
 [0.4        1.04076391]
 [0.5        1.43771341]
 [0.6        1.66730846]
 [0.7        0.0809311 ]
 [0.8        0.42468959]
 [0.9        1.60564516]
 [1.         1.33122089]
 [1.1        0.39324532]
 [1.14141667 1.35169292]]",1,0.157
8729820499,f,20,english,5,3,english,2024-02-01 10:36:57.252449,False,2,362,sounds\french\audio/french_672.wav,"[[  0.         -13.52735411]
 [  0.1        -59.96134508]
 [  0.2         -7.33992186]
 [  0.3         21.63942854]
 [  0.4          5.10103928]
 [  0.5        -48.7358571 ]
 [  0.6         81.11443851]
 [  0.7         33.12369615]
 [  0.8          3.43276833]
 [  0.9        -39.94820872]
 [  1.          74.47431305]
 [  1.1         21.91430586]
 [  1.14141667  -6.84202398]]","[[0.         0.54145116]
 [0.1        1.25870061]
 [0.2        0.81866039]
 [0.3        1.39452004]
 [0.4        1.0769607 ]
 [0.5        0.77470724]
 [0.6        0.81807513]
 [0.7        0.78329539]
 [0.8        0.23496053]
 [0.9        0.10186009]
 [1.         0.92703632]
 [1.1        1.77981995]
 [1.14141667 0.93084115]]",1,0.139
8729820499,f,20,english,5,3,english,2024-02-01 10:36:57.252449,False,2,363,sounds\french\audio/french_357.wav,"[[  0.          86.82276174]
 [  0.1         61.01952575]
 [  0.2        -60.75226359]
 [  0.3         85.98471719]
 [  0.4        -69.86147068]
 [  0.5          9.94695166]
 [  0.6         18.79769535]
 [  0.7         32.56379866]
 [  0.8        -63.36176939]
 [  0.9        -52.11840686]
 [  1.         -62.81838888]
 [  1.1        -46.10611579]
 [  1.14141667  30.76289331]]","[[0.         1.92268893]
 [0.1        0.3802524 ]
 [0.2        0.64366911]
 [0.3        0.42839795]
 [0.4        0.00748054]
 [0.5        1.08678504]
 [0.6        1.81857945]
 [0.7        0.88876944]
 [0.8        0.00755284]
 [0.9        1.32717317]
 [1.         1.11144187]
 [1.1        1.48923739]
 [1.14141667 0.80153076]]",1,0.203
8729820499,f,20,english,5,3,english,2024-02-01 10:36:57.252449,False,2,364,sounds\french\audio/french_931.wav,"[[  0.         -69.01025024]
 [  0.1         55.0215027 ]
 [  0.2        -87.91788028]
 [  0.3        -33.0393784 ]
 [  0.4        -72.68752112]
 [  0.5        -31.87844098]
 [  0.6        -82.83878474]
 [  0.7         33.5640508 ]
 [  0.8        -20.37118135]
 [  0.9         28.67350866]
 [  1.         -45.8203528 ]
 [  1.1          1.98964677]
 [  1.14141667  44.24014335]]","[[0.         1.27357492]
 [0.1        1.07794659]
 [0.2        0.81824311]
 [0.3        1.31896505]
 [0.4        0.67025176]
 [0.5        1.54286398]
 [0.6        0.23472784]
 [0.7        1.16459242]
 [0.8        0.71129123]
 [0.9        0.02939642]
 [1.         0.30340473]
 [1.1        1.35857862]
 [1.14141667 1.98946576]]",1,0.448
8729820499,f,20,english,5,3,english,2024-02-01 10:36:57.252449,False,2,365,sounds\french\audio/french_674.wav,"[[  0.          13.4877762 ]
 [  0.1        -72.71286041]
 [  0.2         25.25285257]
 [  0.3        -18.45415803]
 [  0.4        -57.71656378]
 [  0.5        -73.49162441]
 [  0.6         -1.85504026]
 [  0.7        -87.1412738 ]
 [  0.8        -35.96348726]
 [  0.9        -95.42427093]
 [  1.         -14.54067517]
 [  1.1        -75.28735124]
 [  1.14141667 -11.45770391]]","[[0.         1.49229311]
 [0.1        0.38255489]
 [0.2        1.8939445 ]
 [0.3        1.35404975]
 [0.4        1.2879641 ]
 [0.5        1.75487552]
 [0.6        0.89488389]
 [0.7        0.66012514]
 [0.8        0.42860271]
 [0.9        0.95081491]
 [1.         1.48593936]
 [1.1        0.17038498]
 [1.14141667 1.04908179]]",1,0.254
8729820499,f,20,english,5,3,english,2024-02-01 10:36:57.252449,False,2,366,sounds\french\audio/french_760.wav,"[[  0.          69.16815791]
 [  0.1         11.20685955]
 [  0.2         34.8102116 ]
 [  0.3        -90.03161019]
 [  0.4        -41.47191296]
 [  0.5        -48.08548611]
 [  0.6         44.80080881]
 [  0.7         -1.23301299]
 [  0.8         75.74770773]
 [  0.9         11.43799096]
 [  1.          -0.37130951]
 [  1.1         42.7692381 ]
 [  1.14141667   4.70425821]]","[[0.         1.2502881 ]
 [0.1        0.70733733]
 [0.2        0.56169678]
 [0.3        1.06492774]
 [0.4        0.95028451]
 [0.5        0.18011187]
 [0.6        1.51077603]
 [0.7        1.38156045]
 [0.8        0.18237232]
 [0.9        1.60322405]
 [1.         0.50883409]
 [1.1        1.54168279]
 [1.14141667 0.12741584]]",1,0.55
8729820499,f,20,english,5,3,english,2024-02-01 10:36:57.252449,False,2,367,sounds\french\audio/french_790.wav,"[[  0.         -57.89390183]
 [  0.1         79.17034047]
 [  0.2         61.93580685]
 [  0.3         73.83766419]
 [  0.4         12.23224582]
 [  0.5        -36.20570809]
 [  0.6        -35.80418352]
 [  0.7         69.07593122]
 [  0.8         53.97673234]
 [  0.9          5.33736996]
 [  1.         -61.7851313 ]
 [  1.1        -57.04830132]
 [  1.14141667 -40.58679678]]","[[0.         1.82865837]
 [0.1        0.89920795]
 [0.2        1.70315706]
 [0.3        0.63562482]
 [0.4        1.66129943]
 [0.5        1.84264673]
 [0.6        1.991074  ]
 [0.7        1.03555826]
 [0.8        1.17116983]
 [0.9        0.91705366]
 [1.         0.69782623]
 [1.1        0.3273665 ]
 [1.14141667 1.69019386]]",1,0.088
8729820499,f,20,english,5,3,english,2024-02-01 10:36:57.252449,False,2,368,sounds\french\audio/french_356.wav,"[[ 0.00000000e+00 -2.27249235e-02]
 [ 1.00000000e-01 -2.05153136e+01]
 [ 2.00000000e-01  4.81128711e+01]
 [ 3.00000000e-01 -4.89595369e+01]
 [ 4.00000000e-01 -2.80357485e+00]
 [ 5.00000000e-01 -2.08584143e+01]
 [ 6.00000000e-01  9.81092965e+01]
 [ 7.00000000e-01 -1.93224048e+00]
 [ 8.00000000e-01 -8.85330859e+00]
 [ 9.00000000e-01  5.87615692e+01]
 [ 1.00000000e+00 -2.81707309e-01]
 [ 1.10000000e+00  9.24730298e+01]
 [ 1.14141667e+00  2.47445151e+01]]","[[0.         1.1057297 ]
 [0.1        0.88248255]
 [0.2        1.40641601]
 [0.3        0.79182661]
 [0.4        1.07217051]
 [0.5        1.39045594]
 [0.6        1.21295728]
 [0.7        1.26350106]
 [0.8        1.63697749]
 [0.9        1.43245474]
 [1.         0.81942288]
 [1.1        1.27779472]
 [1.14141667 0.59840856]]",1,0.067
8729820499,f,20,english,5,3,english,2024-02-01 10:36:57.252449,False,2,369,sounds\french\audio/french_112.wav,"[[  0.          -8.67519004]
 [  0.1         92.32686685]
 [  0.2        -90.11400299]
 [  0.3        -70.26652749]
 [  0.4         90.1952046 ]
 [  0.5        -18.57411381]
 [  0.6         87.02651396]
 [  0.7         74.95745067]
 [  0.8        -76.86566846]
 [  0.9        -17.37300567]
 [  1.          66.02082776]
 [  1.1         74.04162453]
 [  1.14141667  30.79891374]]","[[0.         0.05511238]
 [0.1        0.5303996 ]
 [0.2        1.12381403]
 [0.3        0.96995279]
 [0.4        1.443926  ]
 [0.5        0.7152831 ]
 [0.6        1.98165732]
 [0.7        1.64696502]
 [0.8        0.33650489]
 [0.9        0.64053091]
 [1.         1.69815657]
 [1.1        1.28891834]
 [1.14141667 1.86060704]]",1,0.013
8729820499,f,20,english,5,3,english,2024-02-01 10:36:57.252449,False,2,370,sounds\french\audio/french_17.wav,"[[  0.         -71.55402429]
 [  0.1         56.29343934]
 [  0.2         20.79261224]
 [  0.3        -90.11025679]
 [  0.4          6.70427818]
 [  0.5          6.61311772]
 [  0.6         12.56869907]
 [  0.7         12.55137567]
 [  0.8        -95.46150143]
 [  0.9         49.81790086]
 [  1.          16.6905365 ]
 [  1.1        -37.04715418]
 [  1.14141667  50.55014442]]","[[0.         0.5785157 ]
 [0.1        1.90036265]
 [0.2        1.44471121]
 [0.3        1.565227  ]
 [0.4        0.33054676]
 [0.5        1.03998894]
 [0.6        1.28428477]
 [0.7        1.1424972 ]
 [0.8        0.50274776]
 [0.9        1.25594358]
 [1.         1.98482543]
 [1.1        0.15414972]
 [1.14141667 1.03942219]]",1,0.497
8729820499,f,20,english,5,3,english,2024-02-01 10:36:57.252449,False,2,371,sounds\french\audio/french_146.wav,"[[  0.         -13.79989204]
 [  0.1         78.7474848 ]
 [  0.2         51.3576617 ]
 [  0.3          1.63794695]
 [  0.4         65.14890217]
 [  0.5         54.95542998]
 [  0.6        -13.14220545]
 [  0.7         -0.23230192]
 [  0.8          7.48613935]
 [  0.9        -77.97976406]
 [  1.         -14.2134442 ]
 [  1.1         32.83307545]
 [  1.14141667 -89.94149015]]","[[0.         0.12359706]
 [0.1        1.28593788]
 [0.2        0.64554293]
 [0.3        0.38626034]
 [0.4        0.573653  ]
 [0.5        0.89657603]
 [0.6        0.19382024]
 [0.7        0.90489749]
 [0.8        0.46725969]
 [0.9        1.48374262]
 [1.         1.46293934]
 [1.1        0.72309429]
 [1.14141667 0.67525546]]",1,0.443
8729820499,f,20,english,5,3,english,2024-02-01 10:36:57.252449,False,2,372,sounds\french\audio/french_690.wav,"[[  0.         -15.77794192]
 [  0.1         20.73657668]
 [  0.2          5.47948765]
 [  0.3        -23.65899914]
 [  0.4        -47.44992258]
 [  0.5        -15.93516049]
 [  0.6        -89.18707981]
 [  0.7        -35.2776218 ]
 [  0.8          6.20395888]
 [  0.9         41.59707706]
 [  1.          82.2331579 ]
 [  1.1          5.21006   ]
 [  1.14141667 -56.47896781]]","[[0.         0.776264  ]
 [0.1        1.05348149]
 [0.2        1.31884557]
 [0.3        1.7112966 ]
 [0.4        1.21461339]
 [0.5        0.66481507]
 [0.6        1.81328245]
 [0.7        1.44254844]
 [0.8        0.19339101]
 [0.9        0.10495866]
 [1.         0.77487954]
 [1.1        0.35725584]
 [1.14141667 0.31922507]]",0,1.039
8729820499,f,20,english,5,3,english,2024-02-01 10:36:57.252449,False,2,373,sounds\french\audio/french_635.wav,"[[  0.         -32.006425  ]
 [  0.1         98.74707192]
 [  0.2         19.43104605]
 [  0.3        -83.9130263 ]
 [  0.4        -14.55275882]
 [  0.5        -34.15529229]
 [  0.6         22.38890545]
 [  0.7        -11.42027576]
 [  0.8         88.98766127]
 [  0.9        -94.51548481]
 [  1.         -45.63563989]
 [  1.1         27.73920543]
 [  1.14141667 -59.05501484]]","[[0.         0.3460517 ]
 [0.1        1.36854871]
 [0.2        0.57268428]
 [0.3        1.65457572]
 [0.4        1.20009912]
 [0.5        0.09946247]
