subj,sex,age,language,english,french,native_lang,date,practice,block,trial,stim,pitch,stretch,response,rt
1,m,25,english,5,2,english,2024-02-09 13:54:52.617377,False,2,303,sounds\french\audio/french_384.wav,"[[  0.         -26.33962447]
 [  0.1         90.14414926]
 [  0.2         36.49157083]
 [  0.3          0.20485884]
 [  0.4          2.73533424]
 [  0.5        -61.29276224]
 [  0.6        -95.66702586]
 [  0.7        -35.26576559]
 [  0.8        -94.7492639 ]
 [  0.9         89.80577362]
 [  1.         -92.63573748]
 [  1.1         74.70238882]
 [  1.14141667  79.78054673]]","[[0.         0.73205954]
 [0.1        1.21722748]
 [0.2        0.48830962]
 [0.3        0.00253956]
 [0.4        1.70776767]
 [0.5        0.02952435]
 [0.6        1.54669239]
 [0.7        0.99240925]
 [0.8        1.04883532]
 [0.9        0.00446768]
 [1.         0.13464005]
 [1.1        0.53686539]
 [1.14141667 0.78008915]]",0,6.344
1,m,25,english,5,2,english,2024-02-09 13:54:52.617377,False,2,304,sounds\french\audio/french_486.wav,"[[  0.         -98.02817501]
 [  0.1         65.33144032]
 [  0.2         61.38493925]
 [  0.3         96.45925622]
 [  0.4          5.96921881]
 [  0.5         30.65383736]
 [  0.6        -44.15981347]
 [  0.7         31.03879088]
 [  0.8         51.75647773]
 [  0.9        -98.74797635]
 [  1.          42.51271204]
 [  1.1         63.21062453]
 [  1.14141667 -77.59539186]]","[[0.         1.75569009]
 [0.1        1.7050464 ]
 [0.2        0.61683653]
 [0.3        1.35566853]
 [0.4        0.89727466]
 [0.5        1.1713147 ]
 [0.6        1.99548871]
 [0.7        0.16009728]
 [0.8        0.88389912]
 [0.9        0.14376531]
 [1.         0.54659097]
 [1.1        1.09027863]
 [1.14141667 0.71851787]]",1,4.833
1,m,25,english,5,2,english,2024-02-09 13:54:52.617377,False,2,305,sounds\french\audio/french_623.wav,"[[  0.         -86.83812117]
 [  0.1         74.2111041 ]
 [  0.2         98.95723814]
 [  0.3        -37.0218658 ]
 [  0.4         16.90400558]
 [  0.5        -31.51763709]
 [  0.6         17.3105587 ]
 [  0.7        -36.14678416]
 [  0.8         33.60964764]
 [  0.9         -2.61935036]
 [  1.         -14.19773812]
 [  1.1        -43.63276209]
 [  1.14141667  29.17007342]]","[[0.         1.05106058]
 [0.1        0.716104  ]
 [0.2        1.44527186]
 [0.3        1.34226429]
 [0.4        1.52765307]
 [0.5        0.56929388]
 [0.6        0.38037964]
 [0.7        0.96955255]
 [0.8        1.01212194]
 [0.9        0.66675465]
 [1.         0.09693711]
 [1.1        1.95103561]
 [1.14141667 0.72368638]]",1,5.352
1,m,25,english,5,2,english,2024-02-09 13:54:52.617377,False,2,306,sounds\french\audio/french_635.wav,"[[  0.         -32.006425  ]
 [  0.1         98.74707192]
 [  0.2         19.43104605]
 [  0.3        -83.9130263 ]
 [  0.4        -14.55275882]
 [  0.5        -34.15529229]
 [  0.6         22.38890545]
 [  0.7        -11.42027576]
 [  0.8         88.98766127]
 [  0.9        -94.51548481]
 [  1.         -45.63563989]
 [  1.1         27.73920543]
 [  1.14141667 -59.05501484]]","[[0.         0.3460517 ]
 [0.1        1.36854871]
 [0.2        0.57268428]
 [0.3        1.65457572]
 [0.4        1.20009912]
 [0.5        0.09946247]
 [0.6        0.27678562]
 [0.7        0.68226029]
 [0.8        0.27295014]
 [0.9        1.75198478]
 [1.         0.9844266 ]
 [1.1        0.17766763]
 [1.14141667 0.29826397]]",1,2.845
1,m,25,english,5,2,english,2024-02-09 13:54:52.617377,False,2,307,sounds\french\audio/french_247.wav,"[[  0.          87.28160699]
 [  0.1         54.41631338]
 [  0.2         37.94276377]
 [  0.3        -67.22196437]
 [  0.4        -92.34211051]
 [  0.5         78.48957529]
 [  0.6        -77.60666308]
 [  0.7         89.04290108]
 [  0.8         95.38463118]
 [  0.9        -13.6171851 ]
 [  1.         -62.96426983]
 [  1.1         10.74028895]
 [  1.14141667  30.61570069]]","[[0.         1.75163706]
 [0.1        0.7463051 ]
 [0.2        0.54290341]
 [0.3        0.62982968]
 [0.4        1.66450544]
 [0.5        0.11949556]
 [0.6        0.59857061]
 [0.7        1.16504801]
 [0.8        1.98824202]
 [0.9        1.58326229]
 [1.         1.7730941 ]
 [1.1        1.01142382]
 [1.14141667 1.22213948]]",1,4.896
1,m,25,english,5,2,english,2024-02-09 13:54:52.617377,False,2,308,sounds\french\audio/french_511.wav,"[[  0.          68.45765267]
 [  0.1         -8.95520239]
 [  0.2         44.78754761]
 [  0.3         48.7554288 ]
 [  0.4         41.20564236]
 [  0.5         74.46096489]
 [  0.6        -92.19481722]
 [  0.7         70.54554277]
 [  0.8        -89.98216972]
 [  0.9         96.36310752]
 [  1.         -57.15318896]
 [  1.1        -15.3628732 ]
 [  1.14141667 -40.17140688]]","[[0.         0.68906271]
 [0.1        1.35083961]
 [0.2        0.86739012]
 [0.3        0.74272649]
 [0.4        1.27472163]
 [0.5        0.69400452]
 [0.6        0.63157953]
 [0.7        1.62489355]
 [0.8        1.1631817 ]
 [0.9        1.80808524]
 [1.         1.87485338]
 [1.1        0.63700297]
 [1.14141667 1.56626139]]",1,1.948
1,m,25,english,5,2,english,2024-02-09 13:54:52.617377,False,2,309,sounds\french\audio/french_422.wav,"[[  0.         -16.62309101]
 [  0.1         44.80756997]
 [  0.2        -93.80146089]
 [  0.3        -72.47193654]
 [  0.4         16.7471252 ]
 [  0.5        -92.72141855]
 [  0.6        -47.90487867]
 [  0.7        -75.7589654 ]
 [  0.8         34.26572493]
 [  0.9        -65.97357415]
 [  1.           3.77229199]
 [  1.1        -30.82396636]
 [  1.14141667 -37.60844358]]","[[0.         0.51321666]
 [0.1        0.44814263]
 [0.2        1.51316273]
 [0.3        1.60530729]
 [0.4        0.6388763 ]
 [0.5        1.31238957]
 [0.6        1.76360785]
 [0.7        1.38544073]
 [0.8        0.04882189]
 [0.9        0.84339819]
 [1.         0.68214832]
 [1.1        1.57442392]
 [1.14141667 0.61861744]]",0,1.718
1,m,25,english,5,2,english,2024-02-09 13:54:52.617377,False,2,310,sounds\french\audio/french_580.wav,"[[  0.          25.72367309]
 [  0.1        -90.22264513]
 [  0.2        -41.00446139]
 [  0.3         -5.68850956]
 [  0.4         73.58502836]
 [  0.5        -21.93392185]
 [  0.6         22.10254243]
 [  0.7        -79.6738306 ]
 [  0.8        -14.71861733]
 [  0.9         -0.72546407]
 [  1.          14.32622757]
 [  1.1        -17.22514553]
 [  1.14141667  91.12485479]]","[[0.         0.83672034]
 [0.1        1.17700555]
 [0.2        0.86031616]
 [0.3        1.31884624]
 [0.4        0.50096962]
 [0.5        1.67954592]
 [0.6        1.67101568]
 [0.7        0.19873264]
 [0.8        1.68323733]
 [0.9        0.50457607]
 [1.         1.32157054]
 [1.1        0.77895262]
 [1.14141667 0.13067195]]",0,1.736
1,m,25,english,5,2,english,2024-02-09 13:54:52.617377,False,2,311,sounds\french\audio/french_304.wav,"[[  0.          91.0393851 ]
 [  0.1         51.89592646]
 [  0.2        -41.96139425]
 [  0.3         33.22351683]
 [  0.4        -81.82163914]
 [  0.5         75.27027895]
 [  0.6         50.24685935]
 [  0.7         18.86376769]
 [  0.8        -72.34873966]
 [  0.9         12.57942246]
 [  1.          34.665409  ]
 [  1.1         60.12452048]
 [  1.14141667 -15.90395096]]","[[0.         1.70122252]
 [0.1        0.67923322]
 [0.2        0.27919383]
 [0.3        1.89869366]
 [0.4        1.10426251]
 [0.5        0.40449769]
 [0.6        0.77963491]
 [0.7        0.60414931]
 [0.8        1.15326972]
 [0.9        0.36579896]
 [1.         0.61919761]
 [1.1        1.71767122]
 [1.14141667 0.80319073]]",1,1.845
1,m,25,english,5,2,english,2024-02-09 13:54:52.617377,False,2,312,sounds\french\audio/french_502.wav,"[[  0.         -11.4543729 ]
 [  0.1        -12.17896381]
 [  0.2        -48.87403032]
 [  0.3         -0.23226325]
 [  0.4         39.39265286]
 [  0.5         69.41626591]
 [  0.6        -11.96295955]
 [  0.7        -21.04513411]
 [  0.8         55.87157954]
 [  0.9         22.29735048]
 [  1.          92.74541313]
 [  1.1         59.88842098]
 [  1.14141667  69.69061872]]","[[0.         1.77169865]
 [0.1        0.29167806]
 [0.2        1.41232328]
 [0.3        0.78511054]
 [0.4        1.65701815]
 [0.5        1.20660202]
 [0.6        1.43326672]
 [0.7        1.53062685]
 [0.8        1.71764437]
 [0.9        1.18231357]
 [1.         1.70094513]
 [1.1        1.38297596]
 [1.14141667 0.39008766]]",0,0.49
1,m,25,english,5,2,english,2024-02-09 13:54:52.617377,False,2,313,sounds\french\audio/french_881.wav,"[[  0.          16.58830358]
 [  0.1         86.70271672]
 [  0.2          7.39568317]
 [  0.3        -63.95685009]
 [  0.4        -73.69764964]
 [  0.5        -37.16981433]
 [  0.6        -82.20650712]
 [  0.7         45.06880241]
 [  0.8         48.0758912 ]
 [  0.9        -90.22787257]
 [  1.          28.44813995]
 [  1.1         53.90222373]
 [  1.14141667  88.34687342]]","[[0.         0.85011258]
 [0.1        0.58038793]
 [0.2        1.77728033]
 [0.3        1.63086827]
 [0.4        1.60787708]
 [0.5        1.90725685]
 [0.6        1.21839285]
 [0.7        0.94960476]
 [0.8        1.84873141]
 [0.9        1.92079983]
 [1.         0.80582495]
 [1.1        1.4150163 ]
 [1.14141667 1.80467918]]",0,0.252
1,m,25,english,5,2,english,2024-02-09 13:54:52.617377,False,2,314,sounds\french\audio/french_521.wav,"[[  0.           2.02303426]
 [  0.1         27.55245524]
 [  0.2        -46.69757278]
 [  0.3        -94.98250694]
 [  0.4          2.66667068]
 [  0.5         83.78734232]
 [  0.6        -80.30851908]
 [  0.7        -90.0764255 ]
 [  0.8         21.33552602]
 [  0.9        -61.83607635]
 [  1.         -92.49710651]
 [  1.1        -32.3485136 ]
 [  1.14141667   8.4434574 ]]","[[0.         0.20556186]
 [0.1        0.44198605]
 [0.2        0.76515597]
 [0.3        1.70762069]
 [0.4        1.19903269]
 [0.5        0.59862631]
 [0.6        1.39546585]
 [0.7        1.18274747]
 [0.8        1.17625485]
 [0.9        0.38414308]
 [1.         1.18179738]
 [1.1        1.02663222]
 [1.14141667 0.71900975]]",1,0.619
1,m,25,english,5,2,english,2024-02-09 13:54:52.617377,False,2,315,sounds\french\audio/french_942.wav,"[[  0.         -62.67015298]
 [  0.1        -44.60103911]
 [  0.2         -4.08679527]
 [  0.3        -37.64081552]
 [  0.4        -42.81291345]
 [  0.5         99.15001601]
 [  0.6        -66.55575205]
 [  0.7        -63.38570027]
 [  0.8         93.42935186]
 [  0.9         69.12157289]
 [  1.          36.79091616]
 [  1.1        -89.21302821]
 [  1.14141667  37.71273628]]","[[0.         1.27040565]
 [0.1        1.40268587]
 [0.2        0.97903054]
 [0.3        0.5190488 ]
 [0.4        1.64087281]
 [0.5        1.90775185]
 [0.6        0.54156283]
 [0.7        1.6246396 ]
 [0.8        0.13921116]
 [0.9        1.82665335]
 [1.         0.51976887]
 [1.1        1.54438126]
 [1.14141667 1.42847   ]]",0,0.91
1,m,25,english,5,2,english,2024-02-09 13:54:52.617377,False,2,316,sounds\french\audio/french_562.wav,"[[  0.         -62.26311894]
 [  0.1        -29.91083856]
 [  0.2         15.05518922]
 [  0.3         42.74752122]
 [  0.4        -82.94715379]
 [  0.5         37.27231389]
 [  0.6         -2.79734893]
 [  0.7         -1.09065832]
 [  0.8         -9.82092664]
 [  0.9         23.81657268]
 [  1.         -52.21798744]
 [  1.1         37.97882758]
 [  1.14141667 -91.20085826]]","[[0.         1.28550191]
 [0.1        1.44908257]
 [0.2        1.49435197]
 [0.3        1.40225876]
 [0.4        0.68570722]
 [0.5        0.51806123]
 [0.6        0.97258992]
 [0.7        1.55837167]
 [0.8        1.89681416]
 [0.9        0.75154366]
 [1.         1.13672713]
 [1.1        0.30687483]
 [1.14141667 1.92977141]]",1,0.548
1,m,25,english,5,2,english,2024-02-09 13:54:52.617377,False,2,317,sounds\french\audio/french_939.wav,"[[  0.          68.2384799 ]
 [  0.1         98.20525801]
 [  0.2        -42.19761406]
 [  0.3         43.17355225]
 [  0.4        -14.96635905]
 [  0.5        -43.49672798]
 [  0.6         41.76813315]
 [  0.7         88.36147994]
 [  0.8         59.42037908]
 [  0.9         86.723379  ]
 [  1.         -78.72989076]
 [  1.1        -26.66254955]
 [  1.14141667 -48.10200682]]","[[0.         0.18942364]
 [0.1        1.24422322]
 [0.2        0.84726027]
 [0.3        0.63121745]
 [0.4        1.39450382]
 [0.5        1.83680784]
 [0.6        1.84374711]
 [0.7        0.72560086]
 [0.8        1.11819201]
 [0.9        1.00539219]
 [1.         1.52240486]
 [1.1        1.78566065]
 [1.14141667 1.0817634 ]]",1,0.668
1,m,25,english,5,2,english,2024-02-09 13:54:52.617377,False,2,318,sounds\french\audio/french_263.wav,"[[  0.         -35.6234396 ]
 [  0.1         80.58342714]
 [  0.2         26.9247896 ]
 [  0.3        -64.28881536]
 [  0.4         71.8745562 ]
 [  0.5        -24.24365063]
 [  0.6         67.89663748]
 [  0.7          5.62822954]
 [  0.8          8.21920478]
 [  0.9         -4.84660323]
 [  1.          92.2995778 ]
 [  1.1          5.29993653]
 [  1.14141667 -11.24406753]]","[[0.         0.41942748]
 [0.1        0.86466593]
 [0.2        0.90258842]
 [0.3        0.30940464]
 [0.4        0.49132319]
 [0.5        0.18866759]
 [0.6        1.09978722]
 [0.7        0.81261586]
 [0.8        0.42151921]
 [0.9        0.86223793]
 [1.         0.83361364]
 [1.1        0.95375213]
 [1.14141667 0.43274193]]",0,1.555
1,m,25,english,5,2,english,2024-02-09 13:54:52.617377,False,2,319,sounds\french\audio/french_910.wav,"[[  0.          48.88340935]
 [  0.1         -0.9314083 ]
 [  0.2         10.65492222]
 [  0.3         53.80361557]
 [  0.4        -55.5093235 ]
 [  0.5         25.35597856]
 [  0.6         30.25602932]
 [  0.7        -14.25396351]
 [  0.8        -99.95037684]
 [  0.9        -31.56392694]
 [  1.           4.49716215]
 [  1.1         30.67655198]
 [  1.14141667 -27.21370615]]","[[0.         1.81109224]
 [0.1        0.91261377]
 [0.2        0.6391442 ]
 [0.3        1.7256034 ]
 [0.4        1.10196828]
 [0.5        1.92121955]
 [0.6        1.45045528]
 [0.7        1.70872625]
 [0.8        0.23726838]
 [0.9        0.64113417]
 [1.         1.46769435]
 [1.1        0.95921   ]
 [1.14141667 0.8849765 ]]",0,1.034
1,m,25,english,5,2,english,2024-02-09 13:54:52.617377,False,2,320,sounds\french\audio/french_310.wav,"[[  0.          17.56598639]
 [  0.1         76.92128936]
 [  0.2        -58.20509392]
 [  0.3         83.85101429]
 [  0.4        -30.03153984]
 [  0.5         65.65347409]
 [  0.6        -31.19085718]
 [  0.7         13.20607402]
 [  0.8         67.80059658]
 [  0.9        -60.97564656]
 [  1.         -20.93273173]
 [  1.1          9.82776434]
 [  1.14141667 -83.18360608]]","[[0.         1.12956977]
 [0.1        1.00648851]
 [0.2        0.97784502]
 [0.3        1.32502708]
 [0.4        1.31992976]
 [0.5        1.69425093]
 [0.6        0.83891868]
 [0.7        0.55122583]
 [0.8        1.89433213]
 [0.9        0.44162944]
 [1.         1.30621231]
 [1.1        1.40358407]
 [1.14141667 0.62868818]]",1,0.244
1,m,25,english,5,2,english,2024-02-09 13:54:52.617377,False,2,321,sounds\french\audio/french_998.wav,"[[  0.         -52.53289143]
 [  0.1        -41.80176958]
 [  0.2          3.72170139]
 [  0.3        -31.81405271]
 [  0.4         20.38465129]
 [  0.5        -74.58331207]
 [  0.6         55.77574349]
 [  0.7        -22.51086967]
 [  0.8         26.26002623]
 [  0.9         12.58416669]
 [  1.         -12.30572558]
 [  1.1         64.28435908]
 [  1.14141667 -52.09495809]]","[[0.         0.42248422]
 [0.1        1.03050206]
 [0.2        0.31111333]
 [0.3        0.62895415]
 [0.4        0.7164794 ]
 [0.5        1.22207314]
 [0.6        0.23208486]
 [0.7        0.21961927]
 [0.8        1.78719283]
 [0.9        1.26015455]
 [1.         0.15338113]
 [1.1        0.40231788]
 [1.14141667 0.89140011]]",0,0.292
1,m,25,english,5,2,english,2024-02-09 13:54:52.617377,False,2,322,sounds\french\audio/french_901.wav,"[[  0.         -64.95285264]
 [  0.1         70.24180668]
 [  0.2        -78.29925323]
 [  0.3         28.76135856]
 [  0.4        -97.59411089]
 [  0.5        -71.4781857 ]
 [  0.6         47.50102885]
 [  0.7         74.58875525]
 [  0.8        -64.64530626]
 [  0.9         98.86600436]
 [  1.         -34.06198226]
 [  1.1         52.9945055 ]
 [  1.14141667 -27.17874653]]","[[0.         0.77791492]
 [0.1        0.36162729]
 [0.2        0.94854368]
 [0.3        1.39971828]
 [0.4        1.57268317]
 [0.5        0.27616247]
 [0.6        0.74902357]
 [0.7        1.7211117 ]
 [0.8        0.86441686]
 [0.9        0.61741345]
 [1.         1.07993442]
 [1.1        0.68198901]
 [1.14141667 0.95785524]]",0,1.004
1,m,25,english,5,2,english,2024-02-09 13:54:52.617377,False,2,323,sounds\french\audio/french_692.wav,"[[  0.          -3.63018758]
 [  0.1        -68.16293379]
 [  0.2         94.54361928]
 [  0.3         25.0958546 ]
 [  0.4        -99.12905949]
 [  0.5        -47.00596257]
 [  0.6        -38.46033818]
 [  0.7        -52.37005629]
 [  0.8         29.27180561]
 [  0.9        -18.83326647]
 [  1.         -60.91466225]
 [  1.1        -20.82797719]
 [  1.14141667 -55.17315813]]","[[0.         1.78860692]
 [0.1        0.86300874]
 [0.2        1.08735966]
 [0.3        0.96562877]
 [0.4        1.65441916]
 [0.5        1.19889603]
 [0.6        0.04010608]
 [0.7        0.99288232]
 [0.8        1.70634134]
 [0.9        0.96715022]
 [1.         1.75736357]
 [1.1        1.93453934]
 [1.14141667 0.43289188]]",1,0.285
1,m,25,english,5,2,english,2024-02-09 13:54:52.617377,False,2,324,sounds\french\audio/french_988.wav,"[[  0.         -77.06578257]
 [  0.1        -67.09994089]
 [  0.2         10.23356221]
 [  0.3        -29.54836215]
 [  0.4        -85.43077929]
 [  0.5        -43.35374971]
 [  0.6         45.41702585]
 [  0.7        -83.76864658]
 [  0.8         22.30391665]
 [  0.9         78.78007779]
 [  1.          -1.97565414]
 [  1.1        -21.98614024]
 [  1.14141667  90.34733905]]","[[0.         0.33849132]
 [0.1        1.48998326]
 [0.2        1.02808848]
 [0.3        0.10044397]
 [0.4        0.09858869]
 [0.5        0.51129588]
 [0.6        1.6443375 ]
 [0.7        1.46500021]
 [0.8        0.54120209]
 [0.9        0.72550363]
 [1.         0.57251884]
 [1.1        0.6350511 ]
 [1.14141667 1.60707404]]",0,0.584
1,m,25,english,5,2,english,2024-02-09 13:54:52.617377,False,2,325,sounds\french\audio/french_309.wav,"[[  0.          88.86072846]
 [  0.1        -92.30784176]
 [  0.2         82.47612196]
 [  0.3         57.0914166 ]
 [  0.4         66.45676368]
 [  0.5         72.19100472]
 [  0.6         35.35255388]
 [  0.7        -77.76741336]
 [  0.8         54.34179283]
 [  0.9        -68.94607686]
 [  1.          31.97810202]
 [  1.1        -11.94966658]
 [  1.14141667  53.65953482]]","[[0.         0.49259138]
 [0.1        1.03565122]
 [0.2        1.68879094]
 [0.3        0.15996054]
 [0.4        0.58460838]
 [0.5        1.83489212]
 [0.6        0.91773079]
 [0.7        1.18228681]
 [0.8        1.82634316]
 [0.9        1.45479271]
 [1.         1.70391198]
 [1.1        1.08327525]
 [1.14141667 1.25779548]]",0,1.027
1,m,25,english,5,2,english,2024-02-09 13:54:52.617377,False,2,326,sounds\french\audio/french_62.wav,"[[  0.         -52.98351622]
 [  0.1         41.9452913 ]
 [  0.2         27.14863171]
 [  0.3        -54.48392831]
 [  0.4         48.96305117]
 [  0.5         52.49279438]
 [  0.6        -54.82930634]
 [  0.7        -29.269296  ]
 [  0.8         10.51289817]
 [  0.9        -94.03876018]
 [  1.         -41.20080999]
 [  1.1         -5.53206987]
 [  1.14141667 -61.5430158 ]]","[[0.         1.55870609]
 [0.1        1.35311352]
 [0.2        0.47335516]
 [0.3        1.76891084]
 [0.4        0.57269594]
 [0.5        0.86345792]
 [0.6        0.07603424]
 [0.7        0.51094837]
 [0.8        1.28007913]
 [0.9        1.40918704]
 [1.         1.76611187]
 [1.1        1.23670321]
 [1.14141667 0.13563973]]",1,0.15
1,m,25,english,5,2,english,2024-02-09 13:54:52.617377,False,2,327,sounds\french\audio/french_113.wav,"[[  0.          51.06943886]
 [  0.1         24.37567111]
 [  0.2        -30.40960405]
 [  0.3        -91.25272525]
 [  0.4         87.90673924]
 [  0.5          2.42955661]
 [  0.6         36.08285451]
 [  0.7        -99.48293301]
 [  0.8         59.12958731]
 [  0.9        -71.36695162]
 [  1.         -86.60100387]
 [  1.1        -70.30574561]
 [  1.14141667  72.13764249]]","[[0.         1.16712097]
 [0.1        0.22717449]
 [0.2        0.5815837 ]
 [0.3        0.50497114]
 [0.4        1.37233966]
 [0.5        1.42439941]
 [0.6        1.26104805]
 [0.7        1.48988751]
 [0.8        1.64050353]
 [0.9        1.39380246]
 [1.         1.34922295]
 [1.1        0.5132175 ]
 [1.14141667 0.46186768]]",1,0.669
1,m,25,english,5,2,english,2024-02-09 13:54:52.617377,False,2,328,sounds\french\audio/french_656.wav,"[[  0.          99.97670879]
 [  0.1         13.13237691]
 [  0.2        -29.82427587]
 [  0.3        -97.19078199]
 [  0.4         16.61433788]
 [  0.5        -11.63206152]
 [  0.6         44.22844334]
 [  0.7        -21.12174608]
 [  0.8         94.81438705]
 [  0.9        -76.66102524]
 [  1.          -7.93989674]
 [  1.1         30.36688089]
 [  1.14141667  -7.90018331]]","[[0.         0.59239102]
 [0.1        0.22261498]
 [0.2        0.70596369]
 [0.3        0.83357548]
 [0.4        1.93544912]
 [0.5        0.95748116]
 [0.6        0.57513986]
 [0.7        0.75814333]
 [0.8        1.21721037]
 [0.9        0.36719178]
 [1.         1.2783526 ]
 [1.1        0.57717313]
 [1.14141667 1.25999286]]",1,2.49
1,m,25,english,5,2,english,2024-02-09 13:54:52.617377,False,2,329,sounds\french\audio/french_937.wav,"[[  0.          72.99223977]
 [  0.1         41.57940993]
 [  0.2         67.06048677]
 [  0.3         -5.02147455]
 [  0.4          9.35505141]
 [  0.5        -95.44742745]
 [  0.6        -38.02184142]
 [  0.7         49.17491426]
 [  0.8         16.46716684]
 [  0.9        -84.30790102]
 [  1.         -10.41765428]
 [  1.1          5.6201408 ]
 [  1.14141667 -44.40394436]]","[[0.         1.02241682]
 [0.1        0.9465754 ]
 [0.2        0.64915766]
 [0.3        1.58052124]
 [0.4        0.61188269]
 [0.5        0.05363048]
 [0.6        1.12742296]
 [0.7        0.50171031]
 [0.8        0.61367002]
 [0.9        0.71351628]
 [1.         0.56964317]
 [1.1        0.47945544]
 [1.14141667 1.82118938]]",0,0.389
1,m,25,english,5,2,english,2024-02-09 13:54:52.617377,False,2,330,sounds\french\audio/french_97.wav,"[[  0.           1.04510533]
 [  0.1        -54.71607785]
 [  0.2        -15.62192799]
 [  0.3        -31.39521639]
 [  0.4        -39.86237208]
 [  0.5        -33.06705718]
 [  0.6         38.31296912]
 [  0.7        -38.22378525]
 [  0.8        -32.53841006]
 [  0.9         38.86771113]
 [  1.          36.94226883]
 [  1.1        -62.32952296]
 [  1.14141667  31.53164314]]","[[0.         0.92814717]
 [0.1        1.37673784]
 [0.2        0.84416681]
 [0.3        0.56331598]
 [0.4        0.13012768]
 [0.5        1.45624611]
 [0.6        0.07712615]
 [0.7        1.36163175]
 [0.8        0.57980786]
 [0.9        1.82011994]
 [1.         0.03072122]
 [1.1        0.83108294]
 [1.14141667 1.86271027]]",0,0.993
1,m,25,english,5,2,english,2024-02-09 13:54:52.617377,False,2,331,sounds\french\audio/french_718.wav,"[[  0.          33.83974481]
 [  0.1         75.60927008]
 [  0.2          5.42570617]
 [  0.3        -86.49968927]
 [  0.4        -82.66009843]
 [  0.5         -7.42138801]
 [  0.6         22.39546771]
 [  0.7        -75.7468097 ]
 [  0.8         56.54879527]
 [  0.9         22.08965796]
 [  1.           0.92889237]
 [  1.1        -96.09137466]
 [  1.14141667 -27.56610434]]","[[0.         1.83484525]
 [0.1        0.41567784]
 [0.2        1.12655023]
 [0.3        1.26248076]
 [0.4        1.75908703]
 [0.5        1.52482075]
 [0.6        1.87690382]
 [0.7        0.07228786]
 [0.8        1.60832124]
 [0.9        1.35064447]
 [1.         1.67650518]
 [1.1        1.75605442]
 [1.14141667 1.42532868]]",1,1.806
1,m,25,english,5,2,english,2024-02-09 13:54:52.617377,False,2,332,sounds\french\audio/french_935.wav,"[[  0.          26.69857266]
 [  0.1          9.94418011]
 [  0.2         44.98404386]
 [  0.3        -98.12644395]
 [  0.4         37.12087269]
 [  0.5        -81.40581923]
 [  0.6         64.6052522 ]
 [  0.7         94.38923904]
 [  0.8         56.19817136]
 [  0.9          7.16328663]
 [  1.          27.44347809]
 [  1.1        -88.88086105]
 [  1.14141667 -79.20081415]]","[[0.         1.12236926]
 [0.1        0.76599693]
 [0.2        0.3009369 ]
 [0.3        1.55949083]
 [0.4        0.53284928]
 [0.5        1.95951797]
 [0.6        0.96662214]
 [0.7        0.81174476]
 [0.8        0.68386577]
 [0.9        1.42510328]
 [1.         1.00433894]
 [1.1        0.8579456 ]
 [1.14141667 0.03750384]]",0,0.392
1,m,25,english,5,2,english,2024-02-09 13:54:52.617377,False,2,333,sounds\french\audio/french_318.wav,"[[  0.         -31.42676596]
 [  0.1        -45.69666133]
 [  0.2         42.60143121]
 [  0.3        -87.89208815]
 [  0.4        -61.68151552]
 [  0.5         80.55619607]
 [  0.6        -41.8589192 ]
 [  0.7        -13.86846959]
 [  0.8        -94.6811558 ]
 [  0.9        -29.32140474]
 [  1.          74.05579859]
 [  1.1        -43.44744043]
 [  1.14141667  44.84196134]]","[[0.         1.63103424]
 [0.1        1.93624975]
 [0.2        0.81258394]
 [0.3        0.40497325]
 [0.4        0.5117739 ]
 [0.5        0.85325217]
 [0.6        0.11882034]
 [0.7        0.48269689]
 [0.8        1.96435637]
 [0.9        0.25977776]
 [1.         1.52953043]
 [1.1        1.50332708]
 [1.14141667 0.84311706]]",1,1.03
1,m,25,english,5,2,english,2024-02-09 13:54:52.617377,False,2,334,sounds\french\audio/french_361.wav,"[[  0.          23.29794896]
 [  0.1        -48.63531672]
 [  0.2         -2.5255531 ]
 [  0.3          8.23722274]
 [  0.4         34.47158893]
 [  0.5         70.14095267]
 [  0.6         70.11175255]
 [  0.7        -68.72089611]
 [  0.8        -76.42640532]
 [  0.9        -24.66588818]
 [  1.         -16.02796708]
 [  1.1         -1.89725955]
 [  1.14141667 -29.04015326]]","[[0.         1.11856981]
 [0.1        1.10976385]
 [0.2        0.50841861]
 [0.3        1.92928184]
 [0.4        0.0595701 ]
 [0.5        1.017167  ]
 [0.6        1.17369511]
 [0.7        1.20889033]
 [0.8        0.48912562]
 [0.9        1.44370577]
 [1.         1.15037108]
 [1.1        0.53403618]
 [1.14141667 0.0482166 ]]",0,0.562
1,m,25,english,5,2,english,2024-02-09 13:54:52.617377,False,2,335,sounds\french\audio/french_275.wav,"[[  0.         -91.39287319]
 [  0.1         22.10547383]
 [  0.2        -21.22592408]
 [  0.3         72.24714003]
 [  0.4         61.38684723]
 [  0.5        -33.49357785]
 [  0.6        -22.32450075]
 [  0.7        -57.48612132]
 [  0.8        -68.59893206]
 [  0.9        -44.92566121]
 [  1.          65.4486236 ]
 [  1.1         30.92096177]
 [  1.14141667 -41.22661434]]","[[0.         1.90354156]
 [0.1        0.54315679]
 [0.2        0.64106827]
 [0.3        1.19782448]
 [0.4        0.97884644]
 [0.5        0.24795855]
 [0.6        0.94645389]
 [0.7        1.89730656]
 [0.8        1.68481666]
 [0.9        1.9522513 ]
 [1.         1.20961361]
 [1.1        0.71442014]
 [1.14141667 1.65151151]]",1,0.933
1,m,25,english,5,2,english,2024-02-09 13:54:52.617377,False,2,336,sounds\french\audio/french_196.wav,"[[  0.          19.92156454]
 [  0.1         50.3730524 ]
 [  0.2        -54.66048992]
 [  0.3        -16.36439953]
 [  0.4        -49.37215717]
 [  0.5         73.44732269]
 [  0.6        -10.57047355]
 [  0.7        -59.11422478]
 [  0.8        -87.00574954]
 [  0.9        -41.42714545]
 [  1.          -3.65633153]
 [  1.1        -26.0043808 ]
 [  1.14141667  10.36886233]]","[[0.         1.45115921]
 [0.1        1.233132  ]
 [0.2        0.22337845]
 [0.3        1.17450645]
 [0.4        0.22096997]
 [0.5        0.81463121]
 [0.6        0.94935983]
 [0.7        0.41223091]
 [0.8        0.73586656]
 [0.9        0.4661352 ]
 [1.         0.31390173]
 [1.1        1.50812992]
 [1.14141667 1.08431252]]",0,0.6
1,m,25,english,5,2,english,2024-02-09 13:54:52.617377,False,2,337,sounds\french\audio/french_113.wav,"[[  0.          51.06943886]
 [  0.1         24.37567111]
 [  0.2        -30.40960405]
 [  0.3        -91.25272525]
 [  0.4         87.90673924]
 [  0.5          2.42955661]
 [  0.6         36.08285451]
 [  0.7        -99.48293301]
 [  0.8         59.12958731]
 [  0.9        -71.36695162]
 [  1.         -86.60100387]
 [  1.1        -70.30574561]
 [  1.14141667  72.13764249]]","[[0.         1.16712097]
 [0.1        0.22717449]
 [0.2        0.5815837 ]
 [0.3        0.50497114]
 [0.4        1.37233966]
 [0.5        1.42439941]
 [0.6        1.26104805]
 [0.7        1.48988751]
 [0.8        1.64050353]
 [0.9        1.39380246]
 [1.         1.34922295]
 [1.1        0.5132175 ]
 [1.14141667 0.46186768]]",0,0.417
1,m,25,english,5,2,english,2024-02-09 13:54:52.617377,False,2,338,sounds\french\audio/french_156.wav,"[[  0.           6.24973356]
 [  0.1        -59.28869938]
 [  0.2        -54.93017369]
 [  0.3         70.45865659]
 [  0.4         34.41093143]
 [  0.5        -22.64644682]
 [  0.6         37.82984887]
 [  0.7        -84.29242808]
 [  0.8         97.70285322]
 [  0.9        -99.58855667]
 [  1.         -82.42661109]
 [  1.1         26.88226167]
 [  1.14141667  65.60234374]]","[[0.         0.42853185]
 [0.1        0.11783084]
 [0.2        0.30000134]
 [0.3        1.53849502]
 [0.4        1.35848197]
 [0.5        1.2667626 ]
 [0.6        1.77001246]
 [0.7        0.71439786]
 [0.8        0.64267275]
 [0.9        0.57389872]
 [1.         0.02293924]
 [1.1        0.73273097]
 [1.14141667 1.17460204]]",1,1.84
1,m,25,english,5,2,english,2024-02-09 13:54:52.617377,False,2,339,sounds\french\audio/french_952.wav,"[[  0.         -16.04149759]
 [  0.1         46.67121849]
 [  0.2         -7.75723509]
 [  0.3         25.03407062]
 [  0.4         58.48775829]
 [  0.5         71.77333472]
 [  0.6         88.64449387]
 [  0.7        -10.04237369]
 [  0.8         53.30903822]
 [  0.9         77.56829483]
 [  1.          70.17417278]
 [  1.1        -41.2052464 ]
 [  1.14141667  70.81168009]]","[[0.         1.63363299]
 [0.1        0.65674372]
 [0.2        0.94426956]
 [0.3        0.96418077]
 [0.4        1.76592992]
 [0.5        1.79494342]
 [0.6        1.63409215]
 [0.7        1.58467162]
 [0.8        1.58753119]
 [0.9        0.34334886]
 [1.         0.58364948]
 [1.1        0.18580202]
 [1.14141667 1.37774726]]",0,0.573
1,m,25,english,5,2,english,2024-02-09 13:54:52.617377,False,2,340,sounds\french\audio/french_803.wav,"[[  0.         -12.95878337]
 [  0.1         61.50797195]
 [  0.2         96.13916552]
 [  0.3         63.40829671]
 [  0.4        -18.80055907]
 [  0.5        -13.37960084]
 [  0.6         17.49624977]
 [  0.7         26.6489851 ]
 [  0.8         46.37702818]
 [  0.9         47.62008812]
 [  1.          35.61177117]
 [  1.1        -76.22783665]
 [  1.14141667  34.8549378 ]]","[[0.         0.89212547]
 [0.1        0.09328832]
 [0.2        0.1771654 ]
 [0.3        0.79511002]
 [0.4        0.67535594]
 [0.5        0.14377803]
 [0.6        0.71363745]
 [0.7        0.90742369]
 [0.8        0.61606813]
 [0.9        0.82361862]
 [1.         1.14929537]
 [1.1        1.55419548]
 [1.14141667 1.0035068 ]]",1,0.778
1,m,25,english,5,2,english,2024-02-09 13:54:52.617377,False,2,341,sounds\french\audio/french_569.wav,"[[  0.          40.60139036]
 [  0.1        -15.15147128]
 [  0.2         -0.95888134]
 [  0.3         44.12601478]
 [  0.4        -57.82031804]
 [  0.5         64.27680708]
 [  0.6        -63.61731308]
 [  0.7         77.98248538]
 [  0.8        -85.02373468]
 [  0.9         23.7771992 ]
 [  1.          61.80066761]
 [  1.1        -41.94387   ]
 [  1.14141667  60.59433976]]","[[0.         1.33844242]
 [0.1        1.76501112]
 [0.2        0.94211994]
 [0.3        0.15427666]
 [0.4        1.07164182]
 [0.5        1.5909132 ]
 [0.6        1.21963001]
 [0.7        0.17925278]
 [0.8        1.54369257]
 [0.9        1.35763688]
 [1.         1.46111522]
 [1.1        0.95375882]
 [1.14141667 0.23927558]]",0,0.665
1,m,25,english,5,2,english,2024-02-09 13:54:52.617377,False,2,342,sounds\french\audio/french_701.wav,"[[  0.          13.86918761]
 [  0.1         25.98390225]
 [  0.2         62.79635394]
 [  0.3         67.80376008]
 [  0.4        -54.23175366]
 [  0.5        -42.04160911]
 [  0.6        -58.41766146]
 [  0.7         90.23612499]
 [  0.8         80.19297104]
 [  0.9        -45.72951024]
 [  1.          35.47554357]
 [  1.1         25.09086311]
 [  1.14141667 -71.61211297]]","[[0.         0.63182109]
 [0.1        1.85758869]
 [0.2        1.68485958]
 [0.3        0.50866318]
 [0.4        1.37500116]
 [0.5        0.8503416 ]
 [0.6        0.53241727]
 [0.7        1.86464457]
 [0.8        1.8007814 ]
 [0.9        1.24365205]
 [1.         1.16086821]
 [1.1        0.27592984]
 [1.14141667 0.34423902]]",0,1.832
1,m,25,english,5,2,english,2024-02-09 13:54:52.617377,False,2,343,sounds\french\audio/french_536.wav,"[[  0.         -52.4206548 ]
 [  0.1        -74.26891648]
 [  0.2         11.31126048]
 [  0.3        -21.61900245]
 [  0.4        -94.98146832]
 [  0.5         99.95155671]
 [  0.6        -88.3367002 ]
 [  0.7        -23.8710155 ]
 [  0.8         43.41576253]
 [  0.9         40.55887391]
 [  1.          34.47455049]
 [  1.1        -52.8153809 ]
 [  1.14141667  -3.00855762]]","[[0.         0.67962867]
 [0.1        0.63540929]
 [0.2        0.83661694]
 [0.3        1.85383119]
 [0.4        1.07036792]
 [0.5        1.52468216]
 [0.6        1.55319614]
 [0.7        1.12341702]
 [0.8        1.5546784 ]
 [0.9        0.54178369]
 [1.         1.26113571]
 [1.1        1.84040785]
 [1.14141667 1.97764464]]",1,0.769
1,m,25,english,5,2,english,2024-02-09 13:54:52.617377,False,2,344,sounds\french\audio/french_949.wav,"[[  0.         -19.05595024]
 [  0.1        -75.2439284 ]
 [  0.2         73.58371037]
 [  0.3         72.8422127 ]
 [  0.4         87.31483881]
 [  0.5         88.67402032]
 [  0.6         91.38706715]
 [  0.7         90.60838166]
 [  0.8        -56.24221492]
 [  0.9        -99.28918443]
 [  1.          35.48222753]
 [  1.1         31.92310883]
 [  1.14141667 -76.51594679]]","[[0.         0.68019134]
 [0.1        1.48812532]
 [0.2        1.47426358]
 [0.3        1.18227817]
 [0.4        0.74535438]
 [0.5        0.76739834]
 [0.6        0.06667957]
 [0.7        1.82416942]
 [0.8        0.37839273]
 [0.9        1.88338523]
 [1.         1.00153988]
 [1.1        0.82891918]
 [1.14141667 0.92801119]]",1,0.381
1,m,25,english,5,2,english,2024-02-09 13:54:52.617377,False,2,345,sounds\french\audio/french_650.wav,"[[  0.         -80.70534425]
 [  0.1         22.50888873]
 [  0.2         14.34170807]
 [  0.3         -4.50498856]
 [  0.4         96.77548348]
 [  0.5        -75.14759677]
 [  0.6        -76.37814702]
 [  0.7         56.09158756]
 [  0.8        -57.46485918]
 [  0.9        -73.66863235]
 [  1.          42.15899657]
 [  1.1         19.2074275 ]
 [  1.14141667  73.45250642]]","[[0.         0.51958598]
 [0.1        0.40272379]
 [0.2        0.41500449]
 [0.3        1.07783942]
 [0.4        0.41791255]
 [0.5        0.19649285]
 [0.6        1.35074079]
 [0.7        1.17748366]
 [0.8        0.31751956]
 [0.9        0.91321615]
 [1.         0.74407114]
 [1.1        1.30375454]
 [1.14141667 1.71176617]]",1,0.771
1,m,25,english,5,2,english,2024-02-09 13:54:52.617377,False,2,346,sounds\french\audio/french_785.wav,"[[ 0.00000000e+00  3.10161768e+01]
 [ 1.00000000e-01  8.89317705e-02]
 [ 2.00000000e-01  4.68782722e+01]
 [ 3.00000000e-01  2.02217261e+01]
 [ 4.00000000e-01 -7.53235401e+01]
 [ 5.00000000e-01 -4.39350846e+01]
 [ 6.00000000e-01 -2.54763074e+01]
 [ 7.00000000e-01  5.70842413e+01]
 [ 8.00000000e-01 -1.08459606e+01]
 [ 9.00000000e-01  3.40534095e+01]
 [ 1.00000000e+00 -4.89572729e+01]
 [ 1.10000000e+00  4.16078861e+01]
 [ 1.14141667e+00  8.92588617e+01]]","[[0.         1.90021395]
 [0.1        0.95233189]
 [0.2        1.49745041]
 [0.3        1.87832474]
 [0.4        0.82836314]
 [0.5        1.74071043]
 [0.6        0.83584892]
 [0.7        0.40885784]
 [0.8        0.0344692 ]
 [0.9        0.38075821]
 [1.         0.97802108]
 [1.1        1.78850331]
 [1.14141667 0.64465129]]",0,0.86
1,m,25,english,5,2,english,2024-02-09 13:54:52.617377,False,2,347,sounds\french\audio/french_950.wav,"[[  0.         -50.85402978]
 [  0.1         15.87357898]
 [  0.2         66.25100226]
 [  0.3         11.62218315]
 [  0.4         61.49883516]
 [  0.5         59.30890592]
 [  0.6        -94.55512167]
 [  0.7        -47.72487457]
 [  0.8        -24.06820859]
 [  0.9         37.00201055]
 [  1.          24.38983398]
 [  1.1         25.31833065]
 [  1.14141667  25.86165668]]","[[0.         1.28407017]
 [0.1        1.13515201]
 [0.2        1.57125495]
 [0.3        1.24153692]
 [0.4        1.62386347]
 [0.5        1.41668173]
 [0.6        0.60916392]
 [0.7        1.03982307]
 [0.8        1.97560568]
 [0.9        0.3630601 ]
 [1.         1.89790561]
 [1.1        0.70938122]
 [1.14141667 1.71148268]]",0,1.336
1,m,25,english,5,2,english,2024-02-09 13:54:52.617377,False,2,348,sounds\french\audio/french_354.wav,"[[  0.         -59.30427207]
 [  0.1         79.91145527]
 [  0.2         -1.5051974 ]
 [  0.3        -45.6248448 ]
 [  0.4         40.65998782]
 [  0.5        -87.75757377]
 [  0.6         92.52575954]
 [  0.7        -30.48325009]
 [  0.8         18.19454969]
 [  0.9         -2.58461677]
 [  1.         -70.76135363]
 [  1.1         70.06864497]
 [  1.14141667  36.19538716]]","[[0.         1.42108763]
 [0.1        0.12998909]
 [0.2        1.34324907]
 [0.3        1.56989782]
 [0.4        0.75541958]
 [0.5        0.95768708]
 [0.6        1.70871899]
 [0.7        1.54335891]
 [0.8        0.39580898]
 [0.9        1.36502039]
 [1.         1.03896879]
 [1.1        1.2657434 ]
 [1.14141667 1.59524238]]",1,0.358
1,m,25,english,5,2,english,2024-02-09 13:54:52.617377,False,2,349,sounds\french\audio/french_801.wav,"[[  0.          42.05546356]
 [  0.1        -92.3466124 ]
 [  0.2         40.25447593]
 [  0.3         86.98750178]
 [  0.4         72.9865192 ]
 [  0.5         44.19690026]
 [  0.6        -18.76468676]
 [  0.7        -37.75366406]
 [  0.8         12.99673571]
 [  0.9        -12.35408716]
 [  1.         -69.77608862]
 [  1.1         65.56794574]
 [  1.14141667 -58.95035096]]","[[0.         0.94398168]
 [0.1        0.20033669]
 [0.2        0.1618081 ]
 [0.3        1.08194555]
 [0.4        1.53929443]
 [0.5        0.95422302]
 [0.6        1.56487139]
 [0.7        1.79656614]
 [0.8        1.22963791]
 [0.9        0.72904385]
 [1.         1.94753287]
 [1.1        0.67352843]
 [1.14141667 1.98504787]]",0,1.76
1,m,25,english,5,2,english,2024-02-09 13:54:52.617377,False,2,350,sounds\french\audio/french_797.wav,"[[  0.          21.19375213]
 [  0.1        -75.16406807]
 [  0.2         -4.85614597]
 [  0.3         91.23547164]
 [  0.4        -54.80294813]
 [  0.5         48.10269994]
 [  0.6         54.93610027]
 [  0.7         62.57379696]
 [  0.8         24.98836028]
 [  0.9         -3.72214582]
 [  1.         -62.87276207]
 [  1.1        -30.73571803]
 [  1.14141667   4.39947177]]","[[0.00000000e+00 1.68857830e+00]
 [1.00000000e-01 1.52001867e+00]
 [2.00000000e-01 1.53377587e-03]
 [3.00000000e-01 6.11668920e-01]
 [4.00000000e-01 1.57623559e+00]
 [5.00000000e-01 1.04622328e+00]
 [6.00000000e-01 4.19234590e-01]
 [7.00000000e-01 1.89958561e+00]
 [8.00000000e-01 2.32068950e-01]
 [9.00000000e-01 3.26654429e-01]
 [1.00000000e+00 1.16190078e+00]
 [1.10000000e+00 1.32699658e+00]
 [1.14141667e+00 1.24572836e+00]]",0,0.5
1,m,25,english,5,2,english,2024-02-09 13:54:52.617377,False,2,351,sounds\french\audio/french_330.wav,"[[  0.          79.95487352]
 [  0.1          7.2273164 ]
 [  0.2        -46.18281556]
 [  0.3         71.79513562]
 [  0.4        -55.81483833]
 [  0.5         -0.36311167]
 [  0.6        -26.48743473]
 [  0.7        -83.94185596]
 [  0.8        -33.65600914]
 [  0.9         64.51376195]
 [  1.         -29.49606256]
 [  1.1        -20.74888201]
 [  1.14141667  37.10154127]]","[[0.         1.29283894]
 [0.1        0.83120423]
 [0.2        1.08340912]
 [0.3        0.67737942]
 [0.4        0.73711237]
 [0.5        0.48894153]
 [0.6        0.26964317]
 [0.7        1.53010393]
 [0.8        0.84264515]
 [0.9        1.9810336 ]
 [1.         0.43026632]
 [1.1        0.7309591 ]
 [1.14141667 1.84112847]]",1,0.353
1,m,25,english,5,2,english,2024-02-09 13:54:52.617377,False,2,352,sounds\french\audio/french_310.wav,"[[  0.          17.56598639]
 [  0.1         76.92128936]
 [  0.2        -58.20509392]
 [  0.3         83.85101429]
 [  0.4        -30.03153984]
 [  0.5         65.65347409]
 [  0.6        -31.19085718]
 [  0.7         13.20607402]
 [  0.8         67.80059658]
 [  0.9        -60.97564656]
 [  1.         -20.93273173]
 [  1.1          9.82776434]
 [  1.14141667 -83.18360608]]","[[0.         1.12956977]
 [0.1        1.00648851]
 [0.2        0.97784502]
 [0.3        1.32502708]
 [0.4        1.31992976]
 [0.5        1.69425093]
 [0.6        0.83891868]
 [0.7        0.55122583]
 [0.8        1.89433213]
 [0.9        0.44162944]
 [1.         1.30621231]
 [1.1        1.40358407]
 [1.14141667 0.62868818]]",0,0.179
1,m,25,english,5,2,english,2024-02-09 13:54:52.617377,False,2,353,sounds\french\audio/french_870.wav,"[[  0.         -88.96740787]
 [  0.1        -50.96029621]
 [  0.2          2.1117913 ]
 [  0.3        -81.18211333]
 [  0.4        -58.4942148 ]
 [  0.5        -13.37177011]
 [  0.6        -37.03727431]
 [  0.7        -57.85889347]
 [  0.8         48.98723654]
 [  0.9        -94.37943157]
 [  1.          69.59846396]
 [  1.1        -59.83952506]
 [  1.14141667 -63.76620066]]","[[0.         1.80140046]
 [0.1        1.62081264]
 [0.2        0.89623291]
 [0.3        0.00838819]
 [0.4        0.46507357]
 [0.5        0.81411287]
 [0.6        0.59433311]
 [0.7        0.68578062]
 [0.8        0.1849314 ]
 [0.9        1.96861475]
 [1.         0.87798497]
 [1.1        1.18748939]
 [1.14141667 1.53716958]]",1,0.309
1,m,25,english,5,2,english,2024-02-09 13:54:52.617377,False,2,354,sounds\french\audio/french_292.wav,"[[  0.         -65.21663055]
 [  0.1         34.24982767]
 [  0.2        -92.63295305]
 [  0.3        -77.59900382]
 [  0.4         14.83333959]
 [  0.5         11.34419051]
 [  0.6          5.22580578]
 [  0.7          9.90915295]
 [  0.8         98.66536814]
 [  0.9        -61.20859902]
 [  1.         -91.20285571]
 [  1.1         77.92662302]
 [  1.14141667 -48.25371816]]","[[0.         1.02426511]
 [0.1        1.12889875]
 [0.2        1.50148233]
 [0.3        1.82420462]
 [0.4        1.7438412 ]
 [0.5        0.42400938]
 [0.6        0.47297633]
 [0.7        0.69162899]
 [0.8        0.37166542]
 [0.9        0.73651314]
 [1.         1.19119341]
 [1.1        0.13786686]
 [1.14141667 1.01945383]]",0,0.42
1,m,25,english,5,2,english,2024-02-09 13:54:52.617377,False,2,355,sounds\french\audio/french_661.wav,"[[  0.          30.83790401]
 [  0.1         81.04248617]
 [  0.2        -46.51005007]
 [  0.3         26.8916854 ]
 [  0.4        -54.15099684]
 [  0.5        -20.07151139]
 [  0.6        -67.43725044]
 [  0.7        -45.28880793]
 [  0.8         24.96344604]
 [  0.9        -21.69937315]
 [  1.         -64.52606708]
 [  1.1          4.37748404]
 [  1.14141667 -33.68343588]]","[[0.         1.59193642]
 [0.1        0.6507153 ]
 [0.2        1.89395187]
 [0.3        0.85636205]
 [0.4        1.87917795]
 [0.5        1.44711177]
 [0.6        0.9534675 ]
 [0.7        0.8140216 ]
 [0.8        1.80648656]
 [0.9        1.45486334]
 [1.         0.69077663]
 [1.1        0.59868939]
 [1.14141667 0.88637105]]",1,0.569
1,m,25,english,5,2,english,2024-02-09 13:54:52.617377,False,2,356,sounds\french\audio/french_136.wav,"[[  0.          -0.93982829]
 [  0.1        -11.50989173]
 [  0.2        -44.36955216]
 [  0.3         66.25490653]
 [  0.4         76.3056731 ]
 [  0.5        -53.64019494]
 [  0.6         72.7758556 ]
 [  0.7        -38.40056364]
 [  0.8        -83.94600904]
 [  0.9         60.40561717]
 [  1.          72.86364806]
 [  1.1        -58.86585407]
 [  1.14141667 -45.29061382]]","[[0.         1.18112725]
 [0.1        1.4876912 ]
 [0.2        1.55378385]
 [0.3        0.32679305]
 [0.4        0.30628123]
 [0.5        1.28210854]
 [0.6        0.14420429]
 [0.7        0.03042669]
 [0.8        1.12471325]
 [0.9        1.12043075]
 [1.         0.82934503]
 [1.1        1.5410961 ]
 [1.14141667 0.1982647 ]]",0,0.314
1,m,25,english,5,2,english,2024-02-09 13:54:52.617377,False,2,357,sounds\french\audio/french_624.wav,"[[  0.         -28.52871293]
 [  0.1        -15.13108141]
 [  0.2        -13.04094112]
 [  0.3        -84.4775762 ]
 [  0.4         73.47903794]
 [  0.5         73.99412675]
 [  0.6        -17.18727504]
 [  0.7         23.00277233]
 [  0.8        -62.7599991 ]
 [  0.9         84.35585855]
 [  1.         -54.54055343]
 [  1.1        -26.24402566]
 [  1.14141667  31.89715649]]","[[0.         1.16992623]
 [0.1        1.22361764]
 [0.2        0.99709028]
 [0.3        0.23255509]
 [0.4        0.62966649]
 [0.5        1.32731618]
 [0.6        0.23490629]
 [0.7        0.63487472]
 [0.8        0.6717251 ]
 [0.9        0.0253544 ]
 [1.         0.88305135]
 [1.1        1.31611795]
 [1.14141667 1.72432966]]",1,0.661
1,m,25,english,5,2,english,2024-02-09 13:54:52.617377,False,2,358,sounds\french\audio/french_356.wav,"[[ 0.00000000e+00 -2.27249235e-02]
 [ 1.00000000e-01 -2.05153136e+01]
 [ 2.00000000e-01  4.81128711e+01]
 [ 3.00000000e-01 -4.89595369e+01]
 [ 4.00000000e-01 -2.80357485e+00]
 [ 5.00000000e-01 -2.08584143e+01]
 [ 6.00000000e-01  9.81092965e+01]
 [ 7.00000000e-01 -1.93224048e+00]
 [ 8.00000000e-01 -8.85330859e+00]
 [ 9.00000000e-01  5.87615692e+01]
 [ 1.00000000e+00 -2.81707309e-01]
 [ 1.10000000e+00  9.24730298e+01]
 [ 1.14141667e+00  2.47445151e+01]]","[[0.         1.1057297 ]
 [0.1        0.88248255]
 [0.2        1.40641601]
 [0.3        0.79182661]
 [0.4        1.07217051]
 [0.5        1.39045594]
 [0.6        1.21295728]
 [0.7        1.26350106]
 [0.8        1.63697749]
 [0.9        1.43245474]
 [1.         0.81942288]
 [1.1        1.27779472]
 [1.14141667 0.59840856]]",0,0.2
1,m,25,english,5,2,english,2024-02-09 13:54:52.617377,False,2,359,sounds\french\audio/french_172.wav,"[[  0.          52.55822797]
 [  0.1         36.03304437]
 [  0.2         87.57540256]
 [  0.3         -1.02225297]
 [  0.4        -45.72834283]
 [  0.5        -78.07098029]
 [  0.6         66.92119406]
 [  0.7         54.13458116]
 [  0.8          9.25383275]
 [  0.9         84.2289997 ]
 [  1.         -92.0852474 ]
 [  1.1        -58.15058713]
 [  1.14141667 -93.51230148]]","[[0.         1.64690449]
 [0.1        1.13416013]
 [0.2        0.18828869]
 [0.3        1.03936139]
 [0.4        1.57744061]
 [0.5        0.88465221]
 [0.6        1.26318424]
 [0.7        0.93894817]
 [0.8        1.37261227]
 [0.9        0.51589031]
 [1.         0.04731792]
 [1.1        0.7131693 ]
 [1.14141667 0.70039891]]",1,0.517
1,m,25,english,5,2,english,2024-02-09 13:54:52.617377,False,2,360,sounds\french\audio/french_288.wav,"[[  0.         -19.66271306]
 [  0.1        -49.95319108]
 [  0.2         55.70739253]
 [  0.3        -47.82629408]
 [  0.4        -30.64427182]
 [  0.5        -54.20245769]
 [  0.6         94.86326533]
 [  0.7        -11.35318876]
 [  0.8        -94.65333259]
 [  0.9         66.72626026]
 [  1.         -72.10656939]
 [  1.1        -87.02340103]
 [  1.14141667 -20.80379815]]","[[0.         0.77463997]
 [0.1        0.15164104]
 [0.2        1.45402293]
 [0.3        1.49503854]
 [0.4        0.10701477]
 [0.5        1.1175781 ]
 [0.6        0.62210046]
 [0.7        1.34496978]
 [0.8        1.0681913 ]
 [0.9        0.36189635]
 [1.         1.98571959]
 [1.1        1.61383771]
 [1.14141667 0.2520498 ]]",0,0.229
1,m,25,english,5,2,english,2024-02-09 13:54:52.617377,False,2,361,sounds\french\audio/french_171.wav,"[[  0.          81.84887044]
 [  0.1         20.60087682]
 [  0.2        -94.27735984]
 [  0.3         30.99558628]
 [  0.4        -47.7542303 ]
 [  0.5        -47.09277453]
 [  0.6         47.01705974]
 [  0.7         48.99995621]
 [  0.8        -13.19980806]
 [  0.9        -48.38276605]
 [  1.          78.75116821]
 [  1.1         -8.4576991 ]
 [  1.14141667  41.78915191]]","[[0.         0.37970225]
 [0.1        0.0073683 ]
 [0.2        1.12118048]
 [0.3        1.09961768]
 [0.4        0.2166971 ]
 [0.5        0.90306543]
 [0.6        0.9472437 ]
 [0.7        1.40277075]
 [0.8        0.42080477]
 [0.9        1.67472117]
 [1.         1.78003058]
 [1.1        1.09259654]
 [1.14141667 1.82740095]]",1,0.116
1,m,25,english,5,2,english,2024-02-09 13:54:52.617377,False,2,362,sounds\french\audio/french_590.wav,"[[  0.         -34.09524263]
 [  0.1        -96.84709912]
 [  0.2         50.61027766]
 [  0.3         75.53545681]
 [  0.4        -11.09035491]
 [  0.5        -32.76275645]
 [  0.6         32.12090996]
 [  0.7        -30.8132539 ]
 [  0.8         22.22892657]
 [  0.9         48.07685608]
 [  1.          58.76836578]
 [  1.1         73.49278781]
 [  1.14141667 -47.33826583]]","[[0.         1.8496634 ]
 [0.1        0.45560216]
 [0.2        1.64061159]
 [0.3        1.47890307]
 [0.4        1.68043792]
 [0.5        1.54166683]
 [0.6        1.68743351]
 [0.7        0.64759962]
 [0.8        0.33521066]
 [0.9        1.44369098]
 [1.         1.75878727]
 [1.1        0.3973942 ]
 [1.14141667 0.72301886]]",1,0.173
1,m,25,english,5,2,english,2024-02-09 13:54:52.617377,False,2,363,sounds\french\audio/french_79.wav,"[[ 0.00000000e+00 -4.08979474e+01]
 [ 1.00000000e-01  8.39153168e-02]
 [ 2.00000000e-01 -1.60356857e+01]
 [ 3.00000000e-01  5.49421964e+01]
 [ 4.00000000e-01  3.63782829e+00]
 [ 5.00000000e-01  7.46888662e+01]
 [ 6.00000000e-01 -9.17954290e+01]
 [ 7.00000000e-01 -5.79262364e+01]
 [ 8.00000000e-01  9.91334894e+00]
 [ 9.00000000e-01 -2.19596642e+01]
 [ 1.00000000e+00  4.65249262e+01]
 [ 1.10000000e+00 -3.12450706e+01]
 [ 1.14141667e+00 -9.19865330e+00]]","[[0.         0.83878745]
 [0.1        0.7600464 ]
 [0.2        1.5875147 ]
 [0.3        1.0726748 ]
 [0.4        1.28120337]
 [0.5        1.64347059]
 [0.6        1.79846317]
 [0.7        0.90335206]
 [0.8        0.89108182]
 [0.9        0.5309996 ]
 [1.         0.74356319]
 [1.1        1.12312207]
 [1.14141667 0.4961803 ]]",0,0.18
1,m,25,english,5,2,english,2024-02-09 13:54:52.617377,False,2,364,sounds\french\audio/french_75.wav,"[[  0.         -31.46725126]
 [  0.1        -34.17215403]
 [  0.2          8.45821843]
 [  0.3        -14.15557124]
 [  0.4         -1.12003523]
 [  0.5         64.22912093]
 [  0.6         15.15529712]
 [  0.7         52.79547505]
 [  0.8         -1.57925774]
 [  0.9        -73.8150831 ]
 [  1.          72.48639601]
 [  1.1        -67.8673094 ]
 [  1.14141667 -33.85568045]]","[[0.         0.18788062]
 [0.1        0.31152777]
 [0.2        1.12489201]
 [0.3        0.40173542]
 [0.4        1.76453227]
 [0.5        0.50596543]
 [0.6        1.35509753]
 [0.7        1.81718532]
 [0.8        0.01325032]
 [0.9        0.90639085]
 [1.         1.40519245]
 [1.1        1.96824695]
 [1.14141667 0.97531331]]",1,0.181
1,m,25,english,5,2,english,2024-02-09 13:54:52.617377,False,2,365,sounds\french\audio/french_606.wav,"[[  0.          29.70975547]
 [  0.1         28.42644231]
 [  0.2         21.59399465]
 [  0.3        -85.78360108]
 [  0.4        -86.96471331]
 [  0.5        -42.98154559]
 [  0.6        -24.40718185]
 [  0.7         40.30920649]
 [  0.8         60.29967336]
 [  0.9        -28.97197282]
 [  1.          20.58306705]
 [  1.1         36.82833662]
 [  1.14141667 -96.86148063]]","[[0.         1.48129541]
 [0.1        1.50796462]
 [0.2        1.95094467]
 [0.3        1.21516633]
 [0.4        1.69229455]
 [0.5        1.09993922]
 [0.6        1.7732578 ]
 [0.7        0.96640662]
 [0.8        1.55948905]
 [0.9        0.42676263]
 [1.         1.41137434]
 [1.1        1.11539435]
 [1.14141667 1.96267589]]",1,0.907
1,m,25,english,5,2,english,2024-02-09 13:54:52.617377,False,2,366,sounds\french\audio/french_166.wav,"[[  0.         -22.8295336 ]
 [  0.1         14.33636562]
 [  0.2        -32.76172213]
 [  0.3         -7.88397719]
 [  0.4         51.92763564]
 [  0.5        -54.54324827]
 [  0.6         70.56273054]
 [  0.7        -69.25364705]
 [  0.8        -88.09425491]
 [  0.9         14.9037885 ]
 [  1.         -87.04528153]
 [  1.1         18.00160319]
 [  1.14141667  52.36923677]]","[[0.         0.98939774]
 [0.1        0.78908761]
 [0.2        0.51317007]
 [0.3        0.37283333]
 [0.4        1.97840198]
 [0.5        0.56612573]
 [0.6        0.83954762]
 [0.7        1.0329173 ]
 [0.8        0.5192872 ]
 [0.9        1.44412419]
 [1.         0.95474057]
 [1.1        1.86178802]
 [1.14141667 1.07082912]]",0,0.411
1,m,25,english,5,2,english,2024-02-09 13:54:52.617377,False,2,367,sounds\french\audio/french_844.wav,"[[  0.         -70.63137892]
 [  0.1        -48.65912271]
 [  0.2         89.22528551]
 [  0.3         39.89743481]
 [  0.4         13.73778231]
 [  0.5        -74.47605916]
 [  0.6         20.87072452]
 [  0.7        -58.29608737]
 [  0.8         20.27856511]
 [  0.9         66.76249813]
 [  1.          44.27022345]
 [  1.1        -46.89913949]
 [  1.14141667 -14.10655115]]","[[0.         0.57712906]
 [0.1        0.64179226]
 [0.2        0.93495251]
 [0.3        1.43041086]
 [0.4        0.06710414]
 [0.5        1.67555193]
 [0.6        0.64111611]
 [0.7        1.81341651]
 [0.8        0.09233996]
 [0.9        1.88938409]
 [1.         0.03776745]
 [1.1        1.5874268 ]
 [1.14141667 1.53774134]]",1,0.223
1,m,25,english,5,2,english,2024-02-09 13:54:52.617377,False,2,368,sounds\french\audio/french_535.wav,"[[  0.         -18.98003998]
 [  0.1          1.56976446]
 [  0.2        -51.96309591]
 [  0.3        -32.78859188]
 [  0.4        -95.94778971]
 [  0.5        -11.78332853]
 [  0.6        -10.35049824]
 [  0.7         53.73969009]
 [  0.8          1.94738184]
 [  0.9         99.67224387]
 [  1.         -21.02452642]
 [  1.1         31.82099625]
 [  1.14141667 -23.69460156]]","[[0.         1.97060018]
 [0.1        1.58088169]
 [0.2        0.99210399]
 [0.3        1.78072811]
 [0.4        1.41176375]
 [0.5        1.55874985]
 [0.6        1.36913047]
 [0.7        0.4263867 ]
 [0.8        0.39920947]
 [0.9        0.77245074]
 [1.         1.01720092]
 [1.1        0.36356833]
 [1.14141667 1.1771893 ]]",0,0.322
1,m,25,english,5,2,english,2024-02-09 13:54:52.617377,False,2,369,sounds\french\audio/french_540.wav,"[[  0.          31.52597312]
 [  0.1         -1.25149155]
 [  0.2        -73.66629191]
 [  0.3        -22.64766564]
 [  0.4        -99.62555954]
 [  0.5         16.96824428]
 [  0.6         87.0103995 ]
 [  0.7         40.33133886]
 [  0.8         20.73958679]
 [  0.9         42.51308569]
 [  1.          -2.19499318]
 [  1.1        -32.36810626]
 [  1.14141667 -26.20670126]]","[[0.         1.25975377]
 [0.1        1.40968559]
 [0.2        0.44233903]
 [0.3        0.80840944]
 [0.4        0.2410145 ]
 [0.5        0.92564841]
 [0.6        1.23012294]
 [0.7        1.75550661]
 [0.8        1.48031201]
 [0.9        0.50269543]
 [1.         0.37203423]
 [1.1        0.07986375]
 [1.14141667 1.98266687]]",0,0.95
1,m,25,english,5,2,english,2024-02-09 13:54:52.617377,False,2,370,sounds\french\audio/french_317.wav,"[[  0.          40.8685805 ]
 [  0.1        -18.25010816]
 [  0.2         21.38431057]
 [  0.3         95.9205375 ]
 [  0.4         38.32089871]
 [  0.5        -21.23529277]
 [  0.6         77.91728969]
 [  0.7         80.74208796]
 [  0.8          7.4329056 ]
 [  0.9         43.55624299]
 [  1.          -3.0789023 ]
 [  1.1         53.49310135]
 [  1.14141667  20.73152809]]","[[0.         0.12762298]
 [0.1        0.46117381]
 [0.2        0.51489794]
 [0.3        0.84411481]
 [0.4        0.32765242]
 [0.5        0.79138261]
 [0.6        0.47375235]
 [0.7        0.7422914 ]
 [0.8        0.34355832]
 [0.9        0.04625658]
 [1.         1.28889799]
 [1.1        1.94514932]
 [1.14141667 0.29763753]]",1,0.897
1,m,25,english,5,2,english,2024-02-09 13:54:52.617377,False,2,371,sounds\french\audio/french_414.wav,"[[  0.          87.34544211]
 [  0.1         17.16200285]
 [  0.2        -90.65600282]
 [  0.3         52.56917832]
 [  0.4         62.07779983]
 [  0.5        -62.5215002 ]
 [  0.6         19.29835118]
 [  0.7        -27.8356507 ]
 [  0.8         93.45512929]
 [  0.9          1.22702255]
 [  1.         -36.66158795]
 [  1.1        -18.18347798]
 [  1.14141667  35.13223626]]","[[0.         0.62967403]
 [0.1        1.70553963]
 [0.2        0.51710094]
 [0.3        1.2237812 ]
 [0.4        1.0361974 ]
 [0.5        1.13097232]
 [0.6        0.26807615]
 [0.7        1.54141001]
 [0.8        1.28471782]
 [0.9        0.56858703]
 [1.         1.09588642]
 [1.1        0.42189755]
 [1.14141667 0.83336688]]",0,1.474
1,m,25,english,5,2,english,2024-02-09 13:54:52.617377,False,2,372,sounds\french\audio/french_156.wav,"[[  0.           6.24973356]
 [  0.1        -59.28869938]
 [  0.2        -54.93017369]
 [  0.3         70.45865659]
 [  0.4         34.41093143]
 [  0.5        -22.64644682]
 [  0.6         37.82984887]
 [  0.7        -84.29242808]
 [  0.8         97.70285322]
 [  0.9        -99.58855667]
 [  1.         -82.42661109]
 [  1.1         26.88226167]
 [  1.14141667  65.60234374]]","[[0.         0.42853185]
 [0.1        0.11783084]
 [0.2        0.30000134]
 [0.3        1.53849502]
 [0.4        1.35848197]
 [0.5        1.2667626 ]
 [0.6        1.77001246]
 [0.7        0.71439786]
 [0.8        0.64267275]
 [0.9        0.57389872]
 [1.         0.02293924]
 [1.1        0.73273097]
 [1.14141667 1.17460204]]",1,1.093
1,m,25,english,5,2,english,2024-02-09 13:54:52.617377,False,2,373,sounds\french\audio/french_742.wav,"[[  0.         -56.15437609]
 [  0.1        -97.50895937]
 [  0.2        -24.80576642]
 [  0.3        -28.69088725]
 [  0.4        -30.95403645]
 [  0.5          6.43592274]
 [  0.6         18.92068516]
 [  0.7         25.68594971]
 [  0.8         74.27353509]
 [  0.9        -83.89996192]
 [  1.         -96.24021005]
 [  1.1        -69.26132296]
 [  1.14141667  -1.30565835]]","[[0.         1.53396837]
 [0.1        0.80716731]
 [0.2        1.23206475]
 [0.3        0.5609413 ]
 [0.4        1.96076384]
 [0.5        0.69180363]
 [0.6        0.57955311]
 [0.7        1.48466979]
 [0.8        0.9330707 ]
 [0.9        0.8547563 ]
 [1.         0.04579067]
 [1.1        1.75126765]
 [1.14141667 1.38088428]]",1,0.54
1,m,25,english,5,2,english,2024-02-09 13:54:52.617377,False,2,374,sounds\french\audio/french_181.wav,"[[  0.         -95.95313982]
 [  0.1         91.63677354]
 [  0.2        -91.79980108]
 [  0.3         95.40210499]
 [  0.4         68.17989767]
 [  0.5         91.86803384]
 [  0.6         20.20115402]
 [  0.7        -36.24540979]
 [  0.8         20.77489363]
 [  0.9        -36.30620857]
 [  1.         -52.43059698]
 [  1.1        -66.44451369]
 [  1.14141667 -36.9073082 ]]","[[0.         0.44165639]
 [0.1        1.91213413]
 [0.2        1.20479938]
 [0.3        1.03854449]
 [0.4        0.34466606]
 [0.5        1.08947615]
 [0.6        0.89950013]
 [0.7        1.58660506]
 [0.8        1.10035668]
 [0.9        1.78772501]
 [1.         0.45092467]
 [1.1        1.08205846]
 [1.14141667 1.12829283]]",0,0.334
1,m,25,english,5,2,english,2024-02-09 13:54:52.617377,False,2,375,sounds\french\audio/french_15.wav,"[[  0.          38.40511615]
 [  0.1        -72.39618447]
 [  0.2         41.2357883 ]
 [  0.3        -76.62978847]
 [  0.4        -90.68609408]
 [  0.5        -23.65088828]
 [  0.6         82.28530088]
 [  0.7        -17.89513376]
 [  0.8        -38.70002493]
 [  0.9        -96.07000626]
 [  1.          59.32207751]
 [  1.1         24.24359169]
 [  1.14141667 -81.61531935]]","[[0.         0.51275421]
 [0.1        1.11634174]
 [0.2        1.55000564]
 [0.3        0.777132  ]
 [0.4        0.77124062]
 [0.5        0.1774054 ]
 [0.6        0.98573947]
 [0.7        0.63803689]
 [0.8        0.43876612]
 [0.9        0.61786768]
 [1.         1.21673945]
 [1.1        1.20034933]
 [1.14141667 0.40555856]]",1,0.383
1,m,25,english,5,2,english,2024-02-09 13:54:52.617377,False,2,376,sounds\french\audio/french_913.wav,"[[  0.         -47.25134073]
 [  0.1        -82.39617775]
 [  0.2        -49.77107224]
 [  0.3        -65.18926328]
 [  0.4        -21.76681249]
 [  0.5         25.27312638]
 [  0.6         55.78406259]
 [  0.7        -27.8783869 ]
 [  0.8        -52.69419859]
 [  0.9         99.44571929]
 [  1.          87.33615919]
 [  1.1         46.22614126]
 [  1.14141667 -71.95970705]]","[[0.         0.04335797]
 [0.1        1.67103064]
 [0.2        0.81708714]
 [0.3        1.28520765]
 [0.4        1.7369454 ]
 [0.5        1.03142804]
 [0.6        0.74912627]
 [0.7        1.88947917]
 [0.8        0.39822081]
 [0.9        0.52497493]
 [1.         1.60117884]
 [1.1        1.53649436]
 [1.14141667 0.49650592]]",0,0.245
1,m,25,english,5,2,english,2024-02-09 13:54:52.617377,False,2,377,sounds\french\audio/french_378.wav,"[[  0.          10.14074494]
 [  0.1        -69.45781997]
 [  0.2         38.40349345]
 [  0.3        -11.42336743]
 [  0.4        -38.27576318]
 [  0.5         -2.73288809]
 [  0.6         78.86302992]
 [  0.7        -17.950808  ]
 [  0.8         58.47358133]
 [  0.9         26.64529298]
 [  1.         -55.10685082]
 [  1.1        -18.22256523]
 [  1.14141667  61.35932925]]","[[0.         1.10712978]
 [0.1        1.44615803]
 [0.2        1.25967469]
 [0.3        0.20781614]
 [0.4        0.33459003]
 [0.5        0.46876696]
 [0.6        0.47313469]
 [0.7        0.39569402]
 [0.8        1.30666007]
 [0.9        1.95577036]
 [1.         0.02933321]
 [1.1        0.7247038 ]
 [1.14141667 0.67386771]]",1,0.282
1,m,25,english,5,2,english,2024-02-09 13:54:52.617377,False,2,378,sounds\french\audio/french_353.wav,"[[  0.           7.49599561]
 [  0.1         90.99173731]
 [  0.2         71.10742098]
 [  0.3         15.87314529]
 [  0.4         15.52628971]
 [  0.5         -9.56525823]
 [  0.6        -29.5582355 ]
 [  0.7        -72.34274216]
 [  0.8        -26.51998188]
 [  0.9        -28.47547974]
 [  1.         -74.51575066]
 [  1.1        -87.86413437]
 [  1.14141667 -29.35747055]]","[[0.         0.78187281]
 [0.1        1.82618714]
 [0.2        1.26697162]
 [0.3        1.13548939]
 [0.4        0.84893987]
 [0.5        1.13727977]
 [0.6        0.8172553 ]
 [0.7        0.64217318]
 [0.8        1.77406241]
 [0.9        1.34157838]
 [1.         0.26802429]
 [1.1        0.73069124]
 [1.14141667 1.49928581]]",0,0.224
1,m,25,english,5,2,english,2024-02-09 13:54:52.617377,False,2,379,sounds\french\audio/french_65.wav,"[[  0.          90.25303481]
 [  0.1        -68.20435052]
 [  0.2        -29.40329428]
 [  0.3         46.42632137]
 [  0.4        -28.79951441]
 [  0.5        -14.64344063]
 [  0.6         55.39931543]
 [  0.7        -54.55605034]
 [  0.8         84.8250898 ]
 [  0.9         60.3117994 ]
 [  1.         -27.81288119]
 [  1.1         65.1988238 ]
 [  1.14141667  -4.75581652]]","[[0.         0.53945939]
 [0.1        0.42688683]
 [0.2        0.27290811]
 [0.3        1.55081286]
 [0.4        1.45770659]
 [0.5        1.99435488]
 [0.6        1.36766936]
 [0.7        1.57729108]
 [0.8        1.17309042]
 [0.9        0.17286677]
 [1.         1.4236834 ]
 [1.1        1.20315137]
 [1.14141667 1.51714563]]",0,0.598
1,m,25,english,5,2,english,2024-02-09 13:54:52.617377,False,2,380,sounds\french\audio/french_84.wav,"[[  0.         -96.37151913]
 [  0.1        -51.32047359]
 [  0.2          6.16674673]
 [  0.3        -74.79812615]
 [  0.4         72.70338153]
 [  0.5         73.29646829]
 [  0.6         58.46115838]
 [  0.7        -88.22895489]
 [  0.8         96.14628935]
 [  0.9        -22.0220861 ]
 [  1.         -17.5351727 ]
 [  1.1         70.12401617]
 [  1.14141667  19.58806578]]","[[0.         0.66956982]
 [0.1        0.87788838]
 [0.2        1.80968749]
 [0.3        1.92619873]
 [0.4        0.19629773]
 [0.5        1.83630482]
 [0.6        1.73731066]
 [0.7        0.02437314]
 [0.8        0.0262643 ]
 [0.9        1.01003676]
 [1.         0.76011071]
 [1.1        1.03268267]
 [1.14141667 0.54269981]]",1,0.42
1,m,25,english,5,2,english,2024-02-09 13:54:52.617377,False,2,381,sounds\french\audio/french_40.wav,"[[  0.          -8.12729319]
 [  0.1          4.45938553]
 [  0.2         28.58144877]
 [  0.3        -11.92795435]
 [  0.4         43.56251257]
 [  0.5         22.26926875]
 [  0.6        -14.80375006]
 [  0.7         -6.02231593]
 [  0.8         27.11076244]
 [  0.9          1.30682946]
 [  1.         -93.52950678]
 [  1.1        -66.90804862]
 [  1.14141667  -0.63154276]]","[[0.         1.33981221]
 [0.1        0.58230507]
 [0.2        0.45774736]
 [0.3        0.82403207]
 [0.4        1.03540986]
 [0.5        1.51862285]
 [0.6        1.30207552]
 [0.7        0.76961448]
 [0.8        1.12344021]
 [0.9        0.05989398]
 [1.         0.28850959]
 [1.1        0.1338746 ]
 [1.14141667 1.0832794 ]]",1,1.675
1,m,25,english,5,2,english,2024-02-09 13:54:52.617377,False,2,382,sounds\french\audio/french_497.wav,"[[  0.         -11.10232423]
 [  0.1         69.97508857]
 [  0.2        -17.59807726]
 [  0.3        -25.98084737]
 [  0.4        -50.44930898]
 [  0.5        -45.94995514]
 [  0.6          8.45642555]
 [  0.7        -18.86865245]
 [  0.8        -10.10667513]
 [  0.9         75.64025007]
 [  1.          -5.73955185]
 [  1.1        -69.83982299]
 [  1.14141667  56.51270029]]","[[0.         1.74915461]
 [0.1        0.91469854]
 [0.2        0.9345582 ]
 [0.3        1.8424865 ]
 [0.4        1.64628382]
 [0.5        0.39858154]
 [0.6        0.5325837 ]
 [0.7        0.60517523]
 [0.8        1.05318778]
 [0.9        0.58073606]
 [1.         0.8475124 ]
 [1.1        0.92219594]
 [1.14141667 1.33552317]]",1,0.479
1,m,25,english,5,2,english,2024-02-09 13:54:52.617377,False,2,383,sounds\french\audio/french_347.wav,"[[  0.          57.05528949]
 [  0.1        -48.19665941]
 [  0.2         91.45679685]
 [  0.3        -29.31586745]
 [  0.4          9.10002374]
 [  0.5         53.01721292]
 [  0.6        -22.03928677]
 [  0.7        -73.006405  ]
 [  0.8         20.29301957]
 [  0.9         19.10492943]
 [  1.          52.95636206]
 [  1.1         30.9365932 ]
 [  1.14141667  45.55083793]]","[[0.         1.64220356]
 [0.1        1.82332469]
 [0.2        0.22099974]
 [0.3        1.13825501]
 [0.4        1.767798  ]
 [0.5        0.7433021 ]
 [0.6        0.36890647]
 [0.7        1.31994173]
 [0.8        1.10139997]
 [0.9        1.91392068]
 [1.         0.92491324]
 [1.1        0.81438983]
 [1.14141667 0.15118447]]",1,0.52
1,m,25,english,5,2,english,2024-02-09 13:54:52.617377,False,2,384,sounds\french\audio/french_956.wav,"[[  0.         -99.35759674]
 [  0.1         17.74635761]
 [  0.2         45.19730301]
 [  0.3         32.76158542]
 [  0.4        -82.44124556]
 [  0.5        -42.32589362]
 [  0.6         47.35708325]
 [  0.7        -90.98325298]
 [  0.8        -35.51686902]
 [  0.9         60.74204696]
 [  1.         -46.10377132]
 [  1.1        -22.49053344]
 [  1.14141667  15.48787024]]","[[0.         0.54388648]
 [0.1        1.06124428]
 [0.2        1.13782447]
 [0.3        1.35322569]
 [0.4        1.86440682]
 [0.5        1.66841875]
 [0.6        1.44392405]
 [0.7        1.23654472]
 [0.8        0.08906861]
 [0.9        0.55811382]
 [1.         0.54181177]
 [1.1        0.7143235 ]
 [1.14141667 1.69639276]]",1,0.515
1,m,25,english,5,2,english,2024-02-09 13:54:52.617377,False,2,385,sounds\french\audio/french_145.wav,"[[  0.          47.06287253]
 [  0.1         -3.58159028]
 [  0.2        -40.8693055 ]
 [  0.3        -80.8752163 ]
 [  0.4        -29.67084936]
 [  0.5        -16.09636873]
 [  0.6         28.46658229]
 [  0.7          4.2007743 ]
 [  0.8         22.24117317]
 [  0.9         33.5185267 ]
 [  1.         -45.71589409]
 [  1.1        -31.5800077 ]
 [  1.14141667 -68.85261891]]","[[0.         0.66108   ]
 [0.1        1.76438723]
 [0.2        1.27982498]
 [0.3        1.02482856]
 [0.4        1.23928714]
 [0.5        0.03289303]
 [0.6        1.30220706]
 [0.7        0.00879255]
 [0.8        1.14421532]
 [0.9        1.29113643]
 [1.         0.21462711]
 [1.1        0.76658856]
 [1.14141667 0.02669372]]",0,1.086
1,m,25,english,5,2,english,2024-02-09 13:54:52.617377,False,2,386,sounds\french\audio/french_659.wav,"[[  0.          48.90062575]
 [  0.1        -69.07148134]
 [  0.2         -3.79784226]
 [  0.3        -19.68077466]
 [  0.4        -75.20346612]
 [  0.5         -0.60792706]
 [  0.6        -47.33415621]
 [  0.7         16.4811279 ]
 [  0.8        -17.31210465]
 [  0.9         20.64222746]
 [  1.         -84.81869406]
 [  1.1         51.19867418]
 [  1.14141667 -21.12219149]]","[[0.         0.78276201]
 [0.1        0.68861519]
 [0.2        1.39122564]
 [0.3        1.3824081 ]
 [0.4        0.76200862]
 [0.5        0.97964197]
 [0.6        0.23275502]
 [0.7        0.02741707]
 [0.8        0.38511578]
 [0.9        0.30541253]
 [1.         1.78035006]
 [1.1        1.15663372]
 [1.14141667 0.69322275]]",0,0.509
1,m,25,english,5,2,english,2024-02-09 13:54:52.617377,False,2,387,sounds\french\audio/french_542.wav,"[[  0.         -51.06988227]
 [  0.1         85.49879696]
 [  0.2         63.15700412]
 [  0.3        -36.64736247]
 [  0.4         75.15639634]
 [  0.5         -9.43778213]
 [  0.6         22.73785565]
 [  0.7         38.92400765]
 [  0.8        -17.14219802]
 [  0.9         61.69992383]
 [  1.         -24.75082228]
 [  1.1          5.64044157]
 [  1.14141667 -85.77081832]]","[[0.         1.35657216]
 [0.1        1.49253391]
 [0.2        1.82410023]
 [0.3        0.95543685]
 [0.4        1.06162419]
 [0.5        1.1121259 ]
 [0.6        1.53646916]
 [0.7        1.27623094]
 [0.8        0.95680642]
 [0.9        0.19635283]
 [1.         1.5746935 ]
 [1.1        0.60238521]
 [1.14141667 0.8477855 ]]",0,0.547
1,m,25,english,5,2,english,2024-02-09 13:54:52.617377,False,2,388,sounds\french\audio/french_887.wav,"[[  0.          51.22765524]
 [  0.1        -81.07367684]
 [  0.2         34.20865774]
 [  0.3        -78.61451503]
 [  0.4         73.89874258]
 [  0.5         55.35061233]
 [  0.6        -28.08868107]
 [  0.7        -75.13470752]
 [  0.8          3.63790333]
 [  0.9         59.68879821]
 [  1.          81.8642707 ]
 [  1.1         47.07029042]
 [  1.14141667 -11.21707174]]","[[0.         0.21201127]
 [0.1        0.25647637]
 [0.2        1.02175532]
 [0.3        0.73712994]
 [0.4        1.36337648]
 [0.5        0.96545016]
 [0.6        1.49552449]
 [0.7        1.78802656]
 [0.8        0.81832   ]
 [0.9        0.591695  ]
 [1.         1.54712887]
 [1.1        1.77599521]
 [1.14141667 0.52830395]]",0,0.609
1,m,25,english,5,2,english,2024-02-09 13:54:52.617377,False,2,389,sounds\french\audio/french_828.wav,"[[  0.           8.39332358]
 [  0.1         80.61990911]
 [  0.2         48.28656508]
 [  0.3         15.74168285]
 [  0.4         27.97157711]
 [  0.5        -41.85579768]
 [  0.6        -26.49030235]
 [  0.7        -37.35033456]
 [  0.8        -62.87739189]
 [  0.9        -75.88832024]
 [  1.         -30.16406284]
 [  1.1        -77.81460251]
 [  1.14141667 -26.11803054]]","[[0.         0.2673607 ]
 [0.1        0.02283728]
 [0.2        0.41985512]
 [0.3        0.75217509]
 [0.4        0.80736638]
 [0.5        1.11613612]
 [0.6        1.72554015]
 [0.7        1.05250691]
 [0.8        1.13782655]
 [0.9        0.74529135]
 [1.         1.00224145]
 [1.1        1.25785084]
 [1.14141667 1.77489324]]",1,0.295
1,m,25,english,5,2,english,2024-02-09 13:54:52.617377,False,2,390,sounds\french\audio/french_945.wav,"[[  0.         -58.28277896]
 [  0.1         27.14985146]
 [  0.2         94.7720972 ]
 [  0.3        -42.41115059]
 [  0.4         46.08048688]
 [  0.5        -33.77336262]
 [  0.6        -35.16914873]
 [  0.7        -11.94165971]
 [  0.8        -20.31759637]
 [  0.9        -53.92015861]
 [  1.         -72.61626973]
 [  1.1         40.14826696]
 [  1.14141667 -59.3404278 ]]","[[0.         0.8421425 ]
 [0.1        1.1142144 ]
 [0.2        0.32042823]
 [0.3        0.61933591]
 [0.4        1.24952748]
 [0.5        0.88755445]
 [0.6        1.04604302]
 [0.7        0.17861538]
 [0.8        1.00371171]
 [0.9        0.12895237]
 [1.         0.96808113]
 [1.1        0.46056741]
 [1.14141667 0.41198006]]",1,1.88
1,m,25,english,5,2,english,2024-02-09 13:54:52.617377,False,2,391,sounds\french\audio/french_312.wav,"[[  0.          69.30449707]
 [  0.1         28.8122594 ]
 [  0.2         79.52564985]
 [  0.3         23.03240233]
 [  0.4        -48.5690178 ]
 [  0.5         61.96316276]
 [  0.6        -40.84069724]
 [  0.7        -21.82800046]
 [  0.8        -77.10722565]
 [  0.9         18.67755044]
 [  1.           0.10322115]
 [  1.1         38.28305127]
 [  1.14141667  17.56298431]]","[[0.         0.68235651]
 [0.1        0.49968612]
 [0.2        0.10826386]
 [0.3        1.87669154]
 [0.4        1.01808413]
 [0.5        1.08622218]
 [0.6        0.31784093]
 [0.7        0.771822  ]
 [0.8        0.59210928]
 [0.9        0.28258662]
 [1.         0.93032185]
 [1.1        0.32298369]
 [1.14141667 1.36564277]]",1,0.702
1,m,25,english,5,2,english,2024-02-09 13:54:52.617377,False,2,392,sounds\french\audio/french_521.wav,"[[  0.           2.02303426]
 [  0.1         27.55245524]
 [  0.2        -46.69757278]
 [  0.3        -94.98250694]
 [  0.4          2.66667068]
 [  0.5         83.78734232]
 [  0.6        -80.30851908]
 [  0.7        -90.0764255 ]
 [  0.8         21.33552602]
 [  0.9        -61.83607635]
 [  1.         -92.49710651]
 [  1.1        -32.3485136 ]
 [  1.14141667   8.4434574 ]]","[[0.         0.20556186]
 [0.1        0.44198605]
 [0.2        0.76515597]
 [0.3        1.70762069]
 [0.4        1.19903269]
 [0.5        0.59862631]
 [0.6        1.39546585]
 [0.7        1.18274747]
 [0.8        1.17625485]
 [0.9        0.38414308]
 [1.         1.18179738]
 [1.1        1.02663222]
 [1.14141667 0.71900975]]",0,0.294
1,m,25,english,5,2,english,2024-02-09 13:54:52.617377,False,2,393,sounds\french\audio/french_467.wav,"[[  0.         -31.46831625]
 [  0.1         18.84639346]
 [  0.2         44.12718857]
 [  0.3        -21.19371521]
 [  0.4        -83.99502777]
 [  0.5         31.96274659]
 [  0.6          3.8434059 ]
 [  0.7        -73.08298153]
 [  0.8        -30.80294266]
 [  0.9          9.03486453]
 [  1.         -24.44144113]
 [  1.1         73.75082283]
 [  1.14141667  18.09127375]]","[[0.         0.96779496]
 [0.1        1.41774791]
 [0.2        1.52096062]
 [0.3        0.59296897]
 [0.4        1.88450285]
 [0.5        0.60947739]
 [0.6        0.97977899]
 [0.7        0.2168825 ]
 [0.8        0.70808904]
 [0.9        1.28423259]
 [1.         1.69674401]
 [1.1        0.4564202 ]
 [1.14141667 1.60035695]]",0,1.107
1,m,25,english,5,2,english,2024-02-09 13:54:52.617377,False,2,394,sounds\french\audio/french_763.wav,"[[  0.          13.80814112]
 [  0.1         19.46844734]
 [  0.2          5.44159656]
 [  0.3        -30.10347892]
 [  0.4         18.89004006]
 [  0.5        -41.56620467]
 [  0.6         78.21333882]
 [  0.7         -2.20389314]
 [  0.8         42.46944935]
 [  0.9          7.43342861]
 [  1.           7.65664638]
 [  1.1        -28.82008034]
 [  1.14141667   6.75912925]]","[[0.         1.2271562 ]
 [0.1        1.61118861]
 [0.2        0.15248074]
 [0.3        0.72176975]
 [0.4        0.85736007]
 [0.5        0.93541907]
 [0.6        0.88345852]
 [0.7        0.73881895]
 [0.8        1.15712901]
 [0.9        0.43903082]
 [1.         1.76731761]
 [1.1        0.22544414]
 [1.14141667 1.35522594]]",0,1.065
1,m,25,english,5,2,english,2024-02-09 13:54:52.617377,False,2,395,sounds\french\audio/french_383.wav,"[[  0.         -39.02457542]
 [  0.1        -77.49985517]
 [  0.2         50.91368445]
 [  0.3         10.63848849]
 [  0.4         47.34974353]
 [  0.5        -18.10712895]
 [  0.6        -59.13978187]
 [  0.7        -95.02289951]
 [  0.8         -1.09114116]
 [  0.9        -71.36171918]
 [  1.          15.57019989]
 [  1.1        -93.68359708]
 [  1.14141667 -46.06271285]]","[[0.         1.13235422]
 [0.1        0.41642205]
 [0.2        1.49751518]
 [0.3        0.37045866]
 [0.4        0.15272125]
 [0.5        0.11717599]
 [0.6        0.84303964]
 [0.7        1.97903491]
 [0.8        0.29246172]
 [0.9        1.45734716]
 [1.         1.94987581]
 [1.1        1.48364755]
 [1.14141667 1.01304345]]",1,0.109
1,m,25,english,5,2,english,2024-02-09 13:54:52.617377,False,2,396,sounds\french\audio/french_524.wav,"[[  0.          55.00709732]
 [  0.1        -23.89661715]
 [  0.2        -10.76576396]
 [  0.3        -89.98073457]
 [  0.4         90.47688198]
 [  0.5        -26.69479883]
 [  0.6        -13.51692626]
 [  0.7         46.79530299]
 [  0.8         46.57964201]
 [  0.9        -91.36020491]
 [  1.         -81.359929  ]
 [  1.1         91.07291396]
 [  1.14141667  40.78169996]]","[[0.         0.25824769]
 [0.1        0.7249448 ]
 [0.2        0.42763347]
 [0.3        1.41980414]
 [0.4        1.5691433 ]
 [0.5        0.22636254]
 [0.6        1.34650289]
 [0.7        0.32537739]
 [0.8        1.48093397]
 [0.9        0.90980305]
 [1.         1.68039469]
 [1.1        0.19928147]
 [1.14141667 0.80241369]]",0,0.331
1,m,25,english,5,2,english,2024-02-09 13:54:52.617377,False,2,397,sounds\french\audio/french_490.wav,"[[  0.          34.07788698]
 [  0.1         46.76949029]
 [  0.2         28.77768732]
 [  0.3         84.71768289]
 [  0.4        -49.14084598]
 [  0.5        -27.41453293]
 [  0.6         34.60310524]
 [  0.7        -10.05161689]
 [  0.8        -40.81038415]
 [  0.9         -9.03506951]
 [  1.          28.04397329]
 [  1.1         18.34662283]
 [  1.14141667  68.18025592]]","[[0.         0.7414872 ]
 [0.1        0.69857728]
 [0.2        0.06010779]
 [0.3        0.07957118]
 [0.4        1.177156  ]
 [0.5        1.97943137]
 [0.6        0.5073494 ]
 [0.7        1.71553838]
 [0.8        0.81648338]
 [0.9        1.29656038]
 [1.         1.96068251]
 [1.1        0.27924409]
 [1.14141667 1.35055219]]",1,0.43
1,m,25,english,5,2,english,2024-02-09 13:54:52.617377,False,2,398,sounds\french\audio/french_750.wav,"[[  0.          68.384864  ]
 [  0.1        -12.54054232]
 [  0.2         38.20542066]
 [  0.3        -13.65587965]
 [  0.4        -87.20869433]
 [  0.5        -32.62716093]
 [  0.6         10.94806249]
 [  0.7         50.06911145]
 [  0.8         99.00831247]
 [  0.9        -53.01326403]
 [  1.         -76.4591149 ]
 [  1.1        -55.31028242]
 [  1.14141667 -22.75078549]]","[[0.         0.88761123]
 [0.1        0.48802278]
 [0.2        1.39577597]
 [0.3        0.86182701]
 [0.4        0.59248942]
 [0.5        1.00273613]
 [0.6        1.78150364]
 [0.7        1.71651432]
 [0.8        1.81026364]
 [0.9        1.46265358]
 [1.         0.3188175 ]
 [1.1        1.15839447]
 [1.14141667 1.38940907]]",1,0.47
1,m,25,english,5,2,english,2024-02-09 13:54:52.617377,False,2,399,sounds\french\audio/french_718.wav,"[[  0.          33.83974481]
 [  0.1         75.60927008]
 [  0.2          5.42570617]
 [  0.3        -86.49968927]
 [  0.4        -82.66009843]
 [  0.5         -7.42138801]
 [  0.6         22.39546771]
 [  0.7        -75.7468097 ]
 [  0.8         56.54879527]
 [  0.9         22.08965796]
 [  1.           0.92889237]
 [  1.1        -96.09137466]
 [  1.14141667 -27.56610434]]","[[0.         1.83484525]
 [0.1        0.41567784]
 [0.2        1.12655023]
 [0.3        1.26248076]
 [0.4        1.75908703]
 [0.5        1.52482075]
 [0.6        1.87690382]
 [0.7        0.07228786]
 [0.8        1.60832124]
 [0.9        1.35064447]
 [1.         1.67650518]
 [1.1        1.75605442]
 [1.14141667 1.42532868]]",1,0.663
1,m,25,english,5,2,english,2024-02-09 13:54:52.617377,False,2,400,sounds\french\audio/french_121.wav,"[[  0.          36.31722291]
 [  0.1        -94.67920207]
 [  0.2         42.58160408]
 [  0.3        -54.98649345]
 [  0.4         32.53709836]
 [  0.5        -47.86424121]
 [  0.6         17.70587277]
 [  0.7         46.08483785]
 [  0.8         -0.93592594]
 [  0.9         97.56864784]
 [  1.          44.91248464]
 [  1.1        -44.8128552 ]
 [  1.14141667  25.61472821]]","[[0.         0.15369428]
 [0.1        0.35107133]
 [0.2        0.30883861]
 [0.3        1.14457082]
 [0.4        1.55797219]
 [0.5        0.58086875]
 [0.6        0.73530762]
 [0.7        1.67904556]
 [0.8        0.53889317]
 [0.9        1.23294188]
 [1.         1.51376777]
 [1.1        0.48627874]
 [1.14141667 1.53605719]]",1,0.682
1,m,25,english,5,2,english,2024-02-09 13:54:52.617377,False,2,401,sounds\french\audio/french_879.wav,"[[  0.          88.66120866]
 [  0.1         35.12225603]
 [  0.2         -2.93703308]
 [  0.3         61.37727631]
 [  0.4          2.53929299]
 [  0.5         65.24070343]
 [  0.6        -80.11136653]
 [  0.7         13.22088752]
 [  0.8         64.64970231]
 [  0.9         13.00456611]
 [  1.         -81.8213386 ]
 [  1.1        -91.24943387]
 [  1.14141667  94.81116576]]","[[0.         1.49948929]
 [0.1        1.15624611]
 [0.2        1.75956272]
 [0.3        0.82855874]
 [0.4        0.63351831]
 [0.5        1.6138796 ]
 [0.6        0.6895417 ]
 [0.7        0.19108086]
 [0.8        0.37453166]
 [0.9        1.83756867]
 [1.         1.05634914]
 [1.1        0.80697989]
 [1.14141667 0.78800282]]",0,0.182
1,m,25,english,5,2,english,2024-02-09 13:54:52.617377,False,2,402,sounds\french\audio/french_758.wav,"[[  0.          41.40251797]
 [  0.1         83.22068517]
 [  0.2        -17.02894859]
 [  0.3        -57.78871378]
 [  0.4        -26.28467223]
 [  0.5          1.34940172]
 [  0.6         73.49827232]
 [  0.7        -10.43882846]
 [  0.8        -36.52394931]
 [  0.9        -31.42286667]
 [  1.         -59.6641431 ]
 [  1.1         39.4290765 ]
 [  1.14141667 -44.19004616]]","[[0.         0.56085544]
 [0.1        0.97554237]
 [0.2        0.01004143]
 [0.3        1.03626599]
 [0.4        0.33244231]
 [0.5        1.08481581]
 [0.6        0.0829296 ]
 [0.7        1.10238348]
 [0.8        1.35072621]
 [0.9        1.63267541]
 [1.         0.28303542]
 [1.1        0.53687214]
 [1.14141667 0.94196396]]",0,0.496
1,m,25,english,5,2,english,2024-02-09 13:54:52.617377,False,2,403,sounds\french\audio/french_934.wav,"[[  0.          40.53181797]
 [  0.1        -79.79622597]
 [  0.2         21.49735674]
 [  0.3        -55.73934916]
 [  0.4         23.20661572]
 [  0.5         41.97074765]
 [  0.6         52.27145184]
 [  0.7         93.05733645]
 [  0.8        -66.29005128]
 [  0.9         33.10891926]
 [  1.          32.34405322]
 [  1.1        -79.37829408]
 [  1.14141667 -10.98356943]]","[[0.         0.21292602]
 [0.1        0.44319206]
 [0.2        1.24358812]
 [0.3        1.8690662 ]
 [0.4        0.54697535]
 [0.5        1.30478826]
 [0.6        0.63048123]
 [0.7        0.02951906]
 [0.8        0.85764237]
 [0.9        0.24417151]
 [1.         0.30221595]
 [1.1        0.36799269]
 [1.14141667 0.09235364]]",0,1.493
1,m,25,english,5,2,english,2024-02-09 13:54:52.617377,False,2,404,sounds\french\audio/french_204.wav,"[[  0.         -97.54424604]
 [  0.1        -75.45987253]
 [  0.2        -45.23023412]
 [  0.3        -36.48297354]
 [  0.4         90.93714811]
 [  0.5          8.51204829]
 [  0.6        -18.08952278]
 [  0.7        -30.86608274]
 [  0.8          9.52121427]
 [  0.9         32.93587108]
 [  1.           4.3572217 ]
 [  1.1         48.01606994]
 [  1.14141667 -31.34314553]]","[[0.         0.84357782]
 [0.1        1.86814554]
 [0.2        0.72033873]
 [0.3        0.94694734]
 [0.4        1.41055146]
 [0.5        1.86444056]
 [0.6        0.86787291]
 [0.7        0.05470733]
 [0.8        0.89406548]
 [0.9        0.95464127]
 [1.         1.5370853 ]
 [1.1        0.95273062]
 [1.14141667 1.18622343]]",1,1.163
1,m,25,english,5,2,english,2024-02-09 13:54:52.617377,False,2,405,sounds\french\audio/french_80.wav,"[[  0.          66.25159817]
 [  0.1         47.28875238]
 [  0.2         14.01549539]
 [  0.3        -62.14371767]
 [  0.4        -76.73625879]
 [  0.5        -32.68632247]
 [  0.6          0.74925726]
 [  0.7        -34.36190884]
 [  0.8        -35.49297104]
 [  0.9        -27.79992326]
 [  1.          55.68399656]
 [  1.1        -66.66640437]
 [  1.14141667  96.7981211 ]]","[[0.         0.77450666]
 [0.1        1.50399144]
 [0.2        0.48639635]
 [0.3        1.98465252]
 [0.4        0.53703396]
 [0.5        1.91033133]
 [0.6        0.37647001]
 [0.7        0.75454249]
 [0.8        0.37140864]
 [0.9        0.77901808]
 [1.         1.25763863]
 [1.1        1.7307387 ]
 [1.14141667 0.46038543]]",0,6.05
1,m,25,english,5,2,english,2024-02-09 13:54:52.617377,False,2,406,sounds\french\audio/french_936.wav,"[[  0.          67.52582955]
 [  0.1        -45.00790549]
 [  0.2         99.04057748]
 [  0.3        -68.36116283]
 [  0.4        -69.72509786]
 [  0.5         49.9602727 ]
 [  0.6        -86.20274362]
 [  0.7        -45.26451629]
 [  0.8         92.93059236]
 [  0.9         20.23217844]
 [  1.         -97.47433382]
 [  1.1         -0.33226463]
 [  1.14141667 -70.80442404]]","[[0.         0.02866994]
 [0.1        1.52120589]
 [0.2        1.49962967]
 [0.3        0.94170168]
 [0.4        1.45346446]
 [0.5        1.239675  ]
 [0.6        0.33483984]
 [0.7        0.80645918]
 [0.8        1.81014272]
 [0.9        0.27928591]
 [1.         0.6276723 ]
 [1.1        0.06404952]
 [1.14141667 0.03566212]]",1,0.979
1,m,25,english,5,2,english,2024-02-09 13:54:52.617377,False,2,407,sounds\french\audio/french_856.wav,"[[  0.          -0.93889544]
 [  0.1         90.07982384]
 [  0.2         22.28999256]
 [  0.3        -70.55357194]
 [  0.4        -39.36048444]
 [  0.5         80.72578613]
 [  0.6        -38.29184104]
 [  0.7         80.58102018]
 [  0.8         72.71158308]
 [  0.9        -45.84185553]
 [  1.          43.65872365]
 [  1.1         70.34512494]
 [  1.14141667 -74.99468932]]","[[0.         1.28603939]
 [0.1        1.96490125]
 [0.2        0.30855118]
 [0.3        1.81394373]
 [0.4        1.50076133]
 [0.5        0.90391841]
 [0.6        0.70323297]
 [0.7        1.65396101]
 [0.8        0.93078739]
 [0.9        0.5298796 ]
 [1.         1.25026146]
 [1.1        1.14846561]
 [1.14141667 1.91922666]]",0,0.733
1,m,25,english,5,2,english,2024-02-09 13:54:52.617377,False,2,408,sounds\french\audio/french_668.wav,"[[  0.          29.27228259]
 [  0.1         44.61886338]
 [  0.2        -99.37151223]
 [  0.3        -43.50012214]
 [  0.4        -59.48264573]
 [  0.5         -9.75520018]
 [  0.6        -11.86740044]
 [  0.7         74.75745741]
 [  0.8         57.50233643]
 [  0.9        -23.1818058 ]
 [  1.          30.6351759 ]
 [  1.1        -64.15483503]
 [  1.14141667 -17.76472581]]","[[0.         0.3188214 ]
 [0.1        0.83567332]
 [0.2        1.37479397]
 [0.3        1.52422833]
 [0.4        1.47592496]
 [0.5        0.98185706]
 [0.6        0.8144327 ]
 [0.7        0.15769834]
 [0.8        0.61225333]
 [0.9        0.30532124]
 [1.         0.84973926]
 [1.1        1.73680039]
 [1.14141667 1.07000134]]",1,0.378
1,m,25,english,5,2,english,2024-02-09 13:54:52.617377,False,2,409,sounds\french\audio/french_145.wav,"[[  0.          47.06287253]
 [  0.1         -3.58159028]
 [  0.2        -40.8693055 ]
 [  0.3        -80.8752163 ]
 [  0.4        -29.67084936]
 [  0.5        -16.09636873]
 [  0.6         28.46658229]
 [  0.7          4.2007743 ]
 [  0.8         22.24117317]
 [  0.9         33.5185267 ]
 [  1.         -45.71589409]
 [  1.1        -31.5800077 ]
 [  1.14141667 -68.85261891]]","[[0.         0.66108   ]
 [0.1        1.76438723]
 [0.2        1.27982498]
 [0.3        1.02482856]
 [0.4        1.23928714]
 [0.5        0.03289303]
 [0.6        1.30220706]
 [0.7        0.00879255]
 [0.8        1.14421532]
 [0.9        1.29113643]
 [1.         0.21462711]
 [1.1        0.76658856]
 [1.14141667 0.02669372]]",0,0.585
1,m,25,english,5,2,english,2024-02-09 13:54:52.617377,False,2,410,sounds\french\audio/french_757.wav,"[[  0.           6.48639762]
 [  0.1        -51.86545104]
 [  0.2         13.60583501]
 [  0.3         42.98326891]
 [  0.4         80.68221451]
 [  0.5         60.20667087]
 [  0.6        -66.39272407]
 [  0.7        -56.86759688]
 [  0.8         31.92005434]
 [  0.9        -15.9358313 ]
 [  1.         -11.85374841]
 [  1.1        -30.88500349]
 [  1.14141667  54.27189093]]","[[0.         0.21123235]
 [0.1        0.07273278]
 [0.2        1.91645599]
 [0.3        0.23026147]
 [0.4        0.90860197]
 [0.5        1.24090146]
 [0.6        1.63751086]
 [0.7        1.4449834 ]
 [0.8        0.31701973]
 [0.9        0.97326814]
 [1.         0.32789054]
 [1.1        0.1026242 ]
 [1.14141667 1.17122037]]",1,1.067
1,m,25,english,5,2,english,2024-02-09 13:54:52.617377,False,2,411,sounds\french\audio/french_889.wav,"[[  0.          85.2733813 ]
 [  0.1         -9.17658369]
 [  0.2        -74.95002821]
 [  0.3        -15.14184609]
 [  0.4         15.16006898]
 [  0.5        -47.48400349]
 [  0.6        -79.05067021]
 [  0.7         36.11246432]
 [  0.8        -10.42928376]
 [  0.9        -38.21466303]
 [  1.         -74.40390494]
 [  1.1         48.21849642]
 [  1.14141667  70.85826142]]","[[0.         0.45548566]
 [0.1        0.42780618]
 [0.2        1.13904578]
 [0.3        0.79367721]
 [0.4        0.33758667]
 [0.5        0.33594429]
 [0.6        1.05553209]
 [0.7        1.55353839]
 [0.8        0.48612759]
 [0.9        1.14132878]
 [1.         1.27612663]
 [1.1        0.91551084]
 [1.14141667 1.65751286]]",0,0.405
1,m,25,english,5,2,english,2024-02-09 13:54:52.617377,False,2,412,sounds\french\audio/french_977.wav,"[[  0.          15.40856419]
 [  0.1         81.46805689]
 [  0.2         43.89308042]
 [  0.3         93.35037498]
 [  0.4          3.2681625 ]
 [  0.5        -75.88947461]
 [  0.6         91.13685184]
 [  0.7         96.09454505]
 [  0.8         78.17173371]
 [  0.9        -80.29188727]
 [  1.         -46.23088213]
 [  1.1         89.87184488]
 [  1.14141667   6.68151837]]","[[0.         0.53095875]
 [0.1        0.93360858]
 [0.2        0.77425644]
 [0.3        1.11829357]
 [0.4        0.24977354]
 [0.5        0.48867473]
 [0.6        1.15425488]
 [0.7        1.86719302]
 [0.8        0.08278745]
 [0.9        1.06191816]
 [1.         0.26096987]
 [1.1        1.26454875]
 [1.14141667 1.39517251]]",1,0.742
1,m,25,english,5,2,english,2024-02-09 13:54:52.617377,False,2,413,sounds\french\audio/french_353.wav,"[[  0.           7.49599561]
 [  0.1         90.99173731]
 [  0.2         71.10742098]
 [  0.3         15.87314529]
 [  0.4         15.52628971]
 [  0.5         -9.56525823]
 [  0.6        -29.5582355 ]
 [  0.7        -72.34274216]
 [  0.8        -26.51998188]
 [  0.9        -28.47547974]
 [  1.         -74.51575066]
 [  1.1        -87.86413437]
 [  1.14141667 -29.35747055]]","[[0.         0.78187281]
 [0.1        1.82618714]
 [0.2        1.26697162]
 [0.3        1.13548939]
 [0.4        0.84893987]
 [0.5        1.13727977]
 [0.6        0.8172553 ]
 [0.7        0.64217318]
 [0.8        1.77406241]
 [0.9        1.34157838]
 [1.         0.26802429]
 [1.1        0.73069124]
 [1.14141667 1.49928581]]",0,0.83
1,m,25,english,5,2,english,2024-02-09 13:54:52.617377,False,2,414,sounds\french\audio/french_529.wav,"[[  0.          68.21405675]
 [  0.1        -26.26254382]
 [  0.2         35.91187259]
 [  0.3        -90.62874651]
 [  0.4         48.9626863 ]
 [  0.5        -34.38890804]
 [  0.6        -26.35114845]
 [  0.7         76.17282181]
 [  0.8        -86.28711417]
 [  0.9        -66.41984683]
 [  1.          74.29634714]
 [  1.1        -35.97062469]
 [  1.14141667  81.32540921]]","[[0.         0.55022537]
 [0.1        1.84018601]
 [0.2        1.28391887]
 [0.3        0.7250288 ]
 [0.4        0.78464607]
 [0.5        0.26698233]
 [0.6        0.62081799]
 [0.7        1.40858926]
 [0.8        0.07240201]
 [0.9        0.58270484]
 [1.         0.30597621]
 [1.1        0.43438998]
 [1.14141667 1.7101157 ]]",1,0.912
1,m,25,english,5,2,english,2024-02-09 13:54:52.617377,False,2,415,sounds\french\audio/french_85.wav,"[[  0.           3.08109357]
 [  0.1        -21.54269935]
 [  0.2         58.40468752]
 [  0.3        -44.80508381]
 [  0.4         15.37543313]
 [  0.5        -32.72970915]
 [  0.6         17.52827206]
 [  0.7        -36.57417586]
 [  0.8        -67.33478788]
 [  0.9        -33.90304802]
 [  1.          66.89588482]
 [  1.1         72.72777812]
 [  1.14141667  23.33179158]]","[[0.         0.79505741]
 [0.1        1.39851671]
 [0.2        1.92719931]
 [0.3        0.09306407]
 [0.4        0.59942855]
 [0.5        1.93601007]
 [0.6        0.67895574]
 [0.7        1.40501236]
 [0.8        1.20657959]
 [0.9        0.3359078 ]
 [1.         1.46542978]
 [1.1        0.72819859]
 [1.14141667 0.55736633]]",0,0.413
1,m,25,english,5,2,english,2024-02-09 13:54:52.617377,False,2,416,sounds\french\audio/french_611.wav,"[[  0.          27.54692735]
 [  0.1        -96.2127233 ]
 [  0.2         43.54084756]
 [  0.3         50.94582254]
 [  0.4        -43.15848463]
 [  0.5        -50.66220426]
 [  0.6         69.56527171]
 [  0.7        -11.37808001]
 [  0.8         45.13793263]
 [  0.9         96.10669883]
 [  1.          -3.26574927]
 [  1.1        -48.82710358]
 [  1.14141667  63.81362106]]","[[0.         0.7451578 ]
 [0.1        0.59678104]
 [0.2        0.93535243]
 [0.3        0.78372242]
 [0.4        0.88792907]
 [0.5        0.42171327]
 [0.6        0.70649712]
 [0.7        1.43646296]
 [0.8        1.45654876]
 [0.9        1.37339169]
 [1.         1.82405735]
 [1.1        1.66591353]
 [1.14141667 1.48395862]]",0,0.537
1,m,25,english,5,2,english,2024-02-09 13:54:52.617377,False,2,417,sounds\french\audio/french_899.wav,"[[  0.         -16.73578941]
 [  0.1        -42.4241494 ]
 [  0.2        -55.51296948]
 [  0.3        -85.08144186]
 [  0.4         49.18498444]
 [  0.5         -2.46458868]
 [  0.6        -74.57160954]
 [  0.7         20.90286637]
 [  0.8         51.96240349]
 [  0.9        -33.95606266]
 [  1.         -16.34117297]
 [  1.1         54.39021844]
 [  1.14141667 -77.08862681]]","[[0.         1.51099297]
 [0.1        1.08608303]
 [0.2        1.96213588]
 [0.3        0.7041881 ]
 [0.4        1.45679841]
 [0.5        0.85156083]
 [0.6        0.63692628]
 [0.7        0.08255461]
 [0.8        1.6720077 ]
 [0.9        0.92070581]
 [1.         0.77471652]
 [1.1        1.29770301]
 [1.14141667 1.26837296]]",1,0.405
1,m,25,english,5,2,english,2024-02-09 13:54:52.617377,False,2,418,sounds\french\audio/french_897.wav,"[[  0.         -26.22801359]
 [  0.1         54.88249524]
 [  0.2        -61.89999753]
 [  0.3        -39.16934717]
 [  0.4        -83.10033466]
 [  0.5        -24.03027332]
 [  0.6        -10.01438576]
 [  0.7        -53.20735298]
 [  0.8         -7.45882083]
 [  0.9         24.36426577]
 [  1.         -43.69873215]
 [  1.1          1.62866067]
 [  1.14141667  -5.58077754]]","[[0.         1.74666581]
 [0.1        0.37705953]
 [0.2        1.97260084]
 [0.3        0.50629265]
 [0.4        1.99794903]
 [0.5        1.02145621]
 [0.6        1.05564508]
 [0.7        0.634951  ]
 [0.8        1.03539482]
 [0.9        0.88460179]
 [1.         0.12128671]
 [1.1        1.46236151]
 [1.14141667 0.62307572]]",1,0.881
1,m,25,english,5,2,english,2024-02-09 13:54:52.617377,False,2,419,sounds\french\audio/french_976.wav,"[[  0.         -62.96972063]
 [  0.1        -26.61167246]
 [  0.2         44.65744226]
 [  0.3        -45.10081954]
 [  0.4        -19.39771586]
 [  0.5         -6.74330021]
 [  0.6        -92.2188675 ]
 [  0.7          3.8955825 ]
 [  0.8        -58.18459979]
 [  0.9         47.27824977]
 [  1.          21.78065118]
 [  1.1        -34.33033459]
 [  1.14141667  59.55841944]]","[[0.         0.28137182]
 [0.1        1.36324422]
 [0.2        0.73559884]
 [0.3        0.69765519]
 [0.4        1.05398301]
 [0.5        0.92767004]
 [0.6        1.8670127 ]
 [0.7        0.42732482]
 [0.8        1.04518319]
 [0.9        0.19121007]
 [1.         0.50101639]
 [1.1        0.92471972]
 [1.14141667 0.33119465]]",1,0.644
1,m,25,english,5,2,english,2024-02-09 13:54:52.617377,False,2,420,sounds\french\audio/french_369.wav,"[[  0.          69.75074481]
 [  0.1        -10.40899833]
 [  0.2         85.57878117]
 [  0.3         15.39701213]
 [  0.4         83.19518913]
 [  0.5         20.33595166]
 [  0.6         10.594299  ]
 [  0.7        -65.1676687 ]
 [  0.8         49.76363472]
 [  0.9        -78.66253889]
 [  1.           4.39215728]
 [  1.1        -85.73946609]
 [  1.14141667  53.02267255]]","[[0.         1.46736973]
 [0.1        0.13737814]
 [0.2        1.34631707]
 [0.3        0.46028441]
 [0.4        0.141543  ]
 [0.5        0.46259405]
 [0.6        0.96314063]
 [0.7        0.97877892]
 [0.8        1.10716642]
 [0.9        0.40650809]
 [1.         1.82064787]
 [1.1        1.61141022]
 [1.14141667 0.46038383]]",0,0.265
1,m,25,english,5,2,english,2024-02-09 13:54:52.617377,False,2,421,sounds\french\audio/french_26.wav,"[[  0.         -81.500945  ]
 [  0.1        -65.11333571]
 [  0.2        -77.7704124 ]
 [  0.3         34.60738715]
 [  0.4        -21.13268023]
 [  0.5        -67.64311047]
 [  0.6         75.6271836 ]
 [  0.7        -50.68101632]
 [  0.8         22.77029763]
 [  0.9         41.21511466]
 [  1.         -24.64698103]
 [  1.1        -60.0366715 ]
 [  1.14141667  78.73354468]]","[[0.         0.85880669]
 [0.1        1.39583556]
 [0.2        1.33635367]
 [0.3        0.06972488]
 [0.4        1.32038127]
 [0.5        1.38878371]
 [0.6        0.79062113]
 [0.7        1.95456048]
 [0.8        1.27674604]
 [0.9        0.82824768]
 [1.         0.54540622]
 [1.1        0.3520348 ]
 [1.14141667 0.71671085]]",1,0.898
1,m,25,english,5,2,english,2024-02-09 13:54:52.617377,False,2,422,sounds\french\audio/french_364.wav,"[[  0.         -97.50154986]
 [  0.1        -96.75823036]
 [  0.2        -47.50259118]
 [  0.3         -0.40626285]
 [  0.4        -80.16470195]
 [  0.5        -95.76954551]
 [  0.6         71.28277546]
 [  0.7         17.11664647]
 [  0.8        -50.68078516]
 [  0.9         84.91146996]
 [  1.         -28.74408439]
 [  1.1        -16.57627289]
 [  1.14141667  15.97601044]]","[[0.         1.39662883]
 [0.1        0.95608776]
 [0.2        1.52513334]
 [0.3        1.08680296]
 [0.4        0.33609261]
 [0.5        0.74984016]
 [0.6        0.21907723]
 [0.7        0.46362163]
 [0.8        1.89095405]
 [0.9        0.52755349]
 [1.         1.92916741]
 [1.1        0.73615902]
 [1.14141667 0.40543275]]",0,0.421
1,m,25,english,5,2,english,2024-02-09 13:54:52.617377,False,2,423,sounds\french\audio/french_272.wav,"[[  0.          42.6629916 ]
 [  0.1        -44.58032128]
 [  0.2        -63.79515668]
 [  0.3         65.68552079]
 [  0.4        -73.43471872]
 [  0.5         -9.94342822]
 [  0.6        -63.79991276]
 [  0.7         10.2914571 ]
 [  0.8         44.90388393]
 [  0.9         11.26467692]
 [  1.         -19.2327242 ]
 [  1.1        -57.17946334]
 [  1.14141667  -5.9395339 ]]","[[0.         0.82181087]
 [0.1        1.24121052]
 [0.2        1.18763114]
 [0.3        1.12080473]
 [0.4        0.3216303 ]
 [0.5        1.28123666]
 [0.6        1.07872971]
 [0.7        1.60584441]
 [0.8        1.61709033]
 [0.9        0.76221234]
 [1.         1.01212213]
 [1.1        0.46924284]
 [1.14141667 0.6492678 ]]",1,0.255
1,m,25,english,5,2,english,2024-02-09 13:54:52.617377,False,2,424,sounds\french\audio/french_758.wav,"[[  0.          41.40251797]
 [  0.1         83.22068517]
 [  0.2        -17.02894859]
 [  0.3        -57.78871378]
 [  0.4        -26.28467223]
 [  0.5          1.34940172]
 [  0.6         73.49827232]
 [  0.7        -10.43882846]
 [  0.8        -36.52394931]
 [  0.9        -31.42286667]
 [  1.         -59.6641431 ]
 [  1.1         39.4290765 ]
 [  1.14141667 -44.19004616]]","[[0.         0.56085544]
 [0.1        0.97554237]
 [0.2        0.01004143]
 [0.3        1.03626599]
 [0.4        0.33244231]
 [0.5        1.08481581]
 [0.6        0.0829296 ]
 [0.7        1.10238348]
 [0.8        1.35072621]
 [0.9        1.63267541]
