subj,sex,age,language,english,french,native_lang,date,practice,block,trial,stim,pitch,stretch,response,rt
8760830999,f,19,english,5,4,english,2024-02-09 14:29:59.482365,False,2,253,sounds\french\audio/french_397.wav,"[[  0.         -85.38502006]
 [  0.1         34.92223357]
 [  0.2        -71.66551154]
 [  0.3        -17.9053527 ]
 [  0.4         78.38950628]
 [  0.5         54.19336725]
 [  0.6        -11.24053552]
 [  0.7         37.03077056]
 [  0.8        -81.36815514]
 [  0.9        -30.90065257]
 [  1.         -19.65353997]
 [  1.1         -7.76524695]
 [  1.14141667  48.47655245]]","[[0.         1.9856843 ]
 [0.1        0.56062318]
 [0.2        0.42097575]
 [0.3        1.97088475]
 [0.4        0.52227494]
 [0.5        0.88329217]
 [0.6        1.60057527]
 [0.7        0.29723422]
 [0.8        0.5759232 ]
 [0.9        1.31717543]
 [1.         1.378999  ]
 [1.1        0.052171  ]
 [1.14141667 1.47911639]]",1,3.237
8760830999,f,19,english,5,4,english,2024-02-09 14:29:59.482365,False,2,254,sounds\french\audio/french_877.wav,"[[  0.          35.01358719]
 [  0.1         44.86740008]
 [  0.2        -79.59292407]
 [  0.3         -7.22750522]
 [  0.4         -2.5216875 ]
 [  0.5        -30.65077741]
 [  0.6         -4.86146078]
 [  0.7        -89.51285107]
 [  0.8        -40.02073069]
 [  0.9         96.12185009]
 [  1.          90.68588052]
 [  1.1         18.23570323]
 [  1.14141667 -87.75305818]]","[[0.         1.80553919]
 [0.1        1.10205229]
 [0.2        1.66583823]
 [0.3        0.82975553]
 [0.4        1.38376145]
 [0.5        0.89494766]
 [0.6        0.02389059]
 [0.7        1.19273137]
 [0.8        0.7956871 ]
 [0.9        1.13306   ]
 [1.         0.93972062]
 [1.1        0.41860884]
 [1.14141667 1.12017052]]",1,0.461
8760830999,f,19,english,5,4,english,2024-02-09 14:29:59.482365,False,2,255,sounds\french\audio/french_250.wav,"[[  0.          62.52683965]
 [  0.1        -59.15891797]
 [  0.2         72.29013493]
 [  0.3          7.18381601]
 [  0.4        -40.54501031]
 [  0.5         11.17660764]
 [  0.6        -12.72402035]
 [  0.7         86.4128945 ]
 [  0.8        -22.42213109]
 [  0.9        -17.96201743]
 [  1.         -65.83896619]
 [  1.1         51.2878128 ]
 [  1.14141667 -35.15908719]]","[[0.         0.48083999]
 [0.1        0.2426368 ]
 [0.2        0.50289968]
 [0.3        0.96187942]
 [0.4        0.79236689]
 [0.5        0.45761642]
 [0.6        0.22457871]
 [0.7        1.19019688]
 [0.8        0.95557976]
 [0.9        0.73743866]
 [1.         1.58004952]
 [1.1        1.86095595]
 [1.14141667 0.98214179]]",1,0.917
8760830999,f,19,english,5,4,english,2024-02-09 14:29:59.482365,False,2,256,sounds\french\audio/french_741.wav,"[[  0.          14.15097335]
 [  0.1        -32.15615978]
 [  0.2          0.97880502]
 [  0.3         62.8807323 ]
 [  0.4         14.95483835]
 [  0.5        -47.52261373]
 [  0.6         40.92949838]
 [  0.7        -35.15475222]
 [  0.8          0.88649301]
 [  0.9         -1.68344265]
 [  1.         -73.2966165 ]
 [  1.1          0.32925838]
 [  1.14141667  57.70395775]]","[[0.         0.41697978]
 [0.1        0.82705056]
 [0.2        0.21383898]
 [0.3        0.34603532]
 [0.4        0.81976538]
 [0.5        0.42184555]
 [0.6        0.62052888]
 [0.7        0.04672478]
 [0.8        0.17050367]
 [0.9        0.32486831]
 [1.         1.96245172]
 [1.1        1.95075609]
 [1.14141667 1.58857603]]",0,0.575
8760830999,f,19,english,5,4,english,2024-02-09 14:29:59.482365,False,2,257,sounds\french\audio/french_887.wav,"[[  0.          51.22765524]
 [  0.1        -81.07367684]
 [  0.2         34.20865774]
 [  0.3        -78.61451503]
 [  0.4         73.89874258]
 [  0.5         55.35061233]
 [  0.6        -28.08868107]
 [  0.7        -75.13470752]
 [  0.8          3.63790333]
 [  0.9         59.68879821]
 [  1.          81.8642707 ]
 [  1.1         47.07029042]
 [  1.14141667 -11.21707174]]","[[0.         0.21201127]
 [0.1        0.25647637]
 [0.2        1.02175532]
 [0.3        0.73712994]
 [0.4        1.36337648]
 [0.5        0.96545016]
 [0.6        1.49552449]
 [0.7        1.78802656]
 [0.8        0.81832   ]
 [0.9        0.591695  ]
 [1.         1.54712887]
 [1.1        1.77599521]
 [1.14141667 0.52830395]]",1,0.44
8760830999,f,19,english,5,4,english,2024-02-09 14:29:59.482365,False,2,258,sounds\french\audio/french_200.wav,"[[  0.          10.66473812]
 [  0.1        -23.10865754]
 [  0.2        -26.94851482]
 [  0.3        -33.10340519]
 [  0.4         49.54751917]
 [  0.5        -36.16101415]
 [  0.6         69.93456636]
 [  0.7        -11.46588409]
 [  0.8        -34.69840246]
 [  0.9         30.23959847]
 [  1.         -25.32995204]
 [  1.1         23.48875346]
 [  1.14141667 -45.42969725]]","[[0.         1.15832736]
 [0.1        0.48233726]
 [0.2        0.16521916]
 [0.3        0.50966441]
 [0.4        0.60857897]
 [0.5        0.8415653 ]
 [0.6        1.89309681]
 [0.7        1.76792236]
 [0.8        0.32179511]
 [0.9        1.57618572]
 [1.         1.69305609]
 [1.1        0.93398883]
 [1.14141667 0.80903223]]",1,0.271
8760830999,f,19,english,5,4,english,2024-02-09 14:29:59.482365,False,2,259,sounds\french\audio/french_560.wav,"[[  0.         -11.74144783]
 [  0.1         -0.35641237]
 [  0.2          4.21534923]
 [  0.3        -32.05544241]
 [  0.4        -88.46473304]
 [  0.5        -81.48556818]
 [  0.6         65.45345491]
 [  0.7        -34.34624363]
 [  0.8        -19.91129378]
 [  0.9        -91.92174427]
 [  1.         -10.81219232]
 [  1.1         76.35325221]
 [  1.14141667  76.66363562]]","[[0.         1.20996667]
 [0.1        0.39351598]
 [0.2        0.8276889 ]
 [0.3        0.43459246]
 [0.4        0.34472109]
 [0.5        1.11269407]
 [0.6        1.51504069]
 [0.7        1.97532041]
 [0.8        1.15858954]
 [0.9        1.16478245]
 [1.         1.17685042]
 [1.1        1.01088448]
 [1.14141667 0.00977172]]",1,0.389
8760830999,f,19,english,5,4,english,2024-02-09 14:29:59.482365,False,2,260,sounds\french\audio/french_527.wav,"[[  0.          82.21391649]
 [  0.1          8.23446924]
 [  0.2        -66.78536599]
 [  0.3         91.71269389]
 [  0.4         38.34506198]
 [  0.5         11.54452605]
 [  0.6         96.28222232]
 [  0.7        -47.65455755]
 [  0.8        -79.10134883]
 [  0.9         28.80832425]
 [  1.          42.88340192]
 [  1.1        -29.0066371 ]
 [  1.14141667 -55.47213333]]","[[0.         0.16629569]
 [0.1        0.53206339]
 [0.2        0.7302175 ]
 [0.3        1.32409314]
 [0.4        0.73265348]
 [0.5        1.69253874]
 [0.6        1.17892536]
 [0.7        0.38924981]
 [0.8        1.19695385]
 [0.9        0.99788434]
 [1.         1.07124619]
 [1.1        1.45535326]
 [1.14141667 1.05284773]]",1,0.526
8760830999,f,19,english,5,4,english,2024-02-09 14:29:59.482365,False,2,261,sounds\french\audio/french_761.wav,"[[  0.          -4.65368555]
 [  0.1        -95.02047891]
 [  0.2        -46.13477508]
 [  0.3         44.60720678]
 [  0.4        -56.15470629]
 [  0.5         -5.62885822]
 [  0.6         16.04939415]
 [  0.7         -7.40448264]
 [  0.8        -49.19151668]
 [  0.9        -21.58992812]
 [  1.          97.9984375 ]
 [  1.1        -54.45281711]
 [  1.14141667  96.15058985]]","[[0.         1.68992553]
 [0.1        1.90989282]
 [0.2        1.32561582]
 [0.3        1.43060887]
 [0.4        0.29002682]
 [0.5        1.48383664]
 [0.6        0.48742164]
 [0.7        0.57849003]
 [0.8        0.03179743]
 [0.9        1.574395  ]
 [1.         1.21779741]
 [1.1        1.83689478]
 [1.14141667 0.73963704]]",1,0.498
8760830999,f,19,english,5,4,english,2024-02-09 14:29:59.482365,False,2,262,sounds\french\audio/french_608.wav,"[[  0.         -30.86247379]
 [  0.1         72.26893528]
 [  0.2         28.06407444]
 [  0.3          5.69112166]
 [  0.4        -89.82873455]
 [  0.5        -94.47368142]
 [  0.6         87.02077085]
 [  0.7         45.62068099]
 [  0.8         17.9702258 ]
 [  0.9        -83.67929995]
 [  1.          11.26047712]
 [  1.1        -17.34118799]
 [  1.14141667  58.61545887]]","[[0.         1.5835974 ]
 [0.1        1.06170467]
 [0.2        1.27495408]
 [0.3        0.05673097]
 [0.4        1.69011547]
 [0.5        1.30432872]
 [0.6        0.95720889]
 [0.7        1.61346479]
 [0.8        1.94079828]
 [0.9        1.39950728]
 [1.         1.54288228]
 [1.1        1.65188017]
 [1.14141667 0.6480034 ]]",1,0.309
8760830999,f,19,english,5,4,english,2024-02-09 14:29:59.482365,False,2,263,sounds\french\audio/french_580.wav,"[[  0.          25.72367309]
 [  0.1        -90.22264513]
 [  0.2        -41.00446139]
 [  0.3         -5.68850956]
 [  0.4         73.58502836]
 [  0.5        -21.93392185]
 [  0.6         22.10254243]
 [  0.7        -79.6738306 ]
 [  0.8        -14.71861733]
 [  0.9         -0.72546407]
 [  1.          14.32622757]
 [  1.1        -17.22514553]
 [  1.14141667  91.12485479]]","[[0.         0.83672034]
 [0.1        1.17700555]
 [0.2        0.86031616]
 [0.3        1.31884624]
 [0.4        0.50096962]
 [0.5        1.67954592]
 [0.6        1.67101568]
 [0.7        0.19873264]
 [0.8        1.68323733]
 [0.9        0.50457607]
 [1.         1.32157054]
 [1.1        0.77895262]
 [1.14141667 0.13067195]]",0,0.782
8760830999,f,19,english,5,4,english,2024-02-09 14:29:59.482365,False,2,264,sounds\french\audio/french_431.wav,"[[  0.         -96.46600651]
 [  0.1        -23.28140162]
 [  0.2         85.48818596]
 [  0.3         73.49265298]
 [  0.4         38.7002008 ]
 [  0.5         18.90003165]
 [  0.6         27.43188712]
 [  0.7        -91.05581927]
 [  0.8        -44.52669984]
 [  0.9         79.68397794]
 [  1.          78.15410054]
 [  1.1         10.90379077]
 [  1.14141667 -66.30427155]]","[[0.         1.54464496]
 [0.1        0.36629413]
 [0.2        1.51270847]
 [0.3        1.99092223]
 [0.4        1.14324987]
 [0.5        1.31996998]
 [0.6        1.7759732 ]
 [0.7        1.57530669]
 [0.8        1.94282823]
 [0.9        0.21600784]
 [1.         1.61421717]
 [1.1        1.44824139]
 [1.14141667 0.06362757]]",1,0.328
8760830999,f,19,english,5,4,english,2024-02-09 14:29:59.482365,False,2,265,sounds\french\audio/french_887.wav,"[[  0.          51.22765524]
 [  0.1        -81.07367684]
 [  0.2         34.20865774]
 [  0.3        -78.61451503]
 [  0.4         73.89874258]
 [  0.5         55.35061233]
 [  0.6        -28.08868107]
 [  0.7        -75.13470752]
 [  0.8          3.63790333]
 [  0.9         59.68879821]
 [  1.          81.8642707 ]
 [  1.1         47.07029042]
 [  1.14141667 -11.21707174]]","[[0.         0.21201127]
 [0.1        0.25647637]
 [0.2        1.02175532]
 [0.3        0.73712994]
 [0.4        1.36337648]
 [0.5        0.96545016]
 [0.6        1.49552449]
 [0.7        1.78802656]
 [0.8        0.81832   ]
 [0.9        0.591695  ]
 [1.         1.54712887]
 [1.1        1.77599521]
 [1.14141667 0.52830395]]",1,0.481
8760830999,f,19,english,5,4,english,2024-02-09 14:29:59.482365,False,2,266,sounds\french\audio/french_383.wav,"[[  0.         -39.02457542]
 [  0.1        -77.49985517]
 [  0.2         50.91368445]
 [  0.3         10.63848849]
 [  0.4         47.34974353]
 [  0.5        -18.10712895]
 [  0.6        -59.13978187]
 [  0.7        -95.02289951]
 [  0.8         -1.09114116]
 [  0.9        -71.36171918]
 [  1.          15.57019989]
 [  1.1        -93.68359708]
 [  1.14141667 -46.06271285]]","[[0.         1.13235422]
 [0.1        0.41642205]
 [0.2        1.49751518]
 [0.3        0.37045866]
 [0.4        0.15272125]
 [0.5        0.11717599]
 [0.6        0.84303964]
 [0.7        1.97903491]
 [0.8        0.29246172]
 [0.9        1.45734716]
 [1.         1.94987581]
 [1.1        1.48364755]
 [1.14141667 1.01304345]]",1,0.281
8760830999,f,19,english,5,4,english,2024-02-09 14:29:59.482365,False,2,267,sounds\french\audio/french_875.wav,"[[  0.          45.85158568]
 [  0.1          7.11917254]
 [  0.2         78.12134314]
 [  0.3         97.47827294]
 [  0.4        -16.31048208]
 [  0.5        -57.92090537]
 [  0.6        -80.48850895]
 [  0.7         14.41161829]
 [  0.8         30.39544131]
 [  0.9        -13.64067474]
 [  1.          10.63284956]
 [  1.1         34.52905644]
 [  1.14141667  37.26363769]]","[[0.         0.742891  ]
 [0.1        1.89433175]
 [0.2        1.6243666 ]
 [0.3        0.98769572]
 [0.4        0.57089061]
 [0.5        1.46131689]
 [0.6        0.74274184]
 [0.7        0.99318799]
 [0.8        1.87326507]
 [0.9        0.6995089 ]
 [1.         1.63464253]
 [1.1        0.5924672 ]
 [1.14141667 1.26762878]]",1,1.0
8760830999,f,19,english,5,4,english,2024-02-09 14:29:59.482365,False,2,268,sounds\french\audio/french_108.wav,"[[  0.         -15.71044219]
 [  0.1        -24.07766933]
 [  0.2         54.15275115]
 [  0.3        -63.07502063]
 [  0.4         24.68553203]
 [  0.5        -82.74094911]
 [  0.6        -79.1722737 ]
 [  0.7         41.74110491]
 [  0.8         95.04343592]
 [  0.9        -75.98698192]
 [  1.         -28.48511945]
 [  1.1         81.70330103]
 [  1.14141667 -76.43032585]]","[[0.         1.73834837]
 [0.1        0.57132816]
 [0.2        0.58357142]
 [0.3        1.80514009]
 [0.4        0.34682793]
 [0.5        1.15494377]
 [0.6        0.83484864]
 [0.7        0.32346488]
 [0.8        0.4811934 ]
 [0.9        1.39829932]
 [1.         0.07997607]
 [1.1        0.5267169 ]
 [1.14141667 0.46271263]]",1,0.372
8760830999,f,19,english,5,4,english,2024-02-09 14:29:59.482365,False,2,269,sounds\french\audio/french_206.wav,"[[  0.          43.92395117]
 [  0.1         39.31302251]
 [  0.2        -42.8927459 ]
 [  0.3        -42.74094368]
 [  0.4        -54.37015978]
 [  0.5         58.70658254]
 [  0.6        -93.65162754]
 [  0.7         21.97210984]
 [  0.8        -19.85883058]
 [  0.9         52.86747229]
 [  1.          28.65042427]
 [  1.1         97.07118546]
 [  1.14141667  -9.08669324]]","[[0.         1.77403628]
 [0.1        1.60288441]
 [0.2        1.13153884]
 [0.3        1.48428597]
 [0.4        0.87838006]
 [0.5        1.89671484]
 [0.6        0.9605472 ]
 [0.7        1.59310841]
 [0.8        0.68468678]
 [0.9        1.01785064]
 [1.         1.27680634]
 [1.1        0.38746368]
 [1.14141667 1.12107316]]",1,0.733
8760830999,f,19,english,5,4,english,2024-02-09 14:29:59.482365,False,2,270,sounds\french\audio/french_906.wav,"[[  0.          94.19134076]
 [  0.1        -33.3914726 ]
 [  0.2         89.0954816 ]
 [  0.3         33.95372214]
 [  0.4         39.46652721]
 [  0.5        -59.34550424]
 [  0.6         82.89634223]
 [  0.7         65.83754994]
 [  0.8         79.03979174]
 [  0.9         -5.26869148]
 [  1.         -11.60722286]
 [  1.1        -90.04101612]
 [  1.14141667  92.05953945]]","[[0.         1.81442497]
 [0.1        0.92341441]
 [0.2        0.20593764]
 [0.3        0.6664786 ]
 [0.4        1.04326326]
 [0.5        1.00260981]
 [0.6        1.70924615]
 [0.7        1.32883795]
 [0.8        1.05343215]
 [0.9        0.85234764]
 [1.         0.70456839]
 [1.1        0.28255596]
 [1.14141667 1.51531647]]",1,0.334
8760830999,f,19,english,5,4,english,2024-02-09 14:29:59.482365,False,2,271,sounds\french\audio/french_700.wav,"[[  0.         -27.53247214]
 [  0.1        -29.71209931]
 [  0.2         10.89159195]
 [  0.3        -53.06982063]
 [  0.4        -47.25715366]
 [  0.5         12.01274328]
 [  0.6        -35.34261671]
 [  0.7         38.95748155]
 [  0.8         83.20971937]
 [  0.9        -65.50939015]
 [  1.          94.61096103]
 [  1.1         74.41841232]
 [  1.14141667  18.30440659]]","[[0.         1.49055523]
 [0.1        1.00637482]
 [0.2        0.22182663]
 [0.3        1.24768056]
 [0.4        1.67932013]
 [0.5        1.54412989]
 [0.6        1.68740312]
 [0.7        0.25312184]
 [0.8        0.49670462]
 [0.9        1.3467354 ]
 [1.         0.15356174]
 [1.1        1.29558082]
 [1.14141667 1.58223542]]",1,0.283
8760830999,f,19,english,5,4,english,2024-02-09 14:29:59.482365,False,2,272,sounds\french\audio/french_418.wav,"[[  0.          30.8158802 ]
 [  0.1        -49.53284919]
 [  0.2         36.79712785]
 [  0.3        -99.55359759]
 [  0.4         68.9088774 ]
 [  0.5         80.99957915]
 [  0.6          4.26486526]
 [  0.7        -17.5210691 ]
 [  0.8         62.53897835]
 [  0.9        -85.84748653]
 [  1.         -46.33715828]
 [  1.1         42.67097057]
 [  1.14141667 -75.9263862 ]]","[[0.         0.39666711]
 [0.1        1.06359174]
 [0.2        0.64757436]
 [0.3        1.7224486 ]
 [0.4        0.44902576]
 [0.5        1.67719648]
 [0.6        1.66921538]
 [0.7        1.5326406 ]
 [0.8        0.45272356]
 [0.9        1.5121066 ]
 [1.         0.28461943]
 [1.1        0.94734784]
 [1.14141667 0.46817887]]",1,0.501
8760830999,f,19,english,5,4,english,2024-02-09 14:29:59.482365,False,2,273,sounds\french\audio/french_812.wav,"[[  0.         -42.66002827]
 [  0.1        -63.45257727]
 [  0.2        -17.55899299]
 [  0.3         -6.53827268]
 [  0.4         82.73159926]
 [  0.5         13.20285819]
 [  0.6        -12.96734249]
 [  0.7        -74.04565338]
 [  0.8         43.93001564]
 [  0.9         -5.48619498]
 [  1.          51.20549239]
 [  1.1         48.53876007]
 [  1.14141667 -70.42678673]]","[[0.         0.44619032]
 [0.1        1.09752053]
 [0.2        1.94483115]
 [0.3        1.6322026 ]
 [0.4        1.42964573]
 [0.5        1.82803278]
 [0.6        1.23610149]
 [0.7        1.25749674]
 [0.8        1.19337031]
 [0.9        0.21250901]
 [1.         1.32924457]
 [1.1        0.52399169]
 [1.14141667 0.252725  ]]",0,0.744
8760830999,f,19,english,5,4,english,2024-02-09 14:29:59.482365,False,2,274,sounds\french\audio/french_936.wav,"[[  0.          67.52582955]
 [  0.1        -45.00790549]
 [  0.2         99.04057748]
 [  0.3        -68.36116283]
 [  0.4        -69.72509786]
 [  0.5         49.9602727 ]
 [  0.6        -86.20274362]
 [  0.7        -45.26451629]
 [  0.8         92.93059236]
 [  0.9         20.23217844]
 [  1.         -97.47433382]
 [  1.1         -0.33226463]
 [  1.14141667 -70.80442404]]","[[0.         0.02866994]
 [0.1        1.52120589]
 [0.2        1.49962967]
 [0.3        0.94170168]
 [0.4        1.45346446]
 [0.5        1.239675  ]
 [0.6        0.33483984]
 [0.7        0.80645918]
 [0.8        1.81014272]
 [0.9        0.27928591]
 [1.         0.6276723 ]
 [1.1        0.06404952]
 [1.14141667 0.03566212]]",0,0.813
8760830999,f,19,english,5,4,english,2024-02-09 14:29:59.482365,False,2,275,sounds\french\audio/french_993.wav,"[[  0.          12.15010971]
 [  0.1        -82.84639936]
 [  0.2        -20.79111952]
 [  0.3        -65.6849191 ]
 [  0.4         91.44268592]
 [  0.5         68.69317307]
 [  0.6        -10.77550368]
 [  0.7        -49.61168901]
 [  0.8         -0.95659448]
 [  0.9        -52.83875719]
 [  1.          18.01113285]
 [  1.1         54.17994577]
 [  1.14141667  62.64482751]]","[[0.         1.75305024]
 [0.1        1.84709621]
 [0.2        0.30086676]
 [0.3        1.77802679]
 [0.4        1.32826192]
 [0.5        1.38957999]
 [0.6        1.02740556]
 [0.7        1.11521635]
 [0.8        1.04000764]
 [0.9        0.85033094]
 [1.         0.82072098]
 [1.1        1.80257596]
 [1.14141667 0.77736437]]",1,0.139
8760830999,f,19,english,5,4,english,2024-02-09 14:29:59.482365,False,2,276,sounds\french\audio/french_645.wav,"[[  0.          72.31495758]
 [  0.1         33.02660592]
 [  0.2         34.75230783]
 [  0.3        -18.56661781]
 [  0.4          8.74487048]
 [  0.5        -10.39866584]
 [  0.6         -2.65155949]
 [  0.7         60.61639305]
 [  0.8         59.13088836]
 [  0.9        -78.24987601]
 [  1.          10.94023696]
 [  1.1         75.3572766 ]
 [  1.14141667  -5.37493528]]","[[0.         0.48297352]
 [0.1        0.83233139]
 [0.2        1.71239538]
 [0.3        1.40195872]
 [0.4        1.61832293]
 [0.5        1.2979752 ]
 [0.6        0.96060036]
 [0.7        0.64913106]
 [0.8        1.1310807 ]
 [0.9        0.33061151]
 [1.         1.5971495 ]
 [1.1        0.19394904]
 [1.14141667 0.40379368]]",1,0.2
8760830999,f,19,english,5,4,english,2024-02-09 14:29:59.482365,False,2,277,sounds\french\audio/french_663.wav,"[[  0.         -14.3254762 ]
 [  0.1         19.63428116]
 [  0.2        -91.68242216]
 [  0.3        -41.82283925]
 [  0.4        -72.80326657]
 [  0.5        -12.3349336 ]
 [  0.6        -15.30280268]
 [  0.7        -15.66686259]
 [  0.8        -77.03407899]
 [  0.9        -25.15547903]
 [  1.         -56.91868761]
 [  1.1         30.52061364]
 [  1.14141667 -30.87664349]]","[[0.         0.00837881]
 [0.1        1.01490054]
 [0.2        1.87093457]
 [0.3        1.17127261]
 [0.4        1.68516013]
 [0.5        0.32760374]
 [0.6        1.68388895]
 [0.7        1.95044404]
 [0.8        0.77619086]
 [0.9        0.62272065]
 [1.         0.1392137 ]
 [1.1        1.81424778]
 [1.14141667 0.71279161]]",0,0.828
8760830999,f,19,english,5,4,english,2024-02-09 14:29:59.482365,False,2,278,sounds\french\audio/french_260.wav,"[[  0.         -53.54532591]
 [  0.1         35.21996958]
 [  0.2        -90.61068842]
 [  0.3        -75.12121039]
 [  0.4         48.70710406]
 [  0.5         86.28946076]
 [  0.6         45.489544  ]
 [  0.7         44.57812094]
 [  0.8         44.11209944]
 [  0.9        -21.41342931]
 [  1.         -84.20192647]
 [  1.1        -99.95420293]
 [  1.14141667 -49.59774393]]","[[0.         1.79603491]
 [0.1        1.47877738]
 [0.2        1.16082327]
 [0.3        0.106313  ]
 [0.4        1.06841222]
 [0.5        1.74017904]
 [0.6        0.68432156]
 [0.7        0.65048224]
 [0.8        0.00926303]
 [0.9        1.21419888]
 [1.         0.78397589]
 [1.1        0.82899641]
 [1.14141667 1.2854771 ]]",1,0.749
8760830999,f,19,english,5,4,english,2024-02-09 14:29:59.482365,False,2,279,sounds\french\audio/french_609.wav,"[[  0.         -33.0990358 ]
 [  0.1        -76.8855135 ]
 [  0.2        -77.09744455]
 [  0.3         53.13274146]
 [  0.4         35.37902203]
 [  0.5         20.34548248]
 [  0.6         -6.72304145]
 [  0.7         18.07732321]
 [  0.8         95.53940519]
 [  0.9        -92.74085832]
 [  1.          56.61461398]
 [  1.1        -30.80451212]
 [  1.14141667  -4.98965675]]","[[0.         1.60128012]
 [0.1        1.70842232]
 [0.2        1.82827546]
 [0.3        0.14742697]
 [0.4        1.25283251]
 [0.5        0.26386793]
 [0.6        0.83898533]
 [0.7        0.31703682]
 [0.8        1.359658  ]
 [0.9        1.06120925]
 [1.         1.23233063]
 [1.1        0.16135233]
 [1.14141667 1.719186  ]]",0,0.996
8760830999,f,19,english,5,4,english,2024-02-09 14:29:59.482365,False,2,280,sounds\french\audio/french_796.wav,"[[  0.         -21.64188846]
 [  0.1         -7.10945612]
 [  0.2        -74.39719325]
 [  0.3        -54.61530314]
 [  0.4        -80.73225718]
 [  0.5          9.91679823]
 [  0.6        -97.91364168]
 [  0.7         49.57079751]
 [  0.8         70.95125658]
 [  0.9         31.08280056]
 [  1.         -13.33346658]
 [  1.1          3.95596596]
 [  1.14141667 -13.99518271]]","[[0.         1.54395317]
 [0.1        0.2941661 ]
 [0.2        0.97343698]
 [0.3        0.96871079]
 [0.4        1.80485159]
 [0.5        0.56868061]
 [0.6        1.75772708]
 [0.7        1.73544483]
 [0.8        0.94432617]
 [0.9        1.12597758]
 [1.         0.53392858]
 [1.1        0.6803009 ]
 [1.14141667 1.42581525]]",1,1.293
8760830999,f,19,english,5,4,english,2024-02-09 14:29:59.482365,False,2,281,sounds\french\audio/french_181.wav,"[[  0.         -95.95313982]
 [  0.1         91.63677354]
 [  0.2        -91.79980108]
 [  0.3         95.40210499]
 [  0.4         68.17989767]
 [  0.5         91.86803384]
 [  0.6         20.20115402]
 [  0.7        -36.24540979]
 [  0.8         20.77489363]
 [  0.9        -36.30620857]
 [  1.         -52.43059698]
 [  1.1        -66.44451369]
 [  1.14141667 -36.9073082 ]]","[[0.         0.44165639]
 [0.1        1.91213413]
 [0.2        1.20479938]
 [0.3        1.03854449]
 [0.4        0.34466606]
 [0.5        1.08947615]
 [0.6        0.89950013]
 [0.7        1.58660506]
 [0.8        1.10035668]
 [0.9        1.78772501]
 [1.         0.45092467]
 [1.1        1.08205846]
 [1.14141667 1.12829283]]",1,0.317
8760830999,f,19,english,5,4,english,2024-02-09 14:29:59.482365,False,2,282,sounds\french\audio/french_536.wav,"[[  0.         -52.4206548 ]
 [  0.1        -74.26891648]
 [  0.2         11.31126048]
 [  0.3        -21.61900245]
 [  0.4        -94.98146832]
 [  0.5         99.95155671]
 [  0.6        -88.3367002 ]
 [  0.7        -23.8710155 ]
 [  0.8         43.41576253]
 [  0.9         40.55887391]
 [  1.          34.47455049]
 [  1.1        -52.8153809 ]
 [  1.14141667  -3.00855762]]","[[0.         0.67962867]
 [0.1        0.63540929]
 [0.2        0.83661694]
 [0.3        1.85383119]
 [0.4        1.07036792]
 [0.5        1.52468216]
 [0.6        1.55319614]
 [0.7        1.12341702]
 [0.8        1.5546784 ]
 [0.9        0.54178369]
 [1.         1.26113571]
 [1.1        1.84040785]
 [1.14141667 1.97764464]]",1,0.22
8760830999,f,19,english,5,4,english,2024-02-09 14:29:59.482365,False,2,283,sounds\french\audio/french_246.wav,"[[  0.         -30.47504576]
 [  0.1        -83.06405686]
 [  0.2         62.50778564]
 [  0.3          8.87266429]
 [  0.4         44.6949174 ]
 [  0.5         38.79182234]
 [  0.6        -98.97339248]
 [  0.7        -24.61405849]
 [  0.8          0.11664969]
 [  0.9         41.40110598]
 [  1.         -40.48516798]
 [  1.1         70.26355015]
 [  1.14141667  92.29981678]]","[[0.         0.47785651]
 [0.1        1.85614621]
 [0.2        0.28079339]
 [0.3        1.15467711]
 [0.4        1.29610326]
 [0.5        0.14147162]
 [0.6        0.92649122]
 [0.7        0.74752986]
 [0.8        1.75089992]
 [0.9        0.0989963 ]
 [1.         0.24181159]
 [1.1        1.60406525]
 [1.14141667 0.31046435]]",0,0.585
8760830999,f,19,english,5,4,english,2024-02-09 14:29:59.482365,False,2,284,sounds\french\audio/french_884.wav,"[[  0.          76.60838861]
 [  0.1        -41.71607783]
 [  0.2          3.78955534]
 [  0.3         84.8602831 ]
 [  0.4         16.24540696]
 [  0.5         68.23827876]
 [  0.6        -39.71005998]
 [  0.7        -63.62075652]
 [  0.8        -57.73110382]
 [  0.9        -99.10016615]
 [  1.         -27.53166894]
 [  1.1        -48.35308155]
 [  1.14141667 -12.55349758]]","[[0.         1.25391535]
 [0.1        0.49990107]
 [0.2        1.78461269]
 [0.3        1.65174889]
 [0.4        0.71422903]
 [0.5        0.8676404 ]
 [0.6        0.5442146 ]
 [0.7        1.40281909]
 [0.8        0.85462819]
 [0.9        0.70808592]
 [1.         1.31831149]
 [1.1        0.34930191]
 [1.14141667 0.2030207 ]]",1,0.394
8760830999,f,19,english,5,4,english,2024-02-09 14:29:59.482365,False,2,285,sounds\french\audio/french_708.wav,"[[  0.         -84.32075665]
 [  0.1        -90.17684716]
 [  0.2        -72.90155055]
 [  0.3        -65.4180474 ]
 [  0.4        -30.04110866]
 [  0.5         39.18281852]
 [  0.6         48.81909862]
 [  0.7         17.72071727]
 [  0.8         58.29409041]
 [  0.9         47.29598888]
 [  1.          34.02381028]
 [  1.1        -77.84616196]
 [  1.14141667  40.78872619]]","[[0.         0.145315  ]
 [0.1        0.08552736]
 [0.2        1.2667449 ]
 [0.3        0.89572221]
 [0.4        0.95885194]
 [0.5        0.7904969 ]
 [0.6        0.45133511]
 [0.7        0.98870688]
 [0.8        0.58111582]
 [0.9        0.53990602]
 [1.         0.73597457]
 [1.1        0.61967524]
 [1.14141667 0.80423968]]",1,0.28
8760830999,f,19,english,5,4,english,2024-02-09 14:29:59.482365,False,2,286,sounds\french\audio/french_220.wav,"[[  0.         -47.86203104]
 [  0.1         -2.12019525]
 [  0.2         11.33443683]
 [  0.3         26.73426002]
 [  0.4        -20.00864526]
 [  0.5         66.4142843 ]
 [  0.6        -25.00808868]
 [  0.7        -40.0848978 ]
 [  0.8         72.97244598]
 [  0.9         77.81836091]
 [  1.          14.03709177]
 [  1.1         33.22448401]
 [  1.14141667   8.56507439]]","[[0.         0.17649175]
 [0.1        0.55844568]
 [0.2        0.51968643]
 [0.3        0.91323903]
 [0.4        1.83941424]
 [0.5        1.66792491]
 [0.6        1.72207121]
 [0.7        0.69900455]
 [0.8        1.89129623]
 [0.9        1.89462756]
 [1.         1.13767499]
 [1.1        0.48678829]
 [1.14141667 1.85900383]]",1,0.432
8760830999,f,19,english,5,4,english,2024-02-09 14:29:59.482365,False,2,287,sounds\french\audio/french_627.wav,"[[  0.         -16.75461083]
 [  0.1         96.68168603]
 [  0.2         48.99544256]
 [  0.3          0.76904268]
 [  0.4         87.66540715]
 [  0.5        -64.38324185]
 [  0.6          8.96877637]
 [  0.7         95.71714798]
 [  0.8         81.75759789]
 [  0.9        -61.95503167]
 [  1.         -55.56251199]
 [  1.1        -58.25099621]
 [  1.14141667   8.35767044]]","[[0.         1.95083346]
 [0.1        0.13048675]
 [0.2        1.72232558]
 [0.3        0.90654128]
 [0.4        1.62595787]
 [0.5        1.92320359]
 [0.6        1.99291341]
 [0.7        0.90201811]
 [0.8        1.76576748]
 [0.9        0.88798876]
 [1.         1.6846147 ]
 [1.1        0.34329039]
 [1.14141667 1.96569685]]",0,0.298
8760830999,f,19,english,5,4,english,2024-02-09 14:29:59.482365,False,2,288,sounds\french\audio/french_639.wav,"[[  0.         -46.25484505]
 [  0.1         17.34670458]
 [  0.2        -31.4334136 ]
 [  0.3        -78.00985553]
 [  0.4        -58.5652681 ]
 [  0.5         65.66284819]
 [  0.6         23.63896635]
 [  0.7        -60.08289753]
 [  0.8        -88.31823413]
 [  0.9        -17.26198613]
 [  1.         -47.873666  ]
 [  1.1         21.197191  ]
 [  1.14141667   5.91132605]]","[[0.         0.30801928]
 [0.1        0.40113014]
 [0.2        0.29921145]
 [0.3        1.04613163]
 [0.4        1.01899581]
 [0.5        0.95924712]
 [0.6        1.60243922]
 [0.7        1.5028757 ]
 [0.8        1.36364822]
 [0.9        1.69011696]
 [1.         0.9136066 ]
 [1.1        0.74346295]
 [1.14141667 1.3493516 ]]",0,0.492
8760830999,f,19,english,5,4,english,2024-02-09 14:29:59.482365,False,2,289,sounds\french\audio/french_430.wav,"[[  0.          -1.11673428]
 [  0.1        -18.8770791 ]
 [  0.2        -96.59150857]
 [  0.3         29.45958003]
 [  0.4         72.32030407]
 [  0.5         33.72712723]
 [  0.6        -52.79580087]
 [  0.7         56.33228176]
 [  0.8         65.21499831]
 [  0.9        -25.51107946]
 [  1.         -97.21664481]
 [  1.1         50.77898767]
 [  1.14141667 -26.61928039]]","[[0.         1.80235128]
 [0.1        0.96013589]
 [0.2        0.2329428 ]
 [0.3        1.61417388]
 [0.4        0.49435869]
 [0.5        1.27401148]
 [0.6        0.53143616]
 [0.7        1.64780083]
 [0.8        1.13381855]
 [0.9        1.32115129]
 [1.         1.76113448]
 [1.1        1.5165456 ]
 [1.14141667 1.29628567]]",1,0.342
8760830999,f,19,english,5,4,english,2024-02-09 14:29:59.482365,False,2,290,sounds\french\audio/french_232.wav,"[[  0.          36.09628774]
 [  0.1         70.77342165]
 [  0.2         92.70412942]
 [  0.3         11.2091004 ]
 [  0.4         97.58748495]
 [  0.5         34.99158462]
 [  0.6         83.35627055]
 [  0.7         54.22162088]
 [  0.8         32.72297276]
 [  0.9          5.03567369]
 [  1.         -23.14752626]
 [  1.1        -11.42184493]
 [  1.14141667 -77.93527489]]","[[0.         0.41820771]
 [0.1        0.42448846]
 [0.2        1.53853672]
 [0.3        1.60298784]
 [0.4        1.81399086]
 [0.5        0.3805347 ]
 [0.6        1.83687399]
 [0.7        1.52559445]
 [0.8        0.94250496]
 [0.9        0.72452257]
 [1.         1.88926376]
 [1.1        0.29038285]
 [1.14141667 1.71088611]]",0,0.993
8760830999,f,19,english,5,4,english,2024-02-09 14:29:59.482365,False,2,291,sounds\french\audio/french_532.wav,"[[  0.          85.83623854]
 [  0.1         84.10541783]
 [  0.2         26.42202154]
 [  0.3         79.07795266]
 [  0.4        -79.74270865]
 [  0.5         95.386086  ]
 [  0.6         72.0692702 ]
 [  0.7         -9.08909472]
 [  0.8         -4.90273931]
 [  0.9          5.30793597]
 [  1.         -72.96309884]
 [  1.1        -95.33528515]
 [  1.14141667 -74.8568227 ]]","[[0.         1.76274874]
 [0.1        0.70179858]
 [0.2        1.88377086]
 [0.3        0.03665049]
 [0.4        0.9425884 ]
 [0.5        1.22571827]
 [0.6        0.12096615]
 [0.7        0.73907677]
 [0.8        1.49339614]
 [0.9        0.96320852]
 [1.         1.02982353]
 [1.1        1.03939041]
 [1.14141667 1.59124295]]",1,0.292
8760830999,f,19,english,5,4,english,2024-02-09 14:29:59.482365,False,2,292,sounds\french\audio/french_612.wav,"[[  0.         -47.07678459]
 [  0.1          3.63425246]
 [  0.2         31.48917189]
 [  0.3         44.38742484]
 [  0.4         15.5069451 ]
 [  0.5        -51.49122096]
 [  0.6         -1.02254843]
 [  0.7         12.87739328]
 [  0.8        -63.80282001]
 [  0.9        -37.54711338]
 [  1.          40.2162033 ]
 [  1.1         -4.31624045]
 [  1.14141667  64.58566043]]","[[0.         0.11615232]
 [0.1        0.47093102]
 [0.2        0.45807262]
 [0.3        0.81161175]
 [0.4        1.0193018 ]
 [0.5        1.66697075]
 [0.6        0.50056041]
 [0.7        0.70368677]
 [0.8        1.91892506]
 [0.9        1.2931891 ]
 [1.         0.20059311]
 [1.1        0.09557344]
 [1.14141667 1.97325213]]",1,0.296
8760830999,f,19,english,5,4,english,2024-02-09 14:29:59.482365,False,2,293,sounds\french\audio/french_123.wav,"[[  0.         -51.94711307]
 [  0.1        -56.73401049]
 [  0.2         25.36416271]
 [  0.3         37.75728813]
 [  0.4         76.78826699]
 [  0.5         78.72883759]
 [  0.6         16.93220553]
 [  0.7         92.90727514]
 [  0.8         38.19115803]
 [  0.9         53.16766238]
 [  1.          76.30286188]
 [  1.1        -90.7765671 ]
 [  1.14141667 -28.13670631]]","[[0.         1.87860529]
 [0.1        0.8925821 ]
 [0.2        1.58164022]
 [0.3        0.66317845]
 [0.4        1.50669139]
 [0.5        0.32092573]
 [0.6        0.20941234]
 [0.7        1.94155087]
 [0.8        1.92789753]
 [0.9        1.65841494]
 [1.         1.79217162]
 [1.1        0.67129825]
 [1.14141667 0.32349013]]",1,2.897
8760830999,f,19,english,5,4,english,2024-02-09 14:29:59.482365,False,2,294,sounds\french\audio/french_538.wav,"[[  0.          20.57677794]
 [  0.1        -39.61392236]
 [  0.2        -45.04759687]
 [  0.3         13.02336847]
 [  0.4         90.60925013]
 [  0.5        -75.04739637]
 [  0.6        -17.92101924]
 [  0.7        -84.21353272]
 [  0.8         47.2379497 ]
 [  0.9         -5.11712126]
 [  1.         -51.87175563]
 [  1.1        -23.54809706]
 [  1.14141667 -19.60047968]]","[[0.         1.38711038]
 [0.1        0.72793815]
 [0.2        0.58138665]
 [0.3        0.36012253]
 [0.4        1.75461796]
 [0.5        0.9845207 ]
 [0.6        1.10875334]
 [0.7        1.78005401]
 [0.8        0.26796674]
 [0.9        0.97835653]
 [1.         1.7494376 ]
 [1.1        0.19527395]
 [1.14141667 0.35274247]]",1,0.345
8760830999,f,19,english,5,4,english,2024-02-09 14:29:59.482365,False,2,295,sounds\french\audio/french_956.wav,"[[  0.         -99.35759674]
 [  0.1         17.74635761]
 [  0.2         45.19730301]
 [  0.3         32.76158542]
 [  0.4        -82.44124556]
 [  0.5        -42.32589362]
 [  0.6         47.35708325]
 [  0.7        -90.98325298]
 [  0.8        -35.51686902]
 [  0.9         60.74204696]
 [  1.         -46.10377132]
 [  1.1        -22.49053344]
 [  1.14141667  15.48787024]]","[[0.         0.54388648]
 [0.1        1.06124428]
 [0.2        1.13782447]
 [0.3        1.35322569]
 [0.4        1.86440682]
 [0.5        1.66841875]
 [0.6        1.44392405]
 [0.7        1.23654472]
 [0.8        0.08906861]
 [0.9        0.55811382]
 [1.         0.54181177]
 [1.1        0.7143235 ]
 [1.14141667 1.69639276]]",0,0.604
8760830999,f,19,english,5,4,english,2024-02-09 14:29:59.482365,False,2,296,sounds\french\audio/french_683.wav,"[[  0.         -22.25204531]
 [  0.1         81.71927807]
 [  0.2        -98.89480532]
 [  0.3         85.4566245 ]
 [  0.4        -82.68795994]
 [  0.5         10.69202358]
 [  0.6         18.38320013]
 [  0.7         69.93459203]
 [  0.8        -27.4597304 ]
 [  0.9         -9.36632986]
 [  1.         -17.95152631]
 [  1.1        -74.29185784]
 [  1.14141667  17.19346793]]","[[0.         0.10316623]
 [0.1        0.47792981]
 [0.2        0.12707729]
 [0.3        0.7208162 ]
 [0.4        0.12906086]
 [0.5        1.87068598]
 [0.6        1.19195283]
 [0.7        1.81323994]
 [0.8        0.51750644]
 [0.9        0.9271707 ]
 [1.         0.88909619]
 [1.1        1.51432158]
 [1.14141667 0.6228548 ]]",1,0.277
8760830999,f,19,english,5,4,english,2024-02-09 14:29:59.482365,False,2,297,sounds\french\audio/french_257.wav,"[[  0.         -14.7165903 ]
 [  0.1          9.77195576]
 [  0.2         47.03230766]
 [  0.3         47.2421719 ]
 [  0.4        -71.97278452]
 [  0.5        -76.50169217]
 [  0.6        -66.41112258]
 [  0.7        -22.67062318]
 [  0.8        -29.5884482 ]
 [  0.9         81.81742087]
 [  1.          85.72452131]
 [  1.1         35.03898879]
 [  1.14141667  32.51985641]]","[[0.         1.26655031]
 [0.1        0.00191174]
 [0.2        0.31291214]
 [0.3        1.22624264]
 [0.4        0.54105763]
 [0.5        0.78287954]
 [0.6        1.330985  ]
 [0.7        1.35261468]
 [0.8        1.03978063]
 [0.9        0.00659695]
 [1.         1.34378574]
 [1.1        0.36395481]
 [1.14141667 0.94728688]]",1,0.431
8760830999,f,19,english,5,4,english,2024-02-09 14:29:59.482365,False,2,298,sounds\french\audio/french_572.wav,"[[  0.          80.73678316]
 [  0.1        -23.27448365]
 [  0.2         -6.4033247 ]
 [  0.3        -21.51480068]
 [  0.4        -23.17709403]
 [  0.5        -16.39338242]
 [  0.6        -25.06757564]
 [  0.7        -29.26685238]
 [  0.8        -87.48148555]
 [  0.9        -64.25549842]
 [  1.          40.51352953]
 [  1.1         45.12554912]
 [  1.14141667 -31.72850353]]","[[0.         1.6999436 ]
 [0.1        0.98259769]
 [0.2        0.22058864]
 [0.3        1.57552372]
 [0.4        1.16662567]
 [0.5        0.33871722]
 [0.6        1.16530793]
 [0.7        0.52650663]
 [0.8        0.8714082 ]
 [0.9        1.09019316]
 [1.         0.83858713]
 [1.1        1.2000092 ]
 [1.14141667 1.29324569]]",1,0.924
8760830999,f,19,english,5,4,english,2024-02-09 14:29:59.482365,False,2,299,sounds\french\audio/french_459.wav,"[[  0.           4.61060923]
 [  0.1         56.90661814]
 [  0.2        -64.88787295]
 [  0.3         60.80306931]
 [  0.4        -72.51163358]
 [  0.5        -58.97655872]
 [  0.6        -57.13693888]
 [  0.7         91.43327587]
 [  0.8         27.92334317]
 [  0.9        -16.1495518 ]
 [  1.         -49.8689815 ]
 [  1.1         77.63620877]
 [  1.14141667  -4.58738982]]","[[0.         0.63045471]
 [0.1        0.25838891]
 [0.2        1.34944263]
 [0.3        0.3412609 ]
 [0.4        0.8026416 ]
 [0.5        0.15800619]
 [0.6        1.38177294]
 [0.7        1.01516397]
 [0.8        0.04958646]
 [0.9        0.060326  ]
 [1.         1.65536428]
 [1.1        0.43368978]
 [1.14141667 1.3723531 ]]",0,0.436
8760830999,f,19,english,5,4,english,2024-02-09 14:29:59.482365,False,2,300,sounds\french\audio/french_672.wav,"[[  0.         -13.52735411]
 [  0.1        -59.96134508]
 [  0.2         -7.33992186]
 [  0.3         21.63942854]
 [  0.4          5.10103928]
 [  0.5        -48.7358571 ]
 [  0.6         81.11443851]
 [  0.7         33.12369615]
 [  0.8          3.43276833]
 [  0.9        -39.94820872]
 [  1.          74.47431305]
 [  1.1         21.91430586]
 [  1.14141667  -6.84202398]]","[[0.         0.54145116]
 [0.1        1.25870061]
 [0.2        0.81866039]
 [0.3        1.39452004]
 [0.4        1.0769607 ]
 [0.5        0.77470724]
 [0.6        0.81807513]
 [0.7        0.78329539]
 [0.8        0.23496053]
 [0.9        0.10186009]
 [1.         0.92703632]
 [1.1        1.77981995]
 [1.14141667 0.93084115]]",0,0.804
8760830999,f,19,english,5,4,english,2024-02-09 14:29:59.482365,False,2,301,sounds\french\audio/french_948.wav,"[[  0.          10.43178466]
 [  0.1        -75.57732343]
 [  0.2        -79.9984004 ]
 [  0.3        -23.89370941]
 [  0.4        -24.91740709]
 [  0.5         28.23809714]
 [  0.6        -15.61716278]
 [  0.7        -62.40350541]
 [  0.8        -39.77903393]
 [  0.9          1.04100207]
 [  1.         -20.98701574]
 [  1.1         32.97936055]
 [  1.14141667  97.71142149]]","[[0.         1.89098856]
 [0.1        0.88225364]
 [0.2        1.40828341]
 [0.3        0.63630366]
 [0.4        0.31117059]
 [0.5        1.08327735]
 [0.6        1.27092868]
 [0.7        0.70647763]
 [0.8        1.45549655]
 [0.9        1.46115448]
 [1.         0.36927117]
 [1.1        0.81149362]
 [1.14141667 1.6764649 ]]",0,1.129
8760830999,f,19,english,5,4,english,2024-02-09 14:29:59.482365,False,2,302,sounds\french\audio/french_887.wav,"[[  0.          51.22765524]
 [  0.1        -81.07367684]
 [  0.2         34.20865774]
 [  0.3        -78.61451503]
 [  0.4         73.89874258]
 [  0.5         55.35061233]
 [  0.6        -28.08868107]
 [  0.7        -75.13470752]
 [  0.8          3.63790333]
 [  0.9         59.68879821]
 [  1.          81.8642707 ]
 [  1.1         47.07029042]
 [  1.14141667 -11.21707174]]","[[0.         0.21201127]
 [0.1        0.25647637]
 [0.2        1.02175532]
 [0.3        0.73712994]
 [0.4        1.36337648]
 [0.5        0.96545016]
 [0.6        1.49552449]
 [0.7        1.78802656]
 [0.8        0.81832   ]
 [0.9        0.591695  ]
 [1.         1.54712887]
 [1.1        1.77599521]
 [1.14141667 0.52830395]]",1,0.379
8760830999,f,19,english,5,4,english,2024-02-09 14:29:59.482365,False,2,303,sounds\french\audio/french_132.wav,"[[  0.         -39.49992325]
 [  0.1         12.56464433]
 [  0.2        -19.66121961]
 [  0.3         17.53643983]
 [  0.4        -30.93006167]
 [  0.5         94.6587443 ]
 [  0.6        -17.81116059]
 [  0.7        -55.25606882]
 [  0.8        -83.71334373]
 [  0.9        -64.39924359]
 [  1.          -5.39233106]
 [  1.1        -83.89184369]
 [  1.14141667  20.67053146]]","[[0.         1.25715362]
 [0.1        1.38299609]
 [0.2        1.31353323]
 [0.3        0.57903675]
 [0.4        0.433016  ]
 [0.5        1.86936927]
 [0.6        1.74080781]
 [0.7        0.26557052]
 [0.8        1.15851722]
 [0.9        1.13892556]
 [1.         0.881703  ]
 [1.1        0.12509231]
 [1.14141667 1.62422028]]",0,0.601
8760830999,f,19,english,5,4,english,2024-02-09 14:29:59.482365,False,2,304,sounds\french\audio/french_172.wav,"[[  0.          52.55822797]
 [  0.1         36.03304437]
 [  0.2         87.57540256]
 [  0.3         -1.02225297]
 [  0.4        -45.72834283]
 [  0.5        -78.07098029]
 [  0.6         66.92119406]
 [  0.7         54.13458116]
 [  0.8          9.25383275]
 [  0.9         84.2289997 ]
 [  1.         -92.0852474 ]
 [  1.1        -58.15058713]
 [  1.14141667 -93.51230148]]","[[0.         1.64690449]
 [0.1        1.13416013]
 [0.2        0.18828869]
 [0.3        1.03936139]
 [0.4        1.57744061]
 [0.5        0.88465221]
 [0.6        1.26318424]
 [0.7        0.93894817]
 [0.8        1.37261227]
 [0.9        0.51589031]
 [1.         0.04731792]
 [1.1        0.7131693 ]
 [1.14141667 0.70039891]]",0,1.211
8760830999,f,19,english,5,4,english,2024-02-09 14:29:59.482365,False,2,305,sounds\french\audio/french_723.wav,"[[  0.          22.19465048]
 [  0.1         23.964481  ]
 [  0.2        -20.78401632]
 [  0.3        -42.88976611]
 [  0.4        -14.55295397]
 [  0.5        -35.12687869]
 [  0.6        -97.73060339]
 [  0.7          3.95473766]
 [  0.8         78.03718234]
 [  0.9        -10.33119837]
 [  1.          83.18845617]
 [  1.1         83.83218314]
 [  1.14141667 -82.60655124]]","[[0.         0.67419904]
 [0.1        1.58262399]
 [0.2        1.30108669]
 [0.3        1.6401937 ]
 [0.4        1.79809459]
 [0.5        1.10487247]
 [0.6        1.45372595]
 [0.7        0.61161136]
 [0.8        0.17526252]
 [0.9        1.7787348 ]
 [1.         1.55366011]
 [1.1        1.79647341]
 [1.14141667 0.62892068]]",1,0.237
8760830999,f,19,english,5,4,english,2024-02-09 14:29:59.482365,False,2,306,sounds\french\audio/french_824.wav,"[[ 0.00000000e+00  5.02201089e-01]
 [ 1.00000000e-01  6.05239588e+01]
 [ 2.00000000e-01  1.48896647e+01]
 [ 3.00000000e-01  3.33476675e+01]
 [ 4.00000000e-01 -2.84988199e+01]
 [ 5.00000000e-01  2.83484092e+01]
 [ 6.00000000e-01  9.05536847e-02]
 [ 7.00000000e-01  5.47024864e+01]
 [ 8.00000000e-01  1.33415816e+00]
 [ 9.00000000e-01 -1.30540877e+01]
 [ 1.00000000e+00  5.29162460e+01]
 [ 1.10000000e+00  9.07997148e+01]
 [ 1.14141667e+00 -8.48372177e+00]]","[[0.         0.86927053]
 [0.1        1.18411144]
 [0.2        1.09736758]
 [0.3        0.85219326]
 [0.4        1.84806057]
 [0.5        0.42773876]
 [0.6        0.73121711]
 [0.7        1.15803728]
 [0.8        0.61345655]
 [0.9        0.13219128]
 [1.         1.90220579]
 [1.1        0.08725417]
 [1.14141667 0.24224984]]",1,0.347
8760830999,f,19,english,5,4,english,2024-02-09 14:29:59.482365,False,2,307,sounds\french\audio/french_861.wav,"[[  0.         -29.59207834]
 [  0.1         -3.20070046]
 [  0.2        -58.32537362]
 [  0.3        -24.52531727]
 [  0.4          4.47991904]
 [  0.5         77.73095921]
 [  0.6         -9.72754814]
 [  0.7         78.69297703]
 [  0.8         89.59895789]
 [  0.9        -74.88966418]
 [  1.          -8.41302054]
 [  1.1        -83.1329049 ]
 [  1.14141667  45.5691638 ]]","[[0.         1.26213784]
 [0.1        1.09688129]
 [0.2        1.67288948]
 [0.3        1.55651392]
 [0.4        0.60089382]
 [0.5        1.00142535]
 [0.6        1.64754174]
 [0.7        1.0190621 ]
 [0.8        1.92978713]
 [0.9        1.64032652]
 [1.         1.1947634 ]
 [1.1        1.60781283]
 [1.14141667 0.53617129]]",1,0.021
8760830999,f,19,english,5,4,english,2024-02-09 14:29:59.482365,False,2,308,sounds\french\audio/french_767.wav,"[[  0.          31.24966423]
 [  0.1        -33.74972246]
 [  0.2         71.56049833]
 [  0.3         62.17111584]
 [  0.4         35.54545248]
 [  0.5         68.28182606]
 [  0.6        -85.55401335]
 [  0.7        -59.71070843]
 [  0.8         46.66690446]
 [  0.9        -33.16116599]
 [  1.           9.56946316]
 [  1.1        -24.73907556]
 [  1.14141667 -56.92984188]]","[[0.         0.89200081]
 [0.1        0.44980231]
 [0.2        0.50688559]
 [0.3        1.0886013 ]
 [0.4        1.84098668]
 [0.5        1.57490731]
 [0.6        0.92975639]
 [0.7        1.27612781]
 [0.8        1.46786923]
 [0.9        0.72434396]
 [1.         0.62492348]
 [1.1        1.30557   ]
 [1.14141667 0.8430712 ]]",0,0.185
8760830999,f,19,english,5,4,english,2024-02-09 14:29:59.482365,False,2,309,sounds\french\audio/french_409.wav,"[[  0.         -30.21694153]
 [  0.1         59.15557732]
 [  0.2        -36.71476699]
 [  0.3        -11.27109722]
 [  0.4         94.57337138]
 [  0.5        -42.2573853 ]
 [  0.6        -98.73956602]
 [  0.7        -10.01342548]
 [  0.8         82.67745242]
 [  0.9         41.23544477]
 [  1.          34.12857291]
 [  1.1        -39.9359561 ]
 [  1.14141667 -66.44243676]]","[[0.         0.38215997]
 [0.1        1.51676609]
 [0.2        1.63075326]
 [0.3        0.56043983]
 [0.4        1.04931912]
 [0.5        0.29982519]
 [0.6        0.90608558]
 [0.7        0.27240851]
 [0.8        0.07095198]
 [0.9        1.17559968]
 [1.         0.36646836]
 [1.1        0.62478862]
 [1.14141667 0.20356558]]",0,0.463
8760830999,f,19,english,5,4,english,2024-02-09 14:29:59.482365,False,2,310,sounds\french\audio/french_553.wav,"[[  0.          57.11997381]
 [  0.1        -32.53722502]
 [  0.2        -87.28109772]
 [  0.3        -27.51150216]
 [  0.4         82.51849705]
 [  0.5         -2.05823162]
 [  0.6         87.22176329]
 [  0.7         21.26654891]
 [  0.8          5.0205633 ]
 [  0.9        -15.12387939]
 [  1.         -30.58863074]
 [  1.1        -22.19258408]
 [  1.14141667  11.14114277]]","[[0.         0.90900436]
 [0.1        1.02881702]
 [0.2        1.91577474]
 [0.3        1.84689949]
 [0.4        0.82658903]
 [0.5        0.12969693]
 [0.6        0.8683285 ]
 [0.7        0.55394795]
 [0.8        0.61832745]
 [0.9        0.27087234]
 [1.         0.73142715]
 [1.1        1.63938035]
 [1.14141667 0.86419781]]",1,0.494
8760830999,f,19,english,5,4,english,2024-02-09 14:29:59.482365,False,2,311,sounds\french\audio/french_540.wav,"[[  0.          31.52597312]
 [  0.1         -1.25149155]
 [  0.2        -73.66629191]
 [  0.3        -22.64766564]
 [  0.4        -99.62555954]
 [  0.5         16.96824428]
 [  0.6         87.0103995 ]
 [  0.7         40.33133886]
 [  0.8         20.73958679]
 [  0.9         42.51308569]
 [  1.          -2.19499318]
 [  1.1        -32.36810626]
 [  1.14141667 -26.20670126]]","[[0.         1.25975377]
 [0.1        1.40968559]
 [0.2        0.44233903]
 [0.3        0.80840944]
 [0.4        0.2410145 ]
 [0.5        0.92564841]
 [0.6        1.23012294]
 [0.7        1.75550661]
 [0.8        1.48031201]
 [0.9        0.50269543]
 [1.         0.37203423]
 [1.1        0.07986375]
 [1.14141667 1.98266687]]",1,0.296
8760830999,f,19,english,5,4,english,2024-02-09 14:29:59.482365,False,2,312,sounds\french\audio/french_13.wav,"[[  0.          28.79040646]
 [  0.1          1.43639251]
 [  0.2          8.93741283]
 [  0.3        -45.23678971]
 [  0.4        -36.64568284]
 [  0.5         95.08006425]
 [  0.6        -25.15383894]
 [  0.7         20.22064469]
 [  0.8          4.43008543]
 [  0.9         31.96842926]
 [  1.          59.17290693]
 [  1.1          3.48956858]
 [  1.14141667 -39.55658578]]","[[0.         1.71683998]
 [0.1        1.51392947]
 [0.2        1.95012388]
 [0.3        1.24720578]
 [0.4        0.6748638 ]
 [0.5        0.64178438]
 [0.6        1.78067585]
 [0.7        0.73379373]
 [0.8        0.8008251 ]
 [0.9        1.62083082]
 [1.         0.40737704]
 [1.1        0.59465297]
 [1.14141667 0.57584179]]",1,0.184
8760830999,f,19,english,5,4,english,2024-02-09 14:29:59.482365,False,2,313,sounds\french\audio/french_800.wav,"[[  0.          -4.25631197]
 [  0.1         22.66632576]
 [  0.2         10.28900554]
 [  0.3         38.91231447]
 [  0.4        -12.27796799]
 [  0.5        -44.30581187]
 [  0.6        -22.88012932]
 [  0.7        -52.86195267]
 [  0.8         54.71772215]
 [  0.9        -51.65672109]
 [  1.         -51.77252424]
 [  1.1          7.38633242]
 [  1.14141667  17.65920114]]","[[0.         0.80468249]
 [0.1        1.14959191]
 [0.2        1.74323515]
 [0.3        0.77183711]
 [0.4        1.35051127]
 [0.5        1.94130964]
 [0.6        1.17392808]
 [0.7        1.52994111]
 [0.8        1.58058267]
 [0.9        1.58832666]
 [1.         1.09850348]
 [1.1        0.30985734]
 [1.14141667 1.66023428]]",1,0.282
8760830999,f,19,english,5,4,english,2024-02-09 14:29:59.482365,False,2,314,sounds\french\audio/french_556.wav,"[[  0.         -30.62895729]
 [  0.1         64.37703021]
 [  0.2         36.98575807]
 [  0.3         19.11574957]
 [  0.4         89.62577902]
 [  0.5         60.7088706 ]
 [  0.6        -62.8516134 ]
 [  0.7        -39.43238068]
 [  0.8        -47.12121114]
 [  0.9         11.83990719]
 [  1.         -21.1475117 ]
 [  1.1         -1.79697267]
 [  1.14141667 -69.11891229]]","[[0.         1.84589581]
 [0.1        1.73651451]
 [0.2        0.16567731]
 [0.3        0.31305634]
 [0.4        1.79061468]
 [0.5        0.86994548]
 [0.6        1.36507629]
 [0.7        0.69698054]
 [0.8        1.7863841 ]
 [0.9        0.92331121]
 [1.         1.29940684]
 [1.1        1.17001647]
 [1.14141667 0.89909852]]",0,0.439
8760830999,f,19,english,5,4,english,2024-02-09 14:29:59.482365,False,2,315,sounds\french\audio/french_738.wav,"[[  0.          11.8703901 ]
 [  0.1         13.57498851]
 [  0.2         24.46312938]
 [  0.3        -45.15325381]
 [  0.4         56.73807885]
 [  0.5         17.44370226]
 [  0.6         75.3946945 ]
 [  0.7        -28.26163831]
 [  0.8          5.39469378]
 [  0.9         18.72219056]
 [  1.          25.3895976 ]
 [  1.1         71.997083  ]
 [  1.14141667  20.31463869]]","[[0.         0.1719551 ]
 [0.1        0.5210504 ]
 [0.2        0.82726276]
 [0.3        1.009931  ]
 [0.4        0.08955624]
 [0.5        0.7410831 ]
 [0.6        0.51673435]
 [0.7        0.86251906]
 [0.8        0.61384821]
 [0.9        0.49002446]
 [1.         0.7595735 ]
 [1.1        0.36123927]
 [1.14141667 0.95039546]]",1,0.233
8760830999,f,19,english,5,4,english,2024-02-09 14:29:59.482365,False,2,316,sounds\french\audio/french_585.wav,"[[  0.         -33.41252793]
 [  0.1         16.24382037]
 [  0.2        -25.9418489 ]
 [  0.3         48.33013204]
 [  0.4         45.88405821]
 [  0.5        -88.47894619]
 [  0.6        -34.41723162]
 [  0.7         -9.82400388]
 [  0.8        -22.53248636]
 [  0.9        -27.56128675]
 [  1.         -40.76907833]
 [  1.1         52.35342205]
 [  1.14141667  48.19576807]]","[[0.         1.22101876]
 [0.1        1.6651648 ]
 [0.2        1.05138066]
 [0.3        0.61800307]
 [0.4        0.02764776]
 [0.5        1.98662617]
 [0.6        1.86386493]
 [0.7        1.19111382]
 [0.8        1.44448985]
 [0.9        1.18212322]
 [1.         1.40875064]
 [1.1        1.46658809]
 [1.14141667 1.34688982]]",1,0.103
8760830999,f,19,english,5,4,english,2024-02-09 14:29:59.482365,False,2,317,sounds\french\audio/french_909.wav,"[[  0.         -64.5782484 ]
 [  0.1        -95.21268442]
 [  0.2        -61.56262693]
 [  0.3        -34.31563602]
 [  0.4         34.69813289]
 [  0.5        -19.20312526]
 [  0.6        -58.93366075]
 [  0.7         -0.21005651]
 [  0.8         20.08088994]
 [  0.9        -22.20564   ]
 [  1.          28.75495026]
 [  1.1        -38.48195906]
 [  1.14141667 -66.99076148]]","[[0.         1.76379527]
 [0.1        1.79782836]
 [0.2        1.19138868]
 [0.3        0.3364028 ]
 [0.4        1.85790827]
 [0.5        1.04934312]
 [0.6        1.33665727]
 [0.7        1.34926899]
 [0.8        0.04343107]
 [0.9        1.26601971]
 [1.         1.47988988]
 [1.1        0.95787887]
 [1.14141667 1.1698671 ]]",1,0.161
8760830999,f,19,english,5,4,english,2024-02-09 14:29:59.482365,False,2,318,sounds\french\audio/french_909.wav,"[[  0.         -64.5782484 ]
 [  0.1        -95.21268442]
 [  0.2        -61.56262693]
 [  0.3        -34.31563602]
 [  0.4         34.69813289]
 [  0.5        -19.20312526]
 [  0.6        -58.93366075]
 [  0.7         -0.21005651]
 [  0.8         20.08088994]
 [  0.9        -22.20564   ]
 [  1.          28.75495026]
 [  1.1        -38.48195906]
 [  1.14141667 -66.99076148]]","[[0.         1.76379527]
 [0.1        1.79782836]
 [0.2        1.19138868]
 [0.3        0.3364028 ]
 [0.4        1.85790827]
 [0.5        1.04934312]
 [0.6        1.33665727]
 [0.7        1.34926899]
 [0.8        0.04343107]
 [0.9        1.26601971]
 [1.         1.47988988]
 [1.1        0.95787887]
 [1.14141667 1.1698671 ]]",1,0.18
8760830999,f,19,english,5,4,english,2024-02-09 14:29:59.482365,False,2,319,sounds\french\audio/french_154.wav,"[[  0.         -62.71695014]
 [  0.1         11.76696999]
 [  0.2         89.09000975]
 [  0.3         55.482511  ]
 [  0.4         48.82512352]
 [  0.5         72.58324687]
 [  0.6        -72.31376073]
 [  0.7         26.97262417]
 [  0.8         25.0060358 ]
 [  0.9         96.65829409]
 [  1.         -53.01793566]
 [  1.1        -28.38672299]
 [  1.14141667 -13.65079038]]","[[0.         0.91471161]
 [0.1        0.62594341]
 [0.2        1.0457949 ]
 [0.3        0.32994818]
 [0.4        0.38624098]
 [0.5        0.16529193]
 [0.6        0.35654306]
 [0.7        0.03013993]
 [0.8        0.71479537]
 [0.9        0.87549993]
 [1.         0.67316638]
 [1.1        0.16537435]
 [1.14141667 0.43572368]]",1,0.65
8760830999,f,19,english,5,4,english,2024-02-09 14:29:59.482365,False,2,320,sounds\french\audio/french_753.wav,"[[  0.         -79.96563984]
 [  0.1          6.89204873]
 [  0.2        -59.04911329]
 [  0.3        -22.29334195]
 [  0.4        -31.81352244]
 [  0.5        -29.50747098]
 [  0.6         27.01274743]
 [  0.7        -52.90572089]
 [  0.8         36.79787763]
 [  0.9         57.30337613]
 [  1.         -47.90339597]
 [  1.1          6.22002638]
 [  1.14141667  84.51773888]]","[[0.         1.05198412]
 [0.1        1.47579936]
 [0.2        1.92899264]
 [0.3        1.69322   ]
 [0.4        0.27967356]
 [0.5        1.20485001]
 [0.6        1.36433783]
 [0.7        0.91134408]
 [0.8        0.73332592]
 [0.9        0.93410667]
 [1.         1.97770738]
 [1.1        0.99208876]
 [1.14141667 0.56874534]]",1,0.323
8760830999,f,19,english,5,4,english,2024-02-09 14:29:59.482365,False,2,321,sounds\french\audio/french_155.wav,"[[  0.         -92.78133148]
 [  0.1         20.93258494]
 [  0.2        -47.18952132]
 [  0.3         87.6623856 ]
 [  0.4         53.55190164]
 [  0.5         73.72044222]
 [  0.6         13.17734525]
 [  0.7         33.07505579]
 [  0.8         11.21533307]
 [  0.9        -11.15187706]
 [  1.          62.83057895]
 [  1.1          5.84907356]
 [  1.14141667 -41.38043494]]","[[0.         0.96654008]
 [0.1        1.69709924]
 [0.2        1.53182227]
 [0.3        0.2401229 ]
 [0.4        0.46921424]
 [0.5        1.76971401]
 [0.6        0.8491776 ]
 [0.7        1.18179357]
 [0.8        0.90499885]
 [0.9        0.79006401]
 [1.         1.00554233]
 [1.1        1.3461564 ]
 [1.14141667 0.10111809]]",1,0.411
8760830999,f,19,english,5,4,english,2024-02-09 14:29:59.482365,False,2,322,sounds\french\audio/french_600.wav,"[[  0.          52.68900208]
 [  0.1         -6.73067052]
 [  0.2         96.57898689]
 [  0.3         88.93281909]
 [  0.4         75.90530311]
 [  0.5         83.32696458]
 [  0.6        -66.79703103]
 [  0.7         63.7950694 ]
 [  0.8        -58.76780301]
 [  0.9         44.34251674]
 [  1.          40.69658778]
 [  1.1        -28.98281282]
 [  1.14141667  43.07407366]]","[[0.         1.20996587]
 [0.1        0.65229061]
 [0.2        1.53870963]
 [0.3        0.24911415]
 [0.4        0.83209065]
 [0.5        1.35695142]
 [0.6        1.60598618]
 [0.7        1.81288548]
 [0.8        0.6555076 ]
 [0.9        1.0412619 ]
 [1.         1.14001909]
 [1.1        0.56625227]
 [1.14141667 0.71314078]]",1,0.013
8760830999,f,19,english,5,4,english,2024-02-09 14:29:59.482365,False,2,323,sounds\french\audio/french_804.wav,"[[  0.         -81.48040782]
 [  0.1        -17.45889889]
 [  0.2         30.94703124]
 [  0.3        -59.31638088]
 [  0.4         32.31952964]
 [  0.5        -76.80935002]
 [  0.6        -98.7037282 ]
 [  0.7        -37.18293781]
 [  0.8        -12.0929561 ]
 [  0.9         70.86110412]
 [  1.         -41.4148751 ]
 [  1.1         34.56454139]
 [  1.14141667  -8.86405782]]","[[0.         1.72278374]
 [0.1        1.09467419]
 [0.2        1.89284567]
 [0.3        0.06467182]
 [0.4        1.7986491 ]
 [0.5        0.95859736]
 [0.6        1.28356637]
 [0.7        0.02342821]
 [0.8        0.57090294]
 [0.9        0.54405877]
 [1.         0.67180302]
 [1.1        1.24764987]
 [1.14141667 0.56589089]]",1,0.074
8760830999,f,19,english,5,4,english,2024-02-09 14:29:59.482365,False,2,324,sounds\french\audio/french_193.wav,"[[  0.          55.86434558]
 [  0.1         35.17438078]
 [  0.2         64.94693253]
 [  0.3        -11.0808931 ]
 [  0.4         17.49954283]
 [  0.5         51.1230799 ]
 [  0.6         91.81738107]
 [  0.7        -33.71615966]
 [  0.8        -99.34494989]
 [  0.9        -99.91903914]
 [  1.         -40.8900896 ]
 [  1.1          9.96341327]
 [  1.14141667  62.22902788]]","[[0.         1.84623427]
 [0.1        1.45871927]
 [0.2        1.31961654]
 [0.3        0.19803525]
 [0.4        0.24071709]
 [0.5        0.12833577]
 [0.6        0.47445089]
 [0.7        0.83124863]
 [0.8        0.32718168]
 [0.9        0.67506289]
 [1.         1.64349132]
 [1.1        1.39601753]
 [1.14141667 0.95131389]]",1,0.163
8760830999,f,19,english,5,4,english,2024-02-09 14:29:59.482365,False,2,325,sounds\french\audio/french_6.wav,"[[  0.          27.45592216]
 [  0.1        -62.22353357]
 [  0.2        -92.28039871]
 [  0.3        -45.49726298]
 [  0.4         60.23001679]
 [  0.5         43.00364091]
 [  0.6        -93.39074753]
 [  0.7         58.97930401]
 [  0.8         83.76733066]
 [  0.9          8.08054163]
 [  1.          43.76190446]
 [  1.1         -1.37823078]
 [  1.14141667 -31.12824275]]","[[0.         0.54844543]
 [0.1        0.8427617 ]
 [0.2        0.90079623]
 [0.3        0.58973995]
 [0.4        1.03996406]
 [0.5        0.42947422]
 [0.6        1.03262215]
 [0.7        0.82620221]
 [0.8        1.23487026]
 [0.9        1.14585448]
 [1.         0.53858988]
 [1.1        0.26561002]
 [1.14141667 1.58779407]]",0,0.124
8760830999,f,19,english,5,4,english,2024-02-09 14:29:59.482365,False,2,326,sounds\french\audio/french_48.wav,"[[  0.          31.83556995]
 [  0.1         16.95000218]
 [  0.2        -22.15992406]
 [  0.3         68.06463316]
 [  0.4        -34.30390919]
 [  0.5        -90.33439148]
 [  0.6          8.13738726]
 [  0.7        -59.30021177]
 [  0.8        -33.68412198]
 [  0.9        -51.99918374]
 [  1.         -46.08867443]
 [  1.1         17.238227  ]
 [  1.14141667  43.67753982]]","[[0.         0.04637149]
 [0.1        0.30680375]
 [0.2        0.29895669]
 [0.3        0.33382903]
 [0.4        1.04076391]
 [0.5        1.43771341]
 [0.6        1.66730846]
 [0.7        0.0809311 ]
 [0.8        0.42468959]
 [0.9        1.60564516]
 [1.         1.33122089]
 [1.1        0.39324532]
 [1.14141667 1.35169292]]",1,0.229
8760830999,f,19,english,5,4,english,2024-02-09 14:29:59.482365,False,2,327,sounds\french\audio/french_705.wav,"[[  0.         -44.81822656]
 [  0.1         43.00671419]
 [  0.2         24.16341234]
 [  0.3          9.70814333]
 [  0.4        -29.08028794]
 [  0.5         13.99687292]
 [  0.6        -94.34527698]
 [  0.7         82.02293288]
 [  0.8         97.80429139]
 [  0.9         50.38684798]
 [  1.          50.88531701]
 [  1.1        -60.62155268]
 [  1.14141667  17.68821643]]","[[0.         0.56671605]
 [0.1        1.20420295]
 [0.2        0.70571207]
 [0.3        0.52675366]
 [0.4        0.39172788]
 [0.5        1.41562153]
 [0.6        0.31474912]
 [0.7        0.39809757]
 [0.8        1.50165922]
 [0.9        1.53053157]
 [1.         1.50980535]
 [1.1        1.19355888]
 [1.14141667 0.79977781]]",1,0.185
8760830999,f,19,english,5,4,english,2024-02-09 14:29:59.482365,False,2,328,sounds\french\audio/french_112.wav,"[[  0.          -8.67519004]
 [  0.1         92.32686685]
 [  0.2        -90.11400299]
 [  0.3        -70.26652749]
 [  0.4         90.1952046 ]
 [  0.5        -18.57411381]
 [  0.6         87.02651396]
 [  0.7         74.95745067]
 [  0.8        -76.86566846]
 [  0.9        -17.37300567]
 [  1.          66.02082776]
 [  1.1         74.04162453]
 [  1.14141667  30.79891374]]","[[0.         0.05511238]
 [0.1        0.5303996 ]
 [0.2        1.12381403]
 [0.3        0.96995279]
 [0.4        1.443926  ]
 [0.5        0.7152831 ]
 [0.6        1.98165732]
 [0.7        1.64696502]
 [0.8        0.33650489]
 [0.9        0.64053091]
 [1.         1.69815657]
 [1.1        1.28891834]
 [1.14141667 1.86060704]]",0,0.045
8760830999,f,19,english,5,4,english,2024-02-09 14:29:59.482365,False,2,329,sounds\french\audio/french_466.wav,"[[  0.         -23.27991826]
 [  0.1         97.23850922]
 [  0.2        -96.9465149 ]
 [  0.3        -86.96925433]
 [  0.4          2.85783603]
 [  0.5         95.91347723]
 [  0.6        -63.35172498]
 [  0.7        -25.95383213]
 [  0.8        -52.59375309]
 [  0.9        -70.79178645]
 [  1.         -29.48964846]
 [  1.1        -52.94204961]
 [  1.14141667  46.57113475]]","[[0.         1.52804132]
 [0.1        0.01047206]
 [0.2        1.6544422 ]
 [0.3        1.82991551]
 [0.4        0.86899364]
 [0.5        1.25331213]
 [0.6        1.68509567]
 [0.7        1.20636117]
 [0.8        0.84252752]
 [0.9        1.91154977]
 [1.         0.45592683]
 [1.1        0.35898479]
 [1.14141667 1.03194217]]",1,0.534
8760830999,f,19,english,5,4,english,2024-02-09 14:29:59.482365,False,2,330,sounds\french\audio/french_938.wav,"[[  0.          78.88220732]
 [  0.1         -3.22217582]
 [  0.2         31.59313942]
 [  0.3        -87.34103223]
 [  0.4         26.56163826]
 [  0.5        -64.307528  ]
 [  0.6         85.8718617 ]
 [  0.7         60.41522049]
 [  0.8        -50.06881787]
 [  0.9         82.85214722]
 [  1.         -75.67548959]
 [  1.1         30.15245277]
 [  1.14141667 -12.395703  ]]","[[0.         0.57815616]
 [0.1        1.18097533]
 [0.2        0.53220918]
 [0.3        0.09451103]
 [0.4        1.66363874]
 [0.5        0.16302061]
 [0.6        0.92582254]
 [0.7        1.59975108]
 [0.8        0.43386097]
 [0.9        1.25868971]
 [1.         0.54585511]
 [1.1        1.6315762 ]
 [1.14141667 1.60331722]]",0,0.188
8760830999,f,19,english,5,4,english,2024-02-09 14:29:59.482365,False,2,331,sounds\french\audio/french_251.wav,"[[  0.          -6.10327237]
 [  0.1        -31.81812212]
 [  0.2          1.49653309]
 [  0.3         36.35816444]
 [  0.4         -9.41951006]
 [  0.5        -36.93530582]
 [  0.6        -25.41473519]
 [  0.7         56.15025122]
 [  0.8        -13.30142445]
 [  0.9        -95.55635491]
 [  1.         -99.65392401]
 [  1.1         -3.55054731]
 [  1.14141667 -37.18224503]]","[[0.         0.87476983]
 [0.1        0.20851018]
 [0.2        1.45345917]
 [0.3        1.96312617]
 [0.4        1.04651376]
 [0.5        1.9610622 ]
 [0.6        1.3492542 ]
 [0.7        1.04795193]
 [0.8        0.20627276]
 [0.9        0.33014387]
 [1.         1.62301135]
 [1.1        1.19927307]
 [1.14141667 1.67752435]]",0,0.797
8760830999,f,19,english,5,4,english,2024-02-09 14:29:59.482365,False,2,332,sounds\french\audio/french_419.wav,"[[  0.          40.58520075]
 [  0.1         70.57222365]
 [  0.2         69.27547246]
 [  0.3         13.01026316]
 [  0.4        -86.96432775]
 [  0.5        -28.12777227]
 [  0.6        -77.3052971 ]
 [  0.7         -4.39988688]
 [  0.8        -13.43420627]
 [  0.9        -18.15540347]
 [  1.         -15.3428643 ]
 [  1.1        -79.03113674]
 [  1.14141667 -15.39593272]]","[[0.         0.58190194]
 [0.1        0.48424411]
 [0.2        1.14946849]
 [0.3        1.05002848]
 [0.4        0.56529053]
 [0.5        1.42245746]
 [0.6        0.39921231]
 [0.7        0.67389644]
 [0.8        0.69782841]
 [0.9        1.51600011]
 [1.         0.91352501]
 [1.1        1.39266727]
 [1.14141667 0.36520872]]",1,0.37
8760830999,f,19,english,5,4,english,2024-02-09 14:29:59.482365,False,2,333,sounds\french\audio/french_835.wav,"[[  0.          91.17156261]
 [  0.1         25.08688283]
 [  0.2         48.2450029 ]
 [  0.3         90.12216344]
 [  0.4        -40.18882143]
 [  0.5        -54.27954375]
 [  0.6        -68.4756581 ]
 [  0.7        -53.08534738]
 [  0.8        -46.88967441]
 [  0.9        -31.87646129]
 [  1.          35.54298867]
 [  1.1         77.25630657]
 [  1.14141667  70.60272191]]","[[0.         0.94497771]
 [0.1        1.50226129]
 [0.2        1.19715806]
 [0.3        1.34954449]
 [0.4        0.59579265]
 [0.5        1.80504859]
 [0.6        0.24555797]
 [0.7        0.70333343]
 [0.8        0.47518266]
 [0.9        1.46400156]
 [1.         1.13067654]
 [1.1        0.43563769]
 [1.14141667 1.31798111]]",0,0.925
8760830999,f,19,english,5,4,english,2024-02-09 14:29:59.482365,False,2,334,sounds\french\audio/french_727.wav,"[[  0.         -20.05824151]
 [  0.1         69.75510409]
 [  0.2        -72.00605267]
 [  0.3         -6.83631599]
 [  0.4        -22.0103923 ]
 [  0.5         -9.32146308]
 [  0.6         55.52257653]
 [  0.7         15.94643217]
 [  0.8        -72.95565773]
 [  0.9          6.47080818]
 [  1.         -39.0563141 ]
 [  1.1        -93.66180319]
 [  1.14141667  71.53836892]]","[[0.         0.38879294]
 [0.1        1.1988761 ]
 [0.2        1.21340454]
 [0.3        1.07331199]
 [0.4        0.09560546]
 [0.5        0.49166162]
 [0.6        1.00409517]
 [0.7        0.80619997]
 [0.8        1.99971332]
 [0.9        0.66850695]
 [1.         0.85036582]
 [1.1        0.40432855]
 [1.14141667 0.54223164]]",0,0.817
8760830999,f,19,english,5,4,english,2024-02-09 14:29:59.482365,False,2,335,sounds\french\audio/french_572.wav,"[[  0.          80.73678316]
 [  0.1        -23.27448365]
 [  0.2         -6.4033247 ]
 [  0.3        -21.51480068]
 [  0.4        -23.17709403]
 [  0.5        -16.39338242]
 [  0.6        -25.06757564]
 [  0.7        -29.26685238]
 [  0.8        -87.48148555]
 [  0.9        -64.25549842]
 [  1.          40.51352953]
 [  1.1         45.12554912]
 [  1.14141667 -31.72850353]]","[[0.         1.6999436 ]
 [0.1        0.98259769]
 [0.2        0.22058864]
 [0.3        1.57552372]
 [0.4        1.16662567]
 [0.5        0.33871722]
 [0.6        1.16530793]
 [0.7        0.52650663]
 [0.8        0.8714082 ]
 [0.9        1.09019316]
 [1.         0.83858713]
 [1.1        1.2000092 ]
 [1.14141667 1.29324569]]",1,0.339
8760830999,f,19,english,5,4,english,2024-02-09 14:29:59.482365,False,2,336,sounds\french\audio/french_891.wav,"[[  0.         -99.04712605]
 [  0.1         17.3799724 ]
 [  0.2         -1.30355006]
 [  0.3         11.66108417]
 [  0.4          6.35761676]
 [  0.5        -71.86971473]
 [  0.6         20.94588527]
 [  0.7        -13.59137079]
 [  0.8         62.37473981]
 [  0.9         64.47380957]
 [  1.          -7.95126825]
 [  1.1        -34.88253316]
 [  1.14141667  95.31191198]]","[[0.         1.87208337]
 [0.1        1.3828509 ]
 [0.2        1.47231184]
 [0.3        1.45618748]
 [0.4        1.81540908]
 [0.5        0.63041518]
 [0.6        0.92124801]
 [0.7        0.65821591]
 [0.8        0.6468689 ]
 [0.9        0.86634815]
 [1.         0.44006572]
 [1.1        1.52894565]
 [1.14141667 0.84584339]]",1,0.415
8760830999,f,19,english,5,4,english,2024-02-09 14:29:59.482365,False,2,337,sounds\french\audio/french_266.wav,"[[  0.          62.50241255]
 [  0.1        -80.45225804]
 [  0.2         99.9367927 ]
 [  0.3         25.84200308]
 [  0.4          3.00063379]
 [  0.5         81.08001176]
 [  0.6        -95.83385783]
 [  0.7        -79.07600331]
 [  0.8        -11.28199515]
 [  0.9         57.49444579]
 [  1.          99.18608096]
 [  1.1        -92.12178731]
 [  1.14141667 -44.20618078]]","[[0.         0.93840708]
 [0.1        1.11812108]
 [0.2        0.26660891]
 [0.3        0.17403162]
 [0.4        0.79325238]
 [0.5        0.88590027]
 [0.6        1.71394363]
 [0.7        0.61606385]
 [0.8        1.85993339]
 [0.9        1.14234551]
 [1.         1.34332999]
 [1.1        1.65260759]
 [1.14141667 0.36778532]]",0,1.334
8760830999,f,19,english,5,4,english,2024-02-09 14:29:59.482365,False,2,338,sounds\french\audio/french_201.wav,"[[  0.         -72.31925436]
 [  0.1        -83.73511965]
 [  0.2        -34.49086418]
 [  0.3         89.08599927]
 [  0.4         15.76228722]
 [  0.5        -84.79877229]
 [  0.6         83.5619566 ]
 [  0.7         42.48197655]
 [  0.8        -87.12007155]
 [  0.9         28.75196149]
 [  1.          -5.66779728]
 [  1.1         65.6210541 ]
 [  1.14141667  66.2198893 ]]","[[0.         1.48994907]
 [0.1        0.53964537]
 [0.2        1.99160806]
 [0.3        1.65371383]
 [0.4        0.71585117]
 [0.5        1.9295887 ]
 [0.6        1.67418928]
 [0.7        0.08287571]
 [0.8        1.63295741]
 [0.9        1.21441085]
 [1.         0.56429709]
 [1.1        0.84703209]
 [1.14141667 1.20117356]]",1,0.256
8760830999,f,19,english,5,4,english,2024-02-09 14:29:59.482365,False,2,339,sounds\french\audio/french_84.wav,"[[  0.         -96.37151913]
 [  0.1        -51.32047359]
 [  0.2          6.16674673]
 [  0.3        -74.79812615]
 [  0.4         72.70338153]
 [  0.5         73.29646829]
 [  0.6         58.46115838]
 [  0.7        -88.22895489]
 [  0.8         96.14628935]
 [  0.9        -22.0220861 ]
 [  1.         -17.5351727 ]
 [  1.1         70.12401617]
 [  1.14141667  19.58806578]]","[[0.         0.66956982]
 [0.1        0.87788838]
 [0.2        1.80968749]
 [0.3        1.92619873]
 [0.4        0.19629773]
 [0.5        1.83630482]
 [0.6        1.73731066]
 [0.7        0.02437314]
 [0.8        0.0262643 ]
 [0.9        1.01003676]
 [1.         0.76011071]
 [1.1        1.03268267]
 [1.14141667 0.54269981]]",1,0.656
8760830999,f,19,english,5,4,english,2024-02-09 14:29:59.482365,False,2,340,sounds\french\audio/french_952.wav,"[[  0.         -16.04149759]
 [  0.1         46.67121849]
 [  0.2         -7.75723509]
 [  0.3         25.03407062]
 [  0.4         58.48775829]
 [  0.5         71.77333472]
 [  0.6         88.64449387]
 [  0.7        -10.04237369]
 [  0.8         53.30903822]
 [  0.9         77.56829483]
 [  1.          70.17417278]
 [  1.1        -41.2052464 ]
 [  1.14141667  70.81168009]]","[[0.         1.63363299]
 [0.1        0.65674372]
 [0.2        0.94426956]
 [0.3        0.96418077]
 [0.4        1.76592992]
 [0.5        1.79494342]
 [0.6        1.63409215]
 [0.7        1.58467162]
 [0.8        1.58753119]
 [0.9        0.34334886]
 [1.         0.58364948]
 [1.1        0.18580202]
 [1.14141667 1.37774726]]",0,1.438
8760830999,f,19,english,5,4,english,2024-02-09 14:29:59.482365,False,2,341,sounds\french\audio/french_77.wav,"[[  0.          84.11414351]
 [  0.1        -37.19083942]
 [  0.2        -88.97309573]
 [  0.3        -95.03979249]
 [  0.4         41.3735366 ]
 [  0.5         27.6706881 ]
 [  0.6        -36.0397327 ]
 [  0.7          1.46151105]
 [  0.8         34.44716143]
 [  0.9         70.8561762 ]
 [  1.         -35.3308977 ]
 [  1.1         58.18645208]
 [  1.14141667   5.76184625]]","[[0.         1.75422575]
 [0.1        0.18377725]
 [0.2        1.79563145]
 [0.3        0.75116623]
 [0.4        0.40681435]
 [0.5        0.97594444]
 [0.6        1.32678044]
 [0.7        0.25922475]
 [0.8        1.63656011]
 [0.9        1.26331981]
 [1.         0.78357408]
 [1.1        1.84376428]
 [1.14141667 1.26865568]]",1,0.258
8760830999,f,19,english,5,4,english,2024-02-09 14:29:59.482365,False,2,342,sounds\french\audio/french_740.wav,"[[  0.         -23.8561275 ]
 [  0.1         12.41197017]
 [  0.2        -75.22373784]
 [  0.3         13.95432459]
 [  0.4         86.43925379]
 [  0.5        -59.06853257]
 [  0.6          8.7812543 ]
 [  0.7        -81.4658243 ]
 [  0.8        -37.53161999]
 [  0.9        -71.6710365 ]
 [  1.          31.54551497]
 [  1.1         73.9548309 ]
 [  1.14141667  48.2786376 ]]","[[0.         1.38106788]
 [0.1        0.96449807]
 [0.2        1.81317808]
 [0.3        0.48903687]
 [0.4        0.89209498]
 [0.5        0.79820054]
 [0.6        1.20695925]
 [0.7        0.55003693]
 [0.8        0.44955963]
 [0.9        1.78000651]
 [1.         1.38553911]
 [1.1        0.82064893]
 [1.14141667 1.09253076]]",1,0.245
8760830999,f,19,english,5,4,english,2024-02-09 14:29:59.482365,False,2,343,sounds\french\audio/french_360.wav,"[[  0.          80.67919688]
 [  0.1        -27.94865849]
 [  0.2         22.32787623]
 [  0.3         45.22188439]
 [  0.4         -7.80157648]
 [  0.5         86.06729103]
 [  0.6        -43.84449169]
 [  0.7         41.33735645]
 [  0.8        -33.22134049]
 [  0.9         24.39834814]
 [  1.         -32.3038852 ]
 [  1.1         18.07242607]
 [  1.14141667 -15.85341792]]","[[0.         0.20606147]
 [0.1        1.11725372]
 [0.2        0.05039174]
 [0.3        1.66716796]
 [0.4        0.33872424]
 [0.5        1.77425049]
 [0.6        0.57660507]
 [0.7        1.5995083 ]
 [0.8        0.05507617]
 [0.9        1.78566   ]
 [1.         0.95403795]
 [1.1        1.61112926]
 [1.14141667 1.37482411]]",1,0.068
8760830999,f,19,english,5,4,english,2024-02-09 14:29:59.482365,False,2,344,sounds\french\audio/french_583.wav,"[[  0.          26.44085031]
 [  0.1         14.41399243]
 [  0.2        -44.04798398]
 [  0.3         50.00895276]
 [  0.4         19.39525308]
 [  0.5        -25.1077287 ]
 [  0.6         78.46877294]
 [  0.7          9.01865163]
 [  0.8         53.79896315]
 [  0.9        -34.8052192 ]
 [  1.         -44.31336501]
 [  1.1         39.98165615]
 [  1.14141667  86.9176988 ]]","[[0.         0.31061179]
 [0.1        0.85478015]
 [0.2        0.56023647]
 [0.3        0.81245   ]
 [0.4        1.75738507]
 [0.5        0.57873184]
 [0.6        0.13356268]
 [0.7        0.57025844]
 [0.8        0.66409288]
 [0.9        0.72593729]
 [1.         1.39487215]
 [1.1        1.47926175]
 [1.14141667 1.39400974]]",1,0.729
8760830999,f,19,english,5,4,english,2024-02-09 14:29:59.482365,False,2,345,sounds\french\audio/french_817.wav,"[[  0.         -30.94248102]
 [  0.1         -4.29051335]
 [  0.2        -40.67450271]
 [  0.3        -98.30979695]
 [  0.4         33.8298658 ]
 [  0.5        -10.25342909]
 [  0.6        -44.71615858]
 [  0.7        -44.75020149]
 [  0.8         83.65764996]
 [  0.9         43.69158252]
 [  1.          46.49261848]
 [  1.1          1.97001413]
 [  1.14141667  -3.17194908]]","[[0.         0.42536639]
 [0.1        0.63122361]
 [0.2        1.33951683]
 [0.3        0.48386301]
 [0.4        0.54931862]
 [0.5        1.17298133]
 [0.6        0.90112803]
 [0.7        1.02780662]
 [0.8        1.75749166]
 [0.9        1.02056685]
 [1.         1.3036828 ]
 [1.1        1.81996597]
 [1.14141667 0.33384971]]",1,0.243
8760830999,f,19,english,5,4,english,2024-02-09 14:29:59.482365,False,2,346,sounds\french\audio/french_687.wav,"[[  0.         -76.70741951]
 [  0.1         11.81900273]
 [  0.2        -62.20999399]
 [  0.3          2.67304055]
 [  0.4         12.46681829]
 [  0.5        -10.05935242]
 [  0.6         19.9189964 ]
 [  0.7        -96.3122864 ]
 [  0.8         78.47737382]
 [  0.9         81.40399245]
 [  1.          17.06206647]
 [  1.1        -61.21916449]
 [  1.14141667  44.35270256]]","[[0.         1.78287127]
 [0.1        1.90034528]
 [0.2        0.43252357]
 [0.3        0.13682227]
 [0.4        1.0793641 ]
 [0.5        1.72525482]
 [0.6        1.05148107]
 [0.7        1.82750481]
 [0.8        0.59843327]
 [0.9        0.26130519]
 [1.         0.21909613]
 [1.1        0.93247592]
 [1.14141667 1.52801605]]",0,0.594
8760830999,f,19,english,5,4,english,2024-02-09 14:29:59.482365,False,2,347,sounds\french\audio/french_732.wav,"[[  0.         -70.63652138]
 [  0.1         74.94740029]
 [  0.2        -68.01034885]
 [  0.3        -51.20619296]
 [  0.4         26.1436221 ]
 [  0.5         83.39781629]
 [  0.6        -65.97851273]
 [  0.7         58.08888626]
 [  0.8         58.72916245]
 [  0.9        -29.18485422]
 [  1.          94.40341255]
 [  1.1         59.9673363 ]
 [  1.14141667  82.14207773]]","[[0.         0.50644446]
 [0.1        0.52417177]
 [0.2        1.08346926]
 [0.3        0.58321107]
 [0.4        0.01328247]
 [0.5        0.60567381]
 [0.6        0.20881444]
 [0.7        1.3772371 ]
 [0.8        1.44843636]
 [0.9        1.25039606]
 [1.         0.46179151]
 [1.1        1.87303499]
 [1.14141667 0.75452983]]",1,0.298
8760830999,f,19,english,5,4,english,2024-02-09 14:29:59.482365,False,2,348,sounds\french\audio/french_74.wav,"[[  0.          84.74621133]
 [  0.1         92.18246646]
 [  0.2        -59.5459939 ]
 [  0.3        -98.70399026]
 [  0.4        -95.53423626]
 [  0.5        -57.56578286]
 [  0.6        -23.70931613]
 [  0.7         59.8421939 ]
 [  0.8        -90.10462767]
 [  0.9        -16.09842749]
 [  1.          62.6860723 ]
 [  1.1        -21.10074863]
 [  1.14141667  19.46279158]]","[[0.         0.15482924]
 [0.1        0.90780051]
 [0.2        1.42386573]
 [0.3        1.79795319]
 [0.4        0.68328648]
 [0.5        1.03595689]
 [0.6        0.55161363]
 [0.7        0.09331541]
 [0.8        0.72998265]
 [0.9        1.18746687]
 [1.         1.32035057]
 [1.1        0.35098378]
 [1.14141667 0.11551636]]",1,0.456
8760830999,f,19,english,5,4,english,2024-02-09 14:29:59.482365,False,2,349,sounds\french\audio/french_11.wav,"[[  0.         -53.97722238]
 [  0.1        -31.21118385]
 [  0.2        -36.80951357]
 [  0.3        -95.45532381]
 [  0.4         58.15480481]
 [  0.5         71.015522  ]
 [  0.6         65.59713254]
 [  0.7         10.73762905]
 [  0.8         28.00448009]
 [  0.9         -7.76276887]
 [  1.          39.23656931]
 [  1.1        -90.22036196]
 [  1.14141667 -39.83688041]]","[[0.         1.09610164]
 [0.1        0.22350944]
 [0.2        1.00123418]
 [0.3        0.87401162]
 [0.4        0.20703956]
 [0.5        0.5150991 ]
 [0.6        1.3674314 ]
 [0.7        0.96376634]
 [0.8        0.85790612]
 [0.9        1.59940673]
 [1.         0.40281071]
 [1.1        1.59018171]
 [1.14141667 1.67678977]]",1,0.168
8760830999,f,19,english,5,4,english,2024-02-09 14:29:59.482365,False,2,350,sounds\french\audio/french_475.wav,"[[ 0.00000000e+00 -5.40765714e+01]
 [ 1.00000000e-01 -7.75997382e+01]
 [ 2.00000000e-01 -5.96417481e+00]
 [ 3.00000000e-01  9.03794085e+01]
 [ 4.00000000e-01  7.76475749e+01]
 [ 5.00000000e-01 -5.10170631e-02]
 [ 6.00000000e-01 -4.82331031e+01]
 [ 7.00000000e-01  6.84735600e+01]
 [ 8.00000000e-01  1.61116018e+00]
 [ 9.00000000e-01  8.56911048e+01]
 [ 1.00000000e+00  2.45551859e+01]
 [ 1.10000000e+00 -3.23235712e+01]
 [ 1.14141667e+00  6.46930948e+01]]","[[0.         1.22843023]
 [0.1        0.67465416]
 [0.2        1.46352817]
 [0.3        1.65803665]
 [0.4        0.3744317 ]
 [0.5        1.25600303]
 [0.6        1.88058254]
 [0.7        1.63911274]
 [0.8        1.55282086]
 [0.9        0.43137501]
 [1.         0.79044925]
 [1.1        1.78282868]
 [1.14141667 1.0446802 ]]",0,0.163
8760830999,f,19,english,5,4,english,2024-02-09 14:29:59.482365,False,2,351,sounds\french\audio/french_597.wav,"[[  0.           3.81117618]
 [  0.1          1.65290583]
 [  0.2         75.20334273]
 [  0.3        -31.80520796]
 [  0.4         47.06388339]
 [  0.5        -12.18502222]
 [  0.6         16.00653048]
 [  0.7         -1.06509013]
 [  0.8        -88.67460342]
 [  0.9         79.23096379]
 [  1.         -37.6385831 ]
 [  1.1        -82.3453721 ]
 [  1.14141667  50.39965119]]","[[0.         0.64425147]
 [0.1        1.80851034]
 [0.2        0.13064714]
 [0.3        1.14595158]
 [0.4        1.20714689]
 [0.5        1.21300166]
 [0.6        1.59786204]
 [0.7        1.5777009 ]
 [0.8        1.85046757]
 [0.9        0.15850725]
 [1.         0.67581982]
 [1.1        0.97379481]
 [1.14141667 1.28226838]]",0,0.449
8760830999,f,19,english,5,4,english,2024-02-09 14:29:59.482365,False,2,352,sounds\french\audio/french_806.wav,"[[  0.          -3.4136951 ]
 [  0.1        -96.63930225]
 [  0.2        -34.30141865]
 [  0.3        -30.66323788]
 [  0.4         62.10302885]
 [  0.5        -47.7287553 ]
 [  0.6          6.07544645]
 [  0.7        -74.8079892 ]
 [  0.8         -8.64680391]
 [  0.9         25.48154642]
 [  1.          -1.70416427]
 [  1.1         91.0447775 ]
 [  1.14141667  42.82556821]]","[[0.         0.3955261 ]
 [0.1        1.81981769]
 [0.2        0.71552468]
 [0.3        0.43164846]
 [0.4        0.7004101 ]
 [0.5        1.14693871]
 [0.6        1.60976314]
 [0.7        0.12938402]
 [0.8        1.25657195]
 [0.9        0.88710724]
 [1.         0.44623394]
 [1.1        1.30104916]
 [1.14141667 1.65369707]]",1,0.341
8760830999,f,19,english,5,4,english,2024-02-09 14:29:59.482365,False,2,353,sounds\french\audio/french_897.wav,"[[  0.         -26.22801359]
 [  0.1         54.88249524]
 [  0.2        -61.89999753]
 [  0.3        -39.16934717]
 [  0.4        -83.10033466]
 [  0.5        -24.03027332]
 [  0.6        -10.01438576]
 [  0.7        -53.20735298]
 [  0.8         -7.45882083]
 [  0.9         24.36426577]
 [  1.         -43.69873215]
 [  1.1          1.62866067]
 [  1.14141667  -5.58077754]]","[[0.         1.74666581]
 [0.1        0.37705953]
 [0.2        1.97260084]
 [0.3        0.50629265]
 [0.4        1.99794903]
 [0.5        1.02145621]
 [0.6        1.05564508]
 [0.7        0.634951  ]
 [0.8        1.03539482]
 [0.9        0.88460179]
 [1.         0.12128671]
 [1.1        1.46236151]
 [1.14141667 0.62307572]]",1,0.365
8760830999,f,19,english,5,4,english,2024-02-09 14:29:59.482365,False,2,354,sounds\french\audio/french_514.wav,"[[  0.          19.52749286]
 [  0.1        -18.57686292]
 [  0.2        -11.65218112]
 [  0.3         67.73335024]
 [  0.4          2.50414412]
 [  0.5          9.98358294]
 [  0.6        -79.6394771 ]
 [  0.7        -56.69454189]
 [  0.8        -18.40953805]
 [  0.9        -52.29201997]
 [  1.          65.08217065]
 [  1.1        -33.80106577]
 [  1.14141667  66.85973887]]","[[0.         0.20353533]
 [0.1        0.56212811]
 [0.2        1.19554763]
 [0.3        1.25373802]
 [0.4        0.49820491]
 [0.5        0.39911731]
 [0.6        1.7639196 ]
 [0.7        0.02096069]
 [0.8        1.56380325]
 [0.9        0.9626698 ]
 [1.         1.00011748]
 [1.1        1.32853589]
 [1.14141667 0.17517316]]",0,0.077
8760830999,f,19,english,5,4,english,2024-02-09 14:29:59.482365,False,2,355,sounds\french\audio/french_22.wav,"[[  0.          57.57437329]
 [  0.1         91.90169455]
 [  0.2        -54.72406642]
 [  0.3        -58.21202921]
 [  0.4        -16.12745405]
 [  0.5        -77.79996065]
 [  0.6        -90.51311513]
 [  0.7          1.00723392]
 [  0.8        -64.74173294]
 [  0.9         46.18077407]
 [  1.         -18.86967466]
 [  1.1        -35.65415422]
 [  1.14141667   4.83646108]]","[[0.         1.75197151]
 [0.1        0.33106486]
 [0.2        0.60913572]
 [0.3        1.92337105]
 [0.4        0.5656997 ]
 [0.5        1.48592388]
 [0.6        0.37318603]
 [0.7        0.81705885]
 [0.8        1.04732029]
 [0.9        0.12002022]
 [1.         1.32860669]
 [1.1        1.41358368]
 [1.14141667 0.43476345]]",1,0.038
8760830999,f,19,english,5,4,english,2024-02-09 14:29:59.482365,False,2,356,sounds\french\audio/french_181.wav,"[[  0.         -95.95313982]
 [  0.1         91.63677354]
 [  0.2        -91.79980108]
 [  0.3         95.40210499]
 [  0.4         68.17989767]
 [  0.5         91.86803384]
 [  0.6         20.20115402]
 [  0.7        -36.24540979]
 [  0.8         20.77489363]
 [  0.9        -36.30620857]
 [  1.         -52.43059698]
 [  1.1        -66.44451369]
 [  1.14141667 -36.9073082 ]]","[[0.         0.44165639]
 [0.1        1.91213413]
 [0.2        1.20479938]
 [0.3        1.03854449]
 [0.4        0.34466606]
 [0.5        1.08947615]
 [0.6        0.89950013]
 [0.7        1.58660506]
 [0.8        1.10035668]
 [0.9        1.78772501]
 [1.         0.45092467]
 [1.1        1.08205846]
 [1.14141667 1.12829283]]",1,0.077
8760830999,f,19,english,5,4,english,2024-02-09 14:29:59.482365,False,2,357,sounds\french\audio/french_916.wav,"[[  0.          36.60514791]
 [  0.1         67.71028213]
 [  0.2        -14.627271  ]
 [  0.3        -96.69583428]
 [  0.4          6.99292361]
 [  0.5         98.33986356]
 [  0.6        -83.4018512 ]
 [  0.7         40.81394323]
 [  0.8          1.22546887]
 [  0.9         -0.4367378 ]
 [  1.          11.82973509]
 [  1.1          1.50837578]
 [  1.14141667  22.61945616]]","[[0.         0.71192514]
 [0.1        0.52787746]
 [0.2        1.09974622]
 [0.3        1.70171287]
 [0.4        0.41492285]
 [0.5        0.32961241]
 [0.6        0.54015023]
 [0.7        1.11593731]
 [0.8        1.21943801]
 [0.9        0.4397667 ]
 [1.         0.30306907]
 [1.1        0.95828899]
 [1.14141667 0.74726021]]",0,0.503
8760830999,f,19,english,5,4,english,2024-02-09 14:29:59.482365,False,2,358,sounds\french\audio/french_588.wav,"[[  0.          80.11124336]
 [  0.1         -9.60415228]
 [  0.2        -98.33491382]
 [  0.3        -16.26514488]
 [  0.4        -90.16609663]
 [  0.5         -6.08584828]
 [  0.6        -25.80594889]
 [  0.7        -25.08652089]
 [  0.8        -98.80611815]
 [  0.9         17.08532713]
 [  1.           0.80863561]
 [  1.1        -86.5783891 ]
 [  1.14141667 -56.09457121]]","[[0.         0.91903139]
 [0.1        1.75302379]
 [0.2        1.95019279]
 [0.3        0.86486634]
 [0.4        0.04555032]
 [0.5        0.65069663]
 [0.6        0.87516436]
 [0.7        0.98178697]
 [0.8        1.45894707]
 [0.9        1.15328594]
 [1.         0.14560994]
 [1.1        1.58594883]
 [1.14141667 1.71291016]]",1,0.55
8760830999,f,19,english,5,4,english,2024-02-09 14:29:59.482365,False,2,359,sounds\french\audio/french_939.wav,"[[  0.          68.2384799 ]
 [  0.1         98.20525801]
 [  0.2        -42.19761406]
 [  0.3         43.17355225]
 [  0.4        -14.96635905]
 [  0.5        -43.49672798]
 [  0.6         41.76813315]
 [  0.7         88.36147994]
 [  0.8         59.42037908]
 [  0.9         86.723379  ]
 [  1.         -78.72989076]
 [  1.1        -26.66254955]
 [  1.14141667 -48.10200682]]","[[0.         0.18942364]
 [0.1        1.24422322]
 [0.2        0.84726027]
 [0.3        0.63121745]
 [0.4        1.39450382]
 [0.5        1.83680784]
 [0.6        1.84374711]
 [0.7        0.72560086]
 [0.8        1.11819201]
 [0.9        1.00539219]
 [1.         1.52240486]
 [1.1        1.78566065]
 [1.14141667 1.0817634 ]]",1,0.992
8760830999,f,19,english,5,4,english,2024-02-09 14:29:59.482365,False,2,360,sounds\french\audio/french_833.wav,"[[  0.         -22.64377916]
 [  0.1         39.23109032]
 [  0.2         59.98257397]
 [  0.3        -65.49669768]
 [  0.4         95.44390213]
 [  0.5         16.36680149]
 [  0.6        -95.74603826]
 [  0.7          6.50870015]
 [  0.8         55.04487349]
 [  0.9         83.33960194]
 [  1.          20.98555864]
 [  1.1        -86.19858113]
 [  1.14141667 -62.40303258]]","[[0.         0.41211545]
 [0.1        1.22030284]
 [0.2        1.60836668]
 [0.3        0.84423089]
 [0.4        0.37549497]
 [0.5        0.89903376]
 [0.6        1.16761525]
 [0.7        0.92946369]
 [0.8        0.59809775]
 [0.9        0.0823061 ]
 [1.         0.9055233 ]
 [1.1        0.76109733]
 [1.14141667 0.74455165]]",0,0.512
8760830999,f,19,english,5,4,english,2024-02-09 14:29:59.482365,False,2,361,sounds\french\audio/french_163.wav,"[[  0.         -54.18087261]
 [  0.1         16.52339616]
 [  0.2        -81.79229621]
 [  0.3        -16.22352484]
 [  0.4         58.55115093]
 [  0.5         66.43980446]
 [  0.6         70.08690973]
 [  0.7          0.21359559]
 [  0.8         -1.74176691]
 [  0.9        -18.30540854]
 [  1.         -46.68759163]
 [  1.1         -9.78920497]
 [  1.14141667  74.28807409]]","[[0.         1.1359435 ]
 [0.1        0.63765305]
 [0.2        1.13865233]
 [0.3        0.41075248]
 [0.4        1.28098279]
 [0.5        1.3514993 ]
 [0.6        1.92825974]
 [0.7        1.1981292 ]
 [0.8        0.77184811]
 [0.9        1.15917036]
 [1.         0.4764557 ]
 [1.1        0.00915949]
 [1.14141667 1.50578286]]",1,0.655
8760830999,f,19,english,5,4,english,2024-02-09 14:29:59.482365,False,2,362,sounds\french\audio/french_237.wav,"[[  0.          31.70987786]
 [  0.1         44.65820907]
 [  0.2         13.3186434 ]
 [  0.3         66.1783484 ]
 [  0.4          9.82166226]
 [  0.5        -28.83229096]
 [  0.6         76.24548925]
 [  0.7         34.63949689]
 [  0.8        -48.33331205]
 [  0.9         50.34000449]
 [  1.          49.76225002]
 [  1.1         67.38211301]
 [  1.14141667  80.88052333]]","[[0.         1.31590513]
 [0.1        0.84112054]
 [0.2        0.69527524]
 [0.3        1.26135679]
 [0.4        1.98640285]
 [0.5        0.12218975]
 [0.6        0.73409952]
 [0.7        1.11406015]
 [0.8        1.16947058]
 [0.9        0.6556194 ]
 [1.         1.40941557]
 [1.1        0.44515823]
 [1.14141667 0.0317855 ]]",0,0.58
8760830999,f,19,english,5,4,english,2024-02-09 14:29:59.482365,False,2,363,sounds\french\audio/french_351.wav,"[[  0.          85.6199955 ]
 [  0.1        -58.21803023]
 [  0.2        -74.01582093]
 [  0.3        -37.08836973]
 [  0.4         51.76831215]
 [  0.5          8.55965689]
 [  0.6         27.71691358]
 [  0.7        -58.19113091]
 [  0.8         27.05080067]
 [  0.9         27.79413221]
 [  1.          50.00685101]
 [  1.1        -92.88762057]
 [  1.14141667 -51.26204732]]","[[0.         0.19143732]
 [0.1        0.65841603]
 [0.2        0.92288135]
 [0.3        0.84124379]
 [0.4        0.79870299]
 [0.5        1.46106007]
 [0.6        0.45059655]
 [0.7        1.62014764]
 [0.8        1.4891219 ]
 [0.9        1.20637276]
 [1.         1.30794963]
 [1.1        0.24756041]
 [1.14141667 0.85622749]]",1,1.218
8760830999,f,19,english,5,4,english,2024-02-09 14:29:59.482365,False,2,364,sounds\french\audio/french_766.wav,"[[  0.         -38.58168868]
 [  0.1         22.77189101]
 [  0.2         63.63009662]
 [  0.3         40.26074943]
 [  0.4         -0.66607969]
 [  0.5        -74.48176635]
 [  0.6         44.59470225]
 [  0.7         39.40784466]
 [  0.8         75.30603886]
 [  0.9        -71.87275787]
 [  1.         -60.86914525]
 [  1.1        -12.66114112]
 [  1.14141667  30.22243392]]","[[0.         0.48249149]
 [0.1        0.00578023]
 [0.2        0.94527593]
 [0.3        0.33817949]
 [0.4        0.24994959]
 [0.5        1.53235452]
 [0.6        1.7345893 ]
 [0.7        0.44579509]
 [0.8        0.97625809]
 [0.9        1.50725067]
 [1.         1.16202192]
 [1.1        0.28514793]
 [1.14141667 1.97969732]]",0,0.898
8760830999,f,19,english,5,4,english,2024-02-09 14:29:59.482365,False,2,365,sounds\french\audio/french_21.wav,"[[  0.          89.54651409]
 [  0.1        -43.13982713]
 [  0.2         71.08225809]
 [  0.3         66.72411138]
 [  0.4         -4.95779125]
 [  0.5         13.2875092 ]
 [  0.6        -95.26212626]
 [  0.7         94.64042379]
 [  0.8         26.48775337]
 [  0.9        -84.36990972]
 [  1.         -76.89735733]
 [  1.1          5.2136775 ]
 [  1.14141667  50.56825865]]","[[0.         0.36254109]
 [0.1        1.70389464]
 [0.2        0.45266141]
 [0.3        0.68695224]
 [0.4        0.40977221]
 [0.5        1.79948557]
 [0.6        0.6776    ]
 [0.7        1.02790109]
 [0.8        0.46813845]
 [0.9        1.37572316]
 [1.         0.32495597]
 [1.1        0.67097563]
 [1.14141667 1.70226652]]",1,0.415
8760830999,f,19,english,5,4,english,2024-02-09 14:29:59.482365,False,2,366,sounds\french\audio/french_167.wav,"[[  0.          67.37441669]
 [  0.1         69.70827651]
 [  0.2         49.7198351 ]
 [  0.3         36.67968206]
 [  0.4        -47.79492006]
 [  0.5        -29.74098428]
 [  0.6        -47.95963057]
 [  0.7         75.79544294]
 [  0.8         14.48235506]
 [  0.9         15.77152332]
 [  1.         -40.25391992]
 [  1.1        -54.85246088]
 [  1.14141667 -75.95368518]]","[[0.         0.86747482]
 [0.1        0.63450919]
 [0.2        1.21543223]
 [0.3        1.05473401]
 [0.4        0.08529401]
 [0.5        1.27324493]
 [0.6        1.42038522]
 [0.7        1.13517299]
 [0.8        1.62550771]
 [0.9        0.2462689 ]
 [1.         0.39322883]
 [1.1        1.05332498]
 [1.14141667 1.73203193]]",1,0.401
8760830999,f,19,english,5,4,english,2024-02-09 14:29:59.482365,False,2,367,sounds\french\audio/french_152.wav,"[[  0.          22.60875431]
 [  0.1         14.43122851]
 [  0.2         -1.17604154]
 [  0.3         99.62569478]
 [  0.4        -64.65569176]
 [  0.5        -41.8275267 ]
 [  0.6         34.66502166]
 [  0.7        -34.34381975]
 [  0.8        -81.02141252]
 [  0.9         -5.97302513]
 [  1.          -9.83226783]
 [  1.1        -81.65012796]
 [  1.14141667 -85.13057585]]","[[0.         0.83599951]
 [0.1        1.5682517 ]
 [0.2        1.13690913]
 [0.3        0.25393691]
 [0.4        0.7777625 ]
 [0.5        0.49994145]
 [0.6        0.40465775]
 [0.7        1.59194632]
 [0.8        1.86410196]
 [0.9        1.45014204]
 [1.         1.09472926]
 [1.1        1.56254354]
 [1.14141667 1.24100029]]",1,0.42
8760830999,f,19,english,5,4,english,2024-02-09 14:29:59.482365,False,2,368,sounds\french\audio/french_542.wav,"[[  0.         -51.06988227]
 [  0.1         85.49879696]
 [  0.2         63.15700412]
 [  0.3        -36.64736247]
 [  0.4         75.15639634]
 [  0.5         -9.43778213]
 [  0.6         22.73785565]
 [  0.7         38.92400765]
 [  0.8        -17.14219802]
 [  0.9         61.69992383]
 [  1.         -24.75082228]
 [  1.1          5.64044157]
 [  1.14141667 -85.77081832]]","[[0.         1.35657216]
 [0.1        1.49253391]
 [0.2        1.82410023]
 [0.3        0.95543685]
 [0.4        1.06162419]
 [0.5        1.1121259 ]
 [0.6        1.53646916]
 [0.7        1.27623094]
 [0.8        0.95680642]
 [0.9        0.19635283]
 [1.         1.5746935 ]
 [1.1        0.60238521]
 [1.14141667 0.8477855 ]]",0,0.325
8760830999,f,19,english,5,4,english,2024-02-09 14:29:59.482365,False,2,369,sounds\french\audio/french_554.wav,"[[  0.         -63.33551975]
 [  0.1        -76.57986439]
 [  0.2        -22.17813556]
 [  0.3        -68.90025731]
 [  0.4        -20.79960873]
 [  0.5         79.3432264 ]
 [  0.6         28.49124228]
 [  0.7        -51.7988221 ]
 [  0.8         14.88226082]
 [  0.9         47.41470029]
 [  1.         -31.15234452]
 [  1.1         50.45092822]
 [  1.14141667  -4.11874255]]","[[0.         1.80292439]
 [0.1        1.19257657]
 [0.2        1.70801265]
 [0.3        0.22316488]
 [0.4        1.5813195 ]
 [0.5        0.09042066]
 [0.6        1.08370357]
 [0.7        1.08104   ]
 [0.8        0.69564773]
 [0.9        1.14902191]
 [1.         1.78078558]
 [1.1        0.72980641]
 [1.14141667 0.82846414]]",0,0.246
8760830999,f,19,english,5,4,english,2024-02-09 14:29:59.482365,False,2,370,sounds\french\audio/french_497.wav,"[[  0.         -11.10232423]
 [  0.1         69.97508857]
 [  0.2        -17.59807726]
 [  0.3        -25.98084737]
 [  0.4        -50.44930898]
 [  0.5        -45.94995514]
 [  0.6          8.45642555]
 [  0.7        -18.86865245]
 [  0.8        -10.10667513]
 [  0.9         75.64025007]
 [  1.          -5.73955185]
 [  1.1        -69.83982299]
 [  1.14141667  56.51270029]]","[[0.         1.74915461]
 [0.1        0.91469854]
 [0.2        0.9345582 ]
 [0.3        1.8424865 ]
 [0.4        1.64628382]
 [0.5        0.39858154]
 [0.6        0.5325837 ]
 [0.7        0.60517523]
 [0.8        1.05318778]
 [0.9        0.58073606]
 [1.         0.8475124 ]
 [1.1        0.92219594]
 [1.14141667 1.33552317]]",1,0.744
8760830999,f,19,english,5,4,english,2024-02-09 14:29:59.482365,False,2,371,sounds\french\audio/french_561.wav,"[[  0.          67.40101017]
 [  0.1         36.60368445]
 [  0.2         39.55672366]
 [  0.3         54.30102721]
 [  0.4         20.03392426]
 [  0.5        -29.68246873]
 [  0.6         22.40430281]
 [  0.7        -74.48697664]
 [  0.8         13.2806252 ]
 [  0.9         44.09035723]
 [  1.          -8.48015654]
 [  1.1         45.0458021 ]
 [  1.14141667 -93.39742635]]","[[0.         0.645078  ]
 [0.1        0.26756066]
 [0.2        0.69254265]
 [0.3        1.32198922]
 [0.4        1.02700149]
 [0.5        0.98226919]
 [0.6        0.81279805]
 [0.7        0.24367369]
 [0.8        0.57451136]
 [0.9        0.58440629]
 [1.         1.65336997]
 [1.1        1.04192986]
 [1.14141667 0.23712889]]",0,0.2
8760830999,f,19,english,5,4,english,2024-02-09 14:29:59.482365,False,2,372,sounds\french\audio/french_10.wav,"[[  0.          28.16844794]
 [  0.1         46.30100241]
 [  0.2        -21.12843146]
 [  0.3         -4.52409741]
 [  0.4        -24.47310068]
 [  0.5         86.31547098]
 [  0.6          4.34036217]
 [  0.7         81.8697429 ]
 [  0.8         52.86482299]
 [  0.9        -44.35586263]
 [  1.          65.0577904 ]
 [  1.1         67.73719127]
 [  1.14141667 -32.2641705 ]]","[[0.         1.16253074]
 [0.1        0.75705097]
 [0.2        0.7794308 ]
 [0.3        1.19848321]
 [0.4        1.01301561]
 [0.5        1.15552006]
 [0.6        0.763322  ]
 [0.7        0.73902021]
 [0.8        0.69164327]
 [0.9        1.48695184]
 [1.         0.54071971]
 [1.1        0.56546023]
 [1.14141667 0.40431744]]",1,0.387
8760830999,f,19,english,5,4,english,2024-02-09 14:29:59.482365,False,2,373,sounds\french\audio/french_601.wav,"[[  0.         -60.16261887]
 [  0.1         58.32501749]
 [  0.2        -44.78853843]
 [  0.3        -17.24266457]
 [  0.4        -78.33579563]
 [  0.5         79.97866624]
 [  0.6        -20.55581515]
 [  0.7         43.78837108]
 [  0.8        -73.15029891]
 [  0.9         90.05348961]
 [  1.          37.64890544]
 [  1.1         22.47191591]
 [  1.14141667  73.82058256]]","[[0.         1.95619765]
 [0.1        1.42765137]
 [0.2        0.44130142]
 [0.3        1.17849708]
 [0.4        0.56027503]
 [0.5        1.3872376 ]
