subj,sex,age,language,english,french,native_lang,date,practice,block,trial,stim,pitch,stretch,response,rt
8773808799,f,21,english,5,3,english,2024-01-25 10:31:19.575190,True,0,0,sounds\french\audio/french_757.wav,"[[  0.           6.48639762]
 [  0.1        -51.86545104]
 [  0.2         13.60583501]
 [  0.3         42.98326891]
 [  0.4         80.68221451]
 [  0.5         60.20667087]
 [  0.6        -66.39272407]
 [  0.7        -56.86759688]
 [  0.8         31.92005434]
 [  0.9        -15.9358313 ]
 [  1.         -11.85374841]
 [  1.1        -30.88500349]
 [  1.14141667  54.27189093]]","[[0.         0.21123235]
 [0.1        0.07273278]
 [0.2        1.91645599]
 [0.3        0.23026147]
 [0.4        0.90860197]
 [0.5        1.24090146]
 [0.6        1.63751086]
 [0.7        1.4449834 ]
 [0.8        0.31701973]
 [0.9        0.97326814]
 [1.         0.32789054]
 [1.1        0.1026242 ]
 [1.14141667 1.17122037]]",0,22.66
8773808799,f,21,english,5,3,english,2024-01-25 10:31:19.575190,True,0,1,sounds\french\audio/french_516.wav,"[[  0.          88.67453169]
 [  0.1        -32.80281116]
 [  0.2         70.97056018]
 [  0.3         30.08988452]
 [  0.4         24.3392461 ]
 [  0.5        -13.33118715]
 [  0.6        -31.56481899]
 [  0.7          3.03144729]
 [  0.8         98.28132693]
 [  0.9         59.24424313]
 [  1.         -78.84052304]
 [  1.1         33.79048953]
 [  1.14141667  15.60736791]]","[[0.         0.27330387]
 [0.1        1.74934986]
 [0.2        0.3871866 ]
 [0.3        1.42397991]
 [0.4        0.38699984]
 [0.5        1.44623849]
 [0.6        1.53806255]
 [0.7        1.95923825]
 [0.8        0.23970082]
 [0.9        1.02137392]
 [1.         1.07914984]
 [1.1        0.23007882]
 [1.14141667 1.42555187]]",0,1.829
8773808799,f,21,english,5,3,english,2024-01-25 10:31:19.575190,True,0,2,sounds\french\audio/french_393.wav,"[[  0.          72.40354298]
 [  0.1        -68.7931782 ]
 [  0.2        -47.25637096]
 [  0.3         -0.73064071]
 [  0.4         17.52161637]
 [  0.5         18.68373405]
 [  0.6         15.91231111]
 [  0.7         11.79059692]
 [  0.8         22.68772149]
 [  0.9         45.95613533]
 [  1.          56.15996167]
 [  1.1        -79.34133011]
 [  1.14141667  55.25547533]]","[[0.         0.54610905]
 [0.1        1.41160018]
 [0.2        0.31605081]
 [0.3        1.32139001]
 [0.4        1.72215639]
 [0.5        0.10655256]
 [0.6        1.22666633]
 [0.7        1.59630195]
 [0.8        0.52081854]
 [0.9        0.78383972]
 [1.         0.26247   ]
 [1.1        0.46902143]
 [1.14141667 0.85110732]]",0,1.314
8773808799,f,21,english,5,3,english,2024-01-25 10:31:19.575190,False,1,3,sounds\french\audio/french_192.wav,"[[  0.          30.82383492]
 [  0.1         56.21573393]
 [  0.2         24.16947114]
 [  0.3          3.50491484]
 [  0.4        -15.12530872]
 [  0.5         74.93169692]
 [  0.6         94.70898811]
 [  0.7         16.09582878]
 [  0.8         40.74297906]
 [  0.9        -91.28641458]
 [  1.         -63.57975611]
 [  1.1        -58.96501678]
 [  1.14141667  93.61921464]]","[[0.         0.09608915]
 [0.1        1.30315133]
 [0.2        0.43089858]
 [0.3        0.92292411]
 [0.4        1.759236  ]
 [0.5        1.67135617]
 [0.6        1.8201665 ]
 [0.7        0.4064912 ]
 [0.8        0.00834951]
 [0.9        1.30051988]
 [1.         0.06930059]
 [1.1        1.91067339]
 [1.14141667 0.35990528]]",0,3.509
8773808799,f,21,english,5,3,english,2024-01-25 10:31:19.575190,False,1,4,sounds\french\audio/french_732.wav,"[[  0.         -70.63652138]
 [  0.1         74.94740029]
 [  0.2        -68.01034885]
 [  0.3        -51.20619296]
 [  0.4         26.1436221 ]
 [  0.5         83.39781629]
 [  0.6        -65.97851273]
 [  0.7         58.08888626]
 [  0.8         58.72916245]
 [  0.9        -29.18485422]
 [  1.          94.40341255]
 [  1.1         59.9673363 ]
 [  1.14141667  82.14207773]]","[[0.         0.50644446]
 [0.1        0.52417177]
 [0.2        1.08346926]
 [0.3        0.58321107]
 [0.4        0.01328247]
 [0.5        0.60567381]
 [0.6        0.20881444]
 [0.7        1.3772371 ]
 [0.8        1.44843636]
 [0.9        1.25039606]
 [1.         0.46179151]
 [1.1        1.87303499]
 [1.14141667 0.75452983]]",0,0.426
8773808799,f,21,english,5,3,english,2024-01-25 10:31:19.575190,False,1,5,sounds\french\audio/french_726.wav,"[[  0.          48.76420557]
 [  0.1          5.12155157]
 [  0.2        -72.9890042 ]
 [  0.3         75.78946978]
 [  0.4          8.27508281]
 [  0.5         89.78169524]
 [  0.6          3.99556136]
 [  0.7          1.99959163]
 [  0.8        -13.64347367]
 [  0.9         30.90068593]
 [  1.          28.17986697]
 [  1.1        -67.51414293]
 [  1.14141667 -25.39302441]]","[[0.         1.37300974]
 [0.1        1.49926665]
 [0.2        0.85512206]
 [0.3        0.29572074]
 [0.4        1.38748174]
 [0.5        0.62022839]
 [0.6        1.06740061]
 [0.7        0.59805381]
 [0.8        1.70561407]
 [0.9        0.37953026]
 [1.         1.21262206]
 [1.1        1.83341573]
 [1.14141667 0.05128479]]",0,0.071
8773808799,f,21,english,5,3,english,2024-01-25 10:31:19.575190,False,1,6,sounds\french\audio/french_715.wav,"[[  0.          29.09235338]
 [  0.1         61.36228021]
 [  0.2         10.6031568 ]
 [  0.3         56.69704228]
 [  0.4         27.32467936]
 [  0.5        -48.62858271]
 [  0.6         -3.68134428]
 [  0.7        -64.08054683]
 [  0.8        -70.8412554 ]
 [  0.9         62.36119478]
 [  1.         -44.29367688]
 [  1.1         -5.43460081]
 [  1.14141667  43.03867708]]","[[0.         0.68387868]
 [0.1        0.41187782]
 [0.2        0.00341507]
 [0.3        1.41549819]
 [0.4        1.88841919]
 [0.5        0.8974375 ]
 [0.6        1.39682713]
 [0.7        1.82228558]
 [0.8        1.0908324 ]
 [0.9        1.21742769]
 [1.         1.23238319]
 [1.1        0.68481682]
 [1.14141667 1.9656601 ]]",0,0.332
8773808799,f,21,english,5,3,english,2024-01-25 10:31:19.575190,False,1,7,sounds\french\audio/french_510.wav,"[[  0.           2.5827445 ]
 [  0.1         34.14748066]
 [  0.2         19.6904355 ]
 [  0.3         68.79602602]
 [  0.4         23.1262233 ]
 [  0.5        -73.53138037]
 [  0.6         24.41962913]
 [  0.7         17.96835179]
 [  0.8        -67.32328085]
 [  0.9         75.89669315]
 [  1.          90.53362858]
 [  1.1         10.95226784]
 [  1.14141667 -78.35504449]]","[[0.         1.20035409]
 [0.1        1.5836089 ]
 [0.2        0.29484574]
 [0.3        0.62506133]
 [0.4        0.53994538]
 [0.5        1.49375352]
 [0.6        1.10233577]
 [0.7        1.90421879]
 [0.8        1.01477718]
 [0.9        1.7885059 ]
 [1.         0.32789368]
 [1.1        0.60361192]
 [1.14141667 0.98506187]]",0,0.426
8773808799,f,21,english,5,3,english,2024-01-25 10:31:19.575190,False,1,8,sounds\french\audio/french_498.wav,"[[  0.         -74.21506938]
 [  0.1         45.43383025]
 [  0.2          1.12815535]
 [  0.3         43.90579244]
 [  0.4        -44.65185704]
 [  0.5        -30.05431109]
 [  0.6          3.76580736]
 [  0.7         14.97201551]
 [  0.8        -73.99463239]
 [  0.9         52.14411397]
 [  1.         -35.13239516]
 [  1.1        -15.67196842]
 [  1.14141667 -23.74164462]]","[[0.         1.57035706]
 [0.1        1.13989377]
 [0.2        1.20975959]
 [0.3        1.4621483 ]
 [0.4        1.80543681]
 [0.5        0.94375912]
 [0.6        0.61619731]
 [0.7        0.58171647]
 [0.8        0.30670665]
 [0.9        1.23149127]
 [1.         0.14479137]
 [1.1        0.69176192]
 [1.14141667 1.69964256]]",0,0.28
8773808799,f,21,english,5,3,english,2024-01-25 10:31:19.575190,False,1,9,sounds\french\audio/french_824.wav,"[[ 0.00000000e+00  5.02201089e-01]
 [ 1.00000000e-01  6.05239588e+01]
 [ 2.00000000e-01  1.48896647e+01]
 [ 3.00000000e-01  3.33476675e+01]
 [ 4.00000000e-01 -2.84988199e+01]
 [ 5.00000000e-01  2.83484092e+01]
 [ 6.00000000e-01  9.05536847e-02]
 [ 7.00000000e-01  5.47024864e+01]
 [ 8.00000000e-01  1.33415816e+00]
 [ 9.00000000e-01 -1.30540877e+01]
 [ 1.00000000e+00  5.29162460e+01]
 [ 1.10000000e+00  9.07997148e+01]
 [ 1.14141667e+00 -8.48372177e+00]]","[[0.         0.86927053]
 [0.1        1.18411144]
 [0.2        1.09736758]
 [0.3        0.85219326]
 [0.4        1.84806057]
 [0.5        0.42773876]
 [0.6        0.73121711]
 [0.7        1.15803728]
 [0.8        0.61345655]
 [0.9        0.13219128]
 [1.         1.90220579]
 [1.1        0.08725417]
 [1.14141667 0.24224984]]",0,0.223
8773808799,f,21,english,5,3,english,2024-01-25 10:31:19.575190,False,1,10,sounds\french\audio/french_944.wav,"[[  0.           5.90730738]
 [  0.1         20.95549988]
 [  0.2         10.39827044]
 [  0.3        -37.75669253]
 [  0.4        -49.22667344]
 [  0.5         93.16977427]
 [  0.6        -41.75153683]
 [  0.7         76.29351329]
 [  0.8        -83.23951468]
 [  0.9         79.19877778]
 [  1.         -79.96280606]
 [  1.1        -35.90278779]
 [  1.14141667 -47.06382287]]","[[0.         0.22530641]
 [0.1        0.6742477 ]
 [0.2        1.43871072]
 [0.3        1.70419916]
 [0.4        1.47532653]
 [0.5        0.37116111]
 [0.6        1.12986992]
 [0.7        1.77142708]
 [0.8        1.06487534]
 [0.9        0.07393278]
 [1.         0.93112082]
 [1.1        0.20805406]
 [1.14141667 0.24056538]]",1,8.847
8773808799,f,21,english,5,3,english,2024-01-25 10:31:19.575190,False,1,11,sounds\french\audio/french_411.wav,"[[  0.         -70.25391747]
 [  0.1         27.74894857]
 [  0.2         46.03152981]
 [  0.3        -29.20691402]
 [  0.4        -31.45553026]
 [  0.5         35.02826995]
 [  0.6         -8.95158706]
 [  0.7         81.46107147]
 [  0.8         -2.93504405]
 [  0.9         64.39331925]
 [  1.          -8.26962553]
 [  1.1         56.99467859]
 [  1.14141667  -1.61116333]]","[[0.         1.92256059]
 [0.1        0.54123007]
 [0.2        0.1167021 ]
 [0.3        0.14269419]
 [0.4        0.19948758]
 [0.5        1.84749686]
 [0.6        0.431015  ]
 [0.7        0.56033936]
 [0.8        0.91187984]
 [0.9        1.61465115]
 [1.         0.879149  ]
 [1.1        1.56755984]
 [1.14141667 1.10827976]]",1,0.757
8773808799,f,21,english,5,3,english,2024-01-25 10:31:19.575190,False,1,12,sounds\french\audio/french_322.wav,"[[  0.         -81.99226752]
 [  0.1        -16.25129178]
 [  0.2         77.06508594]
 [  0.3         12.75051586]
 [  0.4         -2.0376552 ]
 [  0.5         -5.71647667]
 [  0.6        -62.06437541]
 [  0.7        -59.15199876]
 [  0.8         92.65104506]
 [  0.9         72.15580193]
 [  1.         -28.04007557]
 [  1.1        -81.41529634]
 [  1.14141667  42.64256197]]","[[0.         0.33237875]
 [0.1        0.72135109]
 [0.2        0.96980376]
 [0.3        1.06597661]
 [0.4        1.07158825]
 [0.5        1.39619748]
 [0.6        0.15574445]
 [0.7        0.12302604]
 [0.8        0.08626149]
 [0.9        1.15982636]
 [1.         1.64250981]
 [1.1        0.51319454]
 [1.14141667 1.79464726]]",1,1.201
8773808799,f,21,english,5,3,english,2024-01-25 10:31:19.575190,False,1,13,sounds\french\audio/french_8.wav,"[[  0.          29.87385678]
 [  0.1         -3.65385888]
 [  0.2         20.76458152]
 [  0.3        -24.72434665]
 [  0.4         94.1074102 ]
 [  0.5        -73.60935749]
 [  0.6         79.05229915]
 [  0.7        -23.70127853]
 [  0.8        -24.8003351 ]
 [  0.9        -11.25394398]
 [  1.         -86.90808114]
 [  1.1         19.56164583]
 [  1.14141667  97.75645862]]","[[0.         1.00961104]
 [0.1        0.57995768]
 [0.2        0.32179014]
 [0.3        1.30213617]
 [0.4        0.70211569]
 [0.5        1.57277834]
 [0.6        0.53451743]
 [0.7        0.94827227]
 [0.8        0.73750596]
 [0.9        1.88096631]
 [1.         1.57496214]
 [1.1        1.34018823]
 [1.14141667 0.99774717]]",0,0.41
8773808799,f,21,english,5,3,english,2024-01-25 10:31:19.575190,False,1,14,sounds\french\audio/french_711.wav,"[[  0.         -57.68537639]
 [  0.1         80.50678374]
 [  0.2         62.08623359]
 [  0.3        -62.11963136]
 [  0.4         40.40813482]
 [  0.5         -1.99659726]
 [  0.6        -98.85876462]
 [  0.7        -17.60870607]
 [  0.8        -73.6406844 ]
 [  0.9          0.13542401]
 [  1.          58.10369401]
 [  1.1        -38.91466215]
 [  1.14141667  22.73847208]]","[[0.         1.14128003]
 [0.1        0.65499836]
 [0.2        0.36935793]
 [0.3        0.45944127]
 [0.4        1.32957836]
 [0.5        1.01029199]
 [0.6        0.23624425]
 [0.7        0.5152401 ]
 [0.8        0.82690989]
 [0.9        0.52689837]
 [1.         1.52596161]
 [1.1        1.06260355]
 [1.14141667 0.37076623]]",0,0.622
8773808799,f,21,english,5,3,english,2024-01-25 10:31:19.575190,False,1,15,sounds\french\audio/french_835.wav,"[[  0.          91.17156261]
 [  0.1         25.08688283]
 [  0.2         48.2450029 ]
 [  0.3         90.12216344]
 [  0.4        -40.18882143]
 [  0.5        -54.27954375]
 [  0.6        -68.4756581 ]
 [  0.7        -53.08534738]
 [  0.8        -46.88967441]
 [  0.9        -31.87646129]
 [  1.          35.54298867]
 [  1.1         77.25630657]
 [  1.14141667  70.60272191]]","[[0.         0.94497771]
 [0.1        1.50226129]
 [0.2        1.19715806]
 [0.3        1.34954449]
 [0.4        0.59579265]
 [0.5        1.80504859]
 [0.6        0.24555797]
 [0.7        0.70333343]
 [0.8        0.47518266]
 [0.9        1.46400156]
 [1.         1.13067654]
 [1.1        0.43563769]
 [1.14141667 1.31798111]]",0,0.417
8773808799,f,21,english,5,3,english,2024-01-25 10:31:19.575190,False,1,16,sounds\french\audio/french_687.wav,"[[  0.         -76.70741951]
 [  0.1         11.81900273]
 [  0.2        -62.20999399]
 [  0.3          2.67304055]
 [  0.4         12.46681829]
 [  0.5        -10.05935242]
 [  0.6         19.9189964 ]
 [  0.7        -96.3122864 ]
 [  0.8         78.47737382]
 [  0.9         81.40399245]
 [  1.          17.06206647]
 [  1.1        -61.21916449]
 [  1.14141667  44.35270256]]","[[0.         1.78287127]
 [0.1        1.90034528]
 [0.2        0.43252357]
 [0.3        0.13682227]
 [0.4        1.0793641 ]
 [0.5        1.72525482]
 [0.6        1.05148107]
 [0.7        1.82750481]
 [0.8        0.59843327]
 [0.9        0.26130519]
 [1.         0.21909613]
 [1.1        0.93247592]
 [1.14141667 1.52801605]]",1,2.703
8773808799,f,21,english,5,3,english,2024-01-25 10:31:19.575190,False,1,17,sounds\french\audio/french_207.wav,"[[  0.          69.64355334]
 [  0.1        -22.42972011]
 [  0.2         74.23583097]
 [  0.3         41.84488675]
 [  0.4          0.98677762]
 [  0.5        -65.85412268]
 [  0.6         57.546837  ]
 [  0.7        -68.81478763]
 [  0.8        -61.37754855]
 [  0.9          4.44951701]
 [  1.          81.11529143]
 [  1.1         49.41893342]
 [  1.14141667 -53.2770861 ]]","[[0.         0.56807355]
 [0.1        0.60404319]
 [0.2        0.30958546]
 [0.3        0.98774302]
 [0.4        1.51182152]
 [0.5        0.5602918 ]
 [0.6        1.70611495]
 [0.7        1.81928265]
 [0.8        0.68562072]
 [0.9        0.27933548]
 [1.         1.4017856 ]
 [1.1        0.74660041]
 [1.14141667 0.97210809]]",1,0.571
8773808799,f,21,english,5,3,english,2024-01-25 10:31:19.575190,False,1,18,sounds\french\audio/french_602.wav,"[[  0.          89.76373668]
 [  0.1        -62.05421328]
 [  0.2        -39.31909309]
 [  0.3         43.27513178]
 [  0.4        -35.34736244]
 [  0.5          4.96696673]
 [  0.6         86.2532893 ]
 [  0.7         56.74203414]
 [  0.8        -24.20347966]
 [  0.9         97.69852005]
 [  1.         -40.80777745]
 [  1.1        -71.9471762 ]
 [  1.14141667  18.41655342]]","[[0.         1.96584198]
 [0.1        0.82978645]
 [0.2        1.79793082]
 [0.3        1.41722051]
 [0.4        1.0213013 ]
 [0.5        1.1920361 ]
 [0.6        0.02590819]
 [0.7        1.01687146]
 [0.8        0.61186424]
 [0.9        0.57082094]
 [1.         1.80381376]
 [1.1        0.50745374]
 [1.14141667 0.10087688]]",0,0.504
8773808799,f,21,english,5,3,english,2024-01-25 10:31:19.575190,False,1,19,sounds\french\audio/french_715.wav,"[[  0.          29.09235338]
 [  0.1         61.36228021]
 [  0.2         10.6031568 ]
 [  0.3         56.69704228]
 [  0.4         27.32467936]
 [  0.5        -48.62858271]
 [  0.6         -3.68134428]
 [  0.7        -64.08054683]
 [  0.8        -70.8412554 ]
 [  0.9         62.36119478]
 [  1.         -44.29367688]
 [  1.1         -5.43460081]
 [  1.14141667  43.03867708]]","[[0.         0.68387868]
 [0.1        0.41187782]
 [0.2        0.00341507]
 [0.3        1.41549819]
 [0.4        1.88841919]
 [0.5        0.8974375 ]
 [0.6        1.39682713]
 [0.7        1.82228558]
 [0.8        1.0908324 ]
 [0.9        1.21742769]
 [1.         1.23238319]
 [1.1        0.68481682]
 [1.14141667 1.9656601 ]]",0,0.388
8773808799,f,21,english,5,3,english,2024-01-25 10:31:19.575190,False,1,20,sounds\french\audio/french_596.wav,"[[  0.          25.32476691]
 [  0.1         44.36074842]
 [  0.2        -34.00000172]
 [  0.3        -83.97211332]
 [  0.4        -67.81285243]
 [  0.5        -47.23063602]
 [  0.6         16.74337834]
 [  0.7          8.70571627]
 [  0.8        -11.2153712 ]
 [  0.9        -38.44147327]
 [  1.          57.69114878]
 [  1.1         50.03997699]
 [  1.14141667 -17.41619031]]","[[0.         0.41173588]
 [0.1        1.74625808]
 [0.2        0.12743898]
 [0.3        1.08814614]
 [0.4        1.40676606]
 [0.5        1.58344919]
 [0.6        1.02150308]
 [0.7        0.52497255]
 [0.8        1.52228575]
 [0.9        0.06700932]
 [1.         1.44433383]
 [1.1        0.49967239]
 [1.14141667 0.57328506]]",1,1.123
8773808799,f,21,english,5,3,english,2024-01-25 10:31:19.575190,False,1,21,sounds\french\audio/french_712.wav,"[[  0.         -95.66069785]
 [  0.1         -6.05322415]
 [  0.2        -14.42781433]
 [  0.3         32.58463251]
 [  0.4        -88.6066963 ]
 [  0.5        -30.98319164]
 [  0.6         76.39467543]
 [  0.7        -64.68968395]
 [  0.8        -71.89558722]
 [  0.9         67.69667977]
 [  1.          18.20955726]
 [  1.1        -31.46092163]
 [  1.14141667  29.12914815]]","[[0.         1.85127754]
 [0.1        1.47951206]
 [0.2        1.70422178]
 [0.3        1.42320081]
 [0.4        1.1647441 ]
 [0.5        1.7308951 ]
 [0.6        0.03424579]
 [0.7        0.15973474]
 [0.8        1.61824192]
 [0.9        0.80414017]
 [1.         1.37598527]
 [1.1        0.55072858]
 [1.14141667 1.89981007]]",0,0.751
8773808799,f,21,english,5,3,english,2024-01-25 10:31:19.575190,False,1,22,sounds\french\audio/french_139.wav,"[[  0.          60.33474426]
 [  0.1         38.93323401]
 [  0.2         81.82892201]
 [  0.3         -5.35389096]
 [  0.4         45.79202167]
 [  0.5         20.55887317]
 [  0.6         -5.88389044]
 [  0.7          6.48301447]
 [  0.8        -23.77186576]
 [  0.9         60.18530023]
 [  1.         -12.64152594]
 [  1.1        -31.65464666]
 [  1.14141667 -84.45306184]]","[[0.         0.98524205]
 [0.1        0.78117712]
 [0.2        0.61752243]
 [0.3        0.38397535]
 [0.4        0.60652717]
 [0.5        1.09559489]
 [0.6        0.26955055]
 [0.7        0.35792528]
 [0.8        1.46618843]
 [0.9        1.78162027]
 [1.         0.37213787]
 [1.1        1.38195712]
 [1.14141667 1.42802916]]",0,0.299
8773808799,f,21,english,5,3,english,2024-01-25 10:31:19.575190,False,1,23,sounds\french\audio/french_892.wav,"[[  0.           2.48516085]
 [  0.1        -76.22143396]
 [  0.2         93.28499715]
 [  0.3         12.13691899]
 [  0.4        -69.30233484]
 [  0.5         20.86949567]
 [  0.6        -38.30390535]
 [  0.7        -51.39274588]
 [  0.8         66.90425757]
 [  0.9        -53.91373226]
 [  1.          17.61869839]
 [  1.1        -34.76358151]
 [  1.14141667  15.85772352]]","[[0.         0.58260241]
 [0.1        1.93950295]
 [0.2        0.79251677]
 [0.3        1.61878069]
 [0.4        0.35146725]
 [0.5        1.82455818]
 [0.6        1.06886099]
 [0.7        1.74424774]
 [0.8        1.75805462]
 [0.9        1.69854439]
 [1.         0.60409156]
 [1.1        0.5214224 ]
 [1.14141667 1.48692913]]",0,0.333
8773808799,f,21,english,5,3,english,2024-01-25 10:31:19.575190,False,1,24,sounds\french\audio/french_878.wav,"[[  0.         -14.33769798]
 [  0.1         72.92809619]
 [  0.2         -6.62581365]
 [  0.3         79.64382411]
 [  0.4        -38.29472577]
 [  0.5         27.31257491]
 [  0.6        -99.613809  ]
 [  0.7        -28.5371841 ]
 [  0.8        -77.67063133]
 [  0.9         31.82360474]
 [  1.          39.51242376]
 [  1.1        -22.15845395]
 [  1.14141667 -13.60090041]]","[[0.         1.3925954 ]
 [0.1        0.36697913]
 [0.2        1.30460769]
 [0.3        1.26017801]
 [0.4        0.62557754]
 [0.5        1.14924897]
 [0.6        1.43572878]
 [0.7        1.9878771 ]
 [0.8        1.32028777]
 [0.9        0.83456614]
 [1.         0.85554915]
 [1.1        1.15382256]
 [1.14141667 1.46746731]]",0,0.433
8773808799,f,21,english,5,3,english,2024-01-25 10:31:19.575190,False,1,25,sounds\french\audio/french_734.wav,"[[  0.         -32.93654262]
 [  0.1         72.79608102]
 [  0.2        -50.40071999]
 [  0.3         90.69974695]
 [  0.4         37.06775667]
 [  0.5         49.52329957]
 [  0.6         -9.85142624]
 [  0.7        -27.6925888 ]
 [  0.8        -15.44600324]
 [  0.9         89.85582039]
 [  1.          80.64551884]
 [  1.1        -45.93519871]
 [  1.14141667 -39.52142082]]","[[0.         0.60836272]
 [0.1        0.03991841]
 [0.2        1.2364671 ]
 [0.3        0.40854822]
 [0.4        0.42768432]
 [0.5        0.67619941]
 [0.6        0.85456146]
 [0.7        0.80405121]
 [0.8        0.97354212]
 [0.9        0.56230459]
 [1.         0.25036131]
 [1.1        0.00393516]
 [1.14141667 1.59555679]]",0,2.175
8773808799,f,21,english,5,3,english,2024-01-25 10:31:19.575190,False,1,26,sounds\french\audio/french_944.wav,"[[  0.           5.90730738]
 [  0.1         20.95549988]
 [  0.2         10.39827044]
 [  0.3        -37.75669253]
 [  0.4        -49.22667344]
 [  0.5         93.16977427]
 [  0.6        -41.75153683]
 [  0.7         76.29351329]
 [  0.8        -83.23951468]
 [  0.9         79.19877778]
 [  1.         -79.96280606]
 [  1.1        -35.90278779]
 [  1.14141667 -47.06382287]]","[[0.         0.22530641]
 [0.1        0.6742477 ]
 [0.2        1.43871072]
 [0.3        1.70419916]
 [0.4        1.47532653]
 [0.5        0.37116111]
 [0.6        1.12986992]
 [0.7        1.77142708]
 [0.8        1.06487534]
 [0.9        0.07393278]
 [1.         0.93112082]
 [1.1        0.20805406]
 [1.14141667 0.24056538]]",0,1.094
8773808799,f,21,english,5,3,english,2024-01-25 10:31:19.575190,False,1,27,sounds\french\audio/french_986.wav,"[[  0.         -28.18979011]
 [  0.1        -79.86679473]
 [  0.2        -70.04030333]
 [  0.3         75.8668501 ]
 [  0.4        -74.95441983]
 [  0.5        -63.50853955]
 [  0.6         81.68926556]
 [  0.7         54.26382882]
 [  0.8         61.99331811]
 [  0.9         52.44078663]
 [  1.         -47.46808917]
 [  1.1        -88.10324033]
 [  1.14141667 -28.1794968 ]]","[[0.         1.72220623]
 [0.1        1.34872383]
 [0.2        1.13255868]
 [0.3        1.62605135]
 [0.4        1.94369598]
 [0.5        1.29571002]
 [0.6        0.30664164]
 [0.7        1.43489697]
 [0.8        0.20277347]
 [0.9        0.94056515]
 [1.         0.04648885]
 [1.1        1.0019598 ]
 [1.14141667 1.60035051]]",0,0.696
8773808799,f,21,english,5,3,english,2024-01-25 10:31:19.575190,False,1,28,sounds\french\audio/french_653.wav,"[[  0.         -16.6650237 ]
 [  0.1         -8.50735594]
 [  0.2         59.74245416]
 [  0.3        -64.86263645]
 [  0.4        -59.72264617]
 [  0.5        -38.42409471]
 [  0.6        -66.71222224]
 [  0.7         -1.64153682]
 [  0.8        -58.84034728]
 [  0.9         24.2211282 ]
 [  1.           2.29759393]
 [  1.1        -18.37494867]
 [  1.14141667 -14.47262819]]","[[0.         0.6514058 ]
 [0.1        0.80912236]
 [0.2        1.05565194]
 [0.3        1.59567426]
 [0.4        1.49585524]
 [0.5        0.43064882]
 [0.6        0.29035008]
 [0.7        1.70426818]
 [0.8        0.82836214]
 [0.9        0.71951004]
 [1.         0.36282723]
 [1.1        0.47770594]
 [1.14141667 1.04977426]]",0,0.5
8773808799,f,21,english,5,3,english,2024-01-25 10:31:19.575190,False,1,29,sounds\french\audio/french_594.wav,"[[  0.          69.16257792]
 [  0.1        -51.38062927]
 [  0.2         89.14833349]
 [  0.3        -14.54901169]
 [  0.4         38.01197931]
 [  0.5        -14.93034813]
 [  0.6         90.76309798]
 [  0.7         -8.33687091]
 [  0.8        -84.37336708]
 [  0.9         -1.88818414]
 [  1.         -36.10672087]
 [  1.1          9.11572808]
 [  1.14141667 -90.04046752]]","[[0.         1.68675304]
 [0.1        1.08911703]
 [0.2        1.44064207]
 [0.3        0.3009214 ]
 [0.4        0.73043906]
 [0.5        1.66681062]
 [0.6        1.44884618]
 [0.7        1.50262678]
 [0.8        1.54254131]
 [0.9        1.64727508]
 [1.         0.99451462]
 [1.1        0.34998624]
 [1.14141667 0.12693226]]",0,0.283
8773808799,f,21,english,5,3,english,2024-01-25 10:31:19.575190,False,1,30,sounds\french\audio/french_479.wav,"[[  0.          -1.20230986]
 [  0.1        -97.64332549]
 [  0.2        -86.19449335]
 [  0.3         -7.49654588]
 [  0.4         35.98913636]
 [  0.5         18.23013073]
 [  0.6        -54.98117387]
 [  0.7         93.83807515]
 [  0.8        -38.50737552]
 [  0.9        -46.41686699]
 [  1.          22.94872594]
 [  1.1         74.55146343]
 [  1.14141667  20.37228089]]","[[0.         0.20404821]
 [0.1        1.69681   ]
 [0.2        0.56198468]
 [0.3        0.43639433]
 [0.4        1.01923849]
 [0.5        1.87276459]
 [0.6        0.12831679]
 [0.7        1.97624929]
 [0.8        1.70037019]
 [0.9        1.50303773]
 [1.         1.59230137]
 [1.1        0.57712271]
 [1.14141667 1.6445358 ]]",0,0.229
8773808799,f,21,english,5,3,english,2024-01-25 10:31:19.575190,False,1,31,sounds\french\audio/french_640.wav,"[[  0.         -23.23499115]
 [  0.1         -5.32274666]
 [  0.2        -26.96491629]
 [  0.3        -24.71578064]
 [  0.4          4.92396133]
 [  0.5         79.3437843 ]
 [  0.6        -37.35644985]
 [  0.7         90.7866094 ]
 [  0.8        -21.5684971 ]
 [  0.9         -3.17217866]
 [  1.         -53.51075281]
 [  1.1         23.72364294]
 [  1.14141667 -59.96309897]]","[[0.         0.51826373]
 [0.1        0.48541717]
 [0.2        0.32572671]
 [0.3        0.87356407]
 [0.4        0.06333599]
 [0.5        0.63173489]
 [0.6        0.49522912]
 [0.7        1.48986997]
 [0.8        1.18308083]
 [0.9        1.04898469]
 [1.         1.09208336]
 [1.1        0.03972765]
 [1.14141667 0.83305144]]",0,0.385
8773808799,f,21,english,5,3,english,2024-01-25 10:31:19.575190,False,1,32,sounds\french\audio/french_693.wav,"[[  0.          85.06863742]
 [  0.1         68.65637618]
 [  0.2        -64.93166306]
 [  0.3          9.02094246]
 [  0.4         30.21577577]
 [  0.5        -45.55013979]
 [  0.6        -22.45894718]
 [  0.7        -22.03690569]
 [  0.8        -72.74256114]
 [  0.9         79.55542456]
 [  1.           3.37293032]
 [  1.1        -26.61524733]
 [  1.14141667 -12.67054895]]","[[0.         1.43800555]
 [0.1        1.1319261 ]
 [0.2        1.31376129]
 [0.3        1.44469297]
 [0.4        0.25926005]
 [0.5        1.97890068]
 [0.6        0.76035239]
 [0.7        0.26797463]
 [0.8        0.09379237]
 [0.9        1.21622186]
 [1.         0.59723312]
 [1.1        1.86545966]
 [1.14141667 1.32223551]]",0,0.608
8773808799,f,21,english,5,3,english,2024-01-25 10:31:19.575190,False,1,33,sounds\french\audio/french_633.wav,"[[  0.          76.87813449]
 [  0.1        -21.82636676]
 [  0.2         43.67773212]
 [  0.3         17.23969717]
 [  0.4        -36.64594868]
 [  0.5        -53.48136029]
 [  0.6         46.29388988]
 [  0.7        -33.77482851]
 [  0.8          3.20404602]
 [  0.9        -40.8699131 ]
 [  1.         -98.55823746]
 [  1.1         57.68634926]
 [  1.14141667   4.46442476]]","[[0.00000000e+00 1.80365851e+00]
 [1.00000000e-01 4.05736703e-01]
 [2.00000000e-01 5.39076875e-05]
 [3.00000000e-01 5.23679711e-01]
 [4.00000000e-01 1.72735713e+00]
 [5.00000000e-01 1.26097040e+00]
 [6.00000000e-01 1.28363672e+00]
 [7.00000000e-01 1.79514781e+00]
 [8.00000000e-01 8.95309966e-01]
 [9.00000000e-01 6.96441540e-01]
 [1.00000000e+00 1.41287247e+00]
 [1.10000000e+00 4.05255343e-01]
 [1.14141667e+00 8.47335586e-02]]",0,0.418
8773808799,f,21,english,5,3,english,2024-01-25 10:31:19.575190,False,1,34,sounds\french\audio/french_142.wav,"[[  0.          97.7536206 ]
 [  0.1          4.42561942]
 [  0.2         30.66479602]
 [  0.3         45.9358297 ]
 [  0.4        -27.67703404]
 [  0.5        -76.93961613]
 [  0.6         27.15756236]
 [  0.7        -17.10219694]
 [  0.8        -95.03788422]
 [  0.9         91.87255183]
 [  1.          44.51009428]
 [  1.1         96.96949092]
 [  1.14141667 -89.9433434 ]]","[[0.         1.73195871]
 [0.1        0.65080557]
 [0.2        0.56559014]
 [0.3        1.09548812]
 [0.4        1.12986234]
 [0.5        0.64023359]
 [0.6        1.40554415]
 [0.7        0.54302872]
 [0.8        0.69510387]
 [0.9        1.07734333]
 [1.         1.27461724]
 [1.1        0.68372614]
 [1.14141667 0.29358922]]",0,0.851
8773808799,f,21,english,5,3,english,2024-01-25 10:31:19.575190,False,1,35,sounds\french\audio/french_959.wav,"[[  0.         -38.78716583]
 [  0.1         83.97538875]
 [  0.2        -68.1228649 ]
 [  0.3        -41.95368962]
 [  0.4        -64.50673754]
 [  0.5         14.64173949]
 [  0.6         37.29610472]
 [  0.7         17.36432076]
 [  0.8         64.63054237]
 [  0.9         -0.55714174]
 [  1.         -86.63903478]
 [  1.1          9.24896972]
 [  1.14141667 -57.53848842]]","[[0.         1.01136346]
 [0.1        0.01517065]
 [0.2        1.90257515]
 [0.3        1.59883642]
 [0.4        1.27442348]
 [0.5        0.72016077]
 [0.6        1.68485577]
 [0.7        0.42613864]
 [0.8        1.15064148]
 [0.9        0.20086001]
 [1.         0.91350004]
 [1.1        0.49375307]
 [1.14141667 1.06538265]]",0,0.977
8773808799,f,21,english,5,3,english,2024-01-25 10:31:19.575190,False,1,36,sounds\french\audio/french_475.wav,"[[ 0.00000000e+00 -5.40765714e+01]
 [ 1.00000000e-01 -7.75997382e+01]
 [ 2.00000000e-01 -5.96417481e+00]
 [ 3.00000000e-01  9.03794085e+01]
 [ 4.00000000e-01  7.76475749e+01]
 [ 5.00000000e-01 -5.10170631e-02]
 [ 6.00000000e-01 -4.82331031e+01]
 [ 7.00000000e-01  6.84735600e+01]
 [ 8.00000000e-01  1.61116018e+00]
 [ 9.00000000e-01  8.56911048e+01]
 [ 1.00000000e+00  2.45551859e+01]
 [ 1.10000000e+00 -3.23235712e+01]
 [ 1.14141667e+00  6.46930948e+01]]","[[0.         1.22843023]
 [0.1        0.67465416]
 [0.2        1.46352817]
 [0.3        1.65803665]
 [0.4        0.3744317 ]
 [0.5        1.25600303]
 [0.6        1.88058254]
 [0.7        1.63911274]
 [0.8        1.55282086]
 [0.9        0.43137501]
 [1.         0.79044925]
 [1.1        1.78282868]
 [1.14141667 1.0446802 ]]",0,0.441
8773808799,f,21,english,5,3,english,2024-01-25 10:31:19.575190,False,1,37,sounds\french\audio/french_882.wav,"[[  0.         -81.86021221]
 [  0.1        -38.71029223]
 [  0.2        -87.95798325]
 [  0.3         64.64799839]
 [  0.4         46.25884824]
 [  0.5        -79.81084627]
 [  0.6         63.83558359]
 [  0.7         52.64588214]
 [  0.8         26.08689515]
 [  0.9        -62.73363803]
 [  1.          -4.49298081]
 [  1.1         30.81537457]
 [  1.14141667  66.97281878]]","[[0.         0.3759178 ]
 [0.1        0.35952644]
 [0.2        0.62161924]
 [0.3        1.70435044]
 [0.4        0.36582707]
 [0.5        1.39801288]
 [0.6        1.87495394]
 [0.7        1.93367686]
 [0.8        1.9588609 ]
 [0.9        0.95894244]
 [1.         0.61415959]
 [1.1        0.47891102]
 [1.14141667 0.6437554 ]]",1,4.349
8773808799,f,21,english,5,3,english,2024-01-25 10:31:19.575190,False,1,38,sounds\french\audio/french_898.wav,"[[  0.          40.55101388]
 [  0.1        -10.72159434]
 [  0.2        -58.26572843]
 [  0.3          1.32434592]
 [  0.4        -85.02838438]
 [  0.5        -51.66180539]
 [  0.6         67.40806224]
 [  0.7         12.83683936]
 [  0.8         54.30464397]
 [  0.9        -46.76261458]
 [  1.          69.22607274]
 [  1.1         52.29389   ]
 [  1.14141667  57.59849823]]","[[0.         0.40687164]
 [0.1        1.17784559]
 [0.2        1.99106934]
 [0.3        1.19983585]
 [0.4        1.58797841]
 [0.5        0.9404896 ]
 [0.6        0.59137193]
 [0.7        0.08939655]
 [0.8        1.07296018]
 [0.9        0.52533407]
 [1.         1.50554702]
 [1.1        1.19515122]
 [1.14141667 1.26374575]]",1,0.253
8773808799,f,21,english,5,3,english,2024-01-25 10:31:19.575190,False,1,39,sounds\french\audio/french_53.wav,"[[  0.         -28.0107555 ]
 [  0.1        -32.89623972]
 [  0.2        -30.87420046]
 [  0.3        -28.85389422]
 [  0.4        -61.04108291]
 [  0.5        -42.72827131]
 [  0.6        -39.80042832]
 [  0.7         86.61388374]
 [  0.8        -13.10870886]
 [  0.9         73.41452955]
 [  1.         -76.02339619]
 [  1.1        -99.20877843]
 [  1.14141667  -4.16419643]]","[[0.         1.07618979]
 [0.1        0.74993287]
 [0.2        0.87673017]
 [0.3        0.75649392]
 [0.4        0.57081033]
 [0.5        0.38337207]
 [0.6        1.97746459]
 [0.7        0.72612227]
 [0.8        0.61721519]
 [0.9        1.47274228]
 [1.         0.29121058]
 [1.1        0.63443115]
 [1.14141667 0.81233408]]",0,3.685
8773808799,f,21,english,5,3,english,2024-01-25 10:31:19.575190,False,1,40,sounds\french\audio/french_904.wav,"[[  0.         -11.62176844]
 [  0.1        -97.15527311]
 [  0.2         23.7219884 ]
 [  0.3        -11.13047804]
 [  0.4         98.59989814]
 [  0.5         10.92949536]
 [  0.6         -8.2334005 ]
 [  0.7        -68.9383701 ]
 [  0.8         64.82847107]
 [  0.9        -91.99415487]
 [  1.         -52.64833553]
 [  1.1         47.97880576]
 [  1.14141667 -73.02936526]]","[[0.         1.49355087]
 [0.1        0.51193857]
 [0.2        1.25947895]
 [0.3        0.53809601]
 [0.4        0.21415281]
 [0.5        1.62896015]
 [0.6        0.06342806]
 [0.7        0.5262516 ]
 [0.8        1.37854903]
 [0.9        0.72263695]
 [1.         0.97240938]
 [1.1        0.44825995]
 [1.14141667 1.11879983]]",0,0.529
8773808799,f,21,english,5,3,english,2024-01-25 10:31:19.575190,False,1,41,sounds\french\audio/french_142.wav,"[[  0.          97.7536206 ]
 [  0.1          4.42561942]
 [  0.2         30.66479602]
 [  0.3         45.9358297 ]
 [  0.4        -27.67703404]
 [  0.5        -76.93961613]
 [  0.6         27.15756236]
 [  0.7        -17.10219694]
 [  0.8        -95.03788422]
 [  0.9         91.87255183]
 [  1.          44.51009428]
 [  1.1         96.96949092]
 [  1.14141667 -89.9433434 ]]","[[0.         1.73195871]
 [0.1        0.65080557]
 [0.2        0.56559014]
 [0.3        1.09548812]
 [0.4        1.12986234]
 [0.5        0.64023359]
 [0.6        1.40554415]
 [0.7        0.54302872]
 [0.8        0.69510387]
 [0.9        1.07734333]
 [1.         1.27461724]
 [1.1        0.68372614]
 [1.14141667 0.29358922]]",0,0.596
8773808799,f,21,english,5,3,english,2024-01-25 10:31:19.575190,False,1,42,sounds\french\audio/french_350.wav,"[[  0.          49.18780015]
 [  0.1         72.56599871]
 [  0.2         82.40633288]
 [  0.3        -82.3613748 ]
 [  0.4        -55.26706973]
 [  0.5         32.71718065]
 [  0.6        -77.12745481]
 [  0.7         53.19413298]
 [  0.8         63.69374639]
 [  0.9         -4.94503234]
 [  1.           8.94892579]
 [  1.1        -63.25021916]
 [  1.14141667  62.49358968]]","[[0.         1.13395449]
 [0.1        1.35674112]
 [0.2        1.64110949]
 [0.3        0.20020041]
 [0.4        1.72643687]
 [0.5        0.50546476]
 [0.6        1.03887292]
 [0.7        0.02836182]
 [0.8        1.25705859]
 [0.9        0.65948503]
 [1.         0.3253589 ]
 [1.1        1.08649671]
 [1.14141667 1.97191137]]",0,1.769
8773808799,f,21,english,5,3,english,2024-01-25 10:31:19.575190,False,1,43,sounds\french\audio/french_521.wav,"[[  0.           2.02303426]
 [  0.1         27.55245524]
 [  0.2        -46.69757278]
 [  0.3        -94.98250694]
 [  0.4          2.66667068]
 [  0.5         83.78734232]
 [  0.6        -80.30851908]
 [  0.7        -90.0764255 ]
 [  0.8         21.33552602]
 [  0.9        -61.83607635]
 [  1.         -92.49710651]
 [  1.1        -32.3485136 ]
 [  1.14141667   8.4434574 ]]","[[0.         0.20556186]
 [0.1        0.44198605]
 [0.2        0.76515597]
 [0.3        1.70762069]
 [0.4        1.19903269]
 [0.5        0.59862631]
 [0.6        1.39546585]
 [0.7        1.18274747]
 [0.8        1.17625485]
 [0.9        0.38414308]
 [1.         1.18179738]
 [1.1        1.02663222]
 [1.14141667 0.71900975]]",0,0.551
8773808799,f,21,english,5,3,english,2024-01-25 10:31:19.575190,False,1,44,sounds\french\audio/french_129.wav,"[[  0.         -11.16661577]
 [  0.1        -63.32601646]
 [  0.2        -32.53059456]
 [  0.3        -52.20675806]
 [  0.4        -66.33310923]
 [  0.5        -11.93583298]
 [  0.6          8.35170148]
 [  0.7        -80.25571443]
 [  0.8          9.9071823 ]
 [  0.9        -18.08315237]
 [  1.          92.52665176]
 [  1.1         29.94547057]
 [  1.14141667 -46.49352569]]","[[0.         0.65771984]
 [0.1        0.88831955]
 [0.2        0.8843772 ]
 [0.3        0.02960591]
 [0.4        1.66772944]
 [0.5        1.21370716]
 [0.6        0.12234339]
 [0.7        0.38004193]
 [0.8        0.81102025]
 [0.9        0.58400235]
 [1.         1.23804543]
 [1.1        0.6267428 ]
 [1.14141667 0.68249515]]",0,0.662
8773808799,f,21,english,5,3,english,2024-01-25 10:31:19.575190,False,1,45,sounds\french\audio/french_107.wav,"[[  0.          48.95738848]
 [  0.1        -86.21350197]
 [  0.2        -66.15605828]
 [  0.3         36.09764322]
 [  0.4         84.94348039]
 [  0.5         45.37934285]
 [  0.6        -37.42419694]
 [  0.7          9.9462813 ]
 [  0.8        -34.76810552]
 [  0.9         -2.69499058]
 [  1.         -37.67578174]
 [  1.1         10.67241344]
 [  1.14141667  78.13998046]]","[[0.         0.23520596]
 [0.1        1.35835183]
 [0.2        1.80441503]
 [0.3        1.20547982]
 [0.4        1.45019214]
 [0.5        1.82448315]
 [0.6        0.98390392]
 [0.7        1.44557172]
 [0.8        1.21843616]
 [0.9        0.65132093]
 [1.         0.48352105]
 [1.1        1.27397433]
 [1.14141667 0.78593457]]",0,0.556
8773808799,f,21,english,5,3,english,2024-01-25 10:31:19.575190,False,1,46,sounds\french\audio/french_687.wav,"[[  0.         -76.70741951]
 [  0.1         11.81900273]
 [  0.2        -62.20999399]
 [  0.3          2.67304055]
 [  0.4         12.46681829]
 [  0.5        -10.05935242]
 [  0.6         19.9189964 ]
 [  0.7        -96.3122864 ]
 [  0.8         78.47737382]
 [  0.9         81.40399245]
 [  1.          17.06206647]
 [  1.1        -61.21916449]
 [  1.14141667  44.35270256]]","[[0.         1.78287127]
 [0.1        1.90034528]
 [0.2        0.43252357]
 [0.3        0.13682227]
 [0.4        1.0793641 ]
 [0.5        1.72525482]
 [0.6        1.05148107]
 [0.7        1.82750481]
 [0.8        0.59843327]
 [0.9        0.26130519]
 [1.         0.21909613]
 [1.1        0.93247592]
 [1.14141667 1.52801605]]",1,1.05
8773808799,f,21,english,5,3,english,2024-01-25 10:31:19.575190,False,1,47,sounds\french\audio/french_136.wav,"[[  0.          -0.93982829]
 [  0.1        -11.50989173]
 [  0.2        -44.36955216]
 [  0.3         66.25490653]
 [  0.4         76.3056731 ]
 [  0.5        -53.64019494]
 [  0.6         72.7758556 ]
 [  0.7        -38.40056364]
 [  0.8        -83.94600904]
 [  0.9         60.40561717]
 [  1.          72.86364806]
 [  1.1        -58.86585407]
 [  1.14141667 -45.29061382]]","[[0.         1.18112725]
 [0.1        1.4876912 ]
 [0.2        1.55378385]
 [0.3        0.32679305]
 [0.4        0.30628123]
 [0.5        1.28210854]
 [0.6        0.14420429]
 [0.7        0.03042669]
 [0.8        1.12471325]
 [0.9        1.12043075]
 [1.         0.82934503]
 [1.1        1.5410961 ]
 [1.14141667 0.1982647 ]]",0,1.129
8773808799,f,21,english,5,3,english,2024-01-25 10:31:19.575190,False,1,48,sounds\french\audio/french_577.wav,"[[  0.         -44.02512983]
 [  0.1         79.52844358]
 [  0.2        -30.76875615]
 [  0.3         62.04397715]
 [  0.4        -20.62747291]
 [  0.5        -72.06215839]
 [  0.6         41.90336004]
 [  0.7        -56.13737693]
 [  0.8        -35.59284276]
 [  0.9        -69.77348759]
 [  1.          53.84749563]
 [  1.1        -66.15472085]
 [  1.14141667  45.95016177]]","[[0.         0.10131103]
 [0.1        0.08673011]
 [0.2        1.23793804]
 [0.3        0.97250203]
 [0.4        1.96102451]
 [0.5        1.89275958]
 [0.6        1.02687128]
 [0.7        0.83313949]
 [0.8        0.98993041]
 [0.9        1.32841377]
 [1.         0.380118  ]
 [1.1        1.50340399]
 [1.14141667 0.25097841]]",1,0.289
8773808799,f,21,english,5,3,english,2024-01-25 10:31:19.575190,False,1,49,sounds\french\audio/french_412.wav,"[[  0.          80.33750743]
 [  0.1         50.4773299 ]
 [  0.2          7.50934865]
 [  0.3         -9.23463682]
 [  0.4          9.13658121]
 [  0.5         11.12128685]
 [  0.6        -94.30640228]
 [  0.7        -51.41178114]
 [  0.8         28.26572128]
 [  0.9        -71.75232094]
 [  1.          86.09965629]
 [  1.1         27.28800681]
 [  1.14141667  32.1776899 ]]","[[0.         1.13543916]
 [0.1        1.15832638]
 [0.2        0.2432056 ]
 [0.3        1.81011187]
 [0.4        0.142234  ]
 [0.5        1.17532286]
 [0.6        1.06397509]
 [0.7        1.83631312]
 [0.8        1.0285842 ]
 [0.9        1.74888075]
 [1.         1.95722924]
 [1.1        1.49997067]
 [1.14141667 0.76864943]]",0,0.346
8773808799,f,21,english,5,3,english,2024-01-25 10:31:19.575190,False,1,50,sounds\french\audio/french_984.wav,"[[  0.         -17.38025619]
 [  0.1        -19.07620661]
 [  0.2         86.46381691]
 [  0.3         43.70120355]
 [  0.4         51.14481307]
 [  0.5        -82.44211059]
 [  0.6        -70.79413604]
 [  0.7         82.20250901]
 [  0.8         32.28810594]
 [  0.9         96.83082958]
 [  1.         -89.86154654]
 [  1.1         76.92233823]
 [  1.14141667   4.44348411]]","[[0.         1.73327214]
 [0.1        0.89289922]
 [0.2        1.96255145]
 [0.3        0.81680833]
 [0.4        0.47713757]
 [0.5        0.6602306 ]
 [0.6        0.62785035]
 [0.7        1.08845655]
 [0.8        1.84516423]
 [0.9        1.6910223 ]
 [1.         1.72477601]
 [1.1        0.65480949]
 [1.14141667 0.96028491]]",0,0.414
8773808799,f,21,english,5,3,english,2024-01-25 10:31:19.575190,False,1,51,sounds\french\audio/french_384.wav,"[[  0.         -26.33962447]
 [  0.1         90.14414926]
 [  0.2         36.49157083]
 [  0.3          0.20485884]
 [  0.4          2.73533424]
 [  0.5        -61.29276224]
 [  0.6        -95.66702586]
 [  0.7        -35.26576559]
 [  0.8        -94.7492639 ]
 [  0.9         89.80577362]
 [  1.         -92.63573748]
 [  1.1         74.70238882]
 [  1.14141667  79.78054673]]","[[0.         0.73205954]
 [0.1        1.21722748]
 [0.2        0.48830962]
 [0.3        0.00253956]
 [0.4        1.70776767]
 [0.5        0.02952435]
 [0.6        1.54669239]
 [0.7        0.99240925]
 [0.8        1.04883532]
 [0.9        0.00446768]
 [1.         0.13464005]
 [1.1        0.53686539]
 [1.14141667 0.78008915]]",1,12.899
8773808799,f,21,english,5,3,english,2024-01-25 10:31:19.575190,False,1,52,sounds\french\audio/french_155.wav,"[[  0.         -92.78133148]
 [  0.1         20.93258494]
 [  0.2        -47.18952132]
 [  0.3         87.6623856 ]
 [  0.4         53.55190164]
 [  0.5         73.72044222]
 [  0.6         13.17734525]
 [  0.7         33.07505579]
 [  0.8         11.21533307]
 [  0.9        -11.15187706]
 [  1.          62.83057895]
 [  1.1          5.84907356]
 [  1.14141667 -41.38043494]]","[[0.         0.96654008]
 [0.1        1.69709924]
 [0.2        1.53182227]
 [0.3        0.2401229 ]
 [0.4        0.46921424]
 [0.5        1.76971401]
 [0.6        0.8491776 ]
 [0.7        1.18179357]
 [0.8        0.90499885]
 [0.9        0.79006401]
 [1.         1.00554233]
 [1.1        1.3461564 ]
 [1.14141667 0.10111809]]",0,0.487
8773808799,f,21,english,5,3,english,2024-01-25 10:31:19.575190,False,1,53,sounds\french\audio/french_476.wav,"[[  0.           2.7094507 ]
 [  0.1        -87.7280692 ]
 [  0.2         73.10097617]
 [  0.3        -39.94037221]
 [  0.4        -70.77067891]
 [  0.5        -69.51890588]
 [  0.6         14.97450783]
 [  0.7         11.8314824 ]
 [  0.8        -94.87528551]
 [  0.9        -47.21116186]
 [  1.          77.98956327]
 [  1.1         27.75596283]
 [  1.14141667 -30.59689751]]","[[0.         1.35860471]
 [0.1        0.99732338]
 [0.2        0.39475379]
 [0.3        1.23972907]
 [0.4        1.89359737]
 [0.5        1.35568455]
 [0.6        0.10717939]
 [0.7        1.73146134]
 [0.8        1.80986266]
 [0.9        0.67970101]
 [1.         0.57105332]
 [1.1        0.99269413]
 [1.14141667 0.74836079]]",0,1.08
8773808799,f,21,english,5,3,english,2024-01-25 10:31:19.575190,False,1,54,sounds\french\audio/french_536.wav,"[[  0.         -52.4206548 ]
 [  0.1        -74.26891648]
 [  0.2         11.31126048]
 [  0.3        -21.61900245]
 [  0.4        -94.98146832]
 [  0.5         99.95155671]
 [  0.6        -88.3367002 ]
 [  0.7        -23.8710155 ]
 [  0.8         43.41576253]
 [  0.9         40.55887391]
 [  1.          34.47455049]
 [  1.1        -52.8153809 ]
 [  1.14141667  -3.00855762]]","[[0.         0.67962867]
 [0.1        0.63540929]
 [0.2        0.83661694]
 [0.3        1.85383119]
 [0.4        1.07036792]
 [0.5        1.52468216]
 [0.6        1.55319614]
 [0.7        1.12341702]
 [0.8        1.5546784 ]
 [0.9        0.54178369]
 [1.         1.26113571]
 [1.1        1.84040785]
 [1.14141667 1.97764464]]",0,0.456
8773808799,f,21,english,5,3,english,2024-01-25 10:31:19.575190,False,1,55,sounds\french\audio/french_237.wav,"[[  0.          31.70987786]
 [  0.1         44.65820907]
 [  0.2         13.3186434 ]
 [  0.3         66.1783484 ]
 [  0.4          9.82166226]
 [  0.5        -28.83229096]
 [  0.6         76.24548925]
 [  0.7         34.63949689]
 [  0.8        -48.33331205]
 [  0.9         50.34000449]
 [  1.          49.76225002]
 [  1.1         67.38211301]
 [  1.14141667  80.88052333]]","[[0.         1.31590513]
 [0.1        0.84112054]
 [0.2        0.69527524]
 [0.3        1.26135679]
 [0.4        1.98640285]
 [0.5        0.12218975]
 [0.6        0.73409952]
 [0.7        1.11406015]
 [0.8        1.16947058]
 [0.9        0.6556194 ]
 [1.         1.40941557]
 [1.1        0.44515823]
 [1.14141667 0.0317855 ]]",0,0.558
8773808799,f,21,english,5,3,english,2024-01-25 10:31:19.575190,False,1,56,sounds\french\audio/french_571.wav,"[[  0.         -11.24193318]
 [  0.1        -10.86959778]
 [  0.2         82.99619003]
 [  0.3         24.95643841]
 [  0.4        -68.87825224]
 [  0.5         51.64707828]
 [  0.6         49.49620678]
 [  0.7        -17.91679305]
 [  0.8        -29.72915809]
 [  0.9         11.57880554]
 [  1.         -13.34981862]
 [  1.1        -36.46228607]
 [  1.14141667  89.24507093]]","[[0.         1.32656313]
 [0.1        0.52389399]
 [0.2        0.82341453]
 [0.3        1.24663677]
 [0.4        0.97852419]
 [0.5        1.82225998]
 [0.6        1.5101216 ]
 [0.7        1.6881292 ]
 [0.8        0.72110223]
 [0.9        0.82773543]
 [1.         1.66851862]
 [1.1        0.05539404]
 [1.14141667 1.83269673]]",1,1.01
8773808799,f,21,english,5,3,english,2024-01-25 10:31:19.575190,False,1,57,sounds\french\audio/french_292.wav,"[[  0.         -65.21663055]
 [  0.1         34.24982767]
 [  0.2        -92.63295305]
 [  0.3        -77.59900382]
 [  0.4         14.83333959]
 [  0.5         11.34419051]
 [  0.6          5.22580578]
 [  0.7          9.90915295]
 [  0.8         98.66536814]
 [  0.9        -61.20859902]
 [  1.         -91.20285571]
 [  1.1         77.92662302]
 [  1.14141667 -48.25371816]]","[[0.         1.02426511]
 [0.1        1.12889875]
 [0.2        1.50148233]
 [0.3        1.82420462]
 [0.4        1.7438412 ]
 [0.5        0.42400938]
 [0.6        0.47297633]
 [0.7        0.69162899]
 [0.8        0.37166542]
 [0.9        0.73651314]
 [1.         1.19119341]
 [1.1        0.13786686]
 [1.14141667 1.01945383]]",0,1.467
8773808799,f,21,english,5,3,english,2024-01-25 10:31:19.575190,False,1,58,sounds\french\audio/french_383.wav,"[[  0.         -39.02457542]
 [  0.1        -77.49985517]
 [  0.2         50.91368445]
 [  0.3         10.63848849]
 [  0.4         47.34974353]
 [  0.5        -18.10712895]
 [  0.6        -59.13978187]
 [  0.7        -95.02289951]
 [  0.8         -1.09114116]
 [  0.9        -71.36171918]
 [  1.          15.57019989]
 [  1.1        -93.68359708]
 [  1.14141667 -46.06271285]]","[[0.         1.13235422]
 [0.1        0.41642205]
 [0.2        1.49751518]
 [0.3        0.37045866]
 [0.4        0.15272125]
 [0.5        0.11717599]
 [0.6        0.84303964]
 [0.7        1.97903491]
 [0.8        0.29246172]
 [0.9        1.45734716]
 [1.         1.94987581]
 [1.1        1.48364755]
 [1.14141667 1.01304345]]",0,0.252
8773808799,f,21,english,5,3,english,2024-01-25 10:31:19.575190,False,1,59,sounds\french\audio/french_579.wav,"[[  0.         -44.9724905 ]
 [  0.1          0.83845953]
 [  0.2         93.06026355]
 [  0.3        -62.41374452]
 [  0.4         20.02213112]
 [  0.5        -38.5151373 ]
 [  0.6         22.08241798]
 [  0.7        -58.17924339]
 [  0.8        -33.23197636]
 [  0.9         46.73979954]
 [  1.          -1.66986987]
 [  1.1        -43.99049691]
 [  1.14141667 -39.65764058]]","[[0.         1.96822281]
 [0.1        0.71149274]
 [0.2        0.47444189]
 [0.3        1.30095402]
 [0.4        1.46488426]
 [0.5        0.97233373]
 [0.6        0.80064838]
 [0.7        0.70983162]
 [0.8        0.45331315]
 [0.9        0.98403406]
 [1.         1.54220588]
 [1.1        0.41959049]
 [1.14141667 1.4912741 ]]",0,0.565
8773808799,f,21,english,5,3,english,2024-01-25 10:31:19.575190,False,1,60,sounds\french\audio/french_798.wav,"[[  0.          23.18820736]
 [  0.1         -2.07958128]
 [  0.2        -48.02591884]
 [  0.3         38.59927327]
 [  0.4        -86.07746365]
 [  0.5        -70.90704765]
 [  0.6          9.89404779]
 [  0.7         -7.32021634]
 [  0.8        -83.58554005]
 [  0.9         47.48195997]
 [  1.         -68.72637468]
 [  1.1        -14.54172487]
 [  1.14141667  -5.31366148]]","[[0.         0.75158349]
 [0.1        0.71454604]
 [0.2        1.54456255]
 [0.3        1.20944344]
 [0.4        0.78904319]
 [0.5        0.83495851]
 [0.6        1.17214468]
 [0.7        0.33508719]
 [0.8        1.87108409]
 [0.9        0.79690586]
 [1.         0.98942151]
 [1.1        1.50469392]
 [1.14141667 0.42081668]]",1,0.243
8773808799,f,21,english,5,3,english,2024-01-25 10:31:19.575190,False,1,61,sounds\french\audio/french_323.wav,"[[  0.          12.36986901]
 [  0.1         48.82190283]
 [  0.2         -1.79727253]
 [  0.3         77.63750811]
 [  0.4        -60.00496185]
 [  0.5         -2.01076709]
 [  0.6        -28.75884422]
 [  0.7         22.62115314]
 [  0.8         -2.37165969]
 [  0.9         22.55401856]
 [  1.          43.0566967 ]
 [  1.1        -33.43664636]
 [  1.14141667  52.86099482]]","[[0.         1.14236572]
 [0.1        0.38320847]
 [0.2        1.79497165]
 [0.3        1.20829329]
 [0.4        1.87271721]
 [0.5        1.08235671]
 [0.6        1.19118186]
 [0.7        1.38743172]
 [0.8        1.90987729]
 [0.9        1.29939901]
 [1.         1.04952512]
 [1.1        1.67070777]
 [1.14141667 0.91951803]]",0,0.389
8773808799,f,21,english,5,3,english,2024-01-25 10:31:19.575190,False,1,62,sounds\french\audio/french_905.wav,"[[  0.         -38.71328765]
 [  0.1        -13.25441968]
 [  0.2         68.23042526]
 [  0.3         -9.07899561]
 [  0.4         23.04374358]
 [  0.5        -34.50239331]
 [  0.6        -88.44622923]
 [  0.7          1.86512392]
 [  0.8         49.982607  ]
 [  0.9        -74.6664717 ]
 [  1.          25.28695903]
 [  1.1        -11.94855431]
 [  1.14141667  83.46177553]]","[[0.         0.16851996]
 [0.1        0.90731449]
 [0.2        1.02086119]
 [0.3        1.91741767]
 [0.4        0.92707997]
 [0.5        0.34846439]
 [0.6        1.28024377]
 [0.7        0.9406567 ]
 [0.8        0.97954408]
 [0.9        1.64343683]
 [1.         1.08233256]
 [1.1        0.01276583]
 [1.14141667 0.02193146]]",0,0.549
8773808799,f,21,english,5,3,english,2024-01-25 10:31:19.575190,False,1,63,sounds\french\audio/french_713.wav,"[[  0.         -37.43474567]
 [  0.1         99.965975  ]
 [  0.2         59.45839073]
 [  0.3        -25.31478906]
 [  0.4          5.71723288]
 [  0.5         36.1118223 ]
 [  0.6        -56.37110024]
 [  0.7        -24.52303614]
 [  0.8         -2.49025769]
 [  0.9         21.24369228]
 [  1.          -2.82246083]
 [  1.1         -3.3969212 ]
 [  1.14141667 -49.20963854]]","[[0.         1.24372469]
 [0.1        0.93707229]
 [0.2        1.24132484]
 [0.3        0.8696724 ]
 [0.4        1.68662747]
 [0.5        0.63259997]
 [0.6        1.92165301]
 [0.7        1.34711854]
 [0.8        0.32122443]
 [0.9        0.60636845]
 [1.         1.76664037]
 [1.1        1.5841005 ]
 [1.14141667 1.28542725]]",0,0.533
8773808799,f,21,english,5,3,english,2024-01-25 10:31:19.575190,False,1,64,sounds\french\audio/french_268.wav,"[[  0.         -90.17309363]
 [  0.1          7.72676812]
 [  0.2        -17.47785998]
 [  0.3        -68.38186843]
 [  0.4        -68.90464699]
 [  0.5        -60.03371115]
 [  0.6         54.95042453]
 [  0.7        -61.89102348]
 [  0.8        -92.43644205]
 [  0.9        -85.74845922]
 [  1.         -67.45378327]
 [  1.1        -69.51500294]
 [  1.14141667  25.86880955]]","[[0.         1.87145696]
 [0.1        1.66378637]
 [0.2        0.26930884]
 [0.3        1.52031218]
 [0.4        0.92093983]
 [0.5        1.79094401]
 [0.6        1.54867869]
 [0.7        1.2478237 ]
 [0.8        0.54208793]
 [0.9        0.78885357]
 [1.         1.38787262]
 [1.1        1.61364817]
 [1.14141667 0.52503336]]",1,2.378
8773808799,f,21,english,5,3,english,2024-01-25 10:31:19.575190,False,1,65,sounds\french\audio/french_955.wav,"[[  0.         -94.25756264]
 [  0.1        -34.03260107]
 [  0.2        -13.41635507]
 [  0.3        -71.54807008]
 [  0.4        -77.331913  ]
 [  0.5        -50.91677929]
 [  0.6        -49.3272692 ]
 [  0.7         14.98823062]
 [  0.8        -92.82474453]
 [  0.9         52.03391348]
 [  1.         -96.34521909]
 [  1.1         -2.783526  ]
 [  1.14141667  38.46492665]]","[[0.         0.84151631]
 [0.1        0.64154244]
 [0.2        0.7407158 ]
 [0.3        0.93666894]
 [0.4        1.77494387]
 [0.5        1.86091326]
 [0.6        0.93752328]
 [0.7        1.66003137]
 [0.8        0.78633884]
 [0.9        1.69754994]
 [1.         1.91328734]
 [1.1        0.45528324]
 [1.14141667 0.73678697]]",0,0.535
8773808799,f,21,english,5,3,english,2024-01-25 10:31:19.575190,False,1,66,sounds\french\audio/french_788.wav,"[[  0.          84.88181246]
 [  0.1        -53.361196  ]
 [  0.2        -79.83183492]
 [  0.3        -81.43667249]
 [  0.4        -84.26984857]
 [  0.5         -6.78913133]
 [  0.6        -92.03119161]
 [  0.7        -49.77310548]
 [  0.8        -47.02560552]
 [  0.9        -18.72561961]
 [  1.         -17.58583792]
 [  1.1        -51.68507601]
 [  1.14141667 -51.32861943]]","[[0.         0.03175168]
 [0.1        0.85169606]
 [0.2        1.06249642]
 [0.3        0.33118056]
 [0.4        0.56264905]
 [0.5        1.04297642]
 [0.6        0.21097219]
 [0.7        0.74540568]
 [0.8        0.91078692]
 [0.9        1.76633496]
 [1.         0.74480247]
 [1.1        0.45106358]
 [1.14141667 1.35846838]]",0,0.385
8773808799,f,21,english,5,3,english,2024-01-25 10:31:19.575190,False,1,67,sounds\french\audio/french_593.wav,"[[  0.         -26.15191158]
 [  0.1        -23.77044674]
 [  0.2        -56.77087027]
 [  0.3        -26.6634209 ]
 [  0.4         23.2517825 ]
 [  0.5         20.15285172]
 [  0.6          0.51630832]
 [  0.7        -35.81236966]
 [  0.8        -27.3865171 ]
 [  0.9        -29.8816425 ]
 [  1.          -1.08914565]
 [  1.1        -56.55903373]
 [  1.14141667 -69.29632341]]","[[0.         1.67620181]
 [0.1        1.88114871]
 [0.2        0.68107866]
 [0.3        0.59955882]
 [0.4        0.4124721 ]
 [0.5        1.3172903 ]
 [0.6        1.36089333]
 [0.7        1.34128956]
 [0.8        0.731606  ]
 [0.9        1.0339416 ]
 [1.         1.74012393]
 [1.1        0.35910853]
 [1.14141667 1.05627167]]",0,0.363
8773808799,f,21,english,5,3,english,2024-01-25 10:31:19.575190,False,1,68,sounds\french\audio/french_332.wav,"[[  0.          96.55415185]
 [  0.1         41.84676529]
 [  0.2         11.79407364]
 [  0.3         71.95879521]
 [  0.4         93.7120883 ]
 [  0.5        -64.09021705]
 [  0.6         48.95988614]
 [  0.7        -46.46481752]
 [  0.8        -93.14590569]
 [  0.9         98.2579271 ]
 [  1.         -25.55352001]
 [  1.1        -32.07296717]
 [  1.14141667 -59.59644834]]","[[0.         0.2361121 ]
 [0.1        1.55908087]
 [0.2        1.56148194]
 [0.3        0.1780551 ]
 [0.4        0.11299288]
 [0.5        0.50480093]
 [0.6        1.92283551]
 [0.7        0.74945396]
 [0.8        1.03156879]
 [0.9        0.68943187]
 [1.         0.49069002]
 [1.1        0.79107951]
 [1.14141667 0.50996293]]",0,0.518
8773808799,f,21,english,5,3,english,2024-01-25 10:31:19.575190,False,1,69,sounds\french\audio/french_919.wav,"[[  0.          -1.20086157]
 [  0.1         23.70683085]
 [  0.2         57.81380223]
 [  0.3        -35.3373876 ]
 [  0.4        -47.40127712]
 [  0.5         30.8485682 ]
 [  0.6        -65.35395561]
 [  0.7         85.95532588]
 [  0.8         92.08322147]
 [  0.9        -41.94331802]
 [  1.          52.33310805]
 [  1.1        -64.04027042]
 [  1.14141667 -13.37988962]]","[[0.         1.82372542]
 [0.1        1.2747469 ]
 [0.2        1.5717064 ]
 [0.3        0.75801577]
 [0.4        0.41520743]
 [0.5        0.28163439]
 [0.6        0.64408251]
 [0.7        0.95994637]
 [0.8        0.70005391]
 [0.9        0.9468388 ]
 [1.         0.21391183]
 [1.1        1.54895117]
 [1.14141667 0.55798758]]",0,0.702
8773808799,f,21,english,5,3,english,2024-01-25 10:31:19.575190,False,1,70,sounds\french\audio/french_259.wav,"[[  0.         -59.91817448]
 [  0.1        -76.78104066]
 [  0.2        -24.57474892]
 [  0.3         14.52282821]
 [  0.4        -74.78142886]
 [  0.5         92.44025007]
 [  0.6        -62.83388566]
 [  0.7        -12.86689319]
 [  0.8        -56.0210738 ]
 [  0.9         16.50496054]
 [  1.          26.27464012]
 [  1.1        -25.91156451]
 [  1.14141667  79.12845204]]","[[0.         1.41028743]
 [0.1        0.39402833]
 [0.2        0.55524153]
 [0.3        1.28540182]
 [0.4        1.3039233 ]
 [0.5        1.14426098]
 [0.6        0.89085824]
 [0.7        1.12937419]
 [0.8        1.6719433 ]
 [0.9        0.74095539]
 [1.         1.24119924]
 [1.1        0.75010555]
 [1.14141667 0.55605734]]",1,0.708
8773808799,f,21,english,5,3,english,2024-01-25 10:31:19.575190,False,1,71,sounds\french\audio/french_251.wav,"[[  0.          -6.10327237]
 [  0.1        -31.81812212]
 [  0.2          1.49653309]
 [  0.3         36.35816444]
 [  0.4         -9.41951006]
 [  0.5        -36.93530582]
 [  0.6        -25.41473519]
 [  0.7         56.15025122]
 [  0.8        -13.30142445]
 [  0.9        -95.55635491]
 [  1.         -99.65392401]
 [  1.1         -3.55054731]
 [  1.14141667 -37.18224503]]","[[0.         0.87476983]
 [0.1        0.20851018]
 [0.2        1.45345917]
 [0.3        1.96312617]
 [0.4        1.04651376]
 [0.5        1.9610622 ]
 [0.6        1.3492542 ]
 [0.7        1.04795193]
 [0.8        0.20627276]
 [0.9        0.33014387]
 [1.         1.62301135]
 [1.1        1.19927307]
 [1.14141667 1.67752435]]",1,1.738
8773808799,f,21,english,5,3,english,2024-01-25 10:31:19.575190,False,1,72,sounds\french\audio/french_820.wav,"[[  0.           2.20805213]
 [  0.1        -90.51492195]
 [  0.2         14.37438706]
 [  0.3         48.7691056 ]
 [  0.4        -26.19278003]
 [  0.5         18.08357323]
 [  0.6         82.28583292]
 [  0.7         69.03631189]
 [  0.8         27.35509958]
 [  0.9         27.52320107]
 [  1.          -3.99788557]
 [  1.1         54.09103587]
 [  1.14141667  22.53021971]]","[[0.         0.81178605]
 [0.1        0.34105584]
 [0.2        1.03419156]
 [0.3        1.3222317 ]
 [0.4        0.6377532 ]
 [0.5        1.39628768]
 [0.6        1.53457958]
 [0.7        1.68460853]
 [0.8        1.6036494 ]
 [0.9        1.49572357]
 [1.         0.7318371 ]
 [1.1        0.77038849]
 [1.14141667 0.80738652]]",1,0.484
8773808799,f,21,english,5,3,english,2024-01-25 10:31:19.575190,False,1,73,sounds\french\audio/french_80.wav,"[[  0.          66.25159817]
 [  0.1         47.28875238]
 [  0.2         14.01549539]
 [  0.3        -62.14371767]
 [  0.4        -76.73625879]
 [  0.5        -32.68632247]
 [  0.6          0.74925726]
 [  0.7        -34.36190884]
 [  0.8        -35.49297104]
 [  0.9        -27.79992326]
 [  1.          55.68399656]
 [  1.1        -66.66640437]
 [  1.14141667  96.7981211 ]]","[[0.         0.77450666]
 [0.1        1.50399144]
 [0.2        0.48639635]
 [0.3        1.98465252]
 [0.4        0.53703396]
 [0.5        1.91033133]
 [0.6        0.37647001]
 [0.7        0.75454249]
 [0.8        0.37140864]
 [0.9        0.77901808]
 [1.         1.25763863]
 [1.1        1.7307387 ]
 [1.14141667 0.46038543]]",0,0.558
8773808799,f,21,english,5,3,english,2024-01-25 10:31:19.575190,False,1,74,sounds\french\audio/french_843.wav,"[[  0.           3.16503594]
 [  0.1         26.80395692]
 [  0.2         16.79385543]
 [  0.3        -35.60483384]
 [  0.4         18.52937613]
 [  0.5         37.26610196]
 [  0.6        -80.36118355]
 [  0.7        -87.10510064]
 [  0.8         35.50538366]
 [  0.9        -72.56191372]
 [  1.          -8.47223635]
 [  1.1         71.58119759]
 [  1.14141667  10.49120463]]","[[0.         0.09451126]
 [0.1        1.74509222]
 [0.2        0.77620576]
 [0.3        1.61358005]
 [0.4        1.57470559]
 [0.5        0.6926668 ]
 [0.6        0.58242689]
 [0.7        1.20976991]
 [0.8        1.8175096 ]
 [0.9        0.5430267 ]
 [1.         0.77082682]
 [1.1        1.76255625]
 [1.14141667 1.95278824]]",0,0.456
8773808799,f,21,english,5,3,english,2024-01-25 10:31:19.575190,False,1,75,sounds\french\audio/french_111.wav,"[[  0.          14.77849199]
 [  0.1        -93.87823823]
 [  0.2         64.26417709]
 [  0.3        -22.82520637]
 [  0.4         98.98633094]
 [  0.5         61.91694484]
 [  0.6        -14.22171185]
 [  0.7         13.64889923]
 [  0.8         16.45015469]
 [  0.9         68.39985611]
 [  1.           9.08640089]
 [  1.1         -0.24488945]
 [  1.14141667 -45.33321106]]","[[0.         0.705567  ]
 [0.1        1.75025846]
 [0.2        0.64729838]
 [0.3        0.85969061]
 [0.4        0.27217842]
 [0.5        1.89781194]
 [0.6        0.81989365]
 [0.7        1.01021301]
 [0.8        0.3816251 ]
 [0.9        1.4301898 ]
 [1.         1.68654452]
 [1.1        0.43604245]
 [1.14141667 1.24858314]]",1,0.429
8773808799,f,21,english,5,3,english,2024-01-25 10:31:19.575190,False,1,76,sounds\french\audio/french_51.wav,"[[  0.          62.4944225 ]
 [  0.1         61.10498272]
 [  0.2        -42.55198692]
 [  0.3        -72.35169931]
 [  0.4        -39.72934283]
 [  0.5         -0.87762192]
 [  0.6          7.66993076]
 [  0.7         -6.36433464]
 [  0.8        -39.73719786]
 [  0.9        -64.33065086]
 [  1.          34.09936964]
 [  1.1         93.5102441 ]
 [  1.14141667  81.02465116]]","[[0.         0.56001198]
 [0.1        1.54758202]
 [0.2        0.60904928]
 [0.3        1.71890081]
 [0.4        0.5014883 ]
 [0.5        1.02109286]
 [0.6        1.51415411]
 [0.7        1.90557728]
 [0.8        0.23887444]
 [0.9        0.05375229]
 [1.         0.21145589]
 [1.1        0.42199399]
 [1.14141667 0.67338837]]",1,40.822
8773808799,f,21,english,5,3,english,2024-01-25 10:31:19.575190,False,1,77,sounds\french\audio/french_805.wav,"[[  0.         -44.55735502]
 [  0.1        -15.81782327]
 [  0.2        -60.55488751]
 [  0.3        -22.03480197]
 [  0.4        -82.42416276]
 [  0.5         26.6793054 ]
 [  0.6        -90.86223061]
 [  0.7        -32.61383863]
 [  0.8        -25.8862389 ]
 [  0.9        -83.72221214]
 [  1.           9.78399033]
 [  1.1        -75.28148503]
 [  1.14141667 -45.84381211]]","[[0.         0.30537306]
 [0.1        0.95683225]
 [0.2        1.47185568]
 [0.3        0.27583044]
 [0.4        1.40306371]
 [0.5        0.29904003]
 [0.6        0.10571209]
 [0.7        1.80090028]
 [0.8        1.4046027 ]
 [0.9        1.0925065 ]
 [1.         0.78385676]
 [1.1        0.24940616]
 [1.14141667 0.58218615]]",0,1.187
8773808799,f,21,english,5,3,english,2024-01-25 10:31:19.575190,False,1,78,sounds\french\audio/french_53.wav,"[[  0.         -28.0107555 ]
 [  0.1        -32.89623972]
 [  0.2        -30.87420046]
 [  0.3        -28.85389422]
 [  0.4        -61.04108291]
 [  0.5        -42.72827131]
 [  0.6        -39.80042832]
 [  0.7         86.61388374]
 [  0.8        -13.10870886]
 [  0.9         73.41452955]
 [  1.         -76.02339619]
 [  1.1        -99.20877843]
 [  1.14141667  -4.16419643]]","[[0.         1.07618979]
 [0.1        0.74993287]
 [0.2        0.87673017]
 [0.3        0.75649392]
 [0.4        0.57081033]
 [0.5        0.38337207]
 [0.6        1.97746459]
 [0.7        0.72612227]
 [0.8        0.61721519]
 [0.9        1.47274228]
 [1.         0.29121058]
 [1.1        0.63443115]
 [1.14141667 0.81233408]]",0,0.723
8773808799,f,21,english,5,3,english,2024-01-25 10:31:19.575190,False,1,79,sounds\french\audio/french_896.wav,"[[  0.          11.47422231]
 [  0.1         46.2400026 ]
 [  0.2        -24.32057019]
 [  0.3        -87.2030855 ]
 [  0.4          5.78611761]
 [  0.5         71.23724358]
 [  0.6        -12.04646094]
 [  0.7         65.65969456]
 [  0.8        -71.55601308]
 [  0.9        -30.47071095]
 [  1.          81.31836813]
 [  1.1         59.00321501]
 [  1.14141667 -11.27294507]]","[[0.         0.82823049]
 [0.1        0.71952712]
 [0.2        0.05991654]
 [0.3        0.82758531]
 [0.4        0.66822368]
 [0.5        1.72255849]
 [0.6        0.89622967]
 [0.7        1.36132994]
 [0.8        0.74243617]
 [0.9        1.96359611]
 [1.         1.07942153]
 [1.1        0.72058173]
 [1.14141667 1.33962568]]",0,0.511
8773808799,f,21,english,5,3,english,2024-01-25 10:31:19.575190,False,1,80,sounds\french\audio/french_71.wav,"[[  0.          78.85650806]
 [  0.1         98.66013561]
 [  0.2         40.76629431]
 [  0.3         37.46576167]
 [  0.4         36.62059925]
 [  0.5        -15.30499106]
 [  0.6         13.92967978]
 [  0.7         41.98872019]
 [  0.8         86.5834428 ]
 [  0.9        -38.49262182]
 [  1.          17.09638043]
 [  1.1        -31.08676799]
 [  1.14141667  -1.70593486]]","[[0.         0.8693317 ]
 [0.1        0.2047511 ]
 [0.2        0.17301427]
 [0.3        0.67884544]
 [0.4        0.49967362]
 [0.5        0.06276407]
 [0.6        1.96544584]
 [0.7        0.03052065]
 [0.8        0.2363001 ]
 [0.9        0.76897263]
 [1.         0.53014972]
 [1.1        0.03830657]
 [1.14141667 1.08106094]]",1,0.681
8773808799,f,21,english,5,3,english,2024-01-25 10:31:19.575190,False,1,81,sounds\french\audio/french_875.wav,"[[  0.          45.85158568]
 [  0.1          7.11917254]
 [  0.2         78.12134314]
 [  0.3         97.47827294]
 [  0.4        -16.31048208]
 [  0.5        -57.92090537]
 [  0.6        -80.48850895]
 [  0.7         14.41161829]
 [  0.8         30.39544131]
 [  0.9        -13.64067474]
 [  1.          10.63284956]
 [  1.1         34.52905644]
 [  1.14141667  37.26363769]]","[[0.         0.742891  ]
 [0.1        1.89433175]
 [0.2        1.6243666 ]
 [0.3        0.98769572]
 [0.4        0.57089061]
 [0.5        1.46131689]
 [0.6        0.74274184]
 [0.7        0.99318799]
 [0.8        1.87326507]
 [0.9        0.6995089 ]
 [1.         1.63464253]
 [1.1        0.5924672 ]
 [1.14141667 1.26762878]]",0,0.453
8773808799,f,21,english,5,3,english,2024-01-25 10:31:19.575190,False,1,82,sounds\french\audio/french_759.wav,"[[  0.          98.83665256]
 [  0.1        -36.98704923]
 [  0.2        -13.21190581]
 [  0.3        -80.8598001 ]
 [  0.4        -25.0918208 ]
 [  0.5        -23.99620205]
 [  0.6        -10.44532567]
 [  0.7         30.16480519]
 [  0.8         26.50650609]
 [  0.9         84.41962205]
 [  1.         -55.53219039]
 [  1.1          8.0634811 ]
 [  1.14141667  -3.22335062]]","[[0.         1.21092883]
 [0.1        0.7175079 ]
 [0.2        0.78878443]
 [0.3        0.44631257]
 [0.4        0.9996058 ]
 [0.5        0.69774753]
 [0.6        1.25144841]
 [0.7        0.57999204]
 [0.8        0.87523247]
 [0.9        1.36445092]
 [1.         0.77961983]
 [1.1        1.59542787]
 [1.14141667 1.19142212]]",1,0.267
8773808799,f,21,english,5,3,english,2024-01-25 10:31:19.575190,False,1,83,sounds\french\audio/french_587.wav,"[[  0.         -23.10151834]
 [  0.1         73.96187404]
 [  0.2        -36.92313799]
 [  0.3        -49.18419378]
 [  0.4         62.41576627]
 [  0.5         50.48984241]
 [  0.6        -36.48125396]
 [  0.7         49.40629833]
 [  0.8          9.88525734]
 [  0.9          3.79133085]
 [  1.          26.22699337]
 [  1.1         38.90906104]
 [  1.14141667  68.80148374]]","[[0.         0.66297152]
 [0.1        0.83081239]
 [0.2        1.04778095]
 [0.3        0.81483732]
 [0.4        1.5428737 ]
 [0.5        0.5491045 ]
 [0.6        0.38093132]
 [0.7        0.06101614]
 [0.8        0.87218615]
 [0.9        1.80491798]
 [1.         1.12003779]
 [1.1        1.11770584]
 [1.14141667 1.81736967]]",0,0.231
8773808799,f,21,english,5,3,english,2024-01-25 10:31:19.575190,False,1,84,sounds\french\audio/french_997.wav,"[[  0.          10.01615928]
 [  0.1        -31.7574677 ]
 [  0.2          2.7154438 ]
 [  0.3        -79.91650454]
 [  0.4          8.77466148]
 [  0.5        -16.22256487]
 [  0.6        -60.89392268]
 [  0.7        -24.52842539]
 [  0.8        -19.72610301]
 [  0.9        -89.9387941 ]
 [  1.          38.50843253]
 [  1.1         62.26606254]
 [  1.14141667  46.03408292]]","[[0.         1.51695933]
 [0.1        1.40378883]
 [0.2        1.52016823]
 [0.3        1.1088133 ]
 [0.4        0.49857821]
 [0.5        1.0829469 ]
 [0.6        0.81899516]
 [0.7        0.89305884]
 [0.8        0.05024955]
 [0.9        0.47019022]
 [1.         0.78624029]
 [1.1        1.1092027 ]
 [1.14141667 0.99852276]]",1,0.69
8773808799,f,21,english,5,3,english,2024-01-25 10:31:19.575190,False,1,85,sounds\french\audio/french_327.wav,"[[  0.         -53.52918166]
 [  0.1         27.70688204]
 [  0.2         69.01000841]
 [  0.3        -45.54391613]
 [  0.4         33.52384078]
 [  0.5         17.91078554]
 [  0.6         45.93563694]
 [  0.7        -13.10288858]
 [  0.8        -25.64022912]
 [  0.9        -75.06755685]
 [  1.         -83.28184553]
 [  1.1         81.16413935]
 [  1.14141667 -23.22330966]]","[[0.         1.09156225]
 [0.1        1.43297377]
 [0.2        0.49398039]
 [0.3        0.06798676]
 [0.4        0.46773915]
 [0.5        0.5934464 ]
 [0.6        0.09815692]
 [0.7        1.9688821 ]
 [0.8        1.78538783]
 [0.9        0.971708  ]
 [1.         0.69398497]
 [1.1        0.89234936]
 [1.14141667 1.70612445]]",0,0.403
8773808799,f,21,english,5,3,english,2024-01-25 10:31:19.575190,False,1,86,sounds\french\audio/french_503.wav,"[[  0.          89.71427056]
 [  0.1        -70.51005578]
 [  0.2         75.84374713]
 [  0.3        -65.96801952]
 [  0.4        -99.12862023]
 [  0.5         42.18807517]
 [  0.6         25.95406096]
 [  0.7        -40.09314125]
 [  0.8         44.47277883]
 [  0.9         16.62214307]
 [  1.          77.66452295]
 [  1.1        -63.87625715]
 [  1.14141667 -12.54613401]]","[[0.         1.01776628]
 [0.1        1.96713819]
 [0.2        1.27326549]
 [0.3        1.01915637]
 [0.4        1.08509297]
 [0.5        1.85501182]
 [0.6        1.3585005 ]
 [0.7        0.2752787 ]
 [0.8        0.00986065]
 [0.9        1.75352346]
 [1.         0.69056339]
 [1.1        1.66617346]
 [1.14141667 1.22968396]]",0,2.493
8773808799,f,21,english,5,3,english,2024-01-25 10:31:19.575190,False,1,87,sounds\french\audio/french_131.wav,"[[  0.          43.89869303]
 [  0.1          1.87533794]
 [  0.2         22.29443787]
 [  0.3         80.0665813 ]
 [  0.4         34.98439119]
 [  0.5         -5.43009148]
 [  0.6         51.77910051]
 [  0.7         16.33164281]
 [  0.8          2.69660121]
 [  0.9         67.97713521]
 [  1.         -78.89064935]
 [  1.1          3.66517483]
 [  1.14141667  28.89118946]]","[[0.         1.60661373]
 [0.1        1.45479188]
 [0.2        0.2596898 ]
 [0.3        0.92411688]
 [0.4        1.59995731]
 [0.5        1.70569439]
 [0.6        0.57553958]
 [0.7        0.89044664]
 [0.8        0.56880668]
 [0.9        0.83892608]
 [1.         1.1265108 ]
 [1.1        0.22006075]
 [1.14141667 0.49062162]]",1,0.376
8773808799,f,21,english,5,3,english,2024-01-25 10:31:19.575190,False,1,88,sounds\french\audio/french_553.wav,"[[  0.          57.11997381]
 [  0.1        -32.53722502]
 [  0.2        -87.28109772]
 [  0.3        -27.51150216]
 [  0.4         82.51849705]
 [  0.5         -2.05823162]
 [  0.6         87.22176329]
 [  0.7         21.26654891]
 [  0.8          5.0205633 ]
 [  0.9        -15.12387939]
 [  1.         -30.58863074]
 [  1.1        -22.19258408]
 [  1.14141667  11.14114277]]","[[0.         0.90900436]
 [0.1        1.02881702]
 [0.2        1.91577474]
 [0.3        1.84689949]
 [0.4        0.82658903]
 [0.5        0.12969693]
 [0.6        0.8683285 ]
 [0.7        0.55394795]
 [0.8        0.61832745]
 [0.9        0.27087234]
 [1.         0.73142715]
 [1.1        1.63938035]
 [1.14141667 0.86419781]]",1,0.634
8773808799,f,21,english,5,3,english,2024-01-25 10:31:19.575190,False,1,89,sounds\french\audio/french_780.wav,"[[  0.           1.6361827 ]
 [  0.1         65.3259988 ]
 [  0.2         -9.10284964]
 [  0.3         71.37936618]
 [  0.4        -61.83005099]
 [  0.5         64.1925332 ]
 [  0.6        -73.78104882]
 [  0.7        -75.04579524]
 [  0.8         94.52941368]
 [  0.9        -40.24958263]
 [  1.          70.56248905]
 [  1.1        -94.2422388 ]
 [  1.14141667  38.81083767]]","[[0.         0.91275893]
 [0.1        0.6923682 ]
 [0.2        0.91492024]
 [0.3        0.74961563]
 [0.4        1.83666104]
 [0.5        1.59808961]
 [0.6        0.06025733]
 [0.7        0.97352889]
 [0.8        0.3343283 ]
 [0.9        1.19408747]
 [1.         1.41158065]
 [1.1        0.89941942]
 [1.14141667 0.47183897]]",0,0.397
8773808799,f,21,english,5,3,english,2024-01-25 10:31:19.575190,False,1,90,sounds\french\audio/french_450.wav,"[[  0.           4.70184188]
 [  0.1        -11.95880563]
 [  0.2         53.61985122]
 [  0.3        -85.38293737]
 [  0.4         81.03787429]
 [  0.5         60.88142029]
 [  0.6         51.15998741]
 [  0.7          2.81982788]
 [  0.8        -20.49721325]
 [  0.9         53.84768168]
 [  1.          98.5663088 ]
 [  1.1        -49.53483504]
 [  1.14141667 -65.90212965]]","[[0.         1.04621454]
 [0.1        1.88376194]
 [0.2        0.0064492 ]
 [0.3        1.74804206]
 [0.4        1.15618938]
 [0.5        0.18145745]
 [0.6        0.89151946]
 [0.7        0.09457117]
 [0.8        1.37408158]
 [0.9        0.40754462]
 [1.         0.43615901]
 [1.1        0.56531873]
 [1.14141667 0.12479989]]",1,0.78
8773808799,f,21,english,5,3,english,2024-01-25 10:31:19.575190,False,1,91,sounds\french\audio/french_744.wav,"[[  0.         -91.48661439]
 [  0.1         18.65355246]
 [  0.2        -47.54496018]
 [  0.3         17.95212516]
 [  0.4        -62.8659354 ]
 [  0.5        -61.59142109]
 [  0.6         -6.96150758]
 [  0.7         44.5539527 ]
 [  0.8         61.79622069]
 [  0.9         15.75993473]
 [  1.          73.30241855]
 [  1.1         32.92483065]
 [  1.14141667 -20.87758002]]","[[0.         1.85846096]
 [0.1        1.31941604]
 [0.2        1.09691526]
 [0.3        0.82238675]
 [0.4        1.59275608]
 [0.5        1.03229624]
 [0.6        1.01361934]
 [0.7        0.71415112]
 [0.8        0.72291552]
 [0.9        0.48078155]
 [1.         0.68305792]
 [1.1        0.69994656]
 [1.14141667 0.74534068]]",1,1.001
8773808799,f,21,english,5,3,english,2024-01-25 10:31:19.575190,False,1,92,sounds\french\audio/french_207.wav,"[[  0.          69.64355334]
 [  0.1        -22.42972011]
 [  0.2         74.23583097]
 [  0.3         41.84488675]
 [  0.4          0.98677762]
 [  0.5        -65.85412268]
 [  0.6         57.546837  ]
 [  0.7        -68.81478763]
 [  0.8        -61.37754855]
 [  0.9          4.44951701]
 [  1.          81.11529143]
 [  1.1         49.41893342]
 [  1.14141667 -53.2770861 ]]","[[0.         0.56807355]
 [0.1        0.60404319]
 [0.2        0.30958546]
 [0.3        0.98774302]
 [0.4        1.51182152]
 [0.5        0.5602918 ]
 [0.6        1.70611495]
 [0.7        1.81928265]
 [0.8        0.68562072]
 [0.9        0.27933548]
 [1.         1.4017856 ]
 [1.1        0.74660041]
 [1.14141667 0.97210809]]",1,0.409
8773808799,f,21,english,5,3,english,2024-01-25 10:31:19.575190,False,1,93,sounds\french\audio/french_140.wav,"[[  0.          -5.44660555]
 [  0.1         80.80532434]
 [  0.2        -26.28924637]
 [  0.3         78.8244392 ]
 [  0.4        -25.46300835]
 [  0.5         79.53586689]
 [  0.6        -34.09368615]
 [  0.7         21.55982824]
 [  0.8         23.8507105 ]
 [  0.9         22.99546712]
 [  1.          68.06240676]
 [  1.1        -88.05692373]
 [  1.14141667 -64.50909359]]","[[0.         0.39346856]
 [0.1        0.28881363]
 [0.2        0.53701965]
 [0.3        0.51857425]
 [0.4        0.44717912]
 [0.5        1.13692182]
 [0.6        0.60417211]
 [0.7        1.29979933]
 [0.8        0.35984825]
 [0.9        0.05575236]
 [1.         0.85167072]
 [1.1        0.34876443]
 [1.14141667 0.64453437]]",1,1.226
8773808799,f,21,english,5,3,english,2024-01-25 10:31:19.575190,False,1,94,sounds\french\audio/french_492.wav,"[[  0.          62.67168513]
 [  0.1         94.72344934]
 [  0.2        -60.35828135]
 [  0.3        -88.06504121]
 [  0.4         -6.78932349]
 [  0.5        -47.82180806]
 [  0.6         -8.91064001]
 [  0.7        -28.60266993]
 [  0.8        -48.68723624]
 [  0.9         18.57877233]
 [  1.          39.49699981]
 [  1.1        -66.80023278]
 [  1.14141667  52.77539511]]","[[0.         0.43911588]
 [0.1        1.05025764]
 [0.2        1.43296606]
 [0.3        1.08587419]
 [0.4        1.96972539]
 [0.5        1.20621652]
 [0.6        1.316574  ]
 [0.7        0.03749259]
 [0.8        1.11329037]
 [0.9        1.67425831]
 [1.         0.64760106]
 [1.1        1.35920659]
 [1.14141667 1.38166489]]",0,0.499
8773808799,f,21,english,5,3,english,2024-01-25 10:31:19.575190,False,1,95,sounds\french\audio/french_779.wav,"[[  0.         -38.28425878]
 [  0.1        -19.73299362]
 [  0.2         -1.63971334]
 [  0.3        -13.00341001]
 [  0.4        -18.58635516]
 [  0.5        -89.98694193]
 [  0.6         92.32758461]
 [  0.7        -57.54469246]
 [  0.8        -77.17429957]
 [  0.9         -5.46434537]
 [  1.         -18.50514079]
 [  1.1         -7.2649165 ]
 [  1.14141667  -3.97761041]]","[[0.         1.14466513]
 [0.1        1.60046318]
 [0.2        0.66760831]
 [0.3        1.70247529]
 [0.4        0.17241517]
 [0.5        1.76793656]
 [0.6        1.36679993]
 [0.7        0.7012445 ]
 [0.8        1.36817327]
 [0.9        0.41680341]
 [1.         0.28529805]
 [1.1        1.0076311 ]
 [1.14141667 1.26738641]]",1,0.374
8773808799,f,21,english,5,3,english,2024-01-25 10:31:19.575190,False,1,96,sounds\french\audio/french_175.wav,"[[  0.         -86.0971082 ]
 [  0.1         -2.3053728 ]
 [  0.2         91.03775422]
 [  0.3        -72.92322202]
 [  0.4         19.26304209]
 [  0.5         22.762125  ]
 [  0.6         89.08499151]
 [  0.7         30.86228211]
 [  0.8        -20.38362491]
 [  0.9         30.33990578]
 [  1.          40.44951768]
 [  1.1        -74.03551827]
 [  1.14141667   8.34335903]]","[[0.         0.20418882]
 [0.1        1.54727449]
 [0.2        0.94711427]
 [0.3        0.51689232]
 [0.4        1.57615447]
 [0.5        1.15863709]
 [0.6        1.47271781]
 [0.7        1.58184422]
 [0.8        1.71939633]
 [0.9        1.50494596]
 [1.         0.66724973]
 [1.1        1.94775923]
 [1.14141667 1.32591679]]",0,0.375
8773808799,f,21,english,5,3,english,2024-01-25 10:31:19.575190,False,1,97,sounds\french\audio/french_746.wav,"[[  0.          90.23256386]
 [  0.1        -88.22192177]
 [  0.2         36.08058207]
 [  0.3         53.20574484]
 [  0.4        -53.48533356]
 [  0.5        -12.04471186]
 [  0.6         95.49693434]
 [  0.7         95.81637856]
 [  0.8         47.59417509]
 [  0.9         46.98416357]
 [  1.         -29.62731829]
 [  1.1        -23.23692929]
 [  1.14141667 -48.70417272]]","[[0.         1.50268963]
 [0.1        1.93803066]
 [0.2        0.38306992]
 [0.3        0.27079159]
 [0.4        1.49666029]
 [0.5        1.04483491]
 [0.6        0.40549233]
 [0.7        1.4005816 ]
 [0.8        1.55234369]
 [0.9        0.7227623 ]
 [1.         0.07092525]
 [1.1        1.38353686]
 [1.14141667 1.86039409]]",1,0.487
8773808799,f,21,english,5,3,english,2024-01-25 10:31:19.575190,False,1,98,sounds\french\audio/french_978.wav,"[[  0.          40.36214047]
 [  0.1         27.48362985]
 [  0.2         40.29852831]
 [  0.3        -43.85061163]
 [  0.4         67.88325766]
 [  0.5        -16.70318953]
 [  0.6        -33.19947882]
 [  0.7         50.84300547]
 [  0.8         85.59312257]
 [  0.9        -72.45512146]
 [  1.         -13.92502552]
 [  1.1         24.95517316]
 [  1.14141667 -51.28447362]]","[[0.         1.71110023]
 [0.1        0.87420818]
 [0.2        1.60194799]
 [0.3        1.28609491]
 [0.4        1.65987261]
 [0.5        1.36246258]
 [0.6        1.20639467]
 [0.7        0.49083377]
 [0.8        0.35642981]
 [0.9        1.25854162]
 [1.         1.89656772]
 [1.1        1.25997973]
 [1.14141667 1.23391695]]",0,0.988
8773808799,f,21,english,5,3,english,2024-01-25 10:31:19.575190,False,1,99,sounds\french\audio/french_489.wav,"[[  0.          84.44889922]
 [  0.1         76.96445942]
 [  0.2          8.54698853]
 [  0.3        -59.91285247]
 [  0.4         27.32007088]
 [  0.5          6.79605694]
 [  0.6        -17.55996402]
 [  0.7         82.31401574]
 [  0.8         84.94935876]
 [  0.9        -82.28492461]
 [  1.         -88.52112303]
 [  1.1         17.07609433]
 [  1.14141667 -30.14347884]]","[[0.         0.4324461 ]
 [0.1        0.85727213]
 [0.2        0.54736057]
 [0.3        0.94180877]
 [0.4        1.44274385]
 [0.5        0.58088487]
 [0.6        1.38647936]
 [0.7        1.65271142]
 [0.8        1.895289  ]
 [0.9        1.38057617]
 [1.         0.26964653]
 [1.1        0.78257825]
 [1.14141667 1.39946556]]",1,0.296
8773808799,f,21,english,5,3,english,2024-01-25 10:31:19.575190,False,1,100,sounds\french\audio/french_40.wav,"[[  0.          -8.12729319]
 [  0.1          4.45938553]
 [  0.2         28.58144877]
 [  0.3        -11.92795435]
 [  0.4         43.56251257]
 [  0.5         22.26926875]
 [  0.6        -14.80375006]
 [  0.7         -6.02231593]
 [  0.8         27.11076244]
 [  0.9          1.30682946]
 [  1.         -93.52950678]
 [  1.1        -66.90804862]
 [  1.14141667  -0.63154276]]","[[0.         1.33981221]
 [0.1        0.58230507]
 [0.2        0.45774736]
 [0.3        0.82403207]
 [0.4        1.03540986]
 [0.5        1.51862285]
 [0.6        1.30207552]
 [0.7        0.76961448]
 [0.8        1.12344021]
 [0.9        0.05989398]
 [1.         0.28850959]
 [1.1        0.1338746 ]
 [1.14141667 1.0832794 ]]",1,0.615
8773808799,f,21,english,5,3,english,2024-01-25 10:31:19.575190,False,1,101,sounds\french\audio/french_417.wav,"[[  0.         -32.77068381]
 [  0.1         10.55708239]
 [  0.2          9.91718709]
 [  0.3        -19.65098282]
 [  0.4         78.0410625 ]
 [  0.5        -63.41834819]
 [  0.6        -12.08890259]
 [  0.7        -70.29934215]
 [  0.8          4.63752128]
 [  0.9        -68.78784985]
 [  1.          70.79482523]
 [  1.1        -86.94841883]
 [  1.14141667  94.70906792]]","[[0.         1.43807666]
 [0.1        0.31892394]
 [0.2        0.85335618]
 [0.3        1.09322127]
 [0.4        1.86029096]
 [0.5        1.98490369]
 [0.6        0.83094909]
 [0.7        1.67039107]
 [0.8        1.16186805]
 [0.9        0.77381791]
 [1.         1.82295332]
 [1.1        0.89972345]
 [1.14141667 1.91023493]]",0,3.091
8773808799,f,21,english,5,3,english,2024-01-25 10:31:19.575190,False,1,102,sounds\french\audio/french_277.wav,"[[  0.          41.08697403]
 [  0.1         73.08255676]
 [  0.2         43.08380993]
 [  0.3         21.02518819]
 [  0.4         37.78172954]
 [  0.5         23.93679705]
 [  0.6        -67.69710766]
 [  0.7         13.42536336]
 [  0.8         51.4556767 ]
 [  0.9        -56.6842947 ]
 [  1.          28.39117481]
 [  1.1         34.75019827]
 [  1.14141667 -68.6754391 ]]","[[0.         1.6200344 ]
 [0.1        1.77085985]
 [0.2        1.23064254]
 [0.3        0.65610838]
 [0.4        0.97608822]
 [0.5        1.2635416 ]
 [0.6        0.50594858]
 [0.7        1.65502646]
 [0.8        0.51878313]
 [0.9        0.73572105]
 [1.         0.30914429]
 [1.1        1.8798641 ]
 [1.14141667 1.7546161 ]]",1,0.4
8773808799,f,21,english,5,3,english,2024-01-25 10:31:19.575190,False,1,103,sounds\french\audio/french_788.wav,"[[  0.          84.88181246]
 [  0.1        -53.361196  ]
 [  0.2        -79.83183492]
 [  0.3        -81.43667249]
 [  0.4        -84.26984857]
 [  0.5         -6.78913133]
 [  0.6        -92.03119161]
 [  0.7        -49.77310548]
 [  0.8        -47.02560552]
 [  0.9        -18.72561961]
 [  1.         -17.58583792]
 [  1.1        -51.68507601]
 [  1.14141667 -51.32861943]]","[[0.         0.03175168]
 [0.1        0.85169606]
 [0.2        1.06249642]
 [0.3        0.33118056]
 [0.4        0.56264905]
 [0.5        1.04297642]
 [0.6        0.21097219]
 [0.7        0.74540568]
 [0.8        0.91078692]
 [0.9        1.76633496]
 [1.         0.74480247]
 [1.1        0.45106358]
 [1.14141667 1.35846838]]",0,0.749
8773808799,f,21,english,5,3,english,2024-01-25 10:31:19.575190,False,1,104,sounds\french\audio/french_210.wav,"[[  0.          46.17077018]
 [  0.1         25.55565597]
 [  0.2         36.32492907]
 [  0.3         -9.73563195]
 [  0.4         51.38553925]
 [  0.5         -7.69265437]
 [  0.6         -6.88231676]
 [  0.7        -70.20980639]
 [  0.8        -38.00293126]
 [  0.9         31.75411594]
 [  1.          72.77428796]
 [  1.1        -58.88778719]
 [  1.14141667   3.90767487]]","[[0.         0.5132537 ]
 [0.1        0.67749198]
 [0.2        1.14472202]
 [0.3        1.55169683]
 [0.4        0.41542617]
 [0.5        1.65520704]
 [0.6        0.27196657]
 [0.7        0.37685367]
 [0.8        0.10674289]
 [0.9        0.64849757]
 [1.         1.72661409]
 [1.1        1.75041049]
 [1.14141667 0.37160501]]",1,0.48
8773808799,f,21,english,5,3,english,2024-01-25 10:31:19.575190,False,1,105,sounds\french\audio/french_237.wav,"[[  0.          31.70987786]
 [  0.1         44.65820907]
 [  0.2         13.3186434 ]
 [  0.3         66.1783484 ]
 [  0.4          9.82166226]
 [  0.5        -28.83229096]
 [  0.6         76.24548925]
 [  0.7         34.63949689]
 [  0.8        -48.33331205]
 [  0.9         50.34000449]
 [  1.          49.76225002]
 [  1.1         67.38211301]
 [  1.14141667  80.88052333]]","[[0.         1.31590513]
 [0.1        0.84112054]
 [0.2        0.69527524]
 [0.3        1.26135679]
 [0.4        1.98640285]
 [0.5        0.12218975]
 [0.6        0.73409952]
 [0.7        1.11406015]
 [0.8        1.16947058]
 [0.9        0.6556194 ]
 [1.         1.40941557]
 [1.1        0.44515823]
 [1.14141667 0.0317855 ]]",1,0.352
8773808799,f,21,english,5,3,english,2024-01-25 10:31:19.575190,False,1,106,sounds\french\audio/french_22.wav,"[[  0.          57.57437329]
 [  0.1         91.90169455]
 [  0.2        -54.72406642]
 [  0.3        -58.21202921]
 [  0.4        -16.12745405]
 [  0.5        -77.79996065]
 [  0.6        -90.51311513]
 [  0.7          1.00723392]
 [  0.8        -64.74173294]
 [  0.9         46.18077407]
 [  1.         -18.86967466]
 [  1.1        -35.65415422]
 [  1.14141667   4.83646108]]","[[0.         1.75197151]
 [0.1        0.33106486]
 [0.2        0.60913572]
 [0.3        1.92337105]
 [0.4        0.5656997 ]
 [0.5        1.48592388]
 [0.6        0.37318603]
 [0.7        0.81705885]
 [0.8        1.04732029]
 [0.9        0.12002022]
 [1.         1.32860669]
 [1.1        1.41358368]
 [1.14141667 0.43476345]]",1,0.288
8773808799,f,21,english,5,3,english,2024-01-25 10:31:19.575190,False,1,107,sounds\french\audio/french_528.wav,"[[  0.         -45.24651192]
 [  0.1        -22.79683557]
 [  0.2         25.30211498]
 [  0.3        -13.71578583]
 [  0.4         -2.25404313]
 [  0.5         83.84073609]
 [  0.6        -69.16068434]
 [  0.7        -28.27736662]
 [  0.8        -11.17926251]
 [  0.9        -41.84531138]
 [  1.          78.74165038]
 [  1.1        -14.12084883]
 [  1.14141667   8.7411314 ]]","[[0.         0.08021547]
 [0.1        0.12970445]
 [0.2        1.13419208]
 [0.3        1.1130053 ]
 [0.4        1.24506484]
 [0.5        1.8093004 ]
 [0.6        1.70569865]
 [0.7        0.10762221]
 [0.8        1.58260006]
 [0.9        0.5079295 ]
 [1.         0.6918907 ]
 [1.1        1.44056131]
 [1.14141667 1.29096722]]",1,2.562
8773808799,f,21,english,5,3,english,2024-01-25 10:31:19.575190,False,1,108,sounds\french\audio/french_591.wav,"[[  0.          -5.82682539]
 [  0.1        -81.3701121 ]
 [  0.2        -37.81307084]
 [  0.3        -54.8531106 ]
 [  0.4        -95.72600512]
 [  0.5        -64.2370476 ]
 [  0.6        -10.02239509]
 [  0.7          7.04740233]
 [  0.8        -22.95032107]
 [  0.9        -34.18626931]
 [  1.          -3.98772991]
 [  1.1         57.60407051]
 [  1.14141667 -76.01985318]]","[[0.         0.88855192]
 [0.1        1.90878683]
 [0.2        1.23278863]
 [0.3        0.97291582]
 [0.4        0.20433373]
 [0.5        0.04434128]
 [0.6        0.78703084]
 [0.7        1.11175391]
 [0.8        1.30696314]
 [0.9        1.87549286]
 [1.         0.82720637]
 [1.1        0.42168684]
 [1.14141667 1.24091325]]",0,1.115
8773808799,f,21,english,5,3,english,2024-01-25 10:31:19.575190,False,1,109,sounds\french\audio/french_824.wav,"[[ 0.00000000e+00  5.02201089e-01]
 [ 1.00000000e-01  6.05239588e+01]
 [ 2.00000000e-01  1.48896647e+01]
 [ 3.00000000e-01  3.33476675e+01]
 [ 4.00000000e-01 -2.84988199e+01]
 [ 5.00000000e-01  2.83484092e+01]
 [ 6.00000000e-01  9.05536847e-02]
 [ 7.00000000e-01  5.47024864e+01]
 [ 8.00000000e-01  1.33415816e+00]
 [ 9.00000000e-01 -1.30540877e+01]
 [ 1.00000000e+00  5.29162460e+01]
 [ 1.10000000e+00  9.07997148e+01]
 [ 1.14141667e+00 -8.48372177e+00]]","[[0.         0.86927053]
 [0.1        1.18411144]
 [0.2        1.09736758]
 [0.3        0.85219326]
 [0.4        1.84806057]
 [0.5        0.42773876]
 [0.6        0.73121711]
 [0.7        1.15803728]
 [0.8        0.61345655]
 [0.9        0.13219128]
 [1.         1.90220579]
 [1.1        0.08725417]
 [1.14141667 0.24224984]]",1,0.886
8773808799,f,21,english,5,3,english,2024-01-25 10:31:19.575190,False,1,110,sounds\french\audio/french_5.wav,"[[  0.          67.84600602]
 [  0.1         36.11985477]
 [  0.2         27.42056963]
 [  0.3        -51.17670217]
 [  0.4        -40.37414298]
 [  0.5        -24.2536038 ]
 [  0.6        -18.35468105]
 [  0.7         -4.97614975]
 [  0.8         48.20606938]
 [  0.9         15.99502717]
 [  1.         -62.82085154]
 [  1.1         -6.95701983]
 [  1.14141667 -66.75848558]]","[[0.         1.17631247]
 [0.1        0.77880018]
 [0.2        1.26171942]
 [0.3        1.79238294]
 [0.4        0.78218598]
 [0.5        0.94203558]
 [0.6        1.40818336]
 [0.7        1.58219359]
 [0.8        0.2158889 ]
 [0.9        1.46917473]
 [1.         1.96668642]
 [1.1        0.54762735]
 [1.14141667 0.46814151]]",1,1.39
8773808799,f,21,english,5,3,english,2024-01-25 10:31:19.575190,False,1,111,sounds\french\audio/french_66.wav,"[[  0.         -98.32760245]
 [  0.1        -62.26266621]
 [  0.2         89.72937552]
 [  0.3         56.77934236]
 [  0.4        -42.45776165]
 [  0.5        -59.91789644]
 [  0.6         -9.4669158 ]
 [  0.7         65.23523517]
 [  0.8        -82.94194698]
 [  0.9        -10.04050412]
 [  1.          69.7789537 ]
 [  1.1         65.31837891]
 [  1.14141667  -9.82207776]]","[[0.         0.76752471]
 [0.1        1.09885532]
 [0.2        0.15772662]
 [0.3        0.75379746]
 [0.4        0.86935584]
 [0.5        0.32743409]
 [0.6        0.75398911]
 [0.7        1.26665279]
 [0.8        1.24326808]
 [0.9        1.27187404]
 [1.         1.72227413]
 [1.1        1.95483723]
 [1.14141667 0.94632212]]",0,0.147
8773808799,f,21,english,5,3,english,2024-01-25 10:31:19.575190,False,1,112,sounds\french\audio/french_988.wav,"[[  0.         -77.06578257]
 [  0.1        -67.09994089]
 [  0.2         10.23356221]
 [  0.3        -29.54836215]
 [  0.4        -85.43077929]
 [  0.5        -43.35374971]
 [  0.6         45.41702585]
 [  0.7        -83.76864658]
 [  0.8         22.30391665]
 [  0.9         78.78007779]
 [  1.          -1.97565414]
 [  1.1        -21.98614024]
 [  1.14141667  90.34733905]]","[[0.         0.33849132]
 [0.1        1.48998326]
 [0.2        1.02808848]
 [0.3        0.10044397]
 [0.4        0.09858869]
 [0.5        0.51129588]
 [0.6        1.6443375 ]
 [0.7        1.46500021]
 [0.8        0.54120209]
 [0.9        0.72550363]
 [1.         0.57251884]
 [1.1        0.6350511 ]
 [1.14141667 1.60707404]]",1,0.651
8773808799,f,21,english,5,3,english,2024-01-25 10:31:19.575190,False,1,113,sounds\french\audio/french_502.wav,"[[  0.         -11.4543729 ]
 [  0.1        -12.17896381]
 [  0.2        -48.87403032]
 [  0.3         -0.23226325]
 [  0.4         39.39265286]
 [  0.5         69.41626591]
 [  0.6        -11.96295955]
 [  0.7        -21.04513411]
 [  0.8         55.87157954]
 [  0.9         22.29735048]
 [  1.          92.74541313]
 [  1.1         59.88842098]
 [  1.14141667  69.69061872]]","[[0.         1.77169865]
 [0.1        0.29167806]
 [0.2        1.41232328]
 [0.3        0.78511054]
 [0.4        1.65701815]
 [0.5        1.20660202]
 [0.6        1.43326672]
 [0.7        1.53062685]
 [0.8        1.71764437]
 [0.9        1.18231357]
 [1.         1.70094513]
 [1.1        1.38297596]
 [1.14141667 0.39008766]]",0,1.296
8773808799,f,21,english,5,3,english,2024-01-25 10:31:19.575190,False,1,114,sounds\french\audio/french_489.wav,"[[  0.          84.44889922]
 [  0.1         76.96445942]
 [  0.2          8.54698853]
 [  0.3        -59.91285247]
 [  0.4         27.32007088]
 [  0.5          6.79605694]
 [  0.6        -17.55996402]
 [  0.7         82.31401574]
 [  0.8         84.94935876]
 [  0.9        -82.28492461]
 [  1.         -88.52112303]
 [  1.1         17.07609433]
 [  1.14141667 -30.14347884]]","[[0.         0.4324461 ]
 [0.1        0.85727213]
 [0.2        0.54736057]
 [0.3        0.94180877]
 [0.4        1.44274385]
 [0.5        0.58088487]
 [0.6        1.38647936]
 [0.7        1.65271142]
 [0.8        1.895289  ]
 [0.9        1.38057617]
 [1.         0.26964653]
 [1.1        0.78257825]
 [1.14141667 1.39946556]]",1,0.525
8773808799,f,21,english,5,3,english,2024-01-25 10:31:19.575190,False,1,115,sounds\french\audio/french_22.wav,"[[  0.          57.57437329]
 [  0.1         91.90169455]
 [  0.2        -54.72406642]
 [  0.3        -58.21202921]
 [  0.4        -16.12745405]
 [  0.5        -77.79996065]
 [  0.6        -90.51311513]
 [  0.7          1.00723392]
 [  0.8        -64.74173294]
 [  0.9         46.18077407]
 [  1.         -18.86967466]
 [  1.1        -35.65415422]
 [  1.14141667   4.83646108]]","[[0.         1.75197151]
 [0.1        0.33106486]
 [0.2        0.60913572]
 [0.3        1.92337105]
 [0.4        0.5656997 ]
 [0.5        1.48592388]
 [0.6        0.37318603]
 [0.7        0.81705885]
 [0.8        1.04732029]
 [0.9        0.12002022]
 [1.         1.32860669]
 [1.1        1.41358368]
 [1.14141667 0.43476345]]",1,1.089
8773808799,f,21,english,5,3,english,2024-01-25 10:31:19.575190,False,1,116,sounds\french\audio/french_324.wav,"[[  0.          29.48435579]
 [  0.1        -12.86077023]
 [  0.2         46.37578497]
 [  0.3        -59.94288497]
 [  0.4        -53.99559511]
 [  0.5         45.88563697]
 [  0.6        -44.14854504]
 [  0.7        -61.31230077]
 [  0.8         44.45043245]
 [  0.9         -5.57853866]
 [  1.          59.99037779]
 [  1.1        -49.32219251]
 [  1.14141667  81.26576792]]","[[0.         0.24977075]
 [0.1        0.60660691]
 [0.2        0.99456154]
 [0.3        0.72384829]
 [0.4        1.72248011]
 [0.5        1.3825471 ]
 [0.6        1.83694132]
 [0.7        1.25302686]
 [0.8        0.61220659]
 [0.9        1.12870649]
 [1.         1.29442933]
 [1.1        1.14424628]
 [1.14141667 1.85932034]]",0,0.274
8773808799,f,21,english,5,3,english,2024-01-25 10:31:19.575190,False,1,117,sounds\french\audio/french_798.wav,"[[  0.          23.18820736]
 [  0.1         -2.07958128]
 [  0.2        -48.02591884]
 [  0.3         38.59927327]
 [  0.4        -86.07746365]
 [  0.5        -70.90704765]
 [  0.6          9.89404779]
 [  0.7         -7.32021634]
 [  0.8        -83.58554005]
 [  0.9         47.48195997]
 [  1.         -68.72637468]
 [  1.1        -14.54172487]
 [  1.14141667  -5.31366148]]","[[0.         0.75158349]
 [0.1        0.71454604]
 [0.2        1.54456255]
 [0.3        1.20944344]
 [0.4        0.78904319]
 [0.5        0.83495851]
 [0.6        1.17214468]
 [0.7        0.33508719]
 [0.8        1.87108409]
 [0.9        0.79690586]
 [1.         0.98942151]
 [1.1        1.50469392]
 [1.14141667 0.42081668]]",1,0.927
8773808799,f,21,english,5,3,english,2024-01-25 10:31:19.575190,False,1,118,sounds\french\audio/french_948.wav,"[[  0.          10.43178466]
 [  0.1        -75.57732343]
 [  0.2        -79.9984004 ]
 [  0.3        -23.89370941]
 [  0.4        -24.91740709]
 [  0.5         28.23809714]
 [  0.6        -15.61716278]
 [  0.7        -62.40350541]
 [  0.8        -39.77903393]
 [  0.9          1.04100207]
 [  1.         -20.98701574]
 [  1.1         32.97936055]
 [  1.14141667  97.71142149]]","[[0.         1.89098856]
 [0.1        0.88225364]
 [0.2        1.40828341]
 [0.3        0.63630366]
 [0.4        0.31117059]
 [0.5        1.08327735]
 [0.6        1.27092868]
 [0.7        0.70647763]
 [0.8        1.45549655]
 [0.9        1.46115448]
 [1.         0.36927117]
 [1.1        0.81149362]
 [1.14141667 1.6764649 ]]",1,0.374
8773808799,f,21,english,5,3,english,2024-01-25 10:31:19.575190,False,1,119,sounds\french\audio/french_286.wav,"[[  0.         -91.05268085]
 [  0.1        -23.35186071]
 [  0.2         77.20107387]
 [  0.3        -92.81003859]
 [  0.4        -53.33460968]
 [  0.5         62.91812057]
 [  0.6         16.16077368]
 [  0.7         69.38476605]
 [  0.8        -57.13655676]
 [  0.9        -15.81173514]
 [  1.          -9.63797078]
 [  1.1        -63.31208094]
 [  1.14141667 -26.04631218]]","[[0.         1.46856287]
 [0.1        1.00691584]
 [0.2        0.46780603]
 [0.3        1.70781954]
 [0.4        0.99550458]
 [0.5        0.7172163 ]
 [0.6        1.39130844]
 [0.7        0.60440693]
 [0.8        1.66516304]
 [0.9        1.68938028]
 [1.         1.74581604]
 [1.1        1.61756959]
 [1.14141667 1.66119384]]",0,0.229
8773808799,f,21,english,5,3,english,2024-01-25 10:31:19.575190,False,1,120,sounds\french\audio/french_187.wav,"[[  0.          10.28681087]
 [  0.1        -43.75211752]
 [  0.2         93.36546932]
 [  0.3          2.3887431 ]
 [  0.4        -88.10950584]
 [  0.5          1.03076455]
 [  0.6         91.70644974]
 [  0.7         47.13601313]
 [  0.8        -63.76738084]
 [  0.9        -32.68857969]
 [  1.         -14.27222191]
 [  1.1        -46.17286194]
 [  1.14141667 -70.61213148]]","[[0.         1.60740148]
 [0.1        0.72460884]
 [0.2        1.32214639]
