subj,sex,age,language,english,french,native_lang,date,practice,block,trial,stim,pitch,stretch,response,rt
8730571689,f,19,english,5,3,english,2024-01-25 10:40:25.221683,True,0,0,sounds\french\audio/french_153.wav,"[[  0.         -42.01574029]
 [  0.1        -90.00143585]
 [  0.2        -43.7259183 ]
 [  0.3         11.44022212]
 [  0.4         88.748088  ]
 [  0.5        -52.31400469]
 [  0.6         87.18732736]
 [  0.7        -86.03959727]
 [  0.8          8.69100054]
 [  0.9         62.86212057]
 [  1.          27.92700795]
 [  1.1         39.59984074]
 [  1.14141667 -14.92872681]]","[[0.         0.84439614]
 [0.1        0.44297776]
 [0.2        0.69214518]
 [0.3        1.09273238]
 [0.4        0.54928819]
 [0.5        0.96507272]
 [0.6        1.56155988]
 [0.7        1.86632658]
 [0.8        0.92278907]
 [0.9        0.59982574]
 [1.         0.05271929]
 [1.1        0.68548108]
 [1.14141667 1.34366794]]",1,8.651
8730571689,f,19,english,5,3,english,2024-01-25 10:40:25.221683,True,0,1,sounds\french\audio/french_980.wav,"[[  0.          12.49965345]
 [  0.1         -0.57398704]
 [  0.2          6.98435062]
 [  0.3        -14.93038142]
 [  0.4         60.9840723 ]
 [  0.5        -48.71308389]
 [  0.6        -79.65834227]
 [  0.7        -50.51010342]
 [  0.8        -24.81961521]
 [  0.9         21.2332399 ]
 [  1.         -51.63356186]
 [  1.1         17.6267543 ]
 [  1.14141667  76.33872594]]","[[0.         1.38379379]
 [0.1        1.12760639]
 [0.2        0.66811796]
 [0.3        1.18773856]
 [0.4        0.66284488]
 [0.5        1.65362832]
 [0.6        0.49264933]
 [0.7        0.79275088]
 [0.8        1.04690997]
 [0.9        0.9289726 ]
 [1.         0.8759544 ]
 [1.1        0.51696217]
 [1.14141667 0.29433098]]",0,1.409
8730571689,f,19,english,5,3,english,2024-01-25 10:40:25.221683,True,0,2,sounds\french\audio/french_665.wav,"[[  0.          40.10949249]
 [  0.1        -62.11772623]
 [  0.2         10.37983959]
 [  0.3        -90.96267468]
 [  0.4        -82.59415996]
 [  0.5         72.10201259]
 [  0.6          7.07517584]
 [  0.7         17.81948605]
 [  0.8        -75.16725794]
 [  0.9         86.62263138]
 [  1.         -39.56803586]
 [  1.1        -92.62860056]
 [  1.14141667  37.86117833]]","[[0.         1.54602454]
 [0.1        0.85820789]
 [0.2        1.54593526]
 [0.3        1.66779558]
 [0.4        1.76178738]
 [0.5        0.44098313]
 [0.6        1.49710418]
 [0.7        1.04266642]
 [0.8        1.09545449]
 [0.9        0.00262512]
 [1.         1.93103182]
 [1.1        1.53232008]
 [1.14141667 1.33107791]]",1,1.439
8730571689,f,19,english,5,3,english,2024-01-25 10:40:25.221683,False,1,3,sounds\french\audio/french_526.wav,"[[  0.          -3.34213948]
 [  0.1        -38.63024981]
 [  0.2         93.21737658]
 [  0.3        -71.56714532]
 [  0.4         55.55298997]
 [  0.5        -90.65516394]
 [  0.6         67.30065147]
 [  0.7        -92.19460914]
 [  0.8        -61.42846186]
 [  0.9        -71.57092401]
 [  1.          -1.13377121]
 [  1.1         79.13585044]
 [  1.14141667 -60.54584427]]","[[0.         0.40974575]
 [0.1        0.80270001]
 [0.2        0.74121325]
 [0.3        1.50939527]
 [0.4        0.92463097]
 [0.5        1.64741989]
 [0.6        0.25308429]
 [0.7        0.31675775]
 [0.8        1.60624507]
 [0.9        1.37847828]
 [1.         1.26755978]
 [1.1        1.65811532]
 [1.14141667 1.5361609 ]]",0,5.552
8730571689,f,19,english,5,3,english,2024-01-25 10:40:25.221683,False,1,4,sounds\french\audio/french_269.wav,"[[  0.         -54.46681575]
 [  0.1         40.48652867]
 [  0.2         23.52786486]
 [  0.3         -2.9574454 ]
 [  0.4        -10.10362515]
 [  0.5        -29.51615189]
 [  0.6         -9.00744172]
 [  0.7         20.65779738]
 [  0.8         -2.21401948]
 [  0.9        -19.8598657 ]
 [  1.         -89.62311782]
 [  1.1         -1.41224571]
 [  1.14141667  75.71209492]]","[[0.         0.14617917]
 [0.1        1.23122751]
 [0.2        1.6621536 ]
 [0.3        1.2319681 ]
 [0.4        0.6831451 ]
 [0.5        0.23334627]
 [0.6        0.55635706]
 [0.7        0.94920478]
 [0.8        0.83951845]
 [0.9        0.61186305]
 [1.         0.18517136]
 [1.1        1.59243868]
 [1.14141667 0.66484659]]",1,1.859
8730571689,f,19,english,5,3,english,2024-01-25 10:40:25.221683,False,1,5,sounds\french\audio/french_183.wav,"[[  0.          26.98397873]
 [  0.1        -55.24874641]
 [  0.2         18.20332103]
 [  0.3         67.42590675]
 [  0.4        -24.39664935]
 [  0.5         -9.29989097]
 [  0.6        -39.43705055]
 [  0.7         48.44121723]
 [  0.8         50.00257742]
 [  0.9        -30.20627693]
 [  1.           7.87797216]
 [  1.1        -90.64433498]
 [  1.14141667 -74.1714296 ]]","[[0.         1.58263986]
 [0.1        0.74614587]
 [0.2        0.26654037]
 [0.3        1.09442227]
 [0.4        0.715011  ]
 [0.5        1.90230489]
 [0.6        0.70435555]
 [0.7        1.50464071]
 [0.8        0.45887465]
 [0.9        0.97480257]
 [1.         0.50545389]
 [1.1        1.04759182]
 [1.14141667 0.84145253]]",0,8.485
8730571689,f,19,english,5,3,english,2024-01-25 10:40:25.221683,False,1,6,sounds\french\audio/french_395.wav,"[[  0.          45.0752434 ]
 [  0.1        -93.76597298]
 [  0.2         46.57087832]
 [  0.3         59.364027  ]
 [  0.4         25.27671277]
 [  0.5         18.6240562 ]
 [  0.6        -12.8872696 ]
 [  0.7        -38.76560327]
 [  0.8        -43.15551235]
 [  0.9        -99.26206563]
 [  1.          -7.96649049]
 [  1.1         38.87039961]
 [  1.14141667  73.11872685]]","[[0.         1.18925621]
 [0.1        0.52454802]
 [0.2        1.50660579]
 [0.3        0.93298366]
 [0.4        0.50677812]
 [0.5        0.56379423]
 [0.6        1.362377  ]
 [0.7        1.10820927]
 [0.8        0.83193558]
 [0.9        1.55187087]
 [1.         1.27801505]
 [1.1        1.56525151]
 [1.14141667 1.97246425]]",0,5.893
8730571689,f,19,english,5,3,english,2024-01-25 10:40:25.221683,False,1,7,sounds\french\audio/french_841.wav,"[[  0.          24.99093095]
 [  0.1         19.20045888]
 [  0.2        -88.34968649]
 [  0.3         95.66802837]
 [  0.4          0.50486689]
 [  0.5        -15.49480604]
 [  0.6         -6.74027916]
 [  0.7        -26.50511795]
 [  0.8        -55.94751294]
 [  0.9         56.14082099]
 [  1.          32.57761441]
 [  1.1         11.18785831]
 [  1.14141667  20.73461672]]","[[0.         0.83229965]
 [0.1        0.93912689]
 [0.2        0.70963574]
 [0.3        1.76222683]
 [0.4        1.37113042]
 [0.5        0.74699954]
 [0.6        1.70894308]
 [0.7        1.40997401]
 [0.8        0.13803427]
 [0.9        0.58598043]
 [1.         0.41847332]
 [1.1        0.36003965]
 [1.14141667 1.14123964]]",1,1.249
8730571689,f,19,english,5,3,english,2024-01-25 10:40:25.221683,False,1,8,sounds\french\audio/french_600.wav,"[[  0.          52.68900208]
 [  0.1         -6.73067052]
 [  0.2         96.57898689]
 [  0.3         88.93281909]
 [  0.4         75.90530311]
 [  0.5         83.32696458]
 [  0.6        -66.79703103]
 [  0.7         63.7950694 ]
 [  0.8        -58.76780301]
 [  0.9         44.34251674]
 [  1.          40.69658778]
 [  1.1        -28.98281282]
 [  1.14141667  43.07407366]]","[[0.         1.20996587]
 [0.1        0.65229061]
 [0.2        1.53870963]
 [0.3        0.24911415]
 [0.4        0.83209065]
 [0.5        1.35695142]
 [0.6        1.60598618]
 [0.7        1.81288548]
 [0.8        0.6555076 ]
 [0.9        1.0412619 ]
 [1.         1.14001909]
 [1.1        0.56625227]
 [1.14141667 0.71314078]]",0,2.653
8730571689,f,19,english,5,3,english,2024-01-25 10:40:25.221683,False,1,9,sounds\french\audio/french_702.wav,"[[  0.          26.32047113]
 [  0.1         33.56503539]
 [  0.2        -13.32899181]
 [  0.3        -92.77430448]
 [  0.4         55.50813545]
 [  0.5        -64.42128049]
 [  0.6        -93.19419433]
 [  0.7         47.86603083]
 [  0.8          2.57404089]
 [  0.9          8.38316132]
 [  1.          27.09531385]
 [  1.1         53.99806352]
 [  1.14141667  -2.40011534]]","[[0.         0.49645865]
 [0.1        1.57950196]
 [0.2        1.71930356]
 [0.3        0.44513477]
 [0.4        0.90179218]
 [0.5        1.66921342]
 [0.6        0.28360175]
 [0.7        1.17825667]
 [0.8        1.90745253]
 [0.9        1.47535418]
 [1.         1.20087323]
 [1.1        1.42749806]
 [1.14141667 0.48284837]]",0,5.053
8730571689,f,19,english,5,3,english,2024-01-25 10:40:25.221683,False,1,10,sounds\french\audio/french_410.wav,"[[  0.         -13.61010892]
 [  0.1         77.81547095]
 [  0.2         82.13695373]
 [  0.3        -16.93458416]
 [  0.4         -8.61826003]
 [  0.5        -33.26612631]
 [  0.6         40.79154832]
 [  0.7         66.55884445]
 [  0.8         86.34165637]
 [  0.9         91.11355202]
 [  1.         -30.27955269]
 [  1.1         52.51274623]
 [  1.14141667  95.54585368]]","[[0.         0.12499196]
 [0.1        1.21899276]
 [0.2        1.54170327]
 [0.3        0.12135823]
 [0.4        0.17314322]
 [0.5        0.58788453]
 [0.6        1.09892225]
 [0.7        0.15132796]
 [0.8        0.64125421]
 [0.9        0.30485539]
 [1.         0.74953125]
 [1.1        1.17085768]
 [1.14141667 1.8491146 ]]",1,2.769
8730571689,f,19,english,5,3,english,2024-01-25 10:40:25.221683,False,1,11,sounds\french\audio/french_752.wav,"[[  0.          34.41371414]
 [  0.1         14.80466577]
 [  0.2         74.3043598 ]
 [  0.3        -77.13621083]
 [  0.4         70.32500444]
 [  0.5         34.75569951]
 [  0.6         80.57354741]
 [  0.7         15.56334688]
 [  0.8         85.58814621]
 [  0.9         38.60264584]
 [  1.          -2.86267761]
 [  1.1         79.56587881]
 [  1.14141667 -84.62804294]]","[[0.         1.9791919 ]
 [0.1        1.83037093]
 [0.2        0.40593576]
 [0.3        1.74575453]
 [0.4        0.26577505]
 [0.5        0.70202735]
 [0.6        0.39412162]
 [0.7        0.9711471 ]
 [0.8        1.79720256]
 [0.9        1.09938166]
 [1.         0.83455272]
 [1.1        0.64213106]
 [1.14141667 1.19502277]]",0,0.625
8730571689,f,19,english,5,3,english,2024-01-25 10:40:25.221683,False,1,12,sounds\french\audio/french_781.wav,"[[  0.          84.62046586]
 [  0.1          0.55273741]
 [  0.2         -1.05016656]
 [  0.3         41.05059325]
 [  0.4        -23.88970434]
 [  0.5         18.20030305]
 [  0.6        -34.06427069]
 [  0.7         84.18138225]
 [  0.8        -97.87646304]
 [  0.9        -21.72004178]
 [  1.         -28.69608989]
 [  1.1         15.6289629 ]
 [  1.14141667 -63.05770327]]","[[0.         1.11387354]
 [0.1        0.65813446]
 [0.2        0.73416939]
 [0.3        1.64191047]
 [0.4        1.21743715]
 [0.5        1.19011626]
 [0.6        0.19715844]
 [0.7        0.47727482]
 [0.8        0.30669802]
 [0.9        0.85053209]
 [1.         1.49973626]
 [1.1        1.59744838]
 [1.14141667 1.01279781]]",0,2.32
8730571689,f,19,english,5,3,english,2024-01-25 10:40:25.221683,False,1,13,sounds\french\audio/french_96.wav,"[[  0.          53.78639377]
 [  0.1         31.41586523]
 [  0.2         98.80733332]
 [  0.3         53.44519875]
 [  0.4         95.61439284]
 [  0.5         77.20225202]
 [  0.6         52.03252285]
 [  0.7         81.26088067]
 [  0.8         61.75854177]
 [  0.9        -97.80195669]
 [  1.         -30.26366105]
 [  1.1         17.72455957]
 [  1.14141667  64.44839673]]","[[0.         1.90346106]
 [0.1        0.15220772]
 [0.2        0.53950268]
 [0.3        0.63349693]
 [0.4        0.57290588]
 [0.5        0.42649721]
 [0.6        1.12105265]
 [0.7        0.61167248]
 [0.8        1.55092745]
 [0.9        1.53777106]
 [1.         1.41658213]
 [1.1        0.75969362]
 [1.14141667 0.51672597]]",0,1.295
8730571689,f,19,english,5,3,english,2024-01-25 10:40:25.221683,False,1,14,sounds\french\audio/french_800.wav,"[[  0.          -4.25631197]
 [  0.1         22.66632576]
 [  0.2         10.28900554]
 [  0.3         38.91231447]
 [  0.4        -12.27796799]
 [  0.5        -44.30581187]
 [  0.6        -22.88012932]
 [  0.7        -52.86195267]
 [  0.8         54.71772215]
 [  0.9        -51.65672109]
 [  1.         -51.77252424]
 [  1.1          7.38633242]
 [  1.14141667  17.65920114]]","[[0.         0.80468249]
 [0.1        1.14959191]
 [0.2        1.74323515]
 [0.3        0.77183711]
 [0.4        1.35051127]
 [0.5        1.94130964]
 [0.6        1.17392808]
 [0.7        1.52994111]
 [0.8        1.58058267]
 [0.9        1.58832666]
 [1.         1.09850348]
 [1.1        0.30985734]
 [1.14141667 1.66023428]]",0,1.435
8730571689,f,19,english,5,3,english,2024-01-25 10:40:25.221683,False,1,15,sounds\french\audio/french_305.wav,"[[  0.         -77.20906853]
 [  0.1         64.89199308]
 [  0.2          7.69054885]
 [  0.3        -47.6141874 ]
 [  0.4         24.82339494]
 [  0.5         20.18926417]
 [  0.6        -54.4743451 ]
 [  0.7         41.07397409]
 [  0.8        -19.05084731]
 [  0.9        -20.13915126]
 [  1.          -3.97340908]
 [  1.1         88.43102232]
 [  1.14141667   5.13824531]]","[[0.         1.73587013]
 [0.1        0.77294131]
 [0.2        0.32837419]
 [0.3        1.19216591]
 [0.4        0.80149681]
 [0.5        0.39729394]
 [0.6        0.54085328]
 [0.7        0.8068405 ]
 [0.8        1.23639766]
 [0.9        0.28852647]
 [1.         1.66872212]
 [1.1        1.65649633]
 [1.14141667 1.61177863]]",1,1.917
8730571689,f,19,english,5,3,english,2024-01-25 10:40:25.221683,False,1,16,sounds\french\audio/french_923.wav,"[[  0.          -7.04216505]
 [  0.1        -11.87234916]
 [  0.2        -44.2803311 ]
 [  0.3        -33.48539095]
 [  0.4        -30.66632825]
 [  0.5          5.12098552]
 [  0.6         76.31297074]
 [  0.7        -95.75714611]
 [  0.8        -15.0883645 ]
 [  0.9        -66.51821809]
 [  1.          24.92927073]
 [  1.1         28.15773493]
 [  1.14141667 -73.78496191]]","[[0.         1.22183085]
 [0.1        1.49208882]
 [0.2        1.66594676]
 [0.3        1.20857206]
 [0.4        1.55100571]
 [0.5        1.20066823]
 [0.6        0.51155743]
 [0.7        1.22623112]
 [0.8        1.3067619 ]
 [0.9        0.27321929]
 [1.         1.50495187]
 [1.1        0.60510891]
 [1.14141667 0.95799251]]",1,3.451
8730571689,f,19,english,5,3,english,2024-01-25 10:40:25.221683,False,1,17,sounds\french\audio/french_233.wav,"[[  0.         -80.8753154 ]
 [  0.1         42.39128957]
 [  0.2         36.07188389]
 [  0.3         50.61380491]
 [  0.4         77.53573111]
 [  0.5         37.16272325]
 [  0.6        -87.06926926]
 [  0.7         10.98767449]
 [  0.8         68.13368356]
 [  0.9         19.59187928]
 [  1.          35.33717777]
 [  1.1        -57.71918366]
 [  1.14141667 -17.91280559]]","[[0.         1.54494018]
 [0.1        0.25453535]
 [0.2        1.05123556]
 [0.3        0.33961228]
 [0.4        1.70138916]
 [0.5        0.94068903]
 [0.6        1.40166291]
 [0.7        0.1496064 ]
 [0.8        0.52136921]
 [0.9        0.72886143]
 [1.         1.70329451]
 [1.1        0.15873144]
 [1.14141667 0.70900055]]",0,0.694
8730571689,f,19,english,5,3,english,2024-01-25 10:40:25.221683,False,1,18,sounds\french\audio/french_798.wav,"[[  0.          23.18820736]
 [  0.1         -2.07958128]
 [  0.2        -48.02591884]
 [  0.3         38.59927327]
 [  0.4        -86.07746365]
 [  0.5        -70.90704765]
 [  0.6          9.89404779]
 [  0.7         -7.32021634]
 [  0.8        -83.58554005]
 [  0.9         47.48195997]
 [  1.         -68.72637468]
 [  1.1        -14.54172487]
 [  1.14141667  -5.31366148]]","[[0.         0.75158349]
 [0.1        0.71454604]
 [0.2        1.54456255]
 [0.3        1.20944344]
 [0.4        0.78904319]
 [0.5        0.83495851]
 [0.6        1.17214468]
 [0.7        0.33508719]
 [0.8        1.87108409]
 [0.9        0.79690586]
 [1.         0.98942151]
 [1.1        1.50469392]
 [1.14141667 0.42081668]]",0,0.736
8730571689,f,19,english,5,3,english,2024-01-25 10:40:25.221683,False,1,19,sounds\french\audio/french_779.wav,"[[  0.         -38.28425878]
 [  0.1        -19.73299362]
 [  0.2         -1.63971334]
 [  0.3        -13.00341001]
 [  0.4        -18.58635516]
 [  0.5        -89.98694193]
 [  0.6         92.32758461]
 [  0.7        -57.54469246]
 [  0.8        -77.17429957]
 [  0.9         -5.46434537]
 [  1.         -18.50514079]
 [  1.1         -7.2649165 ]
 [  1.14141667  -3.97761041]]","[[0.         1.14466513]
 [0.1        1.60046318]
 [0.2        0.66760831]
 [0.3        1.70247529]
 [0.4        0.17241517]
 [0.5        1.76793656]
 [0.6        1.36679993]
 [0.7        0.7012445 ]
 [0.8        1.36817327]
 [0.9        0.41680341]
 [1.         0.28529805]
 [1.1        1.0076311 ]
 [1.14141667 1.26738641]]",1,1.106
8730571689,f,19,english,5,3,english,2024-01-25 10:40:25.221683,False,1,20,sounds\french\audio/french_14.wav,"[[  0.          47.89955795]
 [  0.1         61.35134247]
 [  0.2         25.97351418]
 [  0.3         96.79201142]
 [  0.4         -2.49416278]
 [  0.5        -48.27662198]
 [  0.6         40.76261572]
 [  0.7        -77.78715279]
 [  0.8          1.01884087]
 [  0.9        -46.10217397]
 [  1.          68.50309763]
 [  1.1         54.05400046]
 [  1.14141667  12.0764648 ]]","[[0.         0.26613935]
 [0.1        1.19318983]
 [0.2        1.52071117]
 [0.3        1.8410781 ]
 [0.4        0.83400601]
 [0.5        0.10945672]
 [0.6        0.75420347]
 [0.7        0.00356081]
 [0.8        0.62198197]
 [0.9        0.23306124]
 [1.         1.67852962]
 [1.1        1.90740001]
 [1.14141667 0.55424844]]",1,7.278
8730571689,f,19,english,5,3,english,2024-01-25 10:40:25.221683,False,1,21,sounds\french\audio/french_463.wav,"[[  0.         -28.25289602]
 [  0.1        -29.96157941]
 [  0.2        -35.61602773]
 [  0.3         64.20990909]
 [  0.4        -63.83515399]
 [  0.5         71.59997763]
 [  0.6         89.31755347]
 [  0.7        -98.14659704]
 [  0.8         33.66167072]
 [  0.9         67.16249153]
 [  1.         -48.02468866]
 [  1.1          0.355648  ]
 [  1.14141667 -15.74672825]]","[[0.         0.03820079]
 [0.1        1.06701123]
 [0.2        1.17367249]
 [0.3        0.16492654]
 [0.4        0.16398837]
 [0.5        1.39593521]
 [0.6        1.25797632]
 [0.7        0.35849906]
 [0.8        0.72596435]
 [0.9        1.46059629]
 [1.         0.19516894]
 [1.1        1.55106472]
 [1.14141667 1.61627541]]",0,3.252
8730571689,f,19,english,5,3,english,2024-01-25 10:40:25.221683,False,1,22,sounds\french\audio/french_67.wav,"[[  0.          -8.80419895]
 [  0.1        -89.09971713]
 [  0.2         52.16664129]
 [  0.3         75.50765895]
 [  0.4        -50.4048012 ]
 [  0.5          2.92186318]
 [  0.6         -2.99274005]
 [  0.7        -60.68394197]
 [  0.8         84.35232492]
 [  0.9        -25.72248864]
 [  1.          11.86313501]
 [  1.1         19.03354401]
 [  1.14141667  81.65120736]]","[[0.         1.71520909]
 [0.1        1.65194622]
 [0.2        1.05692719]
 [0.3        0.39640522]
 [0.4        1.79941734]
 [0.5        1.20893726]
 [0.6        1.83305713]
 [0.7        0.33461142]
 [0.8        0.31328661]
 [0.9        0.81923703]
 [1.         0.47881167]
 [1.1        1.95724467]
 [1.14141667 0.25508289]]",0,1.259
8730571689,f,19,english,5,3,english,2024-01-25 10:40:25.221683,False,1,23,sounds\french\audio/french_931.wav,"[[  0.         -69.01025024]
 [  0.1         55.0215027 ]
 [  0.2        -87.91788028]
 [  0.3        -33.0393784 ]
 [  0.4        -72.68752112]
 [  0.5        -31.87844098]
 [  0.6        -82.83878474]
 [  0.7         33.5640508 ]
 [  0.8        -20.37118135]
 [  0.9         28.67350866]
 [  1.         -45.8203528 ]
 [  1.1          1.98964677]
 [  1.14141667  44.24014335]]","[[0.         1.27357492]
 [0.1        1.07794659]
 [0.2        0.81824311]
 [0.3        1.31896505]
 [0.4        0.67025176]
 [0.5        1.54286398]
 [0.6        0.23472784]
 [0.7        1.16459242]
 [0.8        0.71129123]
 [0.9        0.02939642]
 [1.         0.30340473]
 [1.1        1.35857862]
 [1.14141667 1.98946576]]",0,5.653
8730571689,f,19,english,5,3,english,2024-01-25 10:40:25.221683,False,1,24,sounds\french\audio/french_757.wav,"[[  0.           6.48639762]
 [  0.1        -51.86545104]
 [  0.2         13.60583501]
 [  0.3         42.98326891]
 [  0.4         80.68221451]
 [  0.5         60.20667087]
 [  0.6        -66.39272407]
 [  0.7        -56.86759688]
 [  0.8         31.92005434]
 [  0.9        -15.9358313 ]
 [  1.         -11.85374841]
 [  1.1        -30.88500349]
 [  1.14141667  54.27189093]]","[[0.         0.21123235]
 [0.1        0.07273278]
 [0.2        1.91645599]
 [0.3        0.23026147]
 [0.4        0.90860197]
 [0.5        1.24090146]
 [0.6        1.63751086]
 [0.7        1.4449834 ]
 [0.8        0.31701973]
 [0.9        0.97326814]
 [1.         0.32789054]
 [1.1        0.1026242 ]
 [1.14141667 1.17122037]]",1,0.656
8730571689,f,19,english,5,3,english,2024-01-25 10:40:25.221683,False,1,25,sounds\french\audio/french_409.wav,"[[  0.         -30.21694153]
 [  0.1         59.15557732]
 [  0.2        -36.71476699]
 [  0.3        -11.27109722]
 [  0.4         94.57337138]
 [  0.5        -42.2573853 ]
 [  0.6        -98.73956602]
 [  0.7        -10.01342548]
 [  0.8         82.67745242]
 [  0.9         41.23544477]
 [  1.          34.12857291]
 [  1.1        -39.9359561 ]
 [  1.14141667 -66.44243676]]","[[0.         0.38215997]
 [0.1        1.51676609]
 [0.2        1.63075326]
 [0.3        0.56043983]
 [0.4        1.04931912]
 [0.5        0.29982519]
 [0.6        0.90608558]
 [0.7        0.27240851]
 [0.8        0.07095198]
 [0.9        1.17559968]
 [1.         0.36646836]
 [1.1        0.62478862]
 [1.14141667 0.20356558]]",1,0.881
8730571689,f,19,english,5,3,english,2024-01-25 10:40:25.221683,False,1,26,sounds\french\audio/french_546.wav,"[[  0.         -13.20812947]
 [  0.1         -8.37020236]
 [  0.2         57.48789341]
 [  0.3        -11.78127808]
 [  0.4        -26.00594078]
 [  0.5         -3.33648258]
 [  0.6         -1.73835095]
 [  0.7         17.1570367 ]
 [  0.8         37.36365726]
 [  0.9          8.15656678]
 [  1.          -8.08158861]
 [  1.1          5.60886703]
 [  1.14141667 -59.33959304]]","[[0.         0.61614772]
 [0.1        1.06411131]
 [0.2        1.60441563]
 [0.3        0.66409069]
 [0.4        1.03544668]
 [0.5        0.99289071]
 [0.6        0.28199712]
 [0.7        0.98444234]
 [0.8        0.65105351]
 [0.9        1.40961932]
 [1.         1.13622797]
 [1.1        0.04199534]
 [1.14141667 1.17471858]]",0,0.319
8730571689,f,19,english,5,3,english,2024-01-25 10:40:25.221683,False,1,27,sounds\french\audio/french_827.wav,"[[  0.          47.61901084]
 [  0.1        -12.46162853]
 [  0.2         80.2031215 ]
 [  0.3        -17.58711111]
 [  0.4        -42.97148834]
 [  0.5         91.5700687 ]
 [  0.6         73.27406728]
 [  0.7        -33.8931301 ]
 [  0.8        -11.46118568]
 [  0.9         24.73344969]
 [  1.          15.31350424]
 [  1.1        -53.93717893]
 [  1.14141667   7.58981219]]","[[0.         0.78776038]
 [0.1        1.19255922]
 [0.2        0.63498127]
 [0.3        0.79514732]
 [0.4        0.7219145 ]
 [0.5        0.23829121]
 [0.6        0.56077431]
 [0.7        1.6060627 ]
 [0.8        0.93017276]
 [0.9        1.70918062]
 [1.         0.85960328]
 [1.1        0.88873758]
 [1.14141667 0.97933267]]",0,0.638
8730571689,f,19,english,5,3,english,2024-01-25 10:40:25.221683,False,1,28,sounds\french\audio/french_840.wav,"[[  0.          16.01173906]
 [  0.1         -0.93929327]
 [  0.2        -17.23060198]
 [  0.3        -14.35474517]
 [  0.4         57.82738935]
 [  0.5        -19.07366737]
 [  0.6         99.92629403]
 [  0.7        -31.41992182]
 [  0.8        -47.66956425]
 [  0.9        -72.50934827]
 [  1.          10.08035485]
 [  1.1        -71.14332415]
 [  1.14141667  55.3679429 ]]","[[0.         1.58376938]
 [0.1        0.92666525]
 [0.2        0.13449096]
 [0.3        0.89985283]
 [0.4        0.61856172]
 [0.5        0.65453346]
 [0.6        0.34357521]
 [0.7        0.36537082]
 [0.8        0.58377746]
 [0.9        0.43098569]
 [1.         1.92139008]
 [1.1        0.82769189]
 [1.14141667 1.76916827]]",1,0.842
8730571689,f,19,english,5,3,english,2024-01-25 10:40:25.221683,False,1,29,sounds\french\audio/french_303.wav,"[[  0.         -28.78931036]
 [  0.1         74.05829873]
 [  0.2         33.28430387]
 [  0.3         68.53072836]
 [  0.4        -63.38319091]
 [  0.5        -21.33135157]
 [  0.6        -24.45445524]
 [  0.7        -59.72790103]
 [  0.8         37.66757178]
 [  0.9        -52.84057361]
 [  1.          37.03164261]
 [  1.1         99.1130082 ]
 [  1.14141667 -38.68097477]]","[[0.         1.94473054]
 [0.1        0.33418404]
 [0.2        0.69798815]
 [0.3        0.93962857]
 [0.4        1.37838469]
 [0.5        0.29703539]
 [0.6        0.22022144]
 [0.7        0.94792167]
 [0.8        0.24739451]
 [0.9        1.66684976]
 [1.         1.99648268]
 [1.1        0.50055224]
 [1.14141667 0.96078189]]",0,0.405
8730571689,f,19,english,5,3,english,2024-01-25 10:40:25.221683,False,1,30,sounds\french\audio/french_72.wav,"[[  0.          28.80890163]
 [  0.1          1.83594253]
 [  0.2        -49.19445344]
 [  0.3        -70.77665619]
 [  0.4         -7.07365357]
 [  0.5         -3.71167603]
 [  0.6         -5.89788173]
 [  0.7         -8.85470239]
 [  0.8        -41.07718235]
 [  0.9         74.79866108]
 [  1.          67.9411898 ]
 [  1.1        -68.57372393]
 [  1.14141667   4.6478635 ]]","[[0.         0.00807448]
 [0.1        1.18328739]
 [0.2        0.21319227]
 [0.3        1.3297124 ]
 [0.4        0.54545246]
 [0.5        1.13976731]
 [0.6        1.92534018]
 [0.7        1.58910715]
 [0.8        0.82088611]
 [0.9        1.16352624]
 [1.         0.62223628]
 [1.1        1.92120245]
 [1.14141667 0.9834755 ]]",1,3.301
8730571689,f,19,english,5,3,english,2024-01-25 10:40:25.221683,False,1,31,sounds\french\audio/french_1000.wav,"[[  0.         -73.98132077]
 [  0.1        -83.83733432]
 [  0.2        -83.30675493]
 [  0.3        -49.21206924]
 [  0.4        -37.38094521]
 [  0.5        -61.96244664]
 [  0.6         40.57719873]
 [  0.7         45.24625978]
 [  0.8         29.16975885]
 [  0.9         53.55403055]
 [  1.          28.77440397]
 [  1.1         66.56850724]
 [  1.14141667  38.69421955]]","[[0.         1.64837678]
 [0.1        1.32001696]
 [0.2        0.03425321]
 [0.3        0.20047346]
 [0.4        0.89388677]
 [0.5        0.07979432]
 [0.6        0.5706929 ]
 [0.7        1.02426669]
 [0.8        0.29678573]
 [0.9        1.45432924]
 [1.         1.18477249]
 [1.1        1.17453204]
 [1.14141667 1.53712703]]",0,0.897
8730571689,f,19,english,5,3,english,2024-01-25 10:40:25.221683,False,1,32,sounds\french\audio/french_740.wav,"[[  0.         -23.8561275 ]
 [  0.1         12.41197017]
 [  0.2        -75.22373784]
 [  0.3         13.95432459]
 [  0.4         86.43925379]
 [  0.5        -59.06853257]
 [  0.6          8.7812543 ]
 [  0.7        -81.4658243 ]
 [  0.8        -37.53161999]
 [  0.9        -71.6710365 ]
 [  1.          31.54551497]
 [  1.1         73.9548309 ]
 [  1.14141667  48.2786376 ]]","[[0.         1.38106788]
 [0.1        0.96449807]
 [0.2        1.81317808]
 [0.3        0.48903687]
 [0.4        0.89209498]
 [0.5        0.79820054]
 [0.6        1.20695925]
 [0.7        0.55003693]
 [0.8        0.44955963]
 [0.9        1.78000651]
 [1.         1.38553911]
 [1.1        0.82064893]
 [1.14141667 1.09253076]]",1,5.015
8730571689,f,19,english,5,3,english,2024-01-25 10:40:25.221683,False,1,33,sounds\french\audio/french_2.wav,"[[  0.         -86.87483072]
 [  0.1         30.88471   ]
 [  0.2        -63.05424844]
 [  0.3         51.55101831]
 [  0.4        -97.82970137]
 [  0.5         51.42109266]
 [  0.6        -29.2060834 ]
 [  0.7         90.68379187]
 [  0.8        -68.59815448]
 [  0.9         51.41543925]
 [  1.         -33.48006024]
 [  1.1          2.14765409]
 [  1.14141667  40.23091812]]","[[0.         0.90329499]
 [0.1        1.75440235]
 [0.2        0.77448186]
 [0.3        0.99965543]
 [0.4        0.9023396 ]
 [0.5        1.28884098]
 [0.6        1.83503208]
 [0.7        0.07032507]
 [0.8        1.25711652]
 [0.9        1.0016667 ]
 [1.         0.4903742 ]
 [1.1        1.09021934]
 [1.14141667 0.46007065]]",0,0.86
8730571689,f,19,english,5,3,english,2024-01-25 10:40:25.221683,False,1,34,sounds\french\audio/french_343.wav,"[[  0.          55.30820306]
 [  0.1        -11.48156173]
 [  0.2        -61.33934281]
 [  0.3        -78.79796184]
 [  0.4         -3.55277636]
 [  0.5         40.8675343 ]
 [  0.6         88.78635161]
 [  0.7        -70.07472114]
 [  0.8        -79.01069817]
 [  0.9        -38.36075722]
 [  1.         -74.7385536 ]
 [  1.1         67.32009961]
 [  1.14141667  18.80940086]]","[[0.         1.58034267]
 [0.1        1.0596038 ]
 [0.2        1.28163155]
 [0.3        0.20032202]
 [0.4        1.05316587]
 [0.5        0.79348198]
 [0.6        0.11297715]
 [0.7        1.23835329]
 [0.8        1.37036254]
 [0.9        1.08523433]
 [1.         0.49176562]
 [1.1        1.89620137]
 [1.14141667 0.66544547]]",1,2.005
8730571689,f,19,english,5,3,english,2024-01-25 10:40:25.221683,False,1,35,sounds\french\audio/french_592.wav,"[[  0.          70.81103316]
 [  0.1        -26.4080383 ]
 [  0.2         -0.21646814]
 [  0.3          5.07209888]
 [  0.4          0.60727661]
 [  0.5         -4.25807997]
 [  0.6        -57.11909805]
 [  0.7        -40.92130442]
 [  0.8         57.21863493]
 [  0.9         70.04761432]
 [  1.         -50.9301359 ]
 [  1.1        -84.24132436]
 [  1.14141667 -46.29341041]]","[[0.         0.54665666]
 [0.1        0.88508354]
 [0.2        1.19588417]
 [0.3        0.17214274]
 [0.4        0.84375355]
 [0.5        1.80777341]
 [0.6        0.71388549]
 [0.7        1.31000832]
 [0.8        0.43276947]
 [0.9        1.73827866]
 [1.         0.70932726]
 [1.1        0.23430707]
 [1.14141667 1.11453021]]",0,0.391
8730571689,f,19,english,5,3,english,2024-01-25 10:40:25.221683,False,1,36,sounds\french\audio/french_369.wav,"[[  0.          69.75074481]
 [  0.1        -10.40899833]
 [  0.2         85.57878117]
 [  0.3         15.39701213]
 [  0.4         83.19518913]
 [  0.5         20.33595166]
 [  0.6         10.594299  ]
 [  0.7        -65.1676687 ]
 [  0.8         49.76363472]
 [  0.9        -78.66253889]
 [  1.           4.39215728]
 [  1.1        -85.73946609]
 [  1.14141667  53.02267255]]","[[0.         1.46736973]
 [0.1        0.13737814]
 [0.2        1.34631707]
 [0.3        0.46028441]
 [0.4        0.141543  ]
 [0.5        0.46259405]
 [0.6        0.96314063]
 [0.7        0.97877892]
 [0.8        1.10716642]
 [0.9        0.40650809]
 [1.         1.82064787]
 [1.1        1.61141022]
 [1.14141667 0.46038383]]",1,1.105
8730571689,f,19,english,5,3,english,2024-01-25 10:40:25.221683,False,1,37,sounds\french\audio/french_956.wav,"[[  0.         -99.35759674]
 [  0.1         17.74635761]
 [  0.2         45.19730301]
 [  0.3         32.76158542]
 [  0.4        -82.44124556]
 [  0.5        -42.32589362]
 [  0.6         47.35708325]
 [  0.7        -90.98325298]
 [  0.8        -35.51686902]
 [  0.9         60.74204696]
 [  1.         -46.10377132]
 [  1.1        -22.49053344]
 [  1.14141667  15.48787024]]","[[0.         0.54388648]
 [0.1        1.06124428]
 [0.2        1.13782447]
 [0.3        1.35322569]
 [0.4        1.86440682]
 [0.5        1.66841875]
 [0.6        1.44392405]
 [0.7        1.23654472]
 [0.8        0.08906861]
 [0.9        0.55811382]
 [1.         0.54181177]
 [1.1        0.7143235 ]
 [1.14141667 1.69639276]]",0,1.45
8730571689,f,19,english,5,3,english,2024-01-25 10:40:25.221683,False,1,38,sounds\french\audio/french_931.wav,"[[  0.         -69.01025024]
 [  0.1         55.0215027 ]
 [  0.2        -87.91788028]
 [  0.3        -33.0393784 ]
 [  0.4        -72.68752112]
 [  0.5        -31.87844098]
 [  0.6        -82.83878474]
 [  0.7         33.5640508 ]
 [  0.8        -20.37118135]
 [  0.9         28.67350866]
 [  1.         -45.8203528 ]
 [  1.1          1.98964677]
 [  1.14141667  44.24014335]]","[[0.         1.27357492]
 [0.1        1.07794659]
 [0.2        0.81824311]
 [0.3        1.31896505]
 [0.4        0.67025176]
 [0.5        1.54286398]
 [0.6        0.23472784]
 [0.7        1.16459242]
 [0.8        0.71129123]
 [0.9        0.02939642]
 [1.         0.30340473]
 [1.1        1.35857862]
 [1.14141667 1.98946576]]",0,2.809
8730571689,f,19,english,5,3,english,2024-01-25 10:40:25.221683,False,1,39,sounds\french\audio/french_861.wav,"[[  0.         -29.59207834]
 [  0.1         -3.20070046]
 [  0.2        -58.32537362]
 [  0.3        -24.52531727]
 [  0.4          4.47991904]
 [  0.5         77.73095921]
 [  0.6         -9.72754814]
 [  0.7         78.69297703]
 [  0.8         89.59895789]
 [  0.9        -74.88966418]
 [  1.          -8.41302054]
 [  1.1        -83.1329049 ]
 [  1.14141667  45.5691638 ]]","[[0.         1.26213784]
 [0.1        1.09688129]
 [0.2        1.67288948]
 [0.3        1.55651392]
 [0.4        0.60089382]
 [0.5        1.00142535]
 [0.6        1.64754174]
 [0.7        1.0190621 ]
 [0.8        1.92978713]
 [0.9        1.64032652]
 [1.         1.1947634 ]
 [1.1        1.60781283]
 [1.14141667 0.53617129]]",0,0.969
8730571689,f,19,english,5,3,english,2024-01-25 10:40:25.221683,False,1,40,sounds\french\audio/french_610.wav,"[[  0.          47.1860399 ]
 [  0.1        -96.06014479]
 [  0.2        -81.77505762]
 [  0.3         35.16188142]
 [  0.4         95.26049293]
 [  0.5        -89.00178187]
 [  0.6        -22.334568  ]
 [  0.7        -38.7408441 ]
 [  0.8         -9.79495772]
 [  0.9         -2.0016606 ]
 [  1.          -3.52855837]
 [  1.1         27.22191873]
 [  1.14141667 -19.56542136]]","[[0.         1.33803609]
 [0.1        0.47296881]
 [0.2        0.09802014]
 [0.3        0.2417997 ]
 [0.4        0.91420719]
 [0.5        0.06740769]
 [0.6        1.13982749]
 [0.7        1.6854513 ]
 [0.8        1.43854832]
 [0.9        0.94209986]
 [1.         0.49469701]
 [1.1        0.27592944]
 [1.14141667 0.89824845]]",1,0.47
8730571689,f,19,english,5,3,english,2024-01-25 10:40:25.221683,False,1,41,sounds\french\audio/french_582.wav,"[[  0.         -57.97659921]
 [  0.1        -91.71728242]
 [  0.2         91.02690479]
 [  0.3        -42.72191291]
 [  0.4        -28.25325065]
 [  0.5         30.1945698 ]
 [  0.6          7.69877883]
 [  0.7        -46.07593352]
 [  0.8        -87.80435324]
 [  0.9         26.32971056]
 [  1.          -2.67986344]
 [  1.1         52.54862282]
 [  1.14141667 -37.11133974]]","[[0.         1.94039207]
 [0.1        0.30829263]
 [0.2        0.17514111]
 [0.3        0.7619412 ]
 [0.4        1.71135998]
 [0.5        0.92813146]
 [0.6        1.90194283]
 [0.7        1.74442959]
 [0.8        1.1869642 ]
 [0.9        1.46885355]
 [1.         1.99529793]
 [1.1        1.14181859]
 [1.14141667 1.37290426]]",0,0.432
8730571689,f,19,english,5,3,english,2024-01-25 10:40:25.221683,False,1,42,sounds\french\audio/french_478.wav,"[[  0.         -72.19964684]
 [  0.1        -99.87964111]
 [  0.2        -63.34716388]
 [  0.3         17.36444534]
 [  0.4        -25.72550577]
 [  0.5        -48.00577525]
 [  0.6         13.9947126 ]
 [  0.7         86.77654288]
 [  0.8         16.82909399]
 [  0.9         68.75229929]
 [  1.          21.5230244 ]
 [  1.1         -9.12599625]
 [  1.14141667   8.60281387]]","[[0.         1.42839019]
 [0.1        0.90909804]
 [0.2        1.91941339]
 [0.3        0.95945943]
 [0.4        1.81046134]
 [0.5        1.06825926]
 [0.6        1.93650413]
 [0.7        0.88286461]
 [0.8        1.93073187]
 [0.9        1.69789271]
 [1.         0.43652705]
 [1.1        0.45419227]
 [1.14141667 1.80203488]]",1,0.472
8730571689,f,19,english,5,3,english,2024-01-25 10:40:25.221683,False,1,43,sounds\french\audio/french_262.wav,"[[  0.         -49.98964576]
 [  0.1         49.26689568]
 [  0.2        -10.28953368]
 [  0.3         16.98520639]
 [  0.4         58.69009652]
 [  0.5         -6.53344433]
 [  0.6         78.39274077]
 [  0.7         51.65400512]
 [  0.8         81.31634544]
 [  0.9         18.40506356]
 [  1.         -53.30019586]
 [  1.1        -37.56666303]
 [  1.14141667  77.06743199]]","[[0.         1.11053442]
 [0.1        1.17094698]
 [0.2        1.02775787]
 [0.3        0.65380655]
 [0.4        0.10783944]
 [0.5        1.03413092]
 [0.6        1.62007201]
 [0.7        0.45017147]
 [0.8        0.78466741]
 [0.9        0.98426364]
 [1.         0.15499386]
 [1.1        1.25025011]
 [1.14141667 1.21854314]]",0,0.718
8730571689,f,19,english,5,3,english,2024-01-25 10:40:25.221683,False,1,44,sounds\french\audio/french_535.wav,"[[  0.         -18.98003998]
 [  0.1          1.56976446]
 [  0.2        -51.96309591]
 [  0.3        -32.78859188]
 [  0.4        -95.94778971]
 [  0.5        -11.78332853]
 [  0.6        -10.35049824]
 [  0.7         53.73969009]
 [  0.8          1.94738184]
 [  0.9         99.67224387]
 [  1.         -21.02452642]
 [  1.1         31.82099625]
 [  1.14141667 -23.69460156]]","[[0.         1.97060018]
 [0.1        1.58088169]
 [0.2        0.99210399]
 [0.3        1.78072811]
 [0.4        1.41176375]
 [0.5        1.55874985]
 [0.6        1.36913047]
 [0.7        0.4263867 ]
 [0.8        0.39920947]
 [0.9        0.77245074]
 [1.         1.01720092]
 [1.1        0.36356833]
 [1.14141667 1.1771893 ]]",1,0.994
8730571689,f,19,english,5,3,english,2024-01-25 10:40:25.221683,False,1,45,sounds\french\audio/french_820.wav,"[[  0.           2.20805213]
 [  0.1        -90.51492195]
 [  0.2         14.37438706]
 [  0.3         48.7691056 ]
 [  0.4        -26.19278003]
 [  0.5         18.08357323]
 [  0.6         82.28583292]
 [  0.7         69.03631189]
 [  0.8         27.35509958]
 [  0.9         27.52320107]
 [  1.          -3.99788557]
 [  1.1         54.09103587]
 [  1.14141667  22.53021971]]","[[0.         0.81178605]
 [0.1        0.34105584]
 [0.2        1.03419156]
 [0.3        1.3222317 ]
 [0.4        0.6377532 ]
 [0.5        1.39628768]
 [0.6        1.53457958]
 [0.7        1.68460853]
 [0.8        1.6036494 ]
 [0.9        1.49572357]
 [1.         0.7318371 ]
 [1.1        0.77038849]
 [1.14141667 0.80738652]]",0,1.529
8730571689,f,19,english,5,3,english,2024-01-25 10:40:25.221683,False,1,46,sounds\french\audio/french_805.wav,"[[  0.         -44.55735502]
 [  0.1        -15.81782327]
 [  0.2        -60.55488751]
 [  0.3        -22.03480197]
 [  0.4        -82.42416276]
 [  0.5         26.6793054 ]
 [  0.6        -90.86223061]
 [  0.7        -32.61383863]
 [  0.8        -25.8862389 ]
 [  0.9        -83.72221214]
 [  1.           9.78399033]
 [  1.1        -75.28148503]
 [  1.14141667 -45.84381211]]","[[0.         0.30537306]
 [0.1        0.95683225]
 [0.2        1.47185568]
 [0.3        0.27583044]
 [0.4        1.40306371]
 [0.5        0.29904003]
 [0.6        0.10571209]
 [0.7        1.80090028]
 [0.8        1.4046027 ]
 [0.9        1.0925065 ]
 [1.         0.78385676]
 [1.1        0.24940616]
 [1.14141667 0.58218615]]",1,0.787
8730571689,f,19,english,5,3,english,2024-01-25 10:40:25.221683,False,1,47,sounds\french\audio/french_433.wav,"[[  0.          13.65936781]
 [  0.1         59.19964003]
 [  0.2        -16.88317101]
 [  0.3        -29.25697853]
 [  0.4        -20.47261371]
 [  0.5        -95.33210222]
 [  0.6        -87.63836787]
 [  0.7        -87.59004626]
 [  0.8        -36.63017932]
 [  0.9         23.01049222]
 [  1.         -37.6607371 ]
 [  1.1        -63.45582253]
 [  1.14141667 -21.18055498]]","[[0.         1.51229861]
 [0.1        0.95952734]
 [0.2        1.86428533]
 [0.3        1.71002057]
 [0.4        1.4823254 ]
 [0.5        1.31199137]
 [0.6        1.53917366]
 [0.7        0.27400767]
 [0.8        0.2344453 ]
 [0.9        1.76474922]
 [1.         1.98224239]
 [1.1        0.32973237]
 [1.14141667 0.42672881]]",0,0.831
8730571689,f,19,english,5,3,english,2024-01-25 10:40:25.221683,False,1,48,sounds\french\audio/french_938.wav,"[[  0.          78.88220732]
 [  0.1         -3.22217582]
 [  0.2         31.59313942]
 [  0.3        -87.34103223]
 [  0.4         26.56163826]
 [  0.5        -64.307528  ]
 [  0.6         85.8718617 ]
 [  0.7         60.41522049]
 [  0.8        -50.06881787]
 [  0.9         82.85214722]
 [  1.         -75.67548959]
 [  1.1         30.15245277]
 [  1.14141667 -12.395703  ]]","[[0.         0.57815616]
 [0.1        1.18097533]
 [0.2        0.53220918]
 [0.3        0.09451103]
 [0.4        1.66363874]
 [0.5        0.16302061]
 [0.6        0.92582254]
 [0.7        1.59975108]
 [0.8        0.43386097]
 [0.9        1.25868971]
 [1.         0.54585511]
 [1.1        1.6315762 ]
 [1.14141667 1.60331722]]",0,2.09
8730571689,f,19,english,5,3,english,2024-01-25 10:40:25.221683,False,1,49,sounds\french\audio/french_52.wav,"[[  0.          93.38164969]
 [  0.1         -4.17463196]
 [  0.2         43.01045584]
 [  0.3         79.89764716]
 [  0.4         89.53615732]
 [  0.5         -1.91048344]
 [  0.6         -9.63392165]
 [  0.7        -91.20147798]
 [  0.8        -22.16876699]
 [  0.9         26.46243178]
 [  1.         -96.25408509]
 [  1.1        -45.87026752]
 [  1.14141667 -15.0624862 ]]","[[0.         0.21743143]
 [0.1        1.66269787]
 [0.2        0.38714673]
 [0.3        1.29835481]
 [0.4        1.7255644 ]
 [0.5        0.55155407]
 [0.6        0.27578942]
 [0.7        1.40308441]
 [0.8        1.87234948]
 [0.9        1.88038075]
 [1.         1.06731664]
 [1.1        1.74934034]
 [1.14141667 1.38742842]]",0,2.21
8730571689,f,19,english,5,3,english,2024-01-25 10:40:25.221683,False,1,50,sounds\french\audio/french_528.wav,"[[  0.         -45.24651192]
 [  0.1        -22.79683557]
 [  0.2         25.30211498]
 [  0.3        -13.71578583]
 [  0.4         -2.25404313]
 [  0.5         83.84073609]
 [  0.6        -69.16068434]
 [  0.7        -28.27736662]
 [  0.8        -11.17926251]
 [  0.9        -41.84531138]
 [  1.          78.74165038]
 [  1.1        -14.12084883]
 [  1.14141667   8.7411314 ]]","[[0.         0.08021547]
 [0.1        0.12970445]
 [0.2        1.13419208]
 [0.3        1.1130053 ]
 [0.4        1.24506484]
 [0.5        1.8093004 ]
 [0.6        1.70569865]
 [0.7        0.10762221]
 [0.8        1.58260006]
 [0.9        0.5079295 ]
 [1.         0.6918907 ]
 [1.1        1.44056131]
 [1.14141667 1.29096722]]",0,5.512
8730571689,f,19,english,5,3,english,2024-01-25 10:40:25.221683,False,1,51,sounds\french\audio/french_291.wav,"[[  0.          75.64449734]
 [  0.1        -65.43090214]
 [  0.2         92.62431372]
 [  0.3        -29.48164048]
 [  0.4        -37.98363851]
 [  0.5         15.64649245]
 [  0.6         53.8652777 ]
 [  0.7        -35.28963219]
 [  0.8         24.41269774]
 [  0.9         66.01035815]
 [  1.          85.37123307]
 [  1.1         61.6720076 ]
 [  1.14141667  32.49754769]]","[[0.         0.99622141]
 [0.1        0.97703248]
 [0.2        1.48498391]
 [0.3        0.0812383 ]
 [0.4        1.60208825]
 [0.5        0.32764185]
 [0.6        1.79838778]
 [0.7        1.46329476]
 [0.8        0.59715792]
 [0.9        1.47333098]
 [1.         0.97066406]
 [1.1        1.98581882]
 [1.14141667 0.19179558]]",0,1.256
8730571689,f,19,english,5,3,english,2024-01-25 10:40:25.221683,False,1,52,sounds\french\audio/french_360.wav,"[[  0.          80.67919688]
 [  0.1        -27.94865849]
 [  0.2         22.32787623]
 [  0.3         45.22188439]
 [  0.4         -7.80157648]
 [  0.5         86.06729103]
 [  0.6        -43.84449169]
 [  0.7         41.33735645]
 [  0.8        -33.22134049]
 [  0.9         24.39834814]
 [  1.         -32.3038852 ]
 [  1.1         18.07242607]
 [  1.14141667 -15.85341792]]","[[0.         0.20606147]
 [0.1        1.11725372]
 [0.2        0.05039174]
 [0.3        1.66716796]
 [0.4        0.33872424]
 [0.5        1.77425049]
 [0.6        0.57660507]
 [0.7        1.5995083 ]
 [0.8        0.05507617]
 [0.9        1.78566   ]
 [1.         0.95403795]
 [1.1        1.61112926]
 [1.14141667 1.37482411]]",1,2.394
8730571689,f,19,english,5,3,english,2024-01-25 10:40:25.221683,False,1,53,sounds\french\audio/french_476.wav,"[[  0.           2.7094507 ]
 [  0.1        -87.7280692 ]
 [  0.2         73.10097617]
 [  0.3        -39.94037221]
 [  0.4        -70.77067891]
 [  0.5        -69.51890588]
 [  0.6         14.97450783]
 [  0.7         11.8314824 ]
 [  0.8        -94.87528551]
 [  0.9        -47.21116186]
 [  1.          77.98956327]
 [  1.1         27.75596283]
 [  1.14141667 -30.59689751]]","[[0.         1.35860471]
 [0.1        0.99732338]
 [0.2        0.39475379]
 [0.3        1.23972907]
 [0.4        1.89359737]
 [0.5        1.35568455]
 [0.6        0.10717939]
 [0.7        1.73146134]
 [0.8        1.80986266]
 [0.9        0.67970101]
 [1.         0.57105332]
 [1.1        0.99269413]
 [1.14141667 0.74836079]]",0,0.512
8730571689,f,19,english,5,3,english,2024-01-25 10:40:25.221683,False,1,54,sounds\french\audio/french_202.wav,"[[  0.         -17.04430056]
 [  0.1        -39.59352405]
 [  0.2        -50.32219172]
 [  0.3        -86.25811675]
 [  0.4          0.56208373]
 [  0.5         12.13136617]
 [  0.6         -9.09694351]
 [  0.7        -34.01550811]
 [  0.8        -50.44375165]
 [  0.9         45.46201631]
 [  1.          32.9446266 ]
 [  1.1        -83.35470967]
 [  1.14141667  64.06448626]]","[[0.         0.85322679]
 [0.1        1.90558069]
 [0.2        0.57660663]
 [0.3        0.53517989]
 [0.4        1.3075328 ]
 [0.5        0.65532662]
 [0.6        0.58470433]
 [0.7        1.41307701]
 [0.8        0.21256409]
 [0.9        1.38233641]
 [1.         1.86150004]
 [1.1        1.834538  ]
 [1.14141667 1.65956504]]",1,2.089
8730571689,f,19,english,5,3,english,2024-01-25 10:40:25.221683,False,1,55,sounds\french\audio/french_877.wav,"[[  0.          35.01358719]
 [  0.1         44.86740008]
 [  0.2        -79.59292407]
 [  0.3         -7.22750522]
 [  0.4         -2.5216875 ]
 [  0.5        -30.65077741]
 [  0.6         -4.86146078]
 [  0.7        -89.51285107]
 [  0.8        -40.02073069]
 [  0.9         96.12185009]
 [  1.          90.68588052]
 [  1.1         18.23570323]
 [  1.14141667 -87.75305818]]","[[0.         1.80553919]
 [0.1        1.10205229]
 [0.2        1.66583823]
 [0.3        0.82975553]
 [0.4        1.38376145]
 [0.5        0.89494766]
 [0.6        0.02389059]
 [0.7        1.19273137]
 [0.8        0.7956871 ]
 [0.9        1.13306   ]
 [1.         0.93972062]
 [1.1        0.41860884]
 [1.14141667 1.12017052]]",0,4.261
8730571689,f,19,english,5,3,english,2024-01-25 10:40:25.221683,False,1,56,sounds\french\audio/french_958.wav,"[[  0.          71.1743689 ]
 [  0.1        -65.47764441]
 [  0.2         44.36457179]
 [  0.3        -17.82869888]
 [  0.4        -58.47034886]
 [  0.5         -3.74377432]
 [  0.6          6.84213224]
 [  0.7         57.06612023]
 [  0.8         80.08248285]
 [  0.9        -55.87519183]
 [  1.          24.68810161]
 [  1.1         42.81806265]
 [  1.14141667  98.55444505]]","[[0.         1.16437978]
 [0.1        1.03570224]
 [0.2        1.35163639]
 [0.3        1.7093735 ]
 [0.4        1.03128605]
 [0.5        1.00068907]
 [0.6        1.21957802]
 [0.7        1.43877863]
 [0.8        0.57775988]
 [0.9        1.64863754]
 [1.         1.56882704]
 [1.1        1.95641107]
 [1.14141667 1.50787969]]",0,2.556
8730571689,f,19,english,5,3,english,2024-01-25 10:40:25.221683,False,1,57,sounds\french\audio/french_96.wav,"[[  0.          53.78639377]
 [  0.1         31.41586523]
 [  0.2         98.80733332]
 [  0.3         53.44519875]
 [  0.4         95.61439284]
 [  0.5         77.20225202]
 [  0.6         52.03252285]
 [  0.7         81.26088067]
 [  0.8         61.75854177]
 [  0.9        -97.80195669]
 [  1.         -30.26366105]
 [  1.1         17.72455957]
 [  1.14141667  64.44839673]]","[[0.         1.90346106]
 [0.1        0.15220772]
 [0.2        0.53950268]
 [0.3        0.63349693]
 [0.4        0.57290588]
 [0.5        0.42649721]
 [0.6        1.12105265]
 [0.7        0.61167248]
 [0.8        1.55092745]
 [0.9        1.53777106]
 [1.         1.41658213]
 [1.1        0.75969362]
 [1.14141667 0.51672597]]",1,2.251
8730571689,f,19,english,5,3,english,2024-01-25 10:40:25.221683,False,1,58,sounds\french\audio/french_213.wav,"[[  0.          60.90519411]
 [  0.1         55.95280779]
 [  0.2         48.46758666]
 [  0.3        -14.18062666]
 [  0.4        -51.30201563]
 [  0.5        -37.99009317]
 [  0.6         88.99546092]
 [  0.7        -11.08339747]
 [  0.8         54.53278866]
 [  0.9        -23.49573744]
 [  1.          28.30492548]
 [  1.1         68.04425842]
 [  1.14141667  -9.70039934]]","[[0.         1.2142025 ]
 [0.1        1.85099482]
 [0.2        1.16231079]
 [0.3        1.54399184]
 [0.4        1.40754046]
 [0.5        0.99181023]
 [0.6        0.96000188]
 [0.7        0.55983951]
 [0.8        1.35940292]
 [0.9        0.29880455]
 [1.         1.73467682]
 [1.1        0.57935772]
 [1.14141667 1.18792355]]",0,0.361
8730571689,f,19,english,5,3,english,2024-01-25 10:40:25.221683,False,1,59,sounds\french\audio/french_891.wav,"[[  0.         -99.04712605]
 [  0.1         17.3799724 ]
 [  0.2         -1.30355006]
 [  0.3         11.66108417]
 [  0.4          6.35761676]
 [  0.5        -71.86971473]
 [  0.6         20.94588527]
 [  0.7        -13.59137079]
 [  0.8         62.37473981]
 [  0.9         64.47380957]
 [  1.          -7.95126825]
 [  1.1        -34.88253316]
 [  1.14141667  95.31191198]]","[[0.         1.87208337]
 [0.1        1.3828509 ]
 [0.2        1.47231184]
 [0.3        1.45618748]
 [0.4        1.81540908]
 [0.5        0.63041518]
 [0.6        0.92124801]
 [0.7        0.65821591]
 [0.8        0.6468689 ]
 [0.9        0.86634815]
 [1.         0.44006572]
 [1.1        1.52894565]
 [1.14141667 0.84584339]]",1,0.877
8730571689,f,19,english,5,3,english,2024-01-25 10:40:25.221683,False,1,60,sounds\french\audio/french_155.wav,"[[  0.         -92.78133148]
 [  0.1         20.93258494]
 [  0.2        -47.18952132]
 [  0.3         87.6623856 ]
 [  0.4         53.55190164]
 [  0.5         73.72044222]
 [  0.6         13.17734525]
 [  0.7         33.07505579]
 [  0.8         11.21533307]
 [  0.9        -11.15187706]
 [  1.          62.83057895]
 [  1.1          5.84907356]
 [  1.14141667 -41.38043494]]","[[0.         0.96654008]
 [0.1        1.69709924]
 [0.2        1.53182227]
 [0.3        0.2401229 ]
 [0.4        0.46921424]
 [0.5        1.76971401]
 [0.6        0.8491776 ]
 [0.7        1.18179357]
 [0.8        0.90499885]
 [0.9        0.79006401]
 [1.         1.00554233]
 [1.1        1.3461564 ]
 [1.14141667 0.10111809]]",0,4.753
8730571689,f,19,english,5,3,english,2024-01-25 10:40:25.221683,False,1,61,sounds\french\audio/french_321.wav,"[[  0.         -17.43290113]
 [  0.1        -75.13063007]
 [  0.2         21.04236254]
 [  0.3         72.8638134 ]
 [  0.4        -64.71622609]
 [  0.5         38.46531761]
 [  0.6         16.71176919]
 [  0.7        -79.68428787]
 [  0.8        -11.06096096]
 [  0.9         92.10217905]
 [  1.         -37.60449635]
 [  1.1        -59.94541406]
 [  1.14141667  51.49701243]]","[[0.         1.16678301]
 [0.1        0.91554507]
 [0.2        0.06135462]
 [0.3        1.76394003]
 [0.4        0.62597265]
 [0.5        1.09057474]
 [0.6        1.39570294]
 [0.7        1.76893105]
 [0.8        1.4722675 ]
 [0.9        0.23544571]
 [1.         1.24526823]
 [1.1        1.52804518]
 [1.14141667 1.57997297]]",1,1.704
8730571689,f,19,english,5,3,english,2024-01-25 10:40:25.221683,False,1,62,sounds\french\audio/french_914.wav,"[[  0.          79.95241149]
 [  0.1        -65.45578173]
 [  0.2        -34.41519325]
 [  0.3         38.48230949]
 [  0.4         64.05646687]
 [  0.5         42.76609293]
 [  0.6         43.76059306]
 [  0.7        -40.85862295]
 [  0.8         -7.68978463]
 [  0.9        -34.17758246]
 [  1.         -15.53383771]
 [  1.1         40.53193297]
 [  1.14141667  27.68989524]]","[[0.         1.70123976]
 [0.1        1.16294222]
 [0.2        1.81604524]
 [0.3        0.26183363]
 [0.4        1.16023808]
 [0.5        0.78601448]
 [0.6        0.22240252]
 [0.7        0.92550901]
 [0.8        1.56491044]
 [0.9        1.71737079]
 [1.         1.35150503]
 [1.1        0.89943186]
 [1.14141667 1.16382615]]",0,1.02
8730571689,f,19,english,5,3,english,2024-01-25 10:40:25.221683,False,1,63,sounds\french\audio/french_667.wav,"[[  0.          -3.23073543]
 [  0.1         12.95388382]
 [  0.2        -81.94464558]
 [  0.3        -49.94767422]
 [  0.4         55.78567477]
 [  0.5         79.02111133]
 [  0.6         -5.77186949]
 [  0.7         53.00308605]
 [  0.8         58.82898183]
 [  0.9         46.90110707]
 [  1.          27.42439554]
 [  1.1        -19.01601979]
 [  1.14141667  63.4895526 ]]","[[0.         0.36346463]
 [0.1        0.76986808]
 [0.2        1.34448265]
 [0.3        0.75161854]
 [0.4        0.06445757]
 [0.5        1.86844951]
 [0.6        0.16436936]
 [0.7        0.4200212 ]
 [0.8        0.54306015]
 [0.9        0.49338547]
 [1.         1.57738821]
 [1.1        1.23039294]
 [1.14141667 1.7787343 ]]",1,0.592
8730571689,f,19,english,5,3,english,2024-01-25 10:40:25.221683,False,1,64,sounds\french\audio/french_919.wav,"[[  0.          -1.20086157]
 [  0.1         23.70683085]
 [  0.2         57.81380223]
 [  0.3        -35.3373876 ]
 [  0.4        -47.40127712]
 [  0.5         30.8485682 ]
 [  0.6        -65.35395561]
 [  0.7         85.95532588]
 [  0.8         92.08322147]
 [  0.9        -41.94331802]
 [  1.          52.33310805]
 [  1.1        -64.04027042]
 [  1.14141667 -13.37988962]]","[[0.         1.82372542]
 [0.1        1.2747469 ]
 [0.2        1.5717064 ]
 [0.3        0.75801577]
 [0.4        0.41520743]
 [0.5        0.28163439]
 [0.6        0.64408251]
 [0.7        0.95994637]
 [0.8        0.70005391]
 [0.9        0.9468388 ]
 [1.         0.21391183]
 [1.1        1.54895117]
 [1.14141667 0.55798758]]",0,1.234
8730571689,f,19,english,5,3,english,2024-01-25 10:40:25.221683,False,1,65,sounds\french\audio/french_294.wav,"[[  0.          46.81190633]
 [  0.1        -55.55833329]
 [  0.2        -78.93236635]
 [  0.3         80.59595566]
 [  0.4         54.71021816]
 [  0.5        -35.95549528]
 [  0.6         90.04358931]
 [  0.7         48.97978382]
 [  0.8         85.35893159]
 [  0.9         37.71160702]
 [  1.         -84.35185751]
 [  1.1        -45.28301264]
 [  1.14141667  78.04325437]]","[[0.         0.85502539]
 [0.1        0.73187702]
 [0.2        1.40827844]
 [0.3        1.8594958 ]
 [0.4        1.03951107]
 [0.5        0.90602699]
 [0.6        0.40420579]
 [0.7        0.11158967]
 [0.8        1.1950669 ]
 [0.9        0.53171982]
 [1.         0.12056925]
 [1.1        1.01856401]
 [1.14141667 1.12267397]]",1,0.811
8730571689,f,19,english,5,3,english,2024-01-25 10:40:25.221683,False,1,66,sounds\french\audio/french_615.wav,"[[  0.          72.38681635]
 [  0.1         24.59331479]
 [  0.2         97.45037318]
 [  0.3        -28.96661313]
 [  0.4        -31.23729726]
 [  0.5        -70.6612612 ]
 [  0.6        -53.69570139]
 [  0.7        -38.46914073]
 [  0.8        -55.15375189]
 [  0.9         90.9560503 ]
 [  1.          -8.94488098]
 [  1.1        -87.12452045]
 [  1.14141667 -63.51314693]]","[[0.         0.57584536]
 [0.1        1.35294979]
 [0.2        1.77087323]
 [0.3        0.43158904]
 [0.4        1.66456616]
 [0.5        1.7199114 ]
 [0.6        1.78953723]
 [0.7        0.36678916]
 [0.8        1.32513305]
 [0.9        1.7903427 ]
 [1.         1.74831673]
 [1.1        1.54330105]
 [1.14141667 1.13986447]]",0,0.233
8730571689,f,19,english,5,3,english,2024-01-25 10:40:25.221683,False,1,67,sounds\french\audio/french_666.wav,"[[  0.          92.96865197]
 [  0.1         83.19708081]
 [  0.2        -93.00429792]
 [  0.3         90.20261319]
 [  0.4        -87.15662035]
 [  0.5        -47.24627787]
 [  0.6         59.30035154]
 [  0.7        -15.62578407]
 [  0.8        -24.02578561]
 [  0.9        -81.73454308]
 [  1.           8.5752321 ]
 [  1.1         81.49647055]
 [  1.14141667 -18.83163279]]","[[0.         0.97097631]
 [0.1        1.21196334]
 [0.2        0.21493139]
 [0.3        0.41981713]
 [0.4        1.50078267]
 [0.5        1.52836047]
 [0.6        0.33218379]
 [0.7        0.67593379]
 [0.8        0.65338916]
 [0.9        1.43079887]
 [1.         0.1051972 ]
 [1.1        1.769445  ]
 [1.14141667 0.88398821]]",1,3.019
8730571689,f,19,english,5,3,english,2024-01-25 10:40:25.221683,False,1,68,sounds\french\audio/french_272.wav,"[[  0.          42.6629916 ]
 [  0.1        -44.58032128]
 [  0.2        -63.79515668]
 [  0.3         65.68552079]
 [  0.4        -73.43471872]
 [  0.5         -9.94342822]
 [  0.6        -63.79991276]
 [  0.7         10.2914571 ]
 [  0.8         44.90388393]
 [  0.9         11.26467692]
 [  1.         -19.2327242 ]
 [  1.1        -57.17946334]
 [  1.14141667  -5.9395339 ]]","[[0.         0.82181087]
 [0.1        1.24121052]
 [0.2        1.18763114]
 [0.3        1.12080473]
 [0.4        0.3216303 ]
 [0.5        1.28123666]
 [0.6        1.07872971]
 [0.7        1.60584441]
 [0.8        1.61709033]
 [0.9        0.76221234]
 [1.         1.01212213]
 [1.1        0.46924284]
 [1.14141667 0.6492678 ]]",1,1.437
8730571689,f,19,english,5,3,english,2024-01-25 10:40:25.221683,False,1,69,sounds\french\audio/french_360.wav,"[[  0.          80.67919688]
 [  0.1        -27.94865849]
 [  0.2         22.32787623]
 [  0.3         45.22188439]
 [  0.4         -7.80157648]
 [  0.5         86.06729103]
 [  0.6        -43.84449169]
 [  0.7         41.33735645]
 [  0.8        -33.22134049]
 [  0.9         24.39834814]
 [  1.         -32.3038852 ]
 [  1.1         18.07242607]
 [  1.14141667 -15.85341792]]","[[0.         0.20606147]
 [0.1        1.11725372]
 [0.2        0.05039174]
 [0.3        1.66716796]
 [0.4        0.33872424]
 [0.5        1.77425049]
 [0.6        0.57660507]
 [0.7        1.5995083 ]
 [0.8        0.05507617]
 [0.9        1.78566   ]
 [1.         0.95403795]
 [1.1        1.61112926]
 [1.14141667 1.37482411]]",0,0.19
8730571689,f,19,english,5,3,english,2024-01-25 10:40:25.221683,False,1,70,sounds\french\audio/french_819.wav,"[[  0.           3.5433124 ]
 [  0.1         34.67580474]
 [  0.2         52.06096148]
 [  0.3        -11.68829783]
 [  0.4        -55.43273777]
 [  0.5        -69.12141051]
 [  0.6         -6.92352796]
 [  0.7        -30.91883779]
 [  0.8         65.5281881 ]
 [  0.9        -41.62316532]
 [  1.         -72.0133608 ]
 [  1.1         34.83208876]
 [  1.14141667 -43.5569199 ]]","[[0.         0.69924153]
 [0.1        0.59233338]
 [0.2        0.10786683]
 [0.3        0.82052849]
 [0.4        0.57964387]
 [0.5        1.16428723]
 [0.6        0.35573096]
 [0.7        1.23577296]
 [0.8        0.83715517]
 [0.9        1.18768042]
 [1.         1.9698724 ]
 [1.1        0.40899085]
 [1.14141667 1.30290544]]",1,1.239
8730571689,f,19,english,5,3,english,2024-01-25 10:40:25.221683,False,1,71,sounds\french\audio/french_241.wav,"[[  0.          98.04166171]
 [  0.1          6.16764543]
 [  0.2        -42.8608234 ]
 [  0.3         54.21216242]
 [  0.4         -1.78367985]
 [  0.5         -5.66820407]
 [  0.6         54.13943684]
 [  0.7        -80.00679133]
 [  0.8        -44.25002722]
 [  0.9        -63.06102871]
 [  1.          80.68342045]
 [  1.1          4.33426609]
 [  1.14141667  89.08058854]]","[[0.         0.32485673]
 [0.1        1.24402989]
 [0.2        0.94649821]
 [0.3        1.15369043]
 [0.4        0.47784039]
 [0.5        0.56378862]
 [0.6        0.47159963]
 [0.7        1.76255958]
 [0.8        0.64662376]
 [0.9        1.1795317 ]
 [1.         1.4030233 ]
 [1.1        0.53258498]
 [1.14141667 0.85759255]]",0,0.347
8730571689,f,19,english,5,3,english,2024-01-25 10:40:25.221683,False,1,72,sounds\french\audio/french_803.wav,"[[  0.         -12.95878337]
 [  0.1         61.50797195]
 [  0.2         96.13916552]
 [  0.3         63.40829671]
 [  0.4        -18.80055907]
 [  0.5        -13.37960084]
 [  0.6         17.49624977]
 [  0.7         26.6489851 ]
 [  0.8         46.37702818]
 [  0.9         47.62008812]
 [  1.          35.61177117]
 [  1.1        -76.22783665]
 [  1.14141667  34.8549378 ]]","[[0.         0.89212547]
 [0.1        0.09328832]
 [0.2        0.1771654 ]
 [0.3        0.79511002]
 [0.4        0.67535594]
 [0.5        0.14377803]
 [0.6        0.71363745]
 [0.7        0.90742369]
 [0.8        0.61606813]
 [0.9        0.82361862]
 [1.         1.14929537]
 [1.1        1.55419548]
 [1.14141667 1.0035068 ]]",0,2.792
8730571689,f,19,english,5,3,english,2024-01-25 10:40:25.221683,False,1,73,sounds\french\audio/french_668.wav,"[[  0.          29.27228259]
 [  0.1         44.61886338]
 [  0.2        -99.37151223]
 [  0.3        -43.50012214]
 [  0.4        -59.48264573]
 [  0.5         -9.75520018]
 [  0.6        -11.86740044]
 [  0.7         74.75745741]
 [  0.8         57.50233643]
 [  0.9        -23.1818058 ]
 [  1.          30.6351759 ]
 [  1.1        -64.15483503]
 [  1.14141667 -17.76472581]]","[[0.         0.3188214 ]
 [0.1        0.83567332]
 [0.2        1.37479397]
 [0.3        1.52422833]
 [0.4        1.47592496]
 [0.5        0.98185706]
 [0.6        0.8144327 ]
 [0.7        0.15769834]
 [0.8        0.61225333]
 [0.9        0.30532124]
 [1.         0.84973926]
 [1.1        1.73680039]
 [1.14141667 1.07000134]]",1,0.543
8730571689,f,19,english,5,3,english,2024-01-25 10:40:25.221683,False,1,74,sounds\french\audio/french_654.wav,"[[  0.         -34.99893626]
 [  0.1         48.640299  ]
 [  0.2        -57.42841669]
 [  0.3         60.50968511]
 [  0.4        -16.79285222]
 [  0.5         60.38921633]
 [  0.6        -84.32894633]
 [  0.7         11.89646917]
 [  0.8         -7.26468354]
 [  0.9         -6.03013543]
 [  1.         -88.08456303]
 [  1.1        -59.96415131]
 [  1.14141667 -30.34186044]]","[[0.         0.24780466]
 [0.1        0.78115806]
 [0.2        1.37585032]
 [0.3        0.92953153]
 [0.4        0.90158135]
 [0.5        0.72778572]
 [0.6        0.70075297]
 [0.7        1.80773832]
 [0.8        0.52873591]
 [0.9        1.2475782 ]
 [1.         0.19931311]
 [1.1        0.87770786]
 [1.14141667 1.71975325]]",0,0.615
8730571689,f,19,english,5,3,english,2024-01-25 10:40:25.221683,False,1,75,sounds\french\audio/french_465.wav,"[[  0.           5.88024496]
 [  0.1        -50.60926401]
 [  0.2        -75.32725367]
 [  0.3          3.44113157]
 [  0.4         29.4397182 ]
 [  0.5         45.10583861]
 [  0.6         62.97320654]
 [  0.7        -15.3501398 ]
 [  0.8        -21.75175408]
 [  0.9        -10.84821327]
 [  1.         -94.2934633 ]
 [  1.1        -58.56218585]
 [  1.14141667  30.34802461]]","[[0.         1.03079141]
 [0.1        0.07909505]
 [0.2        0.13211547]
 [0.3        0.90615472]
 [0.4        0.84429779]
 [0.5        0.8526434 ]
 [0.6        0.36671109]
 [0.7        0.46700394]
 [0.8        1.52127731]
 [0.9        0.1624174 ]
 [1.         1.32493274]
 [1.1        0.29025247]
 [1.14141667 0.5468785 ]]",1,3.78
8730571689,f,19,english,5,3,english,2024-01-25 10:40:25.221683,False,1,76,sounds\french\audio/french_449.wav,"[[  0.          48.07237211]
 [  0.1         10.50044698]
 [  0.2         99.10264915]
 [  0.3         44.97033086]
 [  0.4        -41.32684653]
 [  0.5        -79.7525466 ]
 [  0.6         50.40932694]
 [  0.7         52.6193965 ]
 [  0.8        -15.31474709]
 [  0.9        -28.04173939]
 [  1.           9.78914311]
 [  1.1        -78.00931625]
 [  1.14141667 -11.66917093]]","[[0.         1.574298  ]
 [0.1        0.465888  ]
 [0.2        1.49470087]
 [0.3        1.26780995]
 [0.4        0.48746737]
 [0.5        0.73531069]
 [0.6        0.94941626]
 [0.7        1.08611184]
 [0.8        0.81949253]
 [0.9        1.27162102]
 [1.         1.38692301]
 [1.1        0.89469579]
 [1.14141667 1.6806745 ]]",1,0.736
8730571689,f,19,english,5,3,english,2024-01-25 10:40:25.221683,False,1,77,sounds\french\audio/french_900.wav,"[[  0.          17.12559696]
 [  0.1        -56.5671441 ]
 [  0.2         14.51884338]
 [  0.3        -18.58724125]
 [  0.4         60.24825847]
 [  0.5         37.11732505]
 [  0.6         64.67645387]
 [  0.7        -71.32739236]
 [  0.8        -29.12352211]
 [  0.9        -23.92624308]
 [  1.         -44.03405283]
 [  1.1        -24.43123867]
 [  1.14141667  85.71719888]]","[[0.         0.28086039]
 [0.1        0.25898492]
 [0.2        0.73738281]
 [0.3        0.53194872]
 [0.4        1.1731198 ]
 [0.5        1.44096814]
 [0.6        1.04426766]
 [0.7        1.30561608]
 [0.8        0.38583175]
 [0.9        1.06522554]
 [1.         1.24631605]
 [1.1        0.11257647]
 [1.14141667 1.16173008]]",0,0.477
8730571689,f,19,english,5,3,english,2024-01-25 10:40:25.221683,False,1,78,sounds\french\audio/french_554.wav,"[[  0.         -63.33551975]
 [  0.1        -76.57986439]
 [  0.2        -22.17813556]
 [  0.3        -68.90025731]
 [  0.4        -20.79960873]
 [  0.5         79.3432264 ]
 [  0.6         28.49124228]
 [  0.7        -51.7988221 ]
 [  0.8         14.88226082]
 [  0.9         47.41470029]
 [  1.         -31.15234452]
 [  1.1         50.45092822]
 [  1.14141667  -4.11874255]]","[[0.         1.80292439]
 [0.1        1.19257657]
 [0.2        1.70801265]
 [0.3        0.22316488]
 [0.4        1.5813195 ]
 [0.5        0.09042066]
 [0.6        1.08370357]
 [0.7        1.08104   ]
 [0.8        0.69564773]
 [0.9        1.14902191]
 [1.         1.78078558]
 [1.1        0.72980641]
 [1.14141667 0.82846414]]",1,0.433
8730571689,f,19,english,5,3,english,2024-01-25 10:40:25.221683,False,1,79,sounds\french\audio/french_3.wav,"[[  0.           0.84017754]
 [  0.1         -7.51471686]
 [  0.2         28.41763238]
 [  0.3         37.71142007]
 [  0.4          1.26036317]
 [  0.5         15.23218868]
 [  0.6         72.87750009]
 [  0.7         35.64442263]
 [  0.8        -22.83930757]
 [  0.9        -74.03077015]
 [  1.         -69.35513139]
 [  1.1        -66.87381728]
 [  1.14141667  52.78753791]]","[[0.         1.90383823]
 [0.1        0.86429372]
 [0.2        1.92043999]
 [0.3        1.03880043]
 [0.4        1.39645729]
 [0.5        1.26128291]
 [0.6        0.93288088]
 [0.7        0.29824493]
 [0.8        0.82504905]
 [0.9        1.45311505]
 [1.         0.32802496]
 [1.1        1.34964266]
 [1.14141667 0.7364707 ]]",0,1.122
8730571689,f,19,english,5,3,english,2024-01-25 10:40:25.221683,False,1,80,sounds\french\audio/french_962.wav,"[[  0.          30.35154831]
 [  0.1        -61.36286216]
 [  0.2          8.08216805]
 [  0.3         68.07284927]
 [  0.4         99.23165684]
 [  0.5         -4.09468681]
 [  0.6        -43.06547604]
 [  0.7        -35.97895548]
 [  0.8         65.52039876]
 [  0.9        -20.75006378]
 [  1.          45.88316759]
 [  1.1         41.80740802]
 [  1.14141667  18.01868022]]","[[0.         1.38256517]
 [0.1        0.02564806]
 [0.2        1.12052675]
 [0.3        1.71136238]
 [0.4        1.12888991]
 [0.5        0.85314867]
 [0.6        0.0118046 ]
 [0.7        1.27173176]
 [0.8        0.70027024]
 [0.9        0.79948638]
 [1.         0.6951297 ]
 [1.1        0.43989304]
 [1.14141667 0.96696935]]",0,10.659
8730571689,f,19,english,5,3,english,2024-01-25 10:40:25.221683,False,1,81,sounds\french\audio/french_367.wav,"[[  0.         -19.33050099]
 [  0.1         -1.29300582]
 [  0.2        -53.6628535 ]
 [  0.3        -26.30205028]
 [  0.4        -63.4363173 ]
 [  0.5          6.39307262]
 [  0.6        -64.6682597 ]
 [  0.7         29.77195728]
 [  0.8         57.14519673]
 [  0.9         -3.13638169]
 [  1.          29.03856774]
 [  1.1        -14.77542226]
 [  1.14141667 -39.4710146 ]]","[[0.         0.32588684]
 [0.1        1.20079268]
 [0.2        1.68961812]
 [0.3        0.18361897]
 [0.4        0.97466933]
 [0.5        1.38512788]
 [0.6        0.02274579]
 [0.7        0.18668815]
 [0.8        0.42667984]
 [0.9        0.48752638]
 [1.         0.21358708]
 [1.1        0.34158708]
 [1.14141667 1.96821169]]",1,0.514
8730571689,f,19,english,5,3,english,2024-01-25 10:40:25.221683,False,1,82,sounds\french\audio/french_625.wav,"[[  0.         -52.31869124]
 [  0.1        -25.23577265]
 [  0.2        -60.75977445]
 [  0.3         -3.59619095]
 [  0.4        -51.44020573]
 [  0.5        -56.50890025]
 [  0.6        -33.258937  ]
 [  0.7         60.17412763]
 [  0.8        -83.80517284]
 [  0.9         51.66221663]
 [  1.         -48.90750727]
 [  1.1        -44.74068411]
 [  1.14141667  69.22661346]]","[[0.         1.63379894]
 [0.1        0.38535148]
 [0.2        1.4410786 ]
 [0.3        0.29355574]
 [0.4        1.40834543]
 [0.5        1.57997293]
 [0.6        0.14193207]
 [0.7        1.60873566]
 [0.8        1.9133151 ]
 [0.9        1.29537879]
 [1.         1.20151545]
 [1.1        0.64392762]
 [1.14141667 1.24366186]]",0,0.204
8730571689,f,19,english,5,3,english,2024-01-25 10:40:25.221683,False,1,83,sounds\french\audio/french_474.wav,"[[  0.         -88.88128127]
 [  0.1        -87.53662443]
 [  0.2        -73.33591132]
 [  0.3        -58.54144931]
 [  0.4         49.04087255]
 [  0.5        -72.76699617]
 [  0.6         68.67659858]
 [  0.7         -5.36671532]
 [  0.8        -23.75884682]
 [  0.9         13.28179405]
 [  1.         -83.28350747]
 [  1.1        -48.16746349]
 [  1.14141667 -41.26290456]]","[[0.         1.51183911]
 [0.1        1.47760971]
 [0.2        0.71617893]
 [0.3        1.42177569]
 [0.4        1.82178252]
 [0.5        1.89638194]
 [0.6        1.23818799]
 [0.7        1.42903819]
 [0.8        1.21070139]
 [0.9        0.77635249]
 [1.         1.90244772]
 [1.1        0.64536469]
 [1.14141667 0.1097674 ]]",0,0.734
8730571689,f,19,english,5,3,english,2024-01-25 10:40:25.221683,False,1,84,sounds\french\audio/french_314.wav,"[[  0.          98.47852425]
 [  0.1         -4.76765087]
 [  0.2         98.99563551]
 [  0.3        -26.02974157]
 [  0.4          3.57072729]
 [  0.5        -27.39105802]
 [  0.6        -34.46329074]
 [  0.7        -19.61563284]
 [  0.8         86.50042899]
 [  0.9        -30.62380752]
 [  1.          68.66999994]
 [  1.1         18.64968658]
 [  1.14141667  83.99037415]]","[[0.         0.84050002]
 [0.1        1.9178096 ]
 [0.2        1.48544664]
 [0.3        0.28338038]
 [0.4        1.67118839]
 [0.5        0.9666753 ]
 [0.6        0.67276738]
 [0.7        1.19975177]
 [0.8        0.06283499]
 [0.9        0.69763895]
 [1.         1.73674877]
 [1.1        1.35552755]
 [1.14141667 1.19565214]]",1,0.212
8730571689,f,19,english,5,3,english,2024-01-25 10:40:25.221683,False,1,85,sounds\french\audio/french_681.wav,"[[  0.         -97.30934459]
 [  0.1        -35.19724747]
 [  0.2        -21.51950238]
 [  0.3        -52.55201926]
 [  0.4         62.39918701]
 [  0.5         37.22710343]
 [  0.6         37.61564457]
 [  0.7        -58.93821482]
 [  0.8         91.17894054]
 [  0.9        -46.6625886 ]
 [  1.         -13.36336259]
 [  1.1         -2.63692555]
 [  1.14141667 -49.79155462]]","[[0.         0.68826213]
 [0.1        0.18573935]
 [0.2        0.87968151]
 [0.3        1.42391909]
 [0.4        1.43099487]
 [0.5        1.13641153]
 [0.6        0.01922596]
 [0.7        1.86928285]
 [0.8        0.97464305]
 [0.9        1.3387681 ]
 [1.         0.7264955 ]
 [1.1        1.20739743]
 [1.14141667 0.86539132]]",0,0.281
8730571689,f,19,english,5,3,english,2024-01-25 10:40:25.221683,False,1,86,sounds\french\audio/french_582.wav,"[[  0.         -57.97659921]
 [  0.1        -91.71728242]
 [  0.2         91.02690479]
 [  0.3        -42.72191291]
 [  0.4        -28.25325065]
 [  0.5         30.1945698 ]
 [  0.6          7.69877883]
 [  0.7        -46.07593352]
 [  0.8        -87.80435324]
 [  0.9         26.32971056]
 [  1.          -2.67986344]
 [  1.1         52.54862282]
 [  1.14141667 -37.11133974]]","[[0.         1.94039207]
 [0.1        0.30829263]
 [0.2        0.17514111]
 [0.3        0.7619412 ]
 [0.4        1.71135998]
 [0.5        0.92813146]
 [0.6        1.90194283]
 [0.7        1.74442959]
 [0.8        1.1869642 ]
 [0.9        1.46885355]
 [1.         1.99529793]
 [1.1        1.14181859]
 [1.14141667 1.37290426]]",0,2.42
8730571689,f,19,english,5,3,english,2024-01-25 10:40:25.221683,False,1,87,sounds\french\audio/french_158.wav,"[[  0.         -97.16873195]
 [  0.1         51.89924126]
 [  0.2        -13.36075931]
 [  0.3        -38.85603948]
 [  0.4        -40.59046822]
 [  0.5        -43.54206196]
 [  0.6        -12.24032947]
 [  0.7        -86.35714583]
 [  0.8         26.68437741]
 [  0.9        -27.65851862]
 [  1.          90.01542751]
 [  1.1         32.43099277]
 [  1.14141667 -88.24313691]]","[[0.         0.98178979]
 [0.1        1.09786537]
 [0.2        1.01682656]
 [0.3        1.52660631]
 [0.4        0.62274477]
 [0.5        1.50152999]
 [0.6        1.34805794]
 [0.7        1.09441923]
 [0.8        1.68909448]
 [0.9        1.3659413 ]
 [1.         0.51492756]
 [1.1        0.99141216]
 [1.14141667 0.67168829]]",1,0.266
8730571689,f,19,english,5,3,english,2024-01-25 10:40:25.221683,False,1,88,sounds\french\audio/french_45.wav,"[[  0.           4.56173303]
 [  0.1         74.73557227]
 [  0.2        -92.29583716]
 [  0.3         82.3773938 ]
 [  0.4        -50.62808554]
 [  0.5        -35.38506933]
 [  0.6        -76.21602708]
 [  0.7         13.4081517 ]
 [  0.8         60.02628181]
 [  0.9        -69.7779934 ]
 [  1.          26.70700763]
 [  1.1          2.15265125]
 [  1.14141667  12.24183069]]","[[0.         1.83143027]
 [0.1        0.95964929]
 [0.2        0.89840441]
 [0.3        1.91185951]
 [0.4        0.53797914]
 [0.5        1.77700648]
 [0.6        0.80918408]
 [0.7        0.77945945]
 [0.8        0.91359537]
 [0.9        0.85324143]
 [1.         0.01420072]
 [1.1        1.17171594]
 [1.14141667 0.79271144]]",1,0.368
8730571689,f,19,english,5,3,english,2024-01-25 10:40:25.221683,False,1,89,sounds\french\audio/french_113.wav,"[[  0.          51.06943886]
 [  0.1         24.37567111]
 [  0.2        -30.40960405]
 [  0.3        -91.25272525]
 [  0.4         87.90673924]
 [  0.5          2.42955661]
 [  0.6         36.08285451]
 [  0.7        -99.48293301]
 [  0.8         59.12958731]
 [  0.9        -71.36695162]
 [  1.         -86.60100387]
 [  1.1        -70.30574561]
 [  1.14141667  72.13764249]]","[[0.         1.16712097]
 [0.1        0.22717449]
 [0.2        0.5815837 ]
 [0.3        0.50497114]
 [0.4        1.37233966]
 [0.5        1.42439941]
 [0.6        1.26104805]
 [0.7        1.48988751]
 [0.8        1.64050353]
 [0.9        1.39380246]
 [1.         1.34922295]
 [1.1        0.5132175 ]
 [1.14141667 0.46186768]]",0,0.155
8730571689,f,19,english,5,3,english,2024-01-25 10:40:25.221683,False,1,90,sounds\french\audio/french_557.wav,"[[  0.          87.75716143]
 [  0.1         75.58973606]
 [  0.2        -10.41118754]
 [  0.3        -48.91892045]
 [  0.4        -17.3468807 ]
 [  0.5         34.22726799]
 [  0.6        -77.53700308]
 [  0.7         78.68416949]
 [  0.8        -43.34644419]
 [  0.9         68.78190397]
 [  1.         -59.83661076]
 [  1.1        -25.29215861]
 [  1.14141667  62.84029703]]","[[0.         1.51726274]
 [0.1        0.82672788]
 [0.2        0.29594779]
 [0.3        1.45862429]
 [0.4        0.77182158]
 [0.5        0.29571527]
 [0.6        1.00868641]
 [0.7        0.49328713]
 [0.8        0.40883898]
 [0.9        1.05980011]
 [1.         1.00265193]
 [1.1        0.2775648 ]
 [1.14141667 0.76714815]]",1,2.396
8730571689,f,19,english,5,3,english,2024-01-25 10:40:25.221683,False,1,91,sounds\french\audio/french_965.wav,"[[  0.         -48.58162181]
 [  0.1         47.6871057 ]
 [  0.2         23.95676838]
 [  0.3        -24.73791069]
 [  0.4         88.65790889]
 [  0.5        -99.17119216]
 [  0.6         34.90627437]
 [  0.7         25.78663671]
 [  0.8         29.63617464]
 [  0.9         78.54761734]
 [  1.          89.6715392 ]
 [  1.1         52.66680317]
 [  1.14141667 -91.61447482]]","[[0.         0.70059107]
 [0.1        1.78470564]
 [0.2        0.47543709]
 [0.3        1.78680006]
 [0.4        0.5678587 ]
 [0.5        1.43378545]
 [0.6        0.13629267]
 [0.7        0.97611612]
 [0.8        0.2968179 ]
 [0.9        1.84395649]
 [1.         0.06154245]
 [1.1        0.24306075]
 [1.14141667 0.32609014]]",0,0.527
8730571689,f,19,english,5,3,english,2024-01-25 10:40:25.221683,False,1,92,sounds\french\audio/french_699.wav,"[[  0.         -12.30067292]
 [  0.1         36.78977735]
 [  0.2        -92.85505099]
 [  0.3         79.08429956]
 [  0.4        -94.45731791]
 [  0.5         86.94372215]
 [  0.6         64.87909745]
 [  0.7        -10.59653747]
 [  0.8        -13.88055644]
 [  0.9        -79.28505603]
 [  1.          85.40525959]
 [  1.1         37.59232623]
 [  1.14141667 -13.77587954]]","[[0.         1.22115216]
 [0.1        0.46578941]
 [0.2        0.7393451 ]
 [0.3        1.0436156 ]
 [0.4        1.85215008]
 [0.5        1.35426274]
 [0.6        0.90062394]
 [0.7        1.19660978]
 [0.8        1.64484137]
 [0.9        1.90071567]
 [1.         0.68624617]
 [1.1        0.4882198 ]
 [1.14141667 0.37805744]]",0,0.595
8730571689,f,19,english,5,3,english,2024-01-25 10:40:25.221683,False,1,93,sounds\french\audio/french_799.wav,"[[  0.         -56.16381434]
 [  0.1         55.72277359]
 [  0.2        -63.72861715]
 [  0.3        -58.21079779]
 [  0.4        -25.67227081]
 [  0.5         20.69847518]
 [  0.6         45.01998872]
 [  0.7         22.46603556]
 [  0.8        -17.43268178]
 [  0.9         58.43815332]
 [  1.         -80.51432091]
 [  1.1         18.42694854]
 [  1.14141667  72.41767009]]","[[0.         0.35549087]
 [0.1        1.33103876]
 [0.2        0.55396793]
 [0.3        1.44160278]
 [0.4        1.42625827]
 [0.5        1.60864164]
 [0.6        1.99235769]
 [0.7        0.21682987]
 [0.8        0.03742808]
 [0.9        0.39795677]
 [1.         1.13175188]
 [1.1        0.32326825]
 [1.14141667 1.7503177 ]]",1,0.886
8730571689,f,19,english,5,3,english,2024-01-25 10:40:25.221683,False,1,94,sounds\french\audio/french_674.wav,"[[  0.          13.4877762 ]
 [  0.1        -72.71286041]
 [  0.2         25.25285257]
 [  0.3        -18.45415803]
 [  0.4        -57.71656378]
 [  0.5        -73.49162441]
 [  0.6         -1.85504026]
 [  0.7        -87.1412738 ]
 [  0.8        -35.96348726]
 [  0.9        -95.42427093]
 [  1.         -14.54067517]
 [  1.1        -75.28735124]
 [  1.14141667 -11.45770391]]","[[0.         1.49229311]
 [0.1        0.38255489]
 [0.2        1.8939445 ]
 [0.3        1.35404975]
 [0.4        1.2879641 ]
 [0.5        1.75487552]
 [0.6        0.89488389]
 [0.7        0.66012514]
 [0.8        0.42860271]
 [0.9        0.95081491]
 [1.         1.48593936]
 [1.1        0.17038498]
 [1.14141667 1.04908179]]",0,0.259
8730571689,f,19,english,5,3,english,2024-01-25 10:40:25.221683,False,1,95,sounds\french\audio/french_684.wav,"[[  0.         -88.96240825]
 [  0.1        -54.37508207]
 [  0.2        -91.57905397]
 [  0.3        -58.85501017]
 [  0.4         44.82481671]
 [  0.5        -70.60806513]
 [  0.6         94.32148608]
 [  0.7        -17.32520236]
 [  0.8         29.06027198]
 [  0.9        -57.57833097]
 [  1.         -48.20877129]
 [  1.1         58.87949866]
 [  1.14141667 -11.47571774]]","[[0.         1.78476448]
 [0.1        0.02576857]
 [0.2        1.04724647]
 [0.3        0.76694618]
 [0.4        0.80269361]
 [0.5        0.84512097]
 [0.6        0.97813642]
 [0.7        0.54666182]
 [0.8        0.58446507]
 [0.9        0.42247579]
 [1.         0.8068102 ]
 [1.1        0.07609372]
 [1.14141667 1.952562  ]]",1,0.539
8730571689,f,19,english,5,3,english,2024-01-25 10:40:25.221683,False,1,96,sounds\french\audio/french_718.wav,"[[  0.          33.83974481]
 [  0.1         75.60927008]
 [  0.2          5.42570617]
 [  0.3        -86.49968927]
 [  0.4        -82.66009843]
 [  0.5         -7.42138801]
 [  0.6         22.39546771]
 [  0.7        -75.7468097 ]
 [  0.8         56.54879527]
 [  0.9         22.08965796]
 [  1.           0.92889237]
 [  1.1        -96.09137466]
 [  1.14141667 -27.56610434]]","[[0.         1.83484525]
 [0.1        0.41567784]
 [0.2        1.12655023]
 [0.3        1.26248076]
 [0.4        1.75908703]
 [0.5        1.52482075]
 [0.6        1.87690382]
 [0.7        0.07228786]
 [0.8        1.60832124]
 [0.9        1.35064447]
 [1.         1.67650518]
 [1.1        1.75605442]
 [1.14141667 1.42532868]]",0,0.492
8730571689,f,19,english,5,3,english,2024-01-25 10:40:25.221683,False,1,97,sounds\french\audio/french_971.wav,"[[  0.          -8.46883655]
 [  0.1        -12.9534882 ]
 [  0.2         62.91682525]
 [  0.3        -60.44671384]
 [  0.4        -50.83443349]
 [  0.5         92.20051938]
 [  0.6         17.63420524]
 [  0.7         10.3493947 ]
 [  0.8        -44.64530306]
 [  0.9        -38.65867239]
 [  1.          72.80184957]
 [  1.1         25.85210713]
 [  1.14141667   2.09813812]]","[[0.         1.19544877]
 [0.1        1.25532634]
 [0.2        0.84653747]
 [0.3        1.79256296]
 [0.4        0.89550305]
 [0.5        0.41767694]
 [0.6        0.61206963]
 [0.7        0.5938552 ]
 [0.8        1.80141032]
 [0.9        1.57257532]
 [1.         0.31851781]
 [1.1        1.34401586]
 [1.14141667 0.85754184]]",1,3.015
8730571689,f,19,english,5,3,english,2024-01-25 10:40:25.221683,False,1,98,sounds\french\audio/french_903.wav,"[[  0.         -30.9940869 ]
 [  0.1        -51.85288644]
 [  0.2          9.37565232]
 [  0.3        -65.56040136]
 [  0.4        -20.59983465]
 [  0.5        -81.87958144]
 [  0.6         -2.02758668]
 [  0.7        -50.52631335]
 [  0.8         61.79138453]
 [  0.9         14.74849978]
 [  1.          90.51411256]
 [  1.1         21.53536294]
 [  1.14141667 -52.68287573]]","[[0.         1.1028355 ]
 [0.1        1.41515079]
 [0.2        0.09010735]
 [0.3        0.80440488]
 [0.4        1.66392086]
 [0.5        1.51454605]
 [0.6        1.51747342]
 [0.7        1.16263681]
 [0.8        0.22680531]
 [0.9        1.67852395]
 [1.         1.15648316]
 [1.1        0.37061547]
 [1.14141667 1.51798738]]",0,0.319
8730571689,f,19,english,5,3,english,2024-01-25 10:40:25.221683,False,1,99,sounds\french\audio/french_61.wav,"[[  0.          41.87992751]
 [  0.1         50.01429837]
 [  0.2         78.41281703]
 [  0.3         70.942707  ]
 [  0.4          6.43514776]
 [  0.5         81.12101614]
 [  0.6        -70.01679423]
 [  0.7         46.72667831]
 [  0.8        -54.13188201]
 [  0.9        -63.1082098 ]
 [  1.           9.65318656]
 [  1.1         -4.6968319 ]
 [  1.14141667 -73.64232026]]","[[0.         0.15859946]
 [0.1        0.0345307 ]
 [0.2        1.61149795]
 [0.3        0.93558847]
 [0.4        0.85490183]
 [0.5        1.46257569]
 [0.6        0.3355041 ]
 [0.7        1.1796592 ]
 [0.8        0.85418156]
 [0.9        1.72427487]
 [1.         1.58200109]
 [1.1        0.07311123]
 [1.14141667 1.36717067]]",0,0.849
8730571689,f,19,english,5,3,english,2024-01-25 10:40:25.221683,False,1,100,sounds\french\audio/french_449.wav,"[[  0.          48.07237211]
 [  0.1         10.50044698]
 [  0.2         99.10264915]
 [  0.3         44.97033086]
 [  0.4        -41.32684653]
 [  0.5        -79.7525466 ]
 [  0.6         50.40932694]
 [  0.7         52.6193965 ]
 [  0.8        -15.31474709]
 [  0.9        -28.04173939]
 [  1.           9.78914311]
 [  1.1        -78.00931625]
 [  1.14141667 -11.66917093]]","[[0.         1.574298  ]
 [0.1        0.465888  ]
 [0.2        1.49470087]
 [0.3        1.26780995]
 [0.4        0.48746737]
 [0.5        0.73531069]
 [0.6        0.94941626]
 [0.7        1.08611184]
 [0.8        0.81949253]
 [0.9        1.27162102]
 [1.         1.38692301]
 [1.1        0.89469579]
 [1.14141667 1.6806745 ]]",0,0.41
8730571689,f,19,english,5,3,english,2024-01-25 10:40:25.221683,False,1,101,sounds\french\audio/french_308.wav,"[[  0.         -24.76470346]
 [  0.1        -75.39031031]
 [  0.2        -67.15595446]
 [  0.3         73.28346942]
 [  0.4        -63.76474969]
 [  0.5         10.17114781]
 [  0.6          4.96018727]
 [  0.7        -80.99576467]
 [  0.8          5.85848448]
 [  0.9        -81.91810292]
 [  1.         -78.18540506]
 [  1.1        -63.38399377]
 [  1.14141667  -3.56177279]]","[[0.         1.59064555]
 [0.1        1.09884897]
 [0.2        1.36958326]
 [0.3        0.49848866]
 [0.4        0.29216268]
 [0.5        0.8224921 ]
 [0.6        1.0263182 ]
 [0.7        1.21407391]
 [0.8        0.36326554]
 [0.9        1.1553967 ]
 [1.         0.19027312]
 [1.1        0.38270044]
 [1.14141667 1.55093722]]",1,0.356
8730571689,f,19,english,5,3,english,2024-01-25 10:40:25.221683,False,1,102,sounds\french\audio/french_504.wav,"[[  0.         -41.82140768]
 [  0.1         97.07530933]
 [  0.2         61.02388002]
 [  0.3        -27.18611965]
 [  0.4        -58.17917059]
 [  0.5          9.56156567]
 [  0.6         98.52665159]
 [  0.7         98.98825478]
 [  0.8         94.82792761]
 [  0.9         75.17568326]
 [  1.         -46.15164739]
 [  1.1         73.71983811]
 [  1.14141667  48.12743652]]","[[0.         1.84770239]
 [0.1        0.49171838]
 [0.2        0.47472033]
 [0.3        1.44367117]
 [0.4        0.04505535]
 [0.5        0.75389127]
 [0.6        1.37136318]
 [0.7        0.89733916]
 [0.8        1.83341516]
 [0.9        0.71992929]
 [1.         0.35031196]
 [1.1        0.61578475]
 [1.14141667 0.73246634]]",1,1.686
8730571689,f,19,english,5,3,english,2024-01-25 10:40:25.221683,False,1,103,sounds\french\audio/french_527.wav,"[[  0.          82.21391649]
 [  0.1          8.23446924]
 [  0.2        -66.78536599]
 [  0.3         91.71269389]
 [  0.4         38.34506198]
 [  0.5         11.54452605]
 [  0.6         96.28222232]
 [  0.7        -47.65455755]
 [  0.8        -79.10134883]
 [  0.9         28.80832425]
 [  1.          42.88340192]
 [  1.1        -29.0066371 ]
 [  1.14141667 -55.47213333]]","[[0.         0.16629569]
 [0.1        0.53206339]
 [0.2        0.7302175 ]
 [0.3        1.32409314]
 [0.4        0.73265348]
 [0.5        1.69253874]
 [0.6        1.17892536]
 [0.7        0.38924981]
 [0.8        1.19695385]
 [0.9        0.99788434]
 [1.         1.07124619]
 [1.1        1.45535326]
 [1.14141667 1.05284773]]",0,0.235
8730571689,f,19,english,5,3,english,2024-01-25 10:40:25.221683,False,1,104,sounds\french\audio/french_480.wav,"[[  0.          97.66630041]
 [  0.1        -79.64204264]
 [  0.2         24.53990437]
 [  0.3         57.16937352]
 [  0.4        -49.5727771 ]
 [  0.5         20.93938074]
 [  0.6        -18.76856636]
 [  0.7        -13.01913145]
 [  0.8        -32.81669271]
 [  0.9         -8.39241944]
 [  1.          49.55967768]
 [  1.1        -59.93050537]
 [  1.14141667  85.43104854]]","[[0.         1.18828574]
 [0.1        0.75698947]
 [0.2        1.02849864]
 [0.3        1.04831748]
 [0.4        0.01270645]
 [0.5        0.22737289]
 [0.6        1.19517064]
 [0.7        1.96735092]
 [0.8        1.02544343]
 [0.9        0.41084546]
 [1.         1.65917595]
 [1.1        1.87241821]
 [1.14141667 1.8838    ]]",1,0.264
8730571689,f,19,english,5,3,english,2024-01-25 10:40:25.221683,False,1,105,sounds\french\audio/french_987.wav,"[[  0.          93.34375743]
 [  0.1          2.33597737]
 [  0.2        -20.41507514]
 [  0.3         20.11504777]
 [  0.4        -45.44674631]
 [  0.5         43.68235221]
 [  0.6         45.61538995]
 [  0.7          9.26168888]
 [  0.8        -81.27003637]
 [  0.9         83.67066648]
 [  1.         -82.52176091]
 [  1.1        -88.64619633]
 [  1.14141667 -23.61840795]]","[[0.         0.73630152]
 [0.1        0.83046349]
 [0.2        0.92633409]
 [0.3        0.57479289]
 [0.4        1.77561818]
 [0.5        1.63901309]
 [0.6        1.78979007]
 [0.7        0.34807002]
 [0.8        0.31053438]
 [0.9        0.87882318]
 [1.         0.97272554]
 [1.1        1.50609738]
 [1.14141667 0.63259854]]",0,0.323
8730571689,f,19,english,5,3,english,2024-01-25 10:40:25.221683,False,1,106,sounds\french\audio/french_511.wav,"[[  0.          68.45765267]
 [  0.1         -8.95520239]
 [  0.2         44.78754761]
 [  0.3         48.7554288 ]
 [  0.4         41.20564236]
 [  0.5         74.46096489]
 [  0.6        -92.19481722]
 [  0.7         70.54554277]
 [  0.8        -89.98216972]
 [  0.9         96.36310752]
 [  1.         -57.15318896]
 [  1.1        -15.3628732 ]
 [  1.14141667 -40.17140688]]","[[0.         0.68906271]
 [0.1        1.35083961]
 [0.2        0.86739012]
 [0.3        0.74272649]
 [0.4        1.27472163]
 [0.5        0.69400452]
 [0.6        0.63157953]
 [0.7        1.62489355]
 [0.8        1.1631817 ]
 [0.9        1.80808524]
 [1.         1.87485338]
 [1.1        0.63700297]
 [1.14141667 1.56626139]]",0,5.965
8730571689,f,19,english,5,3,english,2024-01-25 10:40:25.221683,False,1,107,sounds\french\audio/french_268.wav,"[[  0.         -90.17309363]
 [  0.1          7.72676812]
 [  0.2        -17.47785998]
 [  0.3        -68.38186843]
 [  0.4        -68.90464699]
 [  0.5        -60.03371115]
 [  0.6         54.95042453]
 [  0.7        -61.89102348]
 [  0.8        -92.43644205]
 [  0.9        -85.74845922]
 [  1.         -67.45378327]
 [  1.1        -69.51500294]
 [  1.14141667  25.86880955]]","[[0.         1.87145696]
 [0.1        1.66378637]
 [0.2        0.26930884]
 [0.3        1.52031218]
 [0.4        0.92093983]
 [0.5        1.79094401]
 [0.6        1.54867869]
 [0.7        1.2478237 ]
 [0.8        0.54208793]
 [0.9        0.78885357]
 [1.         1.38787262]
 [1.1        1.61364817]
 [1.14141667 0.52503336]]",1,2.003
8730571689,f,19,english,5,3,english,2024-01-25 10:40:25.221683,False,1,108,sounds\french\audio/french_550.wav,"[[  0.          72.6201006 ]
 [  0.1         55.97657534]
 [  0.2         13.52543227]
 [  0.3        -81.349724  ]
 [  0.4         99.86498811]
 [  0.5         16.87534827]
 [  0.6         66.9812192 ]
 [  0.7        -75.38343533]
 [  0.8          5.7329485 ]
 [  0.9         58.05585557]
 [  1.          -3.33377945]
 [  1.1        -43.74893274]
 [  1.14141667 -86.42154795]]","[[0.         1.67033206]
 [0.1        0.31629047]
 [0.2        1.6455345 ]
 [0.3        0.71516618]
 [0.4        1.73006106]
 [0.5        0.0344878 ]
 [0.6        0.63862909]
 [0.7        1.07196046]
 [0.8        1.84433576]
 [0.9        0.95400442]
 [1.         0.19158544]
 [1.1        1.26583767]
 [1.14141667 0.99784974]]",1,2.212
8730571689,f,19,english,5,3,english,2024-01-25 10:40:25.221683,False,1,109,sounds\french\audio/french_71.wav,"[[  0.          78.85650806]
 [  0.1         98.66013561]
 [  0.2         40.76629431]
 [  0.3         37.46576167]
 [  0.4         36.62059925]
 [  0.5        -15.30499106]
 [  0.6         13.92967978]
 [  0.7         41.98872019]
 [  0.8         86.5834428 ]
 [  0.9        -38.49262182]
 [  1.          17.09638043]
 [  1.1        -31.08676799]
 [  1.14141667  -1.70593486]]","[[0.         0.8693317 ]
 [0.1        0.2047511 ]
 [0.2        0.17301427]
 [0.3        0.67884544]
 [0.4        0.49967362]
 [0.5        0.06276407]
 [0.6        1.96544584]
 [0.7        0.03052065]
 [0.8        0.2363001 ]
 [0.9        0.76897263]
 [1.         0.53014972]
 [1.1        0.03830657]
 [1.14141667 1.08106094]]",1,1.194
8730571689,f,19,english,5,3,english,2024-01-25 10:40:25.221683,False,1,110,sounds\french\audio/french_184.wav,"[[  0.         -84.92815631]
 [  0.1         -7.99207407]
 [  0.2        -18.4917418 ]
 [  0.3         31.7569672 ]
 [  0.4         73.45239684]
 [  0.5         63.78481378]
 [  0.6        -88.72210062]
 [  0.7         55.31278942]
 [  0.8         -1.21214349]
 [  0.9        -66.26493837]
 [  1.          74.70180172]
 [  1.1        -55.73297769]
 [  1.14141667 -79.54970617]]","[[0.         0.89560322]
 [0.1        1.85807804]
 [0.2        0.96896023]
 [0.3        0.91145262]
 [0.4        0.44669863]
 [0.5        1.38395144]
 [0.6        0.30460451]
 [0.7        0.9443525 ]
 [0.8        0.95985029]
 [0.9        1.97618629]
 [1.         1.42134703]
 [1.1        1.90740786]
 [1.14141667 0.4560289 ]]",0,0.428
8730571689,f,19,english,5,3,english,2024-01-25 10:40:25.221683,False,1,111,sounds\french\audio/french_52.wav,"[[  0.          93.38164969]
 [  0.1         -4.17463196]
 [  0.2         43.01045584]
 [  0.3         79.89764716]
 [  0.4         89.53615732]
 [  0.5         -1.91048344]
 [  0.6         -9.63392165]
 [  0.7        -91.20147798]
 [  0.8        -22.16876699]
 [  0.9         26.46243178]
 [  1.         -96.25408509]
 [  1.1        -45.87026752]
 [  1.14141667 -15.0624862 ]]","[[0.         0.21743143]
 [0.1        1.66269787]
 [0.2        0.38714673]
 [0.3        1.29835481]
 [0.4        1.7255644 ]
 [0.5        0.55155407]
 [0.6        0.27578942]
 [0.7        1.40308441]
 [0.8        1.87234948]
 [0.9        1.88038075]
 [1.         1.06731664]
 [1.1        1.74934034]
 [1.14141667 1.38742842]]",0,0.58
8730571689,f,19,english,5,3,english,2024-01-25 10:40:25.221683,False,1,112,sounds\french\audio/french_808.wav,"[[ 0.00000000e+00  9.49972315e+00]
 [ 1.00000000e-01 -3.16348767e+00]
 [ 2.00000000e-01  2.58164380e+01]
 [ 3.00000000e-01  5.80208500e+01]
 [ 4.00000000e-01  4.02357313e+01]
 [ 5.00000000e-01 -7.52309438e-02]
 [ 6.00000000e-01  3.03624230e+01]
 [ 7.00000000e-01 -7.96646620e+01]
 [ 8.00000000e-01 -9.40191844e+01]
 [ 9.00000000e-01  5.10290891e+01]
 [ 1.00000000e+00 -3.02984752e+01]
 [ 1.10000000e+00 -8.41581543e+01]
 [ 1.14141667e+00  5.34166874e+01]]","[[0.         1.11576728]
 [0.1        0.47240736]
 [0.2        1.01512058]
 [0.3        1.31233941]
 [0.4        0.13872257]
 [0.5        1.22367784]
 [0.6        0.7368745 ]
 [0.7        1.19529711]
 [0.8        0.4901866 ]
 [0.9        1.57392299]
 [1.         0.31335607]
 [1.1        0.84962475]
 [1.14141667 1.11832837]]",0,0.403
8730571689,f,19,english,5,3,english,2024-01-25 10:40:25.221683,False,1,113,sounds\french\audio/french_501.wav,"[[  0.          70.80325455]
 [  0.1         32.99532509]
 [  0.2        -59.91289339]
 [  0.3         38.55218779]
 [  0.4         41.33808145]
 [  0.5         99.48150634]
 [  0.6        -45.98669111]
 [  0.7        -62.891142  ]
 [  0.8         50.81821258]
 [  0.9        -20.76584947]
 [  1.          61.69357739]
 [  1.1        -40.14477821]
 [  1.14141667 -46.23855813]]","[[0.         0.55356198]
 [0.1        0.17154651]
 [0.2        0.72125866]
 [0.3        1.79487967]
 [0.4        1.32571503]
 [0.5        1.42540593]
 [0.6        0.08406428]
 [0.7        0.07826428]
 [0.8        0.42577733]
 [0.9        1.35097126]
 [1.         0.3676293 ]
 [1.1        0.57090448]
 [1.14141667 0.88663615]]",1,0.227
8730571689,f,19,english,5,3,english,2024-01-25 10:40:25.221683,False,1,114,sounds\french\audio/french_522.wav,"[[  0.          42.17654984]
 [  0.1         35.32154358]
 [  0.2         41.16735521]
 [  0.3         19.52368749]
 [  0.4        -54.39246122]
 [  0.5         94.98899794]
 [  0.6        -27.72769651]
 [  0.7        -89.66079505]
 [  0.8        -43.87277896]
 [  0.9         80.86671181]
 [  1.         -94.11337917]
 [  1.1         18.06516358]
 [  1.14141667 -14.64977402]]","[[0.         0.43845661]
 [0.1        1.47394763]
 [0.2        1.4513676 ]
 [0.3        0.36689019]
 [0.4        0.57240118]
 [0.5        0.88025618]
 [0.6        0.50479501]
 [0.7        0.37869223]
 [0.8        1.44108388]
 [0.9        0.14120379]
 [1.         1.05720845]
 [1.1        1.99017269]
 [1.14141667 0.84262259]]",1,0.774
8730571689,f,19,english,5,3,english,2024-01-25 10:40:25.221683,False,1,115,sounds\french\audio/french_541.wav,"[[  0.           2.74676595]
 [  0.1         83.23215627]
 [  0.2        -19.5310813 ]
 [  0.3        -37.06653527]
 [  0.4         10.34316696]
 [  0.5        -44.77981601]
 [  0.6        -15.46722486]
 [  0.7        -30.03274479]
 [  0.8         32.22050065]
 [  0.9        -28.45977879]
 [  1.         -97.18959003]
 [  1.1         46.93949027]
 [  1.14141667  51.98067408]]","[[0.         1.22388571]
 [0.1        0.59489091]
 [0.2        0.0302362 ]
 [0.3        1.44440055]
 [0.4        0.76671296]
 [0.5        1.21683481]
 [0.6        0.28594328]
 [0.7        1.70659675]
 [0.8        0.5056851 ]
 [0.9        1.08036446]
 [1.         1.82748837]
 [1.1        1.15452478]
 [1.14141667 0.582253  ]]",0,0.973
8730571689,f,19,english,5,3,english,2024-01-25 10:40:25.221683,False,1,116,sounds\french\audio/french_232.wav,"[[  0.          36.09628774]
 [  0.1         70.77342165]
 [  0.2         92.70412942]
 [  0.3         11.2091004 ]
 [  0.4         97.58748495]
 [  0.5         34.99158462]
 [  0.6         83.35627055]
 [  0.7         54.22162088]
 [  0.8         32.72297276]
 [  0.9          5.03567369]
 [  1.         -23.14752626]
 [  1.1        -11.42184493]
 [  1.14141667 -77.93527489]]","[[0.         0.41820771]
 [0.1        0.42448846]
 [0.2        1.53853672]
 [0.3        1.60298784]
 [0.4        1.81399086]
 [0.5        0.3805347 ]
 [0.6        1.83687399]
 [0.7        1.52559445]
 [0.8        0.94250496]
 [0.9        0.72452257]
 [1.         1.88926376]
 [1.1        0.29038285]
 [1.14141667 1.71088611]]",1,0.484
8730571689,f,19,english,5,3,english,2024-01-25 10:40:25.221683,False,1,117,sounds\french\audio/french_316.wav,"[[  0.         -12.35150473]
 [  0.1        -57.71955323]
 [  0.2        -23.70518109]
 [  0.3        -30.25273583]
 [  0.4         -1.94999705]
 [  0.5         31.73989536]
 [  0.6        -85.31776934]
 [  0.7         10.96594736]
 [  0.8        -63.85009412]
 [  0.9        -24.55332766]
 [  1.          11.20080051]
 [  1.1         59.4445927 ]
 [  1.14141667  51.5786605 ]]","[[0.         1.31203929]
 [0.1        1.95651638]
 [0.2        0.28891018]
 [0.3        0.36356292]
 [0.4        0.0390578 ]
 [0.5        1.33065027]
 [0.6        1.4200316 ]
 [0.7        0.11141775]
 [0.8        1.65984218]
 [0.9        0.45014395]
 [1.         0.76494991]
 [1.1        1.39303247]
 [1.14141667 1.44009832]]",1,0.583
8730571689,f,19,english,5,3,english,2024-01-25 10:40:25.221683,False,1,118,sounds\french\audio/french_328.wav,"[[  0.          70.39281279]
 [  0.1        -62.4365066 ]
 [  0.2         74.18889281]
 [  0.3          6.08253947]
 [  0.4         14.94897536]
 [  0.5        -45.91689169]
 [  0.6         51.00614237]
 [  0.7        -68.53703239]
 [  0.8         93.58528924]
 [  0.9         51.46046525]
 [  1.         -77.58470521]
 [  1.1        -72.45732105]
 [  1.14141667 -40.05577785]]","[[0.         1.11868874]
 [0.1        1.7831523 ]
 [0.2        0.37694606]
 [0.3        0.30173154]
 [0.4        1.08259473]
 [0.5        0.83879107]
 [0.6        0.64036349]
 [0.7        1.67880376]
 [0.8        1.29419858]
 [0.9        0.63702013]
 [1.         0.88742502]
 [1.1        0.08384723]
 [1.14141667 0.80959776]]",0,0.233
8730571689,f,19,english,5,3,english,2024-01-25 10:40:25.221683,False,1,119,sounds\french\audio/french_172.wav,"[[  0.          52.55822797]
 [  0.1         36.03304437]
 [  0.2         87.57540256]
 [  0.3         -1.02225297]
 [  0.4        -45.72834283]
 [  0.5        -78.07098029]
 [  0.6         66.92119406]
 [  0.7         54.13458116]
 [  0.8          9.25383275]
 [  0.9         84.2289997 ]
 [  1.         -92.0852474 ]
 [  1.1        -58.15058713]
 [  1.14141667 -93.51230148]]","[[0.         1.64690449]
 [0.1        1.13416013]
 [0.2        0.18828869]
 [0.3        1.03936139]
 [0.4        1.57744061]
 [0.5        0.88465221]
 [0.6        1.26318424]
 [0.7        0.93894817]
 [0.8        1.37261227]
 [0.9        0.51589031]
 [1.         0.04731792]
 [1.1        0.7131693 ]
 [1.14141667 0.70039891]]",1,0.456
8730571689,f,19,english,5,3,english,2024-01-25 10:40:25.221683,False,1,120,sounds\french\audio/french_878.wav,"[[  0.         -14.33769798]
 [  0.1         72.92809619]
 [  0.2         -6.62581365]
 [  0.3         79.64382411]
 [  0.4        -38.29472577]
 [  0.5         27.31257491]
 [  0.6        -99.613809  ]
 [  0.7        -28.5371841 ]
 [  0.8        -77.67063133]
 [  0.9         31.82360474]
 [  1.          39.51242376]
 [  1.1        -22.15845395]
 [  1.14141667 -13.60090041]]","[[0.         1.3925954 ]
 [0.1        0.36697913]
 [0.2        1.30460769]
 [0.3        1.26017801]
 [0.4        0.62557754]
 [0.5        1.14924897]
 [0.6        1.43572878]
 [0.7        1.9878771 ]
 [0.8        1.32028777]
 [0.9        0.83456614]
 [1.         0.85554915]
 [1.1        1.15382256]
 [1.14141667 1.46746731]]",1,1.224
