subj,sex,age,language,english,french,native_lang,date,practice,block,trial,stim,pitch,stretch,response,rt
8768944929,m,21,english,5,4,english,2024-02-01 10:32:41.968799,True,0,0,sounds\french\audio/french_410.wav,"[[  0.         -13.61010892]
 [  0.1         77.81547095]
 [  0.2         82.13695373]
 [  0.3        -16.93458416]
 [  0.4         -8.61826003]
 [  0.5        -33.26612631]
 [  0.6         40.79154832]
 [  0.7         66.55884445]
 [  0.8         86.34165637]
 [  0.9         91.11355202]
 [  1.         -30.27955269]
 [  1.1         52.51274623]
 [  1.14141667  95.54585368]]","[[0.         0.12499196]
 [0.1        1.21899276]
 [0.2        1.54170327]
 [0.3        0.12135823]
 [0.4        0.17314322]
 [0.5        0.58788453]
 [0.6        1.09892225]
 [0.7        0.15132796]
 [0.8        0.64125421]
 [0.9        0.30485539]
 [1.         0.74953125]
 [1.1        1.17085768]
 [1.14141667 1.8491146 ]]",0,5.079
8768944929,m,21,english,5,4,english,2024-02-01 10:32:41.968799,True,0,1,sounds\french\audio/french_116.wav,"[[  0.         -36.99991361]
 [  0.1        -56.50097299]
 [  0.2        -21.98377289]
 [  0.3        -42.03621308]
 [  0.4        -88.55190861]
 [  0.5        -46.74535713]
 [  0.6         39.6792949 ]
 [  0.7         23.11771823]
 [  0.8        -83.67169345]
 [  0.9        -59.64205598]
 [  1.          83.70320104]
 [  1.1        -55.10526953]
 [  1.14141667  83.73638058]]","[[0.         0.39103735]
 [0.1        0.52639994]
 [0.2        0.98743434]
 [0.3        1.50732894]
 [0.4        0.88822468]
 [0.5        0.3631577 ]
 [0.6        0.09954352]
 [0.7        1.92445485]
 [0.8        0.86818207]
 [0.9        0.94464096]
 [1.         1.65962345]
 [1.1        0.87989703]
 [1.14141667 1.38818871]]",1,0.654
8768944929,m,21,english,5,4,english,2024-02-01 10:32:41.968799,True,0,2,sounds\french\audio/french_5.wav,"[[  0.          67.84600602]
 [  0.1         36.11985477]
 [  0.2         27.42056963]
 [  0.3        -51.17670217]
 [  0.4        -40.37414298]
 [  0.5        -24.2536038 ]
 [  0.6        -18.35468105]
 [  0.7         -4.97614975]
 [  0.8         48.20606938]
 [  0.9         15.99502717]
 [  1.         -62.82085154]
 [  1.1         -6.95701983]
 [  1.14141667 -66.75848558]]","[[0.         1.17631247]
 [0.1        0.77880018]
 [0.2        1.26171942]
 [0.3        1.79238294]
 [0.4        0.78218598]
 [0.5        0.94203558]
 [0.6        1.40818336]
 [0.7        1.58219359]
 [0.8        0.2158889 ]
 [0.9        1.46917473]
 [1.         1.96668642]
 [1.1        0.54762735]
 [1.14141667 0.46814151]]",0,0.787
8768944929,m,21,english,5,4,english,2024-02-01 10:32:41.968799,False,1,3,sounds\french\audio/french_479.wav,"[[  0.          -1.20230986]
 [  0.1        -97.64332549]
 [  0.2        -86.19449335]
 [  0.3         -7.49654588]
 [  0.4         35.98913636]
 [  0.5         18.23013073]
 [  0.6        -54.98117387]
 [  0.7         93.83807515]
 [  0.8        -38.50737552]
 [  0.9        -46.41686699]
 [  1.          22.94872594]
 [  1.1         74.55146343]
 [  1.14141667  20.37228089]]","[[0.         0.20404821]
 [0.1        1.69681   ]
 [0.2        0.56198468]
 [0.3        0.43639433]
 [0.4        1.01923849]
 [0.5        1.87276459]
 [0.6        0.12831679]
 [0.7        1.97624929]
 [0.8        1.70037019]
 [0.9        1.50303773]
 [1.         1.59230137]
 [1.1        0.57712271]
 [1.14141667 1.6445358 ]]",0,0.477
8768944929,m,21,english,5,4,english,2024-02-01 10:32:41.968799,False,1,4,sounds\french\audio/french_931.wav,"[[  0.         -69.01025024]
 [  0.1         55.0215027 ]
 [  0.2        -87.91788028]
 [  0.3        -33.0393784 ]
 [  0.4        -72.68752112]
 [  0.5        -31.87844098]
 [  0.6        -82.83878474]
 [  0.7         33.5640508 ]
 [  0.8        -20.37118135]
 [  0.9         28.67350866]
 [  1.         -45.8203528 ]
 [  1.1          1.98964677]
 [  1.14141667  44.24014335]]","[[0.         1.27357492]
 [0.1        1.07794659]
 [0.2        0.81824311]
 [0.3        1.31896505]
 [0.4        0.67025176]
 [0.5        1.54286398]
 [0.6        0.23472784]
 [0.7        1.16459242]
 [0.8        0.71129123]
 [0.9        0.02939642]
 [1.         0.30340473]
 [1.1        1.35857862]
 [1.14141667 1.98946576]]",1,0.626
8768944929,m,21,english,5,4,english,2024-02-01 10:32:41.968799,False,1,5,sounds\french\audio/french_193.wav,"[[  0.          55.86434558]
 [  0.1         35.17438078]
 [  0.2         64.94693253]
 [  0.3        -11.0808931 ]
 [  0.4         17.49954283]
 [  0.5         51.1230799 ]
 [  0.6         91.81738107]
 [  0.7        -33.71615966]
 [  0.8        -99.34494989]
 [  0.9        -99.91903914]
 [  1.         -40.8900896 ]
 [  1.1          9.96341327]
 [  1.14141667  62.22902788]]","[[0.         1.84623427]
 [0.1        1.45871927]
 [0.2        1.31961654]
 [0.3        0.19803525]
 [0.4        0.24071709]
 [0.5        0.12833577]
 [0.6        0.47445089]
 [0.7        0.83124863]
 [0.8        0.32718168]
 [0.9        0.67506289]
 [1.         1.64349132]
 [1.1        1.39601753]
 [1.14141667 0.95131389]]",0,0.49
8768944929,m,21,english,5,4,english,2024-02-01 10:32:41.968799,False,1,6,sounds\french\audio/french_793.wav,"[[  0.           0.61381663]
 [  0.1         92.05397349]
 [  0.2         23.63919485]
 [  0.3         94.74337544]
 [  0.4         -4.85245867]
 [  0.5        -56.1365957 ]
 [  0.6        -40.34456192]
 [  0.7         -4.58487531]
 [  0.8         51.30918321]
 [  0.9         30.18198808]
 [  1.          16.73684117]
 [  1.1         54.14621512]
 [  1.14141667 -25.30748168]]","[[0.         0.26180926]
 [0.1        1.13910564]
 [0.2        0.88267261]
 [0.3        0.03736754]
 [0.4        0.51925045]
 [0.5        0.99207172]
 [0.6        0.90668955]
 [0.7        1.38132635]
 [0.8        0.53966259]
 [0.9        0.34803119]
 [1.         0.51822744]
 [1.1        0.88562178]
 [1.14141667 1.30234483]]",1,0.54
8768944929,m,21,english,5,4,english,2024-02-01 10:32:41.968799,False,1,7,sounds\french\audio/french_390.wav,"[[  0.           8.11578958]
 [  0.1         39.94171881]
 [  0.2         80.57609744]
 [  0.3        -13.82348855]
 [  0.4        -26.98289084]
 [  0.5         -5.81404193]
 [  0.6         52.64589619]
 [  0.7         62.15943338]
 [  0.8        -17.56819824]
 [  0.9        -76.63953122]
 [  1.         -64.36193894]
 [  1.1        -78.09182739]
 [  1.14141667 -14.8487849 ]]","[[0.         0.20844883]
 [0.1        1.32391978]
 [0.2        1.70464672]
 [0.3        0.17193423]
 [0.4        1.3879851 ]
 [0.5        1.24417137]
 [0.6        0.90764787]
 [0.7        1.32078245]
 [0.8        0.83829635]
 [0.9        0.35252059]
 [1.         0.30961676]
 [1.1        0.82109579]
 [1.14141667 1.78955346]]",1,0.605
8768944929,m,21,english,5,4,english,2024-02-01 10:32:41.968799,False,1,8,sounds\french\audio/french_997.wav,"[[  0.          10.01615928]
 [  0.1        -31.7574677 ]
 [  0.2          2.7154438 ]
 [  0.3        -79.91650454]
 [  0.4          8.77466148]
 [  0.5        -16.22256487]
 [  0.6        -60.89392268]
 [  0.7        -24.52842539]
 [  0.8        -19.72610301]
 [  0.9        -89.9387941 ]
 [  1.          38.50843253]
 [  1.1         62.26606254]
 [  1.14141667  46.03408292]]","[[0.         1.51695933]
 [0.1        1.40378883]
 [0.2        1.52016823]
 [0.3        1.1088133 ]
 [0.4        0.49857821]
 [0.5        1.0829469 ]
 [0.6        0.81899516]
 [0.7        0.89305884]
 [0.8        0.05024955]
 [0.9        0.47019022]
 [1.         0.78624029]
 [1.1        1.1092027 ]
 [1.14141667 0.99852276]]",1,1.761
8768944929,m,21,english,5,4,english,2024-02-01 10:32:41.968799,False,1,9,sounds\french\audio/french_240.wav,"[[  0.          79.28024055]
 [  0.1         39.9173306 ]
 [  0.2         -2.70400976]
 [  0.3         39.39701163]
 [  0.4         79.19766018]
 [  0.5        -76.7629426 ]
 [  0.6        -31.05375973]
 [  0.7         31.78885255]
 [  0.8         44.52880411]
 [  0.9         96.26715937]
 [  1.          91.69005138]
 [  1.1         13.24674088]
 [  1.14141667  -8.33706819]]","[[0.         1.48897581]
 [0.1        0.75408064]
 [0.2        0.39468673]
 [0.3        1.23817767]
 [0.4        0.44750026]
 [0.5        0.89933765]
 [0.6        0.57627918]
 [0.7        1.06601512]
 [0.8        1.28390236]
 [0.9        1.31345705]
 [1.         0.48894908]
 [1.1        1.31101528]
 [1.14141667 0.7531849 ]]",0,0.282
8768944929,m,21,english,5,4,english,2024-02-01 10:32:41.968799,False,1,10,sounds\french\audio/french_496.wav,"[[  0.          84.59361564]
 [  0.1         -5.05294376]
 [  0.2        -52.76925695]
 [  0.3         95.09060688]
 [  0.4         86.20023919]
 [  0.5        -52.82326173]
 [  0.6         10.63524361]
 [  0.7        -21.15639044]
 [  0.8         30.98152688]
 [  0.9         65.47260644]
 [  1.         -26.92121505]
 [  1.1         75.50063725]
 [  1.14141667  65.89618527]]","[[0.         1.50422402]
 [0.1        1.63237531]
 [0.2        0.92311673]
 [0.3        0.72610966]
 [0.4        0.88263608]
 [0.5        1.78907897]
 [0.6        0.7019144 ]
 [0.7        1.65387907]
 [0.8        1.28867146]
 [0.9        0.50792946]
 [1.         0.69200465]
 [1.1        1.50293457]
 [1.14141667 1.08742184]]",1,0.496
8768944929,m,21,english,5,4,english,2024-02-01 10:32:41.968799,False,1,11,sounds\french\audio/french_191.wav,"[[  0.         -39.99340478]
 [  0.1         11.63414549]
 [  0.2        -36.35828588]
 [  0.3        -98.69172467]
 [  0.4         45.8146994 ]
 [  0.5        -81.34234862]
 [  0.6         76.85689755]
 [  0.7         30.77762716]
 [  0.8         69.05359103]
 [  0.9        -46.7773051 ]
 [  1.         -87.86133128]
 [  1.1         49.92457354]
 [  1.14141667 -23.83679331]]","[[0.         0.51561269]
 [0.1        1.02814661]
 [0.2        0.59773473]
 [0.3        0.28838803]
 [0.4        0.36122414]
 [0.5        0.73128969]
 [0.6        0.79641924]
 [0.7        1.01273186]
 [0.8        0.26915511]
 [0.9        0.61564868]
 [1.         0.74101429]
 [1.1        1.64291894]
 [1.14141667 1.52790896]]",0,0.289
8768944929,m,21,english,5,4,english,2024-02-01 10:32:41.968799,False,1,12,sounds\french\audio/french_505.wav,"[[  0.          10.6062499 ]
 [  0.1        -76.99802141]
 [  0.2         62.62271049]
 [  0.3         49.75584692]
 [  0.4        -44.42824919]
 [  0.5          8.97017494]
 [  0.6        -88.28080052]
 [  0.7        -13.73778208]
 [  0.8         73.13104705]
 [  0.9        -45.97620248]
 [  1.         -85.27177326]
 [  1.1          1.99886584]
 [  1.14141667 -57.73402289]]","[[0.         0.41232335]
 [0.1        1.02211306]
 [0.2        1.14367437]
 [0.3        1.86001892]
 [0.4        0.03497776]
 [0.5        1.27001275]
 [0.6        1.49153702]
 [0.7        0.88366965]
 [0.8        1.06271418]
 [0.9        0.40464318]
 [1.         0.55194696]
 [1.1        0.30087529]
 [1.14141667 1.54564481]]",1,0.473
8768944929,m,21,english,5,4,english,2024-02-01 10:32:41.968799,False,1,13,sounds\french\audio/french_81.wav,"[[ 0.00000000e+00  6.76847266e+01]
 [ 1.00000000e-01 -5.83581712e+01]
 [ 2.00000000e-01  3.29541847e+01]
 [ 3.00000000e-01  6.29425878e+00]
 [ 4.00000000e-01 -8.62881706e+01]
 [ 5.00000000e-01  1.22464963e+01]
 [ 6.00000000e-01 -8.01167860e+00]
 [ 7.00000000e-01 -8.17805605e+01]
 [ 8.00000000e-01 -2.66703715e+01]
 [ 9.00000000e-01  5.83519665e-03]
 [ 1.00000000e+00  4.07172767e+01]
 [ 1.10000000e+00 -8.22964273e+01]
 [ 1.14141667e+00 -7.02645664e+01]]","[[0.         1.81460428]
 [0.1        1.73405123]
 [0.2        1.57189037]
 [0.3        1.70078164]
 [0.4        1.17783701]
 [0.5        1.20141313]
 [0.6        0.76040054]
 [0.7        0.61904183]
 [0.8        0.14117463]
 [0.9        0.42043152]
 [1.         0.44958537]
 [1.1        0.90894384]
 [1.14141667 0.31630246]]",1,0.791
8768944929,m,21,english,5,4,english,2024-02-01 10:32:41.968799,False,1,14,sounds\french\audio/french_312.wav,"[[  0.          69.30449707]
 [  0.1         28.8122594 ]
 [  0.2         79.52564985]
 [  0.3         23.03240233]
 [  0.4        -48.5690178 ]
 [  0.5         61.96316276]
 [  0.6        -40.84069724]
 [  0.7        -21.82800046]
 [  0.8        -77.10722565]
 [  0.9         18.67755044]
 [  1.           0.10322115]
 [  1.1         38.28305127]
 [  1.14141667  17.56298431]]","[[0.         0.68235651]
 [0.1        0.49968612]
 [0.2        0.10826386]
 [0.3        1.87669154]
 [0.4        1.01808413]
 [0.5        1.08622218]
 [0.6        0.31784093]
 [0.7        0.771822  ]
 [0.8        0.59210928]
 [0.9        0.28258662]
 [1.         0.93032185]
 [1.1        0.32298369]
 [1.14141667 1.36564277]]",0,0.527
8768944929,m,21,english,5,4,english,2024-02-01 10:32:41.968799,False,1,15,sounds\french\audio/french_148.wav,"[[  0.          35.03992427]
 [  0.1        -26.56645319]
 [  0.2          1.54735612]
 [  0.3         43.90273661]
 [  0.4         20.15863223]
 [  0.5         40.21769113]
 [  0.6        -45.48330671]
 [  0.7         37.84515717]
 [  0.8         70.85795378]
 [  0.9         -8.50916841]
 [  1.          74.51689941]
 [  1.1        -29.84970963]
 [  1.14141667 -16.19564709]]","[[0.         0.51574751]
 [0.1        0.44602423]
 [0.2        1.29890337]
 [0.3        1.35071288]
 [0.4        1.88468446]
 [0.5        0.68922645]
 [0.6        0.29500086]
 [0.7        1.13623745]
 [0.8        1.93028729]
 [0.9        1.29954979]
 [1.         1.64717937]
 [1.1        0.6962146 ]
 [1.14141667 1.34875208]]",0,0.178
8768944929,m,21,english,5,4,english,2024-02-01 10:32:41.968799,False,1,16,sounds\french\audio/french_441.wav,"[[  0.         -24.8078558 ]
 [  0.1        -84.7413396 ]
 [  0.2        -54.57948598]
 [  0.3        -24.55513399]
 [  0.4        -45.63119702]
 [  0.5         65.30634786]
 [  0.6        -35.529757  ]
 [  0.7        -63.71516085]
 [  0.8        -48.48185805]
 [  0.9         67.64663354]
 [  1.         -70.86473216]
 [  1.1        -25.16106758]
 [  1.14141667  11.27004952]]","[[0.         0.61702354]
 [0.1        1.04353074]
 [0.2        0.65654414]
 [0.3        0.56139446]
 [0.4        1.49104282]
 [0.5        1.66162479]
 [0.6        0.86040524]
 [0.7        0.85625142]
 [0.8        1.85480785]
 [0.9        1.13901036]
 [1.         0.82407347]
 [1.1        0.60883166]
 [1.14141667 0.41277653]]",0,0.213
8768944929,m,21,english,5,4,english,2024-02-01 10:32:41.968799,False,1,17,sounds\french\audio/french_283.wav,"[[  0.          85.09524946]
 [  0.1        -97.54308337]
 [  0.2        -40.85204681]
 [  0.3         -2.35384301]
 [  0.4        -31.68218734]
 [  0.5        -91.02321919]
 [  0.6         44.13360811]
 [  0.7        -68.52408845]
 [  0.8         17.15846586]
 [  0.9        -35.58743883]
 [  1.          89.20732919]
 [  1.1        -57.32248704]
 [  1.14141667  28.07262427]]","[[0.         1.18974262]
 [0.1        0.87209609]
 [0.2        1.85393105]
 [0.3        0.12748359]
 [0.4        0.27016739]
 [0.5        0.64146537]
 [0.6        0.80126796]
 [0.7        0.44632746]
 [0.8        1.0554532 ]
 [0.9        0.31893528]
 [1.         0.28549057]
 [1.1        1.83484261]
 [1.14141667 1.84086056]]",1,0.431
8768944929,m,21,english,5,4,english,2024-02-01 10:32:41.968799,False,1,18,sounds\french\audio/french_588.wav,"[[  0.          80.11124336]
 [  0.1         -9.60415228]
 [  0.2        -98.33491382]
 [  0.3        -16.26514488]
 [  0.4        -90.16609663]
 [  0.5         -6.08584828]
 [  0.6        -25.80594889]
 [  0.7        -25.08652089]
 [  0.8        -98.80611815]
 [  0.9         17.08532713]
 [  1.           0.80863561]
 [  1.1        -86.5783891 ]
 [  1.14141667 -56.09457121]]","[[0.         0.91903139]
 [0.1        1.75302379]
 [0.2        1.95019279]
 [0.3        0.86486634]
 [0.4        0.04555032]
 [0.5        0.65069663]
 [0.6        0.87516436]
 [0.7        0.98178697]
 [0.8        1.45894707]
 [0.9        1.15328594]
 [1.         0.14560994]
 [1.1        1.58594883]
 [1.14141667 1.71291016]]",0,0.274
8768944929,m,21,english,5,4,english,2024-02-01 10:32:41.968799,False,1,19,sounds\french\audio/french_905.wav,"[[  0.         -38.71328765]
 [  0.1        -13.25441968]
 [  0.2         68.23042526]
 [  0.3         -9.07899561]
 [  0.4         23.04374358]
 [  0.5        -34.50239331]
 [  0.6        -88.44622923]
 [  0.7          1.86512392]
 [  0.8         49.982607  ]
 [  0.9        -74.6664717 ]
 [  1.          25.28695903]
 [  1.1        -11.94855431]
 [  1.14141667  83.46177553]]","[[0.         0.16851996]
 [0.1        0.90731449]
 [0.2        1.02086119]
 [0.3        1.91741767]
 [0.4        0.92707997]
 [0.5        0.34846439]
 [0.6        1.28024377]
 [0.7        0.9406567 ]
 [0.8        0.97954408]
 [0.9        1.64343683]
 [1.         1.08233256]
 [1.1        0.01276583]
 [1.14141667 0.02193146]]",1,0.282
8768944929,m,21,english,5,4,english,2024-02-01 10:32:41.968799,False,1,20,sounds\french\audio/french_501.wav,"[[  0.          70.80325455]
 [  0.1         32.99532509]
 [  0.2        -59.91289339]
 [  0.3         38.55218779]
 [  0.4         41.33808145]
 [  0.5         99.48150634]
 [  0.6        -45.98669111]
 [  0.7        -62.891142  ]
 [  0.8         50.81821258]
 [  0.9        -20.76584947]
 [  1.          61.69357739]
 [  1.1        -40.14477821]
 [  1.14141667 -46.23855813]]","[[0.         0.55356198]
 [0.1        0.17154651]
 [0.2        0.72125866]
 [0.3        1.79487967]
 [0.4        1.32571503]
 [0.5        1.42540593]
 [0.6        0.08406428]
 [0.7        0.07826428]
 [0.8        0.42577733]
 [0.9        1.35097126]
 [1.         0.3676293 ]
 [1.1        0.57090448]
 [1.14141667 0.88663615]]",0,0.535
8768944929,m,21,english,5,4,english,2024-02-01 10:32:41.968799,False,1,21,sounds\french\audio/french_277.wav,"[[  0.          41.08697403]
 [  0.1         73.08255676]
 [  0.2         43.08380993]
 [  0.3         21.02518819]
 [  0.4         37.78172954]
 [  0.5         23.93679705]
 [  0.6        -67.69710766]
 [  0.7         13.42536336]
 [  0.8         51.4556767 ]
 [  0.9        -56.6842947 ]
 [  1.          28.39117481]
 [  1.1         34.75019827]
 [  1.14141667 -68.6754391 ]]","[[0.         1.6200344 ]
 [0.1        1.77085985]
 [0.2        1.23064254]
 [0.3        0.65610838]
 [0.4        0.97608822]
 [0.5        1.2635416 ]
 [0.6        0.50594858]
 [0.7        1.65502646]
 [0.8        0.51878313]
 [0.9        0.73572105]
 [1.         0.30914429]
 [1.1        1.8798641 ]
 [1.14141667 1.7546161 ]]",0,0.394
8768944929,m,21,english,5,4,english,2024-02-01 10:32:41.968799,False,1,22,sounds\french\audio/french_729.wav,"[[  0.           6.02970532]
 [  0.1        -58.23115064]
 [  0.2        -79.4524648 ]
 [  0.3         25.31289493]
 [  0.4        -60.34707627]
 [  0.5        -88.40589566]
 [  0.6         51.21957515]
 [  0.7         27.50218474]
 [  0.8         -8.138588  ]
 [  0.9         -7.03673711]
 [  1.          94.92373652]
 [  1.1        -56.45846908]
 [  1.14141667  -5.25957002]]","[[0.         1.61080248]
 [0.1        1.8035096 ]
 [0.2        1.53819495]
 [0.3        0.27769673]
 [0.4        0.7897534 ]
 [0.5        0.63490444]
 [0.6        0.80684979]
 [0.7        1.59337723]
 [0.8        1.66290077]
 [0.9        1.10338309]
 [1.         1.7929398 ]
 [1.1        1.95609229]
 [1.14141667 1.67314896]]",0,0.198
8768944929,m,21,english,5,4,english,2024-02-01 10:32:41.968799,False,1,23,sounds\french\audio/french_823.wav,"[[  0.          33.60636133]
 [  0.1         28.32505989]
 [  0.2          6.84878966]
 [  0.3          1.62925135]
 [  0.4          6.79149524]
 [  0.5        -99.23050369]
 [  0.6         -8.74190219]
 [  0.7        -66.40036877]
 [  0.8         11.35961345]
 [  0.9         61.07242385]
 [  1.          40.94049127]
 [  1.1          0.31731975]
 [  1.14141667  25.56156842]]","[[0.         1.03422818]
 [0.1        0.27134212]
 [0.2        0.81254045]
 [0.3        1.53264239]
 [0.4        0.20675282]
 [0.5        1.63728817]
 [0.6        1.02628114]
 [0.7        1.14617269]
 [0.8        1.64918993]
 [0.9        0.64370947]
 [1.         0.90766668]
 [1.1        0.4362808 ]
 [1.14141667 0.90441355]]",1,0.261
8768944929,m,21,english,5,4,english,2024-02-01 10:32:41.968799,False,1,24,sounds\french\audio/french_496.wav,"[[  0.          84.59361564]
 [  0.1         -5.05294376]
 [  0.2        -52.76925695]
 [  0.3         95.09060688]
 [  0.4         86.20023919]
 [  0.5        -52.82326173]
 [  0.6         10.63524361]
 [  0.7        -21.15639044]
 [  0.8         30.98152688]
 [  0.9         65.47260644]
 [  1.         -26.92121505]
 [  1.1         75.50063725]
 [  1.14141667  65.89618527]]","[[0.         1.50422402]
 [0.1        1.63237531]
 [0.2        0.92311673]
 [0.3        0.72610966]
 [0.4        0.88263608]
 [0.5        1.78907897]
 [0.6        0.7019144 ]
 [0.7        1.65387907]
 [0.8        1.28867146]
 [0.9        0.50792946]
 [1.         0.69200465]
 [1.1        1.50293457]
 [1.14141667 1.08742184]]",0,0.301
8768944929,m,21,english,5,4,english,2024-02-01 10:32:41.968799,False,1,25,sounds\french\audio/french_730.wav,"[[  0.          62.00098508]
 [  0.1         64.32744033]
 [  0.2        -54.37577641]
 [  0.3         -4.40439874]
 [  0.4        -63.36130859]
 [  0.5        -83.01560708]
 [  0.6          3.70716052]
 [  0.7        -92.71623011]
 [  0.8        -66.2831982 ]
 [  0.9        -46.57158465]
 [  1.          81.9816805 ]
 [  1.1         60.10673015]
 [  1.14141667 -14.08604097]]","[[0.         0.76154926]
 [0.1        1.20185242]
 [0.2        1.95720044]
 [0.3        1.48485325]
 [0.4        1.86143026]
 [0.5        1.52575008]
 [0.6        1.01449791]
 [0.7        1.80670881]
 [0.8        1.96281524]
 [0.9        0.80461736]
 [1.         0.69906943]
 [1.1        1.32075302]
 [1.14141667 1.68149559]]",1,0.903
8768944929,m,21,english,5,4,english,2024-02-01 10:32:41.968799,False,1,26,sounds\french\audio/french_912.wav,"[[  0.          80.68071625]
 [  0.1        -74.6096102 ]
 [  0.2         73.86411106]
 [  0.3         64.55158236]
 [  0.4         65.90025627]
 [  0.5         50.81800611]
 [  0.6         47.81573035]
 [  0.7         62.25019961]
 [  0.8        -33.502047  ]
 [  0.9         54.29227419]
 [  1.         -31.85955495]
 [  1.1        -34.2401342 ]
 [  1.14141667  83.50219834]]","[[0.         0.60833614]
 [0.1        1.31673181]
 [0.2        0.17478281]
 [0.3        0.08969123]
 [0.4        1.187561  ]
 [0.5        1.86233101]
 [0.6        0.98705671]
 [0.7        0.81508534]
 [0.8        0.24174061]
 [0.9        0.06561792]
 [1.         1.83275675]
 [1.1        0.04646604]
 [1.14141667 1.51289562]]",1,0.907
8768944929,m,21,english,5,4,english,2024-02-01 10:32:41.968799,False,1,27,sounds\french\audio/french_137.wav,"[[  0.          13.84151074]
 [  0.1         30.89109092]
 [  0.2          6.32022174]
 [  0.3        -92.3031882 ]
 [  0.4         -1.61058663]
 [  0.5        -86.82183705]
 [  0.6         97.0175415 ]
 [  0.7          3.01255749]
 [  0.8        -19.28567494]
 [  0.9         83.26795694]
 [  1.          57.309714  ]
 [  1.1        -65.06221701]
 [  1.14141667  36.56603197]]","[[0.         1.03948831]
 [0.1        0.10685141]
 [0.2        1.61877291]
 [0.3        1.17088534]
 [0.4        0.66870039]
 [0.5        1.63827949]
 [0.6        1.01305486]
 [0.7        0.88385102]
 [0.8        0.46725667]
 [0.9        0.62986207]
 [1.         0.5153644 ]
 [1.1        0.6314328 ]
 [1.14141667 1.91953491]]",0,1.499
8768944929,m,21,english,5,4,english,2024-02-01 10:32:41.968799,False,1,28,sounds\french\audio/french_106.wav,"[[  0.          41.36913714]
 [  0.1         72.10514789]
 [  0.2         71.35003336]
 [  0.3        -23.14792258]
 [  0.4        -85.60943665]
 [  0.5        -13.44621845]
 [  0.6        -19.94134835]
 [  0.7         58.19403594]
 [  0.8        -62.37820211]
 [  0.9         21.65239657]
 [  1.          13.26561889]
 [  1.1        -51.9211494 ]
 [  1.14141667   4.66038509]]","[[0.         0.22040484]
 [0.1        0.8989972 ]
 [0.2        1.76242083]
 [0.3        0.31381105]
 [0.4        0.12343581]
 [0.5        1.50784173]
 [0.6        1.19613994]
 [0.7        0.37137686]
 [0.8        0.57613605]
 [0.9        1.01997302]
 [1.         1.29543853]
 [1.1        1.97443987]
 [1.14141667 0.87800509]]",0,0.199
8768944929,m,21,english,5,4,english,2024-02-01 10:32:41.968799,False,1,29,sounds\french\audio/french_825.wav,"[[  0.          -8.66035044]
 [  0.1         11.88684572]
 [  0.2         23.35041769]
 [  0.3        -37.90327363]
 [  0.4         45.26650228]
 [  0.5         12.4690991 ]
 [  0.6         58.54250001]
 [  0.7         58.24910466]
 [  0.8        -35.3411559 ]
 [  0.9        -53.99539951]
 [  1.         -76.41563875]
 [  1.1         34.96634112]
 [  1.14141667  39.45751875]]","[[0.         0.70372859]
 [0.1        1.47681639]
 [0.2        0.64470435]
 [0.3        1.56559927]
 [0.4        1.14051426]
 [0.5        1.60497973]
 [0.6        0.30568471]
 [0.7        1.81700224]
 [0.8        1.43759129]
 [0.9        0.25921988]
 [1.         1.68099514]
 [1.1        1.15112209]
 [1.14141667 1.32420089]]",0,1.059
8768944929,m,21,english,5,4,english,2024-02-01 10:32:41.968799,False,1,30,sounds\french\audio/french_987.wav,"[[  0.          93.34375743]
 [  0.1          2.33597737]
 [  0.2        -20.41507514]
 [  0.3         20.11504777]
 [  0.4        -45.44674631]
 [  0.5         43.68235221]
 [  0.6         45.61538995]
 [  0.7          9.26168888]
 [  0.8        -81.27003637]
 [  0.9         83.67066648]
 [  1.         -82.52176091]
 [  1.1        -88.64619633]
 [  1.14141667 -23.61840795]]","[[0.         0.73630152]
 [0.1        0.83046349]
 [0.2        0.92633409]
 [0.3        0.57479289]
 [0.4        1.77561818]
 [0.5        1.63901309]
 [0.6        1.78979007]
 [0.7        0.34807002]
 [0.8        0.31053438]
 [0.9        0.87882318]
 [1.         0.97272554]
 [1.1        1.50609738]
 [1.14141667 0.63259854]]",0,0.507
8768944929,m,21,english,5,4,english,2024-02-01 10:32:41.968799,False,1,31,sounds\french\audio/french_345.wav,"[[  0.          13.09525802]
 [  0.1        -30.73655165]
 [  0.2        -41.41787841]
 [  0.3        -27.41607462]
 [  0.4         65.96264987]
 [  0.5        -12.5205808 ]
 [  0.6         23.42963683]
 [  0.7         17.17324325]
 [  0.8         50.15361308]
 [  0.9        -38.8739224 ]
 [  1.          89.36825946]
 [  1.1        -15.68002415]
 [  1.14141667  48.64961952]]","[[0.         1.99053131]
 [0.1        0.8293688 ]
 [0.2        1.36131847]
 [0.3        0.38116236]
 [0.4        0.42669187]
 [0.5        0.21770013]
 [0.6        0.18330203]
 [0.7        0.90437628]
 [0.8        0.95975331]
 [0.9        1.62391323]
 [1.         1.55285479]
 [1.1        1.85322211]
 [1.14141667 1.01370759]]",0,0.426
8768944929,m,21,english,5,4,english,2024-02-01 10:32:41.968799,False,1,32,sounds\french\audio/french_217.wav,"[[  0.          84.06526656]
 [  0.1        -46.35743075]
 [  0.2        -53.95171452]
 [  0.3         59.83825827]
 [  0.4        -26.88805114]
 [  0.5         81.94609504]
 [  0.6         31.29853371]
 [  0.7         48.3535035 ]
 [  0.8        -35.90836063]
 [  0.9         17.81787017]
 [  1.         -25.31347858]
 [  1.1         63.89770725]
 [  1.14141667   1.46911639]]","[[0.         0.64894292]
 [0.1        1.09249026]
 [0.2        1.10478021]
 [0.3        1.53269109]
 [0.4        0.4736561 ]
 [0.5        1.78871286]
 [0.6        0.02195498]
 [0.7        0.5845576 ]
 [0.8        0.61325304]
 [0.9        1.47126121]
 [1.         0.01504833]
 [1.1        0.61680726]
 [1.14141667 0.99417778]]",0,0.674
8768944929,m,21,english,5,4,english,2024-02-01 10:32:41.968799,False,1,33,sounds\french\audio/french_350.wav,"[[  0.          49.18780015]
 [  0.1         72.56599871]
 [  0.2         82.40633288]
 [  0.3        -82.3613748 ]
 [  0.4        -55.26706973]
 [  0.5         32.71718065]
 [  0.6        -77.12745481]
 [  0.7         53.19413298]
 [  0.8         63.69374639]
 [  0.9         -4.94503234]
 [  1.           8.94892579]
 [  1.1        -63.25021916]
 [  1.14141667  62.49358968]]","[[0.         1.13395449]
 [0.1        1.35674112]
 [0.2        1.64110949]
 [0.3        0.20020041]
 [0.4        1.72643687]
 [0.5        0.50546476]
 [0.6        1.03887292]
 [0.7        0.02836182]
 [0.8        1.25705859]
 [0.9        0.65948503]
 [1.         0.3253589 ]
 [1.1        1.08649671]
 [1.14141667 1.97191137]]",1,0.453
8768944929,m,21,english,5,4,english,2024-02-01 10:32:41.968799,False,1,34,sounds\french\audio/french_891.wav,"[[  0.         -99.04712605]
 [  0.1         17.3799724 ]
 [  0.2         -1.30355006]
 [  0.3         11.66108417]
 [  0.4          6.35761676]
 [  0.5        -71.86971473]
 [  0.6         20.94588527]
 [  0.7        -13.59137079]
 [  0.8         62.37473981]
 [  0.9         64.47380957]
 [  1.          -7.95126825]
 [  1.1        -34.88253316]
 [  1.14141667  95.31191198]]","[[0.         1.87208337]
 [0.1        1.3828509 ]
 [0.2        1.47231184]
 [0.3        1.45618748]
 [0.4        1.81540908]
 [0.5        0.63041518]
 [0.6        0.92124801]
 [0.7        0.65821591]
 [0.8        0.6468689 ]
 [0.9        0.86634815]
 [1.         0.44006572]
 [1.1        1.52894565]
 [1.14141667 0.84584339]]",0,0.515
8768944929,m,21,english,5,4,english,2024-02-01 10:32:41.968799,False,1,35,sounds\french\audio/french_442.wav,"[[  0.          59.89348182]
 [  0.1        -90.19745983]
 [  0.2         34.97525188]
 [  0.3        -60.10498495]
 [  0.4        -52.20535883]
 [  0.5         33.32923329]
 [  0.6        -72.02089693]
 [  0.7         15.91732192]
 [  0.8         49.50947125]
 [  0.9        -96.72595223]
 [  1.          12.6942829 ]
 [  1.1        -57.11899111]
 [  1.14141667  36.89213251]]","[[0.         1.93338354]
 [0.1        0.1221368 ]
 [0.2        1.40375233]
 [0.3        0.23715052]
 [0.4        0.86935067]
 [0.5        1.40007492]
 [0.6        1.87875592]
 [0.7        1.15703728]
 [0.8        1.45583236]
 [0.9        0.52053121]
 [1.         0.18849311]
 [1.1        1.67578542]
 [1.14141667 0.36635536]]",1,0.384
8768944929,m,21,english,5,4,english,2024-02-01 10:32:41.968799,False,1,36,sounds\french\audio/french_572.wav,"[[  0.          80.73678316]
 [  0.1        -23.27448365]
 [  0.2         -6.4033247 ]
 [  0.3        -21.51480068]
 [  0.4        -23.17709403]
 [  0.5        -16.39338242]
 [  0.6        -25.06757564]
 [  0.7        -29.26685238]
 [  0.8        -87.48148555]
 [  0.9        -64.25549842]
 [  1.          40.51352953]
 [  1.1         45.12554912]
 [  1.14141667 -31.72850353]]","[[0.         1.6999436 ]
 [0.1        0.98259769]
 [0.2        0.22058864]
 [0.3        1.57552372]
 [0.4        1.16662567]
 [0.5        0.33871722]
 [0.6        1.16530793]
 [0.7        0.52650663]
 [0.8        0.8714082 ]
 [0.9        1.09019316]
 [1.         0.83858713]
 [1.1        1.2000092 ]
 [1.14141667 1.29324569]]",0,0.29
8768944929,m,21,english,5,4,english,2024-02-01 10:32:41.968799,False,1,37,sounds\french\audio/french_769.wav,"[[  0.         -13.36397128]
 [  0.1        -64.48089362]
 [  0.2         58.9023119 ]
 [  0.3         61.12929075]
 [  0.4         97.98097103]
 [  0.5        -77.00062239]
 [  0.6         59.53320612]
 [  0.7        -14.37943066]
 [  0.8         75.08575961]
 [  0.9         -1.90306473]
 [  1.          35.59710513]
 [  1.1        -66.64381006]
 [  1.14141667 -84.5225479 ]]","[[0.         1.58116724]
 [0.1        1.15876737]
 [0.2        1.60731332]
 [0.3        1.39997134]
 [0.4        0.84578271]
 [0.5        1.25139679]
 [0.6        0.60224046]
 [0.7        1.04948576]
 [0.8        0.62368881]
 [0.9        1.18190657]
 [1.         0.32402268]
 [1.1        0.29640924]
 [1.14141667 1.49866135]]",0,1.486
8768944929,m,21,english,5,4,english,2024-02-01 10:32:41.968799,False,1,38,sounds\french\audio/french_819.wav,"[[  0.           3.5433124 ]
 [  0.1         34.67580474]
 [  0.2         52.06096148]
 [  0.3        -11.68829783]
 [  0.4        -55.43273777]
 [  0.5        -69.12141051]
 [  0.6         -6.92352796]
 [  0.7        -30.91883779]
 [  0.8         65.5281881 ]
 [  0.9        -41.62316532]
 [  1.         -72.0133608 ]
 [  1.1         34.83208876]
 [  1.14141667 -43.5569199 ]]","[[0.         0.69924153]
 [0.1        0.59233338]
 [0.2        0.10786683]
 [0.3        0.82052849]
 [0.4        0.57964387]
 [0.5        1.16428723]
 [0.6        0.35573096]
 [0.7        1.23577296]
 [0.8        0.83715517]
 [0.9        1.18768042]
 [1.         1.9698724 ]
 [1.1        0.40899085]
 [1.14141667 1.30290544]]",0,0.184
8768944929,m,21,english,5,4,english,2024-02-01 10:32:41.968799,False,1,39,sounds\french\audio/french_172.wav,"[[  0.          52.55822797]
 [  0.1         36.03304437]
 [  0.2         87.57540256]
 [  0.3         -1.02225297]
 [  0.4        -45.72834283]
 [  0.5        -78.07098029]
 [  0.6         66.92119406]
 [  0.7         54.13458116]
 [  0.8          9.25383275]
 [  0.9         84.2289997 ]
 [  1.         -92.0852474 ]
 [  1.1        -58.15058713]
 [  1.14141667 -93.51230148]]","[[0.         1.64690449]
 [0.1        1.13416013]
 [0.2        0.18828869]
 [0.3        1.03936139]
 [0.4        1.57744061]
 [0.5        0.88465221]
 [0.6        1.26318424]
 [0.7        0.93894817]
 [0.8        1.37261227]
 [0.9        0.51589031]
 [1.         0.04731792]
 [1.1        0.7131693 ]
 [1.14141667 0.70039891]]",1,0.657
8768944929,m,21,english,5,4,english,2024-02-01 10:32:41.968799,False,1,40,sounds\french\audio/french_514.wav,"[[  0.          19.52749286]
 [  0.1        -18.57686292]
 [  0.2        -11.65218112]
 [  0.3         67.73335024]
 [  0.4          2.50414412]
 [  0.5          9.98358294]
 [  0.6        -79.6394771 ]
 [  0.7        -56.69454189]
 [  0.8        -18.40953805]
 [  0.9        -52.29201997]
 [  1.          65.08217065]
 [  1.1        -33.80106577]
 [  1.14141667  66.85973887]]","[[0.         0.20353533]
 [0.1        0.56212811]
 [0.2        1.19554763]
 [0.3        1.25373802]
 [0.4        0.49820491]
 [0.5        0.39911731]
 [0.6        1.7639196 ]
 [0.7        0.02096069]
 [0.8        1.56380325]
 [0.9        0.9626698 ]
 [1.         1.00011748]
 [1.1        1.32853589]
 [1.14141667 0.17517316]]",0,0.253
8768944929,m,21,english,5,4,english,2024-02-01 10:32:41.968799,False,1,41,sounds\french\audio/french_838.wav,"[[  0.          53.82244913]
 [  0.1        -35.81573955]
 [  0.2          8.40474369]
 [  0.3         44.99671581]
 [  0.4        -47.00146572]
 [  0.5         20.35658836]
 [  0.6        -68.67268486]
 [  0.7         -3.76207987]
 [  0.8        -54.29895515]
 [  0.9         18.68531545]
 [  1.           3.56564114]
 [  1.1        -35.37134565]
 [  1.14141667 -78.01839073]]","[[0.         0.41033137]
 [0.1        1.47401645]
 [0.2        1.34708581]
 [0.3        1.53495145]
 [0.4        1.01134901]
 [0.5        0.39081896]
 [0.6        1.16883214]
 [0.7        1.01815432]
 [0.8        0.72653042]
 [0.9        1.00283729]
 [1.         0.63403669]
 [1.1        0.69373238]
 [1.14141667 0.47350977]]",0,0.44
8768944929,m,21,english,5,4,english,2024-02-01 10:32:41.968799,False,1,42,sounds\french\audio/french_98.wav,"[[  0.          27.92501493]
 [  0.1         59.24114929]
 [  0.2        -68.02156992]
 [  0.3          5.60235983]
 [  0.4          2.69393326]
 [  0.5         90.0176611 ]
 [  0.6         41.09060442]
 [  0.7         62.7475479 ]
 [  0.8         66.62159186]
 [  0.9         14.67969687]
 [  1.          69.55311158]
 [  1.1         90.37756358]
 [  1.14141667  17.28405695]]","[[0.         1.51631653]
 [0.1        0.28885009]
 [0.2        0.05176143]
 [0.3        1.90669743]
 [0.4        1.86364642]
 [0.5        0.90725653]
 [0.6        0.95347669]
 [0.7        0.30246882]
 [0.8        0.88737081]
 [0.9        1.21320472]
 [1.         1.54236415]
 [1.1        0.74421088]
 [1.14141667 1.15025617]]",0,0.374
8768944929,m,21,english,5,4,english,2024-02-01 10:32:41.968799,False,1,43,sounds\french\audio/french_393.wav,"[[  0.          72.40354298]
 [  0.1        -68.7931782 ]
 [  0.2        -47.25637096]
 [  0.3         -0.73064071]
 [  0.4         17.52161637]
 [  0.5         18.68373405]
 [  0.6         15.91231111]
 [  0.7         11.79059692]
 [  0.8         22.68772149]
 [  0.9         45.95613533]
 [  1.          56.15996167]
 [  1.1        -79.34133011]
 [  1.14141667  55.25547533]]","[[0.         0.54610905]
 [0.1        1.41160018]
 [0.2        0.31605081]
 [0.3        1.32139001]
 [0.4        1.72215639]
 [0.5        0.10655256]
 [0.6        1.22666633]
 [0.7        1.59630195]
 [0.8        0.52081854]
 [0.9        0.78383972]
 [1.         0.26247   ]
 [1.1        0.46902143]
 [1.14141667 0.85110732]]",1,1.243
8768944929,m,21,english,5,4,english,2024-02-01 10:32:41.968799,False,1,44,sounds\french\audio/french_854.wav,"[[  0.         -84.34166264]
 [  0.1         84.957105  ]
 [  0.2        -75.25231073]
 [  0.3         65.5230415 ]
 [  0.4         19.1345831 ]
 [  0.5        -49.51780093]
 [  0.6        -99.22511646]
 [  0.7         68.97565422]
 [  0.8        -53.31062312]
 [  0.9          1.33468715]
 [  1.           0.86331226]
 [  1.1         43.96559109]
 [  1.14141667  26.73107262]]","[[0.         1.84057999]
 [0.1        0.73718017]
 [0.2        1.41154928]
 [0.3        1.17124469]
 [0.4        0.72588649]
 [0.5        1.4038491 ]
 [0.6        1.40303457]
 [0.7        1.27711643]
 [0.8        0.55715751]
 [0.9        1.82879395]
 [1.         1.15444978]
 [1.1        0.64968484]
 [1.14141667 0.58965928]]",0,0.167
8768944929,m,21,english,5,4,english,2024-02-01 10:32:41.968799,False,1,45,sounds\french\audio/french_579.wav,"[[  0.         -44.9724905 ]
 [  0.1          0.83845953]
 [  0.2         93.06026355]
 [  0.3        -62.41374452]
 [  0.4         20.02213112]
 [  0.5        -38.5151373 ]
 [  0.6         22.08241798]
 [  0.7        -58.17924339]
 [  0.8        -33.23197636]
 [  0.9         46.73979954]
 [  1.          -1.66986987]
 [  1.1        -43.99049691]
 [  1.14141667 -39.65764058]]","[[0.         1.96822281]
 [0.1        0.71149274]
 [0.2        0.47444189]
 [0.3        1.30095402]
 [0.4        1.46488426]
 [0.5        0.97233373]
 [0.6        0.80064838]
 [0.7        0.70983162]
 [0.8        0.45331315]
 [0.9        0.98403406]
 [1.         1.54220588]
 [1.1        0.41959049]
 [1.14141667 1.4912741 ]]",0,0.157
8768944929,m,21,english,5,4,english,2024-02-01 10:32:41.968799,False,1,46,sounds\french\audio/french_893.wav,"[[  0.          -7.27699978]
 [  0.1        -89.77020568]
 [  0.2        -14.57898987]
 [  0.3         17.83631346]
 [  0.4         -1.41603642]
 [  0.5         83.48956913]
 [  0.6         30.8822208 ]
 [  0.7        -64.37206317]
 [  0.8        -28.39613134]
 [  0.9        -87.01917752]
 [  1.          40.7229808 ]
 [  1.1         99.76956112]
 [  1.14141667 -22.42545561]]","[[0.         1.51978009]
 [0.1        0.73116865]
 [0.2        0.67126481]
 [0.3        1.90896292]
 [0.4        0.69510604]
 [0.5        1.57489321]
 [0.6        1.47648751]
 [0.7        1.31493152]
 [0.8        0.56604346]
 [0.9        0.26201855]
 [1.         0.45307121]
 [1.1        0.54133615]
 [1.14141667 0.07796444]]",1,0.547
8768944929,m,21,english,5,4,english,2024-02-01 10:32:41.968799,False,1,47,sounds\french\audio/french_271.wav,"[[  0.          -4.26084728]
 [  0.1        -66.22674374]
 [  0.2         50.59493008]
 [  0.3         93.97669366]
 [  0.4         59.96084063]
 [  0.5        -86.11772004]
 [  0.6         -2.09396449]
 [  0.7        -84.13135866]
 [  0.8         23.5667552 ]
 [  0.9        -21.96388567]
 [  1.           6.84620378]
 [  1.1        -67.33014585]
 [  1.14141667   5.99974644]]","[[0.         0.95664408]
 [0.1        1.64199905]
 [0.2        0.62402053]
 [0.3        1.98710423]
 [0.4        0.39456056]
 [0.5        1.16329707]
 [0.6        0.57946499]
 [0.7        1.05634416]
 [0.8        1.20321017]
 [0.9        0.23833217]
 [1.         0.26201816]
 [1.1        0.15969444]
 [1.14141667 1.56436883]]",1,0.635
8768944929,m,21,english,5,4,english,2024-02-01 10:32:41.968799,False,1,48,sounds\french\audio/french_764.wav,"[[  0.          87.12745751]
 [  0.1        -24.35371008]
 [  0.2         96.19284839]
 [  0.3        -63.91440184]
 [  0.4         84.55261443]
 [  0.5        -92.65972106]
 [  0.6         42.41135529]
 [  0.7        -52.22534775]
 [  0.8         15.59025374]
 [  0.9          2.98657975]
 [  1.          -1.73502866]
 [  1.1         53.10245594]
 [  1.14141667 -47.5333567 ]]","[[0.         1.90120805]
 [0.1        0.69347586]
 [0.2        1.54393822]
 [0.3        0.58835551]
 [0.4        0.17117139]
 [0.5        1.33331876]
 [0.6        0.74738351]
 [0.7        0.83508091]
 [0.8        0.71569615]
 [0.9        0.73784714]
 [1.         0.16421884]
 [1.1        0.76749541]
 [1.14141667 0.26920711]]",0,0.545
8768944929,m,21,english,5,4,english,2024-02-01 10:32:41.968799,False,1,49,sounds\french\audio/french_841.wav,"[[  0.          24.99093095]
 [  0.1         19.20045888]
 [  0.2        -88.34968649]
 [  0.3         95.66802837]
 [  0.4          0.50486689]
 [  0.5        -15.49480604]
 [  0.6         -6.74027916]
 [  0.7        -26.50511795]
 [  0.8        -55.94751294]
 [  0.9         56.14082099]
 [  1.          32.57761441]
 [  1.1         11.18785831]
 [  1.14141667  20.73461672]]","[[0.         0.83229965]
 [0.1        0.93912689]
 [0.2        0.70963574]
 [0.3        1.76222683]
 [0.4        1.37113042]
 [0.5        0.74699954]
 [0.6        1.70894308]
 [0.7        1.40997401]
 [0.8        0.13803427]
 [0.9        0.58598043]
 [1.         0.41847332]
 [1.1        0.36003965]
 [1.14141667 1.14123964]]",0,0.452
8768944929,m,21,english,5,4,english,2024-02-01 10:32:41.968799,False,1,50,sounds\french\audio/french_130.wav,"[[  0.          80.14039255]
 [  0.1         -9.3158716 ]
 [  0.2          3.483649  ]
 [  0.3         81.75200906]
 [  0.4        -86.69422084]
 [  0.5        -93.24298509]
 [  0.6        -92.62032105]
 [  0.7         28.8965215 ]
 [  0.8         19.30919838]
 [  0.9        -80.13919679]
 [  1.          37.37495492]
 [  1.1        -40.54824622]
 [  1.14141667 -50.53930291]]","[[0.         1.827855  ]
 [0.1        0.27418865]
 [0.2        0.648905  ]
 [0.3        1.48765296]
 [0.4        0.24641714]
 [0.5        1.34302618]
 [0.6        1.55735233]
 [0.7        1.71386227]
 [0.8        0.75513257]
 [0.9        1.99528485]
 [1.         0.20181573]
 [1.1        0.49802029]
 [1.14141667 0.73950593]]",0,0.194
8768944929,m,21,english,5,4,english,2024-02-01 10:32:41.968799,False,1,51,sounds\french\audio/french_130.wav,"[[  0.          80.14039255]
 [  0.1         -9.3158716 ]
 [  0.2          3.483649  ]
 [  0.3         81.75200906]
 [  0.4        -86.69422084]
 [  0.5        -93.24298509]
 [  0.6        -92.62032105]
 [  0.7         28.8965215 ]
 [  0.8         19.30919838]
 [  0.9        -80.13919679]
 [  1.          37.37495492]
 [  1.1        -40.54824622]
 [  1.14141667 -50.53930291]]","[[0.         1.827855  ]
 [0.1        0.27418865]
 [0.2        0.648905  ]
 [0.3        1.48765296]
 [0.4        0.24641714]
 [0.5        1.34302618]
 [0.6        1.55735233]
 [0.7        1.71386227]
 [0.8        0.75513257]
 [0.9        1.99528485]
 [1.         0.20181573]
 [1.1        0.49802029]
 [1.14141667 0.73950593]]",0,0.511
8768944929,m,21,english,5,4,english,2024-02-01 10:32:41.968799,False,1,52,sounds\french\audio/french_1000.wav,"[[  0.         -73.98132077]
 [  0.1        -83.83733432]
 [  0.2        -83.30675493]
 [  0.3        -49.21206924]
 [  0.4        -37.38094521]
 [  0.5        -61.96244664]
 [  0.6         40.57719873]
 [  0.7         45.24625978]
 [  0.8         29.16975885]
 [  0.9         53.55403055]
 [  1.          28.77440397]
 [  1.1         66.56850724]
 [  1.14141667  38.69421955]]","[[0.         1.64837678]
 [0.1        1.32001696]
 [0.2        0.03425321]
 [0.3        0.20047346]
 [0.4        0.89388677]
 [0.5        0.07979432]
 [0.6        0.5706929 ]
 [0.7        1.02426669]
 [0.8        0.29678573]
 [0.9        1.45432924]
 [1.         1.18477249]
 [1.1        1.17453204]
 [1.14141667 1.53712703]]",0,0.266
8768944929,m,21,english,5,4,english,2024-02-01 10:32:41.968799,False,1,53,sounds\french\audio/french_173.wav,"[[  0.         -46.66919298]
 [  0.1          4.67484005]
 [  0.2         80.83385661]
 [  0.3        -50.45685435]
 [  0.4        -62.49251948]
 [  0.5        -50.73769737]
 [  0.6         97.55947113]
 [  0.7        -68.25637207]
 [  0.8        -22.42955904]
 [  0.9         15.09984102]
 [  1.         -86.7117515 ]
 [  1.1        -74.37334759]
 [  1.14141667  71.31940753]]","[[0.         1.63776861]
 [0.1        1.1956952 ]
 [0.2        0.9812403 ]
 [0.3        0.93944254]
 [0.4        1.366728  ]
 [0.5        0.90395124]
 [0.6        0.64609469]
 [0.7        1.42709177]
 [0.8        1.40693544]
 [0.9        1.93881322]
 [1.         0.05946756]
 [1.1        1.20565839]
 [1.14141667 1.30938607]]",0,0.426
8768944929,m,21,english,5,4,english,2024-02-01 10:32:41.968799,False,1,54,sounds\french\audio/french_409.wav,"[[  0.         -30.21694153]
 [  0.1         59.15557732]
 [  0.2        -36.71476699]
 [  0.3        -11.27109722]
 [  0.4         94.57337138]
 [  0.5        -42.2573853 ]
 [  0.6        -98.73956602]
 [  0.7        -10.01342548]
 [  0.8         82.67745242]
 [  0.9         41.23544477]
 [  1.          34.12857291]
 [  1.1        -39.9359561 ]
 [  1.14141667 -66.44243676]]","[[0.         0.38215997]
 [0.1        1.51676609]
 [0.2        1.63075326]
 [0.3        0.56043983]
 [0.4        1.04931912]
 [0.5        0.29982519]
 [0.6        0.90608558]
 [0.7        0.27240851]
 [0.8        0.07095198]
 [0.9        1.17559968]
 [1.         0.36646836]
 [1.1        0.62478862]
 [1.14141667 0.20356558]]",0,0.475
8768944929,m,21,english,5,4,english,2024-02-01 10:32:41.968799,False,1,55,sounds\french\audio/french_517.wav,"[[  0.           2.38244996]
 [  0.1        -37.81840567]
 [  0.2        -78.33811602]
 [  0.3         50.26182329]
 [  0.4         84.91055303]
 [  0.5         89.35919119]
 [  0.6         10.55033556]
 [  0.7        -62.97285269]
 [  0.8         27.87021553]
 [  0.9         64.04470315]
 [  1.          53.97064719]
 [  1.1         32.82263519]
 [  1.14141667  -0.48515027]]","[[0.         1.32997903]
 [0.1        1.68452587]
 [0.2        0.83936606]
 [0.3        0.89015853]
 [0.4        1.37002303]
 [0.5        0.14366637]
 [0.6        0.91107546]
 [0.7        1.31587642]
 [0.8        0.94330464]
 [0.9        0.26569161]
 [1.         0.58019556]
 [1.1        1.20336752]
 [1.14141667 0.66075611]]",0,0.323
8768944929,m,21,english,5,4,english,2024-02-01 10:32:41.968799,False,1,56,sounds\french\audio/french_915.wav,"[[  0.          24.97229927]
 [  0.1          9.55755976]
 [  0.2        -36.73982377]
 [  0.3         16.36164394]
 [  0.4         18.89549827]
 [  0.5         29.58178959]
 [  0.6         67.00984201]
 [  0.7         69.33436498]
 [  0.8        -68.5567505 ]
 [  0.9        -82.82111497]
 [  1.         -19.3056594 ]
 [  1.1         46.67656137]
 [  1.14141667 -49.01815879]]","[[0.         0.29650111]
 [0.1        1.7574547 ]
 [0.2        1.09391109]
 [0.3        0.1335892 ]
 [0.4        1.43122832]
 [0.5        1.80794112]
 [0.6        1.50463968]
 [0.7        1.3294998 ]
 [0.8        1.58149329]
 [0.9        1.17041831]
 [1.         0.93306192]
 [1.1        0.84227441]
 [1.14141667 1.06379674]]",0,0.345
8768944929,m,21,english,5,4,english,2024-02-01 10:32:41.968799,False,1,57,sounds\french\audio/french_699.wav,"[[  0.         -12.30067292]
 [  0.1         36.78977735]
 [  0.2        -92.85505099]
 [  0.3         79.08429956]
 [  0.4        -94.45731791]
 [  0.5         86.94372215]
 [  0.6         64.87909745]
 [  0.7        -10.59653747]
 [  0.8        -13.88055644]
 [  0.9        -79.28505603]
 [  1.          85.40525959]
 [  1.1         37.59232623]
 [  1.14141667 -13.77587954]]","[[0.         1.22115216]
 [0.1        0.46578941]
 [0.2        0.7393451 ]
 [0.3        1.0436156 ]
 [0.4        1.85215008]
 [0.5        1.35426274]
 [0.6        0.90062394]
 [0.7        1.19660978]
 [0.8        1.64484137]
 [0.9        1.90071567]
 [1.         0.68624617]
 [1.1        0.4882198 ]
 [1.14141667 0.37805744]]",1,1.006
8768944929,m,21,english,5,4,english,2024-02-01 10:32:41.968799,False,1,58,sounds\french\audio/french_319.wav,"[[  0.         -75.17146498]
 [  0.1         46.33935976]
 [  0.2        -45.77559624]
 [  0.3          9.72100852]
 [  0.4        -30.50694127]
 [  0.5        -94.17429558]
 [  0.6        -28.13617215]
 [  0.7        -28.4188466 ]
 [  0.8        -90.88658969]
 [  0.9        -86.52176531]
 [  1.         -71.77832171]
 [  1.1        -45.71816919]
 [  1.14141667 -83.07448419]]","[[0.         1.089409  ]
 [0.1        1.6263792 ]
 [0.2        1.21732858]
 [0.3        1.37490977]
 [0.4        0.6324598 ]
 [0.5        1.7974238 ]
 [0.6        0.57188639]
 [0.7        1.86268987]
 [0.8        0.77070175]
 [0.9        0.98256413]
 [1.         1.81058431]
 [1.1        0.40934231]
 [1.14141667 1.33989868]]",0,0.25
8768944929,m,21,english,5,4,english,2024-02-01 10:32:41.968799,False,1,59,sounds\french\audio/french_395.wav,"[[  0.          45.0752434 ]
 [  0.1        -93.76597298]
 [  0.2         46.57087832]
 [  0.3         59.364027  ]
 [  0.4         25.27671277]
 [  0.5         18.6240562 ]
 [  0.6        -12.8872696 ]
 [  0.7        -38.76560327]
 [  0.8        -43.15551235]
 [  0.9        -99.26206563]
 [  1.          -7.96649049]
 [  1.1         38.87039961]
 [  1.14141667  73.11872685]]","[[0.         1.18925621]
 [0.1        0.52454802]
 [0.2        1.50660579]
 [0.3        0.93298366]
 [0.4        0.50677812]
 [0.5        0.56379423]
 [0.6        1.362377  ]
 [0.7        1.10820927]
 [0.8        0.83193558]
 [0.9        1.55187087]
 [1.         1.27801505]
 [1.1        1.56525151]
 [1.14141667 1.97246425]]",0,0.269
8768944929,m,21,english,5,4,english,2024-02-01 10:32:41.968799,False,1,60,sounds\french\audio/french_695.wav,"[[  0.          91.03645015]
 [  0.1        -17.31714147]
 [  0.2        -14.58014364]
 [  0.3        -18.9204461 ]
 [  0.4         46.57979365]
 [  0.5        -90.24090986]
 [  0.6         -0.59110837]
 [  0.7        -10.88951476]
 [  0.8        -12.64634725]
 [  0.9         93.12439983]
 [  1.         -53.03412878]
 [  1.1        -32.6093433 ]
 [  1.14141667 -33.49594962]]","[[0.         1.97576794]
 [0.1        1.557192  ]
 [0.2        1.20817895]
 [0.3        0.21789238]
 [0.4        1.60794008]
 [0.5        0.78145158]
 [0.6        1.16957278]
 [0.7        0.74913415]
 [0.8        0.14772287]
 [0.9        1.44178523]
 [1.         1.23628709]
 [1.1        1.71888582]
 [1.14141667 0.08672386]]",0,0.365
8768944929,m,21,english,5,4,english,2024-02-01 10:32:41.968799,False,1,61,sounds\french\audio/french_339.wav,"[[  0.         -91.66719756]
 [  0.1        -40.09978494]
 [  0.2        -46.90301028]
 [  0.3         12.45337088]
 [  0.4         -7.3719957 ]
 [  0.5        -38.64502955]
 [  0.6         -0.41989507]
 [  0.7        -65.16929213]
 [  0.8        -43.18579065]
 [  0.9         25.69839136]
 [  1.          84.15479884]
 [  1.1         10.06988607]
 [  1.14141667  43.816716  ]]","[[0.         0.83274   ]
 [0.1        1.09275025]
 [0.2        0.95259452]
 [0.3        1.57352585]
 [0.4        1.00068358]
 [0.5        1.00260215]
 [0.6        1.95270399]
 [0.7        0.43011904]
 [0.8        0.35215598]
 [0.9        0.10684683]
 [1.         0.15211102]
 [1.1        1.20317356]
 [1.14141667 0.84876333]]",1,0.711
8768944929,m,21,english,5,4,english,2024-02-01 10:32:41.968799,False,1,62,sounds\french\audio/french_356.wav,"[[ 0.00000000e+00 -2.27249235e-02]
 [ 1.00000000e-01 -2.05153136e+01]
 [ 2.00000000e-01  4.81128711e+01]
 [ 3.00000000e-01 -4.89595369e+01]
 [ 4.00000000e-01 -2.80357485e+00]
 [ 5.00000000e-01 -2.08584143e+01]
 [ 6.00000000e-01  9.81092965e+01]
 [ 7.00000000e-01 -1.93224048e+00]
 [ 8.00000000e-01 -8.85330859e+00]
 [ 9.00000000e-01  5.87615692e+01]
 [ 1.00000000e+00 -2.81707309e-01]
 [ 1.10000000e+00  9.24730298e+01]
 [ 1.14141667e+00  2.47445151e+01]]","[[0.         1.1057297 ]
 [0.1        0.88248255]
 [0.2        1.40641601]
 [0.3        0.79182661]
 [0.4        1.07217051]
 [0.5        1.39045594]
 [0.6        1.21295728]
 [0.7        1.26350106]
 [0.8        1.63697749]
 [0.9        1.43245474]
 [1.         0.81942288]
 [1.1        1.27779472]
 [1.14141667 0.59840856]]",1,0.289
8768944929,m,21,english,5,4,english,2024-02-01 10:32:41.968799,False,1,63,sounds\french\audio/french_875.wav,"[[  0.          45.85158568]
 [  0.1          7.11917254]
 [  0.2         78.12134314]
 [  0.3         97.47827294]
 [  0.4        -16.31048208]
 [  0.5        -57.92090537]
 [  0.6        -80.48850895]
 [  0.7         14.41161829]
 [  0.8         30.39544131]
 [  0.9        -13.64067474]
 [  1.          10.63284956]
 [  1.1         34.52905644]
 [  1.14141667  37.26363769]]","[[0.         0.742891  ]
 [0.1        1.89433175]
 [0.2        1.6243666 ]
 [0.3        0.98769572]
 [0.4        0.57089061]
 [0.5        1.46131689]
 [0.6        0.74274184]
 [0.7        0.99318799]
 [0.8        1.87326507]
 [0.9        0.6995089 ]
 [1.         1.63464253]
 [1.1        0.5924672 ]
 [1.14141667 1.26762878]]",1,2.065
8768944929,m,21,english,5,4,english,2024-02-01 10:32:41.968799,False,1,64,sounds\french\audio/french_641.wav,"[[  0.         -43.09575809]
 [  0.1        -81.59758754]
 [  0.2        -22.20264254]
 [  0.3        -56.41027235]
 [  0.4        -55.14696793]
 [  0.5         48.08973996]
 [  0.6        -19.5107077 ]
 [  0.7        -89.2518139 ]
 [  0.8         81.37542917]
 [  0.9        -79.21888814]
 [  1.         -51.09677691]
 [  1.1         97.24624771]
 [  1.14141667  24.04850575]]","[[0.         0.3387751 ]
 [0.1        0.93263347]
 [0.2        1.36728443]
 [0.3        0.90941875]
 [0.4        1.38478795]
 [0.5        0.25504986]
 [0.6        1.77925453]
 [0.7        0.95413505]
 [0.8        1.08287655]
 [0.9        1.06879943]
 [1.         1.22707958]
 [1.1        0.21706358]
 [1.14141667 1.25974501]]",0,0.228
8768944929,m,21,english,5,4,english,2024-02-01 10:32:41.968799,False,1,65,sounds\french\audio/french_476.wav,"[[  0.           2.7094507 ]
 [  0.1        -87.7280692 ]
 [  0.2         73.10097617]
 [  0.3        -39.94037221]
 [  0.4        -70.77067891]
 [  0.5        -69.51890588]
 [  0.6         14.97450783]
 [  0.7         11.8314824 ]
 [  0.8        -94.87528551]
 [  0.9        -47.21116186]
 [  1.          77.98956327]
 [  1.1         27.75596283]
 [  1.14141667 -30.59689751]]","[[0.         1.35860471]
 [0.1        0.99732338]
 [0.2        0.39475379]
 [0.3        1.23972907]
 [0.4        1.89359737]
 [0.5        1.35568455]
 [0.6        0.10717939]
 [0.7        1.73146134]
 [0.8        1.80986266]
 [0.9        0.67970101]
 [1.         0.57105332]
 [1.1        0.99269413]
 [1.14141667 0.74836079]]",0,0.375
8768944929,m,21,english,5,4,english,2024-02-01 10:32:41.968799,False,1,66,sounds\french\audio/french_597.wav,"[[  0.           3.81117618]
 [  0.1          1.65290583]
 [  0.2         75.20334273]
 [  0.3        -31.80520796]
 [  0.4         47.06388339]
 [  0.5        -12.18502222]
 [  0.6         16.00653048]
 [  0.7         -1.06509013]
 [  0.8        -88.67460342]
 [  0.9         79.23096379]
 [  1.         -37.6385831 ]
 [  1.1        -82.3453721 ]
 [  1.14141667  50.39965119]]","[[0.         0.64425147]
 [0.1        1.80851034]
 [0.2        0.13064714]
 [0.3        1.14595158]
 [0.4        1.20714689]
 [0.5        1.21300166]
 [0.6        1.59786204]
 [0.7        1.5777009 ]
 [0.8        1.85046757]
 [0.9        0.15850725]
 [1.         0.67581982]
 [1.1        0.97379481]
 [1.14141667 1.28226838]]",0,0.269
8768944929,m,21,english,5,4,english,2024-02-01 10:32:41.968799,False,1,67,sounds\french\audio/french_249.wav,"[[  0.          60.2084808 ]
 [  0.1         33.79766745]
 [  0.2        -67.19130294]
 [  0.3        -89.07860563]
 [  0.4         55.46525036]
 [  0.5        -26.3415238 ]
 [  0.6         51.34404516]
 [  0.7        -29.32821096]
 [  0.8         50.27991968]
 [  0.9        -10.43676988]
 [  1.           5.00839112]
 [  1.1         24.89196533]
 [  1.14141667   1.54565791]]","[[0.         0.86559925]
 [0.1        1.55064503]
 [0.2        1.44078258]
 [0.3        1.18134184]
 [0.4        1.70386756]
 [0.5        0.52002409]
 [0.6        1.32158866]
 [0.7        1.15452897]
 [0.8        0.19271394]
 [0.9        1.46688151]
 [1.         0.5650028 ]
 [1.1        0.4009333 ]
 [1.14141667 0.66216287]]",1,0.497
8768944929,m,21,english,5,4,english,2024-02-01 10:32:41.968799,False,1,68,sounds\french\audio/french_533.wav,"[[  0.         -12.37696907]
 [  0.1        -74.33992567]
 [  0.2         25.53493321]
 [  0.3         83.26189229]
 [  0.4        -45.64831235]
 [  0.5        -99.77349357]
 [  0.6        -74.31887281]
 [  0.7         75.20945209]
 [  0.8        -51.81750424]
 [  0.9         18.32650768]
 [  1.          73.15349763]
 [  1.1         -1.80688698]
 [  1.14141667  90.12383701]]","[[0.         0.2803327 ]
 [0.1        1.88376036]
 [0.2        0.91026639]
 [0.3        1.17113821]
 [0.4        1.71821817]
 [0.5        0.17657146]
 [0.6        1.49030567]
 [0.7        1.8602258 ]
 [0.8        0.64574509]
 [0.9        0.88825981]
 [1.         0.88956097]
 [1.1        1.29590222]
 [1.14141667 0.60373453]]",0,0.347
8768944929,m,21,english,5,4,english,2024-02-01 10:32:41.968799,False,1,69,sounds\french\audio/french_803.wav,"[[  0.         -12.95878337]
 [  0.1         61.50797195]
 [  0.2         96.13916552]
 [  0.3         63.40829671]
 [  0.4        -18.80055907]
 [  0.5        -13.37960084]
 [  0.6         17.49624977]
 [  0.7         26.6489851 ]
 [  0.8         46.37702818]
 [  0.9         47.62008812]
 [  1.          35.61177117]
 [  1.1        -76.22783665]
 [  1.14141667  34.8549378 ]]","[[0.         0.89212547]
 [0.1        0.09328832]
 [0.2        0.1771654 ]
 [0.3        0.79511002]
 [0.4        0.67535594]
 [0.5        0.14377803]
 [0.6        0.71363745]
 [0.7        0.90742369]
 [0.8        0.61606813]
 [0.9        0.82361862]
 [1.         1.14929537]
 [1.1        1.55419548]
 [1.14141667 1.0035068 ]]",0,0.199
8768944929,m,21,english,5,4,english,2024-02-01 10:32:41.968799,False,1,70,sounds\french\audio/french_110.wav,"[[  0.         -49.55382507]
 [  0.1          3.45056557]
 [  0.2         60.85553291]
 [  0.3         27.01273716]
 [  0.4         69.39855055]
 [  0.5        -57.48674894]
 [  0.6          9.44204119]
 [  0.7          8.79064651]
 [  0.8        -59.90874368]
 [  0.9        -59.0130881 ]
 [  1.          53.21957995]
 [  1.1        -40.30790368]
 [  1.14141667  27.6270525 ]]","[[0.         1.59273092]
 [0.1        0.34265347]
 [0.2        1.89522696]
 [0.3        1.37531992]
 [0.4        0.92990778]
 [0.5        0.17949399]
 [0.6        1.02012289]
 [0.7        0.69455485]
 [0.8        0.57470009]
 [0.9        0.48670798]
 [1.         1.28651513]
 [1.1        1.81922057]
 [1.14141667 0.80818814]]",0,0.22
8768944929,m,21,english,5,4,english,2024-02-01 10:32:41.968799,False,1,71,sounds\french\audio/french_131.wav,"[[  0.          43.89869303]
 [  0.1          1.87533794]
 [  0.2         22.29443787]
 [  0.3         80.0665813 ]
 [  0.4         34.98439119]
 [  0.5         -5.43009148]
 [  0.6         51.77910051]
 [  0.7         16.33164281]
 [  0.8          2.69660121]
 [  0.9         67.97713521]
 [  1.         -78.89064935]
 [  1.1          3.66517483]
 [  1.14141667  28.89118946]]","[[0.         1.60661373]
 [0.1        1.45479188]
 [0.2        0.2596898 ]
 [0.3        0.92411688]
 [0.4        1.59995731]
 [0.5        1.70569439]
 [0.6        0.57553958]
 [0.7        0.89044664]
 [0.8        0.56880668]
 [0.9        0.83892608]
 [1.         1.1265108 ]
 [1.1        0.22006075]
 [1.14141667 0.49062162]]",0,0.261
8768944929,m,21,english,5,4,english,2024-02-01 10:32:41.968799,False,1,72,sounds\french\audio/french_137.wav,"[[  0.          13.84151074]
 [  0.1         30.89109092]
 [  0.2          6.32022174]
 [  0.3        -92.3031882 ]
 [  0.4         -1.61058663]
 [  0.5        -86.82183705]
 [  0.6         97.0175415 ]
 [  0.7          3.01255749]
 [  0.8        -19.28567494]
 [  0.9         83.26795694]
 [  1.          57.309714  ]
 [  1.1        -65.06221701]
 [  1.14141667  36.56603197]]","[[0.         1.03948831]
 [0.1        0.10685141]
 [0.2        1.61877291]
 [0.3        1.17088534]
 [0.4        0.66870039]
 [0.5        1.63827949]
 [0.6        1.01305486]
 [0.7        0.88385102]
 [0.8        0.46725667]
 [0.9        0.62986207]
 [1.         0.5153644 ]
 [1.1        0.6314328 ]
 [1.14141667 1.91953491]]",0,0.477
8768944929,m,21,english,5,4,english,2024-02-01 10:32:41.968799,False,1,73,sounds\french\audio/french_991.wav,"[[  0.          36.75935394]
 [  0.1         62.37590306]
 [  0.2        -79.10366799]
 [  0.3         15.61361167]
 [  0.4         40.29353687]
 [  0.5          2.12234517]
 [  0.6         12.50359996]
 [  0.7        -82.50426771]
 [  0.8         24.690563  ]
 [  0.9        -26.86058419]
 [  1.         -14.63831272]
 [  1.1         68.03313278]
 [  1.14141667 -76.23493294]]","[[0.         0.61757489]
 [0.1        0.91218426]
 [0.2        1.22140569]
 [0.3        1.31629718]
 [0.4        0.79411693]
 [0.5        0.73057303]
 [0.6        0.23343818]
 [0.7        0.74035026]
 [0.8        1.16659072]
 [0.9        0.34867732]
 [1.         1.71373813]
 [1.1        1.49834332]
 [1.14141667 0.08304986]]",0,0.176
8768944929,m,21,english,5,4,english,2024-02-01 10:32:41.968799,False,1,74,sounds\french\audio/french_630.wav,"[[  0.         -11.85609202]
 [  0.1         96.09656475]
 [  0.2        -33.56747365]
 [  0.3         28.74577445]
 [  0.4          2.92872037]
 [  0.5         33.78274033]
 [  0.6         33.00019437]
 [  0.7         47.31284147]
 [  0.8        -99.16635588]
 [  0.9         77.81632981]
 [  1.          69.4017306 ]
 [  1.1         18.2284971 ]
 [  1.14141667 -69.99810241]]","[[0.         1.94260734]
 [0.1        1.15731247]
 [0.2        0.61883627]
 [0.3        1.63189615]
 [0.4        0.13310367]
 [0.5        0.62854349]
 [0.6        1.95286232]
 [0.7        0.55695804]
 [0.8        0.39433406]
 [0.9        0.61587688]
 [1.         1.15717027]
 [1.1        0.28159614]
 [1.14141667 1.31420192]]",0,0.462
8768944929,m,21,english,5,4,english,2024-02-01 10:32:41.968799,False,1,75,sounds\french\audio/french_124.wav,"[[  0.         -76.45779126]
 [  0.1        -62.44073346]
 [  0.2        -62.75149138]
 [  0.3        -37.91621361]
 [  0.4         -1.84891931]
 [  0.5         -2.76461423]
 [  0.6         48.00626226]
 [  0.7        -89.0520455 ]
 [  0.8        -36.94008954]
 [  0.9        -82.62391515]
 [  1.         -88.37832348]
 [  1.1         86.13286015]
 [  1.14141667 -90.07064956]]","[[0.         0.84587092]
 [0.1        1.24457807]
 [0.2        0.64584281]
 [0.3        0.25159831]
 [0.4        0.57670271]
 [0.5        0.27282382]
 [0.6        0.93393673]
 [0.7        0.95712828]
 [0.8        1.24636556]
 [0.9        0.87746102]
 [1.         0.59578507]
 [1.1        1.45487827]
 [1.14141667 0.90336127]]",0,0.182
8768944929,m,21,english,5,4,english,2024-02-01 10:32:41.968799,False,1,76,sounds\french\audio/french_372.wav,"[[  0.          53.83123276]
 [  0.1        -27.04821844]
 [  0.2         78.33609214]
 [  0.3        -78.11586559]
 [  0.4        -94.60748533]
 [  0.5         62.83015715]
 [  0.6         67.82201499]
 [  0.7        -70.53647708]
 [  0.8        -76.96545312]
 [  0.9        -50.42790053]
 [  1.          72.8443529 ]
 [  1.1        -42.09585527]
 [  1.14141667 -94.08216846]]","[[0.         0.9084392 ]
 [0.1        0.09293525]
 [0.2        1.96631007]
 [0.3        1.72866936]
 [0.4        0.92226198]
 [0.5        0.25318941]
 [0.6        1.49472832]
 [0.7        1.73802722]
 [0.8        1.70359471]
 [0.9        0.97070185]
 [1.         1.23269087]
 [1.1        0.48846866]
 [1.14141667 0.68010024]]",0,0.194
8768944929,m,21,english,5,4,english,2024-02-01 10:32:41.968799,False,1,77,sounds\french\audio/french_627.wav,"[[  0.         -16.75461083]
 [  0.1         96.68168603]
 [  0.2         48.99544256]
 [  0.3          0.76904268]
 [  0.4         87.66540715]
 [  0.5        -64.38324185]
 [  0.6          8.96877637]
 [  0.7         95.71714798]
 [  0.8         81.75759789]
 [  0.9        -61.95503167]
 [  1.         -55.56251199]
 [  1.1        -58.25099621]
 [  1.14141667   8.35767044]]","[[0.         1.95083346]
 [0.1        0.13048675]
 [0.2        1.72232558]
 [0.3        0.90654128]
 [0.4        1.62595787]
 [0.5        1.92320359]
 [0.6        1.99291341]
 [0.7        0.90201811]
 [0.8        1.76576748]
 [0.9        0.88798876]
 [1.         1.6846147 ]
 [1.1        0.34329039]
 [1.14141667 1.96569685]]",0,0.205
8768944929,m,21,english,5,4,english,2024-02-01 10:32:41.968799,False,1,78,sounds\french\audio/french_36.wav,"[[  0.         -11.07319695]
 [  0.1        -25.71224467]
 [  0.2        -96.57480527]
 [  0.3         93.32142105]
 [  0.4         17.7749858 ]
 [  0.5        -73.30096507]
 [  0.6        -46.23339782]
 [  0.7        -83.63624017]
 [  0.8        -33.60594302]
 [  0.9          8.42036978]
 [  1.          36.75587817]
 [  1.1        -32.43019278]
 [  1.14141667  30.15808511]]","[[0.         0.23275599]
 [0.1        1.71731214]
 [0.2        0.39984068]
 [0.3        0.82158745]
 [0.4        1.37135508]
 [0.5        1.36933286]
 [0.6        0.23667526]
 [0.7        0.96954284]
 [0.8        1.15800278]
 [0.9        1.66574798]
 [1.         1.99186971]
 [1.1        1.21078933]
 [1.14141667 1.78246496]]",0,0.11
8768944929,m,21,english,5,4,english,2024-02-01 10:32:41.968799,False,1,79,sounds\french\audio/french_272.wav,"[[  0.          42.6629916 ]
 [  0.1        -44.58032128]
 [  0.2        -63.79515668]
 [  0.3         65.68552079]
 [  0.4        -73.43471872]
 [  0.5         -9.94342822]
 [  0.6        -63.79991276]
 [  0.7         10.2914571 ]
 [  0.8         44.90388393]
 [  0.9         11.26467692]
 [  1.         -19.2327242 ]
 [  1.1        -57.17946334]
 [  1.14141667  -5.9395339 ]]","[[0.         0.82181087]
 [0.1        1.24121052]
 [0.2        1.18763114]
 [0.3        1.12080473]
 [0.4        0.3216303 ]
 [0.5        1.28123666]
 [0.6        1.07872971]
 [0.7        1.60584441]
 [0.8        1.61709033]
 [0.9        0.76221234]
 [1.         1.01212213]
 [1.1        0.46924284]
 [1.14141667 0.6492678 ]]",0,0.502
8768944929,m,21,english,5,4,english,2024-02-01 10:32:41.968799,False,1,80,sounds\french\audio/french_482.wav,"[[  0.          36.72288444]
 [  0.1        -74.37204682]
 [  0.2         71.13468821]
 [  0.3         50.33353405]
 [  0.4         84.34534451]
 [  0.5         66.25922436]
 [  0.6         76.17786366]
 [  0.7         25.96769523]
 [  0.8         39.78352371]
 [  0.9        -88.77774388]
 [  1.           9.74099179]
 [  1.1        -60.17796236]
 [  1.14141667 -10.34898014]]","[[0.         1.71224607]
 [0.1        0.20516288]
 [0.2        1.69371904]
 [0.3        0.83336109]
 [0.4        1.46966602]
 [0.5        1.44499697]
 [0.6        0.96988956]
 [0.7        1.07990301]
 [0.8        0.07233571]
 [0.9        0.97924424]
 [1.         0.13542435]
 [1.1        1.07133794]
 [1.14141667 0.76477886]]",0,0.476
8768944929,m,21,english,5,4,english,2024-02-01 10:32:41.968799,False,1,81,sounds\french\audio/french_464.wav,"[[  0.         -31.89981656]
 [  0.1        -74.57449903]
 [  0.2         81.04497479]
 [  0.3          1.14146737]
 [  0.4        -32.54749474]
 [  0.5         87.83227513]
 [  0.6        -40.10469542]
 [  0.7         90.7248677 ]
 [  0.8         23.85488859]
 [  0.9        -35.43452306]
 [  1.         -13.88301207]
 [  1.1         17.19330591]
 [  1.14141667   7.57103799]]","[[0.         1.18782903]
 [0.1        1.71201665]
 [0.2        0.18390312]
 [0.3        0.57430787]
 [0.4        1.11007143]
 [0.5        1.60124957]
 [0.6        0.64324141]
 [0.7        1.4423181 ]
 [0.8        0.98778196]
 [0.9        0.8055077 ]
 [1.         1.3968905 ]
 [1.1        0.90412921]
 [1.14141667 1.47831872]]",0,0.211
8768944929,m,21,english,5,4,english,2024-02-01 10:32:41.968799,False,1,82,sounds\french\audio/french_769.wav,"[[  0.         -13.36397128]
 [  0.1        -64.48089362]
 [  0.2         58.9023119 ]
 [  0.3         61.12929075]
 [  0.4         97.98097103]
 [  0.5        -77.00062239]
 [  0.6         59.53320612]
 [  0.7        -14.37943066]
 [  0.8         75.08575961]
 [  0.9         -1.90306473]
 [  1.          35.59710513]
 [  1.1        -66.64381006]
 [  1.14141667 -84.5225479 ]]","[[0.         1.58116724]
 [0.1        1.15876737]
 [0.2        1.60731332]
 [0.3        1.39997134]
 [0.4        0.84578271]
 [0.5        1.25139679]
 [0.6        0.60224046]
 [0.7        1.04948576]
 [0.8        0.62368881]
 [0.9        1.18190657]
 [1.         0.32402268]
 [1.1        0.29640924]
 [1.14141667 1.49866135]]",1,0.342
8768944929,m,21,english,5,4,english,2024-02-01 10:32:41.968799,False,1,83,sounds\french\audio/french_33.wav,"[[  0.         -73.97774923]
 [  0.1        -36.06885346]
 [  0.2        -90.19934184]
 [  0.3          0.39936716]
 [  0.4         96.52672865]
 [  0.5         63.74011165]
 [  0.6         31.44503744]
 [  0.7         14.04693027]
 [  0.8        -77.85077502]
 [  0.9         68.67883666]
 [  1.          74.94832397]
 [  1.1         69.92169069]
 [  1.14141667  18.14392296]]","[[0.         1.19939349]
 [0.1        0.62157126]
 [0.2        0.91970763]
 [0.3        1.47370084]
 [0.4        1.0541108 ]
 [0.5        0.90431886]
 [0.6        1.27813504]
 [0.7        1.74599993]
 [0.8        1.73098361]
 [0.9        1.17206891]
 [1.         1.57344571]
 [1.1        0.28570847]
 [1.14141667 1.15456632]]",0,0.155
8768944929,m,21,english,5,4,english,2024-02-01 10:32:41.968799,False,1,84,sounds\french\audio/french_915.wav,"[[  0.          24.97229927]
 [  0.1          9.55755976]
 [  0.2        -36.73982377]
 [  0.3         16.36164394]
 [  0.4         18.89549827]
 [  0.5         29.58178959]
 [  0.6         67.00984201]
 [  0.7         69.33436498]
 [  0.8        -68.5567505 ]
 [  0.9        -82.82111497]
 [  1.         -19.3056594 ]
 [  1.1         46.67656137]
 [  1.14141667 -49.01815879]]","[[0.         0.29650111]
 [0.1        1.7574547 ]
 [0.2        1.09391109]
 [0.3        0.1335892 ]
 [0.4        1.43122832]
 [0.5        1.80794112]
 [0.6        1.50463968]
 [0.7        1.3294998 ]
 [0.8        1.58149329]
 [0.9        1.17041831]
 [1.         0.93306192]
 [1.1        0.84227441]
 [1.14141667 1.06379674]]",0,0.21
8768944929,m,21,english,5,4,english,2024-02-01 10:32:41.968799,False,1,85,sounds\french\audio/french_419.wav,"[[  0.          40.58520075]
 [  0.1         70.57222365]
 [  0.2         69.27547246]
 [  0.3         13.01026316]
 [  0.4        -86.96432775]
 [  0.5        -28.12777227]
 [  0.6        -77.3052971 ]
 [  0.7         -4.39988688]
 [  0.8        -13.43420627]
 [  0.9        -18.15540347]
 [  1.         -15.3428643 ]
 [  1.1        -79.03113674]
 [  1.14141667 -15.39593272]]","[[0.         0.58190194]
 [0.1        0.48424411]
 [0.2        1.14946849]
 [0.3        1.05002848]
 [0.4        0.56529053]
 [0.5        1.42245746]
 [0.6        0.39921231]
 [0.7        0.67389644]
 [0.8        0.69782841]
 [0.9        1.51600011]
 [1.         0.91352501]
 [1.1        1.39266727]
 [1.14141667 0.36520872]]",0,0.115
8768944929,m,21,english,5,4,english,2024-02-01 10:32:41.968799,False,1,86,sounds\french\audio/french_290.wav,"[[  0.          51.79529481]
 [  0.1        -44.96208288]
 [  0.2         -8.40336913]
 [  0.3        -33.79266006]
 [  0.4        -16.62160995]
 [  0.5        -47.44959741]
 [  0.6         35.7383964 ]
 [  0.7         75.70793439]
 [  0.8        -73.28364488]
 [  0.9         86.89485551]
 [  1.         -78.42663164]
 [  1.1        -66.68243358]
 [  1.14141667 -12.30663823]]","[[0.         1.3540835 ]
 [0.1        1.67127724]
 [0.2        1.47048536]
 [0.3        1.6703547 ]
 [0.4        1.62049275]
 [0.5        1.23154079]
 [0.6        0.29540954]
 [0.7        1.03665221]
 [0.8        0.51418573]
 [0.9        0.34642395]
 [1.         1.30745758]
 [1.1        0.53814921]
 [1.14141667 0.82648066]]",0,0.509
8768944929,m,21,english,5,4,english,2024-02-01 10:32:41.968799,False,1,87,sounds\french\audio/french_892.wav,"[[  0.           2.48516085]
 [  0.1        -76.22143396]
 [  0.2         93.28499715]
 [  0.3         12.13691899]
 [  0.4        -69.30233484]
 [  0.5         20.86949567]
 [  0.6        -38.30390535]
 [  0.7        -51.39274588]
 [  0.8         66.90425757]
 [  0.9        -53.91373226]
 [  1.          17.61869839]
 [  1.1        -34.76358151]
 [  1.14141667  15.85772352]]","[[0.         0.58260241]
 [0.1        1.93950295]
 [0.2        0.79251677]
 [0.3        1.61878069]
 [0.4        0.35146725]
 [0.5        1.82455818]
 [0.6        1.06886099]
 [0.7        1.74424774]
 [0.8        1.75805462]
 [0.9        1.69854439]
 [1.         0.60409156]
 [1.1        0.5214224 ]
 [1.14141667 1.48692913]]",0,0.239
8768944929,m,21,english,5,4,english,2024-02-01 10:32:41.968799,False,1,88,sounds\french\audio/french_857.wav,"[[  0.         -17.64526742]
 [  0.1        -25.98877449]
 [  0.2        -66.10832937]
 [  0.3        -88.51094871]
 [  0.4         91.07890977]
 [  0.5        -13.92008987]
 [  0.6         54.75941796]
 [  0.7         -4.58518353]
 [  0.8         11.45557139]
 [  0.9          5.18176205]
 [  1.         -87.80596671]
 [  1.1         79.86083704]
 [  1.14141667  17.65085073]]","[[0.         1.40873737]
 [0.1        1.52012132]
 [0.2        0.61506303]
 [0.3        0.08867208]
 [0.4        1.21823938]
 [0.5        1.56249666]
 [0.6        0.75412867]
 [0.7        1.52143423]
 [0.8        0.77508155]
 [0.9        0.32822579]
 [1.         1.53825627]
 [1.1        0.27496503]
 [1.14141667 1.00153669]]",1,0.276
8768944929,m,21,english,5,4,english,2024-02-01 10:32:41.968799,False,1,89,sounds\french\audio/french_232.wav,"[[  0.          36.09628774]
 [  0.1         70.77342165]
 [  0.2         92.70412942]
 [  0.3         11.2091004 ]
 [  0.4         97.58748495]
 [  0.5         34.99158462]
 [  0.6         83.35627055]
 [  0.7         54.22162088]
 [  0.8         32.72297276]
 [  0.9          5.03567369]
 [  1.         -23.14752626]
 [  1.1        -11.42184493]
 [  1.14141667 -77.93527489]]","[[0.         0.41820771]
 [0.1        0.42448846]
 [0.2        1.53853672]
 [0.3        1.60298784]
 [0.4        1.81399086]
 [0.5        0.3805347 ]
 [0.6        1.83687399]
 [0.7        1.52559445]
 [0.8        0.94250496]
 [0.9        0.72452257]
 [1.         1.88926376]
 [1.1        0.29038285]
 [1.14141667 1.71088611]]",1,0.498
8768944929,m,21,english,5,4,english,2024-02-01 10:32:41.968799,False,1,90,sounds\french\audio/french_7.wav,"[[  0.          17.30709494]
 [  0.1        -63.94658261]
 [  0.2         67.53719725]
 [  0.3         63.15001228]
 [  0.4        -14.43015731]
 [  0.5         44.13924234]
 [  0.6        -87.5939518 ]
 [  0.7        -21.88923859]
 [  0.8        -75.22079211]
 [  0.9        -44.33295618]
 [  1.         -82.62011516]
 [  1.1        -28.3543826 ]
 [  1.14141667  39.13782865]]","[[0.         0.40724151]
 [0.1        1.34555896]
 [0.2        1.64185408]
 [0.3        1.66374523]
 [0.4        0.37650843]
 [0.5        0.14892944]
 [0.6        1.49586542]
 [0.7        1.13659751]
 [0.8        1.64492365]
 [0.9        1.22066873]
 [1.         1.13133422]
 [1.1        0.5437483 ]
 [1.14141667 1.32903079]]",1,0.477
8768944929,m,21,english,5,4,english,2024-02-01 10:32:41.968799,False,1,91,sounds\french\audio/french_20.wav,"[[  0.          99.65561003]
 [  0.1         51.66004125]
 [  0.2        -76.89948892]
 [  0.3        -80.20995182]
 [  0.4          2.11857074]
 [  0.5        -69.78084695]
 [  0.6         26.89866499]
 [  0.7        -26.3860397 ]
 [  0.8        -62.8791176 ]
 [  0.9        -29.35835396]
 [  1.         -65.74026017]
 [  1.1        -54.48614685]
 [  1.14141667 -72.89507656]]","[[0.         0.62353112]
 [0.1        1.24302148]
 [0.2        1.00690034]
 [0.3        0.78405984]
 [0.4        1.32665648]
 [0.5        1.65847448]
 [0.6        1.16684739]
 [0.7        0.37446638]
 [0.8        0.29075744]
 [0.9        1.21353551]
 [1.         1.80876207]
 [1.1        1.93887729]
 [1.14141667 1.10272672]]",0,0.066
8768944929,m,21,english,5,4,english,2024-02-01 10:32:41.968799,False,1,92,sounds\french\audio/french_688.wav,"[[  0.          91.54391251]
 [  0.1         78.06416421]
 [  0.2        -58.48067555]
 [  0.3        -90.2136996 ]
 [  0.4        -50.08146281]
 [  0.5          0.90253223]
 [  0.6        -14.71129545]
 [  0.7        -23.6898362 ]
 [  0.8         31.11024133]
 [  0.9        -14.23643957]
 [  1.          63.67411618]
 [  1.1         62.83310166]
 [  1.14141667  -7.71472793]]","[[0.         1.81466251]
 [0.1        1.53337533]
 [0.2        0.98967466]
 [0.3        1.42275833]
 [0.4        1.74242441]
 [0.5        1.11374005]
 [0.6        0.56963487]
 [0.7        0.82081927]
 [0.8        1.73481969]
 [0.9        0.39687116]
 [1.         0.09343869]
 [1.1        0.28087028]
 [1.14141667 0.17948475]]",1,0.578
8768944929,m,21,english,5,4,english,2024-02-01 10:32:41.968799,False,1,93,sounds\french\audio/french_504.wav,"[[  0.         -41.82140768]
 [  0.1         97.07530933]
 [  0.2         61.02388002]
 [  0.3        -27.18611965]
 [  0.4        -58.17917059]
 [  0.5          9.56156567]
 [  0.6         98.52665159]
 [  0.7         98.98825478]
 [  0.8         94.82792761]
 [  0.9         75.17568326]
 [  1.         -46.15164739]
 [  1.1         73.71983811]
 [  1.14141667  48.12743652]]","[[0.         1.84770239]
 [0.1        0.49171838]
 [0.2        0.47472033]
 [0.3        1.44367117]
 [0.4        0.04505535]
 [0.5        0.75389127]
 [0.6        1.37136318]
 [0.7        0.89733916]
 [0.8        1.83341516]
 [0.9        0.71992929]
 [1.         0.35031196]
 [1.1        0.61578475]
 [1.14141667 0.73246634]]",1,0.298
8768944929,m,21,english,5,4,english,2024-02-01 10:32:41.968799,False,1,94,sounds\french\audio/french_157.wav,"[[  0.          69.97477415]
 [  0.1         72.72595515]
 [  0.2        -33.66198838]
 [  0.3         74.09002914]
 [  0.4         85.51837751]
 [  0.5         11.96036414]
 [  0.6         82.38779863]
 [  0.7         -0.78209189]
 [  0.8         11.04458638]
 [  0.9        -17.32930902]
 [  1.         -52.23484841]
 [  1.1         18.58428374]
 [  1.14141667  25.28800571]]","[[0.         1.12639282]
 [0.1        1.23676665]
 [0.2        1.59283895]
 [0.3        0.72154752]
 [0.4        0.48756242]
 [0.5        1.48768951]
 [0.6        0.9583922 ]
 [0.7        0.51068024]
 [0.8        0.8039419 ]
 [0.9        0.62025683]
 [1.         1.50951515]
 [1.1        1.73174574]
 [1.14141667 1.85759881]]",0,0.186
8768944929,m,21,english,5,4,english,2024-02-01 10:32:41.968799,False,1,95,sounds\french\audio/french_597.wav,"[[  0.           3.81117618]
 [  0.1          1.65290583]
 [  0.2         75.20334273]
 [  0.3        -31.80520796]
 [  0.4         47.06388339]
 [  0.5        -12.18502222]
 [  0.6         16.00653048]
 [  0.7         -1.06509013]
 [  0.8        -88.67460342]
 [  0.9         79.23096379]
 [  1.         -37.6385831 ]
 [  1.1        -82.3453721 ]
 [  1.14141667  50.39965119]]","[[0.         0.64425147]
 [0.1        1.80851034]
 [0.2        0.13064714]
 [0.3        1.14595158]
 [0.4        1.20714689]
 [0.5        1.21300166]
 [0.6        1.59786204]
 [0.7        1.5777009 ]
 [0.8        1.85046757]
 [0.9        0.15850725]
 [1.         0.67581982]
 [1.1        0.97379481]
 [1.14141667 1.28226838]]",1,0.318
8768944929,m,21,english,5,4,english,2024-02-01 10:32:41.968799,False,1,96,sounds\french\audio/french_612.wav,"[[  0.         -47.07678459]
 [  0.1          3.63425246]
 [  0.2         31.48917189]
 [  0.3         44.38742484]
 [  0.4         15.5069451 ]
 [  0.5        -51.49122096]
 [  0.6         -1.02254843]
 [  0.7         12.87739328]
 [  0.8        -63.80282001]
 [  0.9        -37.54711338]
 [  1.          40.2162033 ]
 [  1.1         -4.31624045]
 [  1.14141667  64.58566043]]","[[0.         0.11615232]
 [0.1        0.47093102]
 [0.2        0.45807262]
 [0.3        0.81161175]
 [0.4        1.0193018 ]
 [0.5        1.66697075]
 [0.6        0.50056041]
 [0.7        0.70368677]
 [0.8        1.91892506]
 [0.9        1.2931891 ]
 [1.         0.20059311]
 [1.1        0.09557344]
 [1.14141667 1.97325213]]",0,0.785
8768944929,m,21,english,5,4,english,2024-02-01 10:32:41.968799,False,1,97,sounds\french\audio/french_439.wav,"[[  0.         -32.28323939]
 [  0.1         29.93605485]
 [  0.2        -39.64535977]
 [  0.3        -32.42924047]
 [  0.4         -3.35459171]
 [  0.5         13.22953354]
 [  0.6        -29.12679426]
 [  0.7         13.61303751]
 [  0.8          5.30283855]
 [  0.9         43.00696904]
 [  1.         -52.45042428]
 [  1.1        -24.87109978]
 [  1.14141667  92.03582626]]","[[0.         0.56998984]
 [0.1        1.15231649]
 [0.2        1.65572476]
 [0.3        1.38139889]
 [0.4        1.51352797]
 [0.5        1.48907065]
 [0.6        1.80936999]
 [0.7        1.41531542]
 [0.8        1.72272866]
 [0.9        0.32884625]
 [1.         0.33989923]
 [1.1        1.75286039]
 [1.14141667 1.13557968]]",1,1.13
8768944929,m,21,english,5,4,english,2024-02-01 10:32:41.968799,False,1,98,sounds\french\audio/french_61.wav,"[[  0.          41.87992751]
 [  0.1         50.01429837]
 [  0.2         78.41281703]
 [  0.3         70.942707  ]
 [  0.4          6.43514776]
 [  0.5         81.12101614]
 [  0.6        -70.01679423]
 [  0.7         46.72667831]
 [  0.8        -54.13188201]
 [  0.9        -63.1082098 ]
 [  1.           9.65318656]
 [  1.1         -4.6968319 ]
 [  1.14141667 -73.64232026]]","[[0.         0.15859946]
 [0.1        0.0345307 ]
 [0.2        1.61149795]
 [0.3        0.93558847]
 [0.4        0.85490183]
 [0.5        1.46257569]
 [0.6        0.3355041 ]
 [0.7        1.1796592 ]
 [0.8        0.85418156]
 [0.9        1.72427487]
 [1.         1.58200109]
 [1.1        0.07311123]
 [1.14141667 1.36717067]]",0,0.326
8768944929,m,21,english,5,4,english,2024-02-01 10:32:41.968799,False,1,99,sounds\french\audio/french_66.wav,"[[  0.         -98.32760245]
 [  0.1        -62.26266621]
 [  0.2         89.72937552]
 [  0.3         56.77934236]
 [  0.4        -42.45776165]
 [  0.5        -59.91789644]
 [  0.6         -9.4669158 ]
 [  0.7         65.23523517]
 [  0.8        -82.94194698]
 [  0.9        -10.04050412]
 [  1.          69.7789537 ]
 [  1.1         65.31837891]
 [  1.14141667  -9.82207776]]","[[0.         0.76752471]
 [0.1        1.09885532]
 [0.2        0.15772662]
 [0.3        0.75379746]
 [0.4        0.86935584]
 [0.5        0.32743409]
 [0.6        0.75398911]
 [0.7        1.26665279]
 [0.8        1.24326808]
 [0.9        1.27187404]
 [1.         1.72227413]
 [1.1        1.95483723]
 [1.14141667 0.94632212]]",0,0.214
8768944929,m,21,english,5,4,english,2024-02-01 10:32:41.968799,False,1,100,sounds\french\audio/french_417.wav,"[[  0.         -32.77068381]
 [  0.1         10.55708239]
 [  0.2          9.91718709]
 [  0.3        -19.65098282]
 [  0.4         78.0410625 ]
 [  0.5        -63.41834819]
 [  0.6        -12.08890259]
 [  0.7        -70.29934215]
 [  0.8          4.63752128]
 [  0.9        -68.78784985]
 [  1.          70.79482523]
 [  1.1        -86.94841883]
 [  1.14141667  94.70906792]]","[[0.         1.43807666]
 [0.1        0.31892394]
 [0.2        0.85335618]
 [0.3        1.09322127]
 [0.4        1.86029096]
 [0.5        1.98490369]
 [0.6        0.83094909]
 [0.7        1.67039107]
 [0.8        1.16186805]
 [0.9        0.77381791]
 [1.         1.82295332]
 [1.1        0.89972345]
 [1.14141667 1.91023493]]",0,0.553
8768944929,m,21,english,5,4,english,2024-02-01 10:32:41.968799,False,1,101,sounds\french\audio/french_261.wav,"[[  0.          12.34576995]
 [  0.1         25.47601384]
 [  0.2        -67.0906301 ]
 [  0.3        -13.09856908]
 [  0.4         68.1575105 ]
 [  0.5         -2.34833931]
 [  0.6        -56.25265887]
 [  0.7         99.24314725]
 [  0.8         97.55208396]
 [  0.9        -44.49919777]
 [  1.          -9.98862023]
 [  1.1         12.33371854]
 [  1.14141667   0.5455691 ]]","[[0.         0.50310042]
 [0.1        0.25268449]
 [0.2        0.7627603 ]
 [0.3        1.52142005]
 [0.4        1.92904385]
 [0.5        0.33812634]
 [0.6        1.12365674]
 [0.7        0.56685205]
 [0.8        1.813104  ]
 [0.9        1.56800569]
 [1.         0.34584513]
 [1.1        0.48440501]
 [1.14141667 1.72005323]]",0,0.498
8768944929,m,21,english,5,4,english,2024-02-01 10:32:41.968799,False,1,102,sounds\french\audio/french_664.wav,"[[  0.         -91.74200012]
 [  0.1         67.3163071 ]
 [  0.2        -14.92110663]
 [  0.3        -15.00532605]
 [  0.4        -71.83608899]
 [  0.5         60.19723794]
 [  0.6        -88.50711363]
 [  0.7         29.2172503 ]
 [  0.8         46.83116703]
 [  0.9        -16.00706746]
 [  1.           0.77059242]
 [  1.1        -11.58487906]
 [  1.14141667 -15.46228134]]","[[0.         1.5436769 ]
 [0.1        1.28396624]
 [0.2        0.86320374]
 [0.3        1.18530683]
 [0.4        0.7104349 ]
 [0.5        0.80286179]
 [0.6        0.79382779]
 [0.7        0.16919782]
 [0.8        1.5381824 ]
 [0.9        1.94367969]
 [1.         1.56397286]
 [1.1        0.83434339]
 [1.14141667 1.77198089]]",0,0.181
8768944929,m,21,english,5,4,english,2024-02-01 10:32:41.968799,False,1,103,sounds\french\audio/french_261.wav,"[[  0.          12.34576995]
 [  0.1         25.47601384]
 [  0.2        -67.0906301 ]
 [  0.3        -13.09856908]
 [  0.4         68.1575105 ]
 [  0.5         -2.34833931]
 [  0.6        -56.25265887]
 [  0.7         99.24314725]
 [  0.8         97.55208396]
 [  0.9        -44.49919777]
 [  1.          -9.98862023]
 [  1.1         12.33371854]
 [  1.14141667   0.5455691 ]]","[[0.         0.50310042]
 [0.1        0.25268449]
 [0.2        0.7627603 ]
 [0.3        1.52142005]
 [0.4        1.92904385]
 [0.5        0.33812634]
 [0.6        1.12365674]
 [0.7        0.56685205]
 [0.8        1.813104  ]
 [0.9        1.56800569]
 [1.         0.34584513]
 [1.1        0.48440501]
 [1.14141667 1.72005323]]",1,0.297
8768944929,m,21,english,5,4,english,2024-02-01 10:32:41.968799,False,1,104,sounds\french\audio/french_692.wav,"[[  0.          -3.63018758]
 [  0.1        -68.16293379]
 [  0.2         94.54361928]
 [  0.3         25.0958546 ]
 [  0.4        -99.12905949]
 [  0.5        -47.00596257]
 [  0.6        -38.46033818]
 [  0.7        -52.37005629]
 [  0.8         29.27180561]
 [  0.9        -18.83326647]
 [  1.         -60.91466225]
 [  1.1        -20.82797719]
 [  1.14141667 -55.17315813]]","[[0.         1.78860692]
 [0.1        0.86300874]
 [0.2        1.08735966]
 [0.3        0.96562877]
 [0.4        1.65441916]
 [0.5        1.19889603]
 [0.6        0.04010608]
 [0.7        0.99288232]
 [0.8        1.70634134]
 [0.9        0.96715022]
 [1.         1.75736357]
 [1.1        1.93453934]
 [1.14141667 0.43289188]]",0,0.152
8768944929,m,21,english,5,4,english,2024-02-01 10:32:41.968799,False,1,105,sounds\french\audio/french_995.wav,"[[  0.          -7.96170134]
 [  0.1         16.92823204]
 [  0.2        -40.54890316]
 [  0.3        -71.09270346]
 [  0.4         46.54513782]
 [  0.5         59.06901586]
 [  0.6        -58.22637358]
 [  0.7        -29.07251542]
 [  0.8         84.28421244]
 [  0.9        -60.55841307]
 [  1.         -85.37373366]
 [  1.1         74.0830088 ]
 [  1.14141667 -94.4877363 ]]","[[0.         0.38046684]
 [0.1        1.97441067]
 [0.2        1.70137584]
 [0.3        0.49841536]
 [0.4        1.82989671]
 [0.5        1.58130205]
 [0.6        1.51644627]
 [0.7        1.82310545]
 [0.8        1.6943219 ]
 [0.9        1.78542911]
 [1.         1.55666291]
 [1.1        1.22590756]
 [1.14141667 1.8324788 ]]",0,0.486
8768944929,m,21,english,5,4,english,2024-02-01 10:32:41.968799,False,1,106,sounds\french\audio/french_494.wav,"[[  0.         -63.06404362]
 [  0.1         96.51347021]
 [  0.2         -2.42253065]
 [  0.3        -48.75339143]
 [  0.4        -24.81746908]
 [  0.5         48.2850129 ]
 [  0.6         54.45085632]
 [  0.7        -83.01359294]
 [  0.8        -84.59229686]
 [  0.9        -65.14189239]
 [  1.         -11.3391069 ]
 [  1.1         78.07442638]
 [  1.14141667 -31.23345007]]","[[0.         1.09976962]
 [0.1        1.87842448]
 [0.2        1.92383282]
 [0.3        1.77831814]
 [0.4        0.55991085]
 [0.5        1.16635493]
 [0.6        1.39460853]
 [0.7        1.30103041]
 [0.8        1.62563762]
 [0.9        0.22506805]
 [1.         0.45947007]
 [1.1        0.29396602]
 [1.14141667 0.46095403]]",0,1.596
8768944929,m,21,english,5,4,english,2024-02-01 10:32:41.968799,False,1,107,sounds\french\audio/french_254.wav,"[[  0.          75.2945508 ]
 [  0.1         38.40784012]
 [  0.2         -3.45801992]
 [  0.3        -16.53874186]
 [  0.4         40.95649298]
 [  0.5         -2.76974338]
 [  0.6        -14.89193372]
 [  0.7          6.98344765]
 [  0.8        -11.38819477]
 [  0.9         31.37717737]
 [  1.         -27.40134119]
 [  1.1        -15.25823698]
 [  1.14141667  52.56825486]]","[[0.         1.80685914]
 [0.1        0.82548004]
 [0.2        0.60126929]
 [0.3        1.71103273]
 [0.4        1.57269369]
 [0.5        1.05246524]
 [0.6        1.10171175]
 [0.7        0.20129796]
 [0.8        1.28961808]
 [0.9        0.6064434 ]
 [1.         1.272806  ]
 [1.1        1.69518769]
 [1.14141667 1.16774241]]",0,0.276
8768944929,m,21,english,5,4,english,2024-02-01 10:32:41.968799,False,1,108,sounds\french\audio/french_617.wav,"[[  0.          41.18921531]
 [  0.1        -35.03636924]
 [  0.2        -74.98228457]
 [  0.3        -36.51435822]
 [  0.4        -95.32464294]
 [  0.5         84.01929298]
 [  0.6         32.67157622]
 [  0.7        -71.7342706 ]
 [  0.8        -45.86213667]
 [  0.9         87.19566362]
 [  1.         -47.72681817]
 [  1.1         15.937344  ]
 [  1.14141667  72.65175015]]","[[0.         0.91184006]
 [0.1        1.24340801]
 [0.2        1.94725418]
 [0.3        0.5653448 ]
 [0.4        1.52373912]
 [0.5        1.56026974]
 [0.6        0.19851572]
 [0.7        1.89713844]
 [0.8        1.81378599]
 [0.9        1.31045157]
 [1.         0.66805601]
 [1.1        0.14648847]
 [1.14141667 0.64127007]]",1,0.49
8768944929,m,21,english,5,4,english,2024-02-01 10:32:41.968799,False,1,109,sounds\french\audio/french_795.wav,"[[  0.         -21.08309892]
 [  0.1         59.58252322]
 [  0.2          6.11237041]
 [  0.3         58.03369212]
 [  0.4        -28.03684828]
 [  0.5         44.29336732]
 [  0.6         68.51544354]
 [  0.7         74.11361363]
 [  0.8         -2.59593741]
 [  0.9         59.06123197]
 [  1.         -53.1439491 ]
 [  1.1        -19.26569935]
 [  1.14141667 -83.8743413 ]]","[[0.         1.78240197]
 [0.1        0.19872183]
 [0.2        0.3294255 ]
 [0.3        1.38018168]
 [0.4        1.88529857]
 [0.5        0.85268849]
 [0.6        1.95230834]
 [0.7        1.0063729 ]
 [0.8        0.66346158]
 [0.9        0.75463723]
 [1.         1.27497419]
 [1.1        0.26186886]
 [1.14141667 1.40979019]]",0,0.799
8768944929,m,21,english,5,4,english,2024-02-01 10:32:41.968799,False,1,110,sounds\french\audio/french_765.wav,"[[  0.         -21.76223445]
 [  0.1        -69.88378146]
 [  0.2        -54.62116144]
 [  0.3         80.40698851]
 [  0.4         44.49094145]
 [  0.5        -34.58786744]
 [  0.6        -82.72511393]
 [  0.7        -17.30470796]
 [  0.8         -3.21936287]
 [  0.9         34.09717353]
 [  1.         -34.0267679 ]
 [  1.1         91.79101104]
 [  1.14141667  44.37260858]]","[[0.         1.58709165]
 [0.1        1.30096868]
 [0.2        0.79134487]
 [0.3        1.38985141]
 [0.4        1.16396661]
 [0.5        0.50418915]
 [0.6        0.66043503]
 [0.7        0.90266971]
 [0.8        0.65632044]
 [0.9        1.38813555]
 [1.         1.56070696]
 [1.1        1.04399467]
 [1.14141667 0.73913352]]",0,1.672
8768944929,m,21,english,5,4,english,2024-02-01 10:32:41.968799,False,1,111,sounds\french\audio/french_244.wav,"[[  0.         -40.90857257]
 [  0.1        -23.19940354]
 [  0.2         -9.74154174]
 [  0.3         87.19522638]
 [  0.4         -7.49916647]
 [  0.5        -95.1828161 ]
 [  0.6        -18.16824401]
 [  0.7        -82.50536742]
 [  0.8        -31.01536133]
 [  0.9        -10.22104565]
 [  1.         -10.44065108]
 [  1.1        -73.85387114]
 [  1.14141667 -85.30185074]]","[[0.         1.48710022]
 [0.1        1.78796145]
 [0.2        0.48835371]
 [0.3        1.90695857]
 [0.4        0.52976083]
 [0.5        1.55056133]
 [0.6        0.52884278]
 [0.7        1.94726977]
 [0.8        1.32231376]
 [0.9        0.62488791]
 [1.         0.52375366]
 [1.1        0.61432095]
 [1.14141667 1.48327973]]",0,0.89
8768944929,m,21,english,5,4,english,2024-02-01 10:32:41.968799,False,1,112,sounds\french\audio/french_797.wav,"[[  0.          21.19375213]
 [  0.1        -75.16406807]
 [  0.2         -4.85614597]
 [  0.3         91.23547164]
 [  0.4        -54.80294813]
 [  0.5         48.10269994]
 [  0.6         54.93610027]
 [  0.7         62.57379696]
 [  0.8         24.98836028]
 [  0.9         -3.72214582]
 [  1.         -62.87276207]
 [  1.1        -30.73571803]
 [  1.14141667   4.39947177]]","[[0.00000000e+00 1.68857830e+00]
 [1.00000000e-01 1.52001867e+00]
 [2.00000000e-01 1.53377587e-03]
 [3.00000000e-01 6.11668920e-01]
 [4.00000000e-01 1.57623559e+00]
 [5.00000000e-01 1.04622328e+00]
 [6.00000000e-01 4.19234590e-01]
 [7.00000000e-01 1.89958561e+00]
 [8.00000000e-01 2.32068950e-01]
 [9.00000000e-01 3.26654429e-01]
 [1.00000000e+00 1.16190078e+00]
 [1.10000000e+00 1.32699658e+00]
 [1.14141667e+00 1.24572836e+00]]",0,0.521
8768944929,m,21,english,5,4,english,2024-02-01 10:32:41.968799,False,1,113,sounds\french\audio/french_997.wav,"[[  0.          10.01615928]
 [  0.1        -31.7574677 ]
 [  0.2          2.7154438 ]
 [  0.3        -79.91650454]
 [  0.4          8.77466148]
 [  0.5        -16.22256487]
 [  0.6        -60.89392268]
 [  0.7        -24.52842539]
 [  0.8        -19.72610301]
 [  0.9        -89.9387941 ]
 [  1.          38.50843253]
 [  1.1         62.26606254]
 [  1.14141667  46.03408292]]","[[0.         1.51695933]
 [0.1        1.40378883]
 [0.2        1.52016823]
 [0.3        1.1088133 ]
 [0.4        0.49857821]
 [0.5        1.0829469 ]
 [0.6        0.81899516]
 [0.7        0.89305884]
 [0.8        0.05024955]
 [0.9        0.47019022]
 [1.         0.78624029]
 [1.1        1.1092027 ]
 [1.14141667 0.99852276]]",0,0.766
8768944929,m,21,english,5,4,english,2024-02-01 10:32:41.968799,False,1,114,sounds\french\audio/french_666.wav,"[[  0.          92.96865197]
 [  0.1         83.19708081]
 [  0.2        -93.00429792]
 [  0.3         90.20261319]
 [  0.4        -87.15662035]
 [  0.5        -47.24627787]
 [  0.6         59.30035154]
 [  0.7        -15.62578407]
 [  0.8        -24.02578561]
 [  0.9        -81.73454308]
 [  1.           8.5752321 ]
 [  1.1         81.49647055]
 [  1.14141667 -18.83163279]]","[[0.         0.97097631]
 [0.1        1.21196334]
 [0.2        0.21493139]
 [0.3        0.41981713]
 [0.4        1.50078267]
 [0.5        1.52836047]
 [0.6        0.33218379]
 [0.7        0.67593379]
 [0.8        0.65338916]
 [0.9        1.43079887]
 [1.         0.1051972 ]
 [1.1        1.769445  ]
 [1.14141667 0.88398821]]",1,0.309
8768944929,m,21,english,5,4,english,2024-02-01 10:32:41.968799,False,1,115,sounds\french\audio/french_482.wav,"[[  0.          36.72288444]
 [  0.1        -74.37204682]
 [  0.2         71.13468821]
 [  0.3         50.33353405]
 [  0.4         84.34534451]
 [  0.5         66.25922436]
 [  0.6         76.17786366]
 [  0.7         25.96769523]
 [  0.8         39.78352371]
 [  0.9        -88.77774388]
 [  1.           9.74099179]
 [  1.1        -60.17796236]
 [  1.14141667 -10.34898014]]","[[0.         1.71224607]
 [0.1        0.20516288]
 [0.2        1.69371904]
 [0.3        0.83336109]
 [0.4        1.46966602]
 [0.5        1.44499697]
 [0.6        0.96988956]
 [0.7        1.07990301]
 [0.8        0.07233571]
 [0.9        0.97924424]
 [1.         0.13542435]
 [1.1        1.07133794]
 [1.14141667 0.76477886]]",0,0.489
8768944929,m,21,english,5,4,english,2024-02-01 10:32:41.968799,False,1,116,sounds\french\audio/french_391.wav,"[[  0.         -63.38951   ]
 [  0.1        -12.13737461]
 [  0.2        -38.21112995]
 [  0.3          4.18791745]
 [  0.4         11.17446833]
 [  0.5          7.29155963]
 [  0.6        -58.1710113 ]
 [  0.7         43.11353546]
 [  0.8        -94.57778997]
 [  0.9        -20.01521967]
 [  1.         -15.40965354]
 [  1.1        -78.29833341]
 [  1.14141667 -63.95688504]]","[[0.         1.14224987]
 [0.1        1.31006617]
 [0.2        0.24455102]
 [0.3        0.96567526]
 [0.4        1.67923755]
 [0.5        0.50375972]
 [0.6        0.67632761]
 [0.7        1.0182493 ]
 [0.8        1.87677108]
 [0.9        0.59083803]
 [1.         1.56157441]
 [1.1        0.23424545]
 [1.14141667 1.62713208]]",0,1.456
8768944929,m,21,english,5,4,english,2024-02-01 10:32:41.968799,False,1,117,sounds\french\audio/french_154.wav,"[[  0.         -62.71695014]
 [  0.1         11.76696999]
 [  0.2         89.09000975]
 [  0.3         55.482511  ]
 [  0.4         48.82512352]
 [  0.5         72.58324687]
 [  0.6        -72.31376073]
 [  0.7         26.97262417]
 [  0.8         25.0060358 ]
 [  0.9         96.65829409]
 [  1.         -53.01793566]
 [  1.1        -28.38672299]
 [  1.14141667 -13.65079038]]","[[0.         0.91471161]
 [0.1        0.62594341]
 [0.2        1.0457949 ]
 [0.3        0.32994818]
 [0.4        0.38624098]
 [0.5        0.16529193]
 [0.6        0.35654306]
 [0.7        0.03013993]
 [0.8        0.71479537]
 [0.9        0.87549993]
 [1.         0.67316638]
 [1.1        0.16537435]
 [1.14141667 0.43572368]]",0,1.009
8768944929,m,21,english,5,4,english,2024-02-01 10:32:41.968799,False,1,118,sounds\french\audio/french_786.wav,"[[  0.          38.76441964]
 [  0.1        -17.22213434]
 [  0.2        -53.50411542]
 [  0.3         54.00869537]
 [  0.4         41.15972867]
 [  0.5          5.62640716]
 [  0.6        -40.24246399]
 [  0.7         37.40642031]
 [  0.8        -79.038697  ]
 [  0.9         -2.83409807]
 [  1.         -83.88540682]
 [  1.1        -36.64548828]
 [  1.14141667 -40.44439649]]","[[0.         1.14598177]
 [0.1        0.30884626]
 [0.2        1.46322181]
 [0.3        1.01008771]
 [0.4        0.8851671 ]
 [0.5        0.04808052]
 [0.6        0.01062828]
 [0.7        0.50762063]
 [0.8        1.45151939]
 [0.9        0.5557897 ]
 [1.         1.26457994]
 [1.1        0.26949796]
 [1.14141667 0.7448993 ]]",0,1.016
8768944929,m,21,english,5,4,english,2024-02-01 10:32:41.968799,False,1,119,sounds\french\audio/french_859.wav,"[[  0.           1.3379516 ]
 [  0.1        -77.14988891]
 [  0.2         78.55525238]
 [  0.3         48.96351303]
 [  0.4        -79.69152109]
 [  0.5        -84.80889232]
 [  0.6         51.82772479]
 [  0.7         44.24285845]
 [  0.8        -23.46330426]
 [  0.9         71.97448193]
 [  1.          66.15659707]
 [  1.1        -96.85014514]
 [  1.14141667  30.23995933]]","[[0.         1.36958818]
 [0.1        0.72000045]
 [0.2        0.35438615]
 [0.3        1.87808106]
 [0.4        0.09661352]
 [0.5        0.77016697]
 [0.6        1.09697533]
 [0.7        1.53057635]
 [0.8        0.58688687]
 [0.9        1.83686528]
 [1.         1.24721253]
 [1.1        1.51912792]
 [1.14141667 1.23413117]]",0,0.487
8768944929,m,21,english,5,4,english,2024-02-01 10:32:41.968799,False,1,120,sounds\french\audio/french_867.wav,"[[  0.         -53.43328625]
 [  0.1        -49.97355713]
 [  0.2        -58.9249957 ]
 [  0.3         43.5637091 ]
 [  0.4        -25.84589976]
 [  0.5         22.34280216]
 [  0.6          8.86479921]
 [  0.7          2.63749871]
 [  0.8         37.73266473]
 [  0.9         85.03367681]
 [  1.         -58.31214733]
 [  1.1         -2.53716971]
 [  1.14141667  48.69326258]]","[[0.         0.97812111]
 [0.1        1.3601437 ]
 [0.2        1.54753438]
 [0.3        1.06201045]
 [0.4        0.41331847]
 [0.5        0.42681136]
