subj,sex,age,language,english,french,native_lang,date,practice,block,trial,stim,pitch,stretch,response,rt
5,m,38,english,5,3,english,2024-02-09 19:18:22.337453,False,2,303,sounds\french\audio/french_287.wav,"[[  0.          24.91246091]
 [  0.1         67.7832239 ]
 [  0.2         45.53981298]
 [  0.3        -34.40875305]
 [  0.4         15.18631391]
 [  0.5        -31.03447886]
 [  0.6        -58.473992  ]
 [  0.7          5.63880144]
 [  0.8        -88.66742404]
 [  0.9        -39.07529751]
 [  1.          -4.11446779]
 [  1.1        -59.02603501]
 [  1.14141667  11.416303  ]]","[[0.         0.55628619]
 [0.1        0.6662612 ]
 [0.2        1.36903667]
 [0.3        0.2836932 ]
 [0.4        1.18401113]
 [0.5        0.95699151]
 [0.6        1.42939471]
 [0.7        0.68329905]
 [0.8        1.80121068]
 [0.9        1.9139007 ]
 [1.         0.02395004]
 [1.1        0.8859273 ]
 [1.14141667 1.12262587]]",0,2.103
5,m,38,english,5,3,english,2024-02-09 19:18:22.337453,False,2,304,sounds\french\audio/french_955.wav,"[[  0.         -94.25756264]
 [  0.1        -34.03260107]
 [  0.2        -13.41635507]
 [  0.3        -71.54807008]
 [  0.4        -77.331913  ]
 [  0.5        -50.91677929]
 [  0.6        -49.3272692 ]
 [  0.7         14.98823062]
 [  0.8        -92.82474453]
 [  0.9         52.03391348]
 [  1.         -96.34521909]
 [  1.1         -2.783526  ]
 [  1.14141667  38.46492665]]","[[0.         0.84151631]
 [0.1        0.64154244]
 [0.2        0.7407158 ]
 [0.3        0.93666894]
 [0.4        1.77494387]
 [0.5        1.86091326]
 [0.6        0.93752328]
 [0.7        1.66003137]
 [0.8        0.78633884]
 [0.9        1.69754994]
 [1.         1.91328734]
 [1.1        0.45528324]
 [1.14141667 0.73678697]]",1,1.437
5,m,38,english,5,3,english,2024-02-09 19:18:22.337453,False,2,305,sounds\french\audio/french_461.wav,"[[  0.          94.32370933]
 [  0.1        -20.71306493]
 [  0.2        -52.8787947 ]
 [  0.3         54.58301415]
 [  0.4         77.43262349]
 [  0.5         91.72055328]
 [  0.6        -68.29048705]
 [  0.7        -57.37161044]
 [  0.8         31.76308417]
 [  0.9        -99.65529565]
 [  1.         -27.48817095]
 [  1.1         97.80822664]
 [  1.14141667  42.47593373]]","[[0.         1.08116474]
 [0.1        0.77352279]
 [0.2        1.72406451]
 [0.3        1.0712012 ]
 [0.4        1.46762268]
 [0.5        1.02267728]
 [0.6        1.62970382]
 [0.7        0.33624611]
 [0.8        1.07879651]
 [0.9        0.11108974]
 [1.         0.0578911 ]
 [1.1        1.12963754]
 [1.14141667 1.30381109]]",0,0.646
5,m,38,english,5,3,english,2024-02-09 19:18:22.337453,False,2,306,sounds\french\audio/french_387.wav,"[[  0.         -24.79004383]
 [  0.1        -23.52605858]
 [  0.2        -91.83469308]
 [  0.3         -8.60515115]
 [  0.4         66.88839894]
 [  0.5         25.42600238]
 [  0.6         -7.40031453]
 [  0.7        -51.95385071]
 [  0.8         50.19527583]
 [  0.9        -38.24502807]
 [  1.         -42.80998351]
 [  1.1          4.14032159]
 [  1.14141667 -51.51302807]]","[[0.         0.44030197]
 [0.1        0.70411981]
 [0.2        1.86884396]
 [0.3        0.78103642]
 [0.4        0.92101113]
 [0.5        0.1569929 ]
 [0.6        0.56500245]
 [0.7        1.10374922]
 [0.8        0.9239354 ]
 [0.9        0.71980966]
 [1.         1.05382382]
 [1.1        1.68496778]
 [1.14141667 0.50981508]]",0,0.754
5,m,38,english,5,3,english,2024-02-09 19:18:22.337453,False,2,307,sounds\french\audio/french_247.wav,"[[  0.          87.28160699]
 [  0.1         54.41631338]
 [  0.2         37.94276377]
 [  0.3        -67.22196437]
 [  0.4        -92.34211051]
 [  0.5         78.48957529]
 [  0.6        -77.60666308]
 [  0.7         89.04290108]
 [  0.8         95.38463118]
 [  0.9        -13.6171851 ]
 [  1.         -62.96426983]
 [  1.1         10.74028895]
 [  1.14141667  30.61570069]]","[[0.         1.75163706]
 [0.1        0.7463051 ]
 [0.2        0.54290341]
 [0.3        0.62982968]
 [0.4        1.66450544]
 [0.5        0.11949556]
 [0.6        0.59857061]
 [0.7        1.16504801]
 [0.8        1.98824202]
 [0.9        1.58326229]
 [1.         1.7730941 ]
 [1.1        1.01142382]
 [1.14141667 1.22213948]]",1,0.501
5,m,38,english,5,3,english,2024-02-09 19:18:22.337453,False,2,308,sounds\french\audio/french_632.wav,"[[  0.         -61.06763991]
 [  0.1        -57.8130529 ]
 [  0.2         54.35735824]
 [  0.3        -58.91236726]
 [  0.4        -64.13325835]
 [  0.5          1.3996077 ]
 [  0.6         96.59752588]
 [  0.7         43.3805339 ]
 [  0.8         -5.42806786]
 [  0.9        -58.66284966]
 [  1.         -47.33386135]
 [  1.1        -21.19098869]
 [  1.14141667  97.6648062 ]]","[[0.         1.6452416 ]
 [0.1        0.41885381]
 [0.2        1.5481505 ]
 [0.3        1.62022086]
 [0.4        0.90453309]
 [0.5        1.75325833]
 [0.6        1.95765898]
 [0.7        1.0798425 ]
 [0.8        1.87572571]
 [0.9        0.40799894]
 [1.         1.4956973 ]
 [1.1        1.53768765]
 [1.14141667 1.52822814]]",0,1.107
5,m,38,english,5,3,english,2024-02-09 19:18:22.337453,False,2,309,sounds\french\audio/french_45.wav,"[[  0.           4.56173303]
 [  0.1         74.73557227]
 [  0.2        -92.29583716]
 [  0.3         82.3773938 ]
 [  0.4        -50.62808554]
 [  0.5        -35.38506933]
 [  0.6        -76.21602708]
 [  0.7         13.4081517 ]
 [  0.8         60.02628181]
 [  0.9        -69.7779934 ]
 [  1.          26.70700763]
 [  1.1          2.15265125]
 [  1.14141667  12.24183069]]","[[0.         1.83143027]
 [0.1        0.95964929]
 [0.2        0.89840441]
 [0.3        1.91185951]
 [0.4        0.53797914]
 [0.5        1.77700648]
 [0.6        0.80918408]
 [0.7        0.77945945]
 [0.8        0.91359537]
 [0.9        0.85324143]
 [1.         0.01420072]
 [1.1        1.17171594]
 [1.14141667 0.79271144]]",0,0.556
5,m,38,english,5,3,english,2024-02-09 19:18:22.337453,False,2,310,sounds\french\audio/french_943.wav,"[[  0.         -39.69174356]
 [  0.1          9.71823043]
 [  0.2         47.82156503]
 [  0.3        -70.45683827]
 [  0.4        -70.36375892]
 [  0.5        -78.09117144]
 [  0.6         43.3001696 ]
 [  0.7         27.56713446]
 [  0.8         54.98161832]
 [  0.9        -79.78278868]
 [  1.          66.03849917]
 [  1.1        -45.24869993]
 [  1.14141667 -78.78234865]]","[[0.         1.76181843]
 [0.1        0.25866572]
 [0.2        1.61194964]
 [0.3        1.00408981]
 [0.4        1.40275429]
 [0.5        0.47534453]
 [0.6        1.96075546]
 [0.7        0.78248667]
 [0.8        1.42706625]
 [0.9        0.63840216]
 [1.         0.77310904]
 [1.1        1.03848478]
 [1.14141667 0.62693219]]",0,0.472
5,m,38,english,5,3,english,2024-02-09 19:18:22.337453,False,2,311,sounds\french\audio/french_68.wav,"[[  0.          -4.68409904]
 [  0.1         92.04498692]
 [  0.2        -44.49648935]
 [  0.3        -75.43377809]
 [  0.4         74.21031159]
 [  0.5         82.33352028]
 [  0.6         25.57380445]
 [  0.7          9.35296428]
 [  0.8        -35.37334119]
 [  0.9        -52.02183066]
 [  1.          27.99769187]
 [  1.1         40.81040353]
 [  1.14141667 -67.62257988]]","[[0.         0.50111007]
 [0.1        0.71418188]
 [0.2        0.59401089]
 [0.3        0.36894157]
 [0.4        0.69735176]
 [0.5        1.86260375]
 [0.6        1.54858718]
 [0.7        0.87766933]
 [0.8        0.72659536]
 [0.9        1.54577494]
 [1.         1.34753048]
 [1.1        1.91715422]
 [1.14141667 1.93921971]]",1,0.37
5,m,38,english,5,3,english,2024-02-09 19:18:22.337453,False,2,312,sounds\french\audio/french_700.wav,"[[  0.         -27.53247214]
 [  0.1        -29.71209931]
 [  0.2         10.89159195]
 [  0.3        -53.06982063]
 [  0.4        -47.25715366]
 [  0.5         12.01274328]
 [  0.6        -35.34261671]
 [  0.7         38.95748155]
 [  0.8         83.20971937]
 [  0.9        -65.50939015]
 [  1.          94.61096103]
 [  1.1         74.41841232]
 [  1.14141667  18.30440659]]","[[0.         1.49055523]
 [0.1        1.00637482]
 [0.2        0.22182663]
 [0.3        1.24768056]
 [0.4        1.67932013]
 [0.5        1.54412989]
 [0.6        1.68740312]
 [0.7        0.25312184]
 [0.8        0.49670462]
 [0.9        1.3467354 ]
 [1.         0.15356174]
 [1.1        1.29558082]
 [1.14141667 1.58223542]]",0,0.819
5,m,38,english,5,3,english,2024-02-09 19:18:22.337453,False,2,313,sounds\french\audio/french_508.wav,"[[  0.         -13.65692469]
 [  0.1         21.05730203]
 [  0.2         35.8745184 ]
 [  0.3         73.81615415]
 [  0.4        -21.27973143]
 [  0.5        -82.89160494]
 [  0.6         37.18976767]
 [  0.7        -88.93551769]
 [  0.8        -67.5722974 ]
 [  0.9        -30.16013567]
 [  1.         -97.94018597]
 [  1.1        -22.80164532]
 [  1.14141667  93.86640825]]","[[0.         1.60468258]
 [0.1        1.69223853]
 [0.2        1.08425412]
 [0.3        0.4286204 ]
 [0.4        0.66323635]
 [0.5        0.73375376]
 [0.6        1.17688856]
 [0.7        1.27783056]
 [0.8        0.64559782]
 [0.9        0.13087726]
 [1.         1.51661117]
 [1.1        0.76508282]
 [1.14141667 1.99747877]]",0,0.834
5,m,38,english,5,3,english,2024-02-09 19:18:22.337453,False,2,314,sounds\french\audio/french_213.wav,"[[  0.          60.90519411]
 [  0.1         55.95280779]
 [  0.2         48.46758666]
 [  0.3        -14.18062666]
 [  0.4        -51.30201563]
 [  0.5        -37.99009317]
 [  0.6         88.99546092]
 [  0.7        -11.08339747]
 [  0.8         54.53278866]
 [  0.9        -23.49573744]
 [  1.          28.30492548]
 [  1.1         68.04425842]
 [  1.14141667  -9.70039934]]","[[0.         1.2142025 ]
 [0.1        1.85099482]
 [0.2        1.16231079]
 [0.3        1.54399184]
 [0.4        1.40754046]
 [0.5        0.99181023]
 [0.6        0.96000188]
 [0.7        0.55983951]
 [0.8        1.35940292]
 [0.9        0.29880455]
 [1.         1.73467682]
 [1.1        0.57935772]
 [1.14141667 1.18792355]]",0,0.539
5,m,38,english,5,3,english,2024-02-09 19:18:22.337453,False,2,315,sounds\french\audio/french_273.wav,"[[  0.           0.7190916 ]
 [  0.1         97.83891779]
 [  0.2         60.36727917]
 [  0.3         75.34562321]
 [  0.4        -49.29676333]
 [  0.5         66.1161099 ]
 [  0.6         47.59795939]
 [  0.7        -57.87962131]
 [  0.8         81.42088192]
 [  0.9        -40.71214973]
 [  1.          21.35486497]
 [  1.1         48.12506042]
 [  1.14141667  82.77823336]]","[[0.         0.53676655]
 [0.1        1.54358622]
 [0.2        0.47152348]
 [0.3        1.2590705 ]
 [0.4        1.86837956]
 [0.5        0.9921972 ]
 [0.6        0.68574852]
 [0.7        1.86045002]
 [0.8        1.53065292]
 [0.9        1.34276988]
 [1.         1.27786291]
 [1.1        1.11936535]
 [1.14141667 0.95547805]]",0,0.721
5,m,38,english,5,3,english,2024-02-09 19:18:22.337453,False,2,316,sounds\french\audio/french_147.wav,"[[  0.          43.59768472]
 [  0.1          5.27615481]
 [  0.2        -44.61195544]
 [  0.3        -76.96509144]
 [  0.4        -32.44980634]
 [  0.5         70.43396506]
 [  0.6        -38.3254351 ]
 [  0.7         52.08578881]
 [  0.8        -28.17308576]
 [  0.9        -10.89832162]
 [  1.          75.90492901]
 [  1.1         18.84686186]
 [  1.14141667 -70.82963066]]","[[0.         0.75883139]
 [0.1        0.68857604]
 [0.2        1.03649149]
 [0.3        1.25844465]
 [0.4        0.35823479]
 [0.5        1.36921243]
 [0.6        1.21356569]
 [0.7        0.98986047]
 [0.8        1.9051095 ]
 [0.9        1.35815009]
 [1.         1.54610858]
 [1.1        1.77017923]
 [1.14141667 1.1558003 ]]",0,0.505
5,m,38,english,5,3,english,2024-02-09 19:18:22.337453,False,2,317,sounds\french\audio/french_725.wav,"[[  0.           6.35773429]
 [  0.1         43.70894135]
 [  0.2         22.90719147]
 [  0.3         77.83150395]
 [  0.4          8.06655205]
 [  0.5        -92.02564179]
 [  0.6         -0.94151394]
 [  0.7        -43.43116172]
 [  0.8         25.37203063]
 [  0.9        -10.8941145 ]
 [  1.          87.02180765]
 [  1.1        -29.98720343]
 [  1.14141667  85.40182929]]","[[0.         0.33586519]
 [0.1        1.09244635]
 [0.2        1.28834014]
 [0.3        1.7742292 ]
 [0.4        0.13845401]
 [0.5        1.68229188]
 [0.6        1.36391947]
 [0.7        1.13588382]
 [0.8        1.69588373]
 [0.9        0.78478635]
 [1.         1.06725008]
 [1.1        0.9920546 ]
 [1.14141667 1.23288415]]",0,0.451
5,m,38,english,5,3,english,2024-02-09 19:18:22.337453,False,2,318,sounds\french\audio/french_123.wav,"[[  0.         -51.94711307]
 [  0.1        -56.73401049]
 [  0.2         25.36416271]
 [  0.3         37.75728813]
 [  0.4         76.78826699]
 [  0.5         78.72883759]
 [  0.6         16.93220553]
 [  0.7         92.90727514]
 [  0.8         38.19115803]
 [  0.9         53.16766238]
 [  1.          76.30286188]
 [  1.1        -90.7765671 ]
 [  1.14141667 -28.13670631]]","[[0.         1.87860529]
 [0.1        0.8925821 ]
 [0.2        1.58164022]
 [0.3        0.66317845]
 [0.4        1.50669139]
 [0.5        0.32092573]
 [0.6        0.20941234]
 [0.7        1.94155087]
 [0.8        1.92789753]
 [0.9        1.65841494]
 [1.         1.79217162]
 [1.1        0.67129825]
 [1.14141667 0.32349013]]",1,0.458
5,m,38,english,5,3,english,2024-02-09 19:18:22.337453,False,2,319,sounds\french\audio/french_983.wav,"[[  0.         -58.740306  ]
 [  0.1         86.62100381]
 [  0.2         72.28686739]
 [  0.3         40.58051416]
 [  0.4        -24.25700788]
 [  0.5         71.71663195]
 [  0.6        -12.96137505]
 [  0.7        -82.1836976 ]
 [  0.8        -24.9069762 ]
 [  0.9         55.25058614]
 [  1.          73.77815743]
 [  1.1         32.70068021]
 [  1.14141667 -94.39337182]]","[[0.         1.29800401]
 [0.1        0.11364498]
 [0.2        1.04246937]
 [0.3        0.31985263]
 [0.4        0.23068067]
 [0.5        1.2336031 ]
 [0.6        1.36252466]
 [0.7        1.78793687]
 [0.8        0.590606  ]
 [0.9        0.99616144]
 [1.         0.61804154]
 [1.1        1.49661667]
 [1.14141667 0.91742292]]",0,0.38
5,m,38,english,5,3,english,2024-02-09 19:18:22.337453,False,2,320,sounds\french\audio/french_684.wav,"[[  0.         -88.96240825]
 [  0.1        -54.37508207]
 [  0.2        -91.57905397]
 [  0.3        -58.85501017]
 [  0.4         44.82481671]
 [  0.5        -70.60806513]
 [  0.6         94.32148608]
 [  0.7        -17.32520236]
 [  0.8         29.06027198]
 [  0.9        -57.57833097]
 [  1.         -48.20877129]
 [  1.1         58.87949866]
 [  1.14141667 -11.47571774]]","[[0.         1.78476448]
 [0.1        0.02576857]
 [0.2        1.04724647]
 [0.3        0.76694618]
 [0.4        0.80269361]
 [0.5        0.84512097]
 [0.6        0.97813642]
 [0.7        0.54666182]
 [0.8        0.58446507]
 [0.9        0.42247579]
 [1.         0.8068102 ]
 [1.1        0.07609372]
 [1.14141667 1.952562  ]]",0,0.322
5,m,38,english,5,3,english,2024-02-09 19:18:22.337453,False,2,321,sounds\french\audio/french_254.wav,"[[  0.          75.2945508 ]
 [  0.1         38.40784012]
 [  0.2         -3.45801992]
 [  0.3        -16.53874186]
 [  0.4         40.95649298]
 [  0.5         -2.76974338]
 [  0.6        -14.89193372]
 [  0.7          6.98344765]
 [  0.8        -11.38819477]
 [  0.9         31.37717737]
 [  1.         -27.40134119]
 [  1.1        -15.25823698]
 [  1.14141667  52.56825486]]","[[0.         1.80685914]
 [0.1        0.82548004]
 [0.2        0.60126929]
 [0.3        1.71103273]
 [0.4        1.57269369]
 [0.5        1.05246524]
 [0.6        1.10171175]
 [0.7        0.20129796]
 [0.8        1.28961808]
 [0.9        0.6064434 ]
 [1.         1.272806  ]
 [1.1        1.69518769]
 [1.14141667 1.16774241]]",1,0.76
5,m,38,english,5,3,english,2024-02-09 19:18:22.337453,False,2,322,sounds\french\audio/french_805.wav,"[[  0.         -44.55735502]
 [  0.1        -15.81782327]
 [  0.2        -60.55488751]
 [  0.3        -22.03480197]
 [  0.4        -82.42416276]
 [  0.5         26.6793054 ]
 [  0.6        -90.86223061]
 [  0.7        -32.61383863]
 [  0.8        -25.8862389 ]
 [  0.9        -83.72221214]
 [  1.           9.78399033]
 [  1.1        -75.28148503]
 [  1.14141667 -45.84381211]]","[[0.         0.30537306]
 [0.1        0.95683225]
 [0.2        1.47185568]
 [0.3        0.27583044]
 [0.4        1.40306371]
 [0.5        0.29904003]
 [0.6        0.10571209]
 [0.7        1.80090028]
 [0.8        1.4046027 ]
 [0.9        1.0925065 ]
 [1.         0.78385676]
 [1.1        0.24940616]
 [1.14141667 0.58218615]]",0,0.696
5,m,38,english,5,3,english,2024-02-09 19:18:22.337453,False,2,323,sounds\french\audio/french_779.wav,"[[  0.         -38.28425878]
 [  0.1        -19.73299362]
 [  0.2         -1.63971334]
 [  0.3        -13.00341001]
 [  0.4        -18.58635516]
 [  0.5        -89.98694193]
 [  0.6         92.32758461]
 [  0.7        -57.54469246]
 [  0.8        -77.17429957]
 [  0.9         -5.46434537]
 [  1.         -18.50514079]
 [  1.1         -7.2649165 ]
 [  1.14141667  -3.97761041]]","[[0.         1.14466513]
 [0.1        1.60046318]
 [0.2        0.66760831]
 [0.3        1.70247529]
 [0.4        0.17241517]
 [0.5        1.76793656]
 [0.6        1.36679993]
 [0.7        0.7012445 ]
 [0.8        1.36817327]
 [0.9        0.41680341]
 [1.         0.28529805]
 [1.1        1.0076311 ]
 [1.14141667 1.26738641]]",0,0.422
5,m,38,english,5,3,english,2024-02-09 19:18:22.337453,False,2,324,sounds\french\audio/french_515.wav,"[[  0.          -4.32286311]
 [  0.1        -44.33537701]
 [  0.2         15.78127792]
 [  0.3        -89.02885546]
 [  0.4         79.00729914]
 [  0.5        -35.30094338]
 [  0.6         62.21827851]
 [  0.7        -89.96956463]
 [  0.8        -47.13344598]
 [  0.9         36.11915177]
 [  1.          91.92450568]
 [  1.1        -64.59862943]
 [  1.14141667 -64.9632151 ]]","[[0.         1.75814959]
 [0.1        1.20576492]
 [0.2        1.64200762]
 [0.3        0.90394207]
 [0.4        1.94318296]
 [0.5        1.3687061 ]
 [0.6        1.17175752]
 [0.7        0.52620308]
 [0.8        1.4204562 ]
 [0.9        0.03677736]
 [1.         0.6940855 ]
 [1.1        1.106084  ]
 [1.14141667 1.16695411]]",0,0.536
5,m,38,english,5,3,english,2024-02-09 19:18:22.337453,False,2,325,sounds\french\audio/french_522.wav,"[[  0.          42.17654984]
 [  0.1         35.32154358]
 [  0.2         41.16735521]
 [  0.3         19.52368749]
 [  0.4        -54.39246122]
 [  0.5         94.98899794]
 [  0.6        -27.72769651]
 [  0.7        -89.66079505]
 [  0.8        -43.87277896]
 [  0.9         80.86671181]
 [  1.         -94.11337917]
 [  1.1         18.06516358]
 [  1.14141667 -14.64977402]]","[[0.         0.43845661]
 [0.1        1.47394763]
 [0.2        1.4513676 ]
 [0.3        0.36689019]
 [0.4        0.57240118]
 [0.5        0.88025618]
 [0.6        0.50479501]
 [0.7        0.37869223]
 [0.8        1.44108388]
 [0.9        0.14120379]
 [1.         1.05720845]
 [1.1        1.99017269]
 [1.14141667 0.84262259]]",0,0.395
5,m,38,english,5,3,english,2024-02-09 19:18:22.337453,False,2,326,sounds\french\audio/french_140.wav,"[[  0.          -5.44660555]
 [  0.1         80.80532434]
 [  0.2        -26.28924637]
 [  0.3         78.8244392 ]
 [  0.4        -25.46300835]
 [  0.5         79.53586689]
 [  0.6        -34.09368615]
 [  0.7         21.55982824]
 [  0.8         23.8507105 ]
 [  0.9         22.99546712]
 [  1.          68.06240676]
 [  1.1        -88.05692373]
 [  1.14141667 -64.50909359]]","[[0.         0.39346856]
 [0.1        0.28881363]
 [0.2        0.53701965]
 [0.3        0.51857425]
 [0.4        0.44717912]
 [0.5        1.13692182]
 [0.6        0.60417211]
 [0.7        1.29979933]
 [0.8        0.35984825]
 [0.9        0.05575236]
 [1.         0.85167072]
 [1.1        0.34876443]
 [1.14141667 0.64453437]]",0,0.686
5,m,38,english,5,3,english,2024-02-09 19:18:22.337453,False,2,327,sounds\french\audio/french_956.wav,"[[  0.         -99.35759674]
 [  0.1         17.74635761]
 [  0.2         45.19730301]
 [  0.3         32.76158542]
 [  0.4        -82.44124556]
 [  0.5        -42.32589362]
 [  0.6         47.35708325]
 [  0.7        -90.98325298]
 [  0.8        -35.51686902]
 [  0.9         60.74204696]
 [  1.         -46.10377132]
 [  1.1        -22.49053344]
 [  1.14141667  15.48787024]]","[[0.         0.54388648]
 [0.1        1.06124428]
 [0.2        1.13782447]
 [0.3        1.35322569]
 [0.4        1.86440682]
 [0.5        1.66841875]
 [0.6        1.44392405]
 [0.7        1.23654472]
 [0.8        0.08906861]
 [0.9        0.55811382]
 [1.         0.54181177]
 [1.1        0.7143235 ]
 [1.14141667 1.69639276]]",0,0.673
5,m,38,english,5,3,english,2024-02-09 19:18:22.337453,False,2,328,sounds\french\audio/french_679.wav,"[[  0.         -14.70734509]
 [  0.1        -71.06769053]
 [  0.2          0.78593543]
 [  0.3         21.61945259]
 [  0.4        -93.25434466]
 [  0.5        -11.67449827]
 [  0.6        -39.79898507]
 [  0.7        -44.77239166]
 [  0.8        -59.78561396]
 [  0.9         18.05772854]
 [  1.          47.53619055]
 [  1.1          9.35196461]
 [  1.14141667 -39.99964019]]","[[0.         1.46597583]
 [0.1        1.54510521]
 [0.2        0.85896876]
 [0.3        0.42109755]
 [0.4        0.86545886]
 [0.5        0.11204976]
 [0.6        1.27761458]
 [0.7        1.34435357]
 [0.8        0.62354184]
 [0.9        0.28507196]
 [1.         1.41472683]
 [1.1        0.97298944]
 [1.14141667 0.81950462]]",0,1.671
5,m,38,english,5,3,english,2024-02-09 19:18:22.337453,False,2,329,sounds\french\audio/french_928.wav,"[[  0.          77.65399843]
 [  0.1        -97.72027015]
 [  0.2         15.0757151 ]
 [  0.3         15.26895504]
 [  0.4         92.50858123]
 [  0.5         65.09104424]
 [  0.6        -24.67043346]
 [  0.7         66.07550104]
 [  0.8         65.67415522]
 [  0.9         43.73911132]
 [  1.           8.31494364]
 [  1.1         88.37046435]
 [  1.14141667 -13.7286056 ]]","[[0.         1.03949078]
 [0.1        1.92124203]
 [0.2        1.05294339]
 [0.3        0.59065495]
 [0.4        1.60035035]
 [0.5        1.36447781]
 [0.6        0.80047478]
 [0.7        1.4779592 ]
 [0.8        0.56691074]
 [0.9        1.10790743]
 [1.         1.64403799]
 [1.1        1.51641494]
 [1.14141667 1.14951782]]",1,0.451
5,m,38,english,5,3,english,2024-02-09 19:18:22.337453,False,2,330,sounds\french\audio/french_566.wav,"[[  0.         -16.96845305]
 [  0.1         84.38851632]
 [  0.2         41.85960526]
 [  0.3        -39.90379286]
 [  0.4         20.08999337]
 [  0.5         -6.78108425]
 [  0.6         72.17198407]
 [  0.7          9.98770154]
 [  0.8        -19.58429309]
 [  0.9         -9.24609078]
 [  1.         -71.96197816]
 [  1.1         93.08203499]
 [  1.14141667 -67.92077118]]","[[0.         1.17622885]
 [0.1        1.73242098]
 [0.2        0.81564824]
 [0.3        1.52203287]
 [0.4        1.59966219]
 [0.5        1.81966132]
 [0.6        0.1494381 ]
 [0.7        0.70489318]
 [0.8        0.97523256]
 [0.9        1.39455087]
 [1.         1.80039842]
 [1.1        1.02671829]
 [1.14141667 0.56763023]]",0,0.285
5,m,38,english,5,3,english,2024-02-09 19:18:22.337453,False,2,331,sounds\french\audio/french_776.wav,"[[  0.         -48.17423645]
 [  0.1         70.47241533]
 [  0.2        -25.19523269]
 [  0.3         87.43097705]
 [  0.4        -31.8700143 ]
 [  0.5         85.54136389]
 [  0.6        -67.05238836]
 [  0.7         63.29487245]
 [  0.8        -91.58850078]
 [  0.9        -92.53289931]
 [  1.          -7.51119873]
 [  1.1        -98.58910198]
 [  1.14141667 -80.10890934]]","[[0.         0.77631494]
 [0.1        0.30206355]
 [0.2        0.58442509]
 [0.3        1.0473267 ]
 [0.4        1.39697119]
 [0.5        1.2447418 ]
 [0.6        1.41470132]
 [0.7        0.48396717]
 [0.8        0.48226026]
 [0.9        1.44155104]
 [1.         1.57581197]
 [1.1        1.16160073]
 [1.14141667 0.05324504]]",1,1.184
5,m,38,english,5,3,english,2024-02-09 19:18:22.337453,False,2,332,sounds\french\audio/french_487.wav,"[[  0.          58.9438896 ]
 [  0.1        -82.10689421]
 [  0.2         96.71378802]
 [  0.3         -0.59745405]
 [  0.4         26.62458477]
 [  0.5         22.80935919]
 [  0.6        -61.46326855]
 [  0.7         60.40414786]
 [  0.8        -51.0660693 ]
 [  0.9        -81.95542497]
 [  1.          27.64908366]
 [  1.1        -39.0584929 ]
 [  1.14141667  -9.05052643]]","[[0.         0.38793188]
 [0.1        0.28783793]
 [0.2        1.35640955]
 [0.3        0.85134748]
 [0.4        1.48970053]
 [0.5        0.80017653]
 [0.6        1.01902485]
 [0.7        0.96372057]
 [0.8        1.0184721 ]
 [0.9        0.47429173]
 [1.         0.62963116]
 [1.1        1.38887356]
 [1.14141667 0.46386172]]",0,0.265
5,m,38,english,5,3,english,2024-02-09 19:18:22.337453,False,2,333,sounds\french\audio/french_996.wav,"[[  0.          57.52390769]
 [  0.1         28.89954393]
 [  0.2        -56.16359269]
 [  0.3         99.33257974]
 [  0.4          7.55778037]
 [  0.5         53.15282026]
 [  0.6        -76.68073566]
 [  0.7        -18.7129586 ]
 [  0.8         72.85645273]
 [  0.9        -89.56078896]
 [  1.         -98.66124278]
 [  1.1         30.91972551]
 [  1.14141667  73.76139469]]","[[0.         1.49078278]
 [0.1        1.56353839]
 [0.2        1.22071433]
 [0.3        1.39398369]
 [0.4        1.76945469]
 [0.5        0.1319849 ]
 [0.6        1.12557272]
 [0.7        0.43863447]
 [0.8        0.54827929]
 [0.9        0.55787863]
 [1.         1.55112453]
 [1.1        0.43338009]
 [1.14141667 1.35718155]]",0,0.666
5,m,38,english,5,3,english,2024-02-09 19:18:22.337453,False,2,334,sounds\french\audio/french_654.wav,"[[  0.         -34.99893626]
 [  0.1         48.640299  ]
 [  0.2        -57.42841669]
 [  0.3         60.50968511]
 [  0.4        -16.79285222]
 [  0.5         60.38921633]
 [  0.6        -84.32894633]
 [  0.7         11.89646917]
 [  0.8         -7.26468354]
 [  0.9         -6.03013543]
 [  1.         -88.08456303]
 [  1.1        -59.96415131]
 [  1.14141667 -30.34186044]]","[[0.         0.24780466]
 [0.1        0.78115806]
 [0.2        1.37585032]
 [0.3        0.92953153]
 [0.4        0.90158135]
 [0.5        0.72778572]
 [0.6        0.70075297]
 [0.7        1.80773832]
 [0.8        0.52873591]
 [0.9        1.2475782 ]
 [1.         0.19931311]
 [1.1        0.87770786]
 [1.14141667 1.71975325]]",0,0.501
5,m,38,english,5,3,english,2024-02-09 19:18:22.337453,False,2,335,sounds\french\audio/french_405.wav,"[[  0.           2.94741857]
 [  0.1         10.93945556]
 [  0.2        -33.58175419]
 [  0.3        -35.59039283]
 [  0.4        -23.09707718]
 [  0.5        -12.93229662]
 [  0.6         54.45275162]
 [  0.7         52.01362083]
 [  0.8        -18.58395664]
 [  0.9         21.80701506]
 [  1.         -55.17899325]
 [  1.1         62.50728609]
 [  1.14141667 -31.56259202]]","[[0.         0.47922485]
 [0.1        0.75992021]
 [0.2        0.51030052]
 [0.3        1.5380037 ]
 [0.4        1.53478695]
 [0.5        0.62602002]
 [0.6        0.6867386 ]
 [0.7        0.60233158]
 [0.8        1.63961568]
 [0.9        0.20387093]
 [1.         1.51918911]
 [1.1        1.29633258]
 [1.14141667 0.04867302]]",1,0.637
5,m,38,english,5,3,english,2024-02-09 19:18:22.337453,False,2,336,sounds\french\audio/french_803.wav,"[[  0.         -12.95878337]
 [  0.1         61.50797195]
 [  0.2         96.13916552]
 [  0.3         63.40829671]
 [  0.4        -18.80055907]
 [  0.5        -13.37960084]
 [  0.6         17.49624977]
 [  0.7         26.6489851 ]
 [  0.8         46.37702818]
 [  0.9         47.62008812]
 [  1.          35.61177117]
 [  1.1        -76.22783665]
 [  1.14141667  34.8549378 ]]","[[0.         0.89212547]
 [0.1        0.09328832]
 [0.2        0.1771654 ]
 [0.3        0.79511002]
 [0.4        0.67535594]
 [0.5        0.14377803]
 [0.6        0.71363745]
 [0.7        0.90742369]
 [0.8        0.61606813]
 [0.9        0.82361862]
 [1.         1.14929537]
 [1.1        1.55419548]
 [1.14141667 1.0035068 ]]",0,0.228
5,m,38,english,5,3,english,2024-02-09 19:18:22.337453,False,2,337,sounds\french\audio/french_151.wav,"[[  0.          73.69598741]
 [  0.1         64.60103058]
 [  0.2        -50.1174897 ]
 [  0.3        -11.85519642]
 [  0.4         20.82069553]
 [  0.5        -49.13010048]
 [  0.6         -9.92363458]
 [  0.7        -84.83739346]
 [  0.8        -73.41003559]
 [  0.9        -27.00763078]
 [  1.         -38.99718193]
 [  1.1        -47.19301082]
 [  1.14141667  62.80482945]]","[[0.         1.04505798]
 [0.1        1.03845733]
 [0.2        0.91489458]
 [0.3        1.63855818]
 [0.4        0.81995848]
 [0.5        0.84435973]
 [0.6        1.18038182]
 [0.7        0.65326479]
 [0.8        0.76726876]
 [0.9        0.49522299]
 [1.         1.81314168]
 [1.1        1.77151393]
 [1.14141667 1.83743246]]",0,0.36
5,m,38,english,5,3,english,2024-02-09 19:18:22.337453,False,2,338,sounds\french\audio/french_190.wav,"[[  0.         -84.78481836]
 [  0.1         29.20321027]
 [  0.2         71.02026604]
 [  0.3         37.89731146]
 [  0.4         34.75879188]
 [  0.5         77.81147551]
 [  0.6        -18.99656469]
 [  0.7         26.98882743]
 [  0.8        -33.86115457]
 [  0.9         22.61865263]
 [  1.          32.47086589]
 [  1.1        -79.69806843]
 [  1.14141667  67.93837124]]","[[0.         0.30111759]
 [0.1        0.52687699]
 [0.2        0.36945697]
 [0.3        1.56057188]
 [0.4        0.61390271]
 [0.5        1.27237332]
 [0.6        0.54829677]
 [0.7        0.77113773]
 [0.8        0.27810299]
 [0.9        0.84080076]
 [1.         1.24207539]
 [1.1        0.66945603]
 [1.14141667 0.50686976]]",0,1.376
5,m,38,english,5,3,english,2024-02-09 19:18:22.337453,False,2,339,sounds\french\audio/french_453.wav,"[[  0.         -23.12360245]
 [  0.1         29.79054149]
 [  0.2        -61.88371212]
 [  0.3         24.4476251 ]
 [  0.4         74.62873842]
 [  0.5         12.37672846]
 [  0.6        -70.00186754]
 [  0.7         11.74973885]
 [  0.8        -80.88572625]
 [  0.9         66.25216979]
 [  1.         -23.72864128]
 [  1.1         33.84760067]
 [  1.14141667 -62.79214688]]","[[0.         0.90227617]
 [0.1        0.21120058]
 [0.2        0.51262885]
 [0.3        1.10207476]
 [0.4        0.01288431]
 [0.5        0.02891067]
 [0.6        0.10282501]
 [0.7        0.68270454]
 [0.8        0.50027224]
 [0.9        1.17966042]
 [1.         1.91038714]
 [1.1        1.13795736]
 [1.14141667 0.6421682 ]]",0,0.378
5,m,38,english,5,3,english,2024-02-09 19:18:22.337453,False,2,340,sounds\french\audio/french_195.wav,"[[  0.         -94.44814465]
 [  0.1         -8.36271039]
 [  0.2        -97.87108345]
 [  0.3          9.38810088]
 [  0.4         -5.68639094]
 [  0.5        -56.99964644]
 [  0.6        -39.66675761]
 [  0.7        -15.03436473]
 [  0.8        -93.37490315]
 [  0.9         -8.95214025]
 [  1.         -32.67851066]
 [  1.1         93.76301079]
 [  1.14141667   4.14523698]]","[[0.         1.01221837]
 [0.1        1.79960209]
 [0.2        1.85291705]
 [0.3        0.83034956]
 [0.4        0.73814621]
 [0.5        0.06268946]
 [0.6        0.32946706]
 [0.7        0.25786145]
 [0.8        0.98424063]
 [0.9        1.23440392]
 [1.         0.86929082]
 [1.1        0.24226685]
 [1.14141667 0.71121181]]",0,0.603
5,m,38,english,5,3,english,2024-02-09 19:18:22.337453,False,2,341,sounds\french\audio/french_486.wav,"[[  0.         -98.02817501]
 [  0.1         65.33144032]
 [  0.2         61.38493925]
 [  0.3         96.45925622]
 [  0.4          5.96921881]
 [  0.5         30.65383736]
 [  0.6        -44.15981347]
 [  0.7         31.03879088]
 [  0.8         51.75647773]
 [  0.9        -98.74797635]
 [  1.          42.51271204]
 [  1.1         63.21062453]
 [  1.14141667 -77.59539186]]","[[0.         1.75569009]
 [0.1        1.7050464 ]
 [0.2        0.61683653]
 [0.3        1.35566853]
 [0.4        0.89727466]
 [0.5        1.1713147 ]
 [0.6        1.99548871]
 [0.7        0.16009728]
 [0.8        0.88389912]
 [0.9        0.14376531]
 [1.         0.54659097]
 [1.1        1.09027863]
 [1.14141667 0.71851787]]",0,0.585
5,m,38,english,5,3,english,2024-02-09 19:18:22.337453,False,2,342,sounds\french\audio/french_65.wav,"[[  0.          90.25303481]
 [  0.1        -68.20435052]
 [  0.2        -29.40329428]
 [  0.3         46.42632137]
 [  0.4        -28.79951441]
 [  0.5        -14.64344063]
 [  0.6         55.39931543]
 [  0.7        -54.55605034]
 [  0.8         84.8250898 ]
 [  0.9         60.3117994 ]
 [  1.         -27.81288119]
 [  1.1         65.1988238 ]
 [  1.14141667  -4.75581652]]","[[0.         0.53945939]
 [0.1        0.42688683]
 [0.2        0.27290811]
 [0.3        1.55081286]
 [0.4        1.45770659]
 [0.5        1.99435488]
 [0.6        1.36766936]
 [0.7        1.57729108]
 [0.8        1.17309042]
 [0.9        0.17286677]
 [1.         1.4236834 ]
 [1.1        1.20315137]
 [1.14141667 1.51714563]]",0,2.285
5,m,38,english,5,3,english,2024-02-09 19:18:22.337453,False,2,343,sounds\french\audio/french_710.wav,"[[  0.          77.18918864]
 [  0.1         83.78981414]
 [  0.2        -65.7693655 ]
 [  0.3        -78.64184177]
 [  0.4         60.76094054]
 [  0.5        -85.54613182]
 [  0.6        -82.83985369]
 [  0.7         58.31469254]
 [  0.8        -19.88359903]
 [  0.9         28.05302473]
 [  1.          66.48543532]
 [  1.1          3.69004882]
 [  1.14141667  84.06568163]]","[[0.         1.03192367]
 [0.1        0.42018287]
 [0.2        1.29406306]
 [0.3        1.1839606 ]
 [0.4        0.24656774]
 [0.5        0.27070574]
 [0.6        0.55478724]
 [0.7        1.43791568]
 [0.8        1.39655562]
 [0.9        1.5621613 ]
 [1.         1.2992387 ]
 [1.1        0.84860939]
 [1.14141667 1.88227991]]",0,2.323
5,m,38,english,5,3,english,2024-02-09 19:18:22.337453,False,2,344,sounds\french\audio/french_512.wav,"[[  0.          37.65487649]
 [  0.1         19.59725659]
 [  0.2         66.12533615]
 [  0.3          2.99860898]
 [  0.4         53.37969101]
 [  0.5        -65.92131523]
 [  0.6         58.20808948]
 [  0.7         34.20702101]
 [  0.8        -20.74517351]
 [  0.9        -63.04688108]
 [  1.          18.16483101]
 [  1.1         -6.33441314]
 [  1.14141667 -27.85231134]]","[[0.         1.15800946]
 [0.1        1.13669249]
 [0.2        0.06946332]
 [0.3        1.10145514]
 [0.4        0.57961702]
 [0.5        1.67107236]
 [0.6        0.14844498]
 [0.7        0.48083565]
 [0.8        0.08331464]
 [0.9        1.76726214]
 [1.         1.53557922]
 [1.1        0.72276914]
 [1.14141667 0.3785017 ]]",0,2.582
5,m,38,english,5,3,english,2024-02-09 19:18:22.337453,False,2,345,sounds\french\audio/french_422.wav,"[[  0.         -16.62309101]
 [  0.1         44.80756997]
 [  0.2        -93.80146089]
 [  0.3        -72.47193654]
 [  0.4         16.7471252 ]
 [  0.5        -92.72141855]
 [  0.6        -47.90487867]
 [  0.7        -75.7589654 ]
 [  0.8         34.26572493]
 [  0.9        -65.97357415]
 [  1.           3.77229199]
 [  1.1        -30.82396636]
 [  1.14141667 -37.60844358]]","[[0.         0.51321666]
 [0.1        0.44814263]
 [0.2        1.51316273]
 [0.3        1.60530729]
 [0.4        0.6388763 ]
 [0.5        1.31238957]
 [0.6        1.76360785]
 [0.7        1.38544073]
 [0.8        0.04882189]
 [0.9        0.84339819]
 [1.         0.68214832]
 [1.1        1.57442392]
 [1.14141667 0.61861744]]",0,0.358
5,m,38,english,5,3,english,2024-02-09 19:18:22.337453,False,2,346,sounds\french\audio/french_31.wav,"[[  0.          62.57492675]
 [  0.1        -58.08231023]
 [  0.2        -55.72136937]
 [  0.3        -71.33473232]
 [  0.4         -4.71968321]
 [  0.5        -18.8158031 ]
 [  0.6         57.81974569]
 [  0.7        -62.11860801]
 [  0.8        -40.60816107]
 [  0.9         65.87873267]
 [  1.         -62.031162  ]
 [  1.1         23.18328609]
 [  1.14141667 -73.14382864]]","[[0.         0.62563008]
 [0.1        0.03942754]
 [0.2        0.40518479]
 [0.3        0.83625103]
 [0.4        1.04296763]
 [0.5        1.30881089]
 [0.6        1.24294484]
 [0.7        1.99884765]
 [0.8        1.24785525]
 [0.9        0.7861542 ]
 [1.         0.46276533]
 [1.1        1.73009947]
 [1.14141667 1.02235307]]",0,0.377
5,m,38,english,5,3,english,2024-02-09 19:18:22.337453,False,2,347,sounds\french\audio/french_169.wav,"[[  0.          59.42185537]
 [  0.1         88.63481017]
 [  0.2        -30.81317289]
 [  0.3          8.8361544 ]
 [  0.4         33.34891954]
 [  0.5         19.12772392]
 [  0.6        -29.4196349 ]
 [  0.7        -66.8991604 ]
 [  0.8        -49.84424897]
 [  0.9         55.00508098]
 [  1.         -98.33346696]
 [  1.1          3.91350931]
 [  1.14141667  24.90935392]]","[[0.         0.83159375]
 [0.1        1.38556946]
 [0.2        0.96575103]
 [0.3        1.88843059]
 [0.4        1.15602215]
 [0.5        1.03022827]
 [0.6        1.76601862]
 [0.7        0.44859055]
 [0.8        0.70503729]
 [0.9        1.09617092]
 [1.         1.2567147 ]
 [1.1        1.30128277]
 [1.14141667 0.9045641 ]]",0,0.094
5,m,38,english,5,3,english,2024-02-09 19:18:22.337453,False,2,348,sounds\french\audio/french_30.wav,"[[  0.          26.66622304]
 [  0.1         44.7756476 ]
 [  0.2        -11.3520596 ]
 [  0.3         -4.87681606]
 [  0.4        -42.57857896]
 [  0.5         67.17876782]
 [  0.6         -3.30215246]
 [  0.7         -9.17249919]
 [  0.8         29.45097785]
 [  0.9        -60.52095677]
 [  1.          96.53383837]
 [  1.1         84.89885576]
 [  1.14141667  70.14672622]]","[[0.         1.24018819]
 [0.1        0.12283153]
 [0.2        0.97062851]
 [0.3        1.26015405]
 [0.4        1.61652027]
 [0.5        0.83922535]
 [0.6        0.38120587]
 [0.7        0.02314929]
 [0.8        1.31693882]
 [0.9        1.24941809]
 [1.         1.21139656]
 [1.1        0.90389111]
 [1.14141667 1.73450765]]",0,0.311
5,m,38,english,5,3,english,2024-02-09 19:18:22.337453,False,2,349,sounds\french\audio/french_915.wav,"[[  0.          24.97229927]
 [  0.1          9.55755976]
 [  0.2        -36.73982377]
 [  0.3         16.36164394]
 [  0.4         18.89549827]
 [  0.5         29.58178959]
 [  0.6         67.00984201]
 [  0.7         69.33436498]
 [  0.8        -68.5567505 ]
 [  0.9        -82.82111497]
 [  1.         -19.3056594 ]
 [  1.1         46.67656137]
 [  1.14141667 -49.01815879]]","[[0.         0.29650111]
 [0.1        1.7574547 ]
 [0.2        1.09391109]
 [0.3        0.1335892 ]
 [0.4        1.43122832]
 [0.5        1.80794112]
 [0.6        1.50463968]
 [0.7        1.3294998 ]
 [0.8        1.58149329]
 [0.9        1.17041831]
 [1.         0.93306192]
 [1.1        0.84227441]
 [1.14141667 1.06379674]]",0,0.502
5,m,38,english,5,3,english,2024-02-09 19:18:22.337453,False,2,350,sounds\french\audio/french_827.wav,"[[  0.          47.61901084]
 [  0.1        -12.46162853]
 [  0.2         80.2031215 ]
 [  0.3        -17.58711111]
 [  0.4        -42.97148834]
 [  0.5         91.5700687 ]
 [  0.6         73.27406728]
 [  0.7        -33.8931301 ]
 [  0.8        -11.46118568]
 [  0.9         24.73344969]
 [  1.          15.31350424]
 [  1.1        -53.93717893]
 [  1.14141667   7.58981219]]","[[0.         0.78776038]
 [0.1        1.19255922]
 [0.2        0.63498127]
 [0.3        0.79514732]
 [0.4        0.7219145 ]
 [0.5        0.23829121]
 [0.6        0.56077431]
 [0.7        1.6060627 ]
 [0.8        0.93017276]
 [0.9        1.70918062]
 [1.         0.85960328]
 [1.1        0.88873758]
 [1.14141667 0.97933267]]",0,0.445
5,m,38,english,5,3,english,2024-02-09 19:18:22.337453,False,2,351,sounds\french\audio/french_810.wav,"[[  0.         -11.15684924]
 [  0.1         19.7802092 ]
 [  0.2        -30.04059815]
 [  0.3        -95.70769325]
 [  0.4        -85.83375083]
 [  0.5        -37.45895339]
 [  0.6        -92.99313722]
 [  0.7        -10.59807412]
 [  0.8        -53.30222584]
 [  0.9         44.39304862]
 [  1.          21.84097508]
 [  1.1        -95.99608971]
 [  1.14141667  89.10365484]]","[[0.         0.93665217]
 [0.1        1.74097492]
 [0.2        0.51520892]
 [0.3        0.6750365 ]
 [0.4        1.81202687]
 [0.5        1.65594006]
 [0.6        0.4118564 ]
 [0.7        1.49052065]
 [0.8        1.68710618]
 [0.9        0.87014505]
 [1.         1.52543632]
 [1.1        1.72886846]
 [1.14141667 1.0642508 ]]",0,0.618
5,m,38,english,5,3,english,2024-02-09 19:18:22.337453,False,2,352,sounds\french\audio/french_302.wav,"[[  0.         -33.52028632]
 [  0.1         14.06293771]
 [  0.2        -53.22339511]
 [  0.3         84.66079963]
 [  0.4         56.53078776]
 [  0.5         52.09924325]
 [  0.6         36.68626461]
 [  0.7        -22.67460192]
 [  0.8         43.78011135]
 [  0.9        -34.77035128]
 [  1.          51.90159777]
 [  1.1         37.64911617]
 [  1.14141667  19.69656895]]","[[0.         1.20247244]
 [0.1        0.59103421]
 [0.2        0.70543363]
 [0.3        1.47264463]
 [0.4        1.52121196]
 [0.5        0.90612389]
 [0.6        1.68691492]
 [0.7        1.01798697]
 [0.8        0.90734577]
 [0.9        1.35012392]
 [1.         1.01237919]
 [1.1        0.20910983]
 [1.14141667 0.68199001]]",0,0.353
5,m,38,english,5,3,english,2024-02-09 19:18:22.337453,False,2,353,sounds\french\audio/french_266.wav,"[[  0.          62.50241255]
 [  0.1        -80.45225804]
 [  0.2         99.9367927 ]
 [  0.3         25.84200308]
 [  0.4          3.00063379]
 [  0.5         81.08001176]
 [  0.6        -95.83385783]
 [  0.7        -79.07600331]
 [  0.8        -11.28199515]
 [  0.9         57.49444579]
 [  1.          99.18608096]
 [  1.1        -92.12178731]
 [  1.14141667 -44.20618078]]","[[0.         0.93840708]
 [0.1        1.11812108]
 [0.2        0.26660891]
 [0.3        0.17403162]
 [0.4        0.79325238]
 [0.5        0.88590027]
 [0.6        1.71394363]
 [0.7        0.61606385]
 [0.8        1.85993339]
 [0.9        1.14234551]
 [1.         1.34332999]
 [1.1        1.65260759]
 [1.14141667 0.36778532]]",0,0.507
5,m,38,english,5,3,english,2024-02-09 19:18:22.337453,False,2,354,sounds\french\audio/french_592.wav,"[[  0.          70.81103316]
 [  0.1        -26.4080383 ]
 [  0.2         -0.21646814]
 [  0.3          5.07209888]
 [  0.4          0.60727661]
 [  0.5         -4.25807997]
 [  0.6        -57.11909805]
 [  0.7        -40.92130442]
 [  0.8         57.21863493]
 [  0.9         70.04761432]
 [  1.         -50.9301359 ]
 [  1.1        -84.24132436]
 [  1.14141667 -46.29341041]]","[[0.         0.54665666]
 [0.1        0.88508354]
 [0.2        1.19588417]
 [0.3        0.17214274]
 [0.4        0.84375355]
 [0.5        1.80777341]
 [0.6        0.71388549]
 [0.7        1.31000832]
 [0.8        0.43276947]
 [0.9        1.73827866]
 [1.         0.70932726]
 [1.1        0.23430707]
 [1.14141667 1.11453021]]",0,0.352
5,m,38,english,5,3,english,2024-02-09 19:18:22.337453,False,2,355,sounds\french\audio/french_974.wav,"[[  0.          70.97382946]
 [  0.1        -11.51206682]
 [  0.2         21.14590895]
 [  0.3         -1.24336301]
 [  0.4         -7.59562756]
 [  0.5         98.81108041]
 [  0.6          1.5690047 ]
 [  0.7         32.73857184]
 [  0.8         21.15705836]
 [  0.9         24.28285736]
 [  1.         -18.85169767]
 [  1.1        -83.94572859]
 [  1.14141667 -90.55748201]]","[[0.         1.27524467]
 [0.1        0.96634171]
 [0.2        1.94727541]
 [0.3        0.55924313]
 [0.4        0.16409288]
 [0.5        0.65824955]
 [0.6        1.04527507]
 [0.7        1.28112397]
 [0.8        1.89872216]
 [0.9        0.65988414]
 [1.         1.70679925]
 [1.1        1.83803483]
 [1.14141667 1.54364757]]",1,0.359
5,m,38,english,5,3,english,2024-02-09 19:18:22.337453,False,2,356,sounds\french\audio/french_623.wav,"[[  0.         -86.83812117]
 [  0.1         74.2111041 ]
 [  0.2         98.95723814]
 [  0.3        -37.0218658 ]
 [  0.4         16.90400558]
 [  0.5        -31.51763709]
 [  0.6         17.3105587 ]
 [  0.7        -36.14678416]
 [  0.8         33.60964764]
 [  0.9         -2.61935036]
 [  1.         -14.19773812]
 [  1.1        -43.63276209]
 [  1.14141667  29.17007342]]","[[0.         1.05106058]
 [0.1        0.716104  ]
 [0.2        1.44527186]
 [0.3        1.34226429]
 [0.4        1.52765307]
 [0.5        0.56929388]
 [0.6        0.38037964]
 [0.7        0.96955255]
 [0.8        1.01212194]
 [0.9        0.66675465]
 [1.         0.09693711]
 [1.1        1.95103561]
 [1.14141667 0.72368638]]",0,0.293
5,m,38,english,5,3,english,2024-02-09 19:18:22.337453,False,2,357,sounds\french\audio/french_792.wav,"[[  0.         -28.77808047]
 [  0.1        -10.00785401]
 [  0.2        -89.03138292]
 [  0.3         60.87015299]
 [  0.4         40.7967025 ]
 [  0.5         -0.6664258 ]
 [  0.6         -1.44221122]
 [  0.7         93.39416978]
 [  0.8         13.0860733 ]
 [  0.9         55.81352435]
 [  1.         -11.44850175]
 [  1.1        -55.53563546]
 [  1.14141667  28.68629966]]","[[0.         1.01992476]
 [0.1        1.96245929]
 [0.2        0.33088171]
 [0.3        0.60882255]
 [0.4        1.16935641]
 [0.5        0.04848989]
 [0.6        0.73316645]
 [0.7        0.70146258]
 [0.8        0.98613716]
 [0.9        1.26993889]
 [1.         0.28761661]
 [1.1        0.74142596]
 [1.14141667 1.34329465]]",0,0.327
5,m,38,english,5,3,english,2024-02-09 19:18:22.337453,False,2,358,sounds\french\audio/french_740.wav,"[[  0.         -23.8561275 ]
 [  0.1         12.41197017]
 [  0.2        -75.22373784]
 [  0.3         13.95432459]
 [  0.4         86.43925379]
 [  0.5        -59.06853257]
 [  0.6          8.7812543 ]
 [  0.7        -81.4658243 ]
 [  0.8        -37.53161999]
 [  0.9        -71.6710365 ]
 [  1.          31.54551497]
 [  1.1         73.9548309 ]
 [  1.14141667  48.2786376 ]]","[[0.         1.38106788]
 [0.1        0.96449807]
 [0.2        1.81317808]
 [0.3        0.48903687]
 [0.4        0.89209498]
 [0.5        0.79820054]
 [0.6        1.20695925]
 [0.7        0.55003693]
 [0.8        0.44955963]
 [0.9        1.78000651]
 [1.         1.38553911]
 [1.1        0.82064893]
 [1.14141667 1.09253076]]",1,1.423
5,m,38,english,5,3,english,2024-02-09 19:18:22.337453,False,2,359,sounds\french\audio/french_307.wav,"[[ 0.00000000e+00 -8.12536919e+01]
 [ 1.00000000e-01 -5.92199646e+00]
 [ 2.00000000e-01 -7.08440156e+01]
 [ 3.00000000e-01 -3.88570398e+01]
 [ 4.00000000e-01 -7.46373028e+01]
 [ 5.00000000e-01  3.72357881e+01]
 [ 6.00000000e-01 -2.61136950e+00]
 [ 7.00000000e-01  4.06769116e+01]
 [ 8.00000000e-01  6.68191977e+01]
 [ 9.00000000e-01  8.94255447e+01]
 [ 1.00000000e+00 -1.24290818e-02]
 [ 1.10000000e+00 -9.47277852e+01]
 [ 1.14141667e+00  5.25537701e+00]]","[[0.         1.33468173]
 [0.1        1.24052459]
 [0.2        0.05751099]
 [0.3        0.0183033 ]
 [0.4        1.42823854]
 [0.5        1.31262623]
 [0.6        1.64307627]
 [0.7        1.23311758]
 [0.8        1.11809567]
 [0.9        1.10385944]
 [1.         1.86476593]
 [1.1        1.90945351]
 [1.14141667 1.40561689]]",0,0.267
5,m,38,english,5,3,english,2024-02-09 19:18:22.337453,False,2,360,sounds\french\audio/french_357.wav,"[[  0.          86.82276174]
 [  0.1         61.01952575]
 [  0.2        -60.75226359]
 [  0.3         85.98471719]
 [  0.4        -69.86147068]
 [  0.5          9.94695166]
 [  0.6         18.79769535]
 [  0.7         32.56379866]
 [  0.8        -63.36176939]
 [  0.9        -52.11840686]
 [  1.         -62.81838888]
 [  1.1        -46.10611579]
 [  1.14141667  30.76289331]]","[[0.         1.92268893]
 [0.1        0.3802524 ]
 [0.2        0.64366911]
 [0.3        0.42839795]
 [0.4        0.00748054]
 [0.5        1.08678504]
 [0.6        1.81857945]
 [0.7        0.88876944]
 [0.8        0.00755284]
 [0.9        1.32717317]
 [1.         1.11144187]
 [1.1        1.48923739]
 [1.14141667 0.80153076]]",0,0.198
5,m,38,english,5,3,english,2024-02-09 19:18:22.337453,False,2,361,sounds\french\audio/french_538.wav,"[[  0.          20.57677794]
 [  0.1        -39.61392236]
 [  0.2        -45.04759687]
 [  0.3         13.02336847]
 [  0.4         90.60925013]
 [  0.5        -75.04739637]
 [  0.6        -17.92101924]
 [  0.7        -84.21353272]
 [  0.8         47.2379497 ]
 [  0.9         -5.11712126]
 [  1.         -51.87175563]
 [  1.1        -23.54809706]
 [  1.14141667 -19.60047968]]","[[0.         1.38711038]
 [0.1        0.72793815]
 [0.2        0.58138665]
 [0.3        0.36012253]
 [0.4        1.75461796]
 [0.5        0.9845207 ]
 [0.6        1.10875334]
 [0.7        1.78005401]
 [0.8        0.26796674]
 [0.9        0.97835653]
 [1.         1.7494376 ]
 [1.1        0.19527395]
 [1.14141667 0.35274247]]",1,0.516
5,m,38,english,5,3,english,2024-02-09 19:18:22.337453,False,2,362,sounds\french\audio/french_24.wav,"[[  0.           5.31497869]
 [  0.1        -26.8625117 ]
 [  0.2         58.97663957]
 [  0.3         51.69210178]
 [  0.4         81.05661537]
 [  0.5         65.07233235]
 [  0.6         76.62421962]
 [  0.7         59.88439987]
 [  0.8         11.60739883]
 [  0.9        -31.04604082]
 [  1.           4.7112785 ]
 [  1.1         82.50060059]
 [  1.14141667 -13.18326267]]","[[0.         0.05163285]
 [0.1        1.69751723]
 [0.2        1.0154946 ]
 [0.3        0.2245849 ]
 [0.4        0.62964931]
 [0.5        1.32161931]
 [0.6        1.5556039 ]
 [0.7        1.39639667]
 [0.8        1.45125742]
 [0.9        0.73211906]
 [1.         1.04041435]
 [1.1        1.11274362]
 [1.14141667 0.74288089]]",0,0.177
5,m,38,english,5,3,english,2024-02-09 19:18:22.337453,False,2,363,sounds\french\audio/french_125.wav,"[[  0.           5.05175171]
 [  0.1         32.7558224 ]
 [  0.2         -9.61553278]
 [  0.3        -33.04402315]
 [  0.4         91.14528802]
 [  0.5         27.38257131]
 [  0.6        -82.19183228]
 [  0.7         66.88134461]
 [  0.8          1.81029464]
 [  0.9        -28.86524108]
 [  1.         -14.95175418]
 [  1.1         -6.66227035]
 [  1.14141667 -70.41501392]]","[[0.         0.77303096]
 [0.1        0.49150881]
 [0.2        1.82272203]
 [0.3        0.85863994]
 [0.4        0.43062264]
 [0.5        1.85723762]
 [0.6        1.66103806]
 [0.7        1.40886995]
 [0.8        0.35681271]
 [0.9        0.15053676]
 [1.         1.22850652]
 [1.1        0.0913017 ]
 [1.14141667 1.41072005]]",0,0.541
5,m,38,english,5,3,english,2024-02-09 19:18:22.337453,False,2,364,sounds\french\audio/french_49.wav,"[[  0.          34.21091053]
 [  0.1        -12.94242268]
 [  0.2        -38.75700808]
 [  0.3         48.08306047]
 [  0.4         31.71568496]
 [  0.5        -78.74497046]
 [  0.6        -55.27969049]
 [  0.7        -83.02012222]
 [  0.8        -46.98717743]
 [  0.9         37.86593938]
 [  1.          -5.78985665]
 [  1.1         34.38441762]
 [  1.14141667 -87.14259119]]","[[0.         1.13592166]
 [0.1        0.4905038 ]
 [0.2        0.38893826]
 [0.3        1.24492594]
 [0.4        0.89198724]
 [0.5        1.00913594]
 [0.6        1.48457037]
 [0.7        0.96455629]
 [0.8        0.84518   ]
 [0.9        1.17639224]
 [1.         1.3841566 ]
 [1.1        1.43637848]
 [1.14141667 0.6107386 ]]",0,0.25
5,m,38,english,5,3,english,2024-02-09 19:18:22.337453,False,2,365,sounds\french\audio/french_101.wav,"[[  0.         -65.46087388]
 [  0.1         63.59656018]
 [  0.2         54.14288835]
 [  0.3         22.15338449]
 [  0.4          9.44966108]
 [  0.5         62.3405883 ]
 [  0.6         35.08854145]
 [  0.7         90.28352707]
 [  0.8         32.40917648]
 [  0.9         45.65146214]
 [  1.          26.68572675]
 [  1.1        -28.95615297]
 [  1.14141667  65.42086227]]","[[0.         1.12241829]
 [0.1        0.33793213]
 [0.2        1.19927572]
 [0.3        1.19891661]
 [0.4        1.16356615]
 [0.5        1.8094662 ]
 [0.6        1.21572763]
 [0.7        1.20829502]
 [0.8        0.2048106 ]
 [0.9        0.15870555]
 [1.         0.85858703]
 [1.1        0.96045603]
 [1.14141667 0.41262817]]",0,0.861
5,m,38,english,5,3,english,2024-02-09 19:18:22.337453,False,2,366,sounds\french\audio/french_177.wav,"[[  0.          -8.10737453]
 [  0.1        -14.13185222]
 [  0.2        -21.48127278]
 [  0.3         24.9697288 ]
 [  0.4        -13.99641156]
 [  0.5        -59.00404828]
 [  0.6        -79.56959599]
 [  0.7         56.96667595]
 [  0.8         53.96652251]
 [  0.9        -43.28510596]
 [  1.         -17.06884575]
 [  1.1         91.20873705]
 [  1.14141667 -64.77412729]]","[[0.         1.83762725]
 [0.1        1.41917184]
 [0.2        1.32076247]
 [0.3        0.20954591]
 [0.4        0.92966731]
 [0.5        0.48144728]
 [0.6        1.07022563]
 [0.7        0.90878311]
 [0.8        0.75598619]
 [0.9        1.20570373]
 [1.         0.31173544]
 [1.1        1.67692112]
 [1.14141667 0.58516183]]",0,0.34
5,m,38,english,5,3,english,2024-02-09 19:18:22.337453,False,2,367,sounds\french\audio/french_774.wav,"[[  0.           9.83885445]
 [  0.1        -98.61163295]
 [  0.2        -53.0003268 ]
 [  0.3         67.55233727]
 [  0.4        -25.70793796]
 [  0.5         92.0831493 ]
 [  0.6         54.58794218]
 [  0.7        -99.7650473 ]
 [  0.8         38.64749518]
 [  0.9         80.65889942]
 [  1.           6.94619559]
 [  1.1         36.40208287]
 [  1.14141667 -33.4860138 ]]","[[0.         1.49989175]
 [0.1        1.44348715]
 [0.2        1.64880248]
 [0.3        0.01819088]
 [0.4        1.11963974]
 [0.5        1.57052563]
 [0.6        1.49268288]
 [0.7        0.54873159]
 [0.8        0.90006733]
 [0.9        0.38923512]
 [1.         0.33656127]
 [1.1        1.29679542]
 [1.14141667 0.33566792]]",0,0.275
5,m,38,english,5,3,english,2024-02-09 19:18:22.337453,False,2,368,sounds\french\audio/french_199.wav,"[[  0.          94.82681546]
 [  0.1        -99.32589547]
 [  0.2        -78.08329164]
 [  0.3         48.54945549]
 [  0.4        -55.35713623]
 [  0.5         14.26830721]
 [  0.6        -99.29695971]
 [  0.7         15.02714813]
 [  0.8         -2.77969287]
 [  0.9         47.22114937]
 [  1.          -7.42122426]
 [  1.1         -9.24704573]
 [  1.14141667 -65.8542189 ]]","[[0.         1.08752285]
 [0.1        1.17751559]
 [0.2        0.30459673]
 [0.3        0.73513396]
 [0.4        0.36114074]
 [0.5        1.70747304]
 [0.6        0.80626327]
 [0.7        0.80058463]
 [0.8        1.68930656]
 [0.9        1.36846234]
 [1.         1.62178929]
 [1.1        1.97685154]
 [1.14141667 1.49094293]]",1,0.412
5,m,38,english,5,3,english,2024-02-09 19:18:22.337453,False,2,369,sounds\french\audio/french_150.wav,"[[  0.          49.5830128 ]
 [  0.1         11.27491146]
 [  0.2        -23.33006334]
 [  0.3        -79.70222292]
 [  0.4         78.5259979 ]
 [  0.5         42.68414732]
 [  0.6          3.3170919 ]
 [  0.7         28.43555109]
 [  0.8         -7.39447574]
 [  0.9        -98.28221983]
 [  1.          46.55565122]
 [  1.1        -53.12881325]
 [  1.14141667  87.9365903 ]]","[[0.         1.20991715]
 [0.1        1.43342457]
 [0.2        0.44319554]
 [0.3        0.38788298]
 [0.4        1.68474188]
 [0.5        1.76934829]
 [0.6        1.49107737]
 [0.7        0.95892531]
 [0.8        0.5717496 ]
 [0.9        1.66411652]
 [1.         0.38718647]
 [1.1        0.22387981]
 [1.14141667 1.83499264]]",0,0.723
5,m,38,english,5,3,english,2024-02-09 19:18:22.337453,False,2,370,sounds\french\audio/french_338.wav,"[[  0.          32.43640694]
 [  0.1        -96.15534081]
 [  0.2         71.74391232]
 [  0.3         66.77138204]
 [  0.4         15.01497933]
 [  0.5         92.69089604]
 [  0.6         43.1424087 ]
 [  0.7        -30.37149924]
 [  0.8         46.68539141]
 [  0.9         93.80986052]
 [  1.          81.72582501]
 [  1.1         64.92591282]
 [  1.14141667  81.2294196 ]]","[[0.         1.33040513]
 [0.1        1.37265774]
 [0.2        0.97045392]
 [0.3        0.15859567]
 [0.4        0.06667266]
 [0.5        0.24915734]
 [0.6        1.15855491]
 [0.7        1.05458836]
 [0.8        0.40093841]
 [0.9        0.20402843]
 [1.         0.60947965]
 [1.1        0.10143299]
 [1.14141667 0.26247097]]",0,0.669
5,m,38,english,5,3,english,2024-02-09 19:18:22.337453,False,2,371,sounds\french\audio/french_461.wav,"[[  0.          94.32370933]
 [  0.1        -20.71306493]
 [  0.2        -52.8787947 ]
 [  0.3         54.58301415]
 [  0.4         77.43262349]
 [  0.5         91.72055328]
 [  0.6        -68.29048705]
 [  0.7        -57.37161044]
 [  0.8         31.76308417]
 [  0.9        -99.65529565]
 [  1.         -27.48817095]
 [  1.1         97.80822664]
 [  1.14141667  42.47593373]]","[[0.         1.08116474]
 [0.1        0.77352279]
 [0.2        1.72406451]
 [0.3        1.0712012 ]
 [0.4        1.46762268]
 [0.5        1.02267728]
 [0.6        1.62970382]
 [0.7        0.33624611]
 [0.8        1.07879651]
 [0.9        0.11108974]
 [1.         0.0578911 ]
 [1.1        1.12963754]
 [1.14141667 1.30381109]]",0,2.59
5,m,38,english,5,3,english,2024-02-09 19:18:22.337453,False,2,372,sounds\french\audio/french_136.wav,"[[  0.          -0.93982829]
 [  0.1        -11.50989173]
 [  0.2        -44.36955216]
 [  0.3         66.25490653]
 [  0.4         76.3056731 ]
 [  0.5        -53.64019494]
 [  0.6         72.7758556 ]
 [  0.7        -38.40056364]
 [  0.8        -83.94600904]
 [  0.9         60.40561717]
 [  1.          72.86364806]
 [  1.1        -58.86585407]
 [  1.14141667 -45.29061382]]","[[0.         1.18112725]
 [0.1        1.4876912 ]
 [0.2        1.55378385]
 [0.3        0.32679305]
 [0.4        0.30628123]
 [0.5        1.28210854]
 [0.6        0.14420429]
 [0.7        0.03042669]
 [0.8        1.12471325]
 [0.9        1.12043075]
 [1.         0.82934503]
 [1.1        1.5410961 ]
 [1.14141667 0.1982647 ]]",0,0.049
5,m,38,english,5,3,english,2024-02-09 19:18:22.337453,False,2,373,sounds\french\audio/french_884.wav,"[[  0.          76.60838861]
 [  0.1        -41.71607783]
 [  0.2          3.78955534]
 [  0.3         84.8602831 ]
 [  0.4         16.24540696]
 [  0.5         68.23827876]
 [  0.6        -39.71005998]
 [  0.7        -63.62075652]
 [  0.8        -57.73110382]
 [  0.9        -99.10016615]
 [  1.         -27.53166894]
 [  1.1        -48.35308155]
 [  1.14141667 -12.55349758]]","[[0.         1.25391535]
 [0.1        0.49990107]
 [0.2        1.78461269]
 [0.3        1.65174889]
 [0.4        0.71422903]
 [0.5        0.8676404 ]
 [0.6        0.5442146 ]
 [0.7        1.40281909]
 [0.8        0.85462819]
 [0.9        0.70808592]
 [1.         1.31831149]
 [1.1        0.34930191]
 [1.14141667 0.2030207 ]]",0,0.541
5,m,38,english,5,3,english,2024-02-09 19:18:22.337453,False,2,374,sounds\french\audio/french_33.wav,"[[  0.         -73.97774923]
 [  0.1        -36.06885346]
 [  0.2        -90.19934184]
 [  0.3          0.39936716]
 [  0.4         96.52672865]
 [  0.5         63.74011165]
 [  0.6         31.44503744]
 [  0.7         14.04693027]
 [  0.8        -77.85077502]
 [  0.9         68.67883666]
 [  1.          74.94832397]
 [  1.1         69.92169069]
 [  1.14141667  18.14392296]]","[[0.         1.19939349]
 [0.1        0.62157126]
 [0.2        0.91970763]
 [0.3        1.47370084]
 [0.4        1.0541108 ]
 [0.5        0.90431886]
 [0.6        1.27813504]
 [0.7        1.74599993]
 [0.8        1.73098361]
 [0.9        1.17206891]
 [1.         1.57344571]
 [1.1        0.28570847]
 [1.14141667 1.15456632]]",0,0.366
5,m,38,english,5,3,english,2024-02-09 19:18:22.337453,False,2,375,sounds\french\audio/french_921.wav,"[[  0.         -22.48407438]
 [  0.1         96.20023213]
 [  0.2        -26.96111018]
 [  0.3         -4.61285821]
 [  0.4        -41.60418228]
 [  0.5         16.2616983 ]
 [  0.6         40.35336686]
 [  0.7        -44.63732317]
 [  0.8         58.4442517 ]
 [  0.9          9.84257376]
 [  1.          41.47094552]
 [  1.1        -30.9925565 ]
 [  1.14141667  23.41632399]]","[[0.         0.56788331]
 [0.1        0.48037084]
 [0.2        1.28513603]
 [0.3        0.47395862]
 [0.4        1.80498459]
 [0.5        1.788566  ]
 [0.6        0.45002982]
 [0.7        0.17970155]
 [0.8        0.55049439]
 [0.9        0.16897134]
 [1.         0.81111626]
 [1.1        1.40036405]
 [1.14141667 1.37522971]]",0,0.201
5,m,38,english,5,3,english,2024-02-09 19:18:22.337453,False,2,376,sounds\french\audio/french_86.wav,"[[  0.          90.66907536]
 [  0.1         72.1103631 ]
 [  0.2         26.87452534]
 [  0.3          6.75702651]
 [  0.4         23.23177759]
 [  0.5         30.56866271]
 [  0.6         57.20013944]
 [  0.7         -0.22903735]
 [  0.8        -52.83374868]
 [  0.9         17.90238633]
 [  1.          -5.19579317]
 [  1.1         32.18274643]
 [  1.14141667 -41.41608864]]","[[0.         1.99403643]
 [0.1        1.04548327]
 [0.2        1.50586628]
 [0.3        0.53204978]
 [0.4        1.50109817]
 [0.5        1.68700691]
 [0.6        1.22814782]
 [0.7        0.68677654]
 [0.8        0.16935265]
 [0.9        1.6413624 ]
 [1.         0.78947627]
 [1.1        1.67130665]
 [1.14141667 0.60178735]]",0,0.086
5,m,38,english,5,3,english,2024-02-09 19:18:22.337453,False,2,377,sounds\french\audio/french_93.wav,"[[  0.          20.12555519]
 [  0.1        -29.60221473]
 [  0.2        -87.78134606]
 [  0.3        -82.8001552 ]
 [  0.4        -57.45805653]
 [  0.5         38.45207173]
 [  0.6        -82.31024106]
 [  0.7        -81.5108822 ]
 [  0.8        -21.35638597]
 [  0.9         39.31235358]
 [  1.          19.94378015]
 [  1.1         26.49572393]
 [  1.14141667  77.06361833]]","[[0.         0.33059304]
 [0.1        0.821528  ]
 [0.2        0.89984912]
 [0.3        1.12923164]
 [0.4        1.13487329]
 [0.5        0.95181736]
 [0.6        1.68020883]
 [0.7        0.87273764]
 [0.8        1.29787472]
 [0.9        0.99595228]
 [1.         1.18578276]
 [1.1        1.21468356]
 [1.14141667 1.4676797 ]]",1,0.297
5,m,38,english,5,3,english,2024-02-09 19:18:22.337453,False,2,378,sounds\french\audio/french_714.wav,"[[  0.          95.90344611]
 [  0.1        -24.72262082]
 [  0.2         59.37227344]
 [  0.3        -27.1741591 ]
 [  0.4         45.66784268]
 [  0.5        -18.42560325]
 [  0.6         22.13445338]
 [  0.7         66.94076888]
 [  0.8         57.76397855]
 [  0.9        -44.74008532]
 [  1.           2.87251243]
 [  1.1        -46.16839405]
 [  1.14141667  -2.68285776]]","[[0.         0.85575765]
 [0.1        0.99109068]
 [0.2        0.51789898]
 [0.3        0.15135155]
 [0.4        0.88454916]
 [0.5        0.71216205]
 [0.6        0.59963982]
 [0.7        1.6442642 ]
 [0.8        1.16580862]
 [0.9        0.14338442]
 [1.         1.85438603]
 [1.1        1.87453004]
 [1.14141667 0.8079694 ]]",0,0.055
5,m,38,english,5,3,english,2024-02-09 19:18:22.337453,False,2,379,sounds\french\audio/french_782.wav,"[[  0.          81.9355603 ]
 [  0.1        -71.71419263]
 [  0.2         22.51011958]
 [  0.3        -99.72950063]
 [  0.4         49.841831  ]
 [  0.5        -23.89351414]
 [  0.6        -24.36460831]
 [  0.7         -7.07228543]
 [  0.8        -45.49814783]
 [  0.9        -73.69355256]
 [  1.         -98.73636383]
 [  1.1         43.00492329]
 [  1.14141667  11.2297133 ]]","[[0.         0.28913279]
 [0.1        1.21962887]
 [0.2        0.54555181]
 [0.3        1.17137312]
 [0.4        1.42537033]
 [0.5        1.15969032]
 [0.6        1.55365219]
 [0.7        1.32611995]
 [0.8        1.19252175]
 [0.9        1.12992737]
 [1.         1.10307244]
 [1.1        0.98390362]
 [1.14141667 0.54655988]]",0,1.172
5,m,38,english,5,3,english,2024-02-09 19:18:22.337453,False,2,380,sounds\french\audio/french_510.wav,"[[  0.           2.5827445 ]
 [  0.1         34.14748066]
 [  0.2         19.6904355 ]
 [  0.3         68.79602602]
 [  0.4         23.1262233 ]
 [  0.5        -73.53138037]
 [  0.6         24.41962913]
 [  0.7         17.96835179]
 [  0.8        -67.32328085]
 [  0.9         75.89669315]
 [  1.          90.53362858]
 [  1.1         10.95226784]
 [  1.14141667 -78.35504449]]","[[0.         1.20035409]
 [0.1        1.5836089 ]
 [0.2        0.29484574]
 [0.3        0.62506133]
 [0.4        0.53994538]
 [0.5        1.49375352]
 [0.6        1.10233577]
 [0.7        1.90421879]
 [0.8        1.01477718]
 [0.9        1.7885059 ]
 [1.         0.32789368]
 [1.1        0.60361192]
 [1.14141667 0.98506187]]",0,0.479
5,m,38,english,5,3,english,2024-02-09 19:18:22.337453,False,2,381,sounds\french\audio/french_392.wav,"[[  0.          43.99848035]
 [  0.1         89.37964473]
 [  0.2        -94.11859464]
 [  0.3         16.69264068]
 [  0.4         83.58605823]
 [  0.5        -10.46823154]
 [  0.6        -50.40581599]
 [  0.7        -34.67139943]
 [  0.8        -49.94222818]
 [  0.9         23.2883478 ]
 [  1.         -13.68434183]
 [  1.1        -91.50967173]
 [  1.14141667  19.2925098 ]]","[[0.         0.24307259]
 [0.1        0.78823441]
 [0.2        1.0877562 ]
 [0.3        1.02068891]
 [0.4        1.168512  ]
 [0.5        0.9879619 ]
 [0.6        0.74539944]
 [0.7        1.04829238]
 [0.8        1.85501319]
 [0.9        1.17241546]
 [1.         0.44164046]
 [1.1        0.8250053 ]
 [1.14141667 0.46893498]]",0,0.233
5,m,38,english,5,3,english,2024-02-09 19:18:22.337453,False,2,382,sounds\french\audio/french_9.wav,"[[  0.          70.21366491]
 [  0.1         91.50371141]
 [  0.2        -85.12272145]
 [  0.3        -75.82363795]
 [  0.4         70.73308418]
 [  0.5        -52.13890441]
 [  0.6         46.1667871 ]
 [  0.7        -34.69202558]
 [  0.8         34.67367308]
 [  0.9         85.91967681]
 [  1.         -83.0691135 ]
 [  1.1         -3.32695792]
 [  1.14141667 -42.25547531]]","[[0.         0.37662074]
 [0.1        1.83157943]
 [0.2        1.1022813 ]
 [0.3        1.48908975]
 [0.4        0.90588888]
 [0.5        0.40550138]
 [0.6        0.80579576]
 [0.7        1.194847  ]
 [0.8        0.68829777]
 [0.9        1.08914426]
 [1.         1.95098113]
 [1.1        0.09700166]
 [1.14141667 0.87797132]]",1,0.438
5,m,38,english,5,3,english,2024-02-09 19:18:22.337453,False,2,383,sounds\french\audio/french_632.wav,"[[  0.         -61.06763991]
 [  0.1        -57.8130529 ]
 [  0.2         54.35735824]
 [  0.3        -58.91236726]
 [  0.4        -64.13325835]
 [  0.5          1.3996077 ]
 [  0.6         96.59752588]
 [  0.7         43.3805339 ]
 [  0.8         -5.42806786]
 [  0.9        -58.66284966]
 [  1.         -47.33386135]
 [  1.1        -21.19098869]
 [  1.14141667  97.6648062 ]]","[[0.         1.6452416 ]
 [0.1        0.41885381]
 [0.2        1.5481505 ]
 [0.3        1.62022086]
 [0.4        0.90453309]
 [0.5        1.75325833]
 [0.6        1.95765898]
 [0.7        1.0798425 ]
 [0.8        1.87572571]
 [0.9        0.40799894]
 [1.         1.4956973 ]
 [1.1        1.53768765]
 [1.14141667 1.52822814]]",0,0.364
5,m,38,english,5,3,english,2024-02-09 19:18:22.337453,False,2,384,sounds\french\audio/french_14.wav,"[[  0.          47.89955795]
 [  0.1         61.35134247]
 [  0.2         25.97351418]
 [  0.3         96.79201142]
 [  0.4         -2.49416278]
 [  0.5        -48.27662198]
 [  0.6         40.76261572]
 [  0.7        -77.78715279]
 [  0.8          1.01884087]
 [  0.9        -46.10217397]
 [  1.          68.50309763]
 [  1.1         54.05400046]
 [  1.14141667  12.0764648 ]]","[[0.         0.26613935]
 [0.1        1.19318983]
 [0.2        1.52071117]
 [0.3        1.8410781 ]
 [0.4        0.83400601]
 [0.5        0.10945672]
 [0.6        0.75420347]
 [0.7        0.00356081]
 [0.8        0.62198197]
 [0.9        0.23306124]
 [1.         1.67852962]
 [1.1        1.90740001]
 [1.14141667 0.55424844]]",0,1.434
5,m,38,english,5,3,english,2024-02-09 19:18:22.337453,False,2,385,sounds\french\audio/french_472.wav,"[[  0.         -31.33353593]
 [  0.1        -49.49917903]
 [  0.2        -71.21753347]
 [  0.3         93.90241079]
 [  0.4        -15.9291914 ]
 [  0.5        -17.91277509]
 [  0.6        -92.82206414]
 [  0.7          9.95802513]
 [  0.8          2.63305448]
 [  0.9        -21.84239236]
 [  1.           8.18231827]
 [  1.1        -31.98207743]
 [  1.14141667 -51.9330912 ]]","[[0.         0.89232459]
 [0.1        0.0337069 ]
 [0.2        1.85491701]
 [0.3        1.04793629]
 [0.4        0.66120859]
 [0.5        1.31546264]
 [0.6        0.75122354]
 [0.7        0.85681732]
 [0.8        1.03382488]
 [0.9        0.59134372]
 [1.         1.03865283]
 [1.1        0.08528466]
 [1.14141667 1.61155129]]",0,0.332
5,m,38,english,5,3,english,2024-02-09 19:18:22.337453,False,2,386,sounds\french\audio/french_703.wav,"[[  0.         -21.37770157]
 [  0.1         50.31331321]
 [  0.2        -49.4496378 ]
 [  0.3        -38.33697717]
 [  0.4         12.97977008]
 [  0.5         66.07418181]
 [  0.6         59.04442669]
 [  0.7         52.62775671]
 [  0.8        -82.81575473]
 [  0.9         45.17803837]
 [  1.          40.13411686]
 [  1.1          8.5356203 ]
 [  1.14141667  19.72779224]]","[[0.         0.66802696]
 [0.1        1.55362381]
 [0.2        1.48463552]
 [0.3        1.06515095]
 [0.4        1.1493655 ]
 [0.5        1.63722162]
 [0.6        1.06112756]
 [0.7        0.93406202]
 [0.8        1.77561251]
 [0.9        1.09803638]
 [1.         0.34970279]
 [1.1        1.76771606]
 [1.14141667 0.04025576]]",0,0.466
5,m,38,english,5,3,english,2024-02-09 19:18:22.337453,False,2,387,sounds\french\audio/french_1.wav,"[[  0.          26.36257075]
 [  0.1         14.94364535]
 [  0.2        -55.06667651]
 [  0.3          9.22256956]
 [  0.4          5.26534665]
 [  0.5        -77.31029628]
 [  0.6         18.7127075 ]
 [  0.7         48.0646471 ]
 [  0.8         14.57442759]
 [  0.9          7.89361979]
 [  1.          -7.03618507]
 [  1.1        -82.88207817]
 [  1.14141667   7.58831171]]","[[0.         0.46363332]
 [0.1        1.03691061]
 [0.2        1.41963097]
 [0.3        1.61805148]
 [0.4        1.72014778]
 [0.5        1.90147838]
 [0.6        0.04284443]
 [0.7        1.2283672 ]
 [0.8        1.41746685]
 [0.9        0.09918081]
 [1.         1.02614047]
 [1.1        1.00877048]
 [1.14141667 0.67836911]]",0,0.319
5,m,38,english,5,3,english,2024-02-09 19:18:22.337453,False,2,388,sounds\french\audio/french_19.wav,"[[  0.         -15.85396014]
 [  0.1         23.57988749]
 [  0.2         90.5407412 ]
 [  0.3         54.36086044]
 [  0.4        -76.80072536]
 [  0.5          4.74522472]
 [  0.6         61.23738329]
 [  0.7         13.41741959]
 [  0.8        -83.99617766]
 [  0.9         47.05289938]
 [  1.          63.84619237]
 [  1.1         70.82125043]
 [  1.14141667  42.43080479]]","[[0.         0.42164348]
 [0.1        0.56417691]
 [0.2        1.21613489]
 [0.3        1.77542269]
 [0.4        1.88282697]
 [0.5        1.35259083]
 [0.6        1.70484982]
 [0.7        0.27300571]
 [0.8        0.56573118]
 [0.9        1.23296436]
 [1.         0.73939236]
 [1.1        0.292558  ]
 [1.14141667 1.64361302]]",0,0.578
5,m,38,english,5,3,english,2024-02-09 19:18:22.337453,False,2,389,sounds\french\audio/french_348.wav,"[[  0.          65.33613143]
 [  0.1         42.71102392]
 [  0.2        -49.50432257]
 [  0.3        -61.26991756]
 [  0.4         81.44701614]
 [  0.5        -10.05211206]
 [  0.6         87.11270269]
 [  0.7         90.29193007]
 [  0.8         93.39850094]
 [  0.9        -79.62417921]
 [  1.         -15.95490787]
 [  1.1        -66.82103003]
 [  1.14141667 -47.67225362]]","[[0.         1.16978451]
 [0.1        0.73810141]
 [0.2        0.4698039 ]
 [0.3        1.26576423]
 [0.4        0.22687112]
 [0.5        1.91474745]
 [0.6        0.22997797]
 [0.7        0.73541214]
 [0.8        0.50625098]
 [0.9        0.81926426]
 [1.         1.83332922]
 [1.1        1.98718157]
 [1.14141667 0.33289995]]",1,0.364
5,m,38,english,5,3,english,2024-02-09 19:18:22.337453,False,2,390,sounds\french\audio/french_972.wav,"[[  0.         -58.81822017]
 [  0.1         34.2814858 ]
 [  0.2         43.99607496]
 [  0.3         33.10738459]
 [  0.4         97.56823967]
 [  0.5         55.48509594]
 [  0.6          8.26795873]
 [  0.7        -94.62638325]
 [  0.8         -5.39482949]
 [  0.9         86.45351621]
 [  1.           5.06049595]
 [  1.1         53.29420755]
 [  1.14141667  35.21157931]]","[[0.         1.66981598]
 [0.1        0.83771232]
 [0.2        1.84031443]
 [0.3        0.59134414]
 [0.4        0.79653586]
 [0.5        0.79909451]
 [0.6        0.62568008]
 [0.7        1.95315118]
 [0.8        1.30361038]
 [0.9        1.20040606]
 [1.         1.77234817]
 [1.1        0.02841743]
 [1.14141667 0.93331201]]",0,0.213
5,m,38,english,5,3,english,2024-02-09 19:18:22.337453,False,2,391,sounds\french\audio/french_176.wav,"[[  0.          17.42683987]
 [  0.1        -69.24605077]
 [  0.2         -6.34428043]
 [  0.3         75.15972611]
 [  0.4        -10.39495746]
 [  0.5         13.88146309]
 [  0.6         18.31316109]
 [  0.7        -69.45072477]
 [  0.8        -49.21604106]
 [  0.9        -57.97216   ]
 [  1.          70.54547072]
 [  1.1         20.83211188]
 [  1.14141667  11.47002735]]","[[0.         0.67887999]
 [0.1        1.61684562]
 [0.2        0.9525789 ]
 [0.3        1.10949226]
 [0.4        1.71567696]
 [0.5        1.28276813]
 [0.6        1.19506457]
 [0.7        1.14753905]
 [0.8        1.86893975]
 [0.9        0.76398554]
 [1.         1.21135923]
 [1.1        1.97943211]
 [1.14141667 0.36114949]]",1,0.572
5,m,38,english,5,3,english,2024-02-09 19:18:22.337453,False,2,392,sounds\french\audio/french_853.wav,"[[  0.         -35.85509781]
 [  0.1        -85.16852279]
 [  0.2         43.35151906]
 [  0.3        -36.27408381]
 [  0.4         48.36174943]
 [  0.5         15.35458122]
 [  0.6         90.63917047]
 [  0.7        -25.85237464]
 [  0.8         70.77908005]
 [  0.9         38.87803449]
 [  1.         -78.6315789 ]
 [  1.1         -2.04968734]
 [  1.14141667 -46.31602044]]","[[0.         0.87912281]
 [0.1        1.60362916]
 [0.2        0.05367398]
 [0.3        1.0932021 ]
 [0.4        0.145173  ]
 [0.5        0.56043792]
 [0.6        0.33756351]
 [0.7        1.25653162]
 [0.8        0.37110217]
 [0.9        0.9869935 ]
 [1.         1.45701755]
 [1.1        1.50454965]
 [1.14141667 1.33087312]]",0,0.101
5,m,38,english,5,3,english,2024-02-09 19:18:22.337453,False,2,393,sounds\french\audio/french_523.wav,"[[  0.         -75.83581255]
 [  0.1        -63.95979745]
 [  0.2         70.70748816]
 [  0.3        -88.32485967]
 [  0.4          8.86467855]
 [  0.5        -78.35507958]
 [  0.6         79.68692287]
 [  0.7        -66.26307401]
 [  0.8         82.45368817]
 [  0.9          5.31615062]
 [  1.          52.29136848]
 [  1.1         84.25542057]
 [  1.14141667 -81.50074772]]","[[0.         1.74891242]
 [0.1        1.24637055]
 [0.2        1.089879  ]
 [0.3        0.1892634 ]
 [0.4        1.69433182]
 [0.5        1.04689272]
 [0.6        1.57985602]
 [0.7        0.43504497]
 [0.8        1.24932662]
 [0.9        0.10258394]
 [1.         0.36040908]
 [1.1        1.46217366]
 [1.14141667 0.41311824]]",1,0.189
5,m,38,english,5,3,english,2024-02-09 19:18:22.337453,False,2,394,sounds\french\audio/french_281.wav,"[[  0.         -95.80336327]
 [  0.1         13.19102034]
 [  0.2         42.62860053]
 [  0.3         21.92016727]
 [  0.4         -2.97694346]
 [  0.5         -3.56004014]
 [  0.6        -28.69548466]
 [  0.7         -9.16727504]
 [  0.8          7.86062341]
 [  0.9        -95.03668578]
 [  1.         -83.63952968]
 [  1.1         74.11931798]
 [  1.14141667  32.00428404]]","[[0.         0.76183862]
 [0.1        1.51704684]
 [0.2        0.9408124 ]
 [0.3        0.14797413]
 [0.4        0.97581102]
 [0.5        0.67546432]
 [0.6        0.35656679]
 [0.7        1.28503381]
 [0.8        0.91616519]
 [0.9        1.72740892]
 [1.         0.79466522]
 [1.1        0.92967992]
 [1.14141667 1.54385024]]",0,0.176
5,m,38,english,5,3,english,2024-02-09 19:18:22.337453,False,2,395,sounds\french\audio/french_661.wav,"[[  0.          30.83790401]
 [  0.1         81.04248617]
 [  0.2        -46.51005007]
 [  0.3         26.8916854 ]
 [  0.4        -54.15099684]
 [  0.5        -20.07151139]
 [  0.6        -67.43725044]
 [  0.7        -45.28880793]
 [  0.8         24.96344604]
 [  0.9        -21.69937315]
 [  1.         -64.52606708]
 [  1.1          4.37748404]
 [  1.14141667 -33.68343588]]","[[0.         1.59193642]
 [0.1        0.6507153 ]
 [0.2        1.89395187]
 [0.3        0.85636205]
 [0.4        1.87917795]
 [0.5        1.44711177]
 [0.6        0.9534675 ]
 [0.7        0.8140216 ]
 [0.8        1.80648656]
 [0.9        1.45486334]
 [1.         0.69077663]
 [1.1        0.59868939]
 [1.14141667 0.88637105]]",1,0.23
5,m,38,english,5,3,english,2024-02-09 19:18:22.337453,False,2,396,sounds\french\audio/french_768.wav,"[[  0.         -90.25998479]
 [  0.1         34.21415615]
 [  0.2        -52.71140353]
 [  0.3         -0.87917212]
 [  0.4         16.13384172]
 [  0.5         40.42476131]
 [  0.6         89.24687933]
 [  0.7        -96.15596273]
 [  0.8        -38.29186897]
 [  0.9        -17.48626228]
 [  1.          19.34641069]
 [  1.1         11.56546597]
 [  1.14141667  81.99709235]]","[[0.         0.74075575]
 [0.1        0.17866259]
 [0.2        1.12012438]
 [0.3        1.6540895 ]
 [0.4        0.5612472 ]
 [0.5        0.6068206 ]
 [0.6        0.74654886]
 [0.7        0.53936952]
 [0.8        1.70646715]
 [0.9        0.70300524]
 [1.         1.33185606]
 [1.1        0.71915286]
 [1.14141667 0.49042586]]",0,0.075
5,m,38,english,5,3,english,2024-02-09 19:18:22.337453,False,2,397,sounds\french\audio/french_24.wav,"[[  0.           5.31497869]
 [  0.1        -26.8625117 ]
 [  0.2         58.97663957]
 [  0.3         51.69210178]
 [  0.4         81.05661537]
 [  0.5         65.07233235]
 [  0.6         76.62421962]
 [  0.7         59.88439987]
 [  0.8         11.60739883]
 [  0.9        -31.04604082]
 [  1.           4.7112785 ]
 [  1.1         82.50060059]
 [  1.14141667 -13.18326267]]","[[0.         0.05163285]
 [0.1        1.69751723]
 [0.2        1.0154946 ]
 [0.3        0.2245849 ]
 [0.4        0.62964931]
 [0.5        1.32161931]
 [0.6        1.5556039 ]
 [0.7        1.39639667]
 [0.8        1.45125742]
 [0.9        0.73211906]
 [1.         1.04041435]
 [1.1        1.11274362]
 [1.14141667 0.74288089]]",0,0.471
5,m,38,english,5,3,english,2024-02-09 19:18:22.337453,False,2,398,sounds\french\audio/french_960.wav,"[[  0.          65.02651565]
 [  0.1         82.40882927]
 [  0.2         28.12734754]
 [  0.3         28.01004829]
 [  0.4          3.02428698]
 [  0.5          0.7274939 ]
 [  0.6        -60.08600985]
 [  0.7        -41.81362659]
 [  0.8        -56.57530821]
 [  0.9          2.04355072]
 [  1.         -25.0735293 ]
 [  1.1        -68.99460525]
 [  1.14141667  20.50863588]]","[[0.         0.62779363]
 [0.1        1.28641841]
 [0.2        0.05248415]
 [0.3        1.81040283]
 [0.4        1.15452214]
 [0.5        1.58557195]
 [0.6        1.29155309]
 [0.7        0.74887415]
 [0.8        0.675417  ]
 [0.9        1.63280072]
 [1.         0.27499511]
 [1.1        0.35686204]
 [1.14141667 0.25414793]]",0,0.453
5,m,38,english,5,3,english,2024-02-09 19:18:22.337453,False,2,399,sounds\french\audio/french_110.wav,"[[  0.         -49.55382507]
 [  0.1          3.45056557]
 [  0.2         60.85553291]
 [  0.3         27.01273716]
 [  0.4         69.39855055]
 [  0.5        -57.48674894]
 [  0.6          9.44204119]
 [  0.7          8.79064651]
 [  0.8        -59.90874368]
 [  0.9        -59.0130881 ]
 [  1.          53.21957995]
 [  1.1        -40.30790368]
 [  1.14141667  27.6270525 ]]","[[0.         1.59273092]
 [0.1        0.34265347]
 [0.2        1.89522696]
 [0.3        1.37531992]
 [0.4        0.92990778]
 [0.5        0.17949399]
 [0.6        1.02012289]
 [0.7        0.69455485]
 [0.8        0.57470009]
 [0.9        0.48670798]
 [1.         1.28651513]
 [1.1        1.81922057]
 [1.14141667 0.80818814]]",0,0.21
5,m,38,english,5,3,english,2024-02-09 19:18:22.337453,False,2,400,sounds\french\audio/french_452.wav,"[[  0.         -65.13304523]
 [  0.1         91.34871159]
 [  0.2        -53.78564445]
 [  0.3        -10.05929492]
 [  0.4         47.92385069]
 [  0.5        -15.4646629 ]
 [  0.6         67.64656442]
 [  0.7         70.11175977]
 [  0.8         14.66379349]
 [  0.9        -29.42655143]
 [  1.         -94.24598391]
 [  1.1         -5.14208276]
 [  1.14141667 -20.66516361]]","[[0.         1.10727473]
 [0.1        0.36749155]
 [0.2        1.21292776]
 [0.3        1.33310916]
 [0.4        0.35628751]
 [0.5        1.12575771]
 [0.6        1.51128562]
 [0.7        0.50973205]
 [0.8        0.76730337]
 [0.9        0.80900056]
 [1.         1.56347286]
 [1.1        0.95168615]
 [1.14141667 1.45096679]]",0,0.131
5,m,38,english,5,3,english,2024-02-09 19:18:22.337453,False,2,401,sounds\french\audio/french_562.wav,"[[  0.         -62.26311894]
 [  0.1        -29.91083856]
 [  0.2         15.05518922]
 [  0.3         42.74752122]
 [  0.4        -82.94715379]
 [  0.5         37.27231389]
 [  0.6         -2.79734893]
 [  0.7         -1.09065832]
 [  0.8         -9.82092664]
 [  0.9         23.81657268]
 [  1.         -52.21798744]
 [  1.1         37.97882758]
 [  1.14141667 -91.20085826]]","[[0.         1.28550191]
 [0.1        1.44908257]
 [0.2        1.49435197]
 [0.3        1.40225876]
 [0.4        0.68570722]
 [0.5        0.51806123]
 [0.6        0.97258992]
 [0.7        1.55837167]
 [0.8        1.89681416]
 [0.9        0.75154366]
 [1.         1.13672713]
 [1.1        0.30687483]
 [1.14141667 1.92977141]]",0,0.263
5,m,38,english,5,3,english,2024-02-09 19:18:22.337453,False,2,402,sounds\french\audio/french_269.wav,"[[  0.         -54.46681575]
 [  0.1         40.48652867]
 [  0.2         23.52786486]
 [  0.3         -2.9574454 ]
 [  0.4        -10.10362515]
 [  0.5        -29.51615189]
 [  0.6         -9.00744172]
 [  0.7         20.65779738]
 [  0.8         -2.21401948]
 [  0.9        -19.8598657 ]
 [  1.         -89.62311782]
 [  1.1         -1.41224571]
 [  1.14141667  75.71209492]]","[[0.         0.14617917]
 [0.1        1.23122751]
 [0.2        1.6621536 ]
 [0.3        1.2319681 ]
 [0.4        0.6831451 ]
 [0.5        0.23334627]
 [0.6        0.55635706]
 [0.7        0.94920478]
 [0.8        0.83951845]
 [0.9        0.61186305]
 [1.         0.18517136]
 [1.1        1.59243868]
 [1.14141667 0.66484659]]",1,0.322
5,m,38,english,5,3,english,2024-02-09 19:18:22.337453,False,2,403,sounds\french\audio/french_232.wav,"[[  0.          36.09628774]
 [  0.1         70.77342165]
 [  0.2         92.70412942]
 [  0.3         11.2091004 ]
 [  0.4         97.58748495]
 [  0.5         34.99158462]
 [  0.6         83.35627055]
 [  0.7         54.22162088]
 [  0.8         32.72297276]
 [  0.9          5.03567369]
 [  1.         -23.14752626]
 [  1.1        -11.42184493]
 [  1.14141667 -77.93527489]]","[[0.         0.41820771]
 [0.1        0.42448846]
 [0.2        1.53853672]
 [0.3        1.60298784]
 [0.4        1.81399086]
 [0.5        0.3805347 ]
 [0.6        1.83687399]
 [0.7        1.52559445]
 [0.8        0.94250496]
 [0.9        0.72452257]
 [1.         1.88926376]
 [1.1        0.29038285]
 [1.14141667 1.71088611]]",0,0.268
5,m,38,english,5,3,english,2024-02-09 19:18:22.337453,False,2,404,sounds\french\audio/french_52.wav,"[[  0.          93.38164969]
 [  0.1         -4.17463196]
 [  0.2         43.01045584]
 [  0.3         79.89764716]
 [  0.4         89.53615732]
 [  0.5         -1.91048344]
 [  0.6         -9.63392165]
 [  0.7        -91.20147798]
 [  0.8        -22.16876699]
 [  0.9         26.46243178]
 [  1.         -96.25408509]
 [  1.1        -45.87026752]
 [  1.14141667 -15.0624862 ]]","[[0.         0.21743143]
 [0.1        1.66269787]
 [0.2        0.38714673]
 [0.3        1.29835481]
 [0.4        1.7255644 ]
 [0.5        0.55155407]
 [0.6        0.27578942]
 [0.7        1.40308441]
 [0.8        1.87234948]
 [0.9        1.88038075]
 [1.         1.06731664]
 [1.1        1.74934034]
 [1.14141667 1.38742842]]",1,0.449
5,m,38,english,5,3,english,2024-02-09 19:18:22.337453,False,2,405,sounds\french\audio/french_927.wav,"[[  0.         -46.05593581]
 [  0.1         62.22976421]
 [  0.2         12.11231465]
 [  0.3        -43.66006165]
 [  0.4         52.37116658]
 [  0.5         -9.37800408]
 [  0.6         80.54637955]
 [  0.7        -47.54165707]
 [  0.8         -4.75137405]
 [  0.9        -23.76152457]
 [  1.          99.64582752]
 [  1.1         40.942183  ]
 [  1.14141667  87.8168677 ]]","[[0.         0.51738485]
 [0.1        1.31954079]
 [0.2        1.09466444]
 [0.3        1.10625026]
 [0.4        1.24572865]
 [0.5        1.13457981]
 [0.6        0.80829687]
 [0.7        0.51219219]
 [0.8        0.84788996]
 [0.9        1.37129048]
 [1.         0.98680773]
 [1.1        1.42160835]
 [1.14141667 1.69417822]]",0,0.088
5,m,38,english,5,3,english,2024-02-09 19:18:22.337453,False,2,406,sounds\french\audio/french_632.wav,"[[  0.         -61.06763991]
 [  0.1        -57.8130529 ]
 [  0.2         54.35735824]
 [  0.3        -58.91236726]
 [  0.4        -64.13325835]
 [  0.5          1.3996077 ]
 [  0.6         96.59752588]
 [  0.7         43.3805339 ]
 [  0.8         -5.42806786]
 [  0.9        -58.66284966]
 [  1.         -47.33386135]
 [  1.1        -21.19098869]
 [  1.14141667  97.6648062 ]]","[[0.         1.6452416 ]
 [0.1        0.41885381]
 [0.2        1.5481505 ]
 [0.3        1.62022086]
 [0.4        0.90453309]
 [0.5        1.75325833]
 [0.6        1.95765898]
 [0.7        1.0798425 ]
 [0.8        1.87572571]
 [0.9        0.40799894]
 [1.         1.4956973 ]
 [1.1        1.53768765]
 [1.14141667 1.52822814]]",0,0.797
5,m,38,english,5,3,english,2024-02-09 19:18:22.337453,False,2,407,sounds\french\audio/french_974.wav,"[[  0.          70.97382946]
 [  0.1        -11.51206682]
 [  0.2         21.14590895]
 [  0.3         -1.24336301]
 [  0.4         -7.59562756]
 [  0.5         98.81108041]
 [  0.6          1.5690047 ]
 [  0.7         32.73857184]
 [  0.8         21.15705836]
 [  0.9         24.28285736]
 [  1.         -18.85169767]
 [  1.1        -83.94572859]
 [  1.14141667 -90.55748201]]","[[0.         1.27524467]
 [0.1        0.96634171]
 [0.2        1.94727541]
 [0.3        0.55924313]
 [0.4        0.16409288]
 [0.5        0.65824955]
 [0.6        1.04527507]
 [0.7        1.28112397]
 [0.8        1.89872216]
 [0.9        0.65988414]
 [1.         1.70679925]
 [1.1        1.83803483]
 [1.14141667 1.54364757]]",0,0.846
5,m,38,english,5,3,english,2024-02-09 19:18:22.337453,False,2,408,sounds\french\audio/french_936.wav,"[[  0.          67.52582955]
 [  0.1        -45.00790549]
 [  0.2         99.04057748]
 [  0.3        -68.36116283]
 [  0.4        -69.72509786]
 [  0.5         49.9602727 ]
 [  0.6        -86.20274362]
 [  0.7        -45.26451629]
 [  0.8         92.93059236]
 [  0.9         20.23217844]
 [  1.         -97.47433382]
 [  1.1         -0.33226463]
 [  1.14141667 -70.80442404]]","[[0.         0.02866994]
 [0.1        1.52120589]
 [0.2        1.49962967]
 [0.3        0.94170168]
 [0.4        1.45346446]
 [0.5        1.239675  ]
 [0.6        0.33483984]
 [0.7        0.80645918]
 [0.8        1.81014272]
 [0.9        0.27928591]
 [1.         0.6276723 ]
 [1.1        0.06404952]
 [1.14141667 0.03566212]]",0,0.32
5,m,38,english,5,3,english,2024-02-09 19:18:22.337453,False,2,409,sounds\french\audio/french_630.wav,"[[  0.         -11.85609202]
 [  0.1         96.09656475]
 [  0.2        -33.56747365]
 [  0.3         28.74577445]
 [  0.4          2.92872037]
 [  0.5         33.78274033]
 [  0.6         33.00019437]
 [  0.7         47.31284147]
 [  0.8        -99.16635588]
 [  0.9         77.81632981]
 [  1.          69.4017306 ]
 [  1.1         18.2284971 ]
 [  1.14141667 -69.99810241]]","[[0.         1.94260734]
 [0.1        1.15731247]
 [0.2        0.61883627]
 [0.3        1.63189615]
 [0.4        0.13310367]
 [0.5        0.62854349]
 [0.6        1.95286232]
 [0.7        0.55695804]
 [0.8        0.39433406]
 [0.9        0.61587688]
 [1.         1.15717027]
 [1.1        0.28159614]
 [1.14141667 1.31420192]]",1,0.395
5,m,38,english,5,3,english,2024-02-09 19:18:22.337453,False,2,410,sounds\french\audio/french_821.wav,"[[  0.          29.40484442]
 [  0.1        -82.9706924 ]
 [  0.2        -20.36055848]
 [  0.3         70.67916019]
 [  0.4         97.39088207]
 [  0.5        -30.70591252]
 [  0.6         -3.37730477]
 [  0.7         -0.47603145]
 [  0.8        -91.88596282]
 [  0.9         98.16537349]
 [  1.         -18.87996809]
 [  1.1        -47.32913681]
 [  1.14141667 -49.13726548]]","[[0.         0.95426299]
 [0.1        1.5819304 ]
 [0.2        0.87869467]
 [0.3        1.08099797]
 [0.4        0.67073914]
 [0.5        0.41474844]
 [0.6        1.79777915]
 [0.7        0.30685212]
 [0.8        1.93131035]
 [0.9        0.96154714]
 [1.         1.35337515]
 [1.1        1.56630163]
 [1.14141667 0.77030274]]",0,0.396
5,m,38,english,5,3,english,2024-02-09 19:18:22.337453,False,2,411,sounds\french\audio/french_197.wav,"[[  0.         -32.22739451]
 [  0.1        -62.71984809]
 [  0.2         74.98952372]
 [  0.3         45.74615237]
 [  0.4        -90.51519145]
 [  0.5        -55.57177481]
 [  0.6         29.61889111]
 [  0.7        -22.23442676]
 [  0.8         -2.38421375]
 [  0.9         20.49896048]
 [  1.         -44.60269007]
 [  1.1         76.8804822 ]
 [  1.14141667  16.68296349]]","[[0.         1.51686325]
 [0.1        0.24201413]
 [0.2        0.91229046]
 [0.3        1.18910292]
 [0.4        0.62237854]
 [0.5        1.52029181]
 [0.6        0.64553376]
 [0.7        0.69050991]
 [0.8        1.96622619]
 [0.9        1.79065794]
 [1.         0.97033515]
 [1.1        0.66551295]
 [1.14141667 0.45334556]]",0,0.486
5,m,38,english,5,3,english,2024-02-09 19:18:22.337453,False,2,412,sounds\french\audio/french_269.wav,"[[  0.         -54.46681575]
 [  0.1         40.48652867]
 [  0.2         23.52786486]
 [  0.3         -2.9574454 ]
 [  0.4        -10.10362515]
 [  0.5        -29.51615189]
 [  0.6         -9.00744172]
 [  0.7         20.65779738]
 [  0.8         -2.21401948]
 [  0.9        -19.8598657 ]
 [  1.         -89.62311782]
 [  1.1         -1.41224571]
 [  1.14141667  75.71209492]]","[[0.         0.14617917]
 [0.1        1.23122751]
 [0.2        1.6621536 ]
 [0.3        1.2319681 ]
 [0.4        0.6831451 ]
 [0.5        0.23334627]
 [0.6        0.55635706]
 [0.7        0.94920478]
 [0.8        0.83951845]
 [0.9        0.61186305]
 [1.         0.18517136]
 [1.1        1.59243868]
 [1.14141667 0.66484659]]",0,0.448
5,m,38,english,5,3,english,2024-02-09 19:18:22.337453,False,2,413,sounds\french\audio/french_29.wav,"[[  0.          21.77688976]
 [  0.1         24.23496893]
 [  0.2        -77.17155219]
 [  0.3        -60.073072  ]
 [  0.4        -50.13575325]
 [  0.5        -77.43985725]
 [  0.6         10.83492936]
 [  0.7         41.96864578]
 [  0.8         24.15001974]
 [  0.9         36.26552414]
 [  1.          52.90736108]
 [  1.1         63.28977691]
 [  1.14141667 -48.15622319]]","[[0.         1.0440217 ]
 [0.1        1.09015273]
 [0.2        1.90323548]
 [0.3        1.85202453]
 [0.4        0.8874885 ]
 [0.5        1.8117264 ]
 [0.6        1.39622978]
 [0.7        0.35259402]
 [0.8        1.18506837]
 [0.9        1.17740145]
 [1.         1.00535822]
 [1.1        0.9642083 ]
 [1.14141667 1.23423226]]",0,0.343
5,m,38,english,5,3,english,2024-02-09 19:18:22.337453,False,2,414,sounds\french\audio/french_1.wav,"[[  0.          26.36257075]
 [  0.1         14.94364535]
 [  0.2        -55.06667651]
 [  0.3          9.22256956]
 [  0.4          5.26534665]
 [  0.5        -77.31029628]
 [  0.6         18.7127075 ]
 [  0.7         48.0646471 ]
 [  0.8         14.57442759]
 [  0.9          7.89361979]
 [  1.          -7.03618507]
 [  1.1        -82.88207817]
 [  1.14141667   7.58831171]]","[[0.         0.46363332]
 [0.1        1.03691061]
 [0.2        1.41963097]
 [0.3        1.61805148]
 [0.4        1.72014778]
 [0.5        1.90147838]
 [0.6        0.04284443]
 [0.7        1.2283672 ]
 [0.8        1.41746685]
 [0.9        0.09918081]
 [1.         1.02614047]
 [1.1        1.00877048]
 [1.14141667 0.67836911]]",0,0.649
5,m,38,english,5,3,english,2024-02-09 19:18:22.337453,False,2,415,sounds\french\audio/french_289.wav,"[[  0.          14.70665442]
 [  0.1         95.25316321]
 [  0.2         22.20186217]
 [  0.3        -17.9137024 ]
 [  0.4        -10.1137558 ]
 [  0.5        -69.76519391]
 [  0.6        -29.65482042]
 [  0.7         65.48072433]
 [  0.8         60.45691667]
 [  0.9        -67.68084872]
 [  1.          65.70228923]
 [  1.1        -57.15088735]
 [  1.14141667   1.39733305]]","[[0.         1.83068481]
 [0.1        0.61558809]
 [0.2        1.36200616]
 [0.3        1.0791943 ]
 [0.4        0.20327362]
 [0.5        1.24486775]
 [0.6        1.32936048]
 [0.7        1.56831723]
 [0.8        1.33915521]
 [0.9        1.39765906]
 [1.         1.14730346]
 [1.1        1.20392446]
 [1.14141667 0.91697028]]",1,0.591
5,m,38,english,5,3,english,2024-02-09 19:18:22.337453,False,2,416,sounds\french\audio/french_367.wav,"[[  0.         -19.33050099]
 [  0.1         -1.29300582]
 [  0.2        -53.6628535 ]
 [  0.3        -26.30205028]
 [  0.4        -63.4363173 ]
 [  0.5          6.39307262]
 [  0.6        -64.6682597 ]
 [  0.7         29.77195728]
 [  0.8         57.14519673]
 [  0.9         -3.13638169]
 [  1.          29.03856774]
 [  1.1        -14.77542226]
 [  1.14141667 -39.4710146 ]]","[[0.         0.32588684]
 [0.1        1.20079268]
 [0.2        1.68961812]
 [0.3        0.18361897]
 [0.4        0.97466933]
 [0.5        1.38512788]
 [0.6        0.02274579]
 [0.7        0.18668815]
 [0.8        0.42667984]
 [0.9        0.48752638]
 [1.         0.21358708]
 [1.1        0.34158708]
 [1.14141667 1.96821169]]",0,0.813
5,m,38,english,5,3,english,2024-02-09 19:18:22.337453,False,2,417,sounds\french\audio/french_940.wav,"[[  0.         -25.91102363]
 [  0.1        -98.40103544]
 [  0.2        -27.15280701]
 [  0.3        -22.44143901]
 [  0.4        -35.46456579]
 [  0.5          4.61704007]
 [  0.6         -0.66829234]
 [  0.7        -40.91244747]
 [  0.8         -7.0277311 ]
 [  0.9        -54.36774404]
 [  1.         -70.25957044]
 [  1.1        -51.97264261]
 [  1.14141667 -21.44395954]]","[[0.         1.80936278]
 [0.1        0.189785  ]
 [0.2        0.92419409]
 [0.3        1.89569959]
 [0.4        1.98157399]
 [0.5        0.94447039]
 [0.6        1.15374369]
 [0.7        1.96635158]
 [0.8        0.84047268]
 [0.9        0.10425056]
 [1.         0.65084977]
 [1.1        0.80794246]
 [1.14141667 0.58048173]]",0,1.733
5,m,38,english,5,3,english,2024-02-09 19:18:22.337453,False,2,418,sounds\french\audio/french_999.wav,"[[  0.          49.59998694]
 [  0.1        -18.3609497 ]
 [  0.2          2.93304339]
 [  0.3         57.93949433]
 [  0.4         22.39348877]
 [  0.5         80.52243974]
 [  0.6        -44.27130323]
 [  0.7         74.01577691]
 [  0.8          6.35871184]
 [  0.9         35.77378691]
 [  1.          -3.83279808]
 [  1.1         68.61998749]
 [  1.14141667  22.18129114]]","[[0.         1.8221993 ]
 [0.1        1.29033683]
 [0.2        1.83872361]
 [0.3        0.95044995]
 [0.4        0.11870754]
 [0.5        0.36425105]
 [0.6        1.15793319]
 [0.7        1.54792592]
 [0.8        0.09478288]
 [0.9        1.51328508]
 [1.         0.96114029]
 [1.1        1.75865896]
 [1.14141667 0.59242415]]",1,2.179
5,m,38,english,5,3,english,2024-02-09 19:18:22.337453,False,2,419,sounds\french\audio/french_472.wav,"[[  0.         -31.33353593]
 [  0.1        -49.49917903]
 [  0.2        -71.21753347]
 [  0.3         93.90241079]
 [  0.4        -15.9291914 ]
 [  0.5        -17.91277509]
 [  0.6        -92.82206414]
 [  0.7          9.95802513]
 [  0.8          2.63305448]
 [  0.9        -21.84239236]
 [  1.           8.18231827]
 [  1.1        -31.98207743]
 [  1.14141667 -51.9330912 ]]","[[0.         0.89232459]
 [0.1        0.0337069 ]
 [0.2        1.85491701]
 [0.3        1.04793629]
 [0.4        0.66120859]
 [0.5        1.31546264]
 [0.6        0.75122354]
 [0.7        0.85681732]
 [0.8        1.03382488]
 [0.9        0.59134372]
 [1.         1.03865283]
 [1.1        0.08528466]
 [1.14141667 1.61155129]]",0,1.596
5,m,38,english,5,3,english,2024-02-09 19:18:22.337453,False,2,420,sounds\french\audio/french_486.wav,"[[  0.         -98.02817501]
 [  0.1         65.33144032]
 [  0.2         61.38493925]
 [  0.3         96.45925622]
 [  0.4          5.96921881]
 [  0.5         30.65383736]
 [  0.6        -44.15981347]
 [  0.7         31.03879088]
 [  0.8         51.75647773]
 [  0.9        -98.74797635]
 [  1.          42.51271204]
 [  1.1         63.21062453]
 [  1.14141667 -77.59539186]]","[[0.         1.75569009]
 [0.1        1.7050464 ]
 [0.2        0.61683653]
 [0.3        1.35566853]
 [0.4        0.89727466]
 [0.5        1.1713147 ]
 [0.6        1.99548871]
 [0.7        0.16009728]
 [0.8        0.88389912]
 [0.9        0.14376531]
 [1.         0.54659097]
 [1.1        1.09027863]
 [1.14141667 0.71851787]]",0,0.471
5,m,38,english,5,3,english,2024-02-09 19:18:22.337453,False,2,421,sounds\french\audio/french_640.wav,"[[  0.         -23.23499115]
 [  0.1         -5.32274666]
 [  0.2        -26.96491629]
 [  0.3        -24.71578064]
 [  0.4          4.92396133]
 [  0.5         79.3437843 ]
 [  0.6        -37.35644985]
 [  0.7         90.7866094 ]
 [  0.8        -21.5684971 ]
 [  0.9         -3.17217866]
 [  1.         -53.51075281]
 [  1.1         23.72364294]
 [  1.14141667 -59.96309897]]","[[0.         0.51826373]
 [0.1        0.48541717]
 [0.2        0.32572671]
 [0.3        0.87356407]
 [0.4        0.06333599]
 [0.5        0.63173489]
 [0.6        0.49522912]
 [0.7        1.48986997]
 [0.8        1.18308083]
 [0.9        1.04898469]
 [1.         1.09208336]
 [1.1        0.03972765]
 [1.14141667 0.83305144]]",0,0.583
5,m,38,english,5,3,english,2024-02-09 19:18:22.337453,False,2,422,sounds\french\audio/french_809.wav,"[[  0.         -97.7648991 ]
 [  0.1        -16.18124336]
 [  0.2        -71.88539975]
 [  0.3        -75.84617329]
 [  0.4        -56.68697986]
 [  0.5         17.73104693]
 [  0.6         -2.03944779]
 [  0.7        -23.40421354]
 [  0.8         79.78220222]
 [  0.9         49.19641655]
 [  1.           6.2438068 ]
 [  1.1         -8.92121489]
 [  1.14141667  -7.95185914]]","[[0.         0.21825072]
 [0.1        0.34685571]
 [0.2        1.98263416]
 [0.3        0.64349693]
 [0.4        1.61870407]
 [0.5        0.29134017]
 [0.6        0.74693677]
 [0.7        1.6892509 ]
 [0.8        0.75730555]
 [0.9        1.52241905]
 [1.         0.50964644]
 [1.1        1.05106393]
 [1.14141667 0.92890258]]",1,0.455
5,m,38,english,5,3,english,2024-02-09 19:18:22.337453,False,2,423,sounds\french\audio/french_113.wav,"[[  0.          51.06943886]
 [  0.1         24.37567111]
 [  0.2        -30.40960405]
 [  0.3        -91.25272525]
 [  0.4         87.90673924]
 [  0.5          2.42955661]
 [  0.6         36.08285451]
 [  0.7        -99.48293301]
 [  0.8         59.12958731]
 [  0.9        -71.36695162]
 [  1.         -86.60100387]
 [  1.1        -70.30574561]
 [  1.14141667  72.13764249]]","[[0.         1.16712097]
 [0.1        0.22717449]
 [0.2        0.5815837 ]
 [0.3        0.50497114]
 [0.4        1.37233966]
 [0.5        1.42439941]
 [0.6        1.26104805]
 [0.7        1.48988751]
 [0.8        1.64050353]
 [0.9        1.39380246]
 [1.         1.34922295]
 [1.1        0.5132175 ]
 [1.14141667 0.46186768]]",1,1.053
5,m,38,english,5,3,english,2024-02-09 19:18:22.337453,False,2,424,sounds\french\audio/french_665.wav,"[[  0.          40.10949249]
 [  0.1        -62.11772623]
 [  0.2         10.37983959]
 [  0.3        -90.96267468]
 [  0.4        -82.59415996]
 [  0.5         72.10201259]
 [  0.6          7.07517584]
 [  0.7         17.81948605]
 [  0.8        -75.16725794]
 [  0.9         86.62263138]
 [  1.         -39.56803586]
 [  1.1        -92.62860056]
 [  1.14141667  37.86117833]]","[[0.         1.54602454]
 [0.1        0.85820789]
 [0.2        1.54593526]
 [0.3        1.66779558]
 [0.4        1.76178738]
 [0.5        0.44098313]
 [0.6        1.49710418]
 [0.7        1.04266642]
 [0.8        1.09545449]
 [0.9        0.00262512]
 [1.         1.93103182]
 [1.1        1.53232008]
 [1.14141667 1.33107791]]",1,1.424
5,m,38,english,5,3,english,2024-02-09 19:18:22.337453,False,2,425,sounds\french\audio/french_407.wav,"[[  0.         -52.73012387]
 [  0.1        -28.5729864 ]
